acc_x,acc_y,acc_z,gyr_x,gyr_y,gyr_z,timestamp,label
-3.404987,-5.347959,-7.068398,159.389999,54.18,-6.58,1729476102170.0,0.0
-2.98385,-5.876772,-5.379066,246.889999,43.470001,8.82,1729476102178.0,0.0
-2.926422,-6.195018,-4.400401,254.800003,41.580002,13.65,1729476102178.0,0.0
-2.644069,-7.341179,-1.234696,223.580002,25.41,15.89,1729476102179.0,0.0
-3.550949,-5.288138,-1.201197,146.860001,11.76,13.79,1729476102196.0,0.0
-3.996014,-7.551748,-1.574477,112.139999,-10.57,21.84,1729476102215.0,0.0
-4.218546,-8.496914,-1.402194,67.620003,-15.61,17.360001,1729476102235.0,0.0
-3.328416,-10.607382,-3.359523,49.630001,-35.630001,14.49,1729476102256.0,0.0
-2.699104,-9.135797,-5.726025,22.82,-36.540001,13.72,1729476102275.0,0.0
-1.971686,-7.587641,-4.603791,14.28,-34.02,23.24,1729476102297.0,0.0
-2.457429,-8.013563,-4.551149,51.029999,-32.970001,30.940001,1729476102315.0,0.0
-4.235296,-9.427721,-3.034099,93.730003,-7.77,22.469999,1729476102335.0,0.0
-4.419543,-9.71486,-3.751946,118.230003,-6.23,19.879999,1729476102355.0,0.0
-4.524827,-6.568298,-3.101098,95.129997,-11.62,23.799999,1729476102375.0,0.0
-4.319045,-4.4339,-3.67059,72.660004,-13.72,38.080002,1729476102396.0,0.0
-5.548956,-8.463413,-2.70389,121.449997,-12.11,43.959999,1729476102416.0,0.0
-7.350751,-11.330014,-5.216353,144.339996,12.11,43.75,1729476102435.0,0.0
-6.597012,-13.832907,-6.951149,218.330002,7.42,23.24,1729476102457.0,0.0
-5.644669,-10.243673,-4.84068,259.559998,27.860001,12.67,1729476102476.0,0.0
-6.38405,-4.802395,-1.457229,266.980011,66.010002,13.37,1729476102497.0,0.0
-7.176075,-5.563312,1.682154,273.350006,64.260002,6.02,1729476102516.0,0.0
-6.62094,-7.441679,-0.011964,166.600006,44.029999,-5.81,1729476102536.0,0.0
-6.76451,-8.154739,0.11007,105.699997,39.48,6.37,1729476102557.0,0.0
-7.752745,-7.257431,1.495514,125.790001,53.41,18.9,1729476102577.0,0.0
-8.372486,-7.62114,-0.224925,123.410004,57.610001,29.75,1729476102597.0,0.0
-8.798409,-5.79063,-0.935594,22.33,42.490002,20.860001,1729476102616.0,0.0
-9.836893,-8.676375,3.290131,-50.959999,10.15,15.47,1729476102640.0,0.0
-8.26481,-10.626525,-0.191426,-72.730003,-22.610001,-14.07,1729476102661.0,0.0
-7.357929,-9.975677,-1.28016,-64.889999,-11.62,-20.23,1729476102677.0,0.0
-6.568298,-8.300702,0.569492,-66.5,-4.62,-29.190001,1729476102698.0,0.0
-5.735595,-8.001599,-0.485743,-82.110001,4.34,-30.940001,1729476102715.0,0.0
-4.180261,-10.755738,-1.103091,-71.330002,11.34,-40.32,1729476102737.0,0.0
-3.656233,-11.925828,-2.227718,-70.699997,29.82,-40.599998,1729476102758.0,0.0
-2.711068,-9.372685,-1.397408,-106.400002,37.099998,-52.639999,1729476102777.0,0.0
-2.414358,-9.990034,1.531406,-137.619995,22.469999,-56.700001,1729476102796.0,0.0
-1.143769,-11.700903,-3.940979,-128.520004,19.18,-57.75,1729476102817.0,0.0
-0.0335,-12.401999,-6.302694,-104.440002,26.110001,-55.580002,1729476102837.0,0.0
0.366102,-12.808779,-4.534399,-76.370003,49.139999,-57.470001,1729476102856.0,0.0
-0.72024,-12.646068,-2.988636,-32.060001,83.510002,-66.010002,1729476102878.0,0.0
-1.351945,-11.155338,-1.351945,19.530001,81.199997,-71.120003,1729476102896.0,0.0
-0.926022,-9.525827,-1.426122,6.79,73.010002,-75.32,1729476102917.0,0.0
-0.844666,-9.200402,-2.021935,-54.670002,76.580002,-85.400002,1729476102936.0,0.0
-0.387637,-9.846465,-1.794617,-101.709999,76.510002,-89.879997,1729476102958.0,0.0
0.449851,-10.968699,-2.689533,-100.660004,62.650002,-85.540001,1729476102978.0,0.0
0.622134,-9.946963,-3.909872,-75.32,67.830002,-76.300003,1729476102997.0,0.0
0.294317,-8.269595,-3.335595,-49.07,76.019997,-62.720001,1729476103015.0,0.0
0.155533,-6.735795,-2.667997,-55.16,75.879997,-47.25,1729476103037.0,0.0
0.138784,-6.659225,-2.129612,-82.040001,64.68,-28.49,1729476103058.0,0.0
-0.346959,-5.761917,-2.998207,-136.779999,49.07,-6.58,1729476103078.0,0.0
-0.705883,-5.931807,-4.194618,-129.919998,44.73,12.6,1729476103097.0,0.0
-1.567299,-6.788438,-4.826324,-134.050003,43.540001,27.299999,1729476103116.0,0.0
-2.639283,-6.953543,-5.381458,-133.419998,39.200001,34.299999,1729476103137.0,0.0
-3.737589,-6.838687,-5.503492,-117.040001,32.48,41.23,1729476103156.0,0.0
-3.905087,-6.235696,-5.962914,-93.940002,21.49,43.330002,1729476103176.0,0.0
-3.302095,-6.647261,-6.149554,-70.769997,13.37,45.360001,1729476103199.0,0.0
-3.378666,-7.357929,-5.87438,-48.650002,14.84,43.189999,1729476103217.0,0.0
-4.0008,-6.793223,-5.611169,-29.469999,14.07,39.900002,1729476103236.0,0.0
-4.005585,-5.919843,-6.065805,-30.799999,5.32,38.150002,1729476103257.0,0.0
-4.125226,-6.202196,-5.783452,-30.940001,1.75,39.549999,1729476103276.0,0.0
-4.275974,-7.013363,-5.666204,-29.610001,-1.75,36.82,1729476103296.0,0.0
-3.78066,-6.922436,-6.783652,-24.5,-9.24,29.68,1729476103315.0,0.0
-3.524628,-6.728617,-7.058826,-16.940001,-7.21,24.08,1729476103335.0,0.0
-3.35713,-6.640083,-6.721439,-12.32,0.77,18.76,1729476103359.0,0.0
-3.117848,-6.869793,-6.565905,-5.67,3.85,13.86,1729476103377.0,0.0
-3.160919,-5.816952,-7.606783,-3.99,1.61,7.42,1729476103397.0,0.0
-2.87378,-6.192625,-8.281559,-20.370001,2.94,2.17,1729476103418.0,0.0
-2.409572,-6.893722,-7.726424,-16.799999,7.56,2.1,1729476103436.0,0.0
-2.993421,-6.336195,-7.178468,-11.2,11.97,-4.06,1729476103456.0,0.0
-2.723032,-5.577669,-7.573284,-21.0,5.6,-7.7,1729476103476.0,0.0
-2.330609,-5.742774,-7.965706,-34.369999,2.87,-5.95,1729476103496.0,0.0
-2.74696,-5.831308,-7.881958,-36.259998,6.3,-3.01,1729476103516.0,0.0
-3.026921,-5.960521,-7.503892,-35.84,8.54,-0.84,1729476103536.0,0.0
-3.235096,-5.85763,-7.171289,-32.830002,6.51,-2.73,1729476103556.0,0.0
-3.366701,-5.659025,-7.348359,-32.830002,4.97,-4.97,1729476103575.0,0.0
-2.548356,-6.092126,-7.391429,-30.799999,-0.28,-2.31,1729476103597.0,0.0
-2.754139,-6.474977,-6.999006,-25.83,0.42,1.12,1729476103616.0,0.0
-2.924029,-6.508478,-6.929615,-21.210001,-1.68,-0.07,1729476103637.0,0.0
-2.567499,-6.204589,-7.613962,-18.41,-7.63,-1.61,1729476103659.0,0.0
-2.306681,-6.606583,-8.195417,-20.370001,-8.82,-1.89,1729476103677.0,0.0
-2.033899,-6.506085,-8.317451,-12.81,-8.19,-1.96,1729476103698.0,0.0
-1.818545,-6.415157,-8.705089,-0.91,-8.26,-2.87,1729476103715.0,0.0
-2.215754,-6.489335,-8.386844,10.01,-5.88,-3.57,1729476103736.0,0.0
-2.292324,-6.15434,-8.243275,24.710001,-1.61,-8.4,1729476103757.0,0.0
-1.923829,-5.635098,-8.068598,25.969999,-3.78,-9.66,1729476103776.0,0.0
-2.143969,-5.359922,-7.817351,22.4,-0.14,-7.49,1729476103797.0,0.0
-2.143969,-5.522634,-7.817351,15.54,-1.89,-4.34,1729476103815.0,0.0
-2.065006,-5.941379,-7.814958,16.030001,-4.27,-2.59,1729476103835.0,0.0
-1.990828,-5.776274,-7.869993,18.690001,-7.7,-3.15,1729476103857.0,0.0
-2.043471,-5.553742,-7.757531,18.690001,-8.05,-2.24,1729476103877.0,0.0
-2.258825,-5.60399,-7.716853,17.780001,-7.42,0.14,1729476103896.0,0.0
-2.433501,-5.898308,-7.992027,19.110001,-6.72,3.15,1729476103916.0,0.0
-2.770889,-6.180661,-7.881958,19.809999,-3.57,4.62,1729476103935.0,0.0
-2.766103,-6.096912,-7.4345,22.82,-1.75,5.32,1729476103963.0,0.0
-2.648855,-5.912664,-7.405786,25.34,-1.54,4.34,1729476103976.0,0.0
-2.768496,-5.927022,-7.013363,13.440001,-0.07,4.48,1729476103996.0,0.0
-2.514857,-6.293124,-7.365108,-2.66,-2.24,3.71,1729476104018.0,0.0
-1.919044,-6.685547,-7.274181,-8.82,-0.49,0.91,1729476104036.0,0.0
-1.768296,-6.422336,-7.587641,-3.64,-3.36,-2.59,1729476104058.0,0.0
-2.11047,-6.269196,-7.688138,-1.96,-0.42,-2.24,1729476104077.0,0.0
-1.978864,-6.273981,-7.551748,-1.26,0.84,-1.89,1729476104099.0,0.0
-1.969293,-6.008378,-7.575676,0.21,1.68,-1.54,1729476104116.0,0.0
-2.127219,-5.879165,-7.60439,-3.92,2.03,-1.26,1729476104137.0,0.0
-2.041078,-6.235696,-7.848458,-7.49,1.47,-0.21,1729476104158.0,0.0
-2.203789,-6.405586,-8.118847,-4.55,2.24,-0.14,1729476104178.0,0.0
-2.591427,-6.51087,-7.57089,-5.18,7.77,-1.61,1729476104197.0,0.0
-2.431108,-6.23091,-7.295716,-6.65,6.16,-3.85,1729476104217.0,0.0
-2.347359,-6.410372,-7.556533,-11.2,5.46,-4.76,1729476104239.0,0.0
-2.321038,-6.592227,-7.456036,-8.68,5.32,-4.2,1729476104258.0,0.0
-2.304288,-6.479764,-7.286145,-2.17,5.25,-5.53,1729476104277.0,0.0
-1.926222,-6.156733,-7.51107,3.01,0.49,-4.69,1729476104300.0,0.0
-2.182254,-6.223732,-7.683353,1.4,1.68,-3.08,1729476104318.0,0.0
-2.270789,-6.271588,-7.783852,0.14,1.47,-2.38,1729476104337.0,0.0
-2.333002,-6.458229,-7.633104,3.99,2.73,-3.29,1729476104359.0,0.0
-2.299503,-6.197411,-7.558927,7.07,0.63,-5.39,1729476104380.0,0.0
-2.845066,-6.288338,-7.484749,-3.43,1.89,-7.14,1729476104398.0,0.0
-2.924029,-6.549156,-7.609176,-11.13,-1.19,-8.96,1729476104417.0,0.0
-2.912065,-6.424729,-7.628319,-14.63,-0.84,-11.06,1729476104439.0,0.0
-2.361716,-6.977471,-8.054241,-18.76,-1.96,-13.02,1729476104459.0,0.0
-2.031506,-6.508478,-8.228917,-7.14,-1.89,-13.09,1729476104480.0,0.0
-2.706282,-5.860023,-7.798209,6.09,3.99,-11.62,1729476104499.0,0.0
-2.548356,-6.51087,-7.463214,4.76,2.17,-11.41,1729476104520.0,0.0
-2.400001,-6.628119,-7.45125,0.77,2.45,-13.3,1729476104538.0,0.0
-2.541178,-6.515656,-7.52782,7.0,4.76,-15.05,1729476104560.0,0.0
-2.249253,-5.888737,-7.668997,19.18,6.3,-17.219999,1729476104578.0,0.0
-2.29711,-5.546563,-7.441679,9.8,9.24,-17.5,1729476104599.0,0.0
-2.06022,-6.046663,-7.609176,-8.68,7.35,-18.27,1729476104618.0,0.0
-2.002793,-6.613762,-7.716853,-15.47,7.7,-19.879999,1729476104638.0,0.0
-1.919044,-5.893522,-7.817351,-11.27,6.79,-23.940001,1729476104662.0,0.0
-1.789831,-5.936593,-7.877172,-18.200001,6.58,-21.700001,1729476104682.0,0.0
-1.591227,-6.477371,-8.166703,-28.49,6.44,-21.210001,1729476104699.0,0.0
-1.959722,-6.742974,-8.212167,-38.920002,11.69,-23.52,1729476104717.0,0.0
-1.579263,-5.809773,-8.204988,-39.27,12.46,-25.549999,1729476104738.0,0.0
-0.930808,-5.460421,-8.551948,-38.849998,11.13,-22.960001,1729476104758.0,0.0
-0.909273,-5.776274,-8.738588,-43.330002,17.57,-20.58,1729476104778.0,0.0
-0.964308,-5.261817,-8.216952,-28.84,18.27,-14.98,1729476104800.0,0.0
-0.988236,-5.505885,-7.685746,-17.290001,17.01,-12.11,1729476104819.0,0.0
-1.301696,-5.611169,-7.554141,-11.83,13.16,-10.85,1729476104839.0,0.0
-1.529014,-5.592027,-7.728817,-8.33,9.1,-11.2,1729476104860.0,0.0
-1.246661,-5.601598,-7.752745,-7.84,4.97,-11.9,1729476104878.0,0.0
-1.318445,-5.455636,-7.860423,-6.65,1.47,-11.9,1729476104900.0,0.0
-1.820938,-5.87438,-8.269595,-9.31,0.7,-12.46,1729476104919.0,0.0
-2.189433,-6.065805,-8.271988,-4.34,-0.28,-14.49,1729476104938.0,0.0
-3.067599,-5.745167,-7.814958,4.41,2.52,-17.639999,1729476104958.0,0.0
-4.448257,-5.278566,-7.362715,11.2,3.57,-25.83,1729476104979.0,0.0
-4.010371,0.430708,-8.863015,19.530001,-0.42,-28.700001,1729476106006.0,0.0
-3.495914,-0.564706,-13.299308,-140.839996,-66.010002,-79.029999,1729476106018.0,0.0
-6.003592,-1.564906,-15.017354,-76.160004,-20.299999,4.41,1729476106040.0,0.0
-7.9011,-1.859223,-10.253245,32.41,10.5,48.23,1729476106060.0,0.0
-7.178468,-3.792624,-9.607183,65.590004,30.940001,69.790001,1729476106077.0,0.0
-4.515256,-5.678168,-9.085547,83.510002,38.290001,73.849998,1729476106099.0,0.0
-4.565506,-7.235896,-10.466206,127.330002,47.459999,61.18,1729476106118.0,0.0
-3.407379,-7.554141,-6.754939,121.029999,50.049999,27.860001,1729476106138.0,0.0
-1.861616,-7.685746,-5.371887,87.150002,32.48,-15.26,1729476106160.0,0.0
-1.588834,-5.388636,-4.419543,77.980003,8.82,-47.32,1729476106180.0,0.0
-3.316452,1.330409,-1.677369,48.369999,-16.52,-60.41,1729476106199.0,0.0
-3.917051,-3.962514,-6.453443,-1.68,-45.639999,-54.950001,1729476106219.0,0.0
-2.411965,-4.197011,-10.691131,-21.98,-64.260002,-60.130001,1729476106240.0,0.0
-5.182854,-1.057628,-10.877771,-28.35,-48.02,-47.950001,1729476106259.0,0.0
-8.896514,-3.852444,-10.667203,16.17,-17.15,-12.88,1729476106279.0,0.0
-8.721838,-3.802195,-11.751152,80.220001,30.309999,39.549999,1729476106299.0,0.0
-6.278766,-5.529813,-11.576476,26.67,56.77,55.580002,1729476106318.0,0.0
-5.328816,-7.51107,-8.700303,59.779999,94.43,61.459999,1729476106340.0,0.0
-2.127219,-6.963113,-5.630312,114.169998,85.260002,58.450001,1729476106361.0,0.0
0.363709,-7.752745,-1.301696,137.690002,61.810001,43.540001,1729476106380.0,0.0
-1.148555,-8.571091,2.055435,81.059998,37.799999,12.04,1729476106403.0,0.0
-6.348158,-8.463413,0.79681,3.5,1.4,-29.889999,1729476106420.0,0.0
-4.031906,-5.977271,-3.866802,-25.48,-63.209999,-60.830002,1729476106440.0,0.0
0.98345,-4.666004,-9.590433,-38.43,-129.779999,-74.900002,1729476106460.0,0.0
-0.564706,-1.555335,-13.13181,-77.209999,-110.809998,-74.059998,1729476106480.0,0.0
-8.178668,-1.682154,-12.689137,-109.410004,-36.889999,-34.23,1729476106500.0,0.0
-12.777672,-5.235496,-14.093725,-85.959999,14.91,5.25,1729476106519.0,0.0
-7.32443,-6.422336,-14.050655,-48.02,31.01,28.700001,1729476106539.0,0.0
-6.884151,-6.204589,-11.55494,32.549999,89.110001,36.959999,1729476106560.0,0.0
-4.311867,-4.603791,-4.024727,97.650002,106.050003,44.799999,1729476106580.0,0.0
-2.68714,-7.458428,1.18684,118.860001,89.599998,39.759998,1729476106600.0,0.0
-1.253839,-7.640282,1.033699,124.459999,38.920002,20.370001,1729476106619.0,0.0
-0.765703,-6.932007,-2.06022,86.940002,-3.08,5.18,1729476106641.0,0.0
0.12682,-5.776274,-5.709275,-19.460001,-28.42,-6.23,1729476106663.0,0.0
0.650848,-6.161518,-6.063413,-100.870003,-36.540001,-3.5,1729476106680.0,0.0
-2.775674,-6.118448,-4.924429,-98.279999,-17.99,4.06,1729476106700.0,0.0
-7.542177,-9.463614,-5.9342,44.099998,0.07,19.389999,1729476106724.0,0.0
-6.553941,-10.34178,-5.575277,170.729996,-29.4,16.24,1729476106739.0,0.0
-4.488935,-9.025726,-6.953543,212.100006,-56.77,12.11,1729476106759.0,0.0
-4.62054,-6.422336,-7.161718,133.699997,-34.16,12.6,1729476106781.0,0.0
-4.436293,-6.71426,-7.420143,78.260002,-13.65,13.65,1729476106800.0,0.0
-3.756732,-7.080362,-7.357929,77.489998,-21.91,25.83,1729476106820.0,0.0
-3.192025,-7.367501,-9.427721,165.619995,-13.86,41.02,1729476106840.0,0.0
-3.811767,-5.608776,-10.310673,248.850006,23.66,51.799999,1729476106860.0,0.0
-5.599205,-9.183653,-4.395615,311.570007,59.360001,48.16,1729476106879.0,0.0
-5.407779,-9.497113,-5.900701,257.809998,45.080002,24.08,1729476106902.0,0.0
-4.211368,-10.040283,-10.207782,269.5,37.170002,9.03,1729476106919.0,0.0
-4.73061,-14.416756,-0.571885,375.339996,69.230003,-16.24,1729476106939.0,0.0
-5.737988,-7.41775,1.019342,413.0,71.050003,-42.07,1729476106960.0,0.0
-6.046663,-6.283553,-1.294517,470.679993,67.550003,-22.33,1729476106979.0,0.0
-6.367301,-9.839286,-2.610569,389.130005,68.809998,-59.639999,1729476107000.0,0.0
-5.826523,-13.143774,-1.122234,319.269989,47.18,-95.410004,1729476107020.0,0.0
-1.241875,-2.471786,2.754139,430.709991,68.32,-80.639999,1729476107039.0,0.0
-7.515855,0.098106,8.327023,460.320007,94.989998,-10.01,1729476107060.0,0.0
-8.944371,-6.829116,3.948158,271.670013,-11.83,-73.360001,1729476107081.0,0.0
-1.234696,-8.422735,2.833102,259.700012,-18.549999,-88.340004,1729476107102.0,0.0
-4.61097,1.237089,6.128019,373.170013,65.800003,-36.889999,1729476107172.0,0.0
-6.62094,4.943572,11.60519,258.720001,43.330002,-12.39,1729476107175.0,0.0
-6.65444,-5.663811,3.988836,-15.89,-39.200001,-26.74,1729476107175.0,0.0
-2.120041,-3.943372,5.570491,49.07,-27.02,7.42,1729476107189.0,0.0
-4.345366,0.918844,9.317651,91.769997,12.53,37.799999,1729476107201.0,0.0
-2.986243,-4.479364,8.133204,-86.800003,-36.119999,25.620001,1729476107219.0,0.0
-1.868794,-7.862815,3.823731,-159.389999,-47.459999,30.59,1729476107239.0,0.0
-2.311467,-4.59422,4.443472,-93.870003,-27.440001,44.240002,1729476107261.0,0.0
-2.021935,-2.734996,6.932007,-62.720001,-6.16,61.110001,1729476107281.0,0.0
-2.749353,-5.130211,5.675776,-157.009995,-16.870001,49.139999,1729476107300.0,0.0
-4.005585,-8.212167,5.491528,-244.509995,-49.490002,46.200001,1729476107319.0,0.0
-4.398008,-7.415358,3.471986,-240.520004,-45.779999,54.389999,1729476107339.0,0.0
-5.158926,-6.989435,4.479364,-218.889999,-34.16,63.420002,1729476107361.0,0.0
-5.292924,-7.539784,3.058028,-313.320007,-48.09,49.77,1729476107381.0,0.0
-4.780859,-9.281759,1.318445,-456.330017,-74.900002,44.450001,1729476107400.0,0.0
-4.165904,-11.877973,-1.06002,-548.799988,-76.300003,41.860001,1729476107419.0,0.0
-3.895515,-13.75873,-2.943172,-553.840027,-49.700001,39.060001,1729476107438.0,0.0
-5.458029,-13.146168,1.363909,-493.080017,-10.01,13.09,1729476107459.0,0.0
-7.867601,-13.500306,2.837888,-353.01001,11.48,-12.6,1729476107480.0,0.0
-6.321837,-14.498112,-1.445265,-228.899994,9.73,-19.460001,1729476107500.0,0.0
-2.770889,-9.485149,1.055235,-213.080002,-7.0,-26.25,1729476107519.0,0.0
-1.184447,-6.38405,-4.354938,-165.270004,15.47,-15.96,1729476107540.0,0.0
-1.835295,-10.246067,-3.960121,-86.730003,30.24,-4.34,1729476107560.0,0.0
-2.684747,-9.399008,0.01675,-10.22,46.060001,-7.49,1729476107579.0,0.0
-2.273181,-6.252446,-0.629312,65.730003,8.75,2.03,1729476107600.0,0.0
-1.665405,-6.486942,-4.163511,56.139999,-8.33,5.25,1729476107620.0,0.0
-2.029114,-8.350951,-2.682354,108.5,-3.64,17.43,1729476107639.0,0.0
-3.048456,-7.958528,-2.057827,141.820007,11.06,23.66,1729476107662.0,0.0
-4.132405,-8.068598,-0.430708,88.269997,9.87,20.719999,1729476107680.0,0.0
-4.601398,-7.422535,-0.442672,56.77,-1.82,24.85,1729476107699.0,0.0
-3.981657,-7.326823,-1.87358,72.099998,-10.36,30.799999,1729476107720.0,0.0
-4.778467,-6.501299,1.56012,46.130001,-9.8,34.509998,1729476107739.0,0.0
-4.953143,-8.578269,1.521835,43.470001,-3.71,30.940001,1729476107759.0,0.0
-5.812167,-8.188239,0.916451,26.460001,-23.52,40.529999,1729476107780.0,0.0
-6.336195,-8.214561,1.416551,10.99,-51.59,47.040001,1729476107799.0,0.0
-6.477371,-5.082355,-2.012364,-81.269997,-56.560001,31.92,1729476107826.0,0.0
-6.498906,-7.956135,-2.510071,-98.279999,-61.529999,16.799999,1729476107857.0,0.0
-6.675975,-8.274381,-3.878766,-143.919998,-80.919998,1.05,1729476107928.0,0.0
-6.659225,-4.426722,-10.327423,-193.619995,-66.290001,-2.1,1729476107929.0,0.0
-5.455636,-4.955536,-12.564712,-171.080002,-65.940002,-0.84,1729476107930.0,0.0
-5.113462,-10.269995,-10.143176,-147.770004,-31.219999,17.639999,1729476107933.0,0.0
-6.625726,-11.820543,-5.862415,-171.779999,14.98,3.99,1729476107939.0,0.0
-7.128219,-8.860621,-4.441079,-171.289993,18.129999,-5.6,1729476107960.0,0.0
-5.905487,-11.286944,-7.125826,-22.540001,12.95,-7.07,1729476107982.0,0.0
-4.034299,-9.932607,-7.702496,1.19,45.43,-12.81,1729476107998.0,0.0
-3.766303,-6.570691,-8.647661,-3.15,79.870003,-10.85,1729476108018.0,0.0
-3.304488,-7.65464,-10.997414,74.199997,97.019997,-10.85,1729476108038.0,0.0
-4.039084,-8.547162,-1.012164,207.759995,109.970001,14.42,1729476108059.0,0.0
-4.685147,-6.202196,0.614955,255.570007,100.099998,3.22,1729476108086.0,0.0
-3.426522,-3.558127,2.821138,176.680008,52.990002,5.18,1729476108106.0,0.0
-2.316252,-4.87418,5.661418,80.849998,18.969999,-2.45,1729476108118.0,0.0
-3.249453,-6.996613,5.151747,-0.84,-8.19,2.8,1729476108138.0,0.0
-4.323831,-8.88455,0.768096,-27.719999,-30.73,2.24,1729476108159.0,0.0
-4.331009,-8.523234,-2.586641,-34.93,-41.509998,0.98,1729476108179.0,0.0
-3.017349,-10.41835,-3.562913,6.65,-47.740002,9.31,1729476108199.0,0.0
-2.792424,-11.700903,-1.086342,58.73,-48.369999,12.53,1729476108219.0,0.0
-8.233703,-10.013963,0.658026,46.759998,-17.639999,25.549999,1729476108238.0,0.0
-8.523234,-8.216952,-0.512064,46.48,-34.720001,19.809999,1729476108259.0,0.0
-6.331409,-6.920043,-0.978664,3.99,-62.720001,7.7,1729476108279.0,0.0
-5.692525,-5.577669,-2.981457,-53.619999,-57.049999,-5.53,1729476108299.0,0.0
-6.032306,-1.962115,-6.606583,-128.660004,-36.540001,-8.61,1729476108319.0,0.0
-6.506085,-3.443272,-6.812366,-146.930008,-50.610001,-7.98,1729476108339.0,0.0
-7.226324,-4.254438,-9.056834,-221.899994,-57.470001,-8.96,1729476108359.0,0.0
-7.781459,-5.659025,-13.909478,-291.899994,-42.560001,-15.4,1729476108379.0,0.0
-6.975078,-4.761717,-14.366508,-328.790009,-18.129999,-23.870001,1729476108401.0,0.0
-5.709275,-7.257431,-12.088539,-247.240005,22.33,10.57,1729476108418.0,0.0
-5.391029,-9.934999,-7.463214,-129.009995,49.84,31.219999,1729476108437.0,0.0
-5.663811,-9.903893,-3.720839,-82.949997,75.459999,15.47,1729476108459.0,0.0
-4.847858,-4.85743,-6.216553,-105.489998,68.18,-3.01,1729476108478.0,0.0
-4.185047,-7.855636,-7.642675,-23.59,56.139999,21.07,1729476108499.0,0.0
-3.254239,-9.65504,-5.350351,103.18,67.690002,14.63,1729476108518.0,0.0
-3.311667,-9.994821,-2.811567,174.509995,76.650002,13.16,1729476108538.0,0.0
-2.294717,-9.51147,1.629512,163.729996,43.330002,1.82,1729476108559.0,0.0
-2.354537,-7.932207,0.550349,137.759995,-1.05,-11.97,1729476108586.0,0.0
-3.98405,-9.286544,0.066999,124.669998,-12.32,-2.66,1729476108601.0,0.0
-4.546363,-9.781858,-3.974478,150.149994,-44.380001,7.98,1729476108619.0,0.0
-4.041477,-8.95155,-10.207782,178.850006,-49.139999,18.27,1729476108639.0,0.0
-3.388237,-10.514063,-10.250853,258.160004,-4.13,25.059999,1729476108662.0,0.0
-5.56092,-7.054041,-7.903493,255.080002,61.670002,28.91,1729476108679.0,0.0
-6.932007,-9.755538,-4.252046,309.190002,69.510002,14.91,1729476108700.0,0.0
-6.058627,-8.843873,-2.921637,310.869995,34.09,2.73,1729476108720.0,0.0
-4.919643,-9.365508,-1.217947,351.540009,37.170002,-7.14,1729476108739.0,0.0
-4.934,-8.252845,-0.382852,329.209991,41.860001,-22.82,1729476108760.0,0.0
-4.438686,-9.554541,-2.112862,310.380005,36.68,-45.920002,1729476108779.0,0.0
-4.17069,-8.571091,-2.478964,291.690002,52.009998,-43.959999,1729476108802.0,0.0
-5.163712,-9.52822,1.162912,303.029999,71.68,-43.189999,1729476108819.0,0.0
-5.192425,-9.927821,4.713861,323.119995,51.450001,-72.730003,1729476108840.0,0.0
-4.680361,-6.285945,4.905287,347.059998,54.32,-60.830002,1729476108861.0,0.0
-3.905087,-4.943572,4.106083,339.779999,24.15,-67.620003,1729476108881.0,0.0
-5.785845,-6.173482,4.106083,293.51001,28.700001,-60.970001,1729476108900.0,0.0
-5.12782,-4.441079,5.517848,282.309998,26.32,-66.220001,1729476108919.0,0.0
-5.340781,-2.411965,6.896115,297.290009,38.009998,-56.0,1729476108941.0,0.0
-5.659025,2.359323,8.044669,218.470001,39.759998,-46.41,1729476108960.0,0.0
-4.59422,-1.337588,7.802995,118.020004,15.26,-33.810001,1729476108980.0,0.0
-5.230711,-4.878965,7.386643,68.809998,5.67,-34.299999,1729476109000.0,0.0
-3.790231,-1.06002,8.003991,84.840004,18.76,-6.79,1729476109020.0,0.0
-3.531806,-3.180061,8.429914,41.23,11.55,-3.5,1729476109040.0,0.0
-2.904887,-4.34058,7.482357,1.33,0.28,-0.56,1729476109062.0,0.0
-3.022135,-5.194818,7.097112,-1.26,2.38,3.29,1729476109081.0,0.0
-3.866802,-5.709275,7.267002,-30.17,-3.71,4.83,1729476109101.0,0.0
-3.938586,-4.618148,7.932207,-27.65,-4.97,8.33,1729476109121.0,0.0
-3.57727,-2.304288,8.446664,-18.48,-7.56,10.85,1729476109142.0,0.0
-3.589234,-0.363709,7.456036,-22.75,-9.45,14.91,1729476109163.0,0.0
-5.374279,-3.905087,7.432107,-55.09,-15.89,26.040001,1729476109181.0,0.0
-4.424329,-5.931807,5.532206,-48.369999,-19.110001,17.01,1729476109201.0,0.0
-3.235096,-5.209175,6.101698,-7.0,6.58,12.11,1729476109221.0,0.0
-3.007778,-4.074977,7.707282,9.66,18.34,15.47,1729476109241.0,0.0
-3.675375,-4.591826,8.147561,11.69,13.02,11.27,1729476109261.0,0.0
-4.302295,-3.845266,7.393822,29.33,14.0,2.31,1729476109280.0,0.0
-4.429115,-3.553342,7.673782,31.5,19.530001,-2.66,1729476109305.0,0.0
-4.132405,-4.965107,8.492127,11.83,20.299999,-13.51,1729476109320.0,0.0
-4.290331,-4.871787,9.12144,18.200001,19.6,-24.57,1729476109340.0,0.0
-5.541777,-2.37368,8.831908,47.18,20.790001,-19.950001,1729476109361.0,0.0
-7.06122,-1.605584,8.171489,44.66,11.2,-14.07,1729476109380.0,0.0
-6.683154,-1.538585,7.702496,27.299999,3.43,-4.34,1729476109401.0,0.0
-6.707082,-1.435694,8.513663,20.93,-0.07,-1.19,1729476109420.0,0.0
-5.594419,-1.055235,9.004191,18.41,-3.92,4.76,1729476109439.0,0.0
-3.737589,-0.691526,9.037691,3.01,-8.4,13.72,1729476109460.0,0.0
-3.854837,-1.624727,7.412964,-38.220001,-17.08,27.51,1729476109481.0,0.0
-2.723032,-2.476572,6.405586,-87.779999,-24.99,48.720001,1729476109502.0,0.0
-2.861816,-4.845466,6.197411,-154.350006,-23.1,54.040001,1729476109520.0,0.0
-3.397808,-6.632904,5.625526,-158.970001,-25.620001,44.939999,1729476109542.0,0.0
-4.835894,-9.580862,4.500899,-119.910004,-18.059999,27.09,1729476109561.0,0.0
-4.34058,-9.879964,5.024928,-45.779999,-2.87,4.41,1729476109580.0,0.0
-4.134798,-8.985049,5.936593,20.02,16.870001,-11.55,1729476109603.0,0.0
-5.314459,-6.269196,7.898707,68.739998,33.040001,-30.52,1729476109620.0,0.0
-6.565905,-4.776074,9.068797,108.57,36.330002,-44.029999,1729476109641.0,0.0
-6.135197,-1.713261,9.796216,133.839996,34.16,-50.400002,1729476109664.0,0.0
-4.931608,0.217747,8.953942,120.330002,26.67,-43.119999,1729476109680.0,0.0
-4.599005,0.667598,7.759924,78.889999,15.82,-34.23,1729476109702.0,0.0
-5.4006,0.777667,7.099504,22.4,5.25,-16.379999,1729476109720.0,0.0
-4.098906,2.072184,7.295716,-24.99,-9.52,28.07,1729476109739.0,0.0
-2.615355,-0.038285,7.264609,-88.199997,-22.82,55.650002,1729476109761.0,0.0
-3.09392,-3.522235,7.45125,-152.669998,-35.490002,70.279999,1729476109781.0,0.0
-3.761517,-7.54457,6.506085,-194.740005,-43.470001,67.970001,1729476109801.0,0.0
-4.441079,-11.475977,5.374279,-195.020004,-55.369999,41.02,1729476109821.0,0.0
-3.349952,-13.208381,3.761517,-70.840004,-26.74,0.35,1729476109841.0,0.0
-4.503292,-8.894121,5.539384,45.080002,17.639999,-24.43,1729476109861.0,0.0
-6.257231,-2.940779,7.767102,116.900002,44.799999,-40.810001,1729476109881.0,0.0
-7.334002,0.122034,10.533205,133.0,40.529999,-29.190001,1729476109902.0,0.0
-5.795416,1.143769,9.095119,83.580002,14.14,-19.809999,1729476109921.0,0.0
-7.066005,-0.997807,6.860222,-3.08,-7.63,-13.23,1729476109940.0,0.0
-6.238089,-0.368495,7.80778,-63.77,-22.610001,6.02,1729476109961.0,0.0
-4.266403,0.265603,7.444071,-133.490005,-30.59,45.43,1729476109980.0,0.0
-4.342973,-1.095913,6.431907,-233.029999,-39.900002,56.560001,1729476110002.0,0.0
-4.756931,-3.311667,3.845266,-341.110016,-52.779999,63.490002,1729476110021.0,0.0
-4.59422,-5.594419,0.784846,-448.140015,-62.369999,50.75,1729476110040.0,0.0
-3.644269,-9.95175,-3.926622,-525.77002,-75.879997,19.040001,1729476110061.0,0.0
-2.455036,-13.129417,-1.954936,-536.549988,-80.57,10.92,1729476110080.0,0.0
-3.314059,-13.481163,-1.361516,-471.450012,-61.599998,25.690001,1729476110102.0,0.0
-3.632305,-11.743973,-1.268196,-351.470001,-33.25,11.48,1729476110120.0,0.0
-3.976871,-10.827522,-1.459622,-290.709991,-21.84,-11.2,1729476110140.0,0.0
-3.285345,-9.394222,-4.072584,-287.559998,-22.120001,-22.82,1729476110162.0,0.0
-2.457429,-8.9348,-3.56052,-205.869995,-14.0,-5.18,1729476110181.0,0.0
-4.400401,-10.07139,-0.088534,-181.089996,10.64,1.47,1729476110201.0,0.0
-4.378866,-6.975078,-5.709275,-195.020004,12.18,-18.27,1729476110221.0,0.0
-4.441079,-8.228917,-0.191426,-133.910004,9.38,-1.12,1729476110240.0,0.0
-4.979464,-10.24846,0.684347,-99.82,-0.91,-4.55,1729476110261.0,0.0
-4.371687,-8.161918,0.267996,-77.840004,-32.830002,-5.46,1729476110281.0,0.0
-2.493321,-7.819745,-4.156333,-86.309998,-66.57,-6.79,1729476110300.0,0.0
-1.447658,-6.522834,-6.843473,-88.199997,-73.779999,0.7,1729476110320.0,0.0
-1.663012,-7.724032,-6.668797,-68.25,-56.560001,17.43,1729476110340.0,0.0
-4.022335,-9.363115,-5.328816,-88.480003,-43.049999,21.210001,1729476110361.0,0.0
-8.539984,-9.410972,-6.072984,-155.190002,-8.33,9.52,1729476110380.0,0.0
-8.678767,-4.847858,-11.734402,-203.350006,-11.69,-7.07,1729476110401.0,0.0
-4.223332,-4.479364,-12.468999,-181.930008,-10.71,7.14,1729476110420.0,0.0
-5.120641,-9.583255,-10.722239,-143.990005,54.18,22.120001,1729476110440.0,0.0
-7.695317,-10.715059,-7.125826,-77.489998,111.93,18.27,1729476110461.0,0.0
-4.76411,-5.876772,-7.173682,12.32,69.720001,-1.47,1729476110480.0,0.0
-1.359123,-7.336394,-2.648855,51.170002,74.970001,4.41,1729476110500.0,0.0
-1.339981,-7.329216,-0.990629,86.029999,46.759998,-8.4,1729476110520.0,0.0
-1.694118,-6.65444,-0.736989,76.580002,18.9,-8.61,1729476110540.0,0.0
-2.715853,-5.091926,-0.851845,48.369999,-4.83,-5.74,1729476110560.0,0.0
-5.333601,-8.106883,-1.887937,52.849998,-7.56,8.75,1729476110580.0,0.0
-4.898108,-10.150353,-7.585248,123.690002,-26.040001,12.67,1729476110600.0,0.0
-2.502892,-11.873186,-6.403193,217.910004,-45.009998,30.030001,1729476110627.0,0.0
-1.677369,-9.030513,-3.850052,222.600006,-27.440001,26.32,1729476110639.0,0.0
-3.558127,-6.07777,-1.799403,183.960007,1.54,34.02,1729476110663.0,0.0
-4.051049,-6.845865,-3.850052,145.529999,11.41,29.33,1729476110682.0,0.0
-4.4674,-6.831509,-1.268196,79.730003,-20.58,33.880001,1729476110701.0,0.0
-5.749953,-8.501699,-0.184247,23.66,-16.799999,21.98,1729476110720.0,0.0
-6.455836,-10.183852,-1.421337,44.310001,-37.869999,8.54,1729476110740.0,0.0
-5.350351,-5.785845,-3.830909,4.06,-65.169998,1.75,1729476110762.0,0.0
-4.735396,-2.76371,-5.936593,-75.529999,-91.699997,6.37,1729476110780.0,0.0
-5.041678,-3.52702,-9.824929,-175.910004,-94.779999,-6.65,1729476110802.0,0.0
-6.795617,-5.472386,-19.582861,-335.230011,-45.849998,-17.08,1729476110820.0,0.0
-6.608976,-14.155938,-15.979269,-215.180008,21.0,-9.66,1729476110841.0,0.0
-6.393622,-16.395622,-5.692525,-92.120003,71.260002,0.77,1729476110862.0,0.0
-6.096912,-10.703095,-7.415358,132.300003,104.230003,-4.83,1729476110880.0,0.0
-4.919643,-2.299503,-5.611169,141.610001,108.360001,-10.01,1729476110902.0,0.0
-4.084548,-1.696511,-3.096312,110.040001,98.840004,15.05,1729476110921.0,0.0
-3.285345,-9.468399,-4.173083,150.990005,84.559998,22.33,1729476110941.0,0.0
-3.065206,-12.174682,1.179662,201.460007,104.160004,-2.59,1729476110961.0,0.0
-3.505485,-3.964907,5.74756,156.029999,56.98,0.49,1729476110981.0,0.0
-2.78046,-4.156333,2.56032,112.139999,-1.33,17.290001,1729476111001.0,0.0
-1.416551,-6.84108,1.138984,47.25,-30.309999,5.67,1729476111021.0,0.0
-1.59362,-9.700503,-0.959522,50.68,-25.549999,10.64,1729476111043.0,0.0
-2.770889,-7.953743,-1.631905,55.510002,-22.190001,24.43,1729476111062.0,0.0
-3.854837,-9.164511,0.428315,90.440002,-21.91,36.189999,1729476111082.0,0.0
-7.341179,-12.382857,3.034099,57.610001,-14.07,42.349998,1729476111108.0,0.0
-9.585647,-10.882557,-2.031506,20.02,-23.1,16.870001,1729476111121.0,0.0
-8.573483,-6.814759,-0.476172,-17.01,-37.450001,9.38,1729476111141.0,0.0
-6.539584,-3.479164,-4.046263,-100.660004,-67.690002,-18.34,1729476111162.0,0.0
-4.723432,-1.588834,-8.757731,-175.839996,-56.560001,-29.610001,1729476111182.0,0.0
-4.505685,-4.316652,-8.630912,-210.0,-66.5,-12.81,1729476111205.0,0.0
-4.65404,-4.709075,-10.277173,-289.380005,-57.260002,-12.32,1729476111222.0,0.0
-5.290531,-6.400801,-12.923635,-274.329987,-34.580002,-15.4,1729476111242.0,0.0
-5.563312,-7.57089,-14.526826,-232.680008,-18.620001,-11.62,1729476111262.0,0.0
-5.252246,-7.142576,-10.24846,-184.029999,17.780001,3.99,1729476111284.0,0.0
-6.017949,-7.290931,-6.166305,-87.220001,44.380001,19.530001,1729476111304.0,0.0
-7.874779,-6.075377,-5.113462,-78.470001,55.650002,27.23,1729476111321.0,0.0
-5.627919,-7.989635,-5.410172,-134.889999,38.709999,8.61,1729476111345.0,0.0
-3.897908,-8.336594,-9.444471,-127.68,49.630001,23.17,1729476111362.0,0.0
-3.364309,-8.88455,-6.719046,29.26,70.489998,26.6,1729476111382.0,0.0
-4.965107,-6.89133,-2.005185,176.680008,87.010002,33.529999,1729476111402.0,0.0
-3.737589,-4.297509,-2.29711,164.289993,61.25,21.280001,1729476111421.0,0.0
-1.674976,-6.12084,-3.160919,-42.77,18.27,8.61,1729476111441.0,0.0
-1.06002,-11.736795,-2.426322,-66.989998,0.98,0.7,1729476111462.0,0.0
-0.985843,-8.879765,-1.806581,-12.25,-25.690001,-15.82,1729476111482.0,0.0
-2.053042,-4.321437,-3.388237,2.38,-45.080002,-23.24,1729476111503.0,0.0
-2.952743,-4.924429,-4.237689,-43.189999,-73.010002,-17.15,1729476111521.0,0.0
-4.323831,-4.953143,-8.707481,-110.529999,-83.790001,-18.969999,1729476111541.0,0.0
-7.180861,-7.094719,-10.951948,-85.260002,-64.260002,-16.17,1729476111562.0,0.0
-7.929814,-3.457629,-9.107083,-58.380001,-57.049999,-7.7,1729476111582.0,0.0
-7.668997,-1.651048,-11.531013,-62.790001,-26.460001,3.99,1729476111603.0,0.0
-6.084948,-4.326223,-12.906885,-65.169998,-13.79,12.88,1729476111621.0,0.0
-4.795217,-8.128418,-13.179667,12.6,10.43,18.059999,1729476111642.0,0.0
-4.957928,-7.690532,-9.609575,80.290001,40.670002,8.96,1729476111665.0,0.0
-5.910272,-6.123233,-5.079963,71.75,65.449997,-9.1,1729476111682.0,0.0
-5.429315,-5.254639,-3.416951,20.790001,48.299999,-13.16,1729476111703.0,0.0
-4.378866,-8.085347,-7.609176,30.940001,32.34,-16.799999,1729476111721.0,0.0
-3.9673,-5.436492,-7.216753,44.099998,49.349998,-14.7,1729476111741.0,0.0
-3.878766,-5.498707,-7.087541,37.099998,53.27,5.18,1729476111763.0,0.0
-3.814159,-9.114261,-6.278766,6.86,60.27,-1.82,1729476111781.0,0.0
-1.540978,-6.699903,-4.393222,38.779999,39.34,-11.27,1729476111803.0,0.0
-1.210768,-4.718646,-2.696711,37.310001,20.93,-15.54,1729476111821.0,0.0
-5.529813,-4.98425,-5.898308,-19.18,33.810001,-11.62,1729476111841.0,0.0
-5.943772,-7.470392,-7.63789,-11.41,21.77,-4.83,1729476111862.0,0.0
-2.629712,-7.532606,-7.877172,54.529999,-2.1,1.47,1729476111882.0,0.0
-2.117648,-7.113862,-6.558727,105.0,17.710001,7.28,1729476111902.0,0.0
-3.737589,-5.522634,-2.443072,108.290001,32.060001,15.26,1729476111922.0,0.0
-4.993821,-5.178068,-1.887937,71.330002,15.82,20.23,1729476111942.0,0.0
-4.462614,-7.740781,0.665205,65.379997,-1.82,22.75,1729476111962.0,0.0
-4.804788,-10.212566,2.35693,84.209999,-30.1,23.1,1729476111982.0,0.0
-5.446064,-11.62194,-0.490529,117.18,-74.760002,9.31,1729476112003.0,0.0
-4.168297,-9.865608,-9.600004,144.059998,-106.050003,15.82,1729476112021.0,0.0
-2.182254,-7.525427,-20.374884,224.419998,-84.910004,44.59,1729476112042.0,0.0
-2.088934,-11.090734,-14.507684,374.640015,29.960001,56.630001,1729476112062.0,0.0
-6.446264,-10.573883,-2.926422,382.899994,134.050003,30.17,1729476112081.0,0.0
-5.828916,-12.626925,-1.26341,491.470001,109.129997,3.22,1729476112105.0,0.0
-2.720639,-10.4016,-3.9338,518.349976,40.110001,-41.299999,1729476112184.0,0.0
-3.914658,-12.028719,-7.448857,527.869995,112.629997,-42.98,1729476112185.0,0.0
-7.228717,-9.552148,-1.091127,508.200012,139.789993,-76.230003,1729476112187.0,0.0
-6.943972,-0.868595,2.921637,511.140015,112.770004,-80.989998,1729476112189.0,0.0
-8.379664,2.694318,10.336994,451.779999,84.840004,-25.76,1729476112202.0,0.0
-7.379465,-1.744368,9.236296,251.720001,-10.71,-55.860001,1729476112221.0,0.0
-3.773481,-8.283953,6.647261,137.830002,-58.66,-93.449997,1729476112241.0,0.0
-2.225325,-5.376673,4.596612,167.789993,-8.4,-65.590004,1729476112261.0,0.0
-4.634897,-2.785245,4.608576,192.710007,6.09,-37.869999,1729476112281.0,0.0
-4.252046,-0.655633,5.328816,136.919998,4.34,-26.040001,1729476112304.0,0.0
-4.98425,-0.78006,6.809973,78.470001,3.92,-10.15,1729476112320.0,0.0
-3.878766,-1.194018,6.920043,58.380001,-8.4,1.4,1729476112341.0,0.0
-3.479164,-2.043471,8.032705,45.639999,-1.47,23.030001,1729476112362.0,0.0
-3.275774,-3.17049,8.415558,-23.1,-12.25,37.73,1729476112381.0,0.0
-2.526821,-6.175875,7.111469,-92.68,-29.120001,34.860001,1729476112402.0,0.0
-3.716053,-7.618747,6.333801,-116.129997,-36.049999,31.360001,1729476112421.0,0.0
-2.421536,-3.400201,7.367501,-114.379997,-14.91,44.099998,1729476112441.0,0.0
-3.409772,-4.237689,6.379266,-209.789993,-32.830002,49.139999,1729476112461.0,0.0
-4.192225,-5.771489,4.283153,-286.160004,-45.5,48.720001,1729476112481.0,0.0
-3.878766,-8.391629,3.019742,-266.279999,-46.689999,45.57,1729476112503.0,0.0
-3.206382,-8.410772,2.641676,-217.210007,-33.389999,38.43,1729476112521.0,0.0
-3.61077,-8.664411,4.199404,-228.339996,-26.460001,43.540001,1729476112541.0,0.0
-4.488935,-8.066205,3.086741,-326.059998,-38.080002,44.240002,1729476112562.0,0.0
-4.438686,-10.315458,1.050449,-423.709991,-62.09,39.549999,1729476112581.0,0.0
-3.242275,-12.837494,-2.210968,-464.380005,-76.160004,7.0,1729476112603.0,0.0
-4.084548,-15.091532,1.191626,-409.290009,-65.800003,-6.09,1729476112621.0,0.0
-5.71406,-11.394621,1.306481,-310.380005,-37.099998,-14.98,1729476112641.0,0.0
-5.661418,-8.188239,0.942772,-218.119995,-19.25,-14.35,1729476112671.0,0.0
-4.65404,-8.930015,-0.535992,-145.320007,-23.1,-9.87,1729476112681.0,0.0
-4.651647,-13.658232,1.182054,-115.360001,-12.88,-12.18,1729476112703.0,0.0
-2.675175,-13.373486,0.887737,-154.070007,-18.200001,-32.970001,1729476112721.0,0.0
-1.344766,-11.399406,-1.232304,-150.430008,-6.72,-30.59,1729476112740.0,0.0
-0.997807,-9.205189,-4.132405,-113.190002,5.18,-32.759998,1729476112762.0,0.0
-1.57687,-7.987241,-5.314459,46.27,15.54,-3.57,1729476112782.0,0.0
-2.208575,-6.685547,-3.830909,119.279999,34.02,6.16,1729476112802.0,0.0
-2.294717,-6.853044,-1.698904,132.300003,17.15,12.53,1729476112821.0,0.0
-1.885544,-7.353144,-2.65364,115.290001,20.65,18.549999,1729476112841.0,0.0
-4.388437,-6.898508,0.753739,99.120003,19.25,33.740002,1729476112861.0,0.0
-4.718646,-7.403394,0.354138,99.540001,14.91,26.6,1729476112881.0,0.0
-4.319045,-8.628519,1.531406,63.77,-6.58,25.76,1729476112903.0,0.0
-4.338188,-8.118847,-0.047856,33.389999,-8.12,20.09,1729476112921.0,0.0
-4.974678,-7.073184,0.488136,42.07,-3.99,24.57,1729476112942.0,0.0
-4.632504,-6.647261,0.380459,55.299999,-6.02,21.210001,1729476112962.0,0.0
-6.07777,-9.102298,4.644469,51.799999,-19.18,33.18,1729476112981.0,0.0
-7.018148,-6.972685,4.754539,-29.33,-37.450001,30.1,1729476113002.0,0.0
-7.601997,-6.498906,1.741975,-144.479996,-62.650002,26.74,1729476113021.0,0.0
-5.907879,-5.094319,-2.371287,-245.910004,-75.110001,-15.4,1729476113041.0,0.0
-5.039285,-3.737589,-6.948757,-310.940002,-90.790001,-4.69,1729476113061.0,0.0
-4.386044,-5.067998,-8.602197,-288.540009,-79.940002,1.47,1729476113082.0,0.0
-5.343173,-9.090333,-8.79123,-224.839996,-56.07,10.5,1729476113102.0,0.0
-5.656632,-8.233703,-8.437093,-166.880005,-43.330002,6.23,1729476113121.0,0.0
-5.412565,-8.719445,-9.647861,-138.600006,-45.849998,3.78,1729476113141.0,0.0
-4.666004,-9.008978,-7.661818,-93.309998,-36.049999,1.05,1729476113162.0,0.0
-3.838088,-5.919843,-9.190832,-118.090004,-24.219999,-2.94,1729476113181.0,0.0
-3.160919,-10.49492,-6.374479,-77.349998,-21.98,-8.96,1729476113203.0,0.0
-3.909872,-8.896514,-7.075576,-111.790001,13.79,-10.99,1729476113221.0,0.0
-5.07757,-8.444271,-9.310472,-62.650002,30.030001,-9.31,1729476113241.0,0.0
-5.718846,-9.726824,-7.513463,16.73,49.420002,-2.94,1729476113262.0,0.0
-5.300103,-10.427922,-6.374479,106.959999,58.450001,-8.4,1729476113282.0,0.0
-4.917251,-6.659225,-4.929214,109.900002,59.220001,-11.27,1729476113303.0,0.0
-4.630112,-4.886144,-5.041678,25.969999,63.77,-18.9,1729476113320.0,0.0
-3.668197,-5.486742,-6.951149,-59.360001,69.300003,-11.76,1729476113341.0,0.0
-4.398008,-9.736395,-3.433701,-85.610001,77.980003,-4.13,1729476113362.0,0.0
-1.57687,-8.662018,-4.352544,26.530001,63.07,1.61,1729476113385.0,0.0
-1.311267,-8.463413,-2.981457,72.519997,52.290001,-0.35,1729476113401.0,0.0
-2.584249,-6.503692,0.825524,11.27,72.870003,-5.88,1729476113420.0,0.0
-2.85703,-8.343772,0.734596,-18.969999,18.620001,-2.52,1729476113440.0,0.0
-5.101498,-10.370493,-1.265803,-52.849998,-17.5,-18.620001,1729476113461.0,0.0
-3.495914,-8.26481,-5.469993,-25.9,-57.889999,-26.18,1729476113481.0,0.0
-0.894916,-5.276174,-7.013363,7.21,-87.010002,-23.309999,1729476113502.0,0.0
-1.251446,-6.192625,-8.135597,42.490002,-73.150002,-3.99,1729476113520.0,0.0
-5.891129,-6.161518,-5.35753,-8.33,-50.68,-2.87,1729476113540.0,0.0
-10.906486,-7.539784,-11.363515,-73.989998,-20.58,-0.28,1729476113562.0,0.0
-8.29113,-7.805387,-14.266008,-105.489998,-8.61,-21.84,1729476113580.0,0.0
-3.895515,-6.817152,-11.770294,-22.049999,27.440001,3.08,1729476113603.0,0.0
-3.538985,-5.352744,-9.475577,47.529999,70.629997,9.87,1729476113621.0,0.0
-5.448457,-9.62154,-7.008578,47.389999,99.68,15.4,1729476113641.0,0.0
-3.888337,-4.74736,-4.192225,9.31,93.519997,1.05,1729476113664.0,0.0
-1.359123,-7.412964,-2.562713,65.590004,61.389999,12.74,1729476113681.0,0.0
-0.021535,-6.331409,0.62692,91.07,54.880001,12.67,1729476113701.0,0.0
-0.914058,-7.532606,3.022135,82.110001,24.219999,14.63,1729476113720.0,0.0
-3.701697,-9.607183,1.878366,23.309999,-15.75,-2.38,1729476113740.0,0.0
-4.364508,-8.377272,-1.526621,-20.719999,-46.830002,-22.469999,1729476113762.0,0.0
-0.071785,-6.455836,-6.848258,-18.83,-116.480003,-8.89,1729476113781.0,0.0
-3.07717,-8.154739,-11.688939,-39.619999,-75.18,3.36,1729476113802.0,0.0
-8.216952,-9.300901,-7.767102,-125.580002,-46.200001,-16.59,1729476113820.0,0.0
-9.997212,-7.317252,-14.689538,-106.050003,-12.11,-13.93,1729476113841.0,0.0
-4.103691,-5.809773,-13.074384,-32.060001,-11.41,-9.59,1729476113862.0,0.0
-1.51705,-5.903094,-8.616554,59.43,29.4,20.02,1729476113882.0,0.0
-5.266603,-6.592227,-6.783652,40.740002,80.709999,11.69,1729476113901.0,0.0
-6.439085,-4.867002,-6.910471,-11.97,83.580002,5.11,1729476113920.0,0.0
-2.971886,-6.757331,-6.192625,-15.12,48.16,8.19,1729476113941.0,0.0
-0.244068,-6.91765,-5.283352,13.16,45.220001,-0.63,1729476113962.0,0.0
-1.265803,-10.021141,-2.665605,68.669998,46.689999,0.49,1729476113981.0,0.0
-2.486143,-10.25803,-2.916851,87.639999,35.700001,-13.09,1729476114002.0,0.0
-2.18704,-8.252845,-2.943172,58.380001,14.7,-21.98,1729476114020.0,0.0
-1.706082,-8.078169,-3.87398,2.66,0.77,-24.639999,1729476114041.0,0.0
-2.014757,-8.62134,-4.496114,-14.91,-3.01,-17.290001,1729476114061.0,0.0
-2.59382,-7.513463,-3.029313,2.45,0.14,-5.53,1729476114080.0,0.0
-5.28096,-7.551748,-0.368495,16.450001,10.85,3.29,1729476114104.0,0.0
-4.65404,-9.320045,-1.177269,99.050003,-21.98,22.120001,1729476114120.0,0.0
-3.668197,-11.69851,-0.002393,147.630005,-48.720001,26.67,1729476114140.0,0.0
-3.333202,-9.590433,-3.445665,125.370003,-55.299999,18.549999,1729476114162.0,0.0
-3.570091,-6.805188,-6.879365,71.959999,-46.900002,16.17,1729476114180.0,0.0
-3.661019,-6.015556,-8.633304,-1.4,-33.599998,29.540001,1729476114202.0,0.0
-3.711268,-9.463614,-7.944171,39.549999,-23.52,37.66,1729476114222.0,0.0
-3.278167,-14.440684,-7.336394,176.75,7.07,34.93,1729476114240.0,0.0
-3.507878,-10.853845,-9.169296,250.460007,41.720001,36.259998,1729476114262.0,0.0
-4.541577,-6.491727,-8.408379,322.769989,82.110001,37.73,1729476114280.0,0.0
-6.168696,-8.709875,-0.562313,402.5,94.220001,20.02,1729476114302.0,0.0
-4.292724,-9.980463,0.928415,382.970001,49.07,-6.79,1729476114319.0,0.0
-3.986443,-9.131011,1.751546,297.01001,32.900002,-14.77,1729476114340.0,0.0
-3.56052,-11.23191,-1.820938,302.959991,35.279999,-45.150002,1729476114361.0,0.0
-3.024528,-16.809578,-4.414758,368.549988,64.82,-70.07,1729476114380.0,0.0
-3.471986,-11.241481,-1.196411,415.380005,94.709999,-87.010002,1729476114401.0,0.0
-6.324231,-2.600998,2.598605,515.970032,141.399994,-63.98,1729476114420.0,0.0
-9.207582,1.136591,10.406385,518.349976,104.650002,-48.650002,1729476114440.0,0.0
-4.831109,-2.11047,9.52822,228.199997,-18.34,-86.800003,1729476114461.0,0.0
-3.65384,-3.907479,7.042077,148.610001,-28.139999,-76.720001,1729476114481.0,0.0
-3.572484,-1.813759,6.9679,182.699997,-10.36,-41.720001,1729476114501.0,0.0
-5.070391,-1.878366,8.444271,146.860001,-0.84,-25.549999,1729476114520.0,0.0
-4.242475,-2.172683,6.881758,59.639999,-25.129999,-28.210001,1729476114541.0,0.0
-2.175076,0.988236,7.405786,72.239998,-9.59,12.32,1729476114571.0,0.0
-2.177469,-0.131605,7.60439,32.200001,-10.92,29.889999,1729476114711.0,0.0
-1.5003,-4.701896,6.932007,-53.060001,-27.23,42.420002,1729476114716.0,0.0
-2.067399,-7.235896,5.728417,-94.150002,-33.740002,37.099998,1729476114718.0,0.0
-1.849652,-6.379266,7.087541,-71.400002,-21.280001,51.939999,1729476114722.0,0.0
-1.694118,-4.893322,7.030113,-95.129997,-18.200001,45.43,1729476114725.0,0.0
-2.392823,-5.795416,6.927221,-171.149994,-35.139999,40.110001,1729476114726.0,0.0
-2.574677,-5.800202,5.13739,-217.839996,-44.099998,45.43,1729476114727.0,0.0
-2.574677,-6.709475,3.828516,-198.449997,-46.48,45.009998,1729476114741.0,0.0
-2.847459,-6.486942,5.034499,-175.839996,-39.619999,41.09,1729476114766.0,0.0
-3.701697,-6.23091,5.948557,-214.199997,-36.610001,47.18,1729476114769.0,0.0
-4.319045,-7.958528,4.780859,-308.140015,-53.830002,44.939999,1729476114779.0,0.0
-3.196811,-10.509278,0.696311,-443.519989,-81.550003,43.82,1729476114799.0,0.0
-2.438286,-13.174881,1.775474,-453.179993,-76.019997,23.940001,1729476114821.0,0.0
-4.125226,-13.459626,1.600798,-437.290009,-50.259998,9.87,1729476114844.0,0.0
-4.723432,-11.07159,2.225325,-397.179993,-33.110001,-12.11,1729476114860.0,0.0
-4.237689,-12.703495,0.684347,-302.679993,-21.559999,-19.67,1729476114881.0,0.0
-2.234896,-12.521641,2.177469,-233.169998,-36.889999,-24.780001,1729476114902.0,0.0
-0.172283,-10.614561,-1.469193,-128.869995,-11.2,-19.809999,1729476114920.0,0.0
-1.074377,-8.68116,-1.040878,-61.040001,30.52,-12.32,1729476114940.0,0.0
-2.017149,-8.772088,-0.722632,-35.77,30.870001,-10.85,1729476114960.0,0.0
-2.057827,-9.233903,-1.730011,0.63,24.15,0.35,1729476114982.0,0.0
-1.895115,-8.68116,0.349352,36.75,17.01,5.74,1729476115002.0,0.0
-1.217947,-8.961121,-1.842474,60.970001,3.78,11.27,1729476115019.0,0.0
-1.753939,-8.819944,-0.98345,94.360001,7.14,16.870001,1729476115040.0,0.0
-2.414358,-7.606783,-0.241675,133.770004,8.12,26.880001,1729476115061.0,0.0
-3.689733,-6.556334,1.689333,122.779999,8.75,34.439999,1729476115081.0,0.0
-3.632305,-7.79103,1.61037,60.34,-0.21,27.65,1729476115101.0,0.0
-3.335595,-9.23151,-0.148355,13.93,-13.58,28.98,1729476115121.0,0.0
-3.754339,-6.793223,0.854238,34.369999,-5.81,33.599998,1729476115140.0,0.0
-4.342973,-6.381658,1.533799,38.290001,-9.45,44.869999,1729476115160.0,0.0
-5.314459,-9.60479,3.582055,-12.32,-18.27,41.650002,1729476115181.0,0.0
-6.285945,-10.241282,1.710868,-92.400002,-41.369999,35.420002,1729476115204.0,0.0
-6.479764,-9.729217,-0.602991,-129.919998,-44.380001,25.059999,1729476115220.0,0.0
-4.972286,-7.228717,-2.203789,-160.300003,-45.150002,-0.98,1729476115241.0,0.0
-4.455436,-5.910272,-4.61097,-184.660004,-49.84,7.28,1729476115260.0,0.0
-4.498507,-5.611169,-5.869594,-182.139999,-34.16,7.56,1729476115280.0,0.0
-4.510471,-7.657032,-5.304887,-150.430008,-31.219999,16.17,1729476115301.0,0.0
-4.187439,-8.38445,-6.836295,-122.779999,-45.709999,16.309999,1729476115319.0,0.0
-4.098906,-9.980463,-6.465407,-71.260002,-46.900002,13.93,1729476115340.0,0.0
-4.462614,-9.860823,-7.267002,-66.989998,-26.110001,0.91,1729476115361.0,0.0
-4.697111,-12.569498,-10.435099,23.030001,1.05,-1.05,1729476115381.0,0.0
-3.962514,-8.77448,-2.495714,94.919998,7.0,2.66,1729476115454.0,0.0
-4.31426,-9.872787,-3.622734,50.540001,25.27,-3.22,1729476115454.0,0.0
-3.014957,-9.463614,-4.546363,52.920002,26.18,-20.93,1729476115464.0,0.0
-2.995814,-8.451449,-4.587041,21.280001,44.52,-19.25,1729476115498.0,0.0
-4.082155,-8.815158,-2.991028,49.279999,60.900002,-18.200001,1729476115502.0,0.0
-4.503292,-8.475377,0.215354,73.220001,45.290001,-15.82,1729476115518.0,0.0
-3.893122,-8.599805,-0.629312,98.279999,32.759998,-14.7,1729476115539.0,0.0
-4.053442,-8.420342,0.050249,32.41,31.15,-26.18,1729476115559.0,0.0
-3.548556,-7.642675,0.224925,-55.860001,25.690001,-29.82,1729476115635.0,0.0
-3.634698,-8.202596,-0.157926,-141.820007,8.12,-30.030001,1729476115640.0,0.0
-2.727818,-9.547362,-3.35713,-89.25,2.87,-17.290001,1729476115641.0,0.0
-2.043471,-9.671788,-3.900301,-12.46,3.08,-16.66,1729476115645.0,0.0
-2.837888,-7.389036,-3.897908,27.790001,26.460001,-9.8,1729476115664.0,0.0
-3.213561,-6.616155,-3.531806,22.610001,33.599998,-2.59,1729476115680.0,0.0
-3.156133,-8.338986,-3.517449,-19.040001,30.24,-1.89,1729476115700.0,0.0
-3.115455,-9.887143,-2.868994,-40.810001,28.0,-6.23,1729476115720.0,0.0
-3.292524,-9.049655,-2.723032,-53.970001,24.290001,-10.78,1729476115739.0,0.0
-2.557927,-6.809973,-2.993421,-80.709999,14.42,-8.61,1729476115759.0,0.0
-2.493321,-9.224331,-3.818945,-84.629997,3.78,-0.28,1729476115784.0,0.0
-3.144169,-11.045268,-3.122634,-34.509998,20.860001,4.69,1729476115799.0,0.0
-3.558127,-10.217353,-1.270589,26.67,27.370001,6.86,1729476115820.0,0.0
-4.395615,-8.463413,0.358923,24.290001,15.61,2.87,1729476115840.0,0.0
-4.601398,-7.616355,-0.452243,-13.440001,-5.32,0.56,1729476115859.0,0.0
-4.299902,-7.317252,-1.730011,-42.84,-18.549999,8.96,1729476115879.0,0.0
-3.433701,-9.131011,-0.524028,-44.450001,-24.5,10.43,1729476115902.0,0.0
-3.029313,-11.62194,-0.191426,14.07,-38.360001,13.58,1729476115919.0,0.0
-3.617948,-11.49512,-0.859023,27.93,-47.459999,7.91,1729476115940.0,0.0
-3.314059,-10.999805,-2.380858,34.860001,-58.099998,7.77,1729476115960.0,0.0
-2.26361,-8.896514,-8.437093,71.68,-68.040001,21.210001,1729476115979.0,0.0
-1.519442,-9.576077,-15.524633,208.389999,-10.78,41.299999,1729476116002.0,0.0
-2.938386,-12.521641,-7.9011,381.5,81.550003,30.17,1729476116021.0,0.0
-5.300103,-15.3691,-3.326023,474.25,101.919998,9.52,1729476116039.0,0.0
-4.847858,-10.951948,-3.567699,500.779999,64.050003,-3.29,1729476116060.0,0.0
-3.084348,-11.629118,-3.45045,601.090027,71.68,-36.68,1729476116079.0,0.0
-2.536392,-9.523434,-5.570491,593.809998,117.739998,-79.029999,1729476116101.0,0.0
-7.111469,2.555535,1.988436,556.98999,147.139999,-52.709999,1729476116119.0,0.0
-7.515855,4.426722,10.064213,519.330017,107.449997,-44.799999,1729476116141.0,0.0
-7.647461,-0.595813,11.64826,272.230011,39.41,-56.700001,1729476116159.0,0.0
-4.768896,-4.699504,9.585647,132.580002,-24.219999,-80.290001,1729476116179.0,0.0
-3.847659,-4.240082,7.456036,135.589996,-13.72,-42.139999,1729476116201.0,0.0
-3.859623,-3.038885,6.374479,138.669998,-10.43,-27.719999,1729476116220.0,0.0
-4.084548,-2.053042,7.202396,116.059998,-1.05,-21.77,1729476116239.0,0.0
-4.012764,-0.327817,8.353344,86.870003,1.26,-13.72,1729476116260.0,0.0
-4.843073,-2.043471,8.468199,53.830002,-7.77,-0.84,1729476116280.0,0.0
-3.632305,-2.26361,7.788638,20.16,-15.75,9.31,1729476116301.0,0.0
-3.101098,-1.904687,8.523234,-9.66,-12.32,24.57,1729476116320.0,0.0
-2.591427,-2.371287,8.23131,-56.0,-22.4,38.5,1729476116338.0,0.0
-2.177469,-4.682754,6.582655,-98.279999,-35.700001,35.07,1729476116359.0,0.0
-2.462214,-5.209175,5.584848,-126.840004,-40.810001,34.439999,1729476116379.0,0.0
-2.65364,-3.799802,6.9344,-124.599998,-30.380001,52.920002,1729476116402.0,0.0
-2.086541,-3.644269,8.078169,-168.070007,-30.870001,51.310001,1729476116419.0,0.0
-2.758924,-5.666204,6.769295,-254.940002,-52.920002,49.630001,1729476116439.0,0.0
-3.254239,-6.817152,3.708875,-297.709991,-65.449997,48.23,1729476116461.0,0.0
-4.012764,-6.422336,3.926622,-275.380005,-59.220001,57.889999,1729476116479.0,0.0
-4.378866,-7.826923,3.89073,-303.309998,-64.68,55.93,1729476116511.0,0.0
-3.538985,-8.688338,2.715853,-415.730011,-85.610001,43.470001,1729476116519.0,0.0
-2.232504,-11.959327,-0.215354,-500.149994,-95.199997,39.759998,1729476116539.0,0.0
-2.323431,-13.761123,-1.61037,-525.559998,-68.739998,24.5,1729476116561.0,0.0
-4.591826,-13.483556,1.78026,-465.779999,-34.02,1.96,1729476116581.0,0.0
-6.080163,-11.715261,3.620341,-402.5,-11.34,-15.89,1729476116600.0,0.0
-5.391029,-13.294522,1.787439,-315.070007,-17.15,-28.42,1729476116620.0,0.0
-3.022135,-13.629518,2.785245,-208.949997,-42.630001,-30.380001,1729476116639.0,0.0
-0.476172,-10.356135,-1.021735,-122.919998,-18.690001,-26.32,1729476116662.0,0.0
-1.18684,-8.609376,-0.179462,-108.5,10.5,-19.32,1729476116679.0,0.0
-1.641476,-7.9346,-2.141576,-101.989998,13.37,-22.469999,1729476116701.0,0.0
-0.555135,-10.272388,-5.76431,-28.42,1.82,-2.94,1729476116719.0,0.0
-0.141177,-8.300702,-3.402594,70.980003,14.07,9.24,1729476116740.0,0.0
-1.806581,-8.116454,-3.122634,118.440002,23.799999,17.01,1729476116760.0,0.0
-2.641676,-6.606583,-1.301696,95.269997,12.04,19.18,1729476116779.0,0.0
-2.455036,-6.975078,-0.351745,109.129997,0.77,33.529999,1729476116800.0,0.0
-2.648855,-6.924829,-0.181855,72.800003,-2.73,33.599998,1729476116820.0,0.0
-3.799802,-8.472985,1.091127,35.91,-9.73,37.59,1729476116840.0,0.0
-4.934,-7.176075,1.859223,-8.61,-16.379999,37.450001,1729476116859.0,0.0
-6.053841,-7.834101,1.146162,-60.48,-29.82,35.0,1729476116880.0,0.0
-5.156533,-9.29133,-1.366302,-96.739998,-49.630001,14.84,1729476116899.0,0.0
-5.848059,-8.834301,-1.064806,-152.600006,-62.93,20.93,1729476116920.0,0.0
-7.092326,-8.810372,-1.526621,-201.320007,-69.300003,-5.88,1729476116940.0,0.0
-6.486942,-6.407979,-5.292924,-239.960007,-85.540001,-38.57,1729476116960.0,0.0
-4.649254,-2.397608,-11.406586,-220.990005,-96.040001,-19.25,1729476116980.0,0.0
-3.471986,-5.460421,-9.367901,-122.220001,-89.529999,0.21,1729476116999.0,0.0
-3.759124,-7.013363,-9.111869,-166.110001,-43.610001,2.03,1729476117020.0,0.0
-5.010571,-9.619147,-10.13839,-162.119995,-11.27,-9.52,1729476117040.0,0.0
-4.692325,-9.45165,-9.217153,-90.510002,-21.07,-14.63,1729476117060.0,0.0
-3.699304,-7.211967,-5.379066,0.91,-27.299999,-1.61,1729476117079.0,0.0
-2.507678,-4.733003,-6.278766,-29.469999,-30.799999,-1.05,1729476117100.0,0.0
-3.304488,-10.037891,-8.896514,-118.510002,-20.719999,-11.97,1729476117168.0,0.0
-3.787838,-9.133404,-7.628319,-75.949997,20.299999,-14.28,1729476117168.0,0.0
-3.957729,-7.130611,-8.396415,29.33,11.97,-6.16,1729476117169.0,0.0
-4.656433,-7.307681,-6.67119,44.939999,31.780001,-7.7,1729476117185.0,0.0
-6.144768,-7.015756,-4.558327,45.150002,65.099998,1.19,1729476117203.0,0.0
-5.166104,-6.424729,-5.453243,40.18,45.779999,-2.31,1729476117220.0,0.0
-3.768696,-6.053841,-5.900701,13.37,38.990002,2.24,1729476117239.0,0.0
-4.852644,-6.080163,-5.991628,-18.690001,57.610001,10.57,1729476117260.0,0.0
-5.230711,-6.65444,-5.173282,-28.0,69.160004,21.280001,1729476117279.0,0.0
-3.61077,-8.049455,-5.319244,1.68,56.07,24.5,1729476117299.0,0.0
-1.09352,-8.135597,-3.65384,36.049999,45.57,24.99,1729476117320.0,0.0
0.253639,-8.26481,-1.471586,61.32,31.92,19.879999,1729476117340.0,0.0
-0.756132,-7.176075,1.744368,64.75,22.960001,18.9,1729476117359.0,0.0
-2.794817,-7.745567,-1.019342,37.799999,-21.07,14.28,1729476117379.0,0.0
-4.479364,-9.140583,-3.352344,-31.219999,-42.98,-5.74,1729476117400.0,0.0
-3.223132,-9.322437,-5.836094,-60.200001,-83.580002,-23.379999,1729476117420.0,0.0
-2.050649,-6.716653,-8.372486,-69.370003,-107.099998,-28.210001,1729476117438.0,0.0
-7.23111,-7.609176,-9.903893,-103.599998,-86.660004,-24.360001,1729476117459.0,0.0
-9.489935,-6.273981,-10.124033,-125.300003,-12.18,-25.9,1729476117480.0,0.0
-6.551548,-2.222932,-10.676775,-69.440002,-4.27,5.11,1729476117501.0,0.0
-3.52702,-4.608576,-10.171888,-14.49,7.14,28.139999,1729476117519.0,0.0
-5.60399,-6.704689,-9.415757,-2.45,57.400002,31.360001,1729476117538.0,0.0
-6.156733,-6.630512,-7.343572,-1.12,69.160004,20.16,1729476117559.0,0.0
-3.460021,-5.962914,-6.879365,7.49,44.240002,9.52,1729476117579.0,0.0
-1.990828,-6.204589,-7.695317,21.49,34.720001,7.56,1729476117600.0,0.0
-0.937986,-8.606983,-6.049056,25.690001,45.920002,0.77,1729476117620.0,0.0
-1.134198,-9.693325,-5.111069,37.380001,43.119999,-8.68,1729476117639.0,0.0
-1.919044,-8.183454,-2.490928,58.170002,41.16,-19.110001,1729476117662.0,0.0
-2.859423,-6.424729,-1.816152,33.740002,23.17,-22.610001,1729476117678.0,0.0
-2.545963,-4.354938,-1.591227,-13.79,-4.13,-17.639999,1729476117699.0,0.0
-2.512464,-5.998806,-1.435694,-4.48,-19.74,-2.24,1729476117720.0,0.0
-3.59402,-8.135597,-2.916851,38.080002,-30.59,12.18,1729476117741.0,0.0
-4.618148,-9.583255,-3.065206,58.170002,-34.509998,13.440001,1729476117760.0,0.0
-5.35753,-11.172089,-6.04427,79.239998,-52.290001,11.97,1729476117779.0,0.0
-4.113262,-9.052048,-10.853845,129.850006,-65.800003,12.95,1729476117799.0,0.0
-3.656233,-8.989835,-12.445071,237.790009,-28.49,39.759998,1729476117824.0,0.0
-2.9336,-9.824929,-13.222737,348.670013,30.030001,40.529999,1729476117871.0,0.0
-4.34058,-8.405986,-7.965706,390.320007,86.379997,33.110001,1729476117874.0,0.0
-6.04427,-6.520442,-6.221339,388.5,117.879997,24.219999,1729476118049.0,0.0
-5.87438,-10.080962,-2.565106,407.26001,90.300003,8.47,1729476118049.0,0.0
-3.885944,-11.806188,0.342174,366.23999,48.439999,-29.960001,1729476118050.0,0.0
-2.103291,-11.894722,1.646262,370.089996,25.549999,-51.73,1729476118050.0,0.0
-2.347359,-7.446464,-2.548356,394.450012,62.299999,-49.84,1729476118051.0,0.0
-4.74736,-9.968499,-1.416551,446.73999,84.209999,-38.009998,1729476118051.0,0.0
-4.56072,-9.65504,0.870987,425.390015,49.77,-86.870003,1729476118051.0,0.0
-3.110669,-3.433701,5.144568,419.160004,65.590004,-83.650002,1729476118052.0,0.0
-4.733003,-0.270389,7.867601,392.910004,69.790001,-38.360001,1729476118052.0,0.0
-5.812167,-1.469193,6.9679,246.610001,14.56,-47.389999,1729476118059.0,0.0
-4.795217,-5.723632,5.843273,147.839996,-10.15,-56.209999,1729476118078.0,0.0
-3.534199,-5.228317,6.972685,181.860001,5.95,-52.990002,1729476118100.0,0.0
-3.739982,1.124627,9.710074,231.839996,31.57,-32.130001,1729476118118.0,0.0
-5.383851,-4.089334,7.180861,61.529999,-17.780001,-27.58,1729476118138.0,0.0
-3.120241,-1.471586,7.927422,78.470001,1.4,-10.71,1729476118159.0,0.0
-3.627519,-0.038285,10.478169,97.019997,16.1,7.0,1729476118180.0,0.0
-3.294917,-3.955336,9.554541,-9.59,-16.940001,15.190001,1729476118199.0,0.0
-2.751746,-7.898707,6.867401,-57.049999,-34.509998,9.24,1729476118217.0,0.0
-3.184847,-7.783852,6.69751,-22.889999,-24.710001,12.39,1729476118245.0,0.0
-2.304288,-3.189633,7.726424,-14.0,-9.87,10.64,1729476118259.0,0.0
-2.646462,-1.586441,6.568298,-57.260002,-18.690001,20.790001,1729476118278.0,0.0
-3.718446,-2.340181,5.182854,-141.119995,-26.18,40.950001,1729476118306.0,0.0
-4.158726,-3.924229,5.278566,-202.649994,-35.349998,51.52,1729476118318.0,0.0
-4.158726,-5.807381,5.946165,-231.139999,-29.610001,51.52,1729476118338.0,0.0
-3.321238,-7.999206,5.726025,-260.540009,-39.830002,41.720001,1729476118359.0,0.0
-2.845066,-7.893922,5.032106,-270.480011,-41.580002,38.5,1729476118378.0,0.0
-3.515057,-6.910471,5.580062,-265.579987,-40.880001,46.41,1729476118401.0,0.0
-3.897908,-6.503692,4.622933,-291.130005,-33.599998,49.139999,1729476118420.0,0.0
-3.35713,-9.664611,2.067399,-343.070007,-56.0,27.299999,1729476118439.0,0.0
-1.308874,-11.241481,1.201197,-384.579987,-67.970001,4.83,1729476118458.0,0.0
-0.892523,-9.734003,1.749153,-355.179993,-31.780001,44.170002,1729476118479.0,0.0
-1.545763,-9.750752,1.129412,-292.040009,1.19,22.889999,1729476118498.0,0.0
-1.600798,-11.066804,-1.648655,-254.100006,17.01,1.4,1729476118517.0,0.0
-1.253839,-12.303895,-2.053042,-224.419998,24.639999,-5.46,1729476118538.0,0.0
-1.184447,-10.152746,-4.240082,-228.830002,36.75,-18.76,1729476118560.0,0.0
-1.579263,-12.559926,-4.76411,-154.490005,35.91,-8.19,1729476118578.0,0.0
-2.59382,-14.581861,0.926022,-45.43,37.799999,-2.52,1729476118599.0,0.0
-2.883351,-8.520842,1.902294,-5.53,25.200001,-13.86,1729476118619.0,0.0
-4.826324,-6.262017,3.256632,42.77,10.64,11.34,1729476118639.0,0.0
-4.634897,-8.561519,1.875973,97.580002,-5.11,12.81,1729476118661.0,0.0
-2.354537,-8.590233,-0.909273,110.599998,-18.059999,14.77,1729476118678.0,0.0
-1.995614,-7.618747,0.378066,96.529999,-2.66,28.0,1729476118711.0,0.0
-4.299902,-8.987441,0.911665,47.740002,19.67,39.549999,1729476118718.0,0.0
-5.264209,-9.040084,-1.194018,29.960001,15.05,28.210001,1729476118738.0,0.0
-5.173282,-6.927221,-0.193819,62.02,7.91,43.259998,1729476118760.0,0.0
-4.493721,-7.216753,1.942972,80.639999,3.08,43.049999,1729476118778.0,0.0
-5.206782,-8.216952,-0.031107,60.48,-0.14,42.490002,1729476118800.0,0.0
-4.596612,-7.630712,1.447658,27.790001,-6.79,39.970001,1729476118819.0,0.0
-4.819145,-6.778866,4.517649,25.690001,-33.389999,66.5,1729476118840.0,0.0
-6.123233,-8.228917,3.814159,-15.4,-47.389999,59.010002,1729476118860.0,0.0
-7.467999,-6.597012,1.237089,-128.800003,-57.470001,46.060001,1729476118878.0,0.0
-7.269395,-6.814759,-3.113062,-207.339996,-70.279999,24.99,1729476118911.0,0.0
-7.24786,-6.623333,-5.304887,-257.600006,-60.619999,9.1,1729476118918.0,0.0
-6.314659,-6.695118,-8.195417,-240.100006,-64.75,-4.27,1729476118938.0,0.0
-5.321638,-8.015956,-7.678568,-197.119995,-73.779999,-5.95,1729476118962.0,0.0
-4.453043,-9.444471,-6.805188,-145.949997,-74.900002,-7.84,1729476118978.0,0.0
-4.527221,-7.590034,-6.987042,-134.889999,-50.889999,-11.62,1729476118998.0,0.0
-5.295317,-5.761917,-6.053841,-146.509995,-24.57,-10.08,1729476119018.0,0.0
-5.510671,-6.151947,-5.781059,-170.100006,-19.809999,-6.02,1729476119040.0,0.0
-5.469993,-8.662018,-6.106483,-190.399994,-22.4,2.73,1729476119058.0,0.0
-5.376673,-11.308479,-7.058826,-177.169998,-20.02,-4.41,1729476119078.0,0.0
-4.697111,-9.394222,-7.472785,-141.330002,-4.76,-13.09,1729476119100.0,0.0
-3.68734,-6.072984,-7.317252,-72.870003,2.45,-7.14,1729476119117.0,0.0
-4.331009,-8.975478,-4.84068,-11.62,16.799999,1.54,1729476119139.0,0.0
-4.070191,-8.743374,-4.807181,-59.43,17.99,-14.14,1729476119158.0,0.0
-3.598805,-8.776874,-4.766503,-53.130001,8.33,-14.49,1729476119179.0,0.0
-3.471986,-7.673782,-4.797609,-24.290001,8.4,-15.47,1729476119200.0,0.0
-4.491328,-7.192825,-5.12782,-28.49,16.73,-14.42,1729476119217.0,0.0
-4.326223,-6.4343,-6.209375,-51.66,1.96,-11.48,1729476119239.0,0.0
-5.393422,-7.554141,-5.443672,-22.75,17.5,-4.97,1729476119258.0,0.0
-4.996214,-5.481956,-7.944171,39.34,11.13,-0.07,1729476119278.0,0.0
-4.634897,-5.74756,-8.997013,59.639999,17.710001,12.04,1729476119301.0,0.0
-5.709275,-6.750153,-7.867601,48.860001,39.34,11.97,1729476119318.0,0.0
-5.876772,-6.465407,-9.272188,14.35,50.330002,1.33,1729476119337.0,0.0
-4.283153,-6.305088,-9.52822,6.3,57.959999,2.31,1729476119358.0,0.0
-3.457629,-6.675975,-9.032906,29.960001,71.470001,6.44,1729476119378.0,0.0
-4.673182,-6.683154,-0.205783,33.950001,81.900002,1.47,1729476119398.0,0.0
-4.474578,-3.041277,-3.108276,-18.34,53.549999,-8.61,1729476119417.0,0.0
-3.601198,-6.56112,-7.60439,-82.739998,24.780001,-7.63,1729476119437.0,0.0
-4.15394,-10.518847,-7.345965,-84.910004,51.450001,-19.389999,1729476119460.0,0.0
-3.196811,-6.419943,-4.084548,58.52,36.049999,-7.7,1729476119479.0,0.0
-4.055835,-5.503492,-4.709075,40.25,40.810001,-10.08,1729476119500.0,0.0
-3.625126,-6.742974,-5.651847,-6.44,35.07,-6.93,1729476119517.0,0.0
-2.871387,-9.949356,-3.952943,8.19,28.35,-3.43,1729476119537.0,0.0
-2.787638,-9.320045,-3.328416,44.59,25.690001,-8.82,1729476119559.0,0.0
-3.223132,-6.4678,-1.337588,61.32,14.07,-3.01,1729476119580.0,0.0
-3.304488,-4.378866,-0.911665,10.43,-5.04,4.2,1729476119598.0,0.0
-3.20399,-6.534799,-2.510071,-20.299999,-28.700001,12.88,1729476119617.0,0.0
-4.311867,-10.250853,-2.608176,-2.24,-43.189999,14.98,1729476119639.0,0.0
-4.972286,-10.820344,-3.962514,16.450001,-43.82,3.01,1729476119660.0,0.0
-5.178068,-8.714661,-4.888536,46.689999,-66.360001,2.52,1729476119678.0,0.0
-3.795017,-6.197411,-9.805787,103.739998,-71.68,13.79,1729476119699.0,0.0
-3.062813,-6.570691,-13.584054,163.589996,-57.540001,34.790001,1729476119720.0,0.0
-3.555735,-9.355937,-9.310472,216.020004,-7.14,42.420002,1729476119738.0,0.0
-4.534399,-10.109675,-8.54477,245.630005,43.68,35.630001,1729476119759.0,0.0
-4.718646,-7.554141,-9.219545,288.190002,62.439999,38.920002,1729476119780.0,0.0
-5.201996,-10.954341,-2.419144,379.329987,75.110001,35.07,1729476119800.0,0.0
-5.120641,-9.415757,-0.978664,404.390015,50.68,-19.6,1729476119817.0,0.0
-4.319045,-9.332008,-0.784846,442.470001,37.52,-25.200001,1729476119838.0,0.0
-3.105884,-8.585447,-1.694118,429.170013,49.420002,-39.549999,1729476119858.0,0.0
-4.646862,-8.085347,1.938186,354.339996,73.220001,-40.040001,1729476119878.0,0.0
-5.900701,-7.683353,3.424129,287.420013,51.310001,-61.880001,1729476119899.0,0.0
-5.79781,-8.362915,2.663212,269.98999,35.0,-67.830002,1729476119919.0,0.0
-4.084548,-8.317451,5.381458,295.26001,4.13,-75.18,1729476119937.0,0.0
-4.192225,-5.474778,5.158926,301.350006,40.459999,-61.25,1729476119958.0,0.0
-5.460421,-6.379266,3.0006,266.070007,24.99,-75.529999,1729476119978.0,0.0
-3.89073,-2.620141,5.429315,265.51001,15.96,-66.57,1729476119998.0,0.0
-4.539185,4.072584,8.635696,283.640015,45.080002,-4.06,1729476120017.0,0.0
-5.776274,0.114855,9.348758,127.540001,-6.72,-7.7,1729476120038.0,0.0
-2.428715,-3.771089,8.963513,20.370001,-25.690001,-9.1,1729476120059.0,0.0
-3.089134,-4.299902,10.250853,2.1,-20.09,19.110001,1729476120078.0,0.0
-2.880959,-4.756931,7.252645,-52.290001,-38.990002,20.93,1729476120098.0,0.0
-2.026721,-5.144568,6.065805,-66.150002,-34.509998,26.809999,1729476120118.0,0.0
-1.921437,-7.992027,4.742575,-89.459999,-30.030001,23.309999,1729476120139.0,0.0
-1.777867,-7.183254,7.049256,-39.34,-4.62,26.880001,1729476120159.0,0.0
-2.031506,-5.723632,6.07777,-28.42,-0.84,25.27,1729476120177.0,0.0
-3.498307,-8.346166,3.35713,-20.860001,-9.59,20.02,1729476120198.0,0.0
-3.917051,-8.128418,3.828516,48.509998,10.43,-4.27,1729476120217.0,0.0
-4.228118,-5.594419,7.688138,112.910004,46.48,-17.01,1729476120238.0,0.0
-3.275774,-4.017549,9.635897,87.43,43.82,-31.85,1729476120259.0,0.0
-3.235096,-5.419744,7.554141,47.040001,23.309999,-30.17,1729476120284.0,0.0
-3.306881,-6.233303,7.125826,64.610001,25.969999,-39.34,1729476120298.0,0.0
-3.515057,-5.362316,8.688338,74.690002,35.84,-47.389999,1729476120318.0,0.0
-4.945964,-3.981657,9.480364,77.0,31.08,-49.209999,1729476120338.0,0.0
-6.23091,-1.048056,8.79123,80.57,21.210001,-35.420002,1729476120358.0,0.0
-6.429514,0.854238,8.456236,56.279999,6.86,-12.39,1729476120377.0,0.0
-5.766702,0.933201,8.039884,1.26,-11.9,5.25,1729476120401.0,0.0
-4.68754,0.997807,7.752745,-32.200001,-20.65,22.540001,1729476120418.0,0.0
-3.878766,0.772882,7.664211,-55.510002,-22.120001,38.150002,1729476120436.0,0.0
-4.302295,-1.904687,8.865408,-147.490005,-34.02,63.349998,1729476120460.0,0.0
-3.558127,-6.352944,8.16431,-229.529999,-55.23,75.739998,1729476120478.0,0.0
-2.620141,-8.836694,4.682754,-290.149994,-68.18,60.549999,1729476120501.0,0.0
-1.799403,-12.086146,1.899901,-267.610016,-64.330002,38.080002,1729476120518.0,0.0
-2.033899,-13.361522,-0.528814,-187.320007,-28.49,24.43,1729476120539.0,0.0
-2.129612,-13.351951,1.624727,-42.139999,10.43,0.49,1729476120558.0,0.0
-3.440879,-10.059426,4.173083,83.860001,48.16,-11.48,1729476120579.0,0.0
-4.821537,-8.142776,5.268995,163.940002,59.779999,-26.880001,1729476120600.0,0.0
-4.331009,-7.073184,6.422336,198.800003,56.139999,-46.27,1729476120619.0,0.0
-4.792823,-3.955336,7.77428,200.690002,62.790001,-43.889999,1729476120640.0,0.0
-5.182854,-3.792624,7.628319,175.699997,44.869999,-45.779999,1729476120662.0,0.0
-4.398008,-4.072584,7.458428,140.839996,33.529999,-54.32,1729476120680.0,0.0
-4.599005,-3.756732,9.205189,129.990005,31.92,-53.549999,1729476120700.0,0.0
-4.192225,-1.462015,8.568698,110.599998,26.880001,-50.610001,1729476120719.0,0.0
-4.759324,-0.741775,8.360522,70.279999,18.129999,-33.040001,1729476120738.0,0.0
-4.0008,-0.988236,7.341179,-5.32,-7.07,-8.19,1729476120760.0,0.0
-3.010171,-2.021935,7.020542,-22.33,-10.92,9.17,1729476120780.0,0.0
-2.651247,-2.493321,6.771688,-28.35,-8.12,23.450001,1729476120799.0,0.0
-2.995814,-3.050849,7.097112,-60.130001,-4.62,32.34,1729476120819.0,0.0
-3.354738,-3.768696,8.169096,-107.870003,-10.5,43.330002,1729476120838.0,0.0
-3.548556,-5.362316,9.123833,-130.619995,-17.92,48.09,1729476120859.0,0.0
-4.302295,-7.185646,9.329616,-140.630005,-29.540001,36.82,1729476120879.0,0.0
-4.338188,-8.85105,6.76451,-119.349998,-35.139999,17.99,1729476120899.0,0.0
-4.309474,-5.749953,5.331209,-89.529999,-12.11,8.82,1729476120919.0,0.0
-4.902894,-3.754339,6.982256,-71.470001,3.29,21.0,1729476120939.0,0.0
-5.235496,-5.321638,6.62094,-115.849998,-13.79,19.110001,1729476120959.0,0.0
-4.395615,-6.85783,5.613562,-159.740005,-25.549999,-0.7,1729476120979.0,0.0
-4.472186,-4.74736,6.135197,-191.589996,-11.06,10.57,1729476121003.0,0.0
-4.625326,-3.907479,5.749953,-236.320007,-13.440001,26.809999,1729476121018.0,0.0
-4.15394,-6.135197,3.285345,-281.470001,-34.650002,15.82,1729476121040.0,0.0
-3.570091,-8.752945,2.07697,-283.01001,-42.700001,4.9,1729476121059.0,0.0
-3.227918,-9.310472,3.385844,-250.110001,-36.75,17.15,1729476121079.0,0.0
-3.9338,-8.836694,2.215754,-222.809998,-31.780001,23.66,1729476121107.0,0.0
-3.792624,-9.24826,-0.646062,-220.220001,-32.689999,9.31,1729476121119.0,0.0
-3.129812,-10.937593,-3.089134,-197.680008,-33.110001,4.69,1729476121138.0,0.0
-3.24706,-12.899707,-5.216353,-122.989998,-24.92,1.05,1729476121159.0,0.0
-3.67059,-17.941383,-4.926822,96.809998,-7.77,-11.55,1729476121180.0,0.0
-1.895115,-15.081962,-0.928415,360.920013,41.02,-19.25,1729476121199.0,0.0
-2.87378,-6.273981,2.127219,488.880005,115.779999,-1.47,1729476121219.0,0.0
-5.804988,-5.029713,4.54397,514.780029,118.580002,-29.190001,1729476121239.0,0.0
-6.049056,-7.826923,3.661019,402.779999,63.630001,-85.330002,1729476121259.0,0.0
-3.960121,-5.761917,3.304488,311.5,45.709999,-75.669998,1729476121279.0,0.0
-5.364708,-2.222932,7.152147,314.649994,78.330002,-53.970001,1729476121299.0,0.0
-6.336195,-0.646062,10.066606,250.180008,48.02,-49.0,1729476121318.0,0.0
-4.744967,-1.021735,8.810372,153.789993,12.88,-54.18,1729476121338.0,0.0
-4.333402,-1.395016,8.118847,102.690002,0.42,-35.420002,1729476121359.0,0.0
-4.13719,-1.538585,8.130811,72.379997,-7.98,-16.24,1729476121378.0,0.0
-3.830909,-1.806581,6.975078,38.360001,-14.7,-2.24,1729476121399.0,0.0
-3.558127,-2.792424,7.144968,12.6,-9.8,8.05,1729476121419.0,0.0
-3.646662,-3.766303,7.62114,-17.85,-12.6,13.65,1729476121438.0,0.0
-3.294917,-3.826123,7.779066,-38.57,-17.360001,28.91,1729476121460.0,0.0
-2.498107,-2.624927,8.154739,-61.18,-20.370001,47.810001,1729476121480.0,0.0
-2.37368,-2.672783,7.45125,-130.550003,-27.09,57.119999,1729476121500.0,0.0
-3.239882,-4.244867,6.786045,-244.229996,-45.360001,59.010002,1729476121518.0,0.0
-3.134598,-6.503692,3.259024,-347.899994,-62.720001,59.779999,1729476121540.0,0.0
-2.888137,-8.293523,0.437887,-407.679993,-63.630001,50.119999,1729476121560.0,0.0
-2.76371,-9.422935,0.679562,-420.279999,-63.420002,54.529999,1729476121579.0,0.0
-2.129612,-11.023734,-0.562313,-407.119995,-55.369999,55.650002,1729476121600.0,0.0
-2.785245,-12.21536,-2.598605,-398.720001,-31.15,49.279999,1729476121619.0,0.0
-3.883551,-13.399807,-0.07657,-403.829987,-24.92,27.790001,1729476121638.0,0.0
-5.048856,-13.864014,0.112463,-414.329987,-17.01,15.26,1729476121662.0,0.0
-5.682954,-10.399208,-0.270389,-419.579987,-7.0,-15.68,1729476121678.0,0.0
-4.809574,-10.51167,-0.504886,-379.329987,-6.44,-30.73,1729476121700.0,0.0
-4.465007,-13.502698,-0.413958,-270.339996,-13.65,-13.37,1729476121719.0,0.0
-4.752146,-11.676974,-1.928615,-115.989998,26.389999,-29.540001,1729476121737.0,0.0
-4.292724,-9.178867,-3.909872,-122.57,47.18,-42.560001,1729476121759.0,0.0
-1.902294,-11.763116,-2.54357,-53.34,13.93,-24.43,1729476121779.0,0.0
-0.16989,-8.843873,-1.567299,-11.13,24.57,-25.34,1729476121799.0,0.0
-0.732204,-8.080563,-3.012564,56.98,20.51,-12.04,1729476121819.0,0.0
-1.885544,-6.362515,-3.529413,120.120003,24.57,1.75,1729476121839.0,0.0
-3.029313,-5.386244,-1.847259,182.070007,24.01,33.25,1729476121860.0,0.0
-4.079762,-4.515256,1.904687,161.279999,26.110001,36.75,1729476121878.0,0.0
-4.041477,-8.446664,1.339981,65.730003,9.1,27.16,1729476121899.0,0.0
-3.723232,-9.994821,-2.443072,-2.24,-21.42,24.5,1729476121919.0,0.0
-3.007778,-11.732009,-4.029513,20.93,-16.59,19.809999,1729476121938.0,0.0
-2.658426,-10.815558,-2.287539,63.139999,-5.18,15.190001,1729476121960.0,0.0
-3.883551,-9.454042,-1.165305,85.470001,6.23,12.39,1729476121978.0,0.0
-4.292724,-7.63789,-1.761117,60.760002,-0.91,13.3,1729476122000.0,0.0
-3.658626,-8.733803,-1.06002,64.260002,-10.36,15.68,1729476122018.0,0.0
-3.766303,-9.724431,-0.452243,79.660004,-9.31,16.52,1729476122038.0,0.0
-5.680561,-7.465607,1.447658,80.989998,0.91,18.129999,1729476122058.0,0.0
-5.556134,-6.573084,3.785445,86.730003,-6.16,29.120001,1729476122079.0,0.0
-5.4341,-7.020542,-0.086142,-17.360001,-50.959999,25.969999,1729476122101.0,0.0
-5.118248,-9.722038,-1.172483,-101.849998,-41.23,17.85,1729476122184.0,0.0
-4.694718,-10.777272,-1.730011,-115.290001,-61.740002,14.98,1729476122189.0,0.0
-4.850252,-9.29133,-2.17029,-90.019997,-45.990002,8.26,1729476122190.0,0.0
-5.266603,-5.941379,-3.570091,-66.43,-30.940001,9.1,1729476122191.0,0.0
-5.572884,-5.194818,-3.036492,-70.840004,-32.48,9.94,1729476122200.0,0.0
-5.180461,-5.441278,-2.428715,-124.949997,-47.32,0.56,1729476122217.0,0.0
-5.051248,-6.659225,-2.024328,-161.559998,-67.760002,1.61,1729476122238.0,0.0
-5.572884,-5.903094,-4.570292,-183.75,-75.32,-7.14,1729476122258.0,0.0
-5.977271,-4.709075,-8.65484,-207.550003,-57.75,-15.82,1729476122278.0,0.0
-6.04427,-5.053641,-9.480364,-250.740005,-47.32,-13.51,1729476122300.0,0.0
-4.814359,-7.838887,-12.507284,-301.350006,-53.48,-18.41,1729476122324.0,0.0
-2.955136,-13.46202,-12.078968,-235.339996,-49.139999,-15.82,1729476122338.0,0.0
-1.543371,-12.373285,-8.85105,-131.809998,-14.42,3.01,1729476122358.0,0.0
-2.548356,-9.083155,-5.855237,-4.55,36.68,-7.91,1729476122381.0,0.0
-4.974678,-4.661219,-5.371887,24.01,52.009998,-12.25,1729476122400.0,0.0
-4.56072,-7.767102,-7.23111,-59.360001,14.98,-14.98,1729476122419.0,0.0
-2.792424,-9.875179,-4.625326,-67.690002,8.33,-20.719999,1729476122437.0,0.0
-2.533999,-8.829515,-4.591826,16.870001,14.14,-14.35,1729476122459.0,0.0
-3.718446,-6.63769,-7.762317,50.75,25.690001,-11.76,1729476122479.0,0.0
-4.852644,-7.013363,-6.005985,17.219999,44.170002,-5.88,1729476122501.0,0.0
-5.503492,-7.819745,-5.599205,49.700001,35.560001,2.03,1729476122518.0,0.0
-4.895715,-5.690133,-6.91765,77.769997,34.650002,6.58,1729476122538.0,0.0
-5.046463,-4.491328,-6.032306,25.549999,41.790001,15.54,1729476122559.0,0.0
-4.960321,-6.795617,-6.795617,-28.91,46.830002,15.12,1729476122579.0,0.0
-3.828516,-10.061819,-5.486742,-28.49,43.889999,5.6,1729476122600.0,0.0
-2.127219,-8.317451,-5.297709,18.690001,35.279999,-0.49,1729476122619.0,0.0
-1.354338,-7.080362,-5.931807,65.099998,20.860001,5.32,1729476122639.0,0.0
-4.079762,-8.542377,-5.867201,40.599998,59.5,-7.07,1729476122662.0,0.0
-4.792823,-9.982857,-4.302295,9.03,67.620003,-14.07,1729476122680.0,0.0
-1.198804,-8.676375,-3.646662,43.82,17.219999,-20.16,1729476122702.0,0.0
-2.706282,-8.212167,-5.316852,26.6,31.290001,-23.66,1729476122720.0,0.0
-3.711268,-8.13799,-5.474778,29.120001,32.549999,-19.809999,1729476122740.0,0.0
-2.510071,-6.18784,-3.804588,52.360001,23.030001,-13.93,1729476122762.0,0.0
-1.998007,-3.63709,-0.808774,37.52,13.51,-0.98,1729476122781.0,0.0
-3.60359,-4.87418,-0.26321,-21.139999,-0.77,11.2,1729476122801.0,0.0
-4.675575,-7.401,0.524028,-65.309998,-29.469999,11.34,1729476122820.0,0.0
-3.316452,-6.855437,-5.257031,-54.670002,-66.010002,10.22,1729476122841.0,0.0
-2.541178,-5.989235,-8.55434,-79.800003,-85.330002,9.45,1729476122861.0,0.0
-4.87418,-10.372886,-11.473583,-118.230003,-56.349998,0.77,1729476122880.0,0.0
-6.903293,-12.610175,-9.370294,-88.760002,-4.34,-6.37,1729476122901.0,0.0
-6.687939,-7.858029,-9.839286,-18.690001,1.89,-22.469999,1729476122920.0,0.0
-4.548756,-4.919643,-8.772088,49.279999,21.139999,-1.33,1729476122941.0,0.0
-2.019542,-5.673382,-7.812566,38.080002,27.51,9.1,1729476122960.0,0.0
-2.830709,-6.958328,-6.999006,2.66,61.529999,20.860001,1729476122983.0,0.0
-4.161119,-9.032906,-6.238089,11.83,72.029999,16.52,1729476123001.0,0.0
-0.98345,-7.379465,-2.65364,76.230003,42.07,15.4,1729476123020.0,0.0
-1.998007,-8.216952,-1.287339,80.43,46.41,2.94,1729476123044.0,0.0
-2.538785,-7.623533,-0.543171,76.440002,17.639999,-3.36,1729476123060.0,0.0
-2.897708,-9.092726,-2.009971,64.190002,-14.14,-11.97,1729476123080.0,0.0
-2.35693,-8.377272,-4.900501,64.75,-37.869999,-22.960001,1729476123101.0,0.0
-1.433301,-6.687939,-5.4676,60.970001,-61.880001,-20.23,1729476123119.0,0.0
-2.313859,-7.051648,-7.941778,39.060001,-56.0,-15.54,1729476123139.0,0.0
-4.48415,-8.126025,-9.119047,26.880001,-28.91,-3.36,1729476123160.0,0.0
-6.082555,-9.19801,-7.269395,20.09,6.44,-1.82,1729476123180.0,0.0
-5.79781,-6.965507,-5.4006,-18.83,17.85,-2.24,1729476123201.0,0.0
-4.003192,-7.628319,-7.121039,-40.740002,7.28,-1.68,1729476123220.0,0.0
-3.871587,-8.975478,-7.515855,-35.490002,29.75,0.56,1729476123240.0,0.0
-3.335595,-10.930414,-2.706282,69.650002,43.75,7.77,1729476123261.0,0.0
-4.800002,-8.075776,-4.733003,37.73,52.920002,-0.91,1729476123280.0,0.0
-1.275374,-8.51127,-1.442872,7.21,14.98,-17.57,1729476123300.0,0.0
-0.777667,-6.245267,0.602991,5.25,-2.31,2.66,1729476123320.0,0.0
-2.330609,-6.65444,-2.409572,26.880001,3.5,-1.89,1729476123341.0,0.0
-3.639483,-8.652447,-6.352944,1.4,-13.440001,2.73,1729476123361.0,0.0
-3.151347,-5.848059,-4.706682,-43.75,-28.139999,-4.13,1729476123379.0,0.0
-1.533799,-7.946564,-7.133004,41.439999,-45.220001,17.290001,1729476123401.0,0.0
-2.907279,-10.576276,-2.9336,86.870003,-36.610001,21.0,1729476123420.0,0.0
-5.675776,-10.454242,-6.78126,60.900002,-6.58,4.13,1729476123439.0,0.0
-6.374479,-9.262616,-6.168696,-15.75,2.87,-6.3,1729476123460.0,0.0
-4.369294,-8.30788,-8.62134,-96.949997,-2.73,-13.440001,1729476123480.0,0.0
-2.189433,-11.413764,-4.252046,-32.060001,3.99,-4.76,1729476123503.0,0.0
-3.885944,-9.690931,-0.265603,31.08,36.540001,-4.41,1729476123520.0,0.0
-3.885944,-4.086941,-9.341579,-20.719999,53.549999,-14.42,1729476123539.0,0.0
-2.658426,-6.221339,0.248854,-47.110001,-5.32,-3.29,1729476123561.0,0.0
-1.064806,-10.782058,-0.904487,32.200001,-3.22,-4.13,1729476123580.0,0.0
-1.524228,-6.18784,-0.949951,43.119999,-8.12,-1.54,1729476123602.0,0.0
-3.089134,-6.238089,-4.225725,27.299999,-15.4,6.58,1729476123619.0,0.0
-3.582055,-8.219346,-6.017949,-16.309999,-25.9,1.54,1729476123640.0,0.0
-2.445465,-8.12124,-8.360522,-0.28,-43.049999,11.76,1729476123664.0,0.0
-3.404987,-9.573684,-5.022535,82.110001,-39.41,23.030001,1729476123681.0,0.0
-5.735595,-10.995021,-8.099705,60.830002,7.28,12.46,1729476123703.0,0.0
-7.259824,-7.611568,-6.795617,-98.349998,26.6,-11.83,1729476123720.0,0.0
-4.271189,-10.815558,-7.171289,-113.540001,5.46,-26.950001,1729476123740.0,0.0
-1.751546,-10.609775,-2.423929,-5.46,9.8,-15.47,1729476123760.0,0.0
-3.917051,-6.192625,-2.665605,35.560001,48.299999,-8.19,1729476123780.0,0.0
-4.15394,-4.864608,-2.041078,-14.14,38.990002,-12.95,1729476123800.0,0.0
-2.514857,-8.013563,-0.174676,-40.810001,-10.92,-6.72,1729476123820.0,0.0
-0.832702,-9.413363,-2.677568,11.06,-23.309999,-7.56,1729476123840.0,0.0
-0.914058,-6.699903,-3.98405,33.25,-26.25,1.82,1729476123860.0,0.0
-2.435893,-7.377072,-6.254838,29.540001,-9.94,6.37,1729476123880.0,0.0
-3.17049,-6.821937,-4.735396,-7.77,-6.02,7.91,1729476123900.0,0.0
-2.443072,-7.355537,-5.850451,46.759998,-33.880001,22.26,1729476123919.0,0.0
-4.194618,-9.317651,-2.581856,51.66,-28.700001,26.18,1729476123940.0,0.0
-6.113662,-9.992428,-8.149954,-16.799999,-18.549999,-0.42,1729476123960.0,0.0
-6.721439,-10.432706,-8.267202,-95.970001,-2.31,-12.18,1729476123980.0,0.0
-5.355137,-10.652846,-8.008778,-97.300003,18.059999,-18.200001,1729476124001.0,0.0
-2.9336,-9.265009,-2.715853,19.6,17.85,-9.17,1729476124020.0,0.0
-4.187439,-4.924429,-3.536592,-2.1,55.369999,-7.35,1729476124039.0,0.0
-2.854637,-5.553742,-4.524827,-51.029999,34.02,-10.08,1729476124060.0,0.0
-1.615155,-9.075976,-0.708275,-45.920002,-2.94,-1.68,1729476124079.0,0.0
-0.878166,-10.131211,-2.701497,35.630001,-0.77,-5.39,1729476124101.0,0.0
-1.567299,-7.070791,-3.20399,62.299999,-2.24,-2.24,1729476124119.0,0.0
-2.835495,-7.532606,-3.821337,41.790001,0.42,-2.73,1729476124139.0,0.0
-2.289931,-6.735795,-5.056034,1.89,-17.99,-1.89,1729476124161.0,0.0
-1.261017,-6.63769,-6.618547,46.060001,-45.009998,12.88,1729476124180.0,0.0
-3.919443,-8.439486,-3.979264,54.810001,-28.49,19.389999,1729476124201.0,0.0
-6.489335,-10.999805,-9.810574,21.91,-13.51,3.08,1729476124219.0,0.0
-8.102098,-8.769694,-7.032506,-100.870003,10.15,-13.86,1729476124240.0,0.0
-5.209175,-9.729217,-7.573284,-87.080002,3.43,-16.17,1729476124261.0,0.0
-1.768296,-8.889337,-5.13739,-19.6,-3.22,-6.65,1729476124281.0,0.0
-2.648855,-7.932207,-1.59362,35.349998,30.1,1.05,1729476124303.0,0.0
-5.309673,-5.051248,-3.010171,-19.25,52.57,-3.71,1729476124319.0,0.0
-3.462414,-6.798009,-1.792224,-55.510002,16.309999,-1.05,1729476124339.0,0.0
-0.229711,-8.685946,-4.479364,-22.610001,-20.440001,2.31,1729476124368.0,0.0
-0.835095,-7.848458,-4.261617,58.66,-7.42,7.77,1729476124380.0,0.0
-2.639283,-6.76451,-5.158926,39.619999,5.32,5.11,1729476124403.0,0.0
-3.787838,-7.403394,-4.828716,-9.73,-6.09,1.4,1729476124420.0,0.0
-2.56032,-8.267202,-5.735595,8.47,-36.189999,4.9,1729476124439.0,0.0
-2.988636,-8.439486,-3.878766,56.420002,-42.560001,9.59,1729476124461.0,0.0
-5.213961,-7.74796,-8.092526,32.130001,-26.67,1.54,1729476124481.0,0.0
-7.889136,-9.667004,-6.977471,-69.090004,-4.69,-12.04,1729476124502.0,0.0
-7.147361,-10.346564,-9.38465,-109.550003,20.299999,-28.77,1729476124520.0,0.0
-3.15374,-10.277173,-6.003592,-17.219999,6.72,-14.42,1729476124541.0,0.0
-1.811367,-8.092526,-2.100898,58.59,33.529999,-5.81,1729476124561.0,0.0
-3.4672,-5.721239,1.251446,59.080002,40.18,-4.34,1729476124582.0,0.0
-5.216353,-4.587041,-3.290131,-4.06,32.41,-4.06,1729476124602.0,0.0
-2.945565,-6.398407,-5.608776,-65.590004,-11.34,-7.35,1729476124620.0,0.0
-0.68674,-11.014162,-8.334201,-10.08,-11.76,-2.52,1729476124641.0,0.0
-1.622334,-8.281559,-6.295516,25.48,16.030001,-1.68,1729476124664.0,0.0
-2.304288,-6.034698,-3.833302,72.940002,21.98,0.91,1729476124680.0,0.0
-2.301895,-5.754738,-2.18704,95.059998,-10.57,13.02,1729476124701.0,0.0
-3.014957,-6.783652,-2.158326,39.41,-21.210001,11.41,1729476124723.0,0.0
-4.627719,-8.798409,-2.962314,-50.330002,-24.290001,1.33,1729476124740.0,0.0
-4.642076,-9.389436,-6.558727,-93.029999,-28.98,-2.87,1729476124761.0,0.0
-3.249453,-8.044669,-4.532006,-71.050003,-29.190001,2.87,1729476124781.0,0.0
-3.749553,-6.484549,-3.792624,-48.02,-14.14,12.18,1729476124802.0,0.0
-4.996214,-7.73121,-6.171089,-75.040001,-14.14,15.54,1729476124821.0,0.0
-5.185246,-8.073383,-5.367101,-109.129997,-13.93,8.05,1729476124842.0,0.0
-4.098906,-9.174082,-5.592027,-40.529999,-26.950001,16.52,1729476124862.0,0.0
-3.407379,-9.573684,-5.919843,29.4,-22.33,15.89,1729476124882.0,0.0
-4.704289,-9.178867,-4.26401,40.18,-6.23,10.01,1729476124903.0,0.0
-4.768896,-7.238289,-4.070191,27.65,-5.25,3.57,1729476124922.0,0.0
-3.321238,-7.116255,-3.378666,-18.41,-27.299999,0.91,1729476124942.0,0.0
-2.706282,-7.204789,-4.287938,-56.139999,-36.049999,-3.01,1729476124963.0,0.0
-3.900301,-8.729016,-6.216553,-77.07,-36.68,-9.52,1729476124982.0,0.0
-5.223531,-8.420342,-8.750552,-80.639999,-26.530001,-18.059999,1729476125013.0,0.0
-5.60399,-7.41775,-10.301102,-58.170002,-19.040001,-19.460001,1729476125022.0,0.0
-4.934,-6.192625,-9.963714,-11.2,10.01,-12.25,1729476125041.0,0.0
-4.067799,-5.915058,-8.441878,15.05,29.82,-1.19,1729476125062.0,0.0
-3.759124,-6.965507,-8.001599,19.74,44.869999,3.85,1729476125088.0,0.0
-3.668197,-7.611568,-6.293124,23.379999,59.5,3.57,1729476125103.0,0.0
-3.151347,-6.491727,-4.211368,33.810001,56.0,4.34,1729476125122.0,0.0
-2.498107,-6.630512,-0.758525,13.3,46.41,-0.7,1729476125142.0,0.0
-3.141776,-7.757531,1.246661,-7.14,22.120001,-0.28,1729476125162.0,0.0
-4.577469,-9.664611,-0.557528,-16.17,-7.14,-14.77,1729476125182.0,0.0
-4.615755,-8.281559,-2.696711,-19.879999,-42.84,-27.440001,1729476125203.0,0.0
-3.835695,-9.138189,-3.572484,-17.85,-75.459999,-35.630001,1729476125222.0,0.0
-3.76391,-3.354738,-6.391229,-73.639999,-65.099998,-37.869999,1729476125242.0,0.0
-6.049056,-8.090133,-11.629118,-89.389999,-77.07,-32.830002,1729476125262.0,0.0
-5.84088,-7.45125,-12.796815,-24.360001,1.12,-10.85,1729476125282.0,0.0
-3.034099,-6.65444,-10.370493,53.060001,12.25,-0.77,1729476125302.0,0.0
-2.62732,-5.694918,-7.042077,48.16,50.049999,3.29,1729476125321.0,0.0
-3.34038,-5.936593,-6.740582,38.57,57.889999,7.49,1729476125342.0,0.0
-3.235096,-6.477371,-4.354938,21.280001,62.16,9.94,1729476125362.0,0.0
-2.533999,-6.113662,-1.95015,21.77,45.709999,12.95,1729476125382.0,0.0
-2.251646,-5.788238,-0.528814,-5.95,27.299999,11.97,1729476125403.0,0.0
-3.481557,-8.666803,-2.050649,-12.39,-4.76,8.82,1729476125421.0,0.0
-5.493921,-11.765509,-3.598805,37.52,-21.280001,-6.86,1729476125441.0,0.0
-6.175875,-8.662018,-0.165105,39.759998,-43.119999,-27.02,1729476125462.0,0.0
-3.917051,-4.993821,-5.307281,12.46,-89.809998,-28.77,1729476125482.0,0.0
-3.352344,-9.116654,-9.305687,-46.41,-96.459999,-33.740002,1729476125503.0,0.0
-5.206782,-8.779266,-13.42852,-76.510002,-29.120001,-33.25,1729476125521.0,0.0
-5.182854,-7.695317,-12.13161,-14.49,10.22,-12.39,1729476125541.0,0.0
-3.302095,-5.998806,-9.293723,46.41,36.889999,1.61,1729476125563.0,0.0
-2.816352,-5.101498,-6.412765,71.330002,55.439999,12.81,1729476125581.0,0.0
-3.35713,-6.999006,-4.371687,14.42,68.879997,9.87,1729476125602.0,0.0
-2.56032,-7.523034,-3.06042,18.059999,46.060001,12.04,1729476125622.0,0.0
-1.562513,-6.405586,-1.505085,24.219999,31.01,12.04,1729476125641.0,0.0
-2.574677,-8.073383,-0.799203,22.26,11.83,11.62,1729476125664.0,0.0
-4.991428,-10.360922,-2.624927,46.900002,-1.33,2.66,1729476125681.0,0.0
-6.202196,-9.274581,-1.404587,25.83,-29.26,-19.389999,1729476125703.0,0.0
-4.419543,-6.025128,-2.85703,-26.110001,-69.93,-29.33,1729476125720.0,0.0
-2.316252,-6.860222,-8.860621,-85.330002,-98.699997,-25.690001,1729476125741.0,0.0
-4.37408,-9.683753,-9.726824,-115.360001,-49.98,-32.549999,1729476125762.0,0.0
-5.443672,-7.759924,-12.136396,-66.709999,-4.48,-20.860001,1729476125781.0,0.0
-3.321238,-5.948557,-10.597812,4.06,17.780001,-2.31,1729476125804.0,0.0
-1.945365,-6.288338,-7.549356,77.07,45.43,19.18,1729476125821.0,0.0
-2.691926,-6.173482,-5.771489,112.209999,65.099998,28.98,1729476125843.0,0.0
-3.751946,-6.379266,-4.532006,76.860001,67.199997,22.4,1729476125861.0,0.0
-3.103491,-7.664211,-2.847459,43.189999,48.790001,23.24,1729476125882.0,0.0
-2.218147,-7.860423,-2.313859,15.96,33.670002,14.28,1729476125903.0,0.0
-3.61077,-9.47797,-1.749153,-5.88,15.05,9.1,1729476125921.0,0.0
-5.410172,-11.45205,-2.467,34.16,-7.56,-9.1,1729476125941.0,0.0
-5.869594,-8.91805,-0.07657,25.76,-30.17,-30.030001,1729476125962.0,0.0
-4.041477,-5.754738,-1.878366,-0.63,-71.889999,-31.57,1729476125982.0,0.0
-2.395216,-7.039684,-8.508877,-54.740002,-94.220001,-32.689999,1729476126003.0,0.0
-3.864408,-8.449057,-10.267602,-103.879997,-45.57,-32.27,1729476126021.0,0.0
-4.642076,-8.762517,-11.270195,-62.02,-9.59,-15.89,1729476126041.0,0.0
-2.969493,-6.168696,-9.35833,-0.77,17.01,-3.57,1729476126062.0,0.0
-2.400001,-5.79063,-6.702296,72.519997,44.170002,17.5,1729476126082.0,0.0
-3.335595,-6.446264,-5.13739,92.68,61.810001,24.92,1729476126105.0,0.0
-3.598805,-6.630512,-3.476771,53.689999,59.779999,20.370001,1729476126120.0,0.0
-2.809174,-7.513463,-1.926222,28.77,35.420002,22.469999,1729476126142.0,0.0
-2.464607,-7.415358,-1.974079,1.33,23.379999,15.68,1729476126162.0,0.0
-3.079563,-8.975478,-1.942972,-21.91,3.92,10.99,1729476126181.0,0.0
-4.886144,-11.75833,-3.661019,2.94,-10.01,-1.82,1729476126202.0,0.0
-6.082555,-9.348758,-0.543171,6.86,-25.9,-22.049999,1729476126221.0,0.0
-4.208975,-6.831509,-1.61037,3.29,-71.120003,-24.92,1729476126241.0,0.0
-3.206382,-8.992228,-7.903493,-50.049999,-96.459999,-32.200001,1729476126262.0,0.0
-4.835894,-9.702895,-11.947363,-83.160004,-20.23,-27.58,1729476126282.0,0.0
-3.548556,-7.690532,-10.640882,-32.900002,12.25,-10.22,1729476126302.0,0.0
-1.95015,-6.515656,-7.283752,27.440001,31.99,5.46,1729476126321.0,0.0
-2.656033,-5.563312,-6.111269,47.389999,55.650002,12.39,1729476126341.0,0.0
-4.051049,-6.726225,-5.022535,32.759998,58.869999,13.58,1729476126362.0,0.0
-3.735196,-8.288737,-3.876373,9.66,51.380001,11.62,1729476126382.0,0.0
-2.292324,-7.652246,-3.180061,-7.77,36.68,6.23,1729476126402.0,0.0
-1.552942,-8.212167,-1.624727,-15.33,23.24,5.74,1729476126421.0,0.0
-3.393023,-9.717253,-1.806581,14.28,13.58,7.28,1729476126440.0,0.0
-5.048856,-10.403993,-1.194018,52.709999,-2.1,-4.62,1729476126462.0,0.0
-4.65404,-8.82473,-2.419144,33.880001,-31.219999,-19.809999,1729476126481.0,0.0
-3.866802,-7.013363,-1.698904,-16.940001,-62.369999,-28.700001,1729476126503.0,0.0
-3.017349,-6.948757,-4.26401,-51.939999,-86.309998,-27.370001,1729476126521.0,0.0
-2.63689,-8.970692,-9.817751,-78.470001,-84.209999,-29.33,1729476126541.0,0.0
-3.692125,-8.52802,-11.217552,-94.989998,-37.73,-29.68,1729476126561.0,0.0
-2.866602,-6.046663,-10.109675,-42.209999,-10.99,-17.780001,1729476126581.0,0.0
-2.26361,-4.692325,-7.046863,29.049999,12.04,7.84,1729476126601.0,0.0
-3.680161,-5.575277,-5.800202,51.029999,46.549999,26.6,1729476126620.0,0.0
-4.955536,-6.881758,-5.07757,7.56,47.18,23.379999,1729476126642.0,0.0
-3.570091,-8.051848,-3.321238,-11.2,27.299999,20.860001,1729476126664.0,0.0
-1.880759,-8.532805,-3.414558,0.56,13.93,18.34,1729476126681.0,0.0
-2.361716,-9.413363,-3.046063,10.92,17.290001,14.35,1729476126703.0,0.0
-4.445865,-9.674182,-1.916651,7.77,10.92,4.13,1729476126720.0,0.0
-5.364708,-9.602397,-2.522035,6.09,-15.75,-9.87,1729476126740.0,0.0
-4.711468,-8.987441,-3.215954,-3.08,-43.400002,-26.18,1729476126761.0,0.0
-3.503092,-6.759724,-6.233303,-28.630001,-57.82,-35.98,1729476126781.0,0.0
-2.258825,-6.865008,-8.95155,-51.73,-57.400002,-31.780001,1729476126803.0,0.0
-2.005185,-6.589834,-9.365508,-45.709999,-26.040001,-12.6,1729476126821.0,0.0
-3.120241,-7.264609,-8.197811,-1.96,4.83,8.61,1729476126841.0,0.0
-4.788038,-6.597012,-5.991628,-5.53,32.549999,12.67,1729476126861.0,0.0
-5.295317,-6.632904,-5.345565,-14.07,27.02,11.41,1729476126881.0,0.0
-4.718646,-6.623333,-7.020542,-26.6,15.82,10.15,1729476126903.0,0.0
-4.532006,-7.300502,-8.212167,-39.41,25.48,10.01,1729476126920.0,0.0
-2.557927,-9.958927,-4.108476,-16.66,40.25,15.89,1729476126942.0,0.0
-1.921437,-8.755339,0.437887,19.389999,37.240002,14.14,1729476126961.0,0.0
-2.938386,-7.467999,-0.248854,60.060001,11.97,17.290001,1729476126982.0,0.0
-3.87398,-7.982457,-2.323431,26.880001,-13.58,6.44,1729476127012.0,0.0
-3.931407,-7.812566,-4.996214,-13.23,-35.77,1.05,1729476127020.0,0.0
-3.347559,-9.363115,-7.362715,-23.309999,-54.25,-10.01,1729476127040.0,0.0
-3.270989,-8.752945,-7.992027,-25.549999,-52.990002,-21.84,1729476127061.0,0.0
-4.398008,-5.726025,-7.300502,-20.790001,-30.309999,-21.07,1729476127081.0,0.0
-3.309274,-5.656632,-9.667004,-11.83,-37.029999,-8.68,1729476127101.0,0.0
-4.366901,-8.88455,-10.691131,-4.2,3.43,-2.52,1729476127170.0,0.0
-4.639683,-7.379465,-9.571291,16.870001,40.740002,1.82,1729476127172.0,0.0
-3.728018,-6.058627,-7.554141,23.450001,49.420002,7.14,1729476127174.0,0.0
-4.065405,-6.407979,-7.460821,9.87,62.16,2.24,1729476127196.0,0.0
-3.68734,-7.001399,-3.074777,-13.23,60.48,5.11,1729476127201.0,0.0
-4.144369,-8.719445,-4.393222,-6.44,45.360001,-2.45,1729476127220.0,0.0
-3.87398,-9.164511,-5.469993,25.41,32.549999,-8.19,1729476127241.0,0.0
-2.569891,-8.575876,-6.905686,17.99,24.710001,-16.799999,1729476127261.0,0.0
-2.766103,-5.781059,-6.06102,-26.530001,38.849998,-11.76,1729476127283.0,0.0
-1.07677,-7.625926,-6.936793,-29.190001,32.689999,-11.55,1729476127302.0,0.0
-0.37328,-6.503692,0.729811,11.97,25.34,-3.15,1729476127321.0,0.0
-2.644069,-6.788438,0.138784,89.739998,19.6,11.2,1729476127340.0,0.0
-3.553342,-5.639884,0.241675,90.160004,-14.56,15.12,1729476127362.0,0.0
-4.285545,-5.309673,-2.912065,18.690001,-34.580002,20.790001,1729476127382.0,0.0
-4.68754,-6.508478,-6.850651,-76.580002,-31.92,17.57,1729476127401.0,0.0
-2.395216,-8.056634,-7.932207,-81.340004,-44.099998,25.620001,1729476127421.0,0.0
-1.050449,-8.729016,-7.580462,-17.01,-50.259998,37.66,1729476127440.0,0.0
-2.086541,-8.657232,-6.30748,62.580002,-13.65,38.779999,1729476127461.0,0.0
-4.369294,-7.91785,-6.240481,75.389999,2.31,29.33,1729476127482.0,0.0
-5.465207,-7.197611,-5.718846,15.82,-16.66,15.26,1729476127501.0,0.0
-5.02732,-9.092726,-7.300502,-13.79,-30.52,3.15,1729476127520.0,0.0
-5.632704,-8.68116,-7.984849,-42.98,-17.43,-8.12,1729476127541.0,0.0
-6.553941,-9.600004,-8.535198,12.6,5.81,-11.62,1729476127562.0,0.0
-5.922236,-7.307681,-6.766902,21.77,23.52,-10.01,1729476127581.0,0.0
-4.041477,-7.094719,-4.309474,12.74,32.759998,-4.55,1729476127602.0,0.0
-2.986243,-8.262416,-3.615555,25.620001,36.330002,-1.61,1729476127620.0,0.0
-1.835295,-9.006584,-3.046063,82.32,19.950001,6.72,1729476127640.0,0.0
-1.210768,-9.327222,-5.225924,105.699997,10.78,-3.15,1729476127665.0,0.0
-1.426122,-5.489135,-0.143569,72.519997,15.61,-3.22,1729476127681.0,0.0
-2.782853,-5.675776,-2.132005,37.73,3.36,1.68,1729476127702.0,0.0
-3.488736,-7.879565,-3.613162,-9.38,-19.18,-0.63,1729476127726.0,0.0
-3.378666,-10.133603,-6.240481,2.1,-34.369999,-5.6,1729476127739.0,0.0
-3.041277,-8.62134,-6.503692,3.78,-38.009998,-10.57,1729476127761.0,0.0
-3.986443,-6.479764,-10.152746,-18.41,-32.759998,-12.6,1729476127781.0,0.0
-5.553742,-10.772489,-8.898908,-56.420002,-10.08,-18.690001,1729476127801.0,0.0
-4.87418,-8.197811,-4.716253,-35.490002,36.049999,-25.34,1729476127872.0,0.0
-3.558127,-7.066005,-3.960121,60.619999,49.84,-18.059999,1729476127907.0,0.0
-2.426322,-6.163911,-0.071785,-4.13,42.560001,-21.629999,1729476127989.0,0.0
-3.85723,-6.530013,-2.230111,-27.299999,34.790001,-12.53,1729476127989.0,0.0
-2.603391,-9.51147,-2.756532,-33.740002,11.62,-17.780001,1729476127989.0,0.0
-1.674976,-8.353344,-1.225125,-15.26,-22.33,-17.15,1729476127990.0,0.0
-3.069991,-6.269196,-3.943372,38.360001,-14.98,-17.01,1729476127990.0,0.0
-3.366701,-5.175675,-4.737789,-12.53,-27.58,-9.31,1729476127990.0,0.0
-3.208775,-7.523034,-4.974678,-34.790001,-38.5,-6.23,1729476127999.0,0.0
-2.727818,-9.762716,-5.728417,-18.83,-46.830002,-8.96,1729476128020.0,0.0
-2.785245,-9.052048,-5.644669,16.1,-49.700001,-10.01,1729476128040.0,0.0
-3.63709,-7.226324,-4.098906,25.83,-32.549999,-4.48,1729476128060.0,0.0
-4.09412,-6.166305,-3.148954,-10.71,-27.02,-3.78,1729476128080.0,0.0
-3.948158,-6.728617,-3.562913,-49.700001,-36.330002,-0.07,1729476128103.0,0.0
-3.838088,-8.281559,-4.479364,-68.18,-45.080002,2.17,1729476128120.0,0.0
-3.914658,-8.898908,-4.768896,-75.25,-46.130001,0.77,1729476128140.0,0.0
-3.76391,-9.068797,-4.9675,-62.369999,-41.720001,0.49,1729476128160.0,0.0
-4.118048,-8.695518,-5.692525,-44.939999,-37.59,3.01,1729476128180.0,0.0
-4.316652,-8.463413,-5.541777,-34.299999,-29.120001,-0.7,1729476128201.0,0.0
-4.101298,-7.542177,-7.264609,-54.529999,-32.48,-11.69,1729476128220.0,0.0
-3.617948,-8.109276,-6.396015,-75.809998,-41.23,-13.02,1729476128240.0,0.0
-3.469593,-8.882158,-5.95095,-45.709999,-31.290001,-13.02,1729476128261.0,0.0
-3.553342,-7.563712,-6.096912,42.0,-25.76,-14.07,1729476128279.0,0.0
-3.835695,-6.52762,-5.266603,6.86,-13.65,-9.1,1729476128301.0,0.0
-4.175476,-7.092326,-6.85783,-31.08,-14.49,-7.0,1729476128319.0,0.0
-4.220939,-8.60459,-6.063413,-19.530001,-16.66,-3.5,1729476128341.0,0.0
-4.232903,-8.559127,-5.096712,15.26,-19.809999,-2.52,1729476128360.0,0.0
-4.017549,-7.147361,-5.051248,32.48,-21.77,-7.14,1729476128380.0,0.0
-3.809374,-5.771489,-6.412765,-4.69,-19.18,-10.78,1729476128402.0,0.0
-3.584448,-7.245467,-6.814759,-36.470001,-23.870001,-10.99,1729476128419.0,0.0
-3.201597,-8.676375,-5.958128,-32.27,-23.17,-9.8,1729476128441.0,0.0
-2.974278,-7.652246,-4.756931,11.2,-13.65,-8.12,1729476128461.0,0.0
-3.125026,-6.652047,-4.888536,50.119999,-10.5,-6.09,1729476128480.0,0.0
-3.510271,-6.262017,-4.740182,23.66,-9.66,-5.6,1729476128503.0,0.0
-3.498307,-6.611369,-5.407779,-17.15,-11.48,-6.72,1729476128520.0,0.0
-3.160919,-7.133004,-5.845665,-36.959999,-18.200001,-3.22,1729476128539.0,0.0
-3.038885,-7.176075,-6.321837,-41.16,-10.85,-2.31,1729476128560.0,0.0
-3.29731,-7.178468,-6.403193,-38.5,-0.28,-1.26,1729476128580.0,0.0
-3.517449,-7.491928,-6.4343,-34.650002,3.99,0.91,1729476128611.0,0.0
-3.292524,-7.066005,-6.003592,-17.5,5.11,5.67,1729476128620.0,0.0
-3.436093,-6.707082,-5.678168,-8.82,7.14,9.94,1729476128639.0,0.0
-3.706482,-6.932007,-5.869594,-15.96,9.1,9.59,1729476128664.0,0.0
-3.85723,-7.322037,-6.199803,-29.960001,11.41,7.91,1729476128680.0,0.0
-3.625126,-7.362715,-6.242875,-29.26,9.66,8.05,1729476128701.0,0.0
-3.888337,-6.553941,-5.273781,-17.290001,10.92,12.67,1729476128720.0,0.0
-4.366901,-6.580262,-5.489135,-25.83,10.29,9.73,1729476128739.0,0.0
-4.689932,-7.429714,-5.532206,-49.84,8.82,6.44,1729476128761.0,0.0
-4.622933,-6.635297,-5.489135,-56.279999,1.05,5.25,1729476128779.0,0.0
-4.804788,-6.123233,-5.943772,-62.860001,-3.22,8.47,1729476128802.0,0.0
-4.900501,-6.374479,-6.065805,-87.010002,-4.27,5.74,1729476128820.0,0.0
-4.867002,-7.034898,-6.355337,-84.629997,-3.92,4.48,1729476128839.0,0.0
-5.015356,-6.766902,-6.809973,-54.880001,-2.38,2.94,1729476128861.0,0.0
-5.362316,-6.343372,-6.955935,-26.6,3.43,1.96,1729476128879.0,0.0
-5.666204,-6.197411,-6.644868,-10.85,9.52,1.33,1729476128903.0,0.0
-5.881558,-6.302694,-6.092126,-1.33,12.04,-0.49,1729476128920.0,0.0
-5.515456,-6.072984,-6.613762,8.4,7.14,-3.78,1729476128939.0,0.0
-5.465207,-6.455836,-6.994221,10.22,1.4,-6.09,1729476128960.0,0.0
-5.601598,-6.482157,-7.085148,9.8,5.32,-11.13,1729476128981.0,0.0
-5.134997,-6.197411,-6.915257,21.139999,3.85,-11.97,1729476129001.0,0.0
-4.278367,-5.565705,-6.79083,35.700001,-3.43,-8.54,1729476129019.0,0.0
-3.830909,-5.455636,-6.826723,23.52,-6.02,-7.21,1729476129040.0,0.0
-4.012764,-6.381658,-7.298109,2.45,-1.61,-7.49,1729476129059.0,0.0
-4.182654,-6.774081,-7.331609,-5.88,1.26,-7.28,1729476129079.0,0.0
-3.943372,-6.608976,-7.188039,-2.03,1.68,-9.59,1729476129102.0,0.0
-3.725625,-6.465407,-7.037291,12.32,3.99,-9.94,1729476129120.0,0.0
-3.684947,-6.329016,-7.293324,28.139999,7.21,-10.15,1729476129138.0,0.0
-4.065405,-6.058627,-7.65464,40.459999,12.53,-8.54,1729476129161.0,0.0
-4.26401,-5.726025,-7.530212,40.529999,14.91,-4.76,1729476129179.0,0.0
-4.084548,-5.651847,-7.161718,32.549999,16.940001,-1.68,1729476129200.0,0.0
-3.766303,-6.013163,-6.716653,25.549999,17.92,-0.63,1729476129221.0,0.0
-3.718446,-6.496514,-6.549156,27.719999,20.860001,-0.84,1729476129239.0,0.0
-3.723232,-6.687939,-7.233503,35.630001,23.799999,-0.14,1729476129261.0,0.0
-3.701697,-6.431907,-6.309873,39.060001,21.139999,3.5,1729476129280.0,0.0
-3.969693,-6.460621,-5.69731,18.620001,23.66,7.98,1729476129300.0,0.0
-3.524628,-7.001399,-6.087341,-1.96,18.549999,6.44,1729476129319.0,0.0
-3.089134,-7.188039,-6.783652,4.34,15.61,7.21,1729476129339.0,0.0
-3.172883,-6.812366,-6.592227,27.790001,20.719999,10.5,1729476129359.0,0.0
-3.830909,-6.084948,-5.309673,29.049999,24.85,12.46,1729476129379.0,0.0
-3.876373,-5.020142,-4.565506,-2.87,11.2,14.49,1729476129400.0,0.0
-4.45065,-5.228317,-3.383451,-21.07,-3.92,23.73,1729476129420.0,0.0
-5.898308,-5.680561,-6.630512,-31.5,-5.04,24.780001,1729476129438.0,0.0
-7.01097,-6.568298,-8.018349,-69.300003,2.38,26.460001,1729476129461.0,0.0
-7.329216,-7.798209,-7.618747,-115.989998,10.5,20.299999,1729476129479.0,0.0
-5.910272,-7.965706,-9.083155,-111.300003,9.24,13.16,1729476129500.0,0.0
-4.409972,-8.183454,-8.195417,-39.549999,30.24,13.72,1729476129519.0,0.0
-3.089134,-7.144968,-6.695118,25.34,38.639999,17.08,1729476129540.0,0.0
-2.165504,-5.71406,-6.814759,39.759998,40.459999,21.42,1729476129560.0,0.0
-1.215554,-6.343372,-4.584648,35.98,35.209999,24.5,1729476129580.0,0.0
-1.09352,-4.969893,-2.340181,18.620001,28.280001,26.67,1729476129601.0,0.0
-2.218147,-9.343972,-2.177469,35.420002,-0.49,19.110001,1729476129620.0,0.0
-4.63729,-8.422735,-3.232704,35.0,-31.360001,-8.54,1729476129639.0,0.0
-4.677969,-6.034698,-6.257231,14.42,-67.550003,-20.719999,1729476129662.0,0.0
-3.168097,-3.787838,-11.777473,-49.560001,-102.690002,-19.950001,1729476129679.0,0.0
-4.773681,-3.725625,-13.58166,-135.800003,-59.57,-11.2,1729476129700.0,0.0
-6.800402,-5.754738,-10.368099,-171.639999,-2.66,-2.8,1729476129718.0,0.0
-6.446264,-6.67119,-8.506484,-97.440002,4.41,9.24,1729476129739.0,0.0
-5.094319,-5.359922,-9.195618,28.07,5.81,20.51,1729476129761.0,0.0
-5.479564,-4.41715,-8.159525,32.549999,26.950001,19.25,1729476129779.0,0.0
-6.508478,-5.465207,-7.276574,-10.5,47.32,15.96,1729476129802.0,0.0
-4.663611,-7.056434,-7.293324,-8.12,37.450001,15.89,1729476129819.0,0.0
-1.964507,-7.922636,-8.183454,49.98,28.77,9.45,1729476129840.0,0.0
-1.629512,-7.9011,-6.4678,112.209999,31.92,4.97,1729476129859.0,0.0
-2.986243,-8.532805,-6.005985,140.699997,47.389999,-3.99,1729476129879.0,0.0
-3.290131,-6.496514,-4.118048,80.709999,37.73,-16.24,1729476129903.0,0.0
-2.921637,-6.932007,-3.457629,-0.42,20.719999,-24.290001,1729476129919.0,0.0
-3.089134,-6.525227,-3.921836,-25.83,0.91,-22.540001,1729476129939.0,0.0
-3.799802,-2.522035,-2.98385,-3.57,-2.17,-1.4,1729476129959.0,0.0
-3.646662,-5.07757,-5.039285,53.48,-9.87,17.710001,1729476129980.0,0.0
-3.809374,-9.181261,-3.589234,128.660004,-22.190001,37.73,1729476130001.0,0.0
-4.733003,-11.492726,-2.500499,144.199997,-23.450001,25.969999,1729476130020.0,0.0
-5.675776,-8.640482,-5.201996,97.440002,-50.049999,10.78,1729476130039.0,0.0
-4.369294,-7.601997,-12.210573,127.959999,-61.18,14.84,1729476130060.0,0.0
-3.531806,-9.810574,-12.540783,221.479996,-31.360001,36.119999,1729476130080.0,0.0
-3.773481,-10.439885,-9.32483,276.149994,34.720001,24.01,1729476130101.0,0.0
-5.443672,-7.073184,-6.525227,292.600006,76.93,18.34,1729476130119.0,0.0
-5.826523,-8.518449,-3.9673,361.76001,66.220001,16.17,1729476130138.0,0.0
-5.029713,-9.166903,-1.70369,368.76001,39.689999,-2.38,1729476130159.0,0.0
-4.21376,-8.590233,-1.665405,365.049988,43.75,-8.54,1729476130179.0,0.0
-4.419543,-9.006584,-0.294317,374.850006,47.32,-16.1,1729476130199.0,0.0
-4.273581,-10.255639,-2.254039,385.350006,41.509998,-38.43,1729476130220.0,0.0
-4.242475,-8.547162,-2.088934,394.309998,65.730003,-38.849998,1729476130239.0,0.0
-4.448257,-6.613762,2.041078,392.070007,84.349998,-32.27,1729476130260.0,0.0
-5.656632,-5.379066,4.345366,350.630005,84.279999,-47.950001,1729476130278.0,0.0
-6.912865,-7.042077,6.269196,287.980011,43.189999,-57.82,1729476130301.0,0.0
-3.751946,-3.579663,5.692525,275.519989,36.400002,-55.369999,1729476130319.0,0.0
-6.326623,-4.508078,5.4676,244.930008,39.27,-40.18,1729476130338.0,0.0
-5.513064,-5.965307,5.216353,182.699997,9.73,-59.639999,1729476130360.0,0.0
-4.855037,-4.733003,6.046663,189.699997,20.23,-43.610001,1729476130380.0,0.0
-4.613362,-1.134198,7.432107,199.990005,22.469999,-33.25,1729476130401.0,0.0
-5.178068,-0.055035,7.922636,138.460007,11.48,-22.75,1729476130419.0,0.0
-4.407579,-3.529413,6.970293,37.939999,-13.86,-22.049999,1729476130439.0,0.0
-4.237689,-4.771288,6.415157,25.969999,-10.92,-12.53,1729476130459.0,0.0
-3.692125,-2.005185,6.470192,57.400002,4.2,3.08,1729476130480.0,0.0
-3.634698,-0.746561,8.274381,44.240002,12.25,17.219999,1729476130501.0,0.0
-3.996014,-3.07717,8.092526,-38.360001,-11.62,13.3,1729476130518.0,0.0
-3.59402,-5.132604,8.367701,-87.709999,-24.290001,23.870001,1729476130539.0,0.0
-3.553342,-6.539584,6.496514,-106.190002,-30.73,19.25,1729476130560.0,0.0
-3.601198,-6.118448,5.735595,-93.379997,-26.460001,20.02,1729476130580.0,0.0
-3.469593,-3.457629,6.719046,-83.300003,-13.79,28.0,1729476130599.0,0.0
-3.981657,-4.711468,7.204789,-126.349998,-15.12,36.82,1729476130618.0,0.0
-4.220939,-6.699903,5.898308,-221.410004,-46.759998,32.060001,1729476130639.0,0.0
-3.553342,-8.169096,4.98425,-214.690002,-49.349998,29.610001,1729476130663.0,0.0
-3.976871,-7.393822,3.897908,-191.940002,-33.459999,30.52,1729476130680.0,0.0
-4.469792,-5.828916,5.642276,-180.529999,-24.08,38.639999,1729476130700.0,0.0
-4.685147,-6.623333,5.836094,-233.940002,-36.330002,38.920002,1729476130719.0,0.0
-4.218546,-8.283953,4.431508,-324.450012,-64.190002,24.99,1729476130738.0,0.0
-2.98385,-10.932807,0.765703,-372.119995,-73.779999,27.719999,1729476130760.0,0.0
-2.378466,-12.351749,0.68674,-374.429993,-55.16,16.24,1729476130778.0,0.0
-4.235296,-10.832308,0.638884,-376.040009,-21.210001,4.48,1729476130799.0,0.0
-5.965307,-10.133603,2.347359,-333.339996,-4.76,-5.95,1729476130818.0,0.0
-5.431707,-11.870793,0.217747,-279.51001,-5.67,-15.47,1729476130840.0,0.0
-4.625326,-12.720245,0.78006,-253.050003,-9.38,-21.280001,1729476130859.0,0.0
-2.54357,-11.827723,-0.260818,-191.729996,-9.87,-30.52,1729476130880.0,0.0
-1.914258,-10.636096,-1.299303,-134.889999,13.72,-24.219999,1729476130900.0,0.0
-2.395216,-10.277173,0.9667,-115.43,21.98,-34.09,1729476130919.0,0.0
-2.122434,-8.372486,-1.627119,-123.900002,8.47,-36.540001,1729476130938.0,0.0
-1.536192,-7.377072,-1.706082,-49.139999,-1.26,-20.16,1729476130959.0,0.0
-2.124826,-6.723832,-3.184847,42.07,1.82,1.89,1729476130980.0,0.0
-3.010171,-7.436893,-2.70389,71.959999,7.56,12.25,1729476130999.0,0.0
-2.790031,-9.729217,-2.600998,97.230003,1.4,19.74,1729476131019.0,0.0
-3.378666,-7.006185,0.334995,95.760002,1.47,22.26,1729476131038.0,0.0
-4.321437,-7.283752,-0.739382,79.099998,2.73,33.18,1729476131059.0,0.0
-4.09412,-6.65444,-0.863809,32.27,-7.49,26.809999,1729476131079.0,0.0
-3.98405,-7.802995,-0.413958,26.67,-15.26,36.75,1729476131100.0,0.0
-5.072784,-7.487142,0.684347,20.719999,-11.13,40.32,1729476131119.0,0.0
-5.206782,-8.733803,1.043271,7.14,-16.309999,36.889999,1729476131138.0,0.0
-6.455836,-9.657433,2.514857,-49.07,-38.290001,35.279999,1729476131158.0,0.0
-7.432107,-8.346166,1.004985,-120.610001,-54.880001,29.26,1729476131178.0,0.0
-6.302694,-6.489335,-3.26381,-163.449997,-64.330002,8.61,1729476131200.0,0.0
-5.749953,-6.281159,-3.227918,-194.809998,-79.029999,-5.46,1729476131218.0,0.0
-5.314459,-5.036892,-7.365108,-234.080002,-76.650002,-11.55,1729476131238.0,0.0
-5.381458,-6.324231,-8.805587,-196.630005,-61.529999,-8.82,1729476131259.0,0.0
-5.295317,-6.374479,-7.9011,-168.910004,-56.420002,-10.64,1729476131279.0,0.0
-4.981857,-6.951149,-8.233703,-122.919998,-38.57,-5.32,1729476131299.0,0.0
-4.515256,-7.704889,-8.748159,-99.050003,-33.110001,-4.2,1729476131319.0,0.0
-3.76391,-9.21476,-8.609376,-82.040001,-28.98,-6.51,1729476131338.0,0.0
-3.713661,-8.329416,-5.089533,-87.080002,-15.75,-3.92,1729476131358.0,0.0
-4.414758,-5.498707,-6.149554,-131.669998,-4.62,-13.65,1729476131379.0,0.0
-4.23051,-9.571291,-7.685746,-117.809998,-15.33,-10.85,1729476131399.0,0.0
-3.012564,-7.989635,-8.626125,-86.099998,-6.3,-10.36,1729476131418.0,0.0
-4.046263,-6.862615,-7.01097,-1.05,20.370001,3.01,1729476131438.0,0.0
-5.206782,-8.492127,-5.422136,9.66,35.139999,-7.14,1729476131458.0,0.0
-5.95095,-7.683353,-7.054041,74.199997,38.849998,-1.12,1729476131479.0,0.0
-4.850252,-7.779066,-7.587641,113.050003,31.85,-2.66,1729476131499.0,0.0
-4.505685,-6.262017,-4.704289,89.32,52.220001,-7.84,1729476131518.0,0.0
-4.68754,-6.178268,-4.319045,55.299999,47.670002,-8.4,1729476131540.0,0.0
-4.505685,-5.927022,-5.376673,26.110001,41.790001,-4.9,1729476131559.0,0.0
-4.316652,-6.132804,-5.424529,15.54,43.540001,1.75,1729476131578.0,0.0
-4.280759,-6.355337,-4.883751,-2.03,44.59,5.04,1729476131600.0,0.0
-3.98405,-6.865008,-5.312066,-22.049999,38.990002,4.83,1729476131619.0,0.0
-3.07717,-6.896115,-5.843273,-13.16,28.210001,1.68,1729476131639.0,0.0
-2.70389,-7.305287,-6.403193,-0.49,23.379999,4.76,1729476131663.0,0.0
-3.60359,-8.439486,-6.314659,-17.85,38.080002,-1.26,1729476131678.0,0.0
-4.108476,-9.363115,-5.056034,-11.9,42.0,-4.06,1729476131699.0,0.0
-3.218346,-6.991827,-4.204189,2.87,26.389999,-9.66,1729476131718.0,0.0
-2.816352,-6.195018,-4.922036,-6.44,13.86,-8.19,1729476131738.0,0.0
-3.388237,-7.456036,-5.678168,-36.610001,19.809999,-9.66,1729476131758.0,0.0
-3.718446,-8.839087,-6.329016,-28.35,17.639999,-7.28,1729476131780.0,0.0
-3.421736,-8.279166,-5.649454,0.7,14.07,-7.42,1729476131800.0,0.0
-3.354738,-7.319644,-5.381458,21.559999,17.5,-7.14,1729476131819.0,0.0
-4.106083,-8.008778,-4.438686,16.870001,21.91,-7.21,1729476131838.0,0.0
-3.893122,-7.908278,-4.630112,20.16,10.43,-7.42,1729476131860.0,0.0
-3.835695,-6.798009,-3.78066,26.880001,3.5,-2.17,1729476131879.0,0.0
-4.036692,-5.883951,-3.974478,16.24,3.29,-1.19,1729476131900.0,0.0
-3.361916,-7.039684,-3.936193,30.24,-2.59,7.21,1729476131918.0,0.0
-2.842674,-9.140583,-4.098906,100.099998,-21.77,22.68,1729476131938.0,0.0
-3.842873,-11.090734,-2.199004,137.619995,-18.76,14.84,1729476131960.0,0.0
-4.481757,-8.848659,-3.156133,91.139999,-32.900002,-0.14,1729476131978.0,0.0
-3.926622,-7.858029,-7.525427,84.629997,-53.900002,3.36,1729476132000.0,0.0
-2.833102,-9.078369,-9.71486,142.589996,-46.619999,16.59,1729476132018.0,0.0
-2.720639,-10.387242,-10.566705,231.630005,6.58,27.93,1729476132038.0,0.0
-4.321437,-10.15514,-6.029913,295.190002,70.139999,23.52,1729476132059.0,0.0
-5.98445,-7.329216,-5.319244,305.549988,80.57,17.01,1729476132079.0,0.0
-5.230711,-9.329616,-1.986043,314.579987,62.650002,1.4,1729476132100.0,0.0
-3.885944,-9.092726,-0.842274,270.339996,42.139999,-8.26,1729476132180.0,0.0
-3.022135,-8.930015,0.736989,276.640015,29.190001,-18.549999,1729476132181.0,0.0
-3.471986,-9.590433,1.605584,294.209991,35.98,-27.02,1729476132181.0,0.0
-3.211168,-9.415757,-1.014557,303.799988,38.360001,-42.279999,1729476132181.0,0.0
-3.275774,-10.858629,-0.028714,308.910004,49.0,-50.119999,1729476132199.0,0.0
-4.244867,-8.831908,2.59382,292.880005,65.940002,-52.150002,1729476132219.0,0.0
-4.491328,-6.171089,3.129812,321.51001,66.989998,-46.130001,1729476132238.0,0.0
-5.094319,-5.505885,7.003791,342.790009,52.009998,-50.82,1729476132258.0,0.0
-4.304688,-3.751946,5.599205,288.959991,31.5,-54.389999,1729476132278.0,0.0
-5.45085,-5.795416,6.056234,228.339996,24.639999,-44.73,1729476132299.0,0.0
-4.366901,-5.721239,5.438886,204.960007,12.39,-45.009998,1729476132318.0,0.0
-4.297509,-1.787439,7.073184,241.220001,35.560001,-37.73,1729476132344.0,0.0
-4.539185,0.866202,8.965906,177.100006,29.33,-28.42,1729476132360.0,0.0
-4.922036,-2.624927,7.733603,61.18,-4.13,-12.81,1729476132379.0,0.0
-3.249453,-4.491328,6.793223,12.32,-11.2,-4.2,1729476132399.0,0.0
-2.778067,-3.505485,7.659425,23.940001,-1.61,5.74,1729476132418.0,0.0
-2.522035,-2.945565,8.360522,-1.4,-3.08,15.12,1729476132437.0,0.0
-2.476572,-3.735196,8.312666,-63.84,-16.030001,18.129999,1729476132459.0,0.0
-1.933401,-5.314459,6.821937,-109.410004,-26.18,21.700001,1729476132479.0,0.0
-1.801795,-5.328816,5.769095,-125.93,-20.719999,25.9,1729476132499.0,0.0
-2.502892,-4.488935,5.101498,-145.880005,-10.43,31.99,1729476132519.0,0.0
-3.488736,-5.316852,5.046463,-166.600006,-13.440001,36.189999,1729476132538.0,0.0
-3.550949,-6.896115,6.065805,-184.309998,-23.379999,27.299999,1729476132559.0,0.0
-3.823731,-7.345965,5.496314,-213.570007,-31.710001,27.58,1729476132579.0,0.0
-3.505485,-8.353344,4.175476,-247.449997,-45.709999,31.92,1729476132599.0,0.0
-3.125026,-10.078569,2.739782,-293.299988,-61.880001,26.040001,1729476132619.0,0.0
-3.029313,-11.277373,0.918844,-294.559998,-56.0,19.6,1729476132638.0,0.0
-3.517449,-11.349157,0.969093,-287.209991,-31.15,7.98,1729476132662.0,0.0
-4.029513,-12.595818,1.397408,-284.059998,-14.77,-5.32,1729476132680.0,0.0
-4.199404,-12.13161,2.806781,-287.839996,2.03,-21.139999,1729476132702.0,0.0
-4.689932,-11.842079,4.570292,-294.839996,5.74,-32.27,1729476132719.0,0.0
-3.909872,-10.526026,3.859623,-278.179993,-6.16,-41.299999,1729476132740.0,0.0
-1.926222,-9.863215,2.213361,-241.570007,-11.83,-36.540001,1729476132760.0,0.0
-0.985843,-9.499505,1.892723,-198.800003,-15.68,-34.439999,1729476132780.0,0.0
-1.12702,-9.671788,-0.081356,-162.75,-3.64,-29.960001,1729476132802.0,0.0
-1.708475,-8.748159,0.047856,-161.770004,-4.55,-28.559999,1729476132819.0,0.0
-1.438086,-8.69791,-0.806381,-98.209999,-14.98,-12.95,1729476132840.0,0.0
-1.062413,-7.946564,-1.603191,-45.990002,-19.950001,2.38,1729476132861.0,0.0
-2.053042,-7.65464,-2.443072,-18.200001,-15.12,12.88,1729476132880.0,0.0
-2.761317,-8.638089,-3.239882,25.129999,-12.81,25.620001,1729476132900.0,0.0
-2.603391,-8.810372,-3.010171,45.290001,-12.67,27.790001,1729476132919.0,0.0
-2.766103,-8.678767,-3.04367,59.920002,-6.65,28.07,1729476132940.0,0.0
-3.175276,-8.566305,-2.318645,58.59,-1.4,27.02,1729476132960.0,0.0
-3.9338,-8.066205,-1.395016,52.009998,-5.6,28.139999,1729476132980.0,0.0
-4.395615,-8.190632,0.035892,31.710001,-10.15,29.540001,1729476133001.0,0.0
-4.73061,-7.779066,0.035892,-15.12,-17.290001,24.85,1729476133019.0,0.0
-4.278367,-8.980263,-1.545763,-69.230003,-31.639999,13.86,1729476133040.0,0.0
-4.118048,-9.279366,-2.266003,-107.730003,-40.459999,12.32,1729476133064.0,0.0
-4.290331,-9.772287,-3.199204,-111.720001,-42.84,6.93,1729476133080.0,0.0
-4.914857,-10.973484,-2.679961,-98.769997,-47.32,2.66,1729476133100.0,0.0
-4.883751,-9.008978,-4.752146,-91.910004,-47.529999,-10.15,1729476133119.0,0.0
-4.297509,-7.192825,-5.271388,-66.989998,-40.529999,-7.91,1729476133141.0,0.0
-4.510471,-5.515456,-4.62054,-51.59,-32.549999,1.89,1729476133160.0,0.0
-4.644469,-6.317052,-4.402793,-32.689999,-25.76,-2.45,1729476133179.0,0.0
-5.084748,-6.683154,-4.776074,-65.029999,-28.49,-5.6,1729476133201.0,0.0
-4.4339,-7.348359,-6.049056,-86.309998,-32.619999,-10.08,1729476133219.0,0.0
-4.256832,-8.611769,-6.276374,-68.32,-36.259998,-3.5,1729476133239.0,0.0
-4.07737,-7.972885,-5.82413,-76.440002,-34.23,-11.27,1729476133261.0,0.0
-3.881158,-5.694918,-5.099105,-115.360001,-32.130001,-8.68,1729476133280.0,0.0
-3.275774,-9.300901,-6.34098,-101.919998,-46.41,-4.27,1729476133301.0,0.0
-2.751746,-9.573684,-7.886744,-105.840004,-40.040001,-10.99,1729476133319.0,0.0
-3.644269,-8.054241,-7.331609,-43.540001,-2.66,-6.23,1729476133339.0,0.0
-4.503292,-7.645068,-6.74776,-18.690001,6.3,1.12,1729476133360.0,0.0
-4.859823,-8.212167,-6.745367,32.060001,16.450001,3.08,1729476133381.0,0.0
-4.716253,-8.54477,-5.816952,74.129997,22.120001,3.15,1729476133400.0,0.0
-4.393222,-8.587841,-5.28096,71.610001,29.540001,-3.78,1729476133419.0,0.0
-3.981657,-7.525427,-4.955536,60.200001,32.41,-2.59,1729476133438.0,0.0
-3.596412,-6.565905,-4.651647,31.5,32.130001,1.05,1729476133461.0,0.0
-3.701697,-6.477371,-5.07757,-8.61,38.57,4.97,1729476133481.0,0.0
-3.596412,-7.549356,-4.929214,-37.450001,37.73,7.07,1729476133500.0,0.0
-3.168097,-7.613962,-5.211568,-35.279999,32.830002,7.63,1729476133519.0,0.0
-3.192025,-7.702496,-4.426722,-29.68,28.280001,8.47,1729476133540.0,0.0
-2.155933,-8.173882,-5.517848,-7.14,20.58,7.63,1729476133561.0,0.0
-3.352344,-9.085547,-5.505885,-6.16,26.530001,2.17,1729476133580.0,0.0
-4.165904,-9.142976,-4.589434,-21.559999,30.1,-7.21,1729476133602.0,0.0
-3.022135,-7.164111,-4.019942,-18.549999,13.72,-9.66,1729476133619.0,0.0
-2.550749,-6.470192,-4.67079,-32.830002,1.05,-4.97,1729476133640.0,0.0
-3.349952,-8.322237,-5.862415,-70.0,10.29,-7.98,1729476133666.0,0.0
-3.572484,-9.865608,-6.355337,-55.09,14.49,-8.96,1729476133679.0,0.0
-2.830709,-9.590433,-6.106483,-3.08,10.92,-6.65,1729476133700.0,0.0
-2.895315,-8.255238,-4.338188,21.49,19.389999,-9.38,1729476133719.0,0.0
-3.775874,-8.537591,-3.804588,18.200001,23.379999,-9.03,1729476133740.0,0.0
-3.804588,-7.338787,-3.28056,10.5,11.55,-5.67,1729476133761.0,0.0
-3.907479,-6.723832,-3.479164,2.66,5.95,-1.33,1729476133781.0,0.0
-3.409772,-7.367501,-3.378666,14.98,4.9,3.99,1729476133801.0,0.0
-3.036492,-8.532805,-3.20399,69.580002,-13.440001,18.059999,1729476133819.0,0.0
-3.220739,-9.707682,-1.978864,105.279999,-20.440001,20.51,1729476133840.0,0.0
-4.141976,-9.717253,-1.722832,94.989998,-32.759998,9.87,1729476133859.0,0.0
-4.285545,-9.712467,-7.389036,81.269997,-54.529999,10.57,1729476133879.0,0.0
-2.818745,-9.01137,-11.274981,131.180008,-59.150002,15.89,1729476133902.0,0.0
-2.761317,-11.217552,-9.927821,310.100006,14.14,38.990002,1729476133919.0,0.0
-4.031906,-10.985448,-5.905487,374.079987,74.480003,26.74,1729476133939.0,0.0
-5.13739,-8.216952,-4.26401,393.820007,85.82,26.32,1729476133961.0,0.0
-4.838287,-10.439885,-0.495314,430.429993,75.949997,19.879999,1729476133980.0,0.0
-4.278367,-9.535398,1.533799,427.839996,52.639999,-17.08,1729476133999.0,0.0
-3.108276,-11.772687,-0.459422,471.170013,33.950001,-39.48,1729476134020.0,0.0
-2.361716,-12.636496,-3.737589,503.929993,73.639999,-59.360001,1729476134039.0,0.0
-4.773681,-7.350751,-1.596013,514.289978,121.660004,-57.889999,1729476134061.0,0.0
-7.073184,-0.114855,3.538985,532.0,131.25,-67.059998,1729476134080.0,0.0
-7.941778,4.156333,9.243474,473.549988,103.389999,-44.939999,1729476134100.0,0.0
-7.80778,0.81356,10.370493,278.110016,35.139999,-34.860001,1729476134119.0,0.0
-5.498707,-4.098906,7.142576,129.149994,-28.210001,-63.630001,1729476134140.0,0.0
-4.122833,-6.235696,6.546762,133.279999,-25.129999,-52.080002,1729476134160.0,0.0
-4.716253,-2.656033,6.486942,160.300003,-2.45,-34.369999,1729476134179.0,0.0
-5.290531,-1.502693,7.317252,122.150002,-3.08,-27.58,1729476134200.0,0.0
-4.577469,-1.172483,8.037491,73.360001,-4.13,-18.059999,1729476134218.0,0.0
-4.074977,-2.017149,7.582855,33.529999,-7.49,-2.59,1729476134240.0,0.0
-3.498307,-0.198604,8.595018,31.5,-0.07,15.75,1729476134260.0,0.0
-3.440879,-1.658226,8.784052,-24.92,-9.59,22.190001,1729476134279.0,0.0
-2.792424,-3.306881,8.480164,-76.019997,-23.940001,32.900002,1729476134300.0,0.0
-2.591427,-4.421937,6.74776,-117.110001,-40.32,23.870001,1729476134319.0,0.0
-2.799603,-4.539185,6.939186,-126.349998,-37.73,27.23,1729476134340.0,0.0
-2.249253,-3.835695,8.659625,-151.059998,-33.18,34.16,1729476134360.0,0.0
-3.259024,-4.409972,8.085347,-233.729996,-48.790001,44.099998,1729476134387.0,0.0
-3.407379,-4.668397,6.91765,-303.23999,-74.690002,45.849998,1729476134399.0,0.0
-3.172883,-6.173482,5.589634,-319.690002,-84.699997,40.810001,1729476134420.0,0.0
-3.206382,-6.721439,4.663611,-320.880005,-83.580002,29.26,1729476134439.0,0.0
-3.699304,-6.087341,3.852444,-328.369995,-83.300003,36.189999,1729476134459.0,0.0
-3.414558,-6.853044,1.495514,-347.970001,-85.75,43.959999,1729476134479.0,0.0
-2.711068,-7.74796,-1.337588,-410.690002,-75.040001,35.98,1729476134511.0,0.0
-3.510271,-6.233303,0.155533,-496.019989,-65.029999,38.290001,1729476134518.0,0.0
-4.354938,-9.097511,-1.213161,-500.709991,-61.599998,36.259998,1729476134539.0,0.0
-6.223732,-13.60559,-2.304288,-471.799988,-56.349998,-4.62,1729476134560.0,0.0
-4.271189,-13.421343,-3.531806,-344.190002,-56.0,-1.33,1729476134581.0,0.0
-2.775674,-13.021741,-4.914857,-117.110001,-9.45,18.34,1729476134601.0,0.0
-3.294917,-10.762917,-2.883351,0.42,43.189999,8.82,1729476134619.0,0.0
-4.017549,-9.367901,-1.249053,-0.07,66.290001,6.86,1729476134640.0,0.0
-3.388237,-7.822137,-3.34038,-54.110001,50.82,2.17,1729476134662.0,0.0
-1.74676,-11.399406,-2.423929,-72.309998,17.08,7.98,1729476134680.0,0.0
-0.222532,-11.169697,-2.974278,-74.129997,15.05,-2.52,1729476134701.0,0.0
-0.59342,-7.987241,-4.625326,-30.66,24.92,4.76,1729476134719.0,0.0
-2.359323,-7.606783,-1.95015,26.460001,33.529999,16.24,1729476134739.0,0.0
-3.416951,-7.810174,-0.732204,36.119999,25.620001,18.129999,1729476134760.0,0.0
-2.790031,-9.083155,-1.713261,57.68,7.21,24.219999,1729476134781.0,0.0
-2.194218,-8.142776,-2.37368,77.279999,-1.68,26.74,1729476134801.0,0.0
-2.962314,-8.159525,-1.507478,78.959999,3.5,31.99,1729476134820.0,0.0
-3.929015,-9.781858,-0.993021,43.470001,0.84,26.389999,1729476134840.0,0.0
-4.07737,-10.126426,-1.146162,28.77,-5.25,20.23,1729476134862.0,0.0
-3.964907,-8.468199,-0.894916,25.34,-10.99,18.34,1729476134880.0,0.0
-4.139583,-7.810174,-0.746561,11.06,-17.43,20.23,1729476134901.0,0.0
-4.220939,-7.84128,-1.22034,-14.28,-24.01,14.84,1729476134920.0,0.0
-4.847858,-7.336394,-0.76331,-38.849998,-33.040001,21.700001,1729476134940.0,0.0
-4.567898,-8.549555,-1.998007,-46.200001,-37.59,16.52,1729476134962.0,0.0
-3.833302,-9.164511,-2.443072,-59.779999,-45.57,12.39,1729476134981.0,0.0
-4.649254,-10.183852,-1.454836,-89.110001,-45.290001,12.95,1729476135001.0,0.0
-5.630312,-10.147961,-2.682354,-96.809998,-35.420002,-2.52,1729476135022.0,0.0
-5.974878,-9.073583,-2.711068,-70.840004,-39.48,-0.42,1729476135041.0,0.0
-5.099105,-5.783452,-3.862016,-78.260002,-40.950001,-4.13,1729476135061.0,0.0
-4.9675,-3.270989,-4.378866,-110.879997,-38.709999,-1.68,1729476135081.0,0.0
-5.52742,-4.201797,-5.781059,-125.580002,-44.799999,-4.13,1729476135106.0,0.0
-5.615955,-6.805188,-7.336394,-135.800003,-47.810001,-16.309999,1729476135120.0,0.0
-5.036892,-7.391429,-8.343772,-133.210007,-50.330002,-12.88,1729476135140.0,0.0
-4.429115,-8.250452,-10.011569,-109.550003,-44.52,-13.72,1729476135162.0,0.0
-4.280759,-7.57089,-7.018148,-94.080002,-30.59,-23.52,1729476135181.0,0.0
-4.728218,-7.623533,-5.491528,-46.970001,-10.57,-17.219999,1729476135201.0,0.0
-4.529613,-5.436492,-6.171089,-46.619999,-20.65,-10.64,1729476135220.0,0.0
-4.31426,-6.9679,-7.032506,-86.519997,-29.960001,-11.48,1729476135241.0,0.0
-4.017549,-7.666604,-9.609575,-150.639999,-8.47,-13.23,1729476135261.0,0.0
-4.694718,-9.509077,-7.910671,-79.029999,22.26,-5.88,1729476135281.0,0.0
-5.197211,-7.762317,-7.647461,19.110001,29.469999,-6.37,1729476135303.0,0.0
-5.199604,-8.202596,-8.360522,73.080002,40.459999,-5.39,1729476135319.0,0.0
-5.522634,-6.611369,-7.099504,65.169998,59.639999,-9.52,1729476135341.0,0.0
-4.587041,-6.338587,-7.111469,64.889999,64.260002,-4.27,1729476135361.0,0.0
-3.486342,-6.039484,-7.164111,58.029999,69.370003,3.43,1729476135381.0,0.0
-4.402793,-4.697111,-4.639683,49.98,91.489998,18.690001,1729476135401.0,0.0
-4.639683,-6.711867,-2.172683,50.119999,89.949997,27.58,1729476135420.0,0.0
-2.366502,-6.879365,-2.749353,52.080002,63.490002,28.91,1729476135441.0,0.0
