acc_x,acc_y,acc_z,gyr_x,gyr_y,gyr_z,timestamp,label
-2.196611,-7.369894,2.902494,-3.15,51.240002,-35.560001,1729417149510.0,0.0
-1.569692,-7.439285,3.792624,-7.0,31.92,-24.01,1729417149514.0,0.0
0.519243,-8.413164,4.149154,-13.16,3.99,-7.77,1729417149516.0,0.0
-1.354338,-8.606983,1.287339,4.76,-27.790001,14.77,1729417149522.0,0.0
-3.976871,-8.707481,-0.57667,11.62,-37.799999,31.219999,1729417149542.0,0.0
-2.9336,-10.959127,-2.766103,29.469999,-51.939999,38.080002,1729417149561.0,0.0
-4.591826,-9.52822,0.090927,48.369999,-61.32,31.43,1729417149582.0,0.0
-9.461221,-4.814359,0.205783,-22.4,-62.510002,33.599998,1729417149601.0,0.0
-8.578269,-6.319445,-5.326423,-145.740005,-58.240002,36.470001,1729417149622.0,0.0
-9.109475,-11.497513,-9.664611,-155.680008,-14.21,24.92,1729417149641.0,0.0
-8.69791,-13.85205,-9.659825,27.23,23.1,0.98,1729417149661.0,0.0
-9.506684,-6.862615,-1.799403,168.770004,44.310001,-33.389999,1729417149683.0,0.0
-7.51107,-5.828916,-2.249253,79.309998,70.699997,-59.150002,1729417149701.0,0.0
-3.61077,-6.843473,0.643669,8.68,79.660004,-61.670002,1729417149728.0,0.0
-1.928615,-6.71426,1.775474,8.26,69.720001,-47.459999,1729417149740.0,0.0
-0.543171,-6.821937,3.998406,17.01,51.380001,-26.880001,1729417149761.0,0.0
1.495514,-7.898707,5.60399,12.81,13.72,-2.45,1729417149782.0,0.0
-1.148555,-7.903493,3.122634,-2.31,-21.280001,19.040001,1729417149801.0,0.0
-2.675175,-7.735995,0.636491,-7.35,-37.73,32.900002,1729417149821.0,0.0
-0.229711,-7.659425,-2.548356,17.15,-59.290001,56.07,1729417149841.0,0.0
-7.920243,-7.573284,2.172683,38.150002,-66.5,67.760002,1729417149861.0,0.0
-12.13161,-4.965107,-0.205783,-70.489998,-66.849998,63.700001,1729417149881.0,0.0
-8.831908,-9.549755,-6.300302,-167.440002,-55.439999,64.540001,1729417149901.0,0.0
-9.516255,-10.30828,-8.882158,-114.870003,-16.52,39.689999,1729417149921.0,0.0
-9.705289,-11.590833,-9.190832,8.89,22.540001,10.08,1729417149941.0,0.0
-7.683353,-10.676775,-4.156333,95.410004,45.57,-29.190001,1729417149961.0,0.0
-9.497113,-5.903094,-2.675175,90.860001,53.549999,-51.869999,1729417149981.0,0.0
-5.350351,-6.805188,-4.034299,14.49,64.959999,-57.400002,1729417150000.0,0.0
-2.663212,-9.217153,2.490928,-28.700001,93.169998,-51.59,1729417150022.0,0.0
-1.26341,-7.635497,7.633104,49.349998,65.800003,-28.35,1729417150040.0,0.0
0.074178,-7.331609,6.183054,55.23,1.4,-7.98,1729417150062.0,0.0
-4.871787,-5.479564,2.770889,-37.099998,-25.48,5.39,1729417150082.0,0.0
-2.866602,-6.276374,-2.426322,-107.239998,-43.540001,28.84,1729417150101.0,0.0
-2.105684,-11.581261,-4.948357,-94.290001,-55.439999,46.549999,1729417150122.0,0.0
-7.872386,-12.028719,-4.917251,-54.040001,-45.290001,35.07,1729417150141.0,0.0
-9.631111,-9.934999,-2.230111,-33.880001,-28.559999,19.110001,1729417150162.0,0.0
-9.554541,-7.470392,-1.395016,-25.48,-18.549999,6.58,1729417150181.0,0.0
-8.970692,-8.114061,-2.48375,-0.07,-7.0,-3.43,1729417150201.0,0.0
-8.525627,-10.322637,-1.995614,35.0,16.1,-19.32,1729417150221.0,0.0
-6.116055,-10.001998,-1.942972,89.110001,31.219999,-43.330002,1729417150240.0,0.0
-5.498707,-8.047063,-2.311467,128.240005,30.940001,-60.760002,1729417150261.0,0.0
-6.099305,-9.647861,-2.605784,150.779999,30.1,-60.970001,1729417150281.0,0.0
-5.52742,-9.207582,-1.847259,227.149994,4.83,-62.299999,1729417150300.0,0.0
-3.45045,-7.092326,-1.143769,292.529999,-23.59,-50.049999,1729417150322.0,0.0
-3.302095,-5.960521,0.004786,303.029999,-27.370001,-27.09,1729417150340.0,0.0
-3.510271,-4.749753,1.244268,229.669998,-14.84,-6.51,1729417150360.0,0.0
-3.407379,-6.240481,1.478764,78.889999,-5.6,5.67,1729417150381.0,0.0
-3.76391,-7.759924,2.514857,30.73,4.41,13.16,1729417150400.0,0.0
-4.022335,-8.061419,2.409572,42.630001,2.87,15.47,1729417150420.0,0.0
-2.883351,-7.278966,1.335195,82.18,-3.01,23.73,1729417150440.0,0.0
-2.555535,-7.71446,1.069592,108.639999,5.32,33.810001,1729417150460.0,0.0
-2.785245,-9.717253,0.782453,115.989998,36.889999,48.509998,1729417150481.0,0.0
-3.938586,-13.53859,3.24706,190.539993,54.599998,72.099998,1729417150500.0,0.0
-5.273781,-9.51147,3.771089,309.26001,61.740002,69.160004,1729417150522.0,0.0
-5.245068,0.380459,10.186246,294.839996,49.349998,62.23,1729417150540.0,0.0
-11.093125,8.571091,3.168097,45.43,27.09,36.75,1729417150561.0,0.0
-3.256632,-9.265009,-2.723032,-164.639999,-13.23,58.310001,1729417150581.0,0.0
-11.959327,-10.380065,0.543171,-92.610001,58.869999,12.46,1729417150600.0,0.0
-10.487741,-11.222338,5.17089,19.879999,22.75,0.21,1729417150624.0,0.0
-6.443871,-9.059227,4.74736,15.4,-3.99,-63.209999,1729417150641.0,0.0
-5.218746,-7.326823,4.259224,51.869999,-10.64,-53.900002,1729417150660.0,0.0
-4.998606,-7.133004,4.73061,24.710001,-2.8,-53.130001,1729417150681.0,0.0
-4.596612,-7.477571,4.819145,-26.6,6.86,-50.68,1729417150700.0,0.0
-4.54397,-7.76471,4.534399,-19.18,4.2,-48.16,1729417150724.0,0.0
-3.476771,-7.245467,4.577469,18.620001,-4.13,-40.740002,1729417150740.0,0.0
-2.493321,-6.699903,5.587241,50.610001,-5.74,-32.830002,1729417150760.0,0.0
-2.713461,-4.23051,5.481956,50.049999,-1.12,-21.91,1729417150782.0,0.0
-2.474179,-5.496314,3.9338,18.690001,9.66,-13.440001,1729417150800.0,0.0
-3.333202,-11.767902,5.632704,27.51,38.5,0.42,1729417150820.0,0.0
-6.053841,-9.781858,4.996214,156.029999,34.23,21.700001,1729417150840.0,0.0
-9.389436,10.863414,5.024928,129.990005,9.45,-11.97,1729417150860.0,0.0
2.354537,-3.737589,-4.589434,-44.939999,-40.459999,51.450001,1729417150881.0,0.0
-11.373087,-3.878766,3.072384,-139.160004,77.840004,1.68,1729417150900.0,0.0
-10.334601,-10.518847,6.786045,-111.370003,38.849998,2.73,1729417150921.0,0.0
-6.999006,-10.734202,4.917251,-126.840004,0.84,-57.330002,1729417150940.0,0.0
-4.838287,-10.624132,4.627719,-78.75,-12.6,-58.029999,1729417150960.0,0.0
-4.359723,-9.353544,4.859823,-65.940002,-3.64,-67.760002,1729417150981.0,0.0
-3.893122,-8.133204,5.199604,-81.900002,0.07,-70.980003,1729417151000.0,0.0
-3.37388,-9.635897,4.091727,-113.330002,-0.07,-70.279999,1729417151020.0,0.0
-2.880959,-10.502099,3.328416,-127.470001,-0.07,-69.510002,1729417151047.0,0.0
-2.569891,-10.289137,3.125026,-104.230003,1.12,-69.440002,1729417151063.0,0.0
-2.493321,-9.65504,3.036492,-90.790001,3.29,-69.93,1729417151081.0,0.0
-2.218147,-9.420543,2.605784,-97.860001,6.37,-69.93,1729417151101.0,0.0
-1.651048,-9.403792,1.938186,-115.779999,8.96,-67.900002,1729417151121.0,0.0
-1.471586,-9.597611,1.447658,-137.199997,13.37,-64.190002,1729417151139.0,0.0
-1.852045,-9.832108,0.646062,-153.369995,17.43,-59.920002,1729417151160.0,0.0
-2.033899,-10.049855,-0.375673,-153.229996,19.809999,-56.630001,1729417151181.0,0.0
-1.823331,-10.133603,-1.22034,-137.550003,21.629999,-52.639999,1729417151201.0,0.0
-1.887937,-10.150353,-1.512264,-112.840004,23.799999,-47.740002,1729417151220.0,0.0
-2.565106,-9.674182,-1.457229,-86.379997,27.790001,-44.170002,1729417151240.0,0.0
-2.758924,-8.599805,-1.438086,-65.449997,27.16,-38.220001,1729417151260.0,0.0
-2.579463,-7.913064,-1.646262,-61.110001,22.75,-28.84,1729417151281.0,0.0
-2.799603,-8.176274,-1.383051,-58.52,20.16,-18.129999,1729417151299.0,0.0
-3.115455,-8.183454,-1.215554,-50.119999,20.370001,-11.55,1729417151321.0,0.0
-3.117848,-7.896315,-1.596013,-42.07,16.1,-3.01,1729417151340.0,0.0
-3.644269,-7.822137,-1.538585,-34.439999,13.58,6.51,1729417151360.0,0.0
-4.211368,-7.73121,-1.277767,-33.25,16.59,14.28,1729417151381.0,0.0
-4.426722,-8.118847,-1.103091,-39.130001,13.58,16.59,1729417151400.0,0.0
-4.711468,-8.556733,-1.509871,-41.580002,9.52,15.12,1729417151420.0,0.0
-4.776074,-8.606983,-1.993221,-39.48,8.33,12.25,1729417151439.0,0.0
-4.541577,-8.800802,-2.182254,-38.150002,10.43,7.42,1729417151460.0,0.0
-4.532006,-8.712267,-1.954936,-30.73,12.39,1.82,1729417151480.0,0.0
-4.508078,-8.51127,-1.598405,-21.91,9.52,-1.4,1729417151501.0,0.0
-4.400401,-8.822337,-1.739582,-20.16,6.16,-5.88,1729417151520.0,0.0
-4.39083,-8.812766,-2.036292,-19.32,7.49,-10.99,1729417151540.0,0.0
-4.063013,-8.922836,-2.108077,-12.95,5.53,-12.53,1729417151560.0,0.0
-4.103691,-8.652447,-1.605584,-8.82,6.02,-14.7,1729417151581.0,0.0
-3.704089,-8.161918,-1.914258,-16.17,5.6,-15.61,1729417151601.0,0.0
-3.180061,-8.286345,-2.541178,-22.82,2.8,-10.64,1729417151621.0,0.0
-2.976671,-8.721838,-2.679961,-16.379999,-1.05,-3.01,1729417151640.0,0.0
-3.17049,-9.212367,-2.402394,-2.31,-4.48,-0.63,1729417151660.0,0.0
-3.395415,-9.332008,-2.711068,14.49,-11.9,-4.55,1729417151680.0,0.0
-2.833102,-9.032906,-3.24706,13.09,-11.97,-9.8,1729417151702.0,0.0
-2.641676,-9.463614,-3.349952,-21.559999,-5.6,-11.48,1729417151724.0,0.0
-2.828316,-9.001799,-3.644269,-21.49,-4.97,-9.59,1729417151739.0,0.0
-2.639283,-9.035298,-4.651647,-15.190001,0.21,-10.08,1729417151764.0,0.0
-2.538785,-8.796017,-4.453043,2.66,5.74,-8.26,1729417151780.0,0.0
-2.423929,-8.99462,-3.677768,7.49,9.52,-9.52,1729417151800.0,0.0
-2.766103,-8.913264,-2.849852,5.95,11.06,-11.41,1729417151820.0,0.0
-2.665605,-8.772088,-2.538785,-7.84,8.82,-14.49,1729417151839.0,0.0
-2.237289,-9.092726,-2.947958,-17.01,4.41,-11.69,1729417151860.0,0.0
-2.143969,-9.454042,-3.35713,-12.95,2.03,-9.59,1729417151881.0,0.0
-2.189433,-9.523434,-3.455236,-2.17,1.61,-8.96,1729417151899.0,0.0
-2.208575,-9.24826,-3.503092,3.57,2.31,-9.66,1729417151920.0,0.0
-2.057827,-8.944371,-3.294917,2.17,1.4,-8.96,1729417151940.0,0.0
-2.053042,-9.032906,-3.328416,-4.48,0.84,-7.56,1729417151960.0,0.0
-2.115255,-9.226725,-3.393023,-6.86,1.68,-6.72,1729417151981.0,0.0
-1.835295,-10.095319,-4.84068,-3.64,2.8,-6.86,1729417152000.0,0.0
-2.184647,-7.334002,-2.175076,11.55,4.06,-0.77,1729417152020.0,0.0
-2.660819,-9.288938,-2.646462,1.19,-4.34,3.64,1729417152041.0,0.0
-2.481357,-9.561719,-3.069991,-5.95,-7.63,0.56,1729417152059.0,0.0
-2.18704,-10.021141,-3.424129,-11.76,-6.79,-1.68,1729417152080.0,0.0
-2.09372,-10.375278,-3.622734,-18.48,-3.08,-4.27,1729417152099.0,0.0
-2.014757,-9.865608,-3.862016,-11.2,-0.63,-6.44,1729417152120.0,0.0
-2.072184,-9.755538,-3.658626,-9.17,0.77,-6.65,1729417152139.0,0.0
-2.196611,-9.705289,-3.881158,-17.639999,1.33,-8.05,1729417152159.0,0.0
-2.179861,-10.954341,-4.694718,-34.16,6.93,-14.91,1729417152181.0,0.0
-1.87358,-8.879765,-3.584448,-21.0,14.14,-22.120001,1729417152200.0,0.0
-1.801795,-8.532805,-3.215954,-0.21,10.85,-20.719999,1729417152221.0,0.0
-2.009971,-8.097312,-3.278167,-2.1,7.56,-16.59,1729417152239.0,0.0
-1.840081,-7.826923,-3.751946,-14.63,5.46,-12.81,1729417152260.0,0.0
-2.002793,-8.300702,-4.022335,-17.43,5.81,-9.38,1729417152280.0,0.0
-1.892723,-8.159525,-3.9673,-4.13,3.36,-6.93,1729417152299.0,0.0
-1.68694,-8.365308,-3.668197,5.53,-0.84,-1.75,1729417152320.0,0.0
-1.701297,-8.738588,-3.567699,-8.68,-0.42,-2.66,1729417152339.0,0.0
-1.634298,-9.23151,-4.242475,-27.299999,-0.42,-3.57,1729417152360.0,0.0
-1.710868,-9.566505,-4.350152,-27.860001,0.84,-3.85,1729417152380.0,0.0
-1.710868,-9.190832,-4.26401,-7.7,-0.28,-2.8,1729417152399.0,0.0
-1.804188,-8.279166,-3.634698,3.22,-0.42,-0.35,1729417152420.0,0.0
-1.65344,-9.4349,-4.326223,0.84,0.77,0.28,1729417152439.0,0.0
-2.072184,-9.028119,-3.622734,4.2,-1.05,4.2,1729417152459.0,0.0
-1.816152,-8.271988,-3.835695,-3.15,-3.71,2.59,1729417152481.0,0.0
-1.990828,-9.056834,-4.115655,-6.65,-3.43,7.14,1729417152499.0,0.0
-2.11047,-9.626326,-3.909872,-11.55,-1.19,5.39,1729417152519.0,0.0
-2.031506,-9.35833,-4.089334,-10.22,-1.19,1.82,1729417152539.0,0.0
-2.065006,-8.963513,-3.960121,-8.75,1.4,-0.49,1729417152559.0,0.0
-1.978864,-8.729016,-3.996014,-1.89,-0.28,1.26,1729417152580.0,0.0
-1.904687,-8.793623,-4.218546,2.38,-1.68,2.45,1729417152599.0,0.0
-1.986043,-9.351151,-4.369294,-2.8,-1.12,2.03,1729417152619.0,0.0
-2.17029,-9.262616,-4.491328,-7.98,0.91,0.14,1729417152641.0,0.0
-2.103291,-8.903693,-4.285545,-10.08,4.06,-1.12,1729417152659.0,0.0
-2.603391,-9.176475,-3.960121,5.88,1.75,-0.77,1729417152680.0,0.0
-3.163311,-8.260024,-2.325824,31.710001,-4.41,-4.69,1729417152699.0,0.0
-2.885744,-7.683353,-2.794817,3.36,-6.65,-4.13,1729417152723.0,0.0
-2.76371,-8.145168,-3.649055,-28.700001,-8.61,-1.89,1729417152739.0,0.0
-2.620141,-8.623734,-3.988836,-40.810001,-7.49,-2.1,1729417152759.0,0.0
-2.431108,-8.860621,-4.393222,-27.719999,-9.1,-2.59,1729417152780.0,0.0
-2.696711,-9.12144,-4.680361,-19.110001,-6.16,-4.27,1729417152799.0,0.0
-2.677568,-8.578269,-4.797609,-21.210001,-1.47,-6.86,1729417152820.0,0.0
-2.495714,-8.444271,-4.555934,-28.07,1.05,-8.82,1729417152839.0,0.0
-2.225325,-8.269595,-4.551149,-37.52,-0.35,-11.9,1729417152859.0,0.0
-2.134398,-8.245667,-5.233103,-42.98,-2.31,-13.23,1729417152880.0,0.0
-2.342573,-8.80798,-5.709275,-47.459999,-1.82,-13.16,1729417152899.0,0.0
-2.002793,-9.159724,-6.309873,-44.170002,2.24,-18.34,1729417152920.0,0.0
-1.866402,-8.638089,-6.4343,-29.469999,7.28,-20.65,1729417152938.0,0.0
-1.67019,-7.989635,-5.737988,-21.35,12.95,-20.02,1729417152960.0,0.0
-1.835295,-7.76471,-4.981857,-9.52,13.16,-14.14,1729417152979.0,0.0
-2.036292,-8.456236,-4.634897,-2.87,13.58,-11.27,1729417152998.0,0.0
-1.921437,-8.614161,-4.816752,3.08,10.99,-10.99,1729417153020.0,0.0
-1.945365,-8.755339,-5.431707,8.12,8.96,-10.71,1729417153040.0,0.0
-2.270789,-8.506484,-4.677969,30.66,7.07,-9.66,1729417153059.0,0.0
-2.383251,-8.283953,-3.895515,54.040001,1.33,-6.72,1729417153087.0,0.0
-2.289931,-8.573483,-3.335595,64.120003,-5.11,-6.02,1729417153098.0,0.0
-2.134398,-8.757731,-3.359523,65.239998,-12.53,-6.09,1729417153119.0,0.0
-2.199004,-9.008978,-3.397808,63.91,-16.379999,-8.54,1729417153140.0,0.0
-1.993221,-9.207582,-3.065206,71.260002,-19.950001,-9.8,1729417153159.0,0.0
-2.017149,-8.786445,-3.148954,86.449997,-21.559999,-7.77,1729417153180.0,0.0
-1.909473,-8.73141,-2.871387,103.25,-24.639999,-3.64,1729417153200.0,0.0
-2.160719,-9.372685,-3.007778,106.959999,-22.75,-1.47,1729417153219.0,0.0
-1.629512,-10.018748,-3.716053,103.529999,-21.49,0.21,1729417153239.0,0.0
-1.871187,-9.442079,-3.649055,62.860001,-3.78,1.96,1729417153260.0,0.0
-1.698904,-10.423136,-3.165704,49.98,7.77,2.45,1729417153280.0,0.0
-1.658226,-10.660025,-3.136991,92.75,10.15,-0.98,1729417153299.0,0.0
-1.28016,-9.131011,-2.333002,148.399994,6.3,-1.68,1729417153320.0,0.0
-1.227518,-7.960921,-1.043271,161.279999,6.23,4.41,1729417153339.0,0.0
-0.842274,-9.597611,0.5001,84.07,4.62,8.19,1729417153361.0,0.0
-1.028914,-11.882757,2.500499,56.420002,-3.15,-1.19,1729417153383.0,0.0
-0.990629,-10.274779,2.258825,81.550003,-17.15,-8.4,1729417153400.0,0.0
0.425922,-9.798609,0.650848,104.93,-28.77,1.33,1729417153421.0,0.0
-1.179662,-9.245867,2.605784,107.449997,-21.210001,3.64,1729417153441.0,0.0
-1.282553,-6.951149,1.607977,111.860001,-36.610001,11.62,1729417153461.0,0.0
0.043071,-7.121039,2.191825,77.980003,-35.630001,30.59,1729417153482.0,0.0
-1.024128,-6.372087,2.89053,49.279999,-38.009998,42.630001,1729417153501.0,0.0
-1.320838,-4.821537,2.447858,-29.540001,-52.150002,51.450001,1729417153522.0,0.0
-1.356731,-7.111469,0.019143,-135.660004,-56.560001,63.349998,1729417153541.0,0.0
-2.569891,-12.189038,-1.598405,-150.009995,-56.91,59.639999,1729417153561.0,0.0
-3.407379,-10.351351,-1.464408,-98.629997,-70.0,48.02,1729417153581.0,0.0
-4.323831,-8.26481,-2.098505,-132.300003,-67.480003,43.75,1729417153601.0,0.0
-3.823731,-7.618747,-5.156533,-260.679993,-42.209999,41.93,1729417153626.0,0.0
-3.881158,-11.492726,-6.209375,-309.890015,-18.129999,39.970001,1729417153640.0,0.0
-5.24746,-9.95175,-6.159126,-222.809998,-1.96,17.5,1729417153661.0,0.0
-5.015356,-9.128618,-5.35753,-203.350006,9.24,7.98,1729417153682.0,0.0
-3.440879,-8.456236,-7.018148,-239.75,34.509998,4.27,1729417153702.0,0.0
-2.18704,-10.047462,-4.965107,-213.289993,47.25,2.87,1729417153725.0,0.0
-2.017149,-10.348958,-4.694718,-167.229996,38.990002,2.66,1729417153741.0,0.0
-2.026721,-11.770294,-4.955536,-143.570007,36.889999,-1.4,1729417153761.0,0.0
-1.507478,-10.411172,-4.871787,-98.489998,25.41,-11.48,1729417153782.0,0.0
-1.368695,-10.535598,-5.046463,-73.989998,20.51,-17.639999,1729417153806.0,0.0
-1.318445,-11.404193,-4.455436,-55.439999,16.52,-25.690001,1729417153821.0,0.0
-0.476172,-10.047462,-4.240082,-33.459999,7.21,-35.77,1729417153840.0,0.0
0.07657,-7.085148,-5.051248,4.2,-7.49,-38.5,1729417153861.0,0.0
0.48335,-6.723832,-5.879165,22.190001,-19.110001,-27.02,1729417153882.0,0.0
0.538385,-5.180461,-6.118448,21.84,-31.01,-22.469999,1729417153900.0,0.0
-0.327817,-4.283153,-6.295516,10.57,-38.920002,-16.59,1729417153921.0,0.0
-0.562313,-2.012364,-7.446464,-2.38,-51.450001,-8.12,1729417153940.0,0.0
-2.127219,-1.684547,-7.905886,-42.07,-55.23,5.11,1729417153960.0,0.0
-5.24746,-4.460221,-5.69731,-74.830002,-51.450001,22.469999,1729417153982.0,0.0
-5.776274,-3.795017,-5.692525,-45.849998,-57.68,47.880001,1729417154000.0,0.0
-6.216553,-4.826324,-10.604989,-68.389999,-46.48,64.190002,1729417154021.0,0.0
-6.18784,-7.396214,-13.012171,-87.150002,-8.75,73.639999,1729417154040.0,0.0
-6.235696,-8.197811,-9.635897,-23.1,12.81,71.190002,1729417154060.0,0.0
-5.651847,-6.171089,-7.99442,21.42,20.23,64.330002,1729417154081.0,0.0
-5.161318,-7.874779,-7.073184,17.15,33.599998,61.110001,1729417154100.0,0.0
-5.02732,-10.030712,-7.135397,8.33,40.18,48.369999,1729417154121.0,0.0
-4.54397,-9.60479,-6.364908,23.73,38.779999,30.309999,1729417154140.0,0.0
-3.416951,-9.990034,-4.749753,37.029999,32.27,17.710001,1729417154161.0,0.0
-2.414358,-9.734003,-3.617948,48.650002,16.030001,2.8,1729417154181.0,0.0
-2.021935,-7.585248,-3.67059,50.119999,-1.82,-6.23,1729417154200.0,0.0
-2.806781,-6.190232,-4.240082,29.190001,-13.51,-3.64,1729417154221.0,0.0
-3.141776,-6.333801,-5.446064,21.98,-25.27,-1.4,1729417154240.0,0.0
-2.813959,-5.685347,-7.563712,11.83,-36.049999,-4.83,1729417154260.0,0.0
-2.304288,-5.826523,-9.001799,-7.56,-38.849998,-9.24,1729417154282.0,0.0
-3.180061,-3.407379,-7.628319,-36.400002,-39.830002,-14.0,1729417154300.0,0.0
-5.759524,-2.876173,-7.054041,-49.07,-44.52,-6.16,1729417154320.0,0.0
-6.979864,-2.912065,-5.766702,-16.940001,-41.860001,16.870001,1729417154341.0,0.0
-7.336394,-3.608376,-9.186047,-28.559999,-31.99,28.559999,1729417154360.0,0.0
-7.015756,-6.63769,-11.222338,-59.080002,-2.38,31.639999,1729417154381.0,0.0
-7.357929,-7.166504,-9.683753,-26.110001,15.61,27.02,1729417154400.0,0.0
-6.518049,-5.9677,-8.135597,15.75,24.15,22.540001,1729417154420.0,0.0
-5.580062,-6.611369,-7.13779,21.210001,40.040001,26.6,1729417154441.0,0.0
-5.209175,-8.901299,-5.85763,24.780001,47.950001,24.85,1729417154508.0,0.0
-4.768896,-9.212367,-4.596612,46.48,39.130001,9.94,1729417154511.0,0.0
-3.20399,-9.164511,-4.960321,56.98,28.49,-6.72,1729417154512.0,0.0
-2.603391,-8.886944,-3.981657,60.619999,15.61,-19.809999,1729417154526.0,0.0
-2.050649,-6.869793,-4.161119,57.959999,0.14,-28.35,1729417154544.0,0.0
-2.428715,-5.79781,-4.37408,39.41,-10.71,-23.24,1729417154560.0,0.0
-2.35693,-5.625526,-4.943572,24.57,-25.76,-20.09,1729417154581.0,0.0
-2.182254,-5.213961,-5.56092,2.66,-41.16,-18.9,1729417154600.0,0.0
-3.871587,-2.85703,-5.871986,-24.01,-52.43,-14.42,1729417154623.0,0.0
-6.206983,-3.337988,-7.944171,-41.23,-54.740002,1.96,1729417154644.0,0.0
-7.65464,-4.323831,-6.955935,-42.209999,-34.790001,16.17,1729417154660.0,0.0
-7.779066,-4.197011,-9.303294,-36.400002,-22.68,14.56,1729417154681.0,0.0
-6.798009,-6.075377,-10.908878,-46.759998,3.57,17.360001,1729417154700.0,0.0
-6.147161,-7.484749,-10.009177,-24.85,23.59,15.61,1729417154724.0,0.0
-5.644669,-6.508478,-9.092726,13.440001,35.420002,14.21,1729417154741.0,0.0
-5.278566,-8.248059,-6.860222,11.34,53.900002,17.92,1729417154760.0,0.0
-4.632504,-8.941978,-4.843073,29.4,55.439999,11.97,1729417154781.0,0.0
-4.244867,-8.88455,-2.646462,47.110001,44.170002,-1.47,1729417154800.0,0.0
-3.098706,-8.891729,-2.995814,49.490002,28.280001,-15.61,1729417154821.0,0.0
-2.734996,-8.906086,-3.041277,35.209999,14.77,-24.710001,1729417154840.0,0.0
-2.818745,-7.781459,-3.713661,23.66,2.45,-29.75,1729417154860.0,0.0
-2.778067,-6.776474,-4.431508,31.360001,-12.04,-27.370001,1729417154881.0,0.0
-2.751746,-6.659225,-4.924429,32.689999,-28.700001,-26.6,1729417154900.0,0.0
-2.533999,-4.252046,-6.336195,9.94,-39.41,-26.110001,1729417154922.0,0.0
-3.416951,-3.909872,-6.836295,-27.23,-39.48,-18.690001,1729417154940.0,0.0
-4.807181,-3.428915,-7.63789,-31.15,-43.119999,-9.94,1729417154960.0,0.0
-5.455636,-3.361916,-8.035098,-20.790001,-38.57,1.68,1729417154982.0,0.0
-8.035098,-3.711268,-7.678568,-9.59,-23.1,17.290001,1729417155000.0,0.0
-6.683154,-5.517848,-10.229317,-32.200001,-2.24,17.290001,1729417155020.0,0.0
-6.45105,-6.063413,-9.470792,-23.66,21.42,20.16,1729417155040.0,0.0
-6.223732,-6.178268,-7.123433,-0.7,31.360001,20.09,1729417155061.0,0.0
-5.793024,-5.867201,-7.37468,24.360001,35.91,24.01,1729417155081.0,0.0
-6.013163,-7.956135,-6.104091,14.42,50.68,26.460001,1729417155100.0,0.0
-5.469993,-9.650253,-4.914857,15.05,53.549999,18.34,1729417155120.0,0.0
-5.017749,-10.734202,-3.684947,24.57,46.060001,3.71,1729417155139.0,0.0
-3.732803,-11.062018,-3.361916,46.34,32.970001,-15.68,1729417155171.0,0.0
-2.756532,-9.576077,-2.773281,55.790001,15.96,-32.130001,1729417155236.0,0.0
-2.507678,-7.625926,-3.005385,38.43,3.43,-40.18,1729417155236.0,0.0
-2.163112,-6.175875,-4.019942,12.46,-6.79,-37.170002,1729417155237.0,0.0
-2.323431,-6.415157,-4.673182,12.81,-21.139999,-33.740002,1729417155243.0,0.0
-2.40718,-4.675575,-5.462814,15.82,-39.130001,-35.630001,1729417155259.0,0.0
-2.462214,-2.550749,-7.003791,0.07,-47.810001,-24.290001,1729417155286.0,0.0
-4.520042,-1.868794,-7.922636,-46.689999,-44.099998,-4.76,1729417155302.0,0.0
-7.999206,-4.761717,-6.343372,-49.279999,-34.299999,12.04,1729417155319.0,0.0
-7.958528,-4.800002,-8.585447,-26.25,-19.950001,16.73,1729417155339.0,0.0
-6.757331,-7.051648,-9.846465,-44.450001,5.95,16.66,1729417155359.0,0.0
-5.766702,-6.972685,-9.23151,-19.18,20.65,14.56,1729417155380.0,0.0
-4.599005,-7.716853,-8.240881,10.78,31.57,20.719999,1729417155398.0,0.0
-4.723432,-9.001799,-6.321837,22.4,44.099998,26.040001,1729417155419.0,0.0
-4.326223,-10.033106,-4.644469,39.619999,46.830002,19.74,1729417155438.0,0.0
-4.273581,-10.375278,-3.168097,56.490002,41.580002,5.11,1729417155459.0,0.0
-2.9671,-9.973285,-2.567499,64.050003,28.559999,-12.11,1729417155480.0,0.0
-2.132005,-8.370094,-2.739782,50.889999,14.21,-24.43,1729417155499.0,0.0
-2.519642,-7.49432,-3.804588,21.91,2.66,-29.049999,1729417155519.0,0.0
-2.794817,-7.06122,-4.567898,16.870001,-9.1,-28.84,1729417155538.0,0.0
-2.249253,-6.685547,-4.481757,18.129999,-24.5,-32.48,1729417155558.0,0.0
-2.208575,-3.821337,-5.144568,17.5,-40.32,-28.07,1729417155579.0,0.0
-3.804588,-2.242075,-5.704489,-15.82,-47.740002,-14.14,1729417155599.0,0.0
-5.647062,-2.400001,-7.164111,-33.950001,-46.830002,4.48,1729417155619.0,0.0
-6.180661,-3.838088,-7.965706,-30.1,-32.27,22.469999,1729417155638.0,0.0
-7.159326,-5.752346,-8.673983,-13.37,-17.710001,31.57,1729417155659.0,0.0
-5.525027,-6.884151,-10.648061,-48.299999,10.29,25.48,1729417155678.0,0.0
-5.831308,-7.601997,-9.10469,-35.07,28.49,25.34,1729417155698.0,0.0
-6.125626,-8.95155,-7.386643,-10.5,35.98,24.639999,1729417155721.0,0.0
-5.230711,-10.222138,-5.946165,8.19,45.849998,20.23,1729417155738.0,0.0
-4.311867,-10.475778,-3.964907,31.360001,49.630001,10.92,1729417155758.0,0.0
-3.938586,-10.619347,-2.120041,46.689999,43.189999,-1.75,1729417155780.0,0.0
-2.904887,-10.116854,-1.770689,49.630001,27.370001,-17.710001,1729417155799.0,0.0
-2.782853,-8.243275,-2.364109,44.799999,8.33,-29.33,1729417155819.0,0.0
-3.378666,-6.955935,-3.125026,30.73,-7.21,-32.060001,1729417155840.0,0.0
-2.701497,-6.058627,-4.472186,25.969999,-21.280001,-31.43,1729417155862.0,0.0
-2.397608,-6.173482,-4.934,7.77,-36.049999,-31.219999,1729417155881.0,0.0
-2.395216,-3.656233,-5.510671,-10.29,-48.790001,-26.18,1729417155899.0,0.0
-3.641876,-1.70369,-5.702096,-36.119999,-52.57,-11.27,1729417155920.0,0.0
-5.134997,-3.519842,-7.716853,-33.950001,-52.709999,10.78,1729417155939.0,0.0
-7.183254,-4.259224,-6.994221,-9.94,-42.560001,28.210001,1729417155960.0,0.0
-7.848458,-4.869394,-9.4349,-28.35,-25.83,33.389999,1729417155986.0,0.0
-7.128219,-8.518449,-9.887143,-64.330002,8.12,34.02,1729417156001.0,0.0
-6.405586,-7.45125,-8.575876,-3.92,30.309999,25.549999,1729417156020.0,0.0
-5.551349,-9.147761,-6.740582,14.98,43.400002,26.32,1729417156041.0,0.0
-4.831109,-10.150353,-5.048856,22.049999,51.310001,19.18,1729417156060.0,0.0
-4.405186,-10.851451,-3.113062,35.420002,49.98,6.02,1729417156081.0,0.0
-3.773481,-11.215159,-2.239682,55.02,36.68,-11.34,1729417156100.0,0.0
-2.931208,-9.006584,-1.722832,56.560001,18.76,-27.440001,1729417156123.0,0.0
-2.871387,-8.405986,-2.289931,31.15,2.66,-35.209999,1729417156140.0,0.0
-2.68714,-7.343572,-3.632305,13.23,-10.29,-36.75,1729417156161.0,0.0
-2.505285,-7.532606,-3.936193,14.28,-24.57,-36.82,1729417156184.0,0.0
-2.072184,-4.113262,-4.821537,16.799999,-41.580002,-34.23,1729417156201.0,0.0
-2.569891,-2.443072,-5.924629,-6.44,-48.16,-22.26,1729417156222.0,0.0
-4.61097,-2.471786,-6.56112,-14.56,-50.259998,-0.49,1729417156239.0,0.0
-6.515656,-3.053242,-6.946364,-24.639999,-46.34,15.26,1729417156259.0,0.0
-6.496514,-4.771288,-7.149754,-24.92,-36.889999,24.219999,1729417156280.0,0.0
-7.546963,-4.383651,-8.327023,-23.940001,-25.34,25.41,1729417156300.0,0.0
-6.111269,-6.410372,-10.995021,-60.48,3.92,27.58,1729417156320.0,0.0
-6.482157,-7.470392,-8.609376,-19.18,33.950001,29.540001,1729417156339.0,0.0
-6.075377,-7.996813,-7.60439,6.16,44.66,30.17,1729417156359.0,0.0
-5.536992,-10.102496,-6.001199,7.21,58.59,27.790001,1729417156380.0,0.0
-5.012963,-11.4018,-3.242275,16.24,59.290001,13.09,1729417156398.0,0.0
-3.806981,-11.866007,-2.163112,30.380001,47.740002,-9.45,1729417156420.0,0.0
-2.993421,-10.265208,-1.318445,39.830002,31.43,-27.440001,1729417156439.0,0.0
-2.682354,-8.80798,-1.715654,36.959999,10.92,-35.700001,1729417156459.0,0.0
-3.160919,-8.25763,-2.723032,23.030001,-4.2,-37.869999,1729417156481.0,0.0
-2.897708,-5.903094,-4.072584,20.23,-15.61,-35.349998,1729417156500.0,0.0
-2.9336,-5.922236,-5.374279,18.76,-22.4,-25.200001,1729417156519.0,0.0
-2.9336,-5.601598,-5.472386,10.36,-30.66,-24.780001,1729417156539.0,0.0
-2.699104,-3.089134,-5.998806,-12.81,-38.779999,-18.83,1729417156560.0,0.0
-4.194618,-2.132005,-6.128019,-46.200001,-39.759998,-4.76,1729417156580.0,0.0
-5.608776,-3.996014,-7.690532,-39.549999,-39.900002,13.09,1729417156599.0,0.0
-7.133004,-4.718646,-6.336195,-10.29,-29.120001,26.110001,1729417156620.0,0.0
-7.91785,-4.974678,-6.680761,-10.99,-20.299999,28.35,1729417156640.0,0.0
-6.63769,-8.499306,-9.243474,-51.59,0.42,25.83,1729417156659.0,0.0
-5.802595,-8.305488,-8.489735,-26.809999,20.09,15.190001,1729417156684.0,0.0
-5.010571,-8.374879,-7.989635,8.89,25.41,14.91,1729417156698.0,0.0
-4.59422,-8.997013,-5.982057,17.01,38.290001,14.7,1729417156722.0,0.0
-4.462614,-9.868,-4.771288,22.26,45.290001,10.08,1729417156739.0,0.0
-4.632504,-9.937392,-4.041477,39.619999,41.299999,-1.19,1729417156759.0,0.0
-4.369294,-9.667004,-2.833102,54.529999,34.650002,-13.3,1729417156782.0,0.0
-3.134598,-9.224331,-3.235096,53.900002,23.73,-24.290001,1729417156799.0,0.0
-3.285345,-8.963513,-3.158526,40.950001,13.86,-32.27,1729417156819.0,0.0
-2.754139,-8.35813,-4.189832,33.670002,2.31,-37.66,1729417156838.0,0.0
-2.35693,-7.865208,-4.165904,36.68,-7.7,-41.369999,1729417156859.0,0.0
-1.866402,-4.835894,-3.553342,42.349998,-22.049999,-36.959999,1729417156879.0,0.0
-1.981257,-2.78046,-4.199404,18.059999,-34.720001,-25.76,1729417156900.0,0.0
-3.790231,-3.335595,-5.867201,-1.4,-42.630001,-6.37,1729417156919.0,0.0
-5.563312,-2.754139,-5.82413,-24.85,-40.18,8.75,1729417156939.0,0.0
-6.240481,-4.740182,-6.809973,-37.939999,-34.720001,24.219999,1729417156959.0,0.0
-6.62094,-5.74756,-7.121039,-28.139999,-25.76,27.860001,1729417156979.0,0.0
-6.161518,-5.87438,-9.066404,-13.23,-17.57,30.1,1729417156998.0,0.0
-5.446064,-7.74796,-9.693325,-52.779999,19.809999,33.25,1729417157019.0,0.0
-5.752346,-8.463413,-8.458629,-16.66,35.560001,31.85,1729417157039.0,0.0
-5.539384,-8.611769,-6.336195,4.13,43.470001,26.110001,1729417157059.0,0.0
-4.646862,-9.942179,-5.029713,-1.47,50.259998,18.48,1729417157090.0,0.0
-3.828516,-10.521241,-2.866602,3.29,48.369999,7.91,1729417157099.0,0.0
-3.783052,-10.461421,-2.041078,16.66,37.450001,-4.27,1729417157119.0,0.0
-3.28056,-9.54497,-2.041078,23.52,23.870001,-14.77,1729417157139.0,0.0
-3.249453,-8.915657,-2.785245,22.469999,8.33,-23.450001,1729417157159.0,0.0
-3.704089,-7.642675,-3.213561,15.54,-5.25,-27.299999,1729417157179.0,0.0
-3.5007,-6.537192,-4.304688,11.2,-15.96,-27.02,1729417157199.0,0.0
-3.069991,-5.362316,-5.056034,5.88,-24.43,-22.26,1729417157220.0,0.0
-3.385844,-5.441278,-5.206782,-21.35,-31.99,-19.74,1729417157238.0,0.0
-3.632305,-3.531806,-5.376673,-40.25,-38.57,-14.07,1729417157259.0,0.0
-4.352544,-3.397808,-6.735795,-55.93,-38.709999,1.75,1729417157280.0,0.0
-5.192425,-3.735196,-7.652246,-40.040001,-33.389999,18.129999,1729417157298.0,0.0
-7.159326,-4.575077,-7.317252,-13.65,-24.08,34.02,1729417157319.0,0.0
-7.293324,-7.094719,-8.860621,-30.17,-5.67,33.950001,1729417157338.0,0.0
-6.259624,-7.121039,-8.458629,-29.469999,20.09,23.940001,1729417157359.0,0.0
-5.678168,-8.365308,-8.193025,-9.59,28.84,22.540001,1729417157380.0,0.0
-5.194818,-9.389436,-6.958328,11.48,41.509998,21.559999,1729417157399.0,0.0
-4.524827,-9.540184,-4.256832,30.59,49.139999,15.89,1729417157420.0,0.0
-4.254438,-10.24846,-3.108276,38.779999,43.189999,2.17,1729417157438.0,0.0
-4.012764,-10.442278,-2.931208,34.23,32.34,-14.35,1729417157460.0,0.0
-3.304488,-9.154939,-2.500499,38.290001,17.780001,-28.35,1729417157490.0,0.0
-2.696711,-8.310273,-3.024528,31.85,0.28,-34.720001,1729417157498.0,0.0
-3.081956,-7.635497,-3.493521,9.17,-9.73,-37.450001,1729417157519.0,0.0
-2.696711,-5.508278,-4.527221,3.29,-20.23,-35.0,1729417157538.0,0.0
-3.022135,-5.149354,-4.838287,10.22,-29.33,-25.690001,1729417157559.0,0.0
-2.428715,-4.027121,-5.989235,-0.56,-42.0,-25.27,1729417157580.0,0.0
-3.211168,-1.383051,-6.932007,-23.17,-48.23,-11.13,1729417157598.0,0.0
-4.838287,-3.359523,-8.286345,-53.970001,-40.670002,6.44,1729417157618.0,0.0
-6.087341,-3.84048,-7.850852,-28.559999,-31.43,22.120001,1729417157638.0,0.0
-7.233503,-5.491528,-8.504091,-17.710001,-17.92,35.560001,1729417157658.0,0.0
-6.958328,-7.944171,-10.171888,-41.580002,-0.28,33.25,1729417157679.0,0.0
-6.999006,-8.073383,-8.683553,-21.77,29.049999,26.74,1729417157699.0,0.0
-6.166305,-8.805587,-7.728817,9.24,38.779999,24.780001,1729417157721.0,0.0
-5.237889,-9.583255,-6.242875,22.889999,47.810001,18.34,1729417157738.0,0.0
-4.666004,-10.078569,-4.036692,29.68,50.82,8.19,1729417157759.0,0.0
-4.17069,-10.846665,-2.514857,28.98,41.439999,-6.58,1729417157779.0,0.0
-3.498307,-10.114462,-2.385644,38.920002,26.25,-23.1,1729417157799.0,0.0
-2.620141,-8.786445,-2.502892,38.779999,7.21,-33.670002,1729417157819.0,0.0
-2.847459,-8.355737,-3.287738,21.629999,-5.74,-37.59,1729417157838.0,0.0
-2.696711,-6.757331,-3.931407,13.93,-18.549999,-38.639999,1729417157858.0,0.0
-2.634498,-4.76411,-5.094319,16.030001,-27.719999,-28.139999,1729417157883.0,0.0
-3.113062,-5.515456,-5.4341,2.45,-35.279999,-20.16,1729417157898.0,0.0
-3.677768,-3.393023,-6.037091,-16.940001,-42.84,-16.24,1729417157918.0,0.0
-4.704289,-1.65344,-5.828916,-41.860001,-44.939999,-2.66,1729417157938.0,0.0
-5.692525,-3.565305,-7.453642,-38.779999,-41.509998,9.73,1729417157958.0,0.0
-6.625726,-3.888337,-6.876972,-3.64,-33.950001,27.02,1729417157980.0,0.0
-7.489535,-4.737789,-8.255238,-21.0,-18.690001,32.900002,1729417157998.0,0.0
-6.565905,-8.233703,-10.128819,-45.709999,17.43,27.299999,1729417158018.0,0.0
-5.958128,-7.453642,-8.252845,-12.46,27.51,21.35,1729417158038.0,0.0
-5.386244,-8.305488,-7.034898,3.43,35.560001,18.549999,1729417158058.0,0.0
-4.469792,-9.157332,-6.288338,1.19,41.93,11.06,1729417158080.0,0.0
-4.254438,-10.179067,-5.335995,3.78,47.950001,3.36,1729417158098.0,0.0
-3.938586,-9.966106,-3.254239,22.540001,43.889999,-6.86,1729417158119.0,0.0
-3.529413,-9.772287,-1.706082,39.970001,30.1,-15.33,1729417158138.0,0.0
-2.9671,-8.77448,-2.012364,38.709999,12.32,-24.360001,1729417158158.0,0.0
-2.840281,-7.984849,-3.014957,25.9,-3.36,-28.139999,1729417158180.0,0.0
-2.866602,-6.776474,-4.534399,23.52,-15.61,-26.530001,1729417158198.0,0.0
-2.964707,-5.953342,-5.709275,27.58,-22.120001,-19.530001,1729417158220.0,0.0
-3.316452,-6.058627,-5.910272,19.67,-26.530001,-15.4,1729417158238.0,0.0
-3.443272,-4.912465,-5.340781,-3.08,-34.369999,-18.129999,1729417158258.0,0.0
-4.548756,-2.756532,-5.07757,-22.469999,-42.700001,-11.55,1729417158279.0,0.0
-5.761917,-3.936193,-7.77428,-35.349998,-42.0,1.68,1729417158298.0,0.0
-6.769295,-4.091727,-7.659425,-10.08,-30.940001,13.79,1729417158318.0,0.0
-7.322037,-4.479364,-7.822137,-0.98,-17.43,22.049999,1729417158338.0,0.0
-6.271588,-6.613762,-8.829515,-37.380001,9.59,19.950001,1729417158360.0,0.0
-5.915058,-7.599605,-8.240881,-29.120001,22.68,18.549999,1729417158380.0,0.0
-5.436492,-7.465607,-7.587641,4.62,28.280001,21.42,1729417158398.0,0.0
-5.017749,-7.649854,-6.659225,17.92,38.5,24.5,1729417158419.0,0.0
-4.366901,-9.293723,-5.546563,16.24,47.950001,22.049999,1729417158438.0,0.0
-4.287938,-9.942179,-4.053442,25.34,46.34,11.9,1729417158458.0,0.0
-3.739982,-10.226924,-3.491128,38.849998,36.259998,-0.91,1729417158479.0,0.0
-3.316452,-9.243474,-2.584249,33.459999,23.940001,-13.3,1729417158498.0,0.0
-2.801995,-9.485149,-3.136991,17.710001,9.8,-22.82,1729417158518.0,0.0
-3.105884,-8.85823,-3.701697,13.93,-1.47,-29.960001,1729417158538.0,0.0
-2.981457,-7.372287,-4.197011,20.51,-9.94,-30.380001,1729417158558.0,0.0
-3.192025,-5.962914,-5.190032,25.76,-16.52,-23.24,1729417158579.0,0.0
-3.06042,-6.271588,-6.333801,17.5,-20.51,-15.75,1729417158598.0,0.0
-3.354738,-6.446264,-5.95095,-2.24,-21.91,-17.08,1729417158618.0,0.0
-4.26401,-4.943572,-3.567699,-35.420002,-25.83,-19.950001,1729417158640.0,0.0
-6.029913,-5.391029,-4.675575,-39.27,-41.02,-18.690001,1729417158658.0,0.0
-5.95095,-5.503492,-7.183254,-29.75,-45.57,-17.01,1729417158679.0,0.0
-6.374479,-5.012963,-7.408179,-20.16,-26.6,-6.86,1729417158697.0,0.0
-6.472585,-5.051248,-7.659425,-19.25,-8.82,4.13,1729417158721.0,0.0
-5.757132,-6.685547,-7.886744,-14.63,8.05,12.11,1729417158738.0,0.0
-5.257031,-6.537192,-7.972885,1.33,15.75,11.13,1729417158758.0,0.0
-5.288138,-6.173482,-7.965706,17.85,22.68,12.88,1729417158779.0,0.0
-5.180461,-5.759524,-7.484749,23.309999,32.689999,20.16,1729417158797.0,0.0
-5.158926,-7.779066,-6.156733,17.15,47.810001,28.280001,1729417158818.0,0.0
-4.319045,-10.092925,-4.084548,20.299999,53.41,23.030001,1729417158838.0,0.0
-3.878766,-10.406385,-2.689533,33.040001,43.400002,7.56,1729417158859.0,0.0
-3.242275,-9.966106,-1.964507,35.279999,28.559999,-7.21,1729417158880.0,0.0
-2.964707,-9.695717,-1.883151,23.1,11.83,-20.09,1729417158898.0,0.0
-3.172883,-9.23151,-2.605784,14.07,-5.39,-30.870001,1729417158918.0,0.0
-3.206382,-7.915457,-3.61077,19.18,-20.09,-35.560001,1729417158937.0,0.0
-3.148954,-6.486942,-4.82393,24.5,-28.280001,-30.940001,1729417158958.0,0.0
-3.364309,-6.754939,-6.405586,10.01,-29.889999,-25.34,1729417158978.0,0.0
-3.436093,-6.518049,-6.448657,-9.03,-31.710001,-27.02,1729417158997.0,0.0
-4.41715,-4.596612,-5.99402,-15.61,-33.740002,-21.07,1729417159019.0,0.0
-5.407779,-5.63749,-6.367301,2.94,-34.16,-7.42,1729417159037.0,0.0
-5.699703,-6.872187,-7.599605,41.580002,-30.309999,-3.36,1729417159058.0,0.0
-5.625526,-7.575676,-8.563912,85.959999,-20.299999,-3.5,1729417159079.0,0.0
-5.386244,-8.843873,-8.288737,114.520004,-3.57,-5.25,1729417159098.0,0.0
-5.479564,-9.523434,-7.195218,109.900002,23.52,-9.87,1729417159118.0,0.0
-5.125426,-9.432507,-5.991628,114.590004,40.389999,-17.85,1729417159137.0,0.0
-4.771288,-9.934999,-4.646862,152.460007,49.0,-25.620001,1729417159158.0,0.0
-4.462614,-8.745767,-2.957529,213.009995,52.920002,-30.380001,1729417159178.0,0.0
-3.962514,-6.991827,-2.065006,250.809998,54.389999,-25.549999,1729417159199.0,0.0
-2.979064,-5.630312,-1.45005,241.290009,57.119999,-16.799999,1729417159218.0,0.0
-2.924029,-7.795816,-0.794417,237.089996,58.380001,-6.93,1729417159237.0,0.0
-3.397808,-7.683353,1.433301,261.730011,60.200001,-5.46,1729417159258.0,0.0
-3.622734,-6.4678,3.120241,272.720001,51.450001,1.68,1729417159280.0,0.0
-3.108276,-7.618747,3.59402,251.229996,34.09,4.34,1729417159297.0,0.0
-2.713461,-9.516255,2.971886,267.610016,20.719999,6.44,1729417159318.0,0.0
-2.804388,-5.752346,4.409972,322.630005,20.16,14.35,1729417159338.0,0.0
-3.302095,-5.618347,6.161518,304.429993,23.73,23.17,1729417159358.0,0.0
-4.192225,-5.175675,7.276574,251.790009,27.16,27.860001,1729417159380.0,0.0
-5.276174,-5.960521,8.729016,240.449997,25.41,28.49,1729417159398.0,0.0
-4.297509,-3.692125,8.539984,240.520004,12.39,32.759998,1729417159418.0,0.0
-4.204189,-4.704289,8.073383,210.139999,6.23,39.200001,1729417159438.0,0.0
-4.819145,-6.448657,6.884151,170.800003,5.25,42.279999,1729417159524.0,0.0
-5.539384,-8.042276,6.099305,150.5,10.08,32.41,1729417159526.0,0.0
-6.199803,-9.597611,5.493921,141.820007,19.389999,7.42,1729417159528.0,0.0
-6.723832,-7.944171,6.965507,158.339996,20.860001,-17.5,1729417159528.0,0.0
-5.979663,-7.91785,5.711668,139.440002,9.03,-41.790001,1729417159537.0,0.0
-4.646862,-9.466006,6.812366,151.550003,10.43,-64.889999,1729417159558.0,0.0
-3.105884,-3.23031,8.944371,163.100006,21.91,-85.470001,1729417159579.0,0.0
-3.61077,-0.583849,10.51167,145.110001,14.14,-76.370003,1729417159597.0,0.0
-3.103491,0.684347,9.805787,120.260002,-2.8,-56.349998,1729417159618.0,0.0
-3.9673,-1.852045,8.463413,120.330002,-12.04,-38.57,1729417159907.0,0.0
-3.749553,-2.744568,7.02772,171.360001,-9.38,-36.470001,1729417159918.0,0.0
-2.182254,0.851845,6.788438,182.490005,4.62,-28.559999,1729417159921.0,0.0
-5.766702,-1.45005,6.13759,39.759998,13.86,-9.1,1729417159927.0,0.0
-5.656632,-1.208375,7.121039,-39.759998,11.13,7.14,1729417159927.0,0.0
-5.4006,-3.512664,7.465607,-149.869995,1.33,14.0,1729417159928.0,0.0
-3.737589,-4.386044,6.338587,-240.940002,-15.12,25.059999,1729417159928.0,0.0
-3.481557,-5.986843,6.599405,-354.690002,-27.02,18.969999,1729417159928.0,0.0
-4.469792,-6.147161,5.67099,-478.309998,-35.630001,-1.33,1729417159928.0,0.0
-4.275974,-6.539584,4.833502,-569.450012,-40.950001,-11.62,1729417159928.0,0.0
-4.828716,-8.800802,4.768896,-568.26001,-43.68,-19.32,1729417159928.0,0.0
-4.151547,-8.630912,4.917251,-496.299988,-50.400002,-22.82,1729417159929.0,0.0
-4.201797,-9.805787,5.125426,-376.600006,-48.860001,-14.77,1729417159929.0,0.0
-4.615755,-9.944571,2.215754,-290.850006,-39.27,-25.76,1729417159929.0,0.0
-4.491328,-10.968699,0.820738,-121.239998,-36.330002,-24.92,1729417159929.0,0.0
-4.206582,-9.736395,1.064806,78.330002,-12.18,-17.219999,1729417159936.0,0.0
-3.751946,-8.322237,3.019742,226.520004,16.24,-7.0,1729417159962.0,0.0
-3.148954,-4.010371,4.292724,334.459991,43.330002,-0.7,1729417159979.0,0.0
-3.52702,-3.122634,6.836295,405.929993,46.130001,15.96,1729417159999.0,0.0
-4.156333,-4.934,7.049256,428.610016,48.720001,13.72,1729417160019.0,0.0
-4.706682,-6.977471,8.477771,447.580017,60.060001,0.35,1729417160039.0,0.0
-5.082355,-6.850651,11.095518,469.980011,59.220001,-12.18,1729417160122.0,0.0
-4.232903,-3.053242,12.875778,424.76001,43.82,-37.66,1729417160138.0,0.0
-3.766303,-0.227318,11.609976,270.76001,23.450001,-47.32,1729417160142.0,0.0
-3.45045,-5.666204,6.415157,163.660004,8.61,-53.34,1729417160142.0,0.0
-3.503092,-3.9673,4.974678,191.380005,19.32,-52.009998,1729417160142.0,0.0
-3.921836,0.236889,6.295516,175.839996,32.900002,-50.119999,1729417160160.0,0.0
-4.429115,0.351745,7.310073,67.900002,33.880001,-41.23,1729417160180.0,0.0
-3.316452,-1.660619,6.752545,-20.719999,25.41,-25.129999,1729417160200.0,0.0
-2.648855,-2.469393,6.513263,-55.439999,16.870001,-3.57,1729417160220.0,0.0
-2.589034,-1.830509,6.369694,-106.889999,6.86,13.02,1729417160239.0,0.0
-2.904887,-1.689333,6.092126,-207.759995,-0.42,29.469999,1729417160260.0,0.0
-3.232704,-3.455236,5.812167,-330.610016,-7.91,43.68,1729417160280.0,0.0
-3.632305,-6.211767,6.108876,-439.040009,-11.76,44.73,1729417160299.0,0.0
-4.319045,-7.599605,7.338787,-569.099976,-19.67,36.259998,1729417160320.0,0.0
-3.586841,-10.353743,6.728617,-606.619995,-36.049999,12.04,1729417160339.0,0.0
-5.254639,-8.965906,2.35693,-516.669983,-50.259998,5.32,1729417160360.0,0.0
-6.606583,-7.168896,2.392823,-347.899994,-61.18,-1.4,1729417160380.0,0.0
-5.941379,-8.482556,3.773481,-256.269989,-39.48,3.01,1729417160403.0,0.0
-6.075377,-11.3683,1.311267,-176.470001,-22.82,-1.75,1729417160424.0,0.0
-6.393622,-9.028119,1.028914,-39.689999,-10.99,1.19,1729417160516.0,0.0
-5.694918,-8.985049,0.9667,50.470001,5.88,6.02,1729417160516.0,0.0
-5.580062,-10.121639,1.770689,149.589996,22.889999,8.33,1729417160516.0,0.0
-4.534399,-7.109076,2.818745,290.01001,22.26,6.37,1729417160517.0,0.0
-4.127619,-5.163712,4.680361,421.679993,18.549999,20.299999,1729417160528.0,0.0
-5.084748,-4.132405,6.71426,472.149994,19.67,23.24,1729417160546.0,0.0
-6.257231,-5.067998,6.927221,488.600006,24.219999,22.120001,1729417160558.0,0.0
-5.833702,-8.635696,8.563912,496.089996,33.040001,6.72,1729417160651.0,0.0
-6.058627,-8.106883,11.243874,484.26001,32.41,-24.710001,1729417160652.0,0.0
-4.400401,-0.562313,10.877771,375.970001,24.92,-44.170002,1729417160653.0,0.0
-5.199604,-2.739782,7.37468,142.449997,15.33,-33.529999,1729417160654.0,0.0
-5.558527,-5.161318,4.977071,124.32,7.7,-44.310001,1729417160658.0,0.0
-3.828516,0.485743,6.752545,141.889999,19.6,-45.080002,1729417160680.0,0.0
-3.742374,-0.48335,7.338787,41.369999,21.35,-37.450001,1729417160698.0,0.0
-4.084548,-2.778067,7.274181,-29.610001,16.450001,-25.27,1729417160721.0,0.0
-4.465007,-3.158526,7.893922,-41.650002,9.59,-14.77,1729417160738.0,0.0
-3.809374,-2.706282,7.357929,-71.400002,-2.03,0.21,1729417160811.0,0.0
-3.393023,-2.344966,6.30748,-166.460007,-9.59,6.09,1729417160813.0,0.0
-3.256632,-2.462214,6.106483,-286.860016,-10.36,9.38,1729417160814.0,0.0
-3.704089,-3.756732,7.06122,-389.76001,-10.99,12.25,1729417160818.0,0.0
-4.845466,-6.599405,7.539784,-456.399994,-22.26,16.1,1729417160837.0,0.0
-4.61097,-8.752945,7.453642,-482.929993,-38.360001,9.38,1729417160858.0,0.0
-3.871587,-8.700303,5.718846,-497.140015,-46.549999,-9.1,1729417160880.0,0.0
-5.240282,-5.788238,2.404787,-445.76001,-47.18,-12.46,1729417160898.0,0.0
-6.953543,-6.046663,3.242275,-330.540009,-51.240002,-8.96,1729417160919.0,0.0
-5.912664,-9.518648,2.95035,-239.330002,-43.75,-7.84,1729417160939.0,0.0
-5.900701,-8.295916,0.801596,-137.899994,-25.41,-10.08,1729417160959.0,0.0
-5.414958,-7.123433,0.473779,-16.030001,-1.47,4.48,1729417160979.0,0.0
-5.793024,-9.19801,0.512064,63.139999,19.809999,11.48,1729417160998.0,0.0
-5.807381,-8.896514,1.921437,194.740005,29.82,11.83,1729417161019.0,0.0
-5.228317,-5.623133,3.314059,344.959991,18.969999,15.68,1729417161038.0,0.0
-5.594419,-4.268795,5.199604,454.580017,18.059999,25.969999,1729417161060.0,0.0
-6.352944,-5.927022,5.891129,528.359985,17.290001,25.200001,1729417161081.0,0.0
-6.573084,-8.216952,9.190832,579.25,26.110001,11.9,1729417161099.0,0.0
-5.828916,-6.017949,11.093125,566.580017,26.530001,-16.450001,1729417161119.0,0.0
-4.412365,-0.734596,11.07159,437.709991,22.82,-31.08,1729417161138.0,0.0
-4.010371,1.284946,10.660025,208.740005,15.05,-43.189999,1729417161158.0,0.0
-3.756732,-2.517249,8.281559,74.970001,6.23,-38.709999,1729417161181.0,0.0
-4.201797,-3.893122,6.070591,84.980003,-2.1,-26.530001,1729417161198.0,0.0
-4.565506,-1.995614,6.431907,84.559998,4.41,-32.48,1729417161219.0,0.0
-4.232903,-0.935594,6.611369,21.700001,8.33,-30.450001,1729417161239.0,0.0
-4.21376,-0.952343,6.369694,-41.650002,7.35,-19.879999,1729417161258.0,0.0
-4.352544,-1.205983,5.723632,-83.790001,3.85,-4.97,1729417161281.0,0.0
-3.893122,-1.942972,5.575277,-150.570007,1.61,7.0,1729417161299.0,0.0
-4.194618,-3.821337,6.76451,-319.76001,5.95,13.72,1729417161318.0,0.0
-4.639683,-5.788238,6.893722,-438.619995,-1.82,7.98,1729417161338.0,0.0
-4.795217,-7.286145,7.673782,-523.390015,-18.059999,9.8,1729417161360.0,0.0
-3.888337,-7.877172,6.235696,-584.220032,-36.610001,1.54,1729417161380.0,0.0
-4.302295,-7.73121,2.134398,-562.799988,-53.41,-13.65,1729417161398.0,0.0
-7.391429,-8.54477,3.237489,-432.880005,-59.5,-17.85,1729417161426.0,0.0
-5.460421,-9.688539,3.48395,-310.100006,-59.43,-21.700001,1729417161440.0,0.0
-5.209175,-8.30788,1.78026,-211.190002,-43.889999,-24.08,1729417161458.0,0.0
-4.831109,-5.630312,0.014357,-133.210007,-30.940001,-14.28,1729417161482.0,0.0
-4.656433,-6.975078,-1.543371,-87.010002,-7.28,9.94,1729417161498.0,0.0
-5.355137,-10.722239,-1.098306,13.51,20.09,24.639999,1729417161519.0,0.0
-5.575277,-10.715059,0.227318,181.369995,23.52,19.879999,1729417161539.0,0.0
-4.955536,-6.173482,1.701297,350.140015,6.58,23.030001,1729417161560.0,0.0
-4.481757,-4.41715,2.732604,436.100006,7.63,32.830002,1729417161581.0,0.0
-5.178068,-5.340781,4.804788,476.769989,18.34,38.43,1729417161599.0,0.0
-7.176075,-4.977071,8.082954,500.01001,34.860001,27.860001,1729417161620.0,0.0
-7.097112,-7.568498,11.487941,480.059998,28.210001,6.37,1729417161641.0,0.0
-6.07777,-4.407579,11.722438,422.589996,20.58,-11.06,1729417161660.0,0.0
-4.472186,0.442672,11.767902,286.649994,14.49,-16.030001,1729417161681.0,0.0
-5.065606,-3.163311,9.820145,128.449997,3.15,-31.5,1729417161700.0,0.0
-6.015556,-4.797609,6.716653,132.369995,-8.96,-28.49,1729417161723.0,0.0
-5.185246,-1.040878,4.759324,149.589996,-6.16,-37.450001,1729417161751.0,0.0
-4.625326,-0.59342,6.250053,90.93,10.01,-38.920002,1729417161760.0,0.0
-4.780859,-1.792224,7.635497,39.34,17.92,-32.34,1729417161782.0,0.0
-6.092126,-2.359323,7.9346,37.52,8.47,-27.02,1729417161800.0,0.0
-5.283352,-1.603191,7.037291,32.900002,-1.26,-23.24,1729417161820.0,0.0
-4.331009,-0.143569,5.996413,16.940001,-2.24,-7.42,1729417161840.0,0.0
-4.421937,0.232104,5.943772,-22.33,-2.24,10.08,1729417161860.0,0.0
-5.096712,-1.622334,6.183054,-86.169998,-6.58,25.059999,1729417161880.0,0.0
-5.158926,-5.541777,6.522834,-217.699997,-18.059999,17.01,1729417161901.0,0.0
-4.725825,-3.847659,6.336195,-303.940002,-19.530001,10.64,1729417161921.0,0.0
-4.570292,-2.337788,8.037491,-392.769989,-17.43,17.01,1729417161942.0,0.0
-5.304887,-4.500899,8.003991,-462.769989,-28.700001,21.280001,1729417161961.0,0.0
-5.209175,-9.24826,6.565905,-522.059998,-35.700001,6.09,1729417161981.0,0.0
-4.218546,-8.796017,4.108476,-516.599976,-33.040001,-4.06,1729417162001.0,0.0
-5.199604,-6.855437,1.11027,-362.880005,-35.560001,-13.58,1729417162024.0,0.0
-7.003791,-9.812965,2.294717,-137.199997,-30.380001,-10.15,1729417162042.0,0.0
-6.616155,-10.320245,3.665804,80.709999,-5.88,-9.52,1729417162061.0,0.0
-4.917251,-3.378666,4.476971,210.559998,3.64,-8.33,1729417162082.0,0.0
-5.489135,-2.359323,5.06082,240.029999,25.27,8.82,1729417162101.0,0.0
-6.592227,-4.768896,4.981857,248.220001,47.25,13.72,1729417162121.0,0.0
-6.750153,-6.709475,5.84088,293.860016,46.130001,0.42,1729417162146.0,0.0
-7.04447,-5.182854,7.446464,373.450012,34.439999,-9.31,1729417162161.0,0.0
-6.245267,-4.206582,10.241282,443.799988,29.190001,-5.11,1729417162182.0,0.0
-4.744967,-5.766702,11.330014,420.839996,25.200001,-17.639999,1729417162201.0,0.0
-4.591826,0.638884,9.32483,341.040009,20.860001,-37.799999,1729417162222.0,0.0
-4.845466,-1.660619,7.250252,142.660004,13.23,-41.93,1729417162240.0,0.0
-4.878965,-3.661019,6.099305,109.059998,16.17,-41.580002,1729417162261.0,0.0
-4.345366,-0.117248,7.484749,134.610001,17.780001,-35.84,1729417162282.0,0.0
-4.666004,-1.418944,7.735995,80.5,12.67,-28.139999,1729417162301.0,0.0
-4.536791,-2.151148,6.793223,36.889999,7.77,-16.940001,1729417162323.0,0.0
-4.500899,-0.818345,7.032506,-1.4,2.87,-5.11,1729417162340.0,0.0
-4.570292,-1.37348,6.585048,-70.699997,-5.88,8.75,1729417162361.0,0.0
-4.601398,-1.895115,5.276174,-150.919998,-18.27,21.42,1729417162382.0,0.0
-4.716253,-2.050649,5.546563,-259.839996,-15.68,20.65,1729417162400.0,0.0
-4.754539,-3.404987,7.472785,-373.660004,-9.17,15.33,1729417162422.0,0.0
-4.991428,-3.823731,8.482556,-474.670013,-18.83,11.13,1729417162441.0,0.0
-4.493721,-7.006185,5.455636,-519.470032,-36.540001,18.83,1729417162462.0,0.0
-5.091926,-11.906685,3.440879,-505.119995,-41.860001,-9.31,1729417162481.0,0.0
-7.252645,-9.908678,2.74696,-369.040009,-35.77,-30.66,1729417162501.0,0.0
-5.034499,-6.733403,4.06062,-165.550003,-36.400002,-18.969999,1729417162522.0,0.0
-5.225924,-4.646862,4.285545,-56.349998,-14.42,-12.81,1729417162541.0,0.0
-5.927022,-6.250053,4.134798,12.04,3.78,6.02,1729417162561.0,0.0
-6.668797,-6.211767,4.797609,169.050003,24.01,10.15,1729417162582.0,0.0
-6.367301,-4.934,4.893322,280.910004,27.790001,15.33,1729417162604.0,0.0
-6.458229,-4.979464,5.211568,397.040009,24.43,26.25,1729417162622.0,0.0
-6.869793,-5.735595,7.609176,468.860016,21.700001,20.65,1729417162641.0,0.0
-6.374479,-5.812167,9.657433,478.23999,25.34,7.98,1729417162660.0,0.0
-5.446064,-2.249253,12.404392,416.850006,18.549999,-9.52,1729417162683.0,0.0
-4.577469,-1.272982,10.516455,278.529999,0.7,-11.55,1729417162700.0,0.0
-4.110869,-1.464408,6.084948,126.559998,-4.97,-24.43,1729417162725.0,0.0
-3.85723,-1.208375,5.972485,77.07,3.64,-27.51,1729417162741.0,0.0
-4.156333,-0.411566,6.659225,46.970001,11.2,-24.15,1729417162760.0,0.0
-4.512863,-0.674776,6.893722,10.57,10.01,-14.28,1729417162781.0,0.0
-4.4674,-0.949951,7.195218,-19.879999,6.65,-1.47,1729417162800.0,0.0
-4.613362,-1.921437,7.264609,-73.360001,0.07,9.73,1729417162822.0,0.0
-4.742575,-2.366502,6.549156,-172.270004,-7.42,9.17,1729417162840.0,0.0
-5.020142,-3.732803,6.278766,-284.76001,-7.21,5.74,1729417162861.0,0.0
-5.62074,-5.414958,6.9344,-388.290009,-7.7,-5.39,1729417162881.0,0.0
-4.766503,-5.190032,8.066205,-508.690002,-22.960001,-3.57,1729417162901.0,0.0
-3.393023,-6.357729,4.453043,-548.52002,-35.07,-10.57,1729417162921.0,0.0
-5.192425,-11.868401,1.940579,-479.5,-37.59,-30.870001,1729417162940.0,0.0
-7.467999,-12.904492,2.06022,-236.320007,-36.400002,-42.0,1729417162961.0,0.0
-4.941179,-5.678168,3.95055,-23.309999,-36.610001,-27.93,1729417162980.0,0.0
-4.625326,-2.208575,4.409972,-0.63,-12.6,-16.940001,1729417163000.0,0.0
-4.938786,-3.957729,3.096312,-51.52,9.1,6.3,1729417163020.0,0.0
-4.900501,-7.84128,3.050849,-37.59,18.969999,15.190001,1729417163040.0,0.0
-5.831308,-10.095319,3.349952,88.199997,27.440001,15.190001,1729417163060.0,0.0
-6.12084,-7.767102,3.45045,281.540009,14.49,19.950001,1729417163081.0,0.0
-5.742774,-4.62054,4.029513,478.730011,0.28,30.66,1729417163100.0,0.0
-7.793423,-4.156333,7.295716,585.900024,1.61,38.360001,1729417163120.0,0.0
-6.300302,-3.007778,11.102697,555.869995,5.81,18.059999,1729417163140.0,0.0
-5.003392,-2.117648,12.921242,421.329987,14.07,13.440001,1729417163162.0,0.0
-3.940979,-2.208575,10.15514,238.0,5.04,4.34,1729417163181.0,0.0
-4.228118,-1.543371,7.41775,96.879997,1.05,-7.14,1729417163200.0,0.0
-5.54417,-2.754139,6.082555,50.889999,-4.34,-18.48,1729417163221.0,0.0
-4.59422,-1.674976,6.661618,45.849998,1.12,-12.46,1729417163240.0,0.0
-4.096512,-1.976472,6.470192,0.14,2.52,-7.49,1729417163261.0,0.0
-4.254438,-2.048256,6.319445,-43.470001,3.29,-1.33,1729417163282.0,0.0
-4.572684,-2.335395,6.65444,-114.239998,2.73,2.03,1729417163300.0,0.0
-4.931608,-3.407379,6.551548,-224.279999,0.49,-0.91,1729417163320.0,0.0
-5.319244,-6.192625,7.405786,-329.070007,-1.12,-8.82,1729417163340.0,0.0
-5.190032,-6.884151,7.836494,-428.26001,-10.43,-19.809999,1729417163360.0,0.0
-4.249653,-6.972685,8.41795,-472.290009,-26.32,-16.309999,1729417163381.0,0.0
-2.29711,-6.348158,5.702096,-474.73999,-41.16,-23.1,1729417163400.0,0.0
-3.936193,-5.931807,2.017149,-411.459991,-38.360001,-21.35,1729417163420.0,0.0
-6.60419,-7.980063,3.09392,-307.089996,-25.690001,-19.950001,1729417163440.0,0.0
-6.101698,-9.047262,2.323431,-222.949997,-18.620001,-24.15,1729417163468.0,0.0
-5.833702,-6.783652,2.215754,-108.5,-12.11,-12.18,1729417163481.0,0.0
-5.223531,-6.618547,1.844866,-48.580002,0.35,-5.53,1729417163503.0,0.0
-5.326423,-8.80798,2.467,-2.03,14.91,2.59,1729417163524.0,0.0
-5.465207,-9.710074,2.969493,154.770004,16.24,-2.24,1729417163540.0,0.0
-4.754539,-7.051648,3.213561,292.73999,3.71,1.19,1729417163561.0,0.0
-4.555934,-6.116055,4.06062,399.700012,7.14,10.64,1729417163582.0,0.0
-5.271388,-5.144568,5.843273,470.890015,17.780001,12.39,1729417163602.0,0.0
-6.195018,-2.306681,10.10489,500.640015,18.969999,20.51,1729417163623.0,0.0
-5.190032,-3.48395,12.521641,420.48999,9.87,8.12,1729417163641.0,0.0
-4.189832,-2.337788,10.329816,294.350006,2.45,2.66,1729417163662.0,0.0
-4.199404,-1.607977,7.898707,179.339996,-1.61,4.13,1729417163684.0,0.0
-5.642276,-4.436293,5.941379,95.410004,-0.49,-7.63,1729417163702.0,0.0
-4.67079,-3.184847,6.60419,76.160004,8.26,-13.09,1729417163725.0,0.0
-3.57727,-2.120041,7.467999,23.66,9.45,-10.15,1729417163742.0,0.0
-4.06062,-3.292524,6.463014,-61.880001,2.45,-9.1,1729417163765.0,0.0
-4.945964,-3.905087,6.331409,-133.139999,-2.73,-9.24,1729417163784.0,0.0
-4.87418,-4.409972,6.498906,-230.580002,-1.68,-15.05,1729417163801.0,0.0
-4.845466,-5.199604,7.250252,-340.690002,0.42,-16.799999,1729417163824.0,0.0
-4.407579,-5.850451,7.281359,-428.959991,-8.68,-18.27,1729417163844.0,0.0
-3.766303,-6.092126,6.709475,-472.429993,-30.24,-13.16,1729417163863.0,0.0
-3.352344,-6.357729,2.938386,-452.830017,-36.119999,-15.96,1729417163883.0,0.0
-5.221139,-8.386844,0.4666,-363.720001,-29.4,-20.860001,1729417163901.0,0.0
-5.106283,-11.150554,0.866202,-228.199997,-13.86,-15.82,1729417163924.0,0.0
-4.297509,-9.877571,0.351745,-74.059998,-2.17,-15.89,1729417163943.0,0.0
-5.034499,-7.91785,1.555335,72.730003,9.1,-6.93,1729417163964.0,0.0
-5.216353,-7.209574,2.900101,168.139999,15.190001,1.33,1729417163984.0,0.0
-4.711468,-5.879165,3.113062,239.399994,18.690001,4.9,1729417164003.0,0.0
-4.666004,-6.051448,3.996014,345.170013,20.02,15.47,1729417164025.0,0.0
-5.316852,-5.886343,5.465207,444.290009,20.860001,18.41,1729417164044.0,0.0
-6.104091,-4.938786,10.442278,494.690002,22.049999,16.309999,1729417164064.0,0.0
-5.252246,-4.323831,11.676974,476.559998,6.51,4.06,1729417164085.0,0.0
-4.268795,-1.962115,11.272588,398.440002,-6.44,6.51,1729417164104.0,0.0
-3.854837,-0.172283,7.733603,221.339996,-10.71,3.36,1729417164125.0,0.0
-4.606184,-3.907479,5.498707,4.48,-3.36,-10.01,1729417164143.0,0.0
-4.472186,-3.235096,6.051448,12.11,1.05,-4.06,1729417164162.0,0.0
-4.280759,-2.734996,6.506085,-17.57,-0.91,-2.1,1729417164188.0,0.0
-4.21376,-2.928815,5.936593,-116.129997,-0.98,-2.8,1729417164204.0,0.0
-4.378866,-4.766503,5.592027,-231.699997,3.36,-2.66,1729417164224.0,0.0
-4.567898,-6.034698,6.116055,-360.5,8.75,-9.17,1729417164243.0,0.0
-4.591826,-6.125626,7.178468,-472.570007,1.96,-8.89,1729417164263.0,0.0
-3.89073,-5.989235,6.171089,-521.919983,-20.02,-1.75,1729417164284.0,0.0
-3.010171,-6.503692,3.416951,-501.130005,-37.310001,6.86,1729417164304.0,0.0
-3.663411,-7.128219,-0.562313,-439.670013,-33.950001,-1.75,1729417164325.0,0.0
-6.218946,-12.150753,-0.947558,-286.089996,-16.450001,-1.4,1729417164343.0,0.0
-6.711867,-13.562519,0.038285,-51.380001,-0.35,-8.33,1729417164365.0,0.0
-5.639884,-9.24826,1.813759,179.339996,-0.84,-9.03,1729417164385.0,0.0
-4.546363,-4.800002,4.199404,258.649994,11.34,-0.84,1729417164404.0,0.0
-4.62054,-4.907679,4.864608,257.880005,31.219999,7.98,1729417164424.0,0.0
-4.802395,-7.365108,5.235496,313.25,41.720001,9.94,1729417164506.0,0.0
-4.725825,-3.629912,6.541977,403.970001,36.470001,9.87,1729417164507.0,0.0
-5.62074,-1.39023,10.578669,455.48999,22.82,16.24,1729417164507.0,0.0
-6.108876,-1.512264,12.933208,390.179993,3.64,21.700001,1729417164508.0,0.0
-4.792823,-2.641676,10.925629,265.089996,-12.67,21.35,1729417164531.0,0.0
-5.020142,-3.881158,8.283953,136.850006,-15.61,14.84,1729417164542.0,0.0
-5.431707,-4.809574,6.324231,40.110001,-9.94,-7.14,1729417164565.0,0.0
-4.953143,-4.285545,5.879165,11.9,-3.85,-15.33,1729417164583.0,0.0
-3.962514,-3.007778,6.38405,-8.89,-1.05,-13.51,1729417164604.0,0.0
-3.553342,-3.39063,6.21416,-94.080002,0.14,-17.43,1729417164633.0,0.0
-4.012764,-3.969693,6.374479,-193.059998,3.71,-16.73,1729417164643.0,0.0
-4.759324,-5.240282,7.197611,-295.470001,2.38,-16.799999,1729417164664.0,0.0
-4.295116,-5.522634,6.994221,-404.880005,-5.95,-18.83,1729417164683.0,0.0
-3.838088,-6.599405,6.503692,-448.630005,-20.299999,-9.38,1729417164703.0,0.0
-3.895515,-7.022934,5.867201,-467.179993,-33.810001,-9.87,1729417164726.0,0.0
-3.426522,-5.922236,3.20399,-481.320007,-36.259998,-9.66,1729417164743.0,0.0
-4.666004,-7.345965,0.430708,-451.220001,-30.73,-10.01,1729417164763.0,0.0
-5.793024,-12.294323,1.306481,-335.720001,-21.84,-17.5,1729417164784.0,0.0
-5.694918,-9.413363,-0.133998,-156.100006,-20.09,-24.92,1729417164802.0,0.0
-4.969893,-6.9679,0.088534,41.23,-20.09,-11.34,1729417164823.0,0.0
-4.73061,-7.704889,0.370888,59.639999,20.58,3.22,1729417164842.0,0.0
-4.541577,-9.095119,1.057628,62.510002,32.48,4.9,1729417164862.0,0.0
-3.981657,-9.145369,1.708475,113.540001,26.460001,6.23,1729417164883.0,0.0
-3.436093,-8.312666,1.256232,202.020004,19.460001,8.19,1729417164903.0,0.0
-3.795017,-6.683154,2.270789,304.220001,15.89,13.37,1729417164923.0,0.0
-4.201797,-5.826523,3.773481,374.290009,12.25,21.210001,1729417164942.0,0.0
-4.733003,-4.979464,5.702096,413.140015,13.3,24.57,1729417164966.0,0.0
-5.974878,-4.606184,9.559326,432.320007,9.45,26.040001,1729417164982.0,0.0
-5.924629,-6.015556,11.827723,414.75,-3.64,15.12,1729417165002.0,0.0
-4.900501,-3.620341,10.691131,351.610016,-8.82,8.12,1729417165023.0,0.0
-5.156533,-2.481357,10.370493,231.0,-3.5,1.68,1729417165042.0,0.0
-5.237889,-5.65424,8.365308,123.620003,-2.73,-11.34,1729417165070.0,0.0
-5.259424,-5.572884,7.207181,141.960007,-8.12,-12.81,1729417165083.0,0.0
-4.122833,-1.990828,6.549156,156.449997,-7.56,-19.74,1729417165102.0,0.0
-3.672983,-0.672383,6.101698,94.919998,-1.75,-19.25,1729417165123.0,0.0
-3.522235,-1.57687,6.345766,17.15,3.64,-2.03,1729417165143.0,0.0
-4.252046,-2.95035,6.173482,-72.800003,2.45,10.85,1729417165199.0,0.0
-4.168297,-4.06062,6.719046,-161.699997,-0.7,10.99,1729417165202.0,0.0
-3.924229,-4.862216,7.475177,-279.790009,0.84,6.44,1729417165203.0,0.0
-4.256832,-4.65404,7.408179,-390.25,0.63,-0.49,1729417165323.0,0.0
-4.371687,-5.644669,6.644868,-442.399994,-15.54,6.09,1729417165323.0,0.0
-3.816552,-7.429714,6.07777,-454.51001,-29.469999,10.43,1729417165324.0,0.0
-3.129812,-8.489735,4.04387,-450.100006,-31.99,0.77,1729417165324.0,0.0
-4.558327,-7.439285,1.246661,-375.899994,-29.190001,-9.52,1729417165324.0,0.0
-6.211767,-8.949157,2.916851,-249.130005,-22.26,-6.16,1729417165324.0,0.0
-5.295317,-10.001998,1.569692,-145.320007,-6.65,-8.96,1729417165342.0,0.0
-5.484349,-9.781858,1.311267,0.28,9.1,-7.14,1729417165361.0,0.0
-5.577669,-8.891729,3.010171,138.110001,14.63,-4.83,1729417165382.0,0.0
-5.307281,-6.494121,3.751946,210.139999,17.85,-5.46,1729417165400.0,0.0
-5.446064,-5.295317,4.165904,270.899994,20.790001,-1.89,1729417165421.0,0.0
-5.704489,-5.005785,5.501099,348.040009,21.210001,-2.38,1729417165441.0,0.0
-4.295116,-7.613962,9.135797,403.059998,16.17,-4.62,1729417165461.0,0.0
-3.895515,-7.702496,8.530413,429.589996,13.02,-18.059999,1729417165482.0,0.0
-3.84048,-3.649055,9.647861,415.660004,12.25,-25.9,1729417165507.0,0.0
-4.168297,-0.945165,8.664411,295.329987,7.0,-20.58,1729417165522.0,0.0
-3.957729,-0.918844,7.202396,131.320007,8.4,-27.65,1729417165541.0,0.0
-3.361916,-1.634298,6.769295,48.860001,13.02,-17.43,1729417165562.0,0.0
-3.165704,-1.332802,6.558727,10.64,13.02,-5.74,1729417165581.0,0.0
-4.273581,-1.935793,6.802795,-31.85,11.69,4.62,1729417165600.0,0.0
-5.010571,-3.694518,6.403193,-99.120003,6.37,9.52,1729417165626.0,0.0
-4.701896,-4.666004,6.178268,-206.220001,3.92,6.58,1729417165641.0,0.0
-5.012963,-6.690332,6.910471,-318.429993,8.4,-0.56,1729417165661.0,0.0
-5.106283,-6.754939,7.286145,-401.100006,1.96,-4.13,1729417165682.0,0.0
-4.0008,-6.520442,7.759924,-432.73999,-17.57,4.34,1729417165701.0,0.0
-1.785046,-4.268795,4.070191,-479.640015,-25.48,7.84,1729417165725.0,0.0
-5.838487,-9.77468,-0.739382,-479.290009,-26.389999,4.27,1729417165744.0,0.0
-5.587241,-13.88555,-0.200997,-325.01001,-2.45,-8.89,1729417165765.0,0.0
-5.225924,-10.987842,0.210568,-90.650002,3.36,-14.07,1729417165784.0,0.0
-5.376673,-8.10449,2.507678,95.410004,8.33,-10.15,1729417165803.0,0.0
-4.953143,-6.135197,3.371487,186.130005,12.18,-2.73,1729417165824.0,0.0
-4.74736,-6.396015,3.261417,257.880005,18.549999,4.55,1729417165843.0,0.0
-5.022535,-8.049455,4.503292,388.5,17.219999,9.1,1729417165864.0,0.0
-5.082355,-4.862216,7.068398,519.119995,7.77,11.83,1729417165885.0,0.0
-4.21376,-2.301895,11.358729,528.849976,9.03,4.76,1729417165904.0,0.0
-4.697111,-1.744368,11.617154,423.360016,7.77,11.13,1729417165924.0,0.0
-5.316852,-0.179462,10.305886,268.170013,-4.69,17.360001,1729417165945.0,0.0
-5.242674,-4.740182,7.207181,107.870003,-9.73,12.67,1729417165964.0,0.0
-3.893122,-6.324231,5.630312,56.91,-0.77,8.26,1729417165987.0,0.0
-4.012764,-4.036692,6.343372,58.310001,2.17,6.16,1729417166004.0,0.0
-4.783253,-3.993621,6.02752,-20.65,-2.52,-2.03,1729417166023.0,0.0
-4.902894,-4.512863,5.52742,-135.729996,-2.31,-9.38,1729417166043.0,0.0
-4.986642,-5.271388,5.371887,-248.919998,1.68,-14.7,1729417166063.0,0.0
-4.869394,-6.001199,7.056434,-417.690002,6.02,-18.129999,1729417166085.0,0.0
-3.641876,-6.625726,6.9009,-495.600006,-6.93,-10.15,1729417166105.0,0.0
-3.194418,-6.376873,6.742974,-487.480011,-28.84,2.45,1729417166124.0,0.0
-2.28036,-5.647062,2.529213,-448.48999,-39.619999,2.45,1729417166142.0,0.0
-4.364508,-6.805188,-1.189233,-351.119995,-27.93,7.21,1729417166163.0,0.0
-6.439085,-13.272987,0.165105,-199.220001,-2.59,4.41,1729417166183.0,0.0
-6.628119,-13.916656,-0.327817,17.639999,6.93,-4.27,1729417166203.0,0.0
-5.462814,-8.638089,2.146362,208.809998,-2.8,-5.74,1729417166229.0,0.0
-4.192225,-5.625526,3.4672,236.600006,3.99,0.28,1729417166244.0,0.0
-4.424329,-7.365108,3.74716,219.100006,19.32,4.9,1729417166263.0,0.0
-5.422136,-9.745967,3.716053,286.160004,24.92,-3.5,1729417166288.0,0.0
-4.115655,-7.013363,4.773681,380.869995,13.16,-13.79,1729417166306.0,0.0
-3.522235,-3.055635,7.68096,411.110016,16.52,-9.52,1729417166325.0,0.0
-5.309673,-1.87358,10.346564,346.220001,15.26,-3.01,1729417166344.0,0.0
-4.969893,-1.741975,10.554741,228.970001,2.03,2.24,1729417166364.0,0.0
-4.132405,-2.392823,8.580662,112.910004,-3.64,5.6,1729417166387.0,0.0
-4.0008,-5.276174,6.623333,56.420002,-5.88,9.73,1729417166403.0,0.0
-4.579862,-4.587041,6.795617,78.68,-7.7,10.57,1729417166423.0,0.0
-5.024928,-3.864408,6.73101,68.18,-12.46,11.62,1729417166443.0,0.0
-4.821537,-4.354938,6.04427,18.34,-15.26,13.440001,1729417166463.0,0.0
-4.582255,-5.022535,5.740381,-52.639999,-14.98,9.17,1729417166486.0,0.0
-4.39083,-5.223531,5.501099,-143.5,-12.88,-2.31,1729417166503.0,0.0
-4.460221,-5.35753,5.771489,-234.290009,-9.73,-7.49,1729417166525.0,0.0
-4.352544,-5.99402,6.376873,-308.630005,-11.27,-6.3,1729417166542.0,0.0
-3.713661,-6.360123,6.175875,-354.619995,-16.17,-2.52,1729417166562.0,0.0
-3.59402,-6.740582,5.402994,-364.48999,-22.190001,-1.82,1729417166584.0,0.0
-4.063013,-8.10449,4.735396,-346.149994,-26.880001,-4.62,1729417166603.0,0.0
-4.074977,-8.937192,3.95055,-289.730011,-26.74,-4.48,1729417166624.0,0.0
-4.622933,-8.700303,3.481557,-196.979996,-29.26,-2.45,1729417166643.0,0.0
-4.809574,-8.219346,2.318645,-111.090004,-31.92,-2.45,1729417166665.0,0.0
-4.529613,-7.834101,1.981257,-66.360001,-26.32,-4.48,1729417166684.0,0.0
-4.280759,-8.398808,2.134398,-51.799999,-15.75,-1.33,1729417166704.0,0.0
-4.168297,-8.647661,2.754139,-38.43,-8.82,0.21,1729417166726.0,0.0
-3.665804,-8.738588,2.426322,-27.299999,-9.38,1.4,1729417166743.0,0.0
-3.440879,-8.578269,2.665605,-35.77,-11.9,-0.56,1729417166763.0,0.0
-3.907479,-8.80798,3.055635,-50.610001,-8.33,1.61,1729417166786.0,0.0
-4.053442,-9.300901,2.924029,-60.689999,-10.08,0.77,1729417166803.0,0.0
-4.354938,-9.549755,2.785245,-58.099998,-16.030001,-1.54,1729417166824.0,0.0
-4.04387,-9.238688,1.569692,-55.369999,-23.309999,-5.74,1729417166843.0,0.0
-3.486342,-8.877372,1.007378,-55.09,-23.450001,-6.65,1729417166864.0,0.0
-3.919443,-8.819944,1.655833,-61.599998,-15.61,-4.27,1729417166886.0,0.0
-4.436293,-8.872586,2.316252,-70.07,-16.309999,-6.16,1729417166903.0,0.0
-4.438686,-9.080762,1.830509,-69.860001,-25.34,-7.21,1729417166922.0,0.0
-3.828516,-9.269794,0.208176,-68.25,-37.380001,-9.87,1729417166945.0,0.0
-3.275774,-8.55434,-0.825524,-78.050003,-36.259998,-10.43,1729417166964.0,0.0
-3.48395,-7.460821,-1.464408,-101.150002,-24.219999,-7.56,1729417166986.0,0.0
-4.613362,-8.77448,-0.679562,-123.900002,-13.72,-5.32,1729417167003.0,0.0
-4.536791,-10.506885,-0.863809,-105.279999,-15.96,-7.77,1729417167023.0,0.0
-4.388437,-9.353544,-1.339981,-65.239998,-22.049999,-11.9,1729417167042.0,0.0
-3.952943,-7.999206,-1.605584,-55.720001,-25.059999,-12.6,1729417167062.0,0.0
-3.797409,-8.652447,-1.734797,-74.199997,-16.379999,-10.22,1729417167083.0,0.0
-4.498507,-9.647861,-0.476172,-51.66,-4.97,-6.23,1729417167101.0,0.0
-4.223332,-9.542577,-0.421137,-11.34,-5.88,-4.41,1729417167122.0,0.0
-3.799802,-8.372486,-2.019542,20.719999,-6.79,0.35,1729417167141.0,0.0
-3.699304,-8.882158,-2.096112,47.810001,8.47,9.24,1729417167162.0,0.0
-4.414758,-9.547362,-1.684547,95.059998,24.99,18.41,1729417167183.0,0.0
-5.185246,-9.463614,0.083749,146.930008,33.529999,22.889999,1729417167201.0,0.0
-4.125226,-10.435099,1.18684,188.300003,30.24,24.43,1729417167222.0,0.0
-4.106083,-10.755738,1.95015,215.180008,32.34,20.370001,1729417167242.0,0.0
-3.768696,-10.167104,2.285146,240.660004,27.93,23.1,1729417167278.0,0.0
-3.337988,-10.896914,1.899901,259.350006,24.639999,19.67,1729417167283.0,0.0
-3.830909,-10.284351,2.828316,267.820007,30.59,7.21,1729417167302.0,0.0
-3.347559,-10.705488,3.287738,306.950012,26.040001,-8.33,1729417167322.0,0.0
-2.79721,-8.147561,5.065606,343.140015,24.5,-26.32,1729417167342.0,0.0
-3.536592,-3.266203,7.063612,321.649994,20.02,-22.889999,1729417167363.0,0.0
-3.627519,-0.926022,8.12124,220.990005,10.08,-13.09,1729417167385.0,0.0
-3.34038,-2.723032,7.872386,123.129997,-0.35,-2.73,1729417167402.0,0.0
-1.31366,-5.4006,5.580062,112.419998,-6.65,8.75,1729417167424.0,0.0
-2.488536,-4.828716,5.912664,121.730003,20.790001,15.96,1729417167443.0,0.0
-3.273381,-3.0006,5.991628,104.440002,34.93,15.75,1729417167463.0,0.0
-3.768696,-3.462414,6.12084,64.68,41.02,20.719999,1729417167486.0,0.0
-3.991228,-4.362115,6.357729,44.170002,40.880001,26.6,1729417167504.0,0.0
-3.608376,-2.287539,7.073184,67.199997,36.959999,41.580002,1729417167523.0,0.0
-5.407779,-3.019742,6.943972,72.590004,35.560001,56.490002,1729417167551.0,0.0
-7.056434,-2.926422,7.453642,71.82,33.25,66.989998,1729417167563.0,0.0
-9.781858,-5.91745,7.872386,46.48,29.469999,61.950001,1729417167594.0,0.0
-10.549955,-7.700103,7.133004,50.75,16.59,40.740002,1729417167604.0,0.0
-10.112068,-7.573284,7.542177,69.510002,5.53,5.6,1729417167623.0,0.0
-8.729016,-5.532206,8.310273,93.660004,-2.87,-23.309999,1729417167642.0,0.0
-8.023134,-4.309474,7.484749,72.239998,-9.45,-40.740002,1729417167666.0,0.0
-8.334201,-7.171289,6.386444,37.029999,-14.21,-54.389999,1729417167685.0,0.0
-6.936793,-5.446064,6.486942,48.369999,-16.870001,-75.040001,1729417167705.0,0.0
-5.123034,-1.923829,7.319644,63.490002,-18.41,-83.93,1729417167727.0,0.0
-1.294517,1.916651,8.075776,22.33,-15.82,-75.040001,1729417168028.0,0.0
-0.847059,2.218147,7.293324,-23.66,-11.41,-55.860001,1729417168043.0,0.0
-1.423729,0.497707,5.898308,-46.970001,-4.41,10.85,1729417168076.0,0.0
-2.957529,-2.215754,5.584848,-42.490002,7.84,30.1,1729417168079.0,0.0
-2.998207,-0.849452,5.807381,-7.77,19.18,44.450001,1729417168089.0,0.0
-3.510271,-0.349352,6.053841,6.16,29.26,64.540001,1729417168090.0,0.0
-5.419744,-2.376073,5.883951,-14.91,40.810001,77.489998,1729417168090.0,0.0
-8.123632,-6.838687,7.467999,-19.74,46.619999,83.300003,1729417168091.0,0.0
-12.607781,-11.129018,8.549555,-28.42,39.41,58.310001,1729417168091.0,0.0
-9.798609,-8.240881,9.188439,25.059999,13.93,18.129999,1729417168091.0,0.0
-7.542177,-4.893322,9.310472,30.24,-1.68,-18.41,1729417168091.0,0.0
-8.319844,-5.692525,8.451449,2.52,-12.18,-34.860001,1729417168091.0,0.0
-7.068398,-3.804588,7.183254,-0.28,-20.51,-49.77,1729417168091.0,0.0
-6.65444,-4.354938,5.943772,-12.46,-19.74,-59.779999,1729417168092.0,0.0
-5.800202,-4.063013,6.589834,-1.47,-14.49,-77.0,1729417168092.0,0.0
-3.766303,0.543171,9.810574,35.84,-12.67,-77.840004,1729417168092.0,0.0
-1.533799,1.205983,10.437491,4.34,-21.559999,-53.130001,1729417168092.0,0.0
-1.098306,2.629712,7.420143,-37.240002,-20.58,-21.98,1729417168102.0,0.0
-1.730011,0.526421,5.510671,-68.18,-14.98,8.26,1729417168123.0,0.0
-2.620141,-2.679961,3.493521,-66.080002,1.54,21.210001,1729417168142.0,0.0
-2.737389,-1.086342,4.424329,-3.5,21.49,38.709999,1729417168163.0,0.0
-3.326023,0.179462,6.51087,28.139999,36.189999,58.380001,1729417168186.0,0.0
-5.565705,-2.120041,8.166703,12.32,42.349998,78.050003,1729417168203.0,0.0
-6.455836,-3.481557,8.602197,-11.62,40.32,86.940002,1729417168224.0,0.0
-11.667403,-11.380265,8.870193,-40.950001,33.810001,83.370003,1729417168242.0,0.0
-12.468999,-10.990234,8.937192,-31.780001,12.6,30.450001,1729417168268.0,0.0
-8.513663,-6.223732,8.982656,27.440001,-16.379999,-9.24,1729417168285.0,0.0
-8.331808,-5.462814,8.961121,30.030001,-29.75,-31.219999,1729417168302.0,0.0
-8.221739,-3.9338,6.893722,14.35,-42.91,-48.720001,1729417168326.0,0.0
-5.907879,-1.782653,4.565506,5.88,-43.610001,-50.68,1729417168352.0,0.0
-6.331409,-5.20439,2.766103,-19.950001,-28.35,-58.310001,1729417168363.0,0.0
-5.596812,-5.905487,5.759524,22.049999,-9.94,-71.330002,1729417168384.0,0.0
-3.596412,-0.141177,8.757731,69.510002,-2.66,-74.269997,1729417168405.0,0.0
-2.024328,0.899701,9.444471,8.4,-4.9,-53.900002,1729417168423.0,0.0
-1.265803,0.038285,8.779266,-35.420002,-8.61,-31.710001,1729417168445.0,0.0
-0.634098,0.454636,7.209574,-38.080002,-10.5,-5.88,1729417168464.0,0.0
-1.074377,-0.634098,5.448457,-36.610001,-2.52,20.93,1729417168485.0,0.0
-2.768496,-1.679761,4.835894,-29.960001,14.98,37.240002,1729417168503.0,0.0
-2.971886,-0.605384,6.144768,3.71,26.880001,60.34,1729417168523.0,0.0
-4.331009,-0.993021,6.989435,0.07,34.02,76.300003,1729417168544.0,0.0
-7.338787,-3.622734,7.551748,-24.99,36.189999,90.370003,1729417168563.0,0.0
-7.869993,-4.957928,6.685547,-40.25,34.439999,86.029999,1729417168583.0,0.0
-13.713267,-12.997812,7.700103,-49.279999,34.09,66.639999,1729417168604.0,0.0
-11.97847,-11.77508,8.671589,7.14,8.61,6.44,1729417168625.0,0.0
-8.305488,-5.328816,9.348758,62.860001,-13.65,-32.970001,1729417168642.0,0.0
-7.788638,-3.524628,7.793423,33.25,-28.700001,-49.420002,1729417168665.0,0.0
-5.838487,-2.447858,6.305088,-2.94,-33.389999,-54.599998,1729417168692.0,0.0
-5.4341,-4.419543,5.209175,-11.83,-26.460001,-52.360001,1729417168703.0,0.0
-5.630312,-5.469993,6.23091,19.389999,-15.12,-61.25,1729417168725.0,0.0
-4.675575,-1.225125,8.690732,65.169998,-11.97,-68.739998,1729417168742.0,0.0
-2.768496,1.136591,8.126025,36.540001,-17.710001,-59.5,1729417168763.0,0.0
-2.141576,0.433101,8.324631,-26.6,-11.62,-38.990002,1729417168783.0,0.0
-1.316052,-0.153141,6.929615,-47.040001,-11.55,-15.4,1729417168805.0,0.0
-1.107877,-0.4666,5.52742,-27.299999,-6.23,12.46,1729417168824.0,0.0
-2.467,-0.760918,5.206782,-11.34,9.1,33.670002,1729417168845.0,0.0
-2.732604,-0.165105,6.640083,4.2,22.610001,55.299999,1729417168863.0,0.0
-4.331009,-1.301696,7.381857,-0.35,28.84,74.690002,1729417168884.0,0.0
-6.410372,-2.964707,6.793223,-20.16,30.1,84.980003,1729417168904.0,0.0
-8.456236,-8.106883,8.214561,-35.91,30.66,89.459999,1729417168925.0,0.0
-14.065011,-13.08874,7.422535,-56.420002,25.27,42.139999,1729417168943.0,0.0
-9.181261,-8.451449,8.860621,24.5,-3.15,-1.33,1729417168964.0,0.0
-7.68096,-4.771288,9.305687,50.119999,-16.940001,-31.5,1729417168985.0,0.0
-7.532606,-3.95055,7.345965,16.52,-31.43,-46.130001,1729417169006.0,0.0
-5.508278,-2.694318,5.575277,-3.5,-34.299999,-51.310001,1729417169059.0,0.0
-6.372087,-5.687739,4.754539,-12.81,-23.1,-54.389999,1729417169060.0,0.0
-5.13739,-3.589234,8.070991,29.049999,-12.25,-66.010002,1729417169066.0,0.0
-2.696711,1.445265,7.515855,65.730003,-12.04,-63.77,1729417169086.0,0.0
-1.892723,2.419144,8.583055,8.26,-5.32,-41.16,1729417169113.0,0.0
-1.182054,0.940379,7.726424,-42.91,-5.67,-15.82,1729417169122.0,0.0
-1.06002,-0.57667,6.754939,-46.27,-2.1,10.71,1729417169141.0,0.0
-2.931208,-1.969293,5.962914,-31.08,8.96,31.360001,1729417169162.0,0.0
-3.050849,-1.081556,6.809973,-2.52,17.99,50.330002,1729417169182.0,0.0
-4.34058,-1.385444,6.955935,0.91,23.66,67.620003,1729417169202.0,0.0
-5.898308,-3.012564,6.522834,-17.5,27.51,76.510002,1729417169223.0,0.0
-7.240681,-7.147361,7.496714,-29.4,31.639999,86.519997,1729417169243.0,0.0
-14.230117,-14.215759,8.01117,-44.099998,30.1,42.560001,1729417169262.0,0.0
-9.145369,-8.118847,9.623933,43.68,-0.84,-1.61,1729417169283.0,0.0
-7.439285,-4.058227,9.059227,52.57,-17.639999,-32.41,1729417169302.0,0.0
-7.13779,-3.546163,6.987042,9.66,-29.049999,-45.220001,1729417169323.0,0.0
-5.242674,-2.734996,5.4676,-12.95,-28.559999,-48.16,1729417169344.0,0.0
-5.871986,-5.644669,5.364708,-21.559999,-17.290001,-53.970001,1729417169366.0,0.0
-5.335995,-5.206782,7.613962,30.940001,-11.06,-61.950001,1729417169382.0,0.0
-3.87398,-0.722632,7.661818,71.260002,-15.05,-63.07,1729417169402.0,0.0
-1.033699,3.917051,7.941778,3.29,-9.24,-31.219999,1729417169423.0,0.0
-1.189233,1.430908,6.943972,-59.639999,-5.11,-1.61,1729417169524.0,0.0
-2.349752,-2.108077,5.82413,-67.129997,0.63,25.549999,1729417169527.0,0.0
-2.804388,-1.600798,5.958128,-17.43,11.13,47.25,1729417169528.0,0.0
-3.469593,-1.021735,6.695118,12.18,21.559999,67.410004,1729417169529.0,0.0
-4.675575,-1.505085,5.266603,-2.66,30.24,79.519997,1729417169529.0,0.0
-7.4345,-8.130811,5.740381,-26.25,42.420002,88.550003,1729417169542.0,0.0
-14.560326,-14.510076,6.54437,-54.25,44.66,39.060001,1729417169562.0,0.0
-7.034898,-7.82453,9.75793,50.189999,11.69,1.26,1729417169584.0,0.0
-7.532606,-5.335995,11.607583,52.009998,0.63,-23.24,1729417169602.0,0.0
-8.865408,-6.833901,9.987641,-3.22,-24.99,-46.34,1729417169625.0,0.0
-6.206983,-2.529213,6.242875,-16.1,-38.990002,-65.870003,1729417169642.0,0.0
-6.271588,-4.24726,4.587041,-29.4,-29.33,-66.639999,1729417169664.0,0.0
-6.410372,-5.455636,5.929415,1.82,-15.33,-78.75,1729417169692.0,0.0
-4.290331,0.244068,8.539984,72.940002,-11.9,-77.559998,1729417169703.0,0.0
-1.39023,4.364508,7.436893,66.57,-12.25,-54.389999,1729417169731.0,0.0
-1.146162,2.009971,7.858029,-4.06,-2.24,-19.67,1729417169741.0,0.0
-1.177269,-0.993021,6.635297,-65.239998,3.85,27.65,1729417169764.0,0.0
-2.514857,-1.768296,6.233303,-41.09,12.74,51.380001,1729417169786.0,0.0
-3.012564,-1.189233,6.537192,-10.85,21.0,74.690002,1729417169802.0,0.0
-5.005785,-2.134398,5.592027,-15.05,30.450001,89.18,1729417169823.0,0.0
-6.551548,-5.644669,6.563512,-22.960001,38.709999,99.050003,1729417169842.0,0.0
-16.7689,-15.783059,6.795617,-61.880001,45.290001,61.459999,1729417169862.0,0.0
-9.473185,-9.578469,9.186047,33.599998,5.11,0.98,1729417169885.0,0.0
-6.592227,-2.486143,9.868,66.57,-12.18,-27.58,1729417169902.0,0.0
-6.836295,-3.649055,8.542377,-20.790001,-23.870001,-34.860001,1729417169922.0,0.0
-6.769295,-5.673382,6.664011,-59.290001,-30.309999,-46.27,1729417169942.0,0.0
-5.335995,-3.696911,5.034499,-20.93,-30.799999,-51.59,1729417169965.0,0.0
-5.915058,-5.15414,5.046463,8.19,-18.41,-53.970001,1729417169983.0,0.0
-5.848059,-4.814359,7.219146,50.540001,-8.26,-64.330002,1729417170003.0,0.0
-4.146761,0.179462,9.320045,85.260002,-9.59,-60.970001,1729417170022.0,0.0
-1.572084,2.651247,7.970492,38.990002,-14.21,-41.790001,1729417170043.0,0.0
-2.120041,0.768096,8.224132,-43.889999,-6.23,-15.190001,1729417170072.0,0.0
-1.392623,-1.749153,5.532206,-77.279999,-5.46,7.56,1729417170085.0,0.0
-2.495714,-1.785046,5.321638,-25.27,11.27,41.509998,1729417170102.0,0.0
-3.113062,-0.404387,6.65444,7.56,22.120001,65.590004,1729417170124.0,0.0
-4.421937,-1.009771,7.171289,5.53,28.559999,83.019997,1729417170142.0,0.0
-5.491528,-0.545564,7.676175,-16.030001,32.619999,96.949997,1729417170162.0,0.0
-13.686946,-13.751552,7.960921,-50.889999,33.110001,98.489998,1729417170183.0,0.0
-13.629518,-13.854443,9.590433,7.0,6.93,26.880001,1729417170202.0,0.0
-7.307681,-3.531806,10.269995,87.5,-27.299999,-13.65,1729417170223.0,0.0
-6.9344,-3.469593,8.910872,11.48,-37.73,-32.549999,1729417170243.0,0.0
-7.034898,-6.642475,7.310073,-47.529999,-45.5,-49.349998,1729417170263.0,0.0
-4.146761,-4.962714,5.570491,-10.71,-50.400002,-57.959999,1729417170286.0,0.0
-5.575277,-6.381658,4.012764,16.309999,-38.009998,-57.959999,1729417170302.0,0.0
-5.393422,-5.668597,5.032106,56.77,-24.5,-68.18,1729417170321.0,0.0
-3.041277,0.90688,6.666404,87.57,-12.04,-65.940002,1729417170350.0,0.0
-2.385644,2.684747,9.174082,27.719999,-2.17,-48.09,1729417170362.0,0.0
-1.679761,1.26341,8.35813,-41.16,-7.14,-21.700001,1729417170382.0,0.0
-1.732404,-0.368495,7.02772,-53.060001,-8.19,7.35,1729417170403.0,0.0
-2.909672,-1.335195,6.156733,-36.959999,0.63,28.210001,1729417170422.0,0.0
-2.907279,-0.514457,6.941578,5.88,17.360001,56.07,1729417170443.0,0.0
-4.139583,-0.732204,7.398607,2.24,26.32,71.050003,1729417170462.0,0.0
-5.173282,-1.799403,7.121039,-23.66,31.43,81.830002,1729417170484.0,0.0
-12.203396,-13.153346,6.364908,-57.260002,33.740002,74.269997,1729417170502.0,0.0
-11.227123,-11.882757,7.329216,-13.09,20.719999,13.86,1729417170522.0,0.0
-5.479564,-3.981657,8.975478,58.029999,-0.14,-15.82,1729417170542.0,0.0
-7.207181,-5.288138,8.831908,15.75,-7.28,-25.34,1729417170561.0,0.0
-7.097112,-6.376873,7.190433,-11.97,-21.42,-40.18,1729417170582.0,0.0
-6.424729,-5.568098,5.350351,0.28,-24.99,-51.029999,1729417170602.0,0.0
-6.69751,-6.821937,5.261817,13.02,-16.870001,-65.029999,1729417170627.0,0.0
-5.206782,-2.411965,7.274181,53.689999,-7.91,-80.57,1729417170641.0,0.0
-3.567699,1.536192,8.379664,47.25,-5.25,-75.739998,1729417170663.0,0.0
-1.70369,2.266003,8.956335,0.77,-9.1,-51.310001,1729417170683.0,0.0
-1.414158,0.564706,8.504091,-38.779999,-10.43,-19.67,1729417170701.0,0.0
-2.0004,-1.275374,7.898707,-53.41,-7.63,4.97,1729417170725.0,0.0
-3.014957,-2.70389,6.295516,-45.57,-3.92,21.77,1729417170741.0,0.0
-2.672783,-2.880959,5.812167,-7.77,4.69,41.509998,1729417170761.0,0.0
-3.52702,-3.400201,6.659225,14.28,24.99,53.760002,1729417170782.0,0.0
-4.850252,-4.23051,8.520842,14.49,33.950001,61.670002,1729417170801.0,0.0
-6.491727,-5.900701,8.238488,-6.09,28.35,54.32,1729417170822.0,0.0
-7.326823,-7.568498,7.769495,-15.89,18.690001,42.279999,1729417170843.0,0.0
-6.888937,-7.865208,6.60419,-10.85,12.95,24.710001,1729417170861.0,0.0
-10.334601,-8.097312,5.704489,5.32,14.07,0.42,1729417170883.0,0.0
-8.750552,-7.257431,7.317252,36.189999,5.32,-29.82,1729417170902.0,0.0
-7.738388,-5.022535,7.460821,41.93,-5.67,-55.299999,1729417170923.0,0.0
-6.565905,-2.457429,7.446464,38.849998,-13.58,-66.57,1729417170941.0,0.0
-4.62054,-2.177469,6.709475,33.880001,-13.93,-65.660004,1729417170963.0,0.0
-5.84088,-5.321638,7.097112,18.9,-4.69,-73.290001,1729417170982.0,0.0
-3.728018,-2.9671,8.056634,52.849998,-3.29,-82.110001,1729417171001.0,0.0
-1.694118,0.959522,9.487542,61.599998,3.08,-66.290001,1729417171023.0,0.0
-0.882952,2.514857,10.083356,18.27,2.66,-35.209999,1729417171041.0,0.0
-0.078963,1.533799,8.054241,-30.24,-6.51,-4.83,1729417171061.0,0.0
-1.543371,-1.129412,5.74756,-44.380001,-3.08,26.67,1729417171083.0,0.0
-3.23031,-1.347159,5.759524,-6.65,13.86,54.389999,1729417171102.0,0.0
-4.663611,-1.485943,6.250053,16.66,21.77,70.769997,1729417171122.0,0.0
-6.506085,-1.607977,5.85763,3.99,30.24,79.590004,1729417171141.0,0.0
-8.085347,-7.099504,7.585248,-19.32,37.170002,90.580002,1729417171162.0,0.0
-14.42872,-13.048061,8.69791,-43.400002,35.0,42.560001,1729417171182.0,0.0
-8.743374,-7.233503,10.717452,37.380001,-0.7,2.03,1729417171202.0,0.0
-7.386643,-4.469792,9.269794,34.860001,-16.73,-29.68,1729417171222.0,0.0
-6.491727,-4.0008,6.853044,-4.83,-25.549999,-45.990002,1729417171241.0,0.0
-5.218746,-4.113262,4.95075,-28.700001,-21.07,-54.040001,1729417171263.0,0.0
-5.529813,-5.757132,5.402994,-14.7,-10.01,-58.73,1729417171291.0,0.0
-5.139783,-4.520042,7.819745,46.830002,-6.79,-61.32,1729417171302.0,0.0
-3.802195,-0.246461,9.872787,80.989998,-14.56,-57.119999,1729417171322.0,0.0
-1.978864,1.581656,10.023535,43.119999,-24.01,-39.619999,1729417171341.0,0.0
-1.356731,1.694118,8.389235,-28.700001,-25.48,-17.290001,1729417171362.0,0.0
-2.15354,-0.332602,4.804788,-82.32,-18.549999,9.52,1729417171382.0,0.0
-2.323431,-1.682154,3.491128,-64.68,-2.52,31.710001,1729417171400.0,0.0
-3.235096,-0.993021,6.015556,-6.58,16.52,51.099998,1729417171421.0,0.0
-5.017749,-0.552742,5.838487,20.790001,33.110001,74.970001,1729417171443.0,0.0
-5.352744,-3.180061,7.585248,6.44,39.759998,90.720001,1729417171461.0,0.0
-14.074582,-12.244074,7.623533,-30.309999,42.77,67.340004,1729417171482.0,0.0
-8.238488,-8.197811,10.978271,40.740002,13.02,18.76,1729417171502.0,0.0
-6.793223,-4.807181,11.674582,63.630001,-3.78,-2.94,1729417171521.0,0.0
-7.927422,-6.089733,11.23191,23.1,-23.24,-26.950001,1729417171542.0,0.0
-6.431907,-4.776074,7.958528,0.28,-39.619999,-52.009998,1729417171561.0,0.0
-4.342973,-3.117848,5.24746,-2.38,-37.66,-59.779999,1729417171582.0,0.0
-6.455836,-5.690133,4.618148,-8.54,-20.16,-67.129997,1729417171600.0,0.0
-5.594419,-4.378866,7.582855,43.540001,-12.32,-71.889999,1729417171626.0,0.0
-3.730411,0.191426,9.004191,75.669998,-17.290001,-66.010002,1729417171641.0,0.0
-1.715654,2.811567,7.195218,34.299999,-18.41,-48.299999,1729417171661.0,0.0
-1.572084,2.897708,7.025328,-20.58,-8.47,-20.16,1729417171682.0,0.0
-2.526821,0.177069,5.766702,-53.34,-1.26,6.72,1729417171701.0,0.0
-3.225525,-1.521835,5.615955,-27.719999,7.77,29.469999,1729417171725.0,0.0
-3.416951,-0.591027,6.719046,13.86,19.6,46.689999,1729417171741.0,0.0
-5.185246,-1.024128,7.032506,19.809999,28.700001,60.48,1729417171761.0,0.0
-3.696911,-0.681954,7.257431,-9.03,38.290001,75.529999,1729417171783.0,0.0
-10.985448,-12.074183,7.578069,-51.59,44.59,71.330002,1729417171802.0,0.0
-9.724431,-10.9017,10.638489,1.89,29.960001,22.889999,1729417171821.0,0.0
-6.422336,-5.209175,11.356337,58.170002,1.96,-5.32,1729417171841.0,0.0
-7.82453,-5.438886,10.293922,24.219999,-18.129999,-25.76,1729417171861.0,0.0
-7.003791,-2.828316,7.51107,-13.86,-32.900002,-44.66,1729417171891.0,0.0
-5.816952,-4.316652,5.257031,-30.380001,-34.02,-51.869999,1729417171902.0,0.0
-6.616155,-7.152147,6.084948,-6.16,-23.1,-65.519997,1729417171922.0,0.0
-5.297709,-3.445665,9.06162,65.099998,-20.719999,-77.489998,1729417171940.0,0.0
-3.85723,0.729811,8.812766,76.720001,-28.42,-75.879997,1729417171961.0,0.0
-1.840081,3.534199,7.575676,16.309999,-26.74,-60.34,1729417171982.0,0.0
-1.37348,2.261217,6.991827,-47.810001,-17.639999,-30.73,1729417172000.0,0.0
-1.064806,0.715454,5.505885,-62.860001,-9.8,-2.38,1729417172021.0,0.0
-2.842674,-0.734596,4.800002,-24.710001,4.06,26.389999,1729417172041.0,0.0
-2.45025,0.933201,5.79063,21.49,20.299999,47.18,1729417172061.0,0.0
-3.314059,1.29691,6.836295,30.66,35.490002,70.840004,1729417172081.0,0.0
-6.07777,-0.057428,7.767102,11.27,45.57,91.419998,1729417172102.0,0.0
-6.183054,-4.48415,7.970492,-49.279999,46.970001,110.040001,1729417172120.0,0.0
-14.29233,-13.136597,7.960921,-72.660004,45.779999,80.43,1729417172140.0,0.0
-8.305488,-8.233703,9.710074,8.89,16.59,27.93,1729417172161.0,0.0
-6.013163,-2.737389,8.922836,26.74,0.21,6.44,1729417172181.0,0.0
-5.472386,-0.942772,8.288737,-15.05,-6.93,2.1,1729417172200.0,0.0
-4.740182,0.571885,7.506285,-69.790001,-9.87,8.26,1729417172221.0,0.0
-4.453043,1.045663,7.274181,-139.580002,-5.74,24.780001,1729417172240.0,0.0
-5.469993,-2.639283,7.147361,-212.380005,-9.38,35.07,1729417172263.0,0.0
-6.726225,-5.4676,7.37468,-242.199997,-20.09,36.610001,1729417172290.0,0.0
-6.79083,-4.402793,7.085148,-269.079987,-32.200001,31.43,1729417172301.0,0.0
-7.063612,-4.912465,5.529813,-326.690002,-40.810001,21.629999,1729417172324.0,0.0
-6.580262,-8.013563,4.017549,-392.769989,-47.670002,0.21,1729417172348.0,0.0
-6.52762,-8.690732,3.005385,-426.369995,-43.610001,-22.540001,1729417172361.0,0.0
-5.793024,-8.650054,1.725225,-428.190002,-46.34,-38.150002,1729417172381.0,0.0
-4.462614,-8.827123,-0.193819,-404.390015,-46.900002,-50.610001,1729417172400.0,0.0
-3.919443,-10.803595,-2.617748,-294.140015,-42.560001,-45.849998,1729417172420.0,0.0
-5.130211,-12.047862,-0.18664,-91.980003,-26.18,-65.870003,1729417172440.0,0.0
-4.572684,-10.358529,1.282553,-43.119999,-10.71,-73.709999,1729417172551.0,0.0
-3.522235,-9.994821,1.134198,-47.810001,-6.79,-78.120003,1729417172552.0,0.0
-2.57707,-10.236496,0.299103,-70.349998,-1.05,-78.959999,1729417172552.0,0.0
-1.471586,-9.875179,0.98345,-64.330002,8.19,-72.519997,1729417172552.0,0.0
-1.189233,-9.236296,0.681954,-30.66,20.09,-58.52,1729417172553.0,0.0
-0.990629,-8.094919,1.89033,42.98,24.08,-40.529999,1729417172585.0,0.0
-0.189033,-5.565705,2.043471,118.300003,16.030001,-16.17,1729417172588.0,0.0
0.035892,-4.311867,2.108077,155.610001,14.77,12.74,1729417172600.0,0.0
-1.174876,-4.146761,3.09392,152.460007,21.139999,41.580002,1729417172620.0,0.0
-3.031706,-4.675575,4.862216,143.080002,16.309999,64.82,1729417172666.0,0.0
-3.48395,-5.54417,5.737988,130.970001,4.83,77.139999,1729417172668.0,0.0
-4.0008,-6.656832,6.874579,77.699997,-5.18,79.099998,1729417172681.0,0.0
-4.847858,-8.4012,6.709475,8.26,-19.530001,78.959999,1729417172700.0,0.0
-4.744967,-7.630712,4.182654,-42.209999,-35.560001,83.650002,1729417172722.0,0.0
-5.493921,-9.980463,2.596212,-81.900002,-34.439999,82.32,1729417172739.0,0.0
-6.30748,-10.470992,-0.074178,-75.18,-26.74,77.349998,1729417172760.0,0.0
-7.348359,-11.179268,-0.815953,-20.16,-8.75,60.830002,1729417172781.0,0.0
-7.936993,-11.485549,-0.748954,47.110001,1.4,45.990002,1729417172799.0,0.0
-7.84128,-10.004392,-0.713061,101.43,6.51,29.190001,1729417172821.0,0.0
-7.855636,-9.123833,0.265603,95.129997,18.41,6.93,1729417172841.0,0.0
-7.735995,-9.19801,1.507478,68.599998,25.27,-12.81,1729417172860.0,0.0
-8.788837,-10.344172,2.562713,40.459999,27.65,-32.900002,1729417172882.0,0.0
-9.851252,-11.576476,1.337588,9.45,28.07,-63.84,1729417172901.0,0.0
-8.664411,-9.992428,-0.705883,-4.34,30.73,-94.010002,1729417172920.0,0.0
-6.386444,-7.336394,-1.87358,-26.880001,48.02,-116.480003,1729417172940.0,0.0
-3.081956,-6.905686,0.78006,-47.670002,66.989998,-128.100006,1729417172960.0,0.0
0.607777,-6.183054,6.245267,41.860001,50.75,-90.790001,1729417172980.0,0.0
-1.411765,-1.98365,11.779866,116.970001,28.280001,-51.310001,1729417173000.0,0.0
-2.550749,0.150748,12.126825,80.080002,-6.72,-18.620001,1729417173020.0,0.0
0.514457,-0.784846,7.9681,-54.529999,-40.950001,-4.13,1729417173040.0,0.0
0.5001,-7.221539,4.127619,-154.770004,-45.290001,16.940001,1729417173060.0,0.0
-2.151148,-11.889936,2.146362,-134.190002,-29.120001,38.43,1729417173082.0,0.0
-2.218147,-5.881558,2.033899,-45.849998,-29.889999,56.91,1729417173100.0,0.0
-3.522235,-6.4343,1.213161,19.110001,-42.98,83.510002,1729417173122.0,0.0
-5.922236,-7.929814,1.782653,18.34,-41.650002,89.389999,1729417173141.0,0.0
-8.874979,-8.970692,1.423729,-1.54,-33.670002,78.260002,1729417173160.0,0.0
-11.205588,-12.303895,-0.68674,-33.32,-18.34,55.790001,1729417173183.0,0.0
-11.377872,-15.05564,-2.467,-30.380001,0.77,15.61,1729417173200.0,0.0
-9.96132,-13.686946,-2.62732,7.98,24.15,-34.02,1729417173221.0,0.0
-9.77468,-12.452249,-0.212961,38.990002,42.98,-75.599998,1729417173240.0,0.0
-8.587841,-9.480364,1.237089,21.07,52.150002,-111.440002,1729417173260.0,0.0
-5.520242,-7.896315,2.151148,-12.32,47.459999,-126.910004,1729417173280.0,0.0
1.275374,-4.878965,6.338587,26.18,24.219999,-109.059998,1729417173300.0,0.0
3.402594,-3.227918,7.984849,101.010002,-0.56,-72.800003,1729417173320.0,0.0
-2.452643,-0.600598,11.925828,101.709999,-1.26,-19.32,1729417173340.0,0.0
1.72044,-1.481157,8.319844,-5.81,-32.060001,-5.32,1729417173362.0,0.0
2.995814,-6.017949,3.89073,-82.25,-40.810001,27.65,1729417173381.0,0.0
-0.784846,-11.093125,1.095913,-94.5,-19.809999,51.869999,1729417173400.0,0.0
-4.055835,-10.545169,0.387637,-44.66,-15.4,62.93,1729417173422.0,0.0
-3.900301,-6.630512,1.071985,52.639999,-34.369999,81.970001,1729417173440.0,0.0
-8.398808,-7.290931,3.579663,60.060001,-24.780001,95.059998,1729417173461.0,0.0
-10.951948,-8.712267,2.242075,-7.28,-16.309999,73.57,1729417173481.0,0.0
-10.96152,-11.595619,-0.232104,-59.43,-3.22,40.25,1729417173500.0,0.0
-11.196017,-14.665611,-2.029114,-55.93,19.389999,2.73,1729417173520.0,0.0
-11.332408,-14.737395,-1.007378,11.62,39.900002,-47.18,1729417173540.0,0.0
-10.803595,-11.282159,0.215354,60.41,48.23,-94.779999,1729417173560.0,0.0
-7.077969,-7.534998,1.213161,40.110001,49.209999,-120.050003,1729417173580.0,0.0
-3.795017,-5.793024,1.40698,-3.36,51.450001,-128.309998,1729417173601.0,0.0
3.663411,-8.128418,5.65424,89.25,31.08,-96.25,1729417173620.0,0.0
2.206182,-0.681954,11.703296,193.339996,13.72,-63.139999,1729417173640.0,0.0
1.272982,4.149154,12.890135,131.880005,-10.36,-12.81,1729417173660.0,0.0
2.620141,1.002593,8.585447,-23.73,-36.959999,30.450001,1729417173680.0,0.0
1.521835,-7.013363,3.481557,-122.639999,-46.759998,63.98,1729417173699.0,0.0
-3.002992,-11.97847,1.813759,-114.870003,-28.42,77.769997,1729417173722.0,0.0
-4.675575,-9.463614,1.777867,-35.700001,-32.200001,89.32,1729417173740.0,0.0
-5.321638,-10.645668,2.955136,22.889999,-41.299999,92.540001,1729417173760.0,0.0
-10.626525,-10.963913,2.524428,41.790001,-23.379999,82.529999,1729417173781.0,0.0
-11.475977,-11.174481,1.634298,9.66,-2.59,37.099998,1729417173799.0,0.0
-11.088341,-13.483556,-0.832702,-18.27,11.2,-10.01,1729417173820.0,0.0
-10.061819,-14.328221,-1.17009,15.26,28.630001,-63.420002,1729417173840.0,0.0
-9.607183,-11.301301,1.184447,60.130001,45.43,-107.239998,1729417173860.0,0.0
-7.159326,-6.936793,2.931208,38.5,47.529999,-124.32,1729417173880.0,0.0
-0.418744,1.091127,4.668397,-10.85,41.720001,-126.910004,1729417173900.0,0.0
6.896115,-2.586641,8.60459,79.800003,23.59,-69.019997,1729417173920.0,0.0
1.026521,4.792823,14.622539,146.440002,14.56,-16.940001,1729417173940.0,0.0
-1.043271,1.481157,9.226725,-38.220001,-13.02,18.129999,1729417173960.0,0.0
-0.078963,-6.982256,3.395415,-156.660004,-27.93,44.66,1729417173981.0,0.0
-1.524228,-10.810772,1.39023,-138.669998,-13.65,68.040001,1729417174000.0,0.0
-3.304488,-10.585848,1.507478,-56.07,-9.31,84.209999,1729417174020.0,0.0
-3.287738,-9.473185,0.251246,30.1,-25.41,95.970001,1729417174040.0,0.0
-7.01097,-9.865608,1.4668,70.840004,-21.280001,96.879997,1729417174060.0,0.0
-9.767502,-9.379865,1.998007,45.990002,-11.97,82.110001,1729417174082.0,0.0
-10.238889,-10.762917,1.629512,-21.07,-2.87,49.349998,1729417174099.0,0.0
-10.277173,-14.761322,0.291924,-62.790001,8.47,-23.309999,1729417174119.0,0.0
-10.423136,-15.043676,0.555135,-12.18,24.08,-68.18,1729417174139.0,0.0
-10.432706,-10.939985,1.600798,36.119999,34.02,-105.419998,1729417174160.0,0.0
-7.712067,-5.692525,2.916851,46.27,27.719999,-118.370003,1729417174180.0,0.0
0.282353,4.587041,3.955336,9.17,26.110001,-116.550003,1729417174200.0,0.0
7.338787,0.911665,7.853244,40.810001,17.08,-63.560001,1729417174220.0,0.0
0.375673,-0.409173,12.23211,56.139999,28.559999,5.81,1729417174239.0,0.0
-0.538385,-3.9673,8.810372,-29.33,-0.63,28.49,1729417174260.0,0.0
-0.01675,-8.480164,3.924229,-104.019997,-18.34,53.200001,1729417174281.0,0.0
-2.804388,-11.933006,2.799603,-108.150002,-16.379999,65.379997,1729417174300.0,0.0
-3.835695,-10.272388,2.998207,-46.549999,-18.969999,71.68,1729417174320.0,0.0
-3.744767,-8.240881,2.682354,24.290001,-32.900002,80.43,1729417174339.0,0.0
-6.537192,-7.37468,3.785445,63.91,-33.529999,89.32,1729417174360.0,0.0
-8.922836,-6.951149,4.022335,29.4,-27.23,82.599998,1729417174380.0,0.0
-11.284552,-9.482756,2.17029,-49.98,-19.950001,63.98,1729417174400.0,0.0
-10.628918,-13.351951,-1.792224,-74.690002,-12.53,20.93,1729417174420.0,0.0
-10.688738,-14.019548,-2.232504,-22.68,10.22,-25.129999,1729417174439.0,0.0
-10.518847,-11.339586,0.157926,49.349998,31.639999,-99.82,1729417174503.0,0.0
-7.357929,-6.941578,2.380858,32.830002,33.740002,-122.57,1729417174504.0,0.0
-3.65384,-3.337988,1.713261,-20.370001,36.330002,-129.919998,1729417174504.0,0.0
4.694718,-4.76411,5.996413,43.330002,34.02,-90.160004,1729417174532.0,0.0
1.045663,0.605384,13.028918,141.75,24.780001,-46.060001,1729417174539.0,0.0
-3.031706,0.07657,11.040483,34.580002,2.73,-46.060001,1729417174560.0,0.0
0.976272,-5.240282,4.790431,-116.760002,-25.48,14.28,1729417174580.0,0.0
0.153141,-9.485149,2.163112,-125.790001,-21.42,38.990002,1729417174599.0,0.0
-2.976671,-10.315458,1.777867,-57.330002,-9.45,59.080002,1729417174622.0,0.0
-2.696711,-7.836494,1.287339,24.15,-13.16,79.169998,1729417174640.0,0.0
-3.739982,-6.472585,1.198804,70.629997,-15.190001,97.160004,1729417174659.0,0.0
-7.271788,-6.9009,2.59382,73.639999,-10.01,108.709999,1729417174680.0,0.0
-9.772287,-7.582855,3.589234,30.17,-3.71,97.510002,1729417174699.0,0.0
-11.538191,-9.669396,4.335794,-47.740002,-3.43,70.559998,1729417174723.0,0.0
-11.449656,-12.16511,-0.457029,-108.150002,-5.88,23.52,1729417174740.0,0.0
-9.987641,-14.919249,-2.222932,-83.510002,7.84,-30.030001,1729417174760.0,0.0
-9.719646,-12.172288,0.612563,8.47,28.630001,-80.43,1729417174780.0,0.0
-7.578069,-6.013163,2.658426,64.120003,36.049999,-118.790001,1729417174799.0,0.0
-4.663611,-6.04427,1.904687,-11.55,33.740002,-126.980003,1729417174823.0,0.0
2.488536,-5.000999,6.520442,-0.35,34.369999,-107.660004,1729417174839.0,0.0
3.471986,-0.425922,9.449257,127.959999,9.24,-55.09,1729417174859.0,0.0
-2.514857,1.081556,10.944772,78.260002,6.51,5.67,1729417174879.0,0.0
-0.689133,-4.407579,5.723632,-91.559998,-16.52,17.219999,1729417174899.0,0.0
-0.605384,-9.671788,2.143969,-130.339996,-21.559999,35.630001,1729417174920.0,0.0
-3.232704,-12.222539,1.246661,-71.190002,-10.01,54.18,1729417174939.0,0.0
-4.740182,-8.84148,1.308874,14.42,-12.67,62.790001,1729417174961.0,0.0
-3.474378,-5.9677,1.234696,79.870003,-25.27,79.239998,1729417174981.0,0.0
-6.422336,-6.474977,3.168097,89.809998,-17.5,91.699997,1729417174999.0,0.0
-9.779467,-6.242875,4.599005,53.200001,-10.01,87.43,1729417175019.0,0.0
-11.085947,-8.595018,4.146761,-47.880001,-7.7,58.66,1729417175039.0,0.0
-10.949556,-12.815958,-0.473779,-112.0,-4.83,14.84,1729417175060.0,0.0
-10.030712,-15.134604,-2.160719,-64.470001,11.83,-30.52,1729417175080.0,0.0
-9.724431,-13.464413,-0.471386,24.5,29.82,-74.410004,1729417175099.0,0.0
-6.809973,-6.855437,1.854438,57.610001,34.509998,-103.809998,1729417175119.0,0.0
-3.818945,-5.831308,0.772882,-23.940001,36.889999,-115.989998,1729417175138.0,0.0
3.038885,-5.082355,6.955935,35.630001,42.07,-87.360001,1729417175170.0,0.0
3.828516,2.088934,11.014162,177.589996,21.210001,-38.290001,1729417175242.0,0.0
-3.062813,2.667997,12.94517,72.800003,17.15,25.27,1729417175243.0,0.0
-2.591427,-5.675776,6.113662,-159.880005,-17.15,37.029999,1729417175243.0,0.0
-2.548356,-12.892529,1.387837,-212.449997,-32.759998,48.09,1729417175244.0,0.0
-3.802195,-12.736995,0.430708,-95.900002,-31.57,59.920002,1729417175259.0,0.0
-3.869194,-8.305488,0.007178,39.060001,-35.91,68.599998,1729417175280.0,0.0
-4.9675,-6.80758,0.595813,96.25,-29.82,83.650002,1729417175298.0,0.0
-8.190632,-6.520442,2.962314,96.32,-13.72,86.449997,1729417175321.0,0.0
-9.801002,-6.407979,3.249453,31.639999,-6.23,73.5,1729417175341.0,0.0
-10.370493,-11.030912,1.701297,-63.84,-1.4,38.43,1729417175360.0,0.0
-10.542776,-14.041083,-0.784846,-77.209999,8.05,-7.84,1729417175385.0,0.0
-9.336794,-12.382857,-0.717847,-7.98,18.200001,-50.68,1729417175399.0,0.0
-9.329616,-11.030912,0.579063,31.92,30.66,-87.919998,1729417175419.0,0.0
-8.561519,-7.444071,1.208375,9.45,42.139999,-113.330002,1729417175438.0,0.0
-4.065405,-4.539185,1.825724,-40.810001,46.48,-121.730003,1729417175466.0,0.0
3.491128,-6.65444,4.859823,62.09,27.719999,-78.190002,1729417175479.0,0.0
1.598405,0.119641,11.751152,184.800003,11.34,-35.98,1729417175500.0,0.0
-4.488935,-0.57667,12.002398,38.220001,4.34,5.39,1729417175520.0,0.0
-1.782653,-5.233103,5.855237,-143.149994,-27.93,9.59,1729417175538.0,0.0
-1.179662,-10.13839,2.11047,-174.720001,-39.130001,22.68,1729417175558.0,0.0
-2.768496,-11.062018,0.904487,-91.0,-32.34,44.450001,1729417175578.0,0.0
-4.003192,-8.865408,0.624527,1.89,-32.759998,60.619999,1729417175598.0,0.0
-3.859623,-7.537392,0.323031,69.440002,-36.189999,73.5,1729417175618.0,0.0
-5.867201,-7.487142,1.631905,90.790001,-27.299999,79.519997,1729417175638.0,0.0
-9.475577,-6.965507,3.366701,51.66,-11.9,68.110001,1729417175658.0,0.0
-10.621738,-9.195618,2.17029,-27.299999,-8.4,49.0,1729417175678.0,0.0
-9.501899,-12.897314,-0.892523,-73.010002,-2.8,6.58,1729417175698.0,0.0
-9.133404,-13.806586,-1.65344,-29.82,16.24,-33.040001,1729417175720.0,0.0
-10.243673,-13.385449,-0.184247,30.380001,33.810001,-74.059998,1729417175738.0,0.0
-7.097112,-8.535198,2.007578,41.790001,38.009998,-107.379997,1729417175759.0,0.0
-2.840281,-1.648655,1.787439,-19.460001,40.740002,-122.709999,1729417175780.0,0.0
4.711468,-6.068198,5.412565,93.449997,22.540001,-74.900002,1729417175798.0,0.0
-1.048056,1.239482,12.193825,180.880005,17.43,-29.049999,1729417175819.0,0.0
-3.804588,-0.145962,10.016356,39.34,-8.4,3.43,1729417175839.0,0.0
-0.332602,-5.297709,4.524827,-104.93,-33.25,21.35,1729417175859.0,0.0
-0.995414,-10.040283,1.507478,-123.410004,-31.43,41.02,1729417175880.0,0.0
-3.661019,-11.380265,0.555135,-65.099998,-21.77,53.830002,1729417175899.0,0.0
-4.103691,-8.659625,0.397209,22.26,-24.5,64.68,1729417175919.0,0.0
-4.376472,-6.915257,0.72024,71.889999,-25.059999,73.709999,1729417175941.0,0.0
-7.142576,-6.465407,2.859423,61.110001,-11.13,78.050003,1729417175961.0,0.0
-9.456435,-7.690532,3.09392,-5.88,-3.64,58.099998,1729417175981.0,0.0
-10.025927,-11.480762,0.847059,-70.139999,-3.78,30.309999,1729417176001.0,0.0
-10.19821,-14.689538,-0.768096,-79.099998,10.92,-10.43,1729417176020.0,0.0
-10.210175,-13.22513,-0.435494,-70.209999,37.240002,-59.849998,1729417176040.0,0.0
-7.341179,-9.626326,-0.01675,-80.639999,55.23,-98.139999,1729417176061.0,0.0
-3.85723,-5.63749,-1.079163,-91.769997,63.139999,-119.07,1729417176080.0,0.0
3.055635,-7.652246,7.927422,49.77,47.25,-74.690002,1729417176102.0,0.0
0.325424,2.256432,12.552748,168.559998,24.57,-40.040001,1729417176121.0,0.0
-1.665405,-0.909273,9.595219,17.780001,-6.79,3.08,1729417176140.0,0.0
-0.748954,-8.848659,3.742374,-118.580002,-30.450001,25.41,1729417176161.0,0.0
-1.174876,-11.406586,0.346959,-99.610001,-36.470001,43.330002,1729417176191.0,0.0
-3.249453,-12.098111,-0.31346,-40.459999,-31.219999,55.439999,1729417176201.0,0.0
-3.536592,-8.413164,-0.208176,42.209999,-32.060001,61.880001,1729417176222.0,0.0
-3.854837,-5.87438,-0.071785,94.290001,-33.25,77.769997,1729417176244.0,0.0
-6.836295,-5.831308,1.964507,95.690002,-20.09,90.019997,1729417176262.0,0.0
-9.772287,-7.977671,2.201397,49.98,-10.29,78.540001,1729417176282.0,0.0
-11.294124,-12.067005,1.399801,-5.04,-2.1,49.209999,1729417176304.0,0.0
-11.674582,-14.057834,0.514457,-14.7,12.25,-2.38,1729417176323.0,0.0
-10.100104,-12.416357,0.239282,6.44,26.18,-55.02,1729417176342.0,0.0
-8.410772,-10.13839,1.268196,1.96,39.41,-94.150002,1729417176362.0,0.0
-6.12084,-9.025726,2.737389,-21.139999,43.82,-119.279999,1729417176382.0,0.0
0.12682,-2.392823,3.799802,-3.92,36.330002,-116.199997,1729417176402.0,0.0
4.520042,-5.091926,7.243074,126.840004,7.35,-62.790001,1729417176422.0,0.0
-2.306681,2.986243,11.956935,161.139999,6.93,-20.58,1729417176442.0,0.0
-2.589034,-1.160519,8.018349,-41.509998,-17.360001,0.7,1729417176465.0,0.0
-0.136391,-7.006185,3.055635,-158.059998,-31.15,20.299999,1729417176486.0,0.0
-0.847059,-9.784252,0.751346,-135.169998,-25.41,45.849998,1729417176502.0,0.0
-3.404987,-10.683953,-0.284746,-81.410004,-22.33,64.68,1729417176522.0,0.0
-3.59402,-9.166903,-0.933201,-20.860001,-26.880001,72.099998,1729417176542.0,0.0
-4.73061,-8.099705,-0.31346,39.130001,-27.58,84.629997,1729417176562.0,0.0
-8.154739,-8.336594,2.098505,62.93,-21.629999,82.18,1729417176586.0,0.0
-11.796617,-11.236694,1.904687,17.08,-9.87,50.049999,1729417176602.0,0.0
-12.277573,-13.320844,0.260818,-22.469999,-0.07,7.91,1729417176625.0,0.0
-9.789038,-12.622139,-1.258625,-30.799999,17.08,-43.189999,1729417176642.0,0.0
-9.111869,-12.069397,-1.150948,-30.799999,41.790001,-80.709999,1729417176662.0,0.0
-8.226524,-10.585848,0.12682,-17.290001,53.619999,-103.529999,1729417176683.0,0.0
-2.163112,-0.521635,0.825524,-10.71,52.009998,-114.590004,1729417176701.0,0.0
2.880959,-5.302495,7.142576,97.370003,23.799999,-60.130001,1729417176727.0,0.0
-1.299303,1.57687,10.810772,170.169998,7.56,-28.49,1729417176743.0,0.0
-2.036292,-0.942772,8.51127,32.619999,-17.780001,5.74,1729417176762.0,0.0
-0.440279,-6.391229,4.347759,-106.75,-30.940001,23.59,1729417176784.0,0.0
-0.447458,-10.499706,1.246661,-119.699997,-37.450001,43.959999,1729417176802.0,0.0
-2.598605,-11.949757,0.18664,-65.519997,-35.91,55.09,1729417176825.0,0.0
-3.261417,-9.238688,-0.301496,9.45,-34.860001,60.060001,1729417176842.0,0.0
-3.371487,-7.082755,1.146162,68.949997,-30.799999,72.660004,1729417176864.0,0.0
-6.108876,-6.71426,3.864408,83.650002,-23.030001,81.900002,1729417176882.0,0.0
-8.843873,-8.676375,2.947958,25.200001,-19.809999,69.230003,1729417176901.0,0.0
-10.533205,-11.796617,1.751546,-33.950001,-12.67,43.189999,1729417176922.0,0.0
-10.231709,-13.184454,-0.351745,-48.650002,-2.59,4.9,1729417176942.0,0.0
-8.798409,-12.538391,-1.67019,-38.990002,16.66,-36.68,1729417176963.0,0.0
-8.484949,-12.327823,-1.083949,-15.33,37.939999,-69.860001,1729417176982.0,0.0
-7.369894,-10.116854,-0.004786,3.78,48.02,-92.959999,1729417177003.0,0.0
-5.022535,-8.659625,1.294517,-0.28,54.670002,-104.860001,1729417177022.0,0.0
1.234696,-4.675575,6.352944,52.080002,52.779999,-78.68,1729417177041.0,0.0
0.638884,-2.885744,9.437292,146.789993,28.630001,-40.18,1729417177061.0,0.0
-4.567898,-0.502493,11.246266,101.639999,8.82,-4.27,1729417177082.0,0.0
-1.526621,-4.283153,6.951149,-60.619999,-29.960001,2.59,1729417177101.0,0.0
-0.89013,-7.666604,2.699104,-139.369995,-42.209999,20.299999,1729417177122.0,0.0
-2.443072,-10.590633,0.191426,-121.169998,-44.450001,33.670002,1729417177141.0,0.0
-3.795017,-10.377672,-0.495314,-56.700001,-41.02,42.98,1729417177161.0,0.0
-3.421736,-8.267202,-0.021535,26.32,-45.57,53.27,1729417177182.0,0.0
-4.383651,-7.613962,1.658226,69.720001,-43.889999,64.959999,1729417177202.0,0.0
-7.472785,-8.269595,2.734996,53.619999,-34.16,61.389999,1729417177221.0,0.0
-9.363115,-10.640882,0.861416,1.12,-27.02,39.759998,1729417177241.0,0.0
-8.85823,-11.593226,-0.358923,-30.1,-11.9,10.36,1729417177261.0,0.0
-8.176274,-12.026326,-0.646062,-52.43,12.04,-21.77,1729417177283.0,0.0
-7.276574,-11.590833,-0.504886,-40.32,32.759998,-53.689999,1729417177302.0,0.0
-6.750153,-9.513863,0.679562,13.3,40.110001,-63.84,1729417177323.0,0.0
-4.871787,-7.587641,2.155933,35.0,44.240002,-70.209999,1729417177340.0,0.0
-3.424129,-4.443472,4.103691,37.029999,49.560001,-65.239998,1729417177361.0,0.0
-1.088734,-4.744967,5.929415,56.279999,31.57,-35.490002,1729417177381.0,0.0
-3.26381,-3.562913,7.350751,74.059998,13.23,-14.07,1729417177401.0,0.0
-5.20439,-4.438686,7.566105,43.400002,-12.74,1.96,1729417177421.0,0.0
-4.974678,-6.151947,5.71406,-21.77,-34.860001,3.5,1729417177441.0,0.0
-4.713861,-7.432107,3.744767,-51.73,-45.43,10.64,1729417177464.0,0.0
-4.476971,-7.537392,1.770689,-45.920002,-48.650002,16.66,1729417177483.0,0.0
-3.830909,-7.898707,0.839881,-25.48,-41.23,24.99,1729417177508.0,0.0
-3.471986,-8.444271,0.859023,-5.46,-30.73,37.240002,1729417177525.0,0.0
-3.213561,-9.564112,1.667797,25.9,-25.34,48.509998,1729417177542.0,0.0
-3.251846,-10.298709,1.684547,58.59,-21.42,52.009998,1729417177562.0,0.0
-3.309274,-9.556933,2.45025,106.540001,-17.710001,53.619999,1729417177583.0,0.0
-3.534199,-7.688138,3.871587,135.940002,-13.58,56.420002,1729417177602.0,0.0
-4.35733,-7.903493,4.606184,126.559998,-6.23,53.619999,1729417177624.0,0.0
-4.713861,-9.638289,4.079762,117.110001,3.08,42.07,1729417177641.0,0.0
-4.532006,-11.184053,4.465007,143.009995,10.36,29.26,1729417177662.0,0.0
-4.713861,-10.832308,5.182854,186.270004,14.21,10.15,1729417177684.0,0.0
-4.742575,-6.996613,7.077969,218.75,17.08,-8.4,1729417177702.0,0.0
-4.735396,-6.534799,7.862815,163.800003,11.48,-27.440001,1729417177725.0,0.0
-4.23051,-6.812366,6.750153,136.710007,3.57,-33.459999,1729417177741.0,0.0
-3.512664,-5.225924,6.422336,169.470001,2.73,-30.59,1729417177761.0,0.0
-4.141976,-2.962314,7.240681,195.789993,9.38,-24.92,1729417177783.0,0.0
-4.800002,-2.569891,7.867601,183.470001,11.55,-25.690001,1729417177804.0,0.0
-5.513064,-3.065206,7.128219,157.009995,11.06,-25.200001,1729417177823.0,0.0
-5.742774,-3.98405,7.305287,152.809998,12.67,-19.460001,1729417177842.0,0.0
-6.032306,-3.582055,8.087741,153.020004,10.78,-24.08,1729417177863.0,0.0
-6.348158,-1.732404,8.889337,155.190002,3.5,-26.67,1729417177883.0,0.0
-6.276374,-0.141177,8.037491,140.0,-5.11,-19.879999,1729417177902.0,0.0
-5.881558,-0.131605,7.338787,88.760002,-7.21,-12.46,1729417177922.0,0.0
-5.438886,0.028714,7.022934,18.690001,-3.92,-6.51,1729417177943.0,0.0
-5.254639,-0.435494,7.752745,-54.740002,2.31,0.49,1729417177966.0,0.0
-4.814359,-1.284946,7.312466,-137.339996,6.86,4.9,1729417177986.0,0.0
-4.084548,-2.26361,6.52762,-235.550003,10.43,9.73,1729417178004.0,0.0
-4.37408,-2.622534,6.999006,-310.100006,15.96,9.1,1729417178023.0,0.0
-5.173282,-2.995814,7.188039,-406.769989,14.0,9.8,1729417178044.0,0.0
-5.431707,-3.766303,5.520242,-505.679993,7.63,10.99,1729417178073.0,0.0
-5.721239,-4.658825,3.438486,-583.52002,5.39,7.56,1729417178085.0,0.0
-5.718846,-6.108876,-0.193819,-645.330017,9.17,-2.45,1729417178103.0,0.0
-5.134997,-9.365508,-4.630112,-626.5,12.11,-9.8,1729417178123.0,0.0
-4.752146,-11.583653,-6.597012,-483.839996,23.309999,-8.47,1729417178145.0,0.0
-5.443672,-10.365707,-6.288338,-294.559998,38.5,-3.99,1729417178165.0,0.0
-5.625526,-10.877771,-4.601398,-143.220001,42.91,-4.06,1729417178185.0,0.0
-4.900501,-10.499706,-2.526821,-11.13,31.57,-13.93,1729417178204.0,0.0
-4.474578,-10.999805,-2.304288,94.360001,8.26,-22.33,1729417178227.0,0.0
-4.273581,-10.743774,-2.519642,201.600006,-11.62,-26.67,1729417178243.0,0.0
-4.429115,-8.535198,-2.098505,307.860016,-20.299999,-23.66,1729417178263.0,0.0
-4.608576,-6.429514,-0.050249,402.640015,-22.33,-11.13,1729417178285.0,0.0
-4.371687,-4.864608,1.579263,480.269989,-24.08,3.5,1729417178304.0,0.0
-4.510471,-5.615955,1.875973,571.619995,-15.61,27.02,1729417178323.0,0.0
-6.281159,-7.834101,7.089933,594.650024,6.93,20.58,1729417178344.0,0.0
-6.594619,-5.946165,10.573883,535.289978,-2.38,-3.08,1729417178364.0,0.0
-4.469792,-4.632504,10.222138,401.450012,-15.75,-24.5,1729417178394.0,0.0
-4.981857,-3.684947,6.216553,292.950012,-7.77,-22.82,1729417178405.0,0.0
-5.012963,2.490928,5.723632,208.740005,1.96,-19.67,1729417178423.0,0.0
-3.885944,4.725825,6.314659,54.32,10.99,-14.63,1729417178443.0,0.0
-4.388437,0.770489,6.673582,-95.410004,17.639999,5.46,1729417178463.0,0.0
-5.024928,-2.15354,7.944171,-176.190002,17.43,21.280001,1729417178483.0,0.0
-5.039285,-2.629712,7.298109,-255.360001,17.290001,21.35,1729417178503.0,0.0
-4.912465,-2.691926,5.757132,-349.860016,26.950001,16.59,1729417178525.0,0.0
-5.862415,-4.04387,6.532406,-445.690002,34.790001,16.309999,1729417178544.0,0.0
-6.025128,-5.551349,6.092126,-553.210022,30.66,13.02,1729417178564.0,0.0
-5.146961,-6.089733,4.520042,-630.210022,14.7,8.12,1729417178585.0,0.0
-4.855037,-5.647062,-0.430708,-651.559998,0.77,2.66,1729417178602.0,0.0
-5.07757,-8.62134,-6.568298,-598.98999,7.98,6.3,1729417178624.0,0.0
-5.958128,-13.552947,-7.599605,-432.320007,29.33,6.09,1729417178643.0,0.0
-5.642276,-10.545169,-4.323831,-58.799999,22.33,-1.26,1729417178664.0,0.0
-4.948357,-10.150353,-2.349752,80.43,7.28,-8.68,1729417178683.0,0.0
-4.448257,-10.829915,-1.866402,178.220001,-15.4,-15.54,1729417178704.0,0.0
-4.486543,-10.073784,-1.103091,269.570007,-27.02,-24.43,1729417178728.0,0.0
-4.9675,-7.858029,-0.095713,385.839996,-31.99,-21.98,1729417178744.0,0.0
-5.649454,-8.233703,0.847059,529.900024,-36.119999,-10.43,1729417178765.0,0.0
-5.649454,-9.609575,3.876373,603.820007,-32.619999,-10.29,1729417178784.0,0.0
-5.228317,-8.255238,6.551548,568.400024,-26.6,-24.08,1729417178804.0,0.0
-5.108676,-9.178867,7.683353,542.289978,-20.02,-35.630001,1729417178825.0,0.0
-5.745167,-9.439686,7.228717,557.409973,-26.040001,-48.93,1729417178843.0,0.0
-6.329016,0.215354,4.307081,542.150024,-36.330002,-61.670002,1729417178863.0,0.0
-5.867201,8.516055,3.505485,349.579987,-25.059999,-68.599998,1729417178884.0,0.0
-1.655833,7.771888,3.553342,28.84,9.94,-58.799999,1729417178904.0,0.0
-2.206182,0.564706,4.912465,-165.759995,38.43,-17.99,1729417179083.0,0.0
-3.148954,-3.481557,6.711867,-195.720001,39.830002,8.19,1729417179083.0,0.0
-4.630112,-2.634498,8.142776,-184.309998,29.049999,28.210001,1729417179083.0,0.0
-6.108876,-1.275374,8.178668,-239.259995,23.870001,40.599998,1729417179083.0,0.0
-5.814559,-3.208775,6.498906,-429.23999,23.870001,40.389999,1729417179084.0,0.0
-4.63729,-4.577469,3.199204,-538.369995,12.6,37.869999,1729417179084.0,0.0
-4.998606,-7.171289,2.837888,-598.5,12.11,42.0,1729417179084.0,0.0
-5.740381,-7.503892,0.856631,-660.309998,12.6,27.790001,1729417179084.0,0.0
-6.072984,-9.52822,-3.04367,-639.72998,9.24,19.530001,1729417179095.0,0.0
-6.317052,-12.153147,-5.680561,-485.100006,11.2,9.1,1729417179105.0,0.0
-6.666404,-13.201202,-6.640083,-274.399994,17.99,2.59,1729417179125.0,0.0
-5.82413,-12.265609,-5.041678,-97.090004,25.620001,-8.19,1729417179141.0,0.0
-5.048856,-10.38485,-1.892723,26.32,22.68,-14.63,1729417179162.0,0.0
-4.65404,-10.561919,-2.11047,149.100006,3.64,-19.32,1729417179190.0,0.0
-5.132604,-8.740981,-1.713261,288.399994,-17.219999,-17.290001,1729417179202.0,0.0
-5.520242,-6.573084,-1.880759,376.040009,-23.870001,-9.8,1729417179224.0,0.0
-6.068198,-7.970492,-1.418944,455.279999,-23.59,-3.43,1729417179244.0,0.0
-6.51087,-10.561919,2.07697,555.940002,-11.55,-17.639999,1729417179263.0,0.0
-5.9677,-8.501699,7.269395,597.659973,-16.1,-37.029999,1729417179284.0,0.0
-4.493721,-7.71446,8.422735,536.059998,-38.220001,-50.82,1729417179304.0,0.0
-5.312066,-4.84068,4.697111,508.619995,-40.599998,-61.32,1729417179324.0,0.0
-6.192625,5.625526,3.895515,495.670013,-41.509998,-38.849998,1729417179342.0,0.0
-1.947758,7.692925,4.677969,203.770004,-5.81,-49.700001,1729417179363.0,0.0
-2.438286,2.431108,6.293124,-59.779999,28.700001,-21.629999,1729417179384.0,0.0
-4.012764,-2.376073,7.039684,-145.460007,29.540001,11.34,1729417179404.0,0.0
-4.520042,-3.235096,7.001399,-148.399994,18.200001,30.450001,1729417179424.0,0.0
-5.388636,-2.287539,5.460421,-194.389999,20.58,39.34,1729417179533.0,0.0
-5.742774,-3.352344,4.027121,-318.850006,34.439999,37.52,1729417179534.0,0.0
-5.35753,-5.572884,4.328616,-454.160004,49.420002,36.959999,1729417179537.0,0.0
-5.883951,-7.350751,6.465407,-574.419983,48.93,36.400002,1729417179537.0,0.0
-7.018148,-5.647062,1.445265,-673.539978,41.93,26.6,1729417179542.0,0.0
-4.737789,-9.523434,-8.365308,-687.400024,-0.07,13.3,1729417179562.0,0.0
-5.611169,-14.122439,-9.710074,-354.339996,6.86,8.47,1729417179584.0,0.0
-6.553941,-14.239687,-5.955735,-136.009995,17.99,4.27,1729417179607.0,0.0
-6.362515,-13.751552,-2.230111,15.26,14.07,-13.02,1729417179666.0,0.0
-5.845665,-11.382657,-1.818545,177.380005,-5.25,-30.17,1729417179666.0,0.0
-4.98425,-9.911072,-2.354537,346.570007,-17.5,-30.450001,1729417179667.0,0.0
-4.733003,-8.9683,-1.418944,564.549988,-12.11,-25.549999,1729417179689.0,0.0
-5.831308,-7.116255,4.524827,616.349976,-1.33,-36.189999,1729417179733.0,0.0
-6.130411,-5.455636,8.642875,573.929993,-15.68,-46.130001,1729417179735.0,0.0
-3.249453,-6.419943,8.140383,516.530029,-41.369999,-43.68,1729417179750.0,0.0
-3.866802,-3.09392,5.261817,501.339996,-45.220001,-29.75,1729417179761.0,0.0
-4.565506,3.402594,5.182854,408.660004,-35.630001,-20.299999,1729417179786.0,0.0
-3.352344,4.759324,5.386244,166.740005,-10.64,-20.790001,1729417180009.0,0.0
-3.641876,0.698704,4.488935,-53.830002,12.74,-3.29,1729417180009.0,0.0
-4.108476,-2.038685,4.785645,-163.940002,24.710001,11.83,1729417180009.0,0.0
-4.601398,-2.689533,5.316852,-241.360001,37.799999,18.620001,1729417180009.0,0.0
-5.206782,-3.17049,5.838487,-322.559998,52.920002,25.27,1729417180010.0,0.0
-6.166305,-2.522035,6.553941,-455.209991,59.849998,29.469999,1729417180010.0,0.0
-5.843273,-1.816152,5.503492,-624.679993,50.049999,34.720001,1729417180010.0,0.0
-6.223732,-3.969693,4.421937,-772.099976,33.389999,35.420002,1729417180010.0,0.0
-4.974678,-8.642875,-3.902694,-803.73999,2.8,12.11,1729417180010.0,0.0
-5.292924,-15.823736,-10.963913,-570.289978,-19.67,7.7,1729417180011.0,0.0
-7.104291,-14.007583,-7.025328,-142.309998,0.35,-8.96,1729417180011.0,0.0
-6.096912,-11.519048,-3.235096,-2.59,5.74,-22.889999,1729417180025.0,0.0
-4.666004,-11.140982,-2.321038,87.639999,2.73,-30.450001,1729417180042.0,0.0
-4.472186,-10.454242,-3.069991,212.729996,-4.41,-31.15,1729417180075.0,0.0
-5.163712,-7.673782,-2.189433,353.920013,-5.32,-21.559999,1729417180082.0,0.0
-5.398208,-7.367501,-2.213361,472.360016,-9.87,-9.8,1729417180102.0,0.0
-5.228317,-8.796017,0.562313,585.830017,-10.22,-11.13,1729417180124.0,0.0
-5.367101,-7.274181,6.068198,613.900024,-11.69,-30.799999,1729417180144.0,0.0
-4.98425,-5.802595,9.789038,510.720001,-22.33,-45.290001,1729417180163.0,0.0
-3.955336,-7.427321,7.520642,412.720001,-27.860001,-46.130001,1729417180185.0,0.0
-4.981857,-2.318645,5.079963,415.309998,-34.439999,-31.57,1729417180202.0,0.0
-3.306881,4.266403,3.864408,327.950012,-31.57,-20.51,1729417180232.0,0.0
-2.201397,3.979264,3.649055,64.260002,7.63,-17.85,1729417180242.0,0.0
-3.548556,-0.224925,4.701896,-155.680008,45.009998,2.45,1729417180264.0,0.0
-4.632504,-3.223132,6.07777,-237.089996,48.02,29.889999,1729417180285.0,0.0
-5.048856,-3.495914,6.573084,-310.029999,44.66,40.040001,1729417180303.0,0.0
-6.233303,-2.490928,5.331209,-455.140015,48.860001,35.420002,1729417180324.0,0.0
-5.876772,-5.962914,1.674976,-668.289978,30.870001,42.77,1729417180342.0,0.0
-5.063213,-10.612168,-2.184647,-677.320007,14.7,34.650002,1729417180362.0,0.0
-5.87438,-13.100704,-5.000999,-549.849976,10.57,15.61,1729417180385.0,0.0
-6.704689,-13.232309,-5.776274,-330.26001,6.65,-0.56,1729417180403.0,0.0
-6.317052,-11.803794,-4.354938,-105.139999,3.29,-9.24,1729417180424.0,0.0
-5.618347,-12.205789,-2.495714,27.02,0.77,-15.47,1729417180444.0,0.0
-5.20439,-11.047661,-3.960121,145.809998,-2.1,-21.98,1729417180495.0,0.0
-5.936593,-11.586047,-2.708675,312.899994,-5.53,-22.469999,1729417180495.0,0.0
-6.01077,-7.618747,-0.691526,525.140015,-16.59,-25.34,1729417180517.0,0.0
-5.15414,-5.580062,2.964707,635.25,-26.809999,-21.700001,1729417180527.0,0.0
-6.118448,-6.01077,9.279366,578.76001,-28.139999,-29.68,1729417180548.0,0.0
-5.271388,-8.157133,9.934999,455.070007,-43.049999,-44.73,1729417180570.0,0.0
-3.742374,-6.979864,7.664211,399.769989,-47.32,-43.470001,1729417180582.0,0.0
-3.235096,1.962115,3.912265,361.130005,-50.75,-17.43,1729417180601.0,0.0
-3.184847,3.993621,3.321238,177.240005,-25.9,-12.18,1729417180937.0,0.0
-3.639483,1.423729,2.292324,-56.139999,17.85,-9.31,1729417180941.0,0.0
-5.254639,-3.134598,5.807381,-201.110001,46.549999,6.72,1729417180942.0,0.0
-4.601398,-4.228118,5.302495,-366.380005,56.560001,24.99,1729417180942.0,0.0
-3.806981,-3.95055,2.210968,-484.610016,66.849998,31.43,1729417180942.0,0.0
-5.111069,-7.025328,1.349552,-589.75,67.900002,42.349998,1729417180942.0,0.0
-5.424529,-9.013763,1.354338,-612.429993,46.34,36.049999,1729417180943.0,0.0
-5.4676,-8.563912,-0.643669,-546.559998,23.870001,25.129999,1729417180943.0,0.0
-6.946364,-13.414164,-4.500899,-437.570007,5.46,11.27,1729417180943.0,0.0
-7.513463,-14.610575,-5.541777,-235.479996,-3.36,-7.56,1729417180943.0,0.0
-7.164111,-12.842279,-3.053242,-57.119999,-3.92,-21.84,1729417180943.0,0.0
-5.965307,-11.858829,-2.397608,52.5,-6.02,-28.91,1729417180944.0,0.0
-5.489135,-10.217353,-3.95055,148.75,-8.05,-29.540001,1729417180944.0,0.0
-5.960521,-10.317852,-3.345166,267.190002,-7.21,-27.02,1729417180944.0,0.0
-6.396015,-6.939186,-1.569692,415.799988,-9.03,-25.969999,1729417180944.0,0.0
-5.257031,-7.092326,1.043271,572.73999,-26.389999,-18.34,1729417180945.0,0.0
-4.735396,-8.647661,6.104091,633.01001,-29.610001,-31.219999,1729417180945.0,0.0
-3.304488,-5.383851,7.702496,556.780029,-37.450001,-46.27,1729417180961.0,0.0
-2.998207,-4.82393,8.391629,479.080017,-45.43,-34.09,1729417180983.0,0.0
-4.618148,-2.883351,5.781059,440.51001,-46.619999,-22.049999,1729417181000.0,0.0
-3.081956,2.830709,4.359723,310.380005,-28.559999,-9.17,1729417181022.0,0.0
-3.115455,2.261217,3.723232,101.43,5.32,-5.95,1729417181043.0,0.0
-3.833302,0.830309,5.479564,-69.650002,31.08,6.93,1729417181061.0,0.0
-4.481757,-2.574677,6.702296,-178.779999,42.84,17.780001,1729417181083.0,0.0
-4.168297,-3.847659,6.692725,-263.059998,48.720001,17.360001,1729417181102.0,0.0
-4.850252,-3.364309,7.951349,-339.220001,54.740002,22.610001,1729417181122.0,0.0
-5.481956,-1.677369,8.099705,-486.220001,46.900002,24.639999,1729417181141.0,0.0
-6.020342,-2.498107,4.634897,-648.47998,32.48,24.01,1729417181163.0,0.0
-6.58744,-7.341179,0.083749,-729.890015,18.969999,17.08,1729417181182.0,0.0
-5.778666,-12.335001,-4.309474,-640.98999,8.68,-2.45,1729417181202.0,0.0
-6.422336,-12.581462,-6.479764,-411.040009,9.8,-10.71,1729417181221.0,0.0
-6.149554,-11.100305,-6.74776,-183.330002,17.639999,-10.85,1729417181241.0,0.0
-5.599205,-10.777272,-4.989035,-27.65,25.27,-16.1,1729417181262.0,0.0
-6.522834,-10.880164,-1.45005,106.190002,14.98,-20.370001,1729417181287.0,0.0
-6.515656,-10.004392,-1.79701,233.660004,-7.7,-29.469999,1729417181416.0,0.0
-5.237889,-7.396214,-0.241675,346.98999,-20.440001,-31.780001,1729417181416.0,0.0
-4.302295,-7.025328,4.412365,427.350006,-24.639999,-23.870001,1729417181416.0,0.0
-3.469593,-8.367701,4.955536,546.210022,-42.630001,-16.450001,1729417181417.0,0.0
-2.804388,-5.965307,7.484749,535.359985,-39.060001,-16.030001,1729417181417.0,0.0
-4.072584,-3.311667,9.394222,458.290009,-34.650002,-12.25,1729417181417.0,0.0
-3.89073,-3.704089,8.056634,367.640015,-36.330002,-2.17,1729417181421.0,0.0
-3.086741,-2.045863,5.395815,264.110016,-23.940001,3.22,1729417181443.0,0.0
-3.144169,1.473979,4.218546,146.229996,-0.35,8.05,1729417181711.0,0.0
-4.108476,-0.72024,4.577469,24.710001,23.940001,21.84,1729417181713.0,0.0
-5.536992,-5.319244,4.706682,-61.18,40.18,22.190001,1729417181714.0,0.0
-5.438886,-5.716454,4.345366,-95.410004,46.689999,16.73,1729417181715.0,0.0
-6.003592,-2.830709,5.075177,-160.509995,62.580002,6.86,1729417181716.0,0.0
-6.640083,-2.888137,6.369694,-287.839996,76.580002,1.68,1729417181717.0,0.0
-6.151947,-5.108676,9.497113,-424.899994,63.84,1.4,1729417181717.0,0.0
-6.087341,-5.046463,9.255438,-571.200012,30.309999,-8.54,1729417181729.0,0.0
-5.536992,-6.664011,4.862216,-648.059998,-11.34,-5.53,1729417181731.0,0.0
-4.354938,-10.643275,-2.400001,-583.72998,-25.27,-25.9,1729417181732.0,0.0
-5.347959,-12.023933,-4.886144,-385.350006,-10.43,-22.4,1729417181733.0,0.0
-5.063213,-10.863414,-5.503492,-152.110001,-1.89,-7.56,1729417181733.0,0.0
-5.515456,-10.980663,-3.206382,13.02,9.59,0.84,1729417181734.0,0.0
-6.02752,-11.12184,-2.160719,133.070007,8.05,-5.81,1729417181735.0,0.0
-5.489135,-10.068997,-1.902294,248.639999,0.21,-17.43,1729417181741.0,0.0
-5.051248,-6.513263,-0.212961,355.950012,-7.91,-17.08,1729417181763.0,0.0
-5.113462,-5.876772,1.409373,420.279999,-11.76,-4.83,1729417181790.0,0.0
-4.843073,-6.955935,2.524428,525.840027,-19.809999,2.8,1729417181801.0,0.0
-5.536992,-6.180661,7.020542,567.280029,-21.629999,4.69,1729417181822.0,0.0
-5.429315,-5.343173,9.710074,482.929993,-28.84,-13.02,1729417181841.0,0.0
-4.323831,-6.427122,9.619147,373.380005,-35.07,-18.83,1729417181862.0,0.0
-4.101298,-5.582455,7.381857,304.709991,-32.689999,-19.809999,1729417181885.0,0.0
-3.424129,0.784846,6.537192,249.830002,-26.389999,-10.5,1729417181905.0,0.0
-2.65364,2.646462,5.740381,112.349998,-12.95,-2.59,1729417181923.0,0.0
-3.359523,-1.473979,4.878965,-30.940001,7.7,8.33,1729417181944.0,0.0
-5.199604,-3.172883,7.726424,-102.129997,23.73,17.5,1729417181962.0,0.0
-5.541777,-3.134598,6.999006,-265.440002,35.0,11.55,1729417181983.0,0.0
-4.304688,-2.792424,5.391029,-381.779999,40.599998,9.8,1729417182003.0,0.0
