acc_x,acc_y,acc_z,gyr_x,gyr_y,gyr_z,timestamp,label
-11.595619,-7.970492,-14.644074,-132.860001,-0.14,2.66,1729416498986.0,0.0
-5.599205,-11.710474,-6.738188,17.99,34.580002,-33.32,1729416498991.0,0.0
-8.542377,-7.121039,-0.667598,51.310001,53.760002,-42.630001,1729416498991.0,0.0
-6.257231,-9.040084,-4.460221,-48.23,66.5,-48.720001,1729416498992.0,0.0
-4.869394,-9.095119,-4.517649,-47.740002,83.090004,-46.759998,1729416499011.0,0.0
-2.328217,-7.300502,2.029114,21.0,83.720001,-36.889999,1729416499034.0,0.0
-0.672383,-6.628119,5.65424,38.920002,58.380001,-16.66,1729416499050.0,0.0
1.469193,-7.769495,5.795416,16.52,15.47,-4.83,1729416499071.0,0.0
-1.07677,-7.534998,3.017349,-5.04,-26.25,8.82,1729416499091.0,0.0
-4.254438,-7.668997,-2.062613,-47.389999,-45.290001,16.799999,1729416499112.0,0.0
-3.696911,-12.428321,-6.190232,-106.82,-50.259998,12.04,1729416499131.0,0.0
-4.735396,-11.985649,-6.640083,-140.419998,-45.57,1.61,1729416499151.0,0.0
-9.21476,-10.695917,-3.835695,-152.880005,-26.25,-9.73,1729416499171.0,0.0
-8.262416,-5.058427,-3.09392,-105.279999,-30.799999,-21.91,1729416499191.0,0.0
-7.850852,-4.352544,-9.236296,-6.23,-39.900002,-28.139999,1729416499212.0,0.0
-8.729016,-6.802795,-11.052447,83.019997,1.47,-12.46,1729416499231.0,0.0
-5.986843,-6.903293,-7.470392,126.559998,36.540001,-17.85,1729416499251.0,0.0
-7.77428,-8.853443,-3.225525,97.720001,47.950001,-23.24,1729416499271.0,0.0
-7.865208,-9.10469,-1.902294,21.0,51.029999,-42.279999,1729416499291.0,0.0
-3.866802,-9.186047,-1.48355,10.15,33.110001,-53.830002,1729416499313.0,0.0
-3.909872,-8.341379,-0.837488,36.470001,28.700001,-49.349998,1729416499334.0,0.0
-2.155933,-9.607183,-0.358923,65.309998,19.040001,-41.93,1729416499352.0,0.0
-3.428915,-9.497113,0.433101,71.68,16.799999,-40.950001,1729416499372.0,0.0
-2.988636,-10.456635,0.892523,95.550003,-8.12,-33.950001,1729416499393.0,0.0
-2.096112,-10.813165,-1.088734,121.590004,-33.32,-34.580002,1729416499413.0,0.0
-1.976472,-10.15514,-1.629512,147.699997,-46.619999,-25.83,1729416499433.0,0.0
-1.880759,-10.423136,-1.892723,156.449997,-52.5,-27.440001,1729416499452.0,0.0
-2.050649,-10.887343,-2.108077,153.580002,-53.900002,-30.870001,1729416499472.0,0.0
-1.78026,-9.80818,-1.024128,161.770004,-46.41,-30.52,1729416499493.0,0.0
-1.741975,-8.003991,0.133998,178.710007,-37.450001,-17.43,1729416499517.0,0.0
-2.086541,-6.26441,1.067199,179.690002,-36.119999,-8.61,1729416499533.0,0.0
-2.313859,-5.261817,0.658026,151.339996,-38.009998,2.59,1729416499553.0,0.0
-2.380858,-5.627919,0.540778,118.370003,-33.25,12.39,1729416499572.0,0.0
-3.541377,-6.939186,1.639083,99.050003,-23.59,21.77,1729416499592.0,0.0
-3.498307,-6.424729,2.026721,114.800003,-18.549999,40.25,1729416499616.0,0.0
-3.120241,-5.180461,2.294717,116.480003,-12.88,54.110001,1729416499633.0,0.0
-2.249253,-5.381458,2.062613,98.419998,0.21,65.309998,1729416499652.0,0.0
-1.832902,-6.049056,1.330409,106.260002,16.66,93.239998,1729416499674.0,0.0
-1.368695,-6.52762,2.553142,137.690002,47.389999,111.860001,1729416499693.0,0.0
-2.433501,-9.250652,4.34058,186.199997,85.610001,136.919998,1729416499714.0,0.0
-5.635098,-7.80778,3.696911,241.570007,108.5,155.610001,1729416499733.0,0.0
-14.352149,-5.965307,22.468603,231.350006,104.860001,158.619995,1729416499752.0,0.0
-7.812566,-7.200003,0.035892,-8.61,12.32,121.870003,1729416499772.0,0.0
-13.167704,-11.866007,-2.048256,-148.889999,43.470001,50.049999,1729416499794.0,0.0
-15.278172,-6.67119,6.156733,25.41,46.130001,62.23,1729416499815.0,0.0
-11.432907,-11.574083,6.168696,-52.849998,8.33,-49.490002,1729416499835.0,0.0
-5.821737,-8.650054,5.922236,-8.26,-27.370001,-70.769997,1729416499852.0,0.0
-5.986843,-6.113662,5.867201,26.950001,-29.889999,-73.919998,1729416499874.0,0.0
-4.426722,-5.955735,4.553542,-26.040001,-28.35,-75.32,1729416499892.0,0.0
-3.816552,-6.108876,4.125226,-56.209999,-21.559999,-72.800003,1729416499914.0,0.0
-3.538985,-8.018349,3.402594,-56.560001,-12.81,-67.410004,1729416499933.0,0.0
-3.464807,-7.432107,3.189633,4.55,-4.27,-52.220001,1729416499954.0,0.0
-3.046063,-5.45085,3.443272,53.41,-1.33,-40.950001,1729416499972.0,0.0
-3.285345,-4.177868,4.445865,64.120003,3.57,-24.639999,1729416499994.0,0.0
-3.89073,-4.809574,5.151747,26.040001,6.93,-11.48,1729416500014.0,0.0
-4.185047,-5.326423,5.383851,-22.4,9.8,-8.96,1729416500035.0,0.0
-4.689932,-5.012963,5.587241,-26.6,9.38,-0.14,1729416500052.0,0.0
-3.955336,-5.134997,4.010371,-2.45,9.94,4.41,1729416500072.0,0.0
-2.993421,-6.448657,3.096312,17.639999,16.379999,17.639999,1729416500093.0,0.0
-4.795217,-9.958927,6.754939,63.279999,49.77,32.830002,1729416500116.0,0.0
-8.133204,-6.867401,10.040283,164.360001,38.920002,49.630001,1729416500132.0,0.0
-6.611369,8.910872,3.869194,44.66,-8.12,13.65,1729416500153.0,0.0
0.787239,-4.95075,-5.084748,-152.669998,-12.18,46.970001,1729416500173.0,0.0
-13.904692,-6.695118,5.534599,-139.020004,86.940002,34.09,1729416500193.0,0.0
-10.820344,-12.921242,6.123233,-136.220001,37.66,-16.030001,1729416500213.0,0.0
-7.168896,-11.810973,3.771089,-103.32,-4.69,-58.380001,1729416500233.0,0.0
-4.601398,-10.403993,3.431308,-40.459999,-11.9,-68.040001,1729416500251.0,0.0
-3.615555,-8.386844,3.98405,-29.889999,-2.03,-79.379997,1729416500273.0,0.0
-3.701697,-8.767302,4.275974,-76.720001,8.4,-84.980003,1729416500293.0,0.0
-3.76391,-9.616754,3.699304,-92.68,8.75,-86.730003,1729416500314.0,0.0
-3.455236,-9.908678,3.285345,-81.129997,7.28,-87.849998,1729416500332.0,0.0
-3.175276,-9.171689,3.079563,-73.919998,8.4,-89.32,1729416500352.0,0.0
-3.237489,-8.724231,2.907279,-84.0,12.95,-90.019997,1729416500371.0,0.0
-3.18724,-9.025726,2.459821,-99.260002,18.27,-87.360001,1729416500392.0,0.0
-3.141776,-9.353544,1.981257,-112.559998,24.01,-84.840004,1729416500414.0,0.0
-3.04367,-9.425328,1.579263,-119.980003,29.75,-81.970001,1729416500435.0,0.0
-2.912065,-9.066404,0.923629,-125.440002,34.860001,-77.0,1729416500451.0,0.0
-3.007778,-9.370294,0.502493,-128.589996,40.529999,-72.379997,1729416500473.0,0.0
-2.708675,-9.576077,-0.205783,-129.570007,42.560001,-68.599998,1729416500491.0,0.0
-2.232504,-9.573684,-0.847059,-123.059998,44.029999,-62.790001,1729416500512.0,0.0
-2.053042,-9.255438,-1.323231,-114.169998,46.549999,-55.09,1729416500535.0,0.0
-2.072184,-9.312866,-1.246661,-99.260002,51.029999,-46.549999,1729416500553.0,0.0
-2.081756,-9.131011,-1.201197,-90.440002,53.48,-39.200001,1729416500573.0,0.0
-2.129612,-9.018548,-1.584049,-84.910004,50.610001,-33.040001,1729416500592.0,0.0
-2.359323,-8.839087,-1.634298,-72.870003,48.790001,-24.01,1729416500612.0,0.0
-2.24686,-8.827123,-2.167897,-65.660004,43.68,-18.690001,1729416500632.0,0.0
-2.115255,-9.020942,-2.239682,-57.82,39.689999,-11.55,1729416500651.0,0.0
-2.608176,-9.107083,-2.024328,-47.040001,37.939999,-7.56,1729416500672.0,0.0
-2.713461,-8.46102,-2.09372,-33.459999,31.92,-3.85,1729416500691.0,0.0
-2.533999,-7.913064,-2.091327,-26.74,25.549999,3.22,1729416500712.0,0.0
-2.603391,-8.233703,-1.964507,-25.690001,21.559999,10.99,1729416500737.0,0.0
-3.17049,-8.695518,-2.134398,-35.91,21.49,12.67,1729416500752.0,0.0
-2.9336,-8.46102,-2.474179,-43.259998,16.309999,12.67,1729416500772.0,0.0
-3.072384,-8.085347,-2.672783,-47.740002,12.88,13.23,1729416500792.0,0.0
-3.491128,-8.556733,-3.010171,-49.349998,8.47,13.440001,1729416500812.0,0.0
-3.428915,-9.209974,-3.309274,-38.080002,3.64,11.06,1729416500839.0,0.0
-3.196811,-9.276974,-3.323631,-21.700001,1.4,8.12,1729416500852.0,0.0
-3.086741,-8.831908,-3.536592,-18.9,1.26,4.76,1729416500873.0,0.0
-3.17049,-8.513663,-3.67059,-21.280001,1.96,3.85,1729416500893.0,0.0
-3.163311,-8.836694,-3.550949,-23.73,3.43,1.82,1729416500912.0,0.0
-2.914458,-8.796017,-3.689733,-17.360001,3.15,-0.56,1729416500935.0,0.0
-2.904887,-8.659625,-3.744767,-6.44,2.94,-0.49,1729416500952.0,0.0
-3.031706,-9.071191,-3.426522,-6.09,3.71,-4.13,1729416500971.0,0.0
-2.634498,-8.618947,-3.52702,-1.26,2.03,-7.91,1729416500992.0,0.0
-2.242075,-8.422735,-3.84048,1.61,-0.42,-8.26,1729416501013.0,0.0
-2.646462,-8.018349,-3.445665,3.78,-2.73,-5.39,1729416501036.0,0.0
-2.694318,-9.154939,-3.893122,2.17,-9.03,-4.97,1729416501051.0,0.0
-2.507678,-9.221939,-4.185047,7.84,-7.14,-5.18,1729416501072.0,0.0
-1.954936,-8.573483,-4.668397,7.56,-3.15,-5.32,1729416501092.0,0.0
-1.990828,-9.501899,-5.333601,-2.1,1.47,-5.11,1729416501113.0,0.0
-2.28036,-9.128618,-4.012764,0.91,5.11,-6.58,1729416501133.0,0.0
-1.95015,-8.585447,-3.629912,11.76,3.99,-6.37,1729416501151.0,0.0
-1.878366,-9.01137,-4.146761,3.5,3.92,-7.84,1729416501173.0,0.0
-2.189433,-9.145369,-3.809374,-10.99,6.02,-10.71,1729416501193.0,0.0
-2.112862,-9.250652,-4.046263,-21.210001,5.95,-11.76,1729416501213.0,0.0
-1.952543,-8.846266,-4.168297,-23.52,7.07,-11.06,1729416501234.0,0.0
-1.655833,-8.819944,-4.469792,-16.799999,6.79,-9.38,1729416501252.0,0.0
-1.744368,-9.08794,-4.412365,-7.56,6.37,-7.84,1729416501271.0,0.0
-1.947758,-8.896514,-4.232903,-1.4,5.25,-7.56,1729416501293.0,0.0
-1.490728,-9.638289,-5.316852,-12.67,6.58,-8.68,1729416501314.0,0.0
-1.701297,-6.460621,-3.117848,-11.69,7.49,-2.17,1729416501331.0,0.0
-1.773082,-8.13799,-3.696911,-18.83,0.98,3.92,1729416501350.0,0.0
-2.455036,-8.80798,-4.216154,-22.68,-1.33,3.22,1729416501374.0,0.0
-2.249253,-8.930015,-4.639683,-24.290001,-2.52,-1.68,1729416501391.0,0.0
-1.909473,-8.709875,-4.811966,-30.1,-0.91,-4.34,1729416501415.0,0.0
-1.701297,-8.68116,-5.070391,-28.49,-0.77,-5.46,1729416501434.0,0.0
-1.603191,-8.279166,-5.039285,-21.49,-0.35,-4.2,1729416501453.0,0.0
-1.469193,-8.575876,-5.053641,-26.950001,1.19,-3.85,1729416501474.0,0.0
-1.691726,-8.736196,-5.048856,-38.080002,1.89,-6.16,1729416501494.0,0.0
-1.550549,-9.008978,-5.178068,-39.689999,0.35,-9.03,1729416501514.0,0.0
-1.253839,-8.822337,-5.178068,-24.99,-1.61,-8.05,1729416501532.0,0.0
-1.325624,-8.506484,-4.960321,-9.73,-1.68,-5.95,1729416501557.0,0.0
-1.785046,-9.025726,-4.761717,-9.24,-0.77,-3.29,1729416501573.0,0.0
-2.136791,-9.676575,-4.936393,-9.94,-0.49,-4.13,1729416501595.0,0.0
-1.969293,-9.133404,-5.517848,-7.63,0.49,-6.65,1729416501616.0,0.0
-2.021935,-8.987441,-4.890929,-2.52,2.73,-7.91,1729416501632.0,0.0
-1.40698,-9.12144,-5.752346,-1.68,1.89,-12.18,1729416501652.0,0.0
-1.624727,-7.032506,-4.991428,6.16,1.47,-9.59,1729416501672.0,0.0
-1.639083,-8.523234,-5.589634,2.45,0.28,-6.72,1729416501693.0,0.0
-1.447658,-7.936993,-5.656632,9.03,1.19,-5.6,1729416501715.0,0.0
-1.222732,-7.659425,-5.45085,13.440001,3.01,-3.5,1729416501736.0,0.0
-1.234696,-7.353144,-4.924429,13.09,2.24,0.35,1729416501753.0,0.0
-1.529014,-7.743174,-4.661219,5.32,-1.12,2.38,1729416501773.0,0.0
-1.397408,-7.936993,-4.936393,-5.32,-5.18,1.26,1729416501795.0,0.0
-1.383051,-8.10449,-5.28096,-12.04,-6.16,1.05,1729416501813.0,0.0
-1.524228,-8.46102,-5.618347,-15.47,-4.9,1.12,1729416501834.0,0.0
-1.383051,-8.413164,-5.359922,-11.69,-4.06,0.91,1729416501852.0,0.0
-1.342373,-8.360522,-5.520242,-8.82,-4.62,1.96,1729416501872.0,0.0
-1.071985,-8.374879,-5.659025,-10.92,-5.32,2.94,1729416501893.0,0.0
-2.069792,-8.669197,-4.761717,-7.98,-3.71,6.58,1729416501913.0,0.0
-2.172683,-8.762517,-4.73061,-10.71,-5.46,3.15,1729416501934.0,0.0
-1.897508,-8.77448,-5.13739,-8.75,-5.74,1.75,1729416501955.0,0.0
-2.005185,-8.874979,-5.259424,-8.4,-2.73,1.89,1729416501975.0,0.0
-2.215754,-8.848659,-5.187639,-6.02,-0.77,1.05,1729416501993.0,0.0
-2.395216,-8.760124,-5.233103,-3.01,-0.42,-0.35,1729416502015.0,0.0
-2.325824,-8.463413,-5.63749,-2.52,0.14,-2.1,1729416502036.0,0.0
-2.132005,-7.71446,-5.304887,-0.21,1.4,-2.17,1729416502051.0,0.0
-2.124826,-7.980063,-5.178068,-3.43,0.49,-0.91,1729416502072.0,0.0
-1.928615,-8.4012,-5.398208,-6.44,-1.4,-2.52,1729416502093.0,0.0
-2.258825,-7.819745,-4.536791,-1.26,-3.43,-1.75,1729416502114.0,0.0
-2.708675,-8.298308,-5.101498,-1.54,-6.79,-0.63,1729416502132.0,0.0
-3.038885,-8.279166,-5.228317,-5.67,-6.65,-1.82,1729416502154.0,0.0
-2.804388,-8.882158,-5.438886,-13.58,-5.81,-6.93,1729416502173.0,0.0
-2.799603,-8.456236,-5.271388,-6.72,-6.02,-11.55,1729416502192.0,0.0
-2.553142,-8.348558,-4.98425,-1.47,-7.98,-13.79,1729416502214.0,0.0
-2.533999,-8.583055,-4.833502,0.91,-8.75,-14.07,1729416502233.0,0.0
-2.498107,-8.930015,-4.788038,8.12,-8.26,-16.450001,1729416502252.0,0.0
-2.646462,-8.329416,-4.835894,1.19,-5.11,-20.719999,1729416502273.0,0.0
-2.426322,-8.226524,-4.917251,-13.16,-4.76,-22.120001,1729416502292.0,0.0
-2.24686,-8.755339,-5.07757,-19.18,-6.09,-26.040001,1729416502314.0,0.0
-2.179861,-8.477771,-4.869394,-7.21,-8.61,-29.68,1729416502335.0,0.0
-2.163112,-7.996813,-4.759324,-6.44,-10.36,-31.43,1729416502353.0,0.0
-2.065006,-7.88435,-5.163712,-16.030001,-12.67,-32.900002,1729416502372.0,0.0
-2.017149,-8.059027,-5.690133,-28.210001,-12.95,-34.16,1729416502393.0,0.0
-2.067399,-8.377272,-6.039484,-36.119999,-10.22,-35.279999,1729416502413.0,0.0
-1.830509,-7.963314,-5.759524,-28.84,-7.42,-37.450001,1729416502435.0,0.0
-1.56012,-7.67139,-5.879165,-17.780001,-8.4,-36.75,1729416502454.0,0.0
-1.014557,-7.300502,-5.893522,-6.58,-11.9,-33.810001,1729416502472.0,0.0
-0.911665,-7.06122,-6.106483,-5.88,-10.85,-29.4,1729416502493.0,0.0
-0.765703,-7.130611,-6.439085,-2.94,-8.61,-23.1,1729416502513.0,0.0
-0.679562,-6.752545,-6.778866,13.3,-6.44,-16.309999,1729416502533.0,0.0
-0.679562,-6.568298,-6.927221,22.82,-3.85,-7.84,1729416502552.0,0.0
-0.478565,-7.257431,-6.915257,13.51,2.17,-0.56,1729416502574.0,0.0
-0.038285,-7.336394,-7.4345,23.1,7.14,5.67,1729416502592.0,0.0
0.052642,-7.69771,-7.582855,55.510002,10.5,10.57,1729416502612.0,0.0
-0.442672,-8.039884,-6.393622,87.639999,18.059999,14.0,1729416502632.0,0.0
-0.952343,-8.760124,-4.986642,96.529999,21.98,14.21,1729416502652.0,0.0
-0.586242,-8.815158,-4.541577,84.419998,21.629999,10.78,1729416502672.0,0.0
-0.39003,-8.863015,-4.979464,68.18,22.82,10.29,1729416502694.0,0.0
-0.598206,-9.071191,-4.752146,58.380001,28.84,9.8,1729416502712.0,0.0
-1.545763,-9.638289,-3.677768,69.090004,33.950001,11.2,1729416502734.0,0.0
-2.421536,-10.191031,-3.333202,88.550003,32.060001,10.43,1729416502752.0,0.0
-2.888137,-10.006784,-1.701297,95.269997,28.35,7.56,1729416502772.0,0.0
-2.562713,-9.099905,-0.380459,72.940002,14.35,-0.56,1729416502793.0,0.0
-2.007578,-10.667203,-0.208176,39.830002,-0.84,-3.85,1729416502814.0,0.0
-1.28016,-12.602997,-1.684547,63.98,-7.98,-10.5,1729416502832.0,0.0
-0.339781,-10.485349,-2.098505,127.190002,-11.2,-9.59,1729416502854.0,0.0
-0.528814,-9.346365,-1.215554,131.320007,1.12,-4.13,1729416502879.0,0.0
-1.198804,-11.018949,-1.701297,111.300003,8.33,-5.04,1729416502894.0,0.0
-0.504886,-10.82513,-2.529213,121.590004,3.99,-10.29,1729416502912.0,0.0
-0.129212,-8.539984,-2.517249,122.150002,8.4,-12.6,1729416502932.0,0.0
-0.253639,-8.516055,-2.175076,99.120003,23.030001,-4.06,1729416502951.0,0.0
0.232104,-9.769895,-1.495514,99.260002,30.940001,2.38,1729416502971.0,0.0
-0.189033,-10.566705,0.07657,134.050003,28.49,7.98,1729416502992.0,0.0
-0.789631,-10.167104,1.938186,163.029999,21.42,7.91,1729416503013.0,0.0
-0.416351,-8.350951,3.732803,150.080002,8.33,4.55,1729416503035.0,0.0
-0.897308,-7.585248,3.608376,99.260002,-0.49,3.5,1729416503052.0,0.0
-1.043271,-8.618947,2.457429,51.59,-6.65,6.51,1729416503071.0,0.0
-0.646062,-9.738789,1.332802,52.080002,-9.24,8.4,1729416503092.0,0.0
-0.646062,-9.95175,1.4668,78.120003,-4.27,10.5,1729416503113.0,0.0
-0.004786,-9.209974,2.67039,86.029999,2.31,11.55,1729416503133.0,0.0
-0.736989,-8.695518,2.9336,70.840004,2.59,14.63,1729416503152.0,0.0
-0.916451,-9.052048,3.024528,64.050003,-5.6,15.47,1729416503173.0,0.0
-0.143569,-8.293523,3.180061,63.700001,-16.030001,16.940001,1729416503191.0,0.0
-1.074377,-8.513663,3.991228,13.72,-14.42,14.07,1729416503212.0,0.0
-0.990629,-9.439686,3.055635,-31.15,-15.75,9.94,1729416503233.0,0.0
-0.315853,-9.657433,2.306681,-3.99,-20.16,8.96,1729416503251.0,0.0
-0.574277,-7.649854,3.306881,10.99,-25.41,9.87,1729416503272.0,0.0
-0.784846,-7.192825,2.89053,-26.110001,-32.060001,14.21,1729416503294.0,0.0
-0.655633,-9.379865,1.627119,-74.620003,-34.299999,12.95,1729416503312.0,0.0
-0.468993,-10.13839,2.87378,-86.519997,-37.099998,7.7,1729416503336.0,0.0
-0.72024,-8.470592,3.249453,-91.419998,-50.540001,5.39,1729416503353.0,0.0
-0.308674,-8.750552,1.945365,-116.760002,-58.450001,8.75,1729416503372.0,0.0
-0.246461,-9.95175,0.815953,-128.309998,-57.260002,11.06,1729416503392.0,0.0
-0.861416,-10.277173,1.435694,-126.770004,-54.040001,8.54,1729416503414.0,0.0
-0.775275,-9.152546,1.167697,-148.680008,-55.16,5.25,1729416503431.0,0.0
-0.837488,-8.688338,0.028714,-189.699997,-55.510002,8.68,1729416503451.0,0.0
-1.816152,-10.4016,-1.433301,-219.729996,-52.990002,12.39,1729416503472.0,0.0
-2.608176,-10.688738,-2.519642,-203.770004,-47.110001,4.69,1729416503491.0,0.0
-2.976671,-8.932407,-3.67059,-186.759995,-44.59,0.98,1729416503511.0,0.0
-2.85703,-5.965307,-3.919443,-220.710007,-27.23,4.83,1729416503532.0,0.0
-2.476572,-6.518049,-6.020342,-244.020004,-12.11,17.710001,1729416503551.0,0.0
-3.23031,-10.743774,-6.02752,-226.380005,5.11,21.77,1729416503571.0,0.0
-3.139383,-9.013763,-6.429514,-168.979996,9.8,17.710001,1729416503596.0,0.0
-2.488536,-6.867401,-8.030313,-175.139999,21.42,14.7,1729416503612.0,0.0
-1.447658,-8.566305,-8.970692,-168.210007,38.220001,19.809999,1729416503632.0,0.0
-1.706082,-9.111869,-6.235696,-115.220001,42.209999,24.639999,1729416503653.0,0.0
-1.825724,-9.473185,-5.005785,-71.75,31.01,18.549999,1729416503671.0,0.0
-2.084148,-9.099905,-5.4676,-61.110001,21.139999,7.91,1729416503691.0,0.0
-1.871187,-9.887143,-6.336195,-59.920002,18.83,2.1,1729416503715.0,0.0
-1.732404,-9.150154,-6.675975,-49.490002,19.460001,-1.89,1729416503731.0,0.0
-1.045663,-9.114261,-6.553941,-31.92,21.0,-1.47,1729416503750.0,0.0
-0.488136,-9.683753,-6.104091,-10.57,19.18,-4.76,1729416503771.0,0.0
-0.114855,-8.784052,-5.95095,1.68,15.54,-13.58,1729416503792.0,0.0
0.114855,-7.788638,-5.709275,0.98,10.99,-17.780001,1729416503812.0,0.0
0.088534,-7.640282,-6.017949,4.2,3.99,-18.620001,1729416503835.0,0.0
0.059821,-7.518249,-5.864808,27.23,-7.63,-20.02,1729416503852.0,0.0
0.416351,-5.553742,-5.687739,34.720001,-20.16,-20.65,1729416503871.0,0.0
0.665205,-4.938786,-6.238089,1.26,-25.059999,-15.12,1729416503891.0,0.0
-0.811167,-5.814559,-6.695118,-16.030001,-25.690001,-3.99,1729416503912.0,0.0
-3.266203,-6.271588,-5.472386,1.82,-24.85,14.07,1729416504036.0,0.0
-3.737589,-4.776074,-7.726424,-3.64,-27.16,19.74,1729416504040.0,0.0
-2.880959,-4.756931,-10.41835,-24.360001,-15.12,28.77,1729416504056.0,0.0
-3.163311,-5.927022,-10.413565,-23.73,4.9,38.5,1729416504056.0,0.0
-3.517449,-6.367301,-9.202796,-2.03,14.07,44.310001,1729416504056.0,0.0
-3.802195,-6.853044,-7.757531,-4.34,20.860001,40.18,1729416504056.0,0.0
-2.991028,-7.690532,-7.453642,1.26,20.790001,31.780001,1729416504057.0,0.0
-2.270789,-7.372287,-6.932007,10.85,19.530001,24.780001,1729416504076.0,0.0
-2.160719,-8.008778,-6.175875,1.05,21.77,21.84,1729416504090.0,0.0
-2.675175,-9.018548,-6.022735,-4.97,21.139999,18.690001,1729416504110.0,0.0
-2.79721,-9.449257,-5.821737,6.86,15.47,12.11,1729416504134.0,0.0
-2.328217,-8.11167,-5.558527,19.25,8.75,2.87,1729416504151.0,0.0
-2.237289,-8.260024,-6.087341,14.35,5.74,-0.84,1729416504171.0,0.0
-2.158326,-9.073583,-6.362515,10.64,5.74,-5.6,1729416504192.0,0.0
-1.935793,-9.329616,-6.113662,24.01,5.11,-12.11,1729416504213.0,0.0
-1.292124,-7.944171,-6.07777,33.18,3.64,-18.690001,1729416504232.0,0.0
-0.667598,-8.090133,-5.776274,15.96,2.17,-18.129999,1729416504251.0,0.0
-0.581456,-7.999206,-5.565705,15.61,-7.49,-22.190001,1729416504270.0,0.0
-0.272782,-6.987042,-5.211568,31.43,-16.17,-22.75,1729416504292.0,0.0
-0.191426,-6.30748,-5.769095,19.809999,-23.799999,-21.49,1729416504315.0,0.0
-0.167498,-6.51087,-6.855437,3.22,-27.370001,-19.32,1729416504331.0,0.0
-0.399601,-6.415157,-7.908278,-6.37,-25.83,-17.710001,1729416504350.0,0.0
-1.816152,-6.429514,-7.283752,-3.85,-20.860001,-12.81,1729416504371.0,0.0
-3.213561,-5.879165,-7.022934,2.52,-18.83,-8.68,1729416504391.0,0.0
-2.988636,-5.788238,-8.202596,2.1,-14.0,-1.68,1729416504411.0,0.0
-2.179861,-5.76431,-8.906086,5.18,-2.03,8.47,1729416504432.0,0.0
-2.443072,-6.149554,-8.501699,12.67,7.28,20.09,1729416504451.0,0.0
-3.273381,-6.199803,-7.657032,17.5,15.190001,26.950001,1729416504471.0,0.0
-3.306881,-6.410372,-6.965507,28.35,19.809999,33.25,1729416504492.0,0.0
-3.476771,-6.915257,-6.101698,40.18,23.59,38.220001,1729416504510.0,0.0
-4.067799,-8.678767,-5.996413,33.880001,26.950001,37.52,1729416504531.0,0.0
-3.404987,-8.719445,-5.493921,28.139999,26.6,28.0,1729416504551.0,0.0
-2.756532,-9.863215,-5.221139,11.62,23.66,17.639999,1729416504570.0,0.0
-1.718047,-10.332209,-4.606184,19.530001,17.5,2.87,1729416504591.0,0.0
-1.146162,-9.853643,-4.235296,33.18,9.24,-6.44,1729416504612.0,0.0
-0.921237,-9.186047,-4.388437,36.68,4.62,-13.02,1729416504640.0,0.0
-0.940379,-8.937192,-4.742575,29.960001,1.33,-16.59,1729416504651.0,0.0
-1.033699,-8.645268,-4.697111,28.559999,-3.71,-19.530001,1729416504671.0,0.0
-1.361516,-8.037491,-3.744767,25.76,-12.95,-23.940001,1729416504691.0,0.0
-1.421337,-6.932007,-3.665804,15.54,-24.57,-25.34,1729416504728.0,0.0
-1.107877,-7.034898,-4.783253,1.75,-31.710001,-23.870001,1729416504782.0,0.0
-1.062413,-5.960521,-5.582455,-8.47,-34.369999,-20.93,1729416504783.0,0.0
-1.643869,-5.13739,-5.955735,-7.21,-33.25,-9.24,1729416504783.0,0.0
-2.78046,-5.268995,-5.9677,-3.64,-31.15,3.78,1729416504792.0,0.0
-3.775874,-4.811966,-6.903293,-7.63,-29.540001,14.77,1729416504813.0,0.0
-3.692125,-5.886343,-8.293523,-28.35,-17.780001,26.040001,1729416504831.0,0.0
-3.739982,-6.831509,-8.673983,-33.32,-3.57,31.92,1729416504851.0,0.0
-3.656233,-6.271588,-8.061419,-9.59,4.97,36.610001,1729416504877.0,0.0
-3.89073,-6.300302,-7.063612,0.63,15.190001,44.170002,1729416504891.0,0.0
-3.783052,-8.537591,-6.161518,-4.69,25.059999,46.41,1729416504915.0,0.0
-3.524628,-8.745767,-3.814159,-17.639999,21.280001,33.529999,1729416504931.0,0.0
-3.718446,-11.196017,-4.165904,-28.0,12.46,26.18,1729416504951.0,0.0
-2.510071,-11.41855,-3.885944,-16.030001,6.79,11.69,1729416504971.0,0.0
-1.897508,-11.346765,-4.031906,1.89,-1.05,-0.35,1729416504992.0,0.0
-1.883151,-10.224532,-4.084548,10.08,-5.88,-10.85,1729416505013.0,0.0
-2.050649,-9.12144,-4.354938,4.2,-8.96,-13.86,1729416505034.0,0.0
-1.940579,-8.398808,-4.900501,-3.57,-12.6,-16.799999,1729416505050.0,0.0
-1.698904,-7.360322,-4.335794,-4.41,-19.18,-18.620001,1729416505070.0,0.0
-1.378266,-7.066005,-4.615755,-5.74,-30.1,-21.98,1729416505091.0,0.0
-1.246661,-4.639683,-5.213961,-21.0,-37.240002,-18.129999,1729416505111.0,0.0
-1.201197,-5.024928,-6.618547,-40.880001,-37.59,-9.59,1729416505131.0,0.0
-2.943172,-5.699703,-6.522834,-38.709999,-34.580002,1.75,1729416505150.0,0.0
-4.493721,-4.596612,-6.52762,-36.959999,-31.219999,10.99,1729416505169.0,0.0
-4.204189,-4.098906,-8.532805,-49.349998,-19.530001,24.219999,1729416505190.0,0.0
-4.254438,-6.104091,-8.348558,-41.23,-6.44,36.049999,1729416505212.0,0.0
-4.438686,-6.065805,-7.329216,-18.27,-7.21,39.27,1729416505230.0,0.0
-3.878766,-6.223732,-7.015756,-3.5,-9.94,38.639999,1729416505249.0,0.0
-3.9338,-6.905686,-6.723832,-27.790001,-2.24,32.689999,1729416505269.0,0.0
-3.955336,-7.54457,-6.116055,-38.57,-0.14,28.91,1729416505289.0,0.0
-4.039084,-8.403593,-5.012963,-33.110001,-2.87,26.67,1729416505311.0,0.0
-4.237689,-9.284152,-4.266403,-14.07,-13.79,24.639999,1729416505330.0,0.0
-4.67079,-9.901501,-4.953143,7.49,-23.24,17.08,1729416505350.0,0.0
-4.838287,-9.518648,-5.201996,5.88,-24.99,11.69,1729416505370.0,0.0
-4.804788,-9.293723,-5.417351,-1.33,-24.57,4.41,1729416505391.0,0.0
-4.290331,-8.047063,-4.957928,-0.21,-26.110001,-1.75,1729416505410.0,0.0
-4.122833,-8.547162,-5.510671,4.48,-30.52,-4.06,1729416505430.0,0.0
-3.692125,-7.424929,-6.173482,18.059999,-36.189999,-12.18,1729416505451.0,0.0
-3.383451,-6.118448,-6.683154,13.79,-34.650002,-11.13,1729416505470.0,0.0
-3.65384,-6.206983,-7.515855,7.28,-31.780001,-8.89,1729416505490.0,0.0
-3.931407,-5.85763,-8.049455,-3.15,-26.460001,-9.45,1729416505511.0,0.0
-4.364508,-5.168497,-8.611769,-10.36,-17.219999,-6.02,1729416505531.0,0.0
-4.969893,-5.034499,-7.575676,-6.58,-6.44,3.22,1729416505553.0,0.0
-5.388636,-4.828716,-6.34098,3.92,-1.26,10.43,1729416505571.0,0.0
-5.367101,-4.232903,-7.487142,11.97,-0.28,16.1,1729416505590.0,0.0
-5.836094,-4.862216,-8.090133,11.9,12.18,27.719999,1729416505612.0,0.0
-6.23091,-5.800202,-7.054041,11.76,23.379999,29.469999,1729416505632.0,0.0
-5.9342,-5.886343,-6.156733,4.13,26.6,24.85,1729416505649.0,0.0
-5.546563,-7.415358,-6.565905,0.56,28.210001,20.299999,1729416505670.0,0.0
-5.24746,-8.695518,-6.084948,-3.01,31.710001,12.18,1729416505690.0,0.0
-4.615755,-9.315259,-4.845466,4.62,29.82,3.64,1729416505711.0,0.0
-4.027121,-9.523434,-3.034099,15.89,24.99,-3.15,1729416505731.0,0.0
-3.431308,-10.167104,-3.151347,9.87,16.450001,-7.35,1729416505757.0,0.0
-3.211168,-10.279566,-4.335794,21.91,2.66,-17.99,1729416505771.0,0.0
-3.419343,-8.429914,-4.938786,46.27,-7.0,-26.809999,1729416505790.0,0.0
-3.455236,-6.860222,-5.06082,41.580002,-7.21,-25.549999,1729416505812.0,0.0
-3.436093,-8.633304,-5.175675,11.76,-9.45,-28.35,1729416505830.0,0.0
-2.919244,-6.321837,-5.285746,-8.33,-19.040001,-41.439999,1729416505850.0,0.0
-3.302095,-6.108876,-5.178068,-18.27,-24.710001,-34.09,1729416505870.0,0.0
-3.778267,-3.59402,-6.161518,-4.76,-30.030001,-26.18,1729416505891.0,0.0
-4.828716,-2.902494,-6.929615,6.93,-28.84,-6.51,1729416505911.0,0.0
-5.783452,-3.957729,-7.238289,5.67,-19.809999,10.5,1729416505931.0,0.0
-5.62074,-4.991428,-7.503892,-0.49,-12.81,16.870001,1729416505950.0,0.0
-5.793024,-4.864608,-7.396214,-3.92,-7.63,17.92,1729416505970.0,0.0
-6.336195,-7.300502,-7.197611,-27.93,4.83,20.58,1729416505991.0,0.0
-5.47717,-7.573284,-7.204789,-35.0,15.33,15.12,1729416506011.0,0.0
-5.020142,-6.683154,-7.106683,5.39,21.139999,16.450001,1729416506033.0,0.0
-4.833502,-7.073184,-6.520442,32.34,31.5,24.57,1729416506050.0,0.0
-4.991428,-8.946764,-5.563312,24.710001,38.150002,23.52,1729416506072.0,0.0
-5.515456,-10.25803,-5.362316,13.58,32.900002,11.48,1729416506091.0,0.0
-4.685147,-9.157332,-4.867002,16.73,30.52,-7.7,1729416506112.0,0.0
-3.625126,-8.913264,-3.192025,16.59,29.190001,-14.77,1729416506130.0,0.0
-2.739782,-9.501899,-3.215954,20.58,18.200001,-17.99,1729416506151.0,0.0
-2.801995,-8.788837,-3.460021,27.790001,5.18,-23.66,1729416506171.0,0.0
-3.069991,-7.645068,-4.496114,22.120001,-3.29,-26.32,1729416506190.0,0.0
-3.292524,-7.149754,-5.125426,10.22,-6.86,-27.51,1729416506211.0,0.0
-3.175276,-7.152147,-4.685147,0.49,-14.0,-29.120001,1729416506232.0,0.0
-3.117848,-4.644469,-4.886144,-3.78,-26.6,-30.450001,1729416506251.0,0.0
-4.326223,-4.529613,-6.479764,-18.969999,-28.280001,-8.26,1729416506271.0,0.0
-5.233103,-5.206782,-7.707282,-21.84,-21.42,5.04,1729416506291.0,0.0
-5.84088,-5.163712,-6.754939,-14.56,-12.18,13.02,1729416506312.0,0.0
-6.541977,-3.759124,-6.577869,-12.95,-7.49,17.57,1729416506332.0,0.0
-5.852845,-5.558527,-8.717053,-43.189999,9.31,24.43,1729416506351.0,0.0
-5.730811,-7.944171,-8.453842,-30.940001,23.59,24.219999,1729416506370.0,0.0
-5.338387,-8.035098,-7.635497,-3.71,27.440001,17.639999,1729416506392.0,0.0
-4.847858,-8.236095,-6.644868,12.88,30.1,10.99,1729416506411.0,0.0
-4.862216,-8.30788,-5.146961,11.83,33.740002,4.41,1729416506430.0,0.0
-4.907679,-8.662018,-4.756931,8.47,32.27,-0.56,1729416506449.0,0.0
-4.847858,-9.269794,-4.333402,17.57,28.280001,-10.78,1729416506473.0,0.0
-3.974478,-9.023334,-3.476771,26.880001,22.469999,-17.5,1729416506489.0,0.0
-2.895315,-8.84148,-3.54377,35.420002,11.06,-22.120001,1729416506512.0,0.0
-2.457429,-8.60459,-4.134798,27.299999,2.45,-23.66,1729416506531.0,0.0
-2.469393,-8.664411,-5.075177,22.469999,-3.22,-25.690001,1729416506549.0,0.0
-2.54357,-7.142576,-5.087141,29.82,-8.68,-27.16,1729416506569.0,0.0
-2.411965,-6.350551,-5.218746,17.219999,-14.28,-28.77,1729416506590.0,0.0
-2.581856,-6.407979,-4.773681,4.9,-22.75,-23.52,1729416506611.0,0.0
-3.053242,-5.130211,-5.335995,1.61,-28.98,-19.74,1729416506630.0,0.0
-3.847659,-5.02732,-6.053841,0.14,-29.469999,-8.54,1729416506649.0,0.0
-4.512863,-5.639884,-6.496514,-14.07,-21.559999,-0.21,1729416506669.0,0.0
-4.878965,-5.716454,-6.616155,-11.34,-16.799999,4.13,1729416506690.0,0.0
-5.474778,-5.132604,-6.436693,-0.98,-14.91,8.96,1729416506711.0,0.0
-5.264209,-6.197411,-7.688138,-13.09,-5.18,14.42,1729416506730.0,0.0
-4.773681,-6.975078,-7.932207,-21.07,8.12,16.379999,1729416506749.0,0.0
-4.668397,-6.63769,-7.075576,-0.91,14.35,19.110001,1729416506770.0,0.0
-4.737789,-6.506085,-6.458229,14.0,21.07,23.379999,1729416506789.0,0.0
-4.642076,-6.723832,-6.501299,15.12,29.049999,27.65,1729416506813.0,0.0
-5.056034,-7.491928,-6.369694,10.01,37.029999,29.049999,1729416506831.0,0.0
-5.481956,-8.764909,-5.618347,6.65,41.09,24.43,1729416506850.0,0.0
-5.261817,-9.399008,-4.287938,17.780001,35.560001,13.79,1729416506870.0,0.0
-5.091926,-9.927821,-3.962514,29.4,25.83,1.82,1729416506891.0,0.0
-3.962514,-9.343972,-3.460021,27.93,23.450001,-8.82,1729416506911.0,0.0
-2.971886,-9.925428,-2.804388,16.24,22.049999,-13.51,1729416506932.0,0.0
-2.364109,-9.482756,-3.510271,21.91,4.06,-22.469999,1729416506949.0,0.0
-2.045863,-7.709675,-3.842873,32.34,-8.12,-24.08,1729416506971.0,0.0
-2.507678,-6.786045,-4.141976,27.51,-15.12,-18.969999,1729416506989.0,0.0
-2.603391,-7.633104,-4.749753,20.790001,-22.469999,-16.450001,1729416507011.0,0.0
-2.964707,-6.932007,-4.515256,2.03,-28.07,-21.49,1729416507033.0,0.0
-3.213561,-5.694918,-5.405386,-15.54,-32.060001,-19.6,1729416507049.0,0.0
-3.914658,-5.922236,-6.257231,-26.32,-30.309999,-15.190001,1729416507070.0,0.0
-4.409972,-5.615955,-6.855437,-21.77,-25.34,-7.0,1729416507089.0,0.0
-4.795217,-5.158926,-6.245267,-11.55,-18.48,2.59,1729416507110.0,0.0
-5.635098,-4.132405,-5.436492,-7.49,-14.63,10.71,1729416507130.0,0.0
-5.252246,-5.472386,-7.726424,-34.720001,-5.74,20.09,1729416507149.0,0.0
-5.45085,-6.939186,-8.757731,-40.599998,9.8,24.01,1729416507170.0,0.0
-5.259424,-6.833901,-7.89153,-16.309999,17.15,23.799999,1729416507190.0,0.0
-4.843073,-6.541977,-7.099504,-0.35,23.379999,23.24,1729416507210.0,0.0
-4.567898,-7.62114,-6.541977,2.31,32.41,25.620001,1729416507230.0,0.0
-4.59422,-8.640482,-5.489135,-4.41,37.73,22.75,1729416507250.0,0.0
-5.197211,-10.839487,-4.479364,-11.69,35.0,13.09,1729416507269.0,0.0
-4.036692,-10.846665,-4.04387,8.82,23.450001,-9.87,1729416507289.0,0.0
-2.979064,-10.303494,-3.098706,19.809999,18.969999,-17.99,1729416507311.0,0.0
-2.660819,-9.693325,-3.010171,27.58,12.39,-21.559999,1729416507330.0,0.0
-2.708675,-8.506484,-3.239882,28.35,5.25,-22.190001,1729416507349.0,0.0
-2.868994,-8.130811,-3.723232,19.32,-0.63,-20.51,1729416507369.0,0.0
-3.022135,-8.133204,-4.197011,15.47,-9.66,-22.26,1729416507390.0,0.0
-2.840281,-7.838887,-3.972085,4.83,-21.139999,-29.610001,1729416507410.0,0.0
-2.610569,-5.895915,-3.838088,0.84,-34.439999,-27.790001,1729416507430.0,0.0
-3.268596,-5.376673,-4.989035,-9.52,-41.299999,-24.15,1729416507449.0,0.0
-3.871587,-4.979464,-7.202396,-9.38,-40.040001,-10.64,1729416507469.0,0.0
-4.742575,-5.218746,-8.075776,-11.13,-25.48,3.64,1729416507490.0,0.0
-5.383851,-5.776274,-6.738188,0.84,-14.21,11.97,1729416507509.0,0.0
-5.594419,-5.201996,-5.828916,9.24,-12.32,12.46,1729416507529.0,0.0
-4.931608,-6.18784,-7.070791,-20.299999,-5.74,13.23,1729416507550.0,0.0
-4.141976,-7.350751,-8.482556,-40.25,6.51,14.21,1729416507569.0,0.0
-4.441079,-7.702496,-7.121039,-13.93,15.96,17.43,1729416507590.0,0.0
-4.465007,-7.554141,-6.206983,10.85,24.360001,20.23,1729416507610.0,0.0
-4.82393,-8.355737,-5.582455,9.73,34.299999,18.76,1729416507629.0,0.0
-4.890929,-9.269794,-4.546363,7.07,35.0,12.32,1729416507648.0,0.0
-5.067998,-10.281959,-3.905087,16.379999,27.440001,4.34,1729416507669.0,0.0
-4.048656,-9.915856,-4.031906,39.200001,21.280001,-7.14,1729416507689.0,0.0
-3.455236,-9.712467,-2.98385,44.170002,19.32,-14.77,1729416507710.0,0.0
-3.067599,-9.288938,-2.945565,29.049999,11.48,-21.07,1729416507732.0,0.0
-2.667997,-9.667004,-3.448057,20.09,2.17,-29.049999,1729416507749.0,0.0
-1.844866,-6.716653,-3.972085,32.060001,-10.57,-31.43,1729416507768.0,0.0
-1.98365,-7.178468,-4.369294,23.309999,-16.940001,-24.85,1729416507796.0,0.0
-2.624927,-7.013363,-3.728018,16.52,-27.58,-26.32,1729416507812.0,0.0
-2.885744,-5.036892,-4.194618,2.59,-37.170002,-19.879999,1729416507832.0,0.0
-3.672983,-6.18784,-4.905287,-30.24,-37.310001,-14.28,1729416507849.0,0.0
-3.902694,-5.919843,-6.056234,-33.25,-38.57,-6.58,1729416507869.0,0.0
-4.285545,-6.168696,-6.422336,-37.099998,-33.25,2.24,1729416507889.0,0.0
-5.448457,-6.302694,-6.053841,-35.700001,-24.710001,9.03,1729416507912.0,0.0
-5.996413,-5.273781,-7.121039,-33.32,-15.82,13.51,1729416507930.0,0.0
-5.383851,-7.305287,-9.722038,-49.91,15.4,22.33,1729416507948.0,0.0
-5.721239,-7.326823,-8.025528,-17.57,28.77,19.950001,1729416507969.0,0.0
-5.000999,-7.233503,-7.389036,0.98,35.349998,18.690001,1729416507989.0,0.0
-4.316652,-7.479963,-6.501299,5.46,41.720001,18.129999,1729416508010.0,0.0
-4.07737,-8.611769,-4.888536,3.71,45.849998,15.75,1729416508033.0,0.0
-4.185047,-10.191031,-3.74716,-1.61,42.84,7.28,1729416508049.0,0.0
-3.524628,-10.832308,-3.311667,1.4,33.32,-8.05,1729416508070.0,0.0
-2.591427,-10.325029,-2.921637,14.14,20.23,-17.5,1729416508090.0,0.0
-2.366502,-9.760324,-2.555535,23.24,9.38,-22.540001,1729416508110.0,0.0
-2.651247,-9.408579,-2.804388,28.35,9.38,-23.870001,1729416508129.0,0.0
-2.445465,-7.60439,-3.895515,35.98,-8.75,-22.469999,1729416508149.0,0.0
-2.536392,-7.283752,-5.276174,22.889999,-9.03,-17.219999,1729416508169.0,0.0
-2.897708,-9.044869,-5.065606,2.17,-8.26,-18.549999,1729416508190.0,0.0
-2.732604,-7.032506,-4.031906,-1.75,-16.870001,-24.99,1729416508210.0,0.0
-2.897708,-6.501299,-3.759124,-2.8,-29.190001,-23.379999,1729416508231.0,0.0
-3.309274,-5.338387,-4.890929,5.04,-40.950001,-19.25,1729416508249.0,0.0
-3.754339,-4.965107,-7.197611,4.62,-40.880001,-6.65,1729416508268.0,0.0
-5.237889,-6.118448,-6.613762,-3.92,-22.049999,14.7,1729416508289.0,0.0
-6.855437,-6.051448,-5.592027,6.3,-15.89,17.01,1729416508310.0,0.0
-6.003592,-6.005985,-7.13779,-2.87,-12.6,12.25,1729416508329.0,0.0
-4.773681,-6.45105,-8.650054,-30.940001,1.12,10.15,1729416508348.0,0.0
-4.304688,-7.946564,-8.295916,-37.170002,16.24,10.15,1729416508369.0,0.0
-4.26401,-7.929814,-7.393822,-14.49,24.57,10.08,1729416508389.0,0.0
-4.35733,-7.594819,-7.422535,3.5,32.27,12.46,1729416508410.0,0.0
-4.259224,-8.149954,-6.570691,17.710001,44.52,15.82,1729416508430.0,0.0
-4.110869,-8.743374,-4.900501,25.690001,52.290001,15.26,1729416508448.0,0.0
-4.350152,-9.578469,-4.034299,21.559999,47.040001,6.02,1729416508470.0,0.0
-3.041277,-10.695917,-3.481557,22.049999,37.380001,-7.84,1729416508488.0,0.0
-2.364109,-10.382458,-2.962314,33.32,29.540001,-15.54,1729416508515.0,0.0
-2.194218,-10.9017,-2.562713,49.420002,21.42,-22.610001,1729416508528.0,0.0
-1.931008,-11.298907,-3.608376,68.599998,13.23,-29.540001,1729416508548.0,0.0
-2.115255,-9.848858,-3.503092,105.769997,6.65,-35.560001,1729416508568.0,0.0
-2.117648,-8.212167,-3.151347,132.580002,-3.92,-33.18,1729416508588.0,0.0
-2.067399,-9.296116,-3.407379,111.440002,-7.98,-28.280001,1729416508610.0,0.0
-1.39023,-6.9679,-3.888337,88.340004,-13.51,-24.639999,1729416508629.0,0.0
-1.648655,-8.169096,-2.663212,99.260002,-19.389999,-13.79,1729416508648.0,0.0
-2.249253,-5.87438,-0.267996,130.690002,-35.630001,-6.37,1729416508668.0,0.0
-2.864209,-4.555934,-1.191626,133.139999,-60.970001,13.58,1729416508689.0,0.0
-2.600998,-6.26441,-2.175076,78.400002,-54.459999,31.43,1729416508709.0,0.0
-3.172883,-8.815158,-2.971886,47.599998,-38.920002,42.420002,1729416508729.0,0.0
-5.04407,-7.853244,-0.514457,89.32,-36.75,49.139999,1729416508749.0,0.0
-5.462814,-8.281559,-2.794817,120.330002,-49.98,57.260002,1729416508768.0,0.0
-5.264209,-10.841879,-4.728218,98.489998,-34.93,53.619999,1729416508789.0,0.0
-6.979864,-12.244074,-4.201797,102.900002,-3.01,40.529999,1729416508810.0,0.0
-5.991628,-10.310673,-3.002992,132.160004,10.99,24.15,1729416508829.0,0.0
-5.07757,-7.740781,-1.663012,131.529999,20.58,15.96,1729416508848.0,0.0
-4.864608,-7.977671,-0.488136,102.480003,35.349998,19.110001,1729416508869.0,0.0
-5.54417,-9.224331,0.859023,119.770004,42.209999,21.0,1729416508889.0,0.0
-5.556134,-8.01117,1.507478,178.430008,29.120001,23.66,1729416508909.0,0.0
-5.242674,-8.702696,1.098306,227.220001,23.66,26.67,1729416508985.0,0.0
-6.867401,-9.10469,4.429115,221.970001,30.17,17.57,1729416508985.0,0.0
-5.62074,-10.884951,3.931407,159.110001,21.42,-4.69,1729416508986.0,0.0
-4.792823,-9.731609,5.118248,154.279999,13.3,-17.85,1729416508992.0,0.0
-4.807181,-7.312466,5.216353,145.740005,7.49,-23.52,1729416509010.0,0.0
-5.000999,-7.15454,4.510471,134.190002,3.36,-25.690001,1729416509032.0,0.0
-5.319244,-7.513463,4.608576,151.619995,2.17,-31.01,1729416509048.0,0.0
-4.790431,-7.52782,4.185047,176.190002,-0.63,-34.439999,1729416509068.0,0.0
-4.350152,-7.379465,4.31426,192.710007,2.17,-38.150002,1729416509088.0,0.0
-4.287938,-6.034698,5.182854,203.419998,8.05,-42.91,1729416509109.0,0.0
-4.496114,-4.173083,6.924829,184.660004,13.02,-43.889999,1729416509128.0,0.0
-3.35713,-3.07717,7.377072,137.550003,4.27,-42.700001,1729416509148.0,0.0
-2.694318,-4.663611,7.415358,93.940002,-0.84,-36.330002,1729416509169.0,0.0
-2.524428,-4.675575,6.948757,89.599998,0.21,-28.280001,1729416509188.0,0.0
-2.651247,-3.225525,6.908078,91.0,1.26,-17.08,1729416509211.0,0.0
-2.266003,-3.110669,6.809973,76.019997,5.67,-8.4,1729416509229.0,0.0
-2.550749,-2.749353,6.946364,65.870003,11.76,0.84,1729416509247.0,0.0
-2.349752,-2.553142,6.501299,63.209999,14.98,13.93,1729416509268.0,0.0
-4.130012,-2.586641,6.589834,45.360001,23.309999,35.91,1729416509288.0,0.0
-5.010571,-4.158726,5.82413,30.24,26.809999,38.57,1729416509309.0,0.0
-5.395815,-5.024928,5.962914,37.869999,31.85,37.73,1729416509328.0,0.0
-6.455836,-6.489335,6.838687,46.619999,36.189999,29.4,1729416509348.0,0.0
-7.688138,-6.821937,8.422735,68.669998,31.08,19.040001,1729416509368.0,0.0
-8.190632,-7.116255,9.341579,79.309998,17.85,2.03,1729416509388.0,0.0
-8.396415,-6.269196,9.946963,82.25,5.53,-20.65,1729416509410.0,0.0
-7.984849,-3.515057,10.368099,67.129997,-8.47,-40.25,1729416509428.0,0.0
-6.049056,-3.132205,8.587841,13.58,-24.710001,-48.439999,1729416509448.0,0.0
-6.893722,-6.041877,7.963314,-18.48,-32.549999,-55.16,1729416509468.0,0.0
-4.902894,-4.058227,8.638089,25.41,-42.209999,-63.279999,1729416509488.0,0.0
-3.335595,-1.100698,9.001799,47.389999,-46.130001,-65.730003,1729416509510.0,0.0
-0.842274,2.828316,7.738388,19.32,-40.670002,-55.790001,1729416509528.0,0.0
-2.510071,0.464208,6.400801,-77.07,-24.219999,-33.18,1729416509548.0,0.0
-1.940579,-3.232704,4.156333,-83.160004,-19.110001,-17.15,1729416509569.0,0.0
-1.89033,-1.715654,5.218746,0.07,-2.94,1.54,1729416509589.0,0.0
-2.718246,-1.698904,7.618747,29.889999,12.74,9.17,1729416509608.0,0.0
-2.723032,-0.550349,8.484949,28.84,24.01,21.210001,1729416509630.0,0.0
-2.861816,-1.435694,8.420342,2.66,26.74,33.040001,1729416509648.0,0.0
-2.938386,-2.732604,8.197811,-14.49,32.27,44.380001,1729416509668.0,0.0
-3.981657,-3.194418,7.396214,-20.440001,35.77,50.330002,1729416509688.0,0.0
-7.293324,-6.285945,8.044669,-17.290001,35.77,54.950001,1729416509709.0,0.0
-8.786445,-7.099504,8.717053,-4.76,24.57,43.330002,1729416509728.0,0.0
-7.606783,-6.91765,8.468199,20.51,7.77,17.290001,1729416509749.0,0.0
-6.982256,-6.73101,8.886944,26.6,-0.84,-8.61,1729416509768.0,0.0
-5.771489,-5.02732,8.949157,19.74,-5.6,-28.210001,1729416509788.0,0.0
-6.776474,-5.788238,8.709875,7.84,-12.88,-37.310001,1729416509809.0,0.0
-6.802795,-6.233303,7.750352,15.96,-25.129999,-46.900002,1729416509836.0,0.0
-5.245068,-4.039084,7.355537,37.380001,-29.82,-54.459999,1729416509848.0,0.0
-5.663811,-3.558127,7.491928,35.560001,-26.950001,-64.82,1729416509868.0,0.0
-3.567699,-2.139183,8.4012,42.209999,-26.880001,-74.550003,1729416509888.0,0.0
-1.942972,0.68674,9.753145,35.84,-25.27,-70.980003,1729416509910.0,0.0
-1.129412,1.050449,9.166903,-17.710001,-21.700001,-50.75,1729416509928.0,0.0
-0.631705,-0.459422,6.288338,-52.5,-19.879999,-27.719999,1729416509947.0,0.0
-0.765703,-0.392423,5.565705,-35.349998,-7.21,6.65,1729416509968.0,0.0
-2.203789,-1.304088,5.962914,-21.280001,7.28,22.469999,1729416509988.0,0.0
-1.761117,-0.655633,6.833901,-3.78,16.940001,37.029999,1729416510009.0,0.0
-2.029114,-0.193819,8.130811,-2.52,27.370001,56.98,1729416510031.0,0.0
-3.491128,-1.414158,7.618747,-23.1,33.32,70.980003,1729416510048.0,0.0
-4.486543,-1.655833,6.601797,-39.970001,40.740002,80.080002,1729416510068.0,0.0
-7.812566,-4.922036,6.905686,-53.900002,47.32,84.840004,1729416510090.0,0.0
-9.257831,-8.248059,7.853244,-34.299999,38.920002,67.970001,1729416510108.0,0.0
-11.521441,-9.79143,7.886744,20.790001,25.969999,33.740002,1729416510128.0,0.0
-6.13759,-6.872187,9.351151,58.380001,6.51,-4.34,1729416510148.0,0.0
-8.793623,-5.737988,10.011569,28.210001,-5.39,-13.37,1729416510168.0,0.0
-6.876972,-5.862415,8.693125,-2.24,-31.219999,-50.400002,1729416510189.0,0.0
-4.613362,-4.074977,7.960921,16.379999,-29.26,-54.389999,1729416510211.0,0.0
-5.785845,-4.867002,6.422336,0.7,-27.58,-61.740002,1729416510229.0,0.0
-4.656433,-2.979064,8.003991,32.200001,-25.83,-66.709999,1729416510249.0,0.0
-3.199204,-1.050449,8.733803,42.07,-26.460001,-74.199997,1729416510269.0,0.0
-1.773082,-0.334995,9.06162,16.450001,-23.940001,-64.330002,1729416510290.0,0.0
-1.141376,-0.691526,9.315259,-14.63,-19.809999,-45.5,1729416510311.0,0.0
-0.789631,-1.337588,8.427521,-20.23,-20.09,-25.41,1729416510329.0,0.0
-0.708275,0.011964,7.585248,-5.6,-15.82,-3.36,1729416510349.0,0.0
-1.883151,-1.550549,7.02772,-21.84,-5.32,13.3,1729416510369.0,0.0
-2.165504,-3.002992,6.833901,-19.6,2.8,24.85,1729416510389.0,0.0
-1.976472,-1.998007,7.06122,-1.05,9.8,33.740002,1729416510412.0,0.0
-2.9671,-1.864009,6.752545,-6.51,19.040001,43.259998,1729416510430.0,0.0
-4.13719,-1.899901,6.51087,-18.059999,29.33,52.360001,1729416510449.0,0.0
-4.843073,-1.191626,6.250053,-24.219999,37.869999,64.120003,1729416510469.0,0.0
-7.458428,-4.041477,6.597012,-24.710001,42.279999,75.739998,1729416510490.0,0.0
-10.317852,-9.702895,8.898908,-2.73,35.349998,58.799999,1729416510510.0,0.0
-10.212566,-9.150154,9.844072,44.450001,13.65,17.43,1729416510530.0,0.0
-6.582655,-5.572884,9.408579,55.09,-3.71,-21.84,1729416510555.0,0.0
-6.376873,-6.250053,9.305687,9.8,-13.23,-47.18,1729416510571.0,0.0
-5.359922,-4.204189,9.382257,17.92,-24.780001,-54.950001,1729416510590.0,0.0
-5.807381,-5.120641,8.46102,14.49,-35.98,-56.630001,1729416510612.0,0.0
-4.445865,-4.144369,8.295916,34.16,-41.650002,-65.660004,1729416510629.0,0.0
-3.18724,-1.591227,8.645268,46.970001,-39.060001,-73.779999,1729416510649.0,0.0
-1.792224,1.880759,8.595018,23.1,-34.09,-68.879997,1729416510669.0,0.0
-1.586441,-0.160319,6.82433,-40.32,-24.219999,-52.220001,1729416510689.0,0.0
-1.442872,-1.74676,6.331409,-26.950001,-17.710001,-35.209999,1729416510712.0,0.0
-0.571885,0.492921,6.774081,22.190001,-9.24,-16.450001,1729416510730.0,0.0
-0.777667,0.803988,7.479963,15.47,4.48,4.62,1729416510749.0,0.0
-2.344966,-1.880759,7.609176,-13.3,13.72,20.860001,1729416510769.0,0.0
-2.232504,-2.325824,7.073184,-15.4,16.799999,31.15,1729416510790.0,0.0
-1.722832,-1.847259,7.881958,5.53,21.84,42.98,1729416510811.0,0.0
-3.287738,-2.445465,8.77448,0.07,27.719999,49.700001,1729416510829.0,0.0
-4.266403,-2.325824,9.001799,-15.47,28.49,53.200001,1729416510849.0,0.0
-5.099105,-3.462414,7.63789,-41.860001,26.6,52.709999,1729416510869.0,0.0
-7.613962,-7.422535,7.302894,-39.130001,26.6,59.360001,1729416510890.0,0.0
-7.798209,-6.443871,8.003991,7.28,21.35,30.17,1729416510911.0,0.0
-7.190433,-5.635098,8.843873,28.84,10.85,7.0,1729416510930.0,0.0
-6.783652,-5.802595,9.355937,18.41,10.85,-14.07,1729416510949.0,0.0
-6.908078,-5.936593,9.257831,4.2,-12.18,-31.15,1729416510969.0,0.0
-5.814559,-3.907479,9.190832,14.98,-23.52,-40.950001,1729416510990.0,0.0
-5.991628,-3.943372,8.233703,12.32,-31.01,-44.029999,1729416511010.0,0.0
-5.091926,-3.893122,7.776673,8.75,-34.509998,-56.420002,1729416511034.0,0.0
-3.316452,-1.612763,7.946564,33.18,-33.25,-60.200001,1729416511049.0,0.0
-2.457429,0.655633,8.496914,18.200001,-26.18,-49.98,1729416511069.0,0.0
-0.636491,0.51685,8.671589,-21.700001,-17.85,-36.470001,1729416511090.0,0.0
0.172283,0.677169,7.467999,-36.82,-13.3,-13.79,1729416511110.0,0.0
-1.012164,-1.801795,6.293124,-33.110001,-8.68,10.43,1729416511129.0,0.0
-1.603191,-3.096312,6.597012,-11.13,2.87,21.77,1729416511150.0,0.0
-1.529014,-1.347159,7.542177,15.05,12.18,30.1,1729416511169.0,0.0
-0.729811,0.37328,8.233703,6.51,18.549999,44.52,1729416511189.0,0.0
-2.411965,-1.457229,7.659425,-37.66,24.99,60.27,1729416511210.0,0.0
-5.070391,-4.878965,7.288538,-44.73,29.960001,72.449997,1729416511230.0,0.0
-8.812766,-6.905686,7.865208,-41.439999,37.310001,67.269997,1729416511248.0,0.0
-7.9346,-7.365108,8.269595,-11.2,25.200001,42.630001,1729416511269.0,0.0
-6.003592,-5.915058,8.85105,2.87,14.7,13.58,1729416511289.0,0.0
-5.618347,-5.407779,8.226524,-12.11,9.03,0.56,1729416511310.0,0.0
-7.336394,-7.140182,8.99462,-24.85,2.17,-9.73,1729416511330.0,0.0
-8.142776,-6.635297,8.843873,7.91,-16.379999,-24.43,1729416511348.0,0.0
-6.156733,-2.926422,7.805387,26.530001,-30.1,-41.09,1729416511368.0,0.0
-6.4678,-5.005785,7.463214,0.35,-27.65,-52.5,1729416511390.0,0.0
-4.591826,-3.48395,8.236095,21.559999,-22.540001,-59.5,1729416511409.0,0.0
-3.498307,-2.132005,8.662018,27.93,-18.969999,-61.32,1729416511429.0,0.0
-2.189433,0.270389,8.389235,13.72,-15.47,-52.43,1729416511449.0,0.0
-1.440479,0.062213,7.781459,-29.75,-9.45,-38.5,1729416511469.0,0.0
-1.086342,-1.115055,6.943972,-42.84,-5.11,-17.99,1729416511489.0,0.0
-1.117448,-2.031506,6.826723,-20.58,0.77,2.38,1729416511509.0,0.0
-1.864009,-2.321038,7.499106,8.05,7.98,16.1,1729416511529.0,0.0
-1.945365,-2.017149,7.946564,24.5,13.51,26.040001,1729416511548.0,0.0
-1.387837,-0.591027,8.489735,11.83,20.440001,34.650002,1729416511569.0,0.0
-3.074777,-2.230111,7.587641,-39.27,31.5,57.540001,1729416511589.0,0.0
-3.45045,-2.141576,6.850651,-35.0,33.110001,70.629997,1729416511610.0,0.0
-6.250053,-3.507878,6.367301,-37.450001,40.880001,83.860001,1729416511630.0,0.0
-9.693325,-8.10449,7.025328,-43.330002,42.349998,69.790001,1729416511650.0,0.0
-8.370094,-9.071191,8.922836,8.54,28.559999,42.77,1729416511668.0,0.0
-8.415558,-7.453642,10.04507,36.470001,13.23,9.31,1729416511690.0,0.0
-7.357929,-5.465207,8.908479,18.129999,-4.76,-17.639999,1729416511714.0,0.0
-6.853044,-5.888737,7.104291,-13.440001,-14.84,-37.52,1729416511729.0,0.0
-6.221339,-5.099105,6.513263,-1.33,-18.200001,-46.48,1729416511749.0,0.0
-7.286145,-7.195218,7.142576,15.26,-18.200001,-57.75,1729416511768.0,0.0
-5.424529,-4.520042,8.970692,63.84,-21.35,-70.139999,1729416511789.0,0.0
-4.261617,-2.459821,10.080962,63.490002,-24.01,-77.840004,1729416511811.0,0.0
-2.433501,0.555135,9.523434,22.26,-28.559999,-76.160004,1729416511832.0,0.0
-1.007378,1.201197,7.453642,-37.66,-26.25,-59.5,1729416511848.0,0.0
-0.490529,-0.425922,6.23091,-59.779999,-18.83,-33.950001,1729416511875.0,0.0
-0.765703,-1.284946,6.396015,-26.110001,-8.82,-8.26,1729416511889.0,0.0
-1.820938,-1.682154,7.211967,22.82,1.19,20.860001,1729416511912.0,0.0
-1.445265,-0.119641,8.030313,26.110001,12.74,36.959999,1729416511930.0,0.0
-1.397408,-0.940379,7.970492,-4.27,18.27,56.0,1729416511948.0,0.0
-3.39063,-3.775874,7.034898,-39.830002,27.02,68.739998,1729416511969.0,0.0
-4.180261,-4.149154,6.486942,-29.75,31.92,72.660004,1729416511989.0,0.0
-6.802795,-5.922236,7.204789,-11.55,36.400002,72.660004,1729416512010.0,0.0
-10.336994,-7.67139,7.88435,-6.72,33.389999,57.119999,1729416512033.0,0.0
-8.865408,-7.563712,8.566305,11.41,17.780001,26.25,1729416512048.0,0.0
-7.977671,-6.551548,9.312866,17.99,4.97,-6.51,1729416512068.0,0.0
-8.061419,-5.903094,8.796017,13.37,-8.47,-29.049999,1729416512089.0,0.0
-7.616355,-5.048856,7.695317,12.39,-21.210001,-49.139999,1729416512121.0,0.0
-7.018148,-4.797609,6.470192,19.950001,-26.25,-60.060001,1729416512130.0,0.0
-5.352744,-4.828716,7.24786,28.07,-25.549999,-74.269997,1729416512150.0,0.0
-3.9338,-2.663212,8.906086,57.330002,-25.129999,-73.849998,1729416512170.0,0.0
-1.811367,0.275175,9.525827,39.200001,-27.299999,-69.860001,1729416512190.0,0.0
-0.87338,1.012164,8.094919,-32.970001,-25.059999,-47.389999,1729416512210.0,0.0
-0.512064,-1.031307,6.242875,-65.379997,-20.51,-25.34,1729416512231.0,0.0
-0.172283,-2.079363,5.630312,-38.220001,-9.66,-1.96,1729416512251.0,0.0
-1.208375,-2.275574,6.448657,4.06,5.11,16.52,1729416512269.0,0.0
-1.971686,-1.524228,7.60439,25.27,15.47,29.82,1729416512290.0,0.0
-1.117448,0.208176,7.88435,15.54,22.049999,46.619999,1729416512311.0,0.0
-3.067599,-1.794617,7.147361,-27.65,30.030001,65.730003,1729416512330.0,0.0
-4.426722,-3.608376,6.702296,-42.700001,36.330002,74.900002,1729416512351.0,0.0
-6.26441,-5.613562,7.21436,-25.690001,40.880001,77.559998,1729416512370.0,0.0
-9.310472,-7.427321,7.635497,-5.6,40.740002,61.810001,1729416512393.0,0.0
-10.102496,-7.616355,9.432507,18.690001,27.93,35.91,1729416512412.0,0.0
-8.465806,-6.778866,10.523634,25.620001,7.14,-0.49,1729416512430.0,0.0
-8.322237,-6.611369,9.822537,14.35,-11.48,-28.630001,1729416512451.0,0.0
-6.723832,-4.9675,7.479963,4.62,-24.99,-52.639999,1729416512470.0,0.0
-5.970093,-4.266403,6.460621,7.42,-24.08,-57.959999,1729416512491.0,0.0
-5.599205,-5.355137,8.305488,11.9,-21.700001,-69.580002,1729416512510.0,0.0
-4.302295,-2.78046,9.879964,65.870003,-26.25,-79.379997,1729416512533.0,0.0
-2.344966,-0.160319,9.710074,37.450001,-30.17,-75.669998,1729416512552.0,0.0
-1.050449,1.033699,7.843673,-22.960001,-27.719999,-63.490002,1729416512572.0,0.0
-0.531207,0.122034,6.290731,-62.439999,-20.65,-39.970001,1729416512597.0,0.0
-0.478565,-0.868595,5.486742,-42.139999,-12.25,-14.28,1729416512612.0,0.0
-1.026521,-1.588834,5.783452,4.13,-0.42,9.1,1729416512631.0,0.0
-2.342573,-1.785046,7.046863,31.08,12.67,24.01,1729416512652.0,0.0
-1.689333,0.066999,8.12124,37.310001,18.41,38.290001,1729416512672.0,0.0
-1.765903,-0.119641,7.927422,4.9,23.030001,58.240002,1729416512694.0,0.0
-2.928815,-2.895315,7.128219,-33.040001,31.5,74.340004,1729416512714.0,0.0
-4.082155,-4.024727,7.142576,-32.34,39.48,82.32,1729416512734.0,0.0
-6.441479,-6.396015,7.987241,-17.5,44.59,82.809998,1729416512751.0,0.0
-9.896714,-7.633104,8.286345,-10.99,41.720001,62.02,1729416512772.0,0.0
-8.415558,-7.190433,9.257831,9.94,23.940001,34.02,1729416512792.0,0.0
-7.121039,-5.690133,8.889337,13.37,0.7,-11.48,1729416512813.0,0.0
-8.01117,-6.297909,8.475377,-0.35,-10.36,-30.380001,1729416512833.0,0.0
-7.164111,-4.161119,6.73101,11.48,-21.280001,-47.670002,1729416512851.0,0.0
-6.9009,-5.304887,6.424729,14.0,-23.17,-58.66,1729416512872.0,0.0
-5.599205,-4.965107,8.204988,43.959999,-22.190001,-70.07,1729416512894.0,0.0
-4.101298,-2.392823,9.903893,63.98,-24.01,-75.529999,1729416512913.0,0.0
-2.624927,0.114855,9.659825,30.17,-28.280001,-72.029999,1729416512932.0,0.0
-1.643869,0.4666,8.078169,-28.139999,-27.719999,-60.060001,1729416512952.0,0.0
-1.177269,-0.914058,6.458229,-61.18,-23.379999,-42.490002,1729416512971.0,0.0
-0.935594,-1.825724,5.972485,-37.59,-14.56,-21.98,1729416512993.0,0.0
-0.658026,-1.471586,6.489335,5.81,-2.45,-2.59,1729416513014.0,0.0
-1.665405,-1.172483,7.15454,28.630001,8.89,15.82,1729416513034.0,0.0
-1.612763,-0.078963,7.661818,27.58,15.33,33.18,1729416513051.0,0.0
-1.442872,-0.512064,7.73121,2.52,21.77,53.48,1729416513071.0,0.0
-3.474378,-3.20399,7.432107,-30.66,29.610001,67.620003,1729416513093.0,0.0
-4.744967,-3.694518,7.049256,-29.049999,33.529999,71.190002,1729416513112.0,0.0
-5.733203,-5.056034,7.312466,-19.32,37.59,70.840004,1729416513132.0,0.0
-9.997212,-7.226324,7.932207,-16.309999,35.700001,52.709999,1729416513151.0,0.0
-9.461221,-7.704889,9.102298,0.35,20.790001,24.15,1729416513171.0,0.0
-7.271788,-5.927022,9.006584,14.07,3.64,-7.7,1729416513191.0,0.0
-7.298109,-4.991428,8.683553,6.09,-6.44,-27.16,1729416513213.0,0.0
-6.805188,-4.419543,7.980063,-3.71,-15.26,-40.880001,1729416513232.0,0.0
-6.683154,-4.618148,7.310073,3.43,-21.700001,-47.389999,1729416513252.0,0.0
-6.206983,-5.553742,7.850852,15.26,-24.710001,-59.709999,1729416513272.0,0.0
-4.658825,-3.704089,9.111869,43.889999,-26.880001,-66.360001,1729416513292.0,0.0
-3.364309,-1.981257,9.556933,36.889999,-29.33,-68.110001,1729416513312.0,0.0
-2.330609,-0.055035,8.535198,3.01,-30.870001,-60.830002,1729416513333.0,0.0
-1.344766,0.177069,6.458229,-45.080002,-25.620001,-47.459999,1729416513351.0,0.0
-1.012164,-1.229911,5.611169,-50.889999,-15.61,-24.99,1729416513371.0,0.0
-0.945165,-1.658226,5.922236,-15.33,-3.71,-5.18,1729416513392.0,0.0
-1.715654,-1.813759,7.003791,18.969999,7.63,12.67,1729416513412.0,0.0
-2.007578,-1.004985,7.929814,31.639999,14.56,27.370001,1729416513433.0,0.0
-1.20359,-0.083749,8.059027,18.27,18.969999,45.43,1729416513450.0,0.0
-3.751946,-2.880959,6.833901,-24.08,26.67,62.369999,1729416513472.0,0.0
-4.577469,-3.699304,6.726225,-32.970001,34.299999,73.639999,1729416513492.0,0.0
-6.570691,-5.970093,7.496714,-17.01,39.060001,74.410004,1729416513511.0,0.0
-10.047462,-7.556533,8.451449,-2.59,36.889999,56.139999,1729416513532.0,0.0
-9.738789,-7.530212,9.678967,8.54,20.440001,25.9,1729416513552.0,0.0
-7.293324,-6.388836,9.616754,8.05,2.31,-8.61,1729416513571.0,0.0
-8.039884,-6.072984,9.142976,0.07,-9.94,-29.75,1729416513591.0,0.0
-6.903293,-3.931407,7.489535,-2.59,-22.190001,-47.389999,1729416513613.0,0.0
-6.625726,-4.754539,6.458229,-5.6,-25.83,-53.970001,1729416513631.0,0.0
-5.759524,-5.572884,7.57089,16.59,-24.85,-65.449997,1729416513650.0,0.0
-4.204189,-3.160919,9.320045,54.25,-25.549999,-70.489998,1729416513672.0,0.0
-2.739782,-0.732204,9.635897,41.439999,-28.84,-68.949997,1729416513691.0,0.0
-1.617548,0.174676,8.30788,-0.77,-28.98,-58.450001,1729416513711.0,0.0
-0.937986,-0.512064,6.687939,-42.630001,-22.33,-43.119999,1729416513734.0,0.0
-0.899701,-2.005185,5.95095,-37.380001,-13.02,-21.98,1729416513751.0,0.0
-0.713061,-1.435694,5.991628,2.17,-2.17,-2.52,1729416513770.0,0.0
-1.789831,-1.447658,6.987042,26.6,8.61,15.190001,1729416513792.0,0.0
-1.323231,0.179462,7.889136,30.17,16.17,30.030001,1729416513812.0,0.0
-1.871187,-0.866202,7.501499,-12.32,24.5,60.689999,1729416513831.0,0.0
-3.531806,-2.919244,6.814759,-41.720001,32.34,76.370003,1729416513851.0,0.0
-4.740182,-3.940979,6.771688,-36.119999,37.029999,83.510002,1729416513870.0,0.0
-6.735795,-6.262017,7.183254,-23.73,42.139999,81.410004,1729416513901.0,0.0
-10.805987,-8.360522,8.348558,-14.0,41.16,60.34,1729416513914.0,0.0
-10.305886,-8.236095,9.68136,7.28,22.190001,26.25,1729416513986.0,0.0
-8.580662,-6.709475,9.980463,19.040001,0.84,-11.97,1729416513987.0,0.0
-8.202596,-5.391029,8.743374,11.2,-16.030001,-37.73,1729416513987.0,0.0
-6.537192,-2.624927,6.754939,0.84,-23.59,-52.360001,1729416513996.0,0.0
-6.577869,-4.603791,6.608976,-7.7,-21.0,-54.459999,1729416514022.0,0.0
-5.668597,-5.891129,7.999206,18.059999,-20.65,-64.540001,1729416514034.0,0.0
-4.67079,-4.232903,9.21476,56.139999,-22.82,-71.75,1729416514050.0,0.0
-3.335595,-2.136791,9.607183,48.16,-26.74,-76.370003,1729416514071.0,0.0
-2.172683,-0.090927,8.288737,12.46,-28.210001,-71.260002,1729416514091.0,0.0
-1.512264,-0.09332,7.152147,-35.0,-22.960001,-55.93,1729416514111.0,0.0
-1.48355,-1.469193,6.075377,-45.150002,-17.43,-36.119999,1729416514132.0,0.0
-0.622134,-0.751346,6.142376,10.22,-8.54,-5.67,1729416514151.0,0.0
-1.524228,-0.993021,6.826723,25.059999,11.2,12.88,1729416514171.0,0.0
-2.017149,-0.87338,7.310073,24.43,19.950001,30.940001,1729416514191.0,0.0
-1.514657,0.311067,7.996813,17.710001,25.83,52.5,1729416514213.0,0.0
-3.383451,-1.765903,7.592427,-14.98,32.060001,70.910004,1729416514232.0,0.0
-4.843073,-3.388237,6.941578,-34.299999,38.150002,77.0,1729416514251.0,0.0
-5.510671,-4.711468,7.077969,-26.25,41.790001,78.959999,1729416514272.0,0.0
-7.334002,-7.314859,7.896315,-6.79,43.75,71.610001,1729416514291.0,0.0
-9.939785,-7.707282,8.408379,11.97,38.080002,48.509998,1729416514313.0,0.0
-9.24826,-6.888937,9.521042,18.9,23.030001,17.57,1729416514332.0,0.0
-6.683154,-5.015356,9.609575,11.48,6.02,-11.76,1729416514350.0,0.0
-8.003991,-6.183054,9.415757,-1.89,-9.1,-26.25,1729416514370.0,0.0
-8.11167,-5.702096,8.463413,10.99,-26.67,-42.98,1729416514391.0,0.0
-5.898308,-3.18724,7.094719,33.110001,-36.889999,-52.150002,1729416514412.0,0.0
-5.941379,-5.233103,7.195218,26.32,-31.639999,-62.299999,1729416514431.0,0.0
-5.032106,-4.345366,9.071191,62.580002,-28.35,-72.169998,1729416514451.0,0.0
-4.161119,-2.402394,10.325029,71.959999,-31.780001,-81.410004,1729416514470.0,0.0
-2.804388,-0.904487,8.082954,27.860001,-39.41,-79.169998,1729416514490.0,0.0
-2.17029,-1.055235,7.200003,3.85,-34.720001,-69.650002,1729416514511.0,0.0
-1.548156,0.157926,7.042077,3.01,-26.67,-54.880001,1729416514531.0,0.0
-0.952343,1.761117,7.355537,1.82,-18.129999,-35.490002,1729416514551.0,0.0
-1.0002,1.368695,6.910471,-16.940001,-11.06,-10.99,1729416514571.0,0.0
-2.084148,-0.533599,6.455836,-27.65,-3.01,12.04,1729416514590.0,0.0
-1.694118,0.114855,6.893722,-6.02,3.64,32.48,1729416514612.0,0.0
-1.974079,0.574277,7.932207,4.69,9.1,57.400002,1729416514637.0,0.0
-2.045863,0.562313,7.709675,-20.370001,13.65,76.370003,1729416514650.0,0.0
-3.644269,-1.643869,8.001599,-39.34,17.01,102.970001,1729416514703.0,0.0
-6.166305,-5.771489,7.147361,-66.150002,18.41,106.400002,1729416514704.0,0.0
-5.69731,-6.867401,7.645068,-52.849998,15.190001,93.309998,1729416514814.0,0.0
-5.379066,-4.089334,7.609176,-34.650002,12.46,82.879997,1729416514817.0,0.0
-5.312066,-1.20359,7.525427,-57.82,11.97,84.209999,1729416514818.0,0.0
-6.369694,0.662812,8.573483,-146.089996,15.12,88.340004,1729416514819.0,0.0
-6.568298,-1.17009,7.829315,-294.48999,6.09,86.449997,1729416514820.0,0.0
-7.166504,-4.046263,3.134598,-445.830017,-6.51,73.57,1729416514821.0,0.0
-6.611369,-5.474778,-0.504886,-548.869995,-20.23,60.549999,1729416514830.0,0.0
-7.941778,-7.62114,-1.292124,-555.23999,-16.030001,52.990002,1729416514849.0,0.0
-8.477771,-10.435099,-0.251246,-572.179993,-16.59,11.76,1729416514869.0,0.0
-7.786245,-10.96152,-1.95015,-594.650024,-22.469999,-38.290001,1729416514889.0,0.0
-5.802595,-9.719646,-5.778666,-521.570007,-41.860001,-53.27,1729416514913.0,0.0
-2.754139,-12.916457,-9.145369,-453.73999,-35.77,-52.779999,1729416514930.0,0.0
-2.651247,-13.902299,-10.758131,-378.559998,12.6,-50.400002,1729416514949.0,0.0
-3.67059,-12.605389,-10.377672,-240.589996,53.760002,-46.27,1729416514969.0,0.0
-2.787638,-7.984849,-5.886343,-114.099998,76.160004,-48.439999,1729416514990.0,0.0
-5.022535,-10.786844,-2.385644,-17.639999,76.720001,-40.459999,1729416515042.0,0.0
-7.140182,-5.513064,3.5007,41.790001,59.57,-49.560001,1729416515043.0,0.0
-4.168297,-11.030912,-2.120041,-5.67,27.02,-48.23,1729416515055.0,0.0
-2.258825,-11.389835,-5.209175,19.530001,27.51,-51.52,1729416515070.0,0.0
-1.962115,-10.387242,-5.728417,58.240002,42.420002,-46.689999,1729416515153.0,0.0
-1.942972,-11.724831,-3.268596,117.459999,51.869999,-39.060001,1729416515154.0,0.0
-1.840081,-7.556533,-2.005185,166.600006,44.799999,-37.380001,1729416515154.0,0.0
-0.859023,-11.23191,-1.100698,177.869995,35.91,-35.560001,1729416515174.0,0.0
0.619741,-8.248059,0.165105,240.940002,18.620001,-33.040001,1729416515174.0,0.0
0.823131,-6.766902,0.990629,264.950012,15.190001,-11.41,1729416515189.0,0.0
1.208375,-6.197411,1.617548,279.720001,2.66,17.710001,1729416515210.0,0.0
-0.01675,-7.173682,-0.653241,240.660004,7.77,38.290001,1729416515230.0,0.0
-1.947758,-10.447062,0.892523,208.880005,24.43,45.57,1729416515249.0,0.0
-3.460021,-6.853044,4.223332,207.479996,17.360001,41.23,1729416515268.0,0.0
-1.837688,-8.425128,3.842873,175.910004,-13.440001,37.450001,1729416515289.0,0.0
-1.378266,-9.245867,2.277967,117.949997,-21.0,35.700001,1729416515310.0,0.0
-3.438486,-7.046863,3.268596,95.199997,-9.59,49.0,1729416515331.0,0.0
-4.412365,-8.437093,3.960121,40.670002,-5.11,43.82,1729416515351.0,0.0
-4.63729,-10.693524,2.127219,2.17,-7.14,35.279999,1729416515370.0,0.0
-5.402994,-10.389636,0.131605,1.96,5.67,29.610001,1729416515392.0,0.0
-5.635098,-8.91805,-1.399801,27.370001,13.09,28.280001,1729416515413.0,0.0
-6.300302,-9.79143,-0.291924,52.5,25.690001,25.41,1729416515431.0,0.0
-7.594819,-10.710274,1.014557,84.139999,31.360001,8.12,1729416515450.0,0.0
-8.590233,-9.762716,1.820938,80.57,32.759998,-18.41,1729416515472.0,0.0
-6.398407,-10.29153,1.660619,33.880001,35.84,-46.34,1729416515490.0,0.0
-5.515456,-10.715059,1.696511,-27.93,48.02,-80.43,1729416515513.0,0.0
-4.74736,-9.080762,3.574877,5.18,49.98,-84.629997,1729416515530.0,0.0
-2.991028,-6.680761,5.941379,46.060001,39.689999,-79.730003,1729416515550.0,0.0
0.009571,-3.314059,7.357929,58.099998,21.210001,-68.25,1729416515570.0,0.0
2.268396,-3.146562,7.898707,14.42,6.51,-45.43,1729416515590.0,0.0
1.849652,-4.788038,6.62094,-23.799999,-7.77,-14.14,1729416515610.0,0.0
1.282553,-5.228317,6.305088,-7.28,-14.35,14.35,1729416515635.0,0.0
0.674776,-3.460021,5.838487,11.62,-17.15,37.59,1729416515651.0,0.0
0.768096,-4.493721,4.682754,4.69,-18.27,57.260002,1729416515669.0,0.0
-2.091327,-8.327023,3.845266,7.42,-15.05,77.139999,1729416515690.0,0.0
-3.498307,-7.886744,6.766902,54.740002,-21.280001,88.199997,1729416515712.0,0.0
-6.809973,-6.67119,7.314859,17.290001,-29.68,103.25,1729416515736.0,0.0
-9.707682,-13.808979,1.923829,-116.480003,-22.68,69.790001,1729416515751.0,0.0
-8.520842,-15.127424,-1.12702,-99.330002,-17.15,35.91,1729416515772.0,0.0
-8.695518,-13.124631,-1.299303,-28.42,0.84,4.55,1729416515790.0,0.0
-8.652447,-12.256038,0.346959,25.690001,13.79,-19.6,1729416515811.0,0.0
-9.98525,-10.664811,2.548356,34.860001,18.41,-61.670002,1729416515830.0,0.0
-6.565905,-5.347959,2.019542,-10.5,14.98,-87.010002,1729416515849.0,0.0
-1.330409,-8.178668,3.431308,-16.940001,-1.47,-85.889999,1729416515870.0,0.0
-0.217747,-6.630512,6.326623,44.380001,-3.71,-70.489998,1729416515890.0,0.0
0.234497,-2.754139,8.611769,71.050003,-4.9,-44.939999,1729416515910.0,0.0
2.663212,-3.206382,7.281359,27.719999,-11.97,-20.93,1729416515930.0,0.0
1.332802,-5.9342,5.807381,-27.370001,-8.61,0.98,1729416515950.0,0.0
0.277567,-7.470392,3.957729,-38.779999,-8.68,16.1,1729416515970.0,0.0
-0.160319,-7.690532,3.270989,-19.530001,-6.51,28.139999,1729416515989.0,0.0
-0.957129,-6.690332,3.976871,3.01,-2.59,37.52,1729416516014.0,0.0
-0.114855,-6.673582,3.550949,37.73,-7.91,58.380001,1729416516032.0,0.0
-2.830709,-7.508677,6.345766,66.360001,-10.01,70.699997,1729416516049.0,0.0
-4.113262,-5.752346,6.522834,58.380001,-18.690001,84.07,1729416516071.0,0.0
-7.475177,-9.659825,4.311867,-42.279999,-12.39,74.340004,1729416516091.0,0.0
-8.274381,-12.79203,0.885344,-70.980003,-7.77,56.490002,1729416516111.0,0.0
-9.049655,-13.366307,-0.358923,-22.68,2.24,30.450001,1729416516131.0,0.0
-9.030513,-12.303895,2.057827,32.200001,13.09,1.68,1729416516151.0,0.0
-9.982857,-10.959127,3.426522,52.709999,12.18,-43.889999,1729416516170.0,0.0
-8.973085,-9.671788,2.545963,17.92,6.02,-73.43,1729416516191.0,0.0
-6.001199,-8.736196,1.124627,-25.83,11.06,-101.57,1729416516214.0,0.0
-2.842674,-6.171089,2.708675,-14.84,23.52,-104.019997,1729416516230.0,0.0
-1.457229,-7.111469,5.962914,47.25,19.6,-84.559998,1729416516252.0,0.0
-1.749153,-2.651247,9.839286,63.139999,12.88,-68.040001,1729416516269.0,0.0
0.277567,-5.821737,7.422535,-12.11,-7.07,-59.779999,1729416516290.0,0.0
2.344966,-6.149554,6.281159,-30.1,-14.56,-43.540001,1729416516312.0,0.0
3.400201,-4.481757,6.094519,-23.59,-12.32,-26.040001,1729416516330.0,0.0
2.179861,-4.457829,6.297909,-20.02,-9.8,3.15,1729416516349.0,0.0
0.928415,-4.783253,6.235696,-9.38,-14.21,28.98,1729416516369.0,0.0
0.586242,-4.338188,5.60399,-12.74,-19.950001,49.209999,1729416516389.0,0.0
0.198604,-5.218746,3.443272,-37.73,-20.23,69.300003,1729416516411.0,0.0
-2.237289,-7.221539,2.464607,-42.630001,-13.58,92.610001,1729416516430.0,0.0
-5.881558,-10.289137,5.486742,-7.84,-13.58,100.519997,1729416516449.0,0.0
-7.140182,-7.771888,5.592027,-7.56,-16.799999,91.559998,1729416516469.0,0.0
-9.01137,-12.933208,-0.009571,-88.480003,-10.29,69.370003,1729416516490.0,0.0
-9.442079,-14.105689,-1.964507,-58.52,8.26,22.33,1729416516509.0,0.0
-9.920642,-13.050454,-0.770489,17.639999,21.700001,-6.3,1729416516530.0,0.0
-10.370493,-11.751152,1.335195,65.029999,25.549999,-35.279999,1729416516549.0,0.0
-9.95175,-10.963913,2.67039,61.110001,22.049999,-68.389999,1729416516569.0,0.0
-6.922436,-7.989635,1.87358,17.92,17.639999,-94.010002,1729416516592.0,0.0
-3.132205,-9.786645,3.227918,-10.5,18.41,-104.580002,1729416516609.0,0.0
-1.916651,-6.415157,7.051648,54.740002,15.26,-95.199997,1729416516629.0,0.0
1.320838,-1.225125,8.123632,68.809998,4.06,-70.629997,1729416516648.0,0.0
2.136791,-3.706482,7.580462,-12.25,4.34,-57.330002,1729416516668.0,0.0
3.266203,-5.453243,5.623133,-37.450001,0.84,-33.950001,1729416516688.0,0.0
3.598805,-5.728417,4.515256,-14.49,0.49,-6.16,1729416516709.0,0.0
1.866402,-5.766702,5.268995,13.58,5.46,19.32,1729416516729.0,0.0
0.614955,-4.821537,5.76431,29.33,2.59,38.080002,1729416516748.0,0.0
0.681954,-3.369094,5.568098,25.969999,-4.27,57.610001,1729416516768.0,0.0
-0.825524,-4.658825,3.649055,-8.05,-5.18,84.07,1729416516788.0,0.0
-3.304488,-8.719445,3.548556,-14.42,-1.68,108.43,1729416516809.0,0.0
-6.034698,-6.51087,8.039884,36.470001,-10.92,114.099998,1729416516829.0,0.0
-9.06162,-8.733803,3.512664,-63.91,-15.26,91.419998,1729416516849.0,0.0
-9.195618,-14.615361,-1.009771,-126.489998,-7.49,54.389999,1729416516869.0,0.0
-9.600004,-14.227723,-1.588834,-37.170002,8.33,25.690001,1729416516889.0,0.0
-9.169296,-11.021341,0.375673,46.41,17.780001,-3.71,1729416516910.0,0.0
-8.817552,-9.937392,1.708475,58.799999,17.710001,-31.360001,1729416516930.0,0.0
-9.217153,-11.112268,2.206182,38.57,14.49,-54.880001,1729416516949.0,0.0
-8.673983,-10.889735,1.423729,9.59,14.49,-82.040001,1729416516976.0,0.0
-5.532206,-9.152546,1.588834,-1.61,20.58,-104.090004,1729416516991.0,0.0
-2.79721,-5.594419,4.04387,6.3,30.870001,-106.540001,1729416517010.0,0.0
-0.5001,-5.398208,7.068398,47.599998,19.530001,-83.720001,1729416517034.0,0.0
-0.114855,-2.175076,9.934999,68.949997,7.14,-61.18,1729416517050.0,0.0
2.524428,-2.828316,8.480164,19.18,-12.53,-39.830002,1729416517070.0,0.0
2.667997,-4.646862,7.113862,-17.92,-15.61,-13.72,1729416517090.0,0.0
1.488336,-5.831308,5.95095,-33.25,-10.57,7.35,1729416517111.0,0.0
0.765703,-7.015756,4.737789,-34.09,-6.44,24.219999,1729416517130.0,0.0
0.401994,-5.694918,4.027121,-6.37,-5.74,44.170002,1729416517150.0,0.0
-1.160519,-7.142576,3.223132,4.2,-4.69,67.410004,1729416517170.0,0.0
-4.151547,-7.664211,6.195018,51.66,-8.54,84.279999,1729416517190.0,0.0
-3.761517,-3.862016,7.477571,83.090004,-20.370001,97.160004,1729416517212.0,0.0
-7.415358,-7.822137,5.024928,-45.220001,-12.39,89.739998,1729416517230.0,0.0
-8.25763,-10.980663,1.392623,-92.68,-12.04,76.720001,1729416517250.0,0.0
-9.815358,-12.770494,0.641276,-59.290001,-0.77,54.25,1729416517270.0,0.0
-10.124033,-11.535798,0.756132,-11.41,7.49,25.27,1729416517290.0,0.0
-9.41815,-10.449455,1.22034,9.31,11.62,-5.81,1729416517316.0,0.0
-9.126225,-11.485549,2.021935,22.469999,10.78,-30.17,1729416517332.0,0.0
-9.159724,-10.530812,1.785046,16.59,13.37,-61.599998,1729416517350.0,0.0
-6.398407,-9.245867,0.636491,-23.799999,19.040001,-87.57,1729416517370.0,0.0
-4.697111,-11.286944,0.713061,-44.59,31.710001,-102.550003,1729416517390.0,0.0
-1.414158,-6.034698,5.737988,-5.11,38.43,-103.110001,1729416517413.0,0.0
1.038485,-2.938386,9.573684,91.279999,17.780001,-64.82,1729416517432.0,0.0
-0.26321,0.507278,12.452249,64.540001,3.36,-37.869999,1729416517453.0,0.0
1.725225,-3.235096,8.269595,-34.02,-18.690001,-18.76,1729416517472.0,0.0
0.870987,-6.494121,5.886343,-63.349998,-14.77,3.64,1729416517493.0,0.0
0.454636,-7.109076,5.142176,-44.029999,-6.44,20.860001,1729416517512.0,0.0
-1.428515,-8.030313,4.850252,-39.549999,-0.91,34.650002,1729416517532.0,0.0
0.023928,-5.867201,3.148954,-22.960001,-11.97,48.580002,1729416517552.0,0.0
-0.928415,-6.920043,2.050649,-2.1,-16.379999,69.580002,1729416517571.0,0.0
-3.065206,-6.74776,4.228118,48.650002,-18.41,91.910004,1729416517592.0,0.0
-5.723632,-5.733203,5.888737,55.860001,-19.6,101.150002,1729416517613.0,0.0
-8.877372,-9.059227,3.876373,-32.689999,-15.26,90.370003,1729416517632.0,0.0
-10.459028,-13.194024,0.799203,-77.769997,-9.17,65.449997,1729416517653.0,0.0
-9.992428,-13.51227,-0.308674,-41.93,-0.49,31.92,1729416517672.0,0.0
-9.243474,-11.877973,0.234497,9.52,10.22,-0.56,1729416517697.0,0.0
-8.944371,-10.485349,1.808974,37.59,16.450001,-28.35,1729416517712.0,0.0
-9.743573,-10.681561,2.072184,22.82,15.89,-54.740002,1729416517733.0,0.0
-6.474977,-10.717452,-0.507278,-24.43,17.219999,-84.279999,1729416517751.0,0.0
-4.436293,-10.236496,0.787239,-28.42,34.439999,-112.419998,1729416517771.0,0.0
-1.70369,-6.068198,5.960521,29.610001,39.060001,-102.340004,1729416517791.0,0.0
0.289532,-3.292524,9.944571,94.010002,16.52,-73.849998,1729416517812.0,0.0
0.289532,0.299103,11.8349,55.369999,-9.31,-42.490002,1729416517834.0,0.0
1.588834,-4.031906,7.501499,-60.619999,-33.880001,-20.719999,1729416517850.0,0.0
0.624527,-6.838687,5.058427,-91.629997,-32.060001,-0.14,1729416517871.0,0.0
0.119641,-7.353144,4.204189,-62.790001,-17.99,11.13,1729416517891.0,0.0
-0.492921,-7.836494,3.723232,-29.889999,-7.7,24.57,1729416517912.0,0.0
0.174676,-6.173482,3.048456,-2.94,-8.61,39.34,1729416517932.0,0.0
-0.394816,-7.262216,1.95015,21.0,-9.66,64.050003,1729416517951.0,0.0
-2.720639,-7.546963,5.381458,67.480003,-9.24,79.099998,1729416517972.0,0.0
-5.06082,-5.431707,5.682954,68.739998,-16.940001,94.150002,1729416517991.0,0.0
-7.642675,-9.138189,2.792424,-16.24,-15.4,83.650002,1729416518012.0,0.0
-8.573483,-11.423335,0.571885,-37.170002,-8.68,70.559998,1729416518035.0,0.0
-9.114261,-11.282159,0.504886,-5.04,1.82,52.150002,1729416518051.0,0.0
-9.693325,-10.662418,1.261017,19.18,10.57,24.5,1729416518072.0,0.0
-10.552348,-11.552547,1.20359,13.58,14.7,-6.86,1729416518091.0,0.0
-10.052249,-11.32523,1.232304,26.950001,16.450001,-59.150002,1729416518112.0,0.0
-7.948956,-9.152546,1.691726,15.89,22.120001,-89.739998,1729416518131.0,0.0
-5.412565,-9.099905,2.478964,-4.41,28.559999,-105.629997,1729416518151.0,0.0
-3.455236,-7.32443,3.835695,-1.12,33.810001,-105.559998,1729416518171.0,0.0
-0.325424,-4.110869,6.84108,10.71,32.060001,-92.75,1729416518191.0,0.0
3.282953,-1.90708,9.410972,45.220001,11.34,-60.34,1729416518212.0,0.0
2.589034,-1.081556,10.741381,21.700001,11.34,-20.09,1729416518233.0,0.0
1.478764,-5.716454,7.575676,-53.689999,-13.09,3.36,1729416518251.0,0.0
1.086342,-7.908278,4.689932,-59.849998,-18.76,19.460001,1729416518270.0,0.0
0.045464,-8.133204,4.06062,-23.59,-13.72,35.700001,1729416518291.0,0.0
-1.509871,-7.91785,4.649254,13.16,-9.66,49.07,1729416518312.0,0.0
-2.59382,-6.161518,5.769095,61.670002,-17.219999,66.709999,1729416518333.0,0.0
-4.524827,-4.393222,7.463214,72.029999,-25.549999,86.309998,1729416518351.0,0.0
-6.333801,-6.068198,5.460421,5.18,-31.780001,97.160004,1729416518370.0,0.0
-6.970293,-8.207381,1.725225,-67.480003,-25.9,89.949997,1729416518391.0,0.0
-9.566505,-11.562119,-0.382852,-79.099998,-7.07,78.540001,1729416518412.0,0.0
-10.265208,-12.186646,0.165105,-8.47,9.94,29.26,1729416518433.0,0.0
-10.169496,-11.854043,0.993021,15.54,22.75,-8.19,1729416518453.0,0.0
-9.29133,-10.995021,1.399801,16.17,18.690001,-38.990002,1729416518470.0,0.0
-8.271988,-11.13859,1.95015,3.43,13.65,-64.82,1729416518490.0,0.0
-7.073184,-9.449257,0.830309,-31.85,17.639999,-89.669998,1729416518511.0,0.0
-5.343173,-10.320245,1.177269,-49.84,26.18,-103.459999,1729416518531.0,0.0
-4.204189,-9.946963,3.45045,-26.880001,33.529999,-113.75,1729416518550.0,0.0
-1.311267,-2.026721,3.826123,-10.71,34.16,-112.07,1729416518571.0,0.0
3.151347,-4.945964,6.218946,57.189999,9.1,-70.769997,1729416518590.0,0.0
0.007178,-1.234696,10.573883,103.809998,3.01,-33.670002,1729416518611.0,0.0
0.210568,-2.696711,9.394222,18.620001,-14.28,-11.27,1729416518632.0,0.0
0.504886,-5.089533,6.190232,-68.25,-19.950001,5.46,1729416518650.0,0.0
0.672383,-8.245667,3.282953,-90.090004,-23.66,18.76,1729416518670.0,0.0
-1.385444,-10.202995,1.90708,-55.09,-11.27,32.130001,1729416518690.0,0.0
-2.828316,-9.286544,2.421536,-7.35,-1.61,39.41,1729416518711.0,0.0
-1.375873,-6.24766,2.098505,39.27,-8.05,49.700001,1729416518731.0,0.0
-3.704089,-7.054041,4.441079,62.369999,-9.52,65.660004,1729416518750.0,0.0
-5.546563,-5.012963,7.269395,51.380001,-22.33,84.419998,1729416518770.0,0.0
-8.652447,-9.779467,4.134798,-70.559998,-22.26,73.290001,1729416518790.0,0.0
-8.283953,-12.335001,0.01675,-108.150002,-19.74,46.689999,1729416518811.0,0.0
-8.953942,-12.68196,-0.586242,-59.080002,-4.83,20.58,1729416518831.0,0.0
-8.530413,-11.959327,0.071785,-5.04,6.51,-5.46,1729416518851.0,0.0
-8.736196,-11.327622,1.222732,27.790001,11.62,-27.790001,1729416518869.0,0.0
-9.274581,-10.973484,1.808974,31.99,10.57,-49.98,1729416518890.0,0.0
-7.60439,-10.183852,0.98345,-3.57,11.34,-76.370003,1729416518911.0,0.0
-5.644669,-10.712667,0.464208,-35.0,20.299999,-105.0,1729416518992.0,0.0
-2.361716,-5.319244,1.404587,-19.18,30.73,-110.949997,1729416518994.0,0.0
2.07697,-6.582655,5.577669,95.760002,11.34,-82.040001,1729416518999.0,0.0
-1.507478,0.447458,11.803794,146.580002,7.49,-42.560001,1729416518999.0,0.0
-0.495314,-2.091327,8.805587,7.07,-13.23,-30.030001,1729416519017.0,0.0
0.612563,-6.106483,5.515456,-78.190002,-19.879999,-17.92,1729416519033.0,0.0
0.062213,-7.688138,3.823731,-73.849998,-8.89,-3.92,1729416519049.0,0.0
-0.306281,-8.219346,3.086741,-49.560001,0.91,9.52,1729416519072.0,0.0
-1.526621,-9.631111,3.378666,-28.49,7.56,18.34,1729416519089.0,0.0
-0.985843,-7.927422,2.883351,-3.01,-2.31,27.719999,1729416519111.0,0.0
-0.174676,-6.522834,1.777867,11.69,-11.13,39.970001,1729416519132.0,0.0
-1.57687,-6.865008,2.510071,33.950001,-10.15,61.950001,1729416519151.0,0.0
-4.283153,-7.310073,4.850252,57.82,-10.5,76.019997,1729416519171.0,0.0
-5.369494,-6.197411,5.814559,44.450001,-15.75,75.879997,1729416519193.0,0.0
-7.32443,-10.021141,3.414558,-33.810001,-13.51,68.110001,1729416519212.0,0.0
-7.69771,-11.887544,0.87338,-46.619999,-9.1,52.709999,1729416519231.0,0.0
-8.599805,-11.887544,0.552742,-12.88,2.45,33.529999,1729416519252.0,0.0
-8.707481,-10.844273,0.940379,6.65,12.6,9.24,1729416519271.0,0.0
-9.394222,-12.162716,0.531207,9.8,17.01,-17.08,1729416519292.0,0.0
-9.439686,-12.41875,0.239282,23.030001,19.6,-48.16,1729416519313.0,0.0
-7.171289,-9.96132,0.430708,26.880001,24.01,-78.889999,1729416519332.0,0.0
-5.692525,-10.004392,1.902294,8.19,33.040001,-100.870003,1729416519351.0,0.0
-3.52702,-4.493721,2.830709,2.52,34.09,-102.690002,1729416519372.0,0.0
1.818545,-4.41715,6.486942,40.18,19.040001,-78.68,1729416519392.0,0.0
-1.071985,-2.629712,9.463614,73.010002,8.33,-33.880001,1729416519411.0,0.0
0.267996,-4.460221,8.255238,4.13,-4.27,-25.27,1729416519432.0,0.0
0.01675,-5.730811,7.049256,-44.310001,-6.16,-8.33,1729416519450.0,0.0
0.579063,-7.762317,5.187639,-73.5,-12.04,3.78,1729416519470.0,0.0
0.074178,-9.779467,3.897908,-50.189999,-11.97,19.110001,1729416519492.0,0.0
-1.12702,-7.726424,4.252046,-4.2,-7.91,31.57,1729416519512.0,0.0
-0.911665,-5.972485,3.742374,8.19,-9.52,41.860001,1729416519532.0,0.0
-2.18704,-6.553941,4.350152,15.68,-12.6,58.450001,1729416519552.0,0.0
-2.952743,-4.673182,4.62054,36.82,-21.280001,81.690002,1729416519570.0,0.0
-5.630312,-6.908078,5.13739,-3.29,-19.530001,93.169998,1729416519592.0,0.0
-8.382057,-9.896714,3.345166,-63.77,-18.129999,85.470001,1729416519613.0,0.0
-8.910872,-11.734402,-0.193819,-79.239998,-15.26,65.099998,1729416519632.0,0.0
-9.238688,-13.373486,-1.600798,-42.209999,-0.56,36.189999,1729416519650.0,0.0
-8.977871,-13.215559,-0.696311,26.25,12.46,5.39,1729416519672.0,0.0
-8.958728,-10.305886,1.885544,71.050003,18.76,-23.73,1729416519691.0,0.0
-9.075976,-9.834501,2.725425,42.279999,17.290001,-51.310001,1729416519713.0,0.0
-6.07777,-10.913664,0.990629,-19.950001,18.200001,-87.43,1729416519736.0,0.0
-4.084548,-9.035298,1.899901,-3.08,27.65,-98.0,1729416519750.0,0.0
-1.229911,-5.895915,5.142176,17.92,32.970001,-91.349998,1729416519770.0,0.0
0.820738,-5.364708,7.551748,63.630001,19.110001,-66.010002,1729416519791.0,0.0
-1.268196,-2.122434,10.712667,67.129997,5.53,-37.52,1729416519811.0,0.0
0.933201,-3.85723,7.987241,-5.25,-18.620001,-27.23,1729416519833.0,0.0
0.607777,-5.575277,5.883951,-46.689999,-20.16,-8.75,1729416519851.0,0.0
-0.031107,-7.147361,4.685147,-51.170002,-15.68,6.16,1729416519870.0,0.0
-0.784846,-8.020741,4.039084,-32.48,-10.64,22.540001,1729416519891.0,0.0
-1.782653,-8.118847,4.015156,-18.690001,-8.61,32.900002,1729416519912.0,0.0
-1.141376,-6.173482,2.89053,-9.66,-14.56,44.450001,1729416519931.0,0.0
-1.464408,-6.01077,1.718047,-9.8,-15.12,61.18,1729416519950.0,0.0
-4.158726,-9.377472,3.038885,7.0,-10.29,77.559998,1729416519972.0,0.0
-5.084748,-7.092326,5.173282,60.900002,-17.15,87.57,1729416519991.0,0.0
-7.472785,-7.149754,5.541777,5.39,-16.17,80.360001,1729416520012.0,0.0
-8.374879,-11.406586,1.581656,-76.720001,-15.05,65.660004,1729416520033.0,0.0
-8.659625,-12.959527,-0.224925,-51.939999,-7.91,38.009998,1729416520050.0,0.0
-8.676375,-10.468598,0.866202,21.84,10.92,-1.26,1729416520071.0,0.0
-8.927622,-10.559525,1.414158,26.530001,15.96,-25.690001,1729416520091.0,0.0
-9.35833,-11.483156,1.404587,18.200001,16.66,-51.939999,1729416520111.0,0.0
-7.609176,-10.085747,0.882952,6.65,18.41,-79.590004,1729416520131.0,0.0
-5.376673,-9.786645,1.579263,-10.01,26.6,-102.340004,1729416520150.0,0.0
-2.56032,-4.206582,2.888137,-8.4,33.529999,-104.650002,1729416520170.0,0.0
1.363909,-5.630312,6.226124,46.970001,19.18,-76.860001,1729416520191.0,0.0
-0.117248,-1.162912,10.131211,95.620003,7.0,-42.420002,1729416520212.0,0.0
-0.701097,-2.900101,8.848659,8.33,-7.42,-21.139999,1729416520231.0,0.0
0.045464,-6.106483,5.9677,-59.779999,-14.56,-8.26,1729416520250.0,0.0
-0.248854,-7.130611,4.632504,-65.519997,-11.76,5.81,1729416520270.0,0.0
-0.564706,-8.539984,3.57727,-50.959999,-10.22,20.51,1729416520290.0,0.0
-1.289732,-9.308081,3.443272,-25.27,-9.1,33.670002,1729416520311.0,0.0
-0.801596,-7.62114,2.756532,2.45,-14.91,44.799999,1729416520331.0,0.0
-1.308874,-7.099504,3.110669,19.950001,-18.41,60.689999,1729416520350.0,0.0
-3.414558,-6.080163,4.115655,34.790001,-20.51,78.610001,1729416520370.0,0.0
-5.879165,-6.30748,4.661219,22.33,-24.15,88.970001,1729416520391.0,0.0
-7.515855,-8.975478,2.325824,-57.470001,-18.059999,90.790001,1729416520412.0,0.0
-9.037691,-11.282159,0.411566,-54.110001,-9.52,76.510002,1729416520430.0,0.0
-9.74836,-12.246466,0.284746,-18.41,3.15,50.959999,1729416520452.0,0.0
-9.430114,-10.990234,0.768096,9.1,12.11,17.5,1729416520470.0,0.0
-8.561519,-10.9017,0.784846,10.71,17.290001,-15.26,1729416520491.0,0.0
-8.721838,-12.387643,1.356731,17.85,20.09,-44.170002,1729416520512.0,0.0
-8.41795,-10.947165,0.9667,13.3,26.18,-74.340004,1729416520530.0,0.0
-6.946364,-10.853845,0.447458,-4.06,34.299999,-95.900002,1729416520550.0,0.0
-5.168497,-11.107484,1.919044,-0.28,41.369999,-112.489998,1729416520571.0,0.0
-3.292524,-4.491328,3.227918,22.33,41.650002,-114.379997,1729416520590.0,0.0
1.679761,-4.819145,6.391229,62.510002,22.190001,-86.379997,1729416520611.0,0.0
0.949951,-1.380659,9.339187,110.25,4.34,-54.25,1729416520631.0,0.0
-0.732204,-2.725425,9.066404,31.219999,-8.82,-24.43,1729416520650.0,0.0
0.557528,-6.202196,5.56092,-36.189999,-20.299999,-11.34,1729416520670.0,0.0
-0.926022,-7.673782,4.740182,-33.740002,-12.18,4.41,1729416520690.0,0.0
-1.409373,-7.920243,4.345366,-17.01,-8.61,17.08,1729416520711.0,0.0
-2.9336,-8.803195,4.041477,-13.02,-6.09,25.76,1729416520730.0,0.0
-2.768496,-7.252645,3.809374,-0.56,-11.76,33.950001,1729416520750.0,0.0
-2.392823,-5.998806,2.718246,-0.07,-16.59,43.610001,1729416520770.0,0.0
-3.192025,-7.465607,3.0006,9.52,-15.61,58.380001,1729416520790.0,0.0
-4.558327,-7.063612,4.599005,38.709999,-16.52,71.260002,1729416520811.0,0.0
-6.309873,-7.104291,6.080163,21.559999,-17.639999,71.889999,1729416520830.0,0.0
-7.367501,-9.24108,3.885944,-42.630001,-18.059999,61.740002,1729416520850.0,0.0
-7.185646,-10.679168,1.366302,-56.07,-14.84,45.080002,1729416520870.0,0.0
-7.57089,-10.590633,1.074377,-21.700001,-5.25,28.42,1729416520890.0,0.0
-7.63789,-9.372685,1.311267,10.08,3.01,12.46,1729416520915.0,0.0
-7.384251,-8.712267,1.237089,15.82,8.54,-2.31,1729416520931.0,0.0
-6.908078,-9.140583,1.438086,16.1,11.9,-16.17,1729416520949.0,0.0
-7.161718,-9.585647,2.37368,17.85,16.1,-29.75,1729416520970.0,0.0
-7.015756,-9.468399,2.352145,3.29,20.370001,-46.970001,1729416520990.0,0.0
-5.9677,-9.403792,1.947758,-17.639999,25.129999,-63.0,1729416521011.0,0.0
-5.213961,-10.447062,2.411965,-16.17,28.0,-73.360001,1729416521033.0,0.0
-4.407579,-8.922836,3.014957,3.57,27.790001,-77.769997,1729416521057.0,0.0
-0.940379,-7.520642,5.352744,2.52,25.27,-70.209999,1729416521069.0,0.0
-0.519243,-4.859823,6.664011,49.77,6.16,-49.490002,1729416521091.0,0.0
-1.701297,-4.95075,7.52782,22.75,-4.06,-29.68,1729416521111.0,0.0
-0.734596,-6.489335,6.211767,-21.84,-12.67,-23.1,1729416521131.0,0.0
-0.55992,-6.666404,5.745167,-29.610001,-10.99,-12.25,1729416521150.0,0.0
-0.646062,-7.046863,5.448457,-33.389999,-7.28,-2.24,1729416521170.0,0.0
-1.06002,-7.542177,4.807181,-29.68,-6.79,8.82,1729416521190.0,0.0
-1.674976,-8.300702,4.457829,-16.940001,-9.1,18.48,1729416521211.0,0.0
-2.062613,-7.501499,4.381258,-6.51,-13.51,25.76,1729416521232.0,0.0
-1.459622,-6.290731,3.471986,-5.46,-20.09,35.630001,1729416521250.0,0.0
-1.761117,-6.774081,2.644069,-3.29,-22.33,50.330002,1729416521270.0,0.0
-2.825923,-6.76451,2.876173,18.27,-21.559999,67.970001,1729416521291.0,0.0
-4.488935,-6.762117,4.122833,25.129999,-19.74,83.160004,1729416521311.0,0.0
-7.860423,-8.937192,5.235496,-19.460001,-17.43,78.330002,1729416521331.0,0.0
-7.786245,-11.062018,0.784846,-62.650002,-21.280001,49.700001,1729416521352.0,0.0
-8.181061,-11.306087,-0.12682,-41.23,-4.62,29.049999,1729416521371.0,0.0
-7.936993,-10.817951,-0.043071,-17.15,8.54,6.44,1729416521393.0,0.0
-7.087541,-9.516255,0.78006,6.72,15.33,-11.34,1729416521415.0,0.0
-6.903293,-9.798609,1.567299,26.530001,15.190001,-24.01,1729416521431.0,0.0
-7.408179,-9.891929,1.617548,35.349998,14.63,-40.599998,1729416521452.0,0.0
-6.108876,-8.551948,1.79701,25.41,15.05,-56.0,1729416521473.0,0.0
-4.819145,-8.243275,2.074577,0.07,20.23,-67.410004,1729416521492.0,0.0
-4.048656,-8.480164,2.538785,-6.02,21.84,-69.580002,1729416521512.0,0.0
-3.172883,-7.465607,3.620341,1.47,21.210001,-68.25,1729416521533.0,0.0
-2.632105,-6.472585,4.376472,-0.21,16.17,-61.599998,1729416521552.0,0.0
-2.172683,-6.678369,5.087141,2.52,3.71,-49.700001,1729416521571.0,0.0
-1.871187,-5.898308,5.187639,12.25,-8.75,-37.099998,1729416521594.0,0.0
-1.452443,-5.692525,5.304887,-3.71,-16.030001,-26.460001,1729416521614.0,0.0
-1.414158,-5.812167,5.417351,-25.620001,-19.809999,-14.84,1729416521632.0,0.0
-1.332802,-6.405586,4.596612,-39.200001,-27.299999,0.91,1729416521651.0,0.0
-0.981057,-7.814958,3.120241,-45.009998,-32.200001,16.59,1729416521672.0,0.0
-1.354338,-8.29113,4.127619,7.0,-29.26,40.880001,1729416521691.0,0.0
-2.598605,-7.829315,4.405186,3.5,-25.969999,47.18,1729416521712.0,0.0
-3.328416,-6.812366,5.120641,-30.799999,-26.460001,47.110001,1729416521732.0,0.0
-4.249653,-6.79083,5.661418,-77.139999,-32.200001,52.150002,1729416521752.0,0.0
-5.237889,-8.01117,3.718446,-160.020004,-37.240002,49.91,1729416521776.0,0.0
-5.288138,-9.54497,1.335195,-233.029999,-37.939999,42.630001,1729416521793.0,0.0
-4.965107,-11.461621,-0.981057,-255.990005,-31.85,30.17,1729416521812.0,0.0
-5.264209,-11.54537,-1.026521,-197.050003,-29.33,23.73,1729416521833.0,0.0
-5.496314,-10.353743,-0.837488,-125.93,-30.030001,17.08,1729416521851.0,0.0
-5.374279,-8.626125,-0.844666,-82.32,-27.23,9.73,1729416521871.0,0.0
-5.192425,-7.992027,-1.871187,-68.739998,-20.02,7.7,1729416521891.0,0.0
-4.788038,-10.442278,-3.022135,-70.489998,-4.41,6.16,1729416521913.0,0.0
-4.807181,-12.083755,-3.797409,-35.98,14.0,1.19,1729416521933.0,0.0
-5.757132,-11.952149,-3.524628,28.139999,27.790001,-5.95,1729416521952.0,0.0
-5.788238,-10.80838,-3.833302,58.310001,44.59,-18.48,1729416521972.0,0.0
-5.209175,-10.571491,-2.012364,51.939999,56.700001,-34.580002,1729416521992.0,0.0
-4.098906,-9.408579,-0.122034,29.26,60.200001,-49.91,1729416522012.0,0.0
-3.847659,-8.779266,1.897508,40.459999,48.580002,-51.869999,1729416522035.0,0.0
-3.122634,-6.98465,2.371287,50.540001,30.66,-50.540001,1729416522050.0,0.0
-1.919044,-6.326623,2.275574,39.41,13.86,-40.389999,1729416522072.0,0.0
-1.9669,-7.207181,2.141576,8.61,6.79,-28.49,1729416522091.0,0.0
-1.777867,-8.41795,1.440479,-10.57,0.84,-18.200001,1729416522113.0,0.0
-1.909473,-9.370294,1.055235,-8.05,-2.52,-11.9,1729416522133.0,0.0
-2.177469,-9.724431,1.411765,7.0,-5.32,-4.83,1729416522150.0,0.0
-2.105684,-9.437292,1.538585,10.99,-9.17,-4.83,1729416522171.0,0.0
-2.146362,-8.853443,1.222732,5.39,-15.190001,4.55,1729416522191.0,0.0
-2.342573,-8.281559,0.526421,-8.61,-18.200001,8.19,1729416522211.0,0.0
-1.981257,-8.327023,0.51685,-17.92,-19.040001,13.23,1729416522231.0,0.0
-1.347159,-8.762517,0.433101,-6.72,-19.530001,20.299999,1729416522251.0,0.0
-1.514657,-8.535198,0.660419,18.690001,-19.460001,31.5,1729416522270.0,0.0
-3.426522,-8.853443,0.394816,35.560001,-20.93,42.07,1729416522291.0,0.0
-5.831308,-8.910872,0.713061,15.47,-16.17,40.040001,1729416522313.0,0.0
-4.187439,-9.243474,-0.136391,0.28,-26.25,38.009998,1729416522331.0,0.0
-6.180661,-10.499706,-1.701297,-15.12,-16.52,31.85,1729416522352.0,0.0
-5.826523,-9.882358,-2.821138,1.96,-9.59,16.66,1729416522371.0,0.0
-5.76431,-9.573684,-2.572284,-4.62,7.98,7.35,1729416522392.0,0.0
-5.663811,-10.621738,-1.607977,4.62,18.200001,0.07,1729416522412.0,0.0
-6.099305,-10.789237,-1.397408,28.630001,19.74,-11.83,1729416522434.0,0.0
-6.309873,-9.729217,-1.282553,37.869999,22.610001,-23.940001,1729416522450.0,0.0
-6.211767,-8.894121,-1.481157,20.23,31.5,-35.279999,1729416522471.0,0.0
-5.225924,-9.288938,-1.584049,-12.46,43.400002,-42.91,1729416522491.0,0.0
-4.381258,-9.609575,-0.818345,-18.41,54.670002,-48.02,1729416522512.0,0.0
-2.861816,-8.331808,1.79701,12.18,52.57,-45.849998,1729416522532.0,0.0
-1.069592,-7.613962,4.68754,39.830002,36.119999,-34.580002,1729416522552.0,0.0
-0.868595,-5.910272,6.69751,35.77,12.67,-23.52,1729416522571.0,0.0
-0.605384,-6.680761,5.651847,-19.32,-11.06,-8.61,1729416522591.0,0.0
-1.191626,-8.611769,3.352344,-58.869999,-26.110001,2.8,1729416522613.0,0.0
-1.261017,-9.497113,1.993221,-56.98,-31.639999,11.62,1729416522631.0,0.0
-0.784846,-9.54497,1.019342,-32.34,-34.369999,21.84,1729416522650.0,0.0
-1.4668,-9.406186,0.526421,-13.58,-32.48,30.66,1729416522672.0,0.0
-4.491328,-8.810372,-0.071785,-6.79,-29.610001,39.060001,1729416522690.0,0.0
-7.302894,-7.920243,1.395016,-23.52,-29.190001,37.799999,1729416522712.0,0.0
-5.079963,-9.085547,-1.447658,-30.66,-46.060001,33.18,1729416522732.0,0.0
-6.142376,-10.451849,-2.567499,-35.0,-35.209999,22.889999,1729416522750.0,0.0
-6.058627,-10.746166,-3.725625,-26.32,-23.24,12.88,1729416522770.0,0.0
-5.769095,-10.748559,-4.429115,-15.12,-7.21,0.49,1729416522791.0,0.0
-5.426922,-10.849058,-3.328416,4.13,9.24,-9.94,1729416522812.0,0.0
-5.07757,-10.38485,-2.476572,25.969999,18.549999,-21.210001,1729416522832.0,0.0
-6.30748,-10.954341,-2.124826,30.66,29.049999,-33.110001,1729416522851.0,0.0
-5.855237,-10.095319,-2.478964,26.880001,35.490002,-47.880001,1729416522870.0,0.0
-4.06062,-9.554541,-2.227718,11.06,46.830002,-57.959999,1729416522892.0,0.0
-1.840081,-7.692925,1.261017,21.49,57.330002,-55.439999,1729416522913.0,0.0
-0.993021,-7.092326,5.017749,49.77,46.48,-36.400002,1729416522932.0,0.0
-1.222732,-5.328816,6.750153,50.610001,20.23,-26.950001,1729416522952.0,0.0
-0.689133,-7.039684,5.084748,-20.370001,-0.98,-12.39,1729416522970.0,0.0
-1.277767,-9.260223,2.811567,-49.139999,-15.82,-2.73,1729416522991.0,0.0
-1.335195,-10.191031,1.718047,-40.040001,-21.84,4.76,1729416523011.0,0.0
-0.337388,-9.363115,0.600598,10.5,-30.24,18.41,1729416523033.0,0.0
-2.057827,-8.530413,0.732204,22.68,-26.809999,28.630001,1729416523050.0,0.0
-4.4339,-7.712067,1.0002,22.469999,-28.49,38.009998,1729416523070.0,0.0
-6.07777,-7.609176,0.894916,-0.28,-33.25,41.509998,1729416523098.0,0.0
-5.484349,-8.408379,-1.138984,-11.41,-45.639999,40.25,1729416523113.0,0.0
-6.611369,-10.164711,-3.440879,-27.440001,-34.299999,33.18,1729416523131.0,0.0
-6.625726,-11.531013,-4.962714,-34.369999,-12.25,19.32,1729416523152.0,0.0
-5.766702,-11.645866,-4.814359,-4.34,8.75,5.6,1729416523171.0,0.0
-5.804988,-10.724631,-1.899901,28.84,23.24,-8.4,1729416523191.0,0.0
-7.006185,-11.150554,-1.954936,31.219999,28.210001,-21.49,1729416523212.0,0.0
-5.422136,-10.564312,-3.335595,11.2,35.98,-43.400002,1729416523231.0,0.0
-3.742374,-9.994821,-1.832902,2.87,50.189999,-51.029999,1729416523251.0,0.0
-2.021935,-8.561519,1.387837,28.700001,57.540001,-51.170002,1729416523272.0,0.0
-2.289931,-6.855437,5.47717,54.389999,53.760002,-37.170002,1729416523291.0,0.0
-1.316052,-5.572884,7.578069,46.830002,30.59,-26.25,1729416523312.0,0.0
-1.306481,-7.79103,4.76411,1.82,6.23,-9.45,1729416523334.0,0.0
-1.440479,-9.288938,2.608176,-36.540001,-13.09,5.39,1729416523353.0,0.0
-1.232304,-9.695717,1.521835,-30.309999,-15.96,14.7,1729416523372.0,0.0
-0.643669,-8.982656,0.765703,-7.91,-20.65,25.9,1729416523394.0,0.0
-1.433301,-8.190632,0.260818,6.44,-25.690001,37.66,1729416523412.0,0.0
-4.728218,-7.755138,2.423929,4.69,-29.540001,43.959999,1729416523433.0,0.0
-5.733203,-7.056434,0.756132,-20.299999,-46.689999,46.619999,1729416523452.0,0.0
-5.953342,-9.336794,-1.59362,-46.060001,-49.630001,43.540001,1729416523473.0,0.0
-7.092326,-10.387242,-2.878566,-37.799999,-37.380001,36.189999,1729416523492.0,0.0
-7.118648,-11.353944,-3.713661,-18.34,-20.719999,23.940001,1729416523514.0,0.0
-6.79083,-11.784652,-4.486543,4.55,-2.24,6.23,1729416523532.0,0.0
-5.630312,-11.040483,-3.546163,24.360001,13.65,-10.85,1729416523554.0,0.0
-5.469993,-10.676775,-3.050849,29.75,24.15,-22.190001,1729416523574.0,0.0
-5.522634,-11.05484,-4.146761,16.030001,35.77,-39.970001,1729416523593.0,0.0
-3.98405,-10.102496,-3.101098,-4.2,50.68,-62.720001,1729416523614.0,0.0
-2.158326,-9.207582,-0.449851,21.91,64.540001,-64.050003,1729416523633.0,0.0
-1.222732,-5.632704,6.537192,85.190002,57.049999,-45.990002,1729416523653.0,0.0
-1.167697,-2.974278,9.734003,77.840004,32.830002,-34.23,1729416523674.0,0.0
-2.469393,-5.728417,8.721838,-11.55,4.55,-9.52,1729416523693.0,0.0
-2.811567,-8.836694,4.61097,-70.279999,-19.460001,-0.28,1729416523715.0,0.0
-1.651048,-10.095319,2.019542,-70.209999,-28.139999,8.82,1729416523733.0,0.0
-0.849452,-9.688539,0.272782,-33.459999,-27.51,19.67,1729416523755.0,0.0
-1.751546,-9.269794,0.105284,-3.36,-24.360001,28.84,1729416523773.0,0.0
-3.148954,-9.023334,-0.191426,10.22,-26.67,34.09,1729416523793.0,0.0
-4.749753,-7.862815,0.473779,20.860001,-36.470001,40.25,1729416523818.0,0.0
-5.484349,-8.061419,-0.507278,5.6,-47.32,38.639999,1729416523835.0,0.0
-6.001199,-9.798609,-2.325824,-13.93,-45.709999,31.639999,1729416523853.0,0.0
-5.855237,-10.387242,-3.519842,-22.889999,-32.41,22.120001,1729416523873.0,0.0
-5.651847,-10.928021,-4.761717,-20.719999,-12.81,11.55,1729416523894.0,0.0
-5.505885,-11.839686,-4.541577,1.05,7.84,0.7,1729416523914.0,0.0
-5.580062,-11.095518,-2.488536,37.450001,24.08,-11.83,1729416523983.0,0.0
-6.068198,-9.817751,-2.306681,40.810001,37.59,-34.439999,1729416523983.0,0.0
-4.965107,-9.533006,-1.464408,16.59,47.529999,-45.150002,1729416523984.0,0.0
-3.4672,-9.138189,0.385244,9.73,53.970001,-50.119999,1729416524001.0,0.0
-1.770689,-6.71426,6.702296,33.740002,48.650002,-41.23,1729416524022.0,0.0
-1.655833,-6.357729,8.066205,35.84,24.360001,-27.719999,1729416524036.0,0.0
-2.581856,-6.18784,8.590233,-10.78,3.15,-15.47,1729416524055.0,0.0
-1.572084,-8.906086,4.603791,-58.170002,-13.23,-6.72,1729416524073.0,0.0
-1.90708,-9.336794,2.505285,-41.09,-19.6,5.11,1729416524095.0,0.0
-1.880759,-9.487542,0.9667,-18.969999,-21.98,16.030001,1729416524114.0,0.0
-1.342373,-9.296116,0.248854,0.28,-28.280001,24.360001,1729416524135.0,0.0
-2.127219,-9.456435,-0.387637,1.33,-31.57,29.469999,1729416524153.0,0.0
-3.431308,-9.202796,-0.141177,2.17,-35.420002,30.870001,1729416524175.0,0.0
-4.778467,-8.310273,-0.904487,15.68,-44.029999,30.870001,1729416524193.0,0.0
-7.549356,-8.26481,-0.61017,8.47,-41.09,28.0,1729416524215.0,0.0
-6.726225,-9.298509,-3.091527,-5.32,-38.639999,21.139999,1729416524234.0,0.0
-6.903293,-10.750952,-4.826324,-30.380001,-14.07,7.91,1729416524253.0,0.0
-5.510671,-10.817951,-3.371487,-14.56,11.13,-4.41,1729416524274.0,0.0
-6.331409,-10.205389,-1.820938,34.509998,30.870001,-19.18,1729416524295.0,0.0
-5.826523,-10.796415,-2.67039,26.32,40.110001,-34.09,1729416524315.0,0.0
-4.579862,-10.461421,-1.624727,22.33,51.869999,-45.920002,1729416524335.0,0.0
-2.806781,-9.738789,0.361316,35.490002,57.049999,-51.099998,1729416524353.0,0.0
-0.461815,-6.702296,7.178468,57.889999,55.02,-44.450001,1729416524373.0,0.0
-1.538585,-5.685347,8.626125,60.830002,30.799999,-29.469999,1729416524394.0,0.0
-1.74676,-4.969893,8.863015,-2.03,5.67,-15.61,1729416524416.0,0.0
-1.225125,-7.724032,5.379066,-63.84,-15.33,-3.78,1729416524433.0,0.0
-2.289931,-8.772088,3.266203,-76.160004,-22.82,9.8,1729416524453.0,0.0
-1.749153,-8.970692,1.383051,-71.75,-31.639999,18.969999,1729416524475.0,0.0
-1.770689,-10.100104,-0.66999,-49.349998,-35.560001,28.49,1729416524495.0,0.0
-2.675175,-10.789237,-1.275374,-5.88,-35.349998,31.710001,1729416524515.0,0.0
-3.192025,-8.796017,-0.993021,45.849998,-40.110001,35.700001,1729416524534.0,0.0
-5.962914,-6.666404,0.217747,55.439999,-41.650002,37.380001,1729416524553.0,0.0
-7.491928,-7.977671,-0.124427,2.38,-36.330002,36.259998,1729416524573.0,0.0
-6.836295,-10.064213,-2.976671,-41.509998,-29.610001,25.620001,1729416524593.0,0.0
-5.340781,-12.423534,-4.668397,-36.889999,-9.66,11.55,1729416524615.0,0.0
-5.254639,-10.765309,-2.945565,39.130001,14.63,-9.52,1729416524680.0,0.0
-5.860023,-9.690931,-1.986043,47.810001,27.02,-17.92,1729416524681.0,0.0
-5.773881,-10.803595,-2.892922,21.35,41.93,-33.25,1729416524681.0,0.0
-4.871787,-10.772489,-1.79701,12.18,55.23,-48.02,1729416524729.0,0.0
-3.897908,-9.98525,-0.378066,24.08,58.73,-56.420002,1729416524735.0,0.0
-1.57687,-6.520442,3.567699,41.650002,56.139999,-56.349998,1729416524828.0,0.0
-1.28016,-5.575277,7.310073,52.849998,44.52,-32.830002,1729416524830.0,0.0
-1.962115,-4.625326,9.253045,14.0,24.43,-21.210001,1729416524830.0,0.0
-1.416551,-7.566105,7.116255,-31.08,0.98,-2.59,1729416524834.0,0.0
-2.146362,-8.51127,4.436293,-32.759998,-15.4,11.69,1729416524835.0,0.0
-2.139183,-9.267403,2.507678,-39.619999,-22.190001,23.24,1729416524837.0,0.0
-1.682154,-10.413565,0.756132,-34.93,-26.32,27.299999,1729416524851.0,0.0
-2.091327,-10.535598,0.437887,-5.67,-30.309999,30.450001,1729416524872.0,0.0
-2.988636,-8.331808,0.435494,26.110001,-38.849998,33.880001,1729416524891.0,0.0
-5.469993,-6.221339,1.940579,13.440001,-46.200001,38.360001,1729416524913.0,0.0
-6.343372,-7.719246,0.289532,-35.700001,-50.400002,39.48,1729416524932.0,0.0
-6.943972,-10.107283,-3.038885,-47.599998,-44.939999,33.950001,1729416524952.0,0.0
-6.994221,-10.944772,-4.098906,-19.18,-16.52,22.120001,1729416524971.0,0.0
-6.4678,-11.600404,-4.017549,7.21,5.67,4.83,1729416524995.0,0.0
-5.54417,-10.621738,-2.648855,31.15,19.809999,-10.85,1729416525014.0,0.0
-5.900701,-10.528419,-2.914458,41.439999,24.99,-23.17,1729416525034.0,0.0
-5.161318,-10.765309,-3.445665,13.93,38.150002,-41.720001,1729416525051.0,0.0
-4.21376,-10.459028,-2.632105,-10.29,55.860001,-52.5,1729416525073.0,0.0
-3.428915,-10.124033,-0.007178,0.42,63.209999,-56.349998,1729416525091.0,0.0
-1.631905,-7.118648,3.684947,40.880001,58.869999,-54.670002,1729416525112.0,0.0
-1.586441,-4.797609,9.54497,61.599998,45.150002,-33.810001,1729416525132.0,0.0
-1.806581,-5.015356,9.769895,7.7,14.07,-23.799999,1729416525152.0,0.0
-2.11047,-8.271988,6.415157,-51.029999,-9.66,-6.79,1729416525172.0,0.0
-2.251646,-9.963714,2.998207,-57.119999,-20.58,-0.07,1729416525193.0,0.0
-2.09372,-9.973285,1.371087,-37.310001,-18.48,8.54,1729416525213.0,0.0
-1.648655,-9.379865,0.988236,-16.940001,-18.200001,15.82,1729416525233.0,0.0
-1.844866,-9.226725,0.954736,-5.32,-24.92,22.4,1729416525252.0,0.0
-3.026921,-8.097312,0.878166,1.96,-35.630001,26.6,1729416525273.0,0.0
-4.744967,-6.410372,0.437887,-25.27,-49.420002,31.710001,1729416525294.0,0.0
-6.199803,-8.690732,-2.545963,-59.849998,-54.040001,34.860001,1729416525315.0,0.0
-7.025328,-10.047462,-3.917051,-46.34,-38.360001,34.02,1729416525332.0,0.0
-6.577869,-11.684153,-5.515456,-12.11,-15.33,23.379999,1729416525352.0,0.0
-5.63749,-11.904292,-5.651847,30.52,11.97,6.44,1729416525373.0,0.0
-5.65424,-11.193624,-3.704089,70.279999,32.830002,-7.7,1729416525392.0,0.0
-6.386444,-10.813165,-3.129812,71.260002,40.880001,-24.57,1729416525412.0,0.0
-5.297709,-10.758131,-3.177669,21.98,52.360001,-47.32,1729416525433.0,0.0
-4.096512,-9.609575,-1.59362,-8.54,62.369999,-59.220001,1729416525452.0,0.0
-3.244668,-8.123632,2.129612,4.48,61.740002,-57.260002,1729416525472.0,0.0
-2.349752,-4.804788,8.140383,34.860001,43.400002,-44.52,1729416525494.0,0.0
-1.105484,-5.35753,8.68116,-6.58,20.719999,-28.77,1729416525514.0,0.0
-2.043471,-7.9346,8.130811,-36.889999,3.36,-10.43,1729416525534.0,0.0
-2.254039,-9.365508,5.517848,-45.990002,-14.28,-2.31,1729416525552.0,0.0
-2.364109,-9.293723,3.713661,-49.77,-23.309999,4.34,1729416525572.0,0.0
-1.579263,-8.987441,1.732404,-49.77,-34.93,12.95,1729416525592.0,0.0
-1.485943,-9.832108,-0.021535,-35.630001,-44.170002,19.809999,1729416525616.0,0.0
-2.045863,-8.212167,-0.820738,3.92,-57.610001,27.719999,1729416525632.0,0.0
-5.211568,-8.252845,-0.964308,21.49,-62.369999,36.330002,1729416525651.0,0.0
-6.309873,-8.52802,-1.115055,11.83,-62.02,33.599998,1729416525672.0,0.0
-6.573084,-9.736395,-2.919244,-9.8,-54.040001,27.790001,1729416525692.0,0.0
-6.69751,-11.3683,-4.223332,-19.32,-32.200001,16.59,1729416525715.0,0.0
-6.190232,-11.294124,-4.74736,0.56,-8.05,0.42,1729416525733.0,0.0
-5.304887,-10.490135,-3.259024,29.33,13.51,-10.5,1729416525753.0,0.0
-5.63749,-10.262815,-1.806581,51.799999,27.440001,-15.33,1729416525772.0,0.0
-5.699703,-9.710074,-2.048256,50.959999,36.75,-27.440001,1729416525793.0,0.0
-4.498507,-9.638289,-2.744568,35.07,49.700001,-38.150002,1729416525814.0,0.0
-3.105884,-9.568897,-2.902494,30.24,68.949997,-42.209999,1729416525832.0,0.0
-3.058028,-8.913264,-0.354138,56.98,85.120003,-36.259998,1729416525853.0,0.0
-3.069991,-8.398808,3.668197,101.43,88.129997,-32.619999,1729416525872.0,0.0
-2.67039,-7.013363,8.398808,116.129997,75.110001,-32.200001,1729416525892.0,0.0
-3.050849,-5.757132,9.08794,97.440002,42.91,-21.42,1729416525913.0,0.0
-2.699104,-6.860222,8.327023,49.07,10.99,-14.14,1729416525932.0,0.0
-1.813759,-8.472985,4.646862,-1.26,-12.11,-10.99,1729416525951.0,0.0
-2.277967,-9.370294,2.737389,-20.51,-18.969999,-0.49,1729416525971.0,0.0
-2.667997,-9.633504,2.009971,-2.94,-16.52,5.46,1729416525992.0,0.0
-2.691926,-9.552148,1.706082,18.200001,-16.799999,8.61,1729416526013.0,0.0
-2.988636,-8.386844,2.184647,3.85,-15.26,7.28,1729416526034.0,0.0
-2.371287,-8.106883,2.289931,-53.830002,-19.18,6.65,1729416526054.0,0.0
-2.651247,-9.755538,1.184447,-112.699997,-22.26,6.3,1729416526071.0,0.0
-3.072384,-10.186246,-0.069392,-99.470001,-28.700001,5.11,1729416526092.0,0.0
-2.854637,-8.310273,-1.844866,-50.68,-32.689999,10.99,1729416526115.0,0.0
-3.311667,-7.666604,-2.39043,-16.870001,-26.809999,18.27,1729416526132.0,0.0
-4.773681,-9.592826,-3.105884,-5.18,-16.52,24.710001,1729416526153.0,0.0
-6.860222,-12.270394,-4.364508,0.63,3.43,14.84,1729416526173.0,0.0
-7.317252,-11.801401,-4.012764,36.049999,24.290001,-3.85,1729416526194.0,0.0
-6.719046,-9.042477,-3.022135,57.959999,43.470001,-21.84,1729416526215.0,0.0
-5.312066,-8.839087,-2.098505,26.18,66.080002,-33.950001,1729416526233.0,0.0
-3.254239,-8.018349,2.325824,17.99,77.209999,-32.900002,1729416526251.0,0.0
-2.868994,-6.278766,5.804988,28.91,62.09,-19.530001,1729416526278.0,0.0
-2.409572,-7.111469,7.444071,-6.37,35.209999,-15.61,1729416526291.0,0.0
-0.748954,-7.030113,6.089733,-50.75,-7.77,-2.87,1729416526314.0,0.0
-1.194018,-8.463413,4.386044,-68.25,-25.200001,10.85,1729416526332.0,0.0
-1.988436,-9.303294,3.383451,-68.529999,-32.759998,19.530001,1729416526351.0,0.0
-1.366302,-8.683553,2.261217,-48.93,-43.189999,29.190001,1729416526371.0,0.0
-1.064806,-9.006584,0.595813,-30.309999,-49.630001,40.950001,1729416526393.0,0.0
-2.230111,-9.614362,-0.062213,-20.16,-47.389999,47.529999,1729416526414.0,0.0
-4.027121,-9.097511,0.102891,-12.6,-44.310001,49.349998,1729416526431.0,0.0
-7.537392,-9.937392,1.823331,-5.95,-43.259998,50.610001,1729416526451.0,0.0
-7.386643,-9.446864,-0.198604,-22.75,-48.93,39.41,1729416526471.0,0.0
-7.123433,-10.368099,-3.536592,-35.07,-46.689999,27.65,1729416526491.0,0.0
-6.649654,-11.973685,-4.926822,-33.599998,-22.469999,13.3,1729416526513.0,0.0
-5.953342,-11.966506,-5.278566,-5.39,1.12,-4.9,1729416526532.0,0.0
-5.393422,-10.459028,-3.914658,31.99,21.07,-16.870001,1729416526551.0,0.0
-5.501099,-8.898908,-2.244468,51.73,31.92,-23.59,1729416526573.0,0.0
-5.364708,-9.303294,-2.761317,32.27,41.16,-33.670002,1729416526591.0,0.0
-4.0008,-9.095119,-2.385644,7.63,54.25,-43.049999,1729416526612.0,0.0
-2.397608,-8.772088,1.698904,7.07,64.75,-43.82,1729416526632.0,0.0
-1.655833,-6.695118,6.266802,58.310001,46.130001,-28.98,1729416526650.0,0.0
-2.148755,-3.806981,7.62114,55.510002,18.41,-19.040001,1729416526670.0,0.0
-2.127219,-5.091926,6.04427,-19.25,-5.18,3.99,1729416526692.0,0.0
-2.598605,-8.408379,3.055635,-65.590004,-17.15,18.41,1729416526722.0,0.0
-3.144169,-9.879964,2.309074,-54.459999,-20.02,28.139999,1729416526732.0,0.0
-2.421536,-9.4349,1.158126,-21.91,-25.34,34.720001,1729416526754.0,0.0
-2.065006,-8.628519,0.59342,14.35,-29.190001,44.240002,1729416526770.0,0.0
-3.232704,-7.506285,0.579063,39.48,-30.870001,57.400002,1729416526791.0,0.0
-5.240282,-6.745367,1.246661,38.080002,-36.959999,69.510002,1729416526814.0,0.0
-7.594819,-6.881758,1.251446,-49.700001,-36.610001,66.639999,1729416526833.0,0.0
-7.456036,-10.344172,-1.964507,-86.309998,-35.139999,64.889999,1729416526850.0,0.0
-7.879565,-11.339586,-3.730411,-62.510002,-28.630001,44.380001,1729416526871.0,0.0
-7.587641,-12.567105,-5.443672,-32.900002,-9.03,21.35,1729416526893.0,0.0
-7.209574,-11.947363,-4.795217,14.0,17.5,-1.05,1729416526914.0,0.0
-6.778866,-10.432706,-2.663212,62.510002,31.99,-15.89,1729416526934.0,0.0
-6.972685,-10.272388,-2.160719,65.449997,40.459999,-30.309999,1729416526951.0,0.0
-5.242674,-10.162319,-1.701297,20.65,59.920002,-60.130001,1729416526970.0,0.0
-3.900301,-10.202995,0.634098,9.24,68.389999,-67.830002,1729416526992.0,0.0
-2.737389,-6.745367,6.305088,40.880001,59.779999,-67.480003,1729416527012.0,0.0
-2.285146,-3.634698,8.62134,44.73,25.9,-45.5,1729416527035.0,0.0
-2.411965,-4.558327,7.15454,-14.56,-1.68,-26.040001,1729416527052.0,0.0
-1.9669,-7.238289,4.759324,-66.290001,-18.76,-7.56,1729416527071.0,0.0
-2.517249,-8.532805,2.744568,-59.639999,-31.710001,8.4,1729416527092.0,0.0
-2.727818,-8.796017,1.268196,-39.970001,-39.27,22.75,1729416527112.0,0.0
-2.215754,-9.131011,-0.442672,-26.18,-41.790001,33.810001,1729416527132.0,0.0
-2.782853,-9.432507,-1.031307,-7.21,-39.060001,40.599998,1729416527150.0,0.0
-4.079762,-8.362915,-0.476172,16.66,-40.670002,46.34,1729416527171.0,0.0
-5.752346,-7.401,-0.617348,22.82,-45.920002,49.209999,1729416527192.0,0.0
-9.212367,-5.675776,1.091127,-23.1,-41.720001,46.689999,1729416527211.0,0.0
-8.226524,-9.178867,-2.909672,-64.120003,-44.310001,38.779999,1729416527232.0,0.0
-8.300702,-10.655239,-4.965107,-48.860001,-25.9,21.559999,1729416527250.0,0.0
-7.932207,-10.604989,-5.067998,-6.02,0.14,2.94,1729416527270.0,0.0
-6.656832,-9.913465,-2.85703,26.18,22.82,-16.379999,1729416527291.0,0.0
-7.085148,-10.327423,-1.478764,56.77,36.470001,-33.459999,1729416527312.0,0.0
-6.108876,-10.466206,-2.519642,37.66,39.689999,-53.34,1729416527331.0,0.0
-4.488935,-10.38485,-2.892922,-0.49,54.18,-65.239998,1729416527350.0,0.0
-3.677768,-11.296515,-0.916451,-9.1,72.449997,-67.410004,1729416527370.0,0.0
-3.096312,-7.144968,6.424729,44.380001,72.169998,-64.050003,1729416527392.0,0.0
-2.249253,-4.211368,8.154739,52.920002,39.549999,-50.189999,1729416527413.0,0.0
-2.557927,-5.438886,6.987042,2.1,11.69,-31.85,1729416527431.0,0.0
-1.861616,-7.980063,4.386044,-42.07,-5.25,-18.9,1729416527450.0,0.0
-2.522035,-8.915657,2.730211,-40.25,-14.91,-4.83,1729416527472.0,0.0
-3.072384,-9.133404,2.17029,-27.51,-19.040001,4.69,1729416527491.0,0.0
-2.048256,-8.549555,1.191626,-9.8,-27.51,15.82,1729416527511.0,0.0
-1.569692,-8.047063,-0.09332,-0.07,-34.09,27.370001,1729416527534.0,0.0
-3.400201,-6.774081,-0.193819,-7.63,-34.23,38.290001,1729416527550.0,0.0
-5.498707,-6.549156,1.253839,-24.5,-42.420002,45.5,1729416527570.0,0.0
-6.015556,-8.425128,-1.040878,-50.540001,-56.700001,46.970001,1729416527592.0,0.0
-7.336394,-11.203196,-3.15374,-46.549999,-50.82,34.439999,1729416527612.0,0.0
-6.553941,-10.856236,-4.053442,-4.69,-34.580002,21.35,1729416527632.0,0.0
-6.175875,-10.581062,-3.536592,46.27,-3.01,5.25,1729416527651.0,0.0
-5.766702,-10.463813,-2.481357,58.66,14.07,-7.35,1729416527670.0,0.0
-6.647261,-11.047661,-1.710868,71.540001,23.1,-19.389999,1729416527690.0,0.0
-6.436693,-10.566705,-2.112862,99.68,24.43,-33.599998,1729416527719.0,0.0
-5.721239,-8.657232,-2.481357,117.529999,31.780001,-47.389999,1729416527732.0,0.0
-4.706682,-8.001599,-1.976472,100.870003,54.599998,-55.02,1729416527753.0,0.0
-4.646862,-9.518648,-0.251246,97.790001,80.010002,-56.84,1729416527771.0,0.0
-5.304887,-9.501899,4.445865,146.509995,87.220001,-57.959999,1729416527792.0,0.0
-5.084748,-6.606583,7.018148,167.229996,62.510002,-64.68,1729416527812.0,0.0
-3.196811,-6.058627,6.661618,170.029999,31.85,-54.389999,1729416527835.0,0.0
-3.194418,-4.601398,6.240481,172.479996,11.9,-37.66,1729416527851.0,0.0
-3.306881,-4.862216,6.329016,131.180008,0.21,-24.290001,1729416527871.0,0.0
-3.029313,-6.922436,5.15414,81.059998,-2.38,-15.61,1729416527892.0,0.0
-3.105884,-8.425128,4.019942,79.519997,-0.21,-8.05,1729416527913.0,0.0
-2.955136,-8.903693,3.270989,115.220001,6.09,-3.5,1729416527934.0,0.0
-2.861816,-6.204589,3.440879,174.369995,20.440001,0.63,1729416527953.0,0.0
-3.395415,-4.740182,4.721039,201.460007,23.940001,7.7,1729416527972.0,0.0
-4.249653,-5.469993,7.233503,219.169998,20.65,18.549999,1729416527991.0,0.0
-4.364508,-6.089733,7.63789,224.0,9.17,18.690001,1729416528013.0,0.0
-3.156133,-4.701896,7.573284,209.440002,7.07,14.84,1729416528035.0,0.0
-3.553342,-4.132405,8.087741,162.539993,17.219999,12.32,1729416528051.0,0.0
-4.242475,-5.151747,8.142776,124.669998,19.879999,9.31,1729416528073.0,0.0
-4.536791,-6.771688,8.039884,133.279999,17.43,3.57,1729416528095.0,0.0
-3.972085,-6.874579,8.216952,170.589996,17.92,-11.83,1729416528116.0,0.0
-3.613162,-4.45065,8.532805,202.649994,22.889999,-28.630001,1729416528135.0,0.0
-4.039084,-1.545763,9.561719,206.149994,24.710001,-34.580002,1729416528154.0,0.0
-4.776074,-2.227718,11.456835,165.830002,15.4,-38.290001,1729416528173.0,0.0
-4.307081,-2.723032,10.279566,136.919998,-0.63,-36.68,1729416528194.0,0.0
-3.65384,-1.770689,7.896315,135.169998,-6.79,-34.790001,1729416528214.0,0.0
-5.989235,-2.043471,8.169096,106.470001,5.39,-51.310001,1729416528233.0,0.0
-5.491528,-1.758725,7.599605,115.220001,10.36,-58.310001,1729416528254.0,0.0
-4.261617,-0.071785,7.156933,123.059998,12.81,-50.68,1729416528273.0,0.0
-3.754339,-0.342174,7.578069,87.150002,16.450001,-38.360001,1729416528295.0,0.0
-3.821337,-2.667997,7.67139,37.029999,18.549999,-31.99,1729416528315.0,0.0
-3.701697,-2.9336,8.030313,22.33,12.81,-24.01,1729416528334.0,0.0
-3.883551,-2.952743,8.202596,3.22,1.96,-17.57,1729416528352.0,0.0
-3.304488,-2.383251,7.192825,-45.57,-13.16,-10.43,1729416528373.0,0.0
-2.141576,-1.648655,6.18784,-123.690002,-24.5,-0.28,1729416528395.0,0.0
-1.713261,-3.852444,6.206983,-206.5,-28.77,7.49,1729416528413.0,0.0
-2.861816,-6.575477,7.085148,-238.559998,-40.459999,14.42,1729416528438.0,0.0
-3.677768,-5.395815,7.432107,-259.279999,-62.16,14.84,1729416528453.0,0.0
-2.766103,-4.833502,6.376873,-327.390015,-74.480003,4.27,1729416528475.0,0.0
-1.581656,-6.865008,6.573084,-380.799988,-67.199997,-2.1,1729416528495.0,0.0
-3.395415,-7.338787,8.073383,-324.519989,-73.989998,11.06,1729416528515.0,0.0
-4.646862,-4.508078,9.602397,-238.0,-106.610001,12.74,1729416528532.0,0.0
-3.76391,-3.110669,7.159326,-243.529999,-107.870003,10.92,1729416528553.0,0.0
-4.548756,-7.704889,6.070591,-152.529999,-60.549999,14.42,1729416528573.0,0.0
-4.649254,-6.853044,6.321837,3.15,-23.450001,11.69,1729416528595.0,0.0
-3.924229,-3.663411,8.896514,111.580002,18.549999,7.91,1729416528615.0,0.0
-4.555934,-3.433701,9.992428,150.990005,48.369999,9.31,1729416528633.0,0.0
-4.704289,-5.235496,9.415757,195.229996,56.91,9.24,1729416528652.0,0.0
-4.855037,-7.597212,9.305687,251.649994,64.959999,-3.43,1729416528674.0,0.0
-4.369294,-7.877172,8.669197,294.700012,67.129997,-20.299999,1729416528693.0,0.0
-4.041477,-6.549156,8.362915,314.790009,64.120003,-36.75,1729416528715.0,0.0
-3.582055,-4.898108,8.250452,292.73999,60.200001,-50.75,1729416528733.0,0.0
-3.866802,-4.275974,7.647461,257.529999,56.07,-59.43,1729416528753.0,0.0
-2.18704,-2.548356,7.216753,204.190002,55.650002,-62.23,1729416528775.0,0.0
-1.488336,-2.29711,7.094719,163.029999,52.920002,-48.509998,1729416528795.0,0.0
-1.129412,-2.78046,6.809973,121.940002,47.389999,-31.85,1729416528816.0,0.0
-0.959522,-3.158526,7.042077,65.519997,43.119999,-15.12,1729416528833.0,0.0
-1.710868,-1.679761,7.944171,-7.98,35.490002,3.78,1729416528855.0,0.0
-3.60359,-3.474378,8.77448,-87.989998,17.15,15.75,1729416528872.0,0.0
-4.151547,-4.500899,7.530212,-124.459999,-14.0,20.93,1729416528895.0,0.0
-3.194418,-3.148954,8.176274,-169.399994,-38.779999,14.56,1729416528914.0,0.0
-3.862016,-3.201597,8.475377,-289.170013,-38.290001,7.35,1729416528998.0,0.0
-3.716053,-5.821737,6.862615,-364.839996,-42.490002,4.06,1729416529000.0,0.0
-4.335794,-8.472985,7.168896,-287.700012,-58.380001,16.450001,1729416529000.0,0.0
-5.9342,-5.142176,9.690931,-196.279999,-68.389999,-5.74,1729416529000.0,0.0
-6.680761,0.863809,10.179067,-147.350006,-79.870003,1.54,1729416529014.0,0.0
-3.759124,0.885344,6.9679,-127.120003,-66.919998,15.05,1729416529036.0,0.0
-4.036692,-3.426522,6.092126,-76.93,-28.210001,25.059999,1729416529052.0,0.0
-5.300103,-6.977471,7.106683,22.610001,12.81,15.75,1729416529072.0,0.0
-5.422136,-5.103891,8.475377,158.479996,39.27,7.07,1729416529093.0,0.0
-4.299902,-3.421736,8.683553,250.110001,51.170002,3.36,1729416529113.0,0.0
-3.962514,-5.070391,8.975478,252.070007,65.519997,-6.09,1729416529133.0,0.0
-4.130012,-6.601797,8.463413,226.869995,74.690002,-21.98,1729416529153.0,0.0
-4.414758,-6.343372,9.097511,239.190002,78.400002,-36.259998,1729416529172.0,0.0
-4.21376,-2.880959,8.82473,256.690002,72.590004,-41.16,1729416529193.0,0.0
-3.227918,-2.931208,8.334201,238.699997,62.650002,-43.889999,1729416529214.0,0.0
-3.18724,-2.912065,8.425128,192.919998,60.619999,-41.790001,1729416529233.0,0.0
-2.971886,-2.191825,8.62134,115.639999,49.139999,-32.619999,1729416529252.0,0.0
-3.393023,-2.45025,8.25763,52.360001,35.420002,-20.51,1729416529272.0,0.0
-3.177669,-1.931008,7.664211,-8.47,18.549999,-2.03,1729416529292.0,0.0
-3.538985,-1.550549,7.307681,-74.480003,2.38,23.940001,1729416529314.0,0.0
-3.63709,-3.67059,6.259624,-144.059998,-16.66,45.150002,1729416529333.0,0.0
-2.833102,-5.54417,5.438886,-230.720001,-23.73,41.580002,1729416529352.0,0.0
-3.285345,-5.860023,7.408179,-306.320007,-14.63,33.670002,1729416529372.0,0.0
-5.022535,-4.898108,9.360723,-385.769989,-22.960001,23.1,1729416529393.0,0.0
-4.110869,-3.991228,9.346365,-472.709991,-43.68,10.36,1729416529413.0,0.0
-5.9342,-6.345766,8.953942,-453.320007,-61.529999,18.200001,1729416529433.0,0.0
-7.307681,-7.551748,8.130811,-322.420013,-93.940002,17.5,1729416529453.0,0.0
-6.218946,-2.646462,6.908078,-182.210007,-94.080002,12.25,1729416529472.0,0.0
-6.702296,-0.679562,5.9342,-116.129997,-61.459999,14.91,1729416529493.0,0.0
-6.558727,-4.292724,5.668597,-59.010002,-32.970001,23.17,1729416529516.0,0.0
-6.305088,-7.479963,5.089533,20.02,-7.0,22.889999,1729416529533.0,0.0
-5.962914,-6.905686,6.65444,106.400002,18.620001,13.51,1729416529553.0,0.0
-5.156533,-5.742774,7.556533,217.350006,34.93,7.49,1729416529573.0,0.0
-5.132604,-7.56132,7.582855,271.25,40.18,-0.91,1729416529593.0,0.0
-4.881358,-8.10449,7.348359,294.279999,47.040001,-17.08,1729416529615.0,0.0
-4.419543,-6.180661,7.116255,299.529999,53.34,-30.940001,1729416529633.0,0.0
-5.034499,-6.161518,8.044669,299.040009,58.66,-28.42,1729416529652.0,0.0
-3.718446,-5.941379,7.601997,258.019989,59.709999,-45.57,1729416529672.0,0.0
-3.172883,-3.419343,7.683353,232.470001,55.510002,-41.299999,1729416529694.0,0.0
-3.847659,-2.139183,6.728617,186.410004,46.970001,-32.619999,1729416529716.0,0.0
-4.156333,-4.287938,7.525427,126.0,38.639999,-26.67,1729416529734.0,0.0
-4.673182,-2.435893,7.472785,55.16,23.870001,-16.030001,1729416529759.0,0.0
-4.869394,-2.658426,7.094719,-21.559999,4.48,1.47,1729416529774.0,0.0
-4.737789,-3.455236,6.290731,-81.620003,-15.05,15.82,1729416529793.0,0.0
-4.055835,-4.381258,5.546563,-135.449997,-28.84,21.0,1729416529816.0,0.0
-3.567699,-4.668397,5.441278,-215.110001,-29.540001,14.42,1729416529834.0,0.0
-3.986443,-5.166104,7.176075,-307.720001,-24.219999,7.28,1729416529853.0,0.0
-4.73061,-8.271988,6.860222,-377.649994,-23.799999,-7.42,1729416529875.0,0.0
-5.76431,-6.379266,9.564112,-308.209991,-39.549999,-10.5,1729416529894.0,0.0
-7.695317,-3.041277,9.178867,-197.610001,-80.639999,-1.12,1729416529916.0,0.0
-5.541777,-1.490728,5.879165,-156.589996,-88.410004,-2.94,1729416529934.0,0.0
-4.689932,-1.543371,4.945964,-143.779999,-42.07,2.73,1729416529953.0,0.0
-7.125826,-4.34058,5.871986,-76.790001,1.82,12.04,1729416529976.0,0.0
-7.197611,-6.515656,6.685547,40.880001,15.82,14.7,1729416529996.0,0.0
-5.556134,-4.639683,7.556533,150.990005,23.870001,11.34,1729416530018.0,0.0
-5.017749,-4.039084,7.970492,203.699997,33.32,10.36,1729416530037.0,0.0
-5.74756,-6.515656,8.635696,226.380005,39.759998,5.25,1729416530054.0,0.0
-5.369494,-8.977871,8.391629,260.679993,42.84,-7.28,1729416530076.0,0.0
-5.123034,-7.666604,8.185846,301.910004,47.670002,-25.549999,1729416530097.0,0.0
-4.393222,-5.491528,7.989635,316.540009,47.529999,-34.369999,1729416530117.0,0.0
-3.9338,-5.556134,7.65464,282.940002,51.170002,-53.41,1729416530135.0,0.0
-4.220939,-4.338188,7.657032,262.079987,50.82,-58.450001,1729416530156.0,0.0
-4.297509,-2.005185,7.515855,191.589996,39.549999,-60.689999,1729416530175.0,0.0
-5.321638,-1.0002,7.578069,117.459999,28.42,-54.18,1729416530195.0,0.0
-5.242674,-1.299303,6.965507,57.540001,13.58,-39.759998,1729416530215.0,0.0
-4.503292,-1.679761,5.757132,12.67,1.89,-25.41,1729416530236.0,0.0
-4.275974,-1.289732,5.462814,-21.98,-3.43,-11.34,1729416530256.0,0.0
-4.256832,-0.945165,5.893522,-60.200001,-7.56,5.67,1729416530275.0,0.0
-4.067799,-1.270589,6.149554,-118.790001,-14.21,25.059999,1729416530296.0,0.0
-3.845266,-2.596212,6.099305,-195.020004,-21.0,36.959999,1729416530315.0,0.0
-4.15394,-1.931008,6.314659,-267.190002,-25.129999,45.920002,1729416530335.0,0.0
-5.245068,-2.744568,7.80778,-350.140015,-32.200001,51.939999,1729416530354.0,0.0
-5.513064,-7.491928,7.166504,-449.330017,-49.07,42.700001,1729416530375.0,0.0
-5.943772,-10.526026,7.056434,-405.019989,-64.75,32.830002,1729416530396.0,0.0
-6.336195,-9.238688,7.661818,-250.529999,-95.269997,31.15,1729416530415.0,0.0
-6.58744,-5.929415,7.01097,-247.029999,-95.410004,-3.01,1729416530436.0,0.0
-5.254639,-3.830909,4.512863,-266.980011,-70.559998,-4.48,1729416530455.0,0.0
-6.135197,-4.82393,5.666204,-191.449997,-26.67,0.56,1729416530478.0,0.0
-7.259824,-7.341179,6.769295,-37.799999,-6.16,5.11,1729416530496.0,0.0
-5.63749,-5.046463,6.405586,157.779999,8.05,-10.29,1729416530516.0,0.0
-4.917251,-3.15374,7.695317,216.300003,26.460001,-10.5,1729416530537.0,0.0
-5.673382,-4.103691,8.987441,228.550003,34.93,-4.27,1729416530554.0,0.0
-5.20439,-5.613562,8.283953,221.130005,34.16,-10.78,1729416530574.0,0.0
-4.048656,-6.881758,7.068398,232.190002,38.080002,-14.49,1729416530597.0,0.0
-4.742575,-6.405586,6.862615,245.559998,46.759998,-26.25,1729416530615.0,0.0
-5.032106,-5.663811,7.977671,252.490005,50.049999,-30.24,1729416530637.0,0.0
-3.601198,-4.354938,7.972885,220.080002,42.07,-33.459999,1729416530654.0,0.0
-3.945765,-4.709075,8.248059,175.070007,38.009998,-25.76,1729416530674.0,0.0
-3.89073,-6.616155,6.350551,147.699997,26.74,-16.66,1729416530696.0,0.0
-3.515057,-7.04447,5.520242,115.080002,18.620001,-22.469999,1729416530715.0,0.0
-4.113262,-4.792823,5.816952,68.949997,14.21,-15.96,1729416530735.0,0.0
-4.426722,-4.048656,6.163911,-8.47,6.79,-8.68,1729416530756.0,0.0
-4.993821,-5.240282,5.321638,-60.549999,-7.28,-1.4,1729416530776.0,0.0
-5.304887,-4.328616,5.965307,-90.720001,-18.620001,-3.64,1729416530795.0,0.0
-4.290331,-4.445865,6.422336,-156.940002,-25.059999,-11.9,1729416530815.0,0.0
-4.173083,-5.099105,7.240681,-219.869995,-25.969999,-11.55,1729416530836.0,0.0
-4.589434,-6.398407,8.425128,-256.410004,-34.860001,-17.290001,1729416530854.0,0.0
-3.95055,-4.529613,9.920642,-261.170013,-48.299999,-12.6,1729416530875.0,0.0
-5.331209,-5.510671,9.300901,-229.809998,-76.860001,-3.43,1729416530894.0,0.0
-5.163712,-5.290531,7.171289,-201.389999,-90.160004,-6.44,1729416530917.0,0.0
-6.075377,-1.87358,6.376873,-150.639999,-74.830002,-2.73,1729416530935.0,0.0
-6.71426,-2.230111,6.202196,-111.720001,-41.93,-6.16,1729416530956.0,0.0
-6.723832,-5.225924,5.706882,-36.119999,-15.82,-2.66,1729416530974.0,0.0
-6.001199,-5.503492,6.051448,86.660004,3.29,-4.55,1729416530995.0,0.0
-4.934,-3.474378,7.721639,175.979996,23.309999,-4.2,1729416531015.0,0.0
-5.395815,-2.89053,9.343972,205.240005,36.959999,-2.24,1729416531038.0,0.0
-5.235496,-4.54397,9.580862,206.850006,41.23,-5.67,1729416531055.0,0.0
-3.821337,-5.47717,8.535198,217.139999,42.420002,-5.18,1729416531074.0,0.0
-3.488736,-7.034898,7.783852,221.130005,43.82,-8.47,1729416531096.0,0.0
-4.180261,-6.884151,7.554141,213.990005,50.259998,-17.08,1729416531115.0,0.0
-4.031906,-6.020342,8.092526,201.949997,51.380001,-28.700001,1729416531136.0,0.0
-3.54377,-6.262017,8.420342,165.339996,50.610001,-35.0,1729416531154.0,0.0
-3.223132,-4.208975,6.649654,143.430008,44.450001,-41.23,1729416531175.0,0.0
-3.538985,-4.103691,6.685547,122.43,38.57,-30.450001,1729416531195.0,0.0
-4.424329,-4.919643,6.458229,78.470001,35.630001,-37.099998,1729416531215.0,0.0
-5.036892,-3.838088,6.783652,57.68,26.389999,-35.279999,1729416531236.0,0.0
-4.986642,-2.172683,7.008578,33.32,11.9,-26.74,1729416531254.0,0.0
-4.256832,-0.892523,6.695118,-7.14,-4.97,-9.73,1729416531274.0,0.0
-3.605984,-1.081556,6.568298,-58.66,-18.690001,11.41,1729416531294.0,0.0
-3.113062,-2.730211,6.407979,-120.610001,-28.49,25.34,1729416531317.0,0.0
-2.945565,-3.658626,6.238089,-178.009995,-33.740002,33.599998,1729416531336.0,0.0
-3.349952,-3.917051,7.657032,-225.119995,-36.400002,39.970001,1729416531354.0,0.0
-3.912265,-5.335995,6.537192,-270.200012,-52.080002,41.860001,1729416531376.0,0.0
-3.639483,-7.57089,8.788837,-290.570007,-57.049999,27.299999,1729416531396.0,0.0
-4.627719,-7.209574,8.819944,-256.690002,-76.580002,29.75,1729416531415.0,0.0
-6.831509,-4.599005,9.554541,-237.509995,-94.639999,12.39,1729416531437.0,0.0
-6.209375,-4.010371,7.68096,-245.139999,-93.590004,5.88,1729416531454.0,0.0
-5.350351,-4.587041,6.910471,-212.240005,-65.800003,2.8,1729416531474.0,0.0
-6.723832,-6.070591,7.243074,-99.959999,-38.290001,-0.77,1729416531495.0,0.0
-5.876772,-4.627719,8.068598,107.800003,-12.74,-11.2,1729416531517.0,0.0
-4.957928,-3.208775,8.709875,183.680008,10.57,-12.6,1729416531534.0,0.0
-4.677969,-2.804388,8.944371,221.199997,28.98,-12.04,1729416531555.0,0.0
-4.067799,-3.433701,8.843873,222.320007,41.580002,-14.28,1729416531576.0,0.0
-3.802195,-5.848059,8.389235,209.860001,50.82,-17.360001,1729416531594.0,0.0
-4.393222,-7.537392,7.925028,206.779999,56.700001,-29.68,1729416531617.0,0.0
-4.297509,-7.211967,7.814958,221.690002,60.900002,-36.75,1729416531634.0,0.0
-2.912065,-6.13759,6.400801,209.930008,59.080002,-47.389999,1729416531653.0,0.0
