acc_x,acc_y,acc_z,gyr_x,gyr_y,gyr_z,timestamp,label
-3.428915,-6.908078,-6.503692,-48.509998,82.25,-39.27,1729418984352.0,0.0
-3.139383,-6.745367,-6.793223,-65.379997,78.120003,-37.52,1729418984356.0,0.0
-2.584249,-5.85763,-6.616155,-64.889999,70.0,-27.860001,1729418984359.0,0.0
-2.581856,-6.015556,-7.116255,-55.09,68.459999,-8.12,1729418984360.0,0.0
-2.998207,-6.431907,-7.159326,-40.880001,69.440002,-3.85,1729418984380.0,0.0
-3.854837,-6.132804,-7.262216,-18.200001,65.239998,-1.33,1729418984399.0,0.0
-4.472186,-5.015356,-7.161718,0.14,54.599998,2.38,1729418984420.0,0.0
-4.680361,-4.646862,-7.149754,-2.8,39.48,8.47,1729418984439.0,0.0
-4.666004,-5.118248,-6.970293,-15.68,34.650002,12.74,1729418984459.0,0.0
-4.800002,-5.685347,-6.520442,-17.290001,30.030001,15.82,1729418984480.0,0.0
-4.804788,-5.666204,-6.391229,-12.11,20.23,12.88,1729418984501.0,0.0
-4.59422,-5.333601,-6.642475,-4.34,12.25,10.08,1729418984519.0,0.0
-4.383651,-5.759524,-7.025328,2.1,6.51,13.79,1729418984539.0,0.0
-4.572684,-5.986843,-6.73101,-0.42,12.53,10.78,1729418984566.0,0.0
-4.852644,-5.699703,-6.62094,-1.82,14.98,3.71,1729418984579.0,0.0
-4.675575,-5.553742,-6.62094,2.03,9.31,3.15,1729418984601.0,0.0
-4.204189,-6.053841,-6.932007,7.7,3.36,6.44,1729418984620.0,0.0
-3.830909,-6.290731,-7.164111,14.7,4.55,5.11,1729418984639.0,0.0
-3.802195,-5.757132,-7.058826,22.33,8.54,0.56,1729418984659.0,0.0
-3.524628,-5.352744,-6.565905,20.58,7.28,-2.52,1729418984680.0,0.0
-3.215954,-5.819345,-6.975078,14.49,-2.52,-2.38,1729418984700.0,0.0
-3.081956,-5.709275,-7.240681,10.08,-3.43,-4.2,1729418984721.0,0.0
-3.37388,-5.56092,-7.164111,7.35,1.75,-4.41,1729418984740.0,0.0
-3.323631,-5.606383,-7.252645,5.53,-1.33,-2.1,1729418984760.0,0.0
-3.072384,-5.692525,-7.393822,6.86,-4.76,-0.14,1729418984780.0,0.0
-3.096312,-5.726025,-7.551748,7.77,-3.29,0.07,1729418984801.0,0.0
-2.931208,-5.687739,-7.71446,3.15,-4.27,-1.26,1729418984820.0,0.0
-2.624927,-5.91745,-7.668997,-2.03,-5.6,-0.07,1729418984840.0,0.0
-2.56032,-6.178268,-7.647461,-3.99,-1.89,-1.05,1729418984861.0,0.0
-2.67039,-6.017949,-7.657032,2.31,-2.52,-3.01,1729418984886.0,0.0
-2.830709,-5.785845,-7.649854,3.78,-1.82,-3.01,1729418984900.0,0.0
-2.849852,-6.032306,-7.556533,-5.04,-1.05,-4.06,1729418984924.0,0.0
-2.895315,-6.228518,-7.506285,-11.62,-0.14,-5.46,1729418984942.0,0.0
-2.739782,-5.76431,-7.62114,-5.46,-1.68,-4.9,1729418984962.0,0.0
-2.474179,-5.814559,-7.613962,-4.76,-3.78,-2.87,1729418984983.0,0.0
-2.565106,-6.173482,-7.506285,-7.07,-0.07,-1.33,1729418985001.0,0.0
-2.79721,-6.058627,-7.295716,-5.88,3.29,-2.73,1729418985023.0,0.0
-2.902494,-5.766702,-7.32443,-5.25,0.77,-2.66,1729418985041.0,0.0
-2.768496,-5.970093,-7.757531,-3.5,-4.62,-0.98,1729418985061.0,0.0
-2.603391,-6.005985,-7.963314,-0.91,-6.79,0.49,1729418985083.0,0.0
-2.727818,-5.79781,-7.657032,0.56,-3.22,0.14,1729418985103.0,0.0
-2.880959,-5.733203,-7.554141,-0.56,-2.1,-1.19,1729418985121.0,0.0
-2.677568,-5.76431,-7.783852,-2.31,-6.86,-0.77,1729418985141.0,0.0
-2.553142,-5.850451,-7.846066,-4.69,-8.33,0.7,1729418985162.0,0.0
-2.993421,-5.99402,-7.779066,-6.3,-1.54,-0.14,1729418985182.0,0.0
-3.273381,-5.826523,-7.759924,-3.71,1.05,-1.89,1729418985201.0,0.0
-3.235096,-5.910272,-8.075776,2.66,-4.34,0.28,1729418985224.0,0.0
-3.098706,-5.903094,-7.874779,2.66,-4.27,2.03,1729418985242.0,0.0
-3.172883,-5.905487,-7.551748,-1.54,-0.28,1.33,1729418985262.0,0.0
-2.63689,-6.065805,-7.592427,-0.7,-3.92,3.15,1729418985285.0,0.0
-2.512464,-5.91745,-7.628319,5.39,-6.44,3.57,1729418985301.0,0.0
-2.737389,-5.828916,-7.539784,9.17,-6.93,3.15,1729418985323.0,0.0
-2.87378,-5.453243,-7.293324,8.12,-9.1,3.85,1729418985342.0,0.0
-3.029313,-5.702096,-7.171289,1.61,-8.68,4.97,1729418985362.0,0.0
-3.479164,-6.26441,-7.238289,-6.16,-3.71,1.05,1729418985381.0,0.0
-4.144369,-6.23091,-7.226324,1.68,0.07,0.14,1729418985404.0,0.0
-4.524827,-6.046663,-7.238289,13.65,-5.53,1.82,1729418985422.0,0.0
-4.56072,-6.080163,-7.45125,9.1,-10.57,2.1,1729418985442.0,0.0
-4.644469,-6.056234,-7.02772,-3.5,-7.63,-1.33,1729418985462.0,0.0
-4.742575,-6.080163,-6.647261,-5.25,-3.85,-4.83,1729418985482.0,0.0
-5.008178,-6.159126,-6.826723,4.13,-2.1,-8.89,1729418985501.0,0.0
-5.209175,-5.572884,-7.467999,10.5,-1.26,-15.68,1729418985524.0,0.0
-4.898108,-5.376673,-7.805387,3.01,-1.61,-18.76,1729418985541.0,0.0
-4.503292,-5.582455,-7.989635,-13.23,4.48,-20.93,1729418985561.0,0.0
-4.689932,-5.867201,-8.496914,-19.32,15.61,-26.18,1729418985584.0,0.0
-4.364508,-5.072784,-8.635696,-10.43,27.65,-31.99,1729418985602.0,0.0
-3.620341,-4.61097,-8.810372,-11.41,20.65,-31.99,1729418985623.0,0.0
-3.328416,-4.867002,-9.353544,-17.219999,27.58,-33.110001,1729418985642.0,0.0
-2.48375,-4.917251,-8.941978,-27.51,30.73,-36.049999,1729418985660.0,0.0
-0.820738,-3.639483,-7.972885,-36.610001,17.360001,-33.18,1729418985682.0,0.0
-0.303888,-6.455836,-7.317252,-67.690002,7.56,-30.030001,1729418985701.0,0.0
-0.667598,-8.482556,-8.23131,-55.510002,20.02,-42.630001,1729418985733.0,0.0
-0.464208,-8.398808,-6.965507,19.25,2.31,-38.990002,1729418985741.0,0.0
-3.713661,-8.894121,0.471386,57.610001,9.66,-26.6,1729418985761.0,0.0
-4.503292,-4.577469,-5.769095,175.699997,-26.460001,-33.32,1729418985782.0,0.0
-1.241875,-1.445265,-4.883751,115.150002,-93.239998,8.4,1729418985802.0,0.0
0.40678,-6.65444,-6.915257,-25.969999,-52.57,12.04,1729418985824.0,0.0
-1.741975,-9.870394,-6.893722,-63.84,-22.889999,5.18,1729418985840.0,0.0
-2.62732,-7.281359,-8.152347,-13.440001,-31.01,-22.469999,1729418985860.0,0.0
-1.868794,-5.28096,-8.422735,46.41,-64.050003,-10.92,1729418985885.0,0.0
-0.055035,-4.512863,-9.12144,15.05,-63.490002,-12.32,1729418985901.0,0.0
-0.930808,-6.254838,-6.262017,-47.389999,-32.41,-14.56,1729418985922.0,0.0
-2.656033,-5.587241,-4.867002,-80.919998,-16.309999,-24.290001,1729418985941.0,0.0
-3.486342,-5.541777,-7.463214,-44.450001,-59.290001,-5.18,1729418985960.0,0.0
-2.28036,-6.783652,-9.68136,-56.209999,-66.220001,-3.78,1729418985981.0,0.0
-2.962314,-8.044669,-9.487542,-66.919998,-38.990002,-11.76,1729418986004.0,0.0
-3.613162,-8.190632,-9.188439,-38.920002,-11.62,-25.549999,1729418986022.0,0.0
-2.294717,-6.996613,-10.360922,39.34,-17.219999,-19.879999,1729418986040.0,0.0
-0.289532,-5.855237,-10.365707,112.629997,-39.41,-0.91,1729418986061.0,0.0
0.894916,-2.816352,-6.79083,112.209999,-20.860001,13.09,1729418986081.0,0.0
-2.239682,-3.852444,-2.902494,49.77,20.65,18.690001,1729418986102.0,0.0
-4.931608,-4.768896,-7.202396,-24.85,38.920002,-7.21,1729418986123.0,0.0
-5.4676,-6.202196,-8.303094,-0.98,2.1,15.05,1729418986140.0,0.0
-4.381258,-7.630712,-7.365108,38.849998,-24.85,33.18,1729418986160.0,0.0
-3.397808,-7.274181,-6.099305,61.110001,-19.530001,26.950001,1729418986183.0,0.0
-2.902494,-6.853044,-6.848258,48.299999,-24.710001,20.370001,1729418986202.0,0.0
-3.192025,-5.666204,-7.02772,-9.1,-21.629999,8.4,1729418986221.0,0.0
-3.522235,-8.712267,-6.893722,-35.07,-7.7,-2.59,1729418986242.0,0.0
-3.5007,-6.69751,-6.34098,-25.27,-0.98,-1.96,1729418986260.0,0.0
-3.773481,-5.690133,-7.518249,12.39,-15.190001,7.28,1729418986282.0,0.0
-3.318845,-4.706682,-6.865008,-13.16,-29.610001,10.78,1729418986302.0,0.0
-3.268596,-3.046063,-6.034698,-79.239998,-25.129999,4.2,1729418986322.0,0.0
-3.656233,-7.49432,-7.487142,-105.980003,-23.450001,3.15,1729418986342.0,0.0
-2.57707,-4.811966,-5.82413,-122.360001,-27.65,-14.07,1729418986362.0,0.0
-3.333202,-5.051248,-6.309873,-71.260002,-37.099998,-0.56,1729418986381.0,0.0
-2.919244,-4.331009,-10.018748,-111.510002,-54.389999,2.87,1729418986402.0,0.0
-3.376273,-5.479564,-6.752545,-163.940002,-35.209999,-2.31,1729418986422.0,0.0
-5.252246,-5.79781,-10.047462,-100.309998,-23.73,-8.26,1729418986440.0,0.0
-5.804988,-4.9675,-8.499306,-59.43,-24.780001,3.15,1729418986460.0,0.0
-3.60359,-4.835894,-8.190632,-73.150002,-31.639999,0.35,1729418986481.0,0.0
-2.445465,-5.4006,-10.389636,-51.799999,-33.670002,1.61,1729418986501.0,0.0
-3.292524,-4.649254,-8.85105,-15.26,-5.11,0.14,1729418986522.0,0.0
-3.931407,-2.931208,-9.150154,5.04,-9.94,3.29,1729418986542.0,0.0
-3.89073,-2.935993,-9.750752,2.31,-8.96,11.06,1729418986560.0,0.0
-4.606184,-3.783052,-9.829715,-13.86,9.17,8.96,1729418986582.0,0.0
-5.668597,-5.682954,-10.473385,-15.54,26.880001,2.31,1729418986608.0,0.0
-6.317052,-6.202196,-8.772088,66.709999,41.369999,-8.61,1729418986624.0,0.0
-5.639884,-3.639483,-9.999605,126.910004,41.439999,-6.79,1729418986642.0,0.0
-5.379066,-7.532606,-10.526026,198.729996,36.119999,4.13,1729418986662.0,0.0
-4.17069,-5.785845,-8.80798,163.520004,24.219999,-21.98,1729418986681.0,0.0
-4.309474,-3.381058,-7.233503,107.590004,43.330002,-41.860001,1729418986701.0,0.0
-4.046263,-5.589634,-7.123433,91.419998,10.64,-45.849998,1729418986722.0,0.0
-3.646662,-4.797609,-5.682954,39.41,16.450001,-45.709999,1729418986741.0,0.0
-3.122634,-4.835894,-5.005785,-3.15,0.14,-48.16,1729418986761.0,0.0
-3.56052,-5.668597,0.698704,-35.98,-19.879999,-51.59,1729418986784.0,0.0
-3.354738,-7.479963,-9.073583,-45.779999,-33.529999,-55.369999,1729418986802.0,0.0
-1.150948,-4.034299,-7.836494,-19.389999,-85.190002,-50.049999,1729418986823.0,0.0
-1.806581,-6.817152,-8.611769,77.559998,-41.23,-13.65,1729418986843.0,0.0
-6.144768,-7.518249,-9.133404,142.100006,22.469999,12.6,1729418986862.0,0.0
-8.999406,-5.134997,-9.353544,116.620003,57.959999,10.92,1729418986884.0,0.0
-6.742974,-3.572484,-6.695118,58.240002,21.280001,12.18,1729418986902.0,0.0
-1.773082,-7.877172,-4.567898,-0.07,-30.380001,18.27,1729418986922.0,0.0
-2.37368,-8.422735,-6.943972,-23.940001,15.12,-3.01,1729418986944.0,0.0
-4.68754,-7.958528,-9.537791,55.510002,35.700001,2.24,1729418986964.0,0.0
-5.852845,-6.482157,-7.149754,113.959999,56.209999,10.78,1729418986983.0,0.0
-5.151747,-8.391629,-5.845665,128.449997,45.5,12.6,1729418987003.0,0.0
-2.684747,-6.991827,-3.225525,111.090004,18.34,1.12,1729418987026.0,0.0
-1.732404,-7.915457,-1.95015,84.910004,20.790001,-0.98,1729418987044.0,0.0
-1.4668,-7.164111,-1.024128,53.970001,19.879999,-5.18,1729418987062.0,0.0
-2.828316,-7.190433,-2.325824,79.379997,10.29,10.71,1729418987084.0,0.0
-5.005785,-7.733603,-3.438486,91.910004,25.27,19.18,1729418987104.0,0.0
-4.4674,-8.9348,-3.821337,119.489998,3.57,30.1,1729418987123.0,0.0
-2.76371,-9.075976,-1.069592,189.419998,-8.54,38.57,1729418987144.0,0.0
-3.936193,-9.164511,-0.794417,198.240005,1.12,36.889999,1729418987162.0,0.0
-5.687739,-8.066205,-1.660619,131.320007,9.59,14.35,1729418987183.0,0.0
-5.32403,-8.606983,-2.225325,87.709999,0.49,15.96,1729418987204.0,0.0
-5.402994,-10.222138,-2.316252,82.529999,12.18,19.110001,1729418987225.0,0.0
-4.936393,-11.073983,-2.490928,123.199997,19.040001,19.110001,1729418987243.0,0.0
-5.075177,-7.625926,-3.134598,101.010002,33.040001,6.02,1729418987263.0,0.0
-5.426922,-3.826123,-0.490529,1.89,40.459999,2.24,1729418987285.0,0.0
-4.716253,-2.031506,-0.124427,-126.699997,4.41,6.23,1729418987304.0,0.0
-3.321238,-5.869594,-4.766503,-211.259995,-45.990002,15.89,1729418987328.0,0.0
-3.160919,-13.261024,-6.190232,-268.799988,-48.16,10.78,1729418987342.0,0.0
-2.964707,-15.21596,-4.926822,-230.580002,-25.48,-32.689999,1729418987362.0,0.0
-4.328616,-10.34178,-3.206382,-113.120003,-12.18,-37.73,1729418987385.0,0.0
-3.749553,-5.706882,-4.780859,-31.92,-3.01,-34.16,1729418987404.0,0.0
-5.065606,-8.35813,-1.086342,-77.07,-37.66,-14.0,1729418987425.0,0.0
-4.558327,-7.71446,-4.898108,-125.580002,-17.290001,-45.639999,1729418987444.0,0.0
-4.972286,-7.022934,-4.472186,-109.550003,-32.34,-8.82,1729418987462.0,0.0
-4.254438,-4.565506,-3.012564,-116.760002,-38.709999,-7.0,1729418987483.0,0.0
-4.723432,-3.113062,-6.106483,-112.699997,-40.599998,11.76,1729418987503.0,0.0
-4.453043,-1.426122,-9.801002,-146.509995,-53.200001,29.889999,1729418987523.0,0.0
-5.192425,-8.128418,-6.518049,-233.100006,-48.650002,33.529999,1729418987542.0,0.0
-5.326423,-9.576077,-8.140383,-307.230011,9.45,-39.34,1729418987562.0,0.0
-4.900501,-5.546563,-9.442079,-172.339996,-21.84,-16.799999,1729418987583.0,0.0
-2.892922,-1.426122,-13.215559,-58.939999,-63.630001,19.040001,1729418987604.0,0.0
-1.765903,-3.39063,-12.442677,-96.32,-19.809999,39.689999,1729418987624.0,0.0
-3.156133,-7.111469,-3.936193,-154.490005,46.830002,13.09,1729418987643.0,0.0
-6.79083,-6.865008,-4.759324,-122.989998,48.02,-11.62,1729418987662.0,0.0
-5.740381,-5.687739,-7.903493,-63.139999,-21.280001,-12.46,1729418987685.0,0.0
-2.945565,-4.388437,-10.535598,-49.139999,-37.939999,6.37,1729418987702.0,0.0
-4.125226,-4.273581,-8.901299,-23.73,7.21,24.219999,1729418987726.0,0.0
-8.346166,-4.965107,-6.826723,14.14,64.959999,31.360001,1729418987742.0,0.0
-7.235896,-7.020542,-8.126025,38.290001,35.91,27.02,1729418987764.0,0.0
-3.089134,-6.283553,-2.952743,50.75,-12.6,33.110001,1729418987784.0,0.0
-1.354338,-4.962714,-3.498307,-14.0,-48.369999,22.26,1729418987805.0,0.0
-2.859423,-7.606783,-9.020942,-73.849998,-41.23,-15.96,1729418987825.0,0.0
-4.677969,-6.719046,-9.844072,-32.759998,1.96,-29.469999,1729418987842.0,0.0
-5.986843,-5.051248,-10.07139,101.989998,14.0,8.75,1729418987864.0,0.0
-5.379066,-3.728018,-10.631311,206.289993,-0.14,25.129999,1729418987886.0,0.0
-5.096712,-2.256432,-8.405986,156.869995,19.25,18.41,1729418987902.0,0.0
-4.31426,-4.400401,-9.044869,105.209999,26.32,9.52,1729418987925.0,0.0
-4.211368,-5.015356,-9.702895,134.470001,40.18,12.88,1729418987943.0,0.0
-4.910072,-8.705089,-12.882957,258.720001,49.91,24.99,1729418987963.0,0.0
-5.312066,-7.381857,-11.949757,359.23999,93.309998,19.74,1729418987985.0,0.0
-5.134997,-6.915257,-7.719246,473.200012,121.099998,19.460001,1729418988002.0,0.0
-5.079963,-4.182654,-4.086941,497.559998,81.550003,20.58,1729418988023.0,0.0
-4.998606,-3.383451,-3.718446,465.640015,60.130001,7.98,1729418988042.0,0.0
-6.199803,-8.12124,-2.904887,412.230011,58.380001,-11.97,1729418988063.0,0.0
-5.522634,-11.894722,-4.76411,339.570007,13.65,-62.439999,1729418988083.0,0.0
-2.718246,-12.311072,-3.309274,390.179993,15.89,-92.75,1729418988104.0,0.0
-1.440479,-1.380659,-1.239482,487.76001,105.559998,-34.650002,1729418988123.0,0.0
-3.78066,2.78046,4.051049,487.200012,138.949997,27.23,1729418988144.0,0.0
-5.716454,-2.024328,4.304688,223.160004,81.480003,7.42,1729418988163.0,0.0
-5.821737,-10.028319,2.909672,-54.459999,-6.86,-51.170002,1729418988183.0,0.0
-3.378666,-13.057633,1.866402,-51.099998,-21.700001,-47.389999,1729418988202.0,0.0
-4.625326,-8.597411,3.314059,97.790001,41.720001,-5.25,1729418988224.0,0.0
-3.677768,-5.682954,6.020342,181.020004,40.110001,-20.440001,1729418988243.0,0.0
-1.385444,-1.816152,3.471986,121.029999,13.86,-5.46,1729418988264.0,0.0
-0.954736,-2.615355,2.909672,53.34,9.17,17.219999,1729418988285.0,0.0
-1.282553,-7.051648,4.235296,-69.510002,-2.59,31.710001,1729418988302.0,0.0
-3.251846,-10.616954,3.122634,-168.770004,-10.64,4.27,1729418988324.0,0.0
-4.067799,-9.430114,1.691726,-170.240005,-24.85,9.73,1729418988342.0,0.0
-2.600998,-5.438886,2.656033,-123.340004,-19.530001,37.73,1729418988364.0,0.0
-1.631905,-6.494121,4.919643,-123.900002,-30.52,54.599998,1729418988383.0,0.0
-4.479364,-11.767902,6.776474,-175.139999,-44.799999,49.209999,1729418988402.0,0.0
-7.484749,-10.423136,3.814159,-233.800003,-62.02,28.0,1729418988423.0,0.0
-5.142176,-6.924829,2.739782,-222.809998,-71.75,26.25,1729418988444.0,0.0
-3.388237,-6.151947,2.419144,-261.519989,-85.330002,26.110001,1729418988463.0,0.0
-4.65404,-7.743174,0.72024,-350.140015,-88.199997,15.89,1729418988483.0,0.0
-6.185446,-8.458629,-2.730211,-440.440002,-60.41,-5.46,1729418988502.0,0.0
-5.98445,-6.218946,-3.955336,-498.190002,-71.050003,-47.110001,1729418988524.0,0.0
-6.470192,-6.336195,-1.730011,-493.779999,-90.019997,-60.619999,1729418988544.0,0.0
-5.682954,-7.578069,-11.789437,-364.0,-90.650002,-40.599998,1729418988561.0,0.0
-4.563113,-9.355937,-9.437292,-274.190002,-60.900002,-24.08,1729418988582.0,0.0
-3.151347,-11.246266,-9.927821,-153.160004,-21.629999,-12.6,1729418988602.0,0.0
-3.067599,-7.616355,-4.864608,-105.699997,-18.9,-16.59,1729418988624.0,0.0
-3.232704,-4.309474,-3.847659,-93.870003,-8.19,-22.960001,1729418988648.0,0.0
-3.885944,-3.4672,-4.98425,-102.129997,-31.5,-3.22,1729418988664.0,0.0
-4.54397,-4.84068,-9.470792,-107.730003,-21.210001,4.69,1729418988682.0,0.0
-5.338387,-8.963513,-11.243874,-63.420002,-4.62,21.77,1729418988705.0,0.0
-5.47717,-9.60479,-9.829715,-21.280001,14.0,18.48,1729418988722.0,0.0
-5.264209,-7.594819,-7.709675,2.8,30.59,0.77,1729418988742.0,0.0
-4.955536,-6.946364,-6.675975,-14.14,15.05,-9.8,1729418988763.0,0.0
-4.689932,-7.068398,-4.814359,-58.099998,12.39,-28.630001,1729418988783.0,0.0
-4.82393,-8.173882,-6.589834,-42.07,10.43,-25.690001,1729418988803.0,0.0
-3.668197,-9.35833,-6.9009,73.010002,-10.08,-9.59,1729418988825.0,0.0
-4.232903,-3.06042,-2.057827,100.309998,-0.21,-3.64,1729418988842.0,0.0
-4.587041,-1.698904,-6.252446,1.12,-32.619999,-18.76,1729418988862.0,0.0
-2.880959,-4.639683,-8.025528,-119.910004,-62.09,-3.78,1729418988886.0,0.0
-2.361716,-5.072784,-9.530612,-64.190002,-42.560001,0.42,1729418988905.0,0.0
-5.091926,-5.862415,-11.581261,20.370001,4.27,9.66,1729418988926.0,0.0
-6.410372,-4.108476,-9.47797,68.25,23.940001,-1.12,1729418988943.0,0.0
-5.362316,-3.141776,-9.750752,68.25,16.1,16.24,1729418988963.0,0.0
-3.656233,-4.835894,-7.99442,24.360001,-6.02,19.460001,1729418988983.0,0.0
-3.005385,-6.51087,-6.128019,0.7,9.73,3.78,1729418989004.0,0.0
-4.555934,-5.807381,-5.592027,1.26,22.540001,-4.97,1729418989027.0,0.0
-6.02752,-5.20439,-6.166305,3.43,19.18,-9.1,1729418989042.0,0.0
-5.74756,-5.680561,-5.977271,-12.25,-0.56,-4.34,1729418989064.0,0.0
-4.87418,-6.02752,-5.168497,5.18,-12.95,3.29,1729418989085.0,0.0
-4.63729,-5.326423,-6.046663,53.34,-7.35,11.55,1729418989104.0,0.0
-5.02732,-3.9673,-5.158926,108.290001,-9.17,27.65,1729418989127.0,0.0
-5.481956,-4.800002,-6.003592,99.540001,-19.67,35.0,1729418989144.0,0.0
-5.541777,-6.525227,-6.58744,8.96,-13.79,18.059999,1729418989164.0,0.0
-5.699703,-6.929615,-6.070591,-18.620001,-9.03,7.0,1729418989184.0,0.0
-5.539384,-6.506085,-5.953342,25.41,-9.17,11.83,1729418989205.0,0.0
-5.556134,-5.094319,-6.683154,63.209999,-16.52,17.99,1729418989225.0,0.0
-5.594419,-4.35733,-6.783652,37.170002,-13.58,13.65,1729418989244.0,0.0
-5.740381,-5.898308,-6.463014,-30.309999,-6.79,5.04,1729418989264.0,0.0
-5.503492,-7.01097,-5.690133,-46.759998,-4.48,-6.79,1729418989285.0,0.0
-5.003392,-8.219346,-4.843073,33.529999,-16.379999,5.32,1729418989356.0,0.0
-4.627719,-7.367501,-6.616155,118.370003,-15.68,17.92,1729418989358.0,0.0
-5.685347,-7.580462,-6.017949,147.350006,5.6,21.98,1729418989370.0,0.0
-6.376873,-8.317451,-7.066005,156.309998,26.880001,14.63,1729418989372.0,0.0
-5.647062,-7.79103,-7.336394,191.380005,28.07,13.72,1729418989391.0,0.0
-4.867002,-7.977671,-6.235696,246.540009,25.549999,15.54,1729418989404.0,0.0
-4.816752,-7.377072,-4.474578,249.270004,33.040001,6.86,1729418989425.0,0.0
-5.048856,-6.85783,-3.730411,222.110001,43.400002,2.73,1729418989443.0,0.0
-5.352744,-8.379664,-1.603191,147.910004,31.639999,-1.33,1729418989465.0,0.0
-4.532006,-9.334401,-1.87358,112.699997,14.0,-12.46,1729418989486.0,0.0
-4.383651,-8.91805,-1.37348,16.309999,10.92,-29.469999,1729418989504.0,0.0
-4.649254,-5.02732,-0.437887,-60.27,7.98,-34.16,1729418989524.0,0.0
-6.223732,-6.398407,-1.509871,-80.220001,27.370001,1.47,1729418989544.0,0.0
-5.958128,-5.52742,-3.266203,-150.710007,3.36,-16.59,1729418989565.0,0.0
-4.936393,-5.338387,-4.393222,-177.940002,-7.56,-13.86,1729418989584.0,0.0
-4.680361,-6.123233,-4.572684,-226.240005,-14.21,-6.72,1729418989604.0,0.0
-3.9673,-4.902894,-6.65444,-292.809998,-19.74,-30.52,1729418989631.0,0.0
-5.745167,-6.312266,-4.144369,-287.0,-20.370001,-20.860001,1729418989643.0,0.0
-6.685547,-7.042077,-1.153341,-215.040009,-22.120001,-15.4,1729418989667.0,0.0
-5.785845,-5.941379,-4.115655,-145.740005,-74.410004,-1.96,1729418989685.0,0.0
-5.730811,-3.007778,-6.001199,-135.100006,-90.93,13.02,1729418989704.0,0.0
-6.116055,-1.68694,-10.083356,-136.5,-67.269997,19.950001,1729418989724.0,0.0
-6.65444,-3.481557,-8.190632,-160.020004,-51.170002,29.049999,1729418989744.0,0.0
-6.144768,-3.95055,-9.145369,-180.600006,-33.670002,9.52,1729418989763.0,0.0
-5.929415,-5.625526,-9.379865,-159.669998,-48.580002,4.55,1729418989785.0,0.0
-3.768696,-4.563113,-10.899307,-128.940002,-39.130001,-6.65,1729418989804.0,0.0
-4.242475,-4.26401,-9.06162,-78.330002,-21.210001,6.16,1729418989824.0,0.0
-6.831509,-4.800002,-3.940979,-68.459999,12.53,0.14,1729418989844.0,0.0
-8.288737,-7.042077,-5.178068,-53.689999,-8.47,-9.45,1729418989863.0,0.0
-6.178268,-5.699703,-7.190433,-25.969999,-40.599998,-5.81,1729418989887.0,0.0
-5.046463,-4.012764,-7.963314,-11.55,-31.780001,9.31,1729418989904.0,0.0
-5.082355,-2.964707,-9.334401,16.24,-2.38,12.04,1729418989924.0,0.0
-7.283752,-0.760918,-9.245867,86.449997,25.969999,37.869999,1729418989943.0,0.0
-8.738588,-2.660819,-9.796216,108.779999,24.92,34.439999,1729418989964.0,0.0
-6.51087,-3.110669,-9.561719,38.150002,35.0,10.36,1729418989985.0,0.0
-5.321638,-3.739982,-7.843673,-20.93,42.91,1.12,1729418990036.0,0.0
-5.268995,-6.156733,-8.245667,-17.639999,52.990002,-4.97,1729418990036.0,0.0
-5.048856,-9.889536,-5.173282,20.51,53.200001,-12.74,1729418990125.0,0.0
-5.029713,-3.929015,-6.185446,49.560001,41.790001,-31.219999,1729418990126.0,0.0
-6.460621,-2.878566,-6.369694,39.970001,32.759998,-31.5,1729418990126.0,0.0
-6.26441,-4.292724,-8.506484,35.0,60.760002,-39.689999,1729418990126.0,0.0
-5.67099,-5.431707,-8.592626,53.34,28.07,-17.57,1729418990126.0,0.0
-4.326223,-5.352744,-7.037291,30.870001,37.099998,-38.779999,1729418990143.0,0.0
-4.031906,-4.931608,-7.020542,22.469999,25.41,-42.279999,1729418990163.0,0.0
-4.302295,-3.838088,-6.9344,57.260002,17.92,-30.309999,1729418990182.0,0.0
-5.221139,-4.979464,-5.639884,51.869999,22.960001,-14.0,1729418990204.0,0.0
-4.218546,-3.766303,-7.800602,83.160004,6.16,-14.91,1729418990225.0,0.0
-3.957729,-2.249253,-5.972485,125.580002,-11.48,19.460001,1729418990243.0,0.0
-5.795416,-2.005185,-5.383851,35.630001,14.07,11.76,1729418990264.0,0.0
-5.924629,-2.840281,-8.250452,-61.740002,1.61,-11.06,1729418990284.0,0.0
-4.551149,-4.692325,-9.707682,-67.199997,-24.43,7.49,1729418990303.0,0.0
-3.237489,-5.814559,-8.391629,-18.690001,-17.85,7.84,1729418990325.0,0.0
-4.445865,-5.785845,-6.525227,17.57,11.9,8.61,1729418990343.0,0.0
-5.355137,-5.185246,-7.075576,19.879999,23.379999,-4.62,1729418990363.0,0.0
-5.163712,-4.395615,-8.008778,17.360001,10.92,-3.43,1729418990384.0,0.0
-5.201996,-3.981657,-6.398407,27.02,10.01,16.940001,1729418990403.0,0.0
-5.235496,-4.725825,-5.319244,54.599998,9.59,23.940001,1729418990424.0,0.0
-5.54417,-5.410172,-5.565705,75.32,1.96,26.040001,1729418990443.0,0.0
-6.080163,-5.582455,-6.534799,70.840004,2.03,20.790001,1729418990462.0,0.0
-6.034698,-5.316852,-6.266802,64.959999,8.96,17.01,1729418990483.0,0.0
-5.462814,-5.843273,-6.271588,68.18,3.15,20.370001,1729418990503.0,0.0
-4.871787,-6.762117,-5.996413,71.959999,-1.89,18.48,1729418990524.0,0.0
-4.546363,-7.228717,-5.570491,87.779999,1.33,14.49,1729418990542.0,0.0
-4.421937,-7.381857,-6.142376,123.129997,-0.63,12.6,1729418990562.0,0.0
-4.876573,-7.630712,-6.855437,136.850006,-1.82,14.56,1729418990582.0,0.0
-5.295317,-7.269395,-5.71406,117.18,11.27,9.03,1729418990602.0,0.0
-5.745167,-7.865208,-4.493721,116.480003,23.450001,8.96,1729418990627.0,0.0
-5.529813,-9.348758,-3.893122,159.880005,9.17,11.9,1729418990642.0,0.0
-4.668397,-9.334401,-4.838287,220.919998,-2.94,11.55,1729418990662.0,0.0
-4.907679,-8.099705,-4.321437,284.619995,15.12,14.07,1729418990684.0,0.0
-5.974878,-8.812766,-2.569891,333.410004,23.52,19.389999,1729418990702.0,0.0
-5.936593,-7.771888,-2.007578,347.690002,22.540001,10.85,1729418990724.0,0.0
-5.682954,-8.346166,-0.973879,310.730011,32.060001,5.67,1729418990743.0,0.0
-5.505885,-7.881958,0.22014,253.399994,29.049999,-11.55,1729418990762.0,0.0
-6.276374,-8.611769,1.194018,187.880005,25.83,-16.799999,1729418990782.0,0.0
-5.276174,-9.040084,0.361316,102.129997,4.34,-25.129999,1729418990802.0,0.0
-4.991428,-5.673382,2.586641,22.469999,-4.13,-27.860001,1729418990823.0,0.0
-5.063213,-3.481557,2.443072,-133.559998,-10.36,-29.469999,1729418990842.0,0.0
-5.197211,-2.677568,0.964308,-254.100006,-33.040001,-20.65,1729418990863.0,0.0
-5.484349,-4.496114,-2.85703,-370.720001,-42.349998,-26.67,1729418990896.0,0.0
-4.534399,-5.431707,-6.876972,-467.110016,-41.16,-48.16,1729418990904.0,0.0
-3.866802,-7.594819,-8.102098,-485.799988,-48.580002,-48.439999,1729418990924.0,0.0
-3.677768,-8.274381,-6.843473,-422.869995,-62.93,-41.02,1729418990943.0,0.0
-4.41715,-8.398808,-4.125226,-255.149994,-69.300003,-13.79,1729418990964.0,0.0
-5.091926,-4.275974,-6.273981,-175.350006,-58.450001,-3.85,1729418990983.0,0.0
-5.623133,-2.811567,-7.192825,-125.440002,-69.019997,13.23,1729418991004.0,0.0
-6.565905,-3.708875,-6.932007,-183.75,-76.440002,30.870001,1729418991023.0,0.0
-6.104091,-5.718846,-6.431907,-270.339996,-31.360001,2.45,1729418991043.0,0.0
-5.71406,-7.484749,-7.563712,-229.949997,-41.790001,-7.35,1729418991062.0,0.0
-5.548956,-5.187639,-9.296116,-128.660004,-53.060001,-0.7,1729418991082.0,0.0
-5.249853,-3.546163,-10.059426,-79.309998,-49.560001,12.81,1729418991103.0,0.0
-4.663611,-2.854637,-8.982656,-72.029999,-25.34,18.549999,1729418991124.0,0.0
-4.917251,-3.378666,-9.74836,-72.099998,-9.45,25.27,1729418991142.0,0.0
-6.405586,-4.307081,-6.130411,-74.620003,-1.12,23.030001,1729418991164.0,0.0
-7.192825,-6.666404,-6.60419,-127.120003,-7.7,-12.04,1729418991185.0,0.0
-4.220939,-4.797609,-9.334401,-112.840004,-33.040001,-25.690001,1729418991204.0,0.0
-3.804588,-2.981457,-7.802995,-17.92,-23.17,20.440001,1729418991223.0,0.0
-6.860222,-2.002793,-6.759724,21.35,21.700001,38.009998,1729418991243.0,0.0
-8.415558,-5.448457,-7.338787,3.36,20.16,26.880001,1729418991262.0,0.0
-6.218946,-5.142176,-8.350951,10.57,15.47,13.37,1729418991283.0,0.0
-5.402994,-4.56072,-6.814759,43.049999,7.28,22.960001,1729418991303.0,0.0
-5.611169,-6.190232,-9.707682,22.68,27.65,6.37,1729418991327.0,0.0
-5.008178,-7.733603,-8.805587,18.969999,29.190001,-5.46,1729418991345.0,0.0
-4.402793,-6.78126,-5.761917,55.299999,28.0,-9.94,1729418991363.0,0.0
-4.515256,-4.838287,-5.04407,110.18,1.05,-11.13,1729418991386.0,0.0
-5.221139,-3.359523,-8.508877,157.779999,-4.48,-7.42,1729418991403.0,0.0
-6.563512,-5.304887,-8.700303,187.180008,18.9,6.79,1729418991423.0,0.0
-6.618547,-5.388636,-7.350751,176.119995,39.41,-1.75,1729418991443.0,0.0
-6.269196,-5.812167,-8.425128,203.699997,42.279999,-0.84,1729418991463.0,0.0
-5.515456,-4.689932,-9.152546,275.799988,35.77,-2.24,1729418991483.0,0.0
-5.996413,-8.487342,-9.437292,396.899994,77.980003,9.52,1729418991505.0,0.0
-5.977271,-6.139983,-7.216753,439.110016,121.660004,5.04,1729418991528.0,0.0
-6.563512,-3.620341,-4.197011,427.070007,97.230003,5.46,1729418991543.0,0.0
-5.534599,-4.194618,-4.053442,382.130005,51.73,-4.48,1729418991562.0,0.0
-4.876573,-6.037091,-2.667997,299.25,27.02,-7.91,1729418991583.0,0.0
-5.855237,-8.755339,-1.320838,225.470001,33.950001,-34.369999,1729418991602.0,0.0
-6.262017,-11.114661,-1.182054,211.470001,2.17,-59.990002,1729418991632.0,0.0
-3.318845,-8.484949,-1.842474,271.880005,1.19,-60.830002,1729418991643.0,0.0
-3.366701,-4.56072,1.342373,332.779999,46.970001,-19.389999,1729418991662.0,0.0
-5.149354,-3.065206,4.532006,326.480011,44.73,0.56,1729418991684.0,0.0
-4.929214,-4.759324,4.893322,241.220001,12.95,2.66,1729418991703.0,0.0
-4.130012,-7.412964,2.770889,115.709999,-2.94,-2.73,1729418991725.0,0.0
-4.295116,-8.836694,0.564706,41.580002,0.98,-13.23,1729418991743.0,0.0
-4.838287,-9.056834,-0.026321,39.549999,20.93,-10.92,1729418991763.0,0.0
-5.240282,-7.889136,1.785046,82.110001,37.73,-9.38,1729418991782.0,0.0
-5.570491,-6.74776,3.914658,146.789993,54.389999,1.26,1729418991802.0,0.0
-4.271189,-7.310073,6.352944,156.589996,30.73,-4.9,1729418991824.0,0.0
-2.833102,-3.570091,5.91745,60.619999,9.24,16.030001,1729418991844.0,0.0
-4.685147,-6.06102,1.753939,-40.25,-4.13,16.1,1729418991862.0,0.0
-5.383851,-10.633704,1.823331,-95.199997,-7.56,6.44,1729418991886.0,0.0
-5.180461,-10.8682,2.431108,-89.32,11.34,-6.44,1729418991903.0,0.0
-4.039084,-9.750752,1.859223,-77.559998,19.460001,-0.7,1729418991923.0,0.0
-3.330809,-6.656832,4.462614,-138.110001,7.98,-6.58,1729418991943.0,0.0
-4.682754,-6.865008,3.220739,-196.559998,-8.33,-2.66,1729418991962.0,0.0
-5.197211,-9.200402,1.416551,-247.520004,-35.490002,-8.61,1729418991983.0,0.0
-4.54397,-10.676775,1.234696,-229.110001,-46.48,-9.31,1729418992002.0,0.0
-5.429315,-10.021141,2.806781,-185.710007,-33.599998,-5.53,1729418992026.0,0.0
-5.627919,-6.939186,1.282553,-169.960007,-18.34,-2.8,1729418992042.0,0.0
-5.32403,-6.183054,1.727618,-201.600006,-25.549999,-0.07,1729418992062.0,0.0
-5.039285,-6.522834,-0.789631,-294.279999,-39.970001,-13.58,1729418992083.0,0.0
-5.618347,-7.568498,-2.141576,-377.299988,-43.049999,-27.719999,1729418992102.0,0.0
-5.355137,-9.238688,-3.117848,-379.75,-54.32,-44.170002,1729418992123.0,0.0
-4.347759,-9.128618,-4.249653,-329.420013,-58.939999,-45.080002,1729418992142.0,0.0
-4.826324,-7.829315,-4.496114,-270.619995,-31.99,-40.599998,1729418992162.0,0.0
-4.957928,-8.458629,-4.194618,-229.669998,-20.02,-40.880001,1729418992182.0,0.0
-3.644269,-8.719445,-4.914857,-241.149994,-45.150002,-50.189999,1729418992202.0,0.0
-2.074577,-6.195018,-6.496514,-239.330002,-53.549999,-50.049999,1729418992222.0,0.0
-2.486143,-4.938786,-7.781459,-205.520004,-46.970001,-32.34,1729418992241.0,0.0
-3.400201,-6.460621,-9.083155,-152.460007,-22.190001,-17.85,1729418992261.0,0.0
-4.601398,-8.772088,-7.76471,-68.669998,-3.71,-0.98,1729418992283.0,0.0
-4.187439,-6.501299,-7.372287,28.700001,-11.55,5.95,1729418992303.0,0.0
-3.964907,-3.787838,-5.4341,58.240002,-28.280001,19.040001,1729418992325.0,0.0
-5.075177,-2.641676,-6.632904,9.03,-17.5,19.950001,1729418992342.0,0.0
-5.726025,-4.941179,-9.363115,-17.710001,-4.2,24.219999,1729418992362.0,0.0
-5.953342,-8.331808,-10.037891,35.139999,7.91,38.639999,1729418992382.0,0.0
-5.941379,-7.886744,-7.290931,104.790001,32.689999,37.869999,1729418992402.0,0.0
-5.197211,-4.218546,-4.948357,111.370003,35.349998,15.47,1729418992424.0,0.0
-4.661219,-5.242674,-6.932007,44.73,17.5,2.1,1729418992441.0,0.0
-2.816352,-10.839487,-8.128418,-3.36,17.639999,-3.85,1729418992461.0,0.0
-4.725825,-9.097511,5.144568,-64.610001,30.870001,-17.219999,1729418992482.0,0.0
-3.460021,-6.666404,-4.689932,-74.269997,-2.03,-66.709999,1729418992501.0,0.0
-2.737389,-3.476771,-3.270989,-130.059998,-89.459999,-26.040001,1729418992523.0,0.0
-3.311667,-4.194618,-6.675975,-187.389999,-62.580002,-40.389999,1729418992544.0,0.0
-3.732803,-8.145168,-10.712667,-143.360001,-34.439999,-30.380001,1729418992561.0,0.0
-4.986642,-5.9342,-9.389436,-8.82,-28.700001,-12.88,1729418992582.0,0.0
-5.912664,-4.290331,-10.645668,117.529999,-8.61,-4.34,1729418992604.0,0.0
-6.84108,0.009571,-9.597611,120.540001,-17.219999,12.81,1729418992622.0,0.0
-7.786245,-1.835295,-9.664611,43.75,-5.32,14.14,1729418992641.0,0.0
-7.384251,-5.350351,-9.12144,-33.459999,41.790001,-1.05,1729418992664.0,0.0
-6.424729,-7.587641,-6.577869,-29.049999,46.34,-0.35,1729418992684.0,0.0
-4.890929,-7.67139,-5.426922,6.02,24.92,-0.07,1729418992704.0,0.0
-4.759324,-5.804988,-5.051248,33.880001,15.26,7.63,1729418992726.0,0.0
-4.342973,-5.113462,-6.206983,33.110001,13.23,5.53,1729418992742.0,0.0
-2.806781,-2.431108,-4.409972,-3.43,-0.35,7.35,1729418992761.0,0.0
-2.380858,-4.833502,-5.828916,-44.170002,-21.42,26.74,1729418992782.0,0.0
-2.005185,-6.845865,-6.005985,-96.879997,-8.47,7.98,1729418992803.0,0.0
-2.852244,-6.410372,-7.087541,-80.919998,-4.06,-0.77,1729418992823.0,0.0
-5.192425,-5.469993,-7.525427,-17.43,-4.69,4.9,1729418992842.0,0.0
-5.838487,-6.228518,-6.317052,27.93,0.49,6.3,1729418992862.0,0.0
-5.166104,-5.699703,-6.757331,24.360001,-13.51,3.01,1729418992887.0,0.0
-5.087141,-5.515456,-6.58744,44.869999,-15.33,9.73,1729418992904.0,0.0
-5.283352,-5.063213,-6.855437,53.130001,-13.02,9.24,1729418992922.0,0.0
-5.584848,-4.570292,-7.142576,46.549999,-12.6,13.93,1729418992943.0,0.0
-5.596812,-5.314459,-7.070791,24.360001,-12.39,15.33,1729418992964.0,0.0
-5.388636,-4.960321,-7.410572,0.49,-8.19,7.07,1729418992983.0,0.0
-5.644669,-4.689932,-6.549156,3.43,-2.45,12.53,1729418993002.0,0.0
-5.754738,-5.288138,-5.788238,10.85,-7.42,15.54,1729418993023.0,0.0
-5.596812,-5.572884,-5.903094,2.87,-14.98,7.98,1729418993041.0,0.0
-5.422136,-5.946165,-6.56112,-3.78,-12.11,3.15,1729418993062.0,0.0
-4.852644,-6.07777,-5.845665,-6.93,-13.23,-0.63,1729418993085.0,0.0
-4.639683,-5.455636,-4.788038,-2.1,-11.48,6.79,1729418993104.0,0.0
-5.254639,-6.692725,-6.259624,-8.68,-17.92,5.39,1729418993122.0,0.0
-5.726025,-6.635297,-8.518449,-20.440001,-9.31,-6.79,1729418993143.0,0.0
-6.053841,-5.556134,-7.896315,-3.15,0.56,-2.73,1729418993162.0,0.0
-4.926822,-5.520242,-6.719046,8.19,-9.03,1.61,1729418993182.0,0.0
-4.721039,-5.960521,-7.15454,-12.39,-8.54,-5.04,1729418993202.0,0.0
-4.807181,-5.692525,-7.537392,-31.01,-0.91,-15.47,1729418993222.0,0.0
-4.783253,-6.058627,-8.082954,-37.59,-1.75,-21.98,1729418993242.0,0.0
-4.496114,-5.757132,-7.606783,-38.009998,-0.91,-21.139999,1729418993263.0,0.0
-3.926622,-4.890929,-7.482357,-70.07,-13.440001,-25.690001,1729418993284.0,0.0
-4.371687,-5.752346,-7.903493,-84.349998,-6.86,-34.790001,1729418993302.0,0.0
-6.051448,-6.814759,-8.561519,-58.799999,18.83,-34.09,1729418993323.0,0.0
-7.006185,-6.496514,-7.104291,12.81,37.240002,-30.309999,1729418993342.0,0.0
-7.125826,-6.329016,-8.788837,128.309998,47.32,-16.17,1729418993361.0,0.0
-6.67119,-5.548956,-9.363115,227.290009,40.459999,4.62,1729418993384.0,0.0
-5.735595,-4.706682,-8.444271,224.139999,30.17,-2.59,1729418993402.0,0.0
-5.020142,-3.675375,-6.522834,156.100006,37.73,-20.860001,1729418993423.0,0.0
-5.649454,-3.333202,-5.455636,95.550003,58.380001,-23.66,1729418993444.0,0.0
-6.01077,-3.847659,-2.711068,56.98,52.57,-12.18,1729418993461.0,0.0
-6.166305,-4.924429,-2.490928,-20.51,20.93,-5.67,1729418993482.0,0.0
-4.613362,-7.310073,-9.454042,-107.449997,10.36,-25.48,1729418993502.0,0.0
-3.725625,-8.506484,-5.76431,-58.52,28.42,4.62,1729418993523.0,0.0
-3.570091,-9.827322,-3.761517,-44.59,36.400002,-3.99,1729418993541.0,0.0
-2.471786,-9.016156,-3.141776,-73.290001,20.860001,-34.16,1729418993563.0,0.0
-0.105284,-6.520442,-2.206182,-53.41,-8.33,-46.900002,1729418993582.0,0.0
-0.741775,-6.135197,-4.208975,0.28,-17.5,-17.85,1729418993601.0,0.0
-3.172883,-6.38405,-3.534199,37.869999,3.64,-2.1,1729418993626.0,0.0
-3.26381,-7.647461,-4.871787,27.93,-29.610001,-0.14,1729418993642.0,0.0
-1.629512,-6.812366,-5.254639,6.58,-60.830002,-6.65,1729418993661.0,0.0
-2.213361,-5.663811,-6.922436,-7.0,-68.110001,-8.26,1729418993682.0,0.0
-5.498707,-6.721439,-9.159724,13.79,-46.200001,0.98,1729418993701.0,0.0
-9.159724,-7.104291,-13.526627,52.709999,5.6,4.2,1729418993724.0,0.0
-11.523834,-5.369494,-13.694124,95.129997,47.18,8.33,1729418993743.0,0.0
-8.84148,-4.158726,-9.040084,106.959999,36.330002,15.75,1729418993761.0,0.0
-4.838287,-4.673182,-7.700103,44.59,6.93,1.68,1729418993782.0,0.0
-3.402594,-6.865008,-9.839286,15.82,47.810001,-7.0,1729418993808.0,0.0
-2.964707,-6.707082,-6.407979,57.049999,84.489998,-0.7,1729418993823.0,0.0
-3.122634,-6.84108,1.993221,89.529999,87.779999,12.6,1729418993844.0,0.0
-0.818345,-7.051648,2.63689,-5.74,12.25,-3.57,1729418993864.0,0.0
0.619741,-8.312666,-1.213161,-62.439999,-31.780001,-4.83,1729418993885.0,0.0
-2.019542,-7.877172,-1.849652,-93.379997,-25.9,-5.32,1729418993902.0,0.0
-4.192225,-8.269595,-3.65384,-72.800003,-35.139999,-4.97,1729418993926.0,0.0
-4.256832,-7.171289,-5.749953,-66.639999,-73.639999,0.49,1729418993943.0,0.0
-4.431508,-6.240481,-8.60459,-63.209999,-77.419998,-2.52,1729418993962.0,0.0
-6.082555,-6.374479,-10.552348,-59.990002,-46.200001,8.47,1729418993984.0,0.0
-8.075776,-5.867201,-10.049855,-25.83,0.77,6.93,1729418994005.0,0.0
-9.298509,-6.032306,-11.397014,44.869999,21.07,17.219999,1729418994024.0,0.0
-6.908078,-6.139983,-9.006584,33.950001,12.6,12.25,1729418994045.0,0.0
-4.56072,-5.331209,-6.867401,-43.610001,5.6,-12.25,1729418994062.0,0.0
-3.9338,-3.622734,-7.542177,-97.160004,31.360001,-21.84,1729418994084.0,0.0
-3.388237,-4.948357,-7.814958,-76.93,37.310001,-2.45,1729418994105.0,0.0
-2.56032,-6.9009,-6.704689,-60.34,42.630001,17.219999,1729418994125.0,0.0
-1.993221,-8.243275,-2.505285,-41.23,39.759998,14.49,1729418994142.0,0.0
-2.37368,-8.360522,-1.555335,-34.23,6.72,2.17,1729418994163.0,0.0
-2.275574,-7.616355,-4.515256,-20.58,-21.42,-15.12,1729418994184.0,0.0
-3.608376,-5.938986,-5.386244,-6.3,-26.67,-15.89,1729418994204.0,0.0
-3.689733,-5.017749,-6.271588,-15.190001,-35.98,-9.45,1729418994227.0,0.0
-3.136991,-5.503492,-6.273981,-28.35,-54.25,-1.05,1729418994243.0,0.0
-4.354938,-4.905287,-6.285945,-18.41,-59.5,2.24,1729418994264.0,0.0
-5.529813,-4.878965,-8.997013,-3.71,-62.650002,8.68,1729418994285.0,0.0
-5.821737,-4.847858,-9.734003,-1.61,-57.540001,8.82,1729418994364.0,0.0
-6.762117,-5.436492,-9.585647,7.28,-23.799999,3.01,1729418994365.0,0.0
-8.449057,-5.278566,-10.286745,44.73,8.54,0.28,1729418994365.0,0.0
-9.650253,-6.522834,-10.526026,63.139999,25.83,1.4,1729418994369.0,0.0
-7.834101,-6.005985,-7.927422,22.120001,42.209999,-19.809999,1729418994385.0,0.0
-4.646862,-5.091926,-8.628519,17.01,34.16,-30.030001,1729418994404.0,0.0
-3.328416,-5.979663,-8.872586,81.059998,36.400002,-10.15,1729418994424.0,0.0
-4.35733,-6.618547,-7.302894,84.489998,85.82,-6.16,1729418994444.0,0.0
-3.330809,-6.69751,-4.725825,70.419998,81.620003,-8.26,1729418994464.0,0.0
-2.067399,-7.79103,0.509671,61.670002,56.91,-4.55,1729418994484.0,0.0
-0.937986,-8.185846,0.0335,56.420002,20.02,-17.92,1729418994504.0,0.0
-1.081556,-5.252246,-1.660619,49.77,-14.63,-22.26,1729418994529.0,0.0
-2.266003,-4.256832,-2.9336,10.85,-28.98,-11.06,1729418994544.0,0.0
-2.294717,-7.37468,-5.458029,-55.93,-54.529999,-9.45,1729418994568.0,0.0
-3.649055,-8.85823,-5.71406,-30.380001,-37.66,-4.41,1729418994587.0,0.0
-5.599205,-9.592826,-8.094919,88.690002,-33.599998,18.690001,1729418994604.0,0.0
-7.176075,-6.850651,-7.130611,130.690002,-19.25,25.9,1729418994625.0,0.0
-7.838887,-5.379066,-8.195417,98.980003,13.3,19.74,1729418994643.0,0.0
-7.334002,-5.793024,-6.463014,64.959999,19.950001,20.02,1729418994663.0,0.0
-5.931807,-7.496714,-4.034299,61.110001,13.37,21.629999,1729418994684.0,0.0
-4.919643,-10.537991,-2.45025,91.489998,9.1,22.82,1729418994704.0,0.0
-3.84048,-9.308081,-4.125226,108.5,17.15,7.14,1729418994725.0,0.0
-3.462414,-8.202596,-3.024528,122.779999,25.200001,1.19,1729418994743.0,0.0
-3.022135,-6.379266,-3.98405,91.980003,6.86,1.33,1729418994764.0,0.0
-3.797409,-5.699703,-4.783253,-45.57,15.26,-8.19,1729418994784.0,0.0
-3.61077,-3.017349,-3.407379,-122.5,-7.21,-0.7,1729418994804.0,0.0
-2.782853,-4.173083,-4.505685,-173.25,-54.040001,5.95,1729418994826.0,0.0
-3.964907,-8.673983,-5.99402,-220.430008,-64.260002,-0.49,1729418994844.0,0.0
-5.302495,-8.908479,-7.76471,-218.470001,-18.27,-26.32,1729418994865.0,0.0
-5.828916,-5.252246,-8.329416,-138.740005,-22.540001,-20.23,1729418994888.0,0.0
-5.577669,-5.682954,-5.848059,-106.540001,-55.720001,4.97,1729418994905.0,0.0
-5.304887,-6.525227,-6.592227,-155.259995,-48.16,-13.02,1729418994925.0,0.0
-5.288138,-4.570292,-9.049655,-162.539993,-31.15,-25.41,1729418994945.0,0.0
-5.331209,-4.089334,-9.410972,-132.509995,-40.459999,-2.73,1729418994965.0,0.0
-4.338188,-3.828516,-8.65484,-83.019997,-32.130001,10.64,1729418994994.0,0.0
-4.259224,-3.189633,-8.128418,-72.870003,-17.780001,26.460001,1729418995004.0,0.0
-5.694918,-6.69751,-4.981857,-101.639999,1.96,13.72,1729418995025.0,0.0
-4.766503,-6.348158,-7.515855,-132.649994,3.71,-23.24,1729418995045.0,0.0
-4.113262,-5.556134,-8.020741,-88.830002,-20.299999,-10.01,1729418995065.0,0.0
-3.498307,-4.960321,-8.341379,-59.709999,-18.690001,-5.18,1729418995085.0,0.0
-4.704289,-4.520042,-7.963314,-29.26,5.81,-0.84,1729418995103.0,0.0
-5.515456,-3.881158,-6.685547,-15.47,5.39,4.34,1729418995126.0,0.0
-5.254639,-4.41715,-7.202396,-10.92,-4.62,10.22,1729418995143.0,0.0
-4.704289,-4.177868,-8.700303,-5.25,-7.07,17.01,1729418995165.0,0.0
-5.070391,-4.13719,-7.752745,6.44,3.36,21.700001,1729418995184.0,0.0
-6.534799,-2.658426,-5.233103,3.36,20.719999,25.34,1729418995204.0,0.0
-7.515855,-2.28036,-7.88435,47.670002,11.06,38.57,1729418995227.0,0.0
-6.84108,-4.393222,-9.308081,97.580002,5.6,52.57,1729418995245.0,0.0
-5.74756,-5.505885,-7.066005,38.43,29.889999,40.389999,1729418995264.0,0.0
-5.273781,-5.929415,-7.88435,6.02,33.740002,13.93,1729418995283.0,0.0
-5.058427,-8.449057,-6.936793,6.65,15.61,4.55,1729418995304.0,0.0
-4.445865,-6.975078,-5.869594,-3.57,13.02,-7.0,1729418995325.0,0.0
-4.297509,-6.508478,-7.898707,6.3,-19.6,-9.38,1729418995343.0,0.0
-4.338188,-6.180661,-8.360522,1.26,-7.7,-19.74,1729418995365.0,0.0
-4.240082,-5.723632,-8.166703,1.26,4.76,-22.4,1729418995383.0,0.0
-4.134798,-4.441079,-6.482157,15.54,2.17,-14.7,1729418995404.0,0.0
-4.74736,-3.120241,-6.699903,32.34,7.0,-4.76,1729418995426.0,0.0
-5.503492,-5.809773,-6.577869,68.18,6.79,5.67,1729418995445.0,0.0
-5.003392,-6.398407,-7.082755,82.809998,0.98,4.41,1729418995464.0,0.0
-5.185246,-6.039484,-7.554141,106.120003,-7.28,8.26,1729418995484.0,0.0
-5.793024,-3.888337,-7.783852,136.990005,8.75,9.17,1729418995503.0,0.0
-6.369694,-3.424129,-7.298109,178.149994,16.309999,21.91,1729418995524.0,0.0
-5.833702,-5.761917,-9.413363,211.330002,19.67,27.65,1729418995545.0,0.0
-5.45085,-9.004191,-9.162118,245.839996,58.310001,16.379999,1729418995564.0,0.0
-5.139783,-7.180861,-7.030113,286.51001,91.419998,6.02,1729418995584.0,0.0
-4.82393,-5.094319,-5.661418,313.320007,52.150002,23.24,1729418995605.0,0.0
-3.620341,-5.446064,-6.317052,280.209991,31.219999,24.43,1729418995631.0,0.0
-3.644269,-6.094519,-6.704689,220.220001,70.699997,9.45,1729418995643.0,0.0
-5.65424,-9.346365,-3.404987,216.369995,97.510002,-10.57,1729418995664.0,0.0
-6.546762,-10.882557,-2.091327,278.809998,39.759998,-23.309999,1729418995684.0,0.0
-4.118048,-8.087741,-3.907479,369.950012,11.55,-9.1,1729418995703.0,0.0
-4.395615,-3.696911,-2.328217,386.329987,79.169998,5.18,1729418995725.0,0.0
-6.924829,-4.725825,1.586441,298.480011,85.75,8.12,1729418995745.0,0.0
-7.412964,-8.276773,2.495714,160.160004,42.0,-19.460001,1729418995763.0,0.0
-3.517449,-9.293723,1.038485,132.300003,-15.33,-22.26,1729418995785.0,0.0
-4.290331,-8.41795,2.907279,141.75,37.310001,-15.12,1729418995804.0,0.0
-6.108876,-6.273981,2.254039,105.489998,50.959999,-7.28,1729418995824.0,0.0
-5.69731,-8.709875,1.519442,26.460001,14.07,-17.290001,1729418995850.0,0.0
-4.244867,-10.253245,0.691526,-17.710001,-30.309999,-33.810001,1729418995862.0,0.0
-3.833302,-11.988041,4.883751,29.469999,-22.26,-24.5,1729418995887.0,0.0
-1.639083,-7.858029,2.481357,66.5,-15.4,-29.610001,1729418995906.0,0.0
0.440279,-3.436093,-0.650848,78.470001,3.99,-12.25,1729418995926.0,0.0
-0.40678,-2.689533,0.758525,20.23,26.880001,16.030001,1729418995944.0,0.0
-3.058028,-6.742974,2.306681,-75.459999,28.07,30.66,1729418995963.0,0.0
-4.778467,-10.844273,1.524228,-133.910004,10.01,28.630001,1729418995985.0,0.0
-4.898108,-11.600404,-0.217747,-140.490005,-6.44,24.08,1729418996005.0,0.0
-4.682754,-10.037891,0.165105,-108.5,-1.12,19.110001,1729418996026.0,0.0
-5.075177,-9.678967,1.172483,-94.57,5.6,17.290001,1729418996043.0,0.0
-6.352944,-9.336794,2.624927,-169.889999,6.3,-3.29,1729418996066.0,0.0
-7.21436,-8.863015,1.952543,-296.380005,-45.43,-47.459999,1729418996087.0,0.0
-6.233303,-9.521042,0.002393,-323.399994,-85.120003,-68.669998,1729418996104.0,0.0
-5.266603,-8.84148,-2.589034,-283.290009,-84.349998,-75.040001,1729418996126.0,0.0
-5.371887,-7.539784,-2.395216,-234.290009,-35.98,-72.099998,1729418996144.0,0.0
-5.651847,-3.491128,-1.624727,-263.200012,-22.33,-78.050003,1729418996165.0,0.0
-5.402994,-4.189832,-3.806981,-319.76001,-58.869999,-63.77,1729418996185.0,0.0
-2.940779,-7.032506,-7.716853,-359.940002,-97.860001,-58.66,1729418996207.0,0.0
-2.447858,-11.877973,-7.9681,-304.01001,-90.510002,-45.360001,1729418996226.0,0.0
-3.366701,-11.145767,-5.783452,-235.339996,-33.459999,-52.080002,1729418996243.0,0.0
-3.790231,-9.420543,-6.329016,-101.080002,-15.33,-49.91,1729418996265.0,0.0
-2.629712,-6.360123,-7.317252,-27.65,-51.170002,-33.529999,1729418996285.0,0.0
-1.636691,-5.096712,-6.163911,-18.41,-51.380001,-21.280001,1729418996305.0,0.0
-1.801795,-4.472186,-5.623133,-54.599998,-34.16,-8.82,1729418996326.0,0.0
-3.206382,-4.036692,-6.056234,-113.400002,-21.77,-7.21,1729418996345.0,0.0
-4.082155,-4.737789,-7.63789,-143.919998,-29.75,-2.87,1729418996366.0,0.0
-3.792624,-3.359523,-6.879365,-128.240005,-35.91,5.6,1729418996387.0,0.0
-3.976871,-0.72024,-9.348758,-123.830002,-40.740002,22.889999,1729418996405.0,0.0
-5.103891,-4.421937,-8.305488,-140.279999,-20.299999,36.68,1729418996426.0,0.0
-5.833702,-8.245667,-8.738588,-153.509995,-5.53,10.5,1729418996446.0,0.0
-5.510671,-6.82433,-7.283752,-81.900002,-20.02,2.59,1729418996465.0,0.0
-4.173083,-5.355137,-6.668797,-11.83,-48.16,11.62,1729418996486.0,0.0
-3.785445,-3.902694,-8.817552,17.15,-47.950001,17.01,1729418996506.0,0.0
-4.9675,-4.158726,-10.679168,40.529999,-21.07,27.51,1729418996526.0,0.0
-6.252446,-4.63729,-10.394422,68.110001,3.36,41.09,1729418996545.0,0.0
-6.664011,-4.938786,-8.690732,72.379997,36.889999,34.650002,1729418996570.0,0.0
-4.962714,-4.962714,-7.89153,68.599998,30.380001,25.200001,1729418996585.0,0.0
-2.888137,-6.02752,-9.906286,40.25,5.39,18.48,1729418996605.0,0.0
-2.045863,-8.652447,-9.473185,29.120001,23.17,1.89,1729418996626.0,0.0
-2.239682,-5.474778,-6.558727,38.990002,65.379997,-20.93,1729418996645.0,0.0
-4.168297,-8.130811,-5.869594,125.230003,67.269997,-9.45,1729418996664.0,0.0
-5.039285,-3.555735,-4.790431,147.0,32.130001,-16.450001,1729418996687.0,0.0
-4.589434,-3.565305,-6.51087,72.940002,-11.06,-12.88,1729418996705.0,0.0
-2.548356,-4.589434,-5.85763,-59.150002,-28.139999,-28.559999,1729418996729.0,0.0
-2.859423,-5.948557,-5.352744,-103.040001,-14.77,-30.17,1729418996747.0,0.0
-3.61077,-6.075377,-7.819745,-76.090004,-32.41,-35.77,1729418996766.0,0.0
-3.756732,-1.459622,-7.125826,-20.299999,-42.98,-29.469999,1729418996785.0,0.0
-5.67099,-2.825923,-11.423335,2.45,-10.5,8.75,1729418996807.0,0.0
-5.733203,-3.627519,-10.904092,0.7,10.36,9.52,1729418996826.0,0.0
-5.953342,-4.505685,-7.881958,28.42,32.34,26.18,1729418996844.0,0.0
-5.912664,-5.855237,-7.60439,36.470001,12.04,17.85,1729418996866.0,0.0
-4.429115,-6.965507,-8.049455,15.33,2.03,-0.28,1729418996888.0,0.0
-3.938586,-6.329016,-6.783652,13.23,11.06,1.54,1729418996905.0,0.0
-4.326223,-4.84068,-6.096912,44.029999,15.68,2.31,1729418996928.0,0.0
-5.168497,-5.04407,-6.163911,95.059998,23.030001,20.58,1729418996946.0,0.0
-5.479564,-5.032106,-5.008178,93.309998,13.37,31.780001,1729418996965.0,0.0
-5.149354,-4.728218,-5.28096,51.799999,3.29,24.01,1729418996986.0,0.0
-5.022535,-5.096712,-5.931807,31.85,4.97,18.9,1729418997005.0,0.0
-4.45065,-6.592227,-5.869594,16.59,-0.14,17.219999,1729418997030.0,0.0
-4.158726,-7.372287,-5.417351,25.48,-9.38,9.66,1729418997047.0,0.0
-4.599005,-5.678168,-6.051448,53.130001,-0.98,5.46,1729418997065.0,0.0
-5.300103,-5.891129,-7.161718,61.18,-7.28,12.74,1729418997085.0,0.0
-4.84068,-6.075377,-6.704689,15.68,-10.15,6.09,1729418997105.0,0.0
-4.139583,-6.89133,-6.190232,-37.380001,-15.61,-2.24,1729418997136.0,0.0
-3.598805,-6.63769,-6.226124,-56.560001,-17.710001,-13.23,1729418997145.0,0.0
-4.218546,-6.209375,-6.441479,-27.16,-13.440001,-7.7,1729418997166.0,0.0
-5.099105,-6.470192,-7.362715,-1.4,-10.5,-2.38,1729418997184.0,0.0
-5.371887,-6.819544,-6.91765,-8.05,-11.27,-5.11,1729418997207.0,0.0
-5.314459,-6.183054,-4.56072,-27.370001,-12.74,-8.68,1729418997227.0,0.0
-5.087141,-5.927022,-5.161318,-32.549999,-24.92,-11.62,1729418997246.0,0.0
-4.642076,-5.529813,-5.785845,-39.34,-38.290001,-11.9,1729418997264.0,0.0
-4.567898,-5.364708,-6.742974,-55.580002,-29.26,-9.24,1729418997286.0,0.0
-5.111069,-6.063413,-7.802995,-69.160004,-19.809999,-9.45,1729418997305.0,0.0
-5.395815,-6.163911,-7.594819,-72.449997,-13.37,-13.72,1729418997326.0,0.0
-4.677969,-5.118248,-7.580462,-60.34,-19.74,-15.61,1729418997344.0,0.0
-4.168297,-4.165904,-7.740781,-34.16,-24.639999,-5.67,1729418997364.0,0.0
-4.658825,-5.453243,-8.238488,-50.68,-15.33,4.13,1729418997387.0,0.0
-4.579862,-7.834101,-10.109675,-95.760002,-8.82,-16.66,1729418997406.0,0.0
-4.62054,-9.040084,-10.4016,-75.110001,6.58,-37.799999,1729418997425.0,0.0
-5.304887,-6.597012,-9.370294,18.9,35.560001,-33.880001,1729418997444.0,0.0
-5.651847,-5.855237,-8.961121,138.320007,47.040001,-13.09,1729418997464.0,0.0
-5.623133,-3.998406,-8.362915,194.949997,35.279999,2.52,1729418997486.0,0.0
-5.675776,-3.775874,-9.367901,169.190002,52.849998,-0.77,1729418997504.0,0.0
-5.225924,-2.239682,-6.58744,78.330002,71.889999,-12.11,1729418997528.0,0.0
-4.9675,-5.328816,-4.783253,36.610001,56.420002,-4.62,1729418997545.0,0.0
-3.586841,-5.481956,-4.59422,-21.77,39.830002,-19.67,1729418997564.0,0.0
-3.505485,-7.350751,-4.244867,-31.15,53.689999,-13.02,1729418997585.0,0.0
-2.835495,-8.193025,-3.125026,25.969999,32.48,-5.74,1729418997605.0,0.0
-3.055635,-7.520642,-1.799403,83.090004,5.6,-3.85,1729418997630.0,0.0
-4.273581,-5.338387,-3.235096,85.120003,-6.02,-6.37,1729418997646.0,0.0
-4.189832,-4.520042,-4.926822,7.63,-30.309999,-3.01,1729418997665.0,0.0
-2.502892,-6.118448,-5.426922,-42.0,-38.5,-4.9,1729418997684.0,0.0
-2.026721,-7.628319,-7.762317,1.61,-52.639999,12.81,1729418997707.0,0.0
-4.177868,-5.577669,-9.75793,10.36,-32.619999,8.26,1729418997727.0,0.0
-6.821937,-5.398208,-10.973484,-15.89,9.24,6.09,1729418997744.0,0.0
-9.049655,-7.628319,-10.738988,-4.83,51.59,12.25,1729418997766.0,0.0
-7.922636,-8.640482,-8.310273,37.170002,49.490002,9.1,1729418997786.0,0.0
-4.388437,-5.314459,-7.460821,41.369999,21.35,-15.05,1729418997804.0,0.0
-2.938386,-4.890929,-7.956135,41.299999,28.700001,-8.4,1729418997825.0,0.0
-2.818745,-6.496514,-6.690332,11.9,55.09,-8.54,1729418997844.0,0.0
-3.400201,-7.470392,-2.132005,3.5,70.489998,-1.89,1729418997866.0,0.0
-3.211168,-8.740981,1.241875,25.34,38.920002,2.94,1729418997895.0,0.0
-2.230111,-8.427521,-0.246461,31.290001,-3.29,-6.86,1729418997906.0,0.0
-2.900101,-5.879165,-1.981257,19.110001,-31.43,-11.06,1729418997926.0,0.0
-3.314059,-7.372287,-4.723432,-7.49,-37.170002,-5.11,1729418997946.0,0.0
-2.428715,-8.561519,-5.682954,-8.47,-50.540001,-0.35,1729418997965.0,0.0
-2.830709,-7.84128,-5.876772,25.83,-50.259998,7.14,1729418997986.0,0.0
-4.319045,-6.484549,-8.147561,32.970001,-47.950001,14.84,1729418998005.0,0.0
-5.836094,-6.625726,-9.470792,-1.82,-26.460001,15.82,1729418998025.0,0.0
-7.606783,-7.06122,-10.253245,-20.51,21.35,7.28,1729418998045.0,0.0
-6.360123,-7.467999,-8.539984,14.14,25.48,4.69,1729418998064.0,0.0
-4.457829,-7.52782,-7.661818,29.75,11.48,-7.42,1729418998087.0,0.0
-3.9673,-5.570491,-7.618747,16.1,34.23,-29.469999,1729418998104.0,0.0
-3.613162,-6.125626,-7.566105,10.64,36.049999,-24.57,1729418998126.0,0.0
-3.443272,-7.362715,-6.503692,7.42,39.549999,-18.27,1729418998146.0,0.0
-3.495914,-6.920043,-5.039285,-1.26,51.59,-20.719999,1729418998166.0,0.0
-3.065206,-6.750153,-3.120241,4.48,41.720001,-12.32,1729418998186.0,0.0
-2.366502,-6.541977,-0.947558,23.73,21.210001,-2.66,1729418998206.0,0.0
-2.794817,-6.501299,0.303888,52.080002,6.93,14.07,1729418998225.0,0.0
-4.912465,-6.199803,0.562313,55.790001,-5.67,27.16,1729418998246.0,0.0
-5.682954,-7.613962,-2.28036,48.369999,-20.299999,31.5,1729418998266.0,0.0
-3.84048,-9.506684,-4.003192,94.43,-53.060001,48.720001,1729418998285.0,0.0
-3.192025,-11.454442,-4.31426,170.309998,-55.93,65.239998,1729418998305.0,0.0
-5.13739,-10.602598,-5.369494,184.520004,-12.39,44.59,1729418998325.0,0.0
-5.733203,-8.128418,-6.431907,129.430008,10.64,17.92,1729418998347.0,0.0
-4.35733,-8.772088,-6.580262,59.57,-5.32,16.66,1729418998366.0,0.0
-4.122833,-9.312866,-6.855437,8.05,1.75,-3.08,1729418998385.0,0.0
-4.347759,-8.255238,-6.403193,7.56,31.15,-10.85,1729418998404.0,0.0
-4.292724,-5.888737,-3.711268,-13.72,28.0,-11.55,1729418998426.0,0.0
-3.651447,-3.644269,-4.254438,-93.940002,-8.19,-13.09,1729418998444.0,0.0
-3.349952,-4.012764,-3.936193,-185.990005,-33.810001,-10.01,1729418998466.0,0.0
-3.926622,-6.020342,-3.821337,-290.360016,-32.549999,-25.549999,1729418998485.0,0.0
-4.701896,-8.865408,-6.338587,-284.970001,-35.490002,-43.259998,1729418998504.0,0.0
-4.658825,-8.161918,-6.546762,-230.509995,-32.900002,-33.670002,1729418998527.0,0.0
-4.369294,-6.250053,-5.352744,-154.630005,-40.389999,-18.41,1729418998545.0,0.0
-4.776074,-4.718646,-5.625526,-108.779999,-42.139999,-5.67,1729418998564.0,0.0
-5.285746,-3.864408,-6.087341,-127.610001,-48.860001,-1.89,1729418998584.0,0.0
-4.888536,-4.311867,-10.382458,-192.570007,-55.439999,-9.94,1729418998608.0,0.0
-4.797609,-5.63749,-8.178668,-223.020004,-33.459999,-7.42,1729418998631.0,0.0
-4.694718,-6.364908,-8.051848,-146.789993,-9.45,-11.69,1729418998645.0,0.0
-5.261817,-4.539185,-7.207181,-49.91,-28.559999,11.41,1729418998664.0,0.0
-5.063213,-2.057827,-8.496914,-25.9,-23.66,13.16,1729418998684.0,0.0
-4.443472,-2.943172,-10.863414,-42.139999,-27.719999,23.450001,1729418998704.0,0.0
-4.323831,-3.9673,-9.018548,-83.650002,1.33,19.879999,1729418998728.0,0.0
-4.752146,-3.818945,-7.518249,-66.080002,3.01,21.139999,1729418998745.0,0.0
-5.659025,-4.668397,-5.960521,-49.139999,-1.61,17.99,1729418998765.0,0.0
-6.032306,-6.329016,-5.996413,-72.940002,-9.45,0.07,1729418998784.0,0.0
-4.362115,-6.149554,-9.152546,-89.25,-27.23,-6.86,1729418998804.0,0.0
-3.830909,-4.110869,-8.171489,-47.950001,-19.18,10.71,1729418998826.0,0.0
-6.056234,-4.003192,-7.817351,25.41,8.26,22.33,1729418998844.0,0.0
-7.302894,-4.608576,-9.159724,67.410004,12.11,24.639999,1729418998865.0,0.0
-6.874579,-4.821537,-8.975478,80.010002,12.46,24.01,1729418998887.0,0.0
-5.891129,-4.666004,-9.267403,58.869999,17.01,11.55,1729418998906.0,0.0
-4.307081,-2.385644,-9.090333,26.389999,21.42,4.76,1729418998926.0,0.0
-4.369294,-3.34038,-8.293523,23.1,20.65,16.1,1729418998946.0,0.0
-3.818945,-2.172683,-8.539984,39.830002,15.26,11.2,1729418998965.0,0.0
-4.31426,-4.010371,-7.453642,59.150002,6.65,22.540001,1729418998984.0,0.0
-4.931608,-4.898108,0.160319,33.18,8.12,5.32,1729418999006.0,0.0
-4.697111,-3.431308,-8.449057,65.730003,-34.16,1.82,1729418999025.0,0.0
-6.568298,-6.104091,-7.259824,51.799999,-21.91,11.34,1729418999044.0,0.0
-6.54437,-6.589834,-6.38405,54.529999,10.71,-3.57,1729418999064.0,0.0
-5.575277,-4.87418,-7.369894,116.690002,-7.49,6.44,1729418999084.0,0.0
-5.465207,-5.321638,-10.399208,187.880005,-5.04,12.6,1729418999105.0,0.0
-5.417351,-5.728417,-10.4016,208.25,9.87,12.32,1729418999124.0,0.0
-5.721239,-7.281359,-9.253045,221.899994,53.549999,-2.03,1729418999145.0,0.0
-5.276174,-7.41775,-8.061419,272.860016,87.080002,-14.21,1729418999164.0,0.0
-4.883751,-5.898308,-7.635497,337.890015,78.400002,2.52,1729418999183.0,0.0
-4.431508,-5.190032,-7.001399,355.73999,53.900002,13.51,1729418999204.0,0.0
-4.354938,-5.443672,-5.106283,334.040009,67.620003,11.9,1729418999224.0,0.0
-6.130411,-7.738388,-2.143969,325.920013,68.949997,6.3,1729418999245.0,0.0
-6.91765,-10.255639,-1.931008,355.670013,-3.36,-7.77,1729418999264.0,0.0
-4.900501,-9.559326,-1.540978,395.920013,-35.139999,-13.79,1729418999284.0,0.0
-4.512863,-6.829116,0.397209,404.73999,26.530001,-14.91,1729418999356.0,0.0
-6.374479,-5.991628,0.868595,355.880005,52.990002,-11.69,1729418999357.0,0.0
-7.01097,-6.707082,0.679562,247.100006,4.34,-26.25,1729418999365.0,0.0
-4.199404,-6.534799,0.540778,192.430008,-21.0,-33.459999,1729418999367.0,0.0
-4.185047,-6.599405,4.271189,162.119995,19.879999,-3.15,1729418999390.0,0.0
-4.07737,-7.661818,3.37388,87.080002,-0.21,-18.969999,1729418999405.0,0.0
-3.091527,-8.77448,1.205983,24.290001,-13.79,-27.370001,1729418999425.0,0.0
-3.158526,-9.068797,0.964308,33.880001,2.52,-18.690001,1729418999445.0,0.0
-4.31426,-7.185646,1.569692,70.489998,34.16,-14.14,1729418999463.0,0.0
-5.302495,-5.551349,3.675375,68.809998,43.400002,-13.72,1729418999484.0,0.0
-5.190032,-6.680761,5.182854,29.26,20.370001,-12.81,1729418999504.0,0.0
-3.550949,-7.848458,5.410172,15.05,-1.68,-14.28,1729418999527.0,0.0
-4.180261,-7.575676,7.386643,25.690001,-5.74,-4.76,1729418999543.0,0.0
-4.469792,-6.4343,3.852444,26.530001,-18.83,-0.77,1729418999565.0,0.0
-3.457629,-5.563312,2.787638,4.69,-9.73,6.3,1729418999584.0,0.0
-3.95055,-6.281159,3.531806,-54.25,-10.5,9.66,1729418999603.0,0.0
-5.132604,-9.037691,2.519642,-85.75,-15.89,15.190001,1729418999634.0,0.0
-4.474578,-9.592826,2.380858,-76.720001,-8.47,11.76,1729418999643.0,0.0
-4.118048,-7.946564,2.943172,-94.779999,3.36,11.69,1729418999663.0,0.0
-4.091727,-7.276574,2.644069,-147.279999,-3.29,8.4,1729418999684.0,0.0
-4.331009,-10.229317,1.713261,-186.619995,-21.210001,8.89,1729418999704.0,0.0
-4.189832,-10.442278,0.717847,-175.770004,-19.32,2.24,1729418999724.0,0.0
-4.089334,-10.047462,1.249053,-148.259995,-6.23,3.43,1729418999744.0,0.0
-4.364508,-8.415558,1.887937,-163.169998,-0.07,-1.89,1729418999763.0,0.0
-5.651847,-8.437093,3.562913,-176.259995,-10.22,-4.13,1729418999784.0,0.0
-6.381658,-8.707481,1.416551,-159.180008,-29.75,-7.63,1729418999804.0,0.0
-5.82413,-8.898908,-2.194218,-109.199997,-40.459999,3.57,1729418999825.0,0.0
-6.049056,-8.047063,-1.730011,-108.150002,-23.309999,14.49,1729418999843.0,0.0
-6.9344,-7.829315,0.509671,-148.470001,-20.02,11.13,1729418999863.0,0.0
-5.900701,-8.712267,-2.143969,-185.220001,-40.040001,-2.59,1729418999887.0,0.0
-4.127619,-9.226725,-3.474378,-180.600006,-43.049999,-12.6,1729418999908.0,0.0
-3.591627,-10.10489,-3.098706,-179.479996,-26.950001,-14.98,1729418999931.0,0.0
-3.058028,-9.152546,-2.981457,-195.440002,-21.42,-33.880001,1729418999943.0,0.0
-3.06042,-8.800802,-2.778067,-207.830002,-25.9,-38.5,1729418999964.0,0.0
-2.677568,-10.34178,-2.433501,-197.610001,-42.700001,-47.740002,1729418999984.0,0.0
-2.371287,-10.238889,-2.368894,-169.330002,-36.540001,-48.09,1729419000005.0,0.0
-3.041277,-9.269794,-2.495714,-138.180008,-12.53,-47.529999,1729419000098.0,0.0
-2.675175,-6.853044,-4.575077,-125.300003,-11.27,-48.720001,1729419000100.0,0.0
-2.928815,-6.362515,-5.436492,-118.300003,-19.389999,-31.639999,1729419000100.0,0.0
-3.785445,-5.828916,-6.482157,-130.059998,-6.72,-28.139999,1729419000100.0,0.0
-4.266403,-5.848059,-7.04447,-151.410004,-6.65,-32.619999,1729419000103.0,0.0
-4.182654,-6.752545,-6.910471,-157.080002,-5.95,-30.799999,1729419000125.0,0.0
-4.295116,-6.455836,-7.872386,-111.93,-3.15,-19.389999,1729419000143.0,0.0
-4.788038,-4.776074,-9.410972,-59.990002,7.77,-4.06,1729419000163.0,0.0
-4.893322,-4.237689,-7.630712,-58.099998,13.37,6.23,1729419000183.0,0.0
-4.529613,-6.446264,-6.053841,-80.989998,12.81,2.24,1729419000203.0,0.0
-3.823731,-6.855437,-7.01097,-88.760002,8.61,-5.46,1729419000225.0,0.0
-3.649055,-6.922436,-5.419744,-55.09,8.89,-1.4,1729419000243.0,0.0
-3.275774,-5.759524,-6.733403,-29.889999,4.83,-1.89,1729419000262.0,0.0
-3.646662,-5.828916,-7.520642,-10.85,1.47,10.57,1729419000283.0,0.0
-4.012764,-5.414958,-7.235896,-9.87,18.969999,16.66,1729419000302.0,0.0
-4.048656,-6.54437,-8.135597,7.35,18.620001,24.57,1729419000322.0,0.0
-3.151347,-5.879165,-7.793423,15.190001,4.55,18.48,1729419000342.0,0.0
-3.194418,-5.424529,-8.183454,0.14,4.34,12.04,1729419000361.0,0.0
-3.24706,-6.826723,-8.626125,-18.9,12.32,3.43,1729419000382.0,0.0
-3.120241,-8.669197,-5.584848,52.43,17.5,9.59,1729419000403.0,0.0
-4.378866,-6.23091,-2.790031,80.57,15.05,0.42,1729419000422.0,0.0
-4.613362,-5.716454,-6.056234,24.15,-14.28,-21.629999,1729419000442.0,0.0
-3.751946,-7.025328,-7.01097,-71.050003,-51.380001,-24.780001,1729419000462.0,0.0
-2.136791,-8.303094,-6.76451,-68.599998,-49.279999,-29.26,1729419000482.0,0.0
-1.361516,-6.618547,-8.764909,1.05,-50.75,-21.210001,1729419000502.0,0.0
-2.289931,-6.446264,-6.364908,84.980003,-37.52,-5.53,1729419000523.0,0.0
-4.321437,-1.775474,-8.015956,59.360001,-1.61,-15.05,1729419000542.0,0.0
-6.723832,-2.579463,-8.676375,46.619999,24.780001,3.92,1729419000561.0,0.0
-6.427122,-2.811567,-10.638489,15.82,-5.18,9.87,1729419000582.0,0.0
-5.910272,-5.836094,-11.511869,9.45,-7.21,15.61,1729419000602.0,0.0
-5.17089,-7.896315,-9.147761,9.03,30.52,4.55,1729419000622.0,0.0
-5.393422,-7.104291,-4.718646,35.349998,49.700001,-10.92,1729419000646.0,0.0
-5.625526,-4.603791,-4.462614,101.150002,25.34,-3.01,1729419000661.0,0.0
-4.701896,-7.195218,-6.745367,157.009995,-10.64,20.16,1729419000682.0,0.0
-2.254039,-6.994221,-6.74776,78.330002,-20.790001,11.97,1729419000703.0,0.0
-2.194218,-7.195218,-4.596612,29.190001,14.7,3.99,1729419000723.0,0.0
-3.096312,-7.542177,-3.60359,52.849998,22.33,8.19,1729419000742.0,0.0
-2.438286,-7.999206,-4.649254,62.93,-4.62,7.84,1729419000762.0,0.0
-1.672583,-7.156933,-3.57727,35.209999,-12.67,-1.33,1729419000783.0,0.0
-2.770889,-6.283553,-4.237689,26.809999,-3.92,0.63,1729419000804.0,0.0
-4.273581,-6.640083,-5.335995,12.25,-13.23,8.26,1729419000824.0,0.0
-4.455436,-7.312466,-6.130411,-5.11,-19.32,5.81,1729419000844.0,0.0
-4.034299,-7.936993,-6.56112,-20.440001,-26.880001,0.07,1729419000862.0,0.0
-4.039084,-7.386643,-5.383851,0.14,-17.43,-1.26,1729419000886.0,0.0
-4.182654,-6.281159,-6.537192,16.1,-21.559999,6.3,1729419000902.0,0.0
-5.151747,-6.541977,-7.070791,0.49,-12.53,14.0,1729419000925.0,0.0
-6.661618,-8.240881,-6.932007,-15.75,14.14,6.93,1729419000942.0,0.0
-6.991827,-9.044869,-6.084948,-11.2,21.139999,-1.89,1729419000965.0,0.0
-4.895715,-7.752745,-6.45105,10.85,-3.15,-3.99,1729419000982.0,0.0
-3.52702,-5.632704,-6.352944,27.860001,-1.19,0.14,1729419001004.0,0.0
-3.9673,-5.17089,-6.029913,18.34,25.969999,7.0,1729419001045.0,0.0
-5.115855,-6.642475,-6.987042,-6.58,39.549999,11.2,1729419001051.0,0.0
-4.438686,-8.152347,-6.601797,-36.82,26.25,0.77,1729419001067.0,0.0
-2.139183,-8.102098,-5.781059,-25.690001,5.6,-4.06,1729419001087.0,0.0
-1.182054,-7.101898,-2.538785,-7.21,10.22,-0.77,1729419001102.0,0.0
-2.395216,-7.872386,-0.904487,-9.8,22.68,-2.94,1729419001133.0,0.0
-3.270989,-7.936993,-3.538985,-33.389999,-5.81,-17.360001,1729419001178.0,0.0
-4.199404,-8.087741,-5.905487,-32.34,-15.47,-19.6,1729419001178.0,0.0
-4.529613,-6.908078,-5.54417,-15.26,-2.66,-15.68,1729419001243.0,0.0
-3.364309,-6.819544,-5.414958,-5.74,-30.52,-4.9,1729419001244.0,0.0
-2.132005,-6.245267,-5.345565,-30.870001,-53.060001,-5.53,1729419001244.0,0.0
-2.371287,-5.838487,-5.367101,-74.410004,-51.029999,-9.03,1729419001244.0,0.0
-3.316452,-6.202196,-6.65444,-111.860001,-50.75,-10.92,1729419001261.0,0.0
-4.546363,-6.580262,-7.834101,-107.940002,-37.099998,-4.41,1729419001283.0,0.0
-6.238089,-6.367301,-8.645268,-68.040001,-25.27,2.8,1729419001302.0,0.0
-6.946364,-5.900701,-8.91805,-36.82,-16.799999,5.18,1729419001325.0,0.0
-6.407979,-4.656433,-7.65464,-38.009998,-17.639999,4.62,1729419001343.0,0.0
-5.749953,-4.816752,-6.786045,-55.369999,-14.28,-0.21,1729419001363.0,0.0
-5.386244,-5.431707,-8.29113,-73.010002,-12.67,-6.58,1729419001383.0,0.0
-4.888536,-5.62074,-7.673782,-74.410004,0.7,-11.13,1729419001402.0,0.0
-4.354938,-6.802795,-7.776673,-56.490002,3.15,-10.99,1729419001425.0,0.0
-4.613362,-5.613562,-5.321638,-48.439999,10.71,-11.62,1729419001444.0,0.0
-4.754539,-4.352544,-6.003592,-29.82,11.34,-9.59,1729419001461.0,0.0
-4.228118,-3.976871,-6.465407,-31.15,8.05,-2.1,1729419001485.0,0.0
-3.940979,-3.931407,-6.833901,-58.170002,3.99,0.77,1729419001504.0,0.0
-3.737589,-5.525027,-8.367701,-72.940002,3.92,1.26,1729419001525.0,0.0
-3.65384,-5.9677,-7.944171,-66.639999,9.31,-1.12,1729419001543.0,0.0
-3.806981,-6.54437,-8.784052,-18.41,5.32,-3.43,1729419001561.0,0.0
-4.345366,-5.340781,-8.269595,10.92,5.46,-7.56,1729419001582.0,0.0
-4.68754,-3.254239,-7.9681,17.43,6.16,-10.99,1729419001602.0,0.0
-4.862216,-2.792424,-6.67119,-2.31,-0.35,-3.08,1729419001623.0,0.0
-4.4339,-4.855037,-6.733403,-16.73,-3.22,-4.41,1729419001641.0,0.0
-4.575077,-5.149354,-6.608976,12.11,-4.9,2.73,1729419001664.0,0.0
-4.82393,-4.082155,-7.73121,45.920002,-12.04,8.61,1729419001685.0,0.0
-4.855037,-3.605984,-7.496714,29.960001,-7.84,10.15,1729419001703.0,0.0
-4.642076,-4.85743,-7.819745,0.14,-5.95,12.32,1729419001724.0,0.0
-4.476971,-5.546563,-8.874979,22.469999,-8.96,18.059999,1729419001742.0,0.0
-4.697111,-4.292724,-7.889136,36.259998,0.63,16.379999,1729419001762.0,0.0
-5.101498,-4.455436,-7.412964,36.889999,4.9,16.52,1729419001783.0,0.0
-4.826324,-5.146961,-8.353344,17.43,-2.87,12.74,1729419001802.0,0.0
-4.242475,-4.828716,-7.960921,-5.81,-4.97,11.55,1729419001825.0,0.0
-4.429115,-4.74736,-7.140182,-10.85,-1.96,11.76,1729419001845.0,0.0
-4.608576,-4.785645,-7.726424,-13.79,0.63,8.82,1729419001862.0,0.0
-4.589434,-4.833502,-7.166504,-14.84,-4.27,10.5,1729419001885.0,0.0
-4.704289,-4.029513,-7.226324,-25.969999,-10.22,6.3,1729419001903.0,0.0
-5.235496,-3.859623,-7.180861,-49.84,-8.4,6.44,1729419001925.0,0.0
-5.309673,-3.806981,-7.759924,-73.779999,-10.5,2.73,1729419001942.0,0.0
-4.898108,-5.661418,-8.683553,-84.419998,-13.65,-1.75,1729419001962.0,0.0
-4.474578,-4.577469,-8.796017,-97.580002,-14.98,-14.77,1729419001982.0,0.0
-4.941179,-2.524428,-8.23131,-102.059998,-11.34,-20.719999,1729419002002.0,0.0
-5.407779,-2.813959,-7.673782,-102.480003,-11.13,-21.0,1729419002023.0,0.0
-4.73061,-3.814159,-7.858029,-85.190002,-16.450001,-14.84,1729419002041.0,0.0
-5.15414,-3.304488,-8.750552,-39.970001,-23.799999,-2.31,1729419002061.0,0.0
-5.338387,-3.383451,-8.88455,-60.830002,-2.24,-6.09,1729419002082.0,0.0
-4.520042,-2.663212,-8.441878,-48.23,-3.29,-0.35,1729419002101.0,0.0
-4.110869,-1.40698,-8.085347,-6.16,-8.82,16.309999,1729419002121.0,0.0
-5.443672,-1.887937,-6.762117,-10.85,0.28,19.389999,1729419002141.0,0.0
-6.180661,-3.09392,-7.530212,-42.279999,3.22,7.98,1729419002160.0,0.0
-5.539384,-5.259424,-8.51127,-35.0,-7.14,3.92,1729419002180.0,0.0
-5.362316,-5.192425,-8.563912,1.68,1.89,1.05,1729419002202.0,0.0
-5.84088,-4.809574,-9.432507,47.670002,16.030001,2.87,1729419002221.0,0.0
-5.395815,-4.551149,-9.018548,72.099998,23.940001,6.93,1729419002241.0,0.0
-4.287938,-3.464807,-9.188439,80.989998,25.27,8.19,1729419002261.0,0.0
-3.917051,-3.775874,-8.51127,73.639999,22.68,6.72,1729419002281.0,0.0
-4.23051,-5.02732,-9.202796,72.940002,25.34,-5.11,1729419002301.0,0.0
-4.673182,-4.065405,-8.219346,85.82,33.32,-10.78,1729419002323.0,0.0
-4.283153,-2.237289,-8.013563,83.650002,21.280001,-9.31,1729419002341.0,0.0
-4.168297,-2.194218,-7.733603,48.93,15.96,-0.35,1729419002361.0,0.0
-4.278367,-5.718846,-8.123632,48.93,21.139999,-8.96,1729419002382.0,0.0
-3.115455,-3.213561,-5.936593,-59.639999,6.86,-38.639999,1729419002403.0,0.0
-5.448457,-3.945765,-5.111069,-56.490002,7.84,-30.380001,1729419002424.0,0.0
-6.022735,-4.555934,-8.394022,-30.309999,2.17,-34.93,1729419002443.0,0.0
-5.041678,-3.737589,-9.298509,35.279999,-18.9,-7.63,1729419002461.0,0.0
-4.4339,-2.957529,-10.214959,85.260002,-15.33,14.84,1729419002483.0,0.0
-4.151547,-2.445465,-8.427521,98.139999,8.54,31.360001,1729419002502.0,0.0
-4.682754,-4.733003,-8.003991,96.879997,22.82,42.630001,1729419002522.0,0.0
-4.395615,-6.108876,-9.887143,119.419998,29.049999,35.420002,1729419002543.0,0.0
-4.512863,-6.156733,-8.41795,194.320007,25.969999,34.23,1729419002562.0,0.0
-5.197211,-4.412365,-5.410172,214.970001,44.450001,25.129999,1729419002582.0,0.0
-4.697111,-6.903293,-6.611369,210.979996,46.549999,18.969999,1729419002603.0,0.0
-3.737589,-9.631111,-8.477771,232.889999,57.049999,16.52,1729419002628.0,0.0
-3.029313,-9.343972,-7.683353,297.779999,77.139999,13.3,1729419002646.0,0.0
-3.799802,-8.008778,-5.094319,359.380005,102.059998,20.370001,1729419002662.0,0.0
-4.591826,-6.762117,-6.072984,397.600006,108.989998,20.93,1729419002684.0,0.0
-5.005785,-6.393622,-7.238289,387.450012,90.440002,30.309999,1729419002703.0,0.0
-5.541777,-7.077969,-4.249653,326.619995,87.360001,22.469999,1729419002722.0,0.0
-5.292924,-9.293723,-3.225525,319.200012,38.220001,-12.67,1729419002742.0,0.0
-3.876373,-8.733803,-1.691726,378.350006,30.450001,-4.97,1729419002761.0,0.0
-4.737789,-5.979663,2.132005,394.029999,64.540001,3.29,1729419002782.0,0.0
-6.130411,-7.377072,2.646462,345.730011,40.950001,-11.13,1729419002802.0,0.0
-5.091926,-7.513463,1.397408,275.029999,-17.08,-27.51,1729419002823.0,0.0
-2.299503,-6.221339,1.404587,293.299988,-8.47,-5.39,1729419002841.0,0.0
-2.897708,-5.149354,4.134798,290.5,41.720001,6.79,1729419002861.0,0.0
-5.319244,-5.955735,3.842873,147.070007,27.65,-7.35,1729419002885.0,0.0
-4.37408,-8.178668,3.905087,48.650002,-4.34,-25.969999,1729419002902.0,0.0
-2.756532,-7.525427,3.474378,64.190002,6.44,-15.190001,1729419002926.0,0.0
-3.668197,-5.9342,4.677969,114.169998,33.110001,-3.22,1729419002942.0,0.0
-4.998606,-6.573084,7.331609,121.590004,36.470001,-3.57,1729419002962.0,0.0
-4.366901,-8.10449,8.941978,69.370003,12.39,-16.17,1729419002983.0,0.0
-2.270789,-4.41715,7.290931,28.630001,0.77,-19.67,1729419003002.0,0.0
-2.251646,-2.48375,6.003592,3.71,1.54,1.61,1729419003023.0,0.0
-3.146562,-4.474578,5.096712,-52.57,-6.16,9.8,1729419003041.0,0.0
-4.022335,-9.949356,4.800002,-89.040001,-11.97,8.68,1729419003061.0,0.0
-2.9671,-11.990433,5.257031,-103.949997,-17.15,-5.11,1729419003084.0,0.0
-2.287539,-9.98525,4.371687,-130.690002,-23.379999,-15.12,1729419003105.0,0.0
-2.069792,-7.683353,3.835695,-136.990005,-32.900002,-6.79,1729419003124.0,0.0
-2.885744,-7.563712,3.381058,-168.419998,-44.869999,7.07,1729419003141.0,0.0
-4.388437,-8.748159,3.125026,-216.089996,-54.389999,4.41,1729419003162.0,0.0
-5.630312,-8.930015,2.840281,-249.410004,-57.049999,-1.4,1729419003181.0,0.0
-5.905487,-8.073383,3.249453,-256.76001,-59.010002,-4.9,1729419003202.0,0.0
-4.285545,-6.436693,2.68714,-255.080002,-55.02,-2.31,1729419003223.0,0.0
-3.469593,-6.407979,2.505285,-271.390015,-43.889999,-8.54,1729419003243.0,0.0
-5.000999,-7.623533,1.792224,-329.980011,-29.82,-10.5,1729419003261.0,0.0
-6.06102,-8.425128,0.973879,-381.01001,-35.630001,-23.799999,1729419003283.0,0.0
-5.383851,-8.669197,-1.899901,-367.779999,-58.66,-33.740002,1729419003302.0,0.0
-4.381258,-9.97807,-4.051049,-323.470001,-55.439999,-34.09,1729419003322.0,0.0
-3.945765,-9.923036,-2.928815,-289.799988,-40.25,-41.93,1729419003342.0,0.0
-3.713661,-9.276974,-2.981457,-224.419998,-31.08,-36.540001,1729419003365.0,0.0
-2.955136,-9.461221,-5.809773,-175.839996,-31.15,-28.98,1729419003382.0,0.0
-1.974079,-3.335595,-8.063812,-206.710007,-49.490002,-41.650002,1729419003405.0,0.0
-2.368894,-3.23031,-9.169296,-225.190002,-39.970001,-16.379999,1729419003422.0,0.0
-2.069792,-5.663811,-10.430314,-229.949997,-17.85,-6.93,1729419003441.0,0.0
-2.431108,-9.710074,-7.539784,-170.240005,5.32,5.11,1729419003461.0,0.0
-3.424129,-10.695917,-5.163712,-96.25,14.98,-7.98,1729419003483.0,0.0
-3.261417,-7.001399,-4.273581,-61.389999,-18.549999,-27.719999,1729419003501.0,0.0
-1.844866,-5.125426,-6.075377,-53.27,-66.290001,-24.08,1729419003523.0,0.0
-1.533799,-3.464807,-8.427521,-77.629997,-59.5,-10.08,1729419003541.0,0.0
-3.445665,-4.369294,-9.260223,-65.730003,-19.879999,8.26,1729419003561.0,0.0
-5.558527,-6.003592,-8.336594,-42.700001,13.65,23.379999,1729419003584.0,0.0
-4.87418,-7.585248,-9.705289,-22.469999,4.97,16.030001,1729419003601.0,0.0
-2.713461,-8.4347,-10.336994,30.940001,-20.860001,6.93,1729419003624.0,0.0
-1.641476,-6.85783,-9.662218,83.720001,-13.440001,7.49,1729419003641.0,0.0
-2.081756,-6.448657,-7.606783,80.639999,14.21,3.15,1729419003660.0,0.0
-2.924029,-4.398008,-6.34098,6.86,43.68,-14.21,1729419003682.0,0.0
-3.65384,-5.599205,-6.723832,-37.799999,27.16,-20.09,1729419003701.0,0.0
-3.113062,-7.922636,-7.965706,-42.700001,-0.07,-19.32,1729419003722.0,0.0
-0.62692,-9.659825,-9.24108,11.27,-6.44,-19.6,1729419003742.0,0.0
-2.237289,-5.639884,0.634098,117.599998,28.07,-3.64,1729419003761.0,0.0
-5.091926,-4.553542,-5.022535,73.010002,58.099998,-31.57,1729419003781.0,0.0
-4.711468,-5.225924,-4.759324,-42.91,-45.920002,-28.07,1729419003802.0,0.0
-2.773281,-7.360322,-7.343572,-125.370003,-61.670002,-30.17,1729419003824.0,0.0
-0.842274,-7.118648,-11.416157,-88.269997,-70.629997,-33.040001,1729419003842.0,0.0
-1.141376,-2.612962,-8.001599,37.799999,-44.450001,-2.94,1729419003862.0,0.0
-4.924429,-1.064806,-11.095518,63.490002,27.860001,19.6,1729419003884.0,0.0
-6.357729,-1.957329,-9.645468,36.049999,47.880001,16.450001,1729419003902.0,0.0
-6.072984,-4.4674,-8.489735,13.23,20.299999,29.960001,1729419003922.0,0.0
-4.362115,-4.965107,-7.314859,-6.3,3.64,28.91,1729419003943.0,0.0
-3.184847,-6.209375,-6.589834,-3.78,-10.85,24.08,1729419003961.0,0.0
-3.318845,-6.776474,-6.668797,14.98,4.76,22.33,1729419003981.0,0.0
-4.388437,-5.852845,-6.936793,40.110001,16.24,21.42,1729419004003.0,0.0
-5.321638,-5.828916,-7.140182,36.119999,18.27,26.74,1729419004023.0,0.0
-4.639683,-8.094919,-7.484749,25.690001,9.03,21.629999,1729419004040.0,0.0
-3.555735,-8.51127,-6.139983,45.009998,5.53,11.06,1729419004061.0,0.0
-3.117848,-6.431907,-6.829116,122.080002,-5.6,7.0,1729419004081.0,0.0
-3.337988,-5.175675,-6.419943,121.590004,-6.86,8.54,1729419004102.0,0.0
-3.699304,-5.123034,-5.977271,63.490002,7.21,5.25,1729419004121.0,0.0
-3.826123,-7.298109,-5.525027,12.11,6.58,2.73,1729419004141.0,0.0
-3.165704,-8.769694,-5.704489,12.11,-6.79,-5.95,1729419004160.0,0.0
-2.70389,-8.420342,-5.225924,37.869999,-16.309999,-8.54,1729419004181.0,0.0
-3.199204,-7.223931,-6.580262,96.110001,-8.12,-0.42,1729419004202.0,0.0
-3.84048,-8.513663,-5.369494,175.839996,-1.82,8.47,1729419004222.0,0.0
-4.012764,-9.21476,-4.192225,217.490005,0.28,13.3,1729419004242.0,0.0
-3.617948,-9.059227,-5.402994,239.540009,-9.52,10.08,1729419004260.0,0.0
-3.529413,-8.315059,-4.945964,232.540009,5.04,14.35,1729419004281.0,0.0
-4.055835,-6.908078,-2.242075,199.779999,31.360001,12.67,1729419004362.0,0.0
-5.161318,-9.499505,-1.734797,199.149994,20.299999,17.290001,1729419004367.0,0.0
-5.230711,-11.143374,-2.143969,225.820007,4.06,13.440001,1729419004372.0,0.0
-3.972085,-10.717452,-1.87358,265.440002,11.27,2.38,1729419004373.0,0.0
-3.393023,-7.941778,-0.854238,281.959991,31.99,7.49,1729419004382.0,0.0
-4.68754,-8.169096,1.323231,241.5,45.709999,6.58,1729419004401.0,0.0
-5.06082,-10.38485,1.706082,135.240005,3.85,-14.14,1729419004424.0,0.0
-4.173083,-10.461421,2.691926,111.93,-8.12,-21.35,1729419004440.0,0.0
-3.120241,-9.260223,2.734996,89.599998,-0.63,-29.4,1729419004460.0,0.0
-2.414358,-8.288737,1.883151,20.299999,-3.99,-32.900002,1729419004481.0,0.0
-2.380858,-7.855636,2.804388,-63.420002,-16.73,-29.68,1729419004501.0,0.0
-3.407379,-7.372287,3.850052,-120.68,-31.290001,-28.559999,1729419004521.0,0.0
-3.498307,-6.388836,0.5001,-119.419998,-41.23,-23.309999,1729419004541.0,0.0
-2.63689,-8.193025,-0.636491,-107.800003,-20.58,-11.76,1729419004562.0,0.0
-2.533999,-5.510671,0.270389,-185.990005,1.68,-18.969999,1729419004581.0,0.0
-3.292524,-6.257231,-1.071985,-242.759995,-8.61,-6.02,1729419004602.0,0.0
-3.95055,-8.190632,-1.445265,-287.910004,-25.200001,-2.73,1729419004622.0,0.0
-3.601198,-9.399008,-3.711268,-286.929993,-41.860001,-12.39,1729419004640.0,0.0
-3.022135,-9.762716,-5.391029,-250.25,-39.830002,-5.6,1729419004660.0,0.0
-3.242275,-8.867801,-6.668797,-233.869995,-28.77,-9.94,1729419004681.0,0.0
-2.648855,-6.618547,-7.080362,-167.930008,-23.450001,-0.14,1729419004701.0,0.0
-3.328416,-7.223931,-5.393422,-104.019997,-5.46,31.85,1729419004722.0,0.0
-4.709075,-9.298509,-3.76391,-109.550003,0.84,18.969999,1729419004740.0,0.0
-4.256832,-7.551748,-7.094719,-121.309998,-9.94,-2.31,1729419004760.0,0.0
-4.13719,-5.462814,-6.06102,-132.580002,-32.200001,6.86,1729419004781.0,0.0
-4.113262,-6.374479,-3.404987,-135.800003,-33.110001,10.99,1729419004800.0,0.0
-4.522435,-7.786245,-5.422136,-112.559998,-34.720001,13.79,1729419004822.0,0.0
-4.780859,-6.589834,-6.290731,-90.300003,-29.049999,11.69,1729419004841.0,0.0
-4.706682,-5.087141,-6.754939,-105.349998,-37.099998,16.030001,1729419004860.0,0.0
-3.952943,-4.508078,-7.666604,-142.589996,-41.299999,16.52,1729419004884.0,0.0
-3.976871,-4.878965,-7.446464,-158.550003,-32.34,20.23,1729419004908.0,0.0
-4.228118,-5.213961,-8.68116,-151.619995,-29.960001,17.92,1729419004923.0,0.0
-4.13719,-4.41715,-9.221939,-142.520004,-26.880001,21.91,1729419004940.0,0.0
-4.275974,-3.9338,-9.736395,-135.589996,-12.88,25.969999,1729419004961.0,0.0
-5.836094,-5.931807,-6.994221,-140.910004,5.39,22.610001,1729419004981.0,0.0
-6.202196,-8.140383,-8.752945,-170.240005,4.83,-5.74,1729419005000.0,0.0
-4.156333,-7.412964,-9.403792,-148.960007,-20.299999,-19.25,1729419005021.0,0.0
-3.062813,-5.15414,-8.350951,-88.480003,-14.7,-6.44,1729419005041.0,0.0
-4.268795,-4.393222,-9.142976,-31.15,10.01,4.69,1729419005060.0,0.0
-6.094519,-3.677768,-8.796017,3.08,33.599998,19.32,1729419005081.0,0.0
-5.04407,-4.969893,-8.743374,31.92,20.09,29.190001,1729419005100.0,0.0
-3.826123,-5.245068,-7.688138,55.16,24.360001,24.92,1729419005121.0,0.0
-3.54377,-3.828516,-7.673782,57.400002,14.49,19.32,1729419005142.0,0.0
-3.945765,-4.455436,-8.578269,25.83,22.68,8.89,1729419005160.0,0.0
-4.175476,-6.197411,-9.339187,23.379999,23.940001,-1.61,1729419005182.0,0.0
-4.347759,-6.920043,-6.73101,50.259998,21.210001,-7.07,1729419005201.0,0.0
-3.845266,-4.627719,-5.460421,53.549999,2.38,-23.1,1729419005221.0,0.0
-3.383451,-3.677768,-5.769095,62.510002,-21.210001,-18.27,1729419005241.0,0.0
-3.893122,-3.572484,-7.771888,75.669998,-11.55,-7.63,1729419005260.0,0.0
-4.852644,-4.65404,-8.645268,101.989998,6.16,3.08,1729419005282.0,0.0
-5.163712,-4.59422,-7.338787,117.459999,13.58,9.17,1729419005300.0,0.0
-4.87418,-4.642076,-6.652047,127.82,11.34,15.26,1729419005322.0,0.0
-4.663611,-6.376873,-8.276773,129.289993,1.82,10.92,1729419005340.0,0.0
-4.742575,-7.436893,-9.360723,148.889999,22.469999,-0.49,1729419005360.0,0.0
-5.352744,-7.51107,-9.296116,184.100006,44.939999,2.17,1729419005382.0,0.0
-5.084748,-7.89153,-7.702496,223.089996,62.93,2.17,1729419005400.0,0.0
-4.362115,-7.970492,-7.130611,274.679993,65.169998,8.4,1729419005422.0,0.0
-4.110869,-6.678369,-7.104291,311.149994,56.279999,7.35,1729419005440.0,0.0
-4.615755,-6.750153,-4.146761,290.779999,82.529999,-0.14,1729419005460.0,0.0
-5.024928,-8.135597,-3.036492,260.119995,80.5,-7.42,1729419005480.0,0.0
-4.266403,-9.379865,-4.089334,272.299988,37.66,-16.379999,1729419005500.0,0.0
-3.883551,-9.79143,-3.352344,296.100006,30.17,-12.18,1729419005522.0,0.0
-3.237489,-10.427922,-2.63689,316.820007,51.869999,-22.68,1729419005540.0,0.0
-2.591427,-6.568298,-1.89033,317.23999,81.059998,-35.0,1729419005560.0,0.0
-3.914658,-8.12124,1.0002,305.690002,95.129997,-8.96,1729419005580.0,0.0
-4.208975,-7.518249,3.629912,252.630005,69.440002,-37.66,1729419005600.0,0.0
-3.649055,-4.275974,3.524628,236.809998,52.639999,-23.450001,1729419005631.0,0.0
-4.146761,-5.364708,4.646862,193.410004,34.790001,6.44,1729419005641.0,0.0
-3.275774,-7.508677,2.782853,90.510002,-2.31,-20.719999,1729419005660.0,0.0
-2.665605,-9.509077,0.921237,55.790001,-9.73,-26.040001,1729419005682.0,0.0
-2.715853,-10.040283,1.85683,89.669998,6.51,-12.74,1729419005701.0,0.0
-1.545763,-7.922636,2.502892,145.740005,19.530001,-10.71,1729419005720.0,0.0
-1.328017,-5.989235,3.412165,185.009995,26.74,7.77,1729419005740.0,0.0
-2.438286,-3.553342,4.197011,146.649994,37.170002,32.970001,1729419005760.0,0.0
-3.65384,-5.647062,5.819345,47.810001,30.73,38.990002,1729419005780.0,0.0
-4.465007,-9.523434,5.718846,-77.699997,3.43,22.960001,1729419005801.0,0.0
-4.089334,-11.246266,4.106083,-142.240005,-19.110001,9.31,1729419005821.0,0.0
-2.830709,-10.083356,3.304488,-128.869995,-22.4,5.04,1729419005840.0,0.0
-2.541178,-8.405986,3.316452,-100.519997,-15.05,5.11,1729419005860.0,0.0
-2.718246,-6.953543,3.041277,-110.459999,-14.28,7.49,1729419005884.0,0.0
-2.981457,-8.054241,3.696911,-146.509995,-24.15,15.47,1729419005900.0,0.0
-4.532006,-9.812965,3.541377,-200.830002,-39.900002,13.79,1729419005923.0,0.0
-5.924629,-10.839487,3.326023,-220.639999,-53.41,5.67,1729419005939.0,0.0
-5.630312,-9.834501,2.679961,-216.860001,-61.040001,-5.95,1729419005959.0,0.0
-4.723432,-7.99442,2.689533,-226.589996,-61.459999,-10.29,1729419005981.0,0.0
-3.917051,-7.668997,1.234696,-262.5,-63.0,-16.73,1729419006000.0,0.0
-4.307081,-8.283953,-0.418744,-331.519989,-58.310001,-24.219999,1729419006020.0,0.0
-4.405186,-8.889337,-1.722832,-394.100006,-57.889999,-40.529999,1729419006043.0,0.0
-4.185047,-8.221739,-2.79721,-424.339996,-65.870003,-60.200001,1729419006060.0,0.0
-4.512863,-8.496914,-4.208975,-414.959991,-59.290001,-65.449997,1729419006080.0,0.0
-2.78046,-8.30788,-4.622933,-314.649994,-55.650002,-56.349998,1729419006100.0,0.0
-2.440679,-7.819745,-5.051248,-250.600006,-40.880001,-44.029999,1729419006121.0,0.0
-2.536392,-5.460421,-7.185646,-218.680008,-37.52,-40.810001,1729419006139.0,0.0
-2.378466,-4.055835,-7.099504,-222.389999,-54.740002,-28.84,1729419006160.0,0.0
-1.849652,-3.35713,-9.523434,-241.5,-63.98,-14.28,1729419006179.0,0.0
-1.945365,-4.551149,-9.360723,-225.259995,-40.389999,9.17,1729419006200.0,0.0
-3.069991,-6.221339,-7.496714,-167.580002,-13.79,23.24,1729419006221.0,0.0
-3.87398,-5.469993,-7.252645,-117.459999,-31.780001,24.01,1729419006240.0,0.0
-3.706482,-3.771089,-9.245867,-100.029999,-52.639999,26.6,1729419006260.0,0.0
-3.668197,-3.515057,-10.502099,-101.779999,-37.380001,29.75,1729419006280.0,0.0
-3.869194,-5.690133,-10.303494,-46.830002,-7.0,38.220001,1729419006300.0,0.0
-4.235296,-6.73101,-8.831908,36.540001,-0.77,49.560001,1729419006321.0,0.0
-4.61097,-5.120641,-7.989635,59.849998,0.7,34.439999,1729419006340.0,0.0
-4.429115,-4.005585,-7.688138,11.9,0.42,27.65,1729419006360.0,0.0
-3.122634,-5.850451,-6.324231,-28.77,-17.57,19.530001,1729419006380.0,0.0
-2.790031,-7.74796,-7.834101,-33.18,-33.529999,12.25,1729419006400.0,0.0
-3.584448,-6.893722,-9.276974,-0.07,-27.790001,-2.45,1729419006421.0,0.0
-4.237689,-6.443871,-9.360723,97.720001,-6.65,-4.41,1729419006439.0,0.0
-4.328616,-5.414958,-8.614161,128.169998,0.28,4.55,1729419006460.0,0.0
-4.412365,-4.907679,-9.114261,143.850006,6.44,6.16,1729419006480.0,0.0
-4.364508,-5.12782,-9.915856,174.930008,14.35,8.61,1729419006500.0,0.0
-4.591826,-6.941578,-8.84148,218.259995,27.58,15.96,1729419006521.0,0.0
-4.304688,-9.320045,-10.188639,269.709991,47.950001,7.56,1729419006540.0,0.0
-3.783052,-10.339387,-9.049655,380.309998,87.779999,3.64,1729419006559.0,0.0
-3.754339,-8.549555,-11.550155,525.559998,118.090004,22.889999,1729419006580.0,0.0
-4.022335,-4.73061,-8.822337,629.299988,104.650002,35.91,1729419006600.0,0.0
-4.890929,-5.62074,-5.084748,598.780029,96.18,44.66,1729419006620.0,0.0
-4.87418,-7.992027,-1.974079,493.360016,69.160004,-5.6,1729419006641.0,0.0
-3.567699,-7.329216,2.85703,448.910004,25.76,-47.459999,1729419006659.0,0.0
-2.912065,-3.639483,3.866802,432.459991,52.990002,-21.700001,1729419006680.0,0.0
-4.548756,-2.206182,5.809773,387.660004,55.720001,-8.05,1729419006700.0,0.0
-3.914658,-2.74696,5.285746,279.019989,8.68,-2.87,1729419006720.0,0.0
-4.074977,-8.391629,4.029513,169.119995,1.96,0.42,1729419006740.0,0.0
-3.720839,-11.56451,3.914658,112.279999,7.84,-38.009998,1729419006759.0,0.0
-2.904887,-7.886744,4.173083,152.740005,40.810001,-30.52,1729419006780.0,0.0
-2.900101,-3.414558,5.414958,145.600006,52.990002,-29.33,1729419006799.0,0.0
-3.105884,-1.631905,3.704089,86.379997,43.540001,-15.54,1729419006820.0,0.0
-3.28056,-4.058227,3.720839,-1.82,36.959999,-5.53,1729419006839.0,0.0
-3.847659,-7.484749,4.744967,-73.709999,27.51,-7.21,1729419006859.0,0.0
-4.182654,-9.540184,4.079762,-114.660004,21.84,-8.47,1729419006884.0,0.0
-3.469593,-10.181459,3.041277,-161.070007,8.61,-17.99,1729419006900.0,0.0
-2.141576,-9.250652,2.11047,-197.889999,-9.59,-15.4,1729419006920.0,0.0
-2.287539,-8.719445,3.0006,-215.529999,-30.66,3.5,1729419006947.0,0.0
-3.235096,-8.930015,2.591427,-238.979996,-55.720001,12.53,1729419006959.0,0.0
-4.579862,-11.193624,2.567499,-288.26001,-79.169998,-0.35,1729419006982.0,0.0
-6.080163,-11.25823,2.438286,-366.100006,-95.129997,-36.610001,1729419007000.0,0.0
-5.350351,-9.753145,1.660619,-394.940002,-112.279999,-51.869999,1729419007022.0,0.0
-4.24726,-7.116255,1.605584,-412.160004,-119.559998,-56.91,1729419007040.0,0.0
-5.592027,-6.867401,2.955136,-404.179993,-124.459999,-58.450001,1729419007060.0,0.0
-4.414758,-7.89153,-3.773481,-420.209991,-99.190002,-76.230003,1729419007080.0,0.0
-2.732604,-6.941578,-4.816752,-442.119995,-102.550003,-80.639999,1729419007100.0,0.0
-1.964507,-8.769694,-3.979264,-362.390015,-70.279999,-54.810001,1729419007121.0,0.0
-1.823331,-8.066205,-7.104291,-280.350006,-46.759998,-37.380001,1729419007140.0,0.0
-1.354338,-6.719046,-8.11167,-222.110001,-35.630001,-27.93,1729419007160.0,0.0
-1.033699,-7.200003,-8.985049,-173.600006,-34.580002,-14.42,1729419007182.0,0.0
-1.380659,-7.539784,-7.68096,-128.729996,-21.77,2.31,1729419007201.0,0.0
-2.043471,-6.783652,-4.354938,-103.879997,-4.13,5.74,1729419007221.0,0.0
-2.160719,-5.553742,-6.364908,-94.779999,-30.799999,4.2,1729419007243.0,0.0
-1.375873,-4.108476,-9.994821,-79.239998,-53.689999,9.87,1729419007260.0,0.0
-2.718246,-5.65424,-12.040684,-18.27,-21.49,31.710001,1729419007281.0,0.0
-5.02732,-6.343372,-10.037891,45.639999,33.670002,44.029999,1729419007301.0,0.0
-5.948557,-8.149954,-9.226725,67.760002,40.32,32.41,1729419007321.0,0.0
-3.761517,-6.472585,-7.996813,20.58,7.77,6.51,1729419007340.0,0.0
-1.799403,-6.051448,-6.946364,-4.55,-0.63,-0.49,1729419007360.0,0.0
-1.502693,-8.803195,-9.119047,13.440001,3.01,1.54,1729419007380.0,0.0
-0.993021,-8.346166,-4.063013,126.699997,14.42,7.21,1729419007403.0,0.0
-3.299703,-4.419543,-0.629312,101.639999,50.75,-7.0,1729419007425.0,0.0
-4.579862,-4.871787,-3.316452,16.1,-8.82,-23.030001,1729419007442.0,0.0
-2.39043,-6.21416,-6.716653,-83.510002,-81.129997,-28.630001,1729419007462.0,0.0
0.200997,-4.445865,-8.365308,-86.449997,-100.169998,-24.92,1729419007483.0,0.0
-0.528814,-2.591427,-8.987441,-4.83,-67.410004,2.17,1729419007501.0,0.0
-3.661019,-2.160719,-9.238688,16.870001,-21.559999,17.43,1729419007524.0,0.0
-6.283553,-2.725425,-8.535198,-28.559999,-9.45,15.75,1729419007543.0,0.0
-9.525827,-4.21376,-12.014362,-102.480003,-9.1,9.66,1729419007561.0,0.0
-8.181061,-9.119047,-13.282558,-89.739998,11.69,-17.43,1729419007584.0,0.0
-4.936393,-5.446064,-9.789038,-29.33,10.43,-25.059999,1729419007602.0,0.0
-3.929015,-2.665605,-8.178668,81.269997,10.64,-5.88,1729419007626.0,0.0
-5.115855,-4.431508,-9.090333,63.349998,31.99,-11.27,1729419007641.0,0.0
-7.063612,-6.455836,-7.128219,43.189999,88.970001,-33.599998,1729419007665.0,0.0
-5.563312,-8.82473,-7.204789,117.25,79.730003,-12.11,1729419007682.0,0.0
-2.218147,-5.082355,-6.029913,153.789993,22.68,-7.28,1729419007703.0,0.0
-0.112463,-5.481956,-2.976671,103.25,27.719999,5.53,1729419007725.0,0.0
0.947558,-6.879365,-0.122034,8.47,35.420002,2.31,1729419007741.0,0.0
0.622134,-8.609376,0.598206,-25.200001,9.03,1.68,1729419007762.0,0.0
-0.808774,-7.704889,-2.419144,-31.710001,-34.860001,4.83,1729419007785.0,0.0
-2.371287,-6.271588,-4.240082,-62.299999,-45.080002,0.42,1729419007803.0,0.0
-2.435893,-6.63769,-3.498307,-98.279999,-70.489998,-0.56,1729419007823.0,0.0
-3.538985,-8.30788,-5.687739,-89.040001,-83.510002,-2.1,1729419007842.0,0.0
-5.273781,-7.712067,-11.715261,-62.02,-89.669998,-6.58,1729419007861.0,0.0
-5.178068,-6.640083,-16.79283,-29.120001,-60.900002,-20.370001,1729419007887.0,0.0
-7.542177,-5.012963,-14.239687,22.82,35.139999,-9.73,1729419007902.0,0.0
-7.489535,-6.592227,-11.55494,89.809998,45.709999,7.77,1729419007922.0,0.0
-3.692125,-4.907679,-9.810574,61.32,-0.28,-6.65,1729419007941.0,0.0
-1.923829,-3.553342,-9.269794,-5.25,39.759998,-18.41,1729419007963.0,0.0
-2.151148,-5.20439,-6.771688,-36.049999,68.459999,-10.64,1729419007982.0,0.0
-2.057827,-7.836494,-1.229911,-47.670002,69.160004,-7.56,1729419008002.0,0.0
-0.665205,-8.322237,-3.488736,-27.93,39.689999,-24.57,1729419008024.0,0.0
0.631705,-6.259624,-3.735196,11.27,-15.54,-19.32,1729419008041.0,0.0
-1.564906,-5.06082,-3.711268,-3.01,-11.76,-16.52,1729419008061.0,0.0
-3.184847,-6.216553,-5.106283,-64.610001,-11.9,-17.99,1729419008083.0,0.0
-1.435694,-7.235896,-6.721439,-68.110001,-54.389999,-16.309999,1729419008103.0,0.0
-1.26341,-6.91765,-6.812366,-12.11,-62.860001,-2.31,1729419008123.0,0.0
-4.122833,-6.132804,-7.228717,-22.4,-45.220001,-5.81,1729419008142.0,0.0
-5.938986,-4.130012,-8.271988,-84.349998,-29.540001,-18.27,1729419008162.0,0.0
-5.278566,-3.632305,-8.779266,-108.080002,-44.240002,-5.81,1729419008182.0,0.0
-4.134798,-4.359723,-9.611969,-92.889999,-53.060001,7.0,1729419008204.0,0.0
-4.54397,-3.931407,-9.45165,-93.449997,-40.740002,6.3,1729419008224.0,0.0
-5.52742,-3.854837,-8.738588,-118.440002,-21.210001,-4.9,1729419008241.0,0.0
-5.666204,-3.883551,-7.925028,-128.589996,-21.07,-13.72,1729419008261.0,0.0
-5.020142,-2.95035,-8.822337,-104.160004,-29.190001,-18.969999,1729419008283.0,0.0
-4.622933,-2.756532,-10.176675,-78.400002,-11.34,-14.77,1729419008301.0,0.0
-4.185047,-3.814159,-9.078369,-38.57,-0.35,-1.54,1729419008322.0,0.0
-2.998207,-3.278167,-9.391829,-7.84,-0.77,2.94,1729419008343.0,0.0
-2.725425,-2.009971,-8.063812,11.48,-9.24,11.06,1729419008362.0,0.0
-3.046063,-2.565106,-9.379865,11.62,-12.18,15.26,1729419008384.0,0.0
-3.089134,-3.876373,-9.769895,22.26,-2.94,26.460001,1729419008402.0,0.0
-3.306881,-4.788038,-8.84148,40.389999,2.31,31.15,1729419008422.0,0.0
-3.955336,-3.428915,-7.482357,41.369999,8.89,26.32,1729419008441.0,0.0
-4.65404,-3.565305,-8.425128,28.49,6.3,24.290001,1729419008462.0,0.0
-4.151547,-3.969693,-7.76471,3.92,-3.36,19.6,1729419008482.0,0.0
-4.271189,-4.73061,-7.317252,1.89,-10.29,18.41,1729419008501.0,0.0
-4.723432,-4.414758,-8.456236,4.97,-9.94,8.26,1729419008522.0,0.0
-4.819145,-4.465007,-7.470392,12.25,-10.15,6.65,1729419008542.0,0.0
-4.500899,-3.199204,-8.583055,2.66,-13.86,6.02,1729419008561.0,0.0
-3.9673,-3.572484,-9.083155,-14.35,-19.74,8.33,1729419008583.0,0.0
-4.491328,-3.524628,-8.274381,-49.98,-11.62,0.49,1729419008602.0,0.0
-4.82393,-3.572484,-8.238488,-65.940002,-9.66,-7.77,1729419008624.0,0.0
-4.261617,-3.306881,-9.152546,-50.610001,-29.190001,-4.2,1729419008641.0,0.0
-3.98405,-2.414358,-8.446664,-49.420002,-23.73,-3.22,1729419008660.0,0.0
-4.651647,-3.68734,-8.102098,-57.260002,-17.360001,1.19,1729419008684.0,0.0
-4.587041,-2.005185,-8.281559,-50.119999,-17.85,0.21,1729419008701.0,0.0
-5.082355,-2.321038,-8.051848,-28.84,-21.700001,11.48,1729419008721.0,0.0
-5.515456,-3.469593,-7.889136,-44.939999,-21.139999,5.67,1729419008742.0,0.0
-4.756931,-2.809174,-9.671788,-53.900002,-26.25,5.11,1729419008760.0,0.0
-4.54397,-2.969493,-10.315458,-34.860001,-20.719999,10.57,1729419008781.0,0.0
-4.943572,-2.840281,-9.702895,-16.309999,-4.48,8.33,1729419008801.0,0.0
-5.266603,-2.775674,-8.46102,-6.72,1.12,6.16,1729419008822.0,0.0
-4.996214,-2.646462,-8.571091,-15.4,-3.01,1.82,1729419008841.0,0.0
-4.704289,-3.098706,-9.75793,-29.33,-3.43,-3.22,1729419008862.0,0.0
-4.041477,-2.648855,-9.032906,-15.96,9.52,-6.37,1729419008884.0,0.0
-5.091926,-2.041078,-7.278966,20.719999,18.27,10.64,1729419008901.0,0.0
-6.343372,-2.854637,-6.573084,9.8,16.870001,0.42,1729419008922.0,0.0
-5.924629,-3.680161,-7.549356,-12.67,11.76,-12.04,1729419008940.0,0.0
-4.814359,-2.847459,-7.987241,37.59,2.94,3.29,1729419008960.0,0.0
-5.228317,-3.550949,-8.973085,86.660004,2.38,14.63,1729419008988.0,0.0
-5.206782,-4.0008,-9.174082,50.68,18.83,-10.92,1729419009004.0,0.0
-5.175675,-4.096512,-8.288737,32.830002,12.6,-18.549999,1729419009023.0,0.0
-5.218746,-3.656233,-8.79123,18.41,3.01,-33.740002,1729419009042.0,0.0
-4.429115,-2.778067,-8.362915,-7.0,2.03,-38.080002,1729419009063.0,0.0
-4.304688,-1.378266,-9.08794,-9.87,-2.52,-24.290001,1729419009082.0,0.0
-4.481757,-2.545963,-9.006584,10.36,1.54,-17.92,1729419009104.0,0.0
-4.838287,-2.069792,-7.585248,-11.13,15.89,-17.710001,1729419009125.0,0.0
-4.101298,-3.337988,-9.738789,-24.85,4.62,-20.02,1729419009144.0,0.0
-3.005385,-4.029513,-10.250853,-12.18,-0.56,-14.28,1729419009162.0,0.0
-2.321038,-3.184847,-8.891729,-17.219999,14.28,-26.25,1729419009182.0,0.0
-3.136991,-0.435494,-6.735795,-59.360001,21.84,-34.650002,1729419009202.0,0.0
-5.580062,-3.328416,-6.865008,-36.889999,18.48,-16.309999,1729419009226.0,0.0
-5.431707,-4.070191,-7.403394,29.75,0.91,-5.67,1729419009254.0,0.0
-3.56052,-2.210968,-8.985049,101.290001,-26.6,8.33,1729419009262.0,0.0
-4.249653,-1.304088,-9.236296,106.610001,-2.45,33.459999,1729419009283.0,0.0
-5.024928,-4.278367,-9.004191,65.309998,23.030001,40.880001,1729419009358.0,0.0
-4.242475,-5.627919,-9.327222,100.239998,17.43,42.490002,1729419009358.0,0.0
-4.271189,-5.656632,-8.209774,192.570007,31.219999,47.880001,1729419009359.0,0.0
-5.010571,-6.568298,-8.288737,269.360016,34.580002,46.830002,1729419009365.0,0.0
-5.271388,-4.12044,-7.267002,254.380005,42.07,30.66,1729419009393.0,0.0
-4.941179,-6.687939,-9.035298,249.410004,58.939999,29.26,1729419009404.0,0.0
-3.878766,-8.705089,-8.817552,303.940002,80.849998,19.74,1729419009424.0,0.0
-3.878766,-7.936993,-6.388836,377.299988,100.449997,26.040001,1729419009443.0,0.0
-4.347759,-7.293324,-5.769095,412.369995,96.529999,31.219999,1729419009465.0,0.0
-4.431508,-5.513064,-6.278766,389.130005,85.190002,23.940001,1729419009484.0,0.0
-4.469792,-5.883951,-5.65424,337.399994,87.360001,23.450001,1729419009505.0,0.0
-5.290531,-7.506285,-2.476572,293.720001,73.639999,14.84,1729419009527.0,0.0
-5.4006,-11.057234,-0.55992,330.890015,16.030001,-5.39,1729419009543.0,0.0
-3.314059,-9.480364,0.009571,394.450012,7.7,-23.24,1729419009566.0,0.0
-4.015156,-4.850252,1.485943,446.179993,56.139999,-9.94,1729419009584.0,0.0
-6.429514,-6.276374,4.13719,379.049988,50.119999,4.2,1729419009604.0,0.0
-5.843273,-6.400801,3.134598,255.290009,9.45,-18.41,1729419009634.0,0.0
-3.682554,-7.977671,3.242275,207.619995,5.25,-20.860001,1729419009643.0,0.0
-4.13719,-8.334201,2.239682,158.759995,28.77,-26.6,1729419009665.0,0.0
-3.859623,-7.941778,3.108276,113.050003,29.190001,-35.700001,1729419009683.0,0.0
-2.840281,-7.779066,5.783452,92.889999,28.210001,-29.960001,1729419009708.0,0.0
-2.251646,-4.575077,5.63749,88.900002,35.700001,-24.57,1729419009727.0,0.0
-2.962314,-5.692525,6.082555,37.170002,29.75,-13.93,1729419009743.0,0.0
-2.600998,-5.996413,5.541777,-56.0,2.66,-24.85,1729419009764.0,0.0
-2.455036,-7.819745,4.015156,-89.739998,-2.66,-4.2,1729419009784.0,0.0
-2.306681,-9.370294,3.924229,-131.25,-7.91,-18.549999,1729419009804.0,0.0
-3.014957,-10.861022,5.166104,-167.440002,-19.460001,-24.99,1729419009827.0,0.0
-2.632105,-10.578669,4.15394,-198.240005,-34.509998,-40.040001,1729419009843.0,0.0
-1.660619,-9.887143,2.845066,-209.300003,-48.369999,-45.849998,1729419009863.0,0.0
-1.880759,-9.767502,3.893122,-204.119995,-49.84,-39.619999,1729419009887.0,0.0
-3.443272,-9.329616,3.141776,-208.600006,-47.529999,-29.190001,1729419009903.0,0.0
-5.065606,-7.573284,1.138984,-208.25,-41.23,-27.440001,1729419009924.0,0.0
-3.993621,-7.204789,0.600598,-243.809998,-43.959999,-18.200001,1729419009944.0,0.0
-2.794817,-7.424929,-0.488136,-317.730011,-61.950001,-26.67,1729419009963.0,0.0
-3.795017,-8.379664,-1.70369,-383.600006,-56.630001,-32.27,1729419009984.0,0.0
-6.558727,-9.772287,0.349352,-395.360016,-48.16,-49.560001,1729419010113.0,0.0
-4.804788,-11.370694,-4.807181,-283.220001,-85.400002,-62.580002,1729419010114.0,0.0
-0.935594,-8.894121,-3.677768,-188.930008,-96.25,-54.18,1729419010114.0,0.0
-0.4666,-6.410372,-2.07697,-172.619995,-60.41,-42.77,1729419010114.0,0.0
-2.196611,-6.726225,-4.642076,-192.570007,-34.09,-32.900002,1729419010114.0,0.0
-2.758924,-5.991628,-5.845665,-232.399994,-46.130001,-42.139999,1729419010115.0,0.0
-2.323431,-4.969893,-7.161718,-240.029999,-56.209999,-32.060001,1729419010123.0,0.0
-2.754139,-6.161518,-8.626125,-216.720001,-54.18,-11.76,1729419010144.0,0.0
-2.725425,-5.388636,-9.257831,-210.490005,-49.209999,-9.87,1729419010162.0,0.0
-2.244468,-4.41715,-8.788837,-198.240005,-46.970001,-1.47,1729419010183.0,0.0
-2.139183,-5.955735,-8.810372,-174.160004,-48.23,9.24,1729419010202.0,0.0
-2.718246,-6.616155,-7.76471,-156.029999,-27.51,4.06,1729419010224.0,0.0
-3.34038,-6.699903,-8.240881,-133.419998,-22.610001,-11.83,1729419010243.0,0.0
-2.837888,-5.347959,-8.901299,-109.550003,-46.200001,-18.27,1729419010265.0,0.0
-2.287539,-4.065405,-9.882358,-76.510002,-39.200001,-11.97,1729419010283.0,0.0
-2.347359,-2.68714,-9.217153,-32.689999,-23.450001,8.12,1729419010303.0,0.0
-3.237489,-1.859223,-9.717253,-1.26,-13.58,32.549999,1729419010323.0,0.0
-3.962514,-3.314059,-9.142976,10.29,4.48,47.389999,1729419010343.0,0.0
-3.562913,-5.084748,-10.066606,6.37,5.81,46.549999,1729419010369.0,0.0
-3.074777,-7.704889,-11.12184,3.43,-1.82,28.07,1729419010383.0,0.0
-2.682354,-6.498906,-7.788638,3.36,18.83,6.93,1729419010402.0,0.0
-2.998207,-4.252046,-5.032106,10.08,28.42,-3.22,1729419010424.0,0.0
-3.718446,-5.721239,-7.243074,25.48,2.1,-6.3,1729419010442.0,0.0
-3.649055,-5.407779,-9.171689,14.63,-5.95,-12.18,1729419010462.0,0.0
-3.486342,-4.855037,-9.525827,-1.47,-2.73,-23.309999,1729419010484.0,0.0
-3.26381,-4.938786,-9.157332,-26.18,2.87,-34.650002,1729419010502.0,0.0
-3.519842,-5.412565,-9.868,-38.150002,17.710001,-42.98,1729419010524.0,0.0
-3.495914,-8.606983,-10.442278,7.28,21.559999,-46.41,1729419010543.0,0.0
-3.069991,-4.677969,-6.9344,55.439999,16.1,-46.830002,1729419010562.0,0.0
-3.036492,-7.590034,-8.039884,65.800003,9.73,-45.57,1729419010582.0,0.0
-1.387837,-1.567299,-5.225924,89.599998,7.35,-33.32,1729419010603.0,0.0
-1.588834,-2.024328,-6.159126,45.080002,-0.7,-19.809999,1729419010627.0,0.0
-3.005385,-2.301895,-7.652246,6.37,-11.83,-8.12,1729419010642.0,0.0
-3.182454,-3.254239,-7.984849,-24.780001,-10.64,1.96,1729419010662.0,0.0
-2.045863,-2.971886,-9.006584,-39.060001,-35.490002,4.34,1729419010683.0,0.0
-1.383051,-1.718047,-9.860823,-19.530001,-39.34,18.9,1729419010702.0,0.0
-2.608176,-2.400001,-8.635696,19.6,-12.74,36.889999,1729419010723.0,0.0
-4.663611,-3.806981,-7.769495,55.09,1.4,51.099998,1729419010742.0,0.0
-6.142376,-6.360123,-8.776874,79.449997,-2.45,50.470001,1729419010762.0,0.0
-6.005985,-8.106883,-10.966305,85.889999,0.98,27.299999,1729419010782.0,0.0
-5.594419,-5.816952,-9.513863,96.669998,15.05,16.379999,1729419010802.0,0.0
-5.673382,-4.65404,-7.898707,105.279999,18.969999,19.32,1729419010823.0,0.0
-5.266603,-6.130411,-9.707682,59.990002,24.5,15.96,1729419010844.0,0.0
-4.235296,-7.056434,-10.303494,24.290001,40.110001,3.57,1729419010864.0,0.0
-3.237489,-6.666404,-7.709675,34.02,54.880001,1.47,1729419010886.0,0.0
-1.744368,-4.831109,-3.936193,29.82,32.48,-6.44,1729419010903.0,0.0
-1.40698,-4.788038,-4.304688,-5.18,23.52,-14.42,1729419010923.0,0.0
-1.462015,-7.695317,-6.12084,-23.52,5.95,-18.76,1729419010944.0,0.0
-0.418744,-8.157133,-5.328816,-16.17,-9.17,-23.59,1729419010963.0,0.0
-0.961915,-6.699903,-5.067998,-13.3,-9.31,-26.67,1729419010984.0,0.0
-2.541178,-5.070391,-6.477371,-9.38,-4.83,-22.610001,1729419011004.0,0.0
-3.17049,-4.663611,-7.893922,7.28,-18.200001,-4.06,1729419011032.0,0.0
-2.74696,-5.845665,-7.779066,14.07,-19.460001,12.53,1729419011042.0,0.0
-2.868994,-5.879165,-6.424729,25.549999,-7.98,17.290001,1729419011063.0,0.0
-3.574877,-6.250053,-6.324231,55.510002,-14.0,20.719999,1729419011086.0,0.0
-3.625126,-6.367301,-6.766902,55.369999,-33.670002,15.75,1729419011103.0,0.0
-3.256632,-7.104291,-7.259824,33.18,-39.549999,6.58,1729419011127.0,0.0
-3.639483,-7.499106,-6.139983,3.36,-39.200001,2.66,1729419011144.0,0.0
-4.508078,-7.123433,-7.228717,-50.330002,-38.849998,-19.25,1729419011163.0,0.0
-5.087141,-5.860023,-9.059227,-50.82,-26.32,-28.0,1729419011185.0,0.0
-5.302495,-6.443871,-10.712667,24.360001,-21.0,-3.64,1729419011203.0,0.0
-6.908078,-7.345965,-10.447062,56.139999,16.52,-0.07,1729419011226.0,0.0
-5.321638,-5.67099,-8.662018,43.470001,46.900002,-20.370001,1729419011245.0,0.0
-2.435893,-4.783253,-8.609376,68.32,14.98,-6.16,1729419011263.0,0.0
-1.995614,-6.443871,-8.85105,41.509998,42.700001,1.75,1729419011283.0,0.0
-2.785245,-6.396015,-8.255238,12.6,72.660004,-1.05,1729419011303.0,0.0
-2.969493,-8.482556,-7.360322,39.34,80.5,5.04,1729419011329.0,0.0
-1.61037,-7.245467,-3.728018,98.699997,64.120003,4.48,1729419011345.0,0.0
-1.777867,-8.216952,-2.775674,158.830002,58.450001,11.48,1729419011364.0,0.0
-1.414158,-8.097312,-1.201197,131.460007,35.77,-5.04,1729419011384.0,0.0
-0.717847,-6.388836,-1.526621,80.5,20.58,-17.219999,1729419011403.0,0.0
-0.404387,-5.960521,-0.811167,67.340004,1.12,1.96,1729419011424.0,0.0
-0.878166,-6.518049,-2.349752,89.25,-7.91,28.280001,1729419011444.0,0.0
-2.196611,-6.719046,-2.658426,131.389999,-7.91,57.82,1729419011464.0,0.0
-3.955336,-8.595018,-2.993421,163.169998,-5.53,78.330002,1729419011486.0,0.0
-5.642276,-9.463614,-2.888137,143.360001,-0.07,70.349998,1729419011507.0,0.0
-5.927022,-9.473185,-4.096512,114.309998,5.04,58.310001,1729419011525.0,0.0
-4.429115,-9.918249,-4.771288,79.590004,-5.67,45.290001,1729419011544.0,0.0
-4.098906,-10.152746,-4.405186,60.130001,-12.74,35.560001,1729419011564.0,0.0
-4.185047,-9.099905,-6.290731,14.21,7.0,19.25,1729419011585.0,0.0
-4.441079,-6.774081,-4.893322,-72.870003,9.94,2.17,1729419011604.0,0.0
-3.553342,-6.130411,-3.512664,-138.180008,-14.7,-8.89,1729419011631.0,0.0
-3.259024,-8.956335,-4.103691,-158.619995,-53.619999,-7.7,1729419011646.0,0.0
-3.921836,-9.083155,-3.304488,-191.449997,-51.59,-26.32,1729419011666.0,0.0
-4.06062,-7.424929,-5.036892,-187.180008,-40.599998,-42.349998,1729419011685.0,0.0
-3.26381,-5.312066,-6.530013,-178.5,-60.130001,-31.360001,1729419011704.0,0.0
-2.813959,-5.826523,-6.326623,-187.669998,-69.720001,-15.05,1729419011725.0,0.0
-3.239882,-6.73101,-6.13759,-225.680008,-53.48,-11.69,1729419011753.0,0.0
-3.9338,-5.79781,-8.190632,-225.680008,-34.369999,-22.33,1729419011764.0,0.0
-4.342973,-3.728018,-8.95155,-160.369995,-35.490002,-6.51,1729419011786.0,0.0
-4.575077,-2.847459,-9.623933,-134.960007,-46.970001,20.16,1729419011807.0,0.0
-4.73061,-5.682954,-7.915457,-178.149994,-28.49,14.7,1729419011831.0,0.0
-4.744967,-7.386643,-8.391629,-204.960007,0.98,-20.370001,1729419011845.0,0.0
-4.900501,-4.752146,-8.343772,-94.220001,-20.860001,-17.5,1729419011866.0,0.0
-4.455436,-2.364109,-9.190832,-34.720001,-27.440001,-6.16,1729419011887.0,0.0
-4.220939,-1.294517,-10.660025,-66.779999,-8.89,4.83,1729419011904.0,0.0
-4.13719,-2.28036,-9.918249,-100.870003,4.48,15.190001,1729419011925.0,0.0
-4.237689,-4.986642,-9.470792,-106.120003,13.3,14.84,1729419011944.0,0.0
-4.319045,-5.465207,-6.941578,-74.830002,8.05,6.93,1729419011964.0,0.0
-4.668397,-4.469792,-7.76471,-41.93,-1.19,-1.82,1729419011986.0,0.0
-4.56072,-4.960321,-8.573483,-45.5,-4.06,-1.47,1729419012004.0,0.0
-3.818945,-5.020142,-8.319844,-58.939999,0.77,-0.49,1729419012024.0,0.0
-3.68734,-4.766503,-9.102298,-33.740002,1.96,5.81,1729419012045.0,0.0
-4.756931,-2.986243,-8.056634,7.07,20.860001,12.95,1729419012064.0,0.0
-6.26441,-1.87358,-7.142576,27.09,33.32,25.059999,1729419012084.0,0.0
-5.505885,-4.086941,-7.728817,37.240002,19.32,30.17,1729419012105.0,0.0
-4.17069,-3.881158,-8.49452,58.310001,11.48,31.780001,1729419012125.0,0.0
-4.187439,-5.123034,-8.932407,32.130001,11.97,17.780001,1729419012144.0,0.0
-3.969693,-5.304887,-9.028119,-7.91,23.17,-8.54,1729419012164.0,0.0
-3.680161,-5.898308,-8.571091,-12.95,12.25,-16.66,1729419012183.0,0.0
-3.486342,-3.998406,-6.209375,1.61,2.52,-20.16,1729419012204.0,0.0
-3.706482,-5.307281,-7.288538,54.25,-19.460001,-4.9,1729419012227.0,0.0
-4.125226,-5.046463,-9.879964,64.120003,-15.96,-8.68,1729419012244.0,0.0
-4.895715,-4.934,-9.470792,80.919998,4.27,-8.33,1729419012264.0,0.0
-5.065606,-3.811767,-7.396214,126.279999,26.809999,-2.66,1729419012285.0,0.0
-5.192425,-1.533799,-6.424729,167.720001,5.32,13.72,1729419012304.0,0.0
-5.201996,-2.481357,-7.838887,120.75,-18.200001,17.99,1729419012328.0,0.0
-4.331009,-5.419744,-10.059426,33.950001,2.03,-2.52,1729419012345.0,0.0
-4.201797,-8.274381,-9.836893,70.0,31.43,-7.98,1729419012364.0,0.0
-4.299902,-8.338986,-9.193225,162.960007,42.279999,-3.57,1729419012385.0,0.0
-4.070191,-7.843673,-8.166703,261.660004,46.619999,-3.08,1729419012405.0,0.0
-3.866802,-6.675975,-7.345965,322.769989,53.689999,-0.84,1729419012427.0,0.0
-3.823731,-5.802595,-8.666803,351.470001,50.75,5.67,1729419012444.0,0.0
-3.9673,-5.003392,-7.506285,323.959991,54.670002,5.95,1729419012463.0,0.0
-3.976871,-5.845665,-3.644269,261.029999,88.340004,2.73,1729419012484.0,0.0
-4.405186,-8.130811,-2.768496,226.169998,73.849998,-3.78,1729419012503.0,0.0
-3.739982,-8.989835,-4.835894,213.009995,37.52,-16.379999,1729419012526.0,0.0
-4.086941,-9.927821,-4.048656,210.139999,30.450001,-16.52,1729419012543.0,0.0
-3.536592,-10.303494,-1.521835,253.190002,16.24,-29.75,1729419012563.0,0.0
-1.777867,-9.908678,-0.29671,319.339996,39.41,-22.120001,1729419012584.0,0.0
-1.543371,-6.068198,1.65344,350.070007,79.099998,-12.04,1729419012603.0,0.0
-3.716053,-4.807181,3.469593,341.320007,95.550003,8.68,1729419012627.0,0.0
-5.79063,-6.644868,3.960121,235.270004,61.25,7.77,1729419012645.0,0.0
-4.096512,-8.815158,2.294717,137.199997,13.23,-12.6,1729419012663.0,0.0
-2.428715,-9.88475,0.820738,107.239998,9.59,-10.64,1729419012684.0,0.0
-2.885744,-9.317651,1.086342,143.850006,36.889999,-14.42,1729419012706.0,0.0
-4.510471,-9.35833,3.531806,184.100006,50.259998,-17.57,1729419012727.0,0.0
-3.395415,-6.733403,5.903094,191.029999,31.43,-21.139999,1729419012745.0,0.0
-1.902294,-3.359523,4.843073,176.680008,32.830002,-0.56,1729419012764.0,0.0
-2.143969,-2.809174,4.82393,77.699997,27.65,10.36,1729419012786.0,0.0
-3.711268,-5.718846,4.453043,-75.879997,6.65,8.89,1729419012804.0,0.0
-3.818945,-9.805787,2.129612,-163.380005,-16.940001,2.52,1729419012825.0,0.0
-2.907279,-13.390236,3.129812,-163.029999,-29.33,-5.46,1729419012844.0,0.0
-2.230111,-13.28495,3.323631,-128.589996,-29.960001,-9.66,1729419012865.0,0.0
-2.742175,-8.334201,2.739782,-100.870003,-33.459999,-7.42,1729419012888.0,0.0
-2.895315,-6.987042,2.256432,-142.380005,-41.93,-2.73,1729419012906.0,0.0
-4.460221,-7.592427,2.663212,-242.690002,-42.560001,-12.81,1729419012925.0,0.0
-5.682954,-9.078369,1.969293,-328.860016,-46.970001,-21.98,1729419012944.0,0.0
-5.163712,-9.556933,0.969093,-371.070007,-66.150002,-31.57,1729419012965.0,0.0
-3.067599,-7.269395,-2.067399,-385.769989,-68.949997,-40.18,1729419012985.0,0.0
-2.95035,-6.4678,-1.531406,-381.570007,-45.080002,-37.799999,1729419013004.0,0.0
-5.481956,-6.443871,0.971486,-389.76001,-21.629999,-32.549999,1729419013026.0,0.0
-5.895915,-8.13799,-4.82393,-343.279999,-36.75,-31.57,1729419013044.0,0.0
-3.850052,-11.404193,-6.585048,-272.720001,-52.920002,-34.720001,1729419013066.0,0.0
-2.557927,-8.051848,-4.850252,-262.01001,-45.43,-42.91,1729419013084.0,0.0
-1.969293,-6.652047,-6.417551,-183.399994,-19.67,-24.15,1729419013104.0,0.0
-2.132005,-7.211967,-7.779066,-137.130005,-27.440001,-6.02,1729419013127.0,0.0
-1.617548,-5.402994,-9.080762,-143.289993,-33.18,-9.87,1729419013144.0,0.0
-1.081556,-5.69731,-9.238688,-137.970001,-36.75,-0.84,1729419013164.0,0.0
-0.701097,-6.149554,-7.460821,-169.680008,-27.370001,-1.61,1729419013184.0,0.0
-3.002992,-6.970293,-6.769295,-159.740005,5.74,-1.96,1729419013206.0,0.0
-3.601198,-7.881958,-5.455636,-89.040001,0.63,-0.49,1729419013225.0,0.0
-2.522035,-7.4345,-5.843273,-76.090004,-41.720001,-11.69,1729419013245.0,0.0
-2.0004,-5.635098,-7.245467,-91.419998,-56.84,-16.030001,1729419013266.0,0.0
-2.916851,-3.988836,-8.25763,-112.0,-45.290001,-13.93,1729419013284.0,0.0
-3.766303,-4.177868,-9.810574,-88.269997,-28.559999,-1.47,1729419013305.0,0.0
-4.063013,-5.446064,-10.851451,-14.35,-22.75,19.32,1729419013326.0,0.0
-4.04387,-5.02732,-9.08794,51.939999,-7.07,28.280001,1729419013344.0,0.0
-3.684947,-5.391029,-9.674182,68.599998,-5.88,22.889999,1729419013364.0,0.0
-3.074777,-6.297909,-10.126426,46.060001,-2.31,13.02,1729419013384.0,0.0
-2.770889,-5.675776,-8.276773,25.48,15.82,-2.59,1729419013406.0,0.0
-3.35713,-4.723432,-6.472585,21.0,19.530001,-10.85,1729419013425.0,0.0
-3.684947,-4.986642,-7.006185,19.32,1.33,-14.91,1729419013445.0,0.0
-3.208775,-6.625726,-9.796216,17.92,-13.37,-19.18,1729419013465.0,0.0
-2.287539,-9.090333,-6.139983,56.91,-16.379999,-14.0,1729419013486.0,0.0
-3.993621,-3.582055,-3.54377,51.240002,15.4,-22.889999,1729419013504.0,0.0
-4.63729,-4.197011,-7.257431,18.41,-22.33,-36.959999,1729419013524.0,0.0
-2.289931,-6.570691,-7.077969,-70.910004,-53.830002,-28.42,1729419013545.0,0.0
-1.971686,-6.013163,-8.518449,-72.449997,-45.990002,-28.49,1729419013566.0,0.0
-2.725425,-2.469393,-8.080563,2.38,-46.27,-17.710001,1729419013586.0,0.0
-4.737789,-1.210768,-10.387242,27.23,-16.73,9.8,1729419013605.0,0.0
-4.831109,-3.07717,-10.681561,50.259998,-12.32,15.75,1729419013629.0,0.0
-4.500899,-3.407379,-9.71486,38.43,0.49,22.889999,1729419013643.0,0.0
-4.469792,-3.862016,-9.839286,28.77,9.94,17.57,1729419013664.0,0.0
-4.31426,-4.048656,-10.090532,27.51,23.870001,12.95,1729419013686.0,0.0
-4.87418,-5.185246,-7.893922,47.740002,36.049999,23.66,1729419013704.0,0.0
-5.393422,-7.269395,-7.958528,68.110001,37.450001,20.09,1729419013738.0,0.0
-5.266603,-7.202396,-8.097312,70.419998,37.799999,8.61,1729419013744.0,0.0
-4.45065,-5.008178,-7.013363,65.800003,40.950001,1.82,1729419013763.0,0.0
-3.802195,-4.493721,-5.316852,70.139999,28.35,11.97,1729419013786.0,0.0
-3.407379,-5.867201,-6.352944,65.239998,20.58,21.0,1729419013803.0,0.0
-2.723032,-8.441878,-6.190232,70.07,23.66,20.58,1729419013826.0,0.0
-2.139183,-8.831908,-5.47717,64.190002,24.710001,7.63,1729419013843.0,0.0
-2.026721,-8.487342,-4.122833,72.449997,17.43,-1.12,1729419013866.0,0.0
-2.45025,-7.01097,-4.17069,80.989998,4.48,-7.28,1729419013886.0,0.0
-3.517449,-6.728617,-3.101098,48.299999,-12.67,-12.32,1729419013906.0,0.0
-4.321437,-6.431907,-3.790231,-19.460001,-32.130001,-20.440001,1729419013927.0,0.0
-3.56052,-5.709275,-5.56092,-62.23,-59.57,-27.58,1729419013943.0,0.0
-2.823531,-6.128019,-8.063812,-30.870001,-68.110001,-16.1,1729419013965.0,0.0
-3.862016,-6.068198,-8.908479,20.23,-48.650002,0.56,1729419013984.0,0.0
-6.240481,-7.171289,-9.257831,26.32,-11.41,6.51,1729419014006.0,0.0
-7.104291,-7.042077,-10.870593,9.66,13.3,-5.39,1729419014025.0,0.0
-5.548956,-6.750153,-9.466006,45.779999,20.16,-6.02,1729419014045.0,0.0
-3.35713,-7.281359,-7.779066,110.599998,22.190001,2.17,1729419014065.0,0.0
-2.976671,-6.647261,-5.960521,133.770004,43.119999,4.48,1729419014084.0,0.0
-3.67059,-6.881758,-6.343372,106.050003,50.959999,3.36,1729419014103.0,0.0
-3.113062,-8.008778,-5.594419,68.949997,45.990002,-1.96,1729419014127.0,0.0
-2.457429,-7.848458,-4.386044,85.190002,47.599998,-1.12,1729419014144.0,0.0
-2.859423,-7.630712,-2.65364,159.600006,50.400002,13.51,1729419014163.0,0.0
-2.976671,-9.375079,-1.634298,219.729996,42.77,24.639999,1729419014185.0,0.0
-2.646462,-7.69771,-1.634298,177.660004,27.09,11.97,1729419014206.0,0.0
-3.347559,-7.982457,-0.655633,78.68,10.92,9.8,1729419014224.0,0.0
-3.63709,-9.573684,-1.79701,71.400002,3.71,6.51,1729419014245.0,0.0
-3.345166,-10.052249,-2.057827,161.490005,9.52,25.690001,1729419014263.0,0.0
-3.720839,-8.819944,-0.665205,237.509995,34.790001,35.630001,1729419014283.0,0.0
-4.618148,-8.551948,-0.100499,218.050003,36.75,33.459999,1729419014359.0,0.0
-4.677969,-8.843873,0.117248,142.309998,25.83,16.309999,1729419014361.0,0.0
-3.936193,-9.131011,0.162712,112.770004,15.82,10.57,1729419014369.0,0.0
-3.883551,-9.485149,0.988236,120.330002,13.93,17.15,1729419014370.0,0.0
-4.577469,-9.719646,1.485943,109.270004,13.09,16.379999,1729419014384.0,0.0
-5.072784,-9.750752,1.536192,72.379997,9.59,9.24,1729419014404.0,0.0
-4.804788,-9.822537,1.239482,34.16,3.78,0.84,1729419014424.0,0.0
-3.955336,-8.750552,-0.069392,-12.95,9.52,-9.73,1729419014443.0,0.0
-3.826123,-7.034898,0.160319,-79.940002,16.66,-10.29,1729419014463.0,0.0
-3.550949,-5.718846,-2.055435,-163.729996,4.97,-2.17,1729419014484.0,0.0
-2.70389,-6.185446,-3.59402,-265.579987,-15.33,2.52,1729419014504.0,0.0
-2.462214,-7.353144,-5.831308,-366.170013,-35.77,-6.51,1729419014524.0,0.0
-3.194418,-8.226524,-5.429315,-416.640015,-39.48,-18.41,1729419014543.0,0.0
-3.818945,-7.927422,-5.539384,-381.149994,-46.900002,-45.639999,1729419014565.0,0.0
-3.550949,-6.288338,-7.24786,-313.110016,-66.57,-42.0,1729419014583.0,0.0
-3.974478,-4.878965,-7.463214,-280.209991,-63.77,-31.5,1729419014603.0,0.0
-4.524827,-5.630312,-8.202596,-310.450012,-73.080002,-31.85,1729419014626.0,0.0
-3.737589,-6.520442,-9.092726,-306.320007,-53.970001,-45.150002,1729419014642.0,0.0
-3.598805,-5.022535,-9.123833,-274.890015,-54.389999,-35.209999,1729419014663.0,0.0
-3.515057,-5.101498,-7.819745,-231.070007,-50.259998,-37.59,1729419014684.0,0.0
-4.292724,-4.505685,-9.382257,-182.490005,-39.830002,-29.75,1729419014703.0,0.0
-4.76411,-4.115655,-10.729417,-116.059998,-24.710001,-9.1,1729419014724.0,0.0
-4.768896,-2.007578,-9.913465,-59.990002,-8.12,15.26,1729419014750.0,0.0
-4.304688,-2.495714,-11.006985,-62.790001,-7.84,28.0,1729419014763.0,0.0
-3.974478,-4.132405,-7.707282,-90.160004,9.94,14.98,1729419014785.0,0.0
-5.072784,-4.522435,-5.058427,-50.330002,4.13,6.16,1729419014803.0,0.0
-5.809773,-4.414758,-7.568498,-27.370001,-13.86,-3.36,1729419014824.0,0.0
-4.577469,-4.127619,-7.812566,-47.670002,-23.1,-1.12,1729419014844.0,0.0
-2.883351,-4.259224,-9.394222,-55.16,-20.370001,10.01,1729419014866.0,0.0
-4.945964,-2.991028,-8.803195,62.369999,14.91,37.310001,1729419014886.0,0.0
-6.972685,-5.503492,-9.01137,94.779999,30.940001,38.990002,1729419014904.0,0.0
-5.008178,-6.355337,-9.138189,40.880001,12.67,12.04,1729419014925.0,0.0
-2.919244,-4.95075,-8.626125,37.099998,6.02,0.98,1729419014945.0,0.0
-2.730211,-4.096512,-6.180661,53.619999,5.18,4.27,1729419014965.0,0.0
-4.189832,-4.053442,-6.659225,36.259998,3.64,-3.85,1729419014985.0,0.0
-5.034499,-5.235496,-8.322237,39.48,3.36,-7.21,1729419015004.0,0.0
-4.931608,-4.821537,-9.32483,88.690002,1.61,3.92,1729419015025.0,0.0
-4.780859,-3.931407,-8.360522,155.259995,0.63,21.07,1729419015047.0,0.0
-5.158926,-4.520042,-7.927422,189.0,0.21,25.969999,1729419015066.0,0.0
-5.54417,-4.790431,-8.767302,175.979996,9.66,13.23,1729419015085.0,0.0
-5.034499,-5.807381,-9.408579,167.509995,17.290001,0.56,1729419015106.0,0.0
-4.469792,-5.486742,-9.578469,202.440002,25.620001,-1.05,1729419015124.0,0.0
-4.273581,-6.489335,-10.085747,289.660004,32.619999,9.17,1729419015145.0,0.0
-4.311867,-7.02772,-8.193025,383.459991,78.330002,8.4,1729419015166.0,0.0
-4.335794,-6.649654,-5.139783,391.790009,94.989998,3.29,1729419015185.0,0.0
-3.9673,-6.022735,-4.163511,351.329987,82.32,-6.02,1729419015205.0,0.0
-4.103691,-6.69751,-4.414758,312.410004,55.299999,-3.22,1729419015231.0,0.0
-4.237689,-9.623933,-2.467,287.48999,37.310001,-8.26,1729419015247.0,0.0
-3.644269,-10.870593,-3.010171,289.029999,21.98,-31.290001,1729419015266.0,0.0
-3.113062,-11.270195,-0.299103,339.220001,23.24,-30.59,1729419015286.0,0.0
-3.096312,-6.312266,1.294517,364.48999,55.09,-30.52,1729419015307.0,0.0
-4.271189,-4.086941,3.022135,351.679993,53.060001,-12.39,1729419015327.0,0.0
-4.821537,-4.965107,3.876373,253.680008,23.17,-10.57,1729419015345.0,0.0
-3.902694,-5.625526,2.498107,154.139999,7.98,-8.26,1729419015366.0,0.0
-3.838088,-8.123632,2.103291,102.480003,8.75,-2.59,1729419015385.0,0.0
-3.625126,-9.01137,1.131805,98.629997,11.55,-8.54,1729419015406.0,0.0
-3.268596,-9.583255,2.012364,129.990005,29.049999,-0.84,1729419015428.0,0.0
-3.481557,-8.437093,4.596612,144.759995,45.779999,-9.38,1729419015445.0,0.0
-3.68734,-6.118448,4.926822,160.720001,40.950001,-3.22,1729419015471.0,0.0
-4.07737,-5.197211,7.022934,103.040001,22.82,10.71,1729419015486.0,0.0
-3.134598,-5.087141,4.95075,6.16,9.66,7.14,1729419015505.0,0.0
-2.536392,-6.685547,3.562913,-61.110001,-0.49,13.02,1729419015528.0,0.0
-2.447858,-8.047063,4.113262,-64.540001,-2.03,19.809999,1729419015545.0,0.0
-3.314059,-8.997013,2.85703,-45.5,-1.05,26.18,1729419015566.0,0.0
-4.886144,-9.573684,4.61097,-24.219999,10.92,18.48,1729419015586.0,0.0
-4.953143,-7.463214,4.220939,-47.110001,4.13,5.67,1729419015605.0,0.0
-4.17069,-7.678568,5.149354,-67.690002,-6.3,9.24,1729419015629.0,0.0
-5.15414,-8.772088,5.020142,-109.970001,-16.24,-2.17,1729419015646.0,0.0
-5.142176,-9.509077,4.35733,-123.690002,-23.52,-8.47,1729419015665.0,0.0
-3.68734,-8.834301,3.929015,-136.289993,-21.49,-14.28,1729419015685.0,0.0
-3.548556,-6.991827,3.931407,-177.520004,-22.889999,-14.7,1729419015707.0,0.0
-4.287938,-8.420342,3.029313,-206.289993,-35.630001,-7.56,1729419015737.0,0.0
-3.615555,-9.341579,1.335195,-212.380005,-45.920002,-13.65,1729419015745.0,0.0
-3.213561,-9.35833,1.416551,-180.25,-39.48,-7.14,1729419015766.0,0.0
-3.981657,-9.430114,1.438086,-180.600006,-29.469999,2.73,1729419015785.0,0.0
-4.304688,-8.961121,0.614955,-212.589996,-34.790001,-4.41,1729419015805.0,0.0
-4.039084,-7.9011,-0.260818,-232.889999,-40.529999,-0.07,1729419015825.0,0.0
-3.876373,-6.675975,-1.165305,-239.190002,-35.84,5.53,1729419015845.0,0.0
-4.744967,-6.082555,-0.492921,-259.630005,-35.209999,17.710001,1729419015864.0,0.0
-5.453243,-6.309873,-2.108077,-289.170013,-44.939999,11.55,1729419015889.0,0.0
-5.769095,-8.757731,-4.76411,-324.589996,-57.82,-8.47,1729419015907.0,0.0
-4.938786,-9.590433,-6.501299,-331.589996,-57.330002,-30.52,1729419015927.0,0.0
-4.579862,-9.164511,-5.321638,-275.869995,-47.670002,-30.1,1729419015946.0,0.0
-4.211368,-8.370094,-4.438686,-166.110001,-41.299999,-14.49,1729419015964.0,0.0
-4.457829,-6.879365,-4.73061,-105.419998,-47.459999,-5.88,1729419015986.0,0.0
-4.082155,-4.424329,-6.312266,-121.309998,-70.489998,-13.79,1729419016006.0,0.0
-3.536592,-1.962115,-8.298308,-168.699997,-66.150002,-2.59,1729419016027.0,0.0
-3.63709,-1.761117,-9.79143,-231.839996,-38.779999,8.89,1729419016046.0,0.0
-3.814159,-4.766503,-9.348758,-277.339996,-13.93,11.48,1729419016065.0,0.0
-3.895515,-5.893522,-9.870394,-245.839996,-2.52,11.83,1729419016086.0,0.0
-4.235296,-6.541977,-9.779467,-174.020004,3.92,13.16,1729419016106.0,0.0
-4.457829,-7.209574,-9.001799,-100.800003,9.94,4.76,1729419016127.0,0.0
-4.400401,-5.350351,-8.394022,-51.029999,10.36,2.52,1729419016146.0,0.0
-3.972085,-4.603791,-8.85105,-35.490002,8.54,2.52,1729419016164.0,0.0
-3.845266,-4.249653,-8.343772,-23.940001,11.13,8.68,1729419016186.0,0.0
-4.792823,-4.491328,-7.999206,4.48,14.7,15.12,1729419016206.0,0.0
-5.469993,-3.833302,-7.745567,30.17,14.56,16.17,1729419016226.0,0.0
-5.273781,-4.596612,-8.303094,36.049999,-0.56,16.379999,1729419016245.0,0.0
-4.299902,-5.848059,-9.099905,10.29,-0.63,9.38,1729419016265.0,0.0
-3.081956,-5.661418,-8.458629,9.66,2.66,8.4,1729419016285.0,0.0
-2.624927,-4.87418,-8.508877,54.459999,8.68,18.27,1729419016306.0,0.0
-3.881158,-4.82393,-4.058227,71.190002,7.14,27.93,1729419016325.0,0.0
-5.599205,-4.149154,-4.261617,19.6,-0.35,13.79,1729419016345.0,0.0
-5.568098,-6.171089,-8.238488,-3.15,-23.73,4.13,1729419016365.0,0.0
-4.878965,-7.300502,-7.939385,54.810001,-17.92,5.88,1729419016386.0,0.0
-4.783253,-6.180661,-8.989835,133.699997,-16.1,17.08,1729419016406.0,0.0
-5.398208,-4.058227,-6.910471,145.529999,-9.59,11.62,1729419016426.0,0.0
-6.4343,-4.740182,-7.360322,116.760002,17.01,8.4,1729419016444.0,0.0
-5.520242,-6.62094,-9.839286,148.190002,17.5,10.01,1729419016466.0,0.0
-4.692325,-6.771688,-9.533006,224.0,15.05,15.05,1729419016485.0,0.0
-4.677969,-6.915257,-9.131011,289.519989,52.290001,1.89,1729419016506.0,0.0
-4.256832,-7.24786,-7.872386,315.980011,70.419998,-3.08,1729419016525.0,0.0
-3.792624,-6.601797,-7.180861,343.140015,78.120003,0.14,1729419016546.0,0.0
-3.9338,-5.778666,-6.67119,364.350006,85.050003,5.32,1729419016565.0,0.0
-5.211568,-6.821937,-3.921836,381.290009,93.800003,6.72,1729419016586.0,0.0
-5.941379,-7.319644,-2.167897,379.820007,54.18,2.03,1729419016606.0,0.0
-5.376673,-8.525627,-1.543371,379.049988,20.370001,-3.5,1729419016628.0,0.0
-5.17089,-9.032906,0.519243,367.01001,20.51,-30.17,1729419016644.0,0.0
-4.505685,-5.321638,0.39003,377.579987,26.67,-34.580002,1729419016666.0,0.0
-5.345565,-3.847659,4.359723,344.26001,41.860001,8.26,1729419016686.0,0.0
-4.570292,-4.900501,3.675375,212.449997,5.25,-0.77,1729419016704.0,0.0
-5.04407,-8.726624,4.074977,90.370003,-20.790001,-27.299999,1729419016725.0,0.0
-3.601198,-9.310472,1.519442,67.410004,-28.77,-23.870001,1729419016745.0,0.0
-2.816352,-8.676375,1.588834,113.470001,11.41,-8.4,1729419016766.0,0.0
-4.070191,-7.73121,3.165704,126.349998,26.880001,-15.47,1729419016793.0,0.0
-4.192225,-7.635497,5.017749,117.949997,31.360001,-14.21,1729419016805.0,0.0
-2.720639,-5.003392,5.048856,80.779999,20.860001,-20.23,1729419016825.0,0.0
