acc_x,acc_y,acc_z,gyr_x,gyr_y,gyr_z,timestamp,label
-3.115455,-6.673582,0.42353,-165.970001,45.009998,-85.260002,1729471869614.0,0.0
0.488136,-7.420143,1.911865,-187.039993,33.740002,-71.959999,1729471869614.0,0.0
1.739582,-7.278966,3.249453,-208.25,29.540001,-48.299999,1729471869615.0,0.0
2.036292,-7.54457,3.213561,-247.729996,-5.39,-31.639999,1729471869622.0,0.0
2.057827,-8.516055,-0.366102,-295.540009,-32.549999,-34.16,1729471869642.0,0.0
0.648455,-9.738789,-2.37368,-314.369995,-48.650002,-30.24,1729471869662.0,0.0
-1.337588,-10.849058,-1.0002,-288.329987,-50.540001,-37.799999,1729471869683.0,0.0
-0.007178,-7.121039,-4.12044,-239.399994,-99.610001,-34.09,1729471869702.0,0.0
-4.287938,-7.353144,-5.448457,-171.779999,-101.57,-30.870001,1729471869722.0,0.0
-5.661418,-8.496914,-6.903293,-24.99,-119.980003,-16.870001,1729471869742.0,0.0
-5.106283,-9.944571,-8.188239,152.320007,-147.979996,-1.33,1729471869762.0,0.0
-8.102098,-0.248854,-7.709675,137.479996,-108.220001,-9.8,1729471869783.0,0.0
-11.480762,0.162712,-7.678568,52.920002,-89.739998,42.279999,1729471869803.0,0.0
-10.920842,-3.294917,-8.568698,-61.25,-87.779999,34.02,1729471869822.0,0.0
-9.858429,-6.022735,-11.653046,-85.68,-50.189999,16.940001,1729471869842.0,0.0
-7.786245,-2.277967,-11.49512,14.14,-22.82,25.200001,1729471869862.0,0.0
-7.250252,-1.792224,-9.410972,66.709999,21.49,25.41,1729471869883.0,0.0
-5.82413,-4.503292,-7.601997,56.349998,34.439999,16.24,1729471869903.0,0.0
-4.304688,-6.831509,-5.410172,20.370001,30.52,3.57,1729471869922.0,0.0
-3.0006,-8.760124,-5.785845,-24.92,14.42,-15.26,1729471869942.0,0.0
-3.06042,-8.078169,-6.168696,-39.900002,10.15,-20.719999,1729471869962.0,0.0
-4.206582,-7.269395,-6.185446,-55.790001,11.83,-21.0,1729471869983.0,0.0
-4.689932,-7.123433,-6.068198,-65.519997,10.15,-21.139999,1729471870005.0,0.0
-5.575277,-6.865008,-5.556134,-52.990002,13.65,-19.950001,1729471870022.0,0.0
-6.396015,-6.924829,-6.242875,-21.91,10.78,-17.43,1729471870042.0,0.0
-7.331609,-7.094719,-6.290731,-3.57,17.85,-22.33,1729471870062.0,0.0
-8.082954,-6.386444,-6.003592,8.33,30.1,-29.120001,1729471870083.0,0.0
-8.941978,-5.45085,-5.228317,-13.02,46.619999,-39.689999,1729471870103.0,0.0
-9.513863,-5.472386,-4.905287,-43.610001,57.82,-50.540001,1729471870123.0,0.0
-8.702696,-4.462614,-5.058427,-52.220001,49.84,-54.880001,1729471870143.0,0.0
-7.018148,-3.919443,-5.838487,-60.619999,31.639999,-50.119999,1729471870163.0,0.0
-5.974878,-3.732803,-6.759724,-68.809998,15.75,-45.849998,1729471870184.0,0.0
-5.730811,-2.87378,-6.704689,-79.169998,10.57,-38.990002,1729471870202.0,0.0
-5.115855,-2.318645,-6.862615,-91.489998,-0.63,-25.059999,1729471870223.0,0.0
-4.149154,-2.830709,-7.343572,-100.379997,-12.39,-14.07,1729471870243.0,0.0
-3.321238,-3.223132,-7.085148,-92.050003,-20.09,-8.47,1729471870262.0,0.0
-2.584249,-4.110869,-7.369894,-44.939999,-29.120001,7.98,1729471870283.0,0.0
-1.588834,-4.510471,-7.312466,-4.55,-40.459999,17.360001,1729471870303.0,0.0
-1.244268,-5.4006,-7.4345,28.280001,-52.080002,26.530001,1729471870324.0,0.0
-1.521835,-7.49432,-8.13799,62.720001,-63.349998,36.189999,1729471870343.0,0.0
-2.005185,-10.597812,-9.911072,132.860001,-74.059998,38.5,1729471870363.0,0.0
-2.667997,-12.117253,-12.327823,249.479996,-66.5,35.490002,1729471870382.0,0.0
-3.369094,-11.880364,-14.397614,405.790009,-37.73,39.200001,1729471870403.0,0.0
-4.472186,-10.131211,-14.780465,610.75,5.6,64.68,1729471870424.0,0.0
-5.735595,-4.76411,-14.019548,813.679993,25.059999,83.090004,1729471870442.0,0.0
-7.65464,0.433101,-8.035098,932.75,49.279999,95.900002,1729471870462.0,0.0
-9.810574,1.06002,-2.773281,949.619995,50.610001,92.470001,1729471870493.0,0.0
-9.872787,3.34038,3.440879,811.51001,23.59,58.73,1729471870503.0,0.0
-8.059027,4.39083,9.016156,553.419983,2.94,35.07,1729471870523.0,0.0
-7.245467,0.349352,9.798609,220.220001,-3.36,0.42,1729471870541.0,0.0
-8.927622,-4.622933,8.276773,-20.299999,-8.75,-8.61,1729471870562.0,0.0
-8.317451,-6.74776,6.853044,-114.940002,-13.09,-21.84,1729471870585.0,0.0
-6.692725,-5.249853,5.627919,-165.619995,-8.82,-33.25,1729471870602.0,0.0
-6.23091,-4.871787,4.725825,-258.860016,-13.79,-37.240002,1729471870622.0,0.0
-5.919843,-5.099105,2.756532,-309.540009,-25.200001,-39.27,1729471870648.0,0.0
-5.12782,-6.766902,0.847059,-284.76001,-33.18,-35.84,1729471870662.0,0.0
-4.515256,-8.082954,0.301496,-221.130005,-26.809999,-27.790001,1729471870684.0,0.0
-4.12044,-8.793623,0.117248,-148.889999,-16.870001,-22.33,1729471870704.0,0.0
-3.756732,-8.853443,0.545564,-74.900002,-6.72,-13.72,1729471870723.0,0.0
-3.61077,-8.463413,1.282553,-15.96,1.26,-0.21,1729471870743.0,0.0
-4.024727,-8.183454,2.45025,11.97,8.12,12.32,1729471870762.0,0.0
-5.017749,-8.647661,3.273381,13.3,8.75,19.460001,1729471870784.0,0.0
-6.460621,-9.506684,3.955336,8.68,2.8,18.549999,1729471870803.0,0.0
-6.987042,-8.863015,3.136991,11.27,-6.3,9.66,1729471870825.0,0.0
-6.563512,-6.786045,2.459821,10.29,-7.84,-3.29,1729471870844.0,0.0
-5.85763,-5.249853,2.014757,-10.36,-9.38,-18.9,1729471870862.0,0.0
-5.446064,-5.326423,1.572084,-51.310001,-6.51,-29.4,1729471870886.0,0.0
-5.431707,-6.635297,0.789631,-87.779999,0.63,-32.759998,1729471870904.0,0.0
-5.173282,-8.616554,0.78006,-67.199997,9.45,-19.040001,1729471870923.0,0.0
-5.225924,-8.963513,1.524228,-31.57,14.35,-4.55,1729471870944.0,0.0
-5.462814,-8.896514,2.28036,-5.25,16.24,5.53,1729471870964.0,0.0
-5.867201,-8.551948,2.63689,4.62,14.49,10.01,1729471870985.0,0.0
-6.293124,-8.480164,2.541178,7.28,10.01,5.74,1729471871006.0,0.0
-6.534799,-7.951349,1.878366,9.38,6.93,-3.08,1729471871024.0,0.0
-6.443871,-7.13779,1.617548,9.66,6.37,-12.39,1729471871042.0,0.0
-6.300302,-6.843473,1.430908,-1.47,4.06,-20.09,1729471871064.0,0.0
-5.953342,-7.250252,1.359123,-18.83,2.38,-24.15,1729471871087.0,0.0
-5.52742,-7.798209,0.997807,-21.98,1.05,-22.26,1729471871103.0,0.0
-5.264209,-8.015956,1.225125,-10.78,3.29,-13.3,1729471871125.0,0.0
-5.350351,-8.348558,1.684547,-3.92,4.13,-3.92,1729471871144.0,0.0
-5.54417,-8.573483,2.124826,-5.81,0.91,2.66,1729471871164.0,0.0
-6.034698,-8.843873,2.065006,-6.58,-3.71,5.39,1729471871186.0,0.0
-6.259624,-8.269595,1.658226,-6.93,-8.54,-2.24,1729471871204.0,0.0
-6.180661,-7.336394,1.165305,-11.27,-8.61,-10.43,1729471871225.0,0.0
-5.76431,-7.113862,1.272982,-27.02,-8.96,-17.57,1729471871244.0,0.0
-5.225924,-7.853244,1.031307,-44.029999,-8.89,-21.42,1729471871265.0,0.0
-4.864608,-8.377272,0.904487,-40.950001,-5.25,-17.780001,1729471871286.0,0.0
-4.733003,-8.489735,0.818345,-26.74,-1.68,-12.11,1729471871305.0,0.0
-4.685147,-8.207381,0.885344,-19.18,1.12,-6.65,1729471871324.0,0.0
-4.694718,-8.054241,0.899701,-22.33,1.61,-2.8,1729471871344.0,0.0
-4.838287,-8.408379,0.777667,-30.17,1.96,-1.82,1729471871368.0,0.0
-5.297709,-9.059227,0.581456,-31.99,3.15,-2.17,1729471871385.0,0.0
-5.67099,-9.322437,0.495314,-24.01,2.73,-3.64,1729471871403.0,0.0
-5.769095,-9.111869,0.370888,-13.58,-0.77,-6.23,1729471871424.0,0.0
-5.589634,-8.776874,0.277567,-10.22,-4.97,-9.59,1729471871444.0,0.0
-5.405386,-8.396415,0.246461,-14.49,-7.35,-13.93,1729471871464.0,0.0
-5.292924,-8.398808,0.42353,-21.84,-8.47,-16.030001,1729471871485.0,0.0
-5.07757,-8.30788,0.445065,-27.58,-10.36,-17.290001,1729471871505.0,0.0
-4.740182,-8.169096,0.289532,-28.280001,-10.99,-16.940001,1729471871524.0,0.0
-4.627719,-8.082954,0.275175,-26.67,-8.47,-14.98,1729471871544.0,0.0
-4.634897,-8.068598,0.311067,-26.880001,-6.02,-13.37,1729471871565.0,0.0
-4.701896,-8.118847,0.315853,-24.92,-3.92,-10.85,1729471871586.0,0.0
-4.733003,-8.173882,0.246461,-20.58,-2.31,-8.26,1729471871604.0,0.0
-4.76411,-8.209774,0.20339,-15.4,-1.05,-5.04,1729471871624.0,0.0
-4.783253,-8.300702,0.100499,-9.87,-0.49,-2.52,1729471871645.0,0.0
-4.893322,-8.29113,0.12682,-4.27,0.7,-0.7,1729471871664.0,0.0
-4.957928,-8.245667,0.090927,-0.35,0.98,0.56,1729471871685.0,0.0
-4.931608,-8.346166,0.062213,1.82,1.4,0.98,1729471871704.0,0.0
-5.04407,-8.298308,0.078963,2.59,1.96,2.1,1729471871724.0,0.0
-5.053641,-8.238488,0.114855,2.03,1.54,3.64,1729471871743.0,0.0
-5.012963,-8.279166,0.071785,-0.7,0.42,4.55,1729471871763.0,0.0
-4.986642,-8.334201,-0.026321,-4.76,0.42,5.39,1729471871786.0,0.0
-4.981857,-8.49452,-0.148355,-8.19,0.7,6.44,1729471871804.0,0.0
-5.051248,-8.551948,-0.172283,-9.45,1.33,7.7,1729471871824.0,0.0
-4.991428,-8.630912,-0.191426,-9.03,1.19,8.68,1729471871845.0,0.0
-5.070391,-8.91805,-0.18664,-7.14,1.4,8.96,1729471871863.0,0.0
-5.218746,-8.970692,-0.270389,-1.4,2.17,7.7,1729471871886.0,0.0
-5.268995,-8.817552,-0.198604,0.98,2.24,6.44,1729471871904.0,0.0
-5.388636,-8.77448,-0.055035,-0.14,2.24,5.18,1729471871923.0,0.0
-5.469993,-8.834301,0.050249,-3.15,1.33,3.57,1729471871944.0,0.0
-5.460421,-8.846266,-0.028714,-4.48,-0.14,1.75,1729471871964.0,0.0
-5.402994,-8.764909,-0.143569,-3.43,-1.68,0.84,1729471871985.0,0.0
-5.4006,-8.633304,-0.102891,-3.15,-2.59,-0.14,1729471872008.0,0.0
-5.481956,-8.597411,-0.055035,-4.62,-3.01,-0.21,1729471872024.0,0.0
-5.536992,-8.580662,-0.083749,-5.53,-3.57,-1.05,1729471872045.0,0.0
-5.469993,-8.561519,-0.117248,-3.57,-3.71,-1.33,1729471872063.0,0.0
-5.458029,-8.480164,-0.083749,-0.7,-3.01,-2.1,1729471872084.0,0.0
-5.429315,-8.377272,-0.0335,1.4,-1.75,-2.17,1729471872104.0,0.0
-5.469993,-8.29113,0.002393,1.61,-0.91,-2.73,1729471872124.0,0.0
-5.469993,-8.317451,0.009571,1.68,-0.35,-2.59,1729471872144.0,0.0
-5.412565,-8.267202,0.002393,3.92,0.35,-2.59,1729471872164.0,0.0
-5.347959,-8.226524,0.055035,7.49,1.33,-1.89,1729471872185.0,0.0
-5.309673,-8.092526,0.09332,12.67,1.05,-0.77,1729471872204.0,0.0
-5.285746,-8.018349,0.141177,12.74,1.33,-0.28,1729471872223.0,0.0
-5.35753,-8.049455,0.193819,8.82,1.75,0.14,1729471872243.0,0.0
-5.386244,-8.161918,0.181855,4.48,1.19,0.56,1729471872264.0,0.0
-5.359922,-8.178668,0.052642,3.36,0.35,0.77,1729471872284.0,0.0
-5.398208,-8.13799,0.035892,4.55,0.28,0.56,1729471872303.0,0.0
-5.381458,-8.080563,0.086142,4.34,-0.49,0.28,1729471872325.0,0.0
-5.352744,-8.142776,0.09332,2.8,-1.05,0.14,1729471872343.0,0.0
-5.424529,-8.233703,0.081356,1.96,-1.12,0.49,1729471872363.0,0.0
-5.469993,-8.147561,0.043071,1.61,-1.12,0.49,1729471872385.0,0.0
-5.395815,-8.102098,-0.019143,0.63,-1.75,0.49,1729471872403.0,0.0
-5.374279,-8.173882,-0.038285,-0.77,-1.68,0.49,1729471872425.0,0.0
-5.359922,-8.212167,0.019143,-0.77,-1.05,0.21,1729471872443.0,0.0
-5.362316,-8.212167,-0.019143,1.26,-0.63,0.91,1729471872462.0,0.0
-5.364708,-8.207381,0.052642,1.4,-0.07,1.82,1729471872486.0,0.0
-5.35753,-8.200203,0.071785,-1.19,-0.7,2.38,1729471872504.0,0.0
-5.376673,-8.195417,0.021535,-3.78,-0.77,2.87,1729471872523.0,0.0
-5.45085,-8.405986,-0.011964,-6.58,-0.07,2.8,1729471872545.0,0.0
-5.532206,-8.456236,0.040678,-7.35,-0.28,2.31,1729471872563.0,0.0
-5.52742,-8.480164,0.01675,-7.21,-0.35,1.19,1729471872587.0,0.0
-5.548956,-8.55434,-0.078963,-7.77,-0.07,-0.91,1729471872603.0,0.0
-5.565705,-8.52802,0.004786,-7.49,0.14,-2.73,1729471872624.0,0.0
-5.580062,-8.470592,0.055035,-7.42,-0.07,-4.34,1729471872642.0,0.0
-5.596812,-8.480164,0.057428,-7.63,-0.07,-5.74,1729471872663.0,0.0
-5.601598,-8.458629,0.062213,-8.82,0.07,-7.42,1729471872693.0,0.0
-5.568098,-8.468199,0.021535,-11.13,-0.35,-8.75,1729471872705.0,0.0
-5.642276,-8.482556,-0.026321,-12.25,-0.35,-10.29,1729471872723.0,0.0
-5.649454,-8.451449,-0.026321,-10.57,-0.21,-10.99,1729471872746.0,0.0
-5.563312,-8.346166,-0.035892,-8.75,-0.56,-11.76,1729471872764.0,0.0
-5.594419,-8.353344,0.028714,-7.84,0.49,-12.04,1729471872785.0,0.0
-5.627919,-8.315059,0.143569,-6.23,1.12,-12.04,1729471872804.0,0.0
-5.525027,-8.319844,0.026321,-5.74,-0.14,-12.32,1729471872824.0,0.0
-5.599205,-8.669197,-0.019143,-7.98,0.84,-12.6,1729471872844.0,0.0
-5.771489,-8.812766,0.064606,-8.05,0.42,-12.6,1729471872864.0,0.0
-5.69731,-9.001799,-0.040678,-7.28,-1.61,-14.07,1729471872888.0,0.0
-5.651847,-9.037691,-0.200997,-7.56,-2.31,-16.450001,1729471872905.0,0.0
-5.391029,-8.944371,-0.122034,-7.56,-2.31,-18.620001,1729471872924.0,0.0
-5.000999,-8.796017,0.09332,-10.57,-0.7,-22.68,1729471872945.0,0.0
-4.754539,-8.726624,0.122034,-14.91,2.38,-27.440001,1729471872965.0,0.0
-4.400401,-8.530413,-0.01675,-13.02,3.92,-30.940001,1729471872988.0,0.0
-4.053442,-8.499306,-0.167498,-6.23,4.34,-33.810001,1729471873008.0,0.0
-3.938586,-8.367701,-0.399601,-3.29,6.58,-35.84,1729471873024.0,0.0
-3.962514,-8.350951,-0.646062,-7.28,7.84,-35.490002,1729471873046.0,0.0
-3.859623,-8.719445,-0.894916,-16.52,6.93,-37.450001,1729471873065.0,0.0
-3.728018,-9.016156,-1.100698,-29.33,8.05,-40.25,1729471873086.0,0.0
-3.598805,-9.262616,-1.366302,-39.130001,9.66,-42.91,1729471873106.0,0.0
-3.507878,-9.260223,-1.399801,-48.509998,11.83,-46.619999,1729471873124.0,0.0
-2.974278,-9.202796,-1.871187,-59.290001,13.02,-50.400002,1729471873145.0,0.0
-2.591427,-9.406186,-1.95015,-67.550003,14.42,-52.849998,1729471873166.0,0.0
-2.40718,-9.408579,-2.096112,-64.889999,17.710001,-55.510002,1729471873187.0,0.0
-2.24686,-9.200402,-2.24686,-59.57,19.74,-56.420002,1729471873206.0,0.0
-2.043471,-8.992228,-2.06022,-54.599998,20.09,-56.279999,1729471873226.0,0.0
-1.76351,-8.84148,-2.22054,-57.470001,19.32,-54.740002,1729471873245.0,0.0
-1.753939,-8.733803,-2.495714,-67.199997,19.6,-51.170002,1729471873266.0,0.0
-1.914258,-8.927622,-2.87378,-74.129997,21.629999,-45.360001,1729471873289.0,0.0
-2.163112,-9.142976,-3.177669,-71.959999,24.01,-39.130001,1729471873307.0,0.0
-2.354537,-9.037691,-3.244668,-61.459999,25.48,-33.950001,1729471873326.0,0.0
-2.512464,-8.772088,-3.134598,-52.220001,28.700001,-30.59,1729471873346.0,0.0
-2.541178,-8.664411,-3.139383,-51.450001,28.630001,-28.07,1729471873366.0,0.0
-2.349752,-8.587841,-3.172883,-56.139999,26.18,-26.389999,1729471873387.0,0.0
-2.440679,-8.872586,-3.232704,-60.41,25.9,-24.360001,1729471873410.0,0.0
-2.720639,-9.178867,-3.294917,-58.52,24.01,-22.120001,1729471873427.0,0.0
-2.65364,-8.946764,-3.136991,-47.810001,18.27,-17.43,1729471873446.0,0.0
-2.617748,-8.65484,-3.385844,-50.400002,10.08,-18.27,1729471873465.0,0.0
-2.766103,-8.449057,-2.59382,-69.860001,5.39,-24.639999,1729471873487.0,0.0
-3.929015,-6.580262,-0.552742,-101.57,-5.88,-16.73,1729471873506.0,0.0
-6.319445,-6.71426,-0.827917,-109.550003,-31.43,-11.48,1729471873525.0,0.0
-5.257031,-8.726624,-7.800602,-74.690002,-65.239998,-17.08,1729471873545.0,0.0
-3.579663,-7.999206,-8.236095,-61.459999,-60.760002,-32.060001,1729471873566.0,0.0
-4.419543,-7.920243,-7.757531,-46.27,-30.24,-21.700001,1729471873587.0,0.0
-4.15394,-9.705289,-8.468199,-24.639999,-23.1,-12.95,1729471873606.0,0.0
-1.813759,-8.88455,-6.556334,-6.37,-18.9,-22.26,1729471873625.0,0.0
-0.521635,-7.391429,-7.551748,30.940001,-13.93,-12.39,1729471873646.0,0.0
-0.531207,-6.946364,-7.369894,6.3,-1.47,-3.5,1729471873665.0,0.0
-0.935594,-8.992228,-7.568498,-33.040001,12.25,-2.59,1729471873687.0,0.0
0.550349,-10.951948,-9.186047,-8.54,15.89,-0.98,1729471873707.0,0.0
1.878366,-7.91785,-5.240282,21.210001,30.52,-2.17,1729471873725.0,0.0
1.749153,-6.52762,-4.161119,16.309999,34.369999,1.26,1729471873746.0,0.0
-0.162712,-5.388636,0.81356,-30.309999,21.700001,0.7,1729471873765.0,0.0
-3.749553,-8.01117,-1.945365,-68.669998,-30.309999,-7.84,1729471873787.0,0.0
-1.773082,-5.06082,-5.484349,-111.860001,-64.959999,-21.98,1729471873806.0,0.0
-2.600998,-5.565705,-8.204988,-127.470001,-62.580002,-6.79,1729471873826.0,0.0
-5.010571,-7.597212,-11.992826,-99.540001,-30.450001,5.6,1729471873845.0,0.0
-5.673382,-5.79063,-12.191431,-36.330002,1.89,23.66,1729471873865.0,0.0
-1.414158,-6.403193,-9.312866,-46.130001,-0.35,25.48,1729471873886.0,0.0
-0.59342,-6.21416,-7.946564,-57.400002,3.64,22.960001,1729471873905.0,0.0
-1.959722,-4.953143,-9.040084,-50.400002,14.0,30.24,1729471873925.0,0.0
-2.017149,-4.82393,-8.262416,-41.509998,21.98,40.459999,1729471873946.0,0.0
-1.107877,-6.463014,-7.360322,-37.66,25.48,47.599998,1729471873966.0,0.0
0.090927,-9.083155,-5.541777,-25.549999,24.92,47.670002,1729471873987.0,0.0
0.772882,-8.23131,-1.134198,1.12,17.15,46.27,1729471874010.0,0.0
-0.256032,-8.015956,-1.344766,-31.219999,-9.1,28.77,1729471874025.0,0.0
-4.051049,-5.402994,-2.70389,-75.389999,-30.030001,13.16,1729471874046.0,0.0
-1.921437,-6.017949,-7.197611,-104.160004,-69.580002,-3.22,1729471874065.0,0.0
-0.997807,-4.26401,-9.968499,-141.330002,-86.730003,-17.5,1729471874087.0,0.0
-5.905487,-5.178068,-11.466407,-130.619995,-58.52,-18.690001,1729471874106.0,0.0
-8.190632,-3.895515,-14.282759,-36.889999,-22.26,-2.03,1729471874125.0,0.0
-5.197211,-5.297709,-13.246667,-34.16,2.8,8.47,1729471874146.0,0.0
-0.736989,-4.17069,-10.408779,-10.5,5.11,9.94,1729471874165.0,0.0
-1.909473,-4.462614,-9.911072,30.380001,18.48,26.110001,1729471874187.0,0.0
-1.775474,-5.17089,-8.927622,41.299999,25.200001,32.27,1729471874206.0,0.0
-1.287339,-8.075776,-9.145369,39.130001,24.219999,33.389999,1729471874225.0,0.0
-1.330409,-9.585647,-8.551948,71.68,33.18,22.190001,1729471874245.0,0.0
-0.502493,-4.82393,-2.904887,102.340004,26.460001,10.5,1729471874273.0,0.0
-1.244268,-2.87378,-2.330609,47.950001,3.36,-3.29,1729471874289.0,0.0
-5.871986,-4.285545,-1.947758,-12.39,-9.52,-5.95,1729471874306.0,0.0
-3.553342,-2.447858,-6.046663,-92.400002,-54.18,-39.759998,1729471874325.0,0.0
-1.808974,-2.347359,-10.758131,-123.690002,-65.379997,-35.77,1729471874345.0,0.0
-5.891129,-6.556334,-11.660224,-124.25,-34.16,-29.190001,1729471874367.0,0.0
-7.767102,-5.659025,-13.076776,-33.740002,-13.58,-12.25,1729471874387.0,0.0
-7.73121,-4.084548,-13.514663,37.59,11.9,-12.25,1729471874406.0,0.0
-2.565106,-2.65364,-9.992428,18.549999,14.28,2.03,1729471874426.0,0.0
-1.083949,-4.972286,-9.882358,57.540001,18.76,15.61,1729471874445.0,0.0
-1.275374,-6.278766,-9.322437,82.669998,33.040001,29.33,1729471874464.0,0.0
-1.751546,-10.052249,-7.274181,85.75,38.990002,16.52,1729471874487.0,0.0
-0.306281,-7.465607,-1.596013,112.209999,30.380001,2.94,1729471874506.0,0.0
0.564706,-5.582455,-2.694318,85.610001,7.35,-10.43,1729471874526.0,0.0
-2.85703,-2.995814,-0.935594,36.259998,-1.54,-7.14,1729471874545.0,0.0
-3.644269,-4.711468,-3.462414,-50.82,-36.049999,-26.67,1729471874635.0,0.0
-1.883151,-3.194418,-9.602397,-117.459999,-65.519997,-38.849998,1729471874635.0,0.0
-4.39083,-4.977071,-12.174682,-114.870003,-49.279999,-33.110001,1729471874636.0,0.0
-8.441878,-6.664011,-13.732409,-27.790001,-18.83,-8.75,1729471874636.0,0.0
-9.329616,-3.704089,-13.780266,58.869999,10.92,7.56,1729471874645.0,0.0
-4.285545,-1.440479,-10.660025,41.509998,18.969999,9.94,1729471874666.0,0.0
-2.227718,-3.601198,-10.727024,35.84,21.91,24.639999,1729471874687.0,0.0
-3.852444,-5.261817,-9.355937,67.199997,46.060001,34.02,1729471874705.0,0.0
-2.289931,-5.79063,-8.894121,108.779999,48.509998,46.970001,1729471874732.0,0.0
-1.277767,-7.377072,-4.405186,104.93,59.639999,47.950001,1729471874745.0,0.0
1.021735,-8.927622,1.808974,70.139999,44.66,33.040001,1729471874767.0,0.0
-0.904487,-3.797409,1.998007,38.849998,-7.35,11.83,1729471874787.0,0.0
-4.113262,-6.690332,-2.378466,-51.59,-40.599998,4.97,1729471874806.0,0.0
-1.397408,-5.300103,-7.226324,-157.009995,-88.970001,-31.5,1729471874825.0,0.0
-3.196811,-5.501099,-13.256237,-147.910004,-88.620003,-34.509998,1729471874846.0,0.0
-9.449257,-8.099705,-15.249458,-67.480003,-36.610001,-14.77,1729471874866.0,0.0
-11.38505,-4.907679,-17.079967,58.099998,12.74,-1.05,1729471874886.0,0.0
-5.003392,-0.897308,-12.351749,64.75,27.51,8.33,1729471874906.0,0.0
-2.411965,-3.661019,-11.222338,28.280001,44.240002,17.360001,1729471874927.0,0.0
-4.725825,-5.924629,-9.853643,69.720001,74.620003,27.719999,1729471874945.0,0.0
-3.629912,-4.201797,-8.133204,122.849998,80.290001,40.459999,1729471874967.0,0.0
-1.701297,-7.642675,-0.287139,99.330002,81.340004,41.860001,1729471874987.0,0.0
0.882952,-9.540184,3.67059,104.510002,50.540001,30.799999,1729471875009.0,0.0
1.622334,-5.941379,3.158526,97.370003,14.35,19.74,1729471875027.0,0.0
-2.48375,-3.426522,2.574677,22.889999,-14.49,24.710001,1729471875046.0,0.0
-0.815953,-5.814559,-7.645068,-115.849998,-75.18,6.16,1729471875066.0,0.0
-2.672783,-4.603791,-11.636297,-215.110001,-100.940002,-21.77,1729471875094.0,0.0
-9.595219,-8.927622,-14.41197,-179.130005,-62.369999,-35.209999,1729471875108.0,0.0
-12.827922,-8.248059,-19.702503,-3.43,-15.05,-17.219999,1729471875126.0,0.0
-8.939585,-2.787638,-14.321043,74.410004,27.440001,-0.07,1729471875146.0,0.0
-3.113062,-4.010371,-11.641083,39.970001,45.849998,5.53,1729471875166.0,0.0
-3.117848,-4.639683,-10.590633,84.980003,69.440002,14.42,1729471875188.0,0.0
-4.09412,-3.517449,-8.609376,144.970001,80.220001,31.219999,1729471875208.0,0.0
-3.531806,-5.745167,-4.630112,131.389999,84.209999,33.670002,1729471875227.0,0.0
-1.344766,-9.169296,-0.744168,143.430008,63.84,33.32,1729471875248.0,0.0
0.959522,-5.986843,3.460021,148.399994,41.16,25.200001,1729471875268.0,0.0
1.033699,-4.905287,2.567499,74.760002,6.37,19.74,1729471875334.0,0.0
-2.794817,-5.391029,1.258625,-14.49,-14.84,28.35,1729471875352.0,0.0
-0.782453,-4.991428,-4.807181,-125.020004,-77.629997,9.59,1729471875361.0,0.0
-1.756332,-6.362515,-13.866407,-215.25,-92.190002,-5.39,1729471875516.0,0.0
-10.018748,-13.244273,-15.979269,-209.509995,-45.080002,-31.01,1729471875517.0,0.0
-13.615161,-9.973285,-16.199409,77.910004,43.119999,-36.119999,1729471875518.0,0.0
-6.659225,-3.014957,-11.274981,123.830002,33.810001,-28.49,1729471875520.0,0.0
0.550349,-3.988836,-9.530612,77.769997,27.23,-25.9,1729471875521.0,0.0
-0.72024,-6.628119,-9.954143,92.400002,71.68,-18.059999,1729471875522.0,0.0
-4.098906,-4.579862,-9.166903,142.380005,103.879997,-2.24,1729471875523.0,0.0
-2.524428,-5.745167,-2.885744,163.660004,82.949997,8.89,1729471875524.0,0.0
-0.40678,-4.252046,3.926622,159.809998,72.590004,6.51,1729471875528.0,0.0
1.380659,-4.893322,6.616155,112.699997,35.77,9.17,1729471875529.0,0.0
0.452243,-3.259024,8.020741,20.09,-10.57,11.41,1729471875547.0,0.0
-1.811367,-6.180661,3.622734,-96.949997,-66.220001,17.710001,1729471875567.0,0.0
-2.218147,-7.817351,-5.891129,-200.270004,-127.610001,-4.83,1729471875586.0,0.0
-2.691926,-4.029513,-16.161125,-282.730011,-120.889999,-21.07,1729471875606.0,0.0
-8.733803,-10.049855,-14.94557,-182.490005,-51.099998,11.83,1729471875626.0,0.0
-15.940985,-12.693924,-19.736,-27.23,45.920002,-11.69,1729471875646.0,0.0
-8.188239,-6.498906,-14.605788,130.270004,20.58,-2.52,1729471875666.0,0.0
1.785046,1.074377,-9.092726,84.910004,4.2,-4.48,1729471875690.0,0.0
-1.337588,-6.874579,-9.853643,1.47,70.07,-3.36,1729471875707.0,0.0
-4.177868,-6.733403,-5.804988,61.25,103.599998,31.780001,1729471875726.0,0.0
-1.562513,-4.651647,2.069792,133.139999,71.400002,38.080002,1729471875747.0,0.0
-0.117248,-6.876972,6.302694,114.800003,36.119999,37.73,1729471875766.0,0.0
-0.325424,-5.419744,5.369494,38.150002,-13.440001,27.93,1729471875791.0,0.0
-4.503292,-5.364708,3.809374,-71.959999,-45.43,27.370001,1729471875807.0,0.0
-4.053442,-6.814759,-1.981257,-215.949997,-109.199997,-4.76,1729471875827.0,0.0
-2.584249,-5.69731,-13.464413,-310.730011,-134.680008,-33.32,1729471875847.0,0.0
-6.867401,-9.01137,-16.192232,-256.480011,-84.840004,-30.799999,1729471875867.0,0.0
-13.239488,-12.504892,-16.400406,-31.01,-12.32,-33.459999,1729471875888.0,0.0
-9.315259,-5.776274,-16.694723,123.760002,5.04,-18.48,1729471875907.0,0.0
-0.66999,0.342174,-11.112268,61.110001,6.51,-11.06,1729471875927.0,0.0
0.622134,-4.914857,-10.516455,-8.82,43.470001,-2.03,1729471875947.0,0.0
-2.883351,-7.252645,-8.35813,44.450001,78.610001,12.6,1729471875966.0,0.0
-3.63709,-4.969893,-6.240481,117.739998,70.139999,20.440001,1729471875988.0,0.0
-2.464607,-7.712067,-2.330609,85.190002,55.439999,13.86,1729471876010.0,0.0
-0.643669,-8.183454,0.308674,83.300003,33.040001,4.62,1729471876026.0,0.0
0.229711,-5.075177,1.861616,89.669998,1.54,-4.62,1729471876046.0,0.0
-2.397608,-5.359922,1.323231,-13.86,-36.049999,-7.98,1729471876067.0,0.0
-2.177469,-4.850252,-2.431108,-147.350006,-84.209999,-34.650002,1729471876087.0,0.0
-2.184647,-3.098706,-7.448857,-261.799988,-106.330002,-48.860001,1729471876109.0,0.0
-4.919643,-5.041678,-13.052847,-230.440002,-95.199997,-28.77,1729471876126.0,0.0
-10.667203,-7.173682,-17.338394,-126.699997,-47.389999,-7.07,1729471876146.0,0.0
-11.753544,-5.156533,-18.903299,-46.200001,2.1,5.18,1729471876167.0,0.0
-5.661418,-2.742175,-14.486149,-13.72,30.59,2.52,1729471876188.0,0.0
-3.883551,-3.424129,-11.983256,26.460001,56.209999,15.89,1729471876207.0,0.0
-3.768696,-3.055635,-9.968499,64.540001,76.510002,20.299999,1729471876226.0,0.0
-3.361916,-4.957928,-8.736196,79.940002,68.739998,32.900002,1729471876249.0,0.0
-1.304088,-7.62114,-4.453043,118.580002,63.98,24.99,1729471876266.0,0.0
-0.172283,-6.132804,0.708275,168.139999,55.650002,33.529999,1729471876288.0,0.0
0.803988,-3.194418,4.443472,108.849998,25.41,17.780001,1729471876307.0,0.0
-0.51685,-2.981457,0.308674,10.22,-16.66,18.059999,1729471876326.0,0.0
-2.531606,-2.584249,-1.292124,-92.050003,-39.970001,18.549999,1729471876349.0,0.0
-1.849652,-3.641876,-5.4341,-217.419998,-82.599998,-0.7,1729471876367.0,0.0
-4.158726,-7.695317,-12.052648,-314.51001,-83.93,-46.060001,1729471876388.0,0.0
-9.851252,-9.894321,-17.620745,-141.399994,-52.220001,-37.869999,1729471876407.0,0.0
-11.296515,-4.113262,-16.625332,21.84,-14.63,-24.15,1729471876426.0,0.0
-6.173482,-3.15374,-12.433105,43.400002,13.93,-4.34,1729471876446.0,0.0
-2.892922,-3.833302,-12.667603,36.959999,27.790001,2.8,1729471876468.0,0.0
-3.306881,-5.273781,-11.57169,101.989998,42.490002,13.93,1729471876490.0,0.0
-2.706282,-3.426522,-8.614161,141.889999,48.509998,22.120001,1729471876507.0,0.0
-2.677568,-6.733403,-4.350152,103.32,51.52,8.89,1729471876526.0,0.0
-2.416751,-9.576077,-2.416751,141.75,42.07,1.54,1729471876546.0,0.0
-0.674776,-4.331009,-1.552942,142.869995,14.77,-7.21,1729471876566.0,0.0
0.490529,-4.481757,-2.299503,50.259998,-11.27,-19.530001,1729471876589.0,0.0
-1.330409,-5.065606,-3.261417,-11.27,-17.99,-19.530001,1729471876607.0,0.0
-0.806381,-3.85723,-4.701896,-74.970001,-46.200001,-33.529999,1729471876626.0,0.0
-1.194018,-6.345766,-7.066005,-153.300003,-69.790001,-53.970001,1729471876646.0,0.0
-3.806981,-8.779266,-13.497912,-145.25,-61.389999,-74.199997,1729471876667.0,0.0
-6.953543,-9.145369,-14.742181,-18.549999,-28.07,-57.959999,1729471876687.0,0.0
-9.075976,-7.300502,-14.244473,80.220001,16.52,-39.759998,1729471876708.0,0.0
-3.115455,-3.60359,-11.332408,143.710007,25.200001,-6.37,1729471876727.0,0.0
-2.868994,-3.629912,-10.279566,174.580002,60.130001,6.09,1729471876748.0,0.0
-5.276174,-2.629712,-10.179067,215.180008,94.849998,24.290001,1729471876773.0,0.0
-4.87418,-1.663012,-7.582855,234.779999,96.599998,41.23,1729471876789.0,0.0
-2.282753,-4.208975,-4.307081,234.5,86.449997,40.670002,1729471876807.0,0.0
-0.193819,-6.98465,0.701097,323.049988,66.779999,60.619999,1729471876826.0,0.0
1.622334,-3.802195,1.871187,370.369995,50.82,56.279999,1729471876846.0,0.0
-0.435494,-4.185047,4.015156,376.25,37.59,85.470001,1729471876866.0,0.0
-2.947958,-4.965107,4.187439,316.610016,20.440001,90.93,1729471876889.0,0.0
-3.531806,-7.628319,4.328616,242.059998,-2.59,99.330002,1729471876908.0,0.0
-3.550949,-11.148161,3.141776,137.130005,-17.01,78.82,1729471876929.0,0.0
-5.084748,-15.249458,1.019342,55.790001,-17.15,64.889999,1729471876947.0,0.0
-5.709275,-17.903099,-3.141776,17.639999,-10.99,37.450001,1729471876967.0,0.0
-4.814359,-15.515062,-4.252046,24.85,7.28,6.93,1729471876989.0,0.0
-4.508078,-7.903493,-2.388037,33.529999,27.51,-13.72,1729471877012.0,0.0
-5.386244,-5.391029,-0.744168,-54.529999,38.990002,-22.82,1729471877028.0,0.0
-6.563512,-6.644868,-0.447458,-145.320007,18.41,-33.32,1729471877048.0,0.0
-6.477371,-8.932407,0.267996,-215.880005,-4.13,-59.990002,1729471877067.0,0.0
-4.852644,-9.190832,-0.935594,-281.399994,-38.849998,-75.25,1729471877088.0,0.0
-4.15394,-5.95095,-1.586441,-343.0,-55.720001,-87.43,1729471877108.0,0.0
-4.62054,-6.575477,-3.361916,-388.850006,-45.360001,-93.730003,1729471877128.0,0.0
-3.905087,-4.134798,-6.556334,-454.649994,-38.639999,-117.25,1729471877148.0,0.0
-3.605984,-6.702296,-8.013563,-495.600006,-33.389999,-119.349998,1729471877167.0,0.0
-2.26361,-4.737789,-8.338986,-460.459991,-18.969999,-106.330002,1729471877189.0,0.0
-1.830509,-5.690133,-7.408179,-297.360016,-9.94,-62.09,1729471877210.0,0.0
-0.605384,-2.830709,-8.018349,-192.360001,-16.309999,-51.099998,1729471877229.0,0.0
-0.301496,-6.656832,-10.061819,-159.180008,-28.280001,-31.15,1729471877249.0,0.0
0.449851,-8.99462,-11.913863,-92.610001,-23.030001,-20.09,1729471877268.0,0.0
-0.210568,-10.047462,-12.323036,72.730003,-10.36,0.21,1729471877290.0,0.0
-1.194018,-8.834301,-11.468799,394.730011,13.440001,24.710001,1729471877311.0,0.0
-2.701497,-4.086941,-8.908479,554.960022,29.889999,37.799999,1729471877328.0,0.0
-5.295317,-2.37368,-5.982057,581.140015,39.060001,59.010002,1729471877348.0,0.0
-5.295317,-4.457829,-5.056034,545.859985,29.75,80.290001,1729471877369.0,0.0
-4.335794,-7.403394,-2.847459,541.380005,16.24,84.910004,1729471877392.0,0.0
-4.642076,-7.144968,-0.160319,526.049988,38.43,59.290001,1729471877409.0,0.0
-6.910471,-7.094719,1.782653,494.899994,66.080002,51.869999,1729471877429.0,0.0
-7.008578,-7.779066,1.282553,462.48999,41.439999,43.470001,1729471877449.0,0.0
-4.723432,-5.912664,3.091527,437.360016,36.889999,17.01,1729471877468.0,0.0
-4.902894,-2.85703,4.421937,370.51001,57.260002,17.01,1729471877499.0,0.0
-4.565506,-5.819345,4.319045,221.619995,39.970001,20.719999,1729471877509.0,0.0
-2.237289,-9.030513,3.778267,15.33,16.73,-2.8,1729471877528.0,0.0
-2.277967,-11.145767,5.630312,-134.680008,29.120001,-9.03,1729471877549.0,0.0
-4.156333,-12.468999,3.773481,-256.410004,22.889999,-8.96,1729471877570.0,0.0
-4.024727,-13.277774,1.801795,-320.950012,18.549999,-41.299999,1729471877590.0,0.0
-2.651247,-10.518847,2.103291,-363.369995,15.47,-67.129997,1729471877611.0,0.0
-1.048056,-9.339187,3.397808,-348.25,-20.58,-73.779999,1729471877628.0,0.0
-2.07697,-9.353544,1.201197,-348.950012,-43.959999,-75.25,1729471877648.0,0.0
-1.95015,-6.625726,-1.067199,-442.820007,-33.599998,-98.559998,1729471877668.0,0.0
-1.663012,-3.574877,1.328017,-566.22998,-60.41,-112.139999,1729471877691.0,0.0
-2.658426,-7.211967,-3.199204,-633.289978,-60.34,-114.099998,1729471877710.0,0.0
-2.086541,-7.829315,-4.742575,-486.149994,-61.110001,-102.269997,1729471877728.0,0.0
-0.997807,-5.615955,-6.242875,-332.779999,-55.16,-77.629997,1729471877749.0,0.0
1.002593,-3.227918,-9.427721,-269.850006,-68.599998,-75.879997,1729471877768.0,0.0
-0.770489,-5.374279,-13.636696,-239.540009,-35.77,-33.25,1729471877792.0,0.0
-3.069991,-13.677374,-15.287744,-145.460007,-17.85,-3.43,1729471877809.0,0.0
-1.239482,-10.344172,-9.166903,-13.3,2.31,-6.44,1729471877828.0,0.0
-2.342573,-7.738388,-8.106883,216.300003,1.61,39.41,1729471877848.0,0.0
-3.524628,-6.118448,-7.987241,327.880005,3.15,52.43,1729471877868.0,0.0
-5.350351,-6.836295,-8.819944,376.950012,21.07,40.32,1729471877890.0,0.0
-5.666204,-9.23151,-9.276974,479.429993,4.41,48.369999,1729471877909.0,0.0
-5.084748,-7.989635,-10.121639,646.659973,-24.08,64.050003,1729471877929.0,0.0
-5.546563,-5.206782,-4.331009,723.169983,42.700001,47.810001,1729471877948.0,0.0
-8.55434,-2.730211,1.079163,564.409973,112.699997,14.07,1729471877968.0,0.0
-8.41795,-6.149554,-2.517249,211.820007,35.349998,6.86,1729471877989.0,0.0
-5.254639,-8.757731,-2.019542,61.459999,-2.73,-13.86,1729471878014.0,0.0
-5.388636,-11.547763,-0.978664,-9.87,19.67,-18.76,1729471878028.0,0.0
-2.660819,-10.432706,-3.562913,-70.209999,12.88,-44.170002,1729471878048.0,0.0
-0.725025,-9.253045,-3.644269,-130.270004,13.09,-43.68,1729471878068.0,0.0
-0.413958,-6.836295,-3.929015,-258.160004,35.98,-45.639999,1729471878089.0,0.0
-0.777667,-10.506885,0.318245,-294.350006,47.529999,-44.029999,1729471878109.0,0.0
0.600598,-14.014762,5.761917,-165.619995,46.619999,-34.580002,1729471878128.0,0.0
2.615355,-5.039285,14.610575,-15.82,58.380001,-15.68,1729471878149.0,0.0
1.292124,-1.038485,14.902499,-26.809999,23.1,8.4,1729471878168.0,0.0
-2.103291,-6.994221,12.114861,-166.600006,-41.860001,20.93,1729471878189.0,0.0
-1.215554,-10.997414,5.627919,-226.449997,-102.059998,27.93,1729471878209.0,0.0
-2.433501,-9.075976,1.172483,-279.369995,-155.399994,16.799999,1729471878228.0,0.0
-3.493521,-6.625726,-14.160725,-340.899994,-193.759995,-0.77,1729471878248.0,0.0
-4.570292,-7.37468,-21.121447,-276.360016,-164.360001,2.94,1729471878268.0,0.0
-11.665009,-10.437491,-23.030918,-95.129997,-35.420002,17.85,1729471878289.0,0.0
-13.42852,-11.126624,-15.81895,44.52,83.790001,15.75,1729471878308.0,0.0
-4.512863,-5.826523,-10.645668,31.290001,45.849998,-38.639999,1729471878332.0,0.0
-0.464208,-5.199604,-10.04507,65.379997,111.370003,-40.25,1729471878348.0,0.0
-0.524028,-6.455836,2.510071,73.290001,167.089996,-10.29,1729471878368.0,0.0
-0.105284,-5.168497,16.084553,90.790001,140.0,15.4,1729471878390.0,0.0
3.460021,-3.105884,17.328821,114.870003,44.029999,34.790001,1729471878408.0,0.0
2.720639,-3.053242,13.751552,50.889999,-49.209999,57.400002,1729471878430.0,0.0
-2.392823,-8.276773,5.039285,-97.580002,-124.110001,58.52,1729471878448.0,0.0
-3.897908,-12.906885,-13.447663,-222.25,-208.110001,12.39,1729471878468.0,0.0
-5.333601,-9.913465,-22.432711,-294.420013,-173.039993,-46.759998,1729471878489.0,0.0
-13.727623,-9.614362,-17.886349,-120.330002,-54.110001,-21.700001,1729471878509.0,0.0
-18.396021,-8.685946,-23.030918,117.809998,82.809998,-11.2,1729471878528.0,0.0
-6.211767,-2.928815,-11.976077,119.07,15.82,-5.67,1729471878548.0,0.0
0.835095,-1.629512,-7.69771,42.209999,83.860001,-4.48,1729471878568.0,0.0
-0.346959,-5.374279,-6.18784,58.66,143.570007,27.790001,1729471878589.0,0.0
-1.538585,-6.195018,9.06162,101.5,149.380005,55.439999,1729471878609.0,0.0
0.638884,-6.56112,17.417356,119.139999,77.559998,56.349998,1729471878629.0,0.0
0.66999,-6.867401,10.487741,47.32,-30.940001,39.830002,1729471878648.0,0.0
-1.643869,-7.846066,-1.854438,-189.419998,-148.889999,8.61,1729471878668.0,0.0
-3.172883,-11.440084,-14.112868,-292.600006,-191.589996,-40.389999,1729471878689.0,0.0
-10.49492,-11.014162,-18.250059,-251.720001,-110.529999,-56.84,1729471878708.0,0.0
-19.865213,-13.35913,-27.479174,22.049999,30.59,-49.490002,1729471878728.0,0.0
-12.102897,-6.601797,-16.98904,184.449997,34.02,-5.11,1729471878748.0,0.0
-0.619741,0.155533,-11.239087,83.019997,35.700001,-9.1,1729471878767.0,0.0
0.533599,-5.297709,-9.315259,53.060001,122.360001,-3.08,1729471878789.0,0.0
-1.866402,-5.321638,-2.589034,99.540001,161.139999,29.82,1729471878809.0,0.0
-1.01695,-4.761717,12.669996,110.949997,125.580002,36.259998,1729471878828.0,0.0
2.440679,-5.627919,15.644274,68.32,31.92,24.57,1729471878847.0,0.0
-0.16989,-6.108876,11.679367,-1.89,-58.52,21.49,1729471878868.0,0.0
-3.661019,-5.606383,2.584249,-148.889999,-130.830002,1.47,1729471878891.0,0.0
-4.441079,-8.365308,-14.050655,-276.5,-182.979996,-29.190001,1729471878908.0,0.0
-8.499306,-12.404392,-21.889544,-232.75,-102.550003,-35.279999,1729471878928.0,0.0
-17.09911,-12.490535,-26.2038,-18.27,32.830002,-34.580002,1729471878951.0,0.0
-11.303694,-7.176075,-17.584854,136.639999,63.560001,-19.25,1729471878967.0,0.0
3.09392,-1.725225,-9.293723,127.540001,27.16,-20.23,1729471878989.0,0.0
1.024128,-4.9675,-7.566105,80.989998,141.539993,1.26,1729471879012.0,0.0
-1.325624,-6.683154,4.780859,111.160004,152.039993,27.16,1729471879028.0,0.0
-1.325624,-5.757132,13.213166,112.910004,91.769997,19.6,1729471879048.0,0.0
2.639283,-5.771489,11.485549,96.18,-5.67,22.68,1729471879068.0,0.0
-0.794417,-4.692325,8.662018,0.77,-76.790001,26.460001,1729471879089.0,0.0
-3.929015,-7.381857,-0.42353,-153.789993,-146.580002,6.93,1729471879108.0,0.0
-6.147161,-11.32523,-13.265808,-257.320007,-175.419998,-27.790001,1729471879127.0,0.0
-9.844072,-10.655239,-22.406391,-244.860001,-93.870003,-39.759998,1729471879147.0,0.0
-14.215759,-11.770294,-19.769501,47.529999,10.29,-13.58,1729471879168.0,0.0
-11.01177,-7.549356,-16.079767,268.309998,58.380001,16.1,1729471879188.0,0.0
-1.962115,-1.423729,-9.157332,198.940002,29.33,2.17,1729471879209.0,0.0
1.292124,-3.718446,-9.286544,96.25,76.720001,-9.66,1729471879235.0,0.0
-1.043271,-9.896714,-8.829515,128.520004,124.669998,17.08,1729471879248.0,0.0
-1.464408,-4.697111,4.441079,249.270004,128.589996,43.470001,1729471879268.0,0.0
-0.571885,-3.627519,9.10469,360.149994,78.120003,62.510002,1729471879292.0,0.0
0.299103,-1.301696,9.923036,367.220001,15.75,68.879997,1729471879308.0,0.0
-3.462414,-2.208575,8.480164,232.540009,-40.25,108.57,1729471879328.0,0.0
-6.317052,-8.52802,7.678568,84.699997,-69.860001,117.949997,1729471879348.0,0.0
-8.980263,-13.024135,-1.055235,-146.369995,-77.559998,55.510002,1729471879368.0,0.0
-7.135397,-17.414963,-8.683553,-205.100006,-93.309998,42.98,1729471879391.0,0.0
-3.945765,-15.730415,-10.707881,-113.190002,-70.629997,38.5,1729471879409.0,0.0
-4.694718,-10.549955,-6.664011,-33.459999,6.65,14.21,1729471879428.0,0.0
-8.329416,-9.243474,-5.276174,-37.73,50.330002,-1.68,1729471879449.0,0.0
-9.042477,-6.89133,-3.309274,-140.0,27.93,-26.74,1729471879468.0,0.0
-5.479564,-5.85763,-1.308874,-186.270004,-39.900002,-48.650002,1729471879489.0,0.0
-3.562913,-5.522634,-3.321238,-247.100006,-49.84,-49.139999,1729471879509.0,0.0
-4.515256,-4.35733,-1.969293,-319.619995,-12.88,-58.240002,1729471879529.0,0.0
-7.02772,-3.139383,-1.959722,-399.350006,4.97,-66.43,1729471879548.0,0.0
-7.082755,-7.886744,-4.783253,-386.119995,-42.349998,-73.360001,1729471879633.0,0.0
-4.275974,-7.420143,-7.903493,-341.040009,-65.379997,-75.879997,1729471879638.0,0.0
-3.213561,-4.716253,-7.4345,-272.860016,-42.91,-52.43,1729471879642.0,0.0
-4.704289,-4.371687,-7.628319,-253.330002,-16.17,-43.470001,1729471879644.0,0.0
-4.048656,-8.063812,-9.363115,-211.470001,-24.5,-26.74,1729471879651.0,0.0
-2.237289,-10.559525,-10.076177,-116.830002,-31.57,-15.47,1729471879670.0,0.0
-1.538585,-9.614362,-10.590633,32.060001,-18.9,-4.97,1729471879691.0,0.0
-2.069792,-6.30748,-9.851252,173.669998,3.85,19.32,1729471879711.0,0.0
-2.864209,-7.360322,-7.948956,288.190002,11.76,42.420002,1729471879730.0,0.0
-3.562913,-7.401,-8.702696,404.529999,18.549999,52.290001,1729471879750.0,0.0
-4.622933,-6.242875,-9.592826,545.22998,20.719999,70.559998,1729471879770.0,0.0
-5.237889,-4.534399,-8.063812,633.080017,23.1,92.68,1729471879791.0,0.0
-5.259424,-3.201597,-1.854438,621.73999,43.610001,86.449997,1729471879810.0,0.0
-6.199803,-1.880759,2.175076,498.119995,60.830002,77.0,1729471879830.0,0.0
-8.989835,-5.752346,3.929015,376.880005,37.52,82.040001,1729471879850.0,0.0
-7.987241,-10.095319,0.562313,335.019989,-14.07,66.360001,1729471879870.0,0.0
-5.850451,-8.831908,1.820938,377.230011,1.96,44.310001,1729471879892.0,0.0
-6.903293,-6.149554,2.988636,382.549988,52.009998,41.369999,1729471879912.0,0.0
-6.15434,-9.602397,3.826123,154.910004,22.889999,-5.11,1729471879929.0,0.0
-5.781059,-9.990034,3.61077,-4.69,17.43,-20.860001,1729471879954.0,0.0
-6.065805,-9.45165,3.479164,-143.009995,10.57,-35.77,1729471879969.0,0.0
-5.565705,-9.899107,2.584249,-274.049988,0.35,-58.170002,1729471879991.0,0.0
-4.936393,-8.403593,3.661019,-393.470001,-4.97,-84.07,1729471880013.0,0.0
-3.536592,-7.862815,2.880959,-424.76001,-38.150002,-95.129997,1729471880030.0,0.0
-2.301895,-7.822137,0.09332,-389.480011,-65.169998,-91.980003,1729471880049.0,0.0
-2.962314,-8.30788,-0.200997,-359.450012,-54.599998,-89.389999,1729471880070.0,0.0
-3.728018,-8.188239,-2.404787,-345.380005,-33.599998,-91.07,1729471880091.0,0.0
-3.962514,-4.953143,-3.59402,-409.429993,-30.380001,-98.0,1729471880110.0,0.0
-5.005785,-2.079363,-1.079163,-518.0,-27.299999,-96.18,1729471880130.0,0.0
-5.472386,-6.886543,-5.893522,-544.599976,-29.190001,-95.620003,1729471880149.0,0.0
-4.285545,-7.941778,-7.204789,-459.830017,-39.689999,-93.940002,1729471880169.0,0.0
-2.330609,-6.178268,-8.410772,-314.929993,-29.889999,-80.150002,1729471880191.0,0.0
-1.622334,-5.364708,-10.265208,-161.350006,-23.24,-43.330002,1729471880210.0,0.0
-1.555335,-9.482756,-12.768101,-27.23,-5.74,-8.12,1729471880229.0,0.0
-1.947758,-9.377472,-9.65504,160.160004,29.26,24.08,1729471880251.0,0.0
-2.921637,-5.979663,-7.286145,564.76001,53.619999,83.650002,1729471880269.0,0.0
-5.340781,-4.405186,-5.577669,770.48999,52.849998,110.669998,1729471880292.0,0.0
-6.183054,-2.732604,-2.177469,805.840027,54.110001,110.809998,1729471880310.0,0.0
-4.606184,-0.083749,0.133998,690.409973,51.380001,78.959999,1729471880329.0,0.0
-5.417351,-0.98345,5.367101,514.289978,72.239998,75.25,1729471880359.0,0.0
-8.233703,-4.603791,5.443672,377.51001,61.740002,103.32,1729471880371.0,0.0
-7.255038,-9.710074,4.359723,321.230011,3.15,86.099998,1729471880391.0,0.0
-5.529813,-12.658032,1.39023,285.179993,11.76,57.610001,1729471880410.0,0.0
-4.09412,-10.365707,1.562513,269.01001,51.939999,31.92,1729471880430.0,0.0
-5.938986,-9.226725,5.326423,152.880005,66.57,18.27,1729471880450.0,0.0
-7.645068,-9.255438,5.292924,-74.690002,29.75,-6.58,1729471880470.0,0.0
-6.946364,-12.081362,3.641876,-199.009995,-0.63,-25.34,1729471880491.0,0.0
-6.262017,-11.045268,3.739982,-302.890015,-1.26,-51.59,1729471880512.0,0.0
-5.486742,-8.9348,3.991228,-359.309998,-18.34,-72.519997,1729471880529.0,0.0
-3.84048,-7.235896,2.615355,-367.079987,-47.950001,-78.959999,1729471880550.0,0.0
-2.727818,-7.52782,1.241875,-362.110016,-69.370003,-89.389999,1729471880569.0,0.0
-3.333202,-6.240481,-1.823331,-416.779999,-71.120003,-107.449997,1729471880590.0,0.0
-3.802195,-4.996214,-2.347359,-530.25,-49.07,-117.32,1729471880612.0,0.0
-3.517449,-6.683154,-2.818745,-575.119995,-57.330002,-112.559998,1729471880630.0,0.0
-3.596412,-10.356135,-4.268795,-532.77002,-56.77,-121.870003,1729471880649.0,0.0
-3.448057,-8.260024,-6.38405,-417.480011,-22.26,-115.989998,1729471880670.0,0.0
-2.991028,-5.769095,-8.255238,-222.110001,-19.25,-64.75,1729471880695.0,0.0
-1.806581,-7.283752,-9.449257,-50.400002,-12.67,-18.969999,1729471880710.0,0.0
-1.433301,-8.896514,-8.382057,86.099998,27.02,14.14,1729471880729.0,0.0
-2.194218,-8.140383,-5.855237,258.929993,61.389999,51.869999,1729471880749.0,0.0
-2.991028,-7.063612,-4.331009,431.130005,70.419998,85.82,1729471880769.0,0.0
-3.378666,-6.295516,-2.088934,541.940002,72.379997,97.650002,1729471880792.0,0.0
-4.570292,-5.539384,-0.617348,580.650024,75.459999,110.529999,1729471880810.0,0.0
-4.261617,-6.630512,-1.433301,611.23999,56.07,123.410004,1729471880830.0,0.0
-3.345166,-7.456036,0.210568,602.280029,54.040001,108.849998,1729471880849.0,0.0
-5.240282,-4.218546,6.297909,502.670013,85.540001,85.400002,1729471880870.0,0.0
-8.370094,-3.778267,6.128019,316.26001,68.879997,82.389999,1729471880892.0,0.0
-6.953543,-5.639884,6.429514,157.360001,19.460001,81.970001,1729471880910.0,0.0
-4.491328,-14.988641,4.98425,92.260002,-9.31,63.209999,1729471880929.0,0.0
-4.45065,-16.807186,0.70349,24.15,-4.48,19.110001,1729471880949.0,0.0
-6.814759,-13.430914,-0.22014,-61.040001,19.389999,-12.11,1729471880969.0,0.0
-8.879765,-10.691131,2.940779,-234.990005,38.290001,-40.740002,1729471880992.0,0.0
-7.475177,-9.741181,2.615355,-379.820007,-2.8,-68.739998,1729471881013.0,0.0
-3.04367,-9.284152,2.191825,-357.350006,-52.639999,-99.959999,1729471881031.0,0.0
-1.036092,-7.075576,0.928415,-318.01001,-54.740002,-104.93,1729471881049.0,0.0
-2.005185,-5.816952,2.502892,-301.140015,-41.720001,-96.739998,1729471881069.0,0.0
-3.964907,-6.716653,-1.036092,-305.200012,-28.98,-88.480003,1729471881090.0,0.0
-4.082155,-6.206983,-3.017349,-343.209991,-52.57,-94.360001,1729471881110.0,0.0
-3.359523,-3.701697,-3.273381,-414.26001,-62.790001,-94.5,1729471881129.0,0.0
-4.144369,-6.276374,-3.883551,-497.700012,-42.349998,-94.43,1729471881149.0,0.0
-4.268795,-9.123833,-5.441278,-447.369995,-37.029999,-90.650002,1729471881169.0,0.0
-4.252046,-7.960921,-5.584848,-333.690002,-25.200001,-79.029999,1729471881191.0,0.0
-3.443272,-6.037091,-7.221539,-232.75,-26.530001,-68.879997,1729471881213.0,0.0
-2.924029,-6.530013,-9.717253,-148.470001,-20.58,-39.689999,1729471881229.0,0.0
-2.727818,-7.484749,-10.789237,-58.73,0.42,-10.85,1729471881249.0,0.0
-3.113062,-8.169096,-9.154939,137.410004,27.09,32.970001,1729471881275.0,0.0
-3.661019,-7.647461,-7.290931,330.610016,53.200001,61.880001,1729471881291.0,0.0
-4.311867,-7.688138,-5.539384,537.320007,52.709999,80.290001,1729471881312.0,0.0
-4.685147,-7.630712,-3.457629,675.359985,43.049999,88.620003,1729471881330.0,0.0
-3.079563,-5.046463,-4.199404,715.820007,42.209999,82.599998,1729471881350.0,0.0
-1.51705,-2.823531,-0.806381,685.650024,66.57,92.68,1729471881369.0,0.0
-3.869194,-3.225525,6.608976,514.98999,96.739998,100.660004,1729471881392.0,0.0
-7.496714,-5.108676,6.752545,150.639999,72.730003,53.619999,1729471881409.0,0.0
-5.898308,-10.705488,2.261217,-159.460007,4.76,23.17,1729471881429.0,0.0
-1.986043,-13.093525,0.605384,-262.98999,-15.47,10.08,1729471881451.0,0.0
-1.935793,-11.739187,0.827917,-276.149994,-1.61,-3.01,1729471881469.0,0.0
-4.127619,-9.085547,-0.294317,-303.170013,-11.06,-20.93,1729471881492.0,0.0
-3.866802,-7.054041,-2.002793,-352.940002,-38.5,-40.459999,1729471881511.0,0.0
-2.696711,-6.283553,-1.502693,-419.019989,-70.769997,-59.080002,1729471881530.0,0.0
-3.608376,-9.499505,-5.503492,-415.519989,-90.370003,-67.269997,1729471881550.0,0.0
-7.735995,-8.839087,-10.545169,-279.230011,-58.240002,-85.190002,1729471881571.0,0.0
-8.109276,-7.448857,-15.534204,-118.580002,-4.34,-56.84,1729471881593.0,0.0
-6.515656,-8.551948,-11.629118,25.549999,54.040001,-13.72,1729471881611.0,0.0
-4.388437,-8.439486,-8.099705,97.300003,97.090004,5.74,1729471881632.0,0.0
-3.115455,-7.329216,-9.12144,99.889999,119.0,13.23,1729471881652.0,0.0
-0.70349,-6.412765,-8.520842,70.0,132.789993,12.95,1729471881671.0,0.0
0.973879,-7.9011,-0.679562,73.57,145.740005,24.219999,1729471881695.0,0.0
0.81356,-7.982457,6.147161,104.019997,139.649994,31.5,1729471881711.0,0.0
0.531207,-7.712067,10.372886,122.290001,101.919998,28.559999,1729471881730.0,0.0
-0.370888,-7.922636,10.932807,105.910004,34.16,30.1,1729471881752.0,0.0
-3.144169,-8.84148,8.178668,44.799999,-31.710001,14.0,1729471881773.0,0.0
-2.646462,-9.202796,2.132005,-40.25,-98.910004,4.55,1729471881792.0,0.0
-0.835095,-9.396614,-6.446264,-144.130005,-159.600006,-23.309999,1729471881812.0,0.0
-1.919044,-11.229517,-17.082361,-200.410004,-153.160004,-41.439999,1729471881833.0,0.0
-8.989835,-12.320643,-15.196816,-145.669998,-62.16,-49.84,1729471881853.0,0.0
-11.906685,-9.183653,-14.333008,132.020004,36.470001,-21.559999,1729471881873.0,0.0
-7.848458,-4.256832,-9.753145,161.0,31.01,-10.64,1729471881892.0,0.0
-2.385644,-3.067599,-7.965706,64.120003,27.16,-30.17,1729471881913.0,0.0
-1.811367,-5.15414,-9.475577,-28.0,77.699997,-20.16,1729471881931.0,0.0
-2.770889,-4.704289,-5.513064,11.41,104.580002,11.2,1729471881951.0,0.0
-2.751746,-5.570491,1.227518,48.369999,102.760002,29.610001,1729471881972.0,0.0
-2.024328,-6.829116,8.422735,35.139999,76.440002,27.299999,1729471881998.0,0.0
-1.677369,-7.855636,9.212367,44.380001,16.1,33.880001,1729471882015.0,0.0
-3.098706,-7.269395,7.219146,21.42,-36.610001,24.43,1729471882031.0,0.0
-2.490928,-5.192425,0.655633,-58.170002,-85.959999,23.799999,1729471882053.0,0.0
-2.005185,-9.099905,-8.288737,-134.610001,-129.289993,14.35,1729471882073.0,0.0
-4.084548,-10.750952,-13.562519,-168.210007,-98.559998,-6.86,1729471882092.0,0.0
-7.869993,-8.370094,-12.794422,-94.639999,-33.32,6.44,1729471882111.0,0.0
-9.135797,-8.379664,-13.287343,-7.84,1.68,16.52,1729471882131.0,0.0
-5.726025,-10.765309,-11.234302,36.540001,11.2,14.84,1729471882153.0,0.0
-2.227718,-9.152546,-8.355737,70.419998,14.49,13.51,1729471882172.0,0.0
-2.378466,-9.700503,-5.910272,90.790001,50.68,14.98,1729471882192.0,0.0
-1.928615,-9.375079,-0.320638,169.259995,66.709999,21.0,1729471882213.0,0.0
-1.533799,-6.843473,4.500899,196.770004,46.900002,28.91,1729471882233.0,0.0
-2.976671,-6.752545,7.396214,155.399994,17.219999,20.23,1729471882252.0,0.0
-3.739982,-7.802995,4.960321,81.760002,-26.67,15.12,1729471882271.0,0.0
-2.59382,-10.796415,1.502693,38.360001,-58.310001,13.93,1729471882303.0,0.0
-0.89013,-12.58864,-1.086342,-21.84,-69.370003,-9.87,1729471882313.0,0.0
-3.151347,-13.234701,-1.753939,-67.620003,-47.810001,-23.379999,1729471882330.0,0.0
-5.99402,-10.593026,-4.290331,-103.110001,-24.290001,-43.189999,1729471882352.0,0.0
-7.384251,-10.451849,-6.800402,-115.639999,-16.870001,-42.490002,1729471882371.0,0.0
-4.098906,-10.607382,-8.650054,-45.779999,-23.309999,-41.299999,1729471882395.0,0.0
-1.543371,-9.150154,-7.283752,71.610001,-16.66,-35.209999,1729471882412.0,0.0
-2.268396,-5.601598,-4.802395,114.940002,23.59,-28.42,1729471882432.0,0.0
-3.76391,-5.079963,-4.254438,60.619999,28.07,-18.129999,1729471882451.0,0.0
-3.704089,-7.288538,-6.039484,-26.18,18.34,-16.940001,1729471882471.0,0.0
-2.208575,-8.709875,-8.484949,-23.59,12.11,-16.379999,1729471882493.0,0.0
-0.693919,-6.91765,-8.793623,40.459999,29.190001,-16.309999,1729471882511.0,0.0
-2.744568,-6.350551,-0.253639,43.049999,57.119999,-3.36,1729471882533.0,0.0
-4.036692,-9.099905,0.837488,-25.48,34.93,-18.41,1729471882551.0,0.0
-4.218546,-11.753544,0.260818,-52.009998,0.49,-18.690001,1729471882572.0,0.0
-2.962314,-11.294124,-1.643869,-29.049999,-20.23,-20.58,1729471882594.0,0.0
-2.517249,-9.123833,-5.216353,15.12,-11.27,-20.93,1729471882612.0,0.0
-3.847659,-7.903493,-2.854637,73.010002,28.280001,5.39,1729471882631.0,0.0
-4.465007,-9.628718,-4.838287,101.43,52.080002,21.98,1729471882652.0,0.0
-2.273181,-8.669197,-0.459422,76.860001,48.369999,-0.77,1729471882672.0,0.0
-2.517249,-6.640083,1.287339,54.32,57.610001,19.67,1729471882692.0,0.0
-1.90708,-8.855836,2.165504,1.61,49.560001,14.14,1729471882712.0,0.0
-1.368695,-9.468399,3.476771,-59.709999,27.440001,-3.22,1729471882730.0,0.0
-1.68694,-7.673782,3.352344,-72.449997,13.09,2.38,1729471882750.0,0.0
-3.055635,-8.032705,4.486543,-77.629997,-5.6,10.01,1729471882773.0,0.0
-3.586841,-9.382257,3.443272,-95.900002,-36.610001,7.98,1729471882794.0,0.0
-2.689533,-9.71486,1.820938,-94.360001,-75.949997,3.57,1729471882813.0,0.0
-2.017149,-8.882158,-4.34058,-104.790001,-102.970001,-0.84,1729471882833.0,0.0
-2.359323,-8.523234,-8.819944,-144.130005,-99.330002,3.64,1729471882850.0,0.0
-3.957729,-8.705089,-11.887544,-199.850006,-78.82,6.86,1729471882871.0,0.0
-5.254639,-9.442079,-13.009777,-150.639999,-46.200001,-6.44,1729471882893.0,0.0
-7.625926,-9.611969,-12.421142,-33.110001,15.96,2.1,1729471882911.0,0.0
-7.623533,-9.181261,-10.305886,29.889999,52.5,13.65,1729471882931.0,0.0
-4.809574,-6.936793,-10.234102,-7.77,66.220001,-0.91,1729471882953.0,0.0
-3.069991,-8.729016,-10.365707,-7.77,97.300003,-0.91,1729471882972.0,0.0
-1.103091,-6.640083,-6.776474,35.630001,123.760002,12.67,1729471882993.0,0.0
-0.937986,-7.259824,3.192025,65.660004,133.350006,26.880001,1729471883014.0,0.0
-1.933401,-7.362715,10.731809,49.07,103.599998,27.02,1729471883031.0,0.0
-1.775474,-8.877372,7.312466,50.540001,23.309999,26.040001,1729471883051.0,0.0
-4.180261,-8.492127,7.647461,26.110001,-31.15,22.75,1729471883071.0,0.0
-2.912065,-8.973085,2.021935,-37.799999,-101.779999,6.16,1729471883093.0,0.0
-1.74676,-9.667004,-6.853044,-129.639999,-150.289993,-24.639999,1729471883111.0,0.0
-2.289931,-8.882158,-14.75893,-182.210007,-143.080002,-44.66,1729471883131.0,0.0
-6.417551,-8.642875,-14.610575,-118.720001,-71.82,-27.58,1729471883152.0,0.0
-11.619547,-8.219346,-19.288544,15.05,20.93,-12.18,1729471883172.0,0.0
-4.991428,-4.735396,-10.743774,131.039993,50.75,16.450001,1729471883193.0,0.0
-0.830309,-2.620141,-9.054441,37.66,66.639999,-1.26,1729471883211.0,0.0
-2.199004,-5.010571,-8.267202,-27.790001,99.470001,11.9,1729471883231.0,0.0
-3.019742,-6.881758,-1.684547,7.21,111.300003,32.48,1729471883251.0,0.0
-2.344966,-7.745567,8.518449,67.269997,79.870003,46.900002,1729471883272.0,0.0
-1.361516,-7.293324,9.68136,78.190002,17.360001,37.099998,1729471883293.0,0.0
-3.806981,-7.836494,6.257231,19.25,-39.759998,24.710001,1729471883318.0,0.0
-3.37388,-8.193025,-0.145962,-61.599998,-89.669998,16.309999,1729471883332.0,0.0
-0.899701,-8.925228,-7.334002,-117.599998,-128.169998,2.45,1729471883351.0,0.0
-2.400001,-10.140782,-13.69891,-129.710007,-109.830002,-1.96,1729471883373.0,0.0
-8.394022,-11.136196,-15.756737,-95.760002,-36.75,0.28,1729471883393.0,0.0
-12.624532,-8.965906,-18.470198,-12.81,45.080002,-6.3,1729471883411.0,0.0
-6.728617,-8.855836,-13.473984,88.269997,51.59,5.11,1729471883432.0,0.0
-1.074377,-5.235496,-11.167303,96.25,64.050003,-7.84,1729471883452.0,0.0
-1.837688,-3.26381,-9.205189,52.990002,119.910004,-8.19,1729471883472.0,0.0
-3.395415,-6.965507,0.174676,40.25,134.75,8.47,1729471883493.0,0.0
-2.251646,-8.422735,5.749953,121.730003,90.160004,20.65,1729471883512.0,0.0
-0.564706,-7.597212,8.295916,228.479996,34.23,31.5,1729471883531.0,0.0
-0.277567,-5.166104,7.24786,252.699997,-16.030001,33.389999,1729471883553.0,0.0
-2.254039,-7.334002,5.319244,205.729996,-54.040001,44.939999,1729471883572.0,0.0
-3.151347,-12.595818,1.071985,164.570007,-91.910004,39.130001,1729471883593.0,0.0
-5.644669,-16.180265,-0.76331,117.739998,-88.269997,20.23,1729471883612.0,0.0
-6.302694,-15.584454,-4.261617,94.290001,-73.779999,7.7,1729471883633.0,0.0
-4.742575,-12.483356,-4.010371,111.93,-60.34,10.99,1729471883653.0,0.0
-4.438686,-10.774881,-3.684947,119.699997,-28.700001,-5.95,1729471883673.0,0.0
-5.733203,-10.8682,-3.665804,122.360001,2.17,-16.73,1729471883693.0,0.0
-5.099105,-10.650455,-3.237489,142.240005,0.49,-22.33,1729471883714.0,0.0
-3.981657,-10.492528,-4.603791,148.399994,-3.08,-26.040001,1729471883733.0,0.0
-3.998406,-9.678967,-3.68734,146.789993,8.19,-28.210001,1729471883753.0,0.0
-4.649254,-8.458629,-2.100898,151.619995,17.85,-23.379999,1729471883773.0,0.0
-4.625326,-9.772287,-2.392823,186.410004,15.82,-30.030001,1729471883795.0,0.0
-2.651247,-8.901299,-2.541178,241.919998,36.75,-39.130001,1729471883813.0,0.0
-0.894916,-4.833502,1.713261,293.51001,73.150002,-52.080002,1729471883834.0,0.0
-2.251646,1.052842,7.817351,275.589996,93.519997,-45.849998,1729471883862.0,0.0
-4.115655,-0.315853,11.715261,170.380005,76.370003,-24.08,1729471884105.0,0.0
-2.321038,-3.002992,9.38465,92.400002,23.379999,-26.110001,1729471884108.0,0.0
-1.205983,-1.904687,9.992428,147.699997,28.0,31.219999,1729471884108.0,0.0
-1.395016,-1.674976,8.73141,179.830002,35.630001,40.599998,1729471884110.0,0.0
-1.799403,-3.701697,8.55434,120.470001,29.33,55.720001,1729471884113.0,0.0
-2.359323,-3.821337,8.889337,12.88,20.51,77.699997,1729471884115.0,0.0
-2.632105,-6.080163,8.508877,-136.080002,-3.43,74.690002,1729471884118.0,0.0
-2.919244,-6.532406,5.611169,-246.610001,-41.369999,77.419998,1729471884119.0,0.0
-5.079963,-6.199803,-0.394816,-276.709991,-56.630001,105.07,1729471884121.0,0.0
-8.068598,-10.578669,-5.895915,-260.679993,-83.510002,112.910004,1729471884123.0,0.0
-14.376079,-19.546967,-7.341179,-185.919998,-60.130001,95.199997,1729471884124.0,0.0
-11.002198,-20.288744,-5.568098,-126.419998,-15.68,-19.6,1729471884125.0,0.0
-6.015556,-11.880364,0.758525,1.05,23.940001,-78.190002,1729471884127.0,0.0
-4.204189,-7.601997,8.752945,70.489998,63.91,-123.410004,1729471884133.0,0.0
-2.435893,-7.601997,6.453443,10.08,32.759998,-121.239998,1729471884165.0,0.0
0.502493,-4.991428,6.680761,-47.950001,37.52,-127.330002,1729471884171.0,0.0
2.409572,-0.985843,8.097312,3.85,42.349998,-84.0,1729471884194.0,0.0
2.371287,5.785845,9.370294,113.120003,38.5,-10.22,1729471884213.0,0.0
0.069392,8.760124,11.219944,140.839996,30.799999,76.230003,1729471884231.0,0.0
-6.056234,0.504886,13.703696,31.08,23.870001,135.169998,1729471884253.0,0.0
-10.009177,-9.523434,8.386844,-91.559998,-19.950001,109.410004,1729471884273.0,0.0
-8.812766,-9.224331,0.679562,-91.209999,-50.82,112.559998,1729471884294.0,0.0
-7.750352,-9.657433,-1.141376,-18.9,-34.439999,157.639999,1729471884313.0,0.0
-9.348758,-10.439885,-3.364309,-66.43,-29.190001,141.119995,1729471884339.0,0.0
-12.303895,-16.922041,-3.902694,-85.470001,-30.59,74.620003,1729471884352.0,0.0
-11.076375,-25.213171,-4.359723,-38.990002,-27.16,-11.13,1729471884372.0,0.0
-6.283553,-18.496519,-2.744568,19.110001,8.82,-89.949997,1729471884422.0,0.0
-3.974478,-5.474778,2.203789,109.550003,49.490002,-108.57,1729471884508.0,0.0
-3.031706,-3.23031,5.343173,106.82,28.35,-110.529999,1729471884520.0,0.0
-1.134198,-2.428715,4.139583,-103.040001,8.68,-124.669998,1729471884522.0,0.0
1.674976,-0.691526,6.173482,-51.869999,20.09,-73.989998,1729471884522.0,0.0
2.062613,1.70369,10.332209,61.810001,20.51,-1.05,1729471884523.0,0.0
-3.582055,3.151347,12.229716,98.07,25.83,81.410004,1729471884523.0,0.0
-8.190632,-1.72044,9.540184,51.450001,2.8,122.639999,1729471884533.0,0.0
-7.123433,-6.958328,4.529613,-33.810001,-40.810001,102.269997,1729471884575.0,0.0
-6.762117,-8.300702,2.672783,-123.199997,-35.98,106.610001,1729471884577.0,0.0
-8.886944,-8.99462,-1.481157,-226.520004,-26.950001,113.330002,1729471884646.0,0.0
-10.772489,-13.560125,-5.364708,-223.790009,-59.5,80.220001,1729471884679.0,0.0
-11.088341,-21.547369,-7.424929,-102.059998,-38.150002,32.970001,1729471884680.0,0.0
-9.01137,-22.937597,-3.976871,61.32,21.700001,-61.040001,1729471884681.0,0.0
-7.15454,-11.63869,1.684547,152.320007,74.900002,-102.550003,1729471884681.0,0.0
-5.422136,-5.288138,6.166305,150.710007,60.41,-100.029999,1729471884695.0,0.0
-3.199204,-5.008178,5.977271,28.91,5.67,-121.660004,1729471884713.0,0.0
-1.521835,-5.020142,7.097112,-8.33,12.88,-109.129997,1729471884732.0,0.0
-0.20339,-2.132005,8.91805,55.790001,26.950001,-70.980003,1729471884752.0,0.0
-0.363709,-0.394816,9.403792,107.309998,18.34,-18.9,1729471884772.0,0.0
-4.240082,-0.555135,9.777073,66.919998,15.68,60.619999,1729471884792.0,0.0
-3.443272,-3.739982,6.108876,-18.41,-9.8,67.269997,1729471884813.0,0.0
-4.500899,-4.053442,5.785845,-53.27,-4.27,105.910004,1729471884832.0,0.0
-8.047063,-6.089733,3.321238,-77.980003,-2.24,122.57,1729471884852.0,0.0
-10.872985,-5.972485,-1.088734,-173.039993,6.23,104.580002,1729471884873.0,0.0
-13.210773,-7.190433,-3.007778,-276.850006,16.450001,82.040001,1729471884894.0,0.0
-11.456835,-8.01117,-8.922836,-352.100006,9.52,26.880001,1729471884913.0,0.0
-9.750752,-10.569098,-11.090734,-419.51001,19.460001,-26.25,1729471884933.0,0.0
-7.092326,-9.49472,-12.787244,-439.670013,17.15,-61.950001,1729471884952.0,0.0
-4.876573,-8.487342,-12.198609,-381.640015,10.43,-61.880001,1729471884973.0,0.0
-3.105884,-8.810372,-4.986642,-413.630005,12.95,-83.580002,1729471884994.0,0.0
-1.569692,-13.433307,-5.264209,-425.459991,20.23,-123.270004,1729471885017.0,0.0
-0.16989,-11.562119,-3.919443,-366.100006,-7.84,-139.580002,1729471885032.0,0.0
-0.236889,-7.704889,-4.273581,-305.059998,-15.68,-140.279999,1729471885054.0,0.0
0.26321,-5.422136,-6.675975,-311.640015,-18.48,-151.130005,1729471885072.0,0.0
0.437887,-9.444471,-9.576077,-245.279999,-18.620001,-115.989998,1729471885093.0,0.0
-1.440479,-7.379465,-9.320045,-53.41,5.95,-71.330002,1729471885113.0,0.0
-3.359523,-2.727818,-6.898508,291.269989,44.310001,31.99,1729471885132.0,0.0
-5.862415,-2.086541,-1.397408,278.25,59.010002,55.860001,1729471885154.0,0.0
-6.427122,-6.374479,-0.071785,63.700001,40.459999,23.799999,1729471885174.0,0.0
-4.993821,-8.956335,3.802195,-118.020004,-1.19,7.0,1729471885195.0,0.0
-3.775874,-8.355737,3.299703,-130.970001,-55.23,15.75,1729471885213.0,0.0
-4.486543,-6.084948,-0.844666,-89.809998,-65.730003,19.530001,1729471885232.0,0.0
-7.089933,-3.761517,-3.20399,-111.440002,-64.190002,36.119999,1729471885252.0,0.0
-9.157332,-2.215754,-8.559127,-226.800003,-64.959999,42.0,1729471885271.0,0.0
-7.915457,-5.371887,-12.375679,-270.269989,-80.220001,39.200001,1729471885308.0,0.0
-5.197211,-7.965706,-16.297516,-177.029999,-68.18,25.27,1729471885316.0,0.0
-5.513064,-3.397808,-16.043877,-56.91,-29.960001,25.83,1729471885402.0,0.0
-5.728417,-0.727418,-13.014563,-33.459999,13.23,14.35,1729471885402.0,0.0
-3.184847,-3.046063,-10.937593,-49.139999,17.01,3.36,1729471885402.0,0.0
-2.490928,0.485743,-11.877973,-43.68,34.02,11.41,1729471885403.0,0.0
-1.806581,-3.613162,-9.303294,-83.019997,40.950001,11.83,1729471885412.0,0.0
-1.605584,-6.13759,-10.080962,-89.599998,39.689999,10.22,1729471885431.0,0.0
-2.617748,-3.108276,-7.424929,-37.380001,44.52,9.24,1729471885484.0,0.0
-3.914658,-2.610569,-7.805387,-51.799999,45.990002,8.68,1729471885487.0,0.0
-4.833502,-3.225525,-9.209974,-87.709999,45.779999,4.83,1729471885497.0,0.0
-5.438886,-7.953743,-6.300302,-99.610001,32.41,-2.94,1729471885512.0,0.0
-6.235696,-4.711468,-8.848659,-22.049999,25.48,-12.18,1729471885533.0,0.0
-5.190032,-4.07737,-9.262616,1.54,25.200001,-11.27,1729471885552.0,0.0
-5.261817,-6.147161,-8.063812,-14.63,30.799999,-12.46,1729471885572.0,0.0
-4.98425,-7.168896,-7.846066,0.21,26.67,-22.82,1729471885594.0,0.0
-3.354738,-4.39083,-7.056434,11.13,16.73,-38.849998,1729471885612.0,0.0
-2.737389,-2.57707,-8.035098,9.59,3.78,-31.57,1729471885632.0,0.0
-3.058028,-3.029313,-7.288538,-2.24,-2.73,-32.619999,1729471885653.0,0.0
-3.567699,-3.134598,-7.465607,17.5,-12.81,-20.16,1729471885673.0,0.0
-3.658626,-3.407379,-8.855836,71.68,-20.23,-13.16,1729471885697.0,0.0
-4.979464,-2.194218,-7.68096,102.900002,-17.01,-5.25,1729471885714.0,0.0
-5.718846,-5.816952,-8.82473,67.620003,-14.56,-20.23,1729471885733.0,0.0
-4.400401,-2.62732,-13.127025,71.400002,-8.89,-23.870001,1729471885753.0,0.0
-4.890929,-3.706482,-14.163116,116.970001,18.9,-5.25,1729471885774.0,0.0
-4.639683,-5.199604,-13.442878,176.050003,40.389999,8.33,1729471885794.0,0.0
-4.405186,-5.225924,-12.959527,234.990005,65.940002,3.43,1729471885816.0,0.0
-4.711468,-0.643669,-9.142976,234.360001,87.43,5.53,1729471885835.0,0.0
-3.558127,-2.292324,-7.956135,213.149994,75.949997,6.51,1729471885855.0,0.0
-1.945365,-4.953143,-7.042077,196.070007,71.120003,7.84,1729471885875.0,0.0
-1.239482,-5.635098,-6.589834,208.389999,74.690002,18.34,1729471885898.0,0.0
-0.332602,-5.383851,-3.87398,246.820007,73.220001,32.41,1729471885915.0,0.0
1.751546,-4.809574,-2.617748,338.450012,61.810001,44.52,1729471885935.0,0.0
2.251646,-2.333002,0.79681,450.519989,55.510002,79.239998,1729471885962.0,0.0
1.316052,-1.813759,2.507678,496.089996,48.650002,93.519997,1729471885974.0,0.0
-2.251646,-0.650848,5.606383,471.869995,42.91,121.520004,1729471885999.0,0.0
-6.331409,-3.85723,10.904092,422.029999,19.74,152.740005,1729471886019.0,0.0
-10.966305,-11.9689,6.867401,206.990005,-8.4,109.900002,1729471886034.0,0.0
-8.465806,-15.407385,1.864009,-38.639999,-64.540001,69.440002,1729471886055.0,0.0
-3.68734,-16.407585,-1.749153,-28.42,-75.599998,56.700001,1729471886079.0,0.0
-1.562513,-14.514862,-4.295116,18.9,-39.689999,31.290001,1729471886096.0,0.0
-3.223132,-10.870593,-3.830909,40.740002,9.03,3.15,1729471886115.0,0.0
-8.664411,-8.386844,2.277967,-27.65,56.84,-3.92,1729471886134.0,0.0
-11.96172,-7.077969,-1.660619,-190.820007,45.220001,-13.79,1729471886154.0,0.0
-7.338787,-6.381658,-3.900301,-351.329987,-8.96,-64.330002,1729471886174.0,0.0
-2.376073,-6.9009,-5.108676,-432.25,-70.699997,-94.919998,1729471886198.0,0.0
-1.569692,-8.4347,-6.082555,-414.820007,-58.029999,-75.809998,1729471886214.0,0.0
-4.321437,-7.252645,-4.895715,-373.730011,30.52,-66.919998,1729471886236.0,0.0
-8.362915,-4.524827,-0.011964,-378.700012,47.040001,-74.550003,1729471886256.0,0.0
-8.556733,-5.359922,-3.515057,-424.899994,-18.059999,-96.110001,1729471886274.0,0.0
-3.323631,-5.051248,-5.98445,-387.589996,-77.910004,-96.739998,1729471886295.0,0.0
-0.579063,-1.57687,-6.130411,-403.76001,-67.760002,-63.490002,1729471886314.0,0.0
-2.37368,-3.318845,-9.286544,-417.480011,-20.23,-69.580002,1729471886334.0,0.0
-4.338188,-12.229716,-12.617353,-333.690002,-21.629999,-59.709999,1729471886354.0,0.0
-0.193819,-12.339786,-13.409377,-139.300003,-26.460001,-52.290001,1729471886374.0,0.0
-0.820738,-9.164511,-12.112469,224.490005,18.34,-10.36,1729471886395.0,0.0
-1.952543,-5.905487,-8.836694,356.299988,40.25,16.940001,1729471886413.0,0.0
-3.385844,-4.876573,-7.992027,453.390015,45.150002,35.139999,1729471886434.0,0.0
-5.520242,-5.515456,-9.174082,573.02002,39.48,56.07,1729471886453.0,0.0
-4.922036,-4.761717,-10.461421,720.02002,6.65,87.779999,1729471886474.0,0.0
-4.278367,-4.220939,-7.118648,845.530029,27.790001,89.32,1729471886496.0,0.0
-6.76451,-2.151148,3.359523,835.940002,94.150002,57.260002,1729471886514.0,0.0
-9.894321,0.382852,7.82453,660.099976,102.690002,66.290001,1729471886534.0,0.0
-7.211967,-0.854238,8.506484,390.25,32.200001,39.41,1729471886554.0,0.0
-2.794817,-6.733403,3.649055,136.990005,-10.92,9.87,1729471886574.0,0.0
-3.438486,-13.780266,1.861616,19.25,-4.83,12.88,1729471886597.0,0.0
-4.673182,-14.854643,1.074377,23.940001,14.35,-9.59,1729471886615.0,0.0
-4.67079,-11.849257,4.041477,48.860001,33.32,-32.549999,1729471886636.0,0.0
-3.818945,-9.863215,6.580262,-16.379999,25.48,-48.23,1729471886654.0,0.0
-3.369094,-9.123833,4.589434,-163.589996,-4.55,-66.57,1729471886674.0,0.0
-2.505285,-8.626125,4.149154,-258.51001,-23.309999,-85.470001,1729471886695.0,0.0
-1.768296,-8.236095,2.904887,-318.920013,-30.66,-76.019997,1729471886715.0,0.0
-1.469193,-7.848458,3.952943,-322.700012,-67.129997,-86.239998,1729471886734.0,0.0
-2.232504,-5.62074,3.072384,-350.350006,-67.129997,-76.580002,1729471886754.0,0.0
-2.842674,-3.144169,3.905087,-417.549988,-78.120003,-74.830002,1729471886774.0,0.0
-2.981457,-1.217947,3.103491,-536.059998,-100.309998,-81.620003,1729471886796.0,0.0
-2.088934,-3.732803,-2.510071,-624.470032,-119.770004,-95.129997,1729471886816.0,0.0
-0.356531,-6.556334,-5.69731,-539.630005,-124.669998,-77.0,1729471886833.0,0.0
-0.098106,-8.55434,-9.308081,-350.910004,-98.139999,-37.799999,1729471886855.0,0.0
-0.165105,-10.389636,-15.47917,-125.440002,-77.699997,-8.47,1729471886875.0,0.0
-1.038485,-13.66541,-13.923835,103.599998,-37.240002,28.210001,1729471886896.0,0.0
-2.620141,-10.923235,-9.265009,309.959991,19.950001,43.049999,1729471886915.0,0.0
-3.864408,-5.730811,-5.144568,452.410004,39.200001,72.940002,1729471886934.0,0.0
-6.424729,-3.826123,-1.76351,423.5,31.85,83.370003,1729471886953.0,0.0
-9.327222,-5.718846,-4.608576,264.320007,26.040001,66.5,1729471886974.0,0.0
-10.442278,-8.073383,-6.915257,120.75,12.74,53.130001,1729471886994.0,0.0
-9.217153,-10.569098,-9.135797,50.959999,-1.4,27.860001,1729471887016.0,0.0
-6.860222,-10.255639,-7.221539,-6.72,14.0,-0.91,1729471887034.0,0.0
-6.922436,-8.056634,-3.06042,4.13,66.639999,-14.28,1729471887054.0,0.0
-5.876772,-7.039684,-3.790231,27.299999,86.730003,-11.83,1729471887074.0,0.0
-2.311467,-7.300502,-1.677369,-52.290001,74.480003,-27.440001,1729471887095.0,0.0
0.241675,-11.420943,0.689133,-119.07,90.300003,-15.89,1729471887114.0,0.0
1.957329,-13.459626,9.824929,-56.91,78.68,-9.38,1729471887135.0,0.0
1.825724,-8.79123,10.652846,59.360001,42.07,10.57,1729471887155.0,0.0
0.01675,-6.912865,7.628319,48.02,-4.9,14.98,1729471887174.0,0.0
-0.569492,-7.601997,3.005385,-73.290001,-57.400002,15.89,1729471887196.0,0.0
-0.770489,-8.953942,-5.410172,-208.389999,-106.68,8.12,1729471887215.0,0.0
-2.364109,-9.765109,-10.784451,-282.660004,-117.389999,-10.64,1729471887234.0,0.0
-6.022735,-9.901501,-12.634104,-233.520004,-84.699997,-31.219999,1729471887255.0,0.0
-10.992627,-8.532805,-17.879169,-48.16,-18.27,-21.91,1729471887274.0,0.0
-11.806188,-6.216553,-17.43889,116.270004,52.639999,-8.61,1729471887295.0,0.0
-6.226124,-4.924429,-11.521441,137.970001,55.02,-11.41,1729471887314.0,0.0
-2.337788,-2.62732,-9.79143,52.57,91.489998,-19.950001,1729471887334.0,0.0
-1.519442,-3.943372,-9.24826,10.64,123.970001,-2.73,1729471887353.0,0.0
-1.165305,-5.510671,-2.203789,16.450001,152.180008,20.58,1729471887373.0,0.0
-0.902094,-10.559525,11.370694,75.32,117.879997,41.09,1729471887395.0,0.0
0.433101,-7.147361,13.746766,105.910004,45.57,40.670002,1729471887414.0,0.0
-0.552742,-5.613562,10.882557,42.209999,-29.82,43.119999,1729471887433.0,0.0
-1.940579,-7.869993,4.646862,-83.650002,-97.510002,37.66,1729471887454.0,0.0
-2.586641,-10.995021,-7.051648,-191.029999,-161.070007,14.0,1729471887474.0,0.0
-3.936193,-10.686346,-14.213367,-275.23999,-169.119995,-32.970001,1729471887494.0,0.0
-8.803195,-7.826923,-13.552947,-240.100006,-112.699997,-39.200001,1729471887514.0,0.0
-16.553547,-8.82473,-23.083559,-75.529999,-8.89,-36.68,1729471887534.0,0.0
-13.263416,-10.028319,-19.621147,80.639999,48.580002,-26.110001,1729471887553.0,0.0
-5.051248,-5.06082,-13.998013,145.809998,35.349998,-14.0,1729471887574.0,0.0
-1.718047,-2.163112,-9.829715,132.229996,96.459999,-12.74,1729471887595.0,0.0
-2.208575,-0.775275,-6.355337,122.150002,133.979996,9.66,1729471887613.0,0.0
-2.368894,-5.539384,-4.802395,111.020004,147.350006,28.210001,1729471887635.0,0.0
-2.333002,-7.092326,10.011569,75.669998,138.039993,31.710001,1729471887653.0,0.0
-1.445265,-11.55494,13.002598,93.379997,74.760002,20.65,1729471887684.0,0.0
0.715454,-8.039884,11.428121,103.529999,-10.29,6.79,1729471887697.0,0.0
-0.768096,-5.958128,4.108476,29.469999,-71.400002,5.6,1729471887714.0,0.0
-1.107877,-6.01077,-4.323831,-214.619995,-161.630005,-23.799999,1729471887735.0,0.0
-1.830509,-9.245867,-12.540783,-277.829987,-174.789993,-26.389999,1729471887754.0,0.0
-6.776474,-12.614961,-13.375877,-216.790009,-113.610001,-39.48,1729471887774.0,0.0
-15.017354,-12.839886,-18.812372,-27.23,-14.21,-38.009998,1729471887795.0,0.0
-13.165311,-10.24846,-18.405592,156.869995,25.34,-21.98,1729471887814.0,0.0
-5.003392,-3.541377,-12.849458,179.550003,9.8,-21.629999,1729471887834.0,0.0
-0.571885,-2.744568,-9.839286,110.599998,62.09,-29.120001,1729471887853.0,0.0
-1.229911,-3.089134,-7.176075,45.920002,109.970001,-10.29,1729471887875.0,0.0
-2.344966,-5.146961,-6.321837,62.369999,126.209999,12.88,1729471887895.0,0.0
-1.507478,-6.982256,4.888536,67.129997,121.029999,18.9,1729471887913.0,0.0
-1.165305,-10.250853,12.495319,81.480003,88.059998,26.110001,1729471887934.0,0.0
0.145962,-6.958328,13.4022,84.209999,11.9,12.25,1729471887953.0,0.0
-0.437887,-5.431707,11.023734,25.48,-66.919998,18.83,1729471887974.0,0.0
-0.643669,-5.989235,1.062413,-114.590004,-138.25,9.17,1729471887996.0,0.0
-0.732204,-10.152746,-10.382458,-223.089996,-176.190002,-2.66,1729471888016.0,0.0
-2.98385,-13.864014,-15.63231,-234.149994,-152.949997,-16.940001,1729471888034.0,0.0
-18.032312,-13.4022,-22.088144,-161.070007,-26.6,-19.879999,1729471888053.0,0.0
-11.988041,-4.24726,-17.766708,150.919998,47.25,-18.129999,1729471888073.0,0.0
-2.115255,-3.316452,-12.713067,158.479996,21.700001,-28.630001,1729471888096.0,0.0
0.952343,-4.9675,-8.039884,16.24,100.590004,-41.860001,1729471888121.0,0.0
-1.442872,-3.806981,-3.677768,3.29,135.449997,-8.89,1729471888133.0,0.0
-1.052842,-4.409972,1.672583,67.690002,113.82,21.210001,1729471888155.0,0.0
1.294517,-4.567898,11.861222,91.629997,76.650002,38.990002,1729471888175.0,0.0
1.134198,-6.546762,13.651052,92.68,11.2,48.369999,1729471888196.0,0.0
-2.861816,-7.613962,10.554741,9.1,-57.610001,39.41,1729471888214.0,0.0
-4.455436,-9.616754,-1.564906,-117.809998,-127.68,26.18,1729471888234.0,0.0
-3.223132,-13.277774,-15.919449,-230.649994,-150.430008,-16.870001,1729471888255.0,0.0
-5.20439,-15.605989,-18.075382,-214.199997,-74.970001,-31.290001,1729471888274.0,0.0
-11.736795,-14.033905,-18.967905,-26.32,46.549999,-38.779999,1729471888297.0,0.0
-11.16491,-7.467999,-17.350357,176.960007,94.080002,-22.889999,1729471888315.0,0.0
-2.699104,-4.304688,-10.415956,173.600006,40.740002,-30.59,1729471888337.0,0.0
1.952543,-3.184847,-6.850651,29.82,94.57,-43.959999,1729471888354.0,0.0
0.4666,-2.380858,-0.01675,63.420002,131.389999,2.94,1729471888378.0,0.0
-0.253639,-1.548156,8.817552,121.660004,93.169998,38.57,1729471888396.0,0.0
-1.416551,-6.049056,10.954341,110.040001,32.970001,53.130001,1729471888414.0,0.0
-3.412165,-6.541977,9.114261,101.290001,-28.139999,64.400002,1729471888434.0,0.0
-5.213961,-6.62094,5.534599,57.119999,-79.449997,68.389999,1729471888454.0,0.0
-5.180461,-11.25823,-1.584049,-34.93,-121.520004,60.060001,1729471888476.0,0.0
-5.74756,-16.292728,-8.128418,-86.449997,-113.540001,41.369999,1729471888496.0,0.0
-6.680761,-13.610376,-9.954143,-41.299999,-76.650002,31.15,1729471888516.0,0.0
-8.633304,-8.683553,-9.054441,17.57,-25.27,31.360001,1729471888535.0,0.0
-6.98465,-12.701102,-9.810574,67.760002,-1.75,26.530001,1729471888554.0,0.0
-2.758924,-10.82513,-5.800202,113.889999,-9.66,7.77,1729471888579.0,0.0
-2.285146,-8.300702,-3.718446,166.669998,17.639999,19.460001,1729471888596.0,0.0
-3.87398,-6.960721,-1.347159,113.400002,21.280001,4.13,1729471888616.0,0.0
-3.512664,-7.633104,-3.61077,6.3,7.28,-5.88,1729471888635.0,0.0
-2.256432,-9.159724,-5.761917,-29.469999,3.29,-17.360001,1729471888656.0,0.0
-2.591427,-6.096912,-7.642675,2.31,22.82,-20.09,1729471888676.0,0.0
-1.95015,-8.317451,-4.376472,4.9,26.530001,-9.38,1729471888697.0,0.0
-2.438286,-9.578469,-2.959922,-32.900002,18.129999,-24.5,1729471888718.0,0.0
-4.347759,-10.518847,-3.058028,-34.09,29.889999,-27.16,1729471888736.0,0.0
-4.122833,-9.367901,-3.912265,-11.83,20.719999,-20.370001,1729471888756.0,0.0
-2.813959,-8.233703,-2.988636,13.37,29.049999,-10.99,1729471888776.0,0.0
-2.67039,-8.508877,-2.471786,-19.879999,48.299999,-16.870001,1729471888798.0,0.0
-2.316252,-9.257831,0.583849,-31.08,58.099998,-6.72,1729471888817.0,0.0
-1.004985,-8.9683,4.716253,-21.210001,45.43,-8.19,1729471888840.0,0.0
-1.954936,-7.649854,7.752745,6.72,25.549999,5.39,1729471888857.0,0.0
-5.118248,-8.949157,6.518049,-2.31,-4.62,8.96,1729471888876.0,0.0
-4.957928,-10.040283,2.658426,-72.309998,-45.360001,-6.58,1729471888898.0,0.0
-1.978864,-10.279566,-2.708675,-110.599998,-93.660004,-13.09,1729471888916.0,0.0
-1.074377,-7.975278,-5.580062,-158.479996,-107.379997,-21.139999,1729471888935.0,0.0
-6.393622,-9.942179,-10.798808,-185.919998,-94.290001,-24.360001,1729471888956.0,0.0
-10.076177,-8.671589,-12.490535,-91.07,-35.98,-30.870001,1729471888976.0,0.0
-10.939985,-5.910272,-12.68196,-1.61,15.12,-18.549999,1729471888999.0,0.0
-6.357729,-7.515855,-11.174481,-2.1,24.219999,-17.43,1729471889020.0,0.0
-3.062813,-6.82433,-10.152746,-41.23,52.43,-18.549999,1729471889036.0,0.0
-1.947758,-6.711867,-9.700503,-32.970001,84.629997,-9.24,1729471889057.0,0.0
-0.808774,-5.481956,-3.725625,-9.24,106.260002,5.25,1729471889076.0,0.0
-0.823131,-6.778866,5.448457,-2.66,97.790001,22.120001,1729471889099.0,0.0
-0.689133,-8.343772,8.389235,3.78,48.860001,22.889999,1729471889116.0,0.0
-0.811167,-9.387043,6.317052,37.240002,-13.16,29.960001,1729471889136.0,0.0
-3.615555,-8.958728,4.149154,15.05,-55.650002,24.290001,1729471889156.0,0.0
-4.141976,-9.131011,-1.529014,-58.099998,-112.349998,6.09,1729471889176.0,0.0
-4.132405,-8.985049,-9.133404,-162.119995,-149.380005,-30.380001,1729471889199.0,0.0
-4.407579,-6.405586,-13.562519,-207.550003,-138.039993,-49.98,1729471889216.0,0.0
-7.951349,-6.324231,-13.844872,-121.940002,-67.620003,-31.5,1729471889236.0,0.0
-12.483356,-9.24826,-15.524633,-0.77,31.57,-23.1,1729471889256.0,0.0
-7.843673,-9.633504,-13.966907,83.440002,38.43,-10.64,1729471889276.0,0.0
1.194018,-2.991028,-9.219545,110.25,25.9,-4.27,1729471889296.0,0.0
0.629312,-6.369694,-7.709675,25.129999,95.760002,5.18,1729471889316.0,0.0
-0.138784,-10.853845,-0.545564,39.619999,115.010002,14.35,1729471889336.0,0.0
-0.935594,-10.389636,8.250452,98.0,92.470001,18.34,1729471889356.0,0.0
-0.533599,-8.688338,9.219545,105.559998,29.049999,-2.17,1729471889376.0,0.0
-0.665205,-6.142376,7.57089,54.529999,-28.280001,-8.96,1729471889397.0,0.0
-0.882952,-7.070791,4.701896,-44.799999,-79.519997,-9.52,1729471889415.0,0.0
-0.538385,-7.657032,-3.584448,-149.029999,-132.720001,-18.129999,1729471889436.0,0.0
-0.90688,-8.449057,-12.124433,-190.190002,-150.220001,-32.549999,1729471889455.0,0.0
-4.386044,-11.009377,-14.220546,-102.340004,-105.980003,-15.68,1729471889475.0,0.0
-12.595818,-11.339586,-16.388443,8.61,-6.93,-14.35,1729471889498.0,0.0
-14.134403,-9.265009,-19.054047,90.510002,55.93,-17.290001,1729471889516.0,0.0
-5.410172,-3.897908,-12.99542,134.539993,7.77,-12.32,1729471889535.0,0.0
0.37328,-2.414358,-10.124033,94.779999,52.920002,-22.82,1729471889627.0,0.0
-1.282553,-2.833102,-7.290931,36.470001,111.93,-0.84,1729471889633.0,0.0
-3.617948,-5.082355,-5.156533,34.860001,130.550003,22.610001,1729471889637.0,0.0
-1.643869,-6.733403,1.974079,37.939999,118.090004,27.93,1729471889639.0,0.0
-1.191626,-9.233903,10.346564,36.610001,87.080002,40.389999,1729471889642.0,0.0
-0.954736,-9.513863,7.63789,18.27,-15.89,15.47,1729471889655.0,0.0
-1.600798,-7.56132,3.749553,-24.43,-62.790001,14.56,1729471889676.0,0.0
-0.229711,-7.042077,-5.398208,-120.959999,-121.309998,2.8,1729471889696.0,0.0
-0.696311,-10.289137,-13.79223,-180.949997,-131.320007,-2.03,1729471889716.0,0.0
-6.814759,-14.199009,-13.64866,-138.110001,-63.77,-7.98,1729471889735.0,0.0
-13.371094,-13.014563,-21.140589,-36.259998,31.99,-27.719999,1729471889757.0,0.0
-9.32483,-8.690732,-15.857236,118.300003,43.119999,-18.27,1729471889775.0,0.0
-1.775474,-3.771089,-11.619547,161.490005,35.700001,-19.18,1729471889807.0,0.0
0.361316,-2.002793,-8.204988,106.190002,107.800003,-22.190001,1729471889816.0,0.0
-1.952543,-3.78066,-5.761917,110.110001,144.899994,9.31,1729471889835.0,0.0
-1.529014,-3.756732,4.252046,183.330002,131.460007,38.639999,1729471889855.0,0.0
-1.146162,-6.276374,9.482756,319.899994,80.150002,74.129997,1729471889875.0,0.0
-1.17009,-5.536992,9.078369,386.75,27.09,84.139999,1729471889896.0,0.0
-1.107877,-3.182454,8.049455,356.230011,-13.440001,94.220001,1729471889917.0,0.0
-2.177469,-4.926822,7.944171,266.839996,-37.66,120.120003,1729471889935.0,0.0
-4.242475,-9.169296,4.893322,113.610001,-54.459999,106.330002,1729471889955.0,0.0
-6.317052,-14.273187,-1.454836,-19.18,-59.290001,94.709999,1729471889976.0,0.0
-5.302495,-18.324236,-7.88435,-59.220001,-72.309998,82.25,1729471889996.0,0.0
-4.34058,-16.610975,-7.228717,-17.710001,-39.549999,26.530001,1729471890019.0,0.0
-4.4339,-9.425328,-4.814359,7.35,19.530001,-6.3,1729471890035.0,0.0
-6.618547,-2.706282,-1.928615,-93.239998,45.709999,-12.18,1729471890055.0,0.0
-8.85105,-1.674976,-1.938186,-287.279999,29.469999,-14.14,1729471890075.0,0.0
-6.685547,-6.630512,-3.235096,-387.869995,-41.369999,-64.610001,1729471890097.0,0.0
-4.67079,-10.528419,-4.053442,-426.649994,-65.660004,-84.559998,1729471890116.0,0.0
-4.419543,-8.013563,-1.603191,-427.140015,-51.66,-94.43,1729471890136.0,0.0
-5.838487,-5.723632,-2.830709,-408.660004,-36.68,-103.599998,1729471890163.0,0.0
-5.982057,-5.04407,-5.101498,-358.540009,-46.060001,-93.870003,1729471890176.0,0.0
-4.864608,-1.911865,-6.221339,-350.350006,-44.66,-87.43,1729471890197.0,0.0
-3.397808,-2.199004,-8.037491,-353.360016,-41.369999,-76.160004,1729471890217.0,0.0
-1.251446,-5.575277,-9.688539,-312.200012,-43.470001,-44.380001,1729471890235.0,0.0
-0.870987,-11.69851,-12.057433,-188.649994,-39.759998,-12.46,1729471890255.0,0.0
-1.182054,-13.612768,-13.871193,10.57,-17.85,-9.59,1729471890276.0,0.0
-2.342573,-6.132804,-9.549755,205.380005,13.51,17.290001,1729471890297.0,0.0
-3.761517,-9.300901,-7.121039,378.769989,25.690001,56.139999,1729471890316.0,0.0
-2.567499,-5.721239,-9.552148,489.720001,19.74,50.540001,1729471890336.0,0.0
-3.20399,-5.302495,-7.733603,678.789978,3.92,103.669998,1729471890356.0,0.0
-3.282953,-3.275774,-6.204589,691.109985,21.84,83.650002,1729471890376.0,0.0
-5.084748,-0.270389,2.268396,553.97998,75.040001,70.840004,1729471890399.0,0.0
-9.138189,-4.216154,3.830909,428.119995,62.299999,108.639999,1729471890416.0,0.0
-8.762517,-7.185646,2.191825,339.01001,-12.18,97.580002,1729471890436.0,0.0
-7.398607,-9.315259,3.708875,328.579987,-22.469999,67.129997,1729471890458.0,0.0
-7.262216,-9.439686,1.830509,310.100006,10.29,45.639999,1729471890476.0,0.0
-7.62114,-10.722239,1.418944,248.430008,23.73,23.799999,1729471890499.0,0.0
-7.156933,-11.196017,3.352344,148.470001,20.370001,-4.97,1729471890517.0,0.0
-6.982256,-9.999605,3.510271,20.58,17.01,-26.389999,1729471890536.0,0.0
-6.518049,-9.518648,3.438486,-115.43,-0.49,-46.200001,1729471890556.0,0.0
-5.642276,-9.549755,3.74716,-239.119995,-12.67,-68.389999,1729471890576.0,0.0
-4.376472,-8.202596,1.952543,-348.880005,-15.96,-93.660004,1729471890597.0,0.0
-3.864408,-6.778866,1.447658,-498.959991,-24.219999,-126.910004,1729471890616.0,0.0
-3.103491,-5.694918,0.416351,-557.27002,-53.900002,-141.470001,1729471890636.0,0.0
-2.486143,-5.833702,-2.617748,-569.23999,-60.130001,-135.940002,1729471890656.0,0.0
-2.316252,-6.166305,-3.895515,-552.859985,-45.009998,-123.690002,1729471890677.0,0.0
-2.081756,-7.896315,-8.250452,-411.73999,-29.82,-92.959999,1729471890700.0,0.0
-2.696711,-10.475778,-10.482956,-143.850006,-9.31,-29.540001,1729471890720.0,0.0
-4.292724,-10.128819,-7.802995,92.120003,42.560001,3.36,1729471890738.0,0.0
-5.848059,-6.76451,-5.962914,215.320007,73.849998,21.07,1729471890758.0,0.0
-6.206983,-6.778866,-5.261817,220.220001,75.529999,27.09,1729471890777.0,0.0
-4.651647,-7.243074,-7.305287,161.979996,68.879997,18.41,1729471890800.0,0.0
-3.165704,-7.020542,-7.350751,155.190002,78.470001,23.799999,1729471890818.0,0.0
-2.754139,-6.199803,-5.139783,174.160004,91.840004,31.85,1729471890838.0,0.0
-3.644269,-11.119448,0.339781,163.029999,90.720001,29.75,1729471890857.0,0.0
-3.038885,-9.346365,1.842474,105.910004,66.150002,1.68,1729471890883.0,0.0
1.48355,-8.157133,3.682554,84.840004,29.75,-6.23,1729471890909.0,0.0
2.701497,-5.359922,6.565905,51.450001,14.98,1.33,1729471890918.0,0.0
1.808974,-6.281159,6.924829,14.98,-8.47,16.66,1729471890938.0,0.0
-0.949951,-9.355937,5.647062,-30.450001,-37.66,29.540001,1729471890958.0,0.0
-2.108077,-8.420342,4.307081,-74.129997,-69.790001,33.040001,1729471890977.0,0.0
-1.730011,-4.292724,-0.650848,-114.449997,-107.029999,42.139999,1729471891000.0,0.0
-3.684947,-10.150353,-9.19801,-148.889999,-118.650002,52.709999,1729471891023.0,0.0
-5.383851,-14.703895,-14.517255,-135.240005,-85.470001,20.370001,1729471891037.0,0.0
-9.190832,-16.232908,-10.530812,12.88,-28.91,47.32,1729471891058.0,0.0
-8.575876,-11.413764,-10.145569,197.820007,-22.75,40.32,1729471891077.0,0.0
-7.57089,-6.776474,-6.474977,251.930008,-5.95,21.91,1729471891099.0,0.0
-7.278966,-6.60419,-5.139783,199.220001,14.56,-1.75,1729471891118.0,0.0
-5.848059,-6.999006,-4.845466,135.520004,22.960001,-20.23,1729471891137.0,0.0
-3.498307,-7.403394,-1.584049,94.220001,13.93,-22.190001,1729471891157.0,0.0
-1.730011,-9.482756,3.266203,44.380001,5.18,-31.5,1729471891179.0,0.0
-1.715654,-8.678767,2.141576,-16.450001,-4.41,-37.240002,1729471891199.0,0.0
-2.756532,-8.468199,-0.868595,-47.529999,8.54,-36.189999,1729471891218.0,0.0
-3.249453,-6.699903,-0.224925,-166.460007,-8.47,-52.849998,1729471891237.0,0.0
-3.345166,-5.493921,-0.299103,-246.399994,-26.950001,-44.66,1729471891257.0,0.0
-3.165704,-5.15414,-2.469393,-336.910004,-38.150002,-53.830002,1729471891277.0,0.0
-3.574877,-7.68096,-4.608576,-406.980011,-43.259998,-67.760002,1729471891299.0,0.0
-3.783052,-8.441878,-6.814759,-423.98999,-26.32,-72.099998,1729471891318.0,0.0
-4.182654,-7.456036,-7.264609,-365.190002,-19.74,-64.68,1729471891337.0,0.0
-3.261417,-4.682754,-6.355337,-296.100006,-34.369999,-58.170002,1729471891358.0,0.0
-2.512464,-3.041277,-7.077969,-280.279999,-33.950001,-44.59,1729471891377.0,0.0
-1.923829,-4.457829,-8.025528,-282.029999,-34.09,-40.740002,1729471891398.0,0.0
-1.337588,-7.446464,-9.19801,-243.040009,-38.57,-35.209999,1729471891417.0,0.0
-0.624527,-12.696317,-10.382458,-128.029999,-49.84,-34.93,1729471891437.0,0.0
-0.301496,-8.705089,-9.891929,22.4,-29.75,-24.99,1729471891458.0,0.0
-1.304088,-7.719246,-10.849058,191.800003,-29.540001,18.9,1729471891478.0,0.0
-3.115455,-7.812566,-9.298509,296.380005,0.49,34.16,1729471891500.0,0.0
-5.225924,-6.647261,-9.154939,383.670013,20.65,40.25,1729471891517.0,0.0
-5.261817,-6.288338,-9.090333,488.809998,-0.63,80.360001,1729471891538.0,0.0
-4.335794,-5.611169,-6.522834,587.859985,-8.47,103.110001,1729471891557.0,0.0
-7.319644,-5.228317,-2.206182,585.47998,101.849998,84.139999,1729471891577.0,0.0
-9.729217,-6.876972,-1.730011,526.190002,108.779999,74.970001,1729471891599.0,0.0
-8.717053,-8.341379,-1.605584,446.670013,53.48,45.220001,1729471891618.0,0.0
-6.683154,-7.893922,0.325424,354.829987,46.48,14.35,1729471891636.0,0.0
-6.26441,-5.737988,1.402194,230.930008,50.400002,3.64,1729471891659.0,0.0
-5.388636,-7.590034,0.9667,13.79,42.139999,-34.860001,1729471891678.0,0.0
-4.402793,-11.277373,-1.026521,-260.26001,47.18,-66.5,1729471891698.0,0.0
-1.261017,-13.237095,-2.581856,-368.339996,75.389999,-90.090004,1729471891718.0,0.0
0.856631,-12.428321,3.242275,-248.919998,103.110001,-66.5,1729471891738.0,0.0
1.72044,-10.171888,10.061819,-31.08,88.059998,-36.889999,1729471891756.0,0.0
2.711068,-4.249653,12.373285,69.860001,43.470001,-23.030001,1729471891778.0,0.0
0.133998,-2.18704,12.198609,8.33,-8.33,13.58,1729471891798.0,0.0
-3.634698,-6.738188,6.9679,-163.449997,-65.449997,9.73,1729471891817.0,0.0
-4.888536,-9.616754,-0.050249,-290.079987,-111.090004,-9.94,1729471891838.0,0.0
-4.534399,-7.369894,-5.828916,-323.679993,-139.440002,-23.24,1729471891856.0,0.0
-7.001399,-9.944571,-6.879365,-274.610016,-142.660004,-13.09,1729471891876.0,0.0
-12.351749,-8.329416,-15.524633,-276.149994,-83.650002,-58.170002,1729471891898.0,0.0
-12.272788,-7.345965,-16.936398,-73.919998,-1.82,-41.439999,1729471891917.0,0.0
-8.386844,-8.212167,-13.653446,17.99,48.790001,-42.349998,1729471891937.0,0.0
-5.733203,-6.881758,-10.406385,44.869999,91.0,-41.369999,1729471891958.0,0.0
-3.141776,-5.754738,-9.075976,46.830002,108.57,-33.040001,1729471891976.0,0.0
-0.485743,-4.61097,-6.556334,78.330002,129.639999,-17.290001,1729471891998.0,0.0
0.557528,-6.642475,3.251846,124.32,142.520004,8.47,1729471892023.0,0.0
1.505085,-5.300103,11.873186,209.649994,109.690002,24.92,1729471892037.0,0.0
1.261017,-1.261017,14.969498,222.460007,48.23,48.09,1729471892056.0,0.0
-1.806581,-2.120041,12.643675,70.419998,-26.530001,57.189999,1729471892077.0,0.0
-3.208775,-6.71426,5.565705,-95.480003,-98.769997,60.200001,1729471892098.0,0.0
-2.888137,-9.157332,-3.474378,-193.970001,-150.710007,43.82,1729471892118.0,0.0
-4.599005,-9.525827,-12.916457,-269.640015,-154.910004,24.360001,1729471892137.0,0.0
-8.707481,-15.562919,-14.266008,-216.369995,-102.199997,26.040001,1729471892156.0,0.0
-13.672589,-16.125233,-15.230316,-98.419998,-6.09,-16.870001,1729471892177.0,0.0
-12.796815,-11.3683,-13.871193,107.029999,32.549999,-10.29,1729471892208.0,0.0
-5.793024,-7.781459,-11.574083,196.490005,20.16,-30.59,1729471892217.0,0.0
-1.304088,-6.752545,-7.609176,159.600006,56.420002,-47.18,1729471892238.0,0.0
-0.641276,-8.896514,-7.13779,96.459999,103.529999,-39.48,1729471892257.0,0.0
-0.586242,-7.379465,1.421337,105.980003,116.059998,-36.119999,1729471892277.0,0.0
-1.837688,-8.341379,6.104091,133.070007,80.709999,-24.780001,1729471892299.0,0.0
-0.074178,-6.798009,6.04427,208.740005,40.670002,-17.92,1729471892318.0,0.0
2.70389,-1.411765,7.262216,310.799988,3.71,10.57,1729471892337.0,0.0
1.033699,-0.827917,11.906685,337.890015,-9.38,57.889999,1729471892358.0,0.0
-5.278566,-3.287738,12.717852,147.910004,-35.98,63.560001,1729471892378.0,0.0
-8.260024,-9.611969,5.647062,-101.989998,-91.559998,51.939999,1729471892399.0,0.0
-8.671589,-16.022341,0.51685,-311.98999,-111.790001,-1.96,1729471892418.0,0.0
-8.446664,-17.728422,-5.199604,-423.360016,-127.260002,-50.610001,1729471892438.0,0.0
-7.04447,-18.635302,-6.295516,-338.309998,-108.57,-86.029999,1729471892458.0,0.0
-3.012564,-13.55534,-9.616754,-116.690002,-93.379997,-100.449997,1729471892479.0,0.0
-0.794417,-9.317651,-8.243275,165.339996,-50.119999,-70.419998,1729471892500.0,0.0
-3.524628,-3.694518,-2.541178,287.630005,-2.03,-55.09,1729471892518.0,0.0
-4.785645,-7.800602,-3.079563,187.529999,21.49,-21.91,1729471892538.0,0.0
-2.943172,-7.41775,-4.855037,65.099998,21.77,-34.02,1729471892558.0,0.0
-1.354338,-5.709275,-3.07717,59.920002,41.439999,-9.24,1729471892578.0,0.0
-2.29711,-4.45065,0.148355,95.760002,48.439999,15.61,1729471892601.0,0.0
-3.266203,-7.647461,-1.866402,141.259995,43.189999,28.49,1729471892619.0,0.0
-2.639283,-7.716853,-6.252446,169.470001,54.670002,30.66,1729471892638.0,0.0
-1.758725,-10.145569,-3.026921,173.460007,90.720001,19.530001,1729471892658.0,0.0
-3.768696,-8.38445,1.40698,114.169998,98.209999,0.56,1729471892678.0,0.0
-4.386044,-10.186246,5.458029,38.779999,62.369999,5.6,1729471892703.0,0.0
-2.287539,-9.559326,5.936593,-19.879999,37.52,-17.290001,1729471892722.0,0.0
-1.995614,-9.779467,3.969693,-42.07,23.940001,-18.690001,1729471892741.0,0.0
-1.737189,-10.604989,2.306681,-29.960001,20.860001,-32.41,1729471892759.0,0.0
-0.787239,-10.363315,2.617748,13.09,31.360001,-37.240002,1729471892780.0,0.0
1.261017,-5.144568,4.701896,55.439999,49.490002,-42.98,1729471892802.0,0.0
2.612962,0.200997,7.728817,121.940002,49.139999,1.05,1729471892822.0,0.0
0.598206,-1.574477,12.787244,121.309998,38.43,51.240002,1729471892839.0,0.0
-3.641876,-2.749353,12.143576,70.139999,-0.35,86.029999,1729471892860.0,0.0
-5.87438,-5.563312,8.803195,61.529999,-37.939999,126.559998,1729471892881.0,0.0
-5.28096,-8.405986,3.570091,11.13,-48.860001,112.840004,1729471892902.0,0.0
-5.771489,-6.094519,2.103291,-115.43,-38.150002,114.169998,1729471892924.0,0.0
-8.061419,-8.547162,-3.333202,-199.570007,-39.060001,129.009995,1729471892939.0,0.0
-13.079168,-14.847464,-7.223931,-195.229996,-51.73,111.160004,1729471892959.0,0.0
-12.918849,-21.865614,-11.229517,-68.25,-27.370001,58.52,1729471892980.0,0.0
-8.386844,-22.21736,-6.518049,58.52,24.5,-27.440001,1729471893001.0,0.0
-4.577469,-11.521441,-0.70349,122.360001,62.510002,-62.09,1729471893024.0,0.0
-2.459821,-4.754539,4.876573,117.599998,55.439999,-69.230003,1729471893039.0,0.0
-0.90688,-7.235896,3.349952,12.6,11.76,-79.239998,1729471893060.0,0.0
-1.064806,-7.709675,4.06062,-47.459999,25.76,-85.82,1729471893079.0,0.0
-2.684747,-7.649854,5.582455,42.560001,52.150002,-54.25,1729471893101.0,0.0
-1.624727,-4.206582,6.60419,60.48,35.630001,-57.959999,1729471893120.0,0.0
-1.124627,-4.924429,8.142776,58.450001,22.26,-23.870001,1729471893140.0,0.0
-1.26341,-1.375873,8.281559,78.889999,8.12,16.52,1729471893160.0,0.0
-3.062813,-2.940779,8.066205,105.489998,-1.68,73.57,1729471893181.0,0.0
-4.895715,-5.702096,6.400801,54.670002,-11.27,78.889999,1729471893201.0,0.0
-5.309673,-6.104091,4.204189,-21.98,-12.32,88.900002,1729471893220.0,0.0
-6.285945,-7.343572,2.136791,-102.690002,-18.549999,108.709999,1729471893240.0,0.0
-10.018748,-11.459228,0.038285,-159.949997,-32.48,99.959999,1729471893260.0,0.0
-12.832708,-17.953348,-5.199604,-152.809998,-53.41,60.41,1729471893280.0,0.0
-9.949356,-20.824736,-6.678369,-39.970001,-33.389999,-6.86,1729471893302.0,0.0
-8.082954,-17.70928,-2.888137,99.68,30.59,-66.360001,1729471893320.0,0.0
-6.606583,-8.707481,1.182054,161.419998,48.16,-103.18,1729471893339.0,0.0
-4.299902,-4.316652,1.89033,140.210007,29.120001,-103.25,1729471893361.0,0.0
-1.37348,-3.658626,3.479164,15.4,-10.29,-113.540001,1729471893380.0,0.0
0.87338,-4.881358,2.364109,-38.150002,-0.14,-90.300003,1729471893402.0,0.0
1.552942,-4.704289,5.458029,-3.22,32.689999,-69.160004,1729471893419.0,0.0
-0.70349,-3.804588,9.013763,59.849998,45.5,-23.24,1729471893439.0,0.0
-3.885944,-1.258625,10.229317,84.0,32.200001,15.12,1729471893462.0,0.0
-6.130411,-4.295116,6.319445,-11.34,1.47,36.959999,1729471893480.0,0.0
-5.230711,-7.472785,3.177669,-226.800003,-38.920002,0.21,1729471893501.0,0.0
-4.792823,-8.941978,1.919044,-313.25,-45.990002,4.06,1729471893521.0,0.0
-4.630112,-6.994221,0.428315,-370.369995,-45.009998,-15.82,1729471893539.0,0.0
-5.209175,-5.130211,-2.088934,-459.410004,-42.91,-25.27,1729471893559.0,0.0
-5.020142,-3.014957,-5.594419,-579.599976,-69.720001,-53.760002,1729471893580.0,0.0
-5.221139,-1.775474,-8.23131,-634.27002,-72.730003,-56.560001,1729471893601.0,0.0
-5.371887,-3.306881,-12.157932,-599.619995,-69.510002,-45.5,1729471893620.0,0.0
-4.962714,-8.559127,-13.294522,-517.929993,-59.010002,-53.41,1729471893640.0,0.0
-4.292724,-7.013363,-9.71486,-356.860016,-35.0,-40.529999,1729471893660.0,0.0
-5.173282,-1.490728,-8.755339,-217.490005,-40.810001,-5.18,1729471893678.0,0.0
-5.285746,0.717847,-10.911271,-213.850006,-21.139999,2.45,1729471893701.0,0.0
-4.39083,-8.614161,-9.868,-180.320007,-17.219999,19.25,1729471893719.0,0.0
-3.627519,-13.842479,-11.880364,-181.089996,-5.67,-56.209999,1729471893739.0,0.0
-1.148555,-5.570491,-9.982857,-170.660004,-3.29,-68.949997,1729471893761.0,0.0
-0.421137,-3.213561,-8.628519,-122.57,-2.1,-41.650002,1729471893778.0,0.0
0.29671,-3.426522,-7.41775,-85.959999,-2.87,-45.150002,1729471893800.0,0.0
-0.002393,-5.685347,-8.999406,-51.099998,-13.09,-29.4,1729471893822.0,0.0
-0.131605,-6.611369,-10.023535,-26.6,-17.360001,-14.14,1729471893838.0,0.0
-0.521635,-6.54437,-11.294124,17.290001,-18.549999,-12.81,1729471893858.0,0.0
-1.217947,-4.716253,-11.236694,55.299999,-10.22,-13.65,1729471893879.0,0.0
-2.067399,-3.830909,-9.970891,70.769997,-2.66,-1.26,1729471893900.0,0.0
-2.665605,-5.194818,-8.724231,73.709999,4.76,9.38,1729471893919.0,0.0
-2.758924,-7.118648,-9.300901,101.43,10.29,12.53,1729471893939.0,0.0
-2.878566,-7.355537,-10.049855,158.339996,16.870001,11.13,1729471893960.0,0.0
-3.428915,-6.443871,-9.640682,233.800003,29.33,14.7,1729471893978.0,0.0
-4.381258,-4.802395,-8.530413,292.809998,38.080002,20.51,1729471894000.0,0.0
-5.32403,-4.534399,-8.039884,318.220001,40.880001,19.950001,1729471894023.0,0.0
-5.402994,-4.733003,-8.106883,294.559998,42.560001,12.11,1729471894038.0,0.0
-5.264209,-5.694918,-7.51107,272.089996,40.670002,13.09,1729471894059.0,0.0
-5.340781,-6.106483,-6.15434,264.320007,37.73,13.79,1729471894079.0,0.0
-5.453243,-6.661618,-5.151747,317.519989,24.85,26.74,1729471894101.0,0.0
-5.259424,-7.381857,-5.60399,427.839996,6.44,49.349998,1729471894119.0,0.0
-4.962714,-5.907879,-3.744767,494.059998,18.34,47.110001,1729471894138.0,0.0
-6.419943,-4.98425,1.031307,457.799988,44.799999,41.580002,1729471894158.0,0.0
-6.79083,-7.822137,3.096312,293.929993,38.920002,41.23,1729471894179.0,0.0
-5.443672,-8.020741,0.098106,137.690002,27.09,11.76,1729471894200.0,0.0
-4.500899,-8.303094,-0.375673,35.91,25.549999,-1.4,1729471894220.0,0.0
-4.59422,-10.188639,-0.026321,0.84,43.75,-5.39,1729471894246.0,0.0
-3.359523,-6.821937,1.129412,-3.5,60.200001,-13.02,1729471894260.0,0.0
-0.868595,-3.56052,3.479164,15.05,70.840004,7.7,1729471894278.0,0.0
0.476172,-4.725825,6.178268,24.85,64.959999,26.389999,1729471894303.0,0.0
-0.808774,-7.302894,5.948557,47.599998,56.630001,54.040001,1729471894321.0,0.0
-3.641876,-7.939385,4.48415,91.0,47.950001,72.590004,1729471894339.0,0.0
-4.658825,-7.06122,3.345166,78.260002,30.24,77.489998,1729471894359.0,0.0
-4.366901,-7.54457,2.397608,22.049999,7.7,78.190002,1729471894380.0,0.0
-4.737789,-10.004392,0.981057,16.870001,-10.78,85.610001,1729471894403.0,0.0
-6.360123,-12.337393,1.112662,63.630001,-13.3,81.199997,1729471894420.0,0.0
-8.408379,-11.696117,1.837688,82.18,-5.81,57.330002,1729471894449.0,0.0
-8.736196,-10.875379,1.100698,56.209999,-12.32,33.740002,1729471894459.0,0.0
-7.097112,-12.296716,1.816152,-12.67,-37.939999,-5.18,1729471894481.0,0.0
-5.316852,-11.641083,2.18704,-8.26,-35.77,-30.59,1729471894501.0,0.0
-4.273581,-10.205389,3.24706,23.870001,-20.93,-42.490002,1729471894522.0,0.0
-3.960121,-7.73121,3.165704,2.8,-17.01,-52.080002,1729471894540.0,0.0
-3.548556,-6.496514,2.888137,-44.380001,-15.05,-50.75,1729471894617.0,0.0
-3.505485,-6.898508,3.522235,-130.899994,-9.59,-56.98,1729471894618.0,0.0
-3.979264,-7.166504,2.811567,-206.639999,-14.7,-59.080002,1729471894618.0,0.0
-3.991228,-9.580862,1.840081,-165.479996,-25.549999,-41.790001,1729471894651.0,0.0
-3.838088,-11.01177,-0.552742,-123.900002,-28.84,-46.130001,1729471894651.0,0.0
-3.383451,-9.906286,-2.069792,-100.449997,-10.92,-57.049999,1729471894661.0,0.0
-4.453043,-6.762117,0.351745,-142.240005,22.610001,-58.66,1729471894680.0,0.0
-6.029913,-5.580062,1.74676,-246.540009,23.59,-50.610001,1729471894702.0,0.0
-5.759524,-6.884151,-0.830309,-310.940002,-18.27,-64.540001,1729471894722.0,0.0
-4.237689,-7.219146,-2.565106,-354.899994,-38.220001,-84.769997,1729471894741.0,0.0
-4.517649,-2.254039,-2.270789,-481.179993,-27.51,-98.699997,1729471894760.0,0.0
-4.517649,-4.333402,-5.163712,-626.080017,-36.68,-115.989998,1729471894787.0,0.0
-3.5007,-9.396614,-5.099105,-513.450012,-52.290001,-91.769997,1729471894802.0,0.0
-1.646262,-8.389235,-6.644868,-328.790009,-59.779999,-70.489998,1729471894821.0,0.0
-1.07677,-8.650054,-12.916457,-85.889999,-56.209999,-20.719999,1729471894841.0,0.0
-1.189233,-10.80838,-17.97249,168.279999,-19.110001,25.200001,1729471894869.0,0.0
-1.404587,-10.468598,-11.253445,361.829987,38.920002,55.02,1729471894881.0,0.0
-3.507878,-5.534599,-4.354938,508.410004,73.150002,91.489998,1729471894902.0,0.0
-5.402994,-5.659025,-3.282953,615.859985,40.740002,123.690002,1729471894921.0,0.0
-4.828716,-6.046663,-3.215954,600.599976,4.2,109.129997,1729471894940.0,0.0
-4.275974,-4.567898,-0.662812,507.920013,20.23,80.150002,1729471894964.0,0.0
-5.871986,-5.948557,3.046063,454.440002,33.459999,93.800003,1729471894981.0,0.0
-7.312466,-6.592227,3.213561,389.76001,13.93,104.090004,1729471895002.0,0.0
-7.590034,-8.403593,4.299902,280.910004,1.61,96.18,1729471895024.0,0.0
-6.252446,-8.46102,0.294317,73.989998,-18.48,53.549999,1729471895040.0,0.0
-5.946165,-9.001799,-2.35693,-133.979996,-23.870001,22.049999,1729471895060.0,0.0
-8.185846,-10.928021,-1.596013,-318.709991,-15.96,1.12,1729471895082.0,0.0
-7.673782,-14.871392,-7.953743,-377.51001,-24.639999,-45.290001,1729471895101.0,0.0
-6.254838,-10.758131,-6.218946,-202.509995,28.559999,-83.230003,1729471895121.0,0.0
-4.9675,-7.960921,-3.421736,-142.240005,54.110001,-93.800003,1729471895140.0,0.0
-4.816752,-7.369894,-2.230111,-186.970001,77.349998,-93.660004,1729471895160.0,0.0
-1.911865,-9.999605,-0.935594,-192.289993,69.93,-91.910004,1729471895182.0,0.0
2.081756,-8.769694,4.110869,-80.919998,63.420002,-69.019997,1729471895205.0,0.0
1.928615,-4.831109,9.45165,39.060001,52.150002,-27.23,1729471895220.0,0.0
0.366102,-3.639483,8.221739,39.34,13.93,-2.87,1729471895240.0,0.0
-1.627119,-6.721439,7.037291,-39.759998,-25.549999,16.24,1729471895261.0,0.0
-2.440679,-8.84148,3.491128,-118.93,-70.769997,19.6,1729471895309.0,0.0
-3.058028,-8.16431,-2.242075,-174.300003,-113.889999,17.08,1729471895310.0,0.0
-3.897908,-8.441878,-9.054441,-213.710007,-134.259995,6.23,1729471895373.0,0.0
-6.742974,-11.373087,-12.957134,-219.240005,-108.010002,-9.8,1729471895375.0,0.0
-11.746366,-13.24188,-14.97907,-150.639999,-44.240002,-40.389999,1729471895377.0,0.0
-12.150753,-9.367901,-17.678173,-8.12,9.24,-66.080002,1729471895380.0,0.0
-6.936793,-5.795416,-12.610175,107.449997,19.809999,-51.52,1729471895400.0,0.0
-3.359523,-5.84088,-9.056834,100.800003,54.740002,-60.48,1729471895421.0,0.0
-2.816352,-4.599005,-5.460421,-2.73,91.0,-43.75,1729471895441.0,0.0
-1.215554,-6.393622,-4.883751,0.77,89.459999,-25.620001,1729471895459.0,0.0
0.545564,-8.193025,-0.193819,28.84,96.739998,-7.42,1729471895480.0,0.0
0.619741,-7.135397,7.613962,77.07,92.330002,15.26,1729471895505.0,0.0
0.272782,-6.13759,11.016556,86.519997,44.52,26.110001,1729471895520.0,0.0
-0.794417,-6.245267,9.090333,41.23,-18.969999,34.790001,1729471895539.0,0.0
-2.732604,-6.831509,4.910072,-49.490002,-72.660004,41.93,1729471895559.0,0.0
-3.122634,-7.149754,-3.445665,-145.389999,-133.350006,33.389999,1729471895579.0,0.0
-3.141776,-8.82473,-13.816156,-204.470001,-165.199997,12.53,1729471895601.0,0.0
-6.360123,-9.803394,-13.974084,-217.419998,-123.550003,-4.27,1729471895620.0,0.0
-12.55514,-11.437693,-14.766108,-158.270004,-43.470001,-26.32,1729471895640.0,0.0
-14.098512,-8.568698,-18.750158,-20.790001,24.639999,-37.029999,1729471895661.0,0.0
-7.334002,-6.73101,-14.141582,91.489998,32.34,-23.870001,1729471895681.0,0.0
-3.218346,-5.85763,-8.463413,76.790001,82.18,-38.779999,1729471895702.0,0.0
-2.026721,-3.749553,-7.233503,38.849998,108.639999,-28.700001,1729471895720.0,0.0
-0.760918,-3.859623,-6.118448,63.560001,108.779999,-0.63,1729471895740.0,0.0
0.622134,-6.647261,1.916651,75.599998,110.32,12.6,1729471895760.0,0.0
-0.086142,-10.277173,9.150154,105.349998,69.300003,23.030001,1729471895781.0,0.0
0.488136,-8.693125,8.319844,140.419998,10.5,32.619999,1729471895812.0,0.0
-0.452243,-6.15434,7.52782,102.199997,-40.18,39.34,1729471895821.0,0.0
-1.823331,-6.185446,4.582255,-44.099998,-93.800003,34.650002,1729471895841.0,0.0
-3.359523,-8.037491,-6.56112,-238.979996,-144.899994,9.8,1729471895860.0,0.0
-3.404987,-12.497713,-14.490934,-307.579987,-154.770004,-22.469999,1729471895879.0,0.0
-5.910272,-12.976277,-14.445471,-170.940002,-110.739998,-33.599998,1729471895902.0,0.0
-11.643474,-11.399406,-15.821342,31.290001,-23.73,-32.48,1729471895921.0,0.0
-12.205789,-8.312666,-16.986649,143.5,25.41,-28.139999,1729471895942.0,0.0
-5.881558,-3.969693,-12.952348,133.279999,23.379999,-35.139999,1729471895959.0,0.0
-0.605384,-3.850052,-10.293922,67.199997,46.34,-41.650002,1729471895979.0,0.0
-0.299103,-4.575077,-8.106883,30.52,97.019997,-31.08,1729471896002.0,0.0
-2.045863,-5.106283,-3.199204,62.650002,113.610001,-0.77,1729471896023.0,0.0
-1.665405,-6.951149,1.055235,62.16,103.879997,3.57,1729471896041.0,0.0
-1.043271,-9.597611,5.577669,59.360001,82.949997,11.41,1729471896059.0,0.0
-0.562313,-10.217353,7.575676,114.870003,42.98,21.139999,1729471896080.0,0.0
-1.730011,-6.910471,5.498707,117.18,-3.01,8.82,1729471896101.0,0.0
-1.758725,-6.692725,1.103091,-9.31,-75.739998,14.21,1729471896122.0,0.0
-1.316052,-8.11167,-5.608776,-117.739998,-112.559998,8.12,1729471896140.0,0.0
-1.971686,-10.461421,-10.573883,-161.070007,-109.410004,4.41,1729471896159.0,0.0
-5.520242,-13.048061,-9.793823,-111.860001,-58.240002,4.9,1729471896179.0,0.0
-10.109675,-11.021341,-10.561919,-5.11,-10.01,2.66,1729471896201.0,0.0
-10.351351,-8.116454,-13.371094,83.230003,15.96,-4.83,1729471896221.0,0.0
-5.943772,-6.226124,-10.133603,76.019997,11.34,-12.46,1729471896240.0,0.0
-2.45025,-6.585048,-8.338986,28.07,36.82,-27.93,1729471896259.0,0.0
-2.799603,-6.683154,-6.769295,-4.83,78.400002,-20.440001,1729471896280.0,0.0
-2.979064,-6.831509,-6.331409,4.83,87.639999,-10.22,1729471896301.0,0.0
-1.591227,-7.652246,-4.06062,36.889999,86.309998,0.91,1729471896321.0,0.0
-0.985843,-8.726624,1.672583,57.400002,85.470001,11.76,1729471896339.0,0.0
-1.165305,-9.501899,6.74776,43.470001,69.860001,4.48,1729471896360.0,0.0
-0.416351,-9.399008,8.843873,16.309999,16.030001,-6.65,1729471896379.0,0.0
-0.196211,-9.21476,6.06102,-22.049999,-45.360001,-21.77,1729471896403.0,0.0
-2.354537,-8.630912,3.476771,-86.029999,-80.919998,-26.67,1729471896419.0,0.0
-2.691926,-8.372486,-4.838287,-136.919998,-123.760002,-40.32,1729471896444.0,0.0
-2.292324,-7.300502,-9.504292,-140.350006,-154.490005,-41.650002,1729471896460.0,0.0
-4.381258,-9.250652,-11.303694,-107.099998,-110.32,-22.540001,1729471896479.0,0.0
-8.49452,-10.485349,-11.662617,-9.73,-41.860001,0.35,1729471896501.0,0.0
-9.609575,-8.140383,-15.337994,103.739998,15.12,15.12,1729471896526.0,0.0
-6.360123,-5.98445,-12.516854,123.340004,26.040001,26.950001,1729471896539.0,0.0
-2.634498,-5.778666,-9.793823,87.360001,44.869999,9.87,1729471896559.0,0.0
-2.663212,-6.159126,-8.542377,61.529999,88.059998,14.56,1729471896580.0,0.0
-3.079563,-5.982057,-6.053841,62.09,108.360001,22.540001,1729471896601.0,0.0
-1.931008,-6.314659,-2.347359,53.549999,111.300003,29.120001,1729471896620.0,0.0
-1.021735,-8.523234,4.826324,28.35,108.360001,30.73,1729471896639.0,0.0
-0.72024,-9.595219,9.856036,42.630001,77.349998,32.759998,1729471896659.0,0.0
0.162712,-8.003991,8.487342,52.080002,9.52,26.950001,1729471896679.0,0.0
-1.225125,-7.592427,5.752346,-6.23,-45.009998,21.42,1729471896700.0,0.0
-2.282753,-8.623734,0.68674,-103.809998,-94.080002,17.360001,1729471896721.0,0.0
-2.380858,-10.207782,-8.032705,-177.449997,-139.369995,2.8,1729471896740.0,0.0
-2.981457,-11.028521,-13.959727,-190.680008,-132.930008,-14.28,1729471896759.0,0.0
-11.861222,-11.889936,-12.976277,-131.039993,-48.369999,-7.91,1729471896779.0,0.0
-13.710874,-8.930015,-16.156338,79.449997,57.260002,-13.09,1729471896804.0,0.0
-6.73101,-6.491727,-12.007183,136.639999,22.33,-11.06,1729471896820.0,0.0
-1.361516,-5.704489,-10.179067,91.279999,51.799999,-41.369999,1729471896840.0,0.0
-0.681954,-4.371687,-7.259824,45.290001,101.43,-29.4,1729471896859.0,0.0
-0.782453,-5.333601,-3.897908,70.349998,119.209999,-1.75,1729471896879.0,0.0
0.502493,-6.355337,5.67099,139.860001,106.260002,23.1,1729471896901.0,0.0
0.638884,-4.225725,11.739187,202.440002,72.099998,48.580002,1729471896920.0,0.0
-1.378266,-6.348158,9.973285,162.610001,14.49,59.43,1729471896940.0,0.0
-4.491328,-7.927422,8.949157,65.940002,-36.119999,51.52,1729471896959.0,0.0
-5.151747,-7.925028,4.244867,-21.210001,-96.669998,51.939999,1729471896989.0,0.0
-4.386044,-10.255639,-4.65404,-117.25,-141.960007,32.200001,1729471897004.0,0.0
-6.132804,-10.832308,-10.487741,-171.710007,-127.400002,19.950001,1729471897022.0,0.0
-10.262815,-14.263616,-10.456635,-118.230003,-69.93,16.73,1729471897040.0,0.0
-8.652447,-15.290136,-13.998013,43.330002,-33.389999,-0.7,1729471897060.0,0.0
-4.572684,-9.71486,-8.149954,171.919998,-26.32,-4.27,1729471897081.0,0.0
-2.610569,-3.802195,-4.323831,163.729996,12.88,3.08,1729471897101.0,0.0
-2.907279,-11.095518,-5.192425,61.459999,28.210001,-3.5,1729471897120.0,0.0
-3.988836,-10.600205,-5.371887,26.110001,51.450001,-19.110001,1729471897139.0,0.0
-3.388237,-6.79083,-4.677969,52.080002,56.139999,-28.77,1729471897159.0,0.0
-1.694118,-3.591627,-0.078963,38.990002,37.380001,-25.200001,1729471897181.0,0.0
-2.155933,-6.855437,-0.693919,3.57,30.450001,0.35,1729471897200.0,0.0
-3.507878,-11.499906,-1.584049,-44.52,32.48,-18.41,1729471897220.0,0.0
-3.304488,-11.679367,-2.177469,-3.64,26.530001,-15.4,1729471897240.0,0.0
-2.191825,-9.018548,-0.258425,47.740002,31.85,-9.1,1729471897259.0,0.0
-1.002593,-7.472785,1.727618,38.990002,26.6,-9.45,1729471897279.0,0.0
-0.430708,-7.865208,2.861816,63.349998,17.5,15.61,1729471897302.0,0.0
-1.751546,-8.896514,4.871787,110.18,14.0,30.73,1729471897320.0,0.0
-4.9675,-9.722038,6.204589,81.340004,8.96,32.48,1729471897340.0,0.0
-6.398407,-9.147761,4.555934,-4.69,-22.82,13.02,1729471897367.0,0.0
-4.761717,-8.606983,1.739582,-42.07,-55.790001,22.960001,1729471897379.0,0.0
-3.256632,-4.862216,-2.062613,-86.449997,-61.459999,20.65,1729471897403.0,0.0
-6.675975,-9.52822,-3.488736,-139.789993,-48.369999,27.370001,1729471897421.0,0.0
-5.836094,-15.220744,-11.916256,-108.080002,-27.719999,9.73,1729471897440.0,0.0
-4.744967,-10.925629,-9.578469,70.349998,1.05,-8.26,1729471897459.0,0.0
-5.261817,-6.226124,-6.695118,62.510002,37.52,-31.710001,1729471897479.0,0.0
-4.402793,-6.364908,-5.962914,-31.92,24.5,-46.970001,1729471897500.0,0.0
-3.833302,-9.020942,-5.32403,-81.620003,23.66,-48.09,1729471897521.0,0.0
-3.273381,-10.246067,-3.914658,-75.110001,21.49,-61.18,1729471897542.0,0.0
-3.206382,-10.188639,-3.510271,-11.69,28.84,-55.650002,1729471897560.0,0.0
-3.196811,-7.295716,-0.794417,90.300003,32.200001,-33.670002,1729471897581.0,0.0
-2.770889,-5.938986,0.035892,137.899994,41.720001,-13.440001,1729471897602.0,0.0
-1.74676,-7.580462,0.16989,77.0,46.060001,-26.6,1729471897621.0,0.0
-0.430708,-6.580262,0.210568,76.93,45.150002,2.31,1729471897641.0,0.0
0.105284,-5.888737,3.495914,124.879997,60.130001,29.889999,1729471897661.0,0.0
-2.792424,-8.13799,7.37468,153.160004,40.110001,51.59,1729471897682.0,0.0
-3.699304,-8.25763,6.817152,215.25,15.12,69.650002,1729471897702.0,0.0
-3.117848,-8.204988,7.338787,231.770004,-7.14,71.959999,1729471897721.0,0.0
-4.197011,-7.477571,4.469792,124.389999,-8.61,63.139999,1729471897742.0,0.0
-4.792823,-8.432307,1.902294,-145.600006,-25.41,47.670002,1729471897761.0,0.0
-4.436293,-12.533605,-1.545763,-246.75,-50.470001,32.830002,1729471897781.0,0.0
-4.331009,-16.862221,-5.551349,-247.660004,-57.68,12.88,1729471897802.0,0.0
-3.292524,-14.957534,-7.37468,-147.0,-42.07,-21.559999,1729471897823.0,0.0
-3.835695,-9.253045,-5.733203,-84.769997,3.92,-41.09,1729471897842.0,0.0
-7.030113,-3.072384,-0.985843,-180.389999,38.009998,-41.23,1729471897861.0,0.0
-7.200003,-2.053042,-1.828116,-322.630005,0.63,-54.110001,1729471897883.0,0.0
-4.907679,-6.924829,-3.491128,-400.049988,-54.599998,-69.580002,1729471897904.0,0.0
-3.306881,-7.99442,-2.711068,-418.600006,-59.5,-71.889999,1729471897922.0,0.0
-5.036892,-7.518249,-3.101098,-383.670013,-34.439999,-73.57,1729471897941.0,0.0
-5.123034,-4.826324,-5.458029,-339.850006,-43.75,-78.68,1729471897962.0,0.0
-3.739982,-2.203789,-6.817152,-294.700012,-56.490002,-51.170002,1729471897982.0,0.0
-2.486143,-3.196811,-8.896514,-277.970001,-50.540001,-45.220001,1729471898003.0,0.0
-1.962115,-6.905686,-10.078569,-233.589996,-40.810001,-32.759998,1729471898024.0,0.0
-0.591027,-10.542776,-10.58824,-108.5,-46.830002,-12.39,1729471898042.0,0.0
-0.677169,-9.142976,-11.356337,125.93,-32.759998,3.64,1729471898062.0,0.0
-1.842474,-6.357729,-9.60479,213.149994,-11.2,21.139999,1729471898086.0,0.0
-3.519842,-7.597212,-6.69751,266.980011,-6.72,42.209999,1729471898103.0,0.0
-4.182654,-6.369694,-8.52802,361.339996,-14.49,60.900002,1729471898123.0,0.0
-4.271189,-5.927022,-8.693125,548.659973,-34.439999,104.720001,1729471898141.0,0.0
-6.149554,-5.85763,-3.658626,627.690002,9.87,115.220001,1729471898161.0,0.0
-8.020741,-2.18704,-0.701097,519.679993,75.669998,75.18,1729471898182.0,0.0
-10.243673,-5.807381,0.282353,410.829987,57.68,101.57,1729471898204.0,0.0
-8.62134,-9.846465,-0.787239,334.529999,-0.91,70.629997,1729471898223.0,0.0
-8.188239,-11.100305,-1.038485,277.619995,12.81,40.25,1729471898241.0,0.0
-10.540384,-11.74158,-0.885344,225.470001,49.07,26.950001,1729471898263.0,0.0
-9.638289,-10.234102,1.837688,152.529999,41.16,-29.889999,1729471898283.0,0.0
-7.412964,-7.300502,0.258425,10.99,38.779999,-68.040001,1729471898302.0,0.0
-6.022735,-8.178668,-1.354338,-139.580002,34.720001,-88.059998,1729471898322.0,0.0
-5.642276,-11.600404,-3.56052,-229.880005,45.290001,-105.139999,1729471898343.0,0.0
-4.445865,-13.45245,-4.201797,-190.399994,59.990002,-111.230003,1729471898363.0,0.0
-2.490928,-11.96172,-1.165305,-51.59,83.090004,-99.120003,1729471898381.0,0.0
-2.361716,-8.55434,2.493321,94.150002,70.279999,-97.370003,1729471898406.0,0.0
-0.48335,-5.374279,5.982057,155.960007,64.75,-75.32,1729471898421.0,0.0
0.993021,-1.952543,7.039684,124.110001,37.939999,-68.599998,1729471898442.0,0.0
1.071985,-2.971886,7.783852,56.560001,16.379999,-43.82,1729471898460.0,0.0
-0.232104,-3.814159,7.771888,38.920002,-2.1,-13.02,1729471898480.0,0.0
-1.239482,-4.979464,7.068398,75.110001,-21.700001,23.030001,1729471898504.0,0.0
-2.019542,-8.250452,5.608776,130.199997,-34.720001,44.029999,1729471898521.0,0.0
-3.972085,-10.724631,6.190232,181.720001,-26.809999,56.349998,1729471898542.0,0.0
-5.809773,-10.542776,6.675975,193.759995,-19.110001,66.43,1729471898563.0,0.0
-5.63749,-9.255438,4.644469,139.369995,-21.559999,61.599998,1729471898583.0,0.0
-3.838088,-8.25763,2.266003,101.57,-31.290001,50.959999,1729471898604.0,0.0
-3.979264,-6.726225,-2.143969,113.82,-7.63,66.360001,1729471898621.0,0.0
-4.297509,-10.30828,-0.909273,88.410004,18.200001,51.380001,1729471898643.0,0.0
-5.711668,-9.327222,2.084148,3.5,23.870001,39.830002,1729471898662.0,0.0
-5.910272,-9.207582,2.59382,-8.75,5.53,40.599998,1729471898682.0,0.0
-6.362515,-7.740781,1.74676,-42.139999,-1.68,20.65,1729471898702.0,0.0
-6.343372,-6.723832,1.598405,-90.300003,-9.8,13.58,1729471898722.0,0.0
-7.168896,-5.273781,2.584249,-143.080002,3.36,6.02,1729471898742.0,0.0
-8.274381,-7.609176,0.859023,-263.339996,6.58,-28.630001,1729471898761.0,0.0
-6.501299,-9.750752,-0.327817,-285.73999,4.69,-49.630001,1729471898781.0,0.0
-4.199404,-9.166903,-0.157926,-218.680008,8.12,-45.43,1729471898804.0,0.0
-3.936193,-7.293324,-0.693919,-163.449997,23.379999,-33.880001,1729471898821.0,0.0
-4.445865,-5.898308,0.811167,-159.039993,30.66,-22.049999,1729471898841.0,0.0
-3.778267,-6.398407,-0.050249,-190.680008,17.92,-12.67,1729471898861.0,0.0
-3.326023,-7.487142,-0.90688,-214.899994,4.62,-2.38,1729471898881.0,0.0
-3.299703,-6.821937,-2.141576,-199.919998,-0.56,9.73,1729471898902.0,0.0
-4.273581,-6.491727,-3.909872,-207.199997,0.28,20.370001,1729471898922.0,0.0
-5.182854,-7.159326,-5.4341,-238.839996,1.47,14.56,1729471898941.0,0.0
-5.742774,-7.944171,-5.268995,-267.470001,-7.98,6.3,1729471898961.0,0.0
-4.721039,-9.372685,-6.520442,-264.529999,-21.210001,-14.28,1729471898981.0,0.0
-4.280759,-8.769694,-7.508677,-215.040009,-23.870001,-20.58,1729471899004.0,0.0
-3.976871,-5.931807,-8.815158,-197.960007,-18.9,-30.799999,1729471899024.0,0.0
-3.828516,-5.570491,-8.157133,-224.699997,-14.49,-33.670002,1729471899043.0,0.0
-2.292324,-8.611769,-8.267202,-283.98999,-13.58,-68.529999,1729471899062.0,0.0
-1.775474,-7.683353,-10.272388,-212.029999,-10.78,-56.91,1729471899081.0,0.0
-0.988236,-8.166703,-8.745767,-126.419998,-2.24,-59.709999,1729471899103.0,0.0
-1.584049,-3.65384,-8.403593,-58.52,-2.24,-43.259998,1729471899122.0,0.0
-2.488536,-2.902494,-10.246067,-61.110001,12.67,-25.690001,1729471899140.0,0.0
-1.478764,-4.682754,-10.186246,-97.510002,22.190001,-16.799999,1729471899160.0,0.0
-2.165504,-5.900701,-8.190632,-81.340004,34.720001,-0.77,1729471899180.0,0.0
-3.232704,-5.003392,-7.312466,-45.920002,36.119999,6.51,1729471899203.0,0.0
-5.831308,-2.112862,-3.665804,-73.779999,22.26,13.65,1729471899221.0,0.0
-7.290931,-9.58804,-7.913064,-139.020004,8.82,-5.67,1729471899242.0,0.0
-4.924429,-10.054641,-9.741181,-97.300003,-6.58,-17.57,1729471899261.0,0.0
-4.412365,-7.353144,-10.356135,-18.41,-5.81,-7.98,1729471899281.0,0.0
-4.565506,-3.936193,-6.853044,-8.26,1.54,-0.98,1729471899302.0,0.0
-4.902894,-4.21376,-7.176075,24.43,-0.84,20.02,1729471899321.0,0.0
-3.692125,-5.328816,-8.944371,59.5,-2.8,36.75,1729471899342.0,0.0
-2.433501,-9.047262,-8.377272,84.0,1.82,27.719999,1729471899361.0,0.0
-2.148755,-7.831708,-7.228717,112.0,1.19,10.5,1729471899383.0,0.0
-2.584249,-3.586841,-5.800202,113.260002,-4.97,-16.66,1729471899411.0,0.0
-3.562913,-1.335195,-6.257231,76.93,-19.530001,-10.08,1729471899424.0,0.0
-5.12782,-3.479164,-7.070791,33.950001,-19.32,0.7,1729471899446.0,0.0
-3.751946,-8.020741,-9.403792,26.530001,-28.0,-5.81,1729471899464.0,0.0
-2.002793,-9.966106,-9.114261,87.849998,-32.060001,-12.39,1729471899482.0,0.0
-3.694518,-5.759524,-6.9344,151.270004,-10.08,-17.08,1729471899504.0,0.0
-5.455636,-1.244268,-6.766902,120.889999,-10.71,-21.07,1729471899523.0,0.0
-5.379066,-2.699104,-9.217153,11.27,-14.63,-17.92,1729471899542.0,0.0
-5.728417,-6.683154,-11.140982,-30.73,4.2,-7.7,1729471899624.0,0.0
-7.116255,-8.23131,-11.782259,26.530001,45.990002,-6.65,1729471899629.0,0.0
-6.046663,-4.713861,-11.062018,130.339996,54.32,2.24,1729471899630.0,0.0
-2.952743,-2.127219,-9.992428,160.020004,51.029999,12.04,1729471899634.0,0.0
-1.56012,-3.385844,-7.996813,105.419998,77.699997,15.33,1729471899642.0,0.0
-0.794417,-5.702096,-1.371087,90.160004,89.18,27.58,1729471899662.0,0.0
2.586641,-5.716454,1.643869,263.970001,38.849998,67.970001,1729471899682.0,0.0
1.607977,-6.898508,4.046263,331.450012,16.59,82.949997,1729471899704.0,0.0
-3.318845,-5.831308,6.943972,216.440002,10.29,59.57,1729471899723.0,0.0
-8.094919,-7.633104,5.151747,57.959999,-38.779999,47.810001,1729471899742.0,0.0
-7.702496,-9.064013,-5.532206,-96.809998,-92.68,4.97,1729471899762.0,0.0
-5.802595,-11.703296,-10.992627,-110.529999,-91.279999,19.950001,1729471899782.0,0.0
-6.123233,-14.002798,-9.119047,48.509998,-44.450001,28.91,1729471899806.0,0.0
-8.539984,-12.105289,-8.513663,239.190002,18.83,32.41,1729471899823.0,0.0
-8.047063,-8.633304,-6.876972,317.380005,30.799999,27.299999,1729471899843.0,0.0
-5.022535,-6.936793,-4.07737,254.729996,15.05,11.06,1729471899863.0,0.0
-3.168097,-7.925028,-2.275574,151.339996,17.43,0.98,1729471899884.0,0.0
-2.557927,-9.102298,-0.672383,94.919998,25.76,-9.24,1729471899904.0,0.0
-2.435893,-9.382257,0.229711,99.050003,19.809999,-7.42,1729471899924.0,0.0
-2.423929,-8.413164,2.294717,99.540001,5.25,-7.7,1729471899943.0,0.0
-3.57727,-6.293124,1.067199,56.279999,-3.57,-11.62,1729471899963.0,0.0
-5.053641,-7.800602,-1.100698,-98.0,-7.0,-23.73,1729471899983.0,0.0
-5.498707,-6.525227,-0.545564,-211.330002,-5.46,-43.75,1729471900005.0,0.0
-5.493921,-8.204988,-1.062413,-279.160004,-18.41,-44.66,1729471900026.0,0.0
-4.113262,-8.003991,-5.079963,-334.110016,-36.889999,-71.120003,1729471900042.0,0.0
-3.048456,-7.695317,-4.086941,-308.209991,-36.75,-51.59,1729471900063.0,0.0
-3.835695,-5.95095,-3.122634,-302.959991,-21.98,-40.880001,1729471900083.0,0.0
-5.221139,-4.788038,-3.120241,-315.0,-14.63,-45.360001,1729471900115.0,0.0
-4.969893,-5.534599,-6.582655,-324.23999,-27.02,-36.330002,1729471900128.0,0.0
-3.536592,-4.639683,-6.948757,-308.910004,-38.290001,-23.870001,1729471900143.0,0.0
-2.880959,-2.301895,-7.04447,-300.440002,-33.810001,-15.190001,1729471900164.0,0.0
-3.393023,0.172283,-9.664611,-334.950012,-31.99,-21.91,1729471900185.0,0.0
-4.596612,-9.540184,-14.897714,-323.610016,-36.049999,-17.85,1729471900204.0,0.0
-2.328217,-9.801002,-11.464014,-203.770004,-21.98,-39.689999,1729471900224.0,0.0
-3.632305,-5.063213,-8.188239,-29.540001,-12.11,-23.940001,1729471900244.0,0.0
-4.532006,-5.735595,-9.19801,-3.92,-9.24,-26.389999,1729471900263.0,0.0
-3.919443,-6.096912,-7.965706,7.63,-11.62,-20.58,1729471900283.0,0.0
-3.766303,-5.436492,-8.032705,18.969999,-7.14,-17.639999,1729471900307.0,0.0
-3.818945,-6.400801,-8.207381,37.799999,-5.25,-16.1,1729471900324.0,0.0
-4.15394,-6.18784,-8.551948,81.620003,2.73,-4.62,1729471900343.0,0.0
-3.897908,-6.680761,-9.12144,140.979996,7.63,8.96,1729471900364.0,0.0
-3.649055,-6.623333,-9.856036,213.570007,18.34,19.950001,1729471900384.0,0.0
-4.086941,-4.725825,-9.181261,281.329987,33.529999,35.139999,1729471900404.0,0.0
-4.735396,-4.520042,-8.690732,311.5,44.66,46.830002,1729471900424.0,0.0
-5.039285,-6.118448,-8.9348,307.440002,58.52,53.200001,1729471900442.0,0.0
-5.627919,-5.979663,-8.355737,377.929993,53.970001,77.349998,1729471900462.0,0.0
-4.67079,-5.728417,-6.783652,520.380005,28.35,96.040001,1729471900484.0,0.0
-4.096512,-5.65424,-3.658626,589.75,48.860001,78.610001,1729471900504.0,0.0
-5.67099,-4.534399,0.892523,528.289978,80.150002,61.670002,1729471900524.0,0.0
-7.274181,-6.254838,3.56052,396.619995,70.769997,46.200001,1729471900544.0,0.0
-5.249853,-6.728617,2.397608,215.600006,26.530001,18.620001,1729471900562.0,0.0
-3.677768,-8.977871,2.842674,131.039993,0.98,14.77,1729471900583.0,0.0
-4.271189,-9.836893,1.155733,151.830002,5.46,11.55,1729471900604.0,0.0
-5.431707,-7.161718,1.823331,213.570007,17.92,19.32,1729471900624.0,0.0
-5.106283,-5.900701,3.115455,164.850006,16.52,18.129999,1729471900644.0,0.0
-4.271189,-9.389436,3.78066,68.389999,0.56,5.11,1729471900664.0,0.0
-3.546163,-14.177474,4.572684,12.39,-9.17,-12.74,1729471900683.0,0.0
-3.163311,-12.535997,3.381058,-58.380001,-9.1,-43.119999,1729471900705.0,0.0
-3.165704,-10.758131,2.892922,-101.709999,-7.0,-61.110001,1729471900725.0,0.0
-3.35713,-7.664211,1.196411,-206.360001,-4.41,-81.199997,1729471900742.0,0.0
-3.084348,-7.269395,1.086342,-287.0,-11.76,-85.959999,1729471900763.0,0.0
-2.641676,-8.640482,1.409373,-314.160004,-29.469999,-87.57,1729471900783.0,0.0
-3.158526,-9.501899,2.045863,-318.429993,-33.740002,-83.93,1729471900815.0,0.0
-4.07737,-6.865008,1.698904,-334.809998,-31.01,-90.790001,1729471900823.0,0.0
-4.656433,-4.41715,0.940379,-365.610016,-47.670002,-84.349998,1729471900844.0,0.0
-3.969693,-3.909872,-1.959722,-408.170013,-70.629997,-80.150002,1729471900862.0,0.0
-4.316652,-6.575477,-5.575277,-467.459991,-56.420002,-80.010002,1729471900883.0,0.0
-3.823731,-5.639884,-7.779066,-458.360016,-36.610001,-82.32,1729471900906.0,0.0
-4.366901,-5.919843,-8.685946,-327.390015,-30.66,-37.799999,1729471900923.0,0.0
-3.256632,-4.888536,-8.874979,-236.180008,-31.43,-35.420002,1729471900942.0,0.0
-3.079563,-3.699304,-7.956135,-193.410004,-17.219999,-28.280001,1729471900963.0,0.0
-3.07717,-4.639683,-9.446864,-172.339996,-22.68,-11.13,1729471900983.0,0.0
-2.533999,-7.429714,-8.590233,-141.820007,-21.98,-15.89,1729471901005.0,0.0
-1.210768,-7.77428,-9.334401,-58.59,-29.75,-19.809999,1729471901026.0,0.0
-0.90688,-6.608976,-9.719646,27.790001,-29.889999,-19.389999,1729471901042.0,0.0
-1.820938,-4.62054,-7.920243,78.75,-20.790001,-10.99,1729471901063.0,0.0
-2.28036,-5.082355,-7.300502,73.709999,-27.51,-4.06,1729471901084.0,0.0
-2.057827,-7.365108,-8.298308,84.419998,-37.450001,1.26,1729471901105.0,0.0
-2.167897,-7.948956,-8.688338,121.169998,-31.92,4.76,1729471901123.0,0.0
