acc_x,acc_y,acc_z,gyr_x,gyr_y,gyr_z,timestamp,label
-1.146162,-7.109076,-6.79083,17.43,94.919998,-12.11,1729476447866.0,0.0
-0.591027,-6.793223,-6.412765,14.7,84.769997,-10.01,1729476447882.0,0.0
-0.136391,-6.539584,-6.250053,13.16,78.68,-6.79,1729476447883.0,0.0
0.172283,-6.52762,-5.752346,6.44,71.82,-1.75,1729476447884.0,0.0
0.370888,-6.683154,-5.615955,-3.22,64.82,3.71,1729476447898.0,0.0
0.361316,-7.018148,-6.168696,-4.69,54.670002,9.38,1729476447918.0,0.0
-0.07657,-6.850651,-6.534799,-5.46,48.299999,11.76,1729476447938.0,0.0
-0.775275,-7.015756,-6.809973,-0.49,46.130001,14.49,1729476447957.0,0.0
-1.20359,-6.360123,-6.525227,0.91,37.029999,14.84,1729476447978.0,0.0
-1.368695,-6.163911,-6.419943,-6.37,26.74,17.99,1729476447998.0,0.0
-1.636691,-6.711867,-6.429514,-19.32,16.24,20.93,1729476448018.0,0.0
-2.311467,-7.164111,-6.635297,-19.950001,12.95,22.469999,1729476448039.0,0.0
-2.718246,-7.034898,-6.999006,-5.81,5.46,24.710001,1729476448058.0,0.0
-2.773281,-6.69751,-7.355537,0.21,-2.31,25.76,1729476448077.0,0.0
-2.902494,-6.707082,-7.403394,8.19,-0.91,27.299999,1729476448098.0,0.0
-2.981457,-7.008578,-6.683154,25.34,1.82,28.91,1729476448118.0,0.0
-2.727818,-7.13779,-6.441479,42.630001,0.49,25.129999,1729476448139.0,0.0
-2.531606,-6.565905,-6.345766,44.869999,-0.07,21.07,1729476448158.0,0.0
-2.342573,-5.927022,-6.350551,39.759998,-2.45,20.65,1729476448177.0,0.0
-2.309074,-6.393622,-6.329016,28.77,-2.1,21.49,1729476448198.0,0.0
-2.378466,-7.341179,-5.986843,15.190001,1.12,16.940001,1729476448218.0,0.0
-2.24686,-7.066005,-6.479764,14.0,-0.35,9.45,1729476448238.0,0.0
-1.811367,-6.601797,-6.640083,18.9,-3.08,6.72,1729476448257.0,0.0
-1.643869,-6.793223,-6.24766,16.66,-0.91,5.39,1729476448278.0,0.0
-1.658226,-7.073184,-6.221339,5.67,2.31,1.61,1729476448298.0,0.0
-1.538585,-6.994221,-6.357729,2.87,-0.14,0.7,1729476448318.0,0.0
-1.512264,-6.723832,-6.4678,6.72,0.35,1.75,1729476448345.0,0.0
-1.490728,-7.013363,-6.376873,4.48,3.01,3.08,1729476448357.0,0.0
-1.557728,-7.477571,-6.350551,2.38,2.1,2.24,1729476448378.0,0.0
-1.885544,-6.85783,-6.415157,4.55,2.38,1.61,1729476448401.0,0.0
-1.768296,-6.644868,-6.52762,2.24,-1.96,4.62,1729476448420.0,0.0
-1.440479,-7.228717,-6.635297,1.96,-4.55,8.12,1729476448439.0,0.0
-1.816152,-7.013363,-6.324231,4.27,0.21,5.6,1729476448460.0,0.0
-1.679761,-6.908078,-6.417551,3.78,-2.52,7.14,1729476448480.0,0.0
-1.737189,-6.953543,-6.379266,-2.66,-3.99,8.61,1729476448500.0,0.0
-2.100898,-7.319644,-6.142376,-11.97,-1.26,7.56,1729476448518.0,0.0
-1.940579,-7.429714,-6.271588,-12.6,-4.41,6.09,1729476448540.0,0.0
-1.887937,-7.235896,-6.4343,-8.12,-7.21,6.02,1729476448559.0,0.0
-2.179861,-7.57089,-6.532406,-13.93,-5.95,5.04,1729476448580.0,0.0
-2.423929,-7.518249,-6.293124,-22.33,-3.99,3.22,1729476448600.0,0.0
-2.292324,-7.429714,-6.448657,-24.01,-6.37,0.98,1729476448620.0,0.0
-2.313859,-7.874779,-6.865008,-21.98,-7.7,-0.07,1729476448639.0,0.0
-2.376073,-7.628319,-7.152147,-21.84,-7.49,-4.13,1729476448658.0,0.0
-2.29711,-6.999006,-7.255038,-23.870001,-6.02,-8.75,1729476448679.0,0.0
-1.631905,-7.015756,-7.283752,-26.389999,-8.89,-7.49,1729476448701.0,0.0
-1.785046,-7.200003,-7.166504,-28.0,-4.55,-5.04,1729476448719.0,0.0
-2.175076,-7.271788,-7.178468,-27.299999,0.07,-5.32,1729476448741.0,0.0
-1.507478,-7.546963,-7.99442,-12.39,-5.67,-4.41,1729476448760.0,0.0
-1.639083,-7.503892,-7.700103,-0.07,1.61,-4.2,1729476448779.0,0.0
-1.849652,-7.216753,-7.396214,6.93,7.0,-5.04,1729476448800.0,0.0
-1.572084,-6.98465,-7.123433,11.48,5.46,-4.48,1729476448820.0,0.0
-1.648655,-6.809973,-7.013363,8.82,6.86,-3.57,1729476448840.0,0.0
-1.883151,-6.771688,-6.989435,3.43,7.7,-2.31,1729476448859.0,0.0
-1.95015,-6.802795,-7.21436,2.38,5.67,-1.19,1729476448880.0,0.0
-1.89033,-6.958328,-7.226324,1.47,5.6,-0.98,1729476448900.0,0.0
-1.974079,-7.109076,-7.21436,4.55,6.44,-0.7,1729476448920.0,0.0
-1.892723,-7.144968,-7.322037,13.51,8.33,-0.98,1729476448942.0,0.0
-1.835295,-6.881758,-7.008578,20.93,10.5,-1.26,1729476448959.0,0.0
-1.90708,-7.056434,-6.76451,21.559999,11.62,-0.84,1729476448979.0,0.0
-1.758725,-7.355537,-6.888937,16.52,10.36,-1.68,1729476449000.0,0.0
-1.730011,-7.204789,-6.565905,11.62,12.46,-3.57,1729476449021.0,0.0
-1.727618,-7.013363,-6.759724,5.18,11.9,-3.78,1729476449040.0,0.0
-1.524228,-7.116255,-7.025328,-3.29,9.8,-2.87,1729476449063.0,0.0
-1.502693,-6.936793,-7.106683,-9.03,13.72,-4.62,1729476449080.0,0.0
-1.581656,-6.809973,-7.049256,-9.03,12.88,-5.04,1729476449100.0,0.0
-1.505085,-6.814759,-7.082755,-14.07,12.81,-6.3,1729476449120.0,0.0
-1.182054,-7.01097,-7.307681,-14.35,10.36,-6.65,1729476449142.0,0.0
-1.184447,-7.025328,-7.386643,-12.46,11.27,-6.79,1729476449159.0,0.0
-1.232304,-6.979864,-7.195218,-15.190001,13.51,-7.63,1729476449179.0,0.0
-1.265803,-7.099504,-7.140182,-18.76,15.12,-9.17,1729476449201.0,0.0
-1.251446,-7.034898,-7.56132,-26.25,14.42,-12.32,1729476449219.0,0.0
-1.258625,-6.939186,-7.420143,-29.540001,14.56,-13.58,1729476449241.0,0.0
-1.378266,-7.317252,-7.649854,-33.32,14.7,-16.24,1729476449259.0,0.0
-1.462015,-7.252645,-7.573284,-31.99,16.799999,-19.809999,1729476449279.0,0.0
-1.002593,-6.477371,-7.716853,-28.84,14.98,-21.84,1729476449301.0,0.0
-0.253639,-6.673582,-8.518449,-29.540001,7.63,-19.25,1729476449320.0,0.0
-0.342174,-6.62094,-7.783852,-19.950001,13.3,-15.61,1729476449340.0,0.0
-0.823131,-6.673582,-7.314859,-0.14,17.57,-13.93,1729476449359.0,0.0
-0.648455,-6.800402,-6.723832,18.620001,13.65,-12.88,1729476449379.0,0.0
-0.756132,-6.204589,-6.82433,26.18,6.37,-12.25,1729476449401.0,0.0
-1.447658,-6.522834,-7.094719,-3.78,6.23,-12.67,1729476449420.0,0.0
-1.4668,-6.860222,-7.209574,-19.74,3.92,-14.28,1729476449442.0,0.0
-1.275374,-6.946364,-7.752745,-17.08,0.63,-16.24,1729476449458.0,0.0
-1.531406,-6.979864,-7.752745,-9.24,1.96,-19.18,1729476449479.0,0.0
-1.871187,-6.759724,-7.611568,-5.67,1.12,-21.700001,1729476449501.0,0.0
-1.76351,-6.76451,-7.475177,-8.75,-0.7,-25.34,1729476449520.0,0.0
-1.919044,-6.680761,-7.123433,-6.72,3.29,-29.120001,1729476449541.0,0.0
-2.009971,-6.250053,-7.020542,-3.29,3.71,-32.900002,1729476449559.0,0.0
-1.892723,-5.852845,-7.152147,-9.24,-1.05,-34.650002,1729476449579.0,0.0
-1.722832,-6.034698,-7.415358,-18.27,-7.28,-34.860001,1729476449600.0,0.0
-1.998007,-5.936593,-7.341179,-13.51,-8.89,-34.790001,1729476449619.0,0.0
-1.998007,-5.460421,-7.286145,-6.44,-13.58,-35.420002,1729476449641.0,0.0
-1.524228,-5.194818,-7.037291,-10.29,-20.370001,-35.0,1729476449659.0,0.0
-0.784846,-5.039285,-7.116255,-15.26,-24.99,-32.48,1729476449680.0,0.0
-0.42353,-4.756931,-7.338787,-18.48,-27.860001,-29.049999,1729476449702.0,0.0
-1.299303,-4.524827,-7.762317,-24.639999,-26.67,-25.200001,1729476449719.0,0.0
-0.717847,-5.010571,-8.020741,-36.119999,-27.58,-18.83,1729476449739.0,0.0
0.191426,-5.111069,-8.465806,-34.23,-41.369999,-15.190001,1729476449758.0,0.0
-0.095713,-5.156533,-8.784052,-25.129999,-36.889999,-11.97,1729476449780.0,0.0
-0.014357,-5.532206,-8.678767,-17.85,-34.720001,-8.96,1729476449801.0,0.0
0.476172,-6.001199,-8.80798,-14.56,-36.959999,-7.63,1729476449820.0,0.0
0.681954,-5.991628,-8.62134,-13.23,-36.889999,-10.43,1729476449840.0,0.0
0.155533,-5.706882,-8.669197,-9.38,-36.610001,-12.11,1729476449860.0,0.0
0.964308,-5.642276,-8.556733,-14.35,-42.0,-14.0,1729476449879.0,0.0
2.292324,-5.225924,-8.805587,-23.52,-49.490002,-13.440001,1729476449901.0,0.0
2.883351,-4.917251,-9.114261,-25.200001,-48.93,-9.17,1729476449921.0,0.0
2.656033,-4.156333,-9.399008,-23.59,-47.529999,-3.43,1729476449939.0,0.0
2.916851,-4.986642,-8.898908,-33.740002,-39.689999,3.36,1729476449960.0,0.0
3.323631,-6.257231,-8.410772,-23.1,-32.970001,9.45,1729476449980.0,0.0
-2.701497,-5.740381,-8.185846,11.34,-30.450001,11.62,1729476450981.0,0.0
-2.809174,-5.582455,-8.171489,-3.29,-5.88,-11.2,1729476451001.0,0.0
-2.835495,-5.613562,-7.850852,0.28,-5.6,-13.23,1729476451021.0,0.0
-2.974278,-5.558527,-7.613962,2.38,-4.27,-14.7,1729476451041.0,0.0
-2.880959,-5.309673,-7.578069,6.65,-3.92,-15.96,1729476451060.0,0.0
-2.586641,-4.838287,-7.834101,7.77,-6.09,-17.01,1729476451080.0,0.0
-2.629712,-4.776074,-8.030313,6.09,-11.48,-16.52,1729476451105.0,0.0
-2.833102,-4.768896,-7.759924,3.99,-11.83,-15.47,1729476451121.0,0.0
-2.694318,-4.785645,-7.975278,3.78,-13.86,-12.6,1729476451143.0,0.0
-2.376073,-4.95075,-8.12124,3.85,-14.21,-9.38,1729476451161.0,0.0
-2.48375,-5.278566,-8.188239,8.4,-11.34,-7.21,1729476451181.0,0.0
-2.699104,-5.388636,-8.171489,14.07,-10.5,-5.88,1729476451201.0,0.0
-2.529213,-5.058427,-8.126025,10.71,-14.77,-3.92,1729476451222.0,0.0
-2.155933,-5.221139,-8.116454,0.49,-22.120001,-2.03,1729476451243.0,0.0
-1.923829,-5.479564,-7.980063,-7.21,-24.290001,-1.47,1729476451260.0,0.0
-1.277767,-5.680561,-7.889136,-5.32,-27.790001,-1.33,1729476451280.0,0.0
-0.59342,-5.852845,-8.200203,1.89,-32.41,-2.52,1729476451301.0,0.0
-0.595813,-5.922236,-8.025528,4.9,-30.030001,-5.18,1729476451322.0,0.0
-0.636491,-5.618347,-7.810174,15.26,-29.4,-2.31,1729476451342.0,0.0
-0.847059,-5.60399,-7.996813,5.39,-30.940001,0.91,1729476451360.0,0.0
-0.997807,-6.400801,-8.953942,-8.54,-26.950001,1.89,1729476451381.0,0.0
-1.363909,-7.144968,-9.018548,-9.52,-21.77,0.63,1729476451401.0,0.0
-1.648655,-7.386643,-9.083155,-3.43,-9.73,-5.11,1729476451421.0,0.0
-1.540978,-7.446464,-8.769694,13.02,-2.38,-11.83,1729476451441.0,0.0
-1.624727,-6.903293,-8.197811,23.379999,3.64,-17.57,1729476451460.0,0.0
-1.462015,-6.920043,-6.893722,23.940001,4.83,-22.4,1729476451480.0,0.0
-0.789631,-6.089733,-6.285945,23.030001,0.35,-22.889999,1729476451501.0,0.0
-1.524228,-5.079963,-6.424729,55.16,-4.55,-10.85,1729476451521.0,0.0
-2.57707,-4.146761,-6.711867,61.110001,-9.38,-6.16,1729476451541.0,0.0
-3.287738,-4.225725,-6.281159,24.43,-30.52,-5.53,1729476451562.0,0.0
-4.555934,-4.441079,-6.594619,-48.650002,-38.150002,-9.1,1729476451581.0,0.0
-4.508078,-4.527221,-9.803394,-96.879997,-44.59,-15.89,1729476451601.0,0.0
-4.862216,-4.488935,-8.659625,-74.059998,-32.41,2.8,1729476451620.0,0.0
-6.319445,-5.276174,-11.222338,-40.740002,-6.58,30.1,1729476451642.0,0.0
-2.727818,-5.76431,-11.901899,-20.58,-3.29,48.720001,1729476451660.0,0.0
-2.849852,-6.458229,-8.140383,73.080002,31.01,66.5,1729476451680.0,0.0
-3.522235,-5.843273,-5.553742,116.270004,42.279999,61.810001,1729476451705.0,0.0
-3.055635,-6.183054,-3.481557,110.389999,25.48,48.509998,1729476451720.0,0.0
-2.883351,-6.290731,-2.127219,53.760002,5.67,23.66,1729476451740.0,0.0
-2.289931,-6.422336,-3.378666,-26.25,-28.98,-9.52,1729476451760.0,0.0
-3.0006,-3.749553,-4.48415,-56.209999,-55.580002,-33.32,1729476451780.0,0.0
-5.611169,-2.790031,-6.577869,-103.949997,-64.889999,-49.349998,1729476451800.0,0.0
-4.371687,-1.801795,-10.176675,-210.559998,-92.75,-76.370003,1729476451820.0,0.0
-2.694318,-2.787638,-11.270195,-244.229996,-90.019997,-67.340004,1729476451842.0,0.0
-3.711268,-3.955336,-12.323036,-150.990005,-56.630001,-25.620001,1729476451859.0,0.0
-8.092526,-3.151347,-12.303895,-31.780001,-10.22,34.02,1729476451881.0,0.0
-7.369894,-6.02752,-10.370493,6.79,11.76,71.470001,1729476451900.0,0.0
-3.108276,-6.924829,-9.482756,45.080002,13.02,80.010002,1729476451920.0,0.0
-2.555535,-7.104291,-9.872787,112.980003,22.26,69.370003,1729476451940.0,0.0
-3.07717,-6.319445,-9.647861,115.849998,38.360001,49.630001,1729476451961.0,0.0
-1.311267,-6.403193,-6.271588,81.340004,31.780001,19.74,1729476451980.0,0.0
-1.155733,-6.029913,-3.974478,51.73,13.3,-18.200001,1729476452001.0,0.0
-2.35693,-2.9671,-4.563113,-44.450001,-19.74,-67.199997,1729476452020.0,0.0
-3.773481,-2.498107,-6.216553,-86.940002,-35.91,-72.870003,1729476452043.0,0.0
-4.453043,0.107677,-7.707282,-114.520004,-45.220001,-65.099998,1729476452060.0,0.0
-3.692125,-3.586841,-9.949356,-145.039993,-52.150002,-48.509998,1729476452080.0,0.0
-5.032106,-2.306681,-10.143176,-96.809998,-33.110001,-19.67,1729476452101.0,0.0
-7.099504,-1.275374,-9.60479,-2.8,-11.06,26.110001,1729476452121.0,0.0
-8.599805,-4.31426,-8.973085,27.440001,8.4,66.709999,1729476452142.0,0.0
-6.680761,-6.582655,-11.382657,-6.37,25.34,74.129997,1729476452159.0,0.0
-3.862016,-8.480164,-12.043077,34.650002,38.360001,67.269997,1729476452181.0,0.0
-2.510071,-7.125826,-10.102496,114.099998,49.98,54.670002,1729476452200.0,0.0
-2.15354,-5.575277,-8.611769,125.020004,58.099998,35.77,1729476452221.0,0.0
-2.206182,-7.68096,-3.936193,71.190002,54.459999,4.41,1729476452242.0,0.0
-1.540978,-7.171289,-3.553342,25.9,25.48,-38.920002,1729476452260.0,0.0
-1.854438,-4.371687,-3.572484,10.15,-6.02,-67.970001,1729476452280.0,0.0
-4.041477,-1.399801,-4.522435,-15.89,-26.950001,-77.910004,1729476452301.0,0.0
-2.773281,-1.347159,-9.135797,-62.09,-53.619999,-74.340004,1729476452320.0,0.0
-2.533999,-3.192025,-11.633904,-128.100006,-64.120003,-61.529999,1729476452341.0,0.0
-6.589834,-2.151148,-11.270195,-52.009998,-18.690001,-23.24,1729476452360.0,0.0
-10.025927,-5.35753,-10.772489,60.760002,8.54,22.469999,1729476452380.0,0.0
-6.769295,-7.353144,-12.217752,78.400002,40.040001,43.189999,1729476452400.0,0.0
-3.314059,-5.723632,-12.892529,124.459999,46.619999,55.299999,1729476452428.0,0.0
-4.034299,-6.005985,-10.549955,224.350006,96.32,64.540001,1729476452442.0,0.0
-3.457629,-4.09412,-6.522834,233.800003,107.239998,59.5,1729476452459.0,0.0
-1.526621,-5.754738,-6.398407,156.869995,93.099998,40.670002,1729476452481.0,0.0
0.172283,-9.052048,0.526421,113.540001,75.25,17.710001,1729476452501.0,0.0
-0.473779,-7.690532,2.421536,97.019997,38.990002,-2.73,1729476452520.0,0.0
-4.419543,-4.900501,0.547956,51.450001,5.95,-23.030001,1729476452541.0,0.0
-3.787838,-5.012963,-2.744568,-10.85,-48.720001,-38.849998,1729476452560.0,0.0
-0.806381,-5.417351,-6.331409,-24.219999,-102.269997,-42.209999,1729476452580.0,0.0
-1.115055,-7.913064,-11.172089,8.82,-114.870003,-34.02,1729476452602.0,0.0
-6.38405,-7.238289,-8.702696,-32.759998,-52.220001,-45.57,1729476452621.0,0.0
-8.195417,-3.486342,-15.737594,-74.970001,-13.23,-41.580002,1729476452642.0,0.0
-3.309274,-8.846266,-8.705089,50.75,19.32,29.889999,1729476452661.0,0.0
-4.627719,-9.346365,-7.092326,94.639999,81.269997,46.060001,1729476452682.0,0.0
-5.675776,-6.678369,-6.656832,94.290001,115.989998,40.880001,1729476452704.0,0.0
-2.545963,-5.962914,-5.721239,61.880001,95.690002,46.900002,1729476452721.0,0.0
-0.045464,-7.846066,1.701297,51.799999,83.090004,46.970001,1729476452741.0,0.0
-1.115055,-9.08794,6.209375,47.32,49.0,31.43,1729476452761.0,0.0
-3.756732,-10.693524,0.062213,24.99,-7.28,-5.18,1729476452781.0,0.0
-4.055835,-8.508877,-2.533999,2.87,-41.720001,-32.130001,1729476452803.0,0.0
-1.014557,-6.159126,-3.110669,3.43,-111.090004,-41.790001,1729476452895.0,0.0
0.083749,-2.785245,-7.037291,-41.16,-139.580002,-43.68,1729476452896.0,0.0
-3.584448,-4.68754,-12.30868,-78.470001,-129.570007,-31.99,1729476452897.0,0.0
-8.556733,-8.487342,-14.897714,-106.190002,-46.27,-33.950001,1729476452897.0,0.0
-10.727024,-8.872586,-15.998412,-55.580002,20.65,-16.450001,1729476452906.0,0.0
-3.536592,-8.714661,-6.960721,36.400002,24.01,14.0,1729476452921.0,0.0
-3.847659,-6.951149,-6.84108,73.43,76.019997,18.34,1729476452942.0,0.0
-4.553542,-5.534599,-7.235896,58.59,104.720001,20.440001,1729476452962.0,0.0
-2.615355,-6.419943,-5.862415,37.170002,101.989998,35.560001,1729476452981.0,0.0
-0.698704,-7.805387,1.694118,23.17,87.010002,34.369999,1729476453002.0,0.0
-0.863809,-9.932607,5.168497,36.259998,47.810001,20.16,1729476453022.0,0.0
-2.35693,-9.678967,0.899701,31.92,-6.58,-12.95,1729476453043.0,0.0
-3.369094,-6.087341,-0.270389,3.36,-34.509998,-33.040001,1729476453062.0,0.0
-1.103091,-4.869394,-2.141576,-42.139999,-105.419998,-37.869999,1729476453082.0,0.0
0.191426,-2.340181,-7.243074,-126.0,-143.710007,-42.420002,1729476453102.0,0.0
-3.158526,-5.955735,-13.122239,-164.639999,-128.100006,-28.42,1729476453122.0,0.0
-9.540184,-10.966305,-10.437491,-182.139999,-48.369999,-37.52,1729476453147.0,0.0
-13.052847,-6.759724,-15.522241,-111.020004,9.1,-34.509998,1729476453162.0,0.0
-6.778866,-4.029513,-12.8686,20.790001,7.49,25.27,1729476453186.0,0.0
-1.316052,-4.845466,-9.540184,24.710001,19.460001,46.830002,1729476453202.0,0.0
-1.90708,-5.809773,-9.889536,-41.23,80.43,51.450001,1729476453222.0,0.0
-3.711268,-6.963113,-6.364908,-9.87,105.419998,57.049999,1729476453243.0,0.0
-2.203789,-8.245667,-2.182254,34.439999,74.760002,56.279999,1729476453262.0,0.0
-1.581656,-9.059227,2.287539,16.379999,34.650002,15.96,1729476453281.0,0.0
-1.572084,-7.082755,-0.059821,-3.22,-13.02,-21.91,1729476453302.0,0.0
-3.108276,-4.996214,-1.359123,-36.470001,-51.66,-50.119999,1729476453322.0,0.0
-4.036692,-2.651247,-3.744767,-115.010002,-87.639999,-68.459999,1729476453343.0,0.0
-3.235096,1.002593,-8.628519,-232.119995,-136.779999,-80.010002,1729476453361.0,0.0
-2.646462,-0.581456,-14.486149,-302.329987,-125.510002,-65.449997,1729476453382.0,0.0
-5.99402,-6.089733,-11.839686,-249.410004,-61.18,-24.08,1729476453401.0,0.0
-9.946963,-3.675375,-13.095919,-109.129997,-30.940001,14.56,1729476453422.0,0.0
-7.348359,-3.282953,-12.069397,-78.610001,-14.07,44.240002,1729476453443.0,0.0
-2.665605,-5.871986,-12.423534,-45.57,2.8,62.09,1729476453461.0,0.0
-2.921637,-5.47717,-11.265409,61.32,29.82,71.470001,1729476453482.0,0.0
-4.582255,-5.570491,-9.549755,116.199997,53.549999,68.459999,1729476453502.0,0.0
-2.734996,-8.784052,-8.886944,119.770004,55.439999,41.720001,1729476453522.0,0.0
-1.395016,-5.62074,-1.328017,105.0,36.610001,7.28,1729476453542.0,0.0
-1.718047,-6.996613,-3.089134,79.519997,2.94,-27.51,1729476453594.0,0.0
-2.072184,-2.811567,-3.582055,19.879999,-29.82,-56.07,1729476453594.0,0.0
-4.429115,-1.655833,-8.702696,-72.730003,-52.990002,-65.519997,1729476453661.0,0.0
-4.364508,-0.660419,-8.894121,-159.180008,-54.670002,-67.550003,1729476453663.0,0.0
-3.682554,-1.629512,-9.877571,-117.599998,-55.09,-50.189999,1729476453667.0,0.0
-4.95075,0.837488,-12.179466,-73.43,-40.950001,-18.41,1729476453669.0,0.0
-8.477771,0.272782,-9.664611,-24.85,-17.219999,33.740002,1729476453681.0,0.0
-8.882158,-4.285545,-10.729417,-18.690001,7.91,65.309998,1729476453716.0,0.0
-5.369494,-6.350551,-10.707881,12.32,18.549999,75.110001,1729476453732.0,0.0
-3.931407,-6.946364,-10.447062,67.970001,30.66,72.309998,1729476453741.0,0.0
-3.57727,-5.989235,-9.078369,115.709999,45.43,60.549999,1729476453761.0,0.0
-2.9336,-7.489535,-7.889136,109.970001,50.610001,40.740002,1729476453781.0,0.0
-2.18704,-6.460621,-4.046263,70.489998,40.32,2.59,1729476453801.0,0.0
-1.694118,-8.080563,-3.754339,55.93,12.11,-37.170002,1729476453822.0,0.0
-1.928615,-3.74716,-3.397808,28.07,-18.48,-74.480003,1729476453842.0,0.0
-3.744767,0.074178,-6.24766,-54.880001,-42.07,-92.82,1729476453861.0,0.0
-4.249653,3.09392,-9.202796,-135.589996,-50.259998,-91.209999,1729476453881.0,0.0
-3.888337,1.007378,-9.085547,-122.220001,-48.720001,-45.849998,1729476453903.0,0.0
-6.336195,-1.134198,-12.964314,-79.239998,-38.990002,-9.94,1729476453922.0,0.0
-9.269794,-0.79681,-10.423136,-24.08,-12.11,45.290001,1729476453942.0,0.0
-8.142776,-5.766702,-9.176475,7.98,19.809999,64.75,1729476453960.0,0.0
-4.618148,-6.85783,-9.518648,41.16,23.870001,68.18,1729476453981.0,0.0
-3.050849,-6.422336,-10.990234,98.419998,28.98,63.279999,1729476454001.0,0.0
-3.326023,-6.58744,-9.509077,137.130005,47.670002,55.299999,1729476454021.0,0.0
-3.101098,-7.403394,-6.108876,120.75,52.009998,28.280001,1729476454042.0,0.0
-2.151148,-8.508877,-7.69771,97.160004,38.080002,-9.38,1729476454061.0,0.0
-0.648455,-7.515855,-3.838088,90.860001,10.99,-53.900002,1729476454081.0,0.0
-1.808974,-2.533999,-5.221139,78.68,-8.05,-77.0,1729476454102.0,0.0
-3.144169,1.100698,-6.661618,17.219999,-19.809999,-81.620003,1729476454121.0,0.0
-3.29731,-3.598805,-8.73141,9.03,-33.529999,-51.73,1729476454142.0,0.0
-1.806581,-4.393222,-9.221939,-19.67,-46.34,-53.34,1729476454161.0,0.0
-4.725825,-3.354738,-7.865208,-32.619999,-24.92,-40.25,1729476454180.0,0.0
-6.570691,-2.084148,-7.659425,-50.610001,-19.809999,-29.049999,1729476454201.0,0.0
-6.185446,-4.864608,-9.683753,-20.370001,-24.01,-2.17,1729476454222.0,0.0
-6.393622,-7.520642,-11.270195,3.43,-3.64,10.92,1729476454241.0,0.0
-5.268995,-5.383851,-11.720046,-21.42,22.4,11.13,1729476454260.0,0.0
-3.433701,-5.76431,-11.212767,89.809998,49.630001,35.349998,1729476454281.0,0.0
-6.168696,-3.65384,-8.080563,189.979996,91.910004,49.700001,1729476454302.0,0.0
-6.369694,-2.234896,-6.513263,150.710007,93.379997,56.490002,1729476454320.0,0.0
-2.727818,-4.342973,-6.470192,34.439999,76.720001,45.5,1729476454343.0,0.0
-0.119641,-6.297909,-3.436093,2.03,64.610001,46.549999,1729476454361.0,0.0
0.792024,-10.432706,-1.12702,47.459999,42.700001,32.759998,1729476454380.0,0.0
-1.323231,-10.944772,0.842274,76.370003,20.51,7.49,1729476454402.0,0.0
-4.63729,-8.664411,-1.497907,52.709999,-11.62,-35.279999,1729476454421.0,0.0
-3.632305,-8.408379,-5.15414,8.54,-57.82,-57.189999,1729476454441.0,0.0
-0.48335,-5.783452,-7.666604,30.59,-104.440002,-68.110001,1729476454468.0,0.0
-0.416351,-3.838088,-11.483156,112.629997,-105.769997,-43.189999,1729476454481.0,0.0
-4.237689,-1.990828,-7.221539,44.310001,-68.18,-12.25,1729476454503.0,0.0
-10.38485,-1.20359,-9.363115,-189.419998,1.54,-7.28,1729476454522.0,0.0
-9.595219,-8.102098,-12.660425,-195.580002,-5.53,-7.28,1729476454542.0,0.0
-4.055835,-8.54477,-11.387443,-35.490002,-21.139999,27.51,1729476454561.0,0.0
-1.875973,-5.927022,-9.288938,74.129997,-7.63,30.309999,1729476454581.0,0.0
-6.266802,-5.223531,-7.834101,8.47,77.769997,11.97,1729476454602.0,0.0
-4.505685,-3.005385,-6.673582,-33.529999,57.470001,18.83,1729476454621.0,0.0
-2.112862,-6.087341,-5.173282,-35.07,28.0,26.950001,1729476454643.0,0.0
-1.0002,-9.109475,-7.037291,-1.75,24.92,15.26,1729476454661.0,0.0
-1.105484,-10.100104,-7.606783,42.07,25.549999,5.53,1729476454682.0,0.0
-1.911865,-9.456435,-5.982057,55.16,44.450001,-18.059999,1729476454705.0,0.0
-1.852045,-7.432107,-5.015356,20.93,34.720001,-32.549999,1729476454724.0,0.0
-1.741975,-5.860023,-4.034299,-6.79,14.77,-30.17,1729476454743.0,0.0
-3.136991,-3.395415,-1.990828,15.96,17.08,-5.53,1729476454762.0,0.0
-4.680361,-3.649055,-2.79721,69.370003,17.92,27.93,1729476454782.0,0.0
-4.785645,-7.913064,-3.081956,91.209999,-10.71,32.830002,1729476454803.0,0.0
-4.54397,-11.863614,-2.22054,90.440002,-21.77,19.389999,1729476454824.0,0.0
-4.572684,-11.74158,-3.921836,71.75,-55.369999,11.41,1729476454846.0,0.0
-3.397808,-9.513863,-8.293523,68.25,-86.800003,4.41,1729476454862.0,0.0
-1.182054,-7.147361,-13.883157,122.43,-72.309998,25.690001,1729476454882.0,0.0
-2.203789,-8.587841,-13.58884,249.970001,25.27,44.380001,1729476454903.0,0.0
-5.039285,-10.540384,-5.158926,326.059998,89.040001,20.09,1729476454922.0,0.0
-5.453243,-10.250853,-5.335995,332.5,67.970001,10.99,1729476454945.0,0.0
-3.249453,-7.77428,-5.379066,349.860016,29.889999,14.42,1729476454962.0,0.0
-2.392823,-8.173882,-3.663411,375.899994,39.130001,16.030001,1729476454982.0,0.0
-3.110669,-8.133204,-0.40678,362.529999,56.700001,-7.0,1729476455004.0,0.0
-4.673182,-8.334201,0.062213,330.119995,61.459999,-13.72,1729476455022.0,0.0
-3.828516,-9.24826,-0.904487,338.170013,34.720001,-32.970001,1729476455044.0,0.0
-2.234896,-10.439885,0.449851,352.589996,39.619999,-27.51,1729476455062.0,0.0
-3.515057,-8.913264,1.20359,331.589996,71.82,-38.220001,1729476455082.0,0.0
-5.706882,-8.671589,2.445465,362.809998,82.18,-59.709999,1729476455103.0,0.0
-5.35753,-5.903094,4.570292,385.980011,70.559998,-61.670002,1729476455122.0,0.0
-5.419744,-2.431108,8.427521,376.880005,78.889999,-43.82,1729476455143.0,0.0
-6.932007,-4.242475,8.149954,266.559998,43.189999,-50.049999,1729476455163.0,0.0
-5.723632,-9.32483,4.977071,154.630005,-17.92,-71.540001,1729476455187.0,0.0
-1.90708,-6.829116,4.912465,223.369995,7.91,-62.580002,1729476455202.0,0.0
-6.168696,2.184647,8.319844,237.930008,24.5,-42.349998,1729476455222.0,0.0
-5.048856,-1.452443,7.676175,115.639999,-12.95,-35.349998,1729476455244.0,0.0
-3.608376,-3.940979,7.862815,67.760002,-17.01,-24.08,1729476455262.0,0.0
-3.333202,-2.09372,8.757731,68.949997,-7.14,-18.549999,1729476455282.0,0.0
-2.979064,-0.957129,8.082954,39.34,-11.48,-0.35,1729476455303.0,0.0
-2.665605,-2.845066,7.740781,13.23,-16.66,6.3,1729476455323.0,0.0
-2.677568,-3.5007,8.779266,-8.47,-17.01,18.27,1729476455344.0,0.0
-2.0004,-4.199404,7.678568,-13.65,-17.639999,31.5,1729476455362.0,0.0
-2.421536,-3.811767,7.558927,-40.32,-18.129999,20.860001,1729476455382.0,0.0
-2.711068,-3.969693,7.180861,-70.0,-24.99,31.290001,1729476455403.0,0.0
-2.270789,-3.275774,7.645068,-86.449997,-28.07,35.630001,1729476455422.0,0.0
-2.868994,-3.555735,6.932007,-108.360001,-34.16,38.360001,1729476455443.0,0.0
-2.852244,-5.395815,6.946364,-144.830002,-42.209999,37.310001,1729476455461.0,0.0
-2.35693,-6.460621,6.690332,-162.610001,-42.77,34.720001,1729476455482.0,0.0
-2.837888,-5.680561,5.850451,-150.289993,-35.630001,39.130001,1729476455502.0,0.0
-3.328416,-4.328616,6.180661,-147.839996,-29.82,48.23,1729476455522.0,0.0
-3.270989,-5.369494,6.362515,-174.300003,-37.310001,49.07,1729476455553.0,0.0
-3.201597,-6.458229,6.355337,-220.570007,-42.420002,49.91,1729476455561.0,0.0
-3.728018,-6.618547,5.448457,-245.699997,-42.279999,60.130001,1729476455582.0,0.0
-3.328416,-7.281359,2.842674,-292.459991,-49.84,60.970001,1729476455603.0,0.0
-2.538785,-9.209974,0.275175,-367.850006,-56.98,60.27,1729476455622.0,0.0
-1.942972,-11.868401,-1.174876,-437.149994,-67.480003,51.240002,1729476455642.0,0.0
-2.916851,-13.684553,-1.866402,-454.369995,-42.84,40.110001,1729476455662.0,0.0
-4.945964,-15.404992,1.320838,-376.670013,-4.69,31.92,1729476455683.0,0.0
-5.089533,-14.261222,4.278367,-326.410004,6.79,13.72,1729476455708.0,0.0
-3.4672,-10.076177,4.082155,-304.920013,-0.07,-7.84,1729476455723.0,0.0
-2.667997,-7.700103,0.579063,-227.639999,-8.61,-11.69,1729476455742.0,0.0
-2.89053,-10.552348,-2.452643,-146.509995,-10.15,-6.86,1729476455762.0,0.0
-2.87378,-12.669996,-2.325824,-157.779999,3.99,-13.72,1729476455782.0,0.0
-2.127219,-14.045869,-3.704089,-124.040001,12.53,-17.15,1729476455802.0,0.0
-1.402194,-12.272788,-2.371287,-64.470001,10.78,-28.139999,1729476455822.0,0.0
-0.784846,-10.085747,-2.727818,-9.45,18.9,-35.349998,1729476455843.0,0.0
-1.033699,-4.161119,-0.208176,5.53,12.04,-23.59,1729476455861.0,0.0
-0.705883,-6.762117,-5.240282,60.41,-10.08,-1.54,1729476455881.0,0.0
-1.07677,-9.169296,-4.216154,92.330002,0.35,11.55,1729476455902.0,0.0
-2.289931,-8.961121,-2.632105,129.570007,19.25,16.73,1729476455922.0,0.0
-3.790231,-5.754738,-0.442672,126.699997,13.86,23.59,1729476455943.0,0.0
-3.404987,-6.209375,-0.177069,96.739998,1.89,25.34,1729476455963.0,0.0
-3.48395,-6.833901,0.490529,24.43,-17.92,30.940001,1729476455982.0,0.0
-3.445665,-7.209574,0.385244,-8.61,-20.370001,35.560001,1729476456002.0,0.0
-4.168297,-7.549356,0.217747,-25.549999,-25.059999,42.91,1729476456023.0,0.0
-4.711468,-7.475177,-0.038285,-45.220001,-30.73,42.279999,1729476456043.0,0.0
-4.87418,-7.62114,-0.449851,-49.139999,-37.029999,43.75,1729476456061.0,0.0
-6.520442,-8.202596,-1.083949,-99.610001,-39.48,47.459999,1729476456081.0,0.0
-7.257431,-9.145369,-1.887937,-162.399994,-56.349998,21.629999,1729476456102.0,0.0
-6.319445,-7.503892,-4.910072,-206.430008,-71.610001,0.77,1729476456122.0,0.0
-5.161318,-3.95055,-8.200203,-217.839996,-71.190002,-0.77,1729476456144.0,0.0
-4.529613,-3.062813,-11.018949,-186.759995,-69.860001,8.75,1729476456161.0,0.0
-4.838287,-4.833502,-9.760324,-204.889999,-48.439999,12.18,1729476456182.0,0.0
-5.850451,-4.35733,-13.03849,-294.279999,-22.889999,-0.42,1729476456202.0,0.0
-6.439085,-6.520442,-14.165509,-309.890015,8.96,-4.06,1729476456222.0,0.0
-5.230711,-10.023535,-13.433307,-206.009995,11.2,18.969999,1729476456242.0,0.0
-3.940979,-11.55494,-8.575876,-93.449997,40.599998,37.73,1729476456261.0,0.0
-4.106083,-6.946364,-5.402994,-46.130001,81.970001,19.6,1729476456281.0,0.0
-4.835894,-5.565705,-6.881758,-19.6,89.949997,15.89,1729476456302.0,0.0
-3.304488,-9.145369,-7.69771,66.150002,72.730003,29.190001,1729476456322.0,0.0
-2.024328,-10.547562,-5.012963,167.720001,78.050003,27.370001,1729476456344.0,0.0
-2.127219,-13.655839,-1.174876,246.610001,84.489998,11.97,1729476456362.0,0.0
-1.363909,-9.96132,-1.095913,230.509995,47.810001,-19.040001,1729476456381.0,0.0
-1.974079,-8.216952,-1.447658,232.330002,23.1,-19.18,1729476456401.0,0.0
-2.557927,-7.458428,-0.734596,205.169998,8.47,-17.780001,1729476456422.0,0.0
-3.184847,-5.742774,-0.344566,154.419998,-19.18,-8.33,1729476456443.0,0.0
-3.95055,-7.144968,-4.204189,130.199997,-42.209999,3.22,1729476456460.0,0.0
-3.61077,-10.415956,-9.174082,164.990005,-16.379999,12.74,1729476456482.0,0.0
-3.005385,-13.043276,-7.580462,239.610001,6.51,13.58,1729476456502.0,0.0
-3.069991,-11.095518,-7.178468,276.5,32.970001,9.8,1729476456522.0,0.0
-4.125226,-10.231709,-3.924229,345.450012,57.400002,0.77,1729476456542.0,0.0
-5.242674,-9.138189,-1.741975,404.110016,42.98,-3.78,1729476456561.0,0.0
-3.268596,-8.752945,-0.629312,417.410004,31.01,-18.549999,1729476456582.0,0.0
-3.713661,-8.839087,1.727618,363.860016,35.139999,-21.07,1729476456602.0,0.0
-2.421536,-8.367701,1.512264,341.670013,32.130001,-48.16,1729476456623.0,0.0
-3.996014,-6.836295,1.318445,298.480011,70.559998,-34.439999,1729476456642.0,0.0
-4.462614,-6.570691,4.019942,294.910004,53.34,-35.490002,1729476456661.0,0.0
-3.684947,-7.209574,5.458029,291.059998,41.509998,-43.540001,1729476456682.0,0.0
-3.957729,-6.283553,6.317052,280.910004,54.599998,-47.950001,1729476456710.0,0.0
-4.331009,-5.484349,5.946165,227.5,36.82,-48.720001,1729476456723.0,0.0
-3.909872,-3.938586,5.668597,181.089996,28.77,-38.150002,1729476456744.0,0.0
-5.24746,-5.960521,6.881758,143.080002,17.710001,-34.23,1729476456761.0,0.0
-3.469593,-6.216553,5.182854,114.660004,5.6,-35.84,1729476456782.0,0.0
-3.436093,-4.733003,6.262017,172.830002,25.129999,-26.110001,1729476456802.0,0.0
-4.582255,-0.949951,9.367901,196.910004,35.98,-22.190001,1729476456821.0,0.0
-4.54397,0.863809,8.903693,128.240005,18.549999,-11.97,1729476456844.0,0.0
-4.682754,-4.972286,6.850651,6.79,-25.549999,-25.41,1729476456862.0,0.0
-2.993421,-4.682754,8.193025,22.33,-7.42,-10.5,1729476456881.0,0.0
-3.579663,-1.813759,8.642875,22.960001,0.07,-3.15,1729476456902.0,0.0
-2.993421,-3.299703,8.915657,-36.259998,-18.200001,6.86,1729476456921.0,0.0
-2.06022,-4.888536,6.745367,-72.940002,-33.740002,3.64,1729476456943.0,0.0
-2.39043,-3.943372,5.91745,-56.91,-27.23,10.43,1729476456961.0,0.0
-2.505285,-2.550749,7.032506,-51.099998,-14.7,26.110001,1729476456981.0,0.0
-2.330609,-3.378666,8.62134,-100.029999,-23.24,23.59,1729476457004.0,0.0
-2.139183,-5.919843,7.80778,-167.020004,-41.720001,26.25,1729476457022.0,0.0
-1.981257,-7.233503,5.742774,-208.110001,-49.630001,25.27,1729476457043.0,0.0
-2.167897,-6.865008,5.13739,-206.5,-41.23,34.23,1729476457061.0,0.0
-2.849852,-5.661418,5.443672,-201.669998,-31.219999,36.68,1729476457081.0,0.0
-3.728018,-5.938986,6.405586,-216.930008,-33.32,38.779999,1729476457102.0,0.0
-4.498507,-7.525427,5.924629,-261.869995,-46.830002,33.670002,1729476457121.0,0.0
-3.622734,-8.62134,3.515057,-326.619995,-65.590004,30.17,1729476457143.0,0.0
-2.677568,-9.729217,1.636691,-395.079987,-77.279999,38.57,1729476457168.0,0.0
-1.646262,-11.430513,0.074178,-446.390015,-84.489998,28.42,1729476457183.0,0.0
-2.340181,-11.542977,-1.22034,-462.420013,-67.199997,13.65,1729476457203.0,0.0
-5.290531,-12.086146,1.79701,-390.459991,-31.639999,-0.91,1729476457222.0,0.0
-5.075177,-11.188839,2.63689,-360.290009,-33.599998,-13.440001,1729476457243.0,0.0
-5.4341,-13.119846,-2.160719,-336.910004,-23.799999,-29.75,1729476457261.0,0.0
-4.723432,-11.930614,-3.259024,-274.890015,-21.49,-55.369999,1729476457283.0,0.0
-2.474179,-9.686146,-4.285545,-153.720001,-5.39,-46.830002,1729476457302.0,0.0
-1.502693,-6.628119,-4.141976,-54.18,22.82,-24.780001,1729476457322.0,0.0
-0.930808,-5.099105,-5.213961,-6.93,58.170002,-2.59,1729476457350.0,0.0
-0.18664,-6.941578,-3.168097,17.99,46.34,13.93,1729476457362.0,0.0
-0.825524,-9.767502,0.756132,-0.84,56.91,22.469999,1729476457381.0,0.0
-1.775474,-8.556733,-1.067199,-16.870001,18.9,2.59,1729476457403.0,0.0
-2.206182,-8.183454,-1.227518,-35.98,-12.04,0.7,1729476457422.0,0.0
-1.440479,-7.865208,-2.098505,-45.009998,-43.82,0.84,1729476457444.0,0.0
-0.981057,-6.795617,-2.215754,-65.029999,-67.480003,3.36,1729476457462.0,0.0
-1.677369,-6.470192,-3.907479,-95.269997,-79.660004,3.92,1729476457481.0,0.0
-3.84048,-7.525427,-11.344372,-107.730003,-75.809998,-2.03,1729476457503.0,0.0
-5.278566,-8.920443,-11.038091,-63.560001,-36.259998,-0.63,1729476457523.0,0.0
-5.867201,-7.735995,-10.882557,-42.139999,1.96,5.32,1729476457545.0,0.0
-4.09412,-8.669197,-9.363115,-19.18,0.49,13.440001,1729476457563.0,0.0
-1.4668,-7.566105,-9.102298,12.32,7.21,17.360001,1729476457583.0,0.0
-2.251646,-7.255038,-6.9009,51.380001,53.760002,26.74,1729476457603.0,0.0
-3.68734,-5.235496,-6.269196,7.63,91.910004,26.460001,1729476457623.0,0.0
-1.871187,-7.436893,-4.962714,-21.280001,62.299999,36.540001,1729476457645.0,0.0
-0.476172,-8.793623,-2.971886,-57.959999,53.48,26.18,1729476457664.0,0.0
-0.038285,-10.526026,-1.572084,-32.759998,48.720001,18.129999,1729476457684.0,0.0
-0.734596,-8.870193,0.234497,-21.629999,26.32,5.81,1729476457709.0,0.0
-1.988436,-8.525627,-1.612763,2.59,-6.79,-1.33,1729476457723.0,0.0
-3.330809,-8.898908,-1.426122,1.54,-29.4,-11.27,1729476457745.0,0.0
-2.512464,-7.929814,-2.254039,11.27,-62.439999,-16.66,1729476457763.0,0.0
-2.199004,-6.565905,-4.072584,-6.3,-101.709999,-20.299999,1729476457783.0,0.0
-4.122833,-8.487342,-6.625726,-48.720001,-99.68,-29.540001,1729476457804.0,0.0
-5.996413,-7.886744,-13.050454,-26.6,-81.620003,-24.360001,1729476457888.0,0.0
-7.24786,-3.29731,-11.332408,-69.230003,-5.18,-10.22,1729476457893.0,0.0
-7.06122,-5.391029,-12.47857,-73.5,21.210001,6.3,1729476457893.0,0.0
-3.110669,-7.123433,-8.657232,-43.540001,20.51,21.49,1729476457894.0,0.0
-1.100698,-8.348558,-9.956534,44.73,28.42,30.73,1729476457903.0,0.0
-3.680161,-5.816952,-7.57089,54.110001,91.279999,22.049999,1729476457924.0,0.0
-4.9675,-2.947958,-5.869594,6.86,104.019997,24.15,1729476457946.0,0.0
-3.136991,-5.503492,-2.610569,-29.26,56.77,34.299999,1729476457963.0,0.0
-0.442672,-7.458428,-4.029513,-51.099998,24.85,22.26,1729476457983.0,0.0
-0.801596,-10.315458,-3.787838,-38.360001,8.82,16.59,1729476458004.0,0.0
-2.419144,-10.908878,-5.922236,-21.98,14.49,-2.8,1729476458024.0,0.0
-2.474179,-9.145369,-6.245267,-21.280001,-1.82,-18.620001,1729476458044.0,0.0
-1.789831,-7.920243,-6.431907,-33.18,-11.27,-26.530001,1729476458063.0,0.0
-1.90708,-6.872187,-6.498906,-35.84,-3.5,-22.960001,1729476458083.0,0.0
-2.361716,-6.838687,-5.142176,-16.17,3.36,-14.63,1729476458103.0,0.0
-2.605784,-6.905686,-4.500899,43.82,3.99,-2.73,1729476458123.0,0.0
-3.828516,-6.276374,-2.567499,74.760002,-5.04,9.52,1729476458145.0,0.0
-5.505885,-9.734003,-0.413958,95.480003,-5.18,1.68,1729476458163.0,0.0
-5.113462,-10.667203,-2.962314,102.690002,-52.57,-2.17,1729476458183.0,0.0
-3.369094,-10.04507,-6.927221,123.900002,-89.879997,-1.54,1729476458203.0,0.0
-1.600798,-6.037091,-12.110075,119.840004,-79.519997,13.3,1729476458223.0,0.0
-2.09372,-7.204789,-11.050055,197.889999,-20.51,37.450001,1729476458244.0,0.0
-3.553342,-10.097712,-8.370094,262.5,49.349998,37.310001,1729476458263.0,0.0
-4.115655,-11.205588,-6.563512,277.76001,53.200001,22.75,1729476458282.0,0.0
-3.416951,-8.090133,-7.032506,275.380005,38.639999,24.57,1729476458304.0,0.0
-3.426522,-9.016156,-4.555934,324.519989,51.099998,23.1,1729476458324.0,0.0
-3.56052,-10.545169,-0.753739,330.470001,49.560001,-5.95,1729476458345.0,0.0
-3.072384,-8.717053,-0.306281,306.880005,39.619999,-10.36,1729476458363.0,0.0
-3.414558,-6.972685,0.122034,274.610016,41.439999,-8.19,1729476458383.0,0.0
-3.821337,-9.762716,-0.526421,273.0,27.299999,-24.5,1729476458403.0,0.0
-2.596212,-10.025927,-0.899701,264.320007,18.969999,-40.740002,1729476458423.0,0.0
-2.665605,-12.086146,2.067399,303.730011,60.130001,-35.630001,1729476458443.0,0.0
-3.790231,-9.97807,0.595813,322.279999,83.230003,-56.349998,1729476458462.0,0.0
-5.45085,-8.185846,5.091926,375.899994,81.970001,-71.68,1729476458483.0,0.0
-4.278367,-0.007178,7.795816,400.959991,103.32,-59.150002,1729476458504.0,0.0
-8.054241,-1.624727,9.233903,266.420013,63.420002,-53.619999,1729476458523.0,0.0
-6.23091,-6.484549,7.62114,65.800003,-38.009998,-85.82,1729476458544.0,0.0
-2.117648,-3.74716,7.640282,87.010002,-22.960001,-63.279999,1729476458563.0,0.0
-5.056034,-1.237089,12.169895,134.539993,-12.25,-34.509998,1729476458582.0,0.0
-3.531806,-2.811567,7.886744,65.660004,-57.82,-39.830002,1729476458604.0,0.0
-2.423929,-3.261417,7.389036,28.91,-58.170002,-24.639999,1729476458623.0,0.0
-1.292124,-2.402394,6.130411,28.559999,-35.77,-0.91,1729476458644.0,0.0
-1.722832,-3.328416,6.585048,15.26,-32.689999,1.61,1729476458664.0,0.0
-0.392423,-3.486342,5.938986,23.870001,-21.35,15.47,1729476458683.0,0.0
-2.500499,-5.630312,7.243074,15.05,-18.27,6.93,1729476458709.0,0.0
-1.399801,-3.771089,6.381658,-28.49,-11.27,25.200001,1729476458724.0,0.0
-1.825724,-3.924229,7.149754,-82.879997,-23.309999,27.299999,1729476458744.0,0.0
-1.454836,-4.642076,4.613362,-145.809998,-35.279999,48.09,1729476458762.0,0.0
-1.806581,-5.582455,4.189832,-166.529999,-25.76,51.240002,1729476458783.0,0.0
-2.495714,-7.243074,4.09412,-168.979996,-19.809999,49.700001,1729476458803.0,0.0
-3.270989,-7.487142,5.424529,-172.830002,-13.37,49.630001,1729476458823.0,0.0
-3.639483,-6.836295,5.35753,-220.5,-18.27,55.860001,1729476458845.0,0.0
-4.144369,-7.133004,3.694518,-276.360016,-25.76,54.459999,1729476458862.0,0.0
-3.029313,-8.95155,2.689533,-333.970001,-42.279999,48.02,1729476458883.0,0.0
-2.251646,-10.959127,0.976272,-419.440002,-60.130001,48.720001,1729476458903.0,0.0
-2.208575,-12.859028,-1.442872,-507.570007,-65.309998,40.110001,1729476458923.0,0.0
-2.871387,-14.510076,-2.447858,-508.130005,-56.139999,27.23,1729476458947.0,0.0
-4.072584,-15.582061,0.815953,-404.529999,-30.24,17.5,1729476458963.0,0.0
-4.321437,-10.169496,1.758725,-344.329987,9.73,-4.69,1729476458982.0,0.0
-5.249853,-11.949757,2.646462,-231.910004,-5.74,-5.81,1729476459004.0,0.0
-2.24686,-10.009177,0.112463,-218.889999,-28.0,-20.51,1729476459024.0,0.0
-0.141177,-12.59821,-4.890929,-161.630005,-33.389999,-19.18,1729476459043.0,0.0
0.124427,-10.880164,-3.146562,-125.300003,0.91,-12.95,1729476459063.0,0.0
-0.954736,-9.279366,-3.792624,-11.76,35.07,-12.88,1729476459083.0,0.0
-2.309074,-7.580462,-2.684747,80.639999,28.280001,6.44,1729476459103.0,0.0
-1.76351,-7.518249,-2.565106,89.669998,4.34,4.76,1729476459124.0,0.0
-0.971486,-7.9681,-4.110869,44.099998,-11.76,6.23,1729476459144.0,0.0
-1.241875,-7.365108,-3.548556,52.5,-14.84,22.469999,1729476459164.0,0.0
-2.734996,-6.628119,-2.084148,89.949997,5.95,30.450001,1729476459183.0,0.0
-4.287938,-6.745367,0.476172,58.170002,-5.25,31.01,1729476459210.0,0.0
-4.15394,-7.520642,-0.59342,27.65,-17.57,34.02,1729476459222.0,0.0
-2.943172,-9.430114,-2.467,25.690001,-36.189999,36.330002,1729476459243.0,0.0
-3.553342,-8.69791,-1.198804,-0.63,-35.84,34.650002,1729476459264.0,0.0
-5.45085,-9.79143,0.457029,-6.37,-18.690001,37.799999,1729476459282.0,0.0
-6.331409,-9.341579,-1.646262,-41.790001,-26.460001,29.26,1729476459303.0,0.0
-6.015556,-8.566305,-2.835495,-67.550003,-44.799999,14.35,1729476459326.0,0.0
-4.35733,-7.858029,-4.649254,-60.41,-53.549999,-2.17,1729476459344.0,0.0
-3.981657,-6.568298,-4.771288,-79.449997,-57.959999,-3.29,1729476459362.0,0.0
-4.395615,-4.67079,-6.175875,-147.770004,-54.18,0.84,1729476459383.0,0.0
-4.402793,-4.922036,-8.236095,-184.240005,-48.650002,-2.52,1729476459404.0,0.0
-4.132405,-6.687939,-9.243474,-192.990005,-52.43,-3.5,1729476459423.0,0.0
-4.189832,-8.023134,-11.196017,-192.850006,-45.009998,0.07,1729476459444.0,0.0
-4.718646,-9.422935,-13.627125,-174.580002,-10.43,-8.75,1729476459462.0,0.0
-4.570292,-10.616954,-11.763116,-54.040001,56.91,-1.19,1729476459484.0,0.0
-4.936393,-14.624931,-3.254239,118.93,64.540001,17.639999,1729476459505.0,0.0
-4.527221,-8.764909,-4.156333,150.990005,78.68,-6.79,1729476459524.0,0.0
-4.101298,-6.893722,-7.360322,158.059998,64.610001,-17.08,1729476459545.0,0.0
-2.364109,-6.144768,-3.940979,101.709999,63.139999,-9.66,1729476459574.0,0.0
-1.919044,-8.25763,-6.022735,73.5,65.800003,-7.35,1729476459584.0,0.0
-2.325824,-7.113862,-3.431308,131.039993,74.269997,3.78,1729476459604.0,0.0
-4.804788,-9.812965,-1.634298,278.320007,93.099998,22.26,1729476459626.0,0.0
-3.909872,-5.871986,3.026921,230.089996,49.91,-5.18,1729476459644.0,0.0
-2.342573,-7.489535,3.924229,115.150002,8.68,-2.17,1729476459663.0,0.0
-1.701297,-9.71486,2.35693,34.299999,-10.71,-13.37,1729476459684.0,0.0
-1.801795,-11.980864,-1.024128,53.34,-24.85,-10.43,1729476459706.0,0.0
-2.931208,-9.080762,-1.115055,93.800003,-11.2,-12.53,1729476459725.0,0.0
-3.139383,-8.185846,-0.866202,98.0,5.11,-5.6,1729476459749.0,0.0
-2.861816,-8.073383,0.253639,73.779999,-1.4,-3.43,1729476459766.0,0.0
-3.28056,-7.377072,1.095913,52.080002,-7.84,4.48,1729476459785.0,0.0
-3.098706,-8.468199,0.732204,61.880001,-9.52,7.91,1729476459808.0,0.0
-4.180261,-7.367501,1.878366,30.799999,-18.48,16.52,1729476459825.0,0.0
-4.388437,-7.958528,1.430908,-20.299999,-25.620001,16.52,1729476459847.0,0.0
-4.735396,-7.601997,1.423729,-95.830002,-41.23,20.299999,1729476459867.0,0.0
-4.701896,-8.061419,-1.050449,-148.470001,-51.170002,22.049999,1729476459885.0,0.0
-4.225725,-7.04447,-3.378666,-180.389999,-53.060001,11.13,1729476459907.0,0.0
-4.278367,-6.235696,-4.778467,-179.410004,-40.670002,16.52,1729476459931.0,0.0
-4.307081,-6.463014,-4.259224,-151.619995,-30.030001,13.93,1729476459946.0,0.0
-4.795217,-7.063612,-4.007978,-138.039993,-35.07,15.12,1729476459965.0,0.0
-4.945964,-5.592027,-7.039684,-145.740005,-34.790001,16.309999,1729476459985.0,0.0
-5.125426,-5.199604,-6.939186,-151.130005,-26.25,22.75,1729476460005.0,0.0
-5.276174,-4.938786,-6.233303,-178.779999,-37.170002,19.25,1729476460025.0,0.0
-5.802595,-4.4339,-7.183254,-231.350006,-38.709999,14.35,1729476460046.0,0.0
-6.293124,-7.556533,-11.650653,-245.0,-31.710001,0.56,1729476460064.0,0.0
-3.773481,-14.093725,-13.033704,-84.279999,-54.110001,-0.63,1729476460084.0,0.0
-3.56052,-10.703095,-9.133404,39.130001,10.71,24.01,1729476460108.0,0.0
-4.563113,-8.46102,-9.872787,126.629997,82.529999,-2.03,1729476460126.0,0.0
-6.290731,-9.085547,-9.250652,138.110001,112.0,-13.3,1729476460147.0,0.0
-4.761717,-8.152347,-8.283953,128.940002,102.199997,-7.98,1729476460164.0,0.0
-2.155933,-6.809973,-1.897508,132.649994,95.550003,-7.56,1729476460184.0,0.0
-1.775474,-5.484349,2.979064,131.389999,95.340004,-7.0,1729476460207.0,0.0
-2.065006,-7.164111,5.017749,108.150002,57.189999,-13.58,1729476460225.0,0.0
-1.816152,-7.082755,3.797409,38.290001,2.03,-21.07,1729476460247.0,0.0
-1.481157,-8.518449,-0.445065,-4.69,-37.099998,-20.93,1729476460264.0,0.0
-1.368695,-9.784252,-1.28016,-11.2,-52.709999,-13.09,1729476460285.0,0.0
-2.744568,-7.759924,-1.897508,-20.09,-53.830002,-4.9,1729476460307.0,0.0
-5.340781,-9.549755,-3.620341,-45.080002,-50.049999,-8.61,1729476460326.0,0.0
-6.082555,-6.417551,-7.611568,-108.919998,-49.209999,-15.54,1729476460346.0,0.0
-5.469993,-7.597212,-11.806188,-127.75,-45.779999,-8.47,1729476460365.0,0.0
-5.455636,-9.559326,-12.323036,-82.599998,-4.06,-6.93,1729476460384.0,0.0
-4.807181,-7.484749,-8.80798,6.58,39.27,-2.03,1729476460406.0,0.0
-4.591826,-6.661618,-8.128418,57.889999,59.360001,-1.47,1729476460425.0,0.0
-3.787838,-5.991628,-4.051049,16.73,70.980003,-1.33,1729476460446.0,0.0
-3.158526,-8.578269,-1.588834,-14.14,60.619999,3.85,1729476460464.0,0.0
-1.490728,-9.844072,-1.818545,-30.030001,39.060001,-5.25,1729476460484.0,0.0
0.239282,-9.10469,-2.002793,7.77,27.440001,0.49,1729476460505.0,0.0
0.066999,-7.077969,2.172683,52.5,10.22,5.32,1729476460525.0,0.0
-3.859623,-7.104291,1.684547,39.060001,13.93,2.17,1729476460545.0,0.0
-5.369494,-8.152347,-0.492921,-4.9,-27.58,-7.07,1729476460564.0,0.0
-2.266003,-7.130611,-3.842873,-25.34,-94.639999,-6.58,1729476460585.0,0.0
-0.717847,-9.152546,-10.365707,-26.040001,-125.440002,1.96,1729476460606.0,0.0
-2.522035,-6.539584,-12.074183,-67.340004,-76.230003,-3.78,1729476460625.0,0.0
-6.118448,-5.158926,-10.652846,-135.240005,-0.42,8.96,1729476460645.0,0.0
-7.992027,-9.602397,-13.478769,-152.389999,10.64,-9.66,1729476460665.0,0.0
-6.740582,-10.04507,-10.080962,-26.040001,44.52,0.14,1729476460684.0,0.0
-3.74716,-5.474778,-6.185446,87.709999,45.5,12.18,1729476460708.0,0.0
-2.847459,-5.682954,-5.072784,89.25,53.130001,5.67,1729476460725.0,0.0
-4.101298,-7.377072,-6.305088,-7.98,70.209999,-7.28,1729476460747.0,0.0
-3.352344,-7.104291,-4.816752,-88.269997,65.029999,-11.83,1729476460765.0,0.0
-1.347159,-7.755138,-3.512664,-66.150002,33.18,-5.46,1729476460784.0,0.0
-0.050249,-9.62154,-3.113062,-6.58,16.73,-1.82,1729476460805.0,0.0
-1.158126,-10.468598,-3.567699,40.389999,31.92,-5.81,1729476460824.0,0.0
-2.847459,-8.796017,-3.395415,65.449997,28.35,-12.95,1729476460845.0,0.0
-2.718246,-5.618347,-3.120241,24.15,6.79,-16.450001,1729476460864.0,0.0
-2.591427,-7.357929,-3.096312,-11.9,-10.78,-6.23,1729476460885.0,0.0
-2.146362,-8.662018,-4.938786,-29.4,-34.02,-6.23,1729476460905.0,0.0
-1.940579,-8.930015,-6.343372,16.59,-35.700001,2.17,1729476460924.0,0.0
-2.744568,-8.551948,-6.666404,54.810001,-16.59,4.97,1729476460946.0,0.0
-3.826123,-7.740781,-6.139983,72.660004,7.77,8.05,1729476460964.0,0.0
-3.9338,-7.759924,-5.283352,90.019997,27.440001,14.98,1729476460984.0,0.0
-3.103491,-9.786645,-2.340181,155.680008,0.7,41.23,1729476461004.0,0.0
-3.617948,-10.222138,0.969093,170.660004,-14.7,31.08,1729476461024.0,0.0
-4.048656,-8.937192,-2.316252,95.620003,-21.280001,2.66,1729476461045.0,0.0
-3.397808,-9.171689,-7.369894,113.050003,-33.599998,15.33,1729476461065.0,0.0
-1.598405,-11.688939,-9.602397,257.809998,-11.48,35.77,1729476461084.0,0.0
-3.778267,-10.320245,-5.802595,430.429993,59.709999,48.09,1729476461104.0,0.0
-5.618347,-12.703495,-3.268596,526.609985,75.389999,20.440001,1729476461125.0,0.0
-5.218746,-9.96132,-1.17009,508.76001,51.869999,-14.7,1729476461146.0,0.0
-2.837888,-10.683953,-1.548156,495.529999,45.290001,-37.869999,1729476461165.0,0.0
-1.318445,-8.183454,-1.804188,461.299988,81.480003,-74.690002,1729476461184.0,0.0
-5.015356,-2.258825,1.72044,437.360016,120.82,-43.610001,1729476461205.0,0.0
-5.582455,-0.184247,6.692725,449.190002,83.300003,-62.369999,1729476461224.0,0.0
-5.498707,-2.426322,8.46102,338.029999,55.09,-57.400002,1729476461255.0,0.0
-3.017349,-1.89033,7.089933,220.850006,38.57,-55.93,1729476461264.0,0.0
-5.063213,-4.878965,6.453443,177.240005,35.420002,-31.219999,1729476461285.0,0.0
-3.089134,-5.615955,6.556334,156.729996,33.740002,-22.120001,1729476461305.0,0.0
-5.017749,-3.148954,7.889136,164.639999,49.209999,-22.68,1729476461325.0,0.0
-5.166104,-1.835295,7.881958,141.539993,38.290001,-20.719999,1729476461345.0,0.0
-5.453243,-1.808974,9.085547,96.879997,27.09,-21.35,1729476461365.0,0.0
-5.223531,-3.464807,8.930015,44.310001,9.87,-17.57,1729476461384.0,0.0
-4.831109,-1.612763,8.633304,39.200001,3.64,-11.62,1729476461406.0,0.0
-4.682754,-1.064806,8.767302,18.549999,-3.36,3.64,1729476461427.0,0.0
-3.878766,-2.957529,8.355737,-21.42,-18.83,7.0,1729476461447.0,0.0
-3.507878,-3.206382,8.501699,-42.420002,-22.4,17.01,1729476461464.0,0.0
-3.419343,-4.486543,8.504091,-67.269997,-31.290001,22.049999,1729476461485.0,0.0
-2.880959,-3.553342,7.707282,-81.129997,-35.07,26.110001,1729476461505.0,0.0
-2.256432,-2.201397,8.597411,-93.169998,-32.830002,35.91,1729476461528.0,0.0
-2.478964,-4.651647,7.403394,-163.309998,-47.25,32.41,1729476461547.0,0.0
-2.371287,-6.575477,5.47717,-232.050003,-64.330002,26.67,1729476461566.0,0.0
-2.256432,-6.908078,4.321437,-218.820007,-49.630001,41.580002,1729476461585.0,0.0
-2.787638,-6.982256,5.572884,-193.690002,-33.880001,38.290001,1729476461605.0,0.0
-3.127419,-6.216553,7.080362,-228.059998,-35.490002,37.66,1729476461627.0,0.0
-3.718446,-6.62094,5.486742,-299.110016,-49.77,40.670002,1729476461649.0,0.0
-2.876173,-8.932407,2.318645,-358.890015,-63.490002,34.860001,1729476461666.0,0.0
-2.009971,-11.684153,0.425922,-398.369995,-68.949997,22.4,1729476461686.0,0.0
-3.058028,-12.794422,2.340181,-404.459991,-42.84,18.83,1729476461710.0,0.0
-4.716253,-10.545169,4.9675,-386.890015,-23.66,18.83,1729476461726.0,0.0
-5.611169,-10.253245,7.415358,-339.01001,-25.9,-1.12,1729476461749.0,0.0
-4.639683,-10.607382,5.228317,-317.100006,-46.48,-9.8,1729476461766.0,0.0
-3.050849,-10.801201,2.364109,-255.009995,-42.91,-5.04,1729476461789.0,0.0
-3.0006,-12.485749,0.023928,-193.830002,-23.870001,-7.07,1729476461808.0,0.0
-3.290131,-6.216553,-5.123034,-199.990005,3.01,-0.7,1729476461828.0,0.0
-4.225725,-9.88475,-3.799802,-84.980003,22.4,-4.34,1729476461847.0,0.0
-3.136991,-11.822936,-4.831109,-8.26,11.69,-4.76,1729476461867.0,0.0
-1.198804,-9.875179,-4.661219,64.540001,14.98,-5.39,1729476461887.0,0.0
-0.739382,-7.412964,-2.242075,89.32,18.83,-9.45,1729476461909.0,0.0
-1.105484,-5.852845,-2.629712,49.98,20.51,1.61,1729476461929.0,0.0
-1.627119,-8.094919,-1.567299,40.110001,16.379999,10.57,1729476461947.0,0.0
-3.393023,-9.382257,0.294317,47.950001,15.75,18.48,1729476461970.0,0.0
-3.864408,-9.29133,-0.648455,56.91,4.62,15.05,1729476461987.0,0.0
-3.180061,-7.444071,-0.172283,44.170002,-8.96,17.85,1729476462008.0,0.0
-2.734996,-7.910671,-0.638884,-21.700001,-17.43,14.07,1729476462029.0,0.0
-3.400201,-9.023334,-0.524028,-59.220001,-12.39,16.24,1729476462047.0,0.0
-3.991228,-7.302894,-0.784846,-39.200001,-16.66,16.940001,1729476462067.0,0.0
-4.924429,-7.573284,1.251446,-8.61,-25.76,33.389999,1729476462087.0,0.0
-4.809574,-7.467999,1.641476,1.26,-44.170002,30.17,1729476462109.0,0.0
-5.029713,-8.729016,1.957329,-15.75,-53.060001,28.77,1729476462125.0,0.0
-5.893522,-7.439285,-0.284746,-118.650002,-62.790001,21.700001,1729476462147.0,0.0
-5.860023,-8.671589,-1.820938,-212.029999,-74.620003,5.81,1729476462166.0,0.0
-5.601598,-8.377272,-4.821537,-264.390015,-85.889999,-9.31,1729476462187.0,0.0
-4.68754,-9.45165,-7.322037,-165.619995,-70.980003,-18.41,1729476462206.0,0.0
-5.065606,-6.972685,-7.769495,-87.080002,-40.670002,-15.190001,1729476462228.0,0.0
-5.194818,-3.981657,-8.657232,-65.519997,-5.67,1.68,1729476462247.0,0.0
-4.220939,-6.283553,-8.16431,-11.34,-10.64,8.82,1729476462267.0,0.0
-4.079762,-6.151947,-6.597012,-48.720001,-24.85,7.77,1729476462286.0,0.0
-4.338188,-6.821937,-5.661418,-88.059998,-20.440001,0.77,1729476462307.0,0.0
-4.307081,-8.52802,-5.819345,-84.629997,-20.370001,-11.34,1729476462326.0,0.0
-3.524628,-8.085347,-9.056834,-74.129997,-28.07,-15.26,1729476462348.0,0.0
-3.979264,-8.085347,-8.152347,-49.139999,-16.379999,2.17,1729476462366.0,0.0
-4.852644,-7.487142,-4.101298,-75.529999,17.43,3.01,1729476462386.0,0.0
-5.757132,-5.563312,-3.850052,-97.230003,21.35,-6.44,1729476462407.0,0.0
-5.895915,-6.996613,-9.382257,-79.449997,-6.23,-4.76,1729476462426.0,0.0
-5.426922,-9.62154,-10.459028,-73.919998,-0.21,9.31,1729476462449.0,0.0
-4.359723,-13.244273,-7.834101,24.290001,17.710001,7.0,1729476462464.0,0.0
-4.677969,-8.408379,-7.238289,94.150002,71.470001,8.54,1729476462485.0,0.0
-5.190032,-6.02752,-7.910671,106.050003,99.050003,3.5,1729476462509.0,0.0
-5.072784,-7.757531,0.476172,49.420002,89.32,2.38,1729476462526.0,0.0
-3.981657,-6.453443,-3.361916,-17.219999,68.949997,-2.31,1729476462548.0,0.0
-3.038885,-6.429514,-3.055635,-28.280001,53.27,7.84,1729476462568.0,0.0
-2.428715,-7.281359,-2.440679,60.41,58.099998,25.200001,1729476462587.0,0.0
-2.342573,-8.216952,0.985843,56.490002,53.34,27.23,1729476462606.0,0.0
-1.79701,-9.547362,1.830509,-15.82,16.59,8.82,1729476462626.0,0.0
-2.660819,-11.892329,-2.134398,-53.830002,-23.799999,-14.63,1729476462646.0,0.0
-3.199204,-11.440084,-4.498507,-35.91,-41.09,-40.32,1729476462666.0,0.0
-1.878366,-8.662018,-7.118648,34.02,-79.099998,-36.889999,1729476462686.0,0.0
-3.28056,-4.141976,-6.898508,-6.37,-65.730003,-40.389999,1729476462710.0,0.0
-6.759724,-0.856631,-12.547962,-88.480003,-35.279999,-12.46,1729476462726.0,0.0
-7.62114,-6.324231,-16.565512,-173.389999,-9.1,-18.48,1729476462748.0,0.0
-5.194818,-8.451449,-11.243874,-92.959999,47.810001,3.01,1729476462765.0,0.0
-2.737389,-8.001599,-7.077969,91.559998,54.599998,29.33,1729476462786.0,0.0
-3.9338,-5.876772,-5.012963,129.850006,86.940002,20.440001,1729476462807.0,0.0
-5.15414,-4.65404,-4.56072,51.59,95.550003,16.59,1729476462897.0,0.0
-2.897708,-5.54417,-1.366302,-27.09,75.459999,24.99,1729476462899.0,0.0
-0.301496,-8.288737,0.454636,-27.299999,25.549999,30.030001,1729476462902.0,0.0
-1.268196,-10.817951,1.124627,-8.75,8.19,18.41,1729476462905.0,0.0
-4.285545,-12.471392,-2.330609,27.09,-18.129999,-12.11,1729476462907.0,0.0
-4.63729,-8.724231,-4.740182,45.009998,-35.560001,-32.27,1729476462931.0,0.0
-2.431108,-5.051248,-6.62094,33.740002,-94.639999,-32.689999,1729476462947.0,0.0
-1.612763,-3.658626,-8.55434,-31.710001,-92.050003,-28.210001,1729476462965.0,0.0
-5.278566,-6.876972,-11.492726,-119.139999,-57.260002,-24.43,1729476462986.0,0.0
-9.38465,-8.597411,-13.684553,-124.739998,14.42,-25.620001,1729476463006.0,0.0
-3.52702,-5.876772,-7.075576,101.010002,29.960001,29.889999,1729476463030.0,0.0
-2.907279,-6.733403,-5.673382,104.790001,57.119999,21.91,1729476463084.0,0.0
-5.359922,-5.54417,-7.365108,21.210001,95.690002,16.17,1729476463099.0,0.0
-2.658426,-4.589434,-7.262216,-17.08,79.169998,24.99,1729476463101.0,0.0
-0.713061,-8.415558,-1.538585,16.379999,60.970001,39.200001,1729476463106.0,0.0
-1.268196,-8.80798,1.09352,45.779999,57.540001,30.1,1729476463132.0,0.0
-2.325824,-9.973285,2.254039,66.360001,16.17,13.86,1729476463153.0,0.0
-4.302295,-9.126225,1.555335,25.41,-24.85,-16.379999,1729476463204.0,0.0
-3.598805,-7.501499,-2.979064,-18.9,-63.98,-36.610001,1729476463205.0,0.0
-0.629312,-5.558527,-6.393622,-43.959999,-117.739998,-40.740002,1729476463207.0,0.0
-1.447658,-7.578069,-10.746166,-54.880001,-107.239998,-31.92,1729476463244.0,0.0
-5.687739,-7.152147,-14.400006,-94.709999,-51.59,-40.670002,1729476463246.0,0.0
-9.351151,-7.939385,-14.778071,-72.309998,13.09,-35.700001,1729476463265.0,0.0
-7.357929,-5.525027,-10.691131,18.9,33.810001,-2.24,1729476463291.0,0.0
-2.63689,-6.876972,-7.290931,83.860001,22.540001,14.77,1729476463305.0,0.0
-4.62054,-7.853244,-6.723832,29.82,75.459999,-3.15,1729476463326.0,0.0
-3.871587,-5.345565,-8.061419,7.07,77.769997,-1.19,1729476463348.0,0.0
-1.57687,-5.460421,-2.646462,36.470001,63.700001,12.74,1729476463367.0,0.0
-1.526621,-8.77448,-0.51685,71.68,63.209999,13.37,1729476463387.0,0.0
-1.792224,-10.179067,0.248854,78.050003,41.860001,-0.49,1729476463407.0,0.0
-0.952343,-9.504292,1.062413,117.25,-3.08,-10.29,1729476463427.0,0.0
-0.617348,-7.609176,-0.100499,150.360001,-42.139999,-13.86,1729476463447.0,0.0
-1.330409,-7.070791,-0.739382,140.210007,-53.200001,-14.7,1729476463466.0,0.0
-1.009771,-4.979464,-2.773281,68.040001,-80.43,-6.58,1729476463486.0,0.0
-1.512264,-5.807381,-5.460421,-3.92,-99.68,10.64,1729476463507.0,0.0
-4.244867,-7.197611,-10.875379,-87.220001,-70.0,21.49,1729476463527.0,0.0
-8.982656,-14.668003,-8.752945,-82.459999,-17.639999,20.719999,1729476463629.0,0.0
-6.958328,-10.325029,-6.290731,-9.52,35.98,5.04,1729476463631.0,0.0
-3.469593,-6.221339,-4.587041,56.0,44.799999,8.47,1729476463632.0,0.0
-1.804188,-8.611769,-5.010571,23.379999,31.43,7.77,1729476463702.0,0.0
-1.505085,-9.458827,-0.095713,5.25,55.720001,8.4,1729476463702.0,0.0
-2.041078,-6.745367,-4.68754,-15.96,62.369999,7.84,1729476463703.0,0.0
-0.902094,-9.32483,4.26401,47.18,3.64,8.12,1729476463703.0,0.0
-0.859023,-6.848258,-0.062213,36.189999,-17.360001,3.92,1729476463710.0,0.0
-2.344966,-6.826723,-1.201197,16.73,-25.27,-7.07,1729476463726.0,0.0
-3.031706,-6.013163,-4.869394,-60.27,-45.5,-7.14,1729476463747.0,0.0
-2.304288,-8.506484,-7.202396,-87.010002,-77.980003,-2.45,1729476463768.0,0.0
-3.512664,-11.693724,-6.91765,-56.77,-78.470001,5.32,1729476463790.0,0.0
-5.481956,-10.559525,-9.140583,4.13,-35.91,-7.63,1729476463808.0,0.0
-6.809973,-8.523234,-10.24846,-10.71,10.22,-10.78,1729476463828.0,0.0
-6.116055,-7.814958,-10.289137,-62.93,36.119999,-17.57,1729476463861.0,0.0
-4.297509,-10.442278,-5.793024,-9.45,47.18,2.87,1729476463868.0,0.0
-2.897708,-10.289137,-5.367101,67.620003,61.389999,-3.85,1729476463890.0,0.0
-2.868994,-6.063413,2.124826,76.019997,71.470001,-0.49,1729476463910.0,0.0
-2.009971,-5.383851,-3.795017,31.639999,56.560001,-0.28,1729476463928.0,0.0
-0.990629,-7.185646,5.20439,-17.219999,-21.35,8.05,1729476463950.0,0.0
-1.055235,-9.109475,-2.026721,9.24,-24.92,7.56,1729476463969.0,0.0
-2.955136,-8.140383,-3.586841,-17.15,-23.52,-6.37,1729476463990.0,0.0
-3.134598,-6.573084,-7.953743,-52.779999,-45.709999,-7.07,1729476464013.0,0.0
-1.964507,-8.685946,-7.250252,-25.129999,-72.660004,5.46,1729476464027.0,0.0
-3.495914,-13.46202,-4.953143,57.610001,-56.84,5.95,1729476464049.0,0.0
-5.821737,-8.961121,-10.758131,49.560001,-1.33,-8.82,1729476464070.0,0.0
-7.128219,-6.805188,-8.441878,-13.3,17.5,-17.219999,1729476464088.0,0.0
-4.864608,-7.668997,-7.020542,-51.450001,21.629999,-15.75,1729476464108.0,0.0
-2.89053,-9.992428,-4.847858,9.73,29.82,6.09,1729476464129.0,0.0
-3.23031,-9.025726,-4.711468,72.379997,60.48,2.87,1729476464151.0,0.0
-3.754339,-7.408179,1.445265,84.559998,64.68,3.01,1729476464168.0,0.0
-3.491128,-4.924429,-3.065206,12.88,51.799999,2.1,1729476464189.0,0.0
-0.870987,-8.365308,0.363709,-20.23,11.41,3.36,1729476464210.0,0.0
0.282353,-8.26481,1.485943,-5.32,-16.940001,14.91,1729476464228.0,0.0
-1.354338,-8.767302,-2.852244,33.740002,-6.72,6.16,1729476464251.0,0.0
-3.536592,-6.419943,-4.694718,-25.34,-10.36,-8.33,1729476464268.0,0.0
-1.990828,-8.334201,-6.156733,-51.450001,-65.730003,1.05,1729476464287.0,0.0
-3.172883,-11.263017,-5.690133,-32.830002,-70.0,-2.45,1729476464308.0,0.0
-4.989035,-10.968699,-7.609176,10.29,-40.740002,-16.030001,1729476464330.0,0.0
-7.133004,-5.649454,-9.422935,-82.040001,0.7,-13.72,1729476464349.0,0.0
-6.13759,-7.9681,-9.958927,-106.610001,15.82,-20.93,1729476464367.0,0.0
-3.866802,-11.23191,-6.022735,-18.200001,27.299999,7.07,1729476464387.0,0.0
-3.29731,-10.430314,-4.065405,86.169998,53.41,7.14,1729476464408.0,0.0
-3.806981,-7.252645,0.835095,98.07,66.989998,-0.21,1729476464429.0,0.0
-3.852444,-3.59402,-2.868994,5.53,45.290001,-3.71,1729476464448.0,0.0
-1.751546,-8.133204,-1.952543,-31.15,8.33,-1.4,1729476464468.0,0.0
-0.351745,-9.332008,1.048056,-31.639999,-20.299999,5.46,1729476464487.0,0.0
-0.708275,-8.764909,-3.582055,31.01,-13.79,-0.77,1729476464508.0,0.0
-2.151148,-8.484949,-6.855437,24.639999,-9.03,-8.05,1729476464527.0,0.0
-2.354537,-6.506085,-5.211568,-41.580002,-19.879999,-7.21,1729476464548.0,0.0
-0.954736,-9.722038,-5.893522,-20.09,-47.529999,-0.98,1729476464567.0,0.0
-0.909273,-10.217353,-4.465007,45.009998,-50.400002,-5.46,1729476464587.0,0.0
-4.266403,-5.101498,0.990629,89.18,-22.75,-6.86,1729476464607.0,0.0
-4.697111,-4.311867,-3.761517,-2.45,-57.119999,13.440001,1729476464628.0,0.0
-4.110869,-5.69731,-5.295317,-74.269997,-68.669998,21.700001,1729476464648.0,0.0
-4.503292,-8.877372,-5.489135,-113.540001,-55.790001,30.73,1729476464667.0,0.0
-5.682954,-10.095319,-5.197211,-61.529999,-39.619999,32.830002,1729476464687.0,0.0
-6.424729,-10.399208,-3.474378,-14.14,-32.619999,21.91,1729476464710.0,0.0
-6.388836,-6.759724,-3.816552,-16.030001,-15.12,15.54,1729476464728.0,0.0
-5.558527,-6.321837,-4.725825,-23.1,-34.23,19.18,1729476464751.0,0.0
-4.780859,-7.32443,-4.723432,-35.139999,-39.34,15.05,1729476464767.0,0.0
-3.993621,-8.097312,-4.345366,-25.76,-46.060001,15.47,1729476464787.0,0.0
-3.510271,-8.025528,-6.876972,-32.34,-55.439999,13.93,1729476464807.0,0.0
-5.005785,-9.217153,-8.269595,-70.699997,-35.630001,3.99,1729476464828.0,0.0
-6.075377,-7.9011,-9.726824,-66.639999,-3.99,-6.02,1729476464848.0,0.0
-6.199803,-7.659425,-9.659825,0.35,18.83,1.33,1729476464867.0,0.0
-5.525027,-6.431907,-7.649854,38.080002,45.779999,1.54,1729476464887.0,0.0
-4.697111,-5.836094,-7.298109,42.84,57.400002,3.5,1729476464908.0,0.0
-4.235296,-7.482357,-6.020342,30.940001,63.630001,8.82,1729476464928.0,0.0
-3.431308,-7.635497,-3.586841,10.78,71.75,8.33,1729476464949.0,0.0
-2.502892,-8.12124,-1.282553,-6.58,59.779999,5.88,1729476464969.0,0.0
-2.230111,-8.099705,0.471386,-15.47,39.34,0.91,1729476464987.0,0.0
-3.103491,-9.01137,0.399601,-10.92,8.12,-4.55,1729476465010.0,0.0
-4.534399,-9.200402,0.323031,-30.380001,-17.01,-17.85,1729476465027.0,0.0
-5.321638,-9.614362,-3.416951,-42.560001,-48.860001,-29.190001,1729476465049.0,0.0
-5.079963,-8.305488,-3.148954,-81.059998,-68.459999,-45.080002,1729476465069.0,0.0
-4.759324,-4.689932,-5.4006,-136.080002,-79.519997,-47.670002,1729476465087.0,0.0
-5.230711,-5.82413,-10.664811,-116.059998,-83.230003,-34.93,1729476465108.0,0.0
-6.611369,-8.405986,-12.684352,-71.260002,-27.790001,-23.66,1729476465127.0,0.0
-6.269196,-8.343772,-13.282558,-2.8,23.309999,-14.49,1729476465149.0,0.0
-5.070391,-5.848059,-9.499505,39.48,58.450001,-1.47,1729476465169.0,0.0
-4.089334,-4.809574,-7.180861,65.660004,79.309998,9.8,1729476465189.0,0.0
-3.629912,-6.269196,-6.300302,70.559998,80.360001,13.93,1729476465209.0,0.0
-2.790031,-6.12084,-4.079762,38.220001,86.099998,11.34,1729476465229.0,0.0
-1.284946,-5.900701,-1.380659,4.62,64.120003,9.17,1729476465248.0,0.0
-1.275374,-8.267202,-0.882952,8.33,39.48,13.93,1729476465267.0,0.0
-4.388437,-9.463614,-1.167697,46.41,12.81,-5.67,1729476465286.0,0.0
-5.962914,-9.365508,-2.139183,58.029999,-15.96,-23.450001,1729476465309.0,0.0
-5.249853,-6.257231,-3.730411,14.28,-58.869999,-40.880001,1729476465327.0,0.0
-4.783253,-6.204589,-0.961915,-35.700001,-98.980003,-52.990002,1729476465349.0,0.0
-3.550949,-3.24706,-8.99462,-71.260002,-103.669998,-48.09,1729476465368.0,0.0
-3.775874,-6.479764,-13.51227,-59.990002,-107.239998,-20.299999,1729476465395.0,0.0
-5.242674,-9.224331,-13.18206,-72.449997,-13.72,-14.63,1729476465408.0,0.0
-5.788238,-8.673983,-10.597812,-25.41,48.720001,-7.91,1729476465428.0,0.0
-3.402594,-6.020342,-8.094919,34.650002,42.139999,7.42,1729476465449.0,0.0
-1.698904,-5.702096,-7.601997,62.860001,46.27,15.96,1729476465467.0,0.0
-2.979064,-6.364908,-5.496314,21.35,90.019997,15.82,1729476465487.0,0.0
-3.055635,-7.420143,-3.902694,-26.74,85.75,8.12,1729476465508.0,0.0
-2.239682,-10.305886,-2.612962,1.19,47.110001,7.0,1729476465527.0,0.0
-2.347359,-11.282159,-0.993021,58.240002,38.709999,-7.98,1729476465552.0,0.0
-3.294917,-9.559326,0.332602,77.699997,15.54,-27.58,1729476465568.0,0.0
-3.883551,-7.735995,-1.548156,45.43,-11.41,-49.139999,1729476465587.0,0.0
-2.359323,-7.221539,-4.366901,-3.99,-73.220001,-49.209999,1729476465610.0,0.0
-2.522035,-6.015556,-7.24786,-14.35,-75.809998,-41.720001,1729476465628.0,0.0
-3.658626,-4.266403,-6.549156,-34.369999,-50.75,-26.74,1729476465652.0,0.0
-3.541377,-4.831109,-7.456036,-46.619999,-46.060001,-5.11,1729476465669.0,0.0
-2.993421,-6.532406,-8.408379,-65.379997,-43.540001,4.62,1729476465690.0,0.0
-3.404987,-7.879565,-9.054441,-54.389999,-14.0,5.67,1729476465712.0,0.0
-3.826123,-8.240881,-10.686346,-7.91,8.19,8.96,1729476465729.0,0.0
-3.940979,-6.585048,-10.126426,2.94,32.130001,12.18,1729476465751.0,0.0
-4.072584,-5.970093,-8.671589,-21.77,59.920002,14.0,1729476465769.0,0.0
-3.711268,-7.925028,-8.154739,-31.639999,61.040001,17.43,1729476465790.0,0.0
-3.613162,-8.49452,-6.156733,-14.98,69.580002,17.01,1729476465809.0,0.0
-3.74716,-7.24786,-4.37408,-12.6,73.43,7.91,1729476465830.0,0.0
-3.29731,-7.073184,-6.089733,-36.889999,61.880001,1.89,1729476465851.0,0.0
-1.244268,-8.472985,-5.977271,-53.41,55.650002,4.27,1729476465869.0,0.0
-1.136591,-7.448857,-3.524628,-0.84,49.560001,5.04,1729476465888.0,0.0
-1.694118,-8.214561,-1.768296,53.689999,35.77,6.86,1729476465909.0,0.0
-2.084148,-6.290731,-1.938186,36.540001,11.41,-0.63,1729476465929.0,0.0
-2.268396,-6.860222,-4.333402,-15.190001,-12.46,-4.13,1729476465950.0,0.0
-1.100698,-6.486942,-7.15454,-69.160004,-30.59,-9.24,1729476465969.0,0.0
-1.150948,-7.944171,-9.310472,-74.830002,-25.9,2.24,1729476465988.0,0.0
-1.239482,-8.602197,-8.638089,-50.889999,-4.27,-1.4,1729476466009.0,0.0
-1.976472,-7.097112,-6.611369,-17.219999,14.77,2.1,1729476466030.0,0.0
-2.660819,-5.642276,-3.883551,-7.42,14.77,10.92,1729476466050.0,0.0
-3.287738,-6.163911,-4.54397,25.34,8.54,21.280001,1729476466069.0,0.0
-3.014957,-6.089733,-4.697111,61.950001,-9.59,27.65,1729476466088.0,0.0
-3.347559,-7.192825,-2.400001,99.889999,-12.81,38.080002,1729476466113.0,0.0
-4.240082,-8.793623,-1.603191,99.610001,-17.92,25.059999,1729476466130.0,0.0
-4.630112,-9.243474,-3.038885,67.340004,-42.700001,16.309999,1729476466149.0,0.0
-3.079563,-9.554541,-7.267002,61.810001,-85.260002,13.09,1729476466170.0,0.0
-1.433301,-10.016356,-13.3352,99.260002,-95.690002,14.28,1729476466188.0,0.0
-2.158326,-11.150554,-11.684153,175.419998,-36.119999,17.780001,1729476466210.0,0.0
-4.651647,-9.762716,-5.819345,259.420013,83.510002,15.68,1729476466231.0,0.0
-5.692525,-9.432507,-6.171089,347.269989,70.559998,11.48,1729476466250.0,0.0
-4.73061,-10.971091,-4.23051,406.140015,51.66,3.22,1729476466268.0,0.0
-3.036492,-9.422935,-3.708875,411.670013,45.009998,-5.39,1729476466289.0,0.0
-2.813959,-8.630912,-2.036292,438.269989,59.779999,-3.36,1729476466310.0,0.0
-3.213561,-7.910671,-0.760918,447.860016,54.529999,-27.790001,1729476466329.0,0.0
-2.005185,-8.764909,-1.832902,454.089996,60.27,-47.880001,1729476466349.0,0.0
-4.56072,-8.157133,2.57707,370.299988,82.599998,-53.27,1729476466368.0,0.0
-4.146761,-5.455636,4.663611,333.200012,71.959999,-65.590004,1729476466388.0,0.0
-4.98425,-5.295317,6.250053,329.980011,82.809998,-53.830002,1729476466410.0,0.0
-5.886343,-5.381458,5.690133,276.429993,62.860001,-63.0,1729476466428.0,0.0
-4.82393,-6.592227,5.592027,218.399994,40.25,-66.779999,1729476466451.0,0.0
-3.416951,-5.998806,5.907879,186.130005,33.110001,-66.849998,1729476466468.0,0.0
-3.627519,-3.570091,7.075576,199.080002,41.650002,-49.91,1729476466488.0,0.0
-4.515256,-2.952743,8.52802,158.550003,20.58,-45.220001,1729476466510.0,0.0
-3.493521,-2.447858,8.085347,108.150002,6.16,-34.299999,1729476466530.0,0.0
-3.17049,-3.194418,8.209774,83.860001,-0.84,-15.33,1729476466549.0,0.0
-2.947958,-2.622534,7.439285,59.849998,-6.16,-2.59,1729476466568.0,0.0
-2.787638,-2.383251,8.671589,32.900002,-4.06,6.65,1729476466589.0,0.0
-2.622534,-2.902494,8.465806,-11.06,-12.81,15.89,1729476466608.0,0.0
-2.45025,-3.972085,8.118847,-28.700001,-16.59,25.129999,1729476466629.0,0.0
-2.713461,-5.472386,8.090133,-40.32,-20.299999,24.01,1729476466649.0,0.0
-2.512464,-4.907679,8.348558,-40.18,-17.01,25.34,1729476466669.0,0.0
-2.120041,-4.130012,8.039884,-49.07,-21.49,31.360001,1729476466690.0,0.0
-2.455036,-3.917051,6.910471,-78.540001,-26.25,34.299999,1729476466712.0,0.0
-2.945565,-3.371487,6.037091,-133.559998,-25.34,50.959999,1729476466729.0,0.0
-2.9671,-4.577469,5.82413,-190.470001,-25.48,57.189999,1729476466749.0,0.0
-2.957529,-7.123433,6.558727,-217.559998,-42.07,56.490002,1729476466769.0,0.0
-2.526821,-7.9681,5.601598,-212.240005,-36.470001,54.529999,1729476466788.0,0.0
-4.034299,-7.334002,6.407979,-224.490005,-31.5,46.970001,1729476466808.0,0.0
-3.962514,-5.426922,6.008378,-263.619995,-51.380001,44.240002,1729476466828.0,0.0
-3.433701,-5.484349,3.206382,-313.320007,-45.57,55.439999,1729476466850.0,0.0
-3.007778,-8.930015,1.51705,-379.470001,-66.150002,33.18,1729476466868.0,0.0
-2.730211,-11.866007,1.964507,-462.140015,-72.590004,11.76,1729476466889.0,0.0
-2.572284,-10.79163,0.897308,-487.059998,-60.549999,16.73,1729476466909.0,0.0
-3.735196,-10.506885,2.225325,-491.470001,-33.599998,7.77,1729476466928.0,0.0
-3.007778,-8.879765,-4.024727,-504.630005,-27.370001,-26.880001,1729476466951.0,0.0
-1.115055,-10.561919,-7.546963,-386.470001,-32.549999,-26.6,1729476466968.0,0.0
0.0335,-11.54537,-7.609176,-195.440002,-2.87,-6.79,1729476466988.0,0.0
-0.81356,-10.731809,-8.178668,-44.59,41.439999,1.33,1729476467009.0,0.0
-1.722832,-8.946764,-6.175875,40.880001,64.120003,3.08,1729476467028.0,0.0
-2.237289,-8.606983,-5.118248,80.360001,60.900002,12.32,1729476467049.0,0.0
-1.162912,-7.735995,-3.790231,62.790001,47.389999,3.29,1729476467068.0,0.0
-0.66999,-8.836694,-3.115455,49.84,40.599998,7.14,1729476467089.0,0.0
-1.275374,-7.568498,-4.500899,65.239998,46.27,11.62,1729476467109.0,0.0
-5.151747,-8.599805,8.085347,87.779999,38.080002,25.34,1729476467129.0,0.0
-8.003991,-6.719046,0.820738,33.25,19.809999,23.59,1729476467148.0,0.0
-4.778467,-11.492726,-1.622334,58.170002,-19.040001,4.34,1729476467170.0,0.0
-0.954736,-12.466606,-4.003192,74.830002,-51.59,12.95,1729476467190.0,0.0
-2.141576,-8.116454,-1.971686,52.080002,-14.21,27.860001,1729476467208.0,0.0
-5.587241,-6.147161,-2.98385,28.84,32.900002,34.860001,1729476467229.0,0.0
-3.823731,-6.850651,-3.024528,26.460001,2.24,39.759998,1729476467249.0,0.0
-2.629712,-8.276773,-1.45005,45.779999,-5.74,39.34,1729476467268.0,0.0
-4.149154,-9.047262,-1.428515,71.400002,14.84,39.900002,1729476467289.0,0.0
-4.876573,-8.55434,-0.775275,79.590004,10.64,31.99,1729476467308.0,0.0
-4.309474,-7.410572,1.036092,64.68,-18.620001,37.380001,1729476467330.0,0.0
-4.749753,-8.023134,3.290131,9.45,-46.970001,47.459999,1729476467350.0,0.0
-5.424529,-9.908678,1.962115,-88.760002,-69.860001,10.5,1729476467369.0,0.0
-6.675975,-7.293324,-0.870987,-186.970001,-79.730003,-7.7,1729476467389.0,0.0
-5.460421,-6.180661,-6.185446,-220.149994,-84.910004,-23.24,1729476467408.0,0.0
-4.553542,-6.494121,-8.571091,-215.880005,-90.440002,-20.93,1729476467435.0,0.0
-4.378866,-7.032506,-6.431907,-181.020004,-90.090004,-9.8,1729476467451.0,0.0
-5.120641,-9.102298,-4.797609,-135.449997,-68.809998,-12.67,1729476467467.0,0.0
-6.324231,-8.729016,-3.883551,-117.599998,-62.650002,-31.219999,1729476467488.0,0.0
-5.816952,-6.443871,-6.427122,-105.0,-66.709999,-36.82,1729476467509.0,0.0
-4.386044,-5.029713,-8.889337,-108.43,-75.459999,-33.740002,1729476467530.0,0.0
-3.627519,-6.336195,-11.124231,-104.580002,-42.700001,-22.049999,1729476467550.0,0.0
-3.038885,-8.408379,-10.798808,-58.380001,-4.76,-12.53,1729476467569.0,0.0
-2.991028,-9.183653,-10.080962,-51.52,12.81,-6.3,1729476467588.0,0.0
-2.902494,-8.662018,-8.602197,-44.240002,25.620001,-9.38,1729476467609.0,0.0
-2.907279,-7.63789,-5.960521,-5.88,32.130001,-6.93,1729476467631.0,0.0
-3.48395,-7.989635,-5.118248,40.810001,33.459999,-11.13,1729476467651.0,0.0
-3.464807,-6.762117,-5.745167,43.470001,26.67,-15.82,1729476467669.0,0.0
-2.988636,-5.594419,-4.785645,-3.29,23.52,-12.11,1729476467688.0,0.0
-3.034099,-6.24766,-4.723432,-45.57,24.360001,-11.83,1729476467715.0,0.0
-3.725625,-6.238089,-4.079762,-72.379997,23.59,-8.54,1729476467729.0,0.0
-4.041477,-5.814559,-5.690133,-78.330002,14.7,-1.54,1729476467751.0,0.0
-3.476771,-5.972485,-7.829315,-111.160004,1.96,3.85,1729476467769.0,0.0
-3.184847,-5.565705,-6.228518,-154.839996,10.5,7.28,1729476467791.0,0.0
-3.821337,-5.508278,-2.928815,-163.380005,11.2,11.48,1729476467812.0,0.0
-4.819145,-8.496914,-5.139783,-86.239998,-20.16,5.53,1729476467884.0,0.0
-4.974678,-5.977271,-7.06122,-94.989998,-24.57,5.74,1729476467888.0,0.0
-4.445865,-2.428715,-9.47797,-149.940002,-23.73,18.48,1729476467894.0,0.0
-4.280759,-4.027121,-9.832108,-168.070007,-10.5,38.639999,1729476467896.0,0.0
-4.563113,-7.905886,-8.9348,-111.370003,1.4,44.52,1729476467911.0,0.0
-4.266403,-7.82453,-9.209974,-25.9,9.52,37.73,1729476467930.0,0.0
-3.649055,-5.508278,-7.869993,7.14,12.6,31.710001,1729476467950.0,0.0
-3.139383,-4.991428,-8.963513,-18.34,10.5,21.91,1729476467970.0,0.0
-3.163311,-6.142376,-9.265009,-29.26,13.72,19.809999,1729476467989.0,0.0
-2.995814,-7.664211,-9.099905,-18.059999,18.34,10.22,1729476468010.0,0.0
-3.239882,-6.436693,-8.051848,-3.99,24.43,-5.6,1729476468030.0,0.0
-4.134798,-5.883951,-8.338986,-10.78,30.309999,-19.6,1729476468050.0,0.0
-3.938586,-5.469993,-8.279166,-21.42,26.389999,-30.59,1729476468070.0,0.0
-3.696911,-4.910072,-7.513463,1.75,19.67,-31.01,1729476468090.0,0.0
-3.936193,-4.608576,-6.549156,31.360001,19.809999,-29.190001,1729476468110.0,0.0
-3.759124,-4.436293,-6.664011,68.669998,9.73,-25.129999,1729476468130.0,0.0
-3.625126,-4.26401,-5.307281,91.559998,-3.43,-18.200001,1729476468154.0,0.0
-4.022335,-4.220939,-5.778666,62.720001,-10.5,-11.97,1729476468169.0,0.0
-4.070191,-5.132604,-8.061419,63.07,-18.549999,-6.86,1729476468189.0,0.0
-3.383451,-6.197411,-10.497313,108.639999,-18.969999,1.05,1729476468210.0,0.0
-3.400201,-6.742974,-9.934999,198.309998,0.91,9.87,1729476468229.0,0.0
-3.866802,-5.716454,-10.621738,289.309998,25.76,14.7,1729476468250.0,0.0
-4.395615,-6.908078,-8.927622,354.690002,43.189999,26.530001,1729476468270.0,0.0
-3.969693,-6.4343,-8.322237,358.049988,41.580002,21.49,1729476468289.0,0.0
-3.625126,-7.274181,-7.298109,363.160004,46.619999,28.210001,1729476468310.0,0.0
-3.895515,-8.939585,-3.620341,376.110016,51.799999,19.809999,1729476468330.0,0.0
-4.12044,-10.238889,-0.334995,394.869995,50.330002,1.61,1729476468350.0,0.0
-4.127619,-8.963513,-0.591027,416.360016,52.779999,-6.09,1729476468368.0,0.0
-4.536791,-10.425529,-0.854238,450.940002,55.02,-11.34,1729476468391.0,0.0
-4.814359,-10.403993,0.167498,438.410004,36.68,-39.34,1729476468411.0,0.0
-3.63709,-10.24846,1.399801,432.670013,10.57,-57.330002,1729476468429.0,0.0
-2.667997,-8.963513,1.454836,436.450012,43.330002,-80.639999,1729476468454.0,0.0
-3.04367,-4.515256,2.464607,461.790009,67.410004,-60.41,1729476468469.0,0.0
-5.589634,-2.943172,7.233503,428.540009,81.129997,-47.529999,1729476468489.0,0.0
-4.13719,-4.510471,6.649654,200.270004,27.370001,-54.880001,1729476468511.0,0.0
-3.244668,-4.98425,5.924629,145.809998,21.98,-48.790001,1729476468529.0,0.0
-3.074777,-2.036292,7.788638,169.190002,40.529999,-31.92,1729476468561.0,0.0
-3.493521,-1.643869,8.963513,126.629997,23.940001,-32.900002,1729476468569.0,0.0
-2.895315,-2.07697,7.506285,61.810001,9.31,-27.02,1729476468589.0,0.0
-2.926422,-3.333202,7.271788,23.309999,3.36,-17.01,1729476468610.0,0.0
-3.18724,-3.78066,7.377072,-16.940001,1.19,2.1,1729476468629.0,0.0
-2.402394,-3.787838,7.288538,-59.57,-7.63,17.360001,1729476468651.0,0.0
-2.385644,-3.101098,5.998806,-118.300003,-13.51,32.549999,1729476468669.0,0.0
-2.495714,-4.331009,4.98425,-189.210007,-31.08,40.670002,1729476468690.0,0.0
-2.900101,-5.443672,4.421937,-227.779999,-45.849998,51.380001,1729476468712.0,0.0
-2.916851,-7.173682,4.381258,-234.639999,-45.290001,56.279999,1729476468729.0,0.0
-2.63689,-9.329616,3.476771,-266.070007,-49.77,45.709999,1729476468751.0,0.0
-2.711068,-10.392029,2.029114,-288.329987,-55.580002,41.299999,1729476468769.0,0.0
-3.275774,-10.4016,1.880759,-275.450012,-44.170002,46.689999,1729476468789.0,0.0
-3.663411,-10.734202,1.325624,-289.869995,-33.040001,35.139999,1729476468810.0,0.0
-5.233103,-13.282558,3.206382,-358.890015,-35.560001,7.98,1729476468829.0,0.0
-3.835695,-12.68196,3.48395,-367.640015,-41.93,8.05,1729476468850.0,0.0
-3.52702,-11.045268,3.749553,-287.209991,-10.57,2.94,1729476468869.0,0.0
-4.541577,-9.425328,3.897908,-236.880005,-2.87,-20.51,1729476468890.0,0.0
-5.034499,-8.410772,2.840281,-196.910004,-1.68,-15.12,1729476468909.0,0.0
-4.462614,-10.839487,1.241875,-176.259995,-4.34,-16.379999,1729476468929.0,0.0
-2.749353,-8.207381,-1.057628,-256.339996,-11.76,-29.540001,1729476468950.0,0.0
-1.361516,-11.449656,-2.916851,-206.850006,-26.809999,-18.83,1729476468968.0,0.0
-0.648455,-11.97847,-4.845466,-120.75,-5.95,-17.92,1729476468990.0,0.0
-1.844866,-13.318451,-3.055635,36.959999,25.620001,-14.84,1729476469009.0,0.0
-2.574677,-8.305488,-2.053042,82.529999,41.860001,-16.66,1729476469029.0,0.0
-1.31366,-8.135597,-2.900101,77.769997,-0.14,-13.37,1729476469050.0,0.0
-0.16989,-7.771888,-3.938586,23.73,-16.450001,-12.53,1729476469070.0,0.0
-0.502493,-7.9681,-3.749553,23.799999,-1.75,-0.49,1729476469088.0,0.0
-1.986043,-8.126025,-3.117848,76.860001,12.88,10.57,1729476469110.0,0.0
-3.876373,-7.412964,-1.57687,116.199997,23.59,18.83,1729476469129.0,0.0
-4.388437,-6.463014,-0.89013,117.739998,13.79,20.51,1729476469149.0,0.0
-4.223332,-6.087341,1.050449,48.720001,-12.67,30.66,1729476469168.0,0.0
-3.615555,-8.310273,-0.064606,29.469999,-12.39,32.549999,1729476469188.0,0.0
-4.04387,-9.145369,0.878166,-8.33,-10.43,26.110001,1729476469209.0,0.0
-5.666204,-7.032506,1.713261,-39.759998,-13.86,35.700001,1729476469229.0,0.0
-6.568298,-7.525427,0.947558,-82.32,-23.24,34.93,1729476469250.0,0.0
-5.479564,-8.109276,-0.842274,-132.930008,-47.040001,17.360001,1729476469269.0,0.0
-4.577469,-7.71446,-0.485743,-185.080002,-77.699997,4.48,1729476469290.0,0.0
-3.804588,-6.013163,-5.383851,-245.0,-79.519997,-7.91,1729476469309.0,0.0
-3.668197,-7.034898,-9.226725,-238.699997,-69.370003,-3.64,1729476469331.0,0.0
-3.811767,-8.114061,-9.908678,-198.729996,-56.0,0.07,1729476469350.0,0.0
-3.474378,-8.724231,-6.319445,-127.050003,-46.830002,-0.98,1729476469369.0,0.0
-3.582055,-7.489535,-5.216353,-90.650002,-45.009998,-1.05,1729476469389.0,0.0
-3.847659,-7.762317,-5.860023,-66.779999,-29.120001,1.68,1729476469409.0,0.0
-3.65384,-7.314859,-6.908078,-83.580002,-26.32,-6.37,1729476469429.0,0.0
-3.677768,-7.472785,-10.183852,-91.559998,-23.379999,-3.36,1729476469451.0,0.0
-3.649055,-8.886944,-7.125826,-36.330002,-11.97,8.33,1729476469475.0,0.0
-4.503292,-6.783652,-5.003392,-29.75,2.8,10.5,1729476469490.0,0.0
-5.35753,-4.981857,-6.642475,-67.199997,1.68,0.14,1729476469509.0,0.0
-5.718846,-11.002198,-8.255238,-26.880001,-6.23,11.9,1729476469532.0,0.0
-4.321437,-8.346166,-8.214561,-19.530001,-13.02,2.03,1729476469550.0,0.0
-4.354938,-6.862615,-7.448857,44.52,20.23,15.89,1729476469569.0,0.0
-5.297709,-7.01097,-7.810174,36.540001,42.98,11.83,1729476469591.0,0.0
-5.52742,-10.009177,-6.13759,68.599998,58.73,7.07,1729476469610.0,0.0
-3.838088,-10.748559,-7.4345,136.080002,42.07,2.17,1729476469630.0,0.0
-2.778067,-7.762317,-3.428915,160.860001,45.080002,4.34,1729476469651.0,0.0
-4.790431,-3.694518,0.023928,68.949997,68.529999,-11.55,1729476469669.0,0.0
-5.647062,-4.914857,-2.744568,31.5,35.420002,-3.99,1729476469689.0,0.0
-4.139583,-7.506285,-5.245068,-20.860001,14.77,-4.97,1729476469714.0,0.0
-3.285345,-8.659625,-5.230711,-32.060001,27.02,-1.61,1729476469729.0,0.0
-3.261417,-8.85105,-4.130012,-11.55,43.610001,-0.77,1729476469750.0,0.0
-1.725225,-7.783852,-3.672983,13.3,31.639999,1.33,1729476469769.0,0.0
-1.162912,-8.348558,-3.428915,29.540001,17.5,1.89,1729476469791.0,0.0
-2.538785,-8.391629,-2.675175,-3.92,27.93,-2.66,1729476469812.0,0.0
-2.658426,-7.599605,-2.301895,-21.0,10.01,-3.85,1729476469832.0,0.0
-2.821138,-6.805188,-2.677568,-36.959999,-13.37,-1.33,1729476469852.0,0.0
-3.988836,-7.872386,-3.651447,-69.510002,-23.940001,-8.75,1729476469870.0,0.0
-4.211368,-7.9681,-4.771288,-91.629997,-38.150002,-15.89,1729476469892.0,0.0
-3.079563,-6.752545,-6.23091,-83.720001,-65.940002,-10.36,1729476469911.0,0.0
-3.400201,-6.606583,-9.372685,-96.040001,-61.810001,1.12,1729476469931.0,0.0
-5.919843,-8.575876,-8.063812,-127.330002,-29.75,-5.46,1729476469951.0,0.0
-8.114061,-6.750153,-8.250452,-106.260002,24.5,-13.86,1729476469971.0,0.0
-7.211967,-3.866802,-9.41815,-56.98,6.79,8.05,1729476469991.0,0.0
-3.900301,-6.005985,-8.018349,4.76,-5.74,22.889999,1729476470011.0,0.0
-3.211168,-6.257231,-6.45105,28.139999,13.09,24.57,1729476470030.0,0.0
-4.943572,-4.414758,-6.786045,11.48,35.98,17.290001,1729476470052.0,0.0
-5.709275,-3.285345,-6.376873,-29.82,40.389999,18.129999,1729476470070.0,0.0
-4.553542,-6.84108,-6.379266,-38.150002,15.05,14.35,1729476470091.0,0.0
-2.019542,-10.432706,-8.748159,1.96,6.02,9.66,1729476470110.0,0.0
-1.584049,-10.100104,-5.115855,57.610001,28.0,-0.63,1729476470131.0,0.0
-2.792424,-8.693125,-3.723232,83.650002,49.279999,-16.379999,1729476470152.0,0.0
-3.634698,-7.508677,-0.256032,53.760002,38.150002,-25.34,1729476470170.0,0.0
-3.615555,-6.582655,-1.225125,-3.5,-1.96,-22.889999,1729476470194.0,0.0
-3.165704,-5.517848,-2.54357,-4.62,-29.889999,0.07,1729476470210.0,0.0
-3.366701,-8.449057,-2.239682,21.77,-28.98,10.29,1729476470230.0,0.0
-4.268795,-11.05484,-2.304288,28.91,-34.860001,7.56,1729476470253.0,0.0
-4.625326,-11.507084,-3.962514,41.09,-45.220001,1.68,1729476470270.0,0.0
-3.771089,-9.29133,-10.205389,109.340004,-69.650002,10.22,1729476470290.0,0.0
-3.596412,-9.432507,-11.490334,247.449997,-30.24,30.24,1729476470311.0,0.0
-4.414758,-10.729417,-8.114061,353.779999,35.209999,25.690001,1729476470331.0,0.0
-5.134997,-10.564312,-6.415157,390.600006,53.830002,13.93,1729476470351.0,0.0
-5.144568,-8.394022,-5.362316,398.440002,61.18,18.34,1729476470370.0,0.0
-6.209375,-8.446664,-0.401994,436.170013,47.599998,13.65,1729476470390.0,0.0
-4.555934,-14.672788,-2.974278,466.970001,-1.19,-45.150002,1729476470410.0,0.0
-1.351945,-9.600004,-4.587041,402.220001,10.78,-70.0,1729476470431.0,0.0
-4.156333,-3.457629,-0.741775,454.860016,121.239998,-42.139999,1729476470452.0,0.0
-7.006185,-1.674976,6.60419,420.769989,80.779999,-54.880001,1729476470470.0,0.0
-6.305088,-4.106083,7.606783,263.339996,17.639999,-54.110001,1729476470490.0,0.0
-3.156133,-6.080163,6.465407,174.160004,-17.01,-55.510002,1729476470511.0,0.0
-4.759324,-6.960721,6.003592,201.039993,7.56,-38.290001,1729476470530.0,0.0
-4.62054,-7.271788,5.034499,213.080002,5.04,-52.360001,1729476470551.0,0.0
-4.39083,-6.403193,5.371887,235.759995,19.530001,-47.459999,1729476470571.0,0.0
-3.730411,-1.919044,7.460821,275.519989,38.849998,-45.709999,1729476470590.0,0.0
-5.991628,0.495314,8.609376,224.210007,31.92,-29.540001,1729476470610.0,0.0
-5.65424,-1.940579,7.936993,115.150002,3.43,-25.27,1729476470630.0,0.0
-4.661219,-3.275774,7.812566,59.290001,-4.06,-18.969999,1729476470652.0,0.0
-4.364508,-1.536192,7.903493,38.009998,-3.92,-4.27,1729476470670.0,0.0
-4.06062,-2.132005,8.133204,-4.62,-9.38,10.99,1729476470690.0,0.0
-3.235096,-2.517249,8.362915,-43.82,-20.02,23.870001,1729476470715.0,0.0
-3.177669,-5.45085,7.525427,-64.610001,-31.43,24.290001,1729476470730.0,0.0
-2.579463,-5.47717,8.255238,-74.059998,-31.710001,25.620001,1729476470751.0,0.0
-1.89033,-6.575477,4.615755,-120.190002,-40.040001,15.54,1729476470771.0,0.0
-1.904687,-5.340781,4.299902,-158.479996,-28.42,23.309999,1729476470791.0,0.0
-2.531606,-5.008178,4.811966,-157.289993,-15.05,29.26,1729476470810.0,0.0
-2.651247,-6.970293,4.256832,-187.809998,-24.08,15.47,1729476470831.0,0.0
-2.806781,-7.439285,4.412365,-210.210007,-23.940001,20.09,1729476470854.0,0.0
-2.773281,-6.963113,4.307081,-225.960007,-14.91,26.67,1729476470869.0,0.0
-3.282953,-7.82453,3.806981,-256.690002,-20.860001,27.65,1729476470890.0,0.0
-3.223132,-9.600004,2.651247,-292.110016,-32.48,24.710001,1729476470911.0,0.0
-3.053242,-11.298907,2.916851,-300.369995,-32.34,22.889999,1729476470929.0,0.0
-3.852444,-12.186646,4.649254,-301.140015,-21.139999,15.61,1729476470951.0,0.0
-4.216154,-11.193624,4.520042,-315.0,-20.51,4.34,1729476470969.0,0.0
-3.519842,-10.30828,3.684947,-321.160004,-18.83,-0.56,1729476470990.0,0.0
-3.110669,-10.054641,1.971686,-326.200012,-13.86,-7.91,1729476471010.0,0.0
-3.469593,-11.980864,4.228118,-328.790009,-14.84,-21.210001,1729476471030.0,0.0
-2.900101,-12.416357,1.713261,-332.850006,-35.279999,-26.950001,1729476471052.0,0.0
-1.90708,-10.58824,-0.0335,-285.040009,-29.4,-18.41,1729476471069.0,0.0
-1.45005,-7.987241,0.739382,-179.830002,-10.85,-10.92,1729476471089.0,0.0
-4.642076,-7.858029,1.718047,-87.43,3.36,-5.95,1729476471110.0,0.0
-4.130012,-7.89153,-2.467,-88.129997,-17.99,-4.48,1729476471130.0,0.0
-1.495514,-9.253045,-5.879165,-52.220001,-38.57,-4.34,1729476471151.0,0.0
-1.603191,-10.51167,-5.778666,14.0,-7.21,4.9,1729476471169.0,0.0
-2.828316,-8.784052,-5.024928,62.299999,17.290001,2.31,1729476471192.0,0.0
-2.54357,-8.343772,-4.826324,95.059998,14.42,5.53,1729476471210.0,0.0
-2.175076,-8.154739,-3.292524,98.419998,7.77,10.22,1729476471231.0,0.0
-2.340181,-7.195218,-2.258825,85.120003,9.66,9.03,1729476471251.0,0.0
-3.929015,-6.89133,-0.72024,74.340004,15.26,20.02,1729476471270.0,0.0
-5.266603,-7.130611,1.56012,28.280001,4.27,14.98,1729476471291.0,0.0
-4.441079,-8.408379,-0.863809,4.97,-22.75,15.68,1729476471311.0,0.0
-4.333402,-8.420342,0.145962,-33.599998,-33.529999,15.190001,1729476471331.0,0.0
-4.816752,-7.826923,-1.033699,-84.769997,-34.650002,8.4,1729476471350.0,0.0
-4.472186,-8.642875,-2.711068,-116.550003,-35.420002,3.64,1729476471369.0,0.0
-4.235296,-9.88475,-4.146761,-127.050003,-38.990002,-0.35,1729476471391.0,0.0
-4.419543,-9.06162,-3.87398,-115.709999,-37.59,-7.98,1729476471410.0,0.0
-5.161318,-7.032506,-2.689533,-85.82,-36.049999,-5.74,1729476471429.0,0.0
-4.998606,-4.575077,-3.95055,-122.709999,-44.59,-11.2,1729476471451.0,0.0
-4.828716,-3.854837,-5.836094,-149.520004,-56.07,0.77,1729476471468.0,0.0
-4.68754,-5.869594,-7.133004,-140.0,-48.369999,-2.17,1729476471491.0,0.0
-4.486543,-7.520642,-9.710074,-144.970001,-42.420002,-11.62,1729476471519.0,0.0
-4.465007,-9.432507,-10.037891,-146.160004,-35.98,-16.799999,1729476471530.0,0.0
-3.598805,-10.717452,-11.34198,-125.230003,-43.400002,-29.889999,1729476471551.0,0.0
-2.524428,-7.348359,-9.123833,-61.670002,-24.85,-12.46,1729476471571.0,0.0
-2.294717,-5.508278,-9.126225,60.130001,1.12,4.97,1729476471590.0,0.0
-2.931208,-7.692925,-5.955735,94.43,15.05,7.0,1729476471611.0,0.0
-4.139583,-4.646862,-4.936393,-27.16,36.119999,-7.35,1729476471630.0,0.0
-5.161318,-9.145369,-7.49432,-13.09,23.59,-0.28,1729476471650.0,0.0
-3.692125,-8.99462,-8.822337,15.47,13.09,-6.65,1729476471671.0,0.0
-4.376472,-8.16431,-6.419943,87.989998,44.380001,1.19,1729476471691.0,0.0
-5.091926,-8.271988,-5.271388,115.080002,56.630001,-1.05,1729476471713.0,0.0
-4.35733,-8.190632,-5.948557,84.629997,48.16,-4.9,1729476471730.0,0.0
-3.852444,-6.955935,-5.087141,51.59,51.310001,-6.72,1729476471751.0,0.0
-4.058227,-6.585048,-2.974278,48.369999,65.870003,12.32,1729476471771.0,0.0
-3.510271,-6.285945,-3.194418,21.35,53.689999,13.23,1729476471790.0,0.0
-2.622534,-8.38445,-2.414358,13.23,43.889999,18.620001,1729476471811.0,0.0
-1.691726,-9.064013,-1.428515,41.790001,30.309999,19.25,1729476471831.0,0.0
-1.134198,-7.597212,-0.677169,60.34,18.27,16.870001,1729476471851.0,0.0
-1.861616,-7.601997,-0.835095,40.810001,2.8,15.33,1729476471871.0,0.0
-3.632305,-9.432507,-2.383251,-9.73,-7.56,5.25,1729476471891.0,0.0
-3.871587,-10.162319,-2.378466,-34.509998,-32.48,-10.85,1729476471911.0,0.0
-2.397608,-9.470792,-4.603791,-12.53,-65.169998,-16.450001,1729476471931.0,0.0
-1.698904,-8.638089,-6.130411,20.23,-71.400002,-12.88,1729476471953.0,0.0
-2.931208,-6.465407,-6.723832,15.05,-63.420002,-11.41,1729476471970.0,0.0
-5.017749,-5.65424,-5.65424,-42.209999,-36.049999,-4.34,1729476471990.0,0.0
-6.644868,-4.855037,-5.517848,-163.520004,-37.799999,-10.99,1729476472012.0,0.0
-5.663811,-7.508677,-11.408978,-148.119995,-29.540001,-3.57,1729476472032.0,0.0
-3.838088,-7.104291,-10.820344,-46.900002,-2.87,20.440001,1729476472053.0,0.0
-3.675375,-6.65444,-8.372486,12.46,37.799999,25.129999,1729476472071.0,0.0
-5.187639,-7.79103,-6.948757,32.689999,71.260002,19.74,1729476472092.0,0.0
-4.919643,-6.139983,-4.048656,-5.11,68.879997,10.78,1729476472113.0,0.0
-4.134798,-6.716653,-5.484349,-31.99,34.650002,9.38,1729476472132.0,0.0
-3.668197,-6.60419,-4.910072,-70.769997,45.57,1.19,1729476472154.0,0.0
-2.854637,-7.192825,-5.063213,-92.260002,30.66,-2.1,1729476472172.0,0.0
-1.837688,-9.923036,-6.479764,-43.400002,17.08,3.43,1729476472191.0,0.0
-1.89033,-10.403993,-4.206582,-7.91,22.469999,-10.36,1729476472212.0,0.0
-3.120241,-8.676375,-5.4676,31.85,24.710001,-19.6,1729476472237.0,0.0
-3.378666,-6.943972,-4.677969,26.880001,9.52,-23.24,1729476472252.0,0.0
-2.840281,-7.099504,-4.481757,-4.83,2.59,-26.67,1729476472272.0,0.0
-2.667997,-7.936993,-4.376472,-10.64,-0.7,-19.809999,1729476472292.0,0.0
-3.046063,-6.410372,-3.017349,18.27,0.77,-8.4,1729476472312.0,0.0
-3.876373,-3.605984,-2.979064,29.540001,8.19,9.87,1729476472332.0,0.0
-3.522235,-5.101498,-4.723432,48.16,-10.29,28.630001,1729476472354.0,0.0
-2.921637,-10.260423,-3.888337,84.769997,-37.170002,28.700001,1729476472371.0,0.0
-4.015156,-11.006985,-2.885744,59.290001,-32.34,9.03,1729476472391.0,0.0
-4.689932,-8.738588,-5.663811,21.07,-38.220001,-6.44,1729476472412.0,0.0
-3.775874,-8.216952,-9.595219,46.27,-57.260002,-4.13,1729476472432.0,0.0
-3.067599,-8.956335,-11.174481,127.75,-43.959999,12.53,1729476472452.0,0.0
-3.505485,-9.789038,-8.707481,223.580002,2.94,21.0,1729476472471.0,0.0
-4.292724,-9.698111,-4.819145,282.519989,45.150002,14.84,1729476472491.0,0.0
-5.453243,-7.477571,-4.139583,282.309998,48.790001,20.93,1729476472512.0,0.0
-4.491328,-7.288538,-4.642076,308.769989,34.720001,12.67,1729476472532.0,0.0
-3.957729,-8.327023,-3.012564,309.26001,43.189999,13.93,1729476472553.0,0.0
-3.912265,-7.834101,-1.4668,270.76001,47.880001,7.49,1729476472572.0,0.0
-4.161119,-8.056634,1.660619,224.210007,37.099998,-7.56,1729476472593.0,0.0
-3.885944,-8.79123,1.138984,174.020004,16.450001,-18.690001,1729476472611.0,0.0
-3.766303,-8.992228,0.945165,153.930008,11.9,-16.450001,1729476472632.0,0.0
-3.591627,-8.896514,1.091127,159.110001,24.710001,-10.22,1729476472653.0,0.0
-4.185047,-8.793623,1.993221,140.630005,36.470001,-17.360001,1729476472672.0,0.0
-4.627719,-9.181261,3.270989,105.559998,26.110001,-23.66,1729476472691.0,0.0
-3.907479,-11.251052,2.234896,109.270004,7.42,-33.32,1729476472715.0,0.0
-3.050849,-12.607781,1.064806,166.949997,17.99,-49.700001,1729476472731.0,0.0
-2.620141,-7.599605,1.414158,237.300003,66.5,-39.27,1729476472754.0,0.0
-5.54417,-4.855037,4.634897,236.180008,92.68,-26.25,1729476472773.0,0.0
-6.479764,-6.503692,5.723632,132.509995,38.009998,-42.209999,1729476472791.0,0.0
-4.302295,-11.241481,3.682554,61.670002,-10.15,-53.41,1729476472812.0,0.0
-3.151347,-12.648461,3.52702,153.020004,13.02,-66.360001,1729476472891.0,0.0
-1.952543,-3.795017,4.979464,337.679993,56.77,-62.439999,1729476472891.0,0.0
-5.288138,3.639483,8.611769,416.220001,83.510002,-14.0,1729476472892.0,0.0
-5.862415,0.478565,8.740981,214.970001,14.49,-25.200001,1729476472898.0,0.0
-3.29731,-5.541777,5.850451,30.380001,-44.380001,-27.93,1729476472915.0,0.0
-2.069792,-5.257031,7.886744,66.919998,-6.79,9.24,1729476472933.0,0.0
-3.582055,-5.101498,10.600205,79.449997,5.39,9.94,1729476472952.0,0.0
-2.139183,-6.125626,9.095119,5.25,-17.710001,6.86,1729476472971.0,0.0
-1.804188,-6.046663,5.986843,-15.89,-22.469999,4.2,1729476472991.0,0.0
-2.177469,-3.235096,5.938986,10.71,-6.23,14.91,1729476473012.0,0.0
-3.409772,-3.893122,7.314859,0.98,-1.47,27.58,1729476473031.0,0.0
-3.29731,-5.63749,8.049455,-48.650002,-12.04,31.290001,1729476473052.0,0.0
-3.058028,-6.130411,8.30788,-44.939999,-16.309999,33.389999,1729476473071.0,0.0
-3.110669,-7.941778,6.56112,-23.59,-23.309999,29.889999,1729476473092.0,0.0
-2.871387,-8.23131,5.345565,9.66,-6.65,10.22,1729476473111.0,0.0
-2.682354,-7.429714,6.238089,35.209999,17.85,-12.95,1729476473132.0,0.0
-2.550749,-6.029913,6.936793,54.670002,38.080002,-29.4,1729476473153.0,0.0
-3.165704,-3.960121,6.975078,69.160004,53.34,-34.93,1729476473171.0,0.0
-3.962514,-2.383251,8.106883,89.389999,57.82,-32.830002,1729476473191.0,0.0
-5.608776,-1.153341,8.673983,83.790001,47.529999,-21.77,1729476473211.0,0.0
-6.128019,-1.122234,8.446664,59.290001,29.75,-6.09,1729476473231.0,0.0
-6.659225,-1.215554,8.169096,10.57,12.46,6.86,1729476473254.0,0.0
-6.448657,-1.122234,8.903693,-49.349998,-4.69,23.379999,1729476473271.0,0.0
-6.21416,-2.895315,9.391829,-118.510002,-29.82,30.73,1729476473290.0,0.0
-5.297709,-3.962514,8.848659,-173.25,-54.740002,32.830002,1729476473312.0,0.0
-4.37408,-4.369294,6.951149,-200.830002,-63.84,40.110001,1729476473331.0,0.0
-4.359723,-4.563113,5.836094,-241.919998,-58.59,45.220001,1729476473351.0,0.0
-3.074777,-6.778866,2.562713,-291.690002,-66.43,38.5,1729476473371.0,0.0
-1.732404,-8.599805,-0.0335,-314.299988,-66.989998,29.960001,1729476473391.0,0.0
-1.150948,-12.526425,-0.471386,-234.220001,-52.360001,19.6,1729476473411.0,0.0
-0.248854,-17.068005,1.205983,-48.93,-11.55,-2.17,1729476473431.0,0.0
-1.165305,-14.85225,2.065006,161.0,57.540001,-22.82,1729476473451.0,0.0
-3.194418,-9.566505,3.871587,331.170013,109.129997,-40.110001,1729476473470.0,0.0
-4.795217,-5.776274,6.195018,410.76001,123.480003,-61.389999,1729476473492.0,0.0
-5.958128,-2.734996,7.37468,368.899994,105.840004,-79.099998,1729476473511.0,0.0
-5.757132,-2.175076,8.551948,255.919998,68.18,-73.849998,1729476473531.0,0.0
-5.532206,-1.222732,9.279366,164.570007,44.029999,-61.529999,1729476473553.0,0.0
-5.448457,-1.641476,8.726624,112.840004,21.0,-50.189999,1729476473654.0,0.0
-4.587041,-1.481157,8.688338,75.669998,7.77,-37.73,1729476473655.0,0.0
-4.012764,-2.277967,8.982656,42.84,-6.79,-20.370001,1729476473656.0,0.0
-4.139583,-3.926622,9.047262,6.3,-22.049999,-15.54,1729476473659.0,0.0
-3.52702,-4.259224,8.126025,-20.370001,-33.810001,-10.78,1729476473660.0,0.0
-2.957529,-4.175476,8.080563,-25.34,-37.099998,-5.25,1729476473671.0,0.0
-3.385844,-3.54377,8.02792,-36.889999,-36.75,-6.02,1729476473691.0,0.0
-3.110669,-3.665804,6.618547,-60.619999,-44.310001,-1.54,1729476473714.0,0.0
-2.778067,-2.955136,6.297909,-63.630001,-41.23,9.66,1729476473731.0,0.0
-2.467,-2.129612,6.771688,-65.870003,-38.57,24.5,1729476473751.0,0.0
-2.522035,-3.079563,7.616355,-85.540001,-44.380001,31.639999,1729476473770.0,0.0
-3.132205,-5.326423,7.080362,-128.169998,-54.950001,29.75,1729476473791.0,0.0
-3.428915,-6.685547,6.570691,-182.070007,-63.560001,27.65,1729476473811.0,0.0
-2.675175,-7.49432,4.974678,-212.660004,-70.349998,32.830002,1729476473832.0,0.0
-2.402394,-8.4347,4.816752,-189.490005,-58.310001,40.599998,1729476473851.0,0.0
-2.598605,-8.865408,3.742374,-212.449997,-39.689999,27.440001,1729476473872.0,0.0
-2.108077,-9.611969,2.270789,-286.299988,-46.619999,20.09,1729476473891.0,0.0
-1.37348,-10.607382,1.418944,-353.570007,-56.84,15.54,1729476473912.0,0.0
-1.320838,-12.083755,1.749153,-387.100006,-58.310001,14.98,1729476473932.0,0.0
-1.39023,-12.220145,1.538585,-391.720001,-40.810001,9.24,1729476473952.0,0.0
-2.239682,-11.940186,1.564906,-355.950012,-18.83,-3.29,1729476473971.0,0.0
-3.605984,-10.549955,3.56052,-323.820007,0.21,-9.45,1729476473991.0,0.0
-3.869194,-8.985049,2.665605,-287.769989,-0.14,-9.59,1729476474011.0,0.0
-3.864408,-10.937593,-0.193819,-232.540009,-6.58,-12.67,1729476474031.0,0.0
-2.694318,-12.248858,0.095713,-185.850006,-23.379999,-20.16,1729476474051.0,0.0
-1.036092,-10.526026,-1.67019,-198.029999,-20.58,-21.07,1729476474070.0,0.0
-0.758525,-11.62194,-1.923829,-154.350006,-4.62,-17.5,1729476474091.0,0.0
-0.880559,-9.750752,-4.414758,-110.389999,12.88,-20.370001,1729476474111.0,0.0
-1.196411,-7.609176,-3.431308,7.42,8.26,-6.86,1729476474131.0,0.0
-1.189233,-7.228717,-4.326223,89.879997,2.87,7.07,1729476474162.0,0.0
-0.696311,-7.41775,-3.397808,107.169998,-2.24,9.94,1729476474170.0,0.0
-0.409173,-8.085347,-3.050849,118.230003,5.95,20.02,1729476474191.0,0.0
-1.698904,-6.183054,-0.792024,99.400002,7.77,29.33,1729476474211.0,0.0
-2.9336,-5.740381,0.892523,58.310001,-0.91,35.209999,1729476474231.0,0.0
-2.739782,-7.633104,-0.227318,-9.52,-18.27,35.630001,1729476474251.0,0.0
-2.344966,-9.288938,-1.897508,-70.279999,-28.42,29.26,1729476474270.0,0.0
-2.519642,-11.308479,-3.089134,-58.66,-31.92,27.16,1729476474291.0,0.0
-2.883351,-11.083554,-3.498307,-21.35,-23.870001,24.15,1729476474311.0,0.0
-3.366701,-8.707481,-2.816352,28.630001,-25.059999,28.280001,1729476474332.0,0.0
-4.058227,-7.69771,-1.071985,51.029999,-24.43,35.279999,1729476474353.0,0.0
-4.067799,-8.724231,-0.129212,41.09,-28.630001,33.040001,1729476474372.0,0.0
-4.472186,-8.908479,-0.332602,-47.040001,-45.57,25.41,1729476474390.0,0.0
-4.900501,-9.573684,-1.488336,-99.330002,-54.670002,18.690001,1729476474412.0,0.0
-4.95075,-9.123833,-1.940579,-143.5,-67.690002,7.63,1729476474432.0,0.0
-4.259224,-8.633304,-4.642076,-147.699997,-73.919998,-3.5,1729476474451.0,0.0
-4.098906,-8.427521,-5.479564,-125.230003,-67.199997,-3.99,1729476474470.0,0.0
-4.668397,-7.269395,-6.558727,-122.43,-56.630001,-10.36,1729476474491.0,0.0
-4.780859,-7.676175,-7.759924,-97.93,-30.799999,-12.32,1729476474512.0,0.0
-4.577469,-7.171289,-7.159326,-63.07,-18.200001,-6.58,1729476474532.0,0.0
-4.232903,-5.958128,-6.78126,-35.700001,-14.35,0.21,1729476474551.0,0.0
-4.287938,-5.67099,-4.850252,-11.83,-14.35,8.54,1729476474570.0,0.0
-4.572684,-5.773881,-4.208975,-37.59,-16.870001,3.43,1729476474591.0,0.0
-4.584648,-5.895915,-4.981857,-91.07,-27.65,-5.74,1729476474611.0,0.0
-4.283153,-7.030113,-7.733603,-120.260002,-36.68,-8.19,1729476474630.0,0.0
-3.646662,-7.984849,-9.145369,-114.309998,-36.610001,-6.65,1729476474652.0,0.0
-3.378666,-8.003991,-8.614161,-104.160004,-21.280001,2.24,1729476474671.0,0.0
-3.445665,-7.642675,-7.147361,-64.889999,-1.68,4.55,1729476474690.0,0.0
-4.115655,-8.283953,-7.477571,-8.4,7.98,9.52,1729476474715.0,0.0
-4.151547,-8.286345,-6.733403,15.89,2.52,7.49,1729476474730.0,0.0
-3.797409,-9.322437,-7.625926,51.450001,13.3,15.190001,1729476474751.0,0.0
-3.866802,-10.413565,-7.348359,93.169998,24.01,12.74,1729476474770.0,0.0
-4.496114,-9.623933,-5.745167,141.610001,57.540001,10.43,1729476474790.0,0.0
-4.584648,-8.760124,-5.479564,153.160004,63.700001,0.91,1729476474812.0,0.0
-3.917051,-8.140383,-3.328416,100.800003,50.889999,-5.53,1729476474830.0,0.0
-4.019942,-7.295716,0.909273,42.07,37.73,-9.52,1729476474853.0,0.0
-4.532006,-6.771688,-2.514857,-16.309999,24.780001,-17.43,1729476474878.0,0.0
-4.668397,-8.932407,-3.617948,-44.029999,12.6,-18.549999,1729476474890.0,0.0
-3.775874,-9.102298,-7.168896,-6.23,18.41,-11.76,1729476474910.0,0.0
-3.129812,-7.700103,-4.82393,15.47,36.259998,-7.77,1729476474933.0,0.0
-3.498307,-7.082755,-3.431308,-4.55,54.18,-0.91,1729476474953.0,0.0
-2.663212,-7.853244,-1.131805,-5.11,32.689999,0.77,1729476474970.0,0.0
-1.495514,-8.867801,-1.519442,13.51,13.93,0.35,1729476474991.0,0.0
-1.404587,-7.599605,-1.091127,29.75,0.91,-1.96,1729476475011.0,0.0
-3.787838,-8.219346,-3.29731,-15.190001,-15.54,-6.44,1729476475031.0,0.0
-4.737789,-9.008978,-3.785445,-60.48,-29.68,-20.09,1729476475063.0,0.0
-3.177669,-7.436893,-4.570292,-61.18,-56.139999,-21.42,1729476475071.0,0.0
-1.914258,-6.80758,-6.398407,-51.170002,-76.580002,-15.05,1729476475090.0,0.0
-3.046063,-6.51087,-6.23091,-68.18,-59.43,-12.39,1729476475112.0,0.0
-5.072784,-6.580262,-7.228717,-89.949997,-29.049999,-5.67,1729476475132.0,0.0
-6.67119,-7.652246,-8.922836,-139.160004,-32.130001,-13.09,1729476475154.0,0.0
-6.003592,-8.032705,-10.348958,-99.190002,-0.91,-12.95,1729476475171.0,0.0
-3.806981,-5.869594,-9.343972,6.58,0.42,14.49,1729476475191.0,0.0
-2.775674,-5.264209,-7.578069,47.110001,15.54,24.360001,1729476475212.0,0.0
-4.034299,-6.649654,-6.226124,30.380001,44.869999,19.879999,1729476475232.0,0.0
-5.144568,-6.910471,-5.333601,-8.96,53.27,13.02,1729476475254.0,0.0
-4.290331,-6.455836,-5.871986,-40.599998,27.02,7.42,1729476475272.0,0.0
-3.881158,-5.804988,-6.204589,-71.120003,26.530001,4.97,1729476475292.0,0.0
-2.835495,-6.960721,-6.549156,-66.290001,20.719999,7.98,1729476475313.0,0.0
-1.691726,-9.348758,-6.360123,0.07,9.24,12.46,1729476475334.0,0.0
-2.22054,-8.437093,-5.041678,28.630001,25.76,3.64,1729476475356.0,0.0
-3.699304,-9.262616,-4.740182,61.599998,33.040001,-1.54,1729476475372.0,0.0
-3.385844,-7.412964,-4.713861,47.670002,17.639999,-13.02,1729476475392.0,0.0
-3.206382,-7.360322,-3.359523,26.110001,8.89,-11.76,1729476475413.0,0.0
-3.48395,-6.565905,-3.495914,-5.88,3.57,-9.17,1729476475433.0,0.0
-3.847659,-5.821737,-3.582055,-6.58,0.42,3.29,1729476475454.0,0.0
-3.682554,-5.838487,-4.869394,10.71,-2.52,15.33,1729476475472.0,0.0
-2.847459,-8.319844,-5.379066,55.650002,-19.460001,26.460001,1729476475492.0,0.0
-2.852244,-10.250853,-3.85723,75.110001,-18.34,26.530001,1729476475512.0,0.0
-4.015156,-10.662418,-2.512464,78.82,-6.16,11.9,1729476475533.0,0.0
-4.627719,-8.496914,-3.924229,70.769997,-22.049999,5.18,1729476475554.0,0.0
-3.656233,-8.472985,-7.441679,97.300003,-41.09,8.4,1729476475571.0,0.0
-2.940779,-10.607382,-9.008978,197.680008,-27.58,22.889999,1729476475597.0,0.0
-2.914458,-11.375479,-8.109276,299.320007,7.77,28.07,1729476475612.0,0.0
-5.041678,-9.190832,-4.869394,356.089996,58.380001,29.75,1729476475632.0,0.0
-5.268995,-8.843873,-4.132405,424.269989,90.860001,23.59,1729476475653.0,0.0
-4.668397,-6.364908,-3.292524,399.0,87.080002,18.48,1729476475672.0,0.0
-4.546363,-7.01097,1.471586,362.459991,28.139999,8.33,1729476475691.0,0.0
-2.167897,-7.846066,2.234896,284.76001,2.17,-12.25,1729476475716.0,0.0
-3.689733,-8.84148,1.603191,218.050003,32.200001,-8.82,1729476475732.0,0.0
-4.917251,-14.797215,0.818345,281.26001,10.92,-29.33,1729476475753.0,0.0
-2.287539,-9.693325,4.113262,350.279999,43.189999,-43.049999,1729476475772.0,0.0
-4.316652,-2.22054,5.465207,371.769989,113.120003,-30.73,1729476475791.0,0.0
-8.513663,-2.502892,8.181061,297.220001,70.349998,-36.049999,1729476475812.0,0.0
-6.60419,-5.201996,5.536992,147.139999,-11.41,-41.369999,1729476475832.0,0.0
-4.101298,-8.035098,5.240282,120.959999,-13.86,-44.240002,1729476475854.0,0.0
-4.364508,-6.422336,4.890929,148.330002,18.059999,-43.610001,1729476475872.0,0.0
-5.525027,-6.228518,6.302694,151.479996,14.77,-48.790001,1729476475892.0,0.0
-4.046263,-3.972085,7.200003,156.029999,13.72,-44.59,1729476475912.0,0.0
-4.211368,-0.784846,8.262416,139.369995,19.530001,-27.65,1729476475932.0,0.0
-4.273581,-3.534199,7.329216,59.639999,-9.59,-28.210001,1729476475954.0,0.0
-3.519842,-6.132804,5.673382,28.559999,-17.639999,-23.66,1729476475972.0,0.0
-3.778267,-4.06062,8.008778,80.779999,16.1,-10.85,1729476475992.0,0.0
-3.517449,-3.804588,8.68116,46.27,7.98,-11.69,1729476476013.0,0.0
-3.215954,-4.65404,8.149954,9.1,-7.56,-11.34,1729476476032.0,0.0
-2.294717,-4.835894,7.101898,0.84,-11.27,-2.8,1729476476053.0,0.0
-3.148954,-4.386044,6.800402,0.21,-6.02,-2.38,1729476476071.0,0.0
-2.914458,-3.304488,6.98465,7.77,-2.52,8.12,1729476476092.0,0.0
-3.969693,-4.34058,7.592427,5.25,-3.71,3.29,1729476476112.0,0.0
-3.565305,-4.575077,8.13799,-2.45,-5.11,5.11,1729476476132.0,0.0
-4.074977,-4.948357,8.102098,-4.55,-6.3,8.54,1729476476155.0,0.0
-3.768696,-4.481757,8.142776,-7.56,-8.89,7.21,1729476476172.0,0.0
-3.443272,-3.5007,7.975278,-10.01,-8.61,5.39,1729476476192.0,0.0
-3.52702,-4.086941,7.513463,-17.290001,-9.94,6.58,1729476476213.0,0.0
-3.787838,-4.266403,7.788638,-20.299999,-8.47,7.07,1729476476232.0,0.0
-3.921836,-3.558127,8.11167,-24.85,-6.37,12.88,1729476476254.0,0.0
-4.414758,-2.790031,8.415558,-37.799999,-10.85,20.860001,1729476476271.0,0.0
-3.172883,-3.799802,6.56112,-37.59,-14.98,28.42,1729476476291.0,0.0
-3.469593,-4.996214,6.821937,-25.34,-3.15,21.210001,1729476476312.0,0.0
-3.342773,-6.24766,7.771888,-12.53,1.82,9.45,1729476476332.0,0.0
-3.4672,-5.943772,8.228917,6.93,9.94,4.97,1729476476354.0,0.0
-3.5007,-5.592027,7.999206,12.67,11.2,-2.31,1729476476372.0,0.0
-3.242275,-4.711468,8.226524,14.7,14.07,-8.61,1729476476391.0,0.0
-3.457629,-3.802195,9.765109,22.469999,14.77,-8.82,1729476476412.0,0.0
-3.701697,-3.285345,9.530612,19.460001,5.11,-5.67,1729476476433.0,0.0
-3.945765,-2.29711,7.848458,-7.0,-3.22,6.65,1729476476453.0,0.0
-4.713861,-3.201597,6.391229,-50.189999,-10.22,15.12,1729476476471.0,0.0
-5.883951,-3.282953,6.551548,-71.330002,-15.54,16.030001,1729476476491.0,0.0
-5.907879,-2.883351,8.142776,-49.98,-14.21,31.780001,1729476476511.0,0.0
-5.632704,-3.036492,8.01117,-64.610001,-19.74,38.360001,1729476476532.0,0.0
-5.484349,-2.770889,7.786245,-140.350006,-29.889999,45.779999,1729476476553.0,0.0
-4.642076,-5.012963,6.422336,-240.169998,-58.73,45.990002,1729476476571.0,0.0
-3.371487,-7.484749,4.347759,-295.119995,-75.879997,30.450001,1729476476592.0,0.0
-2.679961,-10.054641,1.481157,-266.559998,-63.0,31.01,1729476476612.0,0.0
-1.550549,-13.861622,0.758525,-165.339996,-39.48,16.940001,1729476476632.0,0.0
-1.284946,-12.256038,2.330609,57.959999,26.25,-9.52,1729476476653.0,0.0
-2.837888,-8.764909,4.352544,166.669998,72.660004,-20.440001,1729476476671.0,0.0
-4.548756,-6.530013,5.659025,179.339996,72.379997,-36.119999,1729476476691.0,0.0
-5.029713,-6.223732,6.216553,153.580002,55.860001,-44.869999,1729476476716.0,0.0
-4.211368,-7.178468,6.532406,154.770004,46.48,-52.779999,1729476476732.0,0.0
-5.000999,-5.804988,7.386643,166.320007,57.400002,-55.790001,1729476476754.0,0.0
-4.998606,-3.699304,6.687939,168.699997,53.619999,-61.32,1729476476772.0,0.0
-5.4006,-1.813759,7.420143,156.100006,54.950001,-47.110001,1729476476791.0,0.0
-4.910072,-0.674776,8.178668,119.699997,43.68,-33.18,1729476476812.0,0.0
-4.888536,-1.655833,9.348758,72.239998,28.07,-21.0,1729476476832.0,0.0
-4.924429,-2.773281,9.607183,31.290001,8.61,-15.61,1729476476852.0,0.0
-4.4674,-1.825724,8.800802,13.02,-3.85,4.55,1729476476871.0,0.0
-4.371687,-1.031307,8.269595,0.42,-9.87,22.610001,1729476476891.0,0.0
-4.118048,-1.904687,7.635497,-34.93,-24.01,30.17,1729476476921.0,0.0
-3.395415,-3.069991,7.192825,-69.580002,-28.280001,38.849998,1729476476932.0,0.0
-3.852444,-4.613362,6.733403,-97.230003,-27.16,48.23,1729476476954.0,0.0
-3.689733,-7.432107,5.225924,-166.529999,-36.82,38.150002,1729476476972.0,0.0
-3.122634,-10.624132,3.476771,-155.050003,-42.209999,22.610001,1729476476992.0,0.0
-2.624927,-11.724831,3.888337,-63.98,-10.29,14.21,1729476477012.0,0.0
-3.59402,-10.475778,6.135197,28.35,16.17,-6.44,1729476477033.0,0.0
-4.54397,-10.021141,6.754939,91.07,23.52,-26.67,1729476477057.0,0.0
-4.237689,-6.520442,6.752545,132.580002,40.810001,-46.41,1729476477075.0,0.0
-5.048856,-2.775674,8.365308,148.470001,51.029999,-50.049999,1729476477093.0,0.0
-5.484349,-1.064806,8.65484,105.910004,37.380001,-44.869999,1729476477113.0,0.0
-5.228317,-1.277767,8.4012,63.98,14.84,-38.009998,1729476477132.0,0.0
-5.503492,-0.825524,8.520842,59.849998,6.65,-20.02,1729476477154.0,0.0
-5.063213,1.311267,8.207381,36.400002,-3.78,5.18,1729476477173.0,0.0
-4.13719,0.866202,7.664211,-16.379999,-19.040001,34.299999,1729476477193.0,0.0
-3.658626,-1.89033,7.073184,-80.010002,-32.34,43.959999,1729476477213.0,0.0
-3.440879,-5.300103,7.166504,-121.590004,-36.470001,50.470001,1729476477233.0,0.0
-3.491128,-9.209974,5.520242,-141.889999,-40.040001,44.170002,1729476477254.0,0.0
-2.309074,-10.765309,3.694518,-121.239998,-37.939999,26.6,1729476477273.0,0.0
-1.9669,-10.932807,5.008178,-41.790001,-7.56,10.64,1729476477293.0,0.0
-3.54377,-10.15514,6.032306,33.599998,15.05,-10.43,1729476477314.0,0.0
-4.115655,-8.812766,7.066005,77.279999,27.370001,-36.540001,1729476477333.0,0.0
-4.472186,-6.096912,7.089933,102.129997,41.16,-49.139999,1729476477354.0,0.0
-5.142176,-3.455236,7.838887,114.870003,47.110001,-56.07,1729476477374.0,0.0
-5.685347,-1.677369,8.044669,108.5,41.509998,-53.48,1729476477396.0,0.0
-5.651847,0.040678,8.525627,94.150002,29.469999,-40.110001,1729476477415.0,0.0
-5.888737,0.937986,8.846266,73.150002,14.7,-15.89,1729476477434.0,0.0
-5.381458,1.725225,7.724032,21.700001,-4.76,11.34,1729476477456.0,0.0
-4.21376,0.050249,7.456036,-37.450001,-20.93,38.43,1729476477483.0,0.0
-3.974478,-2.708675,7.523034,-89.949997,-29.540001,49.84,1729476477494.0,0.0
-3.979264,-5.869594,7.523034,-132.930008,-37.380001,52.009998,1729476477516.0,0.0
-3.433701,-8.839087,5.335995,-162.75,-43.259998,43.959999,1729476477534.0,0.0
-2.553142,-10.516455,4.316652,-159.25,-38.849998,35.91,1729476477555.0,0.0
-2.45025,-10.963913,4.067799,-74.480003,-11.27,9.31,1729476477574.0,0.0
-3.414558,-11.210374,5.979663,13.93,14.35,-9.73,1729476477594.0,0.0
-3.957729,-8.504091,6.250053,76.090004,34.720001,-36.610001,1729476477614.0,0.0
-4.474578,-6.254838,6.908078,120.75,46.060001,-47.32,1729476477638.0,0.0
-4.811966,-3.024528,7.724032,148.119995,55.369999,-52.220001,1729476477655.0,0.0
-5.582455,-2.258825,8.721838,128.309998,48.790001,-50.330002,1729476477674.0,0.0
-5.515456,-3.129812,7.822137,75.040001,23.030001,-51.52,1729476477694.0,0.0
-4.943572,-2.201397,8.109276,73.5,19.389999,-38.57,1729476477718.0,0.0
-5.056034,0.397209,9.037691,79.379997,16.73,-17.639999,1729476477734.0,0.0
-4.76411,1.574477,8.556733,31.710001,-4.27,8.12,1729476477757.0,0.0
-3.550949,-0.014357,7.365108,-34.369999,-24.08,33.880001,1729476477773.0,0.0
-3.383451,-2.840281,6.585048,-90.720001,-33.880001,44.380001,1729476477793.0,0.0
-3.48395,-5.91745,7.298109,-124.879997,-38.849998,47.880001,1729476477815.0,0.0
-3.177669,-8.341379,6.831509,-141.539993,-43.470001,42.349998,1729476477889.0,0.0
-2.837888,-9.068797,5.888737,-122.150002,-36.400002,33.599998,1729476477894.0,0.0
-2.871387,-9.628718,5.438886,-77.629997,-19.110001,21.210001,1729476477897.0,0.0
-3.663411,-9.444471,5.886343,-25.76,0.21,-8.68,1729476477900.0,0.0
-3.689733,-8.487342,6.699903,28.49,9.24,-26.530001,1729476477914.0,0.0
-4.515256,-5.759524,6.632904,94.150002,29.049999,-33.599998,1729476477934.0,0.0
-5.546563,-1.995614,7.030113,127.190002,41.790001,-31.710001,1729476477954.0,0.0
-5.922236,0.069392,8.922836,110.459999,33.880001,-17.360001,1729476477974.0,0.0
-5.99402,-1.136591,8.25763,30.73,2.66,-4.76,1729476477994.0,0.0
-5.151747,-2.790031,7.506285,-25.059999,-18.129999,3.5,1729476478014.0,0.0
-4.503292,-2.711068,7.65464,-41.790001,-17.290001,21.700001,1729476478034.0,0.0
-4.091727,-0.26321,8.02792,-81.550003,-7.7,42.209999,1729476478055.0,0.0
-4.59422,-1.20359,7.549356,-193.479996,-14.98,56.91,1729476478073.0,0.0
-4.577469,-4.163511,5.417351,-329.980011,-45.57,47.32,1729476478094.0,0.0
-4.4339,-6.56112,4.677969,-426.019989,-62.23,37.52,1729476478114.0,0.0
-3.945765,-8.451449,2.215754,-497.070007,-73.639999,29.610001,1729476478134.0,0.0
-2.775674,-9.71486,-0.727418,-519.400024,-79.239998,17.57,1729476478154.0,0.0
-2.134398,-10.24846,-2.416751,-499.029999,-72.449997,17.290001,1729476478173.0,0.0
-2.194218,-10.928021,-0.705883,-453.950012,-65.029999,9.8,1729476478193.0,0.0
-2.943172,-10.360922,-4.704289,-405.299988,-57.119999,9.8,1729476478214.0,0.0
-4.216154,-11.566904,-5.166104,-234.080002,-23.379999,-13.02,1729476478234.0,0.0
-4.223332,-10.614561,-4.287938,-172.690002,-17.5,-23.309999,1729476478254.0,0.0
-3.431308,-8.903693,-5.771489,-118.790001,-10.43,-24.360001,1729476478273.0,0.0
-3.07717,-8.628519,-5.491528,-43.259998,8.33,-10.78,1729476478293.0,0.0
-3.113062,-10.241282,-5.022535,-4.27,28.630001,-8.47,1729476478313.0,0.0
-3.347559,-10.243673,-3.957729,18.690001,47.25,-10.99,1729476478333.0,0.0
-3.192025,-9.226725,-3.39063,37.939999,52.43,-11.34,1729476478355.0,0.0
-2.495714,-8.62134,-3.601198,29.120001,46.549999,-13.02,1729476478373.0,0.0
-2.065006,-9.475577,-3.127419,6.58,46.41,-11.27,1729476478393.0,0.0
-2.031506,-9.698111,-3.007778,-21.700001,53.130001,-15.68,1729476478415.0,0.0
-2.261217,-9.98525,-3.486342,-17.219999,55.09,-14.21,1729476478433.0,0.0
-2.09372,-9.62154,-2.998207,18.620001,55.510002,-7.56,1729476478454.0,0.0
-1.770689,-8.532805,-2.689533,69.580002,49.0,1.12,1729476478473.0,0.0
-2.45025,-8.647661,0.715454,129.430008,50.470001,16.66,1729476478493.0,0.0
-3.182454,-8.839087,2.713461,135.589996,34.790001,9.59,1729476478513.0,0.0
-3.833302,-8.281559,3.969693,61.040001,6.58,-1.19,1729476478534.0,0.0
-3.34038,-9.140583,0.217747,2.66,-21.700001,0.63,1729476478554.0,0.0
-3.105884,-8.348558,-0.648455,0.14,-36.68,10.36,1729476478573.0,0.0
-3.761517,-7.460821,-0.849452,11.41,-26.32,19.809999,1729476478594.0,0.0
-4.402793,-8.30788,-0.459422,16.66,-25.48,26.67,1729476478614.0,0.0
-4.754539,-8.336594,-0.849452,8.61,-29.049999,29.960001,1729476478633.0,0.0
-4.998606,-8.080563,0.284746,-9.66,-33.880001,30.309999,1729476478655.0,0.0
-5.584848,-7.893922,0.179462,-33.459999,-36.959999,29.889999,1729476478673.0,0.0
-6.297909,-8.152347,-0.734596,-78.120003,-43.540001,16.66,1729476478694.0,0.0
-6.458229,-8.592626,-1.904687,-130.270004,-52.080002,2.1,1729476478718.0,0.0
-5.838487,-8.219346,-3.333202,-166.039993,-64.82,-14.28,1729476478735.0,0.0
-4.852644,-6.98465,-4.527221,-170.029999,-70.629997,-20.719999,1729476478755.0,0.0
-4.187439,-6.099305,-6.094519,-159.389999,-66.150002,-20.23,1729476478773.0,0.0
-4.21376,-6.209375,-6.659225,-142.589996,-52.57,-17.85,1729476478793.0,0.0
-3.936193,-7.594819,-6.805188,-118.440002,-42.91,-12.88,1729476478813.0,0.0
-3.818945,-7.838887,-7.62114,-111.720001,-42.84,-9.8,1729476478834.0,0.0
-3.730411,-7.752745,-7.276574,-96.879997,-27.860001,-7.0,1729476478854.0,0.0
-3.78066,-6.74776,-6.099305,-93.730003,-17.01,-5.88,1729476478873.0,0.0
-3.862016,-7.762317,-6.943972,-82.32,-15.96,-5.46,1729476478893.0,0.0
-4.005585,-8.729016,-7.082755,-65.449997,-10.99,0.28,1729476478914.0,0.0
-3.672983,-8.88455,-7.707282,-25.620001,-11.76,-3.64,1729476478933.0,0.0
-3.634698,-7.913064,-5.970093,0.7,4.69,3.15,1729476478962.0,0.0
-3.29731,-6.441479,-6.290731,-9.45,11.97,3.15,1729476478975.0,0.0
-3.122634,-8.102098,-6.338587,-30.73,9.94,0.07,1729476478994.0,0.0
-2.959922,-9.343972,-5.132604,-46.619999,14.21,-5.95,1729476479015.0,0.0
-3.096312,-8.090133,-5.831308,-21.84,17.43,-10.22,1729476479034.0,0.0
-3.385844,-6.826723,-6.125626,-6.37,11.55,-7.63,1729476479054.0,0.0
-3.268596,-6.254838,-7.049256,-25.969999,11.76,-7.7,1729476479074.0,0.0
-3.4672,-6.494121,-6.24766,-50.400002,20.16,-3.85,1729476479093.0,0.0
-3.775874,-7.080362,-5.838487,-73.150002,21.42,-6.44,1729476479114.0,0.0
-3.888337,-7.130611,-5.185246,-84.910004,12.74,-7.56,1729476479134.0,0.0
-3.991228,-5.694918,-4.735396,-111.720001,1.26,-7.77,1729476479154.0,0.0
-4.35733,-5.668597,-7.623533,-122.919998,-10.85,1.68,1729476479174.0,0.0
-3.723232,-6.38405,-7.176075,-112.629997,-22.120001,8.68,1729476479194.0,0.0
-4.139583,-5.146961,-7.838887,-114.870003,-12.11,13.440001,1729476479215.0,0.0
-4.716253,-5.429315,-8.9348,-106.610001,-3.36,19.110001,1729476479235.0,0.0
-4.118048,-7.513463,-8.240881,-80.849998,2.24,21.280001,1729476479256.0,0.0
-3.347559,-8.128418,-8.214561,-28.0,3.22,18.34,1729476479274.0,0.0
-3.335595,-7.020542,-8.525627,12.11,16.030001,12.18,1729476479295.0,0.0
-3.649055,-6.063413,-8.319844,15.47,23.59,8.54,1729476479317.0,0.0
-3.737589,-6.419943,-8.630912,12.11,27.09,6.86,1729476479336.0,0.0
-3.354738,-5.577669,-7.401,17.01,30.17,4.2,1729476479356.0,0.0
-3.512664,-4.089334,-6.953543,28.700001,28.77,8.33,1729476479377.0,0.0
-3.751946,-4.108476,-6.664011,19.25,25.27,8.75,1729476479396.0,0.0
-3.926622,-5.613562,-7.130611,2.8,19.879999,6.23,1729476479415.0,0.0
-3.60359,-5.484349,-7.520642,-11.13,14.63,-1.96,1729476479438.0,0.0
-2.912065,-4.194618,-8.169096,-20.719999,8.96,-6.37,1729476479457.0,0.0
-2.639283,-4.338188,-8.379664,-19.25,7.7,-4.34,1729476479474.0,0.0
-2.471786,-6.21416,-8.056634,26.809999,10.78,-4.76,1729476479495.0,0.0
-2.447858,-6.67119,-6.130411,58.59,9.38,-7.49,1729476479515.0,0.0
-3.589234,-3.835695,-5.539384,38.080002,4.97,-12.04,1729476479537.0,0.0
-4.187439,-6.879365,-7.068398,45.920002,-7.21,-8.89,1729476479559.0,0.0
-3.349952,-8.4347,-9.506684,116.410004,-11.06,-7.56,1729476479576.0,0.0
-3.402594,-9.028119,-9.726824,224.419998,5.67,-2.45,1729476479596.0,0.0
-3.725625,-8.176274,-9.119047,306.529999,33.459999,0.49,1729476479616.0,0.0
-3.742374,-6.161518,-7.020542,328.160004,36.82,5.46,1729476479637.0,0.0
-3.261417,-7.04447,-5.453243,320.950012,25.059999,10.64,1729476479658.0,0.0
-2.935993,-7.970492,-5.161318,299.320007,23.799999,10.36,1729476479679.0,0.0
-3.239882,-9.279366,-4.9675,301.070007,37.240002,9.45,1729476479694.0,0.0
-4.041477,-9.901501,-2.349752,324.869995,50.259998,4.76,1729476479719.0,0.0
-4.271189,-9.123833,-0.667598,366.730011,50.68,1.68,1729476479736.0,0.0
-3.708875,-8.353344,-0.665205,411.809998,45.290001,-0.84,1729476479758.0,0.0
-3.87398,-9.96132,-0.22014,423.98999,46.41,-10.29,1729476479776.0,0.0
-4.35733,-11.997612,1.399801,426.860016,29.540001,-37.310001,1729476479795.0,0.0
-2.352145,-8.745767,1.758725,450.23999,33.950001,-56.139999,1729476479817.0,0.0
-3.84048,-4.972286,4.371687,493.570007,93.940002,-63.700001,1729476479837.0,0.0
-4.682754,-2.251646,6.144768,456.190002,81.900002,-69.019997,1729476479857.0,0.0
-5.699703,-1.253839,6.955935,328.369995,68.529999,-48.93,1729476479874.0,0.0
-4.649254,-3.924229,7.312466,184.169998,24.639999,-53.549999,1729476479895.0,0.0
-3.304488,-5.510671,7.341179,126.139999,14.77,-53.689999,1729476479917.0,0.0
-2.981457,-2.95035,7.534998,147.0,26.6,-40.18,1729476479936.0,0.0
-3.474378,-0.954736,8.487342,142.800003,25.48,-23.59,1729476479956.0,0.0
-3.352344,-1.543371,8.056634,79.519997,7.63,-16.870001,1729476479975.0,0.0
-2.998207,-2.428715,7.262216,34.93,-4.34,-9.87,1729476479995.0,0.0
-2.87378,-2.677568,6.867401,20.16,-6.02,1.19,1729476480017.0,0.0
-2.801995,-2.553142,6.78126,-12.11,-6.79,11.62,1729476480038.0,0.0
-2.811567,-3.352344,6.005985,-60.27,-10.57,16.379999,1729476480056.0,0.0
-2.63689,-4.220939,6.436693,-92.050003,-9.87,22.82,1729476480075.0,0.0
-3.244668,-3.160919,7.960921,-117.110001,0.07,31.85,1729476480095.0,0.0
-3.828516,-3.864408,8.319844,-172.690002,-14.07,41.299999,1729476480117.0,0.0
-3.328416,-5.809773,6.850651,-225.119995,-35.560001,39.200001,1729476480135.0,0.0
-2.325824,-8.444271,5.503492,-243.529999,-48.650002,38.290001,1729476480158.0,0.0
-2.837888,-9.944571,4.84068,-246.050003,-44.240002,39.200001,1729476480174.0,0.0
-2.675175,-10.116854,5.04407,-253.470001,-55.02,30.59,1729476480195.0,0.0
-2.931208,-9.157332,5.386244,-269.149994,-41.23,36.049999,1729476480218.0,0.0
-2.533999,-5.828916,6.04427,-292.179993,-26.6,30.17,1729476480236.0,0.0
-3.299703,-7.781459,4.204189,-314.720001,-26.18,18.34,1729476480257.0,0.0
-5.075177,-12.339786,3.998406,-345.100006,-46.900002,-11.06,1729476480275.0,0.0
-3.749553,-11.660224,4.319045,-406.980011,-71.330002,-22.960001,1729476480294.0,0.0
-2.227718,-7.499106,0.990629,-448.630005,-39.759998,-5.88,1729476480317.0,0.0
-1.782653,-8.350951,-3.440879,-354.059998,-21.35,-17.92,1729476480336.0,0.0
-2.210968,-11.210374,-4.252046,-219.240005,-2.94,-12.74,1729476480355.0,0.0
-1.971686,-12.143576,-5.144568,-66.779999,30.52,-7.77,1729476480374.0,0.0
-1.579263,-12.064612,-3.742374,76.580002,50.75,-8.12,1729476480395.0,0.0
-1.677369,-11.279767,-1.911865,150.850006,62.09,1.33,1729476480416.0,0.0
-2.254039,-8.310273,0.832702,114.730003,58.799999,-11.27,1729476480435.0,0.0
-3.361916,-6.685547,2.352145,60.619999,38.57,-3.57,1729476480456.0,0.0
-3.038885,-6.939186,3.859623,33.880001,13.79,-2.66,1729476480474.0,0.0
-3.366701,-7.207181,2.859423,-13.02,-9.66,8.26,1729476480495.0,0.0
-3.672983,-8.25763,1.591227,-42.630001,-27.51,6.72,1729476480517.0,0.0
-3.45045,-8.389235,-0.052642,-82.32,-37.939999,10.92,1729476480536.0,0.0
-2.825923,-8.037491,-0.696311,-89.879997,-43.75,16.66,1729476480556.0,0.0
-2.699104,-8.190632,-0.964308,-76.160004,-42.630001,24.15,1729476480576.0,0.0
-3.206382,-8.99462,-0.667598,-86.029999,-43.540001,21.210001,1729476480594.0,0.0
-4.34058,-10.013963,-0.579063,-112.07,-42.98,14.35,1729476480618.0,0.0
-4.883751,-10.786844,-2.754139,-131.389999,-44.099998,1.26,1729476480637.0,0.0
-5.091926,-9.635897,-2.364109,-127.050003,-50.400002,-3.43,1729476480656.0,0.0
-4.472186,-8.334201,-2.57707,-101.43,-61.32,-6.44,1729476480674.0,0.0
-4.283153,-6.056234,-2.694318,-107.590004,-60.130001,-10.78,1729476480696.0,0.0
-4.400401,-5.268995,-3.940979,-117.739998,-57.400002,-7.7,1729476480717.0,0.0
-4.323831,-6.350551,-6.130411,-117.949997,-55.369999,-5.25,1729476480734.0,0.0
-3.926622,-7.338787,-6.668797,-114.029999,-52.220001,2.1,1729476480757.0,0.0
-3.290131,-8.279166,-6.752545,-78.889999,-59.010002,5.39,1729476480774.0,0.0
-2.964707,-7.690532,-6.4678,-61.18,-50.330002,8.05,1729476480794.0,0.0
-3.402594,-8.563912,-6.439085,-46.759998,-33.25,8.75,1729476480816.0,0.0
-3.914658,-10.707881,-7.948956,-48.09,-20.02,-10.85,1729476480835.0,0.0
-3.706482,-8.980263,-7.838887,-49.349998,-20.51,-9.03,1729476480855.0,0.0
-3.120241,-7.963314,-7.049256,-24.15,-6.58,-3.36,1729476480875.0,0.0
-3.156133,-8.35813,-6.197411,-9.94,-2.52,-1.47,1729476480894.0,0.0
-3.548556,-8.279166,-4.867002,-3.22,16.450001,-1.47,1729476480915.0,0.0
-3.52702,-8.044669,-6.795617,-3.01,21.700001,-4.06,1729476480936.0,0.0
-3.287738,-6.515656,-6.759724,-36.959999,22.68,0.77,1729476480956.0,0.0
-3.57727,-8.126025,-7.62114,-13.65,34.02,9.45,1729476480974.0,0.0
-3.900301,-8.336594,-3.407379,11.27,42.349998,11.48,1729476481001.0,0.0
-4.244867,-8.85823,-4.488935,36.470001,40.950001,4.62,1729476481015.0,0.0
-4.007978,-6.78126,-7.915457,24.290001,34.860001,1.75,1729476481035.0,0.0
-4.599005,-7.939385,-7.240681,16.66,57.540001,9.24,1729476481058.0,0.0
-5.048856,-7.178468,-0.581456,19.460001,74.690002,9.66,1729476481075.0,0.0
-4.4674,-7.594819,-1.737189,-7.14,48.93,8.12,1729476481094.0,0.0
-2.818745,-8.293523,-3.790231,-30.309999,26.67,6.37,1729476481116.0,0.0
