acc_x,acc_y,acc_z,gyr_x,gyr_y,gyr_z,timestamp,label
-1.734797,-8.145168,2.321038,-146.369995,-8.61,-96.949997,1729421181917.0,0.0
-1.639083,-8.55434,1.442872,-171.919998,4.55,-85.82,1729421181919.0,0.0
-1.292124,-9.075976,0.37328,-179.619995,9.52,-75.529999,1729421181919.0,0.0
-1.09352,-9.343972,-0.066999,-175.770004,16.940001,-65.870003,1729421181920.0,0.0
-1.5003,-9.351151,-0.306281,-160.509995,28.630001,-57.540001,1729421181921.0,0.0
-1.445265,-9.212367,-0.629312,-142.869995,31.360001,-50.68,1729421181921.0,0.0
-1.009771,-8.788837,-1.196411,-134.470001,28.91,-44.029999,1729421181932.0,0.0
-1.196411,-9.174082,-1.753939,-128.940002,32.619999,-36.889999,1729421181948.0,0.0
-1.859223,-9.640682,-2.17029,-126.279999,38.009998,-30.17,1729421181968.0,0.0
-1.938186,-9.284152,-2.225325,-114.309998,36.610001,-24.360001,1729421181988.0,0.0
-1.538585,-8.85105,-2.392823,-103.599998,30.66,-20.790001,1729421182007.0,0.0
-1.816152,-8.733803,-2.445465,-94.709999,31.360001,-15.82,1729421182028.0,0.0
-2.258825,-8.963513,-2.400001,-82.809998,30.799999,-11.27,1729421182048.0,0.0
-1.866402,-8.650054,-2.383251,-62.510002,24.43,-6.65,1729421182068.0,0.0
-1.651048,-8.197811,-2.567499,-45.709999,19.950001,0.63,1729421182088.0,0.0
-2.177469,-8.212167,-2.792424,-43.959999,17.57,7.98,1729421182109.0,0.0
-2.117648,-8.99462,-1.775474,-45.639999,16.1,13.09,1729421182129.0,0.0
-2.333002,-9.286544,-2.847459,-44.939999,13.440001,16.52,1729421182149.0,0.0
-2.938386,-8.82473,-2.823531,-33.18,13.16,11.9,1729421182169.0,0.0
-2.998207,-8.51127,-3.412165,-28.98,9.66,8.12,1729421182188.0,0.0
-2.414358,-9.102298,-3.986443,-31.08,3.85,6.72,1729421182208.0,0.0
-2.359323,-9.745967,-3.773481,-33.599998,5.67,6.58,1729421182229.0,0.0
-2.409572,-9.473185,-3.510271,-32.34,7.91,0.98,1729421182251.0,0.0
-2.261217,-8.788837,-3.668197,-28.77,4.76,-3.57,1729421182269.0,0.0
-2.179861,-8.999406,-3.78066,-25.129999,3.15,-5.39,1729421182289.0,0.0
-2.615355,-8.396415,-2.304288,-17.92,5.11,-5.53,1729421182308.0,0.0
-3.256632,-8.250452,-2.163112,-22.610001,0.84,-6.23,1729421182329.0,0.0
-3.227918,-8.843873,-3.629912,-27.299999,-5.88,-6.37,1729421182350.0,0.0
-2.215754,-9.075976,-4.460221,-7.0,-8.05,-8.75,1729421182368.0,0.0
-1.820938,-8.49452,-4.039084,3.99,-1.12,-13.02,1729421182388.0,0.0
-2.103291,-7.719246,-4.031906,-12.88,-1.19,-7.91,1729421182409.0,0.0
-1.366302,-8.492127,-4.395615,-24.15,-8.82,-2.38,1729421182430.0,0.0
-0.957129,-8.908479,-5.615955,-29.889999,-11.06,-3.15,1729421182448.0,0.0
-1.117448,-8.303094,-3.321238,-24.219999,-8.33,-3.71,1729421182470.0,0.0
-1.452443,-9.580862,-5.618347,-30.73,-13.72,-11.76,1729421182489.0,0.0
-0.662812,-8.216952,-6.69751,-5.39,-13.02,-13.02,1729421182509.0,0.0
-0.969093,-8.422735,-6.439085,5.04,-2.24,-5.81,1729421182530.0,0.0
-1.663012,-9.798609,-5.759524,4.62,5.18,-3.5,1729421182549.0,0.0
-1.533799,-8.872586,-5.359922,2.73,7.77,-7.49,1729421182569.0,0.0
-0.947558,-8.456236,-4.871787,-5.88,8.96,-9.24,1729421182595.0,0.0
-0.72024,-8.590233,-4.240082,-13.3,7.42,-8.26,1729421182608.0,0.0
-0.79681,-8.312666,-4.12044,-9.59,2.87,-5.11,1729421182631.0,0.0
-1.397408,-9.286544,-3.952943,-11.76,-0.42,-3.01,1729421182650.0,0.0
-1.485943,-8.915657,-4.070191,-16.24,-6.44,-7.28,1729421182669.0,0.0
-1.172483,-8.865408,-5.661418,-19.460001,-11.97,-8.75,1729421182690.0,0.0
-1.409373,-6.826723,-4.491328,-16.870001,-8.26,-2.45,1729421182710.0,0.0
-1.631905,-8.487342,-5.295317,-14.56,-13.37,2.8,1729421182729.0,0.0
-1.531406,-8.638089,-5.860023,-17.360001,-10.85,1.82,1729421182750.0,0.0
-0.882952,-9.128618,-5.955735,-12.81,-7.56,0.84,1729421182771.0,0.0
-0.736989,-8.896514,-5.95095,-7.35,-1.96,-1.75,1729421182788.0,0.0
-0.87338,-8.54477,-5.345565,0.07,4.06,-1.47,1729421182811.0,0.0
-1.146162,-8.039884,-4.701896,3.64,2.87,-1.47,1729421182830.0,0.0
-1.627119,-7.826923,-4.555934,-0.91,0.28,1.68,1729421182850.0,0.0
-1.497907,-8.338986,-4.972286,-6.16,-5.53,5.04,1729421182871.0,0.0
-1.471586,-9.068797,-5.647062,-3.43,-9.17,5.18,1729421182890.0,0.0
-1.56012,-9.111869,-5.960521,-5.53,-6.93,2.03,1729421182909.0,0.0
-1.552942,-9.128618,-5.812167,-7.63,-1.68,-0.56,1729421182930.0,0.0
-1.423729,-8.233703,-5.103891,4.62,2.38,-2.52,1729421182952.0,0.0
-1.655833,-8.130811,-4.584648,11.55,1.47,-0.28,1729421182970.0,0.0
-2.112862,-8.949157,-4.589434,1.4,-0.49,-0.42,1729421182991.0,0.0
-1.674976,-8.707481,-5.233103,-10.57,-2.66,-3.99,1729421183011.0,0.0
-1.328017,-7.003791,-4.23051,-8.68,-2.59,2.24,1729421183031.0,0.0
-2.088934,-9.355937,-5.20439,-4.76,-4.62,4.48,1729421183052.0,0.0
-2.35693,-9.111869,-5.781059,0.28,-2.8,1.75,1729421183074.0,0.0
-2.15354,-9.035298,-5.776274,13.440001,-1.19,-2.24,1729421183091.0,0.0
-2.725425,-8.563912,-5.120641,13.23,7.28,-8.19,1729421183110.0,0.0
-3.002992,-8.283953,-4.441079,19.6,10.22,-10.64,1729421183132.0,0.0
-3.141776,-8.018349,-3.625126,27.23,9.87,-11.97,1729421183151.0,0.0
-3.256632,-8.26481,-3.37388,31.780001,2.45,-14.77,1729421183171.0,0.0
-3.086741,-8.343772,-3.445665,32.27,-5.88,-17.639999,1729421183192.0,0.0
-3.194418,-7.666604,-3.524628,18.9,-7.07,-20.860001,1729421183210.0,0.0
-3.139383,-7.932207,-4.003192,-2.8,-12.46,-20.02,1729421183231.0,0.0
-2.969493,-7.953743,-4.436293,-12.18,-15.26,-23.450001,1729421183252.0,0.0
-2.105684,-8.214561,-5.125426,-1.12,-23.799999,-24.08,1729421183270.0,0.0
-1.689333,-8.595018,-5.807381,14.84,-25.41,-22.33,1729421183291.0,0.0
-2.069792,-8.298308,-5.879165,26.67,-14.7,-21.42,1729421183315.0,0.0
-1.842474,-7.331609,-5.398208,36.68,-5.81,-18.48,1729421183331.0,0.0
-0.942772,-7.123433,-5.115855,53.34,-4.55,-11.62,1729421183352.0,0.0
-0.416351,-6.726225,-4.907679,55.510002,-3.43,-5.04,1729421183371.0,0.0
-0.945165,-6.719046,-4.699504,39.689999,3.36,6.86,1729421183390.0,0.0
-0.870987,-7.195218,-4.39083,9.52,7.7,17.85,1729421183411.0,0.0
-0.411566,-7.745567,-5.134997,-19.25,0.42,28.700001,1729421183431.0,0.0
-0.667598,-8.047063,-5.522634,-23.870001,0.91,32.689999,1729421183454.0,0.0
-1.615155,-8.458629,-4.615755,-34.509998,6.79,36.75,1729421183470.0,0.0
-1.847259,-9.700503,-4.271189,-47.670002,4.06,34.860001,1729421183490.0,0.0
-1.619941,-10.473385,-4.632504,-46.27,-3.01,22.049999,1729421183510.0,0.0
-1.981257,-9.994821,-5.123034,-42.84,-3.78,12.25,1729421183530.0,0.0
-2.600998,-8.4012,-2.871387,-59.709999,-0.56,6.72,1729421183551.0,0.0
-1.794617,-11.837293,-3.862016,-81.199997,-14.49,-0.14,1729421183570.0,0.0
-2.014757,-10.679168,-4.072584,-65.239998,-14.0,-9.66,1729421183590.0,0.0
-0.933201,-9.449257,-4.725825,-61.040001,-22.33,-10.01,1729421183610.0,0.0
0.22014,-8.441878,-5.56092,-69.510002,-19.110001,-5.46,1729421183631.0,0.0
0.662812,-8.920443,-4.634897,-52.639999,-14.98,0.63,1729421183654.0,0.0
0.641276,-9.559326,-2.443072,-7.42,-18.48,2.1,1729421183670.0,0.0
0.07657,-8.822337,-2.266003,6.93,-38.009998,-8.47,1729421183690.0,0.0
-0.849452,-5.295317,-2.840281,-23.1,-50.119999,-12.6,1729421183711.0,0.0
2.840281,-6.486942,-6.85783,-84.910004,-70.980003,-2.17,1729421183731.0,0.0
1.952543,-7.111469,-7.197611,-84.489998,-79.870003,3.22,1729421183752.0,0.0
-2.54357,-3.878766,-3.943372,-35.279999,-71.050003,16.52,1729421183770.0,0.0
-4.086941,-3.103491,-6.936793,-59.639999,-72.870003,33.810001,1729421183790.0,0.0
-5.094319,-6.898508,-9.848858,-84.840004,-76.720001,44.869999,1729421183810.0,0.0
-5.498707,-6.89133,-11.169697,-61.529999,-65.800003,28.98,1729421183830.0,0.0
-4.522435,-7.9681,-12.701102,-37.52,-48.02,30.309999,1729421183853.0,0.0
-2.825923,-8.315059,-10.760524,-28.700001,-29.120001,27.02,1729421183870.0,0.0
-4.807181,-8.310273,-7.843673,-11.62,-5.46,22.33,1729421183891.0,0.0
-4.508078,-8.145168,-7.819745,-2.45,-0.07,16.73,1729421183911.0,0.0
-5.900701,-7.23111,-8.793623,20.790001,15.89,15.26,1729421183930.0,0.0
-6.072984,-7.37468,-9.468399,37.939999,32.759998,15.33,1729421183952.0,0.0
-5.632704,-5.912664,-8.829515,36.82,46.27,11.2,1729421183970.0,0.0
-4.328616,-6.821937,-7.518249,19.530001,51.939999,7.21,1729421183990.0,0.0
-3.503092,-8.860621,-4.969893,28.35,45.849998,0.98,1729421184012.0,0.0
-1.916651,-9.066404,-3.275774,44.73,29.75,-14.14,1729421184031.0,0.0
-0.815953,-8.188239,-4.194618,18.549999,15.12,-23.24,1729421184051.0,0.0
-0.066999,-8.327023,-4.311867,3.22,7.07,-28.07,1729421184070.0,0.0
-0.064606,-6.726225,-5.053641,10.36,-16.870001,-26.530001,1729421184090.0,0.0
-0.514457,-4.948357,-6.953543,16.52,-28.77,-19.040001,1729421184110.0,0.0
-0.681954,-4.907679,-7.712067,7.91,-28.91,-8.89,1729421184130.0,0.0
-0.485743,-5.139783,-7.743174,-14.07,-29.889999,-4.06,1729421184151.0,0.0
-2.081756,-4.622933,-6.135197,-44.73,-32.830002,-5.6,1729421184170.0,0.0
-5.039285,-3.349952,-2.914458,-59.5,-39.619999,1.54,1729421184191.0,0.0
-4.862216,-5.010571,-5.99402,-59.010002,-54.32,16.52,1729421184210.0,0.0
-6.391229,-5.271388,-6.692725,-70.419998,-50.68,30.1,1729421184230.0,0.0
-7.965706,-6.04427,-9.286544,-80.010002,-36.330002,37.240002,1729421184251.0,0.0
-7.092326,-10.547562,-10.152746,-76.720001,-16.450001,38.920002,1729421184270.0,0.0
-5.661418,-7.982457,-9.530612,-15.33,-3.36,26.25,1729421184290.0,0.0
-5.570491,-6.398407,-8.324631,26.25,13.02,19.18,1729421184311.0,0.0
-5.613562,-5.924629,-8.408379,39.48,24.57,23.799999,1729421184332.0,0.0
-5.862415,-6.12084,-9.016156,41.720001,35.77,28.84,1729421184351.0,0.0
-6.226124,-7.054041,-8.458629,42.490002,49.0,30.59,1729421184369.0,0.0
-5.709275,-8.267202,-6.252446,44.939999,56.139999,22.889999,1729421184390.0,0.0
-2.63689,-7.956135,-3.795017,58.240002,49.77,5.67,1729421184410.0,0.0
-1.995614,-7.197611,-3.031706,39.549999,27.299999,-11.27,1729421184430.0,0.0
-1.404587,-7.972885,-3.696911,-7.77,13.3,-15.26,1729421184451.0,0.0
-0.715454,-7.235896,-4.625326,-16.73,-2.87,-19.32,1729421184469.0,0.0
0.311067,-5.314459,-5.816952,5.88,-22.889999,-20.65,1729421184491.0,0.0
-0.090927,-3.129812,-7.173682,25.690001,-35.0,-8.47,1729421184511.0,0.0
-0.971486,-2.928815,-8.315059,-1.75,-36.119999,-2.52,1729421184530.0,0.0
-2.507678,-3.101098,-7.60439,-31.219999,-35.98,2.59,1729421184552.0,0.0
-3.761517,-3.694518,-5.565705,-37.799999,-43.610001,9.73,1729421184571.0,0.0
-5.335995,-3.689733,-6.513263,-52.43,-51.240002,19.32,1729421184591.0,0.0
-6.922436,-4.878965,-6.455836,-58.59,-44.869999,32.27,1729421184609.0,0.0
-8.398808,-5.426922,-7.467999,-31.360001,-42.630001,42.349998,1729421184638.0,0.0
-8.95155,-9.891929,-8.130811,-49.77,-23.17,35.77,1729421184651.0,0.0
-7.628319,-8.638089,-9.147761,-41.509998,-8.12,24.5,1729421184670.0,0.0
-7.025328,-8.133204,-8.786445,1.05,9.03,10.71,1729421184693.0,0.0
-6.994221,-7.783852,-7.520642,20.299999,24.360001,8.68,1729421184710.0,0.0
-6.02752,-7.432107,-5.936593,34.790001,32.200001,3.36,1729421184730.0,0.0
-4.45065,-6.9009,-5.558527,47.810001,30.24,-14.91,1729421184751.0,0.0
-3.218346,-7.460821,-5.680561,31.710001,22.68,-22.82,1729421184770.0,0.0
-2.773281,-6.02752,-3.909872,39.130001,14.0,-26.18,1729421184790.0,0.0
-2.579463,-5.54417,-3.799802,25.129999,-2.03,-20.58,1729421184810.0,0.0
-2.24686,-5.702096,-4.924429,3.85,-17.290001,-19.32,1729421184831.0,0.0
-2.132005,-4.39083,-6.01077,-1.47,-30.73,-15.05,1729421184852.0,0.0
-1.76351,-3.376273,-7.709675,-10.36,-39.27,-7.0,1729421184871.0,0.0
-1.710868,-3.337988,-8.989835,-32.619999,-39.34,-2.8,1729421184891.0,0.0
-3.201597,-2.514857,-7.726424,-44.66,-35.560001,1.54,1729421184911.0,0.0
-5.32403,-3.493521,-6.829116,-51.869999,-34.09,13.72,1729421184932.0,0.0
-6.929615,-5.489135,-7.164111,-47.32,-30.1,20.09,1729421184952.0,0.0
-7.889136,-5.056034,-8.743374,-36.959999,-22.469999,22.4,1729421184971.0,0.0
-8.059027,-9.083155,-8.685946,-47.32,-1.4,22.26,1729421184991.0,0.0
-7.401,-9.710074,-8.714661,-15.68,11.13,18.41,1729421185011.0,0.0
-7.712067,-7.889136,-8.025528,32.900002,25.76,10.71,1729421185031.0,0.0
-7.240681,-8.334201,-6.415157,50.889999,48.580002,6.51,1729421185054.0,0.0
-6.415157,-7.795816,-5.161318,58.240002,50.610001,-10.99,1729421185071.0,0.0
-4.242475,-8.11167,-4.613362,45.5,41.02,-26.950001,1729421185091.0,0.0
-2.608176,-7.415358,-3.931407,52.009998,29.26,-37.170002,1729421185114.0,0.0
-2.134398,-5.199604,-2.986243,39.48,16.030001,-39.200001,1729421185132.0,0.0
-2.184647,-4.828716,-2.713461,27.790001,-2.66,-29.889999,1729421185153.0,0.0
-1.497907,-3.29731,-4.785645,7.49,-28.42,-22.540001,1729421185172.0,0.0
-1.454836,-3.225525,-7.338787,-5.67,-44.240002,-8.4,1729421185192.0,0.0
-1.395016,-3.481557,-9.250652,-32.130001,-49.490002,-3.5,1729421185213.0,0.0
-3.306881,-1.828116,-6.989435,-62.439999,-44.029999,2.03,1729421185232.0,0.0
-5.716454,-4.106083,-7.015756,-69.370003,-46.41,14.42,1729421185253.0,0.0
-7.908278,-5.972485,-6.049056,-43.75,-38.920002,21.35,1729421185272.0,0.0
-8.702696,-6.053841,-8.281559,-30.380001,-26.110001,23.52,1729421185292.0,0.0
-7.262216,-9.564112,-8.767302,-37.869999,-5.25,25.48,1729421185312.0,0.0
-6.350551,-8.10449,-7.953743,7.14,9.03,18.059999,1729421185332.0,0.0
-6.257231,-8.135597,-7.322037,45.779999,25.41,13.72,1729421185358.0,0.0
-6.30748,-7.745567,-6.168696,50.189999,29.120001,2.1,1729421185371.0,0.0
-5.855237,-7.001399,-5.13739,48.439999,27.16,-12.67,1729421185391.0,0.0
-4.412365,-7.030113,-4.206582,28.98,21.280001,-23.309999,1729421185412.0,0.0
-3.299703,-6.800402,-3.24706,34.369999,13.93,-25.690001,1729421185432.0,0.0
-2.598605,-5.115855,-3.024528,38.920002,1.82,-19.32,1729421185453.0,0.0
-3.024528,-4.67079,-4.010371,33.670002,-12.46,-4.9,1729421185473.0,0.0
-2.675175,-4.321437,-5.879165,11.48,-27.299999,1.61,1729421185493.0,0.0
-2.175076,-4.974678,-7.822137,-19.460001,-39.130001,4.13,1729421185512.0,0.0
-2.586641,-4.158726,-7.032506,-62.369999,-41.790001,-2.1,1729421185532.0,0.0
-4.132405,-3.775874,-7.070791,-84.489998,-45.150002,0.42,1729421185554.0,0.0
-6.73101,-6.597012,-6.037091,-63.349998,-41.369999,10.29,1729421185572.0,0.0
-9.166903,-6.372087,-8.812766,-38.5,-31.780001,6.79,1729421185592.0,0.0
-8.480164,-8.922836,-10.167104,-34.23,-13.65,9.8,1729421185611.0,0.0
-7.314859,-8.429914,-10.289137,0.49,9.38,6.58,1729421185632.0,0.0
-6.67119,-7.56132,-8.370094,69.790001,32.830002,-0.28,1729421185654.0,0.0
-6.549156,-5.417351,-5.606383,93.309998,52.080002,3.22,1729421185671.0,0.0
-6.037091,-6.343372,-4.780859,57.82,56.279999,2.38,1729421185691.0,0.0
-4.12044,-6.853044,-4.768896,38.009998,49.630001,-8.19,1729421185712.0,0.0
-3.878766,-6.745367,-3.026921,41.02,45.5,-11.62,1729421185732.0,0.0
-3.416951,-6.575477,-2.383251,48.369999,30.59,-16.870001,1729421185754.0,0.0
-3.582055,-5.474778,-2.952743,39.130001,11.55,-15.190001,1729421185773.0,0.0
-2.821138,-4.804788,-3.955336,15.47,-6.51,-11.76,1729421185791.0,0.0
-2.768496,-4.804788,-5.190032,-7.77,-20.719999,-4.9,1729421185812.0,0.0
-1.737189,-5.197211,-6.171089,-25.620001,-36.540001,-3.01,1729421185832.0,0.0
-2.100898,-2.677568,-5.678168,-45.920002,-45.779999,-0.35,1729421185853.0,0.0
-4.074977,-2.89053,-6.628119,-67.900002,-49.630001,14.63,1729421185872.0,0.0
-6.479764,-6.491727,-6.245267,-62.23,-41.580002,33.25,1729421185892.0,0.0
-8.705089,-7.269395,-8.38445,-22.33,-35.279999,31.780001,1729421185911.0,0.0
-8.592626,-8.413164,-9.628718,-17.92,-12.67,25.76,1729421185932.0,0.0
-8.255238,-8.252845,-9.097511,-10.78,20.719999,22.33,1729421185953.0,0.0
-7.862815,-8.346166,-8.906086,25.76,46.900002,12.11,1729421185971.0,0.0
-6.98465,-8.075776,-7.611568,48.720001,64.190002,5.95,1729421185992.0,0.0
-4.95075,-8.551948,-4.814359,49.630001,71.260002,-8.61,1729421186012.0,0.0
-4.163511,-8.532805,-1.481157,48.720001,62.16,-19.18,1729421186031.0,0.0
-3.352344,-8.642875,-1.861616,51.099998,37.73,-29.68,1729421186052.0,0.0
-2.794817,-6.592227,-2.364109,51.59,15.96,-39.549999,1729421186072.0,0.0
-2.517249,-3.534199,-3.158526,31.43,-3.29,-32.060001,1729421186091.0,0.0
-1.832902,-4.259224,-5.45085,0.35,-24.92,-18.76,1729421186112.0,0.0
-1.129412,-4.522435,-7.123433,-12.74,-43.540001,-15.33,1729421186132.0,0.0
-3.091527,-1.423729,-6.252446,-38.990002,-50.610001,-8.19,1729421186152.0,0.0
-5.716454,-3.132205,-5.455636,-63.349998,-54.18,14.84,1729421186172.0,0.0
-7.398607,-6.668797,-5.056034,-38.920002,-50.189999,28.35,1729421186193.0,0.0
-9.58804,-5.35753,-8.331808,-11.48,-33.25,32.759998,1729421186212.0,0.0
-8.645268,-9.085547,-10.413565,-45.779999,1.61,35.84,1729421186231.0,0.0
-7.551748,-8.662018,-10.219746,-16.24,27.65,27.16,1729421186252.0,0.0
-6.793223,-8.54477,-9.363115,34.860001,43.889999,17.360001,1729421186272.0,0.0
-6.113662,-9.056834,-6.98465,48.580002,58.380001,10.15,1729421186292.0,0.0
-5.405386,-9.480364,-4.287938,53.27,62.439999,-5.39,1729421186312.0,0.0
-3.26381,-7.427321,-1.349552,62.02,52.709999,-29.68,1729421186331.0,0.0
-2.476572,-7.350751,-2.452643,12.81,24.01,-43.189999,1729421186352.0,0.0
-2.732604,-6.022735,-2.545963,18.129999,3.57,-47.880001,1729421186371.0,0.0
-2.005185,-3.433701,-3.309274,13.440001,-20.299999,-43.68,1729421186391.0,0.0
-1.789831,-1.895115,-6.125626,-13.86,-39.130001,-27.58,1729421186411.0,0.0
-1.753939,-1.098306,-7.515855,-41.650002,-50.189999,-13.02,1729421186432.0,0.0
-4.149154,-1.37348,-7.616355,-54.25,-51.240002,14.7,1729421186452.0,0.0
-7.484749,-5.168497,-6.111269,-54.040001,-41.439999,38.150002,1729421186471.0,0.0
-8.915657,-6.903293,-5.192425,-22.26,-34.790001,43.119999,1729421186494.0,0.0
-9.946963,-5.819345,-7.420143,-16.309999,-19.879999,39.41,1729421186511.0,0.0
-8.147561,-11.023734,-9.769895,-79.940002,10.57,34.509998,1729421186532.0,0.0
-6.233303,-10.600205,-10.009177,-38.849998,30.52,20.299999,1729421186554.0,0.0
-4.62054,-10.346564,-8.204988,38.57,39.970001,7.42,1729421186571.0,0.0
-4.979464,-9.65504,-5.525027,60.41,53.34,-2.1,1729421186591.0,0.0
-4.917251,-9.664611,-3.531806,60.900002,52.709999,-18.83,1729421186612.0,0.0
-3.491128,-8.413164,-2.694318,49.91,40.599998,-40.389999,1729421186631.0,0.0
-2.991028,-7.13779,-3.419343,28.07,24.219999,-49.700001,1729421186652.0,0.0
-3.677768,-5.151747,-3.414558,29.469999,10.15,-52.009998,1729421186671.0,0.0
-2.311467,-3.309274,-4.445865,15.4,-15.33,-48.580002,1729421186691.0,0.0
-1.694118,-1.682154,-6.876972,-0.07,-29.540001,-34.580002,1729421186711.0,0.0
-2.160719,-1.244268,-7.042077,-28.07,-36.68,-20.370001,1729421186732.0,0.0
-3.393023,-0.490529,-6.970293,-48.02,-46.549999,2.03,1729421186752.0,0.0
-4.895715,-0.803988,-5.211568,-63.349998,-53.689999,30.799999,1729421186771.0,0.0
-6.759724,-3.795017,-6.577869,-62.09,-52.990002,63.349998,1729421186790.0,0.0
-7.893922,-7.192825,-8.781659,-59.639999,-34.93,81.269997,1729421186871.0,0.0
-10.018748,-9.626326,-11.337193,-57.119999,-1.47,72.870003,1729421186871.0,0.0
-9.559326,-11.198411,-10.604989,-45.920002,28.700001,49.490002,1729421186871.0,0.0
-7.142576,-11.097912,-9.348758,6.16,41.299999,19.25,1729421186901.0,0.0
-5.367101,-10.061819,-6.618547,42.84,49.420002,-3.57,1729421186901.0,0.0
-4.503292,-8.441878,-4.21376,53.970001,49.630001,-17.780001,1729421186911.0,0.0
-4.283153,-9.020942,-1.462015,41.720001,42.349998,-28.559999,1729421186931.0,0.0
-3.852444,-8.961121,-1.40698,23.24,20.02,-42.349998,1729421186952.0,0.0
-3.019742,-8.772088,-2.179861,25.059999,-2.66,-53.130001,1729421186972.0,0.0
-2.275574,-4.010371,-3.498307,57.400002,-21.210001,-54.670002,1729421186991.0,0.0
-1.730011,-2.837888,-4.479364,44.799999,-34.93,-33.32,1729421187011.0,0.0
-1.715654,-2.897708,-7.965706,-31.08,-54.950001,-7.7,1729421187032.0,0.0
-2.134398,-1.935793,-9.963714,-36.68,-56.349998,3.57,1729421187053.0,0.0
-4.101298,-2.165504,-9.150154,-44.310001,-47.040001,21.0,1729421187076.0,0.0
-8.049455,-3.921836,-5.187639,-62.369999,-33.740002,44.099998,1729421187092.0,0.0
-9.956534,-8.142776,-5.319244,-43.049999,-32.200001,45.009998,1729421187112.0,0.0
-10.664811,-7.288538,-8.958728,-13.3,-17.99,31.639999,1729421187132.0,0.0
-8.712267,-10.535598,-10.619347,-62.299999,20.299999,26.530001,1729421187152.0,0.0
-7.759924,-11.497513,-10.619347,-14.98,52.990002,10.78,1729421187171.0,0.0
-6.07777,-9.590433,-8.157133,67.830002,64.260002,-7.98,1729421187192.0,0.0
-4.821537,-7.551748,-4.862216,86.379997,69.090004,-20.440001,1729421187211.0,0.0
-3.658626,-8.657232,-2.201397,76.440002,62.650002,-30.799999,1729421187246.0,0.0
-1.569692,-7.441679,-0.849452,60.48,41.580002,-41.02,1729421187258.0,0.0
-0.949951,-6.070591,-1.871187,46.689999,16.66,-41.369999,1729421187271.0,0.0
-2.019542,-4.785645,-2.277967,49.490002,-7.07,-33.880001,1729421187291.0,0.0
-1.761117,-3.704089,-3.385844,30.309999,-33.670002,-21.280001,1729421187310.0,0.0
-2.526821,-1.617548,-7.69771,-15.61,-51.380001,-8.05,1729421187331.0,0.0
-3.04367,-3.036492,-9.142976,-46.830002,-56.0,16.1,1729421187351.0,0.0
-6.525227,-2.866602,-6.465407,-55.93,-47.389999,31.57,1729421187370.0,0.0
-9.023334,-5.501099,-6.759724,-34.650002,-43.68,44.240002,1729421187391.0,0.0
-10.906486,-5.955735,-5.800202,-13.16,-31.01,44.799999,1729421187411.0,0.0
-10.250853,-6.496514,-8.848659,-33.32,-9.73,31.710001,1729421187431.0,0.0
-7.936993,-8.295916,-10.736595,-40.740002,22.33,32.619999,1729421187452.0,0.0
-6.333801,-9.183653,-10.128819,22.190001,49.420002,29.82,1729421187473.0,0.0
-5.809773,-9.382257,-7.489535,74.690002,69.090004,27.16,1729421187491.0,0.0
-5.168497,-9.334401,-4.898108,80.290001,74.620003,10.99,1729421187524.0,0.0
-4.165904,-8.4012,-1.72044,60.900002,65.309998,-11.97,1729421187544.0,0.0
-2.981457,-9.111869,-2.163112,12.11,45.360001,-25.129999,1729421187666.0,0.0
-2.813959,-9.934999,-1.919044,11.9,25.059999,-38.57,1729421187666.0,0.0
-1.89033,-6.240481,-1.916651,39.27,0.91,-42.279999,1729421187666.0,0.0
-1.756332,-4.867002,-2.825923,29.889999,-18.9,-30.66,1729421187666.0,0.0
-2.545963,-3.792624,-4.319045,-0.63,-34.720001,-21.0,1729421187667.0,0.0
-3.002992,-4.024727,-6.541977,-19.67,-45.220001,-3.92,1729421187667.0,0.0
-2.443072,-4.718646,-9.425328,-30.66,-53.200001,-1.75,1729421187672.0,0.0
-6.814759,-2.182254,-6.62094,-66.779999,-32.970001,22.049999,1729421187690.0,0.0
-8.714661,-6.415157,-5.513064,-70.699997,-22.540001,32.619999,1729421187709.0,0.0
-9.403792,-5.410172,-7.223931,-12.18,-19.389999,30.1,1729421187730.0,0.0
-7.676175,-7.049256,-8.805587,-22.190001,0.35,25.27,1729421187750.0,0.0
-7.855636,-9.667004,-9.200402,-27.440001,29.33,27.440001,1729421187769.0,0.0
-7.080362,-9.332008,-9.427721,3.43,40.810001,11.55,1729421187790.0,0.0
-5.833702,-8.489735,-8.183454,34.720001,50.889999,-5.74,1729421187810.0,0.0
-4.589434,-7.922636,-5.087141,40.389999,59.5,-16.309999,1729421187829.0,0.0
-3.993621,-9.556933,-2.658426,48.509998,55.790001,-23.73,1729421187850.0,0.0
-2.529213,-8.472985,-0.875773,51.380001,38.920002,-35.98,1729421187869.0,0.0
-2.100898,-6.628119,-1.495514,42.07,16.379999,-37.59,1729421187889.0,0.0
-2.40718,-6.441479,-2.656033,41.439999,-4.83,-34.93,1729421187909.0,0.0
-2.481357,-4.079762,-3.792624,41.439999,-21.629999,-26.74,1729421187930.0,0.0
-3.268596,-4.924429,-5.257031,4.06,-30.59,-13.440001,1729421187949.0,0.0
-3.385844,-5.216353,-7.647461,-29.610001,-36.82,-11.62,1729421187969.0,0.0
-3.732803,-3.455236,-7.819745,-42.279999,-35.0,-6.58,1729421187989.0,0.0
-5.491528,-3.589234,-6.125626,-67.480003,-32.970001,-0.35,1729421188009.0,0.0
-6.513263,-4.31426,-7.101898,-39.689999,-32.060001,12.88,1729421188029.0,0.0
-7.252645,-5.625526,-6.539584,-15.54,-24.08,25.83,1729421188050.0,0.0
-7.594819,-5.606383,-7.788638,-20.860001,-13.440001,25.27,1729421188069.0,0.0
-7.49432,-7.802995,-8.496914,-45.849998,5.95,29.049999,1729421188089.0,0.0
-7.295716,-9.054441,-9.032906,-13.09,19.040001,24.780001,1729421188109.0,0.0
-6.769295,-8.269595,-8.145168,45.779999,32.34,19.18,1729421188129.0,0.0
-5.9677,-7.88435,-6.360123,60.900002,43.540001,15.190001,1729421188149.0,0.0
-5.290531,-8.116454,-4.491328,50.75,48.509998,5.53,1729421188169.0,0.0
-3.929015,-8.453842,-3.287738,44.73,43.540001,-8.19,1729421188189.0,0.0
-3.335595,-8.080563,-2.249253,26.880001,33.32,-16.17,1729421188209.0,0.0
-2.813959,-10.07139,-3.802195,17.43,15.12,-24.85,1729421188230.0,0.0
-2.35693,-7.118648,-3.948158,43.540001,2.73,-36.889999,1729421188250.0,0.0
-2.057827,-4.82393,-4.232903,46.759998,-10.92,-30.59,1729421188269.0,0.0
-2.533999,-4.850252,-4.362115,10.92,-23.17,-22.4,1729421188289.0,0.0
-2.694318,-2.708675,-5.134997,-27.65,-38.920002,-16.940001,1729421188309.0,0.0
-3.797409,-3.07717,-5.4676,-57.68,-50.889999,0.42,1729421188329.0,0.0
-6.656832,-3.732803,-6.601797,-80.150002,-55.860001,7.98,1729421188350.0,0.0
-6.537192,-5.867201,-7.944171,-45.150002,-51.310001,23.52,1729421188369.0,0.0
-8.695518,-5.728417,-7.063612,-7.14,-33.389999,31.780001,1729421188389.0,0.0
-9.245867,-6.809973,-8.492127,-29.82,-10.71,29.960001,1729421188410.0,0.0
-8.16431,-9.753145,-9.116654,-51.029999,16.030001,23.309999,1729421188430.0,0.0
-6.238089,-8.037491,-10.052249,-4.9,31.290001,8.26,1729421188449.0,0.0
-5.469993,-8.518449,-8.939585,38.709999,47.740002,4.97,1729421188469.0,0.0
-4.862216,-7.726424,-6.396015,36.889999,59.990002,-0.49,1729421188489.0,0.0
-4.295116,-8.166703,-4.790431,32.130001,61.389999,-7.7,1729421188509.0,0.0
-4.086941,-8.690732,-3.201597,35.630001,54.670002,-22.120001,1729421188529.0,0.0
-2.849852,-7.396214,-1.964507,43.330002,37.380001,-28.139999,1729421188550.0,0.0
-2.388037,-7.350751,-2.304288,30.52,17.710001,-30.59,1729421188570.0,0.0
-2.478964,-6.939186,-3.414558,20.23,0.84,-29.540001,1729421188592.0,0.0
-2.861816,-6.898508,-4.761717,32.130001,-15.190001,-22.4,1729421188613.0,0.0
-3.409772,-6.003592,-6.206983,37.939999,-21.49,-19.530001,1729421188633.0,0.0
-3.349952,-6.041877,-6.410372,26.460001,-24.43,-16.73,1729421188653.0,0.0
-3.445665,-3.495914,-5.513064,-8.4,-23.66,-12.39,1729421188670.0,0.0
-5.268995,-5.852845,-5.608776,-35.77,-27.58,-4.97,1729421188690.0,0.0
-6.022735,-7.082755,-6.805188,29.540001,-32.759998,0.7,1729421188710.0,0.0
-6.037091,-5.13739,-5.723632,68.25,-26.74,3.5,1729421188730.0,0.0
-7.302894,-5.395815,-5.570491,31.639999,-17.01,7.63,1729421188751.0,0.0
-6.996613,-7.401,-6.836295,-21.139999,-7.7,6.72,1729421188771.0,0.0
-5.924629,-9.375079,-7.448857,-19.040001,3.36,3.15,1729421188789.0,0.0
-4.587041,-8.525627,-7.369894,35.490002,8.47,-3.64,1729421188810.0,0.0
-5.020142,-6.912865,-6.245267,77.07,18.41,-4.27,1729421188830.0,0.0
-4.900501,-6.953543,-5.367101,71.959999,24.01,0.21,1729421188851.0,0.0
-4.809574,-7.523034,-4.862216,61.810001,26.74,1.47,1729421188869.0,0.0
-5.32403,-7.379465,-2.837888,62.439999,28.700001,0.84,1729421188890.0,0.0
-5.106283,-8.755339,-4.383651,93.940002,22.610001,2.31,1729421188912.0,0.0
-4.297509,-8.614161,-3.61077,135.520004,27.370001,-0.21,1729421188930.0,0.0
-4.122833,-7.829315,-3.132205,163.029999,28.630001,0.63,1729421188950.0,0.0
-3.964907,-7.32443,-2.866602,177.100006,23.309999,7.7,1729421188970.0,0.0
-4.070191,-7.379465,-2.548356,182.210007,17.219999,11.13,1729421188990.0,0.0
-4.630112,-8.566305,-1.787439,188.930008,15.96,16.309999,1729421189011.0,0.0
-4.991428,-9.171689,-0.165105,209.580002,12.25,13.79,1729421189030.0,0.0
-4.666004,-8.733803,-0.334995,225.820007,2.66,11.55,1729421189055.0,0.0
-4.06062,-9.992428,-0.90688,263.059998,2.03,15.47,1729421189071.0,0.0
-3.555735,-12.401999,-0.882952,330.190002,13.37,13.16,1729421189090.0,0.0
-3.395415,-12.820745,0.760918,413.350006,32.619999,6.44,1729421189111.0,0.0
-4.326223,-10.121639,3.115455,490.630005,49.139999,-4.34,1729421189130.0,0.0
-3.830909,-6.343372,4.457829,460.25,35.0,-22.540001,1729421189150.0,0.0
-3.802195,-3.134598,5.606383,333.269989,28.139999,-28.49,1729421189169.0,0.0
-4.189832,-2.091327,7.123433,187.669998,16.379999,-25.27,1729421189190.0,0.0
-4.575077,-4.156333,7.109076,80.150002,-1.12,-16.1,1729421189209.0,0.0
-4.333402,-7.219146,5.52742,38.43,-7.56,-9.59,1729421189230.0,0.0
-3.773481,-7.539784,3.65384,66.5,-0.56,-10.71,1729421189251.0,0.0
-3.675375,-5.891129,4.957928,98.279999,12.88,-12.81,1729421189270.0,0.0
-4.271189,-2.371287,6.388836,86.590004,18.27,-11.9,1729421189290.0,0.0
-4.989035,-2.605784,6.336195,47.810001,10.22,4.69,1729421189310.0,0.0
-4.692325,-1.885544,6.147161,18.27,6.79,15.190001,1729421189330.0,0.0
-5.625526,-3.486342,5.405386,-11.9,5.74,29.26,1729421189351.0,0.0
-7.161718,-5.946165,5.261817,8.26,7.42,36.470001,1729421189372.0,0.0
-7.89153,-6.771688,4.989035,40.25,8.33,22.68,1729421189390.0,0.0
-7.920243,-6.965507,6.376873,63.139999,11.2,6.16,1729421189411.0,0.0
-7.436893,-7.01097,7.283752,62.93,10.5,-14.14,1729421189430.0,0.0
-7.015756,-7.71446,7.058826,59.639999,5.67,-26.25,1729421189455.0,0.0
-7.518249,-9.095119,7.300502,56.84,1.4,-39.27,1729421189470.0,0.0
-8.556733,-9.080762,8.178668,65.870003,-7.63,-59.360001,1729421189490.0,0.0
-8.037491,-6.798009,7.525427,76.440002,-24.360001,-78.400002,1729421189509.0,0.0
-6.661618,-5.120641,7.23111,54.32,-34.23,-92.470001,1729421189531.0,0.0
-4.797609,-3.491128,7.465607,34.02,-35.560001,-100.519997,1729421189551.0,0.0
-2.239682,0.914058,7.128219,17.219999,-36.259998,-93.169998,1729421189569.0,0.0
-0.777667,1.490728,5.012963,-44.310001,-30.24,-58.52,1729421189589.0,0.0
-1.679761,-2.859423,3.754339,-84.07,-18.27,-32.830002,1729421189610.0,0.0
-1.081556,-2.799603,4.366901,-19.25,-3.5,-16.1,1729421189630.0,0.0
-0.775275,-1.514657,5.690133,38.920002,13.58,3.99,1729421189650.0,0.0
-2.328217,-2.321038,6.948757,37.380001,26.809999,22.68,1729421189670.0,0.0
-1.715654,-0.89013,8.080563,25.129999,30.17,34.16,1729421189689.0,0.0
-2.663212,-1.426122,7.898707,-13.02,32.060001,67.480003,1729421189709.0,0.0
-5.123034,-3.622734,7.9346,-36.75,33.670002,89.25,1729421189730.0,0.0
-8.492127,-8.930015,6.056234,-40.880001,30.030001,103.669998,1729421189762.0,0.0
-11.629118,-13.363914,6.54437,-35.84,32.48,71.190002,1729421189770.0,0.0
-9.38465,-12.248858,7.999206,19.460001,15.12,9.52,1729421189789.0,0.0
-6.9679,-7.113862,9.643075,81.970001,4.13,-26.950001,1729421189810.0,0.0
-7.101898,-6.393622,9.260223,38.290001,-13.23,-40.599998,1729421189830.0,0.0
-6.616155,-5.845665,7.369894,-10.08,-28.91,-55.510002,1729421189852.0,0.0
-4.326223,-6.125626,5.252246,-10.78,-31.85,-62.510002,1729421189870.0,0.0
-5.644669,-7.877172,5.757132,-0.14,-17.780001,-74.830002,1729421189889.0,0.0
-3.431308,-2.426322,8.561519,63.77,-13.02,-85.400002,1729421189910.0,0.0
-0.306281,3.086741,7.977671,59.290001,-15.68,-69.019997,1729421189931.0,0.0
0.710668,5.213961,6.372087,-12.74,-10.43,-27.02,1729421189952.0,0.0
-0.638884,0.744168,4.721039,-78.260002,2.03,23.1,1729421189970.0,0.0
-2.732604,-2.45025,5.075177,-66.360001,17.57,52.57,1729421189989.0,0.0
-3.010171,-1.289732,5.91745,-3.29,27.370001,78.190002,1729421190009.0,0.0
-5.989235,-4.201797,6.223732,7.7,35.0,99.68,1729421190031.0,0.0
-11.078769,-13.459626,5.132604,-27.51,45.920002,106.120003,1729421190050.0,0.0
-14.404793,-16.173088,7.499106,-12.53,45.5,30.1,1729421190070.0,0.0
-8.070991,-9.781858,11.894722,102.620003,10.22,-37.799999,1729421190090.0,0.0
-8.410772,-7.429714,11.090734,79.169998,-21.0,-62.790001,1729421190110.0,0.0
-6.740582,-4.65404,7.649854,5.46,-52.009998,-75.18,1729421190130.0,0.0
-3.608376,-3.495914,6.104091,-30.870001,-50.540001,-79.099998,1729421190153.0,0.0
-4.773681,-7.439285,5.221139,-62.93,-37.52,-82.040001,1729421190170.0,0.0
-4.199404,-4.278367,7.810174,-3.78,-24.5,-94.010002,1729421190189.0,0.0
-1.584049,2.337788,7.987241,52.709999,-29.469999,-82.25,1729421190210.0,0.0
-0.782453,4.599005,6.740582,-1.75,-30.870001,-31.15,1729421190229.0,0.0
-1.038485,0.878166,5.276174,-78.470001,-25.059999,15.75,1729421190251.0,0.0
-1.079163,-1.801795,4.21376,-74.340004,-9.87,29.68,1729421190271.0,0.0
-1.564906,-0.098106,5.510671,-6.72,13.37,52.709999,1729421190289.0,0.0
-2.507678,-0.208176,7.652246,30.17,28.280001,81.620003,1729421190309.0,0.0
-4.776074,-2.988636,8.224132,-5.04,30.799999,98.419998,1729421190331.0,0.0
-6.613762,-7.546963,7.389036,-35.560001,30.52,106.540001,1729421190351.0,0.0
-16.007982,-19.271793,5.4006,-62.860001,29.540001,84.629997,1729421190369.0,0.0
-6.982256,-8.671589,8.939585,76.300003,-9.59,-36.68,1729421190389.0,0.0
-5.02732,-4.938786,8.300702,65.169998,-18.620001,-63.560001,1729421190409.0,0.0
-6.211767,-6.941578,7.147361,-8.54,-30.52,-51.869999,1729421190430.0,0.0
-4.728218,-6.628119,6.685547,-8.54,-34.860001,-66.989998,1729421190450.0,0.0
-5.04407,-7.623533,7.448857,18.690001,-34.299999,-67.269997,1729421190469.0,0.0
-4.278367,-4.59422,8.482556,52.779999,-31.01,-77.769997,1729421190489.0,0.0
-2.608176,1.777867,6.439085,56.349998,-29.33,-75.389999,1729421190511.0,0.0
-1.217947,2.914458,7.080362,-13.51,-19.460001,-42.700001,1729421190531.0,0.0
-1.574477,-1.732404,5.393422,-75.32,-16.1,-16.24,1729421190551.0,0.0
0.023928,-0.870987,5.271388,-18.76,-3.15,5.46,1729421190569.0,0.0
-1.213161,-0.368495,6.374479,27.370001,17.85,34.650002,1729421190590.0,0.0
-2.469393,-0.043071,7.348359,14.91,29.960001,63.0,1729421190611.0,0.0
-3.014957,-2.679961,7.300502,-13.37,32.830002,87.220001,1729421190630.0,0.0
-5.465207,-5.063213,7.171289,-30.309999,37.66,103.110001,1729421190650.0,0.0
-10.549955,-16.625332,8.159525,-42.07,37.029999,100.029999,1729421190669.0,0.0
-14.330614,-16.847864,7.628319,-27.58,19.530001,20.16,1729421190691.0,0.0
-3.998406,-3.59402,8.453842,81.970001,-14.14,-56.77,1729421190709.0,0.0
-6.049056,-5.52742,6.695118,-10.71,-15.26,-47.25,1729421190730.0,0.0
-5.190032,-7.707282,5.144568,-24.639999,-19.809999,-54.740002,1729421190751.0,0.0
-4.981857,-9.186047,6.369694,7.7,-13.58,-76.370003,1729421190770.0,0.0
-3.416951,-3.022135,8.269595,79.239998,-10.71,-89.529999,1729421190789.0,0.0
-1.607977,2.194218,9.585647,64.82,-11.2,-75.389999,1729421190810.0,0.0
-0.571885,2.651247,8.408379,-11.41,-18.83,-42.700001,1729421190830.0,0.0
-0.571885,1.052842,6.204589,-48.09,-22.120001,-4.13,1729421190850.0,0.0
-0.887737,-1.071985,5.56092,-42.700001,-8.05,28.77,1729421190869.0,0.0
-3.251846,-2.155933,5.35753,-23.799999,8.96,49.84,1729421190890.0,0.0
-3.572484,-2.471786,6.034698,6.93,19.67,65.099998,1729421190909.0,0.0
-4.677969,-3.388237,6.250053,3.43,30.450001,75.879997,1729421190940.0,0.0
-6.403193,-5.862415,6.874579,-10.78,36.540001,89.809998,1729421190960.0,0.0
-11.877973,-15.797415,7.874779,-39.060001,32.759998,67.620003,1729421190969.0,0.0
-9.506684,-11.849257,8.580662,20.299999,9.31,-5.39,1729421190991.0,0.0
-4.65404,-5.67099,10.15514,79.169998,-9.38,-46.48,1729421191010.0,0.0
-5.254639,-5.458029,7.293324,6.51,-19.32,-45.920002,1729421191029.0,0.0
-4.192225,-7.085148,6.283553,-14.07,-24.99,-56.77,1729421191051.0,0.0
-4.61097,-8.252845,6.683154,4.34,-18.969999,-74.269997,1729421191070.0,0.0
-2.921637,-3.096312,8.413164,66.639999,-17.57,-84.699997,1729421191089.0,0.0
-0.756132,2.629712,8.480164,61.32,-18.83,-70.349998,1729421191109.0,0.0
0.842274,4.740182,6.546762,-10.71,-15.96,-31.5,1729421191129.0,0.0
-0.002393,1.177269,5.182854,-65.870003,-3.71,21.42,1729421191151.0,0.0
-1.952543,-1.945365,4.165904,-62.16,13.23,51.099998,1729421191169.0,0.0
-2.644069,-0.81356,5.283352,-0.63,30.450001,76.370003,1729421191190.0,0.0
-4.261617,-2.301895,6.436693,15.26,43.82,96.949997,1729421191209.0,0.0
-6.599405,-4.510471,6.649654,-7.35,51.799999,109.550003,1729421191229.0,0.0
-12.248858,-16.417156,8.860621,-45.5,51.869999,101.150002,1729421191251.0,0.0
-12.890135,-15.933806,8.444271,-32.619999,21.700001,9.8,1729421191268.0,0.0
-5.690133,-7.030113,10.537991,84.910004,-13.51,-42.0,1729421191297.0,0.0
-5.958128,-4.182654,9.29133,38.57,-20.790001,-50.189999,1729421191309.0,0.0
-5.134997,-3.878766,6.345766,-22.049999,-32.34,-48.860001,1729421191331.0,0.0
-3.806981,-5.893522,5.974878,-12.88,-25.76,-56.77,1729421191351.0,0.0
-4.321437,-5.953342,7.424929,41.09,-11.97,-79.449997,1729421191370.0,0.0
-2.522035,-0.342174,8.769694,85.610001,-12.32,-75.809998,1729421191390.0,0.0
-0.078963,3.871587,8.379664,40.389999,-16.73,-54.040001,1729421191409.0,0.0
0.358923,3.268596,6.836295,-40.670002,-13.440001,-6.79,1729421191430.0,0.0
-1.117448,-1.237089,4.84068,-94.290001,-2.73,35.349998,1729421191452.0,0.0
-2.0004,-2.706282,4.421937,-62.23,14.28,54.740002,1729421191471.0,0.0
-2.667997,-1.952543,5.84088,8.26,31.5,76.93,1729421191491.0,0.0
-4.689932,-1.808974,5.120641,13.93,43.540001,96.32,1729421191509.0,0.0
-6.644868,-9.162118,7.563712,-15.54,53.48,110.879997,1729421191530.0,0.0
-14.361722,-17.910276,6.300302,-79.590004,49.420002,59.220001,1729421191551.0,0.0
-7.489535,-9.923036,8.798409,42.279999,9.1,-5.39,1729421191570.0,0.0
-4.759324,-4.429115,11.267801,85.260002,-1.33,-34.16,1729421191590.0,0.0
-7.838887,-6.352944,10.638489,-7.84,-15.96,-30.66,1729421191610.0,0.0
-7.221539,-5.570491,6.623333,-29.610001,-39.130001,-49.560001,1729421191630.0,0.0
-4.405186,-5.503492,5.558527,10.01,-37.380001,-62.23,1729421191652.0,0.0
-5.345565,-5.551349,7.317252,43.540001,-21.42,-86.940002,1729421191670.0,0.0
-2.624927,0.567099,7.554141,75.529999,-16.17,-83.93,1729421191691.0,0.0
-0.038285,4.256832,7.312466,18.200001,-7.28,-50.400002,1729421191710.0,0.0
-0.33021,2.06022,5.962914,-53.27,-3.99,-7.63,1729421191731.0,0.0
-0.736989,-0.875773,4.479364,-68.18,3.92,28.84,1729421191753.0,0.0
-1.150948,-1.06002,5.199604,-17.92,23.379999,55.09,1729421191771.0,0.0
-3.101098,-1.368695,6.575477,22.889999,41.650002,82.669998,1729421191791.0,0.0
-4.685147,-2.184647,5.491528,4.13,48.93,98.629997,1729421191884.0,0.0
-7.329216,-10.466206,7.341179,-27.02,56.91,109.059998,1729421191887.0,0.0
-14.277972,-17.97967,6.932007,-76.019997,45.43,50.540001,1729421191891.0,0.0
-7.865208,-9.894321,9.24108,54.880001,3.08,-5.32,1729421191892.0,0.0
-5.986843,-4.828716,11.114661,87.150002,-7.56,-35.91,1729421191892.0,0.0
-8.4012,-5.749953,8.626125,4.06,-27.93,-37.59,1729421191911.0,0.0
-6.443871,-3.929015,5.283352,-18.200001,-42.490002,-58.310001,1729421191931.0,0.0
-5.312066,-6.886543,6.111269,5.39,-33.810001,-70.419998,1729421191953.0,0.0
-4.725825,-4.426722,8.623734,77.209999,-15.12,-92.400002,1729421191971.0,0.0
-1.684547,2.232504,7.381857,91.279999,-19.25,-89.32,1729421191991.0,0.0
0.849452,6.108876,7.307681,19.879999,-14.7,-50.540001,1729421192015.0,0.0
0.098106,2.507678,5.4341,-75.599998,-6.16,2.52,1729421192031.0,0.0
-0.557528,-0.835095,4.460221,-92.400002,7.0,41.509998,1729421192052.0,0.0
-1.701297,-1.067199,4.981857,-32.27,24.99,73.43,1729421192071.0,0.0
-3.134598,-1.933401,5.99402,7.56,40.040001,100.730003,1729421192091.0,0.0
-5.340781,-3.065206,5.084748,-10.36,51.59,115.290001,1729421192111.0,0.0
-8.839087,-13.282558,8.238488,-34.93,60.41,115.849998,1729421192131.0,0.0
-17.240288,-17.630316,7.415358,-71.959999,47.880001,42.630001,1729421192152.0,0.0
-7.68096,-7.113862,10.581062,88.199997,-7.77,-17.57,1729421192171.0,0.0
-6.321837,-3.354738,11.449656,64.470001,-14.63,-45.639999,1729421192191.0,0.0
-8.669197,-6.611369,8.542377,-25.059999,-35.560001,-49.98,1729421192211.0,0.0
-5.733203,-4.055835,5.041678,-16.309999,-44.59,-73.57,1729421192231.0,0.0
-4.61097,-5.443672,5.070391,18.200001,-29.610001,-79.519997,1729421192253.0,0.0
-5.960521,-6.032306,6.592227,39.41,-10.57,-89.739998,1729421192270.0,0.0
-1.555335,1.17009,8.200203,81.620003,-9.52,-84.209999,1729421192291.0,0.0
1.12702,4.589434,6.778866,6.37,-16.940001,-52.57,1729421192311.0,0.0
0.691526,1.715654,4.63729,-74.760002,-4.97,3.85,1729421192331.0,0.0
-1.160519,-1.988436,4.850252,-82.949997,13.02,36.119999,1729421192352.0,0.0
-2.79721,-1.708475,5.871986,-11.55,25.620001,60.970001,1729421192371.0,0.0
-3.479164,-1.20359,6.45105,35.490002,31.99,81.690002,1729421192391.0,0.0
-5.584848,-0.57667,5.374279,12.53,42.84,99.82,1729421192411.0,0.0
-8.042276,-11.191232,7.503892,-31.290001,49.420002,109.970001,1729421192431.0,0.0
-14.440684,-16.92922,7.432107,-67.269997,41.16,37.73,1729421192452.0,0.0
-7.329216,-8.410772,9.580862,64.540001,-0.28,-6.16,1729421192470.0,0.0
-6.065805,-3.802195,10.564312,58.310001,-8.82,-35.279999,1729421192491.0,0.0
-7.970492,-6.364908,7.889136,-33.389999,-28.98,-34.16,1729421192511.0,0.0
-7.293324,-5.28096,5.211568,-40.670002,-36.400002,-64.400002,1729421192531.0,0.0
-5.266603,-4.555934,5.886343,18.200001,-28.49,-70.980003,1729421192553.0,0.0
-5.565705,-5.922236,6.91765,29.4,-15.89,-80.5,1729421192573.0,0.0
-2.864209,-2.108077,8.580662,78.540001,-13.79,-80.150002,1729421192590.0,0.0
-0.435494,2.388037,8.516055,68.25,-16.66,-67.830002,1729421192612.0,0.0
-0.988236,2.309074,5.615955,-19.32,-15.26,-21.91,1729421192630.0,0.0
-1.545763,-0.98345,4.41715,-88.760002,-3.85,35.91,1729421192652.0,0.0
-2.533999,-2.009971,4.603791,-30.309999,14.35,59.57,1729421192671.0,0.0
-3.302095,-1.064806,5.213961,23.59,34.439999,81.340004,1729421192691.0,0.0
-4.902894,-0.327817,6.565905,21.139999,55.23,102.129997,1729421192711.0,0.0
-9.238688,-12.607781,7.999206,-30.59,56.700001,107.800003,1729421192742.0,0.0
-14.13919,-15.845272,8.831908,-50.119999,42.420002,37.869999,1729421192754.0,0.0
-5.962914,-7.391429,9.832108,67.830002,-3.78,1.68,1729421192770.0,0.0
-6.084948,-3.548556,10.217353,24.08,-6.93,-24.92,1729421192791.0,0.0
-7.467999,-6.116055,7.781459,-62.860001,-25.059999,-21.77,1729421192811.0,0.0
-7.599605,-7.592427,6.209375,-44.73,-33.25,-49.420002,1729421192831.0,0.0
-4.369294,-2.924029,5.910272,25.620001,-34.299999,-60.27,1729421192854.0,0.0
-4.744967,-4.565506,6.233303,30.24,-22.68,-56.630001,1729421192870.0,0.0
-3.972085,-4.003192,7.724032,49.77,-8.33,-60.060001,1729421192890.0,0.0
-2.713461,-1.287339,8.827123,52.57,-5.39,-61.950001,1729421192910.0,0.0
-1.564906,1.426122,7.932207,18.620001,-8.19,-40.880001,1729421192930.0,0.0
-0.5001,1.85683,6.175875,-36.610001,-8.96,-9.38,1729421192953.0,0.0
-2.366502,-1.971686,4.395615,-67.059998,0.35,45.150002,1729421192970.0,0.0
-2.734996,-1.179662,3.897908,-10.5,24.639999,71.120003,1729421192991.0,0.0
-3.35713,-0.600598,5.020142,18.969999,45.43,95.269997,1729421193011.0,0.0
-7.939385,-11.94497,6.525227,-10.78,57.75,108.150002,1729421193030.0,0.0
-15.13221,-16.228123,7.836494,-33.880001,52.080002,42.0,1729421193052.0,0.0
-7.144968,-7.580462,10.96152,112.629997,2.1,4.13,1729421193069.0,0.0
-7.106683,-4.23051,12.294323,52.639999,-10.64,-29.68,1729421193090.0,0.0
-7.530212,-4.850252,8.087741,-56.209999,-40.25,-27.93,1729421193109.0,0.0
-5.826523,-5.534599,6.285945,-56.91,-45.220001,-49.77,1729421193130.0,0.0
-5.24746,-4.584648,6.092126,-6.58,-35.279999,-58.029999,1729421193152.0,0.0
-6.345766,-6.972685,6.195018,10.01,-25.83,-63.139999,1729421193169.0,0.0
-5.079963,-6.202196,7.508677,51.240002,-16.870001,-82.809998,1729421193190.0,0.0
-3.058028,-1.490728,8.760124,75.25,-14.28,-92.470001,1729421193210.0,0.0
-0.78006,2.785245,7.609176,23.799999,-18.620001,-73.290001,1729421193230.0,0.0
0.31346,3.876373,6.594619,-53.130001,-15.61,-30.870001,1729421193251.0,0.0
0.375673,1.107877,4.733003,-98.559998,-8.4,15.47,1729421193269.0,0.0
-1.78026,-1.634298,4.139583,-74.269997,8.19,55.09,1729421193290.0,0.0
-3.275774,-0.342174,5.364708,14.91,32.970001,97.019997,1729421193310.0,0.0
-5.941379,-1.007378,4.673182,-8.26,49.700001,112.419998,1729421193339.0,0.0
-7.317252,-9.085547,6.479764,-29.33,57.470001,127.610001,1729421193352.0,0.0
-14.993427,-20.702702,6.78126,-79.940002,56.139999,65.519997,1729421193370.0,0.0
-10.066606,-11.229517,10.303494,71.260002,12.32,-2.38,1729421193390.0,0.0
-5.716454,-3.041277,12.449856,101.360001,-10.57,-32.549999,1729421193411.0,0.0
-7.716853,-4.902894,10.135997,-21.629999,-30.59,-38.5,1729421193431.0,0.0
-7.436893,-5.819345,6.171089,-59.709999,-48.02,-59.220001,1729421193452.0,0.0
-5.491528,-6.812366,5.536992,-1.89,-42.209999,-71.330002,1729421193471.0,0.0
-5.888737,-7.996813,5.515456,23.17,-27.02,-90.370003,1729421193490.0,0.0
-4.589434,-4.173083,7.353144,81.059998,-17.360001,-102.129997,1729421193511.0,0.0
-1.428515,1.969293,7.183254,83.230003,-15.96,-98.209999,1729421193531.0,0.0
1.028914,6.58744,6.551548,14.0,-10.71,-60.900002,1729421193552.0,0.0
0.18664,4.09412,6.202196,-72.519997,-0.28,6.09,1729421193571.0,0.0
-2.531606,-0.564706,5.422136,-120.050003,7.98,49.349998,1729421193591.0,0.0
-2.751746,-0.911665,5.52742,-25.34,12.95,96.459999,1729421193611.0,0.0
-4.565506,-1.919044,5.13739,-15.54,27.93,119.770004,1729421193631.0,0.0
-6.4678,-5.943772,5.379066,-37.869999,45.220001,133.770004,1729421193652.0,0.0
-11.947363,-19.697716,6.424729,-81.059998,52.639999,101.57,1729421193671.0,0.0
-12.751352,-15.268601,6.750153,-23.52,30.73,12.46,1729421193692.0,0.0
-5.666204,-6.269196,9.887143,116.550003,-2.03,-14.07,1729421193711.0,0.0
-7.805387,-6.415157,11.038091,56.490002,-5.74,-31.290001,1729421193732.0,0.0
-9.269794,-6.867401,7.264609,2.59,-34.369999,-57.400002,1729421193753.0,0.0
-5.974878,-5.910272,5.520242,31.85,-42.700001,-75.18,1729421193772.0,0.0
-6.369694,-7.554141,5.52742,33.670002,-28.139999,-95.059998,1729421193791.0,0.0
-4.991428,-4.934,7.302894,73.150002,-17.639999,-111.370003,1729421193812.0,0.0
-2.65364,-1.103091,7.700103,74.480003,-16.24,-108.360001,1729421193831.0,0.0
-0.772882,3.704089,7.393822,21.280001,-13.72,-88.480003,1729421193853.0,0.0
0.392423,3.739982,6.034698,-40.040001,-15.05,-33.810001,1729421193871.0,0.0
-1.655833,0.196211,3.909872,-83.860001,-6.58,15.190001,1729421193891.0,0.0
-2.041078,-0.09332,4.706682,-9.73,15.54,65.379997,1729421193911.0,0.0
-3.213561,1.009771,6.254838,43.259998,32.689999,94.57,1729421193932.0,0.0
-6.336195,-0.07657,6.161518,11.83,44.939999,115.150002,1729421193953.0,0.0
-6.881758,-3.775874,6.441479,-19.32,51.029999,134.889999,1729421193971.0,0.0
-9.533006,-12.028719,6.388836,-84.699997,51.869999,110.809998,1729421193991.0,0.0
-11.375479,-11.277373,7.704889,-45.290001,33.599998,61.459999,1729421194011.0,0.0
-6.74776,-5.017749,9.217153,47.32,3.57,45.57,1729421194031.0,0.0
-6.276374,-2.727818,9.609575,13.3,-3.29,34.02,1729421194058.0,0.0
-6.539584,-2.510071,9.049655,-53.48,-17.15,34.650002,1729421194071.0,0.0
-6.293124,-2.888137,8.154739,-105.629997,-29.190001,35.77,1729421194092.0,0.0
-5.513064,-1.921437,7.109076,-163.309998,-37.029999,34.720001,1729421194111.0,0.0
-5.534599,-2.431108,6.960721,-209.229996,-46.549999,41.790001,1729421194132.0,0.0
-6.254838,-3.972085,6.352944,-259.350006,-56.98,55.790001,1729421194154.0,0.0
-6.58744,-4.991428,5.831308,-308.839996,-70.629997,53.060001,1729421194171.0,0.0
-6.314659,-3.795017,5.367101,-342.51001,-84.840004,53.900002,1729421194191.0,0.0
-6.257231,-2.981457,3.086741,-404.73999,-102.690002,66.43,1729421194212.0,0.0
-7.123433,-10.320245,-2.952743,-466.690002,-112.699997,56.98,1729421194231.0,0.0
-6.26441,-16.503298,-5.649454,-425.25,-99.190002,8.4,1729421194252.0,0.0
-4.41715,-17.202002,-3.005385,-260.959991,-70.980003,-26.74,1729421194271.0,0.0
-4.237689,-12.653246,-0.454636,-82.669998,-41.16,-54.18,1729421194291.0,0.0
-4.156333,-8.35813,0.811167,-13.02,-28.280001,-66.57,1729421194311.0,0.0
-3.665804,-7.104291,0.059821,-40.880001,-17.639999,-64.260002,1729421194331.0,0.0
-2.62732,-9.075976,-2.464607,-78.959999,-13.02,-52.290001,1729421194352.0,0.0
-2.182254,-11.10509,-4.017549,-81.830002,17.92,-46.200001,1729421194370.0,0.0
-3.007778,-11.188839,-2.600998,-6.72,57.82,-41.299999,1729421194394.0,0.0
-3.491128,-8.910872,-1.363909,112.419998,67.340004,-33.25,1729421194412.0,0.0
-2.76371,-6.613762,0.22014,215.180008,63.209999,-24.43,1729421194431.0,0.0
-2.612962,-4.780859,1.844866,262.5,70.139999,-9.1,1729421194453.0,0.0
-2.416751,-4.945964,4.297509,261.170013,63.420002,11.27,1729421194471.0,0.0
-3.852444,-4.429115,5.309673,216.160004,49.98,27.719999,1729421194491.0,0.0
-5.192425,-3.716053,7.094719,135.520004,31.780001,53.549999,1729421194511.0,0.0
-6.549156,-4.098906,7.298109,26.67,3.92,74.410004,1729421194531.0,0.0
-8.271988,-6.812366,4.395615,-91.629997,-17.290001,67.340004,1729421194551.0,0.0
-6.884151,-11.976077,0.753739,-150.639999,-23.870001,38.220001,1729421194572.0,0.0
-6.238089,-13.251451,0.564706,-69.440002,1.05,-1.61,1729421194591.0,0.0
-6.568298,-9.992428,1.292124,34.16,9.73,-6.93,1729421194611.0,0.0
-6.381658,-6.252446,1.739582,63.139999,8.75,-13.3,1729421194631.0,0.0
-5.948557,-5.761917,2.275574,39.27,9.59,-17.01,1729421194655.0,0.0
-5.575277,-6.905686,2.06022,17.639999,9.73,-18.27,1729421194671.0,0.0
-5.905487,-7.032506,2.014757,5.74,12.67,-16.309999,1729421194691.0,0.0
-6.939186,-7.056434,1.914258,-14.63,17.99,-17.639999,1729421194712.0,0.0
-7.235896,-8.432307,1.696511,-32.900002,17.639999,-25.41,1729421194741.0,0.0
-8.008778,-11.511869,0.61017,-53.619999,18.129999,-42.91,1729421194754.0,0.0
-9.147761,-13.950156,-0.808774,-60.689999,29.26,-76.510002,1729421194771.0,0.0
-8.4012,-12.600604,-2.019542,-41.299999,39.549999,-113.260002,1729421194791.0,0.0
-4.876573,-7.609176,-0.12682,9.38,42.91,-132.089996,1729421194811.0,0.0
0.909273,-5.118248,5.13739,118.580002,39.759998,-109.480003,1729421194831.0,0.0
2.725425,-1.064806,10.339387,175.139999,31.01,-86.730003,1729421194852.0,0.0
0.502493,1.962115,13.74198,151.619995,28.700001,-20.02,1729421194871.0,0.0
0.81356,1.184447,9.815358,-23.940001,-18.129999,15.82,1729421194891.0,0.0
0.133998,-9.592826,1.208375,-178.430008,-46.970001,59.990002,1729421194911.0,0.0
-2.086541,-13.813765,0.069392,-123.129997,-18.9,80.779999,1729421194931.0,0.0
-3.330809,-10.645668,0.512064,-3.99,-10.92,81.480003,1729421194953.0,0.0
-2.742175,-7.183254,0.715454,84.629997,-24.290001,88.480003,1729421194970.0,0.0
-4.893322,-7.398607,2.682354,92.050003,-23.17,98.279999,1729421194991.0,0.0
-8.537591,-8.075776,3.002992,52.43,-18.48,100.099998,1729421195011.0,0.0
-11.358729,-10.037891,1.416551,-23.73,-18.200001,80.43,1729421195031.0,0.0
-11.693724,-14.079369,-1.926222,-90.160004,-9.03,31.99,1729421195053.0,0.0
-9.875179,-15.579668,-2.309074,-53.689999,15.05,-25.41,1729421195073.0,0.0
-9.674182,-14.148761,0.574277,36.189999,38.779999,-70.209999,1729421195090.0,0.0
-9.743573,-9.080762,1.074377,38.290001,46.41,-108.709999,1729421195111.0,0.0
-7.063612,-7.393822,-0.244068,-23.450001,38.849998,-125.020004,1729421195132.0,0.0
-1.598405,-3.510271,0.334995,-35.630001,37.170002,-133.979996,1729421195154.0,0.0
4.790431,-5.230711,8.62134,140.350006,58.52,-107.169998,1729421195170.0,0.0
0.528814,4.515256,15.3021,191.169998,49.279999,-50.400002,1729421195191.0,0.0
-1.184447,3.735196,9.822537,19.530001,-11.2,25.059999,1729421195211.0,0.0
3.218346,-11.327622,-1.251446,-178.360001,-74.340004,47.880001,1729421195232.0,0.0
-1.375873,-16.577475,-1.225125,-139.720001,-15.47,78.610001,1729421195252.0,0.0
-4.74736,-11.499906,0.351745,29.82,-5.95,77.910004,1729421195271.0,0.0
-4.259224,-7.018148,2.165504,132.440002,-26.040001,75.040001,1729421195291.0,0.0
-7.348359,-6.412765,3.993621,99.68,-13.23,78.610001,1729421195311.0,0.0
-10.750952,-8.360522,1.986043,-3.64,-14.63,69.93,1729421195331.0,0.0
-11.75833,-12.311072,-0.088534,-88.830002,-7.42,35.279999,1729421195362.0,0.0
-10.616954,-15.527027,-0.725025,-75.879997,8.4,-14.63,1729421195378.0,0.0
-10.923235,-17.120646,0.543171,16.52,31.01,-67.970001,1729421195391.0,0.0
-10.372886,-10.4016,1.387837,78.190002,39.759998,-119.07,1729421195411.0,0.0
-6.046663,-3.818945,1.89033,48.23,29.120001,-135.029999,1729421195432.0,0.0
3.617948,-1.70369,5.807381,57.68,33.950001,-116.199997,1729421195452.0,0.0
6.190232,1.351945,10.549955,136.570007,25.620001,-78.889999,1729421195472.0,0.0
-1.100698,3.002992,12.914064,66.709999,34.720001,17.15,1729421195491.0,0.0
-1.246661,-4.462614,4.886144,-106.82,-32.130001,50.959999,1729421195511.0,0.0
-0.050249,-12.646068,-0.641276,-167.160004,-49.420002,64.610001,1729421195532.0,0.0
-3.046063,-15.661024,-0.732204,-91.279999,-11.48,70.980003,1729421195552.0,0.0
-4.103691,-7.367501,0.847059,102.970001,-15.05,66.080002,1729421195571.0,0.0
-5.965307,-5.659025,3.862016,133.770004,-9.73,79.940002,1729421195591.0,0.0
-10.241282,-7.353144,3.574877,52.990002,-5.25,77.349998,1729421195611.0,0.0
-12.844672,-10.894521,1.28016,-54.18,-8.61,52.57,1729421195631.0,0.0
-12.358929,-15.223137,-1.777867,-111.020004,-3.57,-9.8,1729421195664.0,0.0
-10.913664,-17.41975,-1.402194,-58.099998,15.47,-75.809998,1729421195672.0,0.0
-9.133404,-12.521641,-0.691526,8.47,41.16,-136.5,1729421195691.0,0.0
-5.510671,-4.295116,-0.832702,-13.79,46.41,-156.169998,1729421195712.0,0.0
4.661219,-4.268795,7.728817,95.269997,48.369999,-118.440002,1729421195732.0,0.0
4.711468,6.752545,15.139388,182.350006,11.62,-75.32,1729421195763.0,0.0
-2.057827,6.821937,10.815558,-19.530001,9.66,30.799999,1729421195771.0,0.0
0.562313,-6.252446,0.428315,-246.190002,-49.700001,44.52,1729421195793.0,0.0
1.040878,-16.010376,-2.545963,-203.070007,-25.27,66.919998,1729421195812.0,0.0
-4.881358,-10.377672,1.832902,-32.34,13.37,89.879997,1729421195833.0,0.0
-4.402793,-4.816752,2.230111,93.379997,-19.18,95.410004,1729421195855.0,0.0
-5.716454,-5.101498,2.598605,95.199997,-37.240002,109.340004,1729421195874.0,0.0
-10.195816,-8.796017,2.54357,28.630001,-31.780001,104.300003,1729421195892.0,0.0
-12.732209,-11.542977,0.117248,-43.470001,-22.190001,70.419998,1729421195913.0,0.0
-10.79163,-14.510076,-3.481557,-78.610001,-0.98,8.96,1729421195933.0,0.0
-8.688338,-16.02952,-1.586441,-13.93,28.91,-42.98,1729421195955.0,0.0
-10.480563,-13.926227,1.28016,69.370003,46.549999,-81.410004,1729421195973.0,0.0
-9.856036,-9.085547,-0.875773,15.68,38.849998,-120.610001,1729421195992.0,0.0
-4.73061,-6.130411,-2.581856,-65.449997,21.559999,-155.399994,1729421196012.0,0.0
5.118248,-9.327222,3.795017,106.540001,45.709999,-134.680008,1729421196033.0,0.0
1.74676,6.300302,16.50569,288.049988,48.509998,-75.110001,1729421196053.0,0.0
-3.294917,10.703095,14.502897,95.410004,30.799999,7.77,1729421196072.0,0.0
0.502493,0.760918,6.218946,-183.610001,-51.380001,36.470001,1729421196097.0,0.0
0.399601,-10.911271,0.239282,-251.790009,-62.02,67.480003,1729421196112.0,0.0
-4.280759,-14.105689,-0.543171,-154.770004,-32.41,98.769997,1729421196133.0,0.0
-4.563113,-9.745967,0.160319,-4.41,-34.09,105.699997,1729421196155.0,0.0
-6.369694,-8.537591,1.737189,95.550003,-45.709999,111.300003,1729421196172.0,0.0
-11.102697,-9.832108,1.172483,94.010002,-15.75,113.050003,1729421196192.0,0.0
-14.220546,-11.868401,0.141177,8.82,-0.35,68.110001,1729421196213.0,0.0
-12.892529,-15.582061,-1.765903,-57.049999,10.78,-11.55,1729421196232.0,0.0
-11.377872,-17.075182,-2.194218,-15.12,31.08,-78.120003,1729421196255.0,0.0
-10.296316,-13.019348,0.227318,47.110001,41.509998,-131.669998,1729421196272.0,0.0
-7.838887,-7.286145,-0.344566,3.08,45.009998,-149.520004,1729421196292.0,0.0
-1.040878,1.899901,0.445065,-56.700001,42.139999,-153.300003,1729421196314.0,0.0
8.396415,-4.402793,9.315259,135.380005,38.5,-112.209999,1729421196333.0,0.0
1.505085,6.551548,15.431314,193.690002,46.34,-40.599998,1729421196354.0,0.0
-3.567699,2.545963,8.382057,-25.76,14.98,32.48,1729421196372.0,0.0
-0.411566,-6.74776,2.900101,-211.190002,-29.049999,32.549999,1729421196393.0,0.0
0.457029,-13.892728,-0.059821,-177.449997,-26.950001,53.760002,1729421196411.0,0.0
-1.785046,-11.330014,0.141177,-36.189999,-13.86,80.5,1729421196433.0,0.0
-3.756732,-8.090133,1.304088,78.889999,-24.219999,98.629997,1729421196454.0,0.0
-7.264609,-9.150154,3.010171,114.590004,-27.719999,106.959999,1729421196472.0,0.0
-10.547562,-9.454042,1.844866,84.840004,-23.870001,93.800003,1729421196492.0,0.0
-13.440485,-12.416357,-1.931008,-55.650002,0.14,26.950001,1729421196512.0,0.0
-11.145767,-16.386049,-2.376073,-68.809998,11.97,-44.799999,1729421196533.0,0.0
-12.303895,-15.608383,-1.507478,-6.79,38.779999,-101.360001,1729421196555.0,0.0
-11.083554,-8.365308,-1.347159,8.54,52.43,-142.589996,1729421196573.0,0.0
-2.806781,5.99402,0.746561,2.73,42.279999,-145.529999,1729421196592.0,0.0
8.690732,3.565305,10.169496,150.220001,34.299999,-101.5,1729421196612.0,0.0
0.533599,4.366901,16.11566,84.910004,58.170002,-6.79,1729421196633.0,0.0
-3.957729,-4.376472,9.669396,-86.239998,-9.24,47.670002,1729421196653.0,0.0
-0.825524,-11.397014,4.034299,-166.460007,-57.540001,47.950001,1729421196672.0,0.0
-1.622334,-14.947963,2.134398,-129.990005,-51.380001,57.260002,1729421196692.0,0.0
-3.783052,-11.026128,1.840081,-27.370001,-45.57,60.200001,1729421196712.0,0.0
-4.031906,-6.364908,1.689333,41.23,-61.18,70.279999,1729421196734.0,0.0
-6.405586,-5.627919,0.801596,46.060001,-64.050003,87.290001,1729421196753.0,0.0
-9.554541,-7.704889,0.521635,-1.26,-51.310001,83.090004,1729421196772.0,0.0
-11.79183,-9.533006,-2.624927,-68.879997,-34.16,58.939999,1729421196792.0,0.0
-11.004591,-13.844872,-6.058627,-93.870003,-13.09,11.97,1729421196864.0,0.0
-10.870593,-17.484356,-3.287738,-25.969999,36.610001,-44.450001,1729421196864.0,0.0
-10.892128,-11.234302,0.181855,103.18,85.610001,-118.230003,1729421196865.0,0.0
-7.484749,-6.216553,1.701297,40.389999,79.870003,-140.979996,1729421196899.0,0.0
0.68674,0.787239,7.463214,-1.05,68.529999,-138.949997,1729421196899.0,0.0
7.927422,-0.200997,13.021741,166.669998,31.08,-89.529999,1729421196913.0,0.0
0.942772,5.02732,15.50549,143.639999,36.049999,-3.01,1729421196932.0,0.0
-1.883151,-1.222732,9.162118,-44.52,-21.98,64.889999,1729421196953.0,0.0
-1.885544,-10.145569,2.35693,-199.639999,-63.349998,70.559998,1729421196972.0,0.0
-3.199204,-15.120246,-0.978664,-186.410004,-53.060001,66.220001,1729421196992.0,0.0
-5.211568,-12.619746,-0.760918,-25.76,-41.16,68.040001,1729421197016.0,0.0
-6.13759,-7.929814,-1.481157,110.599998,-49.209999,71.120003,1729421197032.0,0.0
-7.812566,-7.319644,0.655633,133.559998,-32.060001,63.84,1729421197127.0,0.0
-10.815558,-8.154739,0.935594,80.57,-6.72,53.130001,1729421197129.0,0.0
-12.703495,-10.805987,-0.775275,-27.23,1.96,20.370001,1729421197137.0,0.0
-12.373285,-14.526826,-2.127219,-113.260002,17.710001,-51.380001,1729421197137.0,0.0
-10.837094,-16.847864,-1.124627,-79.590004,33.950001,-112.349998,1729421197138.0,0.0
-7.913064,-9.521042,-0.33021,-6.09,44.59,-139.089996,1729421197152.0,0.0
2.730211,2.445465,6.972685,56.700001,36.75,-132.509995,1729421197186.0,0.0
-0.727418,4.082155,13.064812,216.020004,-5.04,-69.720001,1729421197249.0,0.0
-1.648655,-1.540978,6.522834,84.840004,19.32,20.370001,1729421197256.0,0.0
-0.61017,-11.272588,2.005185,-125.580002,-30.030001,67.830002,1729421197257.0,0.0
-2.242075,-15.802199,-0.234497,-223.580002,-62.580002,78.470001,1729421197271.0,0.0
-4.127619,-12.471392,1.009771,79.239998,-47.110001,98.699997,1729421197293.0,0.0
-6.575477,-7.360322,3.505485,178.779999,-39.970001,103.529999,1729421197312.0,0.0
-11.073983,-6.190232,3.306881,101.360001,-10.22,95.059998,1729421197332.0,0.0
-13.237095,-9.882358,0.4666,-45.009998,-1.26,56.77,1729421197353.0,0.0
-12.007183,-14.42872,-3.254239,-123.830002,-0.98,-6.37,1729421197372.0,0.0
-11.22473,-15.562919,-3.007778,-84.629997,24.219999,-58.450001,1729421197393.0,0.0
-9.585647,-12.849458,-1.234696,-18.9,39.41,-112.910004,1729421197419.0,0.0
-7.13779,-7.692925,-1.301696,-18.620001,56.07,-134.889999,1729421197432.0,0.0
-3.18724,-3.254239,1.215554,-10.78,61.529999,-126.419998,1729421197454.0,0.0
4.795217,-3.792624,9.870394,130.339996,69.580002,-107.449997,1729421197483.0,0.0
-0.083749,5.62074,14.445471,170.800003,31.639999,-11.83,1729421197493.0,0.0
-0.42353,1.895115,7.125826,-67.550003,-22.68,40.32,1729421197519.0,0.0
0.581456,-10.528419,1.380659,-223.720001,-56.349998,53.41,1729421197695.0,0.0
-2.385644,-17.513069,-0.526421,-139.930008,-23.870001,69.230003,1729421197695.0,0.0
-6.412765,-13.416556,0.258425,53.200001,-8.26,71.120003,1729421197695.0,0.0
-6.257231,-7.793423,1.124627,163.940002,-32.830002,60.760002,1729421197696.0,0.0
-7.197611,-6.216553,2.371287,142.589996,-25.690001,60.549999,1729421197696.0,0.0
-9.355937,-6.398407,2.809174,51.66,-10.71,49.349998,1729421197696.0,0.0
-10.459028,-9.927821,0.942772,-45.360001,-7.28,21.84,1729421197696.0,0.0
-11.176874,-14.356936,-0.727418,-87.779999,9.45,-18.9,1729421197697.0,0.0
-11.210374,-15.237494,-0.155533,-52.639999,34.860001,-65.730003,1729421197698.0,0.0
-9.059227,-10.49492,1.038485,8.96,39.619999,-107.800003,1729421197713.0,0.0
-6.235696,-4.900501,2.210968,12.53,43.82,-117.459999,1729421197733.0,0.0
1.588834,-0.679562,7.848458,42.560001,48.16,-101.849998,1729421197755.0,0.0
4.378866,-0.90688,12.966705,123.480003,6.44,-60.970001,1729421197773.0,0.0
-2.773281,-0.31346,7.982457,-55.510002,-11.76,22.120001,1729421197794.0,0.0
0.842274,-7.642675,2.696711,-161.419998,-51.170002,30.73,1729421197813.0,0.0
0.526421,-12.201002,0.964308,-124.739998,-28.91,50.119999,1729421197834.0,0.0
-3.306881,-11.526227,1.411765,-25.200001,-8.96,68.459999,1729421197854.0,0.0
-4.35733,-9.372685,1.256232,60.619999,-24.01,72.940002,1729421197873.0,0.0
-4.788038,-7.429714,0.918844,112.910004,-36.68,76.160004,1729421197893.0,0.0
-7.293324,-7.609176,2.675175,109.830002,-31.99,87.150002,1729421197914.0,0.0
-11.789437,-8.932407,2.63689,39.48,-11.83,72.730003,1729421197934.0,0.0
-13.289737,-12.576675,-0.129212,-54.389999,-4.69,27.93,1729421197956.0,0.0
-10.822738,-14.727824,-2.141576,-90.019997,10.15,-40.110001,1729421197974.0,0.0
-9.035298,-14.986248,-0.277567,-42.490002,34.23,-88.620003,1729421197995.0,0.0
-8.276773,-10.837094,1.921437,2.66,45.290001,-121.590004,1729421198015.0,0.0
-6.326623,-5.98445,4.539185,20.790001,28.98,-123.129997,1729421198034.0,0.0
0.957129,0.502493,7.556533,51.450001,-4.76,-115.639999,1729421198056.0,0.0
2.459821,2.622534,11.483156,113.889999,-30.309999,-77.489998,1729421198074.0,0.0
0.648455,1.919044,8.472985,-43.330002,-25.83,14.84,1729421198094.0,0.0
1.572084,-5.383851,4.04387,-161.490005,-39.900002,51.170002,1729421198114.0,0.0
-0.990629,-13.246667,1.141376,-183.050003,-29.960001,70.279999,1729421198138.0,0.0
-4.656433,-14.364115,0.33021,-79.730003,-19.25,71.120003,1729421198155.0,0.0
-4.622933,-9.743573,0.51685,79.590004,-43.68,70.559998,1729421198174.0,0.0
-4.969893,-7.128219,2.766103,145.740005,-46.34,78.75,1729421198195.0,0.0
-9.406186,-7.508677,2.189433,75.529999,-20.65,76.510002,1729421198214.0,0.0
-13.804193,-12.430713,-1.105484,-44.450001,-0.91,57.119999,1729421198234.0,0.0
-11.904292,-16.175482,-4.316652,-99.330002,16.59,-21.700001,1729421198255.0,0.0
-8.209774,-15.620347,-2.340181,-30.870001,40.599998,-78.400002,1729421198274.0,0.0
-7.984849,-11.186446,1.29691,40.740002,71.190002,-113.540001,1729421198294.0,0.0
-6.776474,-6.67119,5.206782,23.030001,69.019997,-119.209999,1729421198315.0,0.0
0.105284,1.215554,7.202396,11.69,37.450001,-114.660004,1729421198334.0,0.0
6.111269,0.031107,11.172089,116.059998,8.61,-73.849998,1729421198356.0,0.0
-0.074178,3.605984,13.203594,68.25,17.710001,-9.59,1729421198375.0,0.0
-1.284946,-0.861416,7.257431,-88.480003,-13.58,44.450001,1729421198394.0,0.0
-0.399601,-13.41895,0.825524,-197.75,-37.380001,57.540001,1729421198414.0,0.0
-3.952943,-15.031711,-0.332602,-109.340004,-19.460001,67.199997,1729421198435.0,0.0
-4.864608,-11.006985,-0.234497,28.559999,-33.040001,62.650002,1729421198456.0,0.0
-4.225725,-6.735795,0.382852,121.029999,-47.18,62.16,1729421198474.0,0.0
-6.106483,-5.860023,2.151148,135.800003,-36.259998,76.510002,1729421198494.0,0.0
-9.183653,-7.429714,2.143969,58.380001,-24.57,72.099998,1729421198514.0,0.0
-11.925828,-11.877973,-0.617348,-41.439999,-15.4,49.0,1729421198535.0,0.0
-11.760723,-15.335601,-2.665605,-76.860001,6.02,-6.3,1729421198555.0,0.0
-9.250652,-15.28535,-0.660419,-28.07,31.639999,-63.0,1729421198575.0,0.0
-8.410772,-12.698709,1.155733,19.74,49.139999,-107.239998,1729421198594.0,0.0
-6.9344,-8.365308,3.929015,-5.39,52.43,-126.419998,1729421198614.0,0.0
-3.213561,-2.457429,4.232903,-33.950001,35.700001,-125.440002,1729421198635.0,0.0
4.146761,-2.926422,8.35813,76.160004,31.92,-94.360001,1729421198666.0,0.0
1.677369,1.89033,13.887943,127.470001,21.139999,-54.25,1729421198676.0,0.0
-2.74696,2.266003,12.01197,5.46,8.61,8.47,1729421198696.0,0.0
-0.311067,-4.503292,5.024928,-166.320007,-52.57,26.18,1729421198714.0,0.0
-0.897308,-14.184652,-1.832902,-218.75,-66.639999,40.529999,1729421198735.0,0.0
-4.098906,-13.976478,-2.67039,-86.940002,-44.380001,49.560001,1729421198755.0,0.0
-4.220939,-10.124033,-2.311467,35.84,-45.709999,45.849998,1729421198779.0,0.0
-4.108476,-7.666604,0.579063,118.860001,-46.48,49.0,1729421198796.0,0.0
-6.479764,-6.817152,2.400001,131.600006,-37.380001,54.459999,1729421198816.0,0.0
-9.525827,-7.513463,1.103091,42.700001,-32.830002,45.709999,1729421198835.0,0.0
-10.695917,-10.846665,-1.430908,-87.639999,-22.120001,18.76,1729421198858.0,0.0
-8.353344,-13.270595,-2.811567,-135.660004,-6.3,-18.969999,1729421198876.0,0.0
-6.439085,-14.321043,-1.172483,-65.590004,23.73,-48.16,1729421198897.0,0.0
-6.783652,-11.270195,0.691526,23.1,47.880001,-70.699997,1729421198915.0,0.0
-5.584848,-7.202396,2.361716,59.080002,46.619999,-74.129997,1729421198937.0,0.0
-3.402594,-4.76411,4.122833,42.98,38.43,-74.129997,1729421198956.0,0.0
-0.265603,-1.87358,5.630312,14.49,24.92,-58.310001,1729421198976.0,0.0
1.347159,-3.328416,6.216553,17.360001,0.35,-21.98,1729421198996.0,0.0
-2.900101,-4.115655,6.661618,-14.91,2.03,2.73,1729421199015.0,0.0
-4.831109,-7.063612,3.699304,-73.43,-18.76,15.89,1729421199037.0,0.0
-3.725625,-9.824929,1.155733,-88.059998,-31.99,12.67,1729421199059.0,0.0
-3.196811,-10.545169,-0.385244,-55.860001,-19.25,17.780001,1729421199078.0,0.0
-3.17049,-11.119448,-0.224925,15.61,6.51,14.07,1729421199095.0,0.0
-3.101098,-9.281759,2.567499,60.130001,12.32,17.99,1729421199115.0,0.0
-3.034099,-8.595018,2.979064,49.209999,-0.07,23.24,1729421199136.0,0.0
-3.498307,-8.066205,3.625126,-3.15,-7.84,24.219999,1729421199156.0,0.0
-3.713661,-7.585248,4.132405,-66.080002,-22.75,26.25,1729421199174.0,0.0
-3.388237,-7.695317,2.014757,-139.580002,-36.119999,28.559999,1729421199194.0,0.0
-3.086741,-7.41775,0.198604,-197.610001,-34.23,31.15,1729421199216.0,0.0
-3.754339,-9.741181,-1.962115,-210.139999,-24.99,37.59,1729421199234.0,0.0
-4.156333,-11.789437,-2.617748,-174.789993,-5.32,29.610001,1729421199256.0,0.0
-5.596812,-13.036098,-3.862016,-94.849998,12.67,14.91,1729421199275.0,0.0
-6.190232,-13.653446,-4.441079,-24.219999,25.129999,-6.86,1729421199294.0,0.0
-5.209175,-11.413764,-0.847059,20.440001,40.810001,-22.049999,1729421199315.0,0.0
-4.886144,-9.432507,1.971686,14.91,40.529999,-31.92,1729421199335.0,0.0
-4.225725,-7.63789,2.9336,-45.360001,38.43,-31.780001,1729421199357.0,0.0
-3.122634,-9.265009,2.239682,-47.18,25.200001,-21.07,1729421199376.0,0.0
-2.29711,-8.303094,0.323031,9.59,4.83,-23.17,1729421199397.0,0.0
-2.136791,-6.647261,2.179861,48.650002,-5.39,-17.99,1729421199414.0,0.0
-2.333002,-7.960921,1.074377,5.18,-20.719999,4.97,1729421199435.0,0.0
-2.254039,-9.188439,0.579063,-15.12,-23.59,13.3,1729421199457.0,0.0
-1.677369,-10.34178,0.421137,-27.860001,-24.290001,13.58,1729421199475.0,0.0
-0.62692,-10.430314,0.555135,-14.21,-24.780001,16.379999,1729421199495.0,0.0
-0.413958,-9.856036,1.253839,17.360001,-30.1,19.950001,1729421199515.0,0.0
-2.325824,-9.765109,2.129612,15.68,-36.189999,22.75,1729421199534.0,0.0
-7.458428,-7.216753,-1.086342,-22.610001,-40.810001,27.440001,1729421199554.0,0.0
-11.569297,-6.652047,-4.721039,-76.93,-23.030001,29.540001,1729421199574.0,0.0
-6.209375,-10.176675,-7.037291,-71.82,-44.66,26.040001,1729421199594.0,0.0
-6.242875,-12.916457,-6.135197,1.96,10.36,23.309999,1729421199614.0,0.0
-8.317451,-9.286544,-2.191825,75.739998,39.060001,-1.26,1729421199635.0,0.0
-8.595018,-7.609176,-0.09332,60.34,36.82,-20.02,1729421199655.0,0.0
-6.262017,-8.405986,-0.011964,14.91,18.620001,-34.720001,1729421199675.0,0.0
-5.379066,-8.745767,-0.973879,-2.52,14.0,-37.869999,1729421199695.0,0.0
-4.661219,-7.365108,0.734596,-5.53,24.99,-37.240002,1729421199714.0,0.0
-3.115455,-8.315059,1.459622,-2.8,30.030001,-26.6,1729421199735.0,0.0
-0.358923,-8.709875,2.488536,15.47,25.690001,-14.77,1729421199755.0,0.0
0.78006,-8.142776,2.268396,43.400002,8.61,5.39,1729421199774.0,0.0
0.088534,-8.611769,1.741975,21.84,-5.81,16.1,1729421199794.0,0.0
-0.650848,-8.188239,1.430908,-10.85,-18.34,24.290001,1729421199814.0,0.0
-0.507278,-8.097312,0.315853,-41.439999,-39.619999,36.400002,1729421199834.0,0.0
-4.146761,-6.352944,-2.622534,-83.019997,-37.799999,42.84,1729421199854.0,0.0
-15.086747,-9.320045,-1.308874,-104.720001,0.84,50.119999,1729421199874.0,0.0
-8.537591,-11.562119,-6.101698,-47.670002,-53.549999,21.91,1729421199894.0,0.0
-4.151547,-13.526627,-6.405586,26.67,-26.67,21.700001,1729421199913.0,0.0
-7.834101,-11.306087,-3.912265,76.160004,32.759998,-6.51,1729421199934.0,0.0
-10.475778,-9.513863,-1.275374,55.369999,49.349998,-36.049999,1729421199955.0,0.0
-6.970293,-7.752745,-1.270589,-0.14,21.84,-59.5,1729421199973.0,0.0
-4.115655,-8.317451,-1.646262,-24.43,15.05,-63.209999,1729421199993.0,0.0
-2.880959,-6.850651,0.035892,-12.74,28.35,-56.77,1729421200013.0,0.0
-1.256232,-7.965706,1.684547,-8.82,29.469999,-38.709999,1729421200033.0,0.0
-0.179462,-8.190632,2.510071,-3.43,31.360001,-25.129999,1729421200054.0,0.0
0.701097,-8.568698,3.005385,6.65,14.21,-9.66,1729421200073.0,0.0
-1.205983,-8.556733,2.550749,-2.52,-5.88,-2.59,1729421200092.0,0.0
-0.004786,-7.49432,1.811367,-10.99,-42.560001,11.62,1729421200113.0,0.0
-0.380459,-6.556334,0.476172,-32.830002,-52.220001,27.65,1729421200133.0,0.0
-4.144369,-5.675776,-2.261217,-35.91,-47.810001,45.990002,1729421200153.0,0.0
-14.723038,-8.338986,-2.612962,-55.510002,-24.219999,52.779999,1729421200174.0,0.0
-8.374879,-11.583653,-8.805587,-50.610001,-61.880001,23.73,1729421200193.0,0.0
-4.902894,-15.567703,-8.863015,-14.7,-17.639999,19.110001,1729421200213.0,0.0
-7.829315,-14.081761,-6.427122,71.68,39.48,-15.82,1729421200234.0,0.0
-8.324631,-8.645268,-2.18704,106.190002,50.119999,-52.290001,1729421200253.0,0.0
-6.290731,-6.54437,-1.20359,65.029999,38.290001,-68.669998,1729421200273.0,0.0
-4.09412,-6.632904,0.571885,3.36,43.470001,-65.309998,1729421200294.0,0.0
-2.39043,-6.546762,2.517249,-2.31,46.970001,-45.709999,1729421200313.0,0.0
-1.402194,-7.539784,6.092126,2.87,40.950001,-36.82,1729421200333.0,0.0
-0.519243,-6.89133,6.553941,1.05,16.379999,-22.469999,1729421200353.0,0.0
-0.045464,-6.79083,4.359723,-11.55,-14.77,0.91,1729421200373.0,0.0
-1.631905,-7.477571,3.393023,-37.450001,-30.17,17.639999,1729421200393.0,0.0
-0.437887,-7.573284,1.105484,-42.98,-53.48,34.650002,1729421200414.0,0.0
-2.849852,-6.996613,-2.172683,-28.77,-65.309998,57.75,1729421200433.0,0.0
-12.693924,-9.4349,-3.692125,-54.740002,-34.720001,65.590004,1729421200453.0,0.0
-6.546762,-9.970891,-5.87438,-39.900002,-79.940002,40.25,1729421200473.0,0.0
-7.348359,-12.808779,-7.180861,-8.26,-34.23,40.459999,1729421200492.0,0.0
-8.740981,-12.521641,-8.106883,34.93,3.57,7.84,1729421200513.0,0.0
-6.52762,-10.557133,-4.395615,35.91,30.309999,-19.18,1729421200535.0,0.0
-5.515456,-10.102496,-2.931208,41.860001,39.619999,-38.360001,1729421200555.0,0.0
-6.125626,-9.98525,-4.788038,37.59,41.299999,-54.950001,1729421200574.0,0.0
-4.689932,-9.566505,-4.855037,2.31,60.34,-67.690002,1729421200595.0,0.0
-2.388037,-8.60459,-1.363909,-7.07,85.120003,-69.230003,1729421200615.0,0.0
-1.349552,-6.116055,6.364908,55.02,83.650002,-38.639999,1729421200635.0,0.0
-1.464408,-5.587241,9.183653,81.269997,35.279999,-39.619999,1729421200657.0,0.0
-1.289732,-3.830909,8.23131,18.129999,-0.63,-12.18,1729421200674.0,0.0
-1.684547,-5.948557,4.37408,-47.599998,-27.02,12.18,1729421200693.0,0.0
-1.11027,-8.839087,0.832702,-87.57,-41.299999,32.830002,1729421200714.0,0.0
-0.753739,-11.004591,-0.689133,-76.580002,-50.959999,38.639999,1729421200734.0,0.0
-4.261617,-10.399208,-1.347159,-12.6,-45.5,45.709999,1729421200755.0,0.0
-9.025726,-7.525427,-3.404987,40.950001,-61.32,41.93,1729421200775.0,0.0
-6.9009,-10.392029,-5.850451,17.57,-66.849998,39.830002,1729421200793.0,0.0
-7.532606,-12.758532,-8.149954,2.17,-19.6,18.76,1729421200814.0,0.0
-6.738188,-12.808779,-5.757132,-6.86,20.09,-9.8,1729421200835.0,0.0
-5.986843,-10.882557,-3.553342,10.92,37.310001,-36.68,1729421200855.0,0.0
-6.168696,-10.528419,-5.577669,29.82,41.860001,-55.580002,1729421200875.0,0.0
-4.517649,-9.578469,-5.103891,11.69,62.580002,-67.620003,1729421200894.0,0.0
-1.847259,-7.377072,-1.012164,16.379999,87.779999,-65.940002,1729421200913.0,0.0
-0.89013,-5.486742,8.853443,81.480003,87.919998,-31.5,1729421200934.0,0.0
-1.18684,-4.295116,10.344172,91.699997,32.689999,-31.360001,1729421200956.0,0.0
-1.787439,-4.163511,9.023334,-3.01,-10.43,-3.22,1729421200974.0,0.0
-1.969293,-7.259824,3.553342,-89.879997,-44.450001,16.73,1729421200993.0,0.0
-0.679562,-9.408579,0.059821,-112.910004,-61.950001,30.52,1729421201014.0,0.0
-1.196411,-10.851451,-1.67019,-79.870003,-63.209999,33.18,1729421201034.0,0.0
-5.915058,-10.643275,-1.562513,-6.58,-56.139999,40.32,1729421201055.0,0.0
-9.169296,-8.01117,-1.691726,37.310001,-54.32,40.599998,1729421201074.0,0.0
-7.755138,-10.650455,-7.228717,50.470001,-80.220001,38.220001,1729421201093.0,0.0
-7.432107,-12.27518,-8.630912,-5.81,-9.03,7.91,1729421201114.0,0.0
-6.039484,-12.071791,-5.369494,10.92,35.279999,-14.77,1729421201134.0,0.0
-5.699703,-10.054641,-2.859423,45.990002,45.709999,-34.09,1729421201155.0,0.0
-6.209375,-10.602598,-5.355137,23.59,53.549999,-50.400002,1729421201173.0,0.0
-4.338188,-10.573883,-4.321437,-13.09,76.860001,-60.830002,1729421201194.0,0.0
0.12682,-6.910471,6.582655,14.91,96.18,-62.02,1729421201214.0,0.0
-1.801795,-5.02732,11.243874,106.889999,73.5,-21.35,1729421201234.0,0.0
-0.904487,-1.76351,11.803794,53.34,0.35,-24.15,1729421201254.0,0.0
-2.227718,-5.4006,5.735595,-52.709999,-26.25,16.030001,1729421201273.0,0.0
-2.352145,-9.169296,0.476172,-109.690002,-34.860001,31.219999,1729421201293.0,0.0
-1.17009,-11.315658,-0.89013,-84.349998,-43.119999,38.009998,1729421201315.0,0.0
-1.363909,-10.526026,-1.634298,-27.370001,-49.490002,41.860001,1729421201334.0,0.0
-5.072784,-8.630912,-1.387837,16.870001,-56.700001,47.529999,1729421201355.0,0.0
-8.173882,-7.398607,-1.947758,5.67,-63.490002,45.290001,1729421201374.0,0.0
-8.391629,-9.229117,-5.596812,-14.7,-73.779999,38.009998,1729421201393.0,0.0
-8.645268,-12.399607,-8.597411,-28.42,-32.970001,18.76,1729421201413.0,0.0
-6.424729,-12.294323,-5.084748,-5.6,18.34,-8.19,1729421201434.0,0.0
-6.317052,-10.073784,-4.366901,54.32,49.209999,-44.450001,1729421201454.0,0.0
-5.596812,-9.348758,-6.644868,26.110001,62.09,-61.18,1729421201473.0,0.0
-3.708875,-9.607183,-4.34058,-13.09,88.340004,-59.709999,1729421201494.0,0.0
0.102891,-5.685347,10.4016,31.08,95.620003,-48.93,1729421201513.0,0.0
-0.490529,-4.989035,11.480762,111.790001,38.639999,-22.190001,1729421201533.0,0.0
-1.935793,-3.220739,11.607583,16.450001,2.52,-15.75,1729421201555.0,0.0
-3.199204,-6.699903,5.608776,-70.840004,-30.1,12.39,1729421201573.0,0.0
-1.919044,-9.903893,0.875773,-97.160004,-46.34,28.559999,1729421201593.0,0.0
-1.045663,-11.198411,-1.234696,-54.950001,-54.950001,33.25,1729421201613.0,0.0
-2.809174,-9.274581,-2.498107,-14.28,-56.700001,38.220001,1729421201634.0,0.0
-5.781059,-7.829315,-2.679961,9.24,-58.52,45.009998,1729421201654.0,0.0
-7.276574,-8.726624,-4.558327,26.040001,-63.84,47.110001,1729421201673.0,0.0
-8.370094,-11.107484,-7.264609,21.139999,-43.049999,35.139999,1729421201693.0,0.0
-8.042276,-12.875778,-7.767102,0.7,1.89,8.54,1729421201713.0,0.0
-6.326623,-12.260822,-5.211568,25.620001,34.650002,-18.549999,1729421201734.0,0.0
-6.494121,-10.329816,-4.536791,54.880001,48.299999,-41.09,1729421201755.0,0.0
-5.096712,-9.671788,-3.816552,18.83,67.410004,-59.150002,1729421201773.0,0.0
-0.26321,-6.388836,7.793423,5.53,88.900002,-60.130001,1729421201793.0,0.0
-1.964507,-5.345565,10.346564,102.129997,54.389999,-18.969999,1729421201870.0,0.0
-0.672383,-2.56032,10.810772,38.920002,0.42,-24.219999,1729421201870.0,0.0
-2.557927,-5.443672,6.848258,-42.0,-16.450001,16.59,1729421201870.0,0.0
-2.847459,-9.107083,2.316252,-81.269997,-27.299999,35.700001,1729421201876.0,0.0
-2.938386,-10.794022,2.316252,-55.650002,-36.049999,41.860001,1729421201893.0,0.0
-2.538785,-11.509477,-1.162912,-2.8,-48.369999,45.290001,1729421201913.0,0.0
-2.861816,-10.097712,-2.053042,22.68,-59.150002,42.630001,1729421201933.0,0.0
-5.321638,-7.889136,-1.244268,37.029999,-63.349998,46.619999,1729421201954.0,0.0
-8.664411,-8.293523,-3.854837,13.65,-64.330002,42.700001,1729421201974.0,0.0
-9.312866,-10.475778,-7.001399,-30.309999,-38.57,27.02,1729421201993.0,0.0
-8.927622,-13.584054,-7.67139,-28.98,7.42,5.18,1729421202013.0,0.0
-7.676175,-12.13161,-4.429115,39.060001,31.780001,-24.360001,1729421202034.0,0.0
-7.582855,-9.530612,-3.885944,69.790001,41.650002,-46.619999,1729421202054.0,0.0
-5.785845,-10.083356,-5.666204,22.469999,58.310001,-67.830002,1729421202075.0,0.0
-3.601198,-11.662617,-4.220939,-13.16,92.470001,-71.120003,1729421202093.0,0.0
-2.435893,-4.945964,12.177074,128.729996,108.709999,-27.09,1729421202113.0,0.0
0.533599,-0.464208,12.581462,97.860001,-1.12,-40.950001,1729421202133.0,0.0
-2.012364,-2.847459,9.504292,-22.960001,-20.440001,9.24,1729421202161.0,0.0
-2.019542,-8.097312,3.081956,-101.779999,-43.259998,31.85,1729421202173.0,0.0
-2.845066,-11.38505,0.148355,-122.779999,-46.200001,39.549999,1729421202194.0,0.0
-3.486342,-11.894722,-0.81356,-99.400002,-47.459999,37.939999,1729421202215.0,0.0
-3.029313,-10.389636,-2.567499,-44.66,-63.98,40.25,1729421202233.0,0.0
-5.273781,-7.587641,-2.909672,13.16,-66.010002,41.369999,1729421202254.0,0.0
-7.752745,-6.367301,-2.557927,9.38,-66.57,38.5,1729421202273.0,0.0
-8.99462,-8.212167,-5.587241,-37.939999,-50.049999,30.870001,1729421202293.0,0.0
-8.997013,-13.524234,-9.133404,-54.040001,-8.54,11.55,1729421202314.0,0.0
-7.783852,-14.366508,-7.470392,41.369999,27.09,-12.04,1729421202334.0,0.0
-7.008578,-9.10469,-3.912265,113.959999,53.200001,-38.920002,1729421202356.0,0.0
-6.240481,-8.398808,-4.957928,80.43,68.18,-52.080002,1729421202375.0,0.0
-4.342973,-9.377472,-3.507878,-14.7,94.150002,-60.689999,1729421202395.0,0.0
-2.864209,-3.957729,13.294522,55.369999,98.489998,-28.210001,1729421202414.0,0.0
0.131605,-1.268196,13.026526,63.420002,-9.73,-31.360001,1729421202435.0,0.0
-2.62732,-3.098706,9.396614,-114.800003,-24.290001,1.4,1729421202455.0,0.0
-2.825923,-9.68136,2.148755,-204.889999,-34.02,25.059999,1729421202474.0,0.0
-2.22054,-13.270595,-0.921237,-149.029999,-33.880001,35.560001,1729421202494.0,0.0
-2.545963,-14.476578,-1.299303,-40.389999,-35.420002,32.200001,1729421202514.0,0.0
-2.76371,-11.349157,-2.277967,45.360001,-45.290001,24.780001,1729421202536.0,0.0
-3.376273,-7.144968,-1.744368,81.550003,-56.91,20.58,1729421202557.0,0.0
-7.025328,-5.486742,-0.519243,66.43,-56.420002,28.77,1729421202575.0,0.0
-8.35813,-7.391429,-3.488736,30.030001,-65.029999,26.460001,1729421202597.0,0.0
-7.762317,-9.288938,-5.276174,-41.580002,-48.16,18.27,1729421202617.0,0.0
-7.745567,-11.650653,-7.786245,-57.610001,-9.73,6.02,1729421202637.0,0.0
-6.295516,-12.758532,-7.350751,-9.52,27.16,-16.73,1729421202656.0,0.0
-6.38405,-10.411172,-4.295116,58.240002,67.620003,-31.85,1729421202676.0,0.0
-6.23091,-9.54497,-5.173282,86.099998,87.849998,-44.799999,1729421202697.0,0.0
-4.596612,-8.324631,-2.754139,33.18,120.610001,-54.459999,1729421202717.0,0.0
-2.70389,-3.287738,11.416157,22.960001,117.459999,-36.68,1729421202736.0,0.0
-0.4666,-5.142176,9.836893,38.990002,27.790001,-23.030001,1729421202758.0,0.0
-1.9669,-4.862216,9.516255,-11.2,15.26,-7.35,1729421202778.0,0.0
-2.940779,-9.042477,4.768896,-41.720001,-5.18,17.710001,1729421202798.0,0.0
-2.409572,-11.480762,0.591027,-27.440001,-20.65,31.780001,1729421202816.0,0.0
-2.962314,-12.425928,-1.004985,5.25,-29.610001,28.559999,1729421202836.0,0.0
-3.177669,-10.313066,-0.806381,20.440001,-40.110001,19.74,1729421202858.0,0.0
-3.462414,-7.398607,-0.765703,8.33,-60.34,15.82,1729421202879.0,0.0
-6.029913,-6.297909,-0.643669,-20.02,-75.949997,24.85,1729421202895.0,0.0
-8.439486,-7.372287,-2.471786,-79.239998,-81.690002,20.16,1729421202915.0,0.0
-7.846066,-9.578469,-5.864808,-105.699997,-70.559998,8.61,1729421202937.0,0.0
-6.960721,-12.124433,-7.721639,-60.200001,-34.439999,-4.27,1729421202958.0,0.0
-6.329016,-11.734402,-7.082755,18.200001,7.84,-21.139999,1729421202975.0,0.0
-6.386444,-9.176475,-4.21376,60.48,41.580002,-29.82,1729421202995.0,0.0
-6.776474,-9.868,-5.551349,61.110001,62.510002,-36.889999,1729421203015.0,0.0
-4.295116,-9.958927,-5.577669,44.59,85.610001,-54.040001,1729421203035.0,0.0
-0.40678,-4.639683,9.901501,91.769997,118.230003,-49.98,1729421203058.0,0.0
-2.426322,-4.76411,14.950355,140.979996,65.940002,-17.15,1729421203074.0,0.0
-2.366502,-2.62732,12.698709,45.009998,-10.64,-18.76,1729421203095.0,0.0
-3.649055,-6.52762,5.793024,-80.849998,-35.77,10.57,1729421203116.0,0.0
-2.565106,-10.317852,0.16989,-129.289993,-41.299999,19.879999,1729421203138.0,0.0
-2.522035,-12.026326,-1.153341,-86.449997,-37.029999,22.75,1729421203158.0,0.0
-2.892922,-11.399406,-1.698904,-32.759998,-41.16,19.879999,1729421203176.0,0.0
-2.931208,-9.016156,-1.974079,-0.35,-56.77,17.92,1729421203194.0,0.0
-4.4674,-7.391429,-1.646262,4.83,-63.560001,21.84,1729421203216.0,0.0
-6.865008,-7.664211,-2.416751,-2.1,-67.480003,19.6,1729421203236.0,0.0
-7.415358,-8.587841,-4.65404,-16.59,-59.290001,14.49,1729421203256.0,0.0
-7.271788,-9.521042,-5.582455,-45.57,-29.4,5.88,1729421203276.0,0.0
-6.594619,-11.64826,-6.91765,-24.5,1.19,-3.22,1729421203296.0,0.0
-5.577669,-10.636096,-4.527221,24.43,28.559999,-16.379999,1729421203315.0,0.0
-6.348158,-9.530612,-4.065405,51.66,49.77,-24.290001,1729421203335.0,0.0
-6.032306,-10.442278,-5.32403,31.780001,71.68,-39.27,1729421203357.0,0.0
-3.302095,-9.45165,-2.572284,17.01,95.269997,-44.240002,1729421203375.0,0.0
-2.163112,-5.347959,12.679568,107.800003,95.480003,-24.290001,1729421203394.0,0.0
-1.213161,-4.252046,12.224932,119.07,6.09,-25.76,1729421203415.0,0.0
-2.177469,-3.787838,9.370294,2.59,-19.809999,-2.87,1729421203436.0,0.0
-2.251646,-7.585248,3.072384,-105.139999,-35.209999,16.24,1729421203456.0,0.0
-2.352145,-11.25823,-0.614955,-134.889999,-28.07,26.32,1729421203478.0,0.0
-3.471986,-13.024135,-1.351945,-81.410004,-24.360001,21.84,1729421203495.0,0.0
-3.615555,-12.313466,-1.284946,-11.13,-37.029999,18.83,1729421203514.0,0.0
-2.725425,-9.267403,-1.150948,25.48,-55.510002,9.87,1729421203535.0,0.0
-2.837888,-6.448657,-1.098306,18.83,-62.650002,10.78,1729421203558.0,0.0
-4.522435,-7.188039,-0.591027,4.76,-67.690002,19.6,1729421203574.0,0.0
-7.037291,-8.090133,-2.086541,-26.040001,-64.400002,19.460001,1729421203595.0,0.0
-7.757531,-9.394222,-4.316652,-41.09,-57.889999,13.16,1729421203616.0,0.0
-8.118847,-10.889735,-5.575277,-37.240002,-30.1,5.53,1729421203636.0,0.0
-7.178468,-10.844273,-6.819544,5.04,-2.94,-10.22,1729421203657.0,0.0
-5.290531,-9.571291,-5.053641,40.670002,24.57,-21.559999,1729421203675.0,0.0
-5.982057,-9.135797,-3.639483,54.32,51.73,-25.41,1729421203695.0,0.0
-6.329016,-11.358729,-5.111069,27.09,86.099998,-47.670002,1729421203716.0,0.0
-3.828516,-10.009177,-3.718446,27.09,108.57,-61.389999,1729421203735.0,0.0
-1.818545,-7.56132,7.135397,67.760002,122.220001,-54.110001,1729421203756.0,0.0
-3.132205,-5.292924,13.246667,138.949997,86.730003,-25.969999,1729421203775.0,0.0
-0.89013,-2.179861,10.210175,82.809998,-9.66,-33.950001,1729421203795.0,0.0
-2.794817,-4.508078,5.424529,-51.59,-28.280001,-0.07,1729421203815.0,0.0
-1.962115,-9.47797,0.323031,-129.5,-30.940001,12.11,1729421203836.0,0.0
-2.194218,-12.8686,-2.124826,-82.949997,-6.23,21.84,1729421203857.0,0.0
-3.634698,-12.177074,-1.947758,23.1,16.24,21.07,1729421203875.0,0.0
-4.058227,-10.892128,-1.423729,99.470001,20.51,20.93,1729421203897.0,0.0
-4.031906,-10.179067,-1.464408,125.580002,18.41,15.61,1729421203914.0,0.0
-4.024727,-9.410972,-0.619741,133.070007,17.01,7.91,1729421203937.0,0.0
-4.228118,-9.442079,-0.311067,137.690002,14.56,0.56,1729421203956.0,0.0
-3.981657,-9.796216,-0.739382,150.639999,21.91,-3.08,1729421203974.0,0.0
-4.07737,-8.334201,2.11047,191.940002,32.27,-5.74,1729421203995.0,0.0
-4.352544,-6.788438,3.24706,187.740005,28.139999,-8.61,1729421204016.0,0.0
-4.371687,-7.781459,2.95035,147.210007,21.07,-3.64,1729421204035.0,0.0
-4.185047,-7.762317,2.624927,132.930008,19.040001,0.14,1729421204056.0,0.0
-4.010371,-7.211967,3.110669,116.830002,27.51,-0.42,1729421204074.0,0.0
-4.630112,-6.489335,5.067998,104.090004,36.68,-2.1,1729421204094.0,0.0
-5.469993,-6.9679,5.580062,98.139999,33.389999,-0.28,1729421204115.0,0.0
-4.701896,-5.649454,6.003592,126.699997,21.84,10.08,1729421204136.0,0.0
-3.292524,-4.924429,5.187639,145.880005,19.809999,11.06,1729421204156.0,0.0
-3.067599,-4.974678,5.443672,122.080002,33.040001,11.69,1729421204174.0,0.0
-4.254438,-7.049256,5.960521,99.470001,44.52,11.13,1729421204202.0,0.0
-5.008178,-7.71446,7.587641,119.279999,52.639999,1.89,1729421204214.0,0.0
-4.761717,-7.779066,8.23131,148.470001,49.349998,-12.88,1729421204237.0,0.0
-3.751946,-7.62114,8.25763,155.889999,49.77,-29.049999,1729421204256.0,0.0
-4.15394,-6.893722,8.733803,160.789993,53.060001,-47.740002,1729421204275.0,0.0
-4.252046,-5.98445,9.119047,165.619995,50.049999,-64.260002,1729421204295.0,0.0
-3.436093,-5.627919,7.970492,173.669998,41.02,-77.279999,1729421204317.0,0.0
-2.885744,-2.634498,5.326423,186.059998,40.110001,-73.639999,1729421204336.0,0.0
-3.704089,-2.529213,5.058427,172.690002,46.900002,-69.510002,1729421204357.0,0.0
-5.915058,-2.175076,6.829116,146.020004,64.889999,-69.160004,1729421204375.0,0.0
-6.991827,-2.218147,8.030313,150.080002,56.630001,-59.779999,1729421204395.0,0.0
-5.173282,-3.95055,7.848458,117.040001,41.369999,-50.610001,1729421204415.0,0.0
-5.587241,-4.591826,8.070991,93.099998,35.349998,-51.939999,1729421204436.0,0.0
-6.099305,-2.995814,8.817552,96.459999,25.620001,-52.639999,1729421204458.0,0.0
-5.443672,-1.433301,8.575876,76.370003,5.74,-40.529999,1729421204476.0,0.0
-4.130012,-1.629512,7.520642,23.870001,-15.89,-17.43,1729421204497.0,0.0
-3.529413,-4.429115,6.271588,-26.950001,-32.34,10.57,1729421204516.0,0.0
-3.869194,-4.701896,5.716454,-68.739998,-40.389999,25.620001,1729421204536.0,0.0
-4.386044,-2.053042,6.221339,-141.680008,-52.220001,36.82,1729421204559.0,0.0
-4.366901,-2.615355,6.908078,-242.830002,-69.790001,50.610001,1729421204577.0,0.0
-3.785445,-5.312066,6.412765,-358.540009,-84.559998,54.670002,1729421204599.0,0.0
-4.785645,-6.056234,5.010571,-438.970001,-93.169998,42.420002,1729421204617.0,0.0
-4.728218,-11.389835,3.464807,-369.459991,-98.980003,24.710001,1729421204639.0,0.0
-4.134798,-12.346965,2.945565,-245.979996,-80.849998,-0.42,1729421204668.0,0.0
-4.807181,-7.281359,5.048856,-97.300003,-38.779999,-11.97,1729421204677.0,0.0
-4.613362,-3.859623,6.020342,-21.91,-5.11,-8.68,1729421204697.0,0.0
-5.115855,-4.811966,5.326423,15.54,17.219999,-4.69,1729421204716.0,0.0
-5.565705,-8.999406,5.625526,117.25,41.509998,-9.52,1729421204739.0,0.0
-6.206983,-8.070991,4.73061,274.399994,59.220001,-22.82,1729421204760.0,0.0
-5.56092,-4.759324,6.618547,371.070007,72.169998,-39.130001,1729421204776.0,0.0
-4.113262,-6.116055,9.245867,346.429993,84.0,-50.470001,1729421204801.0,0.0
-2.699104,-8.458629,8.647661,287.209991,80.989998,-63.139999,1729421204817.0,0.0
-4.017549,-5.728417,7.709675,257.040009,76.440002,-83.790001,1729421204837.0,0.0
-3.586841,-0.272782,7.4345,188.860001,63.07,-87.150002,1729421204860.0,0.0
-2.553142,-1.258625,6.597012,90.160004,46.130001,-61.670002,1729421204876.0,0.0
-3.364309,-2.500499,5.364708,49.209999,36.189999,-36.82,1729421204897.0,0.0
-3.646662,-1.26341,6.276374,21.210001,30.17,-13.02,1729421204920.0,0.0
-4.163511,-2.914458,7.88435,-43.189999,18.059999,10.92,1729421204936.0,0.0
-4.816752,-5.32403,8.714661,-73.43,-2.17,25.129999,1729421204958.0,0.0
-4.998606,-4.742575,7.501499,-73.989998,-35.98,31.08,1729421204978.0,0.0
-4.783253,-4.278367,5.879165,-123.199997,-47.599998,30.66,1729421204996.0,0.0
-4.058227,-4.127619,5.651847,-209.020004,-50.119999,29.469999,1729421205016.0,0.0
-4.345366,-5.185246,6.113662,-294.420013,-43.82,23.940001,1729421205037.0,0.0
-4.632504,-7.180861,6.022735,-337.049988,-45.57,24.08,1729421205059.0,0.0
-4.134798,-8.518449,6.159126,-352.799988,-48.93,27.860001,1729421205076.0,0.0
-3.371487,-8.315059,5.190032,-365.75,-59.150002,23.52,1729421205097.0,0.0
-3.448057,-7.996813,3.352344,-364.980011,-59.220001,6.79,1729421205118.0,0.0
-4.524827,-9.760324,2.438286,-311.779999,-45.009998,2.87,1729421205139.0,0.0
-4.125226,-9.853643,2.081756,-203.910004,-34.299999,3.29,1729421205158.0,0.0
-3.76391,-8.896514,1.852045,-80.919998,-25.34,3.99,1729421205176.0,0.0
-4.019942,-7.317252,1.875973,-34.02,-9.59,2.59,1729421205196.0,0.0
-4.383651,-6.84108,1.4668,-43.959999,1.75,8.33,1729421205217.0,0.0
-4.453043,-9.284152,1.696511,-33.810001,8.75,15.96,1729421205238.0,0.0
-4.754539,-13.667803,2.48375,79.730003,18.129999,12.88,1729421205259.0,0.0
-5.185246,-11.973685,2.009971,237.860001,22.610001,-6.72,1729421205277.0,0.0
-4.532006,-4.278367,4.225725,364.070007,35.07,-21.139999,1729421205297.0,0.0
-5.302495,-5.472386,7.298109,405.51001,62.510002,-15.61,1729421205317.0,0.0
-5.347959,-8.410772,7.800602,373.660004,63.349998,-33.32,1729421205337.0,0.0
-3.716053,-9.549755,6.69751,364.070007,60.48,-58.66,1729421205357.0,0.0
-3.699304,-4.914857,6.762117,363.649994,69.720001,-66.290001,1729421205376.0,0.0
-4.04387,-0.571885,7.69771,282.660004,64.82,-69.720001,1729421205397.0,0.0
-3.955336,-3.704089,7.348359,157.5,57.189999,-65.449997,1729421205417.0,0.0
-3.07717,-6.477371,5.221139,120.75,53.27,-61.459999,1729421205438.0,0.0
-4.309474,-3.254239,5.721239,145.880005,60.619999,-69.230003,1729421205460.0,0.0
-4.682754,0.375673,7.920243,101.150002,54.740002,-58.240002,1729421205476.0,0.0
-5.111069,-2.706282,8.10449,41.02,36.049999,-30.66,1729421205498.0,0.0
-3.759124,-2.467,7.159326,33.18,11.55,-10.22,1729421205518.0,0.0
-4.237689,-0.440279,7.817351,-2.24,-5.74,13.58,1729421205536.0,0.0
-4.319045,-1.349552,7.628319,-76.720001,-29.120001,41.580002,1729421205557.0,0.0
-4.285545,-2.995814,6.635297,-125.650002,-52.639999,66.360001,1729421205579.0,0.0
-4.211368,-3.57727,6.317052,-182.070007,-70.840004,80.43,1729421205597.0,0.0
-3.622734,-4.792823,6.707082,-270.619995,-86.870003,88.480003,1729421205616.0,0.0
-3.409772,-5.517848,6.886543,-380.309998,-97.370003,84.559998,1729421205638.0,0.0
-4.517649,-8.025528,5.702096,-478.869995,-111.440002,71.610001,1729421205658.0,0.0
-4.235296,-9.367901,3.333202,-522.409973,-117.599998,41.299999,1729421205677.0,0.0
-3.5007,-9.793823,1.51705,-497.209991,-103.25,28.91,1729421205697.0,0.0
-5.773881,-11.846866,0.490529,-358.610016,-70.0,-8.61,1729421205717.0,0.0
-7.300502,-11.042876,1.995614,-96.809998,-27.58,-5.88,1729421205737.0,0.0
-3.615555,-7.84128,2.739782,101.709999,-4.48,9.8,1729421205758.0,0.0
-4.895715,-4.534399,4.098906,179.550003,45.639999,-9.94,1729421205776.0,0.0
-7.24786,-6.618547,5.718846,260.959991,73.5,-2.1,1729421205798.0,0.0
-6.087341,-8.920443,4.845466,379.470001,78.260002,-4.55,1729421205817.0,0.0
-5.883951,-7.362715,6.661618,493.98999,93.660004,-27.02,1729421205837.0,0.0
-4.098906,-6.975078,8.874979,493.429993,103.32,-59.709999,1729421205860.0,0.0
-2.9671,-6.960721,8.367701,442.190002,99.330002,-68.879997,1729421205877.0,0.0
-4.603791,-2.225325,8.449057,323.399994,84.769997,-86.519997,1729421205898.0,0.0
-3.993621,-2.969493,7.04447,152.600006,66.779999,-90.790001,1729421205917.0,0.0
-4.216154,-4.548756,5.95095,91.980003,61.18,-80.150002,1729421205937.0,0.0
-3.672983,-2.309074,6.271588,103.949997,57.75,-64.330002,1729421205959.0,0.0
-3.854837,-0.007178,7.515855,67.830002,44.099998,-41.369999,1729421205975.0,0.0
-3.905087,-0.875773,7.034898,-34.720001,4.55,8.89,1729421205998.0,0.0
-4.199404,-2.557927,6.065805,-80.080002,-22.960001,44.240002,1729421206017.0,0.0
-4.228118,-2.9336,5.946165,-139.440002,-46.619999,69.860001,1729421206036.0,0.0
-4.029513,-4.419543,5.565705,-245.279999,-69.160004,84.349998,1729421206057.0,0.0
-4.376472,-6.106483,5.343173,-364.279999,-86.379997,81.129997,1729421206075.0,0.0
-5.211568,-10.267602,7.063612,-444.429993,-93.379997,59.990002,1729421206095.0,0.0
-2.947958,-11.8349,5.070391,-538.159973,-105.840004,37.380001,1729421206117.0,0.0
-2.11047,-11.035697,2.514857,-560.909973,-100.870003,-14.84,1729421206136.0,0.0
-6.474977,-7.257431,3.239882,-434.0,-72.309998,-12.39,1729421206159.0,0.0
-5.297709,-7.21436,2.706282,-253.259995,-64.889999,-1.12,1729421206176.0,0.0
-3.395415,-7.128219,1.210768,-118.090004,-37.380001,-0.28,1729421206198.0,0.0
-5.474778,-9.128618,2.679961,36.470001,16.59,7.14,1729421206216.0,0.0
-6.333801,-8.901299,3.591627,173.320007,38.849998,12.81,1729421206243.0,0.0
-6.635297,-8.331808,4.766503,271.529999,56.490002,6.16,1729421206270.0,0.0
-6.664011,-8.961121,5.4676,388.570007,70.0,-7.0,1729421206276.0,0.0
-4.943572,-10.652846,7.341179,561.400024,71.120003,-43.68,1729421206299.0,0.0
-2.806781,-5.223531,9.54497,541.799988,79.940002,-64.400002,1729421206317.0,0.0
-3.15374,-3.59402,9.35833,440.230011,60.130001,-71.120003,1729421206339.0,0.0
-3.986443,0.397209,6.673582,229.389999,40.950001,-74.830002,1729421206361.0,0.0
-2.301895,-2.347359,5.04407,77.629997,30.030001,-58.799999,1729421206377.0,0.0
-3.136991,-2.919244,5.04407,44.240002,29.75,-29.960001,1729421206398.0,0.0
-4.082155,-1.921437,6.209375,14.84,22.120001,-9.24,1729421206417.0,0.0
-4.424329,-2.790031,6.415157,-38.779999,4.62,15.61,1729421206439.0,0.0
-3.787838,-4.481757,5.740381,-87.5,-16.799999,34.720001,1729421206459.0,0.0
-3.632305,-4.606184,5.816952,-163.589996,-35.139999,47.670002,1729421206478.0,0.0
-3.909872,-4.991428,6.266802,-291.130005,-49.279999,51.799999,1729421206497.0,0.0
-4.316652,-6.936793,6.814759,-419.720001,-63.630001,43.68,1729421206517.0,0.0
-3.816552,-8.152347,7.183254,-517.929993,-78.260002,44.029999,1729421206537.0,0.0
-2.545963,-8.894121,4.481757,-565.599976,-102.340004,20.51,1729421206562.0,0.0
-4.780859,-9.473185,-0.055035,-518.48999,-96.25,-12.95,1729421206577.0,0.0
-5.201996,-9.891929,2.455036,-345.23999,-72.590004,-15.82,1729421206597.0,0.0
-3.476771,-8.260024,0.598206,-128.029999,-51.029999,-13.02,1729421206619.0,0.0
-4.895715,-6.704689,0.236889,-9.73,-15.47,-1.05,1729421206637.0,0.0
-5.036892,-9.097511,1.318445,80.709999,10.57,15.26,1729421206661.0,0.0
-5.608776,-10.449455,3.031706,165.970001,41.23,9.52,1729421206678.0,0.0
-6.407979,-8.405986,3.716053,314.720001,55.16,3.71,1729421206698.0,0.0
-6.175875,-6.943972,4.086941,478.660004,48.720001,2.87,1729421206719.0,0.0
-4.4339,-7.45125,6.920043,528.5,64.959999,-15.54,1729421206740.0,0.0
-3.67059,-11.234302,9.427721,506.100006,87.709999,-39.27,1729421206759.0,0.0
-3.952943,-9.571291,8.130811,481.179993,71.75,-70.910004,1729421206778.0,0.0
-4.63729,-0.102891,8.286345,385.980011,52.57,-82.949997,1729421206798.0,0.0
-4.010371,1.294517,7.219146,164.289993,34.720001,-81.340004,1729421206869.0,0.0
-3.567699,-4.194618,6.331409,57.82,27.719999,-56.560001,1729421206870.0,0.0
-4.529613,-3.06042,5.891129,77.349998,27.370001,-49.630001,1729421206870.0,0.0
-4.295116,-1.153341,5.905487,78.610001,22.190001,-32.27,1729421206878.0,0.0
-3.256632,-2.45025,6.331409,-15.75,14.21,-1.26,1729421206906.0,0.0
-4.0008,-4.24726,7.202396,-54.32,2.66,15.82,1729421206919.0,0.0
-3.651447,-4.74736,6.388836,-77.559998,-20.16,31.85,1729421206938.0,0.0
-4.039084,-3.821337,6.431907,-119.629997,-37.73,42.0,1729421206965.0,0.0
-4.12044,-3.333202,6.809973,-199.149994,-53.27,49.700001,1729421206979.0,0.0
-4.108476,-2.964707,7.200003,-271.880005,-66.57,60.549999,1729421206998.0,0.0
-4.256832,-3.282953,7.613962,-322.0,-80.849998,73.360001,1729421207018.0,0.0
-3.914658,-6.549156,6.766902,-361.059998,-101.779999,77.209999,1729421207039.0,0.0
-2.569891,-9.571291,4.711468,-409.01001,-108.220001,59.290001,1729421207064.0,0.0
-2.749353,-10.191031,3.455236,-429.100006,-94.779999,31.780001,1729421207082.0,0.0
-5.472386,-9.84168,2.388037,-368.690002,-72.519997,9.73,1729421207097.0,0.0
-5.946165,-10.695917,3.378666,-245.910004,-62.09,-1.68,1729421207118.0,0.0
-3.460021,-9.71486,1.28016,-135.589996,-52.150002,-2.24,1729421207138.0,0.0
-4.113262,-7.381857,2.242075,-41.02,-8.19,-3.71,1729421207159.0,0.0
-5.139783,-8.135597,4.651647,54.389999,25.41,6.16,1729421207178.0,0.0
-5.436492,-8.085347,4.505685,143.990005,35.560001,7.49,1729421207198.0,0.0
-5.996413,-8.712267,4.677969,238.699997,44.73,-1.05,1729421207218.0,0.0
-5.570491,-10.499706,5.788238,385.279999,66.220001,-24.219999,1729421207238.0,0.0
-4.182654,-9.963714,7.814958,431.269989,75.110001,-51.66,1729421207259.0,0.0
-2.816352,-10.392029,7.88435,455.980011,77.0,-71.68,1729421207278.0,0.0
-3.732803,-7.343572,7.609176,430.360016,68.599998,-97.300003,1729421207298.0,0.0
-4.072584,-0.200997,7.546963,298.130005,53.48,-101.919998,1729421207318.0,0.0
-3.199204,0.346959,5.881558,141.470001,34.650002,-81.340004,1729421207339.0,0.0
-3.864408,-3.002992,4.876573,81.059998,31.92,-59.920002,1729421207363.0,0.0
-3.108276,-2.289931,5.187639,83.370003,38.360001,-44.450001,1729421208284.0,0.0
-3.737589,-1.658226,7.176075,73.989998,45.150002,-27.440001,1729421208284.0,0.0
-4.400401,-1.730011,8.224132,37.450001,34.580002,-15.75,1729421208284.0,0.0
-4.41715,-1.95015,8.315059,8.05,14.35,-2.59,1729421208285.0,0.0
-3.917051,-2.541178,7.37468,-15.12,-4.62,15.47,1729421208286.0,0.0
-3.866802,-3.56052,6.410372,-35.07,-19.74,33.599998,1729421208286.0,0.0
-3.706482,-3.838088,6.223732,-70.489998,-30.73,46.27,1729421208286.0,0.0
-4.244867,-3.78066,6.546762,-131.25,-40.18,54.18,1729421208286.0,0.0
-4.283153,-4.201797,7.427321,-202.720001,-50.400002,58.240002,1729421208287.0,0.0
-2.89053,-4.639683,7.989635,-271.110016,-64.190002,62.580002,1729421208287.0,0.0
-3.433701,-7.216753,6.994221,-343.839996,-84.769997,58.73,1729421208287.0,0.0
-3.436093,-10.109675,6.463014,-350.910004,-91.699997,37.799999,1729421208287.0,0.0
-3.225525,-11.114661,4.228118,-317.660004,-91.559998,18.129999,1729421208287.0,0.0
-4.125226,-8.487342,3.409772,-273.980011,-72.449997,-9.8,1729421208287.0,0.0
-5.024928,-5.754738,3.364309,-219.589996,-46.200001,-2.1,1729421208288.0,0.0
-4.249653,-6.460621,2.711068,-151.690002,-31.01,1.54,1729421208288.0,0.0
-4.649254,-7.649854,3.835695,-56.630001,5.11,10.29,1729421208288.0,0.0
-4.735396,-8.563912,4.273581,56.91,22.889999,9.73,1729421208288.0,0.0
-5.644669,-8.597411,5.182854,171.080002,40.18,3.5,1729421208288.0,0.0
-5.69731,-8.496914,5.864808,275.170013,50.189999,-6.86,1729421208288.0,0.0
-5.505885,-8.496914,7.716853,348.320007,57.959999,-17.85,1729421208289.0,0.0
-3.225525,-9.784252,8.516055,357.700012,62.299999,-49.490002,1729421208289.0,0.0
-1.789831,-10.765309,6.276374,402.429993,64.190002,-61.040001,1729421208289.0,0.0
-3.809374,1.299303,7.850852,397.880005,73.709999,-85.400002,1729421208289.0,0.0
-3.931407,-0.301496,7.307681,229.110001,66.150002,-84.07,1729421208289.0,0.0
-3.859623,-3.790231,6.355337,77.769997,48.509998,-54.880001,1729421208289.0,0.0
-3.622734,-2.304288,7.006185,87.849998,48.23,-46.619999,1729421208290.0,0.0
-3.723232,-1.806581,7.546963,68.25,42.420002,-30.73,1729421208290.0,0.0
-4.017549,-1.378266,7.91785,26.67,31.99,-13.86,1729421208290.0,0.0
-4.0008,-2.175076,7.79103,-19.74,16.450001,3.71,1729421208290.0,0.0
-3.9673,-2.756532,7.118648,-40.880001,-0.91,25.200001,1729421208290.0,0.0
-4.177868,-3.34038,6.283553,-61.950001,-16.1,42.700001,1729421208290.0,0.0
-4.082155,-3.737589,5.931807,-111.860001,-27.93,52.290001,1729421208291.0,0.0
-4.130012,-4.366901,6.577869,-189.279999,-34.650002,56.0,1729421208291.0,0.0
-3.893122,-5.065606,7.673782,-264.809998,-42.139999,54.950001,1729421208291.0,0.0
-3.562913,-6.022735,7.575676,-316.75,-55.93,54.740002,1729421208291.0,0.0
-3.790231,-8.451449,6.965507,-343.48999,-68.529999,43.470001,1729421208291.0,0.0
-3.488736,-8.932407,6.326623,-352.589996,-73.57,26.18,1729421208291.0,0.0
-3.141776,-8.618947,4.134798,-334.73999,-68.389999,11.9,1729421208291.0,0.0
-5.273781,-7.113862,3.04367,-238.979996,-45.639999,-1.61,1729421208292.0,0.0
-5.599205,-7.188039,2.816352,-109.690002,-32.41,6.72,1729421208292.0,0.0
-4.481757,-8.836694,3.440879,11.13,-6.23,14.21,1729421208292.0,0.0
-4.941179,-8.937192,4.079762,115.290001,20.299999,6.65,1729421208293.0,0.0
-5.644669,-7.678568,5.065606,221.410004,35.84,2.31,1729421208293.0,0.0
-5.970093,-7.465607,5.814559,330.75,49.07,1.05,1729421208293.0,0.0
-5.900701,-7.79103,6.094519,419.019989,60.34,-16.1,1729421208795.0,0.0
-4.165904,-6.297909,8.719445,442.890015,73.989998,-39.27,1729421208795.0,0.0
-3.402594,-5.532206,10.171888,388.98999,82.25,-56.77,1729421208796.0,0.0
-4.462614,-2.498107,9.65504,275.170013,67.269997,-69.370003,1729421208797.0,0.0
-4.859823,-2.847459,7.393822,168.210007,50.119999,-74.620003,1729421208798.0,0.0
-4.699504,-3.256632,6.065805,139.300003,44.939999,-66.639999,1729421208799.0,0.0
-3.323631,-0.861416,6.503692,127.75,50.68,-58.170002,1729421208800.0,0.0
-3.156133,0.428315,7.51107,69.019997,46.689999,-39.41,1729421208801.0,0.0
-4.587041,-0.356531,7.623533,15.26,29.610001,-12.6,1729421208802.0,0.0
-5.300103,-3.127419,6.568298,-40.810001,-4.27,25.34,1729421208806.0,0.0
-4.910072,-5.970093,5.807381,-80.919998,-24.01,40.110001,1729421208808.0,0.0
-4.199404,-7.008578,5.867201,-162.610001,-38.009998,33.950001,1729421208809.0,0.0
-3.912265,-5.960521,6.297909,-248.990005,-49.700001,24.99,1729421208810.0,0.0
-4.273581,-4.409972,6.324231,-316.119995,-58.450001,21.98,1729421208811.0,0.0
-4.118048,-4.512863,6.396015,-362.529999,-65.800003,24.360001,1729421208811.0,0.0
-3.311667,-4.886144,5.759524,-399.420013,-69.019997,26.950001,1729421208812.0,0.0
-3.192025,-5.24746,5.180461,-410.970001,-67.760002,28.559999,1729421208813.0,0.0
-3.785445,-8.315059,3.409772,-368.480011,-69.090004,18.34,1729421208814.0,0.0
-5.15414,-10.535598,2.495714,-288.959991,-60.689999,16.309999,1729421208814.0,0.0
-4.938786,-11.289338,2.713461,-167.580002,-41.16,6.93,1729421208816.0,0.0
-4.965107,-11.540584,3.562913,-11.27,-11.34,6.65,1729421208817.0,0.0
-4.216154,-9.750752,4.328616,125.720001,12.81,3.08,1729421208818.0,0.0
-4.323831,-7.506285,5.123034,231.490005,35.77,-0.56,1729421208822.0,0.0
-5.680561,-7.283752,5.972485,348.809998,52.290001,-1.33,1729421208823.0,0.0
-5.529813,-5.192425,8.84148,451.98999,60.27,-9.45,1729421208826.0,0.0
-3.620341,-4.883751,11.301301,448.559998,63.349998,-41.09,1729421208831.0,0.0
-3.675375,-3.192025,10.38485,351.049988,47.25,-45.920002,1729421208832.0,0.0
-4.223332,-0.20339,8.499306,219.380005,26.950001,-46.689999,1729421208834.0,0.0
-4.917251,-4.405186,6.005985,116.340004,19.809999,-40.670002,1729421208845.0,0.0
-4.532006,-3.885944,5.69731,116.760002,30.309999,-39.060001,1729421208863.0,0.0
-5.130211,-0.981057,7.353144,115.150002,33.810001,-36.119999,1729421208881.0,0.0
-5.261817,-2.091327,7.467999,47.950001,19.32,-22.26,1729421208901.0,0.0
-4.476971,-3.476771,7.262216,2.87,6.79,-7.63,1729421208921.0,0.0
-4.252046,-3.421736,6.400801,-10.92,-4.41,6.51,1729421208942.0,0.0
-4.587041,-3.342773,5.484349,-45.009998,-15.68,18.690001,1729421208963.0,0.0
-4.878965,-3.814159,5.594419,-116.270004,-25.48,25.48,1729421209007.0,0.0
-4.48415,-5.156533,5.986843,-197.75,-35.139999,26.389999,1729421209008.0,0.0
-4.223332,-5.864808,6.173482,-258.649994,-44.310001,23.52,1729421209021.0,0.0
-4.811966,-6.283553,7.647461,-286.720001,-50.610001,14.91,1729421209042.0,0.0
-4.283153,-4.744967,7.645068,-322.559998,-72.660004,10.01,1729421209063.0,0.0
-2.189433,-4.378866,5.522634,-346.290009,-82.669998,12.18,1729421209081.0,0.0
-2.304288,-5.474778,3.905087,-335.230011,-72.870003,8.4,1729421209101.0,0.0
-4.400401,-9.032906,4.503292,-271.670013,-58.59,6.58,1729421209121.0,0.0
-4.503292,-10.437491,4.039084,-186.479996,-50.68,-3.78,1729421209175.0,0.0
-4.285545,-8.29113,3.469593,-92.260002,-40.25,1.33,1729421209178.0,0.0
-3.962514,-6.71426,3.304488,-39.549999,-23.940001,5.39,1729421209303.0,0.0
-4.07737,-8.147561,3.256632,-17.710001,-1.54,11.06,1729421209304.0,0.0
-4.311867,-10.174281,3.692125,34.509998,17.710001,8.26,1729421209304.0,0.0
-4.934,-9.626326,4.015156,154.419998,31.57,4.62,1729421209304.0,0.0
-4.914857,-7.709675,4.788038,281.399994,43.540001,2.17,1729421209304.0,0.0
-4.778467,-5.52742,6.144768,346.149994,57.68,-5.67,1729421209304.0,0.0
-5.383851,-7.532606,8.937192,375.200012,69.370003,-18.200001,1729421209304.0,0.0
-2.868994,-9.327222,8.803195,385.070007,69.790001,-33.25,1729421209320.0,0.0
-3.900301,-2.005185,9.786645,374.570007,70.07,-51.310001,1729421209341.0,0.0
-4.201797,2.160719,9.707682,241.360001,50.540001,-47.040001,1729421209365.0,0.0
-4.354938,-6.053841,6.465407,94.849998,31.780001,-33.810001,1729421209412.0,0.0
-3.661019,-3.402594,7.530212,118.230003,41.369999,-36.68,1729421209423.0,0.0
-3.689733,-1.509871,7.520642,97.790001,36.330002,-30.309999,1729421209424.0,0.0
-4.527221,-1.859223,7.393822,37.310001,27.02,-21.700001,1729421209441.0,0.0
-4.098906,-2.711068,6.826723,-5.04,15.82,-8.89,1729421209462.0,0.0
-4.122833,-3.744767,6.348158,-21.98,7.0,5.04,1729421209486.0,0.0
-4.34058,-4.716253,5.56092,-43.540001,-2.45,15.47,1729421209506.0,0.0
-4.34058,-4.09412,5.082355,-102.199997,-12.11,17.08,1729421209520.0,0.0
-4.658825,-3.388237,5.998806,-194.460007,-18.9,20.299999,1729421209541.0,0.0
-4.694718,-3.136991,7.893922,-290.220001,-28.0,28.280001,1729421209561.0,0.0
-4.448257,-4.424329,7.642675,-362.179993,-52.709999,37.240002,1729421209581.0,0.0
-3.464807,-7.688138,5.446064,-408.730011,-74.129997,28.0,1729421209601.0,0.0
-3.28056,-10.040283,4.086941,-398.019989,-75.459999,7.84,1729421209620.0,0.0
-3.885944,-6.664011,3.393023,-346.709991,-67.269997,3.08,1729421209641.0,0.0
-5.123034,-6.300302,3.84048,-260.399994,-56.279999,11.69,1729421209662.0,0.0
-5.190032,-9.442079,2.100898,-201.880005,-43.259998,4.41,1729421209680.0,0.0
-4.807181,-8.855836,2.268396,-105.980003,-22.33,9.1,1729421209701.0,0.0
-4.567898,-7.905886,4.180261,-13.09,0.49,15.190001,1729421209721.0,0.0
-5.721239,-9.073583,4.735396,95.830002,23.73,14.63,1729421209740.0,0.0
-5.960521,-8.927622,4.668397,201.949997,33.529999,4.97,1729421209761.0,0.0
-5.596812,-8.049455,5.338387,337.329987,36.189999,4.97,1729421209781.0,0.0
-5.173282,-8.796017,6.068198,446.73999,45.779999,-4.48,1729421209801.0,0.0
-3.771089,-7.57089,7.850852,461.089996,61.950001,-24.99,1729421209820.0,0.0
-4.024727,-5.807381,9.305687,426.720001,69.580002,-41.23,1729421209841.0,0.0
-5.192425,-0.969093,9.836893,319.339996,53.970001,-49.630001,1729421209861.0,0.0
-5.036892,-1.134198,8.13799,165.479996,30.450001,-48.790001,1729421209882.0,0.0
-3.756732,-3.704089,6.314659,92.120003,22.120001,-35.700001,1729421209902.0,0.0
-3.876373,-3.701697,6.431907,90.510002,29.190001,-33.529999,1729421209921.0,0.0
-4.917251,-1.244268,7.054041,77.349998,27.93,-29.469999,1729421209941.0,0.0
-5.123034,-0.9667,6.795617,26.460001,15.54,-15.4,1729421209963.0,0.0
-4.579862,-2.608176,6.520442,-27.02,2.73,0.98,1729421209981.0,0.0
-4.23051,-3.290131,5.221139,-66.57,-9.24,15.82,1729421210001.0,0.0
-4.721039,-2.354537,5.149354,-138.529999,-16.450001,25.059999,1729421210022.0,0.0
-4.819145,-2.522035,7.477571,-283.01001,-15.190001,31.360001,1729421210042.0,0.0
-3.383451,-6.053841,6.534799,-486.429993,-28.139999,38.639999,1729421210065.0,0.0
-3.649055,-10.784451,3.814159,-462.559998,-42.91,29.190001,1729421210082.0,0.0
-4.548756,-11.284552,1.775474,-319.829987,-45.920002,6.02,1729421210101.0,0.0
-6.498906,-7.599605,3.448057,-175.770004,-28.49,1.61,1729421210121.0,0.0
-5.436492,-5.788238,4.23051,-118.93,-16.66,3.5,1729421210141.0,0.0
-5.314459,-6.235696,4.072584,-97.580002,-1.89,10.08,1729421210163.0,0.0
-5.733203,-7.508677,3.818945,-67.480003,11.62,11.41,1729421210181.0,0.0
-5.721239,-8.429914,3.986443,-7.77,19.74,9.52,1729421210202.0,0.0
-5.965307,-10.353743,4.565506,93.730003,25.34,6.93,1729421210221.0,0.0
-5.783452,-8.659625,4.819145,191.449997,27.58,-1.26,1729421210243.0,0.0
-5.474778,-7.018148,5.13739,290.01001,26.040001,-1.12,1729421210263.0,0.0
-5.749953,-6.455836,5.623133,371.209991,28.98,-2.45,1729421210281.0,0.0
-5.771489,-5.108676,6.955935,394.170013,33.459999,-11.9,1729421210303.0,0.0
-5.187639,-5.17089,9.597611,339.429993,37.66,-20.51,1729421210321.0,0.0
-5.206782,-6.065805,10.042676,260.75,28.91,-27.51,1729421210343.0,0.0
-4.917251,-3.902694,9.030513,189.419998,9.1,-39.619999,1729421210365.0,0.0
-5.575277,-2.376073,6.575477,123.199997,-6.16,-40.110001,1729421210381.0,0.0
-4.12044,-2.175076,5.185246,65.029999,-14.42,-26.460001,1729421210402.0,0.0
-3.684947,-1.493121,5.290531,37.029999,-8.4,-18.34,1729421210421.0,0.0
-4.756931,-1.572084,6.15434,3.5,-4.2,-8.75,1729421210443.0,0.0
-4.895715,-2.536392,6.573084,-20.719999,-7.07,2.87,1729421210462.0,0.0
-4.838287,-3.421736,6.927221,-35.630001,-9.94,12.18,1729421210481.0,0.0
-4.711468,-4.024727,6.774081,-52.57,-15.61,16.309999,1729421210501.0,0.0
-4.728218,-3.696911,6.508478,-89.25,-23.450001,17.639999,1729421210521.0,0.0
-5.015356,-3.010171,6.647261,-154.979996,-30.59,17.92,1729421210541.0,0.0
-4.826324,-3.625126,7.372287,-238.210007,-36.889999,21.77,1729421210565.0,0.0
-4.388437,-4.692325,7.635497,-326.339996,-48.02,19.32,1729421210581.0,0.0
-4.072584,-6.417551,6.695118,-384.369995,-57.330002,18.9,1729421210601.0,0.0
-3.328416,-9.559326,3.960121,-391.649994,-65.940002,3.99,1729421210621.0,0.0
-3.608376,-9.908678,2.677568,-333.130005,-54.529999,-7.7,1729421210640.0,0.0
-4.773681,-8.377272,3.361916,-231.419998,-42.139999,-8.05,1729421210662.0,0.0
-5.130211,-6.881758,3.639483,-166.039993,-39.830002,-9.59,1729421210682.0,0.0
-4.926822,-6.051448,2.971886,-130.270004,-33.459999,-3.29,1729421210704.0,0.0
-4.960321,-8.908479,3.177669,-75.110001,-16.870001,10.71,1729421210723.0,0.0
-4.768896,-10.200603,3.419343,66.360001,1.75,12.88,1729421210741.0,0.0
-4.936393,-8.166703,4.149154,145.669998,11.06,8.54,1729421210764.0,0.0
-5.04407,-6.80758,4.027121,201.25,20.370001,8.68,1729421210780.0,0.0
-5.386244,-7.858029,4.905287,270.269989,36.259998,6.72,1729421210803.0,0.0
-4.996214,-10.246067,5.505885,344.119995,49.0,-1.89,1729421210821.0,0.0
-4.517649,-9.980463,6.951149,409.220001,62.580002,-31.360001,1729421210843.0,0.0
-4.007978,-6.740582,7.788638,454.299988,66.639999,-47.389999,1729421210861.0,0.0
-4.436293,0.744168,9.925428,354.549988,57.049999,-57.049999,1729421210883.0,0.0
-3.929015,1.335195,9.925428,134.470001,26.530001,-45.220001,1729421210901.0,0.0
-4.211368,-3.732803,7.872386,18.969999,-0.28,-28.700001,1729421210921.0,0.0
-4.089334,-4.232903,6.611369,41.23,-6.37,-20.02,1729421210941.0,0.0
-4.072584,-2.321038,6.876972,52.360001,-3.92,-15.190001,1729421210963.0,0.0
-4.656433,-1.995614,7.130611,6.09,-8.82,-4.27,1729421210982.0,0.0
-4.807181,-2.567499,6.549156,-38.849998,-20.719999,8.54,1729421211001.0,0.0
-4.606184,-3.455236,5.711668,-73.5,-30.17,19.18,1729421211020.0,0.0
-4.376472,-4.587041,5.60399,-115.43,-33.25,23.73,1729421211042.0,0.0
-4.768896,-4.792823,6.580262,-167.860001,-31.01,21.98,1729421211062.0,0.0
-4.948357,-4.656433,7.56132,-253.610001,-37.939999,18.969999,1729421211081.0,0.0
-4.981857,-4.800002,8.769694,-303.869995,-55.790001,22.82,1729421211101.0,0.0
-3.570091,-6.106483,6.608976,-355.809998,-78.190002,17.57,1729421211121.0,0.0
-2.914458,-8.508877,2.416751,-357.209991,-81.199997,3.85,1729421211140.0,0.0
-4.122833,-9.616754,1.9669,-249.970001,-54.810001,-4.9,1729421211161.0,0.0
-4.553542,-9.891929,2.866602,-71.330002,-27.51,-5.11,1729421211180.0,0.0
-3.507878,-8.772088,3.567699,75.110001,-8.89,-0.7,1729421211211.0,0.0
-3.591627,-7.042077,4.900501,153.509995,15.82,-4.97,1729421211222.0,0.0
-4.13719,-7.164111,5.742774,204.610001,31.710001,-8.12,1729421211242.0,0.0
-5.082355,-6.628119,6.142376,261.660004,42.07,-10.15,1729421211261.0,0.0
-4.350152,-5.225924,6.89133,294.420013,51.73,-15.82,1729421211292.0,0.0
-2.924029,-4.862216,8.365308,286.790009,58.73,-20.09,1729421211300.0,0.0
-3.962514,-4.776074,9.310472,269.220001,56.98,-23.450001,1729421211320.0,0.0
-4.673182,-2.009971,9.729217,209.860001,44.380001,-24.780001,1729421211341.0,0.0
-4.065405,-1.67019,8.255238,98.07,24.710001,-19.530001,1729421211360.0,0.0
-3.976871,-3.785445,6.728617,20.23,15.33,-11.97,1729421211381.0,0.0
-4.546363,-3.768696,7.168896,10.92,16.73,-6.58,1729421211400.0,0.0
-4.993821,-3.311667,7.568498,17.360001,10.01,2.03,1729421211420.0,0.0
-5.32403,-3.773481,6.771688,-5.74,-4.06,10.36,1729421211440.0,0.0
-5.056034,-4.929214,5.666204,-51.170002,-17.219999,13.86,1729421211463.0,0.0
-4.189832,-5.860023,5.072784,-116.059998,-22.889999,10.29,1729421211481.0,0.0
-3.854837,-6.015556,5.812167,-182.559998,-18.41,5.6,1729421211500.0,0.0
-3.974478,-5.785845,6.886543,-238.770004,-17.08,0.84,1729421211520.0,0.0
-3.893122,-5.436492,7.106683,-276.640015,-26.460001,2.52,1729421211540.0,0.0
-3.639483,-6.123233,6.424729,-277.76001,-38.5,7.98,1729421211560.0,0.0
-3.328416,-7.219146,5.948557,-257.459991,-44.869999,7.0,1729421211580.0,0.0
-3.239882,-7.57089,4.656433,-221.339996,-46.130001,8.4,1729421211599.0,0.0
-3.797409,-7.147361,4.074977,-176.190002,-40.740002,7.07,1729421211620.0,0.0
-4.570292,-6.91765,3.852444,-143.080002,-32.759998,7.84,1729421211640.0,0.0
-4.649254,-7.91785,3.615555,-121.520004,-29.4,11.13,1729421211660.0,0.0
-4.13719,-9.181261,3.184847,-101.849998,-26.25,8.68,1729421211680.0,0.0
-3.658626,-9.719646,3.28056,-70.0,-18.690001,4.48,1729421211701.0,0.0
-3.584448,-9.348758,3.787838,-34.860001,-11.62,2.73,1729421211721.0,0.0
-3.931407,-8.157133,4.409972,-12.04,-9.38,0.63,1729421211741.0,0.0
-4.017549,-8.102098,4.311867,-19.74,-14.42,2.59,1729421211762.0,0.0
-3.816552,-8.415558,3.718446,-29.75,-21.07,4.34,1729421211781.0,0.0
-3.720839,-8.468199,3.354738,-32.48,-23.66,4.34,1729421211877.0,0.0
-3.792624,-8.298308,3.448057,-38.150002,-23.940001,4.27,1729421211884.0,0.0
-3.883551,-8.690732,3.06042,-49.77,-23.52,5.25,1729421211885.0,0.0
-3.926622,-9.166903,2.876173,-52.150002,-24.710001,4.55,1729421211885.0,0.0
-3.735196,-9.394222,2.74696,-41.509998,-26.32,1.96,1729421211886.0,0.0
-3.811767,-9.243474,2.818745,-33.110001,-23.450001,0.28,1729421211901.0,0.0
-3.84048,-8.630912,2.892922,-34.23,-22.68,-1.12,1729421211921.0,0.0
-4.070191,-8.145168,3.129812,-40.880001,-24.639999,0.21,1729421211941.0,0.0
-4.06062,-8.166703,2.971886,-54.18,-27.440001,3.29,1729421211962.0,0.0
-3.728018,-8.726624,2.931208,-72.309998,-28.07,4.76,1729421211981.0,0.0
-3.534199,-9.394222,2.562713,-88.480003,-26.389999,2.87,1729421212001.0,0.0
-3.658626,-9.659825,2.045863,-83.300003,-23.1,0.7,1729421212020.0,0.0
-3.972085,-9.415757,1.56012,-52.990002,-21.210001,3.15,1729421212041.0,0.0
-4.039084,-8.590233,1.904687,-21.98,-19.32,4.9,1729421212061.0,0.0
-4.007978,-7.700103,2.287539,-17.360001,-16.450001,7.14,1729421212080.0,0.0
-3.739982,-8.047063,2.495714,-38.360001,-18.41,9.31,1729421212100.0,0.0
-3.625126,-7.898707,2.062613,-62.23,-17.360001,15.12,1729421212120.0,0.0
-3.54377,-7.853244,1.615155,-75.949997,-14.35,23.870001,1729421212140.0,0.0
-3.689733,-9.250652,2.376073,-83.090004,-9.87,27.860001,1729421212161.0,0.0
-3.617948,-10.224532,1.174876,-59.360001,-13.23,31.5,1729421212181.0,0.0
-3.201597,-9.308081,0.488136,-12.46,-19.950001,27.440001,1729421212200.0,0.0
-2.928815,-10.133603,0.48335,29.960001,-8.33,28.210001,1729421212220.0,0.0
-2.266003,-9.138189,-0.327817,48.650002,-4.27,34.16,1729421212241.0,0.0
-3.055635,-9.954143,-0.026321,66.290001,12.32,34.369999,1729421212261.0,0.0
-3.991228,-10.035499,-0.315853,89.110001,26.25,26.809999,1729421212280.0,0.0
-5.029713,-9.480364,0.674776,144.199997,35.07,25.059999,1729421212301.0,0.0
-5.630312,-10.899307,1.749153,189.070007,40.25,14.14,1729421212320.0,0.0
-5.063213,-10.707881,2.258825,233.800003,33.18,2.24,1729421212340.0,0.0
-5.675776,-7.467999,3.072384,310.940002,27.51,0.56,1729421212362.0,0.0
-5.24746,-5.826523,5.058427,339.01001,21.35,-8.75,1729421212381.0,0.0
-4.575077,-7.709675,6.329016,322.48999,17.99,-17.85,1729421212401.0,0.0
-4.567898,-7.836494,6.439085,329.910004,17.15,-29.120001,1729421212421.0,0.0
-4.539185,-4.778467,7.310073,336.630005,22.190001,-40.389999,1729421212441.0,0.0
-4.553542,-3.692125,7.389036,303.940002,25.059999,-40.389999,1729421212461.0,0.0
-5.228317,-3.546163,7.322037,238.419998,26.530001,-42.139999,1729421212481.0,0.0
-5.888737,-2.852244,7.106683,166.320007,26.32,-54.529999,1729421212500.0,0.0
-5.888737,-0.758525,7.422535,111.370003,23.17,-52.849998,1729421212520.0,0.0
-4.76411,0.815953,7.458428,52.5,14.63,-37.170002,1729421212541.0,0.0
-4.728218,-0.454636,6.532406,-3.78,7.14,-10.85,1729421212561.0,0.0
-5.328816,-1.497907,6.644868,-27.02,6.02,11.55,1729421212580.0,0.0
-4.721039,-1.514657,6.254838,-57.260002,3.92,28.91,1729421212600.0,0.0
-4.053442,-0.698704,5.833702,-124.32,8.89,36.82,1729421212621.0,0.0
-4.311867,-1.459622,5.728417,-214.619995,17.08,44.869999,1729421212640.0,0.0
-5.000999,-3.507878,5.520242,-293.019989,19.74,50.259998,1729421212662.0,0.0
-5.592027,-5.426922,5.82413,-348.179993,15.82,51.799999,1729421212680.0,0.0
-6.876972,-6.786045,5.412565,-421.679993,2.66,43.540001,1729421212700.0,0.0
-7.432107,-8.700303,2.708675,-496.790009,-9.8,33.810001,1729421212721.0,0.0
-5.20439,-9.68136,-1.012164,-515.27002,-14.56,18.9,1729421212740.0,0.0
-5.003392,-11.700903,-2.115255,-398.649994,-0.7,5.81,1729421212761.0,0.0
-5.539384,-12.457035,-0.945165,-232.889999,14.14,-6.37,1729421212780.0,0.0
-6.139983,-10.856236,-0.002393,-18.620001,15.26,-15.05,1729421212800.0,0.0
-5.871986,-8.755339,-0.291924,168.559998,7.56,-16.52,1729421212820.0,0.0
-5.730811,-8.499306,1.416551,293.720001,4.62,-11.69,1729421212841.0,0.0
-6.235696,-7.479963,2.39043,401.380005,3.64,-10.57,1729421212863.0,0.0
-5.556134,-8.319844,3.404987,483.910004,13.02,-18.129999,1729421212880.0,0.0
-5.393422,-8.870193,6.649654,489.580017,27.58,-42.209999,1729421212899.0,0.0
-5.065606,-8.623734,9.083155,449.26001,7.21,-61.18,1729421212920.0,0.0
-4.491328,-7.269395,9.4349,365.679993,-17.99,-75.040001,1729421212940.0,0.0
-5.383851,-0.538385,5.4341,273.630005,-34.509998,-61.880001,1729421212961.0,0.0
-3.555735,6.745367,3.244668,149.029999,-28.07,-35.560001,1729421212980.0,0.0
-2.749353,5.587241,4.115655,-56.560001,0.84,-6.72,1729421213318.0,0.0
-4.517649,-1.103091,4.613362,-182.210007,18.27,28.700001,1729421213322.0,0.0
-4.929214,-4.63729,5.582455,-175.139999,11.27,50.959999,1729421213326.0,0.0
-4.622933,-4.558327,6.786045,-171.779999,4.06,62.93,1729421213326.0,0.0
-5.13739,-3.601198,4.072584,-267.26001,3.5,64.190002,1729421213326.0,0.0
-5.929415,-4.917251,2.565106,-425.459991,0.07,69.510002,1729421213326.0,0.0
-7.022934,-8.88455,1.847259,-486.570007,-1.47,64.050003,1729421213326.0,0.0
-6.9344,-9.865608,1.485943,-498.049988,-13.58,43.119999,1729421213334.0,0.0
-6.687939,-8.930015,-0.009571,-433.649994,-25.200001,28.77,1729421213335.0,0.0
-5.991628,-10.358529,-3.730411,-323.610016,-21.629999,15.33,1729421213335.0,0.0
-6.080163,-12.619746,-2.847459,-181.089996,-3.92,1.61,1729421213335.0,0.0
-6.367301,-10.983055,-0.004786,-32.759998,4.27,-6.65,1729421213335.0,0.0
-6.38405,-10.995021,0.370888,61.389999,-6.23,-11.97,1729421213335.0,0.0
-5.551349,-12.14836,-1.021735,167.369995,-13.93,-22.049999,1729421213336.0,0.0
-4.852644,-9.052048,0.050249,322.630005,-6.37,-31.5,1729421213336.0,0.0
-4.811966,-4.847858,2.098505,432.880005,1.89,-32.48,1729421213336.0,0.0
-5.096712,-6.553941,4.646862,476.630005,7.98,-25.83,1729421213336.0,0.0
-5.402994,-9.812965,6.455836,512.470032,15.96,-33.25,1729421213341.0,0.0
-5.412565,-9.157332,7.566105,517.440002,-1.05,-49.560001,1729421213382.0,0.0
-4.838287,-3.924229,7.491928,350.209991,-6.79,-70.699997,1729421213383.0,0.0
-4.685147,1.928615,4.998606,228.550003,-7.49,-52.57,1729421213400.0,0.0
-4.04387,4.811966,3.548556,106.400002,-3.78,-25.059999,1729421213420.0,0.0
-3.804588,2.947958,3.615555,-47.599998,6.37,2.59,1729421213448.0,0.0
-4.883751,-0.038285,4.783253,-155.610001,15.82,30.1,1729421213460.0,0.0
-5.015356,-2.294717,5.627919,-217.839996,16.17,50.119999,1729421213481.0,0.0
-4.917251,-3.98405,6.123233,-281.679993,13.51,63.630001,1729421213504.0,0.0
-5.486742,-4.500899,5.185246,-377.089996,6.93,63.84,1729421213522.0,0.0
-6.331409,-5.082355,3.096312,-471.23999,-5.81,62.02,1729421213564.0,0.0
-6.831509,-7.63789,0.923629,-539.0,-14.49,56.490002,1729421213565.0,0.0
-6.558727,-8.953942,-0.70349,-564.059998,-18.969999,38.220001,1729421213580.0,0.0
-6.881758,-9.968499,-2.782853,-521.640015,-11.06,25.41,1729421213600.0,0.0
-6.843473,-11.41137,-5.213961,-400.540009,2.38,14.56,1729421213623.0,0.0
-5.503492,-11.313265,-3.517449,-211.889999,21.84,5.04,1729421213718.0,0.0
-6.388836,-8.908479,-1.265803,64.470001,31.01,-0.91,1729421213719.0,0.0
-6.606583,-9.95175,-2.031506,198.449997,13.51,1.19,1729421213756.0,0.0
-6.183054,-9.389436,-1.758725,353.98999,6.65,-4.34,1729421213758.0,0.0
-6.242875,-6.9009,1.596013,518.630005,22.049999,-11.9,1729421213759.0,0.0
-6.075377,-5.367101,3.04367,625.23999,34.369999,-15.05,1729421213760.0,0.0
-5.735595,-6.190232,7.685746,618.72998,31.639999,-25.059999,1729421213765.0,0.0
-8.10449,-7.779066,11.901899,523.25,26.32,-40.389999,1729421213788.0,0.0
-6.262017,-6.73101,10.514063,365.399994,-17.08,-61.389999,1729421213817.0,0.0
-4.113262,-3.799802,6.659225,252.350006,-23.940001,-54.040001,1729421213873.0,0.0
-4.59422,3.163311,3.902694,190.610001,-13.23,-31.43,1729421213874.0,0.0
-3.909872,5.245068,3.608376,27.09,6.16,-7.7,1729421213875.0,0.0
-4.453043,1.574477,4.046263,-139.720001,17.85,23.030001,1729421213882.0,0.0
