acc_x,acc_y,acc_z,gyr_x,gyr_y,gyr_z,timestamp,label
-6.022735,0.825524,-7.439285,52.009998,-50.540001,-0.84,1729427962809.0,0.0
-6.692725,-0.937986,-8.941978,26.6,-46.900002,25.27,1729427962810.0,0.0
-5.118248,-5.228317,-10.186246,34.16,-52.990002,15.47,1729427962811.0,0.0
-5.876772,-0.835095,-11.373087,68.040001,-48.299999,0.14,1729427962820.0,0.0
-4.835894,2.526821,-9.805787,-5.88,-34.509998,1.54,1729427962835.0,0.0
-5.867201,-5.532206,-12.887742,-95.129997,-17.08,5.81,1729427962855.0,0.0
-6.089733,-3.266203,-9.664611,-31.01,-0.7,-9.52,1729427962877.0,0.0
-7.982457,-3.505485,-9.446864,6.09,12.81,-9.8,1729427962895.0,0.0
-7.15454,-2.921637,-14.187045,13.02,34.650002,-15.82,1729427962915.0,0.0
-5.965307,-3.742374,-14.038691,52.920002,54.810001,-18.48,1729427962936.0,0.0
-5.003392,-2.476572,-5.046463,150.220001,66.080002,-27.719999,1729427962955.0,0.0
-5.022535,-0.825524,-7.094719,124.809998,66.150002,-27.860001,1729427962977.0,0.0
-6.01077,-0.150748,2.196611,84.349998,68.18,-11.97,1729427962995.0,0.0
-5.568098,-2.68714,-2.811567,13.58,38.5,-0.21,1729427963015.0,0.0
-3.883551,-9.262616,-14.897714,-28.210001,12.32,-5.74,1729427963035.0,0.0
0.22014,-18.845871,-30.252457,84.769997,1.26,-15.33,1729427963055.0,0.0
-1.631905,-9.779467,-8.389235,365.610016,45.5,-12.04,1729427963076.0,0.0
-12.3685,11.942577,-4.59422,414.049988,80.989998,-8.4,1729427963095.0,0.0
-6.424729,-0.205783,-5.024928,152.669998,10.29,50.959999,1729427963116.0,0.0
-4.986642,-1.67019,-3.536592,93.239998,43.400002,46.689999,1729427963135.0,0.0
-6.417551,-6.149554,-4.268795,-28.630001,16.799999,31.15,1729427963155.0,0.0
-5.151747,-6.269196,-5.680561,-76.019997,-22.049999,5.74,1729427963178.0,0.0
-4.500899,-4.871787,-4.386044,-38.920002,-21.280001,-8.61,1729427963196.0,0.0
-2.823531,-7.482357,-3.156133,-95.129997,-33.880001,-9.24,1729427963216.0,0.0
-2.76371,-7.075576,-3.26381,-125.370003,-47.880001,-5.53,1729427963236.0,0.0
-2.799603,-2.955136,-6.13759,-146.580002,-60.760002,1.33,1729427963255.0,0.0
-4.807181,0.050249,-7.520642,-181.369995,-56.490002,24.5,1729427963276.0,0.0
-4.663611,0.533599,-13.191631,-326.410004,-62.16,38.990002,1729427963296.0,0.0
-4.725825,-8.255238,-15.940985,-251.089996,-35.560001,36.959999,1729427963316.0,0.0
-1.591227,-11.406586,-17.429321,-150.919998,-14.14,-12.81,1729427963335.0,0.0
-5.67099,-8.221739,-15.598811,31.92,16.030001,-35.700001,1729427963356.0,0.0
-5.572884,-3.48395,-15.311671,173.389999,62.02,-44.240002,1729427963376.0,0.0
-5.723632,-0.440279,-4.711468,276.290009,88.480003,-29.469999,1729427963395.0,0.0
-9.135797,6.312266,-8.233703,218.889999,73.010002,-1.96,1729427963416.0,0.0
-4.23051,-19.422541,-17.264215,96.389999,47.040001,-10.5,1729427963437.0,0.0
-1.605584,-4.934,-3.311667,414.540009,15.54,-20.370001,1729427963456.0,0.0
-15.065211,5.759524,3.132205,592.76001,36.959999,49.98,1729427963476.0,0.0
-4.790431,-6.058627,-4.474578,298.899994,-47.670002,-10.78,1729427963494.0,0.0
-7.281359,-4.508078,-3.474378,155.889999,-16.799999,29.610001,1729427963515.0,0.0
-6.118448,-4.924429,-4.969893,-36.68,-20.440001,10.64,1729427963535.0,0.0
-3.771089,-3.938586,-6.498906,-106.82,-24.99,11.83,1729427963555.0,0.0
-5.312066,-2.239682,-6.879365,-150.919998,-17.85,20.93,1729427963577.0,0.0
-3.59402,-3.89073,-10.758131,-274.329987,-15.47,6.37,1729427963595.0,0.0
-2.467,-3.84048,-12.24168,-290.5,-2.31,10.15,1729427963621.0,0.0
-1.974079,-4.768896,-12.859028,-230.860001,21.77,27.790001,1729427963635.0,0.0
-2.397608,-5.852845,-12.023933,-114.660004,64.959999,46.900002,1729427963655.0,0.0
-2.349752,-6.522834,-12.124433,-72.870003,81.620003,42.490002,1729427963676.0,0.0
-1.892723,-6.415157,-11.672189,-59.220001,96.18,28.84,1729427963694.0,0.0
-0.90688,-5.9342,-11.593226,-38.779999,109.830002,19.74,1729427963716.0,0.0
-0.567099,-4.23051,-10.382458,-23.940001,126.489998,19.530001,1729427963734.0,0.0
-0.598206,-6.738188,-10.013963,-33.040001,134.470001,21.07,1729427963755.0,0.0
-0.818345,-6.312266,-9.968499,-1.33,138.110001,17.639999,1729427963776.0,0.0
-0.287139,-5.268995,-10.358529,2.59,144.339996,8.89,1729427963794.0,0.0
0.495314,-4.024727,-9.092726,-6.09,149.940002,12.11,1729427963815.0,0.0
0.428315,-4.716253,-8.102098,-24.360001,147.350006,18.129999,1729427963835.0,0.0
0.679562,-4.414758,-9.052048,-32.34,133.910004,16.59,1729427963856.0,0.0
1.134198,-4.859823,-9.765109,-5.46,113.75,20.16,1729427963876.0,0.0
-0.007178,-4.051049,-7.987241,34.720001,101.5,23.309999,1729427963902.0,0.0
-1.258625,-3.979264,-7.317252,12.81,89.879997,19.6,1729427963915.0,0.0
-1.502693,-4.445865,-6.932007,-29.26,72.660004,20.440001,1729427963934.0,0.0
-1.799403,-3.632305,-9.848858,-40.599998,56.349998,21.139999,1729427963957.0,0.0
-2.213361,-3.046063,-10.485349,-23.17,48.509998,30.52,1729427963976.0,0.0
-3.0006,-3.218346,-8.020741,19.879999,45.5,36.75,1729427963994.0,0.0
-4.182654,-3.732803,-6.585048,28.700001,37.66,31.290001,1729427964016.0,0.0
-3.108276,-4.457829,-7.427321,9.73,20.23,23.17,1729427964035.0,0.0
-2.096112,-3.177669,-9.41815,28.210001,9.38,22.889999,1729427964055.0,0.0
-3.086741,-2.414358,-8.721838,30.030001,14.56,28.07,1729427964077.0,0.0
-3.098706,-3.955336,-6.999006,7.56,14.84,30.870001,1729427964095.0,0.0
-2.402394,-4.548756,-7.393822,-5.53,6.02,23.940001,1729427964116.0,0.0
-1.753939,-3.5007,-9.032906,-19.18,-1.19,12.32,1729427964136.0,0.0
-1.770689,-4.721039,-8.932407,-40.950001,0.98,10.29,1729427964156.0,0.0
-1.801795,-4.68754,-8.116454,-33.110001,3.85,8.82,1729427964178.0,0.0
-1.036092,-3.862016,-8.563912,-18.059999,6.16,7.28,1729427964196.0,0.0
-0.619741,-3.481557,-8.200203,-5.88,5.46,3.5,1729427964216.0,0.0
-0.547956,-4.768896,-9.032906,-15.96,7.14,-2.24,1729427964236.0,0.0
-0.258425,-4.082155,-8.571091,-10.01,7.77,-7.98,1729427964258.0,0.0
-0.784846,-3.266203,-9.320045,-7.7,5.46,-8.19,1729427964277.0,0.0
-0.973879,-2.615355,-9.98525,-42.700001,6.23,-9.8,1729427964296.0,0.0
-1.055235,-2.880959,-10.296316,-47.950001,10.15,-8.33,1729427964316.0,0.0
-0.07657,-2.830709,-10.128819,-24.5,13.16,-7.35,1729427964336.0,0.0
0.153141,-2.816352,-8.786445,-23.24,14.21,-6.37,1729427964355.0,0.0
-1.435694,-4.898108,-7.456036,-13.51,9.66,-6.23,1729427964381.0,0.0
-1.820938,-4.402793,-7.992027,-16.73,4.97,-19.74,1729427964397.0,0.0
-0.026321,-3.09392,-9.035298,-7.63,-2.24,-15.05,1729427964417.0,0.0
0.265603,-3.046063,-9.982857,3.71,-7.0,-5.46,1729427964439.0,0.0
0.564706,-4.084548,-11.109876,6.3,-7.7,-0.21,1729427964458.0,0.0
0.323031,-4.127619,-10.951948,15.82,-3.92,-5.39,1729427964479.0,0.0
-0.461815,-4.098906,-9.801002,22.610001,0.28,-12.25,1729427964497.0,0.0
-0.954736,-5.039285,-9.425328,49.420002,0.28,-16.1,1729427964517.0,0.0
-0.995414,-3.761517,-8.595018,69.300003,-0.07,-19.389999,1729427964537.0,0.0
-0.332602,-4.395615,-9.580862,35.77,-1.75,-20.51,1729427964558.0,0.0
-1.148555,-4.979464,-9.710074,42.279999,3.08,-22.33,1729427964578.0,0.0
-1.674976,-5.218746,-9.461221,76.790001,7.91,-26.110001,1729427964597.0,0.0
-1.497907,-3.924229,-9.858429,113.470001,10.78,-30.030001,1729427964624.0,0.0
-1.057628,-3.302095,-9.600004,106.330002,12.88,-31.43,1729427964638.0,0.0
0.320638,-4.649254,-9.466006,78.470001,10.99,-30.52,1729427964656.0,0.0
-0.208176,-5.125426,-9.336794,70.209999,12.67,-32.34,1729427964680.0,0.0
-1.09352,-5.570491,-9.997212,54.529999,21.139999,-41.09,1729427964696.0,0.0
-1.423729,-5.493921,-11.669796,96.389999,37.450001,-37.099998,1729427964717.0,0.0
-2.682354,-4.297509,-10.889735,147.630005,57.049999,-30.24,1729427964737.0,0.0
-5.347959,-6.927221,1.694118,110.669998,53.41,-33.18,1729427964757.0,0.0
-2.667997,-8.4012,-4.35733,-34.02,-22.120001,-58.240002,1729427964778.0,0.0
4.981857,-7.257431,-10.695917,155.820007,-46.970001,-49.07,1729427964797.0,0.0
4.536791,-3.419343,-2.79721,326.200012,-4.27,5.04,1729427964817.0,0.0
3.079563,-6.403193,0.811167,232.610001,-18.690001,27.370001,1729427964837.0,0.0
2.706282,-8.4347,0.641276,121.099998,-64.75,25.76,1729427964857.0,0.0
4.06062,-8.803195,-3.275774,116.970001,-116.830002,14.42,1729427964878.0,0.0
-2.423929,-7.537392,-14.026726,123.970001,-139.020004,20.719999,1729427964897.0,0.0
-11.035697,-7.587641,-21.525833,-1.26,-59.709999,9.59,1729427964919.0,0.0
-2.115255,-5.761917,-11.322837,112.209999,59.360001,80.57,1729427964937.0,0.0
-2.35693,-6.573084,-11.334801,21.280001,90.019997,78.050003,1729427964957.0,0.0
7.728817,-8.755339,-10.549955,-14.07,99.82,77.769997,1729427964978.0,0.0
10.992627,-7.944171,8.848659,39.970001,108.360001,81.480003,1729427964995.0,0.0
9.568897,-13.385449,16.962721,54.950001,23.940001,70.07,1729427965018.0,0.0
0.835095,-12.875778,14.153545,36.259998,-68.32,30.73,1729427965037.0,0.0
2.65364,-11.559726,2.469393,-10.92,-168.699997,-1.33,1729427965056.0,0.0
0.019143,-8.185846,-13.411771,-99.75,-205.869995,10.85,1729427965077.0,0.0
-11.184053,-10.817951,-22.394426,-102.480003,-141.539993,28.210001,1729427965097.0,0.0
-17.678173,-3.802195,-27.969702,-116.199997,0.28,27.93,1729427965117.0,0.0
-3.129812,-1.205983,-17.252251,-62.02,115.010002,33.389999,1729427965137.0,0.0
-1.830509,-7.594819,-12.464212,-94.989998,145.039993,27.719999,1729427965157.0,0.0
4.819145,-3.668197,-0.236889,11.2,159.809998,38.5,1729427965179.0,0.0
5.931807,-9.492328,17.233109,72.239998,97.860001,53.41,1729427965197.0,0.0
2.505285,-17.225931,11.16491,86.660004,-18.059999,21.98,1729427965217.0,0.0
3.218346,-9.736395,1.349552,93.239998,-119.559998,-25.83,1729427965236.0,0.0
1.071985,-7.147361,-12.000006,-4.34,-169.119995,-13.3,1729427965256.0,0.0
-11.866007,-14.41197,-25.945377,-153.860001,-90.370003,1.68,1729427965280.0,0.0
-13.435699,-5.185246,-26.325834,-100.800003,33.32,-1.05,1729427965296.0,0.0
-3.620341,-3.065206,-17.012968,115.849998,154.979996,22.540001,1729427965318.0,0.0
-0.12682,-4.646862,-12.05504,53.27,197.330002,9.17,1729427965337.0,0.0
6.037091,-2.926422,7.314859,87.220001,211.330002,17.290001,1729427965356.0,0.0
1.660619,-7.379465,14.122439,102.690002,113.400002,27.370001,1729427965378.0,0.0
3.613162,-10.794022,9.60479,154.910004,11.41,25.48,1729427965398.0,0.0
-2.033899,-10.313066,1.12702,201.180008,-71.190002,11.48,1729427965417.0,0.0
4.646862,-9.47797,-4.331009,351.049988,-92.470001,36.540001,1729427965436.0,0.0
0.677169,-10.210175,-0.832702,540.400024,-64.959999,88.900002,1729427965457.0,0.0
-9.193225,-9.994821,6.352944,508.899994,-43.400002,104.650002,1729427965477.0,0.0
-5.161318,-21.071196,-3.493521,354.690002,-58.170002,61.18,1729427965496.0,0.0
-6.218946,-12.847065,1.189233,479.709991,50.540001,14.98,1729427965517.0,0.0
-6.970293,-10.29153,-1.182054,486.920013,75.25,-30.52,1729427965536.0,0.0
-0.849452,-13.399807,-1.916651,516.809998,77.0,-53.689999,1729427965556.0,0.0
0.208176,-7.573284,10.861022,656.809998,127.050003,-77.980003,1729427965578.0,0.0
-0.418744,4.134798,16.974684,580.440002,91.209999,-127.190002,1729427965596.0,0.0
-1.959722,2.651247,16.639688,271.110016,-20.790001,-112.139999,1729427965619.0,0.0
0.5001,-1.555335,9.650253,66.150002,-82.949997,-97.580002,1729427965780.0,0.0
-0.334995,-4.134798,5.173282,18.200001,-72.449997,-107.520004,1729427965781.0,0.0
-3.294917,-0.624527,2.177469,50.889999,-39.970001,-90.230003,1729427965782.0,0.0
-5.532206,1.392623,3.988836,97.790001,0.91,-62.23,1729427965784.0,0.0
-3.156133,-1.098306,11.540584,84.980003,7.42,-21.07,1729427965785.0,0.0
-3.096312,-2.646462,11.320443,64.470001,-21.559999,-19.809999,1729427965798.0,0.0
-0.184247,-4.960321,8.334201,-8.19,-46.970001,-35.630001,1729427965799.0,0.0
-0.461815,-2.770889,7.642675,7.28,-41.02,-36.959999,1729427965802.0,0.0
-0.413958,2.87378,10.569098,38.639999,-19.6,-0.21,1729427965806.0,0.0
2.309074,5.132604,8.882158,3.01,-36.889999,6.86,1729427965817.0,0.0
2.691926,4.460221,6.142376,-17.85,-33.740002,38.43,1729427965835.0,0.0
0.445065,1.464408,6.465407,-64.260002,-21.559999,64.050003,1729427965855.0,0.0
-3.895515,-5.905487,5.733203,-74.340004,-13.72,58.939999,1729427965892.0,0.0
-2.065006,-10.595419,4.201797,-42.349998,6.16,-0.21,1729427965898.0,0.0
-6.343372,0.863809,12.794422,66.150002,44.799999,-7.98,1729427965916.0,0.0
-1.105484,4.85743,14.344972,81.199997,19.530001,34.09,1729427965936.0,0.0
-0.138784,-10.085747,7.566105,13.93,-50.889999,6.09,1729427965956.0,0.0
-1.581656,1.952543,10.425529,106.400002,23.73,6.51,1729427965977.0,0.0
1.634298,5.261817,8.039884,40.459999,21.91,16.309999,1729427965997.0,0.0
0.70349,0.401994,7.367501,-26.18,8.89,29.049999,1729427966032.0,0.0
-0.78006,-4.278367,8.4012,-63.560001,17.85,35.349998,1729427966043.0,0.0
-1.548156,-2.928815,9.74836,-41.439999,22.469999,-5.11,1729427966057.0,0.0
-1.598405,-5.871986,11.198411,-15.75,22.120001,-6.23,1729427966077.0,0.0
-1.694118,-1.392623,9.79143,3.22,9.8,-28.210001,1729427966095.0,0.0
-1.335195,5.891129,10.030712,69.019997,9.31,0.98,1729427966118.0,0.0
-3.361916,-1.521835,8.949157,66.220001,-12.11,26.6,1729427966136.0,0.0
-3.804588,2.22054,10.9352,51.380001,9.24,13.51,1729427966156.0,0.0
-0.394816,1.138984,8.95155,1.61,14.49,32.830002,1729427966178.0,0.0
2.041078,-1.428515,8.843873,-25.200001,3.43,24.639999,1729427966196.0,0.0
-0.768096,-3.127419,10.870593,-42.420002,4.48,21.139999,1729427966216.0,0.0
-2.876173,0.62692,8.9348,-56.77,2.03,-4.62,1729427966237.0,0.0
1.308874,-3.921836,7.226324,-119.559998,3.99,1.61,1729427966256.0,0.0
-1.174876,-0.399601,9.145369,-151.690002,16.870001,0.14,1729427966277.0,0.0
-3.991228,5.032106,10.877771,-241.850006,30.52,25.83,1729427966297.0,0.0
-2.505285,4.924429,8.379664,-418.179993,5.39,74.269997,1729427966316.0,0.0
-1.172483,0.911665,3.474378,-566.929993,-31.290001,85.68,1729427966336.0,0.0
-7.063612,0.409173,1.808974,-767.690002,-14.91,156.729996,1729427966357.0,0.0
-2.074577,-6.71426,-6.070591,-1125.319946,-66.57,53.41,1729427966377.0,0.0
-0.464208,-10.995021,-12.105289,-1363.530029,-111.440002,-73.57,1729427966396.0,0.0
0.251246,-7.290931,-16.764114,-1004.01001,-98.0,-59.709999,1729427966417.0,0.0
2.74696,-9.540184,-21.420547,-627.27002,-41.720001,-72.590004,1729427966436.0,0.0
2.455036,-13.514663,-8.676375,-218.960007,19.110001,-36.68,1729427966455.0,0.0
-6.709475,-16.809578,7.91785,-5.18,5.39,-54.810001,1729427966484.0,0.0
-1.543371,-10.856236,-0.270389,-71.260002,-67.900002,-118.93,1729427966496.0,0.0
-1.674976,-4.383651,-6.506085,-109.550003,-95.340004,-101.150002,1729427966516.0,0.0
-3.816552,-8.889337,-13.325629,-100.590004,-87.639999,-66.779999,1729427966536.0,0.0
-4.362115,-7.77428,-16.639688,85.889999,-42.0,-29.120001,1729427966556.0,0.0
-3.57727,-3.744767,-14.703895,134.75,13.51,-9.59,1729427966578.0,0.0
-4.271189,-1.306481,-13.160524,151.759995,75.809998,9.73,1729427966596.0,0.0
0.289532,-7.757531,-5.113462,93.590004,115.919998,38.709999,1729427966618.0,0.0
2.699104,-11.897114,9.389436,88.690002,104.860001,46.130001,1729427966637.0,0.0
5.355137,-17.020147,10.578669,80.639999,33.740002,30.66,1729427966656.0,0.0
1.540978,-10.466206,7.259824,67.830002,-28.35,4.48,1729427966676.0,0.0
5.101498,-10.822738,1.732404,14.28,-94.639999,-1.19,1729427966695.0,0.0
2.605784,-4.833502,-5.898308,-23.870001,-146.720001,-16.17,1729427966719.0,0.0
-5.960521,-8.865408,-20.611773,-169.259995,-134.960007,-7.42,1729427966808.0,0.0
-17.630316,-6.687939,-23.78705,-132.720001,-29.68,-19.809999,1729427966823.0,0.0
-5.350351,0.392423,-10.449455,26.389999,67.059998,9.1,1729427966824.0,0.0
-3.098706,-7.755138,-16.575081,-134.330002,91.629997,-7.0,1729427966826.0,0.0
1.682154,-2.876173,-4.62054,-113.260002,118.440002,-16.799999,1729427966828.0,0.0
-0.619741,-10.590633,-0.545564,-90.230003,86.940002,-14.63,1729427966844.0,0.0
2.533999,-10.38485,0.318245,-114.379997,45.639999,-57.75,1729427966856.0,0.0
3.273381,-7.022934,0.751346,-149.729996,-46.830002,-84.209999,1729427966922.0,0.0
3.352344,-4.156333,0.411566,-171.639999,-91.209999,-53.27,1729427966923.0,0.0
0.806381,-4.024727,-3.287738,-244.229996,-126.629997,-19.389999,1729427966924.0,0.0
-1.055235,-0.68674,-12.923635,-299.529999,-122.57,-23.379999,1729427966955.0,0.0
-0.282353,-3.962514,-18.008383,-206.430008,-91.699997,-10.71,1729427966975.0,0.0
-1.440479,-2.940779,-16.223339,-29.889999,-54.389999,-2.31,1729427966993.0,0.0
0.61017,-6.975078,-13.71566,11.83,-25.83,-8.61,1729427967016.0,0.0
0.009571,-5.448457,-12.093326,64.75,-10.08,-29.120001,1729427967034.0,0.0
-0.055035,-5.498707,-9.367901,88.830002,-3.71,-29.82,1729427967055.0,0.0
-1.071985,-5.431707,-12.344571,119.349998,-5.25,-30.1,1729427967079.0,0.0
-3.029313,-5.79781,-13.667803,320.110016,-0.98,-10.01,1729427967094.0,0.0
-3.108276,-5.446064,-15.139388,575.26001,11.13,6.93,1729427967115.0,0.0
-2.742175,0.057428,-8.60459,630.070007,37.029999,27.09,1729427967135.0,0.0
-5.108676,-3.806981,-3.519842,457.589996,44.029999,27.09,1729427967165.0,0.0
-3.194418,-7.223931,-3.180061,364.0,1.82,13.86,1729427967176.0,0.0
-5.860023,-4.163511,3.242275,344.329987,39.970001,19.950001,1729427967197.0,0.0
-7.046863,-11.667403,-2.976671,150.990005,1.12,-20.16,1729427967218.0,0.0
-2.854637,-11.24866,-2.672783,82.389999,7.49,-32.830002,1729427967236.0,0.0
-3.184847,-11.624333,-5.309673,8.05,48.790001,-21.280001,1729427967256.0,0.0
-2.325824,-6.498906,-6.948757,-66.080002,93.940002,-20.02,1729427967277.0,0.0
-1.895115,-7.520642,3.938586,-55.02,100.660004,-3.08,1729427967295.0,0.0
2.632105,-5.209175,3.330809,-88.830002,67.199997,-27.65,1729427967316.0,0.0
1.828116,-11.016556,5.020142,-141.259995,38.779999,-35.420002,1729427967335.0,0.0
1.792224,-10.956735,3.802195,-197.259995,17.43,-34.16,1729427967355.0,0.0
3.541377,-2.713461,-2.510071,-264.459991,3.29,-39.060001,1729427967377.0,0.0
1.643869,-8.628519,-10.904092,-285.950012,-22.049999,-20.93,1729427967396.0,0.0
-0.715454,-7.77428,-5.582455,-175.699997,-5.95,-4.41,1729427967417.0,0.0
-2.005185,-7.410572,0.428315,-196.350006,-15.54,-17.99,1729427967436.0,0.0
-2.019542,-9.097511,-1.935793,-293.369995,-54.459999,-47.880001,1729427967455.0,0.0
-0.507278,-6.032306,-5.362316,-298.130005,-80.220001,-60.689999,1729427967476.0,0.0
-0.401994,-1.933401,-12.332609,-279.929993,-76.720001,-44.66,1729427967496.0,0.0
-1.624727,-5.781059,-13.143774,-267.119995,-63.07,-29.33,1729427967516.0,0.0
-1.167697,1.253839,-3.821337,-185.850006,-47.810001,-35.630001,1729427967535.0,0.0
-3.201597,-2.457429,-7.025328,-193.479996,-66.220001,-12.39,1729427967556.0,0.0
-0.184247,-5.271388,-11.502297,-102.620003,-78.120003,-17.219999,1729427967576.0,0.0
1.524228,3.713661,-6.848258,-25.620001,-74.970001,-19.879999,1729427967595.0,0.0
1.555335,-3.632305,-21.454048,-237.160004,-80.709999,0.35,1729427967622.0,0.0
-6.087341,-11.38505,-12.669996,-204.680008,-44.450001,-53.549999,1729427967635.0,0.0
-4.613362,-1.808974,-10.411172,20.299999,-39.200001,-75.389999,1729427967655.0,0.0
-0.507278,1.942972,-8.468199,62.580002,-34.09,-49.07,1729427967677.0,0.0
-0.200997,-4.630112,-11.889936,5.32,-40.950001,-12.81,1729427967695.0,0.0
0.399601,-9.705289,-11.96172,139.509995,-46.549999,-18.83,1729427967715.0,0.0
-1.17009,-5.589634,-10.662418,306.880005,-64.889999,-36.400002,1729427967735.0,0.0
-2.371287,-3.127419,-13.878372,400.399994,-61.810001,-17.15,1729427967809.0,0.0
-2.09372,-5.15414,-17.008183,439.320007,-36.959999,26.460001,1729427967810.0,0.0
-4.457829,-1.648655,-17.350357,510.649994,20.16,48.720001,1729427967810.0,0.0
-7.523034,-3.914658,-12.562319,543.47998,42.84,50.049999,1729427967816.0,0.0
-4.675575,1.349552,-5.321638,582.679993,59.709999,39.41,1729427967836.0,0.0
-10.143176,-5.123034,1.72044,443.940002,70.699997,39.900002,1729427967855.0,0.0
-6.556334,-5.379066,6.58744,279.720001,74.199997,-14.42,1729427967876.0,0.0
-12.452249,-3.318845,-0.124427,-63.0,-4.34,-32.549999,1729427967895.0,0.0
-5.484349,-8.228917,-12.854243,-346.779999,-6.37,-108.220001,1729427967917.0,0.0
-3.59402,-10.432706,-9.387043,-134.820007,104.090004,-18.549999,1729427967935.0,0.0
-2.883351,-4.910072,-4.283153,33.32,148.330002,26.389999,1729427967955.0,0.0
5.596812,-8.331808,-0.622134,12.74,145.880005,27.65,1729427967977.0,0.0
8.676375,-12.653246,8.25763,-8.61,85.82,52.360001,1729427967994.0,0.0
7.89153,-13.921442,6.733403,-1.05,8.12,39.48,1729427968015.0,0.0
1.588834,-11.502297,4.811966,31.219999,-38.639999,20.860001,1729427968035.0,0.0
0.253639,-7.846066,6.144768,21.07,-83.720001,25.27,1729427968054.0,0.0
-4.228118,-8.566305,-1.842474,-141.190002,-129.710007,22.610001,1729427968076.0,0.0
-16.398014,-16.007982,-16.041483,-180.529999,-123.900002,19.32,1729427968095.0,0.0
-17.831314,-7.609176,-21.561724,-132.300003,1.47,-1.89,1729427968119.0,0.0
-5.369494,1.581656,-16.010376,-36.610001,93.870003,-0.77,1729427968136.0,0.0
-5.036892,-6.13759,-13.579268,-165.339996,105.419998,-18.76,1729427968155.0,0.0
-1.952543,-7.755138,-11.68176,-168.0,123.340004,-29.540001,1729427968175.0,0.0
-0.691526,-7.69771,2.397608,-168.279999,129.919998,-48.16,1729427968195.0,0.0
0.248854,-10.128819,0.736989,-196.210007,83.230003,-69.860001,1729427968217.0,0.0
3.732803,-6.431907,-1.423729,-253.470001,32.200001,-98.629997,1729427968235.0,0.0
2.634498,-3.275774,-5.070391,-286.299988,-6.51,-100.449997,1729427968256.0,0.0
-1.083949,0.181855,-5.651847,-245.490005,-36.470001,-63.84,1729427968277.0,0.0
-2.711068,-1.399801,-8.135597,-272.369995,-57.959999,-45.57,1729427968295.0,0.0
-1.969293,-0.533599,-10.746166,-291.410004,-67.199997,-39.48,1729427968325.0,0.0
-1.452443,-3.0006,-11.691331,-185.5,-56.279999,-4.62,1729427968335.0,0.0
-1.485943,-2.505285,-9.609575,-55.720001,-51.240002,26.74,1729427968355.0,0.0
-1.476372,-8.240881,-10.013963,-22.190001,-44.73,24.15,1729427968376.0,0.0
-0.27996,-3.426522,-7.855636,-13.51,-51.799999,-3.15,1729427968402.0,0.0
-1.234696,-4.807181,-8.13799,23.59,-65.590004,-0.14,1729427968417.0,0.0
-1.95015,-5.924629,-11.006985,79.590004,-76.860001,-10.29,1729427968435.0,0.0
-2.0004,-5.20439,-14.459827,185.990005,-72.870003,-7.07,1729427968498.0,0.0
-1.911865,-6.159126,-18.252451,333.200012,-45.920002,4.83,1729427968499.0,0.0
-4.515256,-5.276174,-14.151153,464.450012,-0.49,2.45,1729427968499.0,0.0
-5.615955,-0.098106,-8.561519,523.809998,26.530001,12.6,1729427968570.0,0.0
-5.644669,-4.45065,-12.078968,465.640015,16.030001,31.43,1729427968570.0,0.0
-5.4676,-6.34098,-9.497113,379.26001,31.99,-5.11,1729427968570.0,0.0
-5.32403,-5.907879,1.095913,336.910004,45.080002,-6.16,1729427968582.0,0.0
-5.651847,-4.735396,0.926022,193.059998,31.85,1.05,1729427968597.0,0.0
-4.572684,-12.129218,-2.739782,33.950001,-4.41,-33.670002,1729427968621.0,0.0
-3.165704,-11.430513,-5.848059,65.730003,19.389999,-33.670002,1729427968636.0,0.0
-6.075377,-4.847858,-3.524628,41.369999,61.32,-15.05,1729427968655.0,0.0
-4.400401,-8.484949,-6.503692,-104.090004,49.84,-19.18,1729427968678.0,0.0
-2.811567,-6.242875,-7.444071,-99.75,89.739998,-9.45,1729427968695.0,0.0
-2.352145,-5.788238,0.356531,-119.699997,95.550003,7.0,1729427968719.0,0.0
0.717847,-7.341179,-5.012963,-176.820007,52.43,-19.110001,1729427968736.0,0.0
1.22034,-5.108676,-4.366901,-148.610001,37.799999,-19.25,1729427968757.0,0.0
0.334995,-9.377472,-3.175276,-170.589996,35.0,4.97,1729427968780.0,0.0
-1.557728,-0.564706,0.327817,-260.399994,39.34,0.77,1729427968796.0,0.0
-1.036092,-7.79103,-5.228317,-441.140015,-7.28,-18.41,1729427968817.0,0.0
0.782453,-6.573084,-6.63769,-409.920013,-39.060001,-32.970001,1729427968838.0,0.0
-1.770689,-6.848258,-7.022934,-336.980011,-43.259998,-43.889999,1729427968856.0,0.0
-4.596612,-3.888337,-6.910471,-304.570007,-54.110001,-49.279999,1729427968880.0,0.0
-3.058028,-0.105284,-11.782259,-288.329987,-59.849998,-51.310001,1729427968897.0,0.0
-1.421337,-0.904487,-13.969299,-164.990005,-49.139999,-41.790001,1729427968916.0,0.0
-3.393023,-0.988236,-10.619347,-31.710001,-31.710001,-39.200001,1729427968938.0,0.0
-5.331209,-1.0002,-7.484749,-37.59,-28.630001,-43.330002,1729427968956.0,0.0
-2.517249,-1.426122,-2.78046,-84.629997,-46.34,-43.75,1729427968980.0,0.0
-2.608176,-2.725425,-9.147761,-97.790001,-66.919998,-42.349998,1729427968996.0,0.0
-2.641676,-1.165305,-7.982457,-41.09,-69.440002,-39.48,1729427969017.0,0.0
0.404387,4.345366,-10.284351,-144.479996,-71.400002,-43.189999,1729427969038.0,0.0
-1.964507,-8.035098,-14.706287,-109.760002,-55.02,-30.309999,1729427969059.0,0.0
-8.331808,-5.781059,-6.853044,35.420002,-53.27,-75.110001,1729427969081.0,0.0
-4.73061,1.536192,-10.176675,34.02,-63.209999,-77.699997,1729427969101.0,0.0
-3.665804,2.167897,-12.914064,-18.690001,-48.299999,-32.900002,1729427969124.0,0.0
-4.249653,1.189233,-14.397614,38.920002,-31.99,8.33,1729427969139.0,0.0
-3.579663,-1.651048,-14.388042,171.289993,-0.98,18.48,1729427969161.0,0.0
-3.395415,-3.771089,-11.387443,249.410004,7.35,-5.6,1729427969187.0,0.0
-3.625126,0.607777,-10.652846,273.910004,20.370001,-10.57,1729427969199.0,0.0
-3.35713,-1.849652,-10.298709,240.520004,42.84,2.87,1729427969218.0,0.0
-2.837888,-5.07757,-8.020741,182.419998,42.07,-3.01,1729427969237.0,0.0
-3.108276,-6.69751,-4.292724,197.820007,9.45,-8.12,1729427969256.0,0.0
-5.458029,-3.701697,-5.125426,258.929993,2.52,-4.83,1729427969277.0,0.0
-8.563912,-5.534599,-7.355537,235.410004,16.940001,4.62,1729427969297.0,0.0
-11.057234,-4.287938,-9.190832,163.309998,32.759998,1.26,1729427969317.0,0.0
-6.721439,-1.409373,-9.540184,26.530001,40.880001,-16.379999,1729427969336.0,0.0
-4.642076,-5.278566,-19.960926,-34.09,72.730003,-20.860001,1729427969357.0,0.0
-6.357729,-6.56112,-14.340185,90.650002,151.130005,12.18,1729427969381.0,0.0
-2.792424,-2.37368,-2.976671,185.360001,171.570007,16.940001,1729427969397.0,0.0
0.887737,-7.597212,-1.40698,26.950001,156.029999,4.9,1729427969419.0,0.0
6.257231,-5.218746,9.044869,-11.06,109.550003,4.41,1729427969436.0,0.0
4.847858,-12.715459,7.350751,-33.950001,34.369999,21.629999,1729427969456.0,0.0
1.122234,-10.846665,2.677568,-23.1,-35.490002,-1.61,1729427969478.0,0.0
2.237289,-9.635897,-2.017149,4.48,-85.120003,-8.75,1729427969497.0,0.0
-0.717847,-5.558527,-10.482956,-36.68,-128.100006,-6.37,1729427969517.0,0.0
-19.075583,-8.77448,-22.612173,-119.770004,-70.279999,-12.04,1729427969537.0,0.0
-10.260423,-0.20339,-21.908682,-24.57,48.93,-0.56,1729427969556.0,0.0
-2.088934,3.804588,-16.589439,111.860001,121.099998,24.780001,1729427969580.0,0.0
-2.392823,-1.454836,-12.825529,6.72,144.339996,26.460001,1729427969598.0,0.0
-0.37328,-3.266203,-6.532406,-36.330002,158.130005,32.689999,1729427969620.0,0.0
0.323031,-9.695717,11.172089,-7.98,134.190002,49.630001,1729427969637.0,0.0
3.012564,-11.045268,12.212967,52.5,44.73,39.060001,1729427969656.0,0.0
-0.193819,-10.925629,5.781059,13.65,-49.0,9.8,1729427969680.0,0.0
2.201397,-9.12144,2.486143,-9.24,-116.830002,-11.76,1729427969696.0,0.0
-2.438286,-7.216753,-10.121639,-17.290001,-160.649994,0.7,1729427969719.0,0.0
-9.334401,-7.652246,-17.946171,-125.230003,-133.070007,18.549999,1729427969736.0,0.0
-19.951355,-8.516055,-19.594824,-185.149994,-54.950001,0.35,1729427969757.0,0.0
-5.426922,-2.536392,-16.50569,16.379999,27.51,-4.06,1729427969779.0,0.0
-1.51705,-3.505485,-14.610575,21.0,61.110001,-11.9,1729427969796.0,0.0
-0.631705,-1.804188,-14.242079,-92.889999,74.900002,-24.01,1729427969817.0,0.0
-0.598206,-6.721439,-1.418944,-56.349998,81.620003,-12.53,1729427969837.0,0.0
1.698904,-7.817351,-5.898308,17.219999,61.110001,-22.889999,1729427969856.0,0.0
4.642076,-6.293124,-3.041277,-129.220001,39.900002,-46.27,1729427969878.0,0.0
2.947958,-3.804588,-0.775275,-133.419998,8.89,-35.98,1729427969897.0,0.0
0.418744,-1.507478,-2.56032,-173.110001,-31.99,-24.360001,1729427969917.0,0.0
-1.5003,-5.367101,-6.329016,-220.220001,-63.630001,-10.22,1729427969937.0,0.0
-2.258825,-3.146562,-8.183454,-220.149994,-82.25,-18.969999,1729427969957.0,0.0
-3.299703,-0.973879,-11.143374,-246.050003,-88.410004,-22.960001,1729427969979.0,0.0
-3.431308,-1.828116,-10.853845,-177.029999,-81.199997,-7.35,1729427969996.0,0.0
-6.197411,-8.128418,-15.591633,-36.68,-69.370003,-1.26,1729427970017.0,0.0
-3.634698,-3.352344,-14.203795,36.259998,-53.34,-39.41,1729427970036.0,0.0
-4.819145,-1.055235,-16.730616,148.960007,-26.32,-15.61,1729427970057.0,0.0
-3.639483,-3.728018,-12.646068,216.440002,5.32,2.24,1729427970077.0,0.0
-3.838088,-1.237089,-8.135597,304.570007,21.98,14.07,1729427970096.0,0.0
-2.191825,-1.538585,-6.709475,358.399994,16.799999,19.879999,1729427970116.0,0.0
-1.701297,-3.706482,-7.070791,343.910004,14.7,29.26,1729427970138.0,0.0
-0.787239,-4.814359,-7.410572,336.070007,10.01,47.040001,1729427970156.0,0.0
-4.831109,-1.103091,-4.575077,312.829987,30.309999,76.230003,1729427970177.0,0.0
-3.838088,-7.554141,-2.852244,233.660004,11.69,79.730003,1729427970198.0,0.0
-5.443672,-7.068398,-4.201797,156.660004,-21.139999,49.209999,1729427970217.0,0.0
-4.625326,-9.016156,-5.876772,129.710007,-10.08,42.630001,1729427970237.0,0.0
-6.24766,-7.793423,-5.491528,125.440002,1.26,31.15,1729427970258.0,0.0
-7.487142,-6.029913,-2.986243,131.740005,-4.48,24.08,1729427970278.0,0.0
-6.209375,-10.310673,-3.804588,79.730003,-21.0,9.87,1729427970296.0,0.0
-7.597212,-6.302694,-6.24766,11.41,-3.64,13.16,1729427970319.0,0.0
-6.106483,-7.652246,-10.758131,-1.26,43.889999,-8.12,1729427970336.0,0.0
-5.539384,-7.69771,-7.826923,40.25,82.32,-5.74,1729427970357.0,0.0
-5.268995,-5.297709,-5.536992,11.62,89.669998,1.4,1729427970378.0,0.0
-3.548556,-6.711867,-3.029313,-52.849998,86.940002,-2.66,1729427970396.0,0.0
-3.534199,-8.738588,1.68694,-71.540001,77.209999,-5.95,1729427970416.0,0.0
0.066999,-9.872787,5.76431,-95.900002,49.349998,-7.63,1729427970443.0,0.0
2.196611,-9.645468,5.711668,-126.489998,3.15,-8.47,1729427970456.0,0.0
-0.59342,-9.449257,3.010171,-166.529999,-50.75,-6.65,1729427970478.0,0.0
-1.952543,-10.454242,-1.414158,-167.300003,-94.080002,-12.95,1729427970497.0,0.0
-7.063612,-12.014362,2.289931,-107.309998,-121.099998,-14.77,1729427970517.0,0.0
-4.297509,-6.039484,-11.365908,-103.389999,-138.180008,-7.84,1729427970538.0,0.0
-10.798808,-11.102697,-17.826529,-131.529999,-88.690002,5.32,1729427970560.0,0.0
-11.705689,-6.427122,-22.179073,-41.860001,-14.35,-18.41,1729427970577.0,0.0
-4.067799,0.100499,-13.804193,154.279999,58.170002,-22.68,1729427970596.0,0.0
-6.975078,-1.799403,-10.016356,88.900002,104.720001,-10.36,1729427970621.0,0.0
-2.254039,-7.250252,-15.897913,-49.420002,133.419998,-16.52,1729427970638.0,0.0
0.751346,-2.945565,-3.141776,6.79,168.839996,-0.98,1729427970656.0,0.0
-1.339981,-8.030313,13.763516,39.060001,119.279999,20.23,1729427970678.0,0.0
-1.134198,-10.614561,11.059627,20.440001,15.82,-8.96,1729427970697.0,0.0
-2.012364,-12.861421,6.108876,12.6,-78.959999,-21.629999,1729427970718.0,0.0
0.028714,-9.571291,-2.07697,-20.719999,-141.259995,-39.619999,1729427970737.0,0.0
-4.45065,-9.705289,-13.263416,-114.449997,-151.270004,-16.309999,1729427970756.0,0.0
-15.701703,-8.956335,-18.884157,-119.279999,-85.120003,-11.69,1729427970779.0,0.0
-11.799009,-0.875773,-21.544977,-15.61,14.07,0.35,1729427970797.0,0.0
-2.182254,2.754139,-16.328621,29.889999,77.980003,4.69,1729427970817.0,0.0
-2.553142,-1.74676,-14.656039,-99.050003,120.889999,-5.74,1729427970837.0,0.0
-2.201397,-4.426722,2.038685,-69.510002,165.199997,8.54,1729427970859.0,0.0
-5.82413,-10.660025,10.475778,-63.209999,102.269997,-0.28,1729427970879.0,0.0
-1.275374,-10.210175,5.635098,-133.699997,11.62,-49.420002,1729427970897.0,0.0
-2.557927,-7.611568,0.028714,-172.410004,-55.02,-67.129997,1729427970920.0,0.0
1.945365,-7.369894,-5.733203,-171.149994,-87.989998,-56.98,1729427970939.0,0.0
-2.242075,-5.79781,-10.408779,-180.320007,-108.57,-48.860001,1729427970958.0,0.0
-6.245267,-5.79781,-14.909678,-195.930008,-100.099998,-52.290001,1729427970979.0,0.0
-6.082555,0.638884,-14.892928,-144.970001,-64.889999,-42.77,1729427970998.0,0.0
-5.833702,3.065206,-10.662418,-65.169998,-28.700001,-15.68,1729427971019.0,0.0
-3.476771,1.028914,-9.74836,-9.59,-8.54,8.82,1729427971039.0,0.0
-1.627119,-1.409373,-8.446664,-36.049999,-4.41,-1.96,1729427971057.0,0.0
-2.019542,-0.921237,-11.102697,-111.720001,-5.04,-27.370001,1729427971080.0,0.0
-2.565106,-1.895115,-10.461421,-118.790001,4.2,-25.83,1729427971099.0,0.0
-3.699304,-3.625126,-7.795816,-86.590004,12.53,-11.9,1729427971118.0,0.0
-1.493121,-3.948158,-7.886744,-114.029999,11.27,-5.25,1729427971140.0,0.0
-2.813959,-7.085148,-8.638089,-48.509998,-0.35,-4.9,1729427971162.0,0.0
-4.084548,-4.307081,-7.479963,4.62,-8.96,-13.09,1729427971180.0,0.0
-3.491128,-2.275574,-8.370094,-14.56,-16.52,-8.33,1729427971199.0,0.0
-2.596212,-3.34038,-9.882358,-6.65,-21.84,4.48,1729427971221.0,0.0
-2.294717,-3.201597,-9.250652,27.58,-21.77,0.98,1729427971240.0,0.0
-2.029114,-3.311667,-8.12124,40.950001,-24.360001,-6.3,1729427971257.0,0.0
-2.459821,-2.682354,-11.334801,41.23,-36.119999,-18.129999,1729427971281.0,0.0
-4.778467,-4.37408,-10.523634,85.120003,-34.860001,-14.14,1729427971299.0,0.0
-5.974878,-5.922236,-11.095518,157.220001,-30.030001,-14.56,1729427971319.0,0.0
-6.051448,-4.0008,-12.904492,329.350006,-20.299999,-5.74,1729427971339.0,0.0
-5.213961,-0.708275,-12.282358,494.200012,7.63,11.55,1729427971358.0,0.0
-5.54417,-3.59402,-4.957928,498.959991,32.130001,38.080002,1729427971380.0,0.0
-4.945964,-1.550549,-5.032106,287.630005,18.9,16.73,1729427971400.0,0.0
-4.139583,-5.769095,-7.726424,211.610001,7.84,19.32,1729427971420.0,0.0
-5.223531,-7.89153,-7.51107,258.860016,8.4,17.219999,1729427971438.0,0.0
-7.609176,-6.02752,0.693919,307.579987,28.49,22.82,1729427971459.0,0.0
-6.60419,-6.668797,-3.885944,190.960007,24.99,7.63,1729427971482.0,0.0
-5.989235,-9.626326,-5.056034,88.059998,40.880001,0.28,1729427971497.0,0.0
-6.745367,-10.485349,-3.199204,131.740005,81.900002,6.86,1729427971520.0,0.0
-6.379266,-8.848659,-7.267002,31.5,111.650002,-10.57,1729427971538.0,0.0
-4.331009,-8.678767,-10.260423,-120.050003,127.120003,-29.4,1729427971557.0,0.0
-3.536592,-11.767902,-4.737789,-152.880005,130.619995,-28.139999,1729427971580.0,0.0
-5.06082,-8.85823,1.316052,-70.349998,130.410004,-29.82,1729427971599.0,0.0
-0.866202,-6.388836,6.381658,-95.129997,100.730003,-36.470001,1729427971622.0,0.0
2.18704,-10.662418,7.881958,-125.790001,45.57,-26.389999,1729427971638.0,0.0
0.004786,-12.078968,5.024928,-63.98,-10.57,-15.33,1729427971659.0,0.0
0.0335,-8.640482,3.287738,-46.41,-54.810001,-16.030001,1729427971680.0,0.0
-1.318445,-9.781858,-1.842474,-69.019997,-94.360001,-13.65,1729427971698.0,0.0
-6.216553,-13.158132,1.529014,-11.2,-116.340004,-17.290001,1729427971718.0,0.0
-4.405186,-5.594419,-6.159126,-57.400002,-140.210007,-17.01,1729427971739.0,0.0
-5.673382,-10.703095,-13.076776,-124.110001,-128.029999,-8.96,1729427971759.0,0.0
-7.355537,-5.4006,-18.391235,-102.480003,-84.980003,-10.15,1729427971779.0,0.0
-9.458827,-4.412365,-22.533211,-37.099998,-20.51,3.85,1729427971797.0,0.0
-7.831708,-0.882952,-11.313265,47.18,91.07,4.41,1729427971818.0,0.0
-6.321837,-2.108077,-12.411572,-20.370001,131.880005,-5.18,1729427971838.0,0.0
-4.642076,-4.26401,-8.520842,-38.220001,166.389999,16.59,1729427971858.0,0.0
-1.828116,-7.599605,-5.218746,-37.799999,163.869995,22.610001,1729427971880.0,0.0
0.20339,-6.149554,0.11007,-3.43,148.470001,18.9,1729427971897.0,0.0
2.801995,-9.920642,11.059627,67.550003,90.720001,29.4,1729427971918.0,0.0
-1.244268,-10.987842,8.094919,127.470001,2.87,20.860001,1729427971938.0,0.0
-1.103091,-11.983256,4.878965,122.919998,-80.709999,-1.89,1729427971958.0,0.0
-0.681954,-5.716454,0.129212,89.669998,-140.139999,-17.01,1729427971979.0,0.0
-3.646662,-10.363315,-12.629318,-159.039993,-164.080002,-25.76,1729427971998.0,0.0
-11.038091,-9.678967,-19.197617,-226.800003,-111.790001,-23.870001,1729427972019.0,0.0
-13.205987,-5.063213,-24.835108,-135.169998,-10.29,-16.309999,1729427972038.0,0.0
-3.620341,3.036492,-15.974483,82.389999,82.110001,4.2,1729427972058.0,0.0
-3.809374,-4.481757,-13.66541,3.22,114.660004,8.4,1729427972078.0,0.0
-1.789831,-6.427122,-9.667004,-86.800003,138.180008,-15.54,1729427972099.0,0.0
0.081356,-4.895715,-0.442672,-74.550003,150.639999,-16.1,1729427972118.0,0.0
-1.550549,-6.692725,12.380465,-1.75,100.800003,0.56,1729427972137.0,0.0
-0.981057,-9.01137,7.477571,-57.75,-28.77,-29.469999,1729427972158.0,0.0
0.306281,-7.515855,0.122034,-125.090004,-112.629997,-49.560001,1729427972181.0,0.0
-0.674776,-8.094919,-8.087741,-176.610001,-157.779999,-59.220001,1729427972197.0,0.0
-2.268396,-5.69731,-16.962721,-207.619995,-152.949997,-54.459999,1729427972218.0,0.0
-11.01177,-7.211967,-20.341385,-185.009995,-94.849998,-47.459999,1729427972238.0,0.0
-10.947165,-1.251446,-16.455442,-151.410004,-20.860001,-67.340004,1729427972259.0,0.0
-3.955336,1.820938,-15.433706,-71.120003,29.4,-61.740002,1729427972278.0,0.0
-2.667997,1.514657,-13.921442,-47.950001,62.580002,-56.630001,1729427972298.0,0.0
0.026321,1.871187,-9.040084,-87.010002,89.389999,-43.889999,1729427972318.0,0.0
1.902294,-8.13799,-3.471986,-130.759995,83.090004,-22.469999,1729427972338.0,0.0
1.306481,-5.649454,-1.349552,-106.540001,58.939999,-46.619999,1729427972357.0,0.0
1.832902,-4.058227,-3.716053,-164.639999,22.75,-63.84,1729427972378.0,0.0
1.304088,-1.988436,-5.225924,-165.550003,-7.98,-68.18,1729427972398.0,0.0
-0.119641,-1.691726,-7.948956,-153.720001,-30.870001,-53.27,1729427972419.0,0.0
-1.476372,-1.141376,-8.800802,-123.340004,-42.98,-31.99,1729427972437.0,0.0
-2.11047,-2.778067,-11.526227,-90.790001,-49.490002,-16.59,1729427972457.0,0.0
-2.289931,-4.175476,-14.732609,-62.650002,-42.490002,-12.32,1729427972487.0,0.0
-2.888137,-1.751546,-11.20798,41.439999,-20.65,-5.04,1729427972497.0,0.0
-2.199004,-3.943372,-10.803595,42.84,-15.26,-2.94,1729427972519.0,0.0
-1.11027,-3.323631,-8.827123,59.709999,-18.690001,-9.59,1729427972538.0,0.0
-0.57667,-2.931208,-8.389235,85.120003,-28.559999,-16.73,1729427972557.0,0.0
-1.081556,-1.318445,-7.91785,126.629997,-37.380001,-14.0,1729427972578.0,0.0
-2.517249,-3.804588,-10.779665,114.940002,-42.279999,-7.84,1729427972599.0,0.0
-2.974278,-4.426722,-13.481163,150.919998,-31.57,-9.8,1729427972621.0,0.0
-4.177868,-4.919643,-14.423935,290.920013,-14.14,8.75,1729427972637.0,0.0
-4.110869,-3.4672,-13.397413,457.799988,15.4,21.77,1729427972660.0,0.0
-2.371287,-0.531207,-7.68096,484.890015,32.619999,36.470001,1729427972679.0,0.0
-2.469393,-2.383251,-6.446264,314.440002,31.5,32.48,1729427972698.0,0.0
-2.510071,-8.628519,-8.286345,219.100006,9.52,24.5,1729427972719.0,0.0
-1.885544,-8.520842,-8.877372,283.640015,10.71,9.94,1729427972738.0,0.0
-3.529413,-7.429714,-3.495914,408.940002,37.869999,17.15,1729427972817.0,0.0
-5.907879,-5.120641,-0.26321,414.75,64.889999,25.41,1729427972818.0,0.0
-3.986443,-8.906086,-4.098906,133.419998,35.420002,-10.5,1729427972829.0,0.0
-4.900501,-10.260423,-4.036692,119.910004,31.85,-0.98,1729427972830.0,0.0
-6.752545,-11.511869,-5.288138,113.68,51.73,-7.77,1729427972839.0,0.0
-5.273781,-10.475778,-4.948357,63.490002,77.980003,-19.6,1729427972859.0,0.0
-3.749553,-7.860423,-2.457429,-14.14,95.620003,-29.610001,1729427972880.0,0.0
-2.175076,-13.184454,0.270389,-100.660004,80.5,-40.529999,1729427972900.0,0.0
-0.586242,-11.538191,0.914058,-141.820007,63.98,-59.5,1729427972920.0,0.0
-1.641476,-7.190433,5.62074,-174.229996,63.91,-58.170002,1729427972939.0,0.0
2.041078,-5.962914,0.246461,-285.809998,21.84,-74.059998,1729427972960.0,0.0
0.177069,-8.310273,-2.557927,-287.700012,5.39,-59.709999,1729427972982.0,0.0
0.839881,-4.996214,-2.201397,-251.440002,6.58,-50.610001,1729427972999.0,0.0
0.753739,-9.114261,-4.431508,-297.850006,3.99,-41.09,1729427973021.0,0.0
2.127219,-11.674582,-4.046263,-304.290009,-21.559999,-53.970001,1729427973040.0,0.0
-1.069592,-8.920443,-2.35693,-220.850006,-30.940001,-60.41,1729427973060.0,0.0
-1.495514,-4.347759,-3.52702,-292.390015,-67.760002,-84.629997,1729427973081.0,0.0
-0.102891,-4.371687,-11.813366,-321.860016,-79.309998,-75.879997,1729427973099.0,0.0
-1.825724,-6.317052,-14.196616,-175.979996,-57.540001,-48.439999,1729427973119.0,0.0
-2.285146,-1.502693,-8.463413,33.740002,-32.830002,-27.719999,1729427973140.0,0.0
-3.720839,3.192025,-2.505285,-59.849998,-33.459999,-15.68,1729427973159.0,0.0
-2.383251,-2.201397,-8.085347,-273.140015,-67.760002,-16.309999,1729427973181.0,0.0
-1.160519,-4.555934,-14.141582,-197.330002,-74.760002,-29.26,1729427973203.0,0.0
-3.716053,-0.241675,-4.409972,48.23,-62.860001,-10.08,1729427973220.0,0.0
-2.18704,3.110669,-5.407779,-150.080002,-79.519997,-19.460001,1729427973239.0,0.0
-0.473779,-5.424529,-14.639289,-224.0,-88.900002,-13.16,1729427973260.0,0.0
-5.266603,-6.324231,-13.277774,-100.660004,-77.840004,-46.970001,1729427973280.0,0.0
-3.596412,-3.172883,-12.064612,0.49,-59.779999,-68.879997,1729427973299.0,0.0
-2.720639,2.620141,-10.530812,-5.95,-49.91,-59.849998,1729427973320.0,0.0
-1.5003,-0.698704,-12.55514,-53.689999,-41.369999,-20.370001,1729427973339.0,0.0
-0.416351,-1.854438,-16.486549,17.290001,-25.48,-8.33,1729427973360.0,0.0
-1.605584,-4.596612,-11.198411,127.470001,-3.15,-4.83,1729427973380.0,0.0
-3.376273,-4.496114,-11.456835,139.509995,4.62,-19.6,1729427973401.0,0.0
-1.880759,-2.129612,-13.184454,99.610001,16.030001,-18.48,1729427973419.0,0.0
-2.871387,-3.926622,-10.9352,179.690002,31.360001,2.8,1729427973440.0,0.0
-3.732803,-4.127619,-9.592826,256.549988,37.310001,-4.83,1729427973460.0,0.0
-3.074777,-1.404587,-9.032906,287.140015,36.889999,-9.24,1729427973481.0,0.0
-3.347559,-1.902294,-9.664611,199.5,39.900002,-3.92,1729427973501.0,0.0
-3.182454,-5.924629,-10.052249,108.779999,44.52,-7.77,1729427973519.0,0.0
-1.600798,-7.082755,-8.575876,125.230003,44.029999,-15.61,1729427973540.0,0.0
-0.040678,-7.623533,-6.628119,158.130005,36.049999,-22.960001,1729427973561.0,0.0
-1.165305,-7.965706,-7.9346,201.669998,17.43,-23.73,1729427973581.0,0.0
-1.115055,-7.779066,-7.594819,295.75,10.01,-15.82,1729427973599.0,0.0
-3.416951,-7.116255,-2.323431,391.089996,17.639999,13.37,1729427973623.0,0.0
-5.02732,-9.45165,-3.275774,467.390015,-3.22,17.99,1729427973641.0,0.0
-4.118048,-12.157932,-2.323431,593.73999,16.1,-0.28,1729427973658.0,0.0
-7.862815,-11.889936,0.18664,625.590027,37.310001,-45.009998,1729427973683.0,0.0
-6.04427,-12.602997,0.200997,502.459991,40.880001,-73.57,1729427973699.0,0.0
-1.756332,-12.069397,-0.588634,367.779999,43.68,-92.260002,1729427973721.0,0.0
-0.650848,-9.032906,1.758725,343.420013,54.810001,-106.120003,1729427973741.0,0.0
0.416351,-7.369894,3.333202,362.950012,81.900002,-132.509995,1729427973761.0,0.0
-0.512064,-6.862615,5.60399,328.230011,80.290001,-148.190002,1729427973780.0,0.0
0.454636,-5.793024,6.032306,286.579987,62.16,-159.669998,1729427973799.0,0.0
1.304088,-2.658426,6.149554,268.589996,62.580002,-151.479996,1729427973821.0,0.0
0.112463,-3.031706,8.535198,233.169998,50.540001,-131.600006,1729427973840.0,0.0
1.548156,-4.792823,9.492328,176.190002,31.780001,-124.599998,1729427973860.0,0.0
1.194018,1.411765,9.911072,143.570007,16.940001,-123.830002,1729427973893.0,0.0
-0.507278,-0.401994,8.915657,161.279999,16.450001,-54.599998,1729427973910.0,0.0
-0.827917,-3.790231,6.142376,101.290001,-0.63,-43.68,1729427974045.0,0.0
-3.67059,-4.23051,5.615955,106.050003,18.200001,-40.880001,1729427974046.0,0.0
-1.524228,-3.814159,8.439486,106.120003,27.02,-42.0,1729427974046.0,0.0
-0.222532,-4.161119,9.10469,87.290001,8.33,-44.310001,1729427974046.0,0.0
-0.11007,-1.596013,10.985448,80.290001,9.17,-21.49,1729427974046.0,0.0
0.997807,-0.770489,10.9017,46.200001,-4.83,-18.059999,1729427974046.0,0.0
1.70369,-1.959722,8.587841,13.79,-19.389999,-9.66,1729427974066.0,0.0
0.478565,-3.323631,6.905686,-22.540001,-18.969999,0.56,1729427974069.0,0.0
-0.162712,-0.839881,6.683154,-38.849998,-3.78,-7.07,1729427974078.0,0.0
0.26321,-2.584249,4.481757,-36.400002,10.64,6.23,1729427974106.0,0.0
-0.004786,-5.632704,6.104091,-30.450001,24.219999,0.07,1729427974119.0,0.0
-1.945365,-6.015556,9.387043,26.6,34.369999,-6.79,1729427974138.0,0.0
1.540978,1.555335,12.134004,81.480003,36.330002,-0.56,1729427974160.0,0.0
-4.59422,-1.74676,10.456635,68.110001,-12.04,4.76,1729427974190.0,0.0
-1.045663,-1.261017,12.440285,32.27,17.92,33.110001,1729427974208.0,0.0
1.646262,-2.242075,10.561919,-28.49,-4.69,17.710001,1729427974220.0,0.0
2.495714,-2.378466,7.255038,-14.07,-0.56,0.84,1729427974240.0,0.0
0.531207,-3.680161,9.377472,-2.66,24.219999,6.44,1729427974260.0,0.0
1.136591,-1.612763,8.800802,-29.33,29.68,-17.15,1729427974284.0,0.0
-0.557528,-5.125426,7.647461,-20.719999,29.4,-1.68,1729427974300.0,0.0
0.595813,-8.551948,7.164111,-4.13,32.759998,-32.970001,1729427974321.0,0.0
-1.531406,-1.495514,12.32543,85.959999,50.75,-40.529999,1729427974340.0,0.0
0.284746,2.928815,10.786844,58.52,19.389999,-6.72,1729427974361.0,0.0
-3.256632,-4.151547,7.635497,21.210001,-13.02,-3.36,1729427974383.0,0.0
-1.062413,-1.545763,10.116854,55.02,24.08,-2.24,1729427974402.0,0.0
-0.055035,1.366302,10.415956,41.439999,18.76,2.8,1729427974423.0,0.0
0.421137,-0.997807,8.547162,-3.29,5.18,11.13,1729427974441.0,0.0
-0.679562,-3.225525,9.209974,-35.279999,10.08,25.059999,1729427974461.0,0.0
-1.371087,-3.589234,9.047262,-47.670002,6.72,0.63,1729427974485.0,0.0
-1.454836,-3.974478,10.152746,-34.720001,7.56,2.17,1729427974502.0,0.0
0.308674,-3.76391,9.444471,-61.18,-6.79,-19.040001,1729427974522.0,0.0
-1.87358,-3.309274,10.147961,-31.85,-5.81,-12.53,1729427974541.0,0.0
-1.445265,2.309074,10.717452,29.4,-6.79,0.7,1729427974560.0,0.0
-1.770689,-0.088534,10.662418,46.759998,-22.120001,22.469999,1729427974585.0,0.0
-4.359723,-3.168097,10.655239,10.57,-29.120001,10.5,1729427974601.0,0.0
-1.294517,-2.581856,10.837094,-31.219999,-16.870001,13.09,1729427974624.0,0.0
1.268196,0.90688,11.143374,-91.209999,-25.48,21.210001,1729427974642.0,0.0
1.79701,-1.931008,6.113662,-178.919998,-42.07,27.93,1729427974662.0,0.0
-1.150948,-6.723832,7.953743,-228.759995,-39.130001,29.889999,1729427974683.0,0.0
-1.150948,-3.151347,7.164111,-207.690002,-24.08,5.32,1729427974704.0,0.0
-0.870987,-1.129412,6.496514,-216.369995,-11.55,21.0,1729427974722.0,0.0
-0.887737,-2.067399,5.819345,-283.920013,-11.97,31.780001,1729427974741.0,0.0
-0.411566,-7.166504,5.79781,-318.360016,-33.110001,38.150002,1729427974761.0,0.0
1.399801,-5.79063,5.623133,-269.709991,-14.42,36.75,1729427974784.0,0.0
-2.316252,-0.636491,3.397808,-265.440002,20.16,65.660004,1729427974801.0,0.0
-3.172883,-4.792823,0.332602,-432.529999,13.72,80.709999,1729427974822.0,0.0
1.564906,-12.466606,-3.756732,-738.359985,-10.78,32.27,1729427974841.0,0.0
1.799403,-16.603796,-4.469792,-805.0,-28.559999,-25.34,1729427974862.0,0.0
-0.222532,-6.585048,-7.276574,-523.73999,-35.349998,-25.76,1729427974883.0,0.0
0.555135,-6.558727,-8.865408,-466.970001,-22.75,-18.48,1729427974902.0,0.0
0.540778,-12.58864,-5.773881,-414.470001,-5.6,-17.57,1729427975045.0,0.0
-2.136791,-12.143576,-4.567898,-233.729996,-13.37,2.03,1729427975050.0,0.0
-3.452843,-11.92822,-6.553941,-175.279999,-20.02,-23.379999,1729427975053.0,0.0
-3.144169,-13.517055,-9.966106,-73.360001,-21.629999,-19.74,1729427975053.0,0.0
-1.057628,-9.054441,-5.548956,60.48,3.22,-12.6,1729427975054.0,0.0
1.079163,-7.692925,-4.101298,79.449997,7.07,6.02,1729427975054.0,0.0
2.677568,-9.77468,-3.658626,17.15,2.31,11.76,1729427975054.0,0.0
2.742175,-10.320245,-2.481357,23.030001,-6.93,8.12,1729427975060.0,0.0
0.282353,-6.881758,-0.588634,78.959999,-27.299999,9.94,1729427975081.0,0.0
0.751346,-4.972286,0.222532,77.07,-60.200001,14.84,1729427975189.0,0.0
-1.399801,-6.963113,0.229711,-27.719999,-96.389999,16.870001,1729427975193.0,0.0
-2.132005,-6.331409,-6.649654,-95.970001,-127.400002,12.25,1729427975195.0,0.0
-5.278566,-9.183653,-17.996418,-99.330002,-105.559998,28.77,1729427975196.0,0.0
-11.650653,-11.739187,-19.929819,-54.110001,-19.460001,15.05,1729427975197.0,0.0
-3.053242,-5.726025,-11.301301,83.160004,45.779999,-3.78,1729427975203.0,0.0
-1.363909,-6.080163,-11.765509,74.900002,63.139999,-7.28,1729427975220.0,0.0
-0.87338,-6.116055,-11.169697,5.18,93.169998,-1.4,1729427975240.0,0.0
1.371087,-8.226524,-1.284946,-34.23,110.669998,4.76,1729427975259.0,0.0
0.844666,-12.765708,7.161718,66.5,79.239998,15.05,1729427975282.0,0.0
2.28036,-12.234503,5.776274,35.630001,26.18,-19.74,1729427975300.0,0.0
1.531406,-11.598011,3.725625,-33.950001,-27.58,-30.450001,1729427975319.0,0.0
2.773281,-9.054441,-2.17029,-13.79,-75.669998,-33.880001,1729427975339.0,0.0
1.39023,-7.051648,-12.918849,-65.449997,-110.32,-13.440001,1729427975362.0,0.0
-10.351351,-12.765708,-10.688738,-53.549999,-73.290001,-3.92,1729427975384.0,0.0
-12.026326,-4.797609,-15.713666,-36.400002,-21.629999,-22.469999,1729427975400.0,0.0
-2.179861,-2.658426,-13.77548,27.02,28.700001,-14.84,1729427975421.0,0.0
-0.844666,-3.232704,-11.026128,20.58,55.16,-0.35,1729427975441.0,0.0
-0.325424,-4.165904,-7.578069,-31.57,69.93,5.32,1729427975460.0,0.0
-0.224925,-6.601797,-6.690332,-43.259998,70.559998,3.92,1729427975483.0,0.0
2.167897,-8.362915,2.861816,-6.93,62.16,5.6,1729427975500.0,0.0
1.557728,-13.03849,3.9673,36.049999,13.93,-2.94,1729427975522.0,0.0
-0.827917,-10.633704,1.651048,15.47,-28.210001,-23.799999,1729427975542.0,0.0
3.194418,-10.882557,-1.698904,-31.15,-65.870003,-29.049999,1729427975562.0,0.0
3.550949,-6.805188,-2.45025,-13.09,-88.480003,-24.219999,1729427975581.0,0.0
1.363909,-7.322037,-11.64826,-55.510002,-103.949997,-4.62,1729427975601.0,0.0
-10.037891,-11.124231,-8.65484,-103.529999,-85.889999,-3.43,1729427975624.0,0.0
-10.633704,-5.891129,-17.814566,-175.139999,-42.77,-25.34,1729427975642.0,0.0
-4.618148,-6.283553,-16.508083,-100.730003,32.41,-15.4,1729427975662.0,0.0
-3.089134,-5.869594,-9.781858,-22.889999,70.139999,-12.39,1729427975681.0,0.0
-1.667797,-5.754738,-5.376673,1.75,81.480003,-23.940001,1729427975700.0,0.0
-0.72024,-2.663212,-5.096712,-85.540001,79.590004,-38.920002,1729427975723.0,0.0
2.366502,-8.657232,-1.830509,-147.559998,58.099998,-37.869999,1729427975740.0,0.0
1.4668,-3.962514,-2.56032,-113.75,22.469999,-55.93,1729427975760.0,0.0
3.885944,-4.469792,-5.489135,-173.039993,-3.01,-52.920002,1729427975781.0,0.0
2.749353,-2.962314,-5.737988,-174.089996,-24.5,-42.07,1729427975800.0,0.0
1.78026,-2.864209,-7.743174,-169.820007,-35.700001,-25.549999,1729427975822.0,0.0
0.969093,-3.314059,-9.401401,-185.009995,-41.09,-20.93,1729427975842.0,0.0
0.265603,-2.828316,-9.853643,-176.190002,-45.080002,-25.41,1729427975859.0,0.0
-0.375673,-2.268396,-10.274779,-122.849998,-45.849998,-20.719999,1729427975882.0,0.0
-0.904487,-3.771089,-10.375278,-106.540001,-42.630001,-18.27,1729427975902.0,0.0
-0.918844,-4.342973,-9.662218,-83.019997,-39.619999,-18.129999,1729427975920.0,0.0
-1.430908,-5.008178,-9.049655,-50.259998,-40.670002,-16.59,1729427975942.0,0.0
-1.29691,-5.465207,-12.284752,-17.99,-39.200001,-22.4,1729427975960.0,0.0
-0.614955,-3.462414,-11.973685,38.080002,-26.67,-18.690001,1729427975983.0,0.0
-0.433101,-2.706282,-9.987641,67.690002,-18.27,-4.76,1729427975999.0,0.0
-0.696311,-2.89053,-10.755738,87.290001,-20.02,9.38,1729427976021.0,0.0
-1.349552,-2.141576,-10.987842,88.830002,-18.76,10.71,1729427976040.0,0.0
-1.397408,-3.270989,-10.432706,95.760002,-13.79,14.35,1729427976060.0,0.0
-1.088734,-3.964907,-10.064213,137.059998,-10.85,11.27,1729427976083.0,0.0
-1.184447,-3.17049,-9.336794,183.539993,-8.68,8.89,1729427976101.0,0.0
-1.502693,-3.629912,-8.271988,166.389999,-6.02,4.9,1729427976120.0,0.0
-1.85683,-4.386044,-7.611568,94.080002,-4.62,-2.87,1729427976140.0,0.0
-2.62732,-5.613562,-7.379465,21.91,-5.74,-12.46,1729427976162.0,0.0
-1.741975,-5.958128,-8.405986,-4.48,-9.87,-23.24,1729427976181.0,0.0
-1.368695,-4.402793,-8.879765,-0.42,-6.86,-24.710001,1729427976202.0,0.0
-1.050449,-4.759324,-9.851252,-25.200001,-6.02,-21.139999,1729427976221.0,0.0
-1.09352,-4.579862,-8.796017,-17.290001,-1.89,-18.200001,1729427976240.0,0.0
-1.057628,-5.144568,-9.293723,-20.58,-1.68,-15.4,1729427976262.0,0.0
-0.909273,-4.510471,-9.099905,-17.639999,3.5,-14.21,1729427976282.0,0.0
-0.976272,-5.228317,-8.585447,-15.05,5.6,-13.02,1729427976302.0,0.0
-0.562313,-5.489135,-9.245867,-10.43,5.04,-15.61,1729427976321.0,0.0
-0.973879,-4.802395,-9.686146,17.01,5.67,-17.219999,1729427976340.0,0.0
-1.351945,-5.111069,-8.815158,58.310001,7.84,-13.09,1729427976362.0,0.0
-1.51705,-5.948557,-11.550155,89.040001,7.98,-11.41,1729427976381.0,0.0
-1.40698,-6.668797,-11.033305,179.619995,14.21,-11.27,1729427976401.0,0.0
-0.133998,-4.522435,-10.549955,285.110016,23.17,-12.88,1729427976420.0,0.0
0.291924,-6.594619,-9.410972,369.179993,32.41,10.01,1729427976442.0,0.0
-0.722632,-7.60439,-6.089733,442.820007,34.16,25.9,1729427976462.0,0.0
-1.308874,-3.292524,2.959922,450.869995,55.720001,29.120001,1729427976484.0,0.0
-3.888337,-4.577469,1.718047,240.309998,41.439999,42.700001,1729427976502.0,0.0
-3.692125,-12.952348,-3.105884,69.790001,5.46,18.34,1729427976520.0,0.0
-2.127219,-12.686745,-4.022335,118.790001,8.89,19.809999,1729427976542.0,0.0
-3.988836,-9.817751,-5.123034,148.539993,36.119999,14.91,1729427976562.0,0.0
-1.761117,-10.449455,-6.460621,149.660004,44.380001,1.4,1729427976582.0,0.0
-2.701497,-11.363515,-4.220939,147.630005,84.07,-6.65,1729427976600.0,0.0
-1.457229,-10.025927,-3.912265,100.590004,84.699997,-15.82,1729427976623.0,0.0
-0.598206,-7.534998,0.856631,90.860001,88.269997,-7.98,1729427976641.0,0.0
-1.761117,-8.769694,4.237689,78.610001,55.369999,-9.94,1729427976661.0,0.0
-0.921237,-5.651847,2.849852,-1.96,38.990002,-19.67,1729427976682.0,0.0
2.70389,-8.190632,1.674976,-120.470001,14.28,-14.14,1729427976699.0,0.0
-1.239482,-8.99462,0.930808,-158.479996,21.77,12.53,1729427976720.0,0.0
1.294517,-7.034898,2.818745,-212.940002,-0.63,-2.38,1729427976740.0,0.0
-0.366102,-9.698111,-1.799403,-270.130005,-23.73,-5.39,1729427976759.0,0.0
-0.758525,-10.135997,-5.548956,-312.76001,-39.060001,-19.6,1729427976782.0,0.0
-1.222732,-8.382057,-4.177868,-224.139999,-37.52,-16.940001,1729427976801.0,0.0
-1.366302,-4.826324,-0.583849,-238.350006,-38.150002,-16.799999,1729427976820.0,0.0
-0.926022,-6.632904,-6.360123,-335.160004,-75.599998,-32.48,1729427976841.0,0.0
-0.969093,-6.912865,-10.736595,-304.920013,-85.610001,-23.799999,1729427976861.0,0.0
-1.316052,-6.71426,-11.229517,-220.710007,-74.830002,-17.01,1729427976882.0,0.0
-2.342573,-5.800202,-9.090333,-155.050003,-55.510002,-13.86,1729427976899.0,0.0
-2.663212,-3.546163,-7.439285,-145.110001,-44.59,-12.11,1729427976928.0,0.0
-2.146362,-6.017949,-9.346365,-158.619995,-45.990002,-9.59,1729427976941.0,0.0
-0.926022,-5.972485,-11.193624,-122.150002,-38.290001,-15.47,1729427976961.0,0.0
-1.007378,-5.793024,-11.930614,-97.300003,-22.4,-21.280001,1729427976982.0,0.0
-1.952543,-3.347559,-8.573483,-109.620003,-8.61,-20.790001,1729427977001.0,0.0
-1.404587,-3.495914,-9.327222,-95.830002,-10.43,-10.57,1729427977022.0,0.0
-0.320638,-4.780859,-9.24108,-76.370003,-6.72,-9.87,1729427977041.0,0.0
-2.866602,-3.704089,-6.809973,-66.919998,-12.04,-16.309999,1729427977063.0,0.0
-3.048456,-3.309274,-8.350951,-36.610001,-20.719999,-13.440001,1729427977082.0,0.0
-1.629512,-3.835695,-9.391829,-20.65,-23.309999,-7.98,1729427977104.0,0.0
-1.639083,-3.787838,-12.210573,-35.77,-22.540001,-11.48,1729427977122.0,0.0
-1.5003,-2.620141,-13.026526,-36.259998,-11.9,-19.879999,1729427977143.0,0.0
-1.397408,-2.091327,-10.10489,-26.18,2.52,-16.73,1729427977163.0,0.0
-1.239482,-2.462214,-6.800402,-3.43,3.43,-6.23,1729427977182.0,0.0
-1.51705,-3.98405,-8.453842,-4.27,-5.25,0.7,1729427977201.0,0.0
-1.457229,-3.651447,-8.568698,-19.67,-9.87,-3.92,1729427977222.0,0.0
-2.122434,-3.012564,-9.071191,-19.389999,-11.62,-5.04,1729427977242.0,0.0
-2.108077,-1.478764,-7.283752,-23.030001,-16.379999,-2.03,1729427977261.0,0.0
-2.517249,-2.684747,-8.520842,-34.369999,-25.690001,6.02,1729427977283.0,0.0
-0.272782,-2.242075,-11.672189,-57.400002,-29.82,0.35,1729427977301.0,0.0
-1.294517,-2.89053,-10.368099,-62.860001,-16.52,-1.68,1729427977323.0,0.0
-1.792224,-6.21416,-10.506885,-100.660004,-10.29,-18.48,1729427977343.0,0.0
-2.828316,-4.85743,-10.736595,-108.150002,-12.11,-46.34,1729427977361.0,0.0
-3.756732,-4.555934,-9.288938,-80.220001,-13.23,-50.189999,1729427977384.0,0.0
-3.227918,-3.345166,-8.9348,-24.5,-17.219999,-43.330002,1729427977403.0,0.0
-2.734996,-2.696711,-10.801201,48.580002,-16.940001,-31.08,1729427977423.0,0.0
-2.120041,-1.189233,-12.227324,45.43,-7.49,-31.639999,1729427977442.0,0.0
-2.289931,-2.622534,-8.449057,19.040001,3.64,-30.17,1729427977462.0,0.0
-2.443072,-2.866602,-7.999206,26.460001,-0.91,-33.18,1729427977483.0,0.0
-2.287539,-3.4672,-11.358729,61.740002,-5.53,-30.24,1729427977504.0,0.0
-2.148755,-4.297509,-14.098512,149.589996,-5.53,-29.4,1729427977524.0,0.0
-1.569692,-2.024328,-13.103097,261.519989,15.68,-32.830002,1729427977543.0,0.0
-1.710868,-0.09332,-6.429514,215.180008,27.299999,-30.73,1729427977562.0,0.0
-2.380858,-3.830909,-6.18784,69.650002,15.26,-20.23,1729427977585.0,0.0
-1.028914,-8.55434,-11.947363,157.009995,7.49,-19.25,1729427977603.0,0.0
-1.868794,-7.932207,-10.368099,281.119995,17.43,-28.07,1729427977626.0,0.0
-3.37388,-5.484349,-9.133404,334.880005,28.98,-33.32,1729427977646.0,0.0
-3.136991,-2.981457,-9.521042,402.429993,29.82,-16.1,1729427977663.0,0.0
-4.45065,-5.556134,-8.559127,512.119995,48.720001,16.870001,1729427977685.0,0.0
-5.441278,-6.02752,-8.898908,460.390015,84.349998,7.07,1729427977703.0,0.0
-6.338587,-7.523034,-6.862615,234.009995,99.470001,-24.08,1729427977724.0,0.0
-3.804588,-6.45105,-5.096712,120.610001,111.300003,-34.16,1729427977804.0,0.0
-1.744368,-4.323831,-4.500899,73.709999,128.800003,-17.15,1729427977810.0,0.0
-4.438686,-6.364908,-2.079363,4.34,144.550003,7.42,1729427977812.0,0.0
-3.125026,-7.733603,-3.053242,4.06,137.199997,12.88,1729427977814.0,0.0
-1.89033,-7.905886,-3.256632,25.41,152.389999,28.07,1729427977839.0,0.0
-0.739382,-10.963913,-0.607777,-16.799999,166.039993,33.880001,1729427977842.0,0.0
1.158126,-11.499906,5.74756,-27.51,137.339996,42.349998,1729427977862.0,0.0
2.59382,-7.915457,8.908479,-57.330002,98.349998,25.41,1729427977886.0,0.0
1.892723,-10.573883,5.613562,-132.089996,24.360001,13.440001,1729427977904.0,0.0
2.89053,-10.805987,3.022135,-119.139999,-28.559999,11.06,1729427977922.0,0.0
0.148355,-14.414362,0.028714,-113.330002,-102.410004,-10.64,1729427977943.0,0.0
2.57707,-8.597411,-3.476771,-107.870003,-142.309998,-45.849998,1729427977963.0,0.0
-6.075377,-11.358729,-3.823731,-118.860001,-144.899994,-43.470001,1729427977984.0,0.0
-10.762917,-8.405986,-17.290537,-144.830002,-101.57,-48.720001,1729427978002.0,0.0
-12.090932,-6.04427,-22.74378,-161.419998,-2.73,-28.0,1729427978022.0,0.0
-3.955336,-3.294917,-14.526826,5.88,69.230003,3.71,1729427978042.0,0.0
-1.071985,-2.742175,-15.031711,47.880001,109.900002,-2.24,1729427978063.0,0.0
-2.012364,-2.500499,-6.063413,12.46,127.400002,3.64,1729427978084.0,0.0
1.246661,-3.814159,-3.716053,-72.730003,117.110001,7.42,1729427978117.0,0.0
4.242475,-6.65444,3.955336,-59.360001,97.860001,19.530001,1729427978130.0,0.0
0.074178,-11.54537,6.972685,-27.02,42.279999,22.33,1729427978142.0,0.0
1.938186,-13.222737,2.952743,-73.010002,-30.030001,-15.54,1729427978162.0,0.0
1.622334,-9.600004,2.672783,-98.629997,-79.379997,-39.200001,1729427978183.0,0.0
4.290331,-7.60439,-1.227518,-107.520004,-122.010002,-34.580002,1729427978202.0,0.0
3.055635,-6.690332,-3.266203,-28.630001,-150.360001,-2.8,1729427978222.0,0.0
-0.540778,-7.905886,-5.024928,48.09,-169.889999,34.16,1729427978242.0,0.0
-11.021341,-11.346765,-22.107286,14.35,-169.190002,27.09,1729427978262.0,0.0
-7.743174,-10.616954,-22.00679,43.400002,-55.23,1.61,1729427978283.0,0.0
-6.362515,-3.845266,-17.170895,176.190002,51.450001,15.26,1729427978302.0,0.0
-3.160919,-5.493921,-9.918249,226.449997,103.669998,7.14,1729427978322.0,0.0
-2.354537,-4.48415,-4.833502,141.330002,125.090004,9.03,1729427978342.0,0.0
0.952343,-6.754939,-3.65384,18.27,118.860001,-14.77,1729427978362.0,0.0
0.567099,-5.869594,10.920842,38.43,103.669998,14.84,1729427978382.0,0.0
2.318645,-10.066606,8.02792,41.439999,24.43,10.99,1729427978402.0,0.0
2.701497,-8.513663,5.261817,49.139999,-32.34,9.66,1729427978423.0,0.0
1.708475,-10.466206,2.76371,14.63,-87.150002,10.15,1729427978447.0,0.0
2.045863,-7.793423,-3.74716,8.96,-128.660004,20.93,1729427978467.0,0.0
-15.933806,-14.017156,-12.234503,-0.91,-134.119995,39.41,1729427978518.0,0.0
-6.218946,-7.893922,-19.135403,47.25,-18.129999,-33.389999,1729427978617.0,0.0
-3.986443,-6.379266,-14.086546,149.940002,83.580002,-3.08,1729427978620.0,0.0
-1.885544,-5.649454,-10.403993,125.650002,131.949997,-9.38,1729427978622.0,0.0
-2.895315,-6.642475,-5.726025,-5.67,160.649994,-3.99,1729427978623.0,0.0
1.222732,-4.079762,5.833702,-14.63,156.100006,-11.69,1729427978626.0,0.0
1.462015,-7.393822,16.063019,2.03,84.559998,6.72,1729427978627.0,0.0
1.153341,-9.75793,9.556933,-13.37,-14.49,9.52,1729427978641.0,0.0
0.969093,-11.073983,4.673182,-29.75,-81.550003,2.17,1729427978661.0,0.0
-0.019143,-11.334801,2.708675,-42.77,-135.869995,-10.29,1729427978681.0,0.0
-1.191626,-9.233903,-9.004191,-94.010002,-166.529999,-8.61,1729427978700.0,0.0
-8.405986,-14.469398,-12.229716,-147.0,-129.080002,-8.89,1729427978722.0,0.0
-12.677175,-11.066804,-19.487146,-150.289993,-49.700001,-31.92,1729427978740.0,0.0
-8.796017,-4.216154,-16.139589,-77.419998,52.779999,-17.85,1729427978761.0,0.0
-3.010171,-1.969293,-16.311872,-47.810001,111.090004,3.36,1729427978784.0,0.0
-4.127619,-6.142376,-13.320844,-80.5,140.070007,11.27,1729427978801.0,0.0
-0.655633,-2.586641,-7.558927,-70.07,159.460007,1.19,1729427978821.0,0.0
1.442872,-6.209375,2.033899,-70.840004,151.830002,19.6,1729427978843.0,0.0
0.052642,-9.181261,7.898707,5.25,100.519997,17.780001,1729427978862.0,0.0
4.15394,-10.415956,9.432507,15.75,25.969999,6.02,1729427978884.0,0.0
2.883351,-9.296116,5.4341,-10.92,-46.41,-15.12,1729427978902.0,0.0
4.627719,-13.215559,-3.098706,-40.740002,-102.480003,-16.1,1729427978924.0,0.0
-2.210968,-10.951948,-3.842873,-14.91,-110.669998,-39.759998,1729427978941.0,0.0
-7.118648,-8.963513,-14.799608,-105.910004,-119.209999,-37.099998,1729427978969.0,0.0
-11.210374,-3.567699,-19.338793,-77.07,-63.07,-8.12,1729427978991.0,0.0
-8.508877,-2.720639,-17.060825,-52.150002,14.28,23.66,1729427979001.0,0.0
-3.57727,-3.460021,-10.884951,10.36,72.239998,35.84,1729427979022.0,0.0
-3.024528,-1.074377,-10.028319,-65.099998,87.779999,14.0,1729427979043.0,0.0
0.715454,-4.797609,-11.62194,-160.020004,86.519997,9.52,1729427979061.0,0.0
2.830709,-5.391029,-4.472186,-142.940002,92.330002,10.01,1729427979087.0,0.0
-1.808974,-10.195816,-1.868794,-58.450001,73.639999,6.51,1729427979104.0,0.0
0.98345,-10.9017,-1.607977,-75.599998,41.509998,-27.58,1729427979123.0,0.0
0.849452,-8.341379,-2.208575,-107.660004,1.89,-65.449997,1729427979142.0,0.0
0.315853,-6.848258,-4.744967,-141.470001,-30.450001,-80.849998,1729427979162.0,0.0
-0.866202,-5.041678,-8.169096,-157.779999,-45.779999,-84.419998,1729427979195.0,0.0
-1.615155,-4.924429,-9.164511,-167.089996,-42.77,-79.029999,1729427979203.0,0.0
-1.866402,-1.76351,-9.458827,-146.720001,-38.360001,-76.300003,1729427979222.0,0.0
0.815953,1.122234,-12.983455,-179.199997,-27.790001,-53.689999,1729427979242.0,0.0
1.679761,-5.161318,-11.380265,-176.889999,-14.49,-19.809999,1729427979264.0,0.0
-0.057428,0.325424,-6.424729,-40.880001,-17.360001,-5.39,1729427979294.0,0.0
-1.344766,-2.682354,-4.599005,-7.14,-33.25,19.67,1729427979308.0,0.0
-2.141576,-4.936393,-4.201797,-23.030001,-60.900002,16.17,1729427979327.0,0.0
-2.069792,-4.663611,-8.865408,-44.450001,-86.029999,-5.53,1729427979344.0,0.0
-1.208375,-5.955735,-13.253844,-53.970001,-86.309998,-20.02,1729427979366.0,0.0
-1.306481,-4.768896,-14.756538,-15.26,-68.669998,-33.670002,1729427979388.0,0.0
-1.622334,-2.400001,-11.839686,52.920002,-49.139999,-29.469999,1729427979404.0,0.0
-1.835295,-2.519642,-11.270195,95.059998,-40.18,-15.05,1729427979424.0,0.0
-2.115255,-3.309274,-10.207782,114.520004,-36.82,-11.62,1729427979445.0,0.0
-2.344966,-3.842873,-11.703296,135.029999,-36.189999,-10.78,1729427979464.0,0.0
-3.988836,-6.118448,-14.141582,173.740005,-21.629999,-17.99,1729427979485.0,0.0
-3.663411,-5.565705,-14.431112,295.049988,8.54,-19.950001,1729427979504.0,0.0
-3.345166,-0.428315,-7.805387,400.119995,40.950001,-17.08,1729427979524.0,0.0
-3.122634,-3.266203,-4.981857,263.690002,55.09,4.2,1729427979544.0,0.0
-1.378266,-10.021141,-6.829116,177.240005,34.790001,6.37,1729427979563.0,0.0
0.416351,-9.896714,-7.843673,265.649994,26.18,0.28,1729427979584.0,0.0
0.464208,-4.223332,-3.172883,315.839996,42.349998,-3.57,1729427979603.0,0.0
-1.940579,-6.695118,-2.012364,197.330002,31.219999,3.5,1729427979627.0,0.0
-1.062413,-9.444471,-4.479364,91.279999,1.89,-2.17,1729427979645.0,0.0
-0.538385,-11.066804,-4.685147,168.839996,-8.82,0.28,1729427979663.0,0.0
-1.445265,-8.54477,-2.885744,276.290009,11.97,-3.99,1729427979690.0,0.0
-2.069792,-7.475177,-0.708275,275.170013,22.540001,-0.35,1729427979703.0,0.0
-1.722832,-7.243074,-1.536192,195.509995,10.78,-9.1,1729427979723.0,0.0
-2.629712,-7.353144,-2.179861,132.860001,11.48,-3.57,1729427979745.0,0.0
-4.378866,-9.202796,-3.888337,84.629997,12.32,-0.14,1729427979762.0,0.0
-3.739982,-9.623933,-1.840081,104.580002,15.82,-5.39,1729427979784.0,0.0
-2.335395,-8.810372,1.071985,100.870003,29.469999,-5.39,1729427979804.0,0.0
-3.361916,-9.456435,-0.758525,-13.440001,23.73,8.05,1729427979823.0,0.0
-4.689932,-13.526627,-4.457829,-80.989998,21.91,-7.77,1729427979843.0,0.0
-3.378666,-9.111869,-2.510071,-51.799999,66.010002,-22.960001,1729427979863.0,0.0
-2.778067,-8.843873,-2.266003,-93.590004,107.940002,-20.51,1729427979883.0,0.0
-2.342573,-8.535198,-0.277567,-115.919998,103.809998,-13.93,1729427979903.0,0.0
-2.067399,-16.041483,1.954936,-119.349998,91.559998,-17.57,1729427979925.0,0.0
1.301696,-4.376472,3.699304,-156.660004,72.099998,-47.740002,1729427979943.0,0.0
0.825524,-4.943572,2.998207,-194.740005,52.639999,-23.030001,1729427979963.0,0.0
-0.260818,-6.235696,2.261217,-247.240005,24.290001,-9.59,1729427979984.0,0.0
0.069392,-8.018349,0.739382,-305.899994,1.68,-22.33,1729427980002.0,0.0
0.89013,-9.623933,-2.854637,-370.369995,-31.43,-42.349998,1729427980023.0,0.0
0.0335,-8.082954,-4.733003,-315.559998,-48.860001,-55.860001,1729427980045.0,0.0
-1.811367,-6.558727,-3.63709,-291.619995,-55.93,-56.209999,1729427980063.0,0.0
-2.589034,-5.426922,-5.680561,-314.860016,-71.120003,-51.029999,1729427980084.0,0.0
-1.514657,-6.699903,-16.201803,-292.459991,-79.519997,-49.349998,1729427980104.0,0.0
-1.787439,-8.056634,-14.148761,-95.059998,-46.34,-30.24,1729427980124.0,0.0
-1.447658,-2.163112,-6.183054,42.700001,-17.57,-28.07,1729427980143.0,0.0
-2.505285,-3.364309,-6.829116,-96.809998,-24.780001,-28.49,1729427980164.0,0.0
-0.942772,-4.400401,-5.692525,-168.139999,-43.189999,-31.360001,1729427980184.0,0.0
-0.51685,-5.412565,-9.518648,-126.419998,-56.98,-34.299999,1729427980203.0,0.0
-1.698904,-3.668197,-9.812965,-33.25,-53.48,-34.93,1729427980224.0,0.0
-3.18724,-3.251846,-10.772489,-47.18,-45.709999,-27.51,1729427980243.0,0.0
-0.064606,-0.885344,-6.489335,-96.529999,-44.869999,-28.91,1729427980263.0,0.0
0.574277,-1.404587,-9.133404,-154.699997,-56.700001,-21.84,1729427980284.0,0.0
-5.075177,-13.450057,-10.583455,-129.570007,-61.25,-41.369999,1729427980304.0,0.0
-3.656233,-0.861416,-9.131011,-26.6,-57.540001,-86.239998,1729427980324.0,0.0
-2.340181,0.122034,-10.061819,-56.07,-49.560001,-61.599998,1729427980344.0,0.0
-0.985843,-1.694118,-12.181859,-74.269997,-46.060001,-39.689999,1729427980363.0,0.0
-1.488336,-2.859423,-14.756538,-13.37,-32.549999,-27.440001,1729427980386.0,0.0
-2.261217,-3.845266,-12.100503,66.709999,-13.09,-33.810001,1729427980404.0,0.0
-3.002992,0.385244,-9.272188,92.75,-2.17,-41.439999,1729427980423.0,0.0
-1.897508,-0.842274,-11.475977,69.160004,4.76,-20.719999,1729427980443.0,0.0
-1.18684,-6.577869,-15.050854,84.629997,18.059999,-14.98,1729427980463.0,0.0
-0.768096,-4.26401,-7.980063,174.300003,27.23,-30.940001,1729427980485.0,0.0
-2.691926,0.062213,-6.503692,172.410004,23.870001,-30.52,1729427980503.0,0.0
-2.471786,-4.898108,-9.370294,42.98,21.559999,-19.74,1729427980524.0,0.0
-1.064806,-5.838487,-9.430114,121.940002,20.299999,-28.280001,1729427980544.0,0.0
-4.850252,-1.806581,-8.712267,248.990005,38.5,-14.77,1729427980563.0,0.0
-3.115455,-2.378466,-9.401401,233.660004,44.52,2.17,1729427980584.0,0.0
-1.445265,-4.532006,-9.60479,122.290001,47.950001,11.48,1729427980604.0,0.0
-0.758525,-5.71406,-6.520442,133.279999,46.759998,20.02,1729427980626.0,0.0
-1.880759,-5.123034,-5.692525,183.539993,42.490002,28.280001,1729427980643.0,0.0
-4.759324,-8.279166,-9.233903,176.889999,45.779999,25.200001,1729427980662.0,0.0
-6.537192,-9.147761,-8.953942,137.690002,63.700001,22.75,1729427980686.0,0.0
-2.411965,-6.084948,-8.336594,71.330002,60.619999,-2.31,1729427980703.0,0.0
-0.480957,-6.829116,-8.982656,74.129997,82.110001,-8.05,1729427980724.0,0.0
-2.955136,-3.311667,-4.173083,133.0,111.650002,28.84,1729427980743.0,0.0
-3.991228,-10.231709,-6.874579,63.91,109.410004,46.619999,1729427980763.0,0.0
-1.177269,-7.702496,-3.845266,67.760002,123.129997,28.49,1729427980787.0,0.0
1.842474,-6.065805,5.759524,69.510002,112.07,38.43,1729427980803.0,0.0
4.728218,-11.22473,6.240481,7.98,50.889999,32.060001,1729427980824.0,0.0
3.282953,-11.272588,5.438886,9.24,8.05,25.34,1729427980843.0,0.0
3.608376,-8.985049,-1.727618,-41.580002,-45.709999,10.57,1729427980862.0,0.0
0.634098,-8.178668,-3.507878,-71.400002,-109.620003,-6.23,1729427980884.0,0.0
-6.695118,-13.024135,-16.912472,-94.5,-96.389999,-1.26,1729427980902.0,0.0
-13.686946,-11.940186,-16.97229,-64.400002,-17.639999,-12.46,1729427980923.0,0.0
-7.250252,-2.85703,-12.679568,10.36,47.880001,-20.440001,1729427980943.0,0.0
-0.038285,-4.819145,-8.441878,-22.610001,63.77,-7.91,1729427980962.0,0.0
-2.007578,-6.288338,-9.619147,-75.739998,65.870003,-5.32,1729427980984.0,0.0
-0.830309,-4.843073,-10.377672,-62.650002,82.949997,-6.3,1729427981010.0,0.0
0.270389,-6.24766,-3.469593,-33.950001,95.690002,8.89,1729427981023.0,0.0
0.928415,-7.295716,1.275374,22.82,76.160004,24.92,1729427981042.0,0.0
3.321238,-10.693524,-1.569692,-3.99,40.810001,14.49,1729427981064.0,0.0
4.388437,-12.110075,0.155533,1.47,17.99,2.94,1729427981086.0,0.0
1.160519,-8.480164,0.691526,10.5,-8.47,-11.69,1729427981104.0,0.0
2.155933,-9.52822,0.528814,-28.07,-42.07,-15.190001,1729427981123.0,0.0
1.931008,-8.008778,-2.294717,-23.870001,-72.940002,-16.940001,1729427981143.0,0.0
-0.480957,-10.315458,-2.340181,29.960001,-93.730003,0.42,1729427981163.0,0.0
-3.869194,-6.843473,-4.048656,-30.799999,-105.559998,-4.48,1729427981185.0,0.0
-8.415558,-7.197611,-17.785851,-176.119995,-84.629997,-7.07,1729427981203.0,0.0
-10.193424,-3.634698,-21.044874,-80.639999,-1.54,19.110001,1729427981224.0,0.0
-3.017349,-2.285146,-14.926428,12.32,62.650002,32.41,1729427981243.0,0.0
-3.969693,-0.784846,-12.227324,36.82,88.620003,18.27,1729427981263.0,0.0
0.928415,-0.894916,-8.812766,-5.95,101.360001,22.469999,1729427981285.0,0.0
1.268196,-5.503492,-1.753939,-65.379997,112.139999,39.060001,1729427981303.0,0.0
-0.100499,-8.590233,0.923629,-31.08,85.959999,46.34,1729427981324.0,0.0
1.031307,-10.841879,0.002393,-49.98,42.630001,21.42,1729427981344.0,0.0
1.447658,-10.96152,-2.431108,-82.599998,1.12,-8.68,1729427981364.0,0.0
0.705883,-9.004191,-7.02772,-74.620003,-27.65,-27.58,1729427981386.0,0.0
-0.665205,-8.061419,-8.470592,-88.760002,-31.01,-30.1,1729427981404.0,0.0
-2.009971,-6.927221,-7.755138,-104.860001,-29.68,-29.26,1729427981426.0,0.0
-2.208575,-6.360123,-7.802995,-91.840004,-32.900002,-24.780001,1729427981444.0,0.0
-2.191825,-4.345366,-8.874979,-79.519997,-35.349998,-21.98,1729427981464.0,0.0
-1.761117,-4.914857,-8.757731,-110.669998,-31.639999,-23.66,1729427981488.0,0.0
-0.945165,-4.82393,-8.477771,-112.980003,-26.950001,-30.66,1729427981504.0,0.0
0.803988,-5.783452,-11.380265,-114.169998,-22.469999,-37.66,1729427981524.0,0.0
1.308874,-2.758924,-11.361122,-98.209999,-7.63,-38.639999,1729427981545.0,0.0
2.493321,-2.677568,-8.11167,-71.190002,5.6,-15.82,1729427981564.0,0.0
-0.646062,-4.465007,-5.525027,-14.35,0.77,8.68,1729427981586.0,0.0
-0.961915,-7.396214,-6.704689,-8.54,-17.01,8.05,1729427981604.0,0.0
-1.246661,-6.553941,-9.84168,-32.34,-32.48,-18.620001,1729427981630.0,0.0
-1.079163,-3.103491,-11.854043,-61.040001,-30.73,-39.549999,1729427981645.0,0.0
-0.892523,-2.476572,-13.871193,-64.190002,-14.98,-37.310001,1729427981664.0,0.0
-1.416551,-4.457829,-11.667403,-32.41,3.92,-33.950001,1729427981685.0,0.0
-1.428515,-1.079163,-10.195816,5.11,9.52,-38.990002,1729427981704.0,0.0
-1.756332,-2.132005,-8.645268,51.450001,11.41,-23.1,1729427981730.0,0.0
-1.143769,-4.235296,-9.836893,78.68,6.09,-14.7,1729427981744.0,0.0
-0.899701,-5.402994,-10.236496,147.630005,1.96,-9.38,1729427981763.0,0.0
-1.540978,-5.034499,-10.451849,227.430008,4.34,-8.89,1729427981785.0,0.0
-1.990828,-5.340781,-11.095518,291.76001,11.34,-5.88,1729427981805.0,0.0
-2.11047,-5.977271,-12.009576,435.190002,20.02,6.23,1729427981825.0,0.0
-2.304288,-2.794817,-9.686146,422.029999,45.849998,-5.67,1729427981844.0,0.0
-2.656033,-7.202396,-6.068198,281.399994,44.59,-21.07,1729427981864.0,0.0
0.265603,-9.473185,-3.462414,262.360016,16.73,-34.299999,1729427981885.0,0.0
-0.619741,-5.816952,3.385844,321.649994,23.66,-12.6,1729427981904.0,0.0
-1.129412,-5.134997,1.098306,203.699997,-2.17,-22.049999,1729427981926.0,0.0
1.677369,-7.76471,-3.024528,62.299999,-7.28,-15.75,1729427981946.0,0.0
-0.055035,-10.10489,-2.957529,39.970001,11.62,6.3,1729427981964.0,0.0
-2.115255,-9.856036,-2.835495,38.990002,8.54,13.86,1729427981985.0,0.0
-2.924029,-10.372886,-3.87398,32.41,17.15,15.96,1729427982004.0,0.0
-2.45025,-10.815558,-5.175675,6.79,23.73,3.5,1729427982025.0,0.0
-1.694118,-9.147761,-5.422136,-29.960001,52.5,2.38,1729427982045.0,0.0
-0.526421,-9.619147,-5.515456,-65.169998,64.610001,0.21,1729427982064.0,0.0
-1.679761,-10.719845,-4.84068,-31.639999,78.75,4.06,1729427982087.0,0.0
-1.74676,-8.312666,-2.498107,3.15,84.0,2.1,1729427982103.0,0.0
-0.736989,-9.611969,-2.677568,-16.940001,77.07,-5.74,1729427982124.0,0.0
-0.605384,-7.724032,2.725425,4.62,72.519997,1.33,1729427982144.0,0.0
2.15354,-9.279366,4.132405,-14.91,57.82,0.49,1729427982163.0,0.0
1.332802,-10.638489,5.319244,-111.93,36.540001,3.01,1729427982198.0,0.0
2.414358,-12.887742,3.192025,-133.910004,-4.41,-11.34,1729427982212.0,0.0
2.309074,-8.245667,3.809374,-76.160004,-30.66,-14.91,1729427982224.0,0.0
0.287139,-5.115855,4.414758,-107.730003,-77.349998,-12.88,1729427982244.0,0.0
-3.333202,-11.219944,0.416351,-154.419998,-121.660004,-22.68,1729427982264.0,0.0
-0.478565,-11.47837,-9.918249,-73.360001,-136.570007,-21.42,1729427982284.0,0.0
-0.246461,-7.865208,-9.600004,25.200001,-91.980003,2.8,1729427982303.0,0.0
-1.643869,-10.135997,-11.600404,-14.35,-59.709999,6.51,1729427982324.0,0.0
-2.493321,-9.911072,-13.749159,-25.059999,-27.93,-3.22,1729427982344.0,0.0
-3.613162,-6.491727,-10.822738,44.66,22.889999,10.85,1729427982363.0,0.0
-1.519442,-8.382057,-9.547362,57.610001,52.360001,22.68,1729427982385.0,0.0
-2.557927,-8.12124,-11.533404,20.16,78.889999,12.81,1729427982403.0,0.0
-2.019542,-7.013363,-12.859028,33.950001,118.790001,14.84,1729427982424.0,0.0
-1.768296,-8.001599,-8.944371,98.629997,171.5,30.52,1729427982444.0,0.0
-2.598605,-8.035098,4.704289,121.239998,188.789993,42.700001,1729427982464.0,0.0
0.468993,-9.06162,7.223931,98.209999,127.400002,34.580002,1729427982484.0,0.0
2.347359,-8.453842,5.517848,128.940002,57.400002,27.58,1729427982503.0,0.0
1.033699,-9.367901,5.759524,172.550003,27.299999,42.0,1729427982524.0,0.0
-0.105284,-8.477771,4.151547,236.600006,-8.26,50.540001,1729427982544.0,0.0
-0.918844,-9.47797,2.62732,268.450012,-42.560001,58.380001,1729427982565.0,0.0
-3.651447,-14.431112,1.191626,291.410004,-61.18,55.23,1729427982587.0,0.0
-4.09412,-17.888742,0.866202,303.170013,-69.160004,24.780001,1729427982603.0,0.0
-2.533999,-17.060825,3.232704,314.440002,-42.630001,-15.4,1729427982628.0,0.0
-0.753739,-12.818351,3.464807,257.73999,-27.299999,-38.080002,1729427982643.0,0.0
0.674776,-12.050256,1.06002,186.970001,-30.66,-36.68,1729427982663.0,0.0
1.438086,-9.966106,-0.679562,198.800003,-2.94,-45.990002,1729427982686.0,0.0
-0.428315,-8.906086,0.658026,215.25,34.439999,-73.010002,1729427982703.0,0.0
-0.930808,-6.943972,2.859423,183.680008,35.420002,-75.459999,1729427982724.0,0.0
0.459422,-5.79063,4.146761,181.860001,38.220001,-60.34,1729427982812.0,0.0
1.249053,-4.4674,6.486942,179.550003,32.549999,-50.189999,1729427982818.0,0.0
1.811367,-2.323431,8.090133,164.779999,21.629999,-33.950001,1729427982820.0,0.0
2.517249,-2.541178,8.405986,105.559998,10.36,-12.18,1729427982825.0,0.0
0.265603,-4.692325,5.053641,-48.509998,-1.47,2.8,1729427982825.0,0.0
-0.478565,-10.095319,4.352544,-223.020004,-30.59,22.75,1729427982844.0,0.0
-0.79681,-12.320643,3.943372,-170.449997,-38.639999,7.21,1729427982863.0,0.0
-3.041277,-10.028319,5.233103,-66.43,-2.73,-5.39,1729427982884.0,0.0
-2.617748,-8.946764,7.920243,-95.129997,-2.59,-17.360001,1729427982903.0,0.0
1.174876,-8.145168,7.77428,-178.5,-18.129999,-17.57,1729427982924.0,0.0
0.464208,-6.711867,6.503692,-237.229996,-24.43,-3.36,1729427982943.0,0.0
-0.935594,-5.843273,6.326623,-283.290009,-34.299999,-0.63,1729427982963.0,0.0
0.31346,-7.551748,3.629912,-324.23999,-41.23,-19.6,1729427982984.0,0.0
0.342174,-6.171089,0.490529,-342.299988,-21.559999,-34.09,1729427983002.0,0.0
0.363709,-6.513263,-0.770489,-364.559998,-23.309999,-18.41,1729427983026.0,0.0
0.241675,-7.484749,-3.821337,-422.730011,-29.26,-14.42,1729427983050.0,0.0
0.521635,-8.001599,-8.01117,-457.589996,-35.279999,-13.16,1729427983063.0,0.0
0.258425,-5.694918,-10.035499,-471.100006,-19.950001,-7.49,1729427983086.0,0.0
0.234497,-5.374279,-6.563512,-456.049988,2.17,25.969999,1729427983104.0,0.0
-4.376472,-10.30828,-7.867601,-469.839996,10.71,-1.05,1729427983124.0,0.0
2.778067,-13.708481,-14.076975,-391.160004,-11.34,-34.720001,1729427983143.0,0.0
3.278167,-8.73141,-8.449057,-35.98,29.68,-41.439999,1729427983164.0,0.0
2.273181,-7.156933,-2.459821,53.060001,26.040001,-40.529999,1729427983185.0,0.0
0.595813,-3.993621,-3.998406,26.809999,0.49,-42.91,1729427983204.0,0.0
-0.18664,-6.491727,-5.682954,-2.1,-19.110001,-31.01,1729427983224.0,0.0
0.488136,-6.687939,-7.74796,3.36,-32.619999,-28.42,1729427983245.0,0.0
1.196411,-5.735595,-8.999406,-27.93,-35.349998,-31.99,1729427983265.0,0.0
-0.428315,-5.259424,-12.612568,-77.489998,-28.630001,-33.810001,1729427983285.0,0.0
-2.529213,-3.948158,-11.339586,-19.389999,-2.52,-20.93,1729427983305.0,0.0
-0.947558,-2.021935,-9.432507,56.139999,11.2,12.39,1729427983324.0,0.0
-0.756132,-6.886543,-10.021141,8.89,23.66,30.870001,1729427983344.0,0.0
0.708275,-6.065805,-8.817552,50.470001,28.49,34.790001,1729427983364.0,0.0
-0.284746,-6.678369,-6.305088,178.710007,30.309999,50.889999,1729427983385.0,0.0
1.435694,-5.096712,-3.328416,131.180008,22.190001,39.27,1729427983404.0,0.0
2.199004,-8.88455,-8.54477,-12.25,0.28,17.710001,1729427983435.0,0.0
3.495914,-7.408179,-6.752545,86.029999,11.69,6.93,1729427983445.0,0.0
2.555535,-8.233703,-3.268596,152.809998,7.84,1.89,1729427983465.0,0.0
0.272782,-7.84128,-0.557528,116.900002,-6.16,-15.61,1729427983496.0,0.0
1.009771,-8.226524,-1.617548,52.290001,-43.75,-35.07,1729427983505.0,0.0
1.485943,-4.855037,-2.158326,24.43,-74.269997,-44.66,1729427983526.0,0.0
3.510271,-3.211168,-5.611169,-67.269997,-94.849998,-38.290001,1729427983545.0,0.0
0.918844,-6.664011,-12.220145,-102.129997,-87.5,-11.13,1729427983565.0,0.0
-6.771688,-16.01277,-18.204596,-37.59,-44.73,-12.18,1729427983586.0,0.0
-4.220939,-6.568298,-15.069997,47.880001,13.02,-41.580002,1729427983605.0,0.0
1.808974,-1.818545,-10.456635,125.370003,49.98,-10.5,1729427983629.0,0.0
0.837488,-7.384251,-6.592227,108.639999,62.720001,22.75,1729427983656.0,0.0
0.205783,-8.013563,-3.330809,87.57,66.779999,22.889999,1729427983665.0,0.0
2.175076,-6.903293,-5.168497,45.5,60.689999,10.71,1729427983687.0,0.0
4.709075,-6.506085,-0.189033,28.42,57.119999,9.45,1729427983705.0,0.0
2.17029,-11.45205,2.861816,8.47,36.119999,18.620001,1729427983726.0,0.0
-2.225325,-11.07159,2.184647,14.21,4.55,-1.89,1729427983746.0,0.0
1.921437,-10.126426,-2.132005,-76.93,-37.869999,-50.189999,1729427983771.0,0.0
2.392823,-6.69751,-4.249653,-236.110001,-69.93,-73.779999,1729427983787.0,0.0
3.239882,-5.455636,-7.585248,-312.059998,-75.599998,-94.290001,1729427983805.0,0.0
3.232704,-2.210968,-8.939585,-329.48999,-72.660004,-102.900002,1729427983826.0,0.0
1.115055,-1.284946,-7.470392,-307.230011,-67.550003,-92.75,1729427983845.0,0.0
-1.473979,1.215554,-10.066606,-250.180008,-69.650002,-73.989998,1729427983866.0,0.0
-0.914058,3.677768,-12.8686,-230.509995,-63.490002,-47.32,1729427983888.0,0.0
-1.600798,-0.026321,-13.878372,-171.360001,-39.200001,-14.42,1729427983904.0,0.0
0.258425,-8.303094,-11.906685,-80.150002,-17.290001,-11.76,1729427983925.0,0.0
1.050449,-4.819145,-10.382458,-33.599998,-14.21,-56.560001,1729427983946.0,0.0
0.772882,-1.325624,-9.174082,-10.29,-14.63,-49.07,1729427983965.0,0.0
0.954736,-4.48415,-8.863015,-25.969999,-15.26,-30.309999,1729427983986.0,0.0
0.083749,-4.218546,-9.470792,8.47,-22.120001,-20.440001,1729427984004.0,0.0
-0.256032,-3.455236,-8.736196,29.190001,-28.210001,-17.85,1729427984025.0,0.0
-0.234497,-3.409772,-9.102298,69.860001,-36.75,-13.93,1729427984045.0,0.0
-1.270589,-4.165904,-11.286944,95.970001,-41.369999,-10.15,1729427984065.0,0.0
-0.90688,-5.647062,-11.475977,177.309998,-37.240002,6.02,1729427984086.0,0.0
-0.227318,-5.412565,-9.353544,310.380005,-24.360001,17.01,1729427984106.0,0.0
-0.282353,-4.969893,-8.913264,349.720001,-21.139999,16.379999,1729427984126.0,0.0
0.488136,-3.462414,-7.599605,312.970001,-21.77,8.82,1729427984145.0,0.0
0.988236,-5.123034,-8.190632,200.199997,-29.049999,-1.82,1729427984164.0,0.0
0.246461,-9.21476,-8.992228,156.520004,-33.599998,-3.78,1729427984186.0,0.0
-0.162712,-10.298709,-6.754939,229.180008,-25.200001,0.84,1729427984204.0,0.0
-2.940779,-7.142576,-3.696911,272.649994,2.45,9.24,1729427984225.0,0.0
-3.704089,-8.925228,-4.412365,211.889999,7.21,21.42,1729427984246.0,0.0
-3.275774,-11.181661,-5.201996,146.089996,18.690001,8.82,1729427984267.0,0.0
-2.998207,-10.686346,-3.65384,153.300003,37.380001,10.01,1729427984285.0,0.0
-3.617948,-8.925228,-4.673182,157.360001,49.91,4.41,1729427984305.0,0.0
-3.84048,-11.370694,-4.680361,158.410004,60.900002,-11.2,1729427984325.0,0.0
-2.849852,-8.243275,-4.785645,166.460007,79.519997,-22.26,1729427984345.0,0.0
-1.217947,-8.159525,-7.319644,152.110001,86.800003,-34.720001,1729427984365.0,0.0
-0.299103,-6.022735,0.677169,165.410004,86.169998,-18.549999,1729427984386.0,0.0
-0.318245,-6.558727,3.663411,30.450001,58.380001,-9.52,1729427984404.0,0.0
1.39023,-5.699703,2.56032,-163.240005,24.99,-17.360001,1729427984425.0,0.0
2.660819,-6.795617,-2.68714,-350.209991,-15.47,1.47,1729427984444.0,0.0
3.507878,-8.085347,-4.476971,-286.089996,-21.700001,17.15,1729427984464.0,0.0
3.256632,-9.827322,-4.890929,-200.270004,-13.37,31.99,1729427984487.0,0.0
1.40698,-11.633904,-2.256432,-218.889999,-17.219999,21.77,1729427984504.0,0.0
0.784846,-11.748759,-4.68754,-326.970001,-43.82,-4.69,1729427984525.0,0.0
-0.993021,-8.559127,-6.759724,-337.540009,-57.189999,-16.1,1729427984545.0,0.0
-3.249453,-7.858029,-7.972885,-252.630005,-53.27,-19.74,1729427984564.0,0.0
-2.45025,-7.300502,-5.661418,-125.790001,-51.869999,-13.09,1729427984586.0,0.0
-2.361716,-1.39023,-3.096312,-134.119995,-55.790001,-11.76,1729427984605.0,0.0
2.222932,-3.180061,-6.970293,-294.279999,-74.830002,-9.8,1729427984629.0,0.0
4.039084,-2.600998,-15.206388,-387.799988,-91.209999,-16.940001,1729427984644.0,0.0
1.284946,-5.9342,-19.374683,-183.399994,-69.510002,-8.4,1729427984665.0,0.0
-5.749953,-3.108276,-7.393822,-67.059998,-26.18,-19.6,1729427984685.0,0.0
-7.345965,-4.235296,-8.405986,-198.029999,-38.990002,-53.060001,1729427984704.0,0.0
-0.648455,-1.887937,-11.004591,-115.360001,-39.900002,-56.279999,1729427984725.0,0.0
-1.150948,-0.715454,-11.743973,-99.75,-31.15,-45.43,1729427984746.0,0.0
-0.954736,-3.68734,-11.62194,-68.809998,-15.54,-24.780001,1729427984764.0,0.0
-0.775275,-2.165504,-10.786844,-36.959999,-0.28,-44.59,1729427984786.0,0.0
-0.942772,-3.122634,-8.628519,-45.220001,3.29,-49.91,1729427984804.0,0.0
-1.725225,-3.215954,-8.650054,-32.689999,-9.24,-50.400002,1729427984824.0,0.0
-1.619941,-3.196811,-11.806188,12.39,-13.72,-45.009998,1729427984845.0,0.0
-2.727818,-2.888137,-12.303895,64.120003,-10.57,-37.380001,1729427984864.0,0.0
-2.809174,-3.452843,-12.452249,124.32,-1.12,-28.280001,1729427984886.0,0.0
-2.342573,-1.885544,-9.334401,177.589996,7.21,-25.27,1729427984905.0,0.0
-2.732604,-0.538385,-9.576077,191.940002,8.26,-15.12,1729427984926.0,0.0
-2.282753,-1.191626,-10.686346,211.330002,11.69,3.08,1729427984944.0,0.0
-2.656033,-1.481157,-8.073383,198.520004,17.08,14.7,1729427984965.0,0.0
-2.629712,-3.402594,-7.879565,133.210007,13.58,14.14,1729427984987.0,0.0
-2.37368,-6.58744,-9.690931,129.149994,10.92,5.25,1729427985003.0,0.0
-1.727618,-8.714661,-9.193225,232.889999,6.86,1.26,1729427985025.0,0.0
-1.342373,-6.30748,-11.810973,400.610016,11.97,7.21,1729427985044.0,0.0
-4.321437,-2.100898,-9.221939,450.869995,42.279999,49.349998,1729427985064.0,0.0
-4.072584,-7.970492,-11.68176,389.76001,48.299999,24.01,1729427985086.0,0.0
-7.250252,-11.009377,2.691926,320.25,108.43,6.02,1729427985104.0,0.0
-2.648855,-9.181261,-8.817552,69.650002,87.220001,-42.98,1729427985124.0,0.0
-0.993021,-10.325029,-6.833901,157.990005,127.82,-26.809999,1729427985145.0,0.0
-2.995814,-7.448857,-1.524228,202.020004,159.039993,-8.68,1729427985164.0,0.0
1.272982,-6.173482,-0.514457,113.050003,152.039993,-14.77,1729427985195.0,0.0
5.036892,-3.314059,5.685347,29.68,147.979996,-5.39,1729427985204.0,0.0
3.625126,-8.262416,14.77568,-41.02,92.82,16.379999,1729427985224.0,0.0
3.361916,-7.908278,10.975878,-74.340004,3.78,10.29,1729427985245.0,0.0
3.113062,-10.963913,6.85783,-95.480003,-74.690002,9.1,1729427985264.0,0.0
2.447858,-11.523834,-0.835095,-98.769997,-128.169998,-10.99,1729427985285.0,0.0
-6.113662,-17.986849,-10.614561,-125.510002,-129.149994,-13.16,1729427985304.0,0.0
-11.657832,-16.706688,-15.718451,-117.809998,-72.449997,-42.700001,1729427985325.0,0.0
-9.734003,-5.379066,-19.341187,-65.870003,26.110001,-45.5,1729427985344.0,0.0
-1.462015,-4.445865,-16.376478,78.75,98.489998,-23.66,1729427985364.0,0.0
-3.830909,-2.440679,-6.56112,99.610001,141.330002,4.76,1729427985390.0,0.0
-0.007178,-0.827917,-5.321638,-18.200001,127.959999,2.73,1729427985404.0,0.0
1.378266,-2.139183,-1.270589,-48.580002,121.730003,25.969999,1729427985424.0,0.0
-0.114855,-7.372287,14.603395,-26.110001,78.470001,68.949997,1729427985444.0,0.0
1.414158,-9.798609,7.080362,-64.82,-62.02,48.509998,1729427985465.0,0.0
3.761517,-12.031113,1.880759,-120.540001,-124.529999,19.18,1729427985486.0,0.0
2.553142,-12.710674,-3.972085,-76.370003,-148.190002,20.65,1729427985505.0,0.0
-1.916651,-15.345171,-7.963314,-80.220001,-147.770004,10.29,1729427985525.0,0.0
-10.408779,-17.44607,-12.569498,-116.340004,-124.25,-16.66,1729427985544.0,0.0
-11.033305,-9.497113,-15.806986,-79.379997,-47.740002,-35.0,1729427985564.0,0.0
-2.821138,-7.123433,-15.464812,12.25,33.25,-6.02,1729427985585.0,0.0
-1.859223,-7.056434,-12.021541,47.740002,73.989998,4.41,1729427985604.0,0.0
0.057428,-6.357729,-12.8686,25.620001,91.07,1.75,1729427985627.0,0.0
1.316052,-4.926822,-3.885944,32.48,116.620003,-0.42,1729427985644.0,0.0
0.215354,-9.176475,6.331409,48.09,98.910004,6.16,1729427985663.0,0.0
4.675575,-6.601797,6.106483,41.369999,37.380001,-17.219999,1729427985688.0,0.0
0.859023,-7.819745,6.01077,-29.120001,-9.73,-10.64,1729427985703.0,0.0
1.753939,-8.599805,3.388237,-54.880001,-64.68,-11.27,1729427985724.0,0.0
1.935793,-7.424929,-0.868595,-67.970001,-100.449997,-7.98,1729427985745.0,0.0
-0.045464,-7.913064,-3.988836,-91.559998,-122.57,0.98,1729427985764.0,0.0
-2.663212,-12.887742,-16.52244,-109.129997,-98.489998,0.14,1729427985785.0,0.0
-2.959922,-12.586248,-13.124631,-70.349998,-54.880001,0.21,1729427985804.0,0.0
-6.903293,-6.147161,-9.06162,-86.169998,-15.82,-26.389999,1729427985824.0,0.0
-3.78066,-2.995814,-8.80798,-71.050003,1.05,-10.99,1729427985844.0,0.0
-1.282553,-6.848258,-8.776874,3.36,20.23,8.68,1729427985873.0,0.0
-1.844866,-6.752545,-9.997212,62.510002,33.110001,9.73,1729427985885.0,0.0
-3.270989,-5.02732,-9.427721,31.99,51.939999,1.68,1729427985904.0,0.0
-3.694518,-5.938986,-8.867801,19.18,64.610001,7.98,1729427985926.0,0.0
-2.880959,-8.513663,-7.054041,59.849998,77.559998,14.77,1729427985944.0,0.0
-0.442672,-7.980063,-3.175276,115.5,76.160004,18.969999,1729427985964.0,0.0
0.660419,-7.805387,0.42353,129.080002,63.349998,19.110001,1729427985987.0,0.0
-0.847059,-11.753544,1.730011,87.919998,37.73,12.04,1729427986003.0,0.0
-1.883151,-9.442079,1.986043,62.02,12.6,-5.74,1729427986025.0,0.0
0.117248,-10.638489,-3.558127,16.940001,-3.36,-7.91,1729427986045.0,0.0
1.674976,-8.743374,-2.840281,19.110001,-17.710001,-2.73,1729427986064.0,0.0
-1.237089,-7.389036,-3.696911,81.690002,-35.630001,15.61,1729427986086.0,0.0
-1.246661,-8.068598,-3.471986,112.699997,-50.259998,31.710001,1729427986104.0,0.0
-3.996014,-6.685547,-5.304887,15.26,-57.540001,16.66,1729427986125.0,0.0
-4.500899,-8.736196,-10.559525,-50.68,-55.299999,13.37,1729427986146.0,0.0
-4.845466,-7.848458,-7.846066,6.02,-15.96,17.710001,1729427986165.0,0.0
-6.613762,-9.343972,-6.185446,-46.41,19.32,7.84,1729427986186.0,0.0
-6.065805,-8.317451,-8.126025,-174.930008,39.970001,-29.33,1729427986205.0,0.0
-3.522235,-6.67119,-9.803394,-263.059998,53.549999,-40.880001,1729427986226.0,0.0
0.447458,-6.690332,-6.407979,-280.420013,55.439999,-36.119999,1729427986248.0,0.0
2.088934,-11.042876,-4.290331,-264.320007,39.200001,-32.759998,1729427986266.0,0.0
1.409373,-9.729217,-4.773681,-234.149994,28.559999,-47.670002,1729427986287.0,0.0
2.742175,-7.745567,-5.359922,-250.669998,16.870001,-56.349998,1729427986306.0,0.0
1.51705,-3.345166,-4.733003,-239.330002,6.44,-46.830002,1729427986328.0,0.0
0.253639,-3.160919,-5.029713,-228.410004,-12.04,-31.639999,1729427986347.0,0.0
-0.449851,-2.663212,-6.989435,-170.800003,-33.810001,-15.89,1729427986366.0,0.0
-1.481157,-3.402594,-8.740981,-167.089996,-55.580002,0.49,1729427986387.0,0.0
-1.744368,-4.058227,-9.65504,-136.360001,-59.150002,-0.21,1729427986407.0,0.0
-1.490728,-3.885944,-13.263416,-109.760002,-48.650002,-10.22,1729427986426.0,0.0
-1.892723,-2.469393,-13.954943,-64.610001,-30.24,-8.61,1729427986446.0,0.0
-0.945165,-3.893122,-12.559926,-41.860001,-11.27,-10.15,1729427986467.0,0.0
-1.138984,-3.089134,-10.143176,11.69,-2.59,-13.58,1729427986488.0,0.0
-0.658026,-2.567499,-8.279166,38.360001,-2.59,-12.46,1729427986506.0,0.0
-0.588634,-3.531806,-8.405986,31.5,-10.01,-12.88,1729427986527.0,0.0
-1.667797,-3.215954,-9.537791,35.07,-17.5,-16.73,1729427986547.0,0.0
-1.646262,-4.783253,-10.573883,47.670002,-17.360001,-16.870001,1729427986566.0,0.0
-1.727618,-6.218946,-10.482956,102.480003,-13.23,-21.77,1729427986592.0,0.0
-1.569692,-5.180461,-10.79163,181.649994,-9.66,-23.24,1729427986606.0,0.0
-0.667598,-4.06062,-9.212367,250.110001,-3.29,-11.55,1729427986630.0,0.0
-1.194018,-4.656433,-10.408779,278.179993,3.01,-0.77,1729427986647.0,0.0
-2.677568,-4.716253,-10.844273,332.01001,16.66,17.92,1729427986666.0,0.0
-2.754139,-4.998606,-8.736196,398.299988,30.24,35.279999,1729427986687.0,0.0
-2.385644,-5.836094,-6.142376,338.940002,36.68,29.469999,1729427986708.0,0.0
-2.871387,-6.659225,-5.328816,308.350006,20.58,29.889999,1729427986727.0,0.0
-3.505485,-10.377672,-5.321638,314.790009,7.77,15.05,1729427986746.0,0.0
-2.467,-10.286745,-4.161119,317.100006,7.98,-9.31,1729427986767.0,0.0
-2.146362,-9.147761,-0.935594,330.470001,9.17,-14.42,1729427986787.0,0.0
-1.89033,-8.102098,-0.957129,287.140015,0.7,-22.190001,1729427986806.0,0.0
-1.050449,-9.29133,-0.009571,303.170013,-1.05,-27.16,1729427986828.0,0.0
-2.26361,-7.159326,0.839881,296.170013,28.559999,-29.68,1729427986846.0,0.0
-1.634298,-8.796017,2.22054,240.380005,28.84,-26.460001,1729427986866.0,0.0
-2.414358,-8.566305,3.125026,220.5,28.0,-17.43,1729427986889.0,0.0
-2.885744,-8.707481,2.919244,209.930008,32.060001,-21.139999,1729427986906.0,0.0
-1.421337,-10.427922,4.321437,216.229996,31.5,-21.700001,1729427986926.0,0.0
-1.09352,-5.249853,5.225924,229.880005,59.920002,-21.700001,1729427986946.0,0.0
-3.852444,-4.462614,7.996813,154.139999,54.18,-4.34,1729427986966.0,0.0
-3.519842,-7.45125,5.166104,135.380005,37.380001,-0.7,1729427986987.0,0.0
-2.98385,-8.614161,4.472186,226.800003,46.970001,-3.71,1729427987006.0,0.0
-4.421937,-7.556533,8.178668,265.299988,65.519997,-1.61,1729427987026.0,0.0
-1.658226,-9.028119,5.692525,166.880005,47.670002,-9.31,1729427987047.0,0.0
-0.303888,-6.515656,6.829116,183.539993,59.920002,-12.04,1729427987067.0,0.0
-1.26341,-3.692125,10.631311,184.240005,48.650002,-25.83,1729427987087.0,0.0
-0.320638,-3.574877,10.408779,164.289993,13.16,-28.0,1729427987107.0,0.0
-0.021535,-3.940979,8.212167,170.100006,8.54,-32.830002,1729427987127.0,0.0
-0.241675,-4.086941,7.209574,144.059998,22.469999,-44.240002,1729427987146.0,0.0
-1.107877,-2.024328,8.590233,110.459999,41.720001,-48.09,1729427987166.0,0.0
-0.646062,-2.316252,8.250452,52.009998,47.529999,-47.18,1729427987187.0,0.0
-1.342373,-5.651847,11.75833,-16.450001,42.91,-41.580002,1729427987205.0,0.0
-1.696511,-8.551948,12.050256,-33.25,15.82,-43.470001,1729427987226.0,0.0
-0.827917,-3.022135,11.339586,2.94,2.66,-48.580002,1729427987247.0,0.0
-1.323231,2.605784,8.303094,-37.029999,-13.86,-24.360001,1729427987265.0,0.0
-2.017149,2.758924,7.054041,-106.610001,-29.190001,21.84,1729427987287.0,0.0
-4.242475,-2.57707,7.164111,-143.639999,-30.73,52.709999,1729427987306.0,0.0
-5.85763,-3.239882,9.860823,-153.300003,-19.67,67.620003,1729427987326.0,0.0
-5.465207,-1.177269,8.975478,-202.720001,-28.630001,95.620003,1729427987346.0,0.0
-2.438286,-3.991228,7.183254,-245.070007,-41.790001,107.239998,1729427987366.0,0.0
-2.608176,-4.481757,6.063413,-308.910004,-54.459999,104.860001,1729427987388.0,0.0
-4.563113,-7.109076,0.808774,-326.549988,-70.209999,106.470001,1729427987405.0,0.0
-5.338387,-15.414563,-1.421337,-211.470001,-71.330002,87.010002,1729427987426.0,0.0
-4.074977,-13.002598,-0.327817,-132.789993,-16.1,45.080002,1729427987446.0,0.0
-4.197011,-9.262616,1.256232,-236.669998,6.09,10.85,1729427987466.0,0.0
-3.034099,-8.520842,0.07657,-400.329987,-20.299999,-3.71,1729427987487.0,0.0
-1.397408,-6.568298,0.315853,-416.220001,-26.74,-18.48,1729427987505.0,0.0
-1.72044,-5.893522,2.136791,-383.179993,-35.349998,-22.049999,1729427987526.0,0.0
-2.641676,-5.687739,2.024328,-418.25,-44.029999,-21.77,1729427987546.0,0.0
-3.699304,-2.995814,-2.445465,-516.669983,-48.09,-26.040001,1729427987566.0,0.0
-4.254438,-9.183653,-9.119047,-541.799988,-45.709999,-12.11,1729427987588.0,0.0
-4.110869,-13.983655,-10.353743,-448.48999,-35.84,-10.92,1729427987606.0,0.0
-2.481357,-11.038091,-9.879964,-292.110016,-16.24,-36.75,1729427987631.0,0.0
-0.677169,-6.60419,-9.784252,-188.930008,6.58,-41.650002,1729427987645.0,0.0
-0.646062,-5.615955,-8.472985,-178.430008,29.120001,-23.799999,1729427987666.0,0.0
-1.284946,-7.908278,-8.350951,-194.460007,34.860001,-13.23,1729427987686.0,0.0
-1.397408,-5.469993,-8.585447,-144.970001,35.279999,-17.290001,1729427987705.0,0.0
-1.363909,-4.579862,-7.987241,-89.25,36.119999,-6.37,1729427987726.0,0.0
-0.859023,-5.379066,-9.293723,-112.419998,34.299999,0.14,1729427987798.0,0.0
-1.117448,-5.632704,-11.196017,-119.0,35.420002,-6.44,1729427987800.0,0.0
-1.438086,-5.345565,-11.389835,-98.349998,40.740002,-22.120001,1729427987801.0,0.0
-0.954736,-1.964507,-10.813165,-72.029999,52.5,-34.02,1729427987807.0,0.0
1.229911,-2.56032,-8.501699,-97.860001,62.720001,-37.73,1729427987833.0,0.0
1.438086,-7.716853,-5.788238,-114.590004,44.310001,-50.259998,1729427987846.0,0.0
-1.476372,-5.213961,-4.649254,-53.900002,20.440001,-75.669998,1729427987865.0,0.0
-1.732404,-3.771089,-7.180861,-52.360001,-3.99,-72.730003,1729427987886.0,0.0
-2.222932,-5.146961,-9.049655,-45.009998,-9.38,-43.049999,1729427987912.0,0.0
-2.165504,-4.699504,-9.561719,-49.0,-3.01,-29.190001,1729427987926.0,0.0
-1.308874,-3.333202,-9.946963,-23.1,-2.24,-13.23,1729427987948.0,0.0
-0.165105,-3.546163,-10.207782,35.209999,0.98,1.68,1729427987967.0,0.0
0.074178,-2.935993,-9.032906,60.48,4.9,10.57,1729427987987.0,0.0
0.165105,-4.814359,-8.736196,-1.33,5.11,8.4,1729427988005.0,0.0
0.0335,-3.885944,-8.618947,-42.91,1.05,-2.03,1729427988027.0,0.0
0.165105,-1.301696,-9.131011,-52.290001,-7.56,-3.78,1729427988046.0,0.0
2.189433,1.395016,-12.705888,-86.099998,-4.27,8.75,1729427988066.0,0.0
0.397209,-5.398208,-9.803394,-66.639999,8.05,28.84,1729427988088.0,0.0
-2.163112,-8.815158,-10.904092,-30.380001,1.68,-9.45,1729427988110.0,0.0
-0.729811,-3.608376,-10.734202,-57.68,-2.45,-34.860001,1729427988127.0,0.0
-0.729811,-1.725225,-9.631111,36.889999,2.45,-20.23,1729427988147.0,0.0
-1.39023,-5.881558,-11.32523,75.25,4.83,-3.92,1729427988166.0,0.0
-0.153141,-5.101498,-9.942179,157.919998,4.27,-0.42,1729427988187.0,0.0
0.327817,-3.981657,-8.898908,239.330002,1.05,-2.17,1729427988207.0,0.0
-0.253639,-4.843073,-10.549955,271.459991,0.42,-5.25,1729427988227.0,0.0
-0.62692,-5.783452,-12.923635,337.470001,8.82,-2.87,1729427988247.0,0.0
-1.09352,-4.283153,-12.796815,410.200012,30.52,4.48,1729427988269.0,0.0
-1.014557,-5.912664,-7.563712,404.73999,51.66,8.19,1729427988289.0,0.0
-0.681954,-8.99462,-4.252046,378.48999,42.420002,5.39,1729427988308.0,0.0
0.976272,-7.788638,-5.252246,484.890015,39.41,-7.21,1729427988329.0,0.0
-0.696311,-5.742774,0.124427,513.23999,72.800003,1.05,1729427988348.0,0.0
-2.565106,-7.898707,1.9669,425.950012,48.299999,4.13,1729427988368.0,0.0
-2.057827,-9.877571,0.806381,360.290009,37.310001,-1.54,1729427988389.0,0.0
-2.055435,-8.106883,1.423729,329.140015,63.0,-0.98,1729427988408.0,0.0
-2.019542,-8.006385,0.921237,265.929993,76.019997,-8.89,1729427988429.0,0.0
-2.519642,-9.066404,1.359123,170.800003,79.870003,-13.79,1729427988448.0,0.0
-0.655633,-8.492127,3.797409,119.840004,78.050003,-14.0,1729427988493.0,0.0
-0.014357,-6.396015,5.517848,91.0,65.730003,-14.21,1729427988494.0,0.0
0.952343,-3.175276,8.020741,90.93,44.240002,-1.12,1729427988508.0,0.0
1.567299,-2.632105,11.042876,94.709999,20.23,15.4,1729427988640.0,0.0
0.358923,-5.47717,10.856236,74.129997,-6.09,36.610001,1729427988641.0,0.0
-1.160519,-8.695518,7.893922,65.029999,-26.6,42.07,1729427988643.0,0.0
-1.533799,-7.558927,6.582655,147.630005,-18.549999,39.41,1729427988644.0,0.0
-1.835295,-7.575676,6.175875,212.660004,-0.14,38.080002,1729427988647.0,0.0
-1.942972,-8.147561,7.221539,249.619995,26.530001,37.450001,1729427988648.0,0.0
-3.869194,-9.372685,7.99442,283.779999,53.48,13.09,1729427988649.0,0.0
-4.943572,-8.003991,10.69831,258.860016,54.599998,-13.09,1729427988666.0,0.0
-3.311667,-8.255238,8.62134,185.779999,27.370001,-37.869999,1729427988688.0,0.0
-2.603391,-7.097112,8.193025,152.669998,19.389999,-47.459999,1729427988707.0,0.0
-2.232504,-7.343572,7.652246,116.129997,12.11,-57.82,1729427988728.0,0.0
-1.359123,-5.319244,9.150154,120.68,11.48,-68.110001,1729427988748.0,0.0
-0.401994,-4.103691,10.315458,106.400002,1.47,-68.18,1729427988767.0,0.0
0.306281,-3.302095,9.212367,58.170002,-13.65,-67.620003,1729427988788.0,0.0
0.533599,-3.565305,7.690532,61.599998,-20.790001,-51.939999,1729427988808.0,0.0
-0.229711,-3.342773,8.355737,82.809998,-17.57,-43.959999,1729427988829.0,0.0
-0.447458,-3.074777,10.313066,69.860001,-17.639999,-49.490002,1729427988849.0,0.0
0.162712,-2.277967,11.24866,37.170002,-27.93,-56.630001,1729427988868.0,0.0
1.756332,-1.921437,10.581062,1.19,-39.200001,-53.34,1729427988890.0,0.0
2.316252,-0.677169,8.930015,-20.93,-36.189999,-46.34,1729427988907.0,0.0
0.232104,0.37328,6.812366,1.96,-40.740002,-30.1,1729427988928.0,0.0
-0.129212,0.196211,8.056634,21.35,-16.450001,-0.56,1729427988947.0,0.0
-1.0002,-2.70389,7.771888,-12.25,-25.620001,3.57,1729427988967.0,0.0
-2.48375,-3.081956,7.712067,-19.6,-18.83,-5.46,1729427988990.0,0.0
-3.089134,-4.187439,9.250652,0.7,-12.67,-2.38,1729427989006.0,0.0
-1.655833,-2.971886,9.135797,5.25,-13.23,-13.09,1729427989028.0,0.0
-0.655633,-1.691726,8.260024,16.309999,-12.53,-15.68,1729427989049.0,0.0
-2.617748,0.502493,9.824929,38.220001,-5.39,-3.92,1729427989069.0,0.0
-1.672583,0.803988,11.100305,13.37,3.43,3.64,1729427989091.0,0.0
1.045663,-1.328017,9.116654,-25.41,-6.09,-1.4,1729427989108.0,0.0
1.337588,-3.768696,8.11167,-29.33,-5.04,2.94,1729427989127.0,0.0
0.413958,-4.393222,8.204988,-23.66,-0.07,-1.4,1729427989147.0,0.0
-0.887737,-1.923829,9.253045,1.75,9.45,-3.64,1729427989167.0,0.0
0.332602,-2.009971,7.898707,-15.61,4.55,-4.41,1729427989190.0,0.0
0.655633,-4.601398,7.666604,-9.1,11.06,-4.83,1729427989210.0,0.0
-0.787239,-5.383851,8.970692,20.440001,18.200001,-18.200001,1729427989229.0,0.0
-1.785046,-2.684747,10.205389,48.860001,22.82,-26.25,1729427989247.0,0.0
0.878166,3.538985,10.301102,61.459999,18.549999,-7.98,1729427989267.0,0.0
0.437887,1.146162,8.470592,40.459999,-2.24,13.86,1729427989304.0,0.0
0.081356,-2.409572,10.193424,20.719999,10.15,21.139999,1729427989308.0,0.0
0.299103,-0.806381,10.284351,-5.04,13.09,20.860001,1729427989343.0,0.0
-0.327817,-2.481357,9.219545,-20.58,11.27,23.030001,1729427989347.0,0.0
-1.107877,-4.481757,9.501899,-42.77,12.25,17.639999,1729427989366.0,0.0
-0.89013,-3.646662,10.521241,-34.299999,13.58,-0.14,1729427989389.0,0.0
0.098106,-4.31426,9.293723,-21.91,6.16,-4.06,1729427989408.0,0.0
-0.083749,-3.345166,9.269794,-17.219999,2.03,-14.42,1729427989428.0,0.0
-0.811167,-3.084348,9.099905,-16.450001,-1.54,-16.66,1729427989447.0,0.0
-1.383051,2.148755,8.097312,-1.33,2.8,-7.84,1729427989467.0,0.0
0.51685,2.598605,9.001799,9.24,0.21,24.360001,1729427989489.0,0.0
-3.783052,-1.385444,11.674582,-8.96,-6.09,35.209999,1729427989507.0,0.0
-1.557728,-4.134798,10.152746,-62.93,-4.48,26.809999,1729427989529.0,0.0
-1.490728,-1.351945,9.288938,-92.75,3.43,35.91,1729427989547.0,0.0
-0.57667,-2.179861,8.901299,-183.050003,6.93,46.759998,1729427989568.0,0.0
-0.81356,-4.189832,7.32443,-301.350006,-11.41,47.950001,1729427989592.0,0.0
-1.744368,-7.415358,6.628119,-384.860016,-31.639999,41.439999,1729427989607.0,0.0
-0.277567,-6.101698,5.453243,-384.230011,-23.1,31.710001,1729427989630.0,0.0
-0.512064,-3.574877,2.524428,-376.600006,-7.91,44.799999,1729427989648.0,0.0
0.239282,-7.76471,-1.78026,-385.48999,-39.41,51.099998,1729427989667.0,0.0
3.742374,-11.96172,2.481357,-350.070007,-40.110001,40.459999,1729427989689.0,0.0
0.449851,-12.409179,7.066005,-427.070007,-21.77,24.08,1729427989709.0,0.0
-3.385844,-5.608776,4.596612,-562.380005,-41.580002,2.59,1729427989728.0,0.0
-5.242674,-6.855437,-3.460021,-681.309998,-78.82,-13.02,1729427989747.0,0.0
-2.067399,-10.727024,-14.873785,-657.580017,-97.510002,-57.540001,1729427989767.0,0.0
-0.318245,-10.351351,-13.952549,-385.630005,-30.52,-45.990002,1729427989791.0,0.0
-1.304088,-7.501499,-8.492127,-180.110001,24.15,-2.45,1729427989809.0,0.0
-0.698704,-12.454641,-4.476971,-133.910004,30.940001,5.6,1729427989828.0,0.0
-1.792224,-10.195816,1.411765,-54.529999,16.17,-8.61,1729427989847.0,0.0
-0.270389,-10.274779,-2.227718,-26.880001,-15.47,-17.99,1729427989868.0,0.0
1.301696,-10.030712,-3.275774,-59.920002,-21.07,-15.12,1729427989888.0,0.0
1.619941,-9.245867,-3.797409,-42.349998,-26.880001,-1.96,1729427989907.0,0.0
1.48355,-8.190632,-4.632504,-6.02,-42.420002,4.55,1729427989927.0,0.0
0.325424,-7.664211,-2.837888,-18.27,-59.43,0.7,1729427989953.0,0.0
-0.476172,-6.786045,-4.173083,-36.470001,-89.599998,-12.04,1729427989970.0,0.0
-2.624927,-6.235696,-11.114661,-137.059998,-105.840004,-1.54,1729427989987.0,0.0
-7.444071,-7.987241,-17.716459,-117.879997,-66.010002,7.49,1729427990006.0,0.0
-9.166903,-5.472386,-18.029919,-1.33,11.97,21.77,1729427990027.0,0.0
-3.158526,-1.820938,-11.954542,92.470001,60.41,27.860001,1729427990047.0,0.0
-2.459821,-3.713661,-10.482956,49.98,74.480003,34.299999,1729427990067.0,0.0
-1.435694,-6.726225,-8.580662,-2.38,89.949997,33.670002,1729427990089.0,0.0
0.691526,-8.827123,-1.241875,39.689999,94.639999,34.439999,1729427990107.0,0.0
0.660419,-10.317852,-0.909273,45.990002,70.279999,17.360001,1729427990128.0,0.0
4.386044,-11.131411,1.115055,16.66,31.43,-3.78,1729427990148.0,0.0
1.753939,-8.638089,1.284946,14.84,-5.81,-11.48,1729427990167.0,0.0
2.940779,-9.032906,-3.180061,1.19,-41.299999,-5.25,1729427990189.0,0.0
3.132205,-7.353144,-7.460821,9.03,-60.900002,-0.21,1729427990206.0,0.0
-4.204189,-11.255837,-8.410772,-34.650002,-56.279999,6.44,1729427990227.0,0.0
-10.344172,-14.557933,-14.943177,-111.650002,-32.759998,-21.559999,1729427990248.0,0.0
-7.219146,-2.486143,-14.036297,-25.76,17.360001,-34.93,1729427990266.0,0.0
-2.749353,-1.847259,-11.708081,18.690001,65.800003,-9.38,1729427990287.0,0.0
-1.452443,-8.207381,-7.386643,-64.050003,73.709999,1.47,1729427990308.0,0.0
0.260818,-4.661219,-5.343173,-100.940002,64.68,-29.33,1729427990327.0,0.0
2.019542,-5.52742,-1.87358,-109.340004,53.760002,-31.57,1729427990347.0,0.0
2.519642,-9.470792,-1.976472,-133.279999,19.950001,-45.220001,1729427990367.0,0.0
2.395216,-4.783253,-3.613162,-148.330002,-13.72,-69.720001,1729427990388.0,0.0
1.217947,-3.086741,-6.056234,-174.300003,-38.150002,-66.150002,1729427990406.0,0.0
0.521635,-3.397808,-7.106683,-175.630005,-50.330002,-46.759998,1729427990428.0,0.0
0.150748,-2.768496,-9.102298,-172.130005,-57.82,-30.66,1729427990447.0,0.0
0.095713,-0.550349,-12.050256,-189.139999,-60.130001,-19.25,1729427990467.0,0.0
-0.409173,-0.047856,-14.699109,-174.300003,-48.650002,0.56,1729427990489.0,0.0
-2.947958,-4.843073,-11.796617,-77.980003,-29.75,18.690001,1729427990507.0,0.0
-3.256632,-6.525227,-11.684153,-26.950001,-17.92,3.36,1729427990528.0,0.0
-1.189233,-5.996413,-12.093326,-52.639999,-7.42,-31.219999,1729427990547.0,0.0
-0.614955,-3.622734,-10.707881,8.33,0.35,-30.66,1729427990568.0,0.0
-0.320638,-2.620141,-9.164511,46.41,5.18,-22.190001,1729427990589.0,0.0
-0.284746,-3.215954,-8.30788,49.84,0.35,-16.66,1729427990608.0,0.0
-0.538385,-3.402594,-7.862815,54.110001,-11.76,-17.08,1729427990630.0,0.0
-0.928415,-4.498507,-12.119646,82.599998,-21.42,-21.210001,1729427990647.0,0.0
-1.20359,-3.60359,-11.760723,183.539993,-7.42,-25.200001,1729427990671.0,0.0
-1.320838,-4.122833,-10.334601,218.330002,6.02,-19.809999,1729427990689.0,0.0
-1.454836,-4.350152,-9.092726,233.729996,8.33,-20.370001,1729427990707.0,0.0
-1.773082,-3.172883,-11.858829,241.009995,14.98,-13.58,1729427990728.0,0.0
-1.655833,-3.548556,-9.030513,194.740005,28.559999,-6.51,1729427990747.0,0.0
-1.048056,-5.271388,-6.290731,121.660004,32.48,-3.5,1729427990767.0,0.0
-0.421137,-6.283553,-5.54417,72.800003,24.5,-5.67,1729427990790.0,0.0
-0.256032,-7.015756,-5.675776,46.759998,12.39,-7.0,1729427990807.0,0.0
-0.579063,-6.618547,-5.675776,30.24,5.95,-8.26,1729427990828.0,0.0
-0.557528,-7.295716,-7.130611,17.290001,-3.08,-10.15,1729427990847.0,0.0
-0.509671,-8.056634,-7.932207,61.529999,-3.29,-5.39,1729427990866.0,0.0
-0.461815,-8.338986,-8.638089,148.75,1.68,3.43,1729427990889.0,0.0
-0.588634,-9.269794,-8.611769,271.320007,15.47,18.129999,1729427990907.0,0.0
-0.789631,-8.152347,-5.546563,411.670013,33.110001,30.380001,1729427990926.0,0.0
-2.419144,-6.994221,-2.65364,519.190002,52.360001,39.41,1729427990946.0,0.0
-3.866802,-7.795816,-2.435893,550.130005,60.41,31.219999,1729427990967.0,0.0
-4.529613,-8.154739,3.419343,556.849976,66.290001,11.69,1729427990988.0,0.0
-2.462214,-7.580462,-0.227318,230.300003,81.269997,-8.75,1729427991006.0,0.0
-0.468993,-10.896914,-1.117448,51.939999,65.730003,-7.28,1729427991028.0,0.0
-0.289532,-8.946764,1.287339,11.48,88.480003,-2.03,1729427991046.0,0.0
-2.292324,-10.980663,3.524628,-74.269997,64.050003,-17.01,1729427991067.0,0.0
-0.653241,-12.485749,2.612962,-144.690002,46.060001,-28.49,1729427991088.0,0.0
-0.148355,-8.396415,3.273381,-185.710007,56.560001,-38.150002,1729427991108.0,0.0
2.055435,-7.903493,1.129412,-287.839996,33.810001,-36.189999,1729427991126.0,0.0
2.926422,-14.361722,-1.689333,-340.269989,9.17,-51.310001,1729427991149.0,0.0
1.847259,-10.399208,4.596612,-225.190002,31.15,-46.060001,1729427991166.0,0.0
-1.445265,-3.531806,7.853244,-164.5,11.27,-41.93,1729427991187.0,0.0
-1.581656,-3.26381,2.428715,-268.029999,-28.49,-40.880001,1729427991207.0,0.0
0.916451,-5.245068,-2.9336,-361.899994,-51.799999,-37.099998,1729427991227.0,0.0
0.327817,-7.903493,-6.443871,-417.619995,-59.220001,-28.91,1729427991246.0,0.0
0.524028,-7.022934,-7.781459,-364.559998,-58.73,-24.85,1729427991266.0,0.0
-0.382852,-5.230711,-8.879765,-292.25,-56.0,-23.66,1729427991290.0,0.0
-1.308874,-4.642076,-11.174481,-240.449997,-51.66,-19.110001,1729427991306.0,0.0
-0.918844,-7.726424,-11.41855,-126.699997,-31.85,-11.41,1729427991327.0,0.0
-0.722632,-4.754539,-6.893722,-36.68,-18.690001,-12.53,1729427991346.0,0.0
-1.540978,-4.082155,-6.534799,-92.470001,-25.129999,-16.940001,1729427991366.0,0.0
0.100499,-4.780859,-8.822337,-142.729996,-36.259998,-19.950001,1729427991389.0,0.0
0.89013,-4.945964,-10.703095,-120.610001,-34.650002,-21.0,1729427991406.0,0.0
-1.024128,-3.876373,-7.642675,-62.02,-31.15,-14.21,1729427991426.0,0.0
-1.201197,-2.371287,-7.384251,-99.610001,-44.029999,-21.210001,1729427991446.0,0.0
-0.133998,-2.447858,-9.238688,-132.160004,-54.599998,-17.01,1729427991466.0,0.0
0.222532,-2.208575,-10.387242,-132.649994,-52.990002,-10.71,1729427991487.0,0.0
-0.392423,-3.845266,-10.29153,-124.949997,-47.110001,-3.71,1729427991507.0,0.0
-2.333002,-5.986843,-9.293723,-135.800003,-43.82,-23.309999,1729427991526.0,0.0
-3.885944,-3.998406,-6.640083,-123.059998,-48.790001,-49.420002,1729427991546.0,0.0
-2.591427,-4.09412,-11.267801,-74.690002,-56.91,-51.170002,1729427991568.0,0.0
-1.122234,0.181855,-11.557333,-20.65,-49.560001,-40.110001,1729427991589.0,0.0
-1.402194,-0.870987,-14.359328,-18.48,-36.400002,-13.86,1729427991606.0,0.0
-1.272982,-2.088934,-11.880364,10.5,-18.969999,-13.23,1729427991632.0,0.0
-1.160519,-0.945165,-8.590233,14.21,-11.97,-22.4,1729427991646.0,0.0
-1.107877,-1.22034,-9.683753,-27.299999,-17.710001,-25.059999,1729427991666.0,0.0
-1.435694,-2.711068,-10.535598,-35.98,-14.21,-23.309999,1729427991687.0,0.0
-2.457429,-3.656233,-11.504691,-17.43,-8.68,-24.290001,1729427991706.0,0.0
-2.904887,-1.732404,-8.860621,27.16,-4.2,-23.870001,1729427991726.0,0.0
-2.234896,-2.306681,-9.420543,46.34,-11.06,-14.14,1729427991746.0,0.0
-1.849652,-2.428715,-11.200804,73.010002,-13.65,-10.36,1729427991766.0,0.0
-2.218147,-1.605584,-10.320245,126.419998,-4.83,-3.36,1729427991787.0,0.0
-2.713461,-0.031107,-8.382057,138.25,4.97,4.2,1729427991806.0,0.0
-2.723032,-0.040678,-7.051648,103.949997,5.04,17.219999,1729427991826.0,0.0
-2.641676,-1.550549,-8.609376,45.990002,1.47,25.200001,1729427991846.0,0.0
-2.620141,-4.04387,-10.131211,9.24,-3.5,20.719999,1729427991866.0,0.0
-2.464607,-3.572484,-9.188439,12.95,-1.89,6.3,1729427991887.0,0.0
-2.036292,-2.971886,-8.216952,14.0,-3.01,1.82,1729427991906.0,0.0
-1.909473,-4.249653,-9.446864,-6.3,-5.81,-1.54,1729427991927.0,0.0
-1.818545,-4.187439,-11.014162,3.78,-4.69,-7.0,1729427991946.0,0.0
-2.096112,-3.969693,-10.454242,34.299999,2.59,-11.13,1729427991966.0,0.0
-1.840081,-3.04367,-8.695518,23.309999,5.67,-17.290001,1729427992004.0,0.0
-1.150948,-4.926822,-9.315259,-9.59,-2.1,-15.33,1729427992005.0,0.0
-1.775474,-5.065606,-9.643075,9.52,-3.15,-19.950001,1729427992026.0,0.0
-3.182454,-2.924029,-8.542377,-11.06,1.68,-28.139999,1729427992049.0,0.0
-3.842873,-3.65384,-8.446664,-74.690002,-2.38,-33.040001,1729427992065.0,0.0
-3.620341,-2.510071,-8.331808,-85.540001,-10.08,-33.32,1729427992087.0,0.0
-2.40718,-2.823531,-8.190632,-74.129997,-13.86,-26.25,1729427992109.0,0.0
-0.933201,-4.378866,-8.573483,-70.419998,-17.5,-24.290001,1729427992128.0,0.0
-0.961915,-6.221339,-8.910872,-52.290001,-20.09,-28.35,1729427992146.0,0.0
-1.619941,-6.9679,-9.200402,27.860001,-27.09,-34.16,1729427992166.0,0.0
-2.471786,-5.905487,-8.051848,184.800003,-25.620001,-24.57,1729427992188.0,0.0
-3.948158,-2.739782,-7.743174,339.079987,-25.41,1.47,1729427992206.0,0.0
-4.421937,-3.034099,-8.855836,487.339996,-19.530001,62.580002,1729427992229.0,0.0
-3.428915,-5.895915,-8.441878,531.51001,-7.77,88.059998,1729427992247.0,0.0
-2.885744,-6.886543,-8.992228,481.809998,1.96,77.07,1729427992268.0,0.0
-3.503092,-8.944371,-6.996613,417.549988,28.91,64.889999,1729427992289.0,0.0
-3.512664,-10.042676,-4.771288,418.040009,38.990002,47.459999,1729427992307.0,0.0
-3.031706,-10.463813,-2.955136,476.209991,47.810001,26.809999,1729427992327.0,0.0
-2.574677,-9.95175,-2.124826,508.339996,70.209999,2.03,1729427992349.0,0.0
-2.744568,-7.9011,0.086142,494.970001,94.919998,-15.75,1729427992368.0,0.0
-3.503092,-7.707282,3.239882,436.799988,91.349998,-19.32,1729427992389.0,0.0
-3.76391,-7.152147,6.151947,362.320007,84.699997,-19.389999,1729427992408.0,0.0
-4.436293,-7.836494,6.056234,298.059998,65.379997,-25.48,1729427992430.0,0.0
-3.517449,-7.080362,4.802395,271.670013,58.450001,-29.960001,1729427992449.0,0.0
-4.161119,-5.56092,6.723832,252.910004,56.07,-26.040001,1729427992469.0,0.0
-4.335794,-5.288138,7.578069,196.350006,39.41,-28.630001,1729427992491.0,0.0
-3.816552,-5.156533,6.893722,157.009995,26.6,-26.389999,1729427992509.0,0.0
-3.385844,-4.768896,6.407979,136.639999,20.299999,-22.26,1729427992531.0,0.0
-3.649055,-4.945964,6.719046,113.120003,16.73,-19.6,1729427992548.0,0.0
-3.708875,-5.113462,7.288538,98.489998,12.25,-21.35,1729427992570.0,0.0
-3.744767,-4.943572,7.290931,80.150002,6.37,-23.59,1729427992589.0,0.0
-3.225525,-5.139783,6.398407,64.260002,-3.29,-25.27,1729427992608.0,0.0
-2.299503,-5.288138,5.85763,51.939999,2.87,-25.620001,1729427992633.0,0.0
-2.175076,-4.898108,6.800402,49.349998,14.21,-25.27,1729427992651.0,0.0
-2.823531,-5.056034,7.219146,33.810001,15.75,-22.82,1729427992669.0,0.0
-3.751946,-5.881558,7.329216,16.799999,14.42,-19.460001,1729427992689.0,0.0
-4.733003,-6.266802,7.62114,23.66,17.639999,-14.98,1729427992711.0,0.0
-5.704489,-6.209375,7.970492,38.150002,22.33,-7.91,1729427992728.0,0.0
-6.563512,-5.819345,8.274381,34.02,21.77,-1.96,1729427992811.0,0.0
-6.783652,-4.577469,7.793423,18.549999,17.219999,2.03,1729427992819.0,0.0
-6.465407,-3.416951,6.989435,-3.57,10.64,7.0,1729427992821.0,0.0
-5.453243,-3.412165,6.556334,-19.74,3.71,13.93,1729427992826.0,0.0
-4.802395,-3.845266,6.771688,-22.049999,1.61,17.15,1729427992829.0,0.0
-4.130012,-3.270989,7.042077,-17.219999,4.06,14.28,1729427992848.0,0.0
-3.754339,-3.26381,7.216753,-19.389999,3.78,11.97,1729427992868.0,0.0
-3.282953,-3.775874,6.63769,-19.18,5.74,9.87,1729427992889.0,0.0
-3.09392,-4.436293,6.896115,-4.13,11.27,7.63,1729427992907.0,0.0
-3.199204,-4.156333,7.67139,23.799999,23.24,-2.45,1729427992928.0,0.0
-3.292524,-4.051049,7.831708,27.16,26.67,-4.13,1729427992948.0,0.0
-2.98385,-5.106283,7.063612,22.960001,29.469999,-4.34,1729427992968.0,0.0
-2.859423,-4.871787,7.255038,41.720001,43.330002,-10.36,1729427992989.0,0.0
-3.414558,-4.718646,8.293523,65.169998,50.049999,-15.54,1729427993007.0,0.0
-4.041477,-4.122833,8.798409,86.379997,52.43,-21.42,1729427993028.0,0.0
-4.630112,-3.850052,9.410972,95.340004,49.349998,-24.639999,1729427993049.0,0.0
-4.778467,-4.096512,9.190832,80.360001,39.689999,-29.889999,1729427993068.0,0.0
-4.603791,-4.007978,8.082954,75.040001,31.99,-31.639999,1729427993089.0,0.0
-4.563113,-3.735196,7.721639,78.330002,31.15,-34.720001,1729427993107.0,0.0
-4.82393,-1.739582,8.161918,80.639999,35.630001,-37.59,1729427993129.0,0.0
-4.534399,-2.481357,8.973085,52.639999,24.5,-34.93,1729427993148.0,0.0
-4.309474,-3.672983,8.29113,41.720001,12.6,-31.43,1729427993167.0,0.0
-4.527221,-3.68734,7.860423,48.369999,11.76,-36.119999,1729427993189.0,0.0
-4.644469,-3.103491,8.965906,49.77,13.09,-42.0,1729427993208.0,0.0
-5.4006,-3.136991,8.489735,41.720001,3.01,-43.119999,1729427993229.0,0.0
-5.754738,-0.911665,7.568498,40.740002,-3.43,-39.060001,1729427993249.0,0.0
-5.493921,-0.648455,8.178668,3.92,-17.01,-30.1,1729427993268.0,0.0
-4.632504,-1.39023,8.042276,-20.09,-29.190001,-23.940001,1729427993288.0,0.0
-3.833302,-0.619741,8.73141,-10.29,-28.49,-10.43,1729427993308.0,0.0
-3.804588,-1.533799,8.025528,-24.85,-34.09,2.8,1729427993329.0,0.0
-4.158726,-4.268795,6.905686,-35.630001,-37.099998,7.84,1729427993348.0,0.0
-5.257031,-5.388636,4.524827,-18.41,-22.610001,2.59,1729427993368.0,0.0
-6.62094,-4.242475,5.187639,11.48,0.77,-15.61,1729427993390.0,0.0
-5.012963,-3.921836,8.068598,13.51,17.639999,-29.960001,1729427993407.0,0.0
-4.800002,-3.802195,5.63749,-5.6,14.21,-30.66,1729427993428.0,0.0
-5.079963,-3.672983,7.283752,8.12,27.93,-22.540001,1729427993450.0,0.0
-5.682954,-2.256432,7.704889,11.2,30.309999,-18.690001,1729427993469.0,0.0
-5.991628,-2.799603,7.781459,7.56,21.559999,-16.940001,1729427993491.0,0.0
-5.197211,-1.95015,8.432307,3.22,19.040001,-11.13,1729427993519.0,0.0
-4.48415,-1.103091,7.999206,-7.21,12.32,-4.27,1729427993528.0,0.0
-4.333402,-3.940979,7.396214,-18.620001,6.51,4.55,1729427993548.0,0.0
-4.934,-6.826723,7.070791,-7.98,12.67,-2.94,1729427993567.0,0.0
-5.261817,-5.075177,8.568698,9.87,23.66,-26.110001,1729427993588.0,0.0
-4.625326,-5.462814,8.693125,-14.28,11.76,-40.810001,1729427993609.0,0.0
-5.661418,-4.438686,7.89153,-2.66,6.3,-42.84,1729427993631.0,0.0
-6.51087,-2.715853,6.905686,6.37,4.9,-40.110001,1729427993648.0,0.0
-5.87438,-1.481157,6.819544,16.870001,5.95,-30.309999,1729427993670.0,0.0
-5.982057,-1.344766,7.568498,37.73,9.87,-24.08,1729427993690.0,0.0
-5.07757,-0.897308,7.367501,49.84,18.83,-17.01,1729427993708.0,0.0
-5.326423,-0.839881,7.15454,66.150002,27.09,-4.69,1729427993728.0,0.0
-4.776074,-2.325824,7.458428,46.970001,33.25,2.17,1729427993750.0,0.0
-5.601598,-6.125626,7.688138,7.28,33.529999,0.42,1729427993768.0,0.0
-6.180661,-6.312266,7.360322,-3.01,36.400002,-7.98,1729427993791.0,0.0
-5.977271,-2.316252,7.152147,6.79,33.740002,-11.55,1729427993807.0,0.0
-6.142376,-4.256832,8.65484,-1.89,21.49,-4.27,1729427993829.0,0.0
-6.092126,-2.842674,8.980263,-14.63,12.74,-9.52,1729427993849.0,0.0
-5.9342,-2.249253,8.398808,-8.4,2.24,-0.56,1729427993867.0,0.0
-4.237689,-0.4666,7.956135,-1.89,-4.97,9.59,1729427993889.0,0.0
-5.058427,-1.021735,7.879565,-17.57,-12.88,10.08,1729427993908.0,0.0
-3.68734,-0.239282,7.104291,-6.37,-6.16,25.9,1729427993929.0,0.0
-4.498507,-1.957329,7.274181,-21.139999,-2.1,34.439999,1729427993948.0,0.0
-5.635098,-5.249853,7.446464,-62.650002,0.49,26.74,1729427993969.0,0.0
-5.491528,-6.553941,6.67119,-106.959999,5.32,16.17,1729427993989.0,0.0
-6.242875,-4.273581,5.070391,-153.580002,2.73,-4.62,1729427994007.0,0.0
-6.293124,-5.168497,7.063612,-215.949997,3.15,-12.32,1729427994030.0,0.0
-4.381258,-3.378666,7.678568,-289.100006,-5.67,-17.5,1729427994048.0,0.0
-4.402793,-3.785445,7.077969,-366.799988,-17.5,0.42,1729427994068.0,0.0
-3.878766,-7.109076,6.69751,-400.470001,-30.59,21.84,1729427994090.0,0.0
-2.739782,-6.570691,5.386244,-344.470001,-35.630001,22.540001,1729427994107.0,0.0
-4.39083,-2.201397,4.84068,-355.950012,2.45,49.349998,1729427994129.0,0.0
-7.025328,-3.24706,2.691926,-462.0,-10.36,44.099998,1729427994149.0,0.0
-6.728617,-8.585447,-0.507278,-570.98999,-28.35,18.34,1729427994168.0,0.0
-4.345366,-10.437491,-4.721039,-607.599976,-34.09,-23.73,1729427994189.0,0.0
-4.23051,-8.803195,-6.113662,-555.940002,-15.05,-27.719999,1729427994210.0,0.0
-4.108476,-6.563512,-6.860222,-529.900024,-17.43,-33.459999,1729427994228.0,0.0
-4.512863,-6.716653,-7.836494,-519.75,-13.51,-26.880001,1729427994248.0,0.0
-5.412565,-5.52742,-5.32403,-438.130005,0.14,-14.98,1729427994267.0,0.0
-6.405586,-6.396015,-5.95095,-289.100006,-8.12,2.38,1729427994288.0,0.0
-6.80758,-8.293523,-7.503892,-201.180008,-14.28,4.83,1729427994307.0,0.0
-7.130611,-6.455836,-7.025328,-97.230003,-11.06,-8.47,1729427994330.0,0.0
-6.692725,-5.563312,-6.558727,-65.870003,-8.54,-16.52,1729427994348.0,0.0
-4.871787,-5.04407,-7.692925,-60.48,-10.15,-18.969999,1729427994368.0,0.0
-3.711268,-3.811767,-7.477571,-54.950001,-10.22,-17.5,1729427994389.0,0.0
-2.502892,-4.228118,-7.592427,-27.299999,-13.440001,-8.82,1729427994407.0,0.0
-4.31426,-3.706482,-6.324231,25.34,-14.7,-1.89,1729427994429.0,0.0
-4.689932,-4.127619,-8.348558,27.719999,-17.639999,-2.59,1729427994454.0,0.0
-5.795416,-2.947958,-9.891929,10.99,-15.190001,1.05,1729427994466.0,0.0
-12.27518,-3.639483,-8.355737,-11.83,-2.03,8.12,1729427994490.0,0.0
-2.964707,-3.699304,-5.493921,3.99,-26.18,32.970001,1729427994507.0,0.0
-11.028521,-5.754738,-8.4347,-5.95,-27.370001,6.86,1729427994530.0,0.0
-6.26441,-2.725425,-6.278766,18.83,-29.26,8.4,1729427994549.0,0.0
-8.628519,-3.888337,-7.745567,8.96,-8.47,-1.61,1729427994568.0,0.0
-2.943172,-2.986243,-7.685746,-28.559999,1.96,-14.35,1729427994589.0,0.0
-3.268596,-2.459821,-5.082355,-16.940001,-0.98,-12.95,1729427994609.0,0.0
