acc_x,acc_y,acc_z,gyr_x,gyr_y,gyr_z,timestamp,label
-5.893522,-3.821337,-1.354338,112.139999,27.65,7.98,1729419100815.0,0.0
-10.604989,-4.776074,-2.565106,93.379997,17.99,16.309999,1729419100815.0,0.0
-6.850651,-6.319445,-8.30788,70.279999,-54.459999,-17.219999,1729419100816.0,0.0
-3.436093,-6.745367,-8.075776,44.59,-41.09,-4.97,1729419100826.0,0.0
-7.360322,-6.618547,-10.609775,30.66,11.48,-10.36,1729419100845.0,0.0
-9.29133,-7.302894,-11.033305,62.299999,76.650002,-23.1,1729419100865.0,0.0
-6.039484,-6.9009,-9.439686,91.419998,57.400002,-21.84,1729419100886.0,0.0
-2.148755,-7.913064,-8.013563,100.800003,28.630001,-28.0,1729419100905.0,0.0
-1.557728,-6.017949,-7.915457,89.25,58.170002,-48.720001,1729419100925.0,0.0
-4.35733,-7.116255,-9.133404,88.970001,99.889999,-44.939999,1729419100945.0,0.0
-4.371687,-5.309673,-6.573084,69.300003,114.870003,-49.77,1729419100965.0,0.0
-1.710868,-4.304688,-2.866602,66.360001,78.400002,-27.65,1729419100986.0,0.0
1.282553,-6.443871,-0.552742,85.260002,47.18,-13.09,1729419101005.0,0.0
2.737389,-5.687739,2.17029,50.049999,37.52,-15.47,1729419101027.0,0.0
0.074178,-8.843873,-3.45045,16.450001,21.07,-10.57,1729419101044.0,0.0
-4.883751,-9.777073,-5.491528,-13.16,33.459999,-35.77,1729419101065.0,0.0
-7.077969,-12.524034,-9.810574,35.700001,47.040001,-39.48,1729419101085.0,0.0
-4.448257,-12.282358,-8.013563,136.220001,-4.27,-31.57,1729419101105.0,0.0
-1.347159,-7.982457,-5.302495,206.080002,10.15,-43.049999,1729419101125.0,0.0
-1.691726,-3.701697,-2.383251,184.520004,43.049999,-41.650002,1729419101144.0,0.0
-0.835095,0.844666,0.904487,123.199997,32.830002,-21.280001,1729419101164.0,0.0
2.349752,-1.935793,1.40698,98.279999,-12.53,64.190002,1729419101186.0,0.0
3.07717,-4.364508,0.090927,104.090004,-54.32,116.129997,1729419101204.0,0.0
0.586242,-5.493921,-0.547956,109.480003,-39.41,159.110001,1729419101225.0,0.0
-3.048456,-8.781659,-0.653241,43.68,-35.700001,191.940002,1729419101244.0,0.0
-7.496714,-14.943177,-2.830709,-105.07,-42.0,169.539993,1729419101265.0,0.0
-9.84168,-14.208582,-5.905487,-212.729996,-70.349998,95.970001,1729419101285.0,0.0
-9.174082,-7.01097,-8.638089,-152.529999,-76.090004,87.43,1729419101307.0,0.0
-11.090734,-10.712667,-9.341579,-66.639999,-31.08,96.459999,1729419101325.0,0.0
-9.296116,-12.715459,-10.884951,-62.09,-11.41,-0.42,1729419101346.0,0.0
-6.022735,-14.457435,-9.037691,45.080002,-14.84,-7.28,1729419101366.0,0.0
-2.148755,-11.13859,-6.723832,155.539993,2.8,-27.09,1729419101386.0,0.0
-0.655633,-8.386844,-4.438686,202.229996,25.9,-26.880001,1729419101405.0,0.0
-0.691526,-6.924829,-2.651247,153.089996,30.1,-26.040001,1729419101425.0,0.0
-0.9667,-6.73101,-2.756532,49.139999,31.43,-35.700001,1729419101446.0,0.0
-1.18684,-7.338787,-3.52702,-40.810001,27.02,-36.82,1729419101466.0,0.0
-1.021735,-7.594819,-4.098906,-90.160004,23.309999,-31.710001,1729419101487.0,0.0
-0.81356,-7.113862,-4.278367,-122.220001,21.35,-27.719999,1729419101505.0,0.0
-1.351945,-7.709675,-5.793024,-153.300003,29.4,-23.17,1729419101525.0,0.0
-1.90708,-8.578269,-6.300302,-149.800003,39.830002,-16.66,1729419101545.0,0.0
-2.273181,-8.9348,-6.65444,-123.760002,47.040001,-16.940001,1729419101566.0,0.0
-2.679961,-8.451449,-7.104291,-88.970001,53.41,-15.68,1729419101585.0,0.0
-2.880959,-8.11167,-7.039684,-63.560001,57.68,-11.76,1729419101605.0,0.0
-2.902494,-7.922636,-6.9344,-62.790001,56.91,-9.03,1729419101626.0,0.0
-2.744568,-7.88435,-7.037291,-70.349998,52.009998,-8.96,1729419101644.0,0.0
-2.711068,-7.74796,-6.955935,-69.650002,52.43,-5.39,1729419101665.0,0.0
-2.799603,-7.523034,-6.783652,-60.549999,55.790001,-0.91,1729419101688.0,0.0
-3.122634,-7.525427,-6.283553,-50.119999,54.25,2.1,1729419101705.0,0.0
-3.553342,-7.664211,-6.498906,-48.299999,52.639999,0.28,1729419101726.0,0.0
-3.68734,-7.235896,-6.649654,-43.889999,49.349998,-3.64,1729419101745.0,0.0
-3.507878,-7.04447,-6.589834,-28.98,39.619999,-1.19,1729419101765.0,0.0
-3.302095,-7.164111,-6.206983,-14.42,30.940001,1.33,1729419101787.0,0.0
-3.37388,-6.845865,-6.312266,-3.99,31.5,0.77,1729419101804.0,0.0
-3.696911,-6.295516,-6.216553,0.49,29.120001,-2.38,1729419101827.0,0.0
-4.074977,-6.015556,-5.79781,-10.71,25.549999,-3.36,1729419101846.0,0.0
-4.082155,-6.716653,-5.862415,-36.75,16.309999,-4.9,1729419101865.0,0.0
-3.883551,-7.128219,-6.63769,-35.91,7.7,-7.28,1729419101886.0,0.0
-3.847659,-6.649654,-6.963113,-16.940001,0.77,-9.1,1729419101904.0,0.0
-3.914658,-5.931807,-6.063413,-10.5,9.17,-7.21,1729419101925.0,0.0
-3.672983,-6.333801,-5.62074,-18.27,8.68,-5.74,1729419101945.0,0.0
-3.323631,-6.530013,-6.386444,-14.14,2.03,-7.7,1729419101972.0,0.0
-3.081956,-6.101698,-6.774081,-2.94,0.91,-7.84,1729419101984.0,0.0
-2.959922,-6.039484,-6.886543,1.47,-1.75,-4.83,1729419102006.0,0.0
-3.110669,-6.254838,-6.939186,-0.77,-1.12,-3.15,1729419102029.0,0.0
-3.39063,-6.096912,-7.250252,-2.24,4.34,-5.39,1729419102045.0,0.0
-3.345166,-5.733203,-7.460821,0.21,1.54,-5.32,1729419102066.0,0.0
-3.110669,-5.893522,-7.319644,2.24,0.35,-2.17,1729419102086.0,0.0
-2.866602,-5.855237,-7.298109,1.75,4.76,-3.85,1729419102106.0,0.0
-3.036492,-5.929415,-7.436893,7.42,7.98,-4.48,1729419102127.0,0.0
-3.287738,-5.953342,-7.838887,10.01,7.07,-5.18,1729419102145.0,0.0
-3.17049,-5.977271,-7.436893,-1.75,5.25,-4.83,1729419102165.0,0.0
-2.888137,-6.218946,-7.401,-8.33,3.5,-3.78,1729419102186.0,0.0
-2.677568,-6.273981,-7.365108,-3.92,2.73,-2.38,1729419102207.0,0.0
-2.321038,-5.891129,-7.058826,4.27,1.68,-1.54,1729419102226.0,0.0
-2.213361,-5.991628,-7.034898,9.59,0.63,3.99,1729419102246.0,0.0
-2.376073,-6.216553,-6.9009,5.11,0.63,5.88,1729419102266.0,0.0
-2.519642,-5.998806,-6.754939,-14.91,-0.07,0.63,1729419102286.0,0.0
-2.545963,-6.183054,-7.099504,-33.040001,-2.8,-3.22,1729419102307.0,0.0
-2.603391,-6.592227,-7.525427,-32.130001,-4.06,-2.87,1729419102327.0,0.0
-2.696711,-6.771688,-7.896315,-14.0,-4.06,-2.94,1729419102346.0,0.0
-2.610569,-6.54437,-7.980063,9.31,-5.18,-1.05,1729419102366.0,0.0
-2.533999,-6.104091,-7.647461,15.05,-7.56,0.07,1729419102388.0,0.0
-2.529213,-5.972485,-7.628319,2.24,-4.06,-1.47,1729419102405.0,0.0
-2.493321,-6.305088,-7.831708,-4.76,-5.46,-1.26,1729419102426.0,0.0
-2.385644,-6.51087,-7.960921,-4.06,-7.0,0.49,1729419102447.0,0.0
-2.859423,-6.350551,-7.819745,0.63,-3.43,0.14,1729419102465.0,0.0
-3.026921,-6.312266,-7.551748,4.97,0.7,-0.07,1729419102489.0,0.0
-2.794817,-6.18784,-7.499106,4.55,-7.14,0.21,1729419102507.0,0.0
-2.711068,-6.072984,-7.360322,-0.42,-10.01,0.63,1729419102528.0,0.0
-3.136991,-6.530013,-7.554141,-4.9,-3.71,-1.26,1729419102547.0,0.0
-3.735196,-6.458229,-7.135397,-5.53,4.83,-5.04,1729419102567.0,0.0
-4.149154,-6.259624,-6.85783,2.87,5.04,-7.91,1729419102589.0,0.0
-4.275974,-5.838487,-6.802795,9.45,1.05,-11.9,1729419102607.0,0.0
-4.476971,-5.393422,-6.783652,8.26,1.68,-13.86,1729419102628.0,0.0
-4.709075,-5.541777,-7.195218,0.77,-1.61,-14.63,1729419102646.0,0.0
-4.627719,-5.60399,-7.757531,-10.08,-4.9,-18.41,1729419102667.0,0.0
-4.551149,-5.460421,-8.006385,-22.4,-3.43,-21.84,1729419102691.0,0.0
-3.98405,-5.71406,-8.413164,-24.92,1.89,-25.76,1729419102706.0,0.0
-3.117848,-6.001199,-8.882158,0.91,1.4,-22.82,1729419102727.0,0.0
-2.510071,-5.682954,-9.140583,17.08,-0.56,-19.18,1729419102747.0,0.0
-2.086541,-5.211568,-8.80798,0.91,7.28,-24.360001,1729419102768.0,0.0
-1.61037,-6.101698,-9.006584,-24.57,17.5,-29.190001,1729419102789.0,0.0
-0.727418,-6.075377,-9.193225,-7.91,10.15,-30.450001,1729419102807.0,0.0
-0.430708,-5.79063,-8.999406,10.01,11.48,-28.0,1729419102827.0,0.0
-0.715454,-5.312066,-8.626125,-6.3,20.93,-29.4,1729419102846.0,0.0
-0.598206,-6.058627,-9.159724,-13.37,29.540001,-27.51,1729419102867.0,0.0
-1.45005,-10.262815,5.742774,6.51,30.450001,-20.02,1729419102887.0,0.0
-7.594819,-9.688539,-7.365108,-24.360001,53.48,-38.009998,1729419102906.0,0.0
-3.622734,-7.097112,-7.173682,101.150002,-100.940002,-47.810001,1729419102927.0,0.0
2.084148,-3.18724,-7.786245,57.540001,-97.370003,-15.26,1729419102946.0,0.0
1.081556,-6.941578,-9.901501,53.619999,-49.84,12.25,1729419102966.0,0.0
-2.129612,-7.133004,-6.393622,57.68,44.52,15.96,1729419102988.0,0.0
-3.206382,-8.295916,-7.412964,68.669998,24.639999,13.86,1729419103006.0,0.0
-0.327817,-8.106883,-8.145168,81.059998,-33.880001,19.67,1729419103028.0,0.0
4.072584,-6.876972,-4.828716,108.080002,-31.99,14.14,1729419103046.0,0.0
3.39063,-8.891729,-3.732803,121.449997,-11.9,22.610001,1729419103067.0,0.0
-1.024128,-5.821737,-1.74676,139.369995,14.7,7.7,1729419103088.0,0.0
-2.54357,-6.826723,-2.402394,215.600006,-16.73,45.43,1729419103107.0,0.0
1.26341,-6.819544,-1.342373,230.160004,-92.470001,59.360001,1729419103127.0,0.0
-1.9669,-13.734802,-2.112862,134.539993,-60.900002,69.019997,1729419103147.0,0.0
-4.342973,-16.034306,-5.529813,36.68,-45.57,4.62,1729419103168.0,0.0
-5.199604,-9.848858,-4.663611,-4.2,-6.86,-13.65,1729419103189.0,0.0
-4.974678,-8.556733,-3.503092,28.630001,-15.47,5.32,1729419103206.0,0.0
-3.242275,-10.676775,-4.079762,67.059998,-26.809999,-0.21,1729419103227.0,0.0
-2.835495,-11.849257,-1.70369,128.309998,-4.48,5.88,1729419103247.0,0.0
-2.926422,-8.154739,-3.23031,160.229996,24.57,12.32,1729419103267.0,0.0
-2.400001,-3.895515,-2.376073,59.779999,24.15,22.4,1729419103287.0,0.0
-1.258625,-3.395415,-3.582055,-109.830002,-28.77,24.15,1729419103306.0,0.0
-1.287339,-6.166305,-4.256832,-296.940002,-65.379997,10.08,1729419103328.0,0.0
-2.445465,-11.55494,-6.443871,-361.059998,-36.470001,-17.5,1729419103346.0,0.0
-3.735196,-11.351551,-7.578069,-244.720001,-29.610001,-38.360001,1729419103367.0,0.0
-3.84048,-8.365308,-2.825923,-129.149994,-20.51,-25.690001,1729419103387.0,0.0
-4.156333,-6.573084,-3.89073,-141.119995,-36.049999,-25.34,1729419103406.0,0.0
-2.991028,-5.737988,-6.685547,-170.240005,-69.370003,-36.82,1729419103427.0,0.0
-1.51705,-3.323631,-9.836893,-171.430008,-64.260002,7.0,1729419103446.0,0.0
-2.012364,-3.902694,-9.351151,-194.460007,-45.779999,21.629999,1729419103468.0,0.0
-3.742374,-7.575676,-8.078169,-198.169998,9.66,2.8,1729419103487.0,0.0
-4.957928,-6.508478,-5.795416,-176.960007,3.22,-17.15,1729419103506.0,0.0
-5.067998,-4.216154,-9.138189,-134.470001,-31.5,-11.13,1729419103527.0,0.0
-3.665804,-2.041078,-10.82513,-117.32,-55.369999,3.43,1729419103546.0,0.0
-2.517249,-3.699304,-9.60479,-147.630005,-33.740002,18.34,1729419103567.0,0.0
-3.034099,-6.058627,-6.470192,-147.770004,-6.16,15.96,1729419103598.0,0.0
-5.584848,-4.438686,-4.541577,-121.309998,8.4,12.67,1729419103606.0,0.0
-5.190032,-5.460421,-10.210175,-55.02,-38.779999,10.99,1729419103627.0,0.0
-5.163712,-4.615755,-10.475778,-24.43,-34.509998,35.91,1729419103646.0,0.0
-6.309873,-8.283953,-8.690732,-0.77,2.8,26.880001,1729419103667.0,0.0
-5.615955,-8.719445,-10.578669,33.389999,7.63,8.05,1729419103687.0,0.0
-4.063013,-5.833702,-10.554741,82.18,-9.38,10.71,1729419103706.0,0.0
-2.87378,-7.334002,-8.391629,90.93,-9.94,21.0,1729419103726.0,0.0
-1.854438,-5.374279,-4.39083,23.799999,-15.05,-2.94,1729419103746.0,0.0
-2.859423,-7.401,-10.686346,43.68,-14.91,-12.81,1729419103767.0,0.0
-3.701697,-4.807181,-9.501899,121.379997,25.129999,-4.27,1729419103787.0,0.0
-4.981857,-5.056034,-7.001399,191.309998,36.259998,22.120001,1729419103806.0,0.0
-4.448257,-6.04427,-7.523034,201.880005,21.35,29.540001,1729419103826.0,0.0
-3.462414,-7.580462,-9.49472,219.449997,10.5,27.09,1729419103847.0,0.0
-3.443272,-6.108876,-10.643275,248.5,28.559999,28.139999,1729419103867.0,0.0
-3.976871,-5.900701,-9.150154,291.339996,76.090004,31.290001,1729419103888.0,0.0
-4.898108,-6.623333,-5.273781,328.579987,123.550003,28.210001,1729419103906.0,0.0
-4.680361,-4.969893,-6.185446,371.910004,125.860001,25.41,1729419103926.0,0.0
-4.991428,-6.597012,-8.437093,388.290009,98.279999,40.950001,1729419103946.0,0.0
-5.412565,-9.903893,-2.938386,330.049988,122.709999,3.08,1729419103966.0,0.0
-5.556134,-11.57169,-2.163112,313.950012,92.260002,-26.74,1729419103990.0,0.0
-2.59382,-6.525227,-3.785445,395.220001,54.950001,-31.08,1729419104014.0,0.0
-2.462214,-4.12044,1.351945,473.130005,103.040001,5.04,1729419104028.0,0.0
-5.340781,-3.381058,5.065606,381.01001,112.840004,8.26,1729419104047.0,0.0
-6.159126,-6.886543,2.646462,205.169998,47.389999,-27.299999,1729419104066.0,0.0
-6.06102,-14.129619,2.098505,86.660004,-6.16,-60.48,1729419104089.0,0.0
-1.435694,-10.798808,2.050649,125.93,8.12,-56.420002,1729419104107.0,0.0
-0.502493,-5.656632,0.748954,165.759995,60.48,-36.470001,1729419104127.0,0.0
-1.368695,-3.282953,2.17029,120.330002,52.220001,-32.759998,1729419104146.0,0.0
-2.031506,-4.48415,4.819145,29.889999,33.880001,-12.6,1729419104168.0,0.0
-2.11047,-8.573483,3.182454,-69.860001,10.64,-19.879999,1729419104188.0,0.0
-1.454836,-12.074183,0.701097,-130.059998,-29.049999,-22.540001,1729419104206.0,0.0
-0.772882,-10.923235,0.177069,-134.889999,-33.880001,-7.35,1729419104227.0,0.0
-2.545963,-11.315658,5.62074,-137.550003,-29.75,-20.790001,1729419104247.0,0.0
-6.525227,-10.305886,4.886144,-182.210007,-26.74,-32.689999,1729419104267.0,0.0
-6.106483,-8.702696,3.079563,-150.639999,-91.07,-30.870001,1729419104288.0,0.0
-2.945565,-7.858029,-0.870987,-202.649994,-125.230003,-24.5,1729419104307.0,0.0
-0.861416,-7.121039,-1.808974,-319.899994,-145.600006,-47.459999,1729419104327.0,0.0
-1.399801,-7.946564,-2.041078,-412.160004,-111.230003,-53.48,1729419104347.0,0.0
-3.007778,-9.777073,-2.452643,-430.360016,-74.410004,-63.630001,1729419104367.0,0.0
-3.45045,-10.459028,-2.991028,-369.25,-88.620003,-70.840004,1729419104390.0,0.0
-4.584648,-11.416157,-3.354738,-234.430008,-95.970001,-65.309998,1729419104407.0,0.0
-3.005385,-7.403394,-5.008178,-180.949997,-40.740002,-68.040001,1729419104427.0,0.0
-1.225125,-4.910072,-5.374279,-163.589996,-44.380001,-50.189999,1729419104447.0,0.0
-0.935594,-5.584848,-5.575277,-179.759995,-60.689999,-24.639999,1729419104467.0,0.0
-0.837488,-5.852845,-7.920243,-195.300003,-51.939999,-12.25,1729419104488.0,0.0
-1.550549,-7.848458,-7.848458,-201.110001,-49.84,-4.62,1729419104508.0,0.0
-1.057628,-7.893922,-6.750153,-211.330002,-39.830002,-18.48,1729419104528.0,0.0
-1.052842,-7.745567,-6.168696,-161.559998,-40.110001,-14.91,1729419104548.0,0.0
-1.079163,-7.01097,-5.228317,-101.709999,-48.02,-8.12,1729419104568.0,0.0
-2.050649,-4.173083,-7.051648,-69.440002,-33.459999,-4.13,1729419104591.0,0.0
-3.330809,-4.347759,-11.619547,-46.619999,-25.83,16.450001,1729419104608.0,0.0
-3.445665,-7.448857,-11.404193,-22.049999,-17.43,23.450001,1729419104628.0,0.0
-2.608176,-8.999406,-8.451449,34.02,15.61,22.120001,1729419104648.0,0.0
-2.053042,-7.286145,-8.829515,86.519997,-5.11,14.63,1729419104668.0,0.0
-1.397408,-5.304887,-7.628319,75.879997,-17.43,0.7,1729419104691.0,0.0
-1.61037,-7.04447,-9.320045,-29.68,-17.08,-14.42,1729419104708.0,0.0
-1.567299,-7.855636,-8.226524,-31.780001,-2.8,-21.98,1729419104733.0,0.0
-2.146362,-6.941578,-4.546363,22.540001,34.580002,-10.22,1729419104749.0,0.0
-3.737589,-6.240481,-6.903293,62.439999,25.200001,-13.23,1729419104770.0,0.0
-3.498307,-7.616355,-7.896315,63.84,-24.08,-14.0,1729419104789.0,0.0
-1.495514,-7.982457,-7.223931,68.599998,-33.18,-14.63,1729419104808.0,0.0
-0.641276,-5.513064,-5.71406,36.540001,-33.18,-16.799999,1729419104828.0,0.0
-1.536192,-3.330809,-3.28056,-28.210001,-12.39,-23.1,1729419104850.0,0.0
-3.206382,-3.608376,-5.860023,-68.879997,-5.18,-17.01,1729419104869.0,0.0
-2.794817,-6.472585,-8.812766,-62.790001,-48.439999,-1.82,1729419104889.0,0.0
-0.976272,-6.099305,-9.736395,-22.4,-54.25,0.63,1729419104908.0,0.0
-1.887937,-3.988836,-8.9683,12.04,-10.43,15.190001,1729419104928.0,0.0
-3.538985,-3.754339,-8.286345,12.25,17.360001,23.52,1729419104948.0,0.0
-3.376273,-2.644069,-8.848659,-16.24,2.38,28.210001,1729419104968.0,0.0
-3.419343,-5.556134,-8.039884,-8.68,-0.98,49.490002,1729419104989.0,0.0
-3.129812,-6.534799,-6.719046,-1.19,8.54,42.349998,1729419105008.0,0.0
-3.986443,-6.099305,-6.845865,33.529999,1.12,37.66,1729419105030.0,0.0
-4.709075,-5.668597,-7.276574,54.599998,9.73,42.490002,1729419105047.0,0.0
-5.008178,-6.388836,-7.441679,37.869999,-0.63,44.799999,1729419105068.0,0.0
-4.680361,-6.606583,-6.845865,14.28,-3.01,33.25,1729419105089.0,0.0
-4.304688,-6.530013,-6.400801,0.91,-2.31,20.370001,1729419105108.0,0.0
-4.127619,-7.537392,-7.310073,11.27,-23.030001,11.9,1729419105128.0,0.0
-3.223132,-8.185846,-7.783852,38.57,-35.560001,2.17,1729419105148.0,0.0
-2.995814,-6.259624,-7.89153,40.740002,-33.529999,1.96,1729419105168.0,0.0
-3.462414,-5.903094,-8.54477,44.799999,-9.8,0.49,1729419105199.0,0.0
-4.41715,-7.063612,-6.218946,32.130001,12.46,2.73,1729419105208.0,0.0
-4.345366,-7.99442,-6.26441,37.59,15.12,-3.71,1729419105228.0,0.0
-3.917051,-9.370294,-7.262216,108.779999,-3.57,4.97,1729419105248.0,0.0
-3.481557,-9.568897,-5.91745,197.680008,-13.440001,11.62,1729419105268.0,0.0
-3.730411,-7.685746,-6.022735,270.269989,4.97,14.77,1729419105290.0,0.0
-5.017749,-7.099504,-3.835695,328.720001,28.91,25.27,1729419105307.0,0.0
-5.558527,-7.446464,-1.98365,307.089996,34.860001,25.969999,1729419105328.0,0.0
-4.558327,-8.73141,-2.330609,235.270004,10.08,12.67,1729419105347.0,0.0
-3.017349,-9.911072,-2.897708,182.559998,4.83,-0.91,1729419105368.0,0.0
-3.194418,-11.351551,-1.409373,144.619995,14.56,-2.31,1729419105391.0,0.0
-2.969493,-9.994821,-0.815953,99.260002,8.26,-16.870001,1729419105407.0,0.0
-3.165704,-6.427122,0.502493,39.060001,13.02,-16.450001,1729419105428.0,0.0
-3.440879,-4.565506,1.189233,-49.84,3.71,-8.05,1729419105448.0,0.0
-2.916851,-5.417351,-2.0004,-178.570007,-18.620001,-19.25,1729419105468.0,0.0
-2.199004,-6.202196,-6.106483,-300.299988,-25.129999,-27.02,1729419105489.0,0.0
-2.012364,-6.424729,-8.240881,-349.579987,-6.93,-25.549999,1729419105508.0,0.0
-4.165904,-8.190632,-4.821537,-325.5,15.82,-8.47,1729419105529.0,0.0
-5.962914,-9.401401,-3.103491,-269.360016,12.67,-13.65,1729419105548.0,0.0
-5.749953,-6.675975,-6.446264,-236.740005,-25.41,-30.030001,1729419105568.0,0.0
-4.285545,-8.343772,-5.419744,-171.220001,-79.449997,-20.860001,1729419105589.0,0.0
-2.754139,-5.903094,-7.130611,-127.330002,-84.07,-21.35,1729419105608.0,0.0
-3.321238,-3.67059,-8.319844,-86.309998,-67.830002,-1.96,1729419105628.0,0.0
-4.412365,-2.622534,-9.336794,-122.43,-57.82,13.02,1729419105647.0,0.0
-4.311867,-3.529413,-10.289137,-195.580002,-26.110001,0.63,1729419105668.0,0.0
-4.457829,-6.577869,-7.484749,-228.619995,-4.27,-7.84,1729419105688.0,0.0
-3.799802,-4.563113,-9.51147,-103.599998,-4.2,-10.08,1729419105707.0,0.0
-3.668197,-2.644069,-10.255639,-52.150002,-40.599998,20.440001,1729419105728.0,0.0
-3.455236,-2.888137,-8.992228,-79.379997,-12.18,16.59,1729419105747.0,0.0
-4.852644,-5.572884,-5.716454,-128.309998,16.66,7.7,1729419105834.0,0.0
-5.515456,-7.097112,-7.707282,-135.940002,10.36,-18.76,1729419105835.0,0.0
-4.546363,-5.405386,-8.645268,-89.879997,-16.52,-14.14,1729419105842.0,0.0
-3.072384,-3.728018,-8.365308,-28.700001,-28.42,2.66,1729419105842.0,0.0
-5.123034,-3.309274,-8.441878,37.029999,-6.23,20.09,1729419105884.0,0.0
-5.721239,-5.254639,-8.331808,72.099998,12.25,35.490002,1729419105887.0,0.0
-4.302295,-5.319244,-8.13799,52.990002,20.93,35.84,1729419105907.0,0.0
-3.34038,-4.867002,-7.805387,21.91,-0.42,31.85,1729419105928.0,0.0
-3.287738,-5.182854,-10.4016,7.56,3.5,24.710001,1729419105948.0,0.0
-2.914458,-9.98525,-8.709875,55.650002,15.47,24.639999,1729419105969.0,0.0
-3.63709,-3.488736,0.346959,53.549999,30.380001,16.379999,1729419105988.0,0.0
-4.989035,-6.039484,-9.906286,169.960007,-0.91,17.01,1729419106007.0,0.0
-5.735595,-4.752146,-11.102697,148.399994,-29.68,25.9,1729419106031.0,0.0
-6.809973,-6.52762,-8.750552,108.849998,34.509998,11.27,1729419106048.0,0.0
-4.680361,-6.376873,-7.776673,124.459999,10.01,7.7,1729419106068.0,0.0
-3.850052,-9.537791,-10.463813,241.710007,10.36,25.969999,1729419106090.0,0.0
-3.4672,-8.248059,-12.193825,340.899994,39.130001,9.66,1729419106107.0,0.0
-4.694718,-4.369294,-9.01137,374.920013,81.269997,9.8,1729419106128.0,0.0
-5.845665,-3.072384,-4.201797,316.049988,95.900002,7.77,1729419106147.0,0.0
-5.735595,-6.396015,-5.276174,250.949997,94.989998,-12.6,1729419106175.0,0.0
-5.190032,-8.13799,-4.843073,229.040009,78.330002,-21.91,1729419106193.0,0.0
-5.252246,-9.815358,-3.696911,230.860001,64.68,-20.719999,1729419106207.0,0.0
-4.063013,-9.212367,-5.039285,211.330002,40.950001,-35.700001,1729419106229.0,0.0
-3.306881,-8.642875,-4.744967,203.0,31.85,-35.700001,1729419106247.0,0.0
-3.132205,-9.722038,-3.816552,217.630005,29.68,-40.670002,1729419106268.0,0.0
-3.180061,-8.590233,-0.181855,215.809998,52.009998,-54.880001,1729419106293.0,0.0
-2.510071,-5.010571,0.270389,227.080002,54.599998,-50.82,1729419106308.0,0.0
-2.452643,-3.062813,0.119641,244.160004,61.040001,-11.62,1729419106328.0,0.0
-3.661019,-6.171089,0.646062,179.479996,51.099998,2.73,1729419106348.0,0.0
-3.905087,-8.260024,-0.059821,78.68,15.82,-22.33,1729419106368.0,0.0
-3.979264,-11.56451,0.440279,96.669998,0.35,-6.86,1729419106388.0,0.0
-2.976671,-11.081161,1.971686,123.620003,9.66,-11.83,1729419106410.0,0.0
-0.382852,-5.146961,2.876173,154.630005,-0.56,-15.4,1729419106429.0,0.0
-0.739382,-8.365308,5.635098,139.930008,4.2,9.24,1729419106449.0,0.0
-0.736989,-6.795617,5.046463,10.78,-39.970001,-2.31,1729419106469.0,0.0
-1.782653,-10.344172,1.859223,-85.330002,-46.689999,12.81,1729419106492.0,0.0
-2.433501,-11.040483,0.885344,-190.539993,-54.670002,-12.11,1729419106526.0,0.0
-2.562713,-11.937792,0.899701,-201.320007,-59.849998,-11.48,1729419106598.0,0.0
-2.610569,-11.152946,1.684547,-181.509995,-39.689999,-13.51,1729419106600.0,0.0
-3.608376,-9.506684,2.033899,-172.199997,-23.17,-14.91,1729419106601.0,0.0
-4.498507,-7.929814,1.375873,-203.490005,-14.98,-11.83,1729419106602.0,0.0
-4.488935,-6.678369,-0.799203,-289.799988,-27.440001,-24.01,1729419106608.0,0.0
-3.132205,-7.76471,-2.203789,-400.049988,-51.029999,-46.830002,1729419106631.0,0.0
-4.13719,-10.504492,-2.723032,-467.040009,-97.510002,-67.059998,1729419106670.0,0.0
-4.335794,-11.24866,-6.546762,-353.360016,-107.870003,-73.080002,1729419106670.0,0.0
-2.545963,-7.996813,-6.175875,-214.410004,-72.169998,-64.050003,1729419106689.0,0.0
-1.899901,-4.871787,-4.615755,-161.279999,-37.240002,-46.060001,1729419106708.0,0.0
-2.711068,-4.644469,-5.149354,-167.509995,-42.91,-21.49,1729419106729.0,0.0
-2.95035,-3.931407,-7.649854,-215.389999,-52.639999,-10.15,1729419106749.0,0.0
-2.155933,-5.335995,-7.929814,-252.490005,-82.459999,-2.52,1729419106769.0,0.0
-0.600598,-6.245267,-8.927622,-291.339996,-113.68,-12.95,1729419106789.0,0.0
-0.023928,-5.347959,-10.765309,-249.479996,-77.0,-9.17,1729419106808.0,0.0
-0.306281,-6.927221,-9.463614,-164.919998,-43.259998,-1.54,1729419106829.0,0.0
-0.976272,-4.577469,-9.186047,-123.059998,-26.389999,-15.47,1729419106848.0,0.0
-2.63689,-3.711268,-10.011569,-119.840004,-15.4,-5.6,1729419106868.0,0.0
-1.931008,-4.455436,-9.836893,-130.339996,-22.82,-8.05,1729419106894.0,0.0
-2.318645,-5.541777,-9.35833,-86.940002,-8.89,0.63,1729419106908.0,0.0
-3.795017,-6.448657,-8.736196,-7.7,11.27,13.72,1729419106928.0,0.0
-3.924229,-5.053641,-9.908678,54.459999,2.66,10.22,1729419106949.0,0.0
-3.921836,-5.259424,-9.004191,57.470001,15.12,16.66,1729419106968.0,0.0
-3.759124,-4.165904,-6.927221,39.060001,23.1,9.66,1729419106990.0,0.0
-4.019942,-3.546163,-6.30748,41.369999,13.79,13.79,1729419107008.0,0.0
-3.859623,-3.663411,-8.207381,2.59,-15.82,10.08,1729419107030.0,0.0
-3.24706,-4.658825,-8.647661,-33.25,-24.99,-1.61,1729419107048.0,0.0
-3.464807,-5.194818,-7.243074,-44.59,-24.639999,-4.06,1729419107068.0,0.0
-3.981657,-5.12782,-8.329416,-28.42,-23.66,-2.66,1729419107090.0,0.0
-3.723232,-6.099305,-7.984849,-19.74,-29.4,8.61,1729419107108.0,0.0
-2.172683,-4.761717,-7.202396,7.7,-27.23,13.72,1729419107129.0,0.0
-2.232504,-3.426522,-7.989635,62.369999,-37.170002,29.960001,1729419107148.0,0.0
-3.814159,-2.79721,-7.678568,103.669998,-13.58,35.91,1729419107168.0,0.0
-5.096712,-4.21376,-8.516055,161.070007,-5.04,52.290001,1729419107190.0,0.0
-4.570292,-4.235296,-9.973285,160.440002,-22.610001,62.790001,1729419107208.0,0.0
-3.852444,-6.329016,-10.640882,144.619995,-15.47,51.939999,1729419107228.0,0.0
-3.993621,-7.941778,-10.782058,161.770004,17.01,34.23,1729419107248.0,0.0
-4.426722,-10.229317,-10.34178,259.279999,61.810001,13.79,1729419107268.0,0.0
-4.572684,-9.24108,-9.224331,416.850006,105.559998,5.67,1729419107289.0,0.0
-5.201996,-5.69731,-9.49472,521.289978,88.550003,24.360001,1729419107308.0,0.0
-4.632504,-4.431508,-4.888536,425.25,69.230003,21.77,1729419107329.0,0.0
-3.87398,-5.534599,-3.562913,313.320007,78.68,3.71,1729419107349.0,0.0
-4.802395,-8.642875,-3.761517,250.949997,58.799999,-7.49,1729419107369.0,0.0
-4.890929,-9.865608,-2.143969,249.479996,20.51,-32.41,1729419107392.0,0.0
-2.572284,-8.343772,-1.0002,327.809998,5.39,-31.01,1729419107409.0,0.0
-2.177469,-5.233103,-0.284746,375.619995,54.32,2.59,1729419107430.0,0.0
-4.398008,-6.051448,3.177669,330.329987,60.689999,12.46,1729419107448.0,0.0
-4.773681,-6.352944,2.493321,202.789993,13.37,-5.11,1729419107468.0,0.0
-3.785445,-8.652447,1.256232,96.879997,-9.45,-5.95,1729419107492.0,0.0
-3.460021,-10.169496,0.198604,45.849998,-21.0,-12.6,1729419107509.0,0.0
-1.837688,-9.394222,0.497707,81.550003,-10.99,-5.46,1729419107529.0,0.0
-0.995414,-7.384251,3.292524,125.230003,10.01,8.82,1729419107550.0,0.0
-1.038485,-4.977071,4.26401,118.93,31.639999,11.55,1729419107569.0,0.0
-2.615355,-5.144568,3.955336,13.65,23.17,18.48,1729419107595.0,0.0
-3.555735,-7.226324,2.928815,-122.360001,-1.19,6.58,1729419107611.0,0.0
-4.151547,-11.925828,1.87358,-208.460007,-19.6,5.32,1729419107630.0,0.0
-3.318845,-13.165311,1.457229,-181.300003,-37.310001,3.92,1729419107649.0,0.0
-2.440679,-11.002198,2.019542,-133.559998,-24.92,6.02,1729419107669.0,0.0
-3.567699,-8.200203,3.081956,-133.070007,-19.040001,5.74,1729419107691.0,0.0
-5.072784,-5.843273,3.76391,-182.630005,-21.280001,8.89,1729419107709.0,0.0
-5.015356,-5.587241,2.055435,-270.549988,-47.18,6.51,1729419107730.0,0.0
-4.261617,-6.963113,-0.368495,-378.350006,-74.269997,-11.9,1729419107748.0,0.0
-3.9338,-7.192825,-1.770689,-482.649994,-77.980003,-33.740002,1729419107769.0,0.0
-4.034299,-7.702496,-3.194418,-508.830017,-63.07,-53.48,1729419107790.0,0.0
-5.690133,-8.922836,-1.258625,-445.690002,-81.269997,-63.560001,1729419107808.0,0.0
-4.290331,-9.552148,-7.585248,-277.480011,-106.260002,-45.920002,1729419107829.0,0.0
-3.081956,-7.257431,-5.065606,-160.860001,-59.150002,-15.96,1729419107848.0,0.0
-3.007778,-4.311867,-5.003392,-139.649994,-28.84,-9.24,1729419107869.0,0.0
-4.07737,-3.333202,-7.838887,-152.740005,-59.010002,9.38,1729419107891.0,0.0
-4.37408,-3.184847,-9.822537,-200.759995,-81.620003,19.74,1729419107909.0,0.0
-3.943372,-4.261617,-7.896315,-236.460007,-66.080002,20.09,1729419107931.0,0.0
-3.330809,-4.957928,-8.35813,-235.199997,-63.0,17.85,1729419107948.0,0.0
-4.41715,-6.515656,-7.54457,-187.389999,-59.779999,27.58,1729419107969.0,0.0
-4.115655,-6.465407,-8.685946,-123.760002,-67.970001,4.55,1729419107991.0,0.0
-4.431508,-4.73061,-9.293723,-75.529999,-58.380001,21.42,1729419108009.0,0.0
-4.924429,-5.833702,-8.980263,-31.15,-39.48,28.35,1729419108033.0,0.0
-6.025128,-6.317052,-9.303294,11.83,-21.629999,20.93,1729419108049.0,0.0
-6.128019,-5.522634,-8.736196,18.27,-18.129999,12.04,1729419108079.0,0.0
-5.644669,-4.388437,-8.784052,1.61,-15.12,8.82,1729419108091.0,0.0
-5.386244,-4.005585,-9.178867,-3.08,-12.67,7.14,1729419108109.0,0.0
-5.230711,-4.936393,-9.846465,3.64,-0.84,2.1,1729419108129.0,0.0
-4.883751,-6.525227,-5.546563,14.56,-1.19,2.1,1729419108149.0,0.0
-4.969893,-2.287539,-3.613162,4.34,-5.25,-9.94,1729419108168.0,0.0
-5.893522,-4.749753,-7.398607,81.269997,-23.52,0.98,1729419108191.0,0.0
-5.577669,-6.817152,-8.38445,105.980003,-23.030001,5.88,1729419108216.0,0.0
-5.948557,-6.446264,-7.905886,104.790001,9.45,7.28,1729419108229.0,0.0
-6.104091,-5.876772,-6.025128,143.080002,22.889999,-1.75,1729419108252.0,0.0
-6.707082,-3.914658,-8.429914,201.110001,30.1,3.64,1729419108270.0,0.0
-7.025328,-5.235496,-9.535398,271.73999,26.18,16.1,1729419108291.0,0.0
-6.606583,-9.209974,-7.573284,289.660004,73.150002,5.81,1729419108310.0,0.0
-4.826324,-6.606583,-6.441479,236.669998,100.519997,-23.1,1729419108329.0,0.0
-4.989035,-7.623533,-7.350751,285.390015,80.849998,-1.75,1729419108350.0,0.0
-4.814359,-5.417351,-6.709475,297.220001,54.670002,-3.5,1729419108370.0,0.0
-5.395815,-6.269196,-3.079563,298.480011,61.389999,5.67,1729419108390.0,0.0
-5.015356,-7.058826,-3.905087,267.399994,46.619999,-10.92,1729419108410.0,0.0
-4.524827,-8.451449,-4.914857,263.829987,25.969999,-17.99,1729419108431.0,0.0
-5.438886,-10.545169,-2.364109,294.769989,26.110001,-24.710001,1729419108451.0,0.0
-4.847858,-9.860823,0.155533,350.630005,32.27,-34.299999,1729419108470.0,0.0
-4.158726,-4.31426,1.789831,358.679993,41.16,-17.639999,1729419108491.0,0.0
-4.414758,-3.189633,3.448057,323.540009,43.330002,8.26,1729419108509.0,0.0
-5.321638,-4.577469,5.479564,193.270004,4.2,8.26,1729419108530.0,0.0
-2.053042,-5.977271,2.06022,79.449997,-43.400002,-3.71,1729419108550.0,0.0
-0.748954,-8.441878,-1.375873,45.779999,-14.7,25.129999,1729419108572.0,0.0
-6.297909,-10.954341,3.632305,83.230003,35.91,35.0,1729419108594.0,0.0
-7.006185,-8.647661,4.084548,112.489998,44.170002,24.5,1729419108610.0,0.0
-5.85763,-6.819544,2.392823,49.420002,30.309999,11.2,1729419108632.0,0.0
-5.441278,-6.79083,1.567299,-44.310001,15.47,-3.78,1729419108649.0,0.0
-6.202196,-8.331808,2.024328,-108.5,11.13,-7.49,1729419108670.0,0.0
-6.238089,-9.626326,1.440479,-133.070007,-1.33,-12.53,1729419108693.0,0.0
-4.847858,-8.228917,2.859423,-125.510002,-8.05,-14.56,1729419108710.0,0.0
-4.819145,-6.836295,1.586441,-132.509995,-1.47,-11.55,1729419108731.0,0.0
-5.304887,-8.228917,0.323031,-169.399994,-16.66,-17.43,1729419108750.0,0.0
-4.498507,-8.95155,-0.363709,-206.570007,-37.029999,-24.639999,1729419108770.0,0.0
-4.070191,-9.633504,-0.507278,-219.940002,-37.66,-19.460001,1729419108791.0,0.0
-4.551149,-10.281959,0.61017,-227.710007,-36.540001,-27.09,1729419108810.0,0.0
-4.809574,-8.666803,-1.064806,-258.230011,-33.110001,-36.259998,1729419108830.0,0.0
-4.68754,-7.312466,-1.024128,-271.25,-44.099998,-44.029999,1729419108850.0,0.0
-3.4672,-8.200203,-3.065206,-279.929993,-50.189999,-37.939999,1729419108870.0,0.0
-4.125226,-8.664411,-4.599005,-336.48999,-46.549999,-55.16,1729419108891.0,0.0
-5.316852,-8.872586,-3.172883,-400.610016,-32.41,-72.239998,1729419108910.0,0.0
-6.472585,-11.315658,-2.091327,-322.420013,-61.880001,-57.889999,1729419108934.0,0.0
-3.979264,-8.042276,-5.498707,-171.080002,-58.099998,-41.02,1729419108949.0,0.0
-3.359523,-5.706882,-6.9344,-72.800003,-9.94,-7.14,1729419108970.0,0.0
-4.48415,-4.551149,-8.085347,-55.09,-19.6,10.99,1729419108993.0,0.0
-4.718646,-5.355137,-6.240481,-123.830002,-36.119999,3.71,1729419109009.0,0.0
-3.014957,-5.201996,-8.166703,-205.589996,-27.860001,-24.85,1729419109034.0,0.0
-2.617748,-5.362316,-9.678967,-179.410004,-34.23,-9.03,1729419109051.0,0.0
-2.861816,-5.831308,-6.707082,-145.25,-15.47,2.03,1729419109071.0,0.0
-3.555735,-5.795416,-6.216553,-142.449997,-10.36,-3.29,1729419109092.0,0.0
-4.130012,-5.06082,-7.458428,-133.979996,-24.360001,-0.56,1729419109111.0,0.0
-4.005585,-5.489135,-8.403593,-96.739998,-21.559999,6.79,1729419109132.0,0.0
-4.266403,-5.245068,-9.647861,-32.41,-15.26,20.09,1729419109150.0,0.0
-5.230711,-5.469993,-9.001799,40.810001,14.98,24.57,1729419109172.0,0.0
-6.025128,-4.48415,-7.972885,69.860001,26.530001,22.889999,1729419109192.0,0.0
-5.98445,-5.048856,-8.901299,46.900002,17.290001,16.379999,1729419109210.0,0.0
-4.342973,-7.140182,-9.997212,-6.37,12.95,-5.32,1729419109233.0,0.0
-3.519842,-6.472585,-6.680761,-2.38,27.719999,-15.33,1729419109250.0,0.0
-3.931407,-3.993621,-3.692125,38.639999,37.450001,-17.360001,1729419109272.0,0.0
-4.969893,-3.337988,-6.814759,67.480003,12.53,-8.33,1729419109293.0,0.0
-4.855037,-5.362316,-8.901299,40.529999,-6.93,-9.87,1729419109310.0,0.0
-3.862016,-6.58744,-8.032705,-13.440001,6.86,-23.450001,1729419109331.0,0.0
-3.756732,-5.960521,-6.147161,-11.9,10.99,-32.900002,1729419109352.0,0.0
-3.491128,-6.675975,-8.446664,19.6,2.17,-37.450001,1729419109371.0,0.0
-3.438486,-3.684947,-7.087541,64.470001,-10.85,-23.52,1729419109393.0,0.0
-4.261617,-4.826324,-6.73101,49.77,0.98,-7.28,1729419109411.0,0.0
-3.969693,-6.733403,-7.783852,29.4,4.55,-16.73,1729419109432.0,0.0
-3.596412,-3.84048,-7.939385,11.62,-5.6,-11.97,1729419109450.0,0.0
-3.909872,-2.495714,-6.9344,11.55,-5.25,-5.25,1729419109472.0,0.0
-4.426722,-2.079363,-7.427321,0.35,-4.34,4.34,1729419109491.0,0.0
-4.553542,-3.912265,-7.9011,-19.950001,-4.41,11.27,1729419109510.0,0.0
-3.962514,-5.446064,-7.573284,-44.240002,-3.78,9.59,1729419109531.0,0.0
-3.457629,-5.675776,-7.396214,-29.26,-6.3,10.36,1729419109550.0,0.0
-3.787838,-5.048856,-8.650054,27.23,-9.17,11.62,1729419109570.0,0.0
-4.572684,-4.912465,-8.611769,36.330002,7.0,12.81,1729419109591.0,0.0
-5.151747,-5.45085,-8.051848,-9.8,16.030001,-2.59,1729419109612.0,0.0
-5.45085,-5.613562,-5.888737,-51.73,21.98,-3.71,1729419109630.0,0.0
-4.601398,-5.489135,-7.429714,-34.790001,-6.44,-0.98,1729419109651.0,0.0
-4.182654,-5.431707,-7.470392,14.56,-6.72,6.93,1729419109670.0,0.0
-5.012963,-4.658825,-6.573084,55.369999,14.28,14.14,1729419109691.0,0.0
-5.888737,-5.151747,-6.470192,70.07,7.42,17.43,1729419109711.0,0.0
-5.369494,-4.845466,-6.465407,42.560001,-4.9,12.95,1729419109731.0,0.0
-4.431508,-4.67079,-6.539584,17.360001,-14.07,13.51,1729419109750.0,0.0
-4.448257,-5.213961,-6.752545,21.07,-10.64,15.26,1729419109771.0,0.0
-4.534399,-6.407979,-7.135397,48.650002,-2.59,15.33,1729419109792.0,0.0
-3.960121,-7.113862,-7.948956,81.480003,-16.799999,13.72,1729419109810.0,0.0
-4.012764,-6.211767,-6.74776,68.18,-9.52,12.46,1729419109831.0,0.0
-4.541577,-6.068198,-6.343372,38.849998,9.17,-0.56,1729419109850.0,0.0
-5.046463,-6.348158,-6.226124,26.67,9.1,-1.96,1729419109870.0,0.0
-4.500899,-6.65444,-7.003791,38.990002,-3.5,2.52,1729419109893.0,0.0
-4.326223,-6.51087,-7.240681,73.639999,-1.82,7.14,1729419109910.0,0.0
-4.895715,-6.695118,-6.281159,92.82,18.27,5.32,1729419109930.0,0.0
-5.546563,-7.647461,-5.288138,120.190002,25.620001,3.01,1729419109950.0,0.0
-5.496314,-8.489735,-4.936393,169.680008,10.43,7.21,1729419109970.0,0.0
-4.85743,-6.910471,-5.053641,214.339996,3.5,15.82,1729419109991.0,0.0
-4.261617,-7.520642,-5.816952,254.520004,-0.21,23.799999,1729419110010.0,0.0
-4.328616,-8.322237,-5.106283,267.679993,3.5,17.01,1729419110033.0,0.0
-4.934,-9.382257,-4.019942,297.079987,12.53,12.11,1729419110050.0,0.0
-5.393422,-9.21476,-2.189433,331.170013,21.0,12.74,1729419110071.0,0.0
-4.855037,-7.487142,-0.894916,294.070007,42.349998,4.97,1729419110091.0,0.0
-5.051248,-7.118648,-0.153141,137.339996,34.16,-8.54,1729419110110.0,0.0
-4.85743,-8.84148,-0.624527,-29.4,5.53,-31.710001,1729419110131.0,0.0
-4.034299,-10.380065,-1.366302,-104.440002,-15.12,-35.98,1729419110150.0,0.0
-3.28056,-9.387043,0.442672,-137.550003,-8.82,-36.330002,1729419110171.0,0.0
-3.34038,-5.108676,1.696511,-203.350006,3.08,-38.920002,1729419110191.0,0.0
-4.304688,-2.258825,0.399601,-278.809998,-14.28,-42.91,1729419110210.0,0.0
-4.304688,-6.396015,-5.257031,-337.959991,-46.619999,-38.360001,1729419110231.0,0.0
-3.251846,-7.673782,-6.597012,-336.559998,-48.02,-32.200001,1729419110257.0,0.0
-3.29731,-6.915257,-7.676175,-272.160004,-28.07,-13.09,1729419110273.0,0.0
-4.051049,-4.771288,-9.123833,-227.360001,-26.880001,-6.79,1729419110291.0,0.0
-4.888536,-5.221139,-8.573483,-185.919998,-36.82,2.03,1729419110312.0,0.0
-5.314459,-6.297909,-4.285545,-159.600006,-29.75,5.18,1729419110331.0,0.0
-5.943772,-5.022535,-5.599205,-164.5,-48.02,-4.41,1729419110350.0,0.0
-5.522634,-5.120641,-6.869793,-175.070007,-73.779999,-6.58,1729419110372.0,0.0
-4.345366,-3.878766,-8.413164,-172.339996,-77.629997,-8.4,1729419110392.0,0.0
-4.642076,-4.756931,-10.241282,-96.040001,-53.130001,12.25,1729419110412.0,0.0
-5.383851,-3.833302,-9.207582,-75.599998,-34.580002,20.370001,1729419110432.0,0.0
-5.489135,-3.816552,-9.190832,-77.139999,-24.92,4.13,1729419110451.0,0.0
-4.62054,-3.127419,-11.509477,-84.0,-26.389999,6.3,1729419110471.0,0.0
-4.13719,-3.160919,-9.848858,-59.990002,-13.65,16.030001,1729419110493.0,0.0
-4.606184,-3.739982,-8.276773,-44.869999,1.89,16.309999,1729419110512.0,0.0
-6.898508,-4.898108,-5.682954,-54.389999,9.45,7.7,1729419110531.0,0.0
-5.438886,-5.067998,-7.408179,-75.739998,-29.610001,-16.59,1729419110551.0,0.0
-4.175476,-3.823731,-8.391629,-51.380001,-32.689999,-3.36,1729419110571.0,0.0
-4.993821,-4.079762,-8.980263,-5.74,-8.47,9.03,1729419110594.0,0.0
-6.429514,-3.656233,-8.362915,38.639999,11.83,17.219999,1729419110613.0,0.0
-7.209574,-4.04387,-8.752945,54.040001,11.27,16.030001,1729419110633.0,0.0
-6.149554,-4.424329,-8.839087,55.860001,22.190001,0.77,1729419110655.0,0.0
-5.008178,-2.526821,-6.427122,75.669998,23.940001,10.5,1729419110673.0,0.0
-5.010571,-1.768296,-8.030313,61.25,13.02,18.620001,1729419110695.0,0.0
-4.926822,-3.893122,-10.286745,33.670002,26.110001,8.68,1729419110712.0,0.0
-5.130211,-9.535398,-4.989035,33.040001,33.32,5.39,1729419110733.0,0.0
-3.52702,-4.474578,-4.493721,-8.54,5.39,-26.18,1729419110825.0,0.0
-3.629912,-4.883751,-5.879165,19.67,-30.870001,-22.26,1729419110833.0,0.0
-4.163511,-3.979264,-7.838887,74.340004,-3.57,-5.81,1729419110837.0,0.0
-5.711668,-4.761717,-9.363115,147.070007,-4.62,24.08,1729419110838.0,0.0
-6.553941,-3.232704,-6.733403,118.370003,10.29,11.97,1729419110840.0,0.0
-6.632904,-4.957928,-7.642675,87.290001,16.73,5.32,1729419110853.0,0.0
-5.749953,-6.84108,-8.683553,92.050003,8.96,-0.35,1729419110872.0,0.0
-5.228317,-7.37468,-8.46102,136.919998,19.460001,-0.35,1729419110893.0,0.0
-5.290531,-7.101898,-8.274381,208.600006,47.459999,1.54,1729419110912.0,0.0
-5.453243,-7.477571,-8.353344,277.549988,61.110001,5.6,1729419110933.0,0.0
-4.709075,-5.79781,-7.350751,312.130005,61.740002,15.26,1729419110952.0,0.0
-4.479364,-6.099305,-7.159326,341.809998,57.189999,39.970001,1729419110976.0,0.0
-4.149154,-4.242475,-6.453443,334.320007,56.209999,31.57,1729419110992.0,0.0
-5.379066,-5.051248,-2.785245,293.929993,70.559998,33.529999,1729419111012.0,0.0
-6.285945,-7.554141,-2.651247,220.779999,51.52,12.18,1729419111035.0,0.0
-5.836094,-8.080563,-4.347759,174.300003,0.21,-18.129999,1729419111052.0,0.0
-5.168497,-8.456236,-5.020142,201.039993,-0.77,-16.73,1729419111072.0,0.0
-5.666204,-10.456635,-2.079363,276.149994,35.630001,-19.530001,1729419111093.0,0.0
-5.12782,-7.802995,-0.074178,339.709991,54.810001,-27.299999,1729419111112.0,0.0
-5.070391,-3.716053,-0.095713,343.209991,75.040001,-7.77,1729419111132.0,0.0
-6.549156,-4.587041,3.682554,291.480011,63.0,-1.82,1729419111152.0,0.0
-6.163911,-8.262416,3.361916,151.479996,0.14,-31.57,1729419111172.0,0.0
-4.474578,-9.042477,1.868794,139.789993,-8.75,-34.720001,1729419111193.0,0.0
-3.895515,-7.869993,3.175276,170.029999,25.690001,-23.450001,1729419111212.0,0.0
-4.768896,-7.23111,3.773481,146.580002,30.17,-19.809999,1729419111233.0,0.0
-4.95075,-7.427321,2.9671,92.260002,9.17,-31.360001,1729419111252.0,0.0
-5.479564,-9.099905,4.807181,90.790001,-2.8,-26.530001,1729419111272.0,0.0
-3.239882,-7.15454,5.71406,130.199997,-1.82,-19.460001,1729419111293.0,0.0
-2.438286,-2.871387,5.082355,119.980003,14.42,-1.47,1729419111314.0,0.0
-3.361916,-4.063013,4.235296,12.6,3.43,5.11,1729419111334.0,0.0
-4.345366,-7.479963,2.316252,-139.369995,-23.870001,-10.78,1729419111351.0,0.0
-4.13719,-10.518847,1.217947,-182.139999,-40.670002,-16.59,1729419111372.0,0.0
-3.48395,-11.997612,0.782453,-126.699997,-28.280001,-8.75,1729419111395.0,0.0
-3.105884,-10.573883,1.426122,-85.75,-12.67,-9.8,1729419111412.0,0.0
-3.804588,-8.961121,2.691926,-91.489998,-4.13,-10.99,1729419111433.0,0.0
-4.689932,-8.23131,4.527221,-138.25,-13.65,-8.61,1729419111454.0,0.0
-6.218946,-8.382057,5.900701,-208.949997,-36.330002,-11.97,1729419111472.0,0.0
-4.354938,-7.087541,1.677369,-257.459991,-64.400002,-17.780001,1729419111494.0,0.0
-2.486143,-7.482357,0.167498,-279.160004,-77.489998,-14.63,1729419111513.0,0.0
-2.227718,-8.566305,-1.909473,-323.679993,-60.27,-14.35,1729419111534.0,0.0
-3.608376,-7.762317,-2.165504,-402.570007,-12.81,-22.68,1729419111551.0,0.0
-5.276174,-9.008978,-1.007378,-434.630005,7.98,-44.939999,1729419111573.0,0.0
-5.625526,-9.317651,-2.136791,-394.170013,-39.34,-53.130001,1729419111593.0,0.0
-3.302095,-10.095319,-4.067799,-264.390015,-75.809998,-39.060001,1729419111613.0,0.0
-1.741975,-8.889337,-3.795017,-162.470001,-53.200001,-24.15,1729419111632.0,0.0
-2.775674,-7.996813,-3.364309,-120.190002,-9.59,-17.01,1729419111651.0,0.0
-4.151547,-6.723832,-4.675575,-132.789993,-2.59,-22.469999,1729419111674.0,0.0
-4.180261,-5.134997,-5.958128,-170.660004,-40.740002,-24.08,1729419111694.0,0.0
-3.352344,-6.403193,-7.743174,-174.789993,-67.690002,-21.280001,1729419111712.0,0.0
-3.505485,-8.788837,-9.135797,-142.100006,-57.470001,-15.26,1729419111733.0,0.0
-3.818945,-8.281559,-9.554541,-58.939999,-33.389999,-14.42,1729419111752.0,0.0
-4.070191,-5.845665,-8.616554,5.25,-14.98,-7.84,1729419111771.0,0.0
-3.871587,-5.166104,-8.078169,-4.97,-22.889999,-8.12,1729419111792.0,0.0
-3.582055,-4.630112,-6.742974,-62.720001,-24.85,-13.23,1729419111814.0,0.0
-3.940979,-4.883751,-7.927422,-109.970001,-14.63,-14.7,1729419111832.0,0.0
-3.689733,-5.123034,-6.63769,-112.699997,-12.04,-4.9,1729419111853.0,0.0
-3.213561,-4.532006,-6.819544,-92.190002,-26.460001,10.71,1729419111872.0,0.0
-3.349952,-4.639683,-6.872187,-75.669998,-20.93,21.91,1729419111893.0,0.0
-3.979264,-5.254639,-8.109276,-70.559998,-0.63,12.81,1729419111912.0,0.0
-4.474578,-6.089733,-8.886944,-37.029999,4.13,16.24,1729419111932.0,0.0
-4.596612,-6.333801,-9.375079,-3.22,-1.4,20.299999,1729419111951.0,0.0
-4.553542,-6.063413,-9.360723,-17.710001,3.08,9.17,1729419111971.0,0.0
-4.431508,-5.759524,-9.099905,-42.07,16.309999,-3.08,1729419111993.0,0.0
-4.429115,-6.403193,-7.618747,-22.960001,27.440001,-8.89,1729419112012.0,0.0
-4.761717,-5.752346,-4.852644,17.99,36.470001,-7.07,1729419112034.0,0.0
-4.666004,-6.376873,-7.688138,26.6,8.05,-7.84,1729419112052.0,0.0
-3.823731,-7.659425,-9.449257,-1.89,-16.799999,-20.370001,1729419112072.0,0.0
-2.756532,-7.166504,-8.609376,11.13,6.93,-22.82,1729419112092.0,0.0
-3.134598,-5.438886,-5.350351,64.959999,16.379999,-13.440001,1729419112111.0,0.0
-4.168297,-3.536592,-5.216353,45.5,18.059999,-18.549999,1729419112132.0,0.0
-4.783253,-4.914857,-5.709275,-30.309999,-8.75,-20.65,1729419112152.0,0.0
-2.742175,-3.756732,-8.827123,-87.150002,-36.540001,-26.880001,1729419112173.0,0.0
-2.215754,-3.663411,-7.786245,-32.900002,-52.709999,-1.68,1729419112196.0,0.0
-2.87378,-3.347559,-7.420143,-33.740002,-21.42,-4.9,1729419112211.0,0.0
-4.67079,-3.259024,-8.195417,-49.0,-11.76,-10.43,1729419112233.0,0.0
-5.486742,-3.388237,-9.616754,-76.790001,-1.05,-11.69,1729419112251.0,0.0
-4.141976,-3.888337,-10.521241,-46.48,-9.24,-5.04,1729419112272.0,0.0
-2.742175,-3.275774,-9.370294,-19.67,-15.61,3.36,1729419112310.0,0.0
-2.876173,-2.239682,-7.185646,2.31,-1.4,6.72,1729419112312.0,0.0
-4.826324,-2.880959,-6.577869,18.549999,13.37,19.18,1729419112331.0,0.0
-6.549156,-3.739982,-7.88435,1.61,11.27,11.34,1729419112354.0,0.0
-5.91745,-4.493721,-10.774881,-9.59,3.43,0.35,1729419112371.0,0.0
-4.350152,-4.991428,-8.803195,15.33,-6.51,15.12,1729419112393.0,0.0
-4.055835,-3.869194,-5.852845,34.299999,5.46,8.05,1729419112411.0,0.0
-5.02732,-4.017549,-7.293324,54.389999,16.870001,6.51,1729419112434.0,0.0
-4.986642,-3.998406,-8.262416,39.48,4.9,6.09,1729419112451.0,0.0
-4.067799,-4.570292,-8.853443,18.9,0.84,9.38,1729419112473.0,0.0
-3.538985,-4.141976,-8.13799,27.02,-0.91,10.92,1729419112493.0,0.0
-4.146761,-3.986443,-7.49432,19.809999,6.58,7.14,1729419112512.0,0.0
-4.218546,-4.371687,-7.735995,9.31,4.83,4.48,1729419112533.0,0.0
-4.031906,-4.369294,-8.075776,11.76,-3.22,8.33,1729419112552.0,0.0
-4.26401,-5.084748,-7.487142,23.379999,-3.22,10.71,1729419112573.0,0.0
-4.34058,-4.285545,-7.085148,31.57,1.75,7.28,1729419112593.0,0.0
-4.723432,-4.130012,-7.250252,36.119999,-5.11,12.25,1729419112612.0,0.0
-4.917251,-4.201797,-6.455836,11.41,-7.35,10.92,1729419112632.0,0.0
-4.869394,-4.821537,-6.836295,1.96,-5.53,9.8,1729419112652.0,0.0
-4.912465,-4.979464,-7.271788,22.469999,-9.87,12.39,1729419112673.0,0.0
-4.445865,-4.862216,-7.843673,44.310001,-14.98,18.48,1729419112693.0,0.0
-4.134798,-6.300302,-7.216753,59.990002,-23.870001,24.15,1729419112714.0,0.0
-4.084548,-6.058627,-7.850852,45.150002,-10.64,13.93,1729419112733.0,0.0
-4.807181,-5.606383,-7.724032,46.27,3.01,9.1,1729419112755.0,0.0
-5.13739,-5.71406,-8.056634,44.450001,4.62,8.89,1729419112773.0,0.0
-4.989035,-6.300302,-7.267002,31.710001,-0.63,2.1,1729419112794.0,0.0
-4.682754,-6.226124,-7.322037,18.27,2.24,-3.57,1729419112814.0,0.0
-4.54397,-6.221339,-7.506285,15.89,2.1,-8.75,1729419112836.0,0.0
-4.82393,-6.297909,-5.776274,24.15,4.55,-8.05,1729419112854.0,0.0
-4.986642,-7.054041,-5.970093,44.099998,-1.05,-10.71,1729419112873.0,0.0
-4.381258,-6.477371,-6.805188,69.790001,-8.89,-12.25,1729419112894.0,0.0
-4.350152,-6.534799,-5.726025,82.599998,-12.18,-11.97,1729419112915.0,0.0
-4.807181,-6.424729,-7.298109,78.75,2.94,-14.98,1729419112933.0,0.0
-4.969893,-6.927221,-6.233303,77.279999,4.2,-13.37,1729419112953.0,0.0
-4.661219,-7.499106,-6.108876,75.110001,1.75,-18.549999,1729419112974.0,0.0
-4.496114,-6.185446,-6.79083,96.739998,4.9,-16.450001,1729419112995.0,0.0
-4.572684,-5.142176,-6.678369,112.419998,10.57,-5.88,1729419113017.0,0.0
-4.737789,-5.010571,-5.491528,89.32,17.639999,-2.1,1729419113036.0,0.0
-4.752146,-6.484549,-4.788038,46.549999,21.139999,1.4,1729419113053.0,0.0
-4.024727,-8.128418,-5.443672,22.4,8.61,-5.39,1729419113073.0,0.0
-3.371487,-9.65504,-5.922236,40.32,-1.61,-11.27,1729419113096.0,0.0
-3.101098,-8.669197,-4.115655,126.770004,10.85,-1.05,1729419113114.0,0.0
-3.742374,-7.726424,-4.67079,157.220001,30.309999,10.64,1729419113136.0,0.0
-4.321437,-6.611369,-5.053641,134.680008,33.880001,10.5,1729419113153.0,0.0
-4.998606,-6.924829,-3.129812,106.82,30.66,11.83,1729419113174.0,0.0
-5.972485,-7.121039,-2.928815,102.760002,22.82,17.5,1729419113195.0,0.0
-5.895915,-8.793623,-2.809174,97.720001,13.440001,20.16,1729419113214.0,0.0
-4.465007,-9.408579,-2.854637,71.68,-3.08,3.64,1729419113235.0,0.0
-4.311867,-9.513863,-2.462214,49.209999,5.11,-5.46,1729419113253.0,0.0
-5.455636,-9.284152,-2.531606,28.35,27.719999,-14.42,1729419113273.0,0.0
-5.71406,-8.274381,-3.079563,18.83,23.799999,-19.389999,1729419113306.0,0.0
-4.754539,-6.850651,-2.919244,1.4,5.88,-14.0,1729419113313.0,0.0
-3.888337,-6.082555,-2.423929,-70.209999,5.39,-14.21,1729419113333.0,0.0
-3.885944,-3.988836,-1.395016,-173.529999,-2.1,-26.389999,1729419113353.0,0.0
-4.596612,-3.54377,-3.17049,-255.5,-13.72,-25.76,1729419113373.0,0.0
-4.436293,-4.59422,-6.71426,-317.23999,-32.060001,-27.440001,1729419113396.0,0.0
-4.622933,-6.403193,-4.555934,-337.75,-54.950001,-19.67,1729419113414.0,0.0
-4.268795,-7.640282,-7.695317,-303.029999,-67.550003,-20.719999,1729419113433.0,0.0
-3.574877,-6.443871,-8.382057,-182.839996,-77.910004,-17.85,1729419113454.0,0.0
-3.378666,-5.04407,-7.893922,-130.619995,-73.43,-6.72,1729419113474.0,0.0
-4.007978,-3.464807,-8.898908,-107.099998,-55.09,12.46,1729419113497.0,0.0
-5.312066,-3.52702,-8.903693,-98.699997,-29.26,17.99,1729419113514.0,0.0
-5.816952,-4.070191,-8.075776,-111.020004,-28.630001,16.1,1729419113535.0,0.0
-5.350351,-3.625126,-8.224132,-128.380005,-36.610001,14.35,1729419113555.0,0.0
-5.32403,-4.943572,-9.284152,-113.82,-35.560001,13.58,1729419113574.0,0.0
-5.273781,-4.197011,-10.442278,-92.050003,-25.200001,4.69,1729419113596.0,0.0
-5.003392,-3.393023,-10.683953,-56.490002,-12.88,8.89,1729419113613.0,0.0
-3.888337,-2.368894,-10.466206,-19.74,-13.37,21.35,1729419113633.0,0.0
-5.003392,-2.921637,-6.02752,-21.0,9.66,30.309999,1729419113652.0,0.0
-7.269395,-3.617948,-4.139583,-67.269997,18.059999,4.83,1729419113675.0,0.0
-7.030113,-5.587241,-7.668997,-87.220001,-14.14,-15.12,1729419113695.0,0.0
-5.056034,-3.818945,-8.073383,-70.349998,-29.469999,-3.43,1729419113713.0,0.0
-3.960121,-3.823731,-9.657433,-41.369999,-24.219999,13.51,1729419113733.0,0.0
-5.161318,-2.230111,-4.151547,-27.440001,10.29,23.030001,1729419113755.0,0.0
-7.982457,-5.67099,-9.420543,35.700001,25.549999,33.740002,1729419113774.0,0.0
-6.01077,-5.326423,-9.504292,61.810001,6.44,26.950001,1729419113794.0,0.0
-5.271388,-4.807181,-7.980063,48.23,11.13,24.5,1729419113813.0,0.0
-4.479364,-5.06082,-10.38485,16.450001,23.450001,2.24,1729419113835.0,0.0
-4.027121,-9.391829,-6.372087,64.260002,17.85,7.14,1729419113854.0,0.0
-3.462414,-4.67079,-5.663811,66.5,11.55,-4.55,1729419113874.0,0.0
-4.302295,-4.441079,-6.238089,95.269997,-26.389999,-9.87,1729419113894.0,0.0
-5.230711,-4.326223,-7.609176,105.699997,8.47,-6.79,1729419113912.0,0.0
-6.180661,-4.912465,-9.602397,163.380005,13.72,9.73,1729419113935.0,0.0
-6.345766,-3.749553,-8.085347,185.850006,14.91,19.110001,1729419113954.0,0.0
-6.317052,-3.991228,-8.195417,150.009995,17.92,15.61,1729419113975.0,0.0
-5.690133,-5.15414,-9.044869,132.300003,23.379999,-2.31,1729419113993.0,0.0
-5.417351,-6.290731,-8.693125,161.910004,32.619999,-2.45,1729419114013.0,0.0
-5.362316,-6.30748,-7.886744,204.539993,45.290001,0.7,1729419114035.0,0.0
-5.565705,-7.21436,-6.625726,247.729996,64.540001,-2.52,1729419114052.0,0.0
-5.481956,-6.948757,-6.410372,270.410004,75.949997,1.05,1729419114072.0,0.0
-5.410172,-6.391229,-7.616355,305.130005,68.879997,6.65,1729419114093.0,0.0
-5.079963,-5.642276,-4.244867,315.630005,69.090004,8.54,1729419114114.0,0.0
-5.185246,-7.702496,-3.208775,308.980011,65.870003,10.43,1729419114134.0,0.0
-5.60399,-8.745767,-3.452843,281.190002,45.57,-9.8,1729419114154.0,0.0
-4.845466,-8.745767,-5.632704,275.730011,26.460001,-26.530001,1729419114174.0,0.0
-5.362316,-9.667004,-3.09392,308.140015,44.380001,-31.85,1729419114193.0,0.0
-5.391029,-9.375079,0.533599,361.549988,43.75,-42.279999,1729419114213.0,0.0
-4.366901,-5.460421,0.98345,390.320007,64.75,-42.560001,1729419114233.0,0.0
-4.953143,-2.878566,3.24706,382.619995,79.099998,-17.99,1729419114254.0,0.0
-5.079963,-3.383451,4.515256,298.059998,49.630001,-9.8,1729419114273.0,0.0
-5.048856,-5.56092,4.82393,152.529999,20.299999,-28.07,1729419114296.0,0.0
-4.828716,-8.831908,3.89073,52.709999,-6.44,-32.759998,1729419114314.0,0.0
-2.072184,-8.537591,1.524228,53.200001,-10.64,-28.630001,1729419114334.0,0.0
-2.823531,-7.530212,2.122434,106.330002,29.049999,-12.18,1729419114353.0,0.0
-4.563113,-6.546762,4.914857,132.440002,34.93,-4.2,1729419114372.0,0.0
-3.972085,-4.881358,5.82413,100.870003,25.200001,-0.77,1729419114395.0,0.0
-2.486143,-5.192425,5.381458,29.469999,11.97,8.61,1729419114413.0,0.0
-2.426322,-6.405586,4.173083,-94.849998,-5.88,-2.31,1729419114434.0,0.0
-3.816552,-9.367901,3.0006,-188.369995,-27.370001,-7.49,1729419114452.0,0.0
-3.766303,-10.516455,1.275374,-133.070007,-36.68,8.05,1729419114472.0,0.0
-3.474378,-10.066606,1.172483,-79.379997,-7.7,14.28,1729419114493.0,0.0
-3.883551,-8.788837,2.100898,-113.050003,4.55,11.34,1729419114513.0,0.0
-4.402793,-7.769495,1.95015,-180.039993,-3.29,9.38,1729419114533.0,0.0
-4.955536,-9.238688,2.306681,-233.520004,-23.940001,4.48,1729419114553.0,0.0
-5.130211,-10.506885,1.715654,-254.449997,-41.93,-2.24,1729419114585.0,0.0
-5.307281,-9.401401,1.887937,-225.75,-41.650002,2.45,1729419114607.0,0.0
-4.785645,-7.879565,1.753939,-211.680008,-23.1,12.67,1729419114613.0,0.0
-4.311867,-6.69751,0.978664,-243.740005,-36.82,4.97,1729419114632.0,0.0
-4.548756,-6.951149,-0.734596,-298.130005,-33.040001,-4.62,1729419114651.0,0.0
-5.733203,-8.075776,-1.40698,-364.0,-27.51,-21.0,1729419114672.0,0.0
-5.584848,-9.863215,-3.9338,-397.529999,-52.150002,-49.560001,1729419114696.0,0.0
-4.945964,-9.870394,-3.684947,-374.360016,-75.949997,-68.669998,1729419114713.0,0.0
-4.797609,-9.317651,-3.639483,-312.339996,-66.779999,-73.709999,1729419114733.0,0.0
-4.575077,-8.374879,-4.639683,-232.330002,-46.689999,-73.709999,1729419114753.0,0.0
-4.091727,-5.331209,-6.300302,-176.539993,-35.77,-68.599998,1729419114774.0,0.0
-3.845266,-5.264209,-7.039684,-140.070007,-51.59,-42.98,1729419114796.0,0.0
-3.369094,-6.886543,-8.468199,-142.309998,-48.509998,-33.32,1729419114813.0,0.0
-3.20399,-6.474977,-8.4012,-128.729996,-38.220001,-23.799999,1729419114832.0,0.0
-2.931208,-6.630512,-8.496914,-86.730003,-32.830002,-13.72,1729419114853.0,0.0
-2.711068,-5.907879,-8.02792,-69.300003,-34.650002,-11.06,1729419114873.0,0.0
-2.847459,-4.9675,-7.862815,-70.349998,-25.41,-9.94,1729419114896.0,0.0
-3.651447,-4.527221,-8.327023,-69.790001,-18.48,-3.78,1729419114913.0,0.0
-4.335794,-4.206582,-7.377072,-52.990002,-5.81,8.12,1729419114932.0,0.0
-4.529613,-4.362115,-7.71446,-23.799999,-7.84,19.6,1729419114953.0,0.0
-4.067799,-4.677969,-7.365108,-5.25,-15.54,28.77,1729419114973.0,0.0
-4.048656,-4.192225,-7.673782,-25.549999,-13.93,25.34,1729419114995.0,0.0
-4.395615,-4.524827,-7.350751,-61.110001,-0.21,14.28,1729419115013.0,0.0
-3.996014,-4.737789,-6.850651,-64.959999,1.4,8.96,1729419115035.0,0.0
-3.730411,-4.364508,-9.525827,-17.5,-9.59,21.700001,1729419115054.0,0.0
-5.237889,-5.261817,-8.817552,25.200001,8.12,30.73,1729419115073.0,0.0
-5.594419,-7.611568,-9.224331,-15.26,17.360001,12.39,1729419115105.0,0.0
-4.108476,-6.991827,-1.722832,-2.31,21.91,2.31,1729419115112.0,0.0
-5.199604,-3.991228,-5.419744,22.049999,-3.01,-1.75,1729419115133.0,0.0
-5.079963,-7.243074,-8.662018,-61.740002,-50.330002,-14.14,1729419115154.0,0.0
-4.082155,-6.424729,-9.391829,-110.25,-26.880001,-37.170002,1729419115172.0,0.0
-3.797409,-4.256832,-10.322637,-23.52,-6.79,-22.610001,1729419115196.0,0.0
-4.354938,-3.290131,-7.496714,68.529999,-10.01,10.85,1729419115212.0,0.0
-4.95075,-4.529613,-8.551948,48.860001,-3.15,-2.8,1729419115232.0,0.0
-5.12782,-5.907879,-8.178668,-20.09,5.88,-27.02,1729419115252.0,0.0
-5.257031,-6.125626,-7.152147,-39.060001,10.08,-39.200001,1729419115273.0,0.0
-4.668397,-6.798009,-7.221539,-5.11,-5.18,-40.880001,1729419115295.0,0.0
-3.572484,-4.570292,-7.594819,29.68,-20.16,-35.560001,1729419115312.0,0.0
-3.062813,-2.0004,-8.391629,34.720001,-20.02,-19.389999,1729419115333.0,0.0
-3.632305,-2.007578,-6.458229,16.379999,-4.06,-5.81,1729419115353.0,0.0
-4.503292,-1.256232,-6.580262,-6.02,12.25,-1.19,1729419115374.0,0.0
-4.534399,-2.849852,-7.905886,-0.42,-3.99,14.0,1729419115392.0,0.0
-3.972085,-3.306881,-8.539984,-6.44,-4.34,11.69,1729419115412.0,0.0
-4.271189,-4.007978,-8.764909,6.23,5.25,8.96,1729419115432.0,0.0
-4.414758,-3.85723,-8.719445,9.8,11.48,1.54,1729419115453.0,0.0
-4.414758,-4.098906,-8.776874,15.61,15.75,9.45,1729419115474.0,0.0
-4.835894,-4.869394,-8.092526,26.460001,22.26,16.030001,1729419115492.0,0.0
-4.627719,-6.151947,-6.489335,31.15,23.309999,16.59,1729419115512.0,0.0
-4.211368,-6.259624,-6.659225,38.080002,8.68,15.26,1729419115533.0,0.0
-4.407579,-5.414958,-7.142576,52.290001,5.74,16.030001,1729419115552.0,0.0
-5.036892,-5.386244,-6.522834,70.349998,16.66,22.049999,1729419115573.0,0.0
-5.369494,-5.924629,-6.238089,91.419998,10.57,26.67,1729419115593.0,0.0
-5.201996,-6.022735,-6.206983,107.169998,2.87,27.93,1729419115612.0,0.0
-4.931608,-5.79063,-6.460621,103.040001,-0.42,26.040001,1729419115633.0,0.0
-4.694718,-5.876772,-6.058627,94.080002,5.32,23.940001,1729419115654.0,0.0
-4.74736,-6.051448,-6.034698,92.82,13.16,23.450001,1729419115674.0,0.0
-4.926822,-6.728617,-6.644868,105.910004,16.799999,23.17,1729419115692.0,0.0
-5.022535,-7.13779,-6.173482,139.509995,18.200001,25.83,1729419115714.0,0.0
-5.276174,-8.082954,-5.87438,180.180008,11.48,31.43,1729419115734.0,0.0
-4.881358,-8.872586,-6.541977,205.100006,1.61,26.74,1729419115814.0,0.0
-6.379266,-7.386643,-3.290131,209.020004,10.71,18.969999,1729419115841.0,0.0
-6.723832,-8.99462,-1.328017,211.330002,43.68,15.96,1729419115842.0,0.0
-5.237889,-9.657433,-2.244468,235.899994,13.23,8.47,1729419115844.0,0.0
-4.127619,-9.992428,-2.206182,289.450012,-12.18,5.95,1729419115860.0,0.0
-4.462614,-9.037691,-0.270389,331.660004,5.32,3.78,1729419115872.0,0.0
-5.422136,-8.736196,2.239682,320.25,31.57,-5.88,1729419115893.0,0.0
-5.103891,-7.972885,1.526621,251.229996,37.450001,-6.79,1729419115911.0,0.0
-3.795017,-6.226124,1.392623,-4.41,-16.66,-27.370001,1729419115932.0,0.0
-3.345166,-4.383651,1.179662,-70.910004,-10.01,-8.33,1729419115952.0,0.0
-3.979264,-3.821337,1.115055,-158.059998,-4.41,-3.78,1729419115972.0,0.0
-4.919643,-4.223332,0.16989,-280.48999,-6.02,-8.54,1729419115992.0,0.0
-5.245068,-5.312066,-2.914458,-391.579987,-22.33,-20.790001,1729419116012.0,0.0
-4.989035,-6.403193,-6.180661,-444.429993,-33.110001,-27.299999,1729419116036.0,0.0
-4.651647,-7.556533,-8.707481,-421.540009,-35.560001,-31.08,1729419116089.0,0.0
-4.551149,-8.580662,-6.625726,-357.769989,-47.599998,-22.049999,1729419116092.0,0.0
-5.510671,-6.312266,-7.051648,-181.440002,-48.299999,-0.91,1729419116113.0,0.0
-5.584848,-4.381258,-6.18784,-132.860001,-70.910004,-4.27,1729419116134.0,0.0
-5.424529,-3.345166,-7.73121,-150.430008,-78.260002,2.66,1729419116163.0,0.0
-5.166104,-2.9671,-10.143176,-179.270004,-67.970001,9.8,1729419116231.0,0.0
-5.338387,-5.682954,-9.779467,-202.369995,-41.23,6.37,1729419116231.0,0.0
-4.73061,-5.910272,-9.913465,-185.5,-0.21,-7.35,1729419116232.0,0.0
-4.778467,-3.708875,-10.530812,-66.43,-3.08,8.54,1729419116241.0,0.0
-4.943572,-3.371487,-11.050055,-0.49,-6.51,35.490002,1729419116251.0,0.0
-4.706682,-4.307081,-6.848258,-59.849998,15.82,14.7,1729419116271.0,0.0
-4.912465,-5.06082,-4.165904,-109.760002,26.6,-19.32,1729419116292.0,0.0
-5.515456,-5.144568,-5.536992,-97.650002,5.88,-23.17,1729419116313.0,0.0
-5.355137,-5.120641,-6.357729,-69.440002,-13.02,-11.97,1729419116332.0,0.0
-5.285746,-3.976871,-6.204589,-67.620003,-6.58,2.1,1729419116352.0,0.0
-5.838487,-3.617948,-6.494121,-47.950001,6.51,10.15,1729419116378.0,0.0
-5.795416,-4.04387,-9.188439,8.26,-0.63,17.15,1729419116393.0,0.0
-6.352944,-4.316652,-9.047262,66.150002,9.1,29.469999,1729419116412.0,0.0
-5.919843,-2.68714,-7.980063,49.77,11.97,23.59,1729419116432.0,0.0
-5.649454,-5.484349,-9.281759,-2.66,16.24,10.01,1729419116452.0,0.0
-5.225924,-6.982256,-9.652647,6.86,18.83,0.28,1729419116474.0,0.0
-4.890929,-7.688138,-6.463014,53.34,16.379999,-3.85,1729419116504.0,0.0
-4.651647,-4.512863,-2.924029,65.590004,9.87,-12.6,1729419116528.0,0.0
-4.668397,-4.036692,-6.367301,96.18,-22.610001,-2.59,1729419116599.0,0.0
-5.079963,-4.642076,-10.145569,123.480003,-24.290001,14.84,1729419116600.0,0.0
-6.068198,-5.391029,-8.796017,123.340004,12.39,13.51,1729419116600.0,0.0
-6.692725,-5.089533,-6.513263,107.940002,48.580002,-4.06,1729419116600.0,0.0
-6.455836,-6.113662,-7.314859,131.110001,34.439999,-7.28,1729419116613.0,0.0
-5.312066,-5.800202,-9.013763,183.889999,11.55,0.42,1729419116633.0,0.0
-4.587041,-4.527221,-8.786445,222.460007,9.66,13.09,1729419116663.0,0.0
-4.448257,-5.328816,-7.858029,236.25,33.18,17.01,1729419116672.0,0.0
-4.421937,-5.20439,-7.922636,257.390015,77.0,14.35,1729419116691.0,0.0
-5.331209,-7.771888,-7.738388,321.230011,81.059998,27.370001,1729419116711.0,0.0
-5.115855,-5.000999,-5.838487,325.149994,73.989998,18.969999,1729419116732.0,0.0
-5.005785,-7.037291,-3.448057,254.520004,70.910004,14.0,1729419116751.0,0.0
-4.386044,-7.927422,-4.266403,231.490005,52.080002,-12.53,1729419116771.0,0.0
-5.24746,-8.657232,-4.053442,236.809998,45.990002,-7.84,1729419116792.0,0.0
-5.601598,-10.260423,-2.155933,273.140015,33.18,-16.309999,1729419116811.0,0.0
-5.592027,-11.349157,0.885344,304.98999,23.450001,-37.099998,1729419116831.0,0.0
-3.65384,-10.403993,-0.959522,378.279999,21.210001,-61.740002,1729419116851.0,0.0
-3.249453,-5.548956,-3.378666,423.709991,70.769997,-43.470001,1729419116872.0,0.0
-6.419943,-5.943772,0.189033,412.299988,91.699997,-13.65,1729419116893.0,0.0
-7.262216,-3.914658,4.491328,308.48999,74.129997,-31.5,1729419116913.0,0.0
-6.206983,-4.122833,7.269395,177.869995,26.74,-31.15,1729419116933.0,0.0
-3.964907,-5.833702,5.048856,91.980003,-15.05,-42.139999,1729419116952.0,0.0
-2.897708,-6.192625,4.409972,86.660004,-3.57,-14.21,1729419116973.0,0.0
-3.68734,-6.941578,4.37408,50.470001,-8.54,-0.28,1729419116992.0,0.0
-2.979064,-7.166504,3.316452,-8.19,-19.809999,-5.11,1729419117012.0,0.0
-2.474179,-7.738388,3.469593,-53.200001,-29.75,-1.05,1729419117035.0,0.0
-2.072184,-7.386643,2.639283,-24.08,-18.200001,17.290001,1729419117052.0,0.0
-3.938586,-8.274381,2.749353,-44.170002,-0.21,12.88,1729419117072.0,0.0
-5.106283,-8.015956,2.555535,-116.270004,-2.8,0.63,1729419117097.0,0.0
-4.4339,-7.829315,1.715654,-157.570007,-16.24,6.44,1729419117112.0,0.0
-3.85723,-8.628519,1.868794,-176.050003,-23.870001,9.73,1729419117133.0,0.0
-4.503292,-9.521042,2.845066,-183.119995,-27.51,10.15,1729419117152.0,0.0
-4.881358,-8.391629,3.168097,-165.410004,-29.26,13.02,1729419117172.0,0.0
-4.161119,-7.341179,2.361716,-135.729996,-23.799999,21.700001,1729419117192.0,0.0
-4.814359,-7.743174,3.443272,-162.470001,-20.09,20.719999,1729419117213.0,0.0
-5.474778,-7.984849,1.87358,-235.899994,-29.82,9.38,1729419117232.0,0.0
-5.041678,-8.817552,0.835095,-280.48999,-45.990002,-4.2,1729419117252.0,0.0
-4.900501,-9.796216,-1.0002,-311.779999,-55.23,-13.93,1729419117274.0,0.0
-4.596612,-10.370493,-2.813959,-340.059998,-48.509998,-34.369999,1729419117293.0,0.0
-4.431508,-9.410972,-3.464807,-347.690002,-33.810001,-47.32,1729419117312.0,0.0
-4.027121,-7.984849,-3.393023,-356.160004,-23.66,-57.75,1729419117334.0,0.0
-3.792624,-5.496314,-4.053442,-379.049988,-37.310001,-69.300003,1729419117353.0,0.0
-4.402793,-7.810174,-6.970293,-352.519989,-63.139999,-51.59,1729419117374.0,0.0
-4.175476,-8.812766,-9.987641,-233.100006,-34.16,-33.950001,1729419117395.0,0.0
-3.586841,-4.500899,-8.757731,-203.419998,-1.33,-28.280001,1729419117412.0,0.0
-3.775874,-3.440879,-7.058826,-181.369995,-7.49,-10.57,1729419117433.0,0.0
-3.050849,-6.67119,-7.188039,-210.910004,-33.459999,-9.8,1729419117454.0,0.0
-2.029114,-9.312866,-5.62074,-203.139999,-28.210001,-29.190001,1729419117473.0,0.0
-2.227718,-8.786445,-5.771489,-131.25,-25.129999,-42.0,1729419117496.0,0.0
-2.67039,-4.948357,-6.74776,-73.919998,-49.630001,-49.77,1729419117513.0,0.0
-3.979264,-3.069991,-7.039684,-57.260002,-47.32,-26.25,1729419117533.0,0.0
-4.225725,-3.079563,-9.992428,-60.200001,-44.59,-4.83,1729419117553.0,0.0
-4.563113,-4.95075,-12.665211,-23.030001,-29.82,20.299999,1729419117573.0,0.0
-4.735396,-5.024928,-10.351351,47.529999,7.91,31.710001,1729419117597.0,0.0
-4.575077,-2.679961,-9.298509,124.879997,21.700001,39.549999,1729419117613.0,0.0
-5.166104,-2.766103,-8.037491,110.669998,11.9,50.189999,1729419117634.0,0.0
-4.589434,-4.965107,-9.221939,3.5,15.33,21.0,1729419117658.0,0.0
-4.027121,-6.721439,-7.190433,-59.57,20.860001,-3.71,1729419117677.0,0.0
-4.517649,-4.613362,-4.055835,-48.23,26.25,-12.46,1729419117693.0,0.0
-4.323831,-5.548956,-8.796017,22.33,0.07,-10.08,1729419117712.0,0.0
-4.046263,-4.599005,-9.001799,29.190001,-8.75,-8.61,1729419117733.0,0.0
-4.615755,-4.297509,-8.420342,-3.15,11.55,-24.639999,1729419117753.0,0.0
-5.094319,-5.173282,-7.910671,-14.49,20.370001,-33.880001,1729419117773.0,0.0
-4.405186,-5.852845,-8.283953,-6.65,4.41,-34.790001,1729419117793.0,0.0
-3.079563,-4.957928,-8.446664,1.89,-12.67,-36.119999,1729419117815.0,0.0
-3.007778,-7.063612,-9.150154,8.26,-6.23,-31.5,1729419117834.0,0.0
-2.256432,-3.902694,-6.403193,39.830002,0.28,-31.639999,1729419117853.0,0.0
-3.089134,-3.644269,-6.269196,50.119999,6.37,-1.68,1729419117875.0,0.0
-3.337988,-2.354537,-4.934,50.470001,4.06,3.22,1729419117899.0,0.0
-3.986443,-4.036692,-6.479764,16.59,-5.74,17.15,1729419117914.0,0.0
-3.9338,-5.304887,-7.56132,-21.49,-15.33,8.82,1729419117934.0,0.0
-4.197011,-4.402793,-7.850852,-39.970001,-20.860001,0.63,1729419117953.0,0.0
-3.730411,-4.500899,-10.124033,-28.35,-30.380001,-1.26,1729419117973.0,0.0
-2.739782,-4.09412,-10.320245,13.93,-34.16,6.51,1729419118000.0,0.0
-2.646462,-4.113262,-9.650253,47.599998,-11.97,17.780001,1729419118012.0,0.0
-4.015156,-4.677969,-7.499106,43.889999,10.99,16.66,1729419118036.0,0.0
-5.941379,-6.372087,-9.279366,1.61,32.970001,-12.74,1729419118055.0,0.0
-5.436492,-5.082355,-7.307681,7.35,16.870001,-3.57,1729419118075.0,0.0
-4.460221,-4.134798,-6.400801,51.869999,-3.71,16.450001,1729419118095.0,0.0
-4.558327,-4.9675,-6.209375,99.120003,4.48,27.860001,1729419118113.0,0.0
-5.304887,-5.321638,-5.996413,123.900002,22.120001,31.15,1729419118133.0,0.0
-5.752346,-5.716454,-6.833901,126.980003,12.6,30.17,1729419118152.0,0.0
-5.4341,-5.431707,-6.429514,93.660004,1.68,24.710001,1729419118173.0,0.0
-4.603791,-5.328816,-6.26441,55.790001,3.71,16.52,1729419118198.0,0.0
-4.359723,-6.958328,-6.293124,70.840004,10.43,20.09,1729419118213.0,0.0
-4.481757,-7.188039,-6.087341,100.870003,16.17,21.559999,1729419118234.0,0.0
-4.441079,-7.518249,-6.4678,149.100006,17.5,24.15,1729419118253.0,0.0
-4.412365,-8.274381,-6.058627,179.199997,4.41,29.33,1729419118273.0,0.0
-4.565506,-7.855636,-5.539384,171.289993,1.96,22.049999,1729419118294.0,0.0
-4.893322,-7.554141,-5.347959,177.869995,8.68,18.620001,1729419118312.0,0.0
-5.046463,-7.944171,-4.73061,179.339996,6.3,20.65,1729419118333.0,0.0
-4.855037,-8.561519,-4.17069,187.669998,0.14,15.68,1729419118353.0,0.0
-4.481757,-9.425328,-3.151347,216.300003,-0.28,13.09,1729419118372.0,0.0
-4.828716,-9.221939,-2.22054,289.23999,12.04,6.51,1729419118393.0,0.0
-5.663811,-9.899107,-0.497707,310.380005,25.27,-1.19,1729419118420.0,0.0
-5.029713,-6.754939,0.550349,283.5,27.93,-9.38,1729419118433.0,0.0
-4.912465,-6.290731,1.758725,186.550003,28.91,-3.85,1729419118452.0,0.0
-5.163712,-9.001799,1.902294,32.48,2.17,-22.33,1729419118474.0,0.0
-4.21376,-9.217153,1.201197,-77.699997,-26.950001,-39.27,1729419118496.0,0.0
-3.656233,-7.826923,1.782653,-107.660004,-28.77,-26.110001,1729419118513.0,0.0
-3.976871,-6.226124,2.364109,-127.050003,-20.65,-16.17,1729419118534.0,0.0
-4.62054,-5.850451,0.622134,-190.050003,-18.41,-17.57,1729419118554.0,0.0
-4.079762,-4.689932,-1.469193,-280.700012,-27.790001,-28.49,1729419118574.0,0.0
-3.550949,-5.094319,-4.067799,-356.51001,-37.170002,-27.299999,1729419118597.0,0.0
-2.916851,-5.278566,-8.195417,-396.690002,-42.84,-28.700001,1729419118613.0,0.0
-3.907479,-7.963314,-8.956335,-363.720001,-37.59,-19.389999,1729419118642.0,0.0
-3.9673,-8.4347,-7.089933,-257.670013,-25.549999,-11.83,1729419118655.0,0.0
-5.680561,-6.314659,-6.123233,-167.860001,-25.690001,7.07,1729419118674.0,0.0
-5.599205,-6.135197,-6.302694,-110.879997,-60.34,-0.56,1729419118696.0,0.0
-4.979464,-4.704289,-7.956135,-128.309998,-68.32,7.35,1729419118716.0,0.0
-4.905287,-4.328616,-7.551748,-137.339996,-56.77,13.93,1729419118734.0,0.0
-5.034499,-4.027121,-8.575876,-145.949997,-36.049999,11.34,1729419118754.0,0.0
-5.965307,-5.85763,-8.161918,-149.240005,-28.139999,15.12,1729419118774.0,0.0
-5.47717,-6.374479,-7.862815,-145.25,-13.16,-5.32,1729419118795.0,0.0
-4.87418,-4.788038,-7.635497,-73.919998,-34.720001,4.2,1729419118814.0,0.0
-4.400401,-2.818745,-9.552148,-38.920002,-45.5,21.42,1729419118834.0,0.0
-4.462614,-3.07717,-9.994821,-58.029999,-18.690001,23.59,1729419118853.0,0.0
-5.041678,-4.814359,-8.82473,-90.300003,24.08,14.0,1729419118873.0,0.0
-5.752346,-6.166305,-6.453443,-105.559998,27.16,1.19,1729419118896.0,0.0
-5.424529,-6.946364,-5.919843,-98.279999,5.95,-17.219999,1729419118914.0,0.0
-4.634897,-6.092126,-6.745367,-69.860001,-6.44,-21.42,1729419118936.0,0.0
-4.701896,-4.740182,-9.071191,-24.710001,-11.83,-11.83,1729419118954.0,0.0
-6.020342,-6.989435,-10.9017,23.17,19.809999,-3.92,1729419118975.0,0.0
-6.795617,-5.072784,-7.606783,60.060001,54.25,-10.78,1729419118996.0,0.0
-5.757132,-3.361916,-6.754939,95.199997,34.439999,-0.91,1729419119015.0,0.0
-3.696911,-2.371287,-6.908078,97.580002,-3.99,14.84,1729419119037.0,0.0
-3.498307,-2.878566,-6.754939,70.349998,6.72,24.08,1729419119054.0,0.0
-5.046463,-4.438686,-6.903293,1.47,24.219999,11.76,1729419119074.0,0.0
-5.218746,-5.099105,-7.922636,-56.139999,24.57,-16.66,1729419119094.0,0.0
-4.520042,-5.359922,-8.566305,-45.150002,5.11,-8.54,1729419119114.0,0.0
-4.189832,-3.914658,-7.903493,-1.47,-0.42,0.63,1729419119138.0,0.0
-4.831109,-4.98425,-8.580662,37.939999,18.059999,7.35,1729419119154.0,0.0
-4.890929,-5.907879,-6.632904,29.82,14.77,4.97,1729419119175.0,0.0
-4.685147,-7.99442,-5.333601,2.31,14.42,-11.27,1729419119197.0,0.0
-3.799802,-6.128019,-5.962914,15.96,-2.24,-22.889999,1729419119214.0,0.0
-4.101298,-5.965307,-7.594819,100.169998,-9.1,-3.15,1729419119236.0,0.0
-5.099105,-3.783052,-7.80778,162.470001,1.96,13.440001,1729419119255.0,0.0
-6.642475,-4.228118,-6.867401,155.539993,15.4,25.48,1729419119275.0,0.0
-5.587241,-7.613962,-8.618947,90.93,19.809999,4.55,1729419119297.0,0.0
-5.089533,-8.647661,-8.336594,171.850006,39.759998,1.4,1729419119316.0,0.0
-4.59422,-7.953743,-9.21476,287.980011,45.849998,10.92,1729419119335.0,0.0
-4.73061,-6.240481,-7.69771,360.360016,56.490002,16.73,1729419119356.0,0.0
-4.876573,-4.395615,-5.867201,363.649994,68.599998,21.210001,1729419119376.0,0.0
-4.56072,-4.859823,-6.515656,316.820007,49.490002,23.1,1729419119396.0,0.0
-3.627519,-5.778666,-4.175476,253.820007,56.420002,14.14,1729419119416.0,0.0
-4.800002,-8.023134,-2.565106,208.669998,67.269997,16.24,1729419119436.0,0.0
-5.371887,-10.200603,-2.78046,203.490005,37.869999,-12.18,1729419119455.0,0.0
-4.479364,-9.389436,-4.407579,221.339996,10.29,-20.16,1729419119475.0,0.0
-4.237689,-9.339187,-3.235096,281.820007,30.380001,-16.1,1729419119498.0,0.0
-5.292924,-9.607183,0.634098,342.790009,55.650002,-24.85,1729419119516.0,0.0
-4.376472,-7.889136,1.648655,383.390015,55.16,-35.490002,1729419119535.0,0.0
-4.039084,-4.09412,2.400001,362.809998,70.139999,-24.780001,1729419119555.0,0.0
-5.276174,-4.443472,5.65424,308.279999,54.810001,-13.58,1729419119576.0,0.0
-5.295317,-5.931807,2.378466,202.089996,21.559999,-26.809999,1729419119597.0,0.0
-5.06082,-8.896514,2.433501,143.710007,3.64,-36.189999,1729419119615.0,0.0
-4.271189,-7.101898,4.692325,147.279999,29.469999,-34.509998,1729419119635.0,0.0
-3.943372,-4.878965,5.864808,175.770004,46.130001,-12.32,1729419119654.0,0.0
-4.749753,-5.883951,6.905686,125.860001,30.1,-11.97,1729419119676.0,0.0
-4.23051,-6.563512,7.391429,55.299999,8.12,-20.58,1729419119697.0,0.0
-2.883351,-6.618547,6.79083,12.67,-3.22,-14.0,1729419119714.0,0.0
-1.287339,-6.297909,4.508078,-28.98,-3.57,-9.73,1729419119735.0,0.0
-1.959722,-8.130811,4.237689,-117.879997,-4.48,-20.16,1729419119756.0,0.0
-2.804388,-9.367901,3.68734,-184.940002,-28.280001,-31.43,1729419119776.0,0.0
-2.294717,-8.616554,3.074777,-155.820007,-36.330002,-9.8,1729419119797.0,0.0
-2.251646,-7.616355,3.524628,-111.090004,-22.120001,8.19,1729419119815.0,0.0
-3.35713,-7.149754,4.658825,-153.720001,-19.32,5.32,1729419119836.0,0.0
-5.410172,-8.549555,5.039285,-223.930008,-41.439999,0.63,1729419119857.0,0.0
-5.010571,-8.329416,1.007378,-288.679993,-51.869999,-9.45,1729419119876.0,0.0
-3.409772,-8.133204,0.471386,-327.320007,-53.34,-16.799999,1729419119897.0,0.0
-3.347559,-8.025528,-0.141177,-367.640015,-44.66,-21.77,1729419119915.0,0.0
-4.503292,-8.752945,-0.648455,-375.339996,-29.049999,-25.690001,1729419119936.0,0.0
-5.245068,-7.599605,-3.07717,-375.829987,-15.4,-33.599998,1729419119954.0,0.0
-7.113862,-8.745767,-1.68694,-375.619995,-27.790001,-49.630001,1729419119977.0,0.0
-4.515256,-9.793823,-6.30748,-289.380005,-87.360001,-58.099998,1729419119996.0,0.0
-2.699104,-7.381857,-4.285545,-247.029999,-68.809998,-49.630001,1729419120014.0,0.0
-2.455036,-6.817152,-5.651847,-213.990005,-45.220001,-42.98,1729419120038.0,0.0
-2.907279,-5.362316,-7.41775,-208.25,-45.639999,-32.48,1729419120054.0,0.0
-2.993421,-3.464807,-9.037691,-212.520004,-50.68,-17.780001,1729419120076.0,0.0
-2.359323,-4.790431,-9.75793,-197.399994,-61.810001,4.06,1729419120095.0,0.0
-1.859223,-7.243074,-9.415757,-181.160004,-55.580002,10.64,1729419120114.0,0.0
-2.778067,-7.343572,-5.539384,-168.559998,-16.17,5.81,1729419120136.0,0.0
-3.589234,-6.309873,-6.599405,-173.110001,1.47,-12.18,1729419120156.0,0.0
-3.309274,-7.094719,-7.960921,-137.130005,-47.810001,-10.92,1729419120175.0,0.0
-2.478964,-7.666604,-7.965706,-110.529999,-43.189999,-8.4,1729419120197.0,0.0
-2.739782,-6.223732,-7.925028,-48.439999,-29.82,-5.88,1729419120215.0,0.0
-3.809374,-3.448057,-8.480164,11.13,-18.690001,13.16,1729419120235.0,0.0
-5.261817,-3.876373,-8.492127,23.17,-3.71,36.330002,1729419120255.0,0.0
-5.678168,-5.639884,-8.195417,0.35,1.89,34.650002,1729419120275.0,0.0
-4.905287,-6.733403,-9.513863,-13.16,-1.54,19.32,1729419120295.0,0.0
-3.022135,-7.534998,-10.033106,27.65,-3.29,3.99,1729419120314.0,0.0
-2.218147,-4.68754,-7.032506,59.43,7.98,5.18,1729419120336.0,0.0
-2.581856,-4.508078,-6.979864,45.639999,6.09,4.34,1729419120356.0,0.0
-3.005385,-4.065405,-6.687939,-20.65,1.05,-10.78,1729419120375.0,0.0
-4.534399,-4.192225,-5.836094,-87.150002,8.54,-20.860001,1729419120397.0,0.0
-5.682954,-4.419543,-7.226324,-90.230003,7.77,-27.860001,1729419120414.0,0.0
-4.943572,-6.439085,-9.585647,-26.25,-19.950001,-18.83,1729419120436.0,0.0
-3.656233,-5.685347,-9.135797,3.43,-28.77,-16.1,1729419120461.0,0.0
-3.404987,-5.852845,-8.219346,-12.39,-15.68,-28.49,1729419120474.0,0.0
-3.531806,-6.123233,-6.558727,-24.219999,-7.84,-31.99,1729419120497.0,0.0
-3.168097,-5.364708,-7.41775,6.23,-20.790001,-23.24,1729419120515.0,0.0
-2.778067,-4.962714,-7.73121,63.490002,-32.549999,-8.96,1729419120536.0,0.0
-3.445665,-3.211168,-7.487142,72.519997,-5.74,0.98,1729419120554.0,0.0
-5.405386,-3.254239,-8.41795,66.989998,17.5,11.97,1729419120575.0,0.0
-5.635098,-3.5007,-9.549755,56.700001,24.57,20.09,1729419120597.0,0.0
-3.866802,-3.488736,-7.116255,71.330002,2.59,35.139999,1729419120616.0,0.0
-2.667997,-4.826324,-6.348158,16.52,-17.15,26.040001,1729419120635.0,0.0
-3.110669,-5.338387,-10.253245,-37.170002,-2.31,10.92,1729419120656.0,0.0
-4.627719,-5.958128,-8.822337,9.87,19.809999,6.72,1729419120675.0,0.0
-5.565705,-5.443672,-7.657032,51.939999,22.889999,10.85,1729419120696.0,0.0
-4.677969,-5.032106,-6.039484,65.309998,-4.62,6.93,1729419120716.0,0.0
-4.555934,-5.690133,-6.407979,49.98,-3.99,7.98,1729419120737.0,0.0
-4.599005,-7.896315,-7.259824,90.93,9.73,0.77,1729419120850.0,0.0
-4.539185,-8.800802,-7.831708,183.190002,21.0,7.14,1729419120850.0,0.0
-4.333402,-8.537591,-8.200203,266.839996,31.290001,14.63,1729419120851.0,0.0
-3.881158,-7.051648,-9.030513,307.929993,34.299999,17.01,1729419120851.0,0.0
-3.412165,-7.463214,-8.413164,324.309998,54.459999,26.040001,1729419120851.0,0.0
-3.194418,-7.037291,-6.262017,317.100006,82.25,30.450001,1729419120858.0,0.0
-3.665804,-7.219146,-4.716253,328.160004,93.379997,31.43,1729419120877.0,0.0
-4.295116,-8.836694,-3.491128,351.540009,74.340004,29.049999,1729419120897.0,0.0
-5.125426,-7.439285,1.887937,363.51001,38.990002,20.23,1729419120916.0,0.0
-4.615755,-6.369694,-0.988236,361.76001,45.290001,13.23,1729419120937.0,0.0
-5.029713,-6.812366,0.265603,319.970001,45.639999,6.72,1729419120956.0,0.0
-4.388437,-7.02772,1.038485,259.350006,25.76,1.82,1729419120976.0,0.0
-5.020142,-6.537192,2.258825,194.389999,35.209999,-3.08,1729419120998.0,0.0
-5.678168,-6.630512,2.270789,163.940002,23.17,-3.01,1729419121016.0,0.0
-4.342973,-6.977471,2.411965,154.979996,6.58,8.19,1729419121038.0,0.0
-3.732803,-7.223931,2.354537,137.059998,17.15,12.81,1729419121056.0,0.0
-4.895715,-7.953743,2.696711,119.489998,19.6,6.79,1729419121076.0,0.0
-5.455636,-8.01117,1.521835,113.050003,18.83,2.66,1729419121098.0,0.0
-4.768896,-7.623533,3.720839,122.639999,21.77,7.49,1729419121117.0,0.0
-3.507878,-6.209375,5.893522,97.370003,23.52,15.05,1729419121136.0,0.0
-3.235096,-3.919443,6.738188,4.83,15.82,13.09,1729419121156.0,0.0
-2.615355,-5.108676,3.335595,-89.599998,-16.870001,18.969999,1729419121180.0,0.0
-2.854637,-9.722038,3.675375,-140.350006,-27.719999,25.059999,1729419121197.0,0.0
-4.350152,-10.975878,4.546363,-167.649994,-27.23,9.1,1729419121217.0,0.0
-5.453243,-11.191232,4.711468,-141.539993,-27.299999,12.67,1729419121237.0,0.0
-5.63749,-10.442278,2.926422,-157.639999,-42.420002,-7.98,1729419121256.0,0.0
-5.635098,-9.152546,3.759124,-196.210007,-40.040001,-16.799999,1729419121276.0,0.0
-6.15434,-6.644868,2.821138,-240.240005,-34.369999,-15.61,1729419121297.0,0.0
-5.556134,-6.69751,1.4668,-282.519989,-37.52,-15.05,1729419121317.0,0.0
-5.297709,-7.281359,-0.459422,-353.01001,-46.27,-36.75,1729419121336.0,0.0
-4.957928,-7.252645,-1.995614,-385.769989,-42.07,-49.209999,1729419121357.0,0.0
-5.067998,-5.869594,-2.823531,-391.720001,-17.710001,-51.59,1729419121375.0,0.0
-5.458029,-4.331009,-2.172683,-413.140015,-10.92,-63.490002,1729419121398.0,0.0
-6.204589,-4.010371,-4.934,-422.940002,-51.939999,-70.279999,1729419121417.0,0.0
-5.017749,-8.889337,-10.69831,-314.649994,-68.809998,-43.470001,1729419121437.0,0.0
-3.785445,-11.203196,-8.331808,-210.070007,-42.209999,-19.809999,1729419121457.0,0.0
-2.605784,-10.741381,-5.836094,-138.25,-15.75,-29.26,1729419121476.0,0.0
-2.443072,-7.345965,-4.558327,-113.889999,-13.09,-31.01,1729419121496.0,0.0
-2.35693,-4.685147,-4.527221,-123.690002,-29.82,-32.48,1729419121516.0,0.0
-2.574677,-3.87398,-7.164111,-148.259995,-35.630001,-24.01,1729419121537.0,0.0
-3.756732,-5.587241,-7.767102,-172.830002,-30.52,-10.08,1729419121555.0,0.0
-3.981657,-6.826723,-6.630512,-183.610001,-20.65,-10.01,1729419121575.0,0.0
-3.818945,-5.67099,-6.707082,-113.050003,-39.27,3.92,1729419121597.0,0.0
-3.605984,-3.330809,-7.226324,-70.840004,-55.09,15.47,1729419121615.0,0.0
-3.921836,-3.251846,-8.913264,-69.160004,-53.200001,29.26,1729419121637.0,0.0
-3.962514,-4.115655,-9.315259,-90.300003,-30.940001,28.42,1729419121655.0,0.0
-4.402793,-4.378866,-8.736196,-81.129997,-15.05,29.960001,1729419121675.0,0.0
-4.924429,-4.862216,-8.525627,-37.240002,-18.34,34.720001,1729419121697.0,0.0
-5.173282,-5.261817,-8.985049,-17.85,-17.92,32.27,1729419121716.0,0.0
-4.768896,-5.62074,-8.693125,-15.61,-9.8,13.72,1729419121737.0,0.0
-4.465007,-5.886343,-8.250452,-9.38,-6.58,6.58,1729419121757.0,0.0
-4.713861,-6.400801,-9.073583,1.19,4.06,-0.63,1729419121776.0,0.0
-4.835894,-5.314459,-9.317651,16.309999,17.219999,-3.15,1729419121799.0,0.0
-4.572684,-6.087341,-9.250652,47.950001,20.370001,2.52,1729419121816.0,0.0
-3.718446,-6.226124,-7.109076,64.050003,11.27,-2.45,1729419121836.0,0.0
-3.905087,-4.383651,-5.067998,51.310001,11.2,-8.05,1729419121855.0,0.0
-4.711468,-4.704289,-7.025328,39.200001,-1.05,-15.33,1729419121876.0,0.0
-5.702096,-5.833702,-8.379664,37.939999,9.73,-16.17,1729419121897.0,0.0
-5.833702,-3.706482,-7.24786,85.190002,16.66,-10.08,1729419121915.0,0.0
-5.04407,-2.957529,-7.054041,126.699997,-6.23,15.47,1729419121937.0,0.0
-4.156333,-4.108476,-7.903493,101.919998,-14.63,12.46,1729419121957.0,0.0
-4.252046,-6.888937,-8.760124,96.32,4.34,4.76,1729419121976.0,0.0
-5.053641,-6.541977,-6.9009,119.419998,35.630001,-4.13,1729419121997.0,0.0
-5.266603,-7.092326,-7.135397,196.699997,47.32,-0.42,1729419122015.0,0.0
-4.630112,-7.996813,-8.714661,295.75,45.220001,19.32,1729419122037.0,0.0
-4.316652,-7.085148,-8.752945,342.720001,51.73,28.98,1729419122056.0,0.0
-4.354938,-6.862615,-6.034698,345.589996,66.849998,20.440001,1729419122076.0,0.0
-4.733003,-6.068198,-4.23051,301.700012,76.580002,11.62,1729419122098.0,0.0
-4.536791,-5.948557,-4.146761,283.920013,52.990002,7.0,1729419122115.0,0.0
-4.713861,-6.628119,-2.852244,246.889999,42.84,14.07,1729419122137.0,0.0
-5.479564,-9.01137,-0.772882,206.570007,25.34,2.8,1729419122156.0,0.0
-4.268795,-10.265208,-3.471986,200.410004,-6.3,-22.33,1729419122175.0,0.0
-4.065405,-11.56451,-1.150948,261.029999,-2.73,-28.210001,1729419122198.0,0.0
-3.433701,-8.913264,0.184247,347.690002,30.52,-21.07,1729419122215.0,0.0
-4.680361,-6.175875,2.0004,371.0,66.360001,-5.04,1729419122237.0,0.0
-4.737789,-3.622734,2.823531,312.970001,49.91,0.14,1729419122256.0,0.0
-4.728218,-6.326623,3.806981,181.860001,3.99,3.99,1729419122277.0,0.0
-3.795017,-7.245467,3.661019,132.369995,-1.75,-2.66,1729419122297.0,0.0
-3.261417,-7.611568,3.053242,116.550003,12.74,10.57,1729419122315.0,0.0
-4.802395,-8.374879,2.897708,81.830002,24.99,1.26,1729419122336.0,0.0
-5.091926,-9.253045,3.814159,48.93,19.460001,-9.24,1729419122357.0,0.0
-4.273581,-8.310273,3.960121,26.880001,18.620001,-10.99,1729419122377.0,0.0
-3.914658,-9.391829,6.173482,19.110001,-1.75,-21.280001,1729419122397.0,0.0
-2.689533,-5.242674,4.146761,19.18,0.28,-19.040001,1729419122416.0,0.0
-3.589234,-5.067998,3.510271,12.32,1.4,10.01,1729419122436.0,0.0
-4.110869,-6.661618,3.926622,-55.720001,-5.67,4.13,1729419122456.0,0.0
-4.431508,-8.197811,2.244468,-128.100006,-12.11,-1.61,1729419122477.0,0.0
-4.098906,-8.999406,2.615355,-160.089996,-12.32,-1.89,1729419122503.0,0.0
-3.866802,-7.913064,2.644069,-178.710007,-7.63,0.21,1729419122517.0,0.0
-4.022335,-8.62134,1.002593,-201.389999,-11.13,-1.54,1729419122536.0,0.0
-3.615555,-9.645468,0.76331,-213.990005,-17.85,-8.68,1729419122556.0,0.0
-4.280759,-10.121639,1.308874,-208.669998,-15.05,-6.3,1729419122578.0,0.0
-5.261817,-9.853643,2.177469,-207.059998,-10.29,-15.89,1729419122598.0,0.0
-5.24746,-8.216952,1.706082,-223.440002,-17.99,-24.01,1729419122617.0,0.0
-4.761717,-7.269395,0.385244,-252.070007,-31.85,-28.35,1729419122636.0,0.0
-4.532006,-8.152347,-1.68694,-292.809998,-52.220001,-33.459999,1729419122656.0,0.0
-3.936193,-8.415558,-3.455236,-322.070007,-53.34,-44.799999,1729419122677.0,0.0
-3.940979,-7.592427,-3.402594,-357.839996,-42.07,-53.130001,1729419122699.0,0.0
-4.76411,-7.575676,-2.986243,-377.160004,-37.240002,-63.209999,1729419122716.0,0.0
-5.199604,-10.171888,-5.149354,-297.5,-60.830002,-52.360001,1729419122738.0,0.0
-3.402594,-10.597812,-6.843473,-161.490005,-51.240002,-38.639999,1729419122756.0,0.0
-2.261217,-7.960921,-6.568298,-73.849998,-17.43,-25.83,1729419122778.0,0.0
-2.866602,-5.742774,-6.228518,-46.41,0.28,-12.46,1729419122798.0,0.0
-3.682554,-3.723232,-6.989435,-98.489998,-4.27,-11.48,1729419122816.0,0.0
-2.828316,-4.350152,-8.513663,-151.130005,-13.58,-9.38,1729419122840.0,0.0
-1.770689,-6.23091,-8.980263,-156.520004,-14.28,-0.21,1729419122859.0,0.0
-2.708675,-6.206983,-7.02772,-113.75,10.71,7.28,1729419122878.0,0.0
-4.13719,-5.929415,-3.907479,-104.860001,14.35,3.99,1729419122900.0,0.0
-5.020142,-7.357929,-5.426922,-109.830002,-15.26,-9.03,1729419122918.0,0.0
-4.328616,-6.123233,-6.920043,-122.5,-56.98,-21.35,1729419122937.0,0.0
-3.739982,-4.811966,-7.130611,-114.169998,-58.170002,-15.190001,1729419122957.0,0.0
-3.68734,-3.254239,-7.834101,-94.43,-43.400002,0.14,1729419122978.0,0.0
-3.835695,-3.462414,-10.253245,-44.939999,-32.830002,24.15,1729419122998.0,0.0
-4.319045,-4.630112,-9.513863,6.37,-20.299999,44.939999,1729419123017.0,0.0
-5.24746,-6.228518,-7.467999,16.379999,10.08,36.610001,1729419123040.0,0.0
-4.890929,-7.563712,-8.338986,17.85,7.63,14.49,1729419123058.0,0.0
-4.218546,-6.324231,-8.525627,11.13,-10.01,5.04,1729419123078.0,0.0
-3.412165,-6.802795,-9.695717,7.0,-7.63,4.9,1729419123098.0,0.0
-2.533999,-6.888937,-8.025528,16.52,-6.37,0.98,1729419123117.0,0.0
-3.141776,-5.486742,-5.69731,16.379999,1.96,-1.61,1729419123138.0,0.0
-3.821337,-6.532406,-6.606583,-1.68,-12.53,-9.94,1729419123159.0,0.0
-3.809374,-6.199803,-7.207181,-11.13,-16.1,-16.309999,1729419123178.0,0.0
-4.182654,-6.446264,-7.278966,72.800003,-9.59,-1.47,1729419123198.0,0.0
-4.819145,-4.130012,-7.24786,115.220001,-2.8,9.94,1729419123222.0,0.0
-5.548956,-3.335595,-7.362715,135.449997,-6.09,22.68,1729419123237.0,0.0
-5.699703,-4.67079,-8.561519,97.440002,-10.29,22.889999,1729419123256.0,0.0
-5.13739,-7.128219,-8.592626,72.870003,-10.29,5.74,1729419123278.0,0.0
-4.900501,-7.999206,-8.69791,105.209999,19.67,-0.91,1729419123299.0,0.0
-4.62054,-7.922636,-8.109276,178.149994,33.110001,-5.88,1729419123316.0,0.0
-4.448257,-7.209574,-8.657232,260.26001,41.860001,2.73,1729419123339.0,0.0
-4.536791,-5.74756,-7.750352,315.630005,44.59,14.91,1729419123356.0,0.0
-4.881358,-4.070191,-5.536992,301.420013,55.720001,14.07,1729419123377.0,0.0
-4.87418,-5.491528,-4.986642,242.550003,56.700001,10.85,1729419123400.0,0.0
-4.563113,-7.946564,-4.010371,188.509995,53.060001,3.71,1729419123417.0,0.0
-4.402793,-8.877372,-4.139583,192.710007,33.740002,0.14,1729419123438.0,0.0
-4.663611,-9.755538,-3.524628,232.680008,22.26,2.59,1729419123457.0,0.0
-4.816752,-10.234102,-2.900101,271.600006,6.37,-11.9,1729419123477.0,0.0
-3.63709,-7.496714,-2.565106,329.700012,16.450001,-19.6,1729419123499.0,0.0
-3.897908,-5.242674,1.739582,349.579987,41.299999,5.32,1729419123518.0,0.0
-5.134997,-6.068198,3.182454,231.559998,29.26,-8.54,1729419123538.0,0.0
-4.809574,-6.707082,2.139183,159.669998,-9.94,-19.18,1729419123558.0,0.0
-2.624927,-6.379266,2.215754,164.149994,-9.94,5.6,1729419123578.0,0.0
-3.079563,-8.537591,1.572084,158.410004,17.01,21.77,1729419123598.0,0.0
-4.278367,-8.886944,-0.153141,97.790001,22.469999,-3.43,1729419123617.0,0.0
-5.082355,-9.745967,2.134398,60.619999,17.780001,3.64,1729419123637.0,0.0
-3.921836,-7.743174,3.5007,62.23,18.83,10.64,1729419123657.0,0.0
-4.065405,-8.061419,5.213961,49.07,15.75,0.98,1729419123677.0,0.0
-3.151347,-6.690332,5.046463,37.73,-7.42,-4.06,1729419123698.0,0.0
-3.996014,-7.678568,4.134798,42.630001,0.7,13.3,1729419123716.0,0.0
-4.445865,-6.379266,3.196811,-6.23,7.42,1.19,1729419123738.0,0.0
-4.795217,-7.724032,2.591427,-57.470001,4.76,4.06,1729419123757.0,0.0
-4.070191,-10.10489,3.845266,-100.800003,3.36,-6.51,1729419123776.0,0.0
-4.290331,-9.970891,3.881158,-153.509995,9.38,-16.66,1729419123798.0,0.0
-4.639683,-8.46102,3.031706,-197.190002,2.17,-21.84,1729419123818.0,0.0
-3.986443,-8.391629,1.847259,-213.850006,-20.299999,-11.97,1729419123838.0,0.0
-3.510271,-10.313066,-0.440279,-238.350006,-36.330002,-15.82,1729419123857.0,0.0
-4.572684,-10.597812,0.784846,-262.079987,-24.5,-23.309999,1729419123877.0,0.0
-4.948357,-8.99462,0.727418,-247.520004,-19.74,-31.360001,1729419123898.0,0.0
-4.905287,-7.542177,-0.39003,-219.449997,-31.08,-32.689999,1729419123916.0,0.0
-4.606184,-7.618747,-1.87358,-206.149994,-36.119999,-24.85,1729419123937.0,0.0
-4.615755,-8.444271,-3.041277,-219.100006,-39.619999,-30.799999,1729419123957.0,0.0
-5.242674,-8.396415,-4.386044,-269.709991,-25.34,-44.939999,1729419123978.0,0.0
-5.302495,-5.661418,-3.744767,-344.329987,-17.43,-72.590004,1729419124008.0,0.0
-3.881158,-6.453443,-4.924429,-367.779999,-33.110001,-70.840004,1729419124017.0,0.0
-2.986243,-9.439686,-4.591826,-297.429993,-58.52,-42.98,1729419124039.0,0.0
-2.098505,-9.741181,-6.369694,-165.059998,-34.580002,-23.73,1729419124057.0,0.0
-2.490928,-7.831708,-5.883951,-47.740002,-15.54,-7.7,1729419124077.0,0.0
-3.041277,-5.264209,-6.546762,-16.24,-39.900002,0.63,1729419124098.0,0.0
-3.125026,-4.072584,-6.350551,-75.669998,-52.779999,0.91,1729419124116.0,0.0
-3.115455,-3.495914,-7.781459,-167.440002,-45.360001,-11.41,1729419124137.0,0.0
-3.036492,-5.388636,-8.379664,-226.660004,-30.030001,-12.39,1729419124157.0,0.0
-3.06042,-5.376673,-9.915856,-195.509995,-21.629999,-12.04,1729419124178.0,0.0
-3.63709,-3.914658,-10.126426,-93.800003,-15.82,5.81,1729419124198.0,0.0
-3.718446,-4.156333,-9.80818,-74.340004,-11.06,14.0,1729419124216.0,0.0
-3.955336,-5.673382,-5.448457,-94.779999,-1.19,13.79,1729419124238.0,0.0
-4.426722,-6.599405,-5.680561,-120.120003,-7.98,-5.81,1729419124257.0,0.0
-4.127619,-6.754939,-6.946364,-125.370003,-30.1,-27.299999,1729419124278.0,0.0
-3.292524,-4.725825,-8.939585,-113.610001,-41.720001,-29.4,1729419124297.0,0.0
-3.555735,-4.599005,-9.521042,-51.029999,-31.85,-2.66,1729419124316.0,0.0
-4.139583,-3.550949,-8.812766,21.84,-5.18,21.629999,1729419124337.0,0.0
-5.259424,-3.52702,-8.714661,82.32,2.24,42.279999,1729419124357.0,0.0
-5.460421,-3.852444,-9.58804,66.5,1.96,30.940001,1729419124376.0,0.0
-4.938786,-3.218346,-8.516055,14.49,2.1,20.58,1729419124398.0,0.0
-4.216154,-5.47717,-10.114462,-19.6,0.35,13.23,1729419124417.0,0.0
-3.572484,-8.267202,-7.977671,-26.110001,-1.68,1.89,1729419124438.0,0.0
-3.491128,-7.68096,-5.338387,-17.85,2.45,-17.219999,1729419124457.0,0.0
-3.278167,-5.089533,-6.707082,24.780001,-23.66,-25.9,1729419124476.0,0.0
-3.771089,-4.706682,-8.642875,82.32,-19.879999,-10.57,1729419124499.0,0.0
-4.627719,-3.775874,-9.535398,142.520004,2.45,2.66,1729419124517.0,0.0
-5.350351,-3.105884,-8.556733,151.059998,11.41,16.379999,1729419124538.0,0.0
-5.328816,-4.759324,-7.094719,109.480003,12.04,10.99,1729419124557.0,0.0
-4.721039,-6.709475,-7.855636,74.830002,7.98,-5.25,1729419124577.0,0.0
-4.287938,-6.635297,-8.51127,102.830002,14.84,-13.58,1729419124598.0,0.0
-4.469792,-6.896115,-9.35833,166.25,16.870001,-5.74,1729419124616.0,0.0
-4.285545,-5.752346,-7.709675,208.740005,42.700001,-4.2,1729419124637.0,0.0
-4.570292,-6.850651,-6.707082,248.080002,54.040001,10.08,1729419124656.0,0.0
-3.940979,-5.946165,-6.195018,252.559998,57.959999,7.77,1729419124677.0,0.0
-4.144369,-5.67099,-5.048856,277.970001,67.059998,25.83,1729419124698.0,0.0
-4.132405,-4.407579,-5.075177,248.080002,69.93,30.870001,1729419124716.0,0.0
-4.338188,-5.812167,-4.95075,203.699997,79.099998,32.41,1729419124737.0,0.0
-5.180461,-8.685946,-3.878766,166.180008,86.239998,25.9,1729419124756.0,0.0
-5.462814,-10.815558,-4.185047,164.990005,54.670002,8.4,1729419124777.0,0.0
-4.354938,-11.598011,-4.689932,204.259995,9.31,1.68,1729419124797.0,0.0
-3.26381,-10.281959,-2.775674,259.0,7.84,-5.74,1729419124816.0,0.0
-3.110669,-8.913264,-0.997807,316.049988,39.759998,-5.6,1729419124838.0,0.0
-4.31426,-8.276773,0.976272,328.649994,51.099998,-11.27,1729419124856.0,0.0
-3.471986,-5.089533,1.440479,274.890015,28.07,-20.09,1729419124876.0,0.0
-4.701896,-6.319445,3.658626,213.149994,23.940001,-0.42,1729419124898.0,0.0
-4.302295,-7.092326,3.739982,153.930008,-16.17,-15.4,1729419124916.0,0.0
-2.859423,-7.659425,2.861816,130.970001,-15.75,-6.16,1729419124938.0,0.0
-3.404987,-9.267403,2.478964,96.32,0.42,0.07,1729419124963.0,0.0
-3.218346,-9.013763,1.758725,46.41,-5.74,-15.12,1729419124976.0,0.0
-3.471986,-10.652846,2.160719,27.23,-6.79,-11.9,1729419124998.0,0.0
-3.225525,-9.576077,2.947958,18.200001,-13.37,-18.34,1729419125017.0,0.0
-2.423929,-7.834101,3.706482,30.799999,-14.7,-13.23,1729419125039.0,0.0
-1.864009,-6.082555,2.409572,46.619999,-6.79,-6.02,1729419125056.0,0.0
-3.218346,-6.185446,3.287738,26.950001,7.56,3.71,1729419125077.0,0.0
-3.792624,-6.037091,1.87358,-40.880001,1.54,5.81,1729419125097.0,0.0
-3.912265,-8.427521,3.098706,-94.150002,-2.52,10.57,1729419125117.0,0.0
-4.146761,-9.018548,2.179861,-166.669998,-1.26,-0.84,1729419125137.0,0.0
-4.055835,-9.068797,1.411765,-215.180008,-12.6,-7.49,1729419125157.0,0.0
-3.002992,-10.360922,0.823131,-237.580002,-30.59,-1.05,1729419125178.0,0.0
-2.45025,-10.966305,-1.251446,-246.75,-17.360001,-8.75,1729419125198.0,0.0
-4.302295,-11.653046,2.694318,-247.029999,7.49,-17.5,1729419125216.0,0.0
-6.017949,-10.896914,2.706282,-210.139999,3.57,-21.210001,1729419125238.0,0.0
-5.4341,-9.243474,0.588634,-161.490005,-1.68,-20.370001,1729419125257.0,0.0
-3.419343,-7.37468,-1.445265,-158.899994,-8.12,-29.889999,1729419125278.0,0.0
-2.507678,-6.580262,-1.981257,-186.970001,-19.18,-28.139999,1729419125298.0,0.0
-2.986243,-7.482357,-2.423929,-229.460007,-21.77,-27.02,1729419125317.0,0.0
-3.605984,-8.659625,-3.37388,-265.019989,-30.66,-32.830002,1729419125338.0,0.0
-3.385844,-8.784052,-4.62054,-253.75,-43.959999,-38.849998,1729419125357.0,0.0
-2.699104,-7.759924,-4.563113,-235.550003,-49.490002,-40.880001,1729419125379.0,0.0
-2.830709,-7.57089,-4.558327,-231.979996,-54.25,-43.889999,1729419125399.0,0.0
-3.321238,-7.688138,-5.228317,-221.410004,-49.700001,-41.299999,1729419125418.0,0.0
-3.335595,-7.771888,-6.381658,-179.339996,-51.869999,-34.650002,1729419125440.0,0.0
-3.424129,-6.716653,-7.034898,-123.760002,-61.599998,-22.68,1729419125459.0,0.0
-3.754339,-5.4676,-7.226324,-127.260002,-61.599998,-21.0,1729419125478.0,0.0
-3.328416,-4.991428,-8.190632,-129.779999,-54.18,-19.530001,1729419125501.0,0.0
-2.782853,-5.216353,-8.200203,-122.919998,-49.139999,-9.8,1729419125518.0,0.0
-2.744568,-4.4339,-8.762517,-105.209999,-35.77,-4.76,1729419125539.0,0.0
-3.311667,-3.074777,-10.047462,-82.389999,-25.41,5.81,1729419125559.0,0.0
-4.036692,-3.448057,-10.301102,-70.629997,-10.57,19.32,1729419125578.0,0.0
-4.132405,-4.938786,-9.178867,-54.459999,-0.77,23.66,1729419125599.0,0.0
-3.938586,-5.276174,-7.326823,-55.580002,3.78,19.18,1729419125618.0,0.0
-3.677768,-4.465007,-6.080163,-70.349998,-10.01,5.81,1729419125638.0,0.0
-3.823731,-5.484349,-6.410372,-86.309998,-29.120001,-4.69,1729419125657.0,0.0
-3.615555,-5.570491,-7.724032,-108.989998,-39.27,-17.710001,1729419125684.0,0.0
-3.680161,-5.012963,-9.377472,-86.590004,-37.52,-14.98,1729419125699.0,0.0
-3.852444,-3.938586,-8.764909,-30.24,-21.84,5.81,1729419125718.0,0.0
-4.165904,-3.156133,-8.269595,17.219999,-16.59,27.16,1729419125739.0,0.0
-4.802395,-3.854837,-9.166903,22.960001,-8.75,32.619999,1729419125826.0,0.0
-4.910072,-4.907679,-9.750752,14.63,-1.05,23.17,1729419125826.0,0.0
-4.527221,-5.178068,-9.482756,26.809999,10.15,18.34,1729419125826.0,0.0
-4.041477,-5.958128,-9.178867,23.66,12.81,13.58,1729419125827.0,0.0
-3.613162,-5.240282,-8.446664,16.379999,18.76,1.47,1729419125854.0,0.0
-4.319045,-5.099105,-4.878965,33.810001,22.190001,3.36,1729419125858.0,0.0
-4.486543,-4.642076,-6.635297,23.030001,-2.24,-5.32,1729419125878.0,0.0
-3.749553,-5.570491,-8.248059,21.49,-31.85,-9.24,1729419125898.0,0.0
-3.570091,-5.446064,-8.362915,14.49,-19.6,-12.67,1729419125918.0,0.0
-4.366901,-4.914857,-6.553941,36.330002,4.27,-11.83,1729419125938.0,0.0
-4.601398,-5.446064,-7.920243,79.379997,0.77,-3.57,1729419125958.0,0.0
-4.256832,-4.632504,-9.753145,116.059998,-19.040001,5.67,1729419125978.0,0.0
-4.474578,-3.943372,-8.389235,111.020004,-8.61,11.2,1729419126000.0,0.0
-5.070391,-4.711468,-7.534998,77.910004,17.92,1.89,1729419126018.0,0.0
-4.826324,-5.740381,-7.996813,95.760002,21.91,-4.13,1729419126041.0,0.0
-4.141976,-6.321837,-9.12144,150.570007,9.24,5.74,1729419126058.0,0.0
-4.079762,-7.633104,-8.496914,191.520004,23.030001,8.96,1729419126078.0,0.0
-3.945765,-7.168896,-6.853044,198.589996,59.639999,-3.43,1729419126104.0,0.0
-4.201797,-6.843473,-6.941578,230.930008,61.880001,5.95,1729419126118.0,0.0
-3.902694,-5.352744,-7.381857,257.390015,48.369999,6.23,1729419126138.0,0.0
-4.505685,-6.407979,-4.792823,226.869995,57.119999,12.04,1729419126158.0,0.0
-4.539185,-6.994221,-4.051049,168.350006,59.990002,-0.77,1729419126178.0,0.0
-4.019942,-9.008978,-4.558327,164.430008,31.43,-3.57,1729419126198.0,0.0
-4.323831,-9.805787,-3.287738,165.550003,15.54,-9.66,1729419126218.0,0.0
-3.778267,-10.042676,-4.833502,203.210007,-5.39,-15.89,1729419126238.0,0.0
-3.711268,-9.298509,-3.773481,268.309998,15.26,-12.32,1729419126258.0,0.0
-3.505485,-7.91785,-2.115255,322.0,39.689999,-6.09,1729419126278.0,0.0
-4.065405,-7.563712,0.358923,315.769989,43.610001,-2.1,1729419126299.0,0.0
-3.725625,-5.905487,1.083949,275.380005,38.5,-12.53,1729419126323.0,0.0
-4.512863,-7.070791,0.921237,231.910004,29.82,-4.76,1729419126339.0,0.0
-5.005785,-9.023334,1.976472,198.589996,1.12,-12.67,1729419126358.0,0.0
-3.682554,-7.652246,3.136991,202.580002,-4.55,-12.67,1729419126378.0,0.0
-3.04367,-5.915058,3.737589,199.080002,13.02,10.43,1729419126399.0,0.0
-4.354938,-7.092326,4.625326,135.869995,10.92,6.09,1729419126418.0,0.0
-4.570292,-9.016156,3.84048,40.740002,-15.68,-7.84,1729419126438.0,0.0
-2.600998,-11.47837,4.144369,-6.65,-28.91,-13.23,1729419126458.0,0.0
-1.339981,-7.640282,2.754139,26.389999,-7.98,-22.33,1729419126585.0,0.0
-2.455036,-5.295317,2.591427,58.73,16.799999,4.62,1729419126587.0,0.0
-3.227918,-6.218946,3.57727,16.59,17.710001,5.18,1729419126588.0,0.0
-3.582055,-7.575676,2.579463,-68.459999,9.66,-2.45,1729419126589.0,0.0
-3.538985,-9.205189,3.242275,-100.379997,11.83,-4.83,1729419126590.0,0.0
-3.440879,-8.195417,2.708675,-131.460007,17.780001,-4.41,1729419126591.0,0.0
-3.04367,-8.293523,2.057827,-159.180008,11.2,-2.31,1729419126598.0,0.0
-3.402594,-10.191031,2.531606,-180.740005,-2.8,0.84,1729419126616.0,0.0
-3.385844,-10.604989,1.117448,-184.800003,-6.51,2.24,1729419126641.0,0.0
-3.223132,-9.590433,1.629512,-167.649994,-7.49,5.46,1729419126656.0,0.0
-3.225525,-8.803195,1.574477,-156.380005,-14.21,7.28,1729419126677.0,0.0
-3.955336,-9.387043,0.732204,-157.360001,-20.16,10.99,1729419126699.0,0.0
-4.852644,-9.77468,1.368695,-173.110001,-18.83,5.74,1729419126716.0,0.0
-5.139783,-7.922636,0.803988,-214.550003,-17.290001,-10.01,1729419126737.0,0.0
-4.570292,-7.575676,-1.07677,-253.119995,-32.060001,-19.32,1729419126757.0,0.0
-3.07717,-9.152546,-3.45045,-288.329987,-56.420002,-26.880001,1729419126777.0,0.0
-3.136991,-9.442079,-3.744767,-298.619995,-59.990002,-36.259998,1729419126797.0,0.0
-4.364508,-7.594819,-2.378466,-302.26001,-22.75,-47.810001,1729419126817.0,0.0
-5.386244,-6.23091,-3.641876,-290.5,-24.15,-50.889999,1729419126838.0,0.0
-4.235296,-6.690332,-6.331409,-255.360001,-55.510002,-40.670002,1729419126856.0,0.0
-2.629712,-8.939585,-6.85783,-205.729996,-66.919998,-26.389999,1729419126877.0,0.0
-2.385644,-8.760124,-7.223931,-167.089996,-54.950001,-26.040001,1729419126897.0,0.0
-3.014957,-5.740381,-7.743174,-129.779999,-20.790001,-26.530001,1729419126916.0,0.0
-3.550949,-4.007978,-7.77428,-117.459999,-22.469999,-16.309999,1729419126937.0,0.0
-2.974278,-4.749753,-8.374879,-118.160004,-46.549999,-9.66,1729419126956.0,0.0
-2.428715,-6.132804,-8.025528,-127.540001,-47.599998,-4.41,1729419126977.0,0.0
-2.847459,-6.001199,-7.489535,-123.690002,-27.370001,-4.9,1729419127005.0,0.0
-3.661019,-5.225924,-8.16431,-97.300003,-17.5,-6.65,1729419127016.0,0.0
-4.218546,-4.845466,-7.683353,-70.489998,-24.219999,2.1,1729419127040.0,0.0
-4.110869,-4.613362,-7.386643,-61.880001,-34.299999,8.05,1729419127057.0,0.0
-4.26401,-4.505685,-7.829315,-53.549999,-34.580002,10.64,1729419127077.0,0.0
-4.68754,-3.881158,-8.683553,-37.52,-27.440001,13.23,1729419127099.0,0.0
-4.819145,-3.184847,-8.233703,-11.48,-19.74,22.26,1729419127117.0,0.0
-5.383851,-5.084748,-7.721639,-6.58,-12.53,27.51,1729419127137.0,0.0
-5.082355,-4.845466,-9.075976,-34.439999,-13.79,3.85,1729419127157.0,0.0
-4.218546,-4.400401,-9.982857,-24.219999,-14.98,0.42,1729419127178.0,0.0
-4.091727,-3.9338,-7.956135,-0.07,-3.43,6.51,1729419127197.0,0.0
-4.828716,-5.036892,-8.006385,5.88,8.54,2.17,1729419127216.0,0.0
-4.551149,-4.924429,-9.492328,-17.08,2.38,-6.93,1729419127238.0,0.0
-3.737589,-4.881358,-9.466006,-32.27,4.97,-13.23,1729419127256.0,0.0
-3.239882,-4.768896,-8.240881,-26.530001,16.940001,-13.3,1729419127277.0,0.0
-4.098906,-6.283553,-7.71446,0.77,16.870001,-10.92,1729419127299.0,0.0
-5.015356,-6.21416,-5.635098,26.460001,18.969999,-16.66,1729419127318.0,0.0
-4.673182,-7.123433,-9.470792,57.889999,12.74,-17.08,1729419127338.0,0.0
-3.665804,-3.278167,-7.123433,72.660004,-0.77,-9.03,1729419127358.0,0.0
-3.888337,-3.555735,-6.735795,34.16,11.2,-4.48,1729419127378.0,0.0
-4.297509,-5.587241,-6.319445,-11.06,4.97,-6.37,1729419127400.0,0.0
-3.854837,-5.592027,-7.130611,-29.75,-11.62,-21.210001,1729419127421.0,0.0
-2.991028,-3.134598,-8.961121,-9.17,-37.799999,-19.110001,1729419127440.0,0.0
-3.515057,-1.215554,-9.269794,15.68,-39.689999,0.14,1729419127460.0,0.0
-4.45065,-3.56052,-10.095319,16.309999,3.57,0.56,1729419127480.0,0.0
-5.072784,-3.464807,-8.221739,26.74,22.120001,4.48,1729419127504.0,0.0
-4.919643,-4.742575,-8.666803,42.630001,11.97,12.53,1729419127519.0,0.0
-3.960121,-4.512863,-8.437093,33.599998,5.39,6.16,1729419127541.0,0.0
-3.859623,-4.934,-8.126025,38.57,16.030001,4.06,1729419127560.0,0.0
-4.304688,-4.333402,-7.716853,45.639999,26.950001,6.02,1729419127579.0,0.0
-5.144568,-4.311867,-6.565905,66.080002,28.35,16.940001,1729419127600.0,0.0
-5.472386,-4.931608,-5.87438,66.779999,16.309999,22.82,1729419127620.0,0.0
-5.132604,-4.878965,-6.144768,70.769997,6.58,21.0,1729419127641.0,0.0
-4.981857,-4.608576,-6.345766,86.169998,2.31,25.690001,1729419127659.0,0.0
-4.831109,-4.816752,-6.836295,96.949997,-2.66,25.690001,1729419127680.0,0.0
-4.673182,-5.65424,-6.982256,97.790001,-5.74,28.210001,1729419127701.0,0.0
-4.465007,-6.809973,-6.809973,79.169998,-3.29,22.4,1729419127723.0,0.0
-4.259224,-6.391229,-7.171289,63.560001,6.51,8.26,1729419127740.0,0.0
-4.259224,-6.771688,-6.364908,86.379997,6.65,16.450001,1729419127760.0,0.0
-4.271189,-7.267002,-6.331409,110.809998,9.45,21.42,1729419127780.0,0.0
-4.709075,-7.853244,-5.982057,129.5,7.56,19.040001,1729419127802.0,0.0
-4.878965,-6.855437,-6.013163,119.489998,15.75,12.95,1729419127819.0,0.0
-4.790431,-7.173682,-5.876772,100.519997,16.59,13.72,1729419127840.0,0.0
-4.541577,-8.642875,-5.02732,99.330002,11.97,11.97,1729419127858.0,0.0
-4.627719,-8.925228,-4.709075,141.75,12.46,10.22,1729419127880.0,0.0
-5.015356,-8.166703,-4.019942,212.520004,16.66,17.639999,1729419127901.0,0.0
-5.04407,-8.157133,-3.395415,262.01001,21.07,22.82,1729419127919.0,0.0
-4.883751,-8.489735,-2.184647,269.149994,15.190001,16.799999,1729419127939.0,0.0
-5.271388,-8.874979,-1.136591,231.139999,22.82,4.97,1729419127959.0,0.0
-5.520242,-9.020942,-0.641276,159.320007,18.129999,-11.41,1729419127979.0,0.0
-4.364508,-9.279366,-1.256232,99.050003,-6.93,-14.77,1729419128002.0,0.0
-3.771089,-10.236496,-1.134198,43.049999,-15.33,-17.219999,1729419128020.0,0.0
-3.491128,-10.803595,-1.167697,-7.28,-11.2,-27.790001,1729419128042.0,0.0
-3.165704,-6.831509,0.31346,-57.75,-16.1,-36.119999,1729419128059.0,0.0
-4.031906,-3.964907,0.997807,-129.779999,-18.620001,-22.469999,1729419128079.0,0.0
-4.845466,-3.416951,-0.538385,-226.309998,-25.129999,-23.52,1729419128100.0,0.0
-4.603791,-4.031906,-2.919244,-323.329987,-44.73,-38.990002,1729419128118.0,0.0
-4.180261,-5.584848,-5.546563,-355.950012,-47.950001,-32.830002,1729419128141.0,0.0
-3.974478,-5.431707,-5.635098,-340.059998,-42.84,-25.969999,1729419128160.0,0.0
-4.345366,-5.369494,-7.475177,-288.329987,-38.009998,-10.36,1729419128182.0,0.0
-5.766702,-5.888737,-7.609176,-232.399994,-39.130001,-1.4,1729419128203.0,0.0
-6.049056,-5.003392,-6.113662,-193.479996,-56.07,-0.28,1729419128219.0,0.0
-6.118448,-3.799802,-7.030113,-182.839996,-85.120003,16.309999,1729419128240.0,0.0
-5.17089,-4.601398,-9.049655,-179.270004,-88.129997,16.379999,1729419128259.0,0.0
-4.65404,-4.419543,-7.786245,-162.680008,-77.07,17.08,1729419128281.0,0.0
-5.008178,-3.725625,-8.752945,-125.720001,-51.380001,19.460001,1729419128304.0,0.0
-5.91745,-4.304688,-8.920443,-92.540001,-44.52,20.51,1729419128319.0,0.0
-5.754738,-4.242475,-9.480364,-98.489998,-38.009998,7.63,1729419128342.0,0.0
-4.979464,-4.555934,-9.970891,-95.340004,-33.740002,4.27,1729419128362.0,0.0
-4.232903,-3.749553,-9.135797,-72.800003,-25.48,7.56,1729419128381.0,0.0
-5.079963,-3.426522,-9.363115,-44.170002,-16.309999,12.46,1729419128400.0,0.0
-5.85763,-3.63709,-6.795617,-62.23,4.27,6.51,1729419128418.0,0.0
-6.321837,-5.12782,-6.51087,-75.669998,-1.33,-2.31,1729419128439.0,0.0
-5.541777,-5.175675,-7.233503,-74.410004,-14.56,-11.48,1729419128458.0,0.0
-5.111069,-4.426722,-7.80778,-43.259998,-19.74,-5.74,1729419128479.0,0.0
-5.32403,-3.711268,-8.10449,-16.940001,-13.65,-0.35,1729419128501.0,0.0
-5.953342,-2.725425,-7.57089,3.71,-2.1,7.21,1729419128518.0,0.0
-6.769295,-1.196411,-7.401,37.66,2.94,24.43,1729419128538.0,0.0
-7.257431,-2.639283,-7.89153,51.099998,0.77,27.02,1729419128558.0,0.0
-6.329016,-2.885744,-7.444071,41.790001,7.7,18.549999,1729419128578.0,0.0
-6.374479,-3.24706,-7.460821,21.700001,0.77,17.08,1729419128599.0,0.0
-6.4343,-3.838088,-9.042477,-27.09,7.35,-7.98,1729419128619.0,0.0
-5.831308,-5.656632,-10.578669,-29.469999,13.93,-12.39,1729419128638.0,0.0
-4.62054,-5.826523,-9.265009,17.360001,11.69,-4.06,1729419128658.0,0.0
-5.166104,-5.989235,-4.015156,57.610001,14.42,-9.31,1729419128678.0,0.0
-5.28096,-2.67039,-3.797409,61.599998,-1.61,-17.290001,1729419128698.0,0.0
-5.4006,-5.264209,-8.980263,112.07,-27.02,5.11,1729419128718.0,0.0
-5.606383,-4.223332,-8.542377,166.180008,-5.74,11.62,1729419128738.0,0.0
-6.649654,-2.493321,-5.67099,196.419998,24.5,19.74,1729419128757.0,0.0
-7.080362,-3.323631,-6.326623,174.160004,22.540001,13.02,1729419128778.0,0.0
-6.972685,-5.831308,-8.80798,139.580002,21.629999,6.37,1729419128798.0,0.0
-6.484549,-6.963113,-9.150154,133.139999,33.18,-4.97,1729419128817.0,0.0
-6.113662,-6.331409,-8.410772,191.589996,67.620003,-11.97,1729419128838.0,0.0
-6.166305,-5.563312,-7.499106,286.440002,81.900002,1.68,1729419128857.0,0.0
-6.297909,-5.668597,-6.666404,338.799988,69.510002,20.58,1729419128878.0,0.0
-5.726025,-4.627719,-5.577669,317.450012,59.080002,15.33,1729419128900.0,0.0
-5.438886,-4.663611,-4.759324,272.860016,60.130001,7.21,1729419128918.0,0.0
-5.350351,-5.534599,-3.962514,229.669998,67.410004,1.61,1729419128938.0,0.0
-5.783452,-7.484749,-2.900101,208.880005,51.240002,-2.94,1729419128957.0,0.0
-5.788238,-8.568698,-2.617748,202.649994,22.540001,-9.31,1729419128978.0,0.0
-5.395815,-8.953942,-3.402594,216.930008,13.09,-11.27,1729419128998.0,0.0
-5.146961,-8.147561,-2.756532,240.729996,18.200001,-15.75,1729419129017.0,0.0
-5.015356,-8.839087,-1.107877,279.579987,21.91,-12.46,1729419129047.0,0.0
-4.886144,-9.322437,0.892523,284.200012,27.16,-14.49,1729419129057.0,0.0
-4.522435,-5.359922,0.916451,260.75,34.93,-9.87,1729419129077.0,0.0
-5.563312,-6.233303,3.574877,218.680008,18.76,3.43,1729419129098.0,0.0
-4.546363,-5.582455,3.108276,146.649994,-4.06,-1.19,1729419129118.0,0.0
-4.225725,-6.951149,2.146362,98.279999,-11.76,7.98,1729419129138.0,0.0
-4.534399,-8.047063,2.084148,87.639999,-9.66,3.99,1729419129157.0,0.0
-4.926822,-8.563912,2.277967,115.43,4.55,5.25,1729419129177.0,0.0
-5.493921,-8.032705,2.845066,127.400002,17.780001,-0.28,1729419129199.0,0.0
-5.910272,-7.944171,3.675375,121.379997,19.040001,-7.49,1729419129218.0,0.0
-5.9677,-8.549555,4.847858,96.599998,7.07,-21.280001,1729419129238.0,0.0
-4.936393,-6.582655,5.005785,91.139999,3.08,-28.49,1729419129258.0,0.0
-4.862216,-4.074977,4.991428,61.18,10.15,-23.309999,1729419129279.0,0.0
-4.960321,-4.45065,5.230711,-12.95,-5.39,-17.219999,1729419129299.0,0.0
-4.941179,-6.886543,3.292524,-98.209999,-21.84,-7.35,1729419129318.0,0.0
-3.921836,-9.717253,3.108276,-145.25,-27.719999,-15.26,1729419129339.0,0.0
-3.395415,-9.609575,2.062613,-176.680008,-16.870001,-13.79,1729419129358.0,0.0
-3.759124,-9.683753,1.895115,-191.380005,-17.57,-14.0,1729419129378.0,0.0
-3.617948,-9.169296,0.713061,-211.75,-17.15,-14.35,1729419129400.0,0.0
-3.74716,-8.953942,1.275374,-235.759995,-16.309999,-13.23,1729419129418.0,0.0
-4.792823,-8.99462,2.404787,-254.729996,-23.1,-8.96,1729419129439.0,0.0
-5.551349,-8.786445,1.940579,-271.670013,-40.880001,-16.940001,1729419129459.0,0.0
-5.570491,-9.054441,0.854238,-291.549988,-46.060001,-25.27,1729419129478.0,0.0
-5.118248,-7.322037,0.081356,-320.529999,-53.760002,-38.57,1729419129500.0,0.0
-5.335995,-6.740582,0.619741,-345.029999,-56.420002,-38.990002,1729419129518.0,0.0
-4.912465,-5.704489,-1.588834,-374.98999,-71.260002,-46.900002,1729419129538.0,0.0
-4.527221,-5.201996,-2.907279,-403.690002,-81.830002,-49.420002,1729419129558.0,0.0
-5.273781,-4.261617,-4.398008,-445.130005,-83.720001,-54.950001,1729419129578.0,0.0
-4.790431,-5.362316,-8.410772,-405.929993,-99.330002,-44.799999,1729419129599.0,0.0
-4.393222,-7.329216,-9.377472,-276.360016,-85.470001,-20.23,1729419129618.0,0.0
-3.23031,-6.996613,-11.184053,-155.960007,-55.299999,-0.07,1729419129639.0,0.0
-3.251846,-5.340781,-11.504691,-70.699997,-35.0,18.34,1729419129658.0,0.0
-4.029513,-3.223132,-10.925629,-64.610001,-11.27,22.68,1729419129678.0,0.0
-5.264209,-4.07737,-6.530013,-107.940002,18.9,18.690001,1729419129699.0,0.0
-5.367101,-7.094719,-5.828916,-162.050003,8.47,-3.01,1729419129718.0,0.0
-2.758924,-5.120641,-6.080163,-142.800003,-38.080002,-11.97,1729419129738.0,0.0
-3.677768,-3.407379,-8.025528,-50.049999,-34.439999,20.02,1729419129762.0,0.0
-5.642276,-4.244867,-10.083356,-6.37,0.7,26.110001,1729419129779.0,0.0
-7.156933,-5.340781,-9.726824,23.870001,20.02,28.0,1729419129799.0,0.0
-5.69731,-5.426922,-9.595219,33.880001,9.66,10.22,1729419129818.0,0.0
-4.072584,-4.151547,-8.867801,27.23,2.94,1.89,1729419129838.0,0.0
-3.792624,-5.187639,-8.413164,24.99,17.99,-2.31,1729419129858.0,0.0
-4.634897,-5.472386,-7.429714,-0.35,40.32,-14.0,1729419129879.0,0.0
-4.831109,-5.041678,-7.073184,-8.61,31.99,-23.73,1729419129898.0,0.0
-5.216353,-5.946165,-6.63769,-4.34,19.389999,-21.700001,1729419129918.0,0.0
-4.776074,-7.523034,-6.778866,28.559999,22.049999,-26.809999,1729419129938.0,0.0
-3.751946,-8.051848,-5.946165,114.309998,14.21,-15.68,1729419129958.0,0.0
-4.316652,-1.765903,-6.07777,144.690002,12.95,-11.06,1729419129978.0,0.0
-4.735396,-1.85683,-6.147161,92.400002,-4.83,-11.41,1729419130001.0,0.0
-4.627719,-3.768696,-6.838687,-14.21,-0.91,-9.87,1729419130018.0,0.0
-4.175476,-5.642276,-8.980263,-48.650002,-13.3,-12.53,1729419130040.0,0.0
-4.299902,-3.56052,-8.987441,-17.780001,-20.23,-14.63,1729419130058.0,0.0
-5.173282,-2.232504,-8.664411,27.790001,-14.91,-4.62,1729419130078.0,0.0
-4.926822,-2.651247,-8.855836,36.330002,-13.37,7.35,1729419130099.0,0.0
-5.099105,-3.830909,-8.16431,23.24,8.54,6.93,1729419130118.0,0.0
-5.264209,-4.275974,-7.62114,10.64,18.129999,3.22,1729419130138.0,0.0
-4.778467,-4.788038,-6.896115,13.51,11.13,7.98,1729419130157.0,0.0
-4.663611,-5.888737,-6.735795,19.18,0.77,10.57,1729419130180.0,0.0
-4.548756,-5.493921,-6.805188,14.28,8.82,2.31,1729419130198.0,0.0
-5.058427,-4.907679,-6.412765,34.93,14.56,12.04,1729419130217.0,0.0
-5.410172,-5.084748,-6.21416,56.77,8.75,21.280001,1729419130238.0,0.0
-5.386244,-5.570491,-5.63749,68.25,7.49,25.9,1729419130257.0,0.0
-4.788038,-5.989235,-6.348158,84.980003,2.17,20.719999,1729419130278.0,0.0
-4.290331,-6.180661,-6.60419,98.07,-4.9,17.99,1729419130299.0,0.0
-4.194618,-7.051648,-6.936793,100.519997,-5.46,19.74,1729419130317.0,0.0
-4.476971,-7.257431,-7.580462,94.919998,4.34,16.1,1729419130338.0,0.0
-4.931608,-7.508677,-6.896115,108.290001,27.23,14.77,1729419130358.0,0.0
-5.079963,-7.750352,-5.52742,128.169998,31.639999,12.53,1729419130378.0,0.0
-4.977071,-7.152147,-5.702096,156.660004,14.77,10.5,1729419130399.0,0.0
-5.166104,-7.362715,-4.850252,182.979996,18.41,21.210001,1729419130418.0,0.0
-5.139783,-8.451449,-4.910072,193.830002,16.17,19.950001,1729419130438.0,0.0
-5.326423,-9.10469,-3.833302,219.869995,13.51,18.690001,1729419130457.0,0.0
-5.173282,-7.369894,-2.938386,252.699997,15.47,13.16,1729419130478.0,0.0
-5.596812,-8.559127,-1.962115,262.429993,24.57,15.75,1729419130500.0,0.0
-5.759524,-10.4016,-1.464408,258.299988,14.63,3.71,1729419130518.0,0.0
-4.766503,-8.51127,-0.68674,242.339996,20.93,-10.01,1729419130538.0,0.0
-5.371887,-6.628119,0.055035,168.419998,33.040001,-11.27,1729419130558.0,0.0
-5.525027,-7.659425,-0.579063,62.299999,10.29,-18.41,1729419130578.0,0.0
-4.809574,-9.41815,-0.39003,-27.719999,-15.61,-29.190001,1729419130608.0,0.0
-3.924229,-9.552148,0.143569,-71.959999,-21.91,-33.32,1729419130617.0,0.0
-3.783052,-8.181061,1.457229,-120.470001,-11.62,-35.349998,1729419130638.0,0.0
-3.924229,-3.993621,1.971686,-204.539993,-13.86,-42.630001,1729419130657.0,0.0
-4.342973,-2.9671,-0.617348,-294.279999,-37.240002,-30.799999,1729419130678.0,0.0
-3.771089,-5.041678,-4.759324,-381.429993,-59.639999,-34.93,1729419130698.0,0.0
-3.148954,-5.175675,-6.4343,-411.670013,-62.510002,-36.259998,1729419130718.0,0.0
-3.519842,-5.539384,-7.281359,-356.929993,-47.389999,-13.16,1729419130738.0,0.0
-4.216154,-5.192425,-10.858629,-262.98999,-49.560001,-3.15,1729419130816.0,0.0
-4.723432,-5.182854,-9.49472,-207.270004,-51.240002,5.04,1729419130817.0,0.0
-5.630312,-4.728218,-6.269196,-160.720001,-37.52,19.67,1729419130817.0,0.0
-6.403193,-3.529413,-6.778866,-162.539993,-54.950001,14.84,1729419130823.0,0.0
-6.238089,-4.015156,-7.69771,-164.289993,-66.779999,9.24,1729419130840.0,0.0
-5.723632,-5.240282,-7.652246,-172.479996,-67.059998,9.24,1729419130858.0,0.0
-5.575277,-6.427122,-8.429914,-134.75,-50.959999,3.15,1729419130878.0,0.0
-5.572884,-5.072784,-9.49472,-89.599998,-45.009998,-1.68,1729419130899.0,0.0
-5.699703,-3.455236,-9.669396,-34.790001,-35.630001,7.35,1729419130917.0,0.0
-5.443672,-2.828316,-9.068797,-22.960001,-26.25,19.18,1729419130938.0,0.0
-5.008178,-3.156133,-9.84168,-39.689999,-13.16,17.710001,1729419130958.0,0.0
-5.386244,-3.512664,-9.169296,-49.700001,2.17,12.88,1729419130978.0,0.0
-6.063413,-4.252046,-6.896115,-53.41,3.85,5.6,1729419131000.0,0.0
-5.912664,-5.132604,-7.501499,-71.610001,-0.14,-7.35,1729419131017.0,0.0
-5.103891,-5.228317,-8.695518,-69.93,-3.57,-10.22,1729419131041.0,0.0
-5.13739,-5.259424,-7.9681,-36.049999,6.58,-4.2,1729419131057.0,0.0
-6.039484,-3.366701,-6.656832,-15.12,15.54,-4.27,1729419131085.0,0.0
-6.235696,-3.460021,-7.133004,4.83,17.85,-0.84,1729419131098.0,0.0
-5.814559,-3.536592,-8.161918,33.18,18.34,6.51,1729419131117.0,0.0
-6.013163,-4.61097,-8.549555,56.630001,29.33,12.67,1729419131139.0,0.0
-5.783452,-4.333402,-7.310073,41.299999,31.15,1.68,1729419131157.0,0.0
-5.417351,-2.620141,-8.587841,17.360001,28.49,-5.53,1729419131178.0,0.0
-4.699504,-2.65364,-9.856036,34.650002,24.710001,-0.28,1729419131198.0,0.0
-4.575077,-5.005785,-11.016556,72.099998,28.139999,13.02,1729419131217.0,0.0
-4.024727,-5.728417,-3.448057,67.199997,19.110001,-2.87,1729419131238.0,0.0
-4.572684,-1.567299,-2.467,21.98,14.07,-14.07,1729419131257.0,0.0
-5.225924,-5.551349,-8.334201,46.619999,-12.95,-9.38,1729419131278.0,0.0
-5.455636,-6.9344,-8.733803,91.349998,6.3,-6.44,1729419131298.0,0.0
-5.946165,-4.603791,-7.164111,138.110001,21.91,5.95,1729419131318.0,0.0
-6.238089,-3.907479,-5.996413,150.639999,12.67,7.7,1729419131337.0,0.0
-5.419744,-4.84068,-8.030313,132.229996,8.68,1.75,1729419131357.0,0.0
-5.235496,-5.936593,-9.75793,139.789993,11.62,6.16,1729419131377.0,0.0
-5.206782,-6.453443,-10.250853,184.029999,38.990002,2.87,1729419131398.0,0.0
-5.233103,-5.106283,-6.477371,249.479996,79.099998,0.56,1729419131417.0,0.0
-5.422136,-5.627919,-5.99402,295.75,56.700001,16.59,1729419131438.0,0.0
-4.029513,-5.223531,-5.972485,246.119995,26.74,5.67,1729419131457.0,0.0
-3.656233,-6.388836,-5.716454,208.669998,56.420002,3.78,1729419131478.0,0.0
-4.465007,-8.240881,-4.058227,197.119995,89.879997,-4.06,1729419131509.0,0.0
-5.091926,-9.123833,-4.04387,228.130005,66.220001,-8.54,1729419131518.0,0.0
-4.807181,-8.573483,-3.744767,270.269989,29.4,3.92,1729419131537.0,0.0
-4.39083,-7.52782,-3.24706,289.380005,22.469999,4.27,1729419131557.0,0.0
-4.811966,-8.561519,-2.230111,299.670013,29.049999,1.33,1729419131577.0,0.0
-4.62054,-11.54537,-1.572084,325.920013,11.69,-19.67,1729419131608.0,0.0
-3.414558,-9.516255,-0.973879,356.860016,30.1,-36.400002,1729419131617.0,0.0
-4.474578,-4.613362,-0.550349,378.350006,87.919998,-15.33,1729419131637.0,0.0
-6.273981,-3.165704,2.749353,371.420013,77.840004,6.51,1729419131657.0,0.0
-6.630512,-3.067599,5.575277,290.429993,52.849998,3.57,1729419131677.0,0.0
-4.400401,-6.063413,4.520042,187.180008,6.23,-13.3,1729419131709.0,0.0
-4.534399,-8.879765,3.61077,124.529999,9.24,-21.629999,1729419131717.0,0.0
-3.680161,-7.482357,4.515256,136.779999,10.92,-13.02,1729419131737.0,0.0
-3.768696,-6.30748,5.742774,155.610001,36.959999,5.32,1729419131757.0,0.0
-4.668397,-6.735795,5.321638,65.730003,15.33,-15.4,1729419131778.0,0.0
-4.618148,-7.288538,5.268995,44.59,13.79,-6.58,1729419131802.0,0.0
-3.242275,-6.240481,5.414958,24.639999,13.51,-12.25,1729419131817.0,0.0
-3.816552,-6.4343,6.089733,-11.97,6.51,-8.75,1729419131838.0,0.0
-4.144369,-6.659225,4.761717,-61.810001,-4.9,-11.48,1729419131858.0,0.0
-4.591826,-8.379664,3.239882,-111.020004,-12.11,-14.77,1729419131878.0,0.0
-4.252046,-8.752945,3.172883,-145.809998,-15.89,-19.460001,1729419131899.0,0.0
-4.225725,-8.480164,3.720839,-143.430008,-10.01,-9.38,1729419131917.0,0.0
-4.603791,-8.410772,3.275774,-146.509995,-14.35,-7.77,1729419131938.0,0.0
-4.352544,-7.865208,2.500499,-178.009995,-21.77,-7.35,1729419131958.0,0.0
-3.706482,-7.401,1.952543,-216.930008,-28.91,-3.78,1729419131978.0,0.0
-4.065405,-8.293523,2.572284,-251.089996,-32.27,-1.68,1729419131998.0,0.0
-5.309673,-9.348758,2.385644,-273.839996,-35.349998,-4.83,1729419132018.0,0.0
-4.603791,-9.131011,-1.284946,-271.040009,-40.18,-13.02,1729419132040.0,0.0
-3.565305,-8.970692,-0.550349,-247.800003,-32.34,-10.64,1729419132056.0,0.0
-4.76411,-9.269794,0.270389,-241.290009,-16.799999,-11.69,1729419132077.0,0.0
-4.797609,-9.958927,-0.801596,-266.559998,-23.870001,-23.52,1729419132098.0,0.0
-3.936193,-9.516255,-1.215554,-306.73999,-40.529999,-38.43,1729419132116.0,0.0
-3.65384,-8.353344,-1.57687,-344.399994,-38.360001,-53.900002,1729419132138.0,0.0
-4.146761,-7.563712,-2.06022,-383.600006,-33.18,-67.970001,1729419132158.0,0.0
-4.807181,-4.118048,-4.319045,-440.299988,-51.170002,-88.900002,1729419132178.0,0.0
-4.285545,-3.95055,-4.941179,-421.820007,-98.559998,-76.160004,1729419132198.0,0.0
-2.935993,-7.9346,-5.443672,-349.230011,-120.190002,-44.52,1729419132216.0,0.0
-2.656033,-6.884151,-6.396015,-256.339996,-103.110001,-31.99,1729419132237.0,0.0
-3.680161,-1.689333,-7.867601,-196.699997,-82.040001,-19.32,1729419132257.0,0.0
-4.563113,-0.299103,-11.650653,-182.559998,-73.220001,-0.35,1729419132278.0,0.0
-4.409972,-4.323831,-13.390236,-154.139999,-53.130001,14.84,1729419132297.0,0.0
-3.524628,-6.336195,-12.205789,-100.449997,-33.32,18.620001,1729419132318.0,0.0
-3.395415,-5.417351,-9.607183,-38.220001,-13.79,6.93,1729419132338.0,0.0
-4.055835,-4.010371,-7.334002,-11.34,-7.28,-2.52,1729419132358.0,0.0
-4.388437,-3.54377,-7.707282,-21.700001,-25.41,-4.9,1729419132378.0,0.0
-4.304688,-4.158726,-8.420342,-38.639999,-30.73,-2.03,1729419132398.0,0.0
-4.989035,-3.735196,-7.951349,-43.119999,-16.309999,4.9,1729419132416.0,0.0
-4.948357,-4.103691,-8.626125,-4.69,-15.190001,14.28,1729419132437.0,0.0
-4.680361,-3.696911,-9.056834,38.290001,-14.84,22.540001,1729419132457.0,0.0
-4.905287,-3.996014,-8.695518,56.07,-0.98,21.91,1729419132477.0,0.0
-5.532206,-4.993821,-10.332209,54.880001,12.53,6.79,1729419132497.0,0.0
-5.888737,-3.68734,-8.477771,28.700001,26.950001,-6.3,1729419132517.0,0.0
-5.907879,-3.811767,-7.300502,22.4,35.700001,-10.85,1729419132537.0,0.0
-5.419744,-4.460221,-5.998806,17.15,12.67,-13.86,1729419132557.0,0.0
-5.034499,-4.821537,-8.518449,20.16,2.31,-24.08,1729419132577.0,0.0
-4.62054,-4.953143,-8.760124,14.0,1.33,-35.279999,1729419132598.0,0.0
-4.388437,-3.354738,-8.343772,14.84,19.530001,-42.0,1729419132616.0,0.0
-4.108476,-3.359523,-8.949157,30.940001,6.86,-35.420002,1729419132637.0,0.0
-4.041477,-3.823731,-8.504091,34.720001,5.67,-31.85,1729419132656.0,0.0
-4.335794,-4.685147,-8.365308,18.9,12.95,-35.349998,1729419132677.0,0.0
-4.345366,-4.555934,-8.059027,8.96,16.24,-40.110001,1729419132698.0,0.0
-3.56052,-3.194418,-7.113862,18.27,9.45,-33.670002,1729419132716.0,0.0
-4.31426,-4.110869,-6.252446,45.990002,9.66,-10.22,1729419132737.0,0.0
-3.409772,-4.089334,-6.977471,26.110001,-1.33,-16.17,1729419132756.0,0.0
-3.996014,-3.60359,-7.738388,49.279999,2.38,6.23,1729419132776.0,0.0
-4.819145,-2.029114,-7.970492,44.310001,0.98,3.64,1729419132797.0,0.0
-5.075177,-3.342773,-8.970692,20.23,0.7,9.8,1729419132820.0,0.0
-4.127619,-5.350351,-8.961121,3.08,-13.16,2.45,1729419132837.0,0.0
-3.680161,-4.936393,-7.872386,8.54,-10.5,-5.11,1729419132858.0,0.0
-4.019942,-3.790231,-6.955935,29.889999,-4.48,-4.69,1729419132877.0,0.0
-4.941179,-4.697111,-6.826723,45.360001,5.46,-4.69,1729419132898.0,0.0
-5.187639,-5.479564,-7.73121,58.170002,0.21,1.96,1729419132916.0,0.0
-4.938786,-6.240481,-8.130811,79.029999,-6.65,2.03,1729419132937.0,0.0
-5.352744,-6.716653,-6.293124,79.940002,5.74,-1.61,1729419132956.0,0.0
-6.005985,-7.381857,-7.427321,82.040001,22.82,-7.28,1729419132976.0,0.0
-4.718646,-6.54437,-7.420143,115.010002,16.379999,-3.85,1729419132997.0,0.0
-3.158526,-5.649454,-6.786045,130.130005,8.33,7.77,1729419133017.0,0.0
-3.9338,-6.017949,-6.65444,103.669998,29.610001,11.27,1729419133041.0,0.0
-5.187639,-7.283752,-7.233503,81.760002,50.540001,6.51,1729419133058.0,0.0
-4.299902,-7.077969,-6.994221,94.290001,40.040001,5.95,1729419133077.0,0.0
-3.031706,-5.982057,-6.113662,108.360001,30.24,10.71,1729419133099.0,0.0
-4.051049,-6.599405,-5.319244,77.699997,56.700001,5.74,1729419133116.0,0.0
-4.460221,-7.432107,-4.529613,61.880001,48.369999,2.31,1729419133137.0,0.0
-3.823731,-8.26481,-3.833302,80.639999,31.92,-1.05,1729419133157.0,0.0
-3.022135,-7.180861,-3.672983,118.860001,25.200001,2.17,1729419133178.0,0.0
-3.182454,-6.101698,-3.002992,150.009995,21.700001,12.18,1729419133197.0,0.0
