acc_x,acc_y,acc_z,gyr_x,gyr_y,gyr_z,timestamp,label
-4.725825,-6.616155,-6.163911,-61.740002,-6.3,-29.75,1729475109733.0,0.0
-2.689533,-7.62114,-5.979663,-52.990002,-14.56,-31.92,1729475109733.0,0.0
-2.330609,-7.245467,-5.17089,7.0,12.74,-33.950001,1729475109737.0,0.0
-2.830709,-5.599205,-4.335794,55.790001,31.360001,-33.25,1729475109739.0,0.0
-2.739782,-4.910072,-3.84048,44.799999,24.639999,-18.620001,1729475109748.0,0.0
-1.919044,-6.266802,-3.991228,0.28,5.67,0.28,1729475109768.0,0.0
-0.933201,-8.145168,-4.601398,-36.68,-3.78,12.81,1729475109788.0,0.0
-0.662812,-8.717053,-4.744967,-21.49,-4.62,21.280001,1729475109808.0,0.0
-0.5001,-8.669197,-4.723432,3.5,-7.28,18.620001,1729475109828.0,0.0
-0.318245,-8.449057,-4.852644,18.059999,-19.110001,14.07,1729475109847.0,0.0
-0.155533,-8.233703,-5.596812,10.92,-30.66,6.93,1729475109868.0,0.0
-0.009571,-8.152347,-6.281159,-3.36,-39.830002,2.38,1729475109891.0,0.0
0.100499,-8.30788,-6.589834,-13.51,-41.860001,1.96,1729475109908.0,0.0
-0.334995,-8.575876,-6.537192,-15.96,-34.439999,4.06,1729475109927.0,0.0
-0.976272,-8.73141,-6.431907,-15.33,-25.76,4.34,1729475109947.0,0.0
-1.22034,-8.394022,-6.494121,-19.110001,-27.370001,1.54,1729475109967.0,0.0
-1.172483,-8.025528,-7.185646,-29.68,-28.98,-2.31,1729475109988.0,0.0
-1.26341,-8.059027,-7.601997,-41.299999,-22.120001,-5.32,1729475110009.0,0.0
-1.45005,-8.475377,-7.367501,-39.34,-10.57,-5.46,1729475110027.0,0.0
-1.423729,-8.453842,-7.123433,-19.389999,-6.86,-5.46,1729475110048.0,0.0
-1.055235,-7.877172,-6.74776,-0.49,-5.46,-6.51,1729475110068.0,0.0
-0.847059,-7.322037,-6.640083,-8.61,-3.64,-10.01,1729475110088.0,0.0
-1.064806,-7.200003,-6.601797,-32.900002,3.92,-14.21,1729475110108.0,0.0
-0.981057,-7.123433,-6.513263,-56.77,5.53,-16.24,1729475110128.0,0.0
-0.734596,-7.109076,-6.79083,-70.07,1.19,-15.12,1729475110147.0,0.0
-0.861416,-7.075576,-7.06122,-61.880001,3.43,-13.72,1729475110167.0,0.0
-1.081556,-6.721439,-7.549356,-47.950001,4.2,-12.46,1729475110188.0,0.0
-0.988236,-6.405586,-8.044669,-34.02,4.06,-9.73,1729475110210.0,0.0
-0.859023,-6.324231,-7.958528,-24.360001,5.25,-5.18,1729475110228.0,0.0
-1.086342,-6.582655,-7.786245,-22.26,12.74,-2.87,1729475110249.0,0.0
-1.440479,-6.463014,-7.819745,-29.4,17.710001,-4.41,1729475110267.0,0.0
-1.433301,-6.455836,-7.77428,-42.07,17.92,-6.72,1729475110289.0,0.0
-0.904487,-6.489335,-8.140383,-51.52,13.79,-7.7,1729475110310.0,0.0
-0.425922,-6.314659,-8.152347,-52.220001,13.37,-7.84,1729475110329.0,0.0
-0.55992,-6.135197,-7.625926,-49.0,22.960001,-9.87,1729475110348.0,0.0
-0.945165,-6.786045,-7.767102,-45.290001,25.129999,-10.22,1729475110368.0,0.0
-0.693919,-7.389036,-8.049455,-36.889999,14.77,-10.57,1729475110389.0,0.0
-0.437887,-7.113862,-8.188239,-24.780001,13.09,-12.25,1729475110410.0,0.0
-0.612563,-6.570691,-7.932207,-16.73,18.690001,-13.93,1729475110429.0,0.0
-0.923629,-6.936793,-7.613962,-23.450001,18.620001,-11.83,1729475110447.0,0.0
-0.138784,-7.013363,-7.360322,-28.559999,9.38,-9.17,1729475110467.0,0.0
0.148355,-6.829116,-7.733603,-15.82,2.52,-7.91,1729475110489.0,0.0
-0.12682,-6.546762,-7.9346,-19.67,6.86,-8.61,1729475110510.0,0.0
-0.184247,-6.439085,-8.142776,-28.280001,6.23,-9.94,1729475110526.0,0.0
0.150748,-6.218946,-8.255238,-26.6,2.1,-10.71,1729475110554.0,0.0
0.318245,-5.850451,-8.16431,-12.25,2.17,-10.36,1729475110569.0,0.0
0.021535,-5.862415,-8.245667,1.26,5.81,-8.47,1729475110589.0,0.0
-0.086142,-5.678168,-8.240881,1.12,7.28,-9.52,1729475110612.0,0.0
0.179462,-5.321638,-8.585447,-11.97,4.48,-12.53,1729475110628.0,0.0
0.059821,-5.065606,-8.580662,-30.940001,6.86,-13.58,1729475110650.0,0.0
-0.179462,-5.24746,-8.915657,-45.220001,10.36,-13.93,1729475110669.0,0.0
0.442672,-5.187639,-8.963513,-40.670002,5.46,-13.58,1729475110690.0,0.0
0.825524,-5.175675,-8.803195,-17.57,3.92,-10.57,1729475110711.0,0.0
0.308674,-5.35753,-8.099705,-0.21,12.46,-8.96,1729475110728.0,0.0
-0.066999,-5.158926,-7.798209,7.63,12.18,-9.66,1729475110748.0,0.0
0.026321,-4.689932,-8.551948,-3.15,-1.26,-10.85,1729475110770.0,0.0
-0.002393,-4.649254,-8.88455,-15.12,-2.24,-8.33,1729475110791.0,0.0
-0.062213,-4.725825,-8.638089,-13.51,-0.07,-3.64,1729475110811.0,0.0
-0.366102,-5.022535,-8.640482,1.54,0.84,1.12,1729475110828.0,0.0
-0.385244,-4.831109,-8.769694,15.26,1.19,2.52,1729475110848.0,0.0
-0.411566,-4.59422,-8.743374,16.870001,1.61,2.52,1729475110870.0,0.0
-0.734596,-4.491328,-8.752945,-0.35,5.67,1.26,1729475110892.0,0.0
-1.009771,-4.957928,-8.772088,-23.309999,7.14,0.84,1729475110911.0,0.0
-0.468993,-5.673382,-8.755339,-27.23,2.87,2.31,1729475110930.0,0.0
0.019143,-5.869594,-8.516055,-6.09,4.9,3.85,1729475110949.0,0.0
0.095713,-5.225924,-7.846066,19.389999,11.34,3.5,1729475110970.0,0.0
-0.385244,-4.244867,-6.608976,22.26,14.56,4.55,1729475110990.0,0.0
-0.100499,-5.144568,-7.338787,12.25,3.71,7.7,1729475111010.0,0.0
0.349352,-5.182854,-8.087741,-2.03,-5.53,7.21,1729475111029.0,0.0
0.299103,-5.4006,-8.30788,2.1,-4.06,8.68,1729475111050.0,0.0
0.401994,-4.989035,-8.295916,-1.75,-7.28,4.48,1729475111069.0,0.0
0.260818,-4.709075,-8.685946,-3.57,-8.68,5.04,1729475111090.0,0.0
0.157926,-4.828716,-9.12144,-4.76,-8.75,6.58,1729475111111.0,0.0
0.117248,-4.876573,-9.327222,-8.82,-7.0,5.18,1729475111129.0,0.0
-0.150748,-4.905287,-9.099905,-18.83,-0.7,2.52,1729475111150.0,0.0
-0.270389,-5.570491,-8.834301,-30.24,-1.47,-1.4,1729475111169.0,0.0
-0.198604,-6.302694,-8.88455,-30.799999,-3.64,-6.09,1729475111190.0,0.0
-0.212961,-5.910272,-8.9348,-18.41,-2.8,-10.71,1729475111211.0,0.0
-0.334995,-5.158926,-9.035298,-12.6,-0.28,-11.69,1729475111230.0,0.0
-0.425922,-5.000999,-9.425328,-15.47,0.42,-9.59,1729475111250.0,0.0
-0.464208,-5.268995,-8.982656,-12.25,2.73,-6.44,1729475111273.0,0.0
-0.595813,-5.156533,-8.585447,-4.76,5.6,-5.53,1729475111290.0,0.0
-0.514457,-4.893322,-8.362915,-0.7,4.41,-4.13,1729475111310.0,0.0
-0.404387,-4.831109,-8.563912,3.15,2.45,-1.96,1729475111329.0,0.0
-0.272782,-4.728218,-8.592626,7.77,1.68,-0.91,1729475111349.0,0.0
-0.143569,-4.512863,-8.587841,6.09,1.05,-1.19,1729475111369.0,0.0
-0.234497,-4.766503,-8.707481,-5.81,1.12,-1.4,1729475111391.0,0.0
-0.189033,-4.871787,-8.894121,-12.67,-4.55,-3.08,1729475111410.0,0.0
-0.193819,-4.737789,-9.095119,-2.38,-3.92,-3.36,1729475111429.0,0.0
-0.461815,-4.481757,-9.236296,0.91,-2.52,-2.94,1729475111451.0,0.0
-0.803988,-4.694718,-9.08794,-7.21,0.07,-2.31,1729475111469.0,0.0
-1.024128,-5.206782,-9.193225,-14.0,0.84,-2.66,1729475111490.0,0.0
-1.074377,-5.371887,-9.19801,-11.27,0.63,-3.5,1729475111511.0,0.0
-1.086342,-5.352744,-9.186047,1.61,0.35,-2.73,1729475111529.0,0.0
-1.284946,-5.094319,-8.906086,10.36,4.76,-1.54,1729475111550.0,0.0
-1.543371,-5.041678,-8.764909,11.83,7.98,-0.07,1729475111571.0,0.0
-1.29691,-5.034499,-8.52802,12.88,5.88,1.75,1729475111590.0,0.0
-1.004985,-5.194818,-8.84148,12.04,1.33,2.87,1729475111612.0,0.0
-1.198804,-5.393422,-8.829515,11.48,5.11,2.45,1729475111629.0,0.0
-1.531406,-5.295317,-8.477771,13.79,12.88,-0.07,1729475111650.0,0.0
-1.29691,-5.187639,-8.288737,14.77,8.47,-0.91,1729475111670.0,0.0
-0.825524,-5.340781,-8.523234,12.11,-1.68,0.63,1729475111690.0,0.0
-0.957129,-5.455636,-8.573483,10.08,3.01,0.21,1729475111712.0,0.0
-0.76331,-5.211568,-8.721838,15.89,1.75,-1.89,1729475111728.0,0.0
-0.691526,-5.230711,-8.79123,8.12,-2.59,-1.96,1729475111750.0,0.0
-1.433301,-5.257031,-8.595018,-8.26,8.75,-5.46,1729475111769.0,0.0
-1.718047,-5.302495,-8.472985,-12.32,12.6,-7.98,1729475111790.0,0.0
-0.957129,-5.180461,-8.669197,-3.15,-2.38,-8.61,1729475111810.0,0.0
-0.366102,-5.237889,-9.284152,10.15,-10.01,-7.35,1729475111828.0,0.0
-0.978664,-4.969893,-9.468399,19.67,1.82,-10.5,1729475111849.0,0.0
-1.85683,-4.326223,-8.999406,19.809999,13.72,-11.97,1729475111869.0,0.0
-2.529213,-4.09412,-8.504091,5.11,20.23,-10.15,1729475111896.0,0.0
-2.251646,-4.304688,-8.516055,-10.71,10.36,-10.08,1729475111910.0,0.0
-0.973879,-4.862216,-8.987441,-14.07,-11.69,-6.72,1729475111929.0,0.0
-0.291924,-4.878965,-9.430114,-6.72,-20.02,-5.67,1729475111950.0,0.0
-0.969093,-4.37408,-8.733803,2.52,-2.66,-8.26,1729475111969.0,0.0
-1.825724,-4.237689,-8.02792,8.61,4.76,-9.73,1729475111991.0,0.0
-1.801795,-4.491328,-8.29113,5.88,-11.13,-11.76,1729475112012.0,0.0
-0.985843,-4.962714,-8.427521,-3.85,-28.91,-14.7,1729475112028.0,0.0
-0.339781,-5.015356,-8.279166,-10.71,-34.790001,-17.92,1729475112049.0,0.0
-0.748954,-4.706682,-7.941778,-5.6,-29.26,-23.799999,1729475112069.0,0.0
-0.61017,-4.740182,-7.865208,-0.35,-37.380001,-26.32,1729475112090.0,0.0
0.270389,-5.309673,-8.10449,1.54,-60.41,-27.299999,1729475112110.0,0.0
0.531207,-5.809773,-8.781659,7.63,-65.940002,-29.120001,1729475112129.0,0.0
0.074178,-5.099105,-8.949157,2.24,-54.670002,-39.200001,1729475112149.0,0.0
-0.122034,-4.48415,-8.812766,-16.73,-46.689999,-45.779999,1729475112169.0,0.0
0.789631,-4.524827,-9.262616,-31.639999,-64.190002,-49.07,1729475112189.0,0.0
1.478764,-4.668397,-9.317651,-29.960001,-66.57,-49.630001,1729475112211.0,0.0
1.138984,-4.589434,-9.377472,-15.68,-50.959999,-50.82,1729475112229.0,0.0
0.552742,-4.189832,-8.973085,-2.31,-40.810001,-49.700001,1729475112249.0,0.0
0.583849,-4.436293,-8.520842,-9.94,-40.740002,-46.900002,1729475112270.0,0.0
0.9667,-5.907879,-8.733803,-31.15,-47.950001,-45.290001,1729475112291.0,0.0
1.031307,-6.989435,-8.233703,-24.15,-38.080002,-47.950001,1729475112311.0,0.0
0.68674,-6.766902,-8.267202,3.43,-32.34,-53.41,1729475112328.0,0.0
0.624527,-5.635098,-8.01117,32.970001,-29.75,-54.040001,1729475112350.0,0.0
0.854238,-4.26401,-7.963314,38.43,-37.59,-46.900002,1729475112370.0,0.0
0.842274,-3.555735,-8.642875,-4.06,-35.490002,-37.240002,1729475112391.0,0.0
0.61017,-5.168497,-9.317651,-68.25,-20.719999,-19.950001,1729475112410.0,0.0
0.598206,-6.333801,-8.901299,-58.52,-13.72,-13.440001,1729475112428.0,0.0
0.198604,-6.489335,-8.01117,-20.51,-6.23,-10.29,1729475112450.0,0.0
-0.184247,-6.12084,-7.613962,18.059999,-7.0,-10.78,1729475112469.0,0.0
-0.535992,-4.867002,-8.106883,39.619999,-12.18,-9.31,1729475112489.0,0.0
-0.619741,-3.278167,-8.980263,31.15,-13.51,-4.13,1729475112509.0,0.0
-0.229711,-2.251646,-9.073583,-7.91,-11.9,6.23,1729475112529.0,0.0
-0.045464,-2.938386,-8.590233,-53.760002,-3.08,18.690001,1729475112549.0,0.0
-0.787239,-4.85743,-9.188439,-80.010002,6.65,28.630001,1729475112570.0,0.0
-1.17009,-5.663811,-10.040283,-61.110001,7.35,26.530001,1729475112597.0,0.0
-1.174876,-4.414758,-9.930215,-10.78,6.65,24.15,1729475112611.0,0.0
-1.107877,-2.821138,-9.97807,10.57,9.66,21.91,1729475112628.0,0.0
-1.107877,-2.684747,-9.74836,-6.51,6.3,20.719999,1729475112651.0,0.0
-1.0002,-3.361916,-11.021341,-50.82,-2.45,16.66,1729475112669.0,0.0
-0.392423,-5.13739,-11.595619,-75.389999,-4.48,12.32,1729475112691.0,0.0
-0.117248,-4.917251,-11.24866,-26.32,10.08,2.52,1729475112711.0,0.0
-0.428315,-3.254239,-10.49492,27.51,20.299999,0.14,1729475112729.0,0.0
-1.131805,-2.459821,-10.078569,23.66,30.66,-1.82,1729475112750.0,0.0
-0.90688,-3.309274,-10.159925,-13.72,27.860001,-5.74,1729475112770.0,0.0
0.174676,-3.89073,-9.200402,-21.84,11.34,-11.41,1729475112790.0,0.0
0.337388,-4.010371,-9.123833,-1.12,21.07,-17.639999,1729475112810.0,0.0
0.416351,-3.797409,-9.52822,21.280001,21.84,-25.34,1729475112830.0,0.0
0.22014,-1.89033,-8.863015,47.670002,23.450001,-20.58,1729475112850.0,0.0
-0.490529,1.48355,-7.946564,18.620001,27.370001,-12.67,1729475112871.0,0.0
-1.040878,2.301895,-7.635497,-14.98,26.74,10.57,1729475112892.0,0.0
-0.349352,-1.064806,-9.150154,-39.27,-4.97,25.200001,1729475112912.0,0.0
-0.880559,-3.163311,-8.745767,-43.75,3.01,36.68,1729475112930.0,0.0
-2.344966,-4.54397,-10.387242,-42.139999,12.04,22.610001,1729475112951.0,0.0
-2.299503,-3.866802,-12.863814,-55.510002,7.84,3.08,1729475112971.0,0.0
-1.533799,-3.696911,-11.303694,-49.630001,12.67,3.92,1729475112991.0,0.0
-0.851845,-5.12782,-9.444471,-43.959999,21.91,-2.38,1729475113013.0,0.0
-0.512064,-6.173482,-9.013763,4.9,18.549999,-1.26,1729475113030.0,0.0
-0.504886,-6.398407,-9.633504,52.290001,5.18,-11.97,1729475113051.0,0.0
-1.024128,-4.957928,-9.521042,51.799999,17.15,-29.540001,1729475113071.0,0.0
-1.033699,-3.742374,-10.301102,19.530001,17.92,-39.34,1729475113091.0,0.0
-0.291924,-2.957529,-8.764909,7.21,4.55,-38.779999,1729475113113.0,0.0
-0.902094,-3.321238,-8.456236,10.5,15.89,-31.85,1729475113132.0,0.0
-1.476372,-3.24706,-8.980263,1.05,14.98,-32.619999,1729475113151.0,0.0
-1.29691,-1.648655,-8.906086,-4.2,9.24,-26.389999,1729475113171.0,0.0
-0.72024,0.339781,-8.439486,-4.76,5.74,-11.97,1729475113192.0,0.0
0.650848,-0.318245,-9.288938,-20.51,-8.19,1.47,1729475113213.0,0.0
1.31366,-0.976272,-9.322437,-42.91,-7.56,10.99,1729475113231.0,0.0
1.337588,-1.404587,-10.657632,-27.51,-2.8,21.35,1729475113252.0,0.0
1.198804,-1.859223,-11.353944,-32.41,3.15,24.710001,1729475113271.0,0.0
-1.945365,-3.608376,-12.076575,-46.060001,26.74,29.469999,1729475113292.0,0.0
-1.749153,-4.103691,-10.801201,-32.130001,23.1,27.58,1729475113317.0,0.0
-1.569692,-5.146961,-8.109276,7.84,14.56,30.380001,1729475113331.0,0.0
-1.244268,-5.910272,-8.487342,16.1,7.63,13.440001,1729475113350.0,0.0
-1.404587,-7.23111,-10.650455,61.810001,-3.64,2.87,1729475113371.0,0.0
-1.529014,-5.285746,-11.373087,80.989998,1.05,-13.51,1729475113392.0,0.0
-1.083949,-3.096312,-9.19801,55.299999,1.82,-24.15,1729475113413.0,0.0
-0.801596,-2.938386,-8.992228,17.43,-7.49,-25.48,1729475113431.0,0.0
-0.272782,-3.56052,-9.360723,-6.93,-6.3,-24.15,1729475113451.0,0.0
-0.057428,-2.299503,-9.35833,-2.52,-1.68,-14.84,1729475113471.0,0.0
-0.344566,0.040678,-8.365308,0.91,9.31,-1.33,1729475113492.0,0.0
-0.198604,-0.143569,-9.114261,-4.06,3.22,15.61,1729475113513.0,0.0
0.835095,-0.971486,-8.676375,-22.889999,-10.36,23.73,1729475113531.0,0.0
1.854438,-1.986043,-10.576276,-24.360001,-14.77,25.76,1729475113551.0,0.0
1.502693,-2.660819,-9.767502,-17.99,-4.41,24.01,1729475113572.0,0.0
-0.064606,-3.622734,-9.305687,-22.4,9.59,15.82,1729475113592.0,0.0
-1.299303,-3.68734,-9.480364,-38.5,12.46,5.67,1729475113613.0,0.0
-2.462214,-4.003192,-11.167303,-33.670002,24.5,5.67,1729475113631.0,0.0
-1.088734,-3.988836,-9.413363,5.53,7.84,10.78,1729475113651.0,0.0
-0.021535,-4.9675,-8.286345,17.360001,-0.98,8.89,1729475113672.0,0.0
-0.227318,-6.195018,-8.9683,33.529999,-0.28,3.29,1729475113691.0,0.0
-0.782453,-5.297709,-9.894321,69.160004,0.91,-5.46,1729475113712.0,0.0
-0.892523,-3.07717,-9.51147,71.540001,3.29,-11.69,1729475113731.0,0.0
-0.315853,-2.76371,-8.757731,27.58,-3.36,-12.25,1729475113751.0,0.0
-0.069392,-3.952943,-8.437093,-14.0,-5.53,-13.51,1729475113772.0,0.0
-0.102891,-4.469792,-8.475377,-16.030001,-5.32,-20.51,1729475113792.0,0.0
-0.234497,-2.758924,-8.932407,-2.45,-7.98,-26.18,1729475113813.0,0.0
-0.337388,-0.636491,-9.186047,-18.27,-8.61,-26.389999,1729475113831.0,0.0
-0.236889,-0.265603,-9.576077,-40.040001,-10.08,-14.49,1729475113852.0,0.0
0.557528,-1.395016,-10.317852,-57.049999,-16.24,-3.85,1729475113871.0,0.0
1.033699,-2.529213,-10.143176,-56.139999,-12.11,2.38,1729475113894.0,0.0
0.772882,-2.976671,-9.135797,-0.91,-8.05,12.04,1729475113911.0,0.0
0.083749,-2.234896,-9.640682,26.74,6.37,11.97,1729475113931.0,0.0
-0.514457,-1.852045,-11.143374,-1.47,7.28,12.74,1729475113950.0,0.0
-1.665405,-3.766303,-10.497313,-51.380001,14.63,12.53,1729475113971.0,0.0
-1.043271,-4.26401,-11.708081,-45.360001,6.3,9.59,1729475113991.0,0.0
0.07657,-4.84068,-9.872787,3.99,-0.28,13.58,1729475114012.0,0.0
-0.356531,-4.613362,-8.056634,12.04,12.11,3.5,1729475114031.0,0.0
-0.870987,-5.60399,-8.913264,20.51,3.36,-3.08,1729475114052.0,0.0
-0.547956,-5.513064,-10.456635,67.059998,-8.61,-8.61,1729475114071.0,0.0
-0.378066,-3.304488,-10.090532,72.169998,-4.9,-19.040001,1729475114092.0,0.0
-0.588634,-2.59382,-9.135797,28.42,2.87,-23.66,1729475114113.0,0.0
-0.775275,-3.558127,-8.764909,-6.51,-1.68,-25.620001,1729475114130.0,0.0
-0.260818,-3.120241,-8.910872,-4.83,-5.6,-26.530001,1729475114152.0,0.0
-0.236889,-1.12702,-8.812766,2.73,-4.13,-22.610001,1729475114172.0,0.0
-0.59342,-0.22014,-9.169296,-9.17,0.91,-12.53,1729475114192.0,0.0
-0.174676,-0.937986,-8.956335,-29.26,-7.77,-1.19,1729475114212.0,0.0
0.59342,-1.995614,-9.674182,-27.299999,-12.67,9.1,1729475114230.0,0.0
0.959522,-2.354537,-9.585647,8.33,-13.09,18.549999,1729475114251.0,0.0
0.557528,-1.581656,-9.597611,25.969999,0.91,20.93,1729475114271.0,0.0
-0.435494,-2.598605,-10.686346,-2.52,1.4,22.68,1729475114291.0,0.0
-1.304088,-4.266403,-9.79143,-43.259998,4.48,20.719999,1729475114312.0,0.0
-1.749153,-4.197011,-11.696117,-44.310001,11.41,13.58,1729475114331.0,0.0
-0.476172,-4.065405,-11.782259,-18.34,3.57,11.55,1729475114351.0,0.0
0.392423,-4.733003,-9.45165,14.28,2.24,11.83,1729475114370.0,0.0
-0.057428,-5.881558,-8.353344,25.83,15.26,3.5,1729475114392.0,0.0
-0.839881,-6.226124,-9.123833,59.57,10.08,-5.39,1729475114413.0,0.0
-0.811167,-3.924229,-9.915856,75.459999,3.36,-18.059999,1729475114430.0,0.0
-0.564706,-2.672783,-9.253045,36.400002,3.71,-24.219999,1729475114451.0,0.0
-0.502493,-3.309274,-8.985049,-7.91,-0.91,-25.9,1729475114470.0,0.0
-0.397209,-3.304488,-9.145369,-10.15,1.12,-24.01,1729475114491.0,0.0
-0.433101,-1.651048,-9.016156,5.67,2.8,-18.27,1729475114522.0,0.0
-0.490529,-0.564706,-9.183653,5.74,5.53,-6.3,1729475114530.0,0.0
0.078963,-1.129412,-9.162118,-11.55,-2.03,4.41,1729475114550.0,0.0
0.349352,-1.689333,-8.836694,-13.72,-3.71,14.49,1729475114571.0,0.0
0.081356,-2.629712,-8.516055,22.049999,1.68,25.83,1729475114591.0,0.0
0.251246,-2.502892,-8.941978,11.06,-4.27,20.51,1729475114612.0,0.0
-0.581456,-3.486342,-9.506684,-28.84,-7.28,17.43,1729475114639.0,0.0
-1.335195,-4.185047,-11.959327,-51.939999,7.91,11.83,1729475114651.0,0.0
-0.4666,-4.697111,-10.564312,-24.15,5.95,12.11,1729475114737.0,0.0
-0.105284,-4.9675,-8.781659,7.42,6.44,10.08,1729475114764.0,0.0
-0.600598,-5.74756,-9.327222,17.01,9.17,-0.28,1729475114766.0,0.0
-1.098306,-6.498906,-9.870394,46.970001,1.75,-9.17,1729475114769.0,0.0
-1.17009,-4.934,-10.217353,53.760002,4.69,-21.139999,1729475114771.0,0.0
-0.971486,-4.110869,-9.071191,29.610001,2.1,-30.799999,1729475114771.0,0.0
-0.289532,-3.426522,-8.02792,2.8,-2.24,-36.330002,1729475114792.0,0.0
-0.246461,-3.871587,-8.54477,9.38,-9.8,-30.73,1729475114812.0,0.0
-0.136391,-2.498107,-8.673983,3.15,-4.76,-34.02,1729475114831.0,0.0
-0.138784,-0.227318,-8.889337,-15.96,-2.59,-24.360001,1729475114851.0,0.0
0.256032,-0.253639,-9.375079,-26.18,-10.01,-5.32,1729475114871.0,0.0
0.746561,-1.339981,-9.585647,-25.690001,-10.71,12.46,1729475114894.0,0.0
0.339781,-2.644069,-9.183653,17.01,-6.37,30.24,1729475114914.0,0.0
0.210568,-2.222932,-10.408779,6.02,-8.4,24.08,1729475114932.0,0.0
0.040678,-2.07697,-9.860823,-50.470001,-10.01,22.82,1729475114951.0,0.0
-1.217947,-4.21376,-12.715459,-67.129997,13.02,22.190001,1729475114974.0,0.0
-0.942772,-4.601398,-12.3685,-40.110001,14.07,19.74,1729475114994.0,0.0
-0.583849,-5.048856,-8.985049,2.73,12.74,18.9,1729475115012.0,0.0
-0.902094,-5.613562,-8.269595,-2.73,18.76,3.99,1729475115031.0,0.0
-0.736989,-7.030113,-9.150154,22.540001,7.42,-4.41,1729475115052.0,0.0
-0.492921,-5.850451,-9.107083,61.670002,0.84,-16.52,1729475115071.0,0.0
-0.552742,-3.95055,-9.45165,57.400002,0.91,-31.290001,1729475115092.0,0.0
-0.227318,-2.694318,-8.094919,8.26,0.07,-38.849998,1729475115114.0,0.0
-0.18664,-3.371487,-8.458629,-20.440001,-13.16,-33.18,1729475115132.0,0.0
-0.181855,-2.818745,-8.752945,-33.529999,-7.7,-34.299999,1729475115153.0,0.0
-0.416351,-1.112662,-9.312866,-32.27,-4.83,-26.32,1729475115173.0,0.0
-0.346959,-0.684347,-10.030712,-24.360001,-5.81,-11.76,1729475115193.0,0.0
0.057428,-1.459622,-9.238688,-12.39,-7.07,4.83,1729475115214.0,0.0
-0.124427,-2.318645,-9.327222,47.459999,-3.36,28.07,1729475115239.0,0.0
-0.009571,-2.084148,-8.657232,31.219999,-5.81,23.870001,1729475115252.0,0.0
0.148355,-1.806581,-10.523634,-19.6,-5.11,20.02,1729475115273.0,0.0
-0.574277,-3.347559,-10.016356,-54.18,0.07,20.370001,1729475115294.0,0.0
-1.308874,-3.979264,-12.222539,-52.290001,10.22,14.42,1729475115315.0,0.0
-0.382852,-4.125226,-11.583653,-23.309999,10.92,14.98,1729475115332.0,0.0
-0.332602,-4.728218,-8.973085,5.18,15.190001,12.11,1729475115357.0,0.0
-1.143769,-5.783452,-8.616554,13.440001,22.190001,1.05,1729475115373.0,0.0
-1.268196,-6.520442,-9.322437,46.759998,10.01,-8.19,1729475115404.0,0.0
-0.897308,-4.991428,-9.556933,70.07,2.03,-19.25,1729475115496.0,0.0
-0.643669,-3.471986,-8.68116,47.599998,4.62,-29.960001,1729475115496.0,0.0
-0.502493,-3.069991,-7.886744,9.52,1.47,-31.85,1729475115496.0,0.0
-0.471386,-3.101098,-8.169096,-7.14,-9.38,-28.42,1729475115497.0,0.0
-0.26321,-2.289931,-9.016156,-16.940001,-7.77,-25.83,1729475115497.0,0.0
-0.315853,-0.866202,-9.377472,-14.7,-6.93,-12.67,1729475115514.0,0.0
-0.014357,-0.241675,-9.75793,-15.12,-5.18,0.98,1729475115531.0,0.0
0.598206,-1.007378,-9.786645,-8.26,-8.75,17.360001,1729475115551.0,0.0
0.51685,-1.667797,-9.554541,33.110001,-6.02,38.639999,1729475115570.0,0.0
0.868595,-1.70369,-9.647861,6.44,-7.63,34.790001,1729475115592.0,0.0
0.124427,-2.876173,-10.317852,-48.09,1.05,30.380001,1729475115612.0,0.0
-1.323231,-4.177868,-12.351749,-80.709999,17.15,20.58,1729475115631.0,0.0
-0.882952,-4.31426,-11.574083,-52.360001,11.13,18.27,1729475115652.0,0.0
-0.334995,-4.778467,-9.276974,-7.07,18.9,18.969999,1729475115671.0,0.0
-1.244268,-5.757132,-9.250652,11.83,25.690001,9.45,1729475115692.0,0.0
-1.581656,-6.802795,-8.975478,35.139999,21.280001,-2.31,1729475115713.0,0.0
-1.287339,-5.548956,-8.73141,57.260002,10.01,-17.360001,1729475115732.0,0.0
-0.954736,-4.220939,-8.879765,37.939999,3.22,-32.689999,1729475115751.0,0.0
-0.311067,-3.905087,-7.338787,5.04,-7.49,-39.27,1729475115771.0,0.0
-0.081356,-3.436093,-7.709675,-5.39,-18.200001,-38.009998,1729475115792.0,0.0
-0.480957,-3.160919,-9.054441,-18.41,-12.04,-37.52,1729475115814.0,0.0
-0.425922,-2.167897,-9.099905,-26.74,-9.73,-34.439999,1729475115832.0,0.0
-0.083749,-0.801596,-9.150154,-18.059999,-12.39,-20.16,1729475115851.0,0.0
0.485743,-0.799203,-9.834501,-10.01,-15.75,-6.09,1729475115872.0,0.0
0.138784,-1.741975,-9.640682,20.790001,-12.46,19.879999,1729475115895.0,0.0
0.382852,-1.801795,-9.872787,35.77,-8.82,23.1,1729475115912.0,0.0
0.435494,-2.411965,-10.356135,-5.88,-6.79,20.09,1729475115931.0,0.0
0.205783,-2.486143,-10.463813,-47.110001,2.87,15.05,1729475115952.0,0.0
-0.681954,-3.871587,-12.160326,-38.080002,15.68,16.799999,1729475115972.0,0.0
-0.533599,-3.902694,-11.3683,0.77,17.92,18.059999,1729475115992.0,0.0
-0.76331,-4.297509,-9.025726,21.49,22.120001,17.290001,1729475116013.0,0.0
-1.548156,-5.469993,-8.690732,11.2,25.129999,8.19,1729475116032.0,0.0
-1.605584,-6.4343,-9.24108,19.32,15.33,-4.13,1729475116051.0,0.0
-1.234696,-5.826523,-9.317651,46.619999,5.04,-15.96,1729475116072.0,0.0
-0.880559,-4.12044,-9.020942,48.650002,4.76,-30.73,1729475116092.0,0.0
-0.68674,-2.938386,-7.542177,21.77,2.59,-37.029999,1729475116112.0,0.0
-0.535992,-3.517449,-8.173882,1.19,-12.18,-35.84,1729475116131.0,0.0
0.107677,-2.376073,-8.633304,-13.16,-12.95,-36.259998,1729475116152.0,0.0
0.155533,-0.294317,-8.95155,-21.139999,-12.32,-25.129999,1729475116171.0,0.0
0.181855,-0.48335,-9.360723,-32.41,-9.03,-10.01,1729475116193.0,0.0
0.502493,-0.646062,-10.049855,-29.26,-10.99,6.02,1729475116212.0,0.0
1.103091,-2.100898,-9.592826,30.799999,-15.54,30.52,1729475116231.0,0.0
0.806381,-2.148755,-9.796216,29.26,-3.85,31.710001,1729475116252.0,0.0
0.059821,-2.088934,-10.971091,-24.219999,0.28,24.15,1729475116271.0,0.0
-0.595813,-2.87378,-10.061819,-66.360001,8.12,22.26,1729475116292.0,0.0
-1.079163,-3.524628,-12.610175,-47.32,15.190001,26.389999,1729475116313.0,0.0
-0.404387,-4.359723,-9.422935,-6.02,14.35,29.120001,1729475116331.0,0.0
-0.832702,-4.888536,-9.040084,-5.95,21.49,22.82,1729475116352.0,0.0
-1.244268,-6.199803,-9.523434,-7.21,19.6,10.29,1729475116371.0,0.0
-0.89013,-7.353144,-9.559326,39.549999,5.18,0.21,1729475116392.0,0.0
-0.497707,-5.505885,-9.23151,62.299999,6.72,-18.34,1729475116412.0,0.0
-1.103091,-4.431508,-9.178867,55.23,8.96,-30.030001,1729475116431.0,0.0
-0.909273,-3.239882,-7.295716,17.360001,7.07,-39.48,1729475116452.0,0.0
-0.770489,-3.323631,-7.089933,12.39,-8.4,-28.91,1729475116471.0,0.0
-0.370888,-2.854637,-7.68096,-4.2,-14.7,-29.68,1729475116492.0,0.0
-0.189033,-0.736989,-8.693125,-32.060001,-11.69,-26.530001,1729475116512.0,0.0
-0.275175,-1.552942,-8.757731,-41.790001,-14.07,-12.18,1729475116531.0,0.0
0.926022,-1.194018,-10.080962,-38.779999,-20.65,-7.56,1729475116551.0,0.0
0.985843,-0.409173,-9.686146,29.610001,-17.01,15.33,1729475116571.0,0.0
0.681954,-1.079163,-10.301102,35.07,-13.09,29.4,1729475116592.0,0.0
0.117248,-2.562713,-10.817951,0.7,-4.83,32.41,1729475116612.0,0.0
-0.222532,-3.160919,-10.633704,-34.23,-1.26,27.09,1729475116631.0,0.0
-0.260818,-3.37388,-12.251251,-35.77,9.24,23.940001,1729475116651.0,0.0
-0.794417,-3.893122,-11.155338,-6.3,18.549999,27.65,1729475116671.0,0.0
-1.375873,-4.503292,-10.612168,4.62,29.82,21.77,1729475116691.0,0.0
-1.282553,-4.819145,-9.32483,-1.19,25.48,16.309999,1729475116712.0,0.0
-1.198804,-6.393622,-9.066404,23.309999,18.27,10.36,1729475116731.0,0.0
-0.789631,-6.589834,-8.446664,39.689999,16.17,-5.46,1729475116751.0,0.0
-0.655633,-5.15414,-8.736196,48.860001,11.48,-19.74,1729475116772.0,0.0
-0.849452,-4.575077,-9.195618,38.709999,8.4,-30.24,1729475116792.0,0.0
-0.504886,-3.053242,-7.508677,11.06,3.57,-37.869999,1729475116813.0,0.0
-0.887737,-4.027121,-6.972685,20.370001,-7.91,-28.98,1729475116831.0,0.0
-0.325424,-2.225325,-8.85823,1.19,-14.77,-33.880001,1729475116851.0,0.0
-0.172283,-1.402194,-9.475577,-30.66,-16.1,-23.17,1729475116871.0,0.0
1.105484,-1.835295,-10.451849,-56.209999,-18.620001,-17.08,1729475116894.0,0.0
1.294517,-1.153341,-10.164711,25.9,-4.69,15.190001,1729475116912.0,0.0
0.672383,-1.866402,-7.57089,50.75,-2.31,26.67,1729475116931.0,0.0
-0.591027,-2.854637,-7.972885,47.040001,-0.7,33.740002,1729475116951.0,0.0
-0.854238,-2.208575,-8.128418,6.09,-5.81,26.530001,1729475116972.0,0.0
-0.959522,-1.51705,-12.524034,-78.120003,-6.37,20.299999,1729475116992.0,0.0
-0.447458,-3.665804,-12.780065,-73.989998,-9.59,31.290001,1729475117012.0,0.0
-0.528814,-4.886144,-11.200804,-22.33,14.91,31.360001,1729475117031.0,0.0
-1.052842,-4.534399,-10.212566,-0.49,25.34,24.710001,1729475117051.0,0.0
-1.165305,-5.134997,-9.497113,13.440001,16.870001,16.379999,1729475117070.0,0.0
-0.935594,-5.919843,-9.24108,24.92,14.0,4.62,1729475117092.0,0.0
-0.909273,-5.661418,-8.982656,37.52,13.09,-10.15,1729475117111.0,0.0
-0.870987,-5.089533,-8.84148,23.799999,11.83,-28.139999,1729475117131.0,0.0
-0.492921,-4.773681,-7.788638,19.32,3.22,-35.84,1729475117152.0,0.0
-0.562313,-3.706482,-7.712067,51.450001,-6.79,-32.970001,1729475117171.0,0.0
-0.622134,-2.524428,-8.472985,37.73,-11.27,-35.07,1729475117192.0,0.0
-0.038285,-1.588834,-9.068797,-4.55,-9.31,-32.200001,1729475117212.0,0.0
1.129412,-1.725225,-10.289137,-5.46,-12.6,-10.78,1729475117231.0,0.0
0.830309,-2.134398,-9.111869,37.380001,2.03,7.42,1729475117252.0,0.0
0.265603,-2.189433,-8.922836,45.849998,6.86,13.93,1729475117272.0,0.0
-0.035892,-3.759124,-9.06162,37.240002,3.29,18.690001,1729475117291.0,0.0
0.131605,-4.180261,-9.561719,35.700001,1.33,16.030001,1729475117313.0,0.0
0.122034,-5.252246,-9.008978,61.110001,1.61,16.379999,1729475117332.0,0.0
-0.045464,-6.23091,-9.018548,89.389999,3.15,10.85,1729475117350.0,0.0
-0.528814,-6.58744,-9.267403,109.900002,-1.12,4.13,1729475117371.0,0.0
-0.856631,-5.793024,-8.882158,88.690002,5.04,-7.98,1729475117392.0,0.0
-1.009771,-6.24766,-8.673983,54.389999,2.1,-11.06,1729475117421.0,0.0
-0.72024,-7.049256,-8.102098,48.299999,-1.82,-13.09,1729475117431.0,0.0
-0.598206,-6.874579,-8.102098,87.43,-4.83,-8.26,1729475117451.0,0.0
-0.461815,-5.740381,-7.49432,131.460007,-2.1,-1.89,1729475117471.0,0.0
-0.344566,-5.070391,-6.977471,113.889999,-0.28,-0.35,1729475117492.0,0.0
-0.320638,-5.843273,-6.867401,54.110001,-3.01,2.52,1729475117512.0,0.0
-0.18664,-6.910471,-7.255038,13.93,-6.58,2.87,1729475117531.0,0.0
-0.31346,-7.365108,-7.348359,19.460001,-5.11,3.85,1729475117551.0,0.0
-0.641276,-7.051648,-7.302894,69.019997,-0.07,7.63,1729475117571.0,0.0
-0.933201,-6.580262,-6.537192,54.810001,2.8,1.82,1729475117591.0,0.0
-0.923629,-6.831509,-6.838687,24.360001,-3.08,-0.14,1729475117617.0,0.0
-0.543171,-7.307681,-7.207181,16.59,-11.9,-0.42,1729475117630.0,0.0
-0.193819,-7.65464,-7.525427,47.389999,-12.67,3.29,1729475117650.0,0.0
-0.239282,-7.537392,-7.393822,84.209999,-7.91,7.35,1729475117670.0,0.0
-0.612563,-6.972685,-6.683154,84.910004,-1.05,5.74,1729475117692.0,0.0
-1.0002,-6.783652,-5.891129,44.52,2.45,2.73,1729475117711.0,0.0
-1.091127,-7.41775,-5.63749,-2.24,-4.41,1.33,1729475117730.0,0.0
-0.591027,-8.149954,-5.735595,-30.030001,-13.65,-1.96,1729475117750.0,0.0
-0.370888,-8.690732,-6.070591,-23.52,-17.360001,-3.43,1729475117771.0,0.0
-0.643669,-8.568698,-6.429514,4.55,-13.23,-3.85,1729475117791.0,0.0
-0.856631,-7.719246,-6.276374,21.49,-10.15,-3.85,1729475117814.0,0.0
-0.818345,-7.235896,-6.04427,14.84,-11.06,-1.61,1729475117830.0,0.0
-0.76331,-7.479963,-5.936593,-2.52,-13.02,1.33,1729475117850.0,0.0
-0.665205,-8.238488,-6.726225,-0.63,-14.35,3.15,1729475117871.0,0.0
-0.555135,-8.717053,-7.185646,25.549999,-12.74,8.19,1729475117894.0,0.0
-0.607777,-7.980063,-6.463014,38.009998,1.4,4.06,1729475117911.0,0.0
-0.768096,-7.743174,-6.180661,22.68,2.59,1.68,1729475117936.0,0.0
-0.650848,-7.776673,-6.707082,0.84,1.12,-1.12,1729475117950.0,0.0
-0.586242,-8.303094,-7.482357,-12.04,0.98,-1.54,1729475117970.0,0.0
-0.878166,-8.657232,-7.290931,-5.46,13.16,1.19,1729475117992.0,0.0
-0.914058,-8.386844,-6.886543,18.549999,21.49,3.85,1729475118011.0,0.0
-0.847059,-8.037491,-5.565705,32.200001,27.370001,3.15,1729475118030.0,0.0
-1.086342,-7.980063,-3.029313,32.41,26.530001,1.19,1729475118051.0,0.0
-1.17009,-7.810174,-3.586841,8.96,12.25,-7.35,1729475118070.0,0.0
-0.902094,-7.848458,-4.716253,-9.38,-9.24,-10.36,1729475118091.0,0.0
-0.521635,-7.556533,-6.403193,-6.58,-15.190001,-11.34,1729475118111.0,0.0
-0.619741,-8.779266,-7.929814,19.040001,-12.95,-8.89,1729475118130.0,0.0
-0.011964,-11.117055,-8.365308,93.169998,-16.24,-6.72,1729475118150.0,0.0
0.069392,-10.387242,-5.65424,217.0,6.79,5.18,1729475118170.0,0.0
-0.07657,-7.858029,-2.919244,337.540009,22.049999,11.48,1729475118191.0,0.0
-0.325424,-6.977471,-2.268396,350.700012,16.379999,16.799999,1729475118213.0,0.0
0.062213,-8.513663,-1.210768,306.320007,3.15,19.040001,1729475118231.0,0.0
-0.988236,-12.167502,0.799203,336.559998,3.78,33.32,1729475118250.0,0.0
-1.081556,-13.579268,0.366102,380.100006,-1.12,14.91,1729475118271.0,0.0
0.370888,-11.863614,0.775275,412.720001,15.68,1.96,1729475118292.0,0.0
1.026521,-10.607382,1.859223,405.369995,31.85,-8.75,1729475118312.0,0.0
-0.059821,-9.525827,2.589034,381.149994,40.25,-19.809999,1729475118330.0,0.0
-0.9667,-7.070791,4.194618,340.480011,46.27,-26.74,1729475118350.0,0.0
-1.354338,-3.871587,5.206782,283.5,51.310001,-36.330002,1729475118370.0,0.0
-2.500499,-1.335195,4.510471,205.729996,60.689999,-31.85,1729475118392.0,0.0
-2.904887,-2.249253,6.539584,78.75,44.310001,-12.6,1729475118412.0,0.0
-3.663411,-6.71426,8.487342,-5.04,23.66,-9.45,1729475118430.0,0.0
-3.512664,-9.040084,7.24786,-27.93,10.78,-11.06,1729475118450.0,0.0
-2.402394,-9.24826,6.092126,9.59,19.950001,-21.91,1729475118470.0,0.0
-1.397408,-7.941778,5.955735,28.42,31.5,-29.120001,1729475118492.0,0.0
-1.12702,-5.175675,7.372287,22.540001,35.630001,-32.900002,1729475118513.0,0.0
-0.729811,-2.431108,8.626125,20.860001,33.740002,-17.780001,1729475118530.0,0.0
-2.005185,-1.964507,8.630912,4.27,16.52,4.06,1729475118551.0,0.0
-3.316452,-6.498906,7.144968,-28.91,-19.389999,19.460001,1729475118570.0,0.0
-0.988236,-7.140182,7.013363,2.17,-6.72,28.700001,1729475118591.0,0.0
-2.323431,-6.649654,7.192825,10.92,-4.76,28.0,1729475118621.0,0.0
-3.716053,-9.341579,6.305088,7.0,-5.81,20.299999,1729475118630.0,0.0
-2.852244,-8.499306,5.71406,-5.18,0.21,3.71,1729475118650.0,0.0
-4.299902,-9.348758,6.833901,34.509998,13.23,-3.29,1729475118670.0,0.0
-1.136591,-7.551748,7.298109,20.299999,19.32,-17.639999,1729475118691.0,0.0
-0.68674,-6.534799,6.266802,-4.48,12.53,-26.950001,1729475118713.0,0.0
-1.655833,-5.910272,6.707082,7.77,25.620001,-22.540001,1729475118729.0,0.0
-3.304488,-7.874779,7.178468,-18.059999,10.36,-30.450001,1729475118751.0,0.0
-0.11007,-6.903293,8.396415,-2.03,12.53,-36.330002,1729475118770.0,0.0
0.399601,-3.739982,7.862815,21.49,11.97,-21.84,1729475118790.0,0.0
0.258425,-0.308674,6.393622,-0.7,17.710001,2.8,1729475118814.0,0.0
-2.266003,-2.95035,6.649654,-53.549999,1.05,10.99,1729475118830.0,0.0
-5.111069,-9.035298,7.372287,-60.34,-28.559999,19.460001,1729475118849.0,0.0
-1.349552,-6.948757,8.906086,11.48,-6.09,26.040001,1729475118870.0,0.0
-0.476172,-4.582255,8.367701,63.420002,2.87,34.09,1729475118894.0,0.0
-2.505285,-4.110869,5.903094,-29.120001,-15.33,23.24,1729475118911.0,0.0
-2.902494,-7.963314,5.826523,-21.77,-4.27,35.98,1729475118931.0,0.0
-4.443472,-10.360922,6.549156,-29.889999,-13.23,7.56,1729475118951.0,0.0
-3.84048,-9.590433,7.525427,27.93,2.73,7.56,1729475118971.0,0.0
-2.321038,-7.80778,6.845865,30.940001,4.83,-15.54,1729475118991.0,0.0
-0.717847,-7.068398,5.730811,-11.55,8.19,-24.780001,1729475119012.0,0.0
-1.926222,-9.016156,6.02752,-24.639999,8.82,-31.57,1729475119030.0,0.0
-2.074577,-11.047661,7.235896,-20.370001,6.3,-44.450001,1729475119050.0,0.0
-0.232104,-5.539384,8.176274,3.36,17.57,-53.41,1729475119070.0,0.0
-1.079163,0.631705,6.15434,20.790001,20.09,-17.43,1729475119090.0,0.0
-2.18704,-0.492921,6.62094,-23.59,4.34,-5.81,1729475119111.0,0.0
-4.596612,-5.69731,7.377072,-67.059998,-20.440001,20.440001,1729475119131.0,0.0
-3.725625,-8.212167,8.77448,-31.99,-26.950001,25.129999,1729475119149.0,0.0
-0.918844,-7.283752,9.32483,23.59,-12.25,31.92,1729475119171.0,0.0
0.112463,-6.479764,8.30788,21.98,-11.83,23.030001,1729475119191.0,0.0
-1.234696,-5.546563,6.376873,-7.49,-12.53,18.059999,1729475119211.0,0.0
-3.172883,-5.845665,4.740182,-17.08,-6.44,21.07,1729475119230.0,0.0
-4.45065,-10.169496,6.211767,-16.450001,-8.61,7.14,1729475119251.0,0.0
-2.68714,-10.004392,7.865208,24.5,5.6,5.18,1729475119270.0,0.0
-2.517249,-8.334201,7.302894,43.82,8.75,-10.85,1729475119292.0,0.0
-0.653241,-8.183454,6.403193,-0.56,1.96,-23.66,1729475119313.0,0.0
-1.031307,-9.016156,6.439085,-0.42,6.79,-28.42,1729475119329.0,0.0
-2.397608,-9.827322,6.98465,7.35,-1.33,-40.950001,1729475119350.0,0.0
-1.375873,-9.60479,8.082954,19.460001,-3.57,-52.080002,1729475119370.0,0.0
-0.42353,-4.364508,7.647461,35.209999,7.56,-52.009998,1729475119390.0,0.0
-0.33021,1.256232,4.737789,10.43,5.6,-22.120001,1729475119410.0,0.0
-1.51705,0.638884,5.101498,-19.460001,13.3,4.27,1729475119430.0,0.0
-4.759324,-5.350351,7.118648,-63.420002,-12.81,21.91,1729475119449.0,0.0
-3.333202,-7.877172,7.757531,-35.77,-14.07,27.860001,1729475119469.0,0.0
-0.631705,-7.372287,8.26481,21.210001,4.55,35.700001,1729475119492.0,0.0
0.72024,-7.142576,8.200203,24.290001,8.19,27.02,1729475119511.0,0.0
-1.584049,-7.015756,7.250252,3.71,4.97,15.68,1729475119530.0,0.0
-1.56012,-3.002992,6.618547,17.15,14.56,26.67,1729475119550.0,0.0
-4.886144,-9.12144,6.427122,11.27,9.73,5.25,1729475119570.0,0.0
-2.979064,-9.454042,7.79103,1.4,5.18,7.77,1729475119590.0,0.0
-3.302095,-8.906086,7.420143,28.35,5.18,-7.56,1729475119612.0,0.0
-0.947558,-7.975278,6.257231,-1.4,0.56,-23.73,1729475119629.0,0.0
-1.227518,-8.726624,6.575477,6.16,7.84,-24.639999,1729475119649.0,0.0
-2.079363,-9.942179,7.066005,0.42,0.07,-39.970001,1729475119746.0,0.0
-0.564706,-9.133404,8.044669,11.48,-0.07,-50.330002,1729475119754.0,0.0
-0.605384,-3.728018,8.492127,27.860001,11.76,-48.439999,1729475119756.0,0.0
1.004985,3.172883,4.902894,-2.38,4.41,-21.0,1729475119760.0,0.0
-2.400001,0.449851,5.319244,-24.780001,4.69,16.52,1729475119761.0,0.0
-5.996413,-7.4345,7.281359,-73.919998,-38.639999,21.98,1729475119769.0,0.0
-2.012364,-8.377272,8.944371,-12.04,-13.51,28.91,1729475119791.0,0.0
-0.062213,-7.111469,9.537791,46.34,0.56,33.040001,1729475119810.0,0.0
0.01675,-5.345565,7.865208,7.77,-4.34,19.040001,1729475119829.0,0.0
-1.083949,-3.402594,6.180661,-25.41,-4.76,19.809999,1729475119849.0,0.0
-2.65364,-6.374479,5.69731,-7.14,5.67,39.130001,1729475119869.0,0.0
-3.773481,-10.320245,7.52782,-28.139999,-7.91,17.92,1729475119892.0,0.0
-3.311667,-9.116654,7.453642,18.27,4.13,3.08,1729475119911.0,0.0
-2.730211,-9.695717,6.166305,-14.21,-2.94,-14.0,1729475119929.0,0.0
-0.667598,-8.752945,5.730811,-28.98,5.18,-27.09,1729475119949.0,0.0
-1.832902,-10.131211,6.139983,-7.56,6.79,-35.91,1729475119970.0,0.0
-1.414158,-9.552148,6.843473,-1.68,6.02,-46.900002,1729475119990.0,0.0
-0.354138,-7.080362,6.977471,18.549999,5.74,-47.529999,1729475120010.0,0.0
0.622134,-0.327817,4.792823,16.940001,14.77,-39.41,1729475120029.0,0.0
-3.089134,-1.787439,5.632704,7.49,8.19,0.77,1729475120049.0,0.0
-1.765903,-2.620141,5.795416,-56.91,3.43,-1.82,1729475120069.0,0.0
-3.732803,-7.302894,7.779066,-53.689999,-9.1,20.860001,1729475120090.0,0.0
-2.656033,-8.092526,8.422735,-18.27,-10.22,22.75,1729475120110.0,0.0
-0.248854,-6.482157,9.142976,24.710001,1.12,30.380001,1729475120129.0,0.0
-0.165105,-4.31426,7.793423,27.23,-2.24,24.92,1729475120150.0,0.0
-2.177469,-4.900501,7.446464,6.58,-6.58,33.810001,1729475120169.0,0.0
-4.632504,-9.037691,6.742974,-14.77,-14.28,25.690001,1729475120190.0,0.0
-3.35713,-10.51167,7.384251,-0.77,-8.33,16.799999,1729475120211.0,0.0
-2.921637,-9.224331,6.585048,22.540001,0.07,-6.93,1729475120231.0,0.0
-1.100698,-8.599805,5.680561,-8.96,-3.71,-27.58,1729475120249.0,0.0
-0.902094,-8.073383,5.85763,7.7,6.65,-25.48,1729475120271.0,0.0
-2.266003,-8.437093,5.580062,3.57,0.84,-34.650002,1729475120290.0,0.0
-1.557728,-9.676575,6.295516,2.87,0.35,-40.740002,1729475120310.0,0.0
0.057428,-5.501099,7.458428,15.89,16.799999,-46.34,1729475120329.0,0.0
-0.880559,-2.053042,5.649454,9.66,14.07,-26.389999,1729475120350.0,0.0
-1.112662,-1.435694,5.632704,-16.52,12.53,-10.08,1729475120371.0,0.0
-3.948158,-4.888536,7.393822,-32.34,-1.33,15.68,1729475120391.0,0.0
-3.668197,-6.601797,8.65484,-21.280001,-18.48,18.27,1729475120410.0,0.0
-0.751346,-5.773881,9.68136,35.420002,-5.95,36.959999,1729475120429.0,0.0
-0.519243,-5.991628,7.960921,34.09,-9.38,29.33,1729475120457.0,0.0
-0.937986,-5.510671,6.345766,-16.940001,-9.73,26.950001,1729475120469.0,0.0
-2.11047,-8.015956,5.534599,-8.96,3.36,29.049999,1729475120491.0,0.0
-4.082155,-10.272388,5.742774,-15.61,-1.05,1.4,1729475120513.0,0.0
-2.79721,-9.956534,7.475177,31.710001,13.65,-1.82,1729475120530.0,0.0
-1.923829,-7.006185,6.893722,41.09,14.7,-18.129999,1729475120551.0,0.0
-0.717847,-7.101898,6.821937,-7.21,6.16,-23.030001,1729475120570.0,0.0
-2.057827,-8.616554,5.898308,-16.030001,-1.96,-22.82,1729475120591.0,0.0
-2.416751,-9.401401,6.4343,-4.55,-2.17,-28.49,1729475120611.0,0.0
0.136391,-6.252446,7.520642,19.25,5.25,-39.200001,1729475120631.0,0.0
0.693919,-0.930808,4.68754,10.15,9.1,-27.719999,1729475120651.0,0.0
-0.701097,-1.026521,4.725825,-19.6,11.55,-4.27,1729475120670.0,0.0
-3.266203,-4.675575,6.642475,-59.990002,2.31,13.02,1729475120691.0,0.0
-4.242475,-7.788638,8.413164,-35.349998,-15.61,13.37,1729475120713.0,0.0
-1.758725,-5.900701,9.980463,36.610001,-2.03,31.15,1729475120730.0,0.0
-0.066999,-4.041477,9.159724,45.709999,-1.54,30.59,1729475120751.0,0.0
-0.138784,-3.550949,6.62094,-17.219999,-8.26,33.25,1729475120771.0,0.0
-2.404787,-7.295716,5.87438,-45.920002,-9.03,39.060001,1729475120791.0,0.0
-4.350152,-9.367901,5.977271,-34.650002,-11.34,24.99,1729475120813.0,0.0
-3.089134,-10.403993,7.779066,26.32,6.23,21.07,1729475120831.0,0.0
-2.78046,-8.671589,6.695118,24.15,5.11,-2.1,1729475120851.0,0.0
-1.708475,-8.958728,5.838487,-8.05,2.24,-21.559999,1729475120871.0,0.0
-0.933201,-7.542177,6.683154,-2.03,11.13,-20.93,1729475120894.0,0.0
-1.978864,-8.927622,6.553941,-7.98,1.75,-27.719999,1729475120911.0,0.0
-0.921237,-9.207582,6.24766,-21.0,-3.99,-34.93,1729475120932.0,0.0
-1.385444,-8.772088,6.541977,3.99,-3.78,-37.869999,1729475120952.0,0.0
0.059821,-4.228118,6.661618,9.73,8.05,-39.830002,1729475120972.0,0.0
-1.37348,-1.380659,5.15414,-2.8,9.94,-13.3,1729475120993.0,0.0
-1.952543,-2.172683,5.924629,-31.15,4.97,-6.58,1729475121012.0,0.0
-4.295116,-6.202196,8.520842,-24.639999,-2.17,18.620001,1729475121032.0,0.0
-3.04367,-6.017949,9.425328,-4.48,-14.63,16.73,1729475121052.0,0.0
-0.693919,-6.084948,10.243673,36.68,-7.84,35.490002,1729475121072.0,0.0
-0.270389,-4.328616,6.953543,8.96,-12.88,23.73,1729475121093.0,0.0
-1.414158,-5.860023,5.63749,-17.360001,-8.47,36.610001,1729475121114.0,0.0
-3.617948,-9.480364,5.316852,-39.060001,-11.62,14.7,1729475121132.0,0.0
-2.270789,-8.023134,6.690332,9.66,6.23,16.24,1729475121153.0,0.0
-2.694318,-7.992027,6.556334,20.09,9.59,-2.17,1729475121177.0,0.0
-2.18704,-9.566505,6.104091,-17.99,1.19,-13.3,1729475121192.0,0.0
-1.481157,-8.987441,6.053841,-8.19,3.71,-17.85,1729475121214.0,0.0
-2.309074,-9.06162,6.573084,8.54,4.34,-23.870001,1729475121232.0,0.0
-1.402194,-9.523434,6.084948,-11.9,-6.3,-37.799999,1729475121251.0,0.0
-0.959522,-9.109475,6.582655,5.18,-1.89,-39.200001,1729475121272.0,0.0
0.909273,-3.029313,4.185047,2.66,7.63,-48.09,1729475121293.0,0.0
-2.041078,-1.4668,4.737789,16.870001,17.08,-5.25,1729475121314.0,0.0
-1.5003,-1.37348,5.821737,-27.719999,10.64,-13.440001,1729475121333.0,0.0
-4.185047,-6.711867,8.752945,-29.26,-1.12,20.370001,1729475121352.0,0.0
-3.294917,-7.133004,9.664611,-18.48,-16.17,17.92,1729475121372.0,0.0
-0.442672,-5.257031,9.781858,22.68,-7.07,32.060001,1729475121392.0,0.0
-0.540778,-3.553342,7.039684,4.83,-11.06,32.970001,1729475121414.0,0.0
-2.057827,-5.778666,4.546363,-37.869999,-10.99,40.389999,1729475121431.0,0.0
-3.811767,-8.882158,5.424529,-61.950001,-8.26,29.540001,1729475121452.0,0.0
-3.306881,-11.112268,6.991827,-14.21,6.51,22.120001,1729475121472.0,0.0
-2.904887,-10.454242,6.008378,4.62,8.47,-0.63,1729475121492.0,0.0
-1.304088,-9.370294,5.017749,-0.35,6.44,-19.809999,1729475121514.0,0.0
-1.196411,-8.571091,5.558527,15.190001,15.96,-18.969999,1729475121532.0,0.0
-1.909473,-9.870394,5.704489,2.38,6.79,-34.790001,1729475121552.0,0.0
-1.28016,-9.927821,5.941379,9.03,11.2,-40.25,1729475121572.0,0.0
-0.375673,-7.676175,4.95075,14.91,15.26,-50.259998,1729475121592.0,0.0
-1.548156,-3.976871,5.508278,23.030001,21.280001,-29.889999,1729475121612.0,0.0
-1.270589,-1.823331,6.63769,9.24,19.25,-19.950001,1729475121631.0,0.0
-1.325624,-2.024328,7.970492,-19.18,8.4,3.78,1729475121652.0,0.0
-3.9673,-5.809773,8.322237,-45.150002,-14.42,22.26,1729475121672.0,0.0
-2.959922,-8.245667,7.982457,-55.23,-28.98,23.450001,1729475121692.0,0.0
-0.693919,-8.130811,7.611568,-16.1,-21.629999,19.530001,1729475121712.0,0.0
-0.490529,-6.611369,7.066005,16.940001,-12.67,18.76,1729475121731.0,0.0
-1.368695,-5.039285,5.556134,8.19,-8.19,18.969999,1729475121751.0,0.0
-2.117648,-4.505685,4.54397,-4.48,-1.47,33.599998,1729475121772.0,0.0
-4.144369,-8.673983,5.24746,-11.55,-2.94,26.6,1729475121792.0,0.0
-3.18724,-10.372886,6.833901,3.29,4.76,25.48,1729475121815.0,0.0
-2.567499,-8.51127,5.649454,0.63,8.75,5.39,1729475121833.0,0.0
-2.419144,-9.836893,5.07757,-26.32,4.97,-5.04,1729475121851.0,0.0
-1.981257,-10.425529,5.505885,-13.16,8.26,-12.81,1729475121872.0,0.0
-1.880759,-9.638289,6.503692,17.5,13.58,-19.32,1729475121896.0,0.0
-2.261217,-10.147961,6.80758,10.15,1.54,-33.459999,1729475121922.0,0.0
-1.12702,-9.743573,6.711867,7.7,1.05,-41.509998,1729475121932.0,0.0
-0.129212,-6.235696,6.680761,9.17,0.35,-51.73,1729475121952.0,0.0
-0.375673,-1.646262,4.488935,21.77,16.450001,-28.0,1729475121971.0,0.0
-1.818545,-1.866402,6.592227,3.5,10.22,-16.66,1729475121992.0,0.0
-3.443272,-6.01077,8.224132,-18.76,0.77,-16.66,1729475122014.0,0.0
-3.804588,-6.673582,8.879765,-25.129999,-22.68,5.67,1729475122031.0,0.0
-1.366302,-5.118248,9.619147,25.27,-17.360001,25.129999,1729475122052.0,0.0
-1.024128,-4.409972,6.951149,19.809999,-24.92,26.040001,1729475122072.0,0.0
-0.631705,-5.565705,5.101498,-20.58,-21.559999,37.939999,1729475122093.0,0.0
-2.423929,-9.990034,5.106283,-32.689999,-13.16,26.67,1729475122113.0,0.0
-2.519642,-11.68176,6.795617,4.97,-0.42,22.120001,1729475122132.0,0.0
-2.87378,-9.255438,6.455836,42.0,9.66,-0.42,1729475122151.0,0.0
-1.952543,-9.585647,5.295317,1.4,-0.91,-19.389999,1729475122171.0,0.0
-0.954736,-9.064013,5.192425,3.5,1.75,-24.360001,1729475122192.0,0.0
-1.378266,-8.437093,5.606383,27.58,7.63,-26.6,1729475122213.0,0.0
-1.533799,-8.142776,5.367101,17.01,5.11,-31.57,1729475122231.0,0.0
-1.208375,-8.260024,5.69731,13.93,7.77,-35.209999,1729475122251.0,0.0
0.083749,-4.843073,4.302295,7.35,14.28,-39.27,1729475122271.0,0.0
-2.06022,-3.050849,5.570491,11.76,20.58,-14.98,1729475122292.0,0.0
-1.694118,-2.65364,6.793223,-17.219999,18.200001,-7.35,1729475122315.0,0.0
-2.612962,-5.333601,7.537392,-38.57,4.83,12.88,1729475122331.0,0.0
-3.828516,-7.532606,7.9346,-46.900002,-15.4,16.030001,1729475122351.0,0.0
-1.430908,-6.886543,8.772088,-18.76,-13.72,23.379999,1729475122371.0,0.0
-0.567099,-5.441278,8.386844,15.4,-10.36,26.950001,1729475122392.0,0.0
-0.866202,-3.991228,6.460621,0.77,-10.92,33.110001,1729475122412.0,0.0
-2.785245,-7.259824,4.673182,-19.67,-8.47,39.48,1729475122431.0,0.0
-3.634698,-10.600205,6.144768,-23.450001,-8.89,27.440001,1729475122451.0,0.0
-2.605784,-11.176874,6.874579,27.299999,7.0,10.85,1729475122472.0,0.0
-2.002793,-9.722038,5.766702,35.630001,11.69,-4.27,1729475122500.0,0.0
-0.947558,-9.099905,5.630312,11.55,11.2,-25.200001,1729475122512.0,0.0
-1.289732,-8.561519,5.836094,25.059999,15.47,-26.74,1729475122531.0,0.0
-1.861616,-8.740981,5.407779,13.79,7.77,-36.330002,1729475122552.0,0.0
-1.59362,-8.910872,6.037091,13.02,7.35,-37.73,1729475122571.0,0.0
-0.468993,-5.565705,4.936393,12.74,11.06,-45.779999,1729475122591.0,0.0
-1.864009,-3.122634,5.505885,23.870001,18.549999,-18.129999,1729475122613.0,0.0
-1.87358,-2.038685,6.013163,-10.78,14.7,-16.59,1729475122631.0,0.0
-2.268396,-3.18724,7.202396,-26.74,9.45,11.34,1729475122653.0,0.0
-4.13719,-6.168696,8.181061,-26.040001,-10.71,24.15,1729475122673.0,0.0
-2.227718,-6.908078,8.853443,-10.01,-15.12,35.349998,1729475122692.0,0.0
-0.356531,-6.096912,8.834301,25.27,-7.63,37.099998,1729475122714.0,0.0
-1.194018,-4.110869,7.503892,25.690001,-3.92,36.049999,1729475122733.0,0.0
-3.098706,-5.795416,6.202196,-2.94,-6.02,43.189999,1729475122752.0,0.0
-4.63729,-10.059426,6.829116,-37.380001,-14.84,26.25,1729475122773.0,0.0
-2.505285,-10.884951,6.685547,25.9,3.08,5.25,1729475122793.0,0.0
-2.622534,-9.645468,6.163911,42.84,3.57,-14.21,1729475122813.0,0.0
-0.976272,-8.214561,5.761917,12.88,5.81,-26.110001,1729475122834.0,0.0
-0.976272,-7.819745,5.936593,4.34,10.15,-23.24,1729475122853.0,0.0
-2.163112,-9.030513,5.446064,-12.46,-0.84,-31.85,1729475122873.0,0.0
-1.473979,-9.387043,5.438886,-7.77,-0.49,-36.610001,1729475122899.0,0.0
-0.641276,-7.575676,6.666404,17.780001,0.84,-46.759998,1729475122913.0,0.0
-0.136391,-2.488536,5.223531,29.4,9.38,-35.98,1729475122933.0,0.0
-1.380659,0.287139,5.32403,12.11,9.94,-3.99,1729475122952.0,0.0
-3.09392,-3.244668,6.910471,-34.860001,-1.96,12.67,1729475122973.0,0.0
-4.821537,-7.716853,7.869993,-72.169998,-30.24,19.110001,1729475122993.0,0.0
-1.119841,-6.080163,9.020942,-4.83,-13.72,33.950001,1729475123014.0,0.0
-1.112662,-3.562913,8.087741,42.630001,-9.66,38.639999,1729475123033.0,0.0
-3.519842,-7.401,5.905487,4.34,-9.66,48.09,1729475123053.0,0.0
-3.962514,-11.028521,6.185446,-50.75,-12.18,23.73,1729475123074.0,0.0
-3.268596,-11.145767,6.649654,-3.15,7.07,11.06,1729475123095.0,0.0
-2.76371,-10.521241,5.702096,14.49,8.89,-14.91,1729475123114.0,0.0
-1.055235,-9.626326,5.331209,-1.68,11.41,-30.380001,1729475123134.0,0.0
-0.949951,-8.642875,6.168696,15.33,17.08,-30.66,1729475123153.0,0.0
-2.160719,-8.719445,5.876772,14.42,9.59,-39.759998,1729475123174.0,0.0
-1.854438,-9.188439,6.367301,5.67,5.74,-45.080002,1729475123194.0,0.0
-0.569492,-6.965507,5.000999,4.13,5.11,-55.93,1729475123224.0,0.0
-1.749153,-4.431508,5.905487,25.27,14.35,-32.060001,1729475123233.0,0.0
-0.535992,-1.698904,6.80758,2.31,14.14,-32.900002,1729475123253.0,0.0
-0.547956,-1.237089,6.183054,-20.23,10.01,0.77,1729475123274.0,0.0
-3.76391,-6.008378,7.362715,-39.689999,-11.48,14.14,1729475123295.0,0.0
-2.335395,-7.618747,8.539984,-25.690001,-15.47,25.200001,1729475123316.0,0.0
-0.409173,-5.735595,9.01137,31.43,-2.8,30.1,1729475123334.0,0.0
-0.823131,-3.814159,7.257431,28.210001,-2.59,33.950001,1729475123353.0,0.0
-2.242075,-4.596612,6.245267,-13.02,-4.06,39.34,1729475123373.0,0.0
-4.56072,-11.657832,5.898308,-27.09,-6.02,35.420002,1729475123395.0,0.0
-3.311667,-11.315658,7.068398,24.15,7.49,7.28,1729475123415.0,0.0
-3.60359,-9.205189,5.479564,31.92,6.86,-17.15,1729475123432.0,0.0
-1.287339,-8.62134,6.723832,9.1,8.47,-18.83,1729475123454.0,0.0
-0.267996,-9.413363,5.67099,-30.450001,1.96,-34.02,1729475123474.0,0.0
-2.206182,-8.451449,5.321638,14.84,4.27,-37.799999,1729475123494.0,0.0
-2.057827,-8.059027,6.67119,30.380001,6.58,-33.599998,1729475123515.0,0.0
-0.421137,-5.465207,7.092326,12.11,5.25,-42.139999,1729475123533.0,0.0
-0.430708,-1.332802,5.374279,-1.89,7.21,-23.030001,1729475123553.0,0.0
-1.682154,-1.923829,5.443672,-13.93,8.26,1.82,1729475123574.0,0.0
-2.706282,-4.589434,6.687939,-40.110001,3.78,14.56,1729475123594.0,0.0
-4.362115,-7.668997,7.960921,-35.91,-12.39,19.6,1729475123615.0,0.0
-1.445265,-6.297909,9.166903,2.8,-3.5,30.380001,1729475123633.0,0.0
-0.739382,-4.106083,8.815158,30.73,-1.68,37.240002,1729475123654.0,0.0
-2.017149,-4.606184,7.709675,2.03,-9.73,43.189999,1729475123673.0,0.0
-4.208975,-9.171689,6.053841,-39.619999,-20.58,38.5,1729475123694.0,0.0
-3.479164,-10.554741,6.008378,-27.860001,-15.54,27.299999,1729475123715.0,0.0
-2.299503,-9.894321,5.833702,27.09,0.56,-2.03,1729475123733.0,0.0
-1.579263,-10.612168,5.960521,17.290001,4.69,-15.26,1729475123754.0,0.0
-1.435694,-10.392029,5.972485,18.200001,7.56,-33.040001,1729475123773.0,0.0
-1.48355,-8.819944,6.216553,39.689999,13.23,-40.040001,1729475123795.0,0.0
-1.981257,-8.738588,5.804988,33.950001,6.37,-49.139999,1729475123815.0,0.0
-1.117448,-8.25763,6.549156,36.400002,3.99,-52.009998,1729475123833.0,0.0
-0.512064,-4.737789,4.733003,47.18,8.26,-51.380001,1729475123853.0,0.0
-2.366502,-2.067399,6.094519,52.290001,18.27,-19.809999,1729475123874.0,0.0
-2.132005,-1.727618,6.017949,0.07,15.4,-25.34,1729475123900.0,0.0
-1.775474,-2.301895,6.051448,-39.549999,13.65,-1.96,1729475123915.0,0.0
-3.570091,-4.4674,7.427321,-30.870001,12.81,17.780001,1729475123934.0,0.0
-3.818945,-6.872187,8.149954,-39.689999,-0.56,16.030001,1729475123953.0,0.0
-1.76351,-8.173882,9.260223,-23.870001,-1.61,22.68,1729475123975.0,0.0
-0.497707,-7.135397,9.887143,10.92,-2.59,23.940001,1729475123995.0,0.0
-0.507278,-4.567898,8.846266,18.129999,-5.81,26.040001,1729475124014.0,0.0
-1.785046,-2.897708,8.140383,-8.89,-13.37,30.59,1729475124033.0,0.0
-3.833302,-6.525227,5.895915,-41.23,-26.67,41.790001,1729475124054.0,0.0
-3.117848,-9.690931,6.534799,-49.91,-37.869999,22.26,1729475124073.0,0.0
-2.268396,-7.546963,7.022934,3.15,-23.940001,20.65,1729475124094.0,0.0
-2.928815,-6.482157,6.534799,0.56,-25.549999,15.82,1729475124115.0,0.0
-2.708675,-5.709275,6.178268,-33.040001,-29.26,18.76,1729475124133.0,0.0
-3.254239,-7.37468,5.508278,-46.830002,-36.189999,16.379999,1729475124153.0,0.0
-2.462214,-8.386844,6.202196,-42.560001,-27.860001,8.12,1729475124173.0,0.0
-2.335395,-7.71446,6.946364,-20.790001,-24.5,10.85,1729475124194.0,0.0
-2.318645,-6.520442,7.798209,-6.86,-25.690001,15.68,1729475124214.0,0.0
-2.249253,-5.972485,8.032705,-35.209999,-34.369999,15.33,1729475124233.0,0.0
-1.957329,-6.494121,7.420143,-91.910004,-48.860001,14.14,1729475124253.0,0.0
-1.646262,-7.999206,6.343372,-147.770004,-63.490002,9.66,1729475124273.0,0.0
-1.229911,-9.851252,5.091926,-177.800003,-72.519997,9.66,1729475124294.0,0.0
-1.07677,-10.758131,3.888337,-193.899994,-67.550003,-12.18,1729475124314.0,0.0
-0.765703,-11.4018,2.17029,-207.899994,-55.790001,-25.690001,1729475124333.0,0.0
-0.492921,-12.921242,0.725025,-210.279999,-38.5,-39.200001,1729475124353.0,0.0
0.20339,-13.694124,0.045464,-178.430008,-5.95,-51.59,1729475124373.0,0.0
0.588634,-12.301501,-0.16989,-121.029999,23.17,-58.73,1729475124394.0,0.0
0.588634,-9.583255,-0.624527,-42.420002,69.090004,-67.620003,1729475124415.0,0.0
0.289532,-7.314859,-0.344566,-38.57,86.870003,-64.959999,1729475124432.0,0.0
0.174676,-6.252446,0.892523,-36.540001,95.059998,-53.970001,1729475124453.0,0.0
-0.184247,-5.680561,2.165504,-44.029999,93.660004,-35.98,1729475124473.0,0.0
-0.545564,-6.223732,2.115255,-34.720001,72.870003,-20.370001,1729475124494.0,0.0
-0.602991,-6.58744,2.806781,18.34,52.150002,5.67,1729475124515.0,0.0
-1.761117,-7.379465,6.180661,29.469999,32.130001,14.49,1729475124541.0,0.0
-2.907279,-11.107484,5.056034,-55.860001,-4.13,0.77,1729475124554.0,0.0
-2.600998,-16.752151,0.394816,-91.209999,-36.330002,-20.299999,1729475124573.0,0.0
-0.739382,-17.103895,-0.48335,-23.1,-27.65,-39.830002,1729475124594.0,0.0
0.124427,-11.736795,-0.464208,56.0,6.09,-51.170002,1729475124614.0,0.0
0.397209,-7.503892,0.416351,70.769997,26.809999,-60.900002,1729475124637.0,0.0
1.356731,-4.601398,2.579463,43.889999,35.279999,-54.25,1729475124663.0,0.0
2.160719,-3.996014,3.974478,-5.88,25.969999,-38.779999,1729475124765.0,0.0
1.89033,-7.465607,3.455236,-46.689999,2.03,-20.860001,1729475124765.0,0.0
0.770489,-9.207582,2.904887,21.42,-9.87,4.27,1729475124765.0,0.0
0.940379,-8.475377,1.761117,34.09,-14.42,3.64,1729475124766.0,0.0
1.404587,-9.24108,1.782653,25.27,-16.1,11.62,1729475124766.0,0.0
1.265803,-10.033106,2.053042,23.66,-8.61,14.35,1729475124785.0,0.0
1.031307,-10.293922,2.658426,28.210001,-4.69,11.76,1729475124796.0,0.0
1.246661,-9.597611,3.010171,28.42,-1.47,10.01,1729475124815.0,0.0
1.399801,-8.185846,2.218147,16.17,-0.56,13.02,1729475124836.0,0.0
0.935594,-8.525627,2.469393,17.85,-3.29,17.99,1729475124854.0,0.0
0.404387,-8.970692,3.759124,41.580002,-2.94,29.82,1729475124874.0,0.0
-0.543171,-8.755339,4.345366,54.810001,-5.46,33.110001,1729475124898.0,0.0
-0.897308,-8.800802,3.491128,39.549999,-14.63,29.960001,1729475124915.0,0.0
-0.514457,-9.377472,2.935993,20.16,-21.629999,33.810001,1729475124934.0,0.0
-0.770489,-10.363315,2.794817,15.82,-20.93,33.389999,1729475124954.0,0.0
-1.990828,-11.96172,2.258825,4.13,-15.190001,21.77,1729475124975.0,0.0
-1.330409,-11.344372,0.502493,-49.560001,6.44,-4.2,1729475124996.0,0.0
-1.612763,-12.894921,0.430708,-55.93,20.370001,-10.99,1729475125020.0,0.0
-1.136591,-13.79223,0.643669,-14.07,18.620001,-23.799999,1729475125035.0,0.0
-0.12682,-12.224932,2.041078,50.049999,32.060001,-34.509998,1729475125069.0,0.0
1.119841,-9.257831,1.698904,60.48,44.310001,-44.869999,1729475125082.0,0.0
1.036092,-7.822137,1.98365,-12.18,39.200001,-58.799999,1729475125105.0,0.0
0.524028,-9.327222,5.300103,-45.290001,6.51,-43.889999,1729475125118.0,0.0
2.055435,-6.750153,5.484349,22.610001,-5.88,-30.1,1729475125206.0,0.0
1.885544,-5.383851,5.20439,96.32,-9.31,-11.06,1729475125206.0,0.0
1.971686,-5.785845,5.024928,69.230003,-22.68,1.47,1729475125206.0,0.0
3.125026,-6.683154,4.194618,-4.62,-35.139999,11.76,1729475125206.0,0.0
2.782853,-7.599605,2.665605,-62.510002,-26.530001,15.47,1729475125253.0,0.0
0.818345,-8.987441,2.648855,-55.16,-3.92,23.450001,1729475125269.0,0.0
-0.502493,-8.786445,2.991028,-22.190001,13.79,30.380001,1729475125270.0,0.0
-1.20359,-7.709675,4.725825,-11.83,22.4,38.5,1729475125274.0,0.0
-0.411566,-6.563512,2.531606,-28.84,22.4,39.970001,1729475125295.0,0.0
0.234497,-6.726225,2.163112,-7.91,-0.7,58.869999,1729475125317.0,0.0
-4.323831,-16.108482,6.465407,-9.87,-16.799999,58.59,1729475125336.0,0.0
-3.366701,-14.347364,-0.014357,-61.740002,-30.1,15.68,1729475125355.0,0.0
-1.995614,-12.521641,-0.961915,-6.51,-16.799999,17.57,1729475125375.0,0.0
-2.277967,-11.461621,-1.024128,17.43,-6.37,5.04,1729475125396.0,0.0
-3.330809,-11.91147,0.952343,23.1,2.38,-7.14,1729475125448.0,0.0
-2.732604,-12.803994,4.316652,19.040001,7.28,-22.889999,1729475125451.0,0.0
-1.787439,-11.63869,4.582255,5.32,12.11,-35.560001,1729475125611.0,0.0
-1.603191,-10.322637,2.612962,-23.59,15.96,-58.450001,1729475125611.0,0.0
-1.081556,-9.341579,1.447658,-39.34,15.89,-59.220001,1729475125611.0,0.0
-0.055035,-10.973484,3.069991,-21.35,16.66,-69.300003,1729475125611.0,0.0
0.538385,-5.773881,2.785245,-39.48,26.6,-64.610001,1729475125612.0,0.0
1.545763,-4.699504,2.935993,8.33,23.379999,-46.830002,1729475125612.0,0.0
2.598605,-4.591826,3.907479,5.25,7.21,-24.710001,1729475125612.0,0.0
3.737589,-5.575277,4.811966,7.28,-1.54,5.11,1729475125612.0,0.0
3.474378,-4.68754,4.299902,0.56,-9.52,25.34,1729475125617.0,0.0
2.270789,-5.082355,3.393023,8.4,-10.64,49.279999,1729475125634.0,0.0
0.79681,-7.283752,2.871387,-24.360001,-17.57,66.919998,1729475125654.0,0.0
-0.641276,-10.162319,3.211168,-39.48,-37.66,81.269997,1729475125677.0,0.0
-3.098706,-15.172889,2.715853,-34.580002,-42.77,72.800003,1729475125697.0,0.0
-4.510471,-17.343178,-0.473779,-48.93,-50.959999,37.099998,1729475125718.0,0.0
-3.720839,-17.47957,-2.019542,-9.87,-19.6,20.370001,1729475125735.0,0.0
-2.433501,-13.466805,-2.423929,6.72,11.41,-13.02,1729475125754.0,0.0
-2.37368,-12.593425,0.820738,23.73,39.27,-17.710001,1729475125775.0,0.0
-1.574477,-11.980864,2.778067,-5.6,43.119999,-44.869999,1729475125796.0,0.0
-1.040878,-10.863414,0.849452,-56.84,39.970001,-64.610001,1729475125817.0,0.0
-1.09352,-8.903693,-0.122034,-54.599998,39.34,-66.43,1729475125835.0,0.0
0.839881,-10.715059,3.141776,52.220001,24.57,-56.349998,1729475125855.0,0.0
1.823331,-3.828516,5.599205,81.129997,18.690001,-59.849998,1729475125876.0,0.0
3.309274,-0.540778,6.216553,125.860001,11.48,-20.02,1729475125900.0,0.0
3.225525,-2.641676,5.905487,60.200001,-8.47,6.72,1729475125916.0,0.0
2.048256,-5.168497,2.98385,-57.400002,-22.33,21.35,1729475125934.0,0.0
1.421337,-8.405986,1.885544,-68.040001,-33.32,47.459999,1729475125956.0,0.0
0.995414,-9.06162,1.78026,-15.4,-28.559999,58.59,1729475125975.0,0.0
-2.215754,-10.430314,2.854637,35.209999,-31.290001,68.18,1729475125997.0,0.0
-4.534399,-12.782458,2.225325,24.639999,-30.24,67.059998,1729475126016.0,0.0
-5.381458,-16.01277,0.464208,-38.5,-33.880001,30.030001,1729475126037.0,0.0
-2.940779,-13.959727,-2.043471,-93.029999,-17.92,-6.37,1729475126057.0,0.0
-0.535992,-10.547562,-0.957129,-47.389999,12.25,-8.89,1729475126074.0,0.0
-0.332602,-9.729217,0.985843,-46.900002,28.559999,-19.389999,1729475126096.0,0.0
-0.648455,-10.528419,-0.736989,-105.559998,33.599998,-26.950001,1729475126116.0,0.0
-0.854238,-13.239488,-2.816352,-120.470001,39.41,-37.869999,1729475126134.0,0.0
-0.617348,-13.847265,-3.960121,-64.190002,52.009998,-42.209999,1729475126155.0,0.0
0.681954,-13.438091,1.689333,113.260002,54.740002,-32.48,1729475126174.0,0.0
-0.031107,-5.515456,7.243074,161.630005,66.779999,-49.630001,1729475126195.0,0.0
0.488136,-0.284746,9.652647,149.169998,41.650002,-28.210001,1729475126216.0,0.0
1.639083,-1.430908,7.52782,59.709999,-9.87,-10.15,1729475126234.0,0.0
2.163112,-2.991028,2.9671,-57.540001,-36.959999,11.55,1729475126254.0,0.0
1.854438,-6.881758,0.497707,-56.91,-39.34,51.66,1729475126275.0,0.0
0.775275,-10.758131,0.993021,-12.74,-34.23,69.510002,1729475126295.0,0.0
-3.28056,-15.158531,3.282953,28.139999,-23.870001,71.120003,1729475126315.0,0.0
-4.158726,-14.344972,0.205783,20.58,-12.67,45.290001,1729475126335.0,0.0
-3.988836,-14.49572,-0.859023,-1.96,1.05,13.16,1729475126354.0,0.0
-3.220739,-12.464212,-1.320838,-28.91,16.940001,-12.25,1729475126374.0,0.0
-1.596013,-12.988241,2.163112,24.639999,26.67,-18.549999,1729475126397.0,0.0
-1.17009,-11.557333,2.56032,10.78,34.16,-45.150002,1729475126416.0,0.0
-1.830509,-10.214959,0.232104,-46.759998,44.799999,-55.860001,1729475126433.0,0.0
-1.646262,-9.372685,-1.476372,-84.840004,49.07,-63.209999,1729475126456.0,0.0
0.586242,-12.870994,2.988636,-29.26,32.970001,-57.610001,1729475126474.0,0.0
2.617748,-5.52742,4.280759,43.330002,22.960001,-54.950001,1729475126496.0,0.0
3.048456,-1.481157,6.180661,116.550003,40.389999,-29.75,1729475126517.0,0.0
1.739582,-3.046063,8.4347,62.23,5.39,-2.38,1729475126534.0,0.0
0.547956,-4.541577,4.249653,-43.68,-31.92,17.780001,1729475126554.0,0.0
0.997807,-6.876972,1.306481,-47.599998,-45.709999,40.880001,1729475126582.0,0.0
1.718047,-7.848458,1.368695,-4.48,-46.48,64.470001,1729475126595.0,0.0
-0.303888,-12.782458,1.627119,38.150002,-35.279999,74.410004,1729475126616.0,0.0
-3.474378,-13.634303,0.933201,1.4,-43.75,51.099998,1729475126636.0,0.0
-3.498307,-15.3691,-1.931008,10.43,-19.040001,45.080002,1729475126654.0,0.0
-2.9671,-14.356936,-2.847459,-54.040001,11.34,-20.02,1729475126675.0,0.0
-2.306681,-14.711074,0.61017,24.08,34.580002,-28.0,1729475126696.0,0.0
-1.677369,-10.380065,1.342373,20.790001,54.389999,-58.66,1729475126715.0,0.0
-0.918844,-7.580462,0.354138,-31.780001,56.630001,-58.939999,1729475126735.0,0.0
0.038285,-7.592427,2.347359,-65.169998,38.009998,-54.670002,1729475126755.0,0.0
0.76331,-10.817951,4.007978,-20.719999,18.27,-44.73,1729475126775.0,0.0
0.81356,-6.520442,5.058427,46.34,16.59,-45.849998,1729475126798.0,0.0
0.902094,-3.797409,6.252446,80.080002,5.04,-28.77,1729475126817.0,0.0
1.430908,-4.386044,6.367301,33.529999,-29.68,-5.18,1729475126835.0,0.0
2.033899,-4.412365,3.371487,-36.119999,-44.939999,15.190001,1729475126855.0,0.0
1.904687,-6.034698,1.09352,-37.66,-45.080002,46.48,1729475126877.0,0.0
1.328017,-8.01117,0.655633,-28.07,-37.66,59.639999,1729475126900.0,0.0
-0.571885,-9.781858,0.713061,-9.59,-29.540001,73.150002,1729475126917.0,0.0
-3.979264,-16.393229,3.39063,8.75,-28.0,70.980003,1729475126936.0,0.0
-4.012764,-15.873986,-1.067199,11.55,-6.93,33.32,1729475126957.0,0.0
-2.632105,-14.742181,-2.268396,-9.52,8.05,-6.09,1729475126975.0,0.0
-2.091327,-12.586248,-1.744368,12.32,26.25,-21.42,1729475126999.0,0.0
-1.727618,-12.354142,1.679761,63.420002,38.290001,-28.0,1729475127018.0,0.0
-1.730011,-12.076575,3.598805,41.369999,36.68,-49.07,1729475127036.0,0.0
-1.172483,-10.181459,2.957529,-40.529999,33.389999,-70.279999,1729475127058.0,0.0
-0.55992,-8.886944,0.239282,-97.720001,28.559999,-79.449997,1729475127078.0,0.0
0.811167,-10.875379,1.316052,-50.470001,19.809999,-64.68,1729475127099.0,0.0
2.050649,-6.070591,4.498507,40.32,12.46,-62.650002,1729475127119.0,0.0
2.603391,-1.481157,6.436693,135.520004,22.33,-32.27,1729475127136.0,0.0
2.115255,-2.443072,8.539984,103.389999,2.31,-2.8,1729475127158.0,0.0
1.244268,-3.498307,5.194818,-42.0,-33.389999,16.940001,1729475127177.0,0.0
1.227518,-6.680761,2.495714,-87.220001,-50.68,40.880001,1729475127199.0,0.0
1.641476,-8.425128,1.122234,-62.580002,-54.110001,56.84,1729475127218.0,0.0
-1.251446,-14.026726,1.76351,-12.32,-46.689999,72.309998,1729475127236.0,0.0
-2.919244,-13.737194,-1.622334,-6.3,-33.880001,53.619999,1729475127257.0,0.0
-4.395615,-16.445869,-2.237289,2.59,-14.14,36.400002,1729475127277.0,0.0
-3.689733,-16.297516,-2.59382,-7.77,8.26,-9.1,1729475127302.0,0.0
-2.304288,-13.533805,-0.629312,29.68,32.970001,-27.02,1729475127317.0,0.0
-1.270589,-12.330215,2.079363,53.48,43.470001,-49.349998,1729475127336.0,0.0
-0.471386,-9.320045,2.335395,-9.31,43.119999,-64.610001,1729475127358.0,0.0
0.045464,-8.362915,0.973879,-61.389999,40.18,-65.800003,1729475127376.0,0.0
0.825524,-7.707282,1.847259,-63.279999,35.349998,-58.799999,1729475127399.0,0.0
1.385444,-7.948956,3.895515,1.96,17.92,-52.220001,1729475127418.0,0.0
1.574477,-4.941179,5.570491,72.590004,18.129999,-35.700001,1729475127436.0,0.0
2.163112,-3.45045,6.537192,73.5,-1.33,-17.85,1729475127457.0,0.0
1.832902,-3.799802,5.187639,-3.99,-29.610001,7.0,1729475127479.0,0.0
2.239682,-5.067998,2.462214,-37.52,-43.68,34.720001,1729475127498.0,0.0
2.050649,-5.95095,1.174876,-23.24,-42.700001,56.490002,1729475127517.0,0.0
0.916451,-8.152347,0.801596,0.42,-34.720001,78.330002,1729475127538.0,0.0
-2.526821,-14.053047,2.222932,-3.43,-35.0,89.739998,1729475127556.0,0.0
-4.579862,-17.324036,-0.387637,-22.120001,-24.780001,62.790001,1729475127576.0,0.0
-3.694518,-16.826328,-2.531606,-31.639999,9.66,11.27,1729475127598.0,0.0
-2.531606,-14.603395,-1.361516,-4.9,28.77,-17.710001,1729475127618.0,0.0
-1.524228,-13.189239,1.146162,39.060001,41.790001,-39.41,1729475127636.0,0.0
-0.978664,-10.119246,1.545763,-7.49,47.529999,-57.260002,1729475127658.0,0.0
-0.26321,-8.671589,0.586242,-70.07,47.459999,-64.540001,1729475127676.0,0.0
0.775275,-10.229317,1.89033,-60.760002,37.799999,-54.040001,1729475127697.0,0.0
1.473979,-8.355737,3.775874,10.71,21.559999,-52.990002,1729475127719.0,0.0
1.67019,-4.95075,5.804988,109.550003,28.280001,-32.130001,1729475127737.0,0.0
1.536192,-3.553342,8.12124,100.870003,3.15,-14.21,1729475127756.0,0.0
2.232504,-1.495514,5.288138,19.18,-25.059999,10.57,1729475127778.0,0.0
2.048256,-3.175276,3.086741,-27.65,-40.18,44.029999,1729475127797.0,0.0
1.232304,-6.867401,1.155733,-54.810001,-43.68,64.68,1729475127820.0,0.0
-0.299103,-11.217552,-0.509671,-52.43,-44.240002,85.68,1729475127838.0,0.0
-3.098706,-14.610575,-0.397209,-39.970001,-39.549999,73.709999,1729475127858.0,0.0
-4.481757,-16.783258,-1.440479,-16.870001,-10.15,54.950001,1729475127876.0,0.0
-3.871587,-17.204393,-3.797409,-35.420002,5.11,9.87,1729475127900.0,0.0
-2.179861,-15.371492,-1.162912,4.76,28.49,-35.07,1729475127917.0,0.0
-0.851845,-12.559926,1.320838,43.189999,50.330002,-61.32,1729475127936.0,0.0
-0.236889,-9.030513,1.641476,12.39,50.68,-75.529999,1729475127957.0,0.0
0.569492,-8.219346,2.529213,-8.26,43.470001,-74.690002,1729475127977.0,0.0
1.567299,-6.518049,2.840281,-16.379999,35.560001,-63.490002,1729475127998.0,0.0
2.005185,-4.807181,5.099105,25.129999,22.889999,-47.25,1729475128018.0,0.0
2.368894,-2.646462,5.386244,43.189999,7.21,-27.51,1729475128036.0,0.0
1.871187,-4.761717,5.965307,14.49,-17.43,2.87,1729475128057.0,0.0
0.662812,-6.419943,3.524628,-58.099998,-46.759998,18.059999,1729475128076.0,0.0
1.272982,-6.302694,0.851845,-44.099998,-53.060001,38.990002,1729475128097.0,0.0
2.0004,-6.333801,-0.174676,-7.56,-48.93,59.43,1729475128117.0,0.0
-0.200997,-10.226924,0.337388,-14.35,-44.869999,76.230003,1729475128138.0,0.0
-2.505285,-14.249258,-2.608176,-18.48,-31.5,71.959999,1729475128156.0,0.0
-4.85743,-18.443878,-1.134198,-17.43,-19.110001,45.009998,1729475128178.0,0.0
-3.859623,-16.998611,-2.352145,-9.45,7.21,5.46,1729475128199.0,0.0
-2.213361,-13.007384,-2.256432,11.76,29.469999,-23.1,1729475128218.0,0.0
-1.294517,-12.583855,1.09352,48.16,35.490002,-37.450001,1729475128239.0,0.0
-0.241675,-11.01177,1.883151,23.379999,30.309999,-56.84,1729475128256.0,0.0
-0.251246,-10.217353,0.854238,-24.290001,28.35,-69.440002,1729475128278.0,0.0
0.775275,-8.630912,0.366102,-36.119999,29.190001,-66.57,1729475128297.0,0.0
1.643869,-6.76451,2.768496,4.69,23.73,-60.27,1729475128325.0,0.0
1.749153,-5.067998,5.024928,50.68,22.4,-45.220001,1729475128336.0,0.0
1.761117,-3.826123,6.838687,49.209999,3.64,-24.43,1729475128356.0,0.0
0.789631,-4.953143,6.558727,2.59,-23.940001,-0.14,1729475128376.0,0.0
1.287339,-4.431508,3.550949,-47.25,-49.349998,16.870001,1729475128397.0,0.0
1.806581,-5.182854,1.103091,-37.52,-54.670002,47.740002,1729475128417.0,0.0
2.062613,-7.267002,-0.136391,-25.76,-51.099998,66.290001,1729475128436.0,0.0
-0.212961,-11.05484,-0.859023,-32.130001,-44.799999,82.18,1729475128457.0,0.0
-2.26361,-13.610376,-3.278167,-13.37,-20.440001,74.830002,1729475128478.0,0.0
-4.893322,-19.613966,-0.547956,9.94,-0.14,55.580002,1729475128499.0,0.0
-3.57727,-17.611174,-2.309074,-14.63,10.85,-2.03,1729475128519.0,0.0
-1.557728,-13.304093,-1.545763,16.450001,31.710001,-18.76,1729475128535.0,0.0
-0.337388,-12.823137,0.672383,43.959999,36.259998,-45.43,1729475128556.0,0.0
-0.007178,-11.399406,0.471386,7.56,33.599998,-58.310001,1729475128577.0,0.0
0.270389,-8.346166,0.758525,-18.129999,37.099998,-74.900002,1729475128598.0,0.0
0.870987,-8.623734,3.292524,32.689999,33.950001,-61.110001,1729475128618.0,0.0
0.976272,-5.596812,4.582255,33.740002,27.93,-64.190002,1729475128636.0,0.0
1.012164,-4.072584,6.101698,29.469999,11.83,-40.110001,1729475128657.0,0.0
2.132005,-4.086941,4.929214,5.81,-22.33,-18.27,1729475128682.0,0.0
1.866402,-4.974678,3.749553,-20.93,-40.32,13.86,1729475128698.0,0.0
1.70369,-4.486543,2.100898,-22.049999,-47.459999,38.639999,1729475128717.0,0.0
1.85683,-5.245068,0.397209,-13.09,-45.360001,60.760002,1729475128736.0,0.0
0.70349,-9.913465,0.021535,-25.83,-45.220001,83.300003,1729475128757.0,0.0
-1.153341,-13.18206,-2.725425,-50.470001,-41.509998,77.840004,1729475128776.0,0.0
-2.964707,-17.283358,-3.407379,-7.7,-4.76,68.459999,1729475128798.0,0.0
-3.622734,-19.807787,-0.363709,13.79,14.77,27.02,1729475128817.0,0.0
-2.672783,-14.648861,-0.679562,2.17,32.34,-18.690001,1729475128837.0,0.0
-1.514657,-13.03849,1.105484,33.110001,39.41,-36.330002,1729475128856.0,0.0
-0.416351,-12.064612,0.803988,-9.31,35.279999,-62.02,1729475128876.0,0.0
0.416351,-8.690732,0.555135,-33.950001,32.759998,-67.410004,1729475128901.0,0.0
0.9667,-8.429914,3.270989,46.970001,40.810001,-54.25,1729475128918.0,0.0
1.17009,-4.520042,4.297509,44.380001,28.700001,-55.02,1729475128936.0,0.0
1.349552,-3.156133,5.584848,30.73,12.6,-29.33,1729475128957.0,0.0
1.928615,-4.986642,5.087141,-5.46,-22.889999,-6.02,1729475128979.0,0.0
1.744368,-6.403193,3.326023,-42.560001,-44.799999,16.73,1729475128998.0,0.0
1.840081,-5.998806,1.409373,-26.460001,-47.670002,39.27,1729475129019.0,0.0
1.808974,-5.556134,-0.294317,-6.02,-42.700001,58.799999,1729475129038.0,0.0
0.33021,-9.784252,-0.394816,-12.18,-37.73,77.980003,1729475129058.0,0.0
-1.79701,-13.74198,-2.868994,-39.619999,-28.630001,71.050003,1729475129077.0,0.0
-4.04387,-18.96312,-1.320838,-3.64,3.29,54.459999,1729475129100.0,0.0
-3.474378,-18.285952,0.681954,-2.66,7.35,4.55,1729475129118.0,0.0
-1.538585,-12.595818,0.157926,5.6,27.790001,-23.1,1729475129137.0,0.0
-0.612563,-11.700903,0.744168,14.42,24.85,-43.189999,1729475129159.0,0.0
0.035892,-11.181661,0.306281,-14.0,17.780001,-55.860001,1729475129177.0,0.0
0.55992,-9.889536,0.258425,-15.61,21.210001,-56.91,1729475129198.0,0.0
0.741775,-7.573284,-0.081356,0.21,31.710001,-53.760002,1729475129220.0,0.0
1.440479,-6.888937,1.823331,23.940001,24.08,-51.099998,1729475129238.0,0.0
1.308874,-6.759724,3.799802,30.24,23.799999,-37.939999,1729475129257.0,0.0
1.289732,-6.436693,4.587041,3.57,3.29,-32.27,1729475129277.0,0.0
2.019542,-6.865008,3.893122,-4.55,-20.09,-14.0,1729475129298.0,0.0
1.868794,-7.123433,3.251846,-8.12,-31.92,2.59,1729475129321.0,0.0
1.866402,-5.436492,1.868794,-0.91,-37.939999,22.190001,1729475129339.0,0.0
2.002793,-5.032106,0.27996,10.43,-36.049999,44.380001,1729475129358.0,0.0
1.478764,-6.805188,-0.461815,1.33,-32.34,64.400002,1729475129377.0,0.0
-0.550349,-11.641083,-0.636491,-16.379999,-24.780001,74.620003,1729475129405.0,0.0
-2.292324,-14.938391,-1.469193,-27.440001,-7.07,60.48,1729475129420.0,0.0
-2.998207,-17.359928,0.234497,-33.040001,8.61,33.810001,1729475129437.0,0.0
-1.835295,-13.825729,-1.225125,-46.549999,18.27,0.21,1729475129457.0,0.0
-1.45005,-13.72523,-0.40678,-10.57,27.790001,-14.77,1729475129476.0,0.0
-1.39023,-14.309079,-0.299103,-19.110001,28.139999,-41.09,1729475129499.0,0.0
-0.413958,-11.404193,-1.189233,-41.369999,27.93,-54.740002,1729475129519.0,0.0
1.591227,-9.832108,1.095913,26.530001,34.93,-54.040001,1729475129537.0,0.0
2.043471,-6.281159,3.538985,41.299999,32.27,-54.810001,1729475129556.0,0.0
2.261217,-4.24726,4.240082,51.170002,20.51,-37.240002,1729475129577.0,0.0
2.553142,-4.414758,3.945765,34.16,-6.65,-13.72,1729475129598.0,0.0
1.619941,-5.931807,3.349952,2.87,-24.360001,13.02,1729475129619.0,0.0
1.177269,-5.771489,1.823331,-1.68,-33.32,29.33,1729475129636.0,0.0
1.129412,-5.816952,0.550349,10.5,-32.130001,51.380001,1729475129656.0,0.0
1.036092,-8.039884,0.320638,12.6,-32.549999,69.860001,1729475129743.0,0.0
-0.327817,-10.411172,-1.148555,-10.99,-31.219999,75.32,1729475129744.0,0.0
-2.043471,-14.47897,-0.734596,-6.09,-9.94,72.309998,1729475129745.0,0.0
-3.361916,-18.38645,-0.674776,-40.040001,-15.33,30.52,1729475129752.0,0.0
-2.610569,-17.213966,-1.61037,-26.040001,2.52,4.06,1729475129757.0,0.0
-1.191626,-12.751352,-1.495514,12.81,24.639999,-22.049999,1729475129777.0,0.0
-0.976272,-11.693724,0.51685,26.950001,33.810001,-35.560001,1729475129797.0,0.0
-0.358923,-10.554741,0.648455,-6.23,31.08,-48.299999,1729475129818.0,0.0
0.105284,-9.982857,0.574277,-20.93,32.34,-54.880001,1729475129837.0,0.0
1.105484,-8.200203,1.875973,-20.65,33.110001,-49.630001,1729475129857.0,0.0
1.914258,-5.905487,3.184847,16.66,14.21,-40.389999,1729475129877.0,0.0
1.969293,-4.508078,4.505685,46.689999,8.82,-14.07,1729475129900.0,0.0
0.985843,-6.551548,5.443672,5.95,-15.82,-1.05,1729475129918.0,0.0
0.830309,-7.499106,2.567499,-53.760002,-41.580002,9.03,1729475129937.0,0.0
1.385444,-7.274181,0.145962,-48.02,-47.810001,30.1,1729475129957.0,0.0
1.29691,-7.980063,-0.897308,-22.610001,-42.98,38.990002,1729475129976.0,0.0
0.555135,-8.831908,-1.531406,1.05,-36.68,50.82,1729475129998.0,0.0
-1.01695,-10.514063,-3.069991,24.710001,-17.43,63.560001,1729475130018.0,0.0
-4.144369,-17.151752,-0.366102,19.950001,2.73,45.990002,1729475130037.0,0.0
-3.65384,-18.376879,-0.514457,-13.93,-0.14,-3.43,1729475130057.0,0.0
-0.902094,-13.033704,-1.184447,15.47,21.139999,-12.32,1729475130077.0,0.0
0.124427,-11.899508,0.531207,40.110001,33.459999,-36.610001,1729475130097.0,0.0
-0.145962,-11.215159,0.33021,-13.09,27.860001,-49.07,1729475130118.0,0.0
0.380459,-10.834702,0.045464,-18.9,30.66,-51.66,1729475130137.0,0.0
0.787239,-8.769694,1.071985,1.12,33.950001,-50.119999,1729475130157.0,0.0
1.055235,-6.726225,2.07697,19.879999,28.84,-45.779999,1729475130177.0,0.0
1.301696,-4.496114,3.725625,39.900002,23.24,-32.27,1729475130197.0,0.0
1.359123,-6.400801,5.020142,7.35,-11.27,-1.54,1729475130217.0,0.0
1.071985,-7.829315,3.519842,-41.23,-33.110001,8.12,1729475130237.0,0.0
1.287339,-6.89133,1.215554,-29.469999,-39.41,25.9,1729475130259.0,0.0
1.562513,-6.02752,-0.51685,-9.03,-37.66,43.610001,1729475130278.0,0.0
0.502493,-9.186047,-0.87338,-11.48,-35.84,57.330002,1729475130298.0,0.0
-0.981057,-12.3685,-2.352145,-6.23,-24.43,62.790001,1729475130318.0,0.0
-3.208775,-17.508284,-1.222732,-1.19,0.28,44.66,1729475130338.0,0.0
-2.964707,-17.570496,-1.316052,-28.559999,2.38,-5.81,1729475130356.0,0.0
-0.677169,-13.160524,-1.071985,11.48,26.530001,-16.870001,1729475130379.0,0.0
0.258425,-11.655439,-0.074178,26.6,33.110001,-43.330002,1729475130398.0,0.0
0.512064,-10.9352,0.777667,10.57,28.700001,-48.790001,1729475130419.0,0.0
0.870987,-8.810372,1.74676,9.17,31.15,-50.049999,1729475130438.0,0.0
1.129412,-7.800602,2.775674,31.360001,28.77,-46.060001,1729475130458.0,0.0
0.897308,-4.9675,3.488736,13.3,20.23,-42.98,1729475130477.0,0.0
1.062413,-4.998606,2.610569,2.03,0.21,-19.530001,1729475130498.0,0.0
0.832702,-7.51107,2.679961,-17.5,-19.18,0.56,1729475130517.0,0.0
1.359123,-6.563512,1.031307,-21.07,-30.24,28.07,1729475130539.0,0.0
1.438086,-5.60399,-0.478565,2.87,-28.42,41.369999,1729475130556.0,0.0
0.272782,-9.51147,-0.275175,-7.28,-27.51,57.330002,1729475130576.0,0.0
-0.825524,-11.619547,-2.880959,-31.92,-23.59,59.010002,1729475130597.0,0.0
-2.512464,-15.74238,-1.706082,-17.290001,1.89,50.68,1729475130619.0,0.0
-2.938386,-16.991434,-1.062413,-36.68,10.85,6.23,1729475130638.0,0.0
-1.229911,-15.24228,-0.217747,-36.68,23.52,-10.92,1729475130658.0,0.0
-0.040678,-14.270795,1.167697,36.540001,25.83,-36.470001,1729475130678.0,0.0
-0.031107,-11.60519,0.567099,8.33,24.219999,-60.27,1729475130697.0,0.0
0.677169,-8.252845,-0.605384,3.92,26.67,-62.02,1729475130728.0,0.0
2.050649,-6.903293,3.184847,49.07,27.93,-51.66,1729475130737.0,0.0
2.024328,-2.955136,4.127619,34.02,24.639999,-36.470001,1729475130758.0,0.0
1.014557,-4.476971,4.800002,19.040001,8.4,-10.22,1729475130777.0,0.0
-0.327817,-8.157133,3.711268,-44.939999,-21.98,5.11,1729475130798.0,0.0
0.196211,-8.592626,1.191626,-58.799999,-38.360001,14.91,1729475130818.0,0.0
1.227518,-7.006185,-0.160319,-11.9,-33.529999,31.01,1729475130837.0,0.0
1.356731,-7.862815,-0.095713,16.17,-21.77,45.849998,1729475130856.0,0.0
-0.251246,-9.200402,-1.253839,0.77,-19.32,73.639999,1729475130877.0,0.0
-2.749353,-14.833108,-1.70369,-20.23,-2.24,67.059998,1729475130902.0,0.0
-4.460221,-20.444277,-0.655633,-64.050003,-6.3,15.89,1729475130922.0,0.0
-1.251446,-15.957734,-2.598605,-35.77,8.68,-12.53,1729475130937.0,0.0
0.31346,-12.973885,-0.457029,48.93,25.9,-34.439999,1729475130960.0,0.0
-0.308674,-11.607583,0.349352,40.040001,31.219999,-51.73,1729475130978.0,0.0
-0.105284,-9.875179,0.449851,9.73,27.02,-58.240002,1729475131000.0,0.0
1.064806,-8.77448,1.502693,16.59,27.440001,-54.880001,1729475131021.0,0.0
1.143769,-6.501299,2.940779,27.790001,25.059999,-51.939999,1729475131039.0,0.0
0.698704,-4.496114,3.996014,23.379999,21.210001,-38.080002,1729475131058.0,0.0
1.019342,-5.036892,4.005585,9.59,-1.82,-14.28,1729475131078.0,0.0
1.172483,-6.355337,3.364309,-25.059999,-26.74,7.7,1729475131099.0,0.0
1.380659,-6.276374,1.694118,-30.450001,-36.470001,28.0,1729475131119.0,0.0
1.194018,-5.608776,-0.112463,-18.27,-35.490002,45.709999,1729475131138.0,0.0
0.490529,-8.592626,-0.650848,-10.36,-30.52,71.260002,1729475131158.0,0.0
-0.653241,-10.805987,-2.85703,-16.24,-23.24,81.129997,1729475131180.0,0.0
-3.34038,-17.127825,-2.708675,-17.92,-1.4,69.160004,1729475131200.0,0.0
-4.656433,-21.511477,-0.777667,-32.41,-2.31,14.21,1729475131220.0,0.0
-1.428515,-15.318851,-1.392623,-8.82,13.72,-14.35,1729475131237.0,0.0
-0.011964,-12.351749,-0.339781,31.57,27.09,-41.09,1729475131258.0,0.0
-0.160319,-11.703296,-0.342174,4.9,30.59,-58.240002,1729475131278.0,0.0
-0.083749,-10.686346,-0.160319,-2.17,29.120001,-61.740002,1729475131300.0,0.0
0.744168,-8.250452,1.552942,40.040001,38.150002,-52.849998,1729475131321.0,0.0
0.815953,-6.886543,3.742374,72.379997,34.09,-45.639999,1729475131336.0,0.0
0.887737,-4.144369,4.132405,45.150002,25.83,-42.349998,1729475131357.0,0.0
1.002593,-3.701697,4.039084,13.93,6.72,-15.4,1729475131379.0,0.0
1.246661,-6.721439,3.964907,-18.41,-20.440001,5.39,1729475131398.0,0.0
0.882952,-7.963314,2.632105,-41.860001,-32.48,22.960001,1729475131418.0,0.0
1.301696,-7.018148,0.547956,-21.77,-35.07,36.540001,1729475131440.0,0.0
1.572084,-6.441479,-0.935594,-9.31,-32.130001,51.869999,1729475131457.0,0.0
-0.490529,-11.270195,-2.323431,-15.47,-29.610001,68.32,1729475131476.0,0.0
-2.900101,-16.316658,-3.34038,-20.440001,-4.41,56.84,1729475131499.0,0.0
-4.079762,-19.436897,-1.067199,-16.66,6.79,15.190001,1729475131520.0,0.0
-1.998007,-14.830715,-0.937986,-2.94,24.08,-19.950001,1729475131537.0,0.0
-0.81356,-12.356536,1.012164,30.940001,28.210001,-41.02,1729475131558.0,0.0
-0.33021,-11.313265,1.895115,31.290001,21.07,-55.439999,1729475131578.0,0.0
0.11007,-9.662218,0.602991,-3.78,14.7,-63.700001,1729475131598.0,0.0
0.880559,-8.556733,0.595813,6.37,17.43,-57.68,1729475131617.0,0.0
1.198804,-7.209574,2.007578,28.77,17.5,-50.959999,1729475131636.0,0.0
1.323231,-4.630112,2.895315,30.030001,18.76,-39.130001,1729475131658.0,0.0
1.268196,-4.725825,3.742374,17.08,6.02,-16.52,1729475131679.0,0.0
1.138984,-6.678369,3.708875,-18.76,-19.18,5.88,1729475131700.0,0.0
1.237089,-7.025328,1.962115,-40.880001,-34.369999,23.799999,1729475131719.0,0.0
1.40698,-6.233303,0.354138,-24.290001,-37.799999,41.509998,1729475131737.0,0.0
1.495514,-6.398407,-1.332802,-10.99,-32.830002,57.68,1729475131757.0,0.0
0.172283,-10.241282,-1.801795,-22.33,-33.389999,71.120003,1729475131777.0,0.0
-1.548156,-14.924035,-4.103691,-18.969999,-16.17,66.150002,1729475131797.0,0.0
-3.869194,-19.872393,-0.071785,12.39,15.26,39.48,1729475131818.0,0.0
-1.947758,-14.727824,-0.208176,28.42,31.219999,-22.120001,1729475131837.0,0.0
-0.600598,-12.435498,1.055235,50.610001,32.970001,-42.700001,1729475131859.0,0.0
0.095713,-10.947165,0.777667,28.0,24.15,-60.689999,1729475131879.0,0.0
0.09332,-10.585848,1.363909,28.84,22.889999,-60.900002,1729475131902.0,0.0
0.349352,-8.38445,0.5001,27.790001,26.950001,-61.599998,1729475131918.0,0.0
0.856631,-6.951149,1.404587,30.030001,28.07,-58.52,1729475131938.0,0.0
0.947558,-6.443871,2.837888,24.85,30.24,-48.299999,1729475131956.0,0.0
0.380459,-6.501299,4.701896,-14.35,21.559999,-36.470001,1729475131978.0,0.0
0.765703,-6.692725,4.575077,-37.170002,-3.08,-24.290001,1729475131998.0,0.0
1.306481,-6.948757,4.168297,-21.35,-24.5,-8.33,1729475132018.0,0.0
1.660619,-5.000999,2.928815,-3.71,-35.560001,12.74,1729475132037.0,0.0
1.61037,-3.854837,1.205983,4.69,-39.900002,40.040001,1729475132058.0,0.0
1.775474,-5.058427,-0.239282,-18.34,-39.48,59.849998,1729475132078.0,0.0
1.129412,-8.901299,-1.136591,-38.290001,-39.900002,82.529999,1729475132097.0,0.0
-1.426122,-14.287544,-2.59382,-60.619999,-28.84,77.559998,1729475132118.0,0.0
-3.388237,-18.984655,-2.452643,-33.810001,-4.97,55.02,1729475132136.0,0.0
-1.502693,-15.397814,-0.973879,-6.44,8.75,-6.93,1729475132159.0,0.0
-0.830309,-12.248858,-0.753739,7.91,27.93,-22.75,1729475132176.0,0.0
-0.784846,-11.45205,0.538385,2.52,24.99,-42.77,1729475132197.0,0.0
-0.349352,-10.777272,1.323231,-15.33,20.23,-49.139999,1729475132221.0,0.0
0.26321,-8.420342,0.145962,-10.85,21.91,-48.09,1729475132236.0,0.0
0.550349,-7.80778,0.823131,16.24,22.82,-42.91,1729475132256.0,0.0
0.588634,-6.01077,1.270589,19.67,20.790001,-30.66,1729475132276.0,0.0
0.507278,-4.831109,2.931208,13.72,15.96,-13.440001,1729475132297.0,0.0
0.650848,-5.991628,4.197011,-10.43,-5.04,5.04,1729475132319.0,0.0
0.581456,-7.963314,3.180061,-59.360001,-29.610001,14.84,1729475132339.0,0.0
0.717847,-7.865208,1.363909,-59.639999,-41.16,28.700001,1729475132356.0,0.0
1.239482,-6.309873,-0.555135,-26.880001,-43.119999,44.52,1729475132376.0,0.0
1.646262,-8.001599,-2.081756,-9.87,-42.490002,63.630001,1729475132400.0,0.0
-0.492921,-13.722836,-3.771089,-45.220001,-37.869999,67.900002,1729475132419.0,0.0
-2.904887,-19.602003,-4.074977,-43.470001,-10.01,42.84,1729475132438.0,0.0
-1.880759,-18.460627,-2.15354,-26.110001,7.98,-1.4,1729475132456.0,0.0
-0.143569,-12.516854,-1.198804,12.74,31.290001,-23.309999,1729475132476.0,0.0
-0.057428,-10.691131,0.961915,15.96,34.02,-48.09,1729475132497.0,0.0
0.224925,-9.896714,0.007178,-16.66,23.309999,-47.880001,1729475132519.0,0.0
0.746561,-8.169096,-1.612763,-8.19,27.440001,-44.939999,1729475132536.0,0.0
0.899701,-8.547162,0.605384,35.98,30.309999,-32.970001,1729475132556.0,0.0
0.428315,-7.752745,2.0004,36.049999,29.75,-30.17,1729475132577.0,0.0
-0.141177,-7.958528,3.105884,15.190001,20.790001,-23.870001,1729475132597.0,0.0
0.387637,-7.515855,4.539185,-15.75,-5.53,-21.210001,1729475132620.0,0.0
1.552942,-7.472785,3.046063,-30.1,-35.700001,-10.92,1729475132636.0,0.0
1.665405,-6.522834,0.801596,-32.200001,-46.759998,7.91,1729475132656.0,0.0
1.277767,-5.649454,-1.612763,-24.290001,-49.279999,32.689999,1729475132676.0,0.0
1.031307,-7.843673,-3.443272,-21.139999,-42.07,46.34,1729475132699.0,0.0
-0.600598,-12.222539,-5.087141,-19.74,-32.060001,54.670002,1729475132720.0,0.0
-2.617748,-16.692331,-5.785845,11.62,0.28,43.540001,1729475132737.0,0.0
-3.117848,-16.721045,-4.256832,25.129999,33.110001,8.19,1729475132762.0,0.0
-2.014757,-13.227524,-0.892523,30.030001,48.369999,-19.809999,1729475132778.0,0.0
0.217747,-12.495319,1.435694,19.530001,38.5,-46.830002,1729475132799.0,0.0
0.634098,-9.49472,-1.471586,-3.57,24.780001,-60.760002,1729475132818.0,0.0
0.655633,-9.142976,-0.875773,50.68,32.130001,-53.900002,1729475132836.0,0.0
0.904487,-7.456036,1.351945,59.43,31.99,-52.920002,1729475132858.0,0.0
0.770489,-7.245467,3.151347,46.970001,30.870001,-40.950001,1729475132877.0,0.0
0.928415,-5.192425,4.041477,-11.97,15.82,-35.700001,1729475132901.0,0.0
2.117648,-5.469993,2.63689,-37.869999,-13.93,-15.12,1729475132919.0,0.0
2.098505,-6.745367,1.751546,-20.860001,-25.34,6.37,1729475132937.0,0.0
1.706082,-5.60399,0.978664,18.620001,-25.129999,28.07,1729475132959.0,0.0
1.911865,-4.326223,0.452243,43.470001,-27.02,53.689999,1729475132977.0,0.0
1.454836,-5.611169,0.916451,34.16,-27.02,82.459999,1729475133000.0,0.0
-0.200997,-9.408579,-0.083749,-30.799999,-32.619999,92.260002,1729475133018.0,0.0
-2.505285,-17.254644,-0.504886,-68.669998,-38.779999,78.959999,1729475133037.0,0.0
-3.397808,-20.671597,-3.0006,-65.449997,-30.59,39.900002,1729475133058.0,0.0
-1.722832,-17.039289,-3.412165,-34.299999,-10.15,-2.59,1729475133077.0,0.0
-0.677169,-12.445071,-2.995814,-6.93,17.290001,-23.030001,1729475133097.0,0.0
-0.308674,-11.600404,-1.098306,-26.32,32.689999,-45.639999,1729475133119.0,0.0
0.375673,-10.839487,-0.648455,-30.380001,28.35,-48.02,1729475133139.0,0.0
1.067199,-8.556733,-0.782453,17.639999,35.77,-45.009998,1729475133159.0,0.0
0.468993,-7.848458,0.775275,58.66,36.610001,-41.369999,1729475133178.0,0.0
0.318245,-6.989435,1.581656,55.23,28.559999,-35.279999,1729475133200.0,0.0
0.387637,-5.804988,2.474179,28.210001,15.82,-24.01,1729475133219.0,0.0
0.344566,-6.046663,5.024928,-7.77,-7.98,-10.78,1729475133238.0,0.0
1.265803,-6.171089,3.031706,-46.619999,-39.48,0.14,1729475133257.0,0.0
1.725225,-5.728417,0.725025,-36.259998,-47.810001,26.67,1729475133279.0,0.0
1.730011,-5.742774,-1.237089,-16.450001,-45.5,49.91,1729475133300.0,0.0
0.136391,-10.274779,-3.778267,-20.370001,-39.970001,67.760002,1729475133319.0,0.0
-2.632105,-16.086946,-4.95075,-38.360001,-30.309999,53.900002,1729475133338.0,0.0
-2.682354,-17.706886,-4.168297,-14.56,-5.11,32.900002,1729475133360.0,0.0
-0.717847,-14.627325,-1.95015,-16.66,14.28,0.49,1729475133379.0,0.0
0.631705,-11.667403,-2.409572,-40.040001,23.450001,-26.18,1729475133398.0,0.0
1.045663,-10.600205,-1.136591,-29.889999,28.0,-28.280001,1729475133419.0,0.0
0.459422,-9.375079,-1.545763,-26.6,31.01,-36.330002,1729475133438.0,0.0
0.301496,-7.812566,-1.40698,1.19,33.670002,-28.280001,1729475133457.0,0.0
0.162712,-7.712067,-0.267996,29.75,32.689999,-18.690001,1729475133481.0,0.0
-0.141177,-7.666604,0.959522,34.790001,26.67,-11.62,1729475133499.0,0.0
-0.464208,-7.908278,2.002793,20.58,15.61,-5.95,1729475133518.0,0.0
-0.717847,-8.815158,1.615155,-16.870001,-0.28,-2.52,1729475133539.0,0.0
-0.753739,-9.623933,0.476172,-54.110001,-13.86,-3.43,1729475133559.0,0.0
-0.325424,-9.683753,-0.902094,-57.610001,-19.32,0.07,1729475133580.0,0.0
0.193819,-9.257831,-1.550549,-44.799999,-17.08,4.34,1729475133599.0,0.0
0.447458,-9.073583,-1.986043,-40.599998,-15.12,9.73,1729475133620.0,0.0
0.524028,-9.489935,-2.433501,-51.73,-15.4,11.83,1729475133637.0,0.0
0.48335,-10.066606,-2.514857,-60.27,-14.14,11.55,1729475133658.0,0.0
0.528814,-10.542776,-2.739782,-55.369999,-12.25,9.59,1729475133678.0,0.0
0.519243,-10.784451,-2.766103,-42.349998,-7.42,6.37,1729475133698.0,0.0
0.634098,-10.729417,-2.766103,-24.5,-3.29,4.55,1729475133719.0,0.0
0.849452,-10.468598,-2.596212,-8.89,0.21,3.22,1729475133738.0,0.0
0.863809,-10.786844,-2.392823,-2.03,3.36,2.45,1729475133757.0,0.0
0.902094,-10.975878,-2.517249,10.43,5.32,-1.82,1729475133778.0,0.0
1.004985,-10.643275,-2.172683,29.75,9.8,-1.96,1729475133798.0,0.0
1.052842,-10.327423,-1.694118,45.990002,11.83,-3.64,1729475133820.0,0.0
0.693919,-10.348958,-1.229911,52.990002,12.04,-4.62,1729475133838.0,0.0
0.562313,-10.604989,-1.086342,59.849998,7.28,-8.4,1729475133858.0,0.0
0.81356,-10.789237,-1.007378,76.93,4.9,-9.59,1729475133877.0,0.0
0.921237,-9.475577,-0.026321,84.559998,12.88,-6.51,1729475133901.0,0.0
0.997807,-8.839087,-0.102891,82.040001,8.61,-3.99,1729475133918.0,0.0
0.650848,-8.963513,0.047856,74.129997,5.88,-3.99,1729475133939.0,0.0
0.430708,-8.161918,-0.196211,71.889999,2.31,4.2,1729475133958.0,0.0
-0.133998,-7.956135,-0.591027,70.419998,2.03,16.17,1729475133977.0,0.0
-0.849452,-9.095119,-0.555135,42.77,-1.26,17.57,1729475133999.0,0.0
-0.691526,-11.12184,-0.131605,27.370001,-5.67,20.440001,1729475134019.0,0.0
-0.117248,-11.624333,0.26321,20.02,-6.37,12.46,1729475134038.0,0.0
-0.241675,-10.949556,0.004786,19.389999,-3.08,5.53,1729475134060.0,0.0
-1.150948,-10.863414,-0.265603,22.469999,1.61,0.91,1729475134078.0,0.0
-2.620141,-11.408978,-0.614955,12.53,5.53,-14.35,1729475134099.0,0.0
-2.158326,-9.990034,-0.021535,17.639999,8.26,-20.440001,1729475134121.0,0.0
-1.624727,-8.891729,1.205983,21.280001,9.94,-25.34,1729475134137.0,0.0
-1.67019,-7.970492,2.335395,-6.72,4.2,-29.120001,1729475134157.0,0.0
-1.519442,-7.233503,2.517249,-35.279999,-10.08,-22.960001,1729475134177.0,0.0
-1.179662,-6.975078,1.976472,-65.660004,-26.18,-13.72,1729475134201.0,0.0
-0.741775,-6.771688,0.251246,-98.279999,-41.09,-5.18,1729475134218.0,0.0
-0.215354,-7.534998,-1.004985,-127.120003,-45.990002,6.72,1729475134237.0,0.0
0.442672,-8.405986,-2.57707,-156.029999,-54.670002,11.69,1729475134258.0,0.0
0.849452,-10.856236,-2.943172,-135.380005,-55.580002,27.299999,1729475134278.0,0.0
1.488336,-11.653046,-2.648855,-84.629997,-45.849998,32.970001,1729475134300.0,0.0
1.464408,-10.121639,-2.026721,-47.32,-31.219999,35.07,1729475134318.0,0.0
1.342373,-10.023535,-1.832902,-58.73,-27.790001,31.5,1729475134338.0,0.0
1.136591,-9.152546,-2.222932,-96.110001,-24.43,24.710001,1729475134357.0,0.0
0.937986,-7.771888,-2.715853,-130.830002,-16.59,24.01,1729475134378.0,0.0
0.815953,-7.877172,-4.867002,-197.539993,-12.32,14.21,1729475134400.0,0.0
1.435694,-13.069597,-8.614161,-211.050003,-22.82,8.68,1729475134418.0,0.0
1.531406,-13.875979,-7.326823,-50.959999,10.15,8.54,1729475134437.0,0.0
1.481157,-10.15514,-5.297709,42.91,29.960001,-7.7,1729475134460.0,0.0
-0.926022,-6.597012,-2.581856,31.639999,34.720001,-14.21,1729475134477.0,0.0
-2.182254,-8.523234,-1.26341,47.459999,25.9,7.14,1729475134500.0,0.0
-1.198804,-8.946764,-3.792624,-40.740002,-2.1,-17.290001,1729475134518.0,0.0
-0.815953,-11.200804,-5.381458,-59.290001,-11.97,-5.81,1729475134537.0,0.0
-0.33021,-9.640682,-6.262017,-2.66,-0.98,-6.44,1729475134558.0,0.0
-0.79681,-8.836694,-5.319244,73.779999,24.360001,6.79,1729475134577.0,0.0
-1.375873,-7.822137,-5.520242,32.060001,42.630001,-5.32,1729475134598.0,0.0
-1.256232,-8.338986,-3.720839,-18.129999,46.830002,4.55,1729475134619.0,0.0
0.088534,-6.98465,0.856631,-59.57,28.77,7.56,1729475134637.0,0.0
1.76351,-8.212167,1.749153,-54.810001,-4.13,10.5,1729475134751.0,0.0
2.431108,-9.590433,-0.837488,9.1,-31.15,16.66,1729475134752.0,0.0
-0.602991,-7.769495,-3.737589,1.33,-23.379999,-0.7,1729475134752.0,0.0
-2.555535,-6.862615,-5.261817,-56.84,-19.67,-2.03,1729475134753.0,0.0
-1.57687,-8.437093,-5.991628,-100.099998,-41.650002,5.95,1729475134753.0,0.0
-1.698904,-12.311072,-5.929415,-79.800003,-65.379997,8.12,1729475134775.0,0.0
-0.882952,-8.860621,-6.632904,82.739998,-34.650002,-0.07,1729475134781.0,0.0
-2.227718,-8.839087,-5.484349,76.860001,-37.099998,-1.89,1729475134805.0,0.0
-3.835695,-9.169296,-5.91745,22.82,-20.790001,-5.25,1729475134818.0,0.0
-4.177868,-8.781659,-8.23131,-59.709999,-8.61,-16.66,1729475134838.0,0.0
-3.103491,-10.042676,-11.897114,-60.27,3.85,-12.81,1729475134857.0,0.0
-0.579063,-10.131211,-9.049655,33.110001,33.32,0.91,1729475134877.0,0.0
0.5001,-7.156933,-8.398808,100.870003,60.970001,8.33,1729475134901.0,0.0
-0.418744,-5.230711,-7.530212,88.480003,89.25,4.62,1729475134919.0,0.0
-1.129412,-4.180261,-2.019542,28.139999,98.419998,14.21,1729475134938.0,0.0
-0.62692,-5.082355,2.852244,-45.150002,65.449997,23.309999,1729475134958.0,0.0
1.677369,-7.984849,6.020342,-89.599998,-6.65,29.049999,1729475134979.0,0.0
2.9671,-14.05544,1.069592,-15.89,-60.200001,26.950001,1729475134999.0,0.0
-1.038485,-10.437491,-2.672783,-42.84,-49.420002,-37.52,1729475135020.0,0.0
-2.98385,-9.767502,-7.649854,-68.040001,-59.290001,-39.970001,1729475135039.0,0.0
-1.20359,-12.437892,-5.257031,-95.059998,-88.410004,-31.85,1729475135058.0,0.0
-0.792024,-8.173882,-8.310273,-35.630001,-61.18,-30.52,1729475135078.0,0.0
-1.107877,-8.061419,-8.585447,64.610001,-41.790001,-9.87,1729475135099.0,0.0
-2.79721,-8.987441,-9.217153,25.9,-20.58,-21.35,1729475135120.0,0.0
-4.017549,-8.609376,-9.35833,-13.93,8.33,-11.34,1729475135139.0,0.0
-3.019742,-9.298509,-10.849058,9.24,31.43,-3.71,1729475135159.0,0.0
-0.457029,-8.922836,-6.60419,32.689999,49.91,-4.97,1729475135179.0,0.0
0.224925,-6.963113,-8.066205,25.059999,65.379997,-2.94,1729475135199.0,0.0
0.378066,-5.989235,-7.69771,-4.69,81.620003,-6.79,1729475135220.0,0.0
0.918844,-5.111069,-3.395415,-8.96,88.690002,8.19,1729475135239.0,0.0
1.172483,-4.783253,5.771489,-16.1,68.110001,24.710001,1729475135260.0,0.0
3.510271,-9.482756,7.551748,17.92,-13.86,31.290001,1729475135280.0,0.0
-0.136391,-10.645668,-1.624727,-24.5,-51.869999,-6.72,1729475135300.0,0.0
-3.122634,-12.186646,-5.644669,-74.199997,-44.380001,-50.189999,1729475135322.0,0.0
0.557528,-10.181459,-7.307681,-60.970001,-72.730003,-20.02,1729475135342.0,0.0
-1.048056,-6.197411,-8.044669,-56.07,-57.470001,-20.790001,1729475135361.0,0.0
-1.476372,-8.317451,-9.236296,46.34,-42.630001,7.35,1729475135381.0,0.0
-2.943172,-10.049855,-9.212367,13.65,-30.309999,-0.28,1729475135404.0,0.0
-4.613362,-9.052048,-8.963513,-25.48,7.56,0.91,1729475135571.0,0.0
-3.680161,-8.65484,-10.10489,-9.17,23.030001,-0.14,1729475135571.0,0.0
-0.815953,-8.752945,-7.006185,29.960001,30.24,2.38,1729475135571.0,0.0
0.552742,-7.243074,-7.171289,54.950001,42.490002,7.35,1729475135571.0,0.0
0.282353,-5.907879,-7.386643,29.960001,64.120003,-1.54,1729475135572.0,0.0
0.492921,-5.383851,-6.003592,6.3,68.459999,7.98,1729475135572.0,0.0
1.244268,-5.71406,-1.371087,-7.07,59.220001,20.719999,1729475135572.0,0.0
2.07697,-5.513064,6.740582,-12.88,19.879999,28.91,1729475135572.0,0.0
0.976272,-12.220145,-0.937986,21.77,-47.880001,27.09,1729475135580.0,0.0
-1.756332,-11.796617,-4.893322,-46.549999,-39.34,-38.709999,1729475135601.0,0.0
-1.454836,-10.360922,-7.034898,-14.77,-60.760002,-24.57,1729475135621.0,0.0
-1.31366,-7.444071,-5.149354,-20.719999,-52.009998,-21.139999,1729475135640.0,0.0
-0.976272,-7.554141,-9.439686,-41.790001,-46.060001,-17.57,1729475135660.0,0.0
-1.737189,-11.406586,-11.076375,-27.65,-41.02,-3.29,1729475135681.0,0.0
-3.538985,-10.930414,-9.413363,40.32,11.69,3.71,1729475135701.0,0.0
-3.347559,-8.114061,-8.740981,101.919998,47.810001,1.05,1729475135720.0,0.0
-1.596013,-6.171089,-5.62074,53.060001,55.650002,-8.05,1729475135741.0,0.0
0.339781,-6.58744,-7.223931,-38.5,28.0,-5.11,1729475135760.0,0.0
1.17009,-6.491727,-9.085547,-88.620003,43.540001,-7.28,1729475135780.0,0.0
1.270589,-6.199803,-7.24786,-44.59,66.220001,10.43,1729475135801.0,0.0
1.062413,-6.34098,-0.736989,3.71,74.059998,23.940001,1729475135823.0,0.0
1.256232,-6.087341,7.724032,9.1,31.219999,30.450001,1729475135840.0,0.0
0.614955,-12.181859,-0.734596,57.049999,-50.610001,28.91,1729475135861.0,0.0
-1.335195,-9.863215,-4.802395,-38.150002,-33.18,-42.630001,1729475135880.0,0.0
-1.887937,-9.501899,-8.279166,-55.720001,-61.040001,-28.42,1729475135906.0,0.0
-1.069592,-9.659825,-6.597012,-41.93,-66.5,-19.18,1729475135923.0,0.0
-1.356731,-6.144768,-7.226324,-14.77,-44.799999,-21.559999,1729475135940.0,0.0
-1.282553,-7.250252,-9.686146,68.739998,-41.580002,4.48,1729475135960.0,0.0
-2.416751,-9.052048,-9.190832,81.129997,-20.440001,8.75,1729475135980.0,0.0
-4.819145,-8.843873,-7.307681,20.93,33.599998,4.83,1729475136001.0,0.0
-2.981457,-7.381857,-7.740781,-19.040001,35.0,-0.14,1729475136024.0,0.0
-0.028714,-8.082954,-6.506085,-43.610001,13.72,4.62,1729475136040.0,0.0
1.31366,-7.147361,-7.814958,-47.110001,29.960001,3.29,1729475136061.0,0.0
1.064806,-7.905886,-7.025328,-2.1,50.889999,13.02,1729475136080.0,0.0
1.069592,-6.02752,-3.940979,22.26,66.639999,15.190001,1729475136101.0,0.0
0.971486,-5.687739,1.619941,6.93,47.670002,23.309999,1729475136121.0,0.0
1.505085,-7.51107,3.089134,-6.58,-6.02,22.33,1729475136140.0,0.0
0.433101,-12.763316,-3.866802,19.950001,-59.779999,15.12,1729475136161.0,0.0
-1.505085,-11.63869,-5.793024,-19.67,-34.860001,-39.200001,1729475136180.0,0.0
-1.952543,-10.760524,-7.424929,-0.14,-53.41,-25.620001,1729475136201.0,0.0
-1.725225,-6.642475,-6.721439,-11.9,-40.529999,-32.619999,1729475136220.0,0.0
-1.428515,-5.335995,-7.767102,-7.21,-38.5,-15.68,1729475136240.0,0.0
-1.588834,-8.209774,-8.482556,-10.08,-39.900002,-2.59,1729475136260.0,0.0
-2.916851,-10.442278,-9.193225,-5.18,-13.86,4.2,1729475136280.0,0.0
-3.65384,-8.896514,-9.518648,8.4,26.950001,1.68,1729475136301.0,0.0
-2.522035,-7.568498,-6.343372,16.66,43.470001,-0.28,1729475136321.0,0.0
-0.425922,-9.396614,-7.740781,18.129999,34.720001,4.34,1729475136341.0,0.0
-0.385244,-7.070791,-8.415558,0.91,61.670002,-11.27,1729475136361.0,0.0
0.258425,-5.178068,-5.580062,-5.32,70.0,-2.17,1729475136381.0,0.0
0.502493,-4.436293,6.862615,-21.84,56.560001,15.75,1729475136401.0,0.0
2.498107,-10.057034,5.029713,10.43,-6.44,31.710001,1729475136421.0,0.0
0.667598,-11.23191,-4.682754,-17.360001,-55.02,-9.17,1729475136440.0,0.0
-1.811367,-10.573883,-8.408379,-54.25,-18.9,-46.689999,1729475136460.0,0.0
-1.237089,-8.140383,-9.162118,-51.240002,-45.779999,-25.9,1729475136481.0,0.0
-0.794417,-8.800802,-5.556134,-38.290001,-40.32,-21.280001,1729475136501.0,0.0
-0.87338,-7.168896,-7.537392,23.030001,-27.790001,-21.280001,1729475136532.0,0.0
-0.875773,-6.147161,-7.188039,85.68,-27.370001,-5.88,1729475136540.0,0.0
-2.56032,-7.360322,-5.438886,65.660004,-18.200001,5.53,1729475136560.0,0.0
-3.711268,-7.534998,-8.592626,7.21,-0.7,4.13,1729475136579.0,0.0
-3.18724,-7.506285,-9.071191,-40.32,12.88,1.89,1729475136601.0,0.0
-1.17009,-9.145369,-7.030113,-30.1,7.28,14.49,1729475136621.0,0.0
0.031107,-9.736395,-7.913064,13.79,20.16,18.549999,1729475136641.0,0.0
-0.600598,-5.769095,-8.9683,28.98,52.849998,5.6,1729475136660.0,0.0
-0.208176,-5.187639,-4.412365,-16.52,68.32,16.17,1729475136680.0,0.0
0.332602,-5.838487,5.536992,-52.150002,43.259998,28.84,1729475136701.0,0.0
3.37388,-13.430914,0.019143,8.26,-36.119999,37.240002,1729475136720.0,0.0
0.808774,-11.251052,-5.221139,-2.8,-23.799999,-22.889999,1729475136739.0,0.0
-1.844866,-9.827322,-8.788837,-0.35,-26.25,-39.060001,1729475136760.0,0.0
-0.696311,-7.322037,-7.635497,-10.01,-41.860001,-33.18,1729475136780.0,0.0
-0.854238,-7.590034,-4.436293,-6.65,-41.299999,-24.639999,1729475136800.0,0.0
-0.562313,-7.645068,-5.936593,67.900002,-42.07,-24.43,1729475136821.0,0.0
-0.746561,-6.982256,-3.909872,99.75,-39.970001,-7.77,1729475136840.0,0.0
-2.550749,-6.960721,-6.242875,26.67,-29.190001,-7.21,1729475136860.0,0.0
-4.089334,-9.377472,-10.145569,-71.400002,-15.61,-7.56,1729475136880.0,0.0
-3.261417,-11.176874,-11.322837,-72.519997,-5.11,-3.78,1729475136904.0,0.0
-0.827917,-10.415956,-7.683353,34.509998,27.02,16.73,1729475136921.0,0.0
-0.533599,-7.24786,-6.73101,72.449997,62.93,7.21,1729475136940.0,0.0
-1.103091,-5.132604,-7.113862,18.690001,73.43,-0.21,1729475136960.0,0.0
-0.437887,-5.828916,-3.56052,-34.16,61.599998,11.41,1729475136979.0,0.0
2.079363,-7.810174,4.788038,-48.509998,32.200001,24.85,1729475137002.0,0.0
2.199004,-10.353743,-2.335395,-1.12,-41.09,18.969999,1729475137031.0,0.0
-1.160519,-9.829715,-6.953543,-49.700001,-26.67,-34.299999,1729475137039.0,0.0
-2.062613,-8.451449,-8.283953,-75.25,-46.060001,-27.93,1729475137060.0,0.0
-0.619741,-8.870193,-4.668397,-67.620003,-70.489998,-22.960001,1729475137089.0,0.0
-0.177069,-7.759924,-6.259624,-2.45,-68.669998,-21.0,1729475137101.0,0.0
-0.602991,-8.408379,-8.030313,75.459999,-54.110001,-9.1,1729475137122.0,0.0
-3.574877,-9.669396,-9.722038,75.739998,-20.09,3.43,1729475137140.0,0.0
-5.213961,-8.85105,-11.399406,26.6,33.389999,0.42,1729475137159.0,0.0
-3.649055,-8.867801,-8.425128,-18.969999,39.759998,-0.35,1729475137180.0,0.0
-0.086142,-8.429914,-9.042477,-14.91,26.809999,8.05,1729475137202.0,0.0
1.143769,-7.767102,-8.913264,14.42,58.240002,3.99,1729475137223.0,0.0
0.524028,-5.489135,-6.829116,31.01,85.68,6.44,1729475137239.0,0.0
-0.689133,-6.690332,1.478764,41.23,90.300003,20.370001,1729475137267.0,0.0
-0.480957,-5.862415,7.520642,37.310001,46.900002,26.460001,1729475137279.0,0.0
0.777667,-7.661818,1.476372,17.780001,-18.690001,19.25,1729475137302.0,0.0
-1.414158,-8.020741,-6.139983,-71.260002,-45.290001,-11.69,1729475137323.0,0.0
-0.935594,-8.453842,-8.219346,-114.449997,-60.060001,-7.28,1729475137339.0,0.0
-0.655633,-9.954143,-6.305088,-80.080002,-70.769997,-8.12,1729475137361.0,0.0
-0.162712,-7.71446,-7.63789,10.15,-52.639999,-12.32,1729475137381.0,0.0
-1.823331,-9.659825,-7.79103,41.580002,-52.5,-5.32,1729475137402.0,0.0
-4.381258,-9.193225,-11.866007,38.43,-9.66,-1.68,1729475137421.0,0.0
-5.04407,-8.475377,-12.564712,33.810001,37.450001,4.76,1729475137440.0,0.0
-3.395415,-8.638089,-8.298308,10.29,50.400002,3.5,1729475137461.0,0.0
-0.42353,-7.712067,-8.51127,14.98,43.470001,11.41,1729475137480.0,0.0
0.753739,-6.108876,-9.329616,9.45,66.919998,-0.49,1729475137501.0,0.0
0.586242,-5.443672,-6.726225,16.73,85.120003,12.67,1729475137521.0,0.0
0.047856,-7.757531,2.737389,9.17,88.480003,18.620001,1729475137540.0,0.0
0.004786,-7.089933,10.052249,6.23,38.220001,23.030001,1729475137561.0,0.0
1.744368,-10.126426,2.68714,9.59,-39.41,12.04,1729475137581.0,0.0
-1.174876,-8.867801,-5.965307,-98.349998,-65.870003,-45.57,1729475137602.0,0.0
-1.710868,-7.15454,-11.380265,-127.050003,-54.950001,-51.66,1729475137623.0,0.0
-0.914058,-10.100104,-6.989435,-119.980003,-74.480003,-35.630001,1729475137640.0,0.0
0.014357,-7.795816,-9.217153,-24.290001,-58.799999,-27.58,1729475137661.0,0.0
-1.196411,-8.118847,-10.540384,87.360001,-30.380001,-6.79,1729475137682.0,0.0
-3.766303,-8.449057,-11.825329,99.610001,9.73,0.63,1729475137703.0,0.0
-4.668397,-7.278966,-11.176874,93.870003,55.790001,13.37,1729475137725.0,0.0
-3.407379,-7.506285,-7.008578,44.099998,64.75,15.4,1729475137743.0,0.0
-0.997807,-7.52782,-8.360522,-0.21,49.139999,13.37,1729475137761.0,0.0
0.622134,-6.575477,-8.382057,3.01,67.690002,11.27,1729475137782.0,0.0
1.607977,-4.661219,-4.443472,19.67,82.25,18.620001,1729475137803.0,0.0
0.9667,-3.945765,6.21416,48.720001,76.300003,36.189999,1729475137823.0,0.0
1.811367,-7.293324,7.32443,46.34,6.3,34.720001,1729475137842.0,0.0
-1.270589,-10.537991,-4.04387,-45.920002,-59.709999,-0.28,1729475137862.0,0.0
-2.35693,-11.353944,-8.810372,-65.800003,-59.920002,-38.990002,1729475137882.0,0.0
-0.325424,-8.750552,-4.244867,-12.6,-64.610001,-13.86,1729475137905.0,0.0
-0.399601,-5.572884,-4.962714,0.91,-67.129997,-26.74,1729475137923.0,0.0
-1.660619,-7.436893,-8.185846,-22.960001,-68.739998,-13.09,1729475137942.0,0.0
-3.572484,-9.363115,-12.361321,-65.239998,-46.900002,-7.7,1729475137961.0,0.0
-5.321638,-10.470992,-13.229917,-41.02,2.45,5.18,1729475137986.0,0.0
-4.359723,-8.915657,-10.535598,28.98,48.860001,15.190001,1729475138002.0,0.0
-1.167697,-7.558927,-7.456036,66.849998,55.439999,19.460001,1729475138025.0,0.0
0.212961,-6.235696,-8.006385,18.059999,63.139999,9.73,1729475138042.0,0.0
1.074377,-5.465207,-6.740582,-20.51,66.360001,9.31,1729475138061.0,0.0
1.727618,-6.443871,-3.017349,-25.129999,70.07,19.74,1729475138082.0,0.0
0.693919,-6.71426,6.419943,-25.34,52.43,21.07,1729475138103.0,0.0
1.217947,-9.322437,2.895315,-25.41,-18.48,9.94,1729475138132.0,0.0
-0.847059,-11.222338,-5.166104,-62.23,-56.700001,-26.040001,1729475138142.0,0.0
-1.339981,-9.647861,-8.664411,-66.57,-49.0,-56.98,1729475138162.0,0.0
-1.18684,-8.764909,-7.812566,-49.630001,-56.209999,-40.599998,1729475138181.0,0.0
-1.100698,-5.979663,-7.424929,-62.510002,-56.91,-50.119999,1729475138203.0,0.0
-0.849452,-5.20439,-10.650455,-26.74,-59.920002,-33.599998,1729475138223.0,0.0
-2.117648,-7.965706,-14.610575,11.76,-45.080002,-17.5,1729475138242.0,0.0
-4.177868,-8.006385,-13.593626,101.010002,48.439999,4.62,1729475138261.0,0.0
-3.869194,-6.398407,-6.388836,117.949997,88.690002,12.67,1729475138281.0,0.0
-1.897508,-5.584848,-7.133004,63.07,67.129997,9.17,1729475138302.0,0.0
0.356531,-5.376673,-7.360322,-3.71,62.09,2.17,1729475138323.0,0.0
1.825724,-6.999006,-2.019542,-23.799999,52.360001,15.12,1729475138341.0,0.0
1.744368,-6.257231,8.523234,-3.43,34.93,22.889999,1729475138361.0,0.0
2.445465,-9.456435,0.799203,53.830002,-32.41,26.25,1729475138382.0,0.0
-1.289732,-7.987241,-5.627919,-36.259998,-33.040001,-32.900002,1729475138403.0,0.0
-3.086741,-8.255238,-9.676575,-64.470001,-34.509998,-31.219999,1729475138422.0,0.0
-1.268196,-9.24826,-7.295716,-63.420002,-67.690002,-17.01,1729475138441.0,0.0
-0.083749,-6.778866,-6.448657,-51.380001,-77.980003,-25.549999,1729475138462.0,0.0
0.179462,-6.82433,-7.018148,46.48,-56.209999,-7.56,1729475138482.0,0.0
-1.292124,-6.788438,-7.695317,44.799999,-56.91,-8.89,1729475138503.0,0.0
-4.252046,-8.35813,-10.784451,-5.67,-22.82,-0.14,1729475138523.0,0.0
-5.099105,-10.033106,-13.493127,-24.639999,-7.63,0.07,1729475138541.0,0.0
-3.488736,-9.391829,-12.227324,6.37,29.540001,4.34,1729475138561.0,0.0
0.011964,-6.630512,-8.30788,66.849998,52.920002,12.46,1729475138581.0,0.0
0.480957,-5.414958,-8.685946,31.43,84.699997,1.54,1729475138602.0,0.0
0.715454,-5.149354,-5.005785,-1.05,90.230003,11.76,1729475138624.0,0.0
0.830309,-7.575676,2.218147,-10.43,73.080002,22.68,1729475138641.0,0.0
0.928415,-5.486742,7.910671,-25.76,31.15,19.809999,1729475138661.0,0.0
1.158126,-9.765109,-0.550349,-6.93,-39.27,18.34,1729475138682.0,0.0
-1.227518,-9.686146,-7.396214,-81.059998,-47.880001,-36.959999,1729475138702.0,0.0
-1.78026,-9.71486,-10.224532,-79.730003,-45.57,-36.400002,1729475138722.0,0.0
-1.153341,-10.100104,-6.644868,-50.75,-60.41,-25.620001,1729475138740.0,0.0
-0.708275,-6.465407,-7.156933,0.91,-53.760002,-30.59,1729475138761.0,0.0
-1.026521,-6.338587,-9.312866,75.25,-38.220001,-7.98,1729475138781.0,0.0
-2.605784,-7.908278,-9.829715,61.810001,-21.210001,-4.06,1729475138802.0,0.0
-4.472186,-8.12124,-10.289137,14.0,19.460001,10.71,1729475138822.0,0.0
-4.445865,-7.946564,-10.82513,-17.85,39.689999,11.69,1729475138841.0,0.0
-1.438086,-8.496914,-8.530413,6.72,37.170002,18.48,1729475138861.0,0.0
0.301496,-7.412964,-9.037691,24.5,58.73,20.58,1729475138881.0,0.0
0.409173,-7.479963,-6.769295,33.880001,74.620003,16.799999,1729475138905.0,0.0
0.172283,-6.74776,-0.973879,17.43,88.059998,11.76,1729475138922.0,0.0
0.138784,-4.570292,4.733003,6.3,47.18,16.66,1729475138941.0,0.0
1.674976,-7.345965,2.249253,-2.87,-17.92,13.02,1729475138961.0,0.0
-0.055035,-9.099905,-7.32443,-74.830002,-54.18,-19.530001,1729475138981.0,0.0
-1.581656,-10.640882,-9.29133,-87.779999,-38.080002,-38.150002,1729475139002.0,0.0
-0.4666,-7.551748,-8.896514,-63.84,-38.5,-30.380001,1729475139023.0,0.0
-0.902094,-8.377272,-5.407779,-38.5,-46.060001,-34.299999,1729475139041.0,0.0
-1.22034,-5.656632,-7.980063,10.57,-34.439999,-32.060001,1729475139062.0,0.0
-1.392623,-6.91765,-8.85823,26.460001,-42.91,-16.309999,1729475139082.0,0.0
-2.421536,-8.394022,-10.604989,26.6,-21.49,-0.98,1729475139101.0,0.0
-3.132205,-7.76471,-11.380265,25.620001,21.629999,6.02,1729475139122.0,0.0
-2.498107,-7.805387,-7.922636,21.139999,44.939999,15.190001,1729475139141.0,0.0
-0.674776,-8.116454,-8.719445,25.549999,37.869999,21.210001,1729475139162.0,0.0
-0.047856,-6.752545,-9.382257,24.360001,59.080002,12.32,1729475139182.0,0.0
0.205783,-4.826324,-7.523034,15.4,75.040001,13.93,1729475139202.0,0.0
-0.019143,-4.644469,2.821138,13.16,66.779999,26.6,1729475139221.0,0.0
1.112662,-7.092326,7.204789,3.99,4.83,26.6,1729475139242.0,0.0
-0.387637,-9.868,-6.400801,-63.420002,-55.23,-25.059999,1729475139261.0,0.0
-2.053042,-9.58804,-9.619147,-57.189999,-41.790001,-47.810001,1729475139281.0,0.0
-0.334995,-7.161718,-6.951149,-27.58,-57.82,-33.740002,1729475139308.0,0.0
0.385244,-6.142376,-5.960521,-10.29,-72.309998,-32.130001,1729475139322.0,0.0
0.547956,-5.838487,-8.152347,49.84,-61.459999,-13.09,1729475139342.0,0.0
-1.40698,-7.573284,-9.736395,8.26,-51.099998,-1.12,1729475139361.0,0.0
-4.744967,-10.540384,-10.990234,-33.740002,-2.87,8.05,1729475139381.0,0.0
-4.965107,-9.738789,-11.990433,-15.68,18.41,7.21,1729475139402.0,0.0
-2.309074,-8.750552,-8.69791,30.73,40.110001,12.95,1729475139424.0,0.0
-0.344566,-6.994221,-9.870394,17.219999,50.68,9.31,1729475139440.0,0.0
0.428315,-4.706682,-8.73141,-39.130001,69.230003,-2.52,1729475139462.0,0.0
0.935594,-5.053641,-5.364708,-64.400002,76.790001,10.29,1729475139482.0,0.0
0.325424,-5.9677,6.659225,-31.780001,60.130001,24.780001,1729475139503.0,0.0
3.649055,-9.382257,2.22054,45.360001,-17.92,26.6,1729475139523.0,0.0
1.138984,-8.618947,-5.4341,29.610001,-44.52,-10.29,1729475139542.0,0.0
-3.555735,-8.561519,-9.518648,16.799999,-1.89,-27.58,1729475139562.0,0.0
-1.351945,-6.759724,-8.415558,57.959999,-47.25,-13.37,1729475139582.0,0.0
-0.691526,-6.623333,-5.98445,38.43,-44.380001,-9.45,1729475139603.0,0.0
-0.899701,-6.15434,-5.965307,-0.35,-36.119999,-5.74,1729475139623.0,0.0
-2.210968,-7.896315,-6.664011,-62.16,-44.939999,-2.1,1729475139642.0,0.0
-2.117648,-7.587641,-8.609376,-74.760002,-41.299999,0.7,1729475139750.0,0.0
-1.732404,-8.13799,-12.12204,-47.599998,-23.17,3.5,1729475139750.0,0.0
-1.651048,-8.846266,-13.598411,-0.77,2.31,9.66,1729475139751.0,0.0
-1.773082,-8.985049,-11.179268,64.190002,43.82,14.49,1729475139751.0,0.0
-2.148755,-6.608976,-10.542776,71.75,82.389999,6.3,1729475139752.0,0.0
-1.579263,-3.617948,-7.568498,42.139999,103.809998,6.72,1729475139762.0,0.0
-0.088534,-4.163511,-0.835095,-10.08,84.209999,19.460001,1729475139783.0,0.0
1.344766,-5.883951,8.216952,-45.639999,29.610001,29.82,1729475139804.0,0.0
2.754139,-13.734802,-0.729811,55.860001,-61.459999,47.040001,1729475139824.0,0.0
-0.808774,-9.820145,-5.161318,-6.58,-3.36,-49.77,1729475139842.0,0.0
-2.07697,-7.664211,-9.068797,5.53,-33.599998,-33.25,1729475139862.0,0.0
-0.832702,-6.855437,-4.618148,-23.24,-55.790001,-25.83,1729475139882.0,0.0
-0.349352,-5.362316,-5.491528,-12.53,-52.639999,-17.639999,1729475139908.0,0.0
-0.969093,-6.802795,-9.188439,-24.43,-55.09,-4.97,1729475139925.0,0.0
-2.574677,-10.394422,-12.047862,-30.66,-38.57,1.89,1729475139944.0,0.0
-3.706482,-10.016356,-13.545769,5.88,11.83,5.25,1729475139964.0,0.0
-4.208975,-8.80798,-10.846665,36.889999,58.380001,4.62,1729475139984.0,0.0
-2.148755,-8.267202,-7.788638,48.299999,63.07,5.25,1729475140005.0,0.0
-0.31346,-6.506085,-8.551948,6.86,68.25,-5.46,1729475140029.0,0.0
1.048056,-4.41715,-5.197211,-12.67,75.040001,1.68,1729475140055.0,0.0
1.854438,-3.991228,-1.304088,-13.58,72.590004,16.52,1729475140065.0,0.0
0.823131,-4.290331,7.183254,-11.41,48.720001,27.02,1729475140083.0,0.0
1.897508,-10.150353,-1.256232,67.550003,-43.540001,40.529999,1729475140104.0,0.0
-0.911665,-8.740981,-4.165904,-12.46,-27.790001,-16.940001,1729475140125.0,0.0
-2.486143,-11.215159,-9.377472,-14.98,-54.25,-20.790001,1729475140143.0,0.0
-0.246461,-6.458229,-7.281359,2.59,-62.790001,-31.710001,1729475140163.0,0.0
0.227318,-4.835894,-7.233503,-16.030001,-68.459999,-16.59,1729475140183.0,0.0
-1.67019,-7.56132,-9.688539,-88.480003,-54.880001,-11.06,1729475140204.0,0.0
-3.754339,-10.51167,-14.306686,-75.529999,-18.34,-0.42,1729475140225.0,0.0
-3.754339,-10.035499,-15.062819,24.360001,36.540001,13.58,1729475140244.0,0.0
-2.48375,-9.561719,-9.032906,111.300003,70.07,27.440001,1729475140264.0,0.0
-1.430908,-7.118648,-7.487142,114.870003,90.440002,21.139999,1729475140283.0,0.0
-0.397209,-4.4674,-6.867401,64.610001,101.150002,7.14,1729475140304.0,0.0
0.01675,-4.567898,2.847459,20.440001,82.040001,19.460001,1729475140325.0,0.0
0.725025,-4.266403,3.586841,-16.24,47.18,20.790001,1729475140344.0,0.0
2.62732,-8.908479,1.337588,7.28,-31.08,21.629999,1729475140363.0,0.0
-0.023928,-7.858029,-5.802595,-22.68,-35.84,-11.62,1729475140384.0,0.0
-2.883351,-10.356135,-8.640482,-67.550003,-20.440001,-41.509998,1729475140405.0,0.0
-0.98345,-8.559127,-7.264609,-82.25,-66.080002,-37.240002,1729475140424.0,0.0
-0.586242,-8.262416,-5.302495,-28.91,-69.440002,-38.709999,1729475140444.0,0.0
0.066999,-4.666004,-7.255038,59.779999,-47.670002,-35.349998,1729475140463.0,0.0
-1.612763,-7.06122,-9.341579,47.950001,-51.52,-2.38,1729475140483.0,0.0
-3.85723,-9.74836,-12.076575,-55.510002,8.19,18.969999,1729475140505.0,0.0
-3.735196,-11.124231,-10.827522,-16.52,30.030001,25.9,1729475140524.0,0.0
-2.313859,-10.549955,-8.997013,70.349998,49.07,34.439999,1729475140543.0,0.0
-1.794617,-7.788638,-9.296116,94.43,85.889999,14.63,1729475140563.0,0.0
-0.385244,-5.161318,-3.388237,80.220001,81.059998,12.11,1729475140583.0,0.0
0.282353,-2.285146,2.438286,45.360001,69.230003,24.290001,1729475140604.0,0.0
1.765903,-7.144968,4.151547,11.06,4.83,17.43,1729475140624.0,0.0
1.421337,-9.454042,-2.878566,-8.68,-47.599998,8.12,1729475140643.0,0.0
-1.476372,-10.066606,-7.121039,-64.959999,-22.4,-40.110001,1729475140663.0,0.0
-1.509871,-10.238889,-8.501699,-82.529999,-49.700001,-39.130001,1729475140684.0,0.0
1.316052,-7.436893,-6.211767,-49.349998,-53.34,-41.369999,1729475140704.0,0.0
0.375673,-7.996813,-4.833502,9.1,-47.18,-30.380001,1729475140725.0,0.0
-1.294517,-6.108876,-5.539384,57.68,-27.93,-17.92,1729475140743.0,0.0
-2.141576,-7.661818,-6.037091,34.02,-29.33,13.02,1729475140763.0,0.0
-2.962314,-8.398808,-8.061419,-32.060001,-17.290001,14.21,1729475140783.0,0.0
-3.658626,-9.128618,-11.057234,-65.590004,5.67,20.370001,1729475140804.0,0.0
-1.464408,-11.921042,-8.877372,-17.92,16.030001,23.030001,1729475140824.0,0.0
-0.480957,-8.293523,-7.793423,126.419998,52.57,21.0,1729475140842.0,0.0
-0.490529,-4.792823,-7.958528,73.43,68.949997,-3.71,1729475140863.0,0.0
0.729811,-3.510271,-5.496314,-23.309999,64.540001,-0.84,1729475140883.0,0.0
0.567099,-4.960321,4.65404,-64.68,60.48,17.15,1729475140907.0,0.0
0.856631,-8.810372,3.838088,-58.029999,6.65,14.0,1729475140935.0,0.0
0.478565,-10.916058,-4.9675,-29.68,-51.799999,1.54,1729475140944.0,0.0
-1.864009,-9.688539,-7.257431,-77.419998,-28.84,-49.560001,1729475140963.0,0.0
-1.488336,-8.269595,-7.513463,-90.650002,-49.420002,-38.080002,1729475140983.0,0.0
-0.22014,-7.939385,-6.204589,-87.639999,-53.48,-40.459999,1729475141003.0,0.0
-1.471586,-7.087541,-7.929814,-26.040001,-46.900002,-31.43,1729475141025.0,0.0
-1.335195,-7.594819,-10.578669,46.41,-39.689999,-3.01,1729475141043.0,0.0
-2.40718,-8.970692,-9.817751,41.299999,-13.86,7.49,1729475141063.0,0.0
-3.704089,-7.573284,-10.08814,21.700001,27.65,16.73,1729475141083.0,0.0
-2.799603,-8.090133,-8.73141,24.710001,37.310001,20.860001,1729475141104.0,0.0
-0.782453,-8.228917,-9.288938,64.75,38.080002,28.700001,1729475141125.0,0.0
-0.339781,-5.962914,-8.812766,72.660004,68.389999,19.530001,1729475141142.0,0.0
0.535992,-5.99402,-1.440479,20.790001,77.769997,13.440001,1729475141163.0,0.0
0.052642,-5.4341,2.517249,-21.84,51.939999,16.379999,1729475141183.0,0.0
1.830509,-9.372685,-0.26321,19.950001,-28.35,12.04,1729475141203.0,0.0
-0.028714,-9.387043,-6.319445,10.43,-41.02,-16.940001,1729475141226.0,0.0
-2.660819,-10.181459,-8.035098,-53.060001,-18.690001,-49.700001,1729475141244.0,0.0
-1.088734,-8.903693,-5.910272,-33.040001,-52.57,-30.24,1729475141262.0,0.0
0.09332,-7.879565,-3.316452,23.24,-47.880001,-24.85,1729475141283.0,0.0
-1.366302,-5.592027,-3.567699,80.360001,-45.220001,-16.66,1729475141304.0,0.0
-2.421536,-5.962914,-5.575277,41.23,-50.540001,-1.96,1729475141324.0,0.0
-3.352344,-8.901299,-9.480364,-50.540001,-60.34,3.78,1729475141350.0,0.0
-3.622734,-11.3683,-12.705888,-60.34,-37.310001,11.13,1729475141364.0,0.0
-2.804388,-10.281959,-12.732209,17.219999,17.290001,14.28,1729475141385.0,0.0
-1.124627,-8.338986,-7.580462,79.590004,49.07,13.16,1729475141408.0,0.0
-0.117248,-6.647261,-8.01117,51.799999,53.549999,6.51,1729475141424.0,0.0
0.320638,-6.484549,-8.626125,-9.1,52.990002,-5.39,1729475141443.0,0.0
0.107677,-6.329016,-7.070791,-28.35,68.949997,-0.56,1729475141463.0,0.0
-1.155733,-6.017949,4.173083,3.99,66.220001,16.17,1729475141483.0,0.0
-0.136391,-7.446464,2.572284,-19.809999,-8.89,-2.94,1729475141504.0,0.0
0.040678,-10.439885,-5.084748,-27.719999,-62.93,-6.65,1729475141525.0,0.0
-1.177269,-10.456635,-9.068797,-74.760002,-31.57,-45.849998,1729475141543.0,0.0
-0.12682,-10.269995,-7.594819,-58.66,-47.950001,-30.940001,1729475141564.0,0.0
-0.378066,-9.300901,-3.038885,-15.190001,-40.950001,-32.130001,1729475141584.0,0.0
-1.112662,-4.802395,-4.852644,49.91,-31.780001,-28.91,1729475141606.0,0.0
-1.847259,-5.804988,-8.578269,59.010002,-42.560001,-3.99,1729475141626.0,0.0
-2.804388,-9.080762,-9.822537,40.599998,-33.110001,15.47,1729475141644.0,0.0
-3.847659,-9.133404,-10.600205,36.68,10.99,23.870001,1729475141665.0,0.0
-3.493521,-8.606983,-10.092925,47.810001,45.009998,24.15,1729475141684.0,0.0
-1.17009,-7.616355,-7.57089,45.990002,49.700001,20.16,1729475141708.0,0.0
0.189033,-7.45125,-9.391829,9.38,54.740002,16.799999,1729475141725.0,0.0
0.830309,-7.49432,-7.647461,-19.74,68.739998,6.09,1729475141744.0,0.0
0.945165,-6.474977,-4.56072,-1.4,81.269997,11.34,1729475141764.0,0.0
-0.356531,-4.04387,4.632504,36.75,65.449997,21.35,1729475141784.0,0.0
-0.129212,-7.877172,-0.270389,-32.830002,-28.280001,4.62,1729475141806.0,0.0
-1.629512,-11.562119,-7.534998,-82.739998,-66.57,-11.13,1729475141827.0,0.0
-1.359123,-11.877973,-8.872586,-61.950001,-45.779999,-32.34,1729475141846.0,0.0
0.387637,-9.030513,-6.139983,5.04,-42.630001,-14.0,1729475141865.0,0.0
-0.294317,-5.402994,-4.220939,25.27,-37.59,-20.790001,1729475141885.0,0.0
-1.744368,-6.242875,-5.912664,42.77,-40.389999,2.66,1729475141911.0,0.0
-3.345166,-9.944571,-10.358529,13.79,-39.34,12.67,1729475141926.0,0.0
-5.024928,-11.806188,-11.243874,17.85,0.49,15.190001,1729475141948.0,0.0
-4.261617,-9.420543,-10.609775,45.920002,47.389999,11.27,1729475141966.0,0.0
-1.672583,-7.951349,-6.575477,35.139999,53.41,5.67,1729475141987.0,0.0
0.291924,-7.922636,-7.307681,-6.02,50.330002,3.22,1729475142007.0,0.0
1.057628,-7.223931,-6.58744,-31.08,59.5,-6.79,1729475142028.0,0.0
1.184447,-6.802795,-5.285746,-14.07,69.230003,0.28,1729475142045.0,0.0
0.452243,-4.864608,3.684947,5.74,61.110001,7.21,1729475142071.0,0.0
1.055235,-6.321837,1.682154,-37.099998,-21.84,2.24,1729475142085.0,0.0
-1.107877,-10.128819,-6.833901,-58.029999,-60.48,2.1,1729475142106.0,0.0
-2.199004,-10.504492,-9.296116,-73.5,-36.049999,-31.290001,1729475142127.0,0.0
-1.036092,-10.145569,-7.314859,-30.799999,-46.970001,-5.04,1729475142145.0,0.0
-0.770489,-7.331609,-5.15414,-1.96,-43.540001,-16.73,1729475142165.0,0.0
-1.129412,-8.255238,-6.783652,76.019997,-43.119999,5.04,1729475142187.0,0.0
-2.538785,-8.394022,-8.4012,86.519997,-36.889999,2.73,1729475142206.0,0.0
-4.520042,-8.425128,-9.396614,51.52,1.33,12.11,1729475142225.0,0.0
-4.237689,-9.437292,-11.995219,-0.42,16.24,6.51,1729475142245.0,0.0
-1.914258,-9.801002,-8.563912,4.62,29.68,11.2,1729475142264.0,0.0
-0.193819,-7.922636,-8.405986,31.710001,60.48,13.58,1729475142285.0,0.0
-0.011964,-7.032506,-6.410372,21.84,78.470001,1.47,1729475142306.0,0.0
0.416351,-6.592227,-3.816552,-4.55,71.330002,1.05,1729475142326.0,0.0
0.468993,-5.005785,2.132005,-10.43,49.349998,8.54,1729475142345.0,0.0
0.550349,-4.845466,5.166104,-40.599998,13.37,1.05,1729475142367.0,0.0
0.614955,-9.547362,-3.457629,-24.710001,-55.23,7.42,1729475142385.0,0.0
-2.160719,-11.198411,-8.551948,-60.549999,-35.279999,-26.809999,1729475142406.0,0.0
-0.435494,-9.583255,-6.946364,-35.279999,-49.279999,-17.92,1729475142428.0,0.0
-0.339781,-10.205389,-2.718246,-8.12,-50.75,-27.16,1729475142445.0,0.0
-0.519243,-6.881758,-6.041877,36.889999,-52.43,-33.950001,1729475142466.0,0.0
-1.710868,-7.056434,-7.877172,35.209999,-48.860001,-19.25,1729475142485.0,0.0
-3.61077,-9.468399,-8.915657,-22.190001,-34.23,-12.67,1729475142508.0,0.0
-3.675375,-10.360922,-12.55514,-19.809999,-9.59,-2.24,1729475142526.0,0.0
-2.634498,-8.377272,-9.018548,28.0,37.73,4.48,1729475142545.0,0.0
-0.935594,-7.068398,-7.673782,59.220001,49.490002,14.42,1729475142565.0,0.0
-0.859023,-5.632704,-8.061419,20.860001,67.970001,4.83,1729475142584.0,0.0
-0.916451,-5.771489,-6.503692,-8.33,67.760002,11.97,1729475142606.0,0.0
-0.68674,-6.427122,0.643669,-27.51,56.490002,13.37,1729475142627.0,0.0
0.172283,-7.13779,1.65344,-20.23,28.0,20.790001,1729475142644.0,0.0
0.803988,-8.614161,0.37328,-50.82,-9.66,-4.06,1729475142665.0,0.0
0.349352,-11.901899,-6.498906,-46.41,-45.920002,-10.64,1729475142684.0,0.0
-1.505085,-11.006985,-7.881958,-41.02,-28.91,-46.060001,1729475142706.0,0.0
-1.18684,-7.9681,-6.266802,0.56,-32.060001,-35.490002,1729475142725.0,0.0
-0.42353,-5.922236,-5.285746,4.48,-42.139999,-33.110001,1729475142745.0,0.0
-0.753739,-7.566105,-7.573284,52.290001,-50.959999,-2.66,1729475142764.0,0.0
-1.758725,-7.594819,-8.640482,78.540001,-25.549999,11.41,1729475142786.0,0.0
-4.21376,-7.649854,-9.276974,6.37,16.030001,12.25,1729475142808.0,0.0
-5.072784,-8.798409,-10.554741,-62.790001,24.639999,11.97,1729475142827.0,0.0
-1.636691,-9.583255,-8.831908,-28.91,17.5,19.74,1729475142846.0,0.0
0.504886,-8.327023,-7.384251,23.24,52.009998,22.960001,1729475142864.0,0.0
