acc_x,acc_y,acc_z,gyr_x,gyr_y,gyr_z,timestamp,label
-2.285146,-4.754539,-6.709475,61.32,38.360001,47.880001,1729474563934.0,0.0
-0.976272,-4.740182,-5.130211,122.989998,33.880001,54.880001,1729474563938.0,0.0
-0.59342,-6.357729,-4.625326,124.599998,19.040001,50.610001,1729474563939.0,0.0
-2.0004,-9.353544,-4.953143,125.93,8.61,41.02,1729474563939.0,0.0
-3.151347,-9.382257,-5.862415,140.490005,6.58,27.370001,1729474563949.0,0.0
-1.708475,-5.766702,-7.41775,187.740005,-5.11,40.110001,1729474563970.0,0.0
-1.971686,-8.891729,-7.77428,242.479996,-2.45,54.670002,1729474563990.0,0.0
-2.493321,-12.373285,-6.02752,273.839996,13.37,40.810001,1729474564009.0,0.0
-3.146562,-11.569297,-3.096312,222.529999,36.470001,17.57,1729474564029.0,0.0
-3.455236,-8.472985,-2.18704,92.190002,57.68,-17.15,1729474564049.0,0.0
-3.388237,-7.537392,-3.189633,-36.049999,29.540001,-26.74,1729474564069.0,0.0
-2.634498,-9.32483,-5.180461,-79.800003,0.07,-21.0,1729474564089.0,0.0
-1.574477,-10.157533,-6.407979,-50.959999,-2.38,-12.74,1729474564109.0,0.0
-0.909273,-9.535398,-5.836094,49.98,24.43,3.5,1729474564128.0,0.0
-1.727618,-7.460821,-4.56072,116.830002,68.879997,10.15,1729474564149.0,0.0
-2.849852,-6.659225,-4.283153,99.75,84.840004,8.12,1729474564170.0,0.0
-3.431308,-7.453642,-3.591627,34.93,73.080002,9.03,1729474564189.0,0.0
-2.868994,-8.863015,-3.759124,-10.85,50.470001,11.41,1729474564208.0,0.0
-2.184647,-9.363115,-3.395415,-13.02,44.099998,15.26,1729474564229.0,0.0
-2.251646,-9.573684,-3.378666,3.78,47.529999,9.8,1729474564248.0,0.0
-2.467,-9.221939,-3.471986,13.09,50.189999,0.7,1729474564269.0,0.0
-2.388037,-9.406186,-3.409772,11.27,44.869999,-1.05,1729474564290.0,0.0
-2.009971,-8.975478,-3.180061,-25.83,38.009998,-9.73,1729474564310.0,0.0
-1.962115,-8.779266,-3.586841,-65.800003,34.650002,-15.82,1729474564329.0,0.0
-1.473979,-8.903693,-4.831109,-76.790001,27.51,-15.26,1729474564349.0,0.0
-0.923629,-10.011569,-6.381658,-56.420002,22.610001,-10.15,1729474564369.0,0.0
-0.468993,-10.475778,-6.30748,-28.210001,26.950001,-8.4,1729474564389.0,0.0
-0.564706,-10.533205,-5.888737,6.23,40.599998,-9.66,1729474564409.0,0.0
-1.081556,-10.34178,-4.938786,37.66,49.700001,-12.25,1729474564429.0,0.0
-1.433301,-10.191031,-4.307081,47.529999,47.25,-19.67,1729474564448.0,0.0
-1.277767,-9.68136,-4.383651,28.91,39.200001,-29.33,1729474564471.0,0.0
-0.856631,-9.126225,-4.656433,-4.9,30.870001,-34.439999,1729474564489.0,0.0
-0.155533,-8.11167,-4.855037,-37.52,22.68,-38.5,1729474564509.0,0.0
0.4666,-7.580462,-4.697111,-58.450001,19.18,-35.07,1729474564530.0,0.0
0.641276,-8.149954,-4.575077,-83.860001,19.389999,-36.400002,1729474564550.0,0.0
0.567099,-8.693125,-4.919643,-106.120003,22.33,-40.670002,1729474564570.0,0.0
0.258425,-8.580662,-5.699703,-101.220001,22.82,-40.670002,1729474564590.0,0.0
0.248854,-7.9346,-6.410372,-80.709999,18.969999,-38.920002,1729474564608.0,0.0
0.87338,-7.21436,-6.360123,-68.879997,15.82,-35.560001,1729474564630.0,0.0
0.552742,-7.858029,-5.742774,-44.52,29.610001,-25.27,1729474564656.0,0.0
-0.119641,-7.963314,-5.99402,-31.290001,33.599998,-26.040001,1729474564670.0,0.0
-0.5001,-7.506285,-6.659225,-22.4,27.790001,-27.860001,1729474564689.0,0.0
-0.323031,-6.486942,-6.515656,-31.01,21.42,-30.309999,1729474564710.0,0.0
-0.363709,-6.125626,-5.716454,-55.299999,19.32,-31.99,1729474564728.0,0.0
-0.713061,-6.920043,-5.309673,-72.940002,16.030001,-32.34,1729474564750.0,0.0
-0.973879,-7.877172,-5.704489,-55.790001,2.31,-31.01,1729474564773.0,0.0
-0.823131,-7.503892,-6.391229,-13.3,-11.62,-28.98,1729474564789.0,0.0
-0.928415,-6.4678,-6.02752,10.15,-12.88,-25.48,1729474564808.0,0.0
-1.174876,-5.489135,-5.201996,-16.17,-10.43,-25.129999,1729474564829.0,0.0
-1.586441,-5.414958,-5.673382,-63.279999,-18.34,-22.75,1729474564850.0,0.0
-1.667797,-6.618547,-6.896115,-98.559998,-24.710001,-19.530001,1729474564870.0,0.0
-1.024128,-7.496714,-7.424929,-90.580002,-27.65,-15.68,1729474564893.0,0.0
-0.677169,-7.252645,-7.52782,-39.759998,-23.59,-8.47,1729474564910.0,0.0
-0.808774,-6.345766,-7.087541,5.81,-11.76,-2.38,1729474564929.0,0.0
-1.155733,-5.556134,-7.56132,8.82,-8.61,-2.73,1729474564949.0,0.0
-1.299303,-5.67099,-8.102098,-40.670002,-12.53,-5.39,1729474564971.0,0.0
-1.356731,-5.807381,-8.238488,-70.0,-11.13,-7.56,1729474564991.0,0.0
-1.048056,-6.034698,-8.415558,-72.940002,-13.440001,-7.07,1729474565011.0,0.0
-0.801596,-6.242875,-8.645268,-56.98,-14.28,-4.76,1729474565031.0,0.0
-0.964308,-6.348158,-8.386844,-33.740002,-8.68,-2.52,1729474565050.0,0.0
-1.019342,-6.175875,-8.216952,-13.93,-4.27,-1.47,1729474565073.0,0.0
-0.90688,-6.190232,-7.465607,-3.57,-5.18,-1.75,1729474565093.0,0.0
-1.392623,-7.171289,-7.192825,-17.360001,-1.33,-8.26,1729474565111.0,0.0
-1.241875,-6.951149,-7.470392,-36.189999,-9.17,-16.52,1729474565131.0,0.0
-0.885344,-6.26441,-7.889136,-34.720001,-14.56,-18.48,1729474565150.0,0.0
-0.583849,-6.089733,-8.432307,-19.32,-16.309999,-16.940001,1729474565171.0,0.0
-0.342174,-5.632704,-8.977871,2.94,-15.96,-10.29,1729474565192.0,0.0
-0.59342,-5.300103,-8.970692,10.57,-8.68,-4.62,1729474565210.0,0.0
-0.746561,-5.838487,-8.451449,-1.89,-4.06,-3.99,1729474565230.0,0.0
-0.236889,-5.893522,-8.592626,-14.07,-11.13,-8.19,1729474565250.0,0.0
-0.196211,-5.687739,-8.590233,-8.68,-7.35,-8.33,1729474565271.0,0.0
-0.433101,-5.575277,-8.611769,2.1,-4.97,-6.16,1729474565293.0,0.0
-0.265603,-5.319244,-8.662018,8.12,-5.81,-4.97,1729474565311.0,0.0
-0.122034,-5.297709,-8.666803,2.24,-5.74,-4.13,1729474565331.0,0.0
-0.200997,-5.446064,-8.628519,-2.94,-4.48,-3.43,1729474565350.0,0.0
-0.399601,-5.517848,-8.492127,0.56,-3.08,-2.66,1729474565375.0,0.0
-0.562313,-5.261817,-8.662018,7.07,-3.78,-1.82,1729474565392.0,0.0
-0.433101,-5.166104,-8.762517,9.31,-6.51,-0.07,1729474565410.0,0.0
-0.284746,-5.264209,-8.750552,3.36,-7.07,0.7,1729474565430.0,0.0
-0.236889,-5.479564,-8.865408,-4.48,-5.81,0.7,1729474565450.0,0.0
-0.40678,-5.4676,-8.62134,-12.46,-3.43,-1.61,1729474565471.0,0.0
-0.698704,-5.594419,-8.429914,-16.799999,-1.4,-3.08,1729474565492.0,0.0
-0.784846,-5.663811,-8.293523,-13.37,-0.35,-3.43,1729474565510.0,0.0
-0.866202,-5.826523,-8.547162,-1.61,-2.94,-1.54,1729474565530.0,0.0
-1.31366,-5.816952,-8.482556,1.75,2.73,-1.05,1729474565552.0,0.0
-1.732404,-6.199803,-8.161918,-0.98,6.72,-1.33,1729474565572.0,0.0
-1.430908,-6.271588,-8.070991,1.05,5.67,-2.94,1729474565590.0,0.0
-1.354338,-6.13759,-8.001599,9.73,7.07,-3.78,1729474565610.0,0.0
-1.411765,-5.816952,-8.135597,17.92,8.75,-4.34,1729474565630.0,0.0
-1.311267,-5.845665,-8.106883,24.15,7.35,-3.43,1729474565652.0,0.0
-1.174876,-5.802595,-8.073383,27.860001,8.05,-3.92,1729474565671.0,0.0
-1.091127,-5.448457,-8.10449,29.469999,7.49,-4.2,1729474565691.0,0.0
-1.095913,-5.417351,-8.130811,22.33,10.43,-4.62,1729474565710.0,0.0
-1.007378,-5.833702,-8.422735,5.32,7.77,-6.09,1729474565729.0,0.0
-0.940379,-6.178268,-8.566305,-6.51,10.29,-8.75,1729474565749.0,0.0
-0.909273,-6.348158,-8.516055,-6.79,13.37,-11.62,1729474565773.0,0.0
-0.859023,-6.130411,-8.102098,2.45,14.84,-13.440001,1729474565790.0,0.0
-0.935594,-6.142376,-8.114061,14.14,14.07,-13.16,1729474565809.0,0.0
-1.294517,-6.218946,-8.245667,12.81,19.040001,-14.49,1729474565830.0,0.0
-1.787439,-6.374479,-7.999206,7.28,26.18,-16.52,1729474565850.0,0.0
-1.37348,-6.403193,-7.819745,12.04,17.639999,-16.309999,1729474565870.0,0.0
-0.473779,-6.130411,-8.161918,21.35,-3.43,-14.91,1729474565891.0,0.0
-0.507278,-5.565705,-8.298308,14.35,-4.69,-20.23,1729474565910.0,0.0
-1.002593,-5.596812,-8.154739,6.37,11.48,-23.450001,1729474565930.0,0.0
-0.744168,-5.766702,-7.60439,5.6,2.38,-22.75,1729474565951.0,0.0
-0.363709,-6.142376,-8.047063,7.84,-9.03,-18.969999,1729474565971.0,0.0
-0.421137,-5.809773,-8.377272,3.78,-5.88,-20.65,1729474565991.0,0.0
-0.629312,-5.426922,-7.862815,4.48,4.06,-19.879999,1729474566010.0,0.0
0.133998,-5.419744,-7.456036,8.89,-11.34,-17.15,1729474566031.0,0.0
1.172483,-5.522634,-7.676175,-2.38,-31.01,-14.7,1729474566050.0,0.0
1.328017,-6.113662,-8.157133,-21.91,-28.559999,-17.290001,1729474566071.0,0.0
0.545564,-6.312266,-7.925028,-26.110001,-12.46,-21.559999,1729474566091.0,0.0
-0.244068,-6.407979,-7.805387,-8.96,-7.49,-22.540001,1729474566109.0,0.0
-0.246461,-6.149554,-7.554141,7.7,-15.26,-22.889999,1729474566130.0,0.0
0.289532,-6.096912,-7.963314,14.14,-26.880001,-21.77,1729474566151.0,0.0
0.370888,-5.893522,-8.243275,4.2,-27.58,-24.290001,1729474566170.0,0.0
0.009571,-5.491528,-7.73121,-8.96,-15.82,-28.559999,1729474566192.0,0.0
-0.023928,-5.781059,-7.814958,-6.93,-16.940001,-29.4,1729474566211.0,0.0
0.909273,-6.118448,-8.482556,16.66,-34.369999,-28.98,1729474566229.0,0.0
1.701297,-5.948557,-8.673983,41.23,-44.029999,-27.58,1729474566250.0,0.0
1.301696,-5.144568,-7.733603,16.24,-30.1,-32.900002,1729474566271.0,0.0
0.48335,-5.546563,-7.869993,-25.200001,-16.450001,-39.41,1729474566292.0,0.0
0.401994,-6.443871,-8.070991,-40.740002,-18.9,-42.91,1729474566309.0,0.0
0.794417,-8.324631,-6.34098,2.73,-26.32,-38.709999,1729474566329.0,0.0
0.215354,-5.455636,-6.484549,23.309999,-34.580002,-46.689999,1729474566349.0,0.0
-0.18664,-5.101498,-7.862815,13.86,-49.560001,-49.349998,1729474566371.0,0.0
0.665205,-4.010371,-8.379664,-32.970001,-48.16,-46.130001,1729474566391.0,0.0
1.519442,-4.582255,-9.099905,-65.940002,-50.049999,-31.290001,1729474566411.0,0.0
2.26361,-5.419744,-9.08794,-79.940002,-41.720001,-22.610001,1729474566430.0,0.0
2.096112,-5.876772,-8.707481,-59.990002,-28.07,-14.84,1729474566450.0,0.0
1.72044,-5.273781,-8.84148,-27.860001,-23.1,-12.18,1729474566470.0,0.0
1.615155,-5.271388,-9.399008,-11.34,-25.76,-11.27,1729474566492.0,0.0
1.765903,-4.922036,-9.889536,-16.66,-21.77,-16.799999,1729474566511.0,0.0
1.820938,-4.675575,-10.561919,-22.960001,-15.05,-20.02,1729474566529.0,0.0
1.753939,-4.469792,-10.236496,-29.4,-5.88,-21.49,1729474566549.0,0.0
1.100698,-4.362115,-9.403792,-34.860001,5.32,-22.82,1729474566571.0,0.0
0.954736,-4.144369,-9.286544,-18.9,9.24,-25.059999,1729474566591.0,0.0
1.150948,-4.393222,-9.62154,5.67,6.44,-24.85,1729474566611.0,0.0
1.631905,-4.146761,-10.229317,25.690001,5.6,-27.65,1729474566631.0,0.0
1.37348,-3.617948,-8.798409,40.529999,12.39,-24.219999,1729474566649.0,0.0
0.971486,-4.141976,-8.499306,20.02,17.92,-24.290001,1729474566671.0,0.0
0.997807,-4.570292,-8.705089,-1.05,13.86,-25.48,1729474566697.0,0.0
1.20359,-4.802395,-9.355937,16.450001,13.37,-18.48,1729474566709.0,0.0
1.342373,-5.491528,-8.25763,60.970001,17.99,-7.28,1729474566730.0,0.0
0.952343,-4.225725,-6.565905,75.040001,23.799999,-2.87,1729474566749.0,0.0
0.150748,-3.282953,-7.398607,49.209999,20.23,2.17,1729474566773.0,0.0
0.09332,-3.689733,-7.537392,1.68,9.45,9.8,1729474566791.0,0.0
0.167498,-4.735396,-7.84128,-26.67,7.42,22.889999,1729474566810.0,0.0
0.275175,-5.374279,-8.190632,-31.85,0.49,32.060001,1729474566829.0,0.0
0.739382,-5.4006,-8.362915,-44.240002,-7.42,35.420002,1729474566850.0,0.0
1.036092,-5.309673,-9.858429,-64.400002,-12.81,32.27,1729474566871.0,0.0
1.086342,-4.886144,-9.568897,-39.689999,-12.81,30.17,1729474566891.0,0.0
0.643669,-5.278566,-9.908678,-13.02,6.44,29.82,1729474566913.0,0.0
0.990629,-4.675575,-9.35833,-33.32,5.04,19.110001,1729474566931.0,0.0
1.730011,-5.295317,-9.042477,-73.57,4.48,5.74,1729474566951.0,0.0
1.72044,-7.152147,-9.322437,-73.989998,4.55,-8.54,1729474566972.0,0.0
0.837488,-7.111469,-9.719646,-11.69,12.04,-25.059999,1729474566996.0,0.0
-0.162712,-5.766702,-9.126225,73.150002,4.9,-29.68,1729474567010.0,0.0
-0.674776,-3.888337,-8.348558,78.68,-2.59,-37.310001,1729474567031.0,0.0
-0.57667,-4.149154,-9.01137,10.29,-8.96,-47.529999,1729474567052.0,0.0
0.880559,-5.630312,-9.568897,-26.950001,-17.710001,-49.98,1729474567072.0,0.0
2.344966,-5.319244,-8.800802,19.530001,-16.52,-36.610001,1729474567091.0,0.0
1.854438,-2.321038,-7.329216,76.790001,-0.84,-14.7,1729474567111.0,0.0
0.291924,-0.863809,-6.625726,33.18,13.65,2.24,1729474567131.0,0.0
-0.193819,-1.428515,-7.496714,-63.490002,2.31,13.09,1729474567151.0,0.0
0.050249,-5.460421,-9.164511,-105.980003,-15.82,24.92,1729474567172.0,0.0
-0.363709,-6.037091,-10.336994,-58.380001,-9.17,24.219999,1729474567193.0,0.0
-0.744168,-4.591826,-11.289338,-7.14,-0.77,21.49,1729474567211.0,0.0
-0.267996,-4.027121,-9.083155,-34.790001,9.52,10.99,1729474567231.0,0.0
0.442672,-7.618747,-7.757531,-53.900002,4.34,3.78,1729474567251.0,0.0
1.385444,-9.343972,-9.099905,-2.87,-13.79,-15.96,1729474567272.0,0.0
0.232104,-7.439285,-9.466006,81.620003,-9.59,-27.860001,1729474567292.0,0.0
-1.301696,-4.321437,-8.606983,90.440002,1.68,-36.610001,1729474567311.0,0.0
-1.639083,-3.129812,-8.489735,18.059999,-5.53,-40.040001,1729474567331.0,0.0
-0.177069,-4.362115,-8.946764,-34.439999,-16.52,-35.139999,1729474567352.0,0.0
0.634098,-4.175476,-8.657232,-22.4,-12.88,-24.219999,1729474567372.0,0.0
0.29671,-2.799603,-8.516055,3.43,-0.84,-15.190001,1729474567392.0,0.0
0.445065,-1.739582,-8.614161,5.53,-2.24,-3.92,1729474567415.0,0.0
1.067199,-0.68674,-8.334201,8.68,-11.27,14.7,1729474567431.0,0.0
0.859023,-1.847259,-7.963314,13.65,-12.81,37.799999,1729474567451.0,0.0
0.457029,-2.63689,-9.4349,-33.25,-8.75,39.549999,1729474567472.0,0.0
-0.887737,-4.096512,-11.093125,-68.739998,-3.22,39.900002,1729474567492.0,0.0
-1.284946,-5.125426,-11.954542,-61.810001,6.86,32.689999,1729474567510.0,0.0
0.141177,-6.817152,-8.724231,-5.74,8.54,31.360001,1729474567531.0,0.0
0.445065,-7.369894,-7.743174,14.84,8.75,14.77,1729474567551.0,0.0
-0.205783,-7.688138,-8.729016,38.150002,4.76,1.96,1729474567572.0,0.0
-1.009771,-7.678568,-9.255438,58.869999,4.55,-9.73,1729474567592.0,0.0
-1.189233,-5.972485,-8.953942,56.560001,5.81,-19.389999,1729474567611.0,0.0
-0.756132,-5.364708,-9.401401,45.849998,-0.56,-20.16,1729474567631.0,0.0
0.241675,-3.869194,-8.200203,35.77,-1.26,-20.299999,1729474567651.0,0.0
0.555135,-3.826123,-8.523234,19.32,-4.48,-13.3,1729474567671.0,0.0
0.344566,-4.359723,-8.166703,5.81,3.36,-13.02,1729474567692.0,0.0
-0.193819,-3.438486,-8.226524,14.91,4.76,-7.28,1729474567710.0,0.0
-0.299103,-3.012564,-8.338986,9.94,-1.33,-1.61,1729474567730.0,0.0
0.009571,-3.199204,-8.293523,-13.16,-6.23,0.49,1729474567751.0,0.0
0.878166,-2.74696,-9.260223,-48.299999,-14.14,-0.28,1729474567774.0,0.0
1.294517,-2.210968,-8.575876,-47.529999,-12.39,8.82,1729474567790.0,0.0
0.859023,-3.795017,-9.377472,-9.17,-7.14,30.52,1729474567810.0,0.0
-0.691526,-4.419543,-7.707282,-6.23,-1.89,33.810001,1729474567830.0,0.0
-2.833102,-3.194418,-12.653246,-26.110001,26.040001,30.870001,1729474567850.0,0.0
-0.528814,-4.867002,-9.958927,-45.290001,1.19,37.73,1729474567871.0,0.0
0.344566,-7.207181,-8.377272,-34.09,4.48,39.689999,1729474567893.0,0.0
0.11007,-8.38445,-8.690732,-0.42,11.76,21.35,1729474567910.0,0.0
-0.674776,-9.367901,-9.064013,66.709999,2.59,11.41,1729474567931.0,0.0
-0.595813,-6.707082,-8.537591,87.080002,2.8,-10.71,1729474567950.0,0.0
-0.830309,-5.639884,-8.764909,72.730003,-4.76,-19.67,1729474567971.0,0.0
-0.658026,-4.625326,-8.305488,34.93,-4.76,-32.060001,1729474567991.0,0.0
-0.210568,-2.861816,-7.984849,0.56,-4.69,-29.4,1729474568011.0,0.0
0.098106,-3.175276,-8.908479,-23.309999,-15.26,-18.620001,1729474568030.0,0.0
-0.189033,-2.29711,-8.181061,-11.76,0.07,-6.58,1729474568050.0,0.0
-0.40678,-1.67019,-8.504091,-9.03,-1.82,10.22,1729474568071.0,0.0
0.217747,-1.289732,-8.482556,-21.35,-12.53,21.559999,1729474568091.0,0.0
0.20339,-2.727818,-9.262616,-17.5,-10.01,38.709999,1729474568110.0,0.0
0.468993,-3.804588,-10.449455,-28.07,-10.57,42.139999,1729474568131.0,0.0
-0.803988,-4.548756,-9.255438,-39.27,5.32,43.119999,1729474568150.0,0.0
-0.990629,-5.608776,-11.234302,-49.84,13.37,37.240002,1729474568171.0,0.0
0.275175,-6.752545,-9.360723,-43.540001,6.86,32.34,1729474568193.0,0.0
0.057428,-8.334201,-8.673983,8.05,15.54,21.700001,1729474568211.0,0.0
-1.241875,-9.549755,-8.350951,49.700001,19.6,3.36,1729474568230.0,0.0
-1.598405,-7.355537,-8.066205,66.849998,10.92,-17.85,1729474568251.0,0.0
-1.323231,-5.960521,-8.295916,56.349998,-4.83,-26.110001,1729474568272.0,0.0
-1.055235,-6.04427,-8.987441,26.950001,-5.95,-35.420002,1729474568293.0,0.0
-0.672383,-4.197011,-7.412964,7.35,-3.99,-41.580002,1729474568310.0,0.0
-0.272782,-4.007978,-8.394022,2.59,-15.47,-33.110001,1729474568330.0,0.0
-0.098106,-3.201597,-8.597411,-4.55,-6.79,-27.23,1729474568351.0,0.0
-0.543171,-2.311467,-7.822137,-0.49,0.7,-12.81,1729474568371.0,0.0
-0.107677,-2.105684,-8.767302,-11.06,-6.79,-3.5,1729474568391.0,0.0
0.815953,-1.428515,-9.08794,-19.389999,-15.61,7.7,1729474568412.0,0.0
0.425922,-3.04367,-9.367901,-4.9,-5.95,28.280001,1729474568430.0,0.0
-0.179462,-4.302295,-8.740981,-21.280001,-0.28,25.83,1729474568450.0,0.0
-1.691726,-5.07757,-8.255238,-35.349998,7.56,22.889999,1729474568471.0,0.0
-1.880759,-3.996014,-13.347164,-41.369999,13.93,16.870001,1729474568491.0,0.0
-0.145962,-4.512863,-10.382458,-44.099998,6.51,21.98,1729474568510.0,0.0
0.401994,-7.939385,-7.530212,-12.88,16.52,20.58,1729474568529.0,0.0
-0.583849,-9.640682,-8.219346,38.709999,16.52,4.55,1729474568551.0,0.0
-1.117448,-7.554141,-8.965906,71.889999,4.41,-15.4,1729474568571.0,0.0
-1.119841,-5.381458,-8.717053,71.120003,0.77,-26.110001,1729474568591.0,0.0
-1.282553,-5.091926,-8.721838,44.66,-0.07,-30.309999,1729474568610.0,0.0
-1.399801,-4.185047,-8.037491,12.95,6.16,-34.09,1729474568630.0,0.0
-0.782453,-3.725625,-8.669197,-17.5,-4.27,-31.639999,1729474568650.0,0.0
-0.148355,-4.268795,-8.784052,-18.200001,-9.94,-24.01,1729474568671.0,0.0
-0.167498,-2.852244,-7.645068,8.12,2.45,-16.030001,1729474568692.0,0.0
-0.157926,-1.533799,-7.597212,2.17,-2.59,-5.74,1729474568709.0,0.0
0.311067,-1.356731,-8.176274,-27.790001,-12.67,2.73,1729474568737.0,0.0
0.789631,-2.419144,-9.095119,-40.670002,-16.52,14.77,1729474568751.0,0.0
1.098306,-3.976871,-9.186047,-33.810001,-19.809999,24.92,1729474568773.0,0.0
-0.119641,-4.790431,-8.102098,-28.49,-4.48,27.860001,1729474568792.0,0.0
-2.084148,-3.938586,-10.853845,-23.870001,11.9,26.110001,1729474568810.0,0.0
-1.619941,-3.17049,-12.942777,-32.27,0.91,30.66,1729474568831.0,0.0
-0.234497,-6.424729,-9.437292,-45.290001,12.6,41.09,1729474568851.0,0.0
-0.476172,-9.635897,-8.322237,-0.14,23.379999,26.6,1729474568953.0,0.0
-1.165305,-9.128618,-8.60459,72.379997,10.43,10.36,1729474568954.0,0.0
-0.933201,-5.338387,-8.413164,77.07,5.6,-17.290001,1729474568954.0,0.0
-1.095913,-5.47717,-8.958728,26.74,-0.84,-26.880001,1729474568954.0,0.0
-0.485743,-5.852845,-7.293324,-11.48,0.56,-41.650002,1729474568978.0,0.0
-0.200997,-2.45025,-7.290931,21.98,0.35,-42.490002,1729474568991.0,0.0
-0.476172,-1.0002,-7.156933,46.759998,-7.98,-37.52,1729474569010.0,0.0
-0.598206,-1.395016,-7.568498,21.42,-4.2,-22.889999,1729474569030.0,0.0
-0.189033,-2.900101,-8.662018,-15.82,-6.02,-5.95,1729474569051.0,0.0
0.665205,-3.146562,-10.076177,-53.549999,-22.82,10.71,1729474569072.0,0.0
0.320638,-3.393023,-10.310673,-30.450001,-14.35,21.0,1729474569092.0,0.0
-1.009771,-4.45065,-8.4347,-6.93,1.61,26.18,1729474569112.0,0.0
-1.397408,-3.510271,-12.263215,-15.54,3.64,23.940001,1729474569132.0,0.0
0.236889,-4.201797,-10.832308,-51.73,7.84,24.08,1729474569153.0,0.0
0.275175,-6.975078,-9.128618,-35.420002,19.950001,25.969999,1729474569173.0,0.0
-0.892523,-9.817751,-8.346166,34.860001,29.190001,16.379999,1729474569192.0,0.0
-1.646262,-7.908278,-8.324631,82.040001,17.15,-7.63,1729474569212.0,0.0
-1.387837,-4.87418,-8.327023,58.52,3.92,-26.950001,1729474569233.0,0.0
-1.17009,-6.070591,-9.040084,6.02,-3.22,-36.540001,1729474569251.0,0.0
-0.854238,-6.996613,-9.164511,-12.6,1.4,-47.110001,1729474569273.0,0.0
-0.959522,-4.644469,-7.087541,24.92,-0.28,-46.689999,1729474569295.0,0.0
-1.069592,-2.127219,-7.336394,29.26,-7.21,-42.0,1729474569312.0,0.0
-0.447458,-1.062413,-8.106883,-1.05,-10.71,-28.139999,1729474569332.0,0.0
0.119641,-1.509871,-7.76471,-23.030001,-11.27,-5.88,1729474569352.0,0.0
0.447458,-1.928615,-8.468199,-44.450001,-12.67,8.68,1729474569372.0,0.0
0.404387,-2.438286,-9.267403,-47.389999,-15.190001,19.879999,1729474569393.0,0.0
0.552742,-2.912065,-9.77468,-42.279999,-16.59,25.34,1729474569412.0,0.0
-0.253639,-4.240082,-9.872787,-22.049999,-10.64,31.290001,1729474569431.0,0.0
-1.933401,-3.448057,-12.476178,-5.95,9.66,29.190001,1729474569457.0,0.0
-0.662812,-3.038885,-11.373087,-38.920002,8.68,31.57,1729474569473.0,0.0
0.272782,-5.759524,-9.346365,-39.830002,12.25,37.170002,1729474569496.0,0.0
-0.387637,-9.300901,-7.939385,5.32,23.52,27.790001,1729474569512.0,0.0
-1.347159,-8.578269,-9.071191,63.07,15.190001,5.25,1729474569532.0,0.0
-1.158126,-5.300103,-8.640482,59.220001,7.42,-17.85,1729474569551.0,0.0
-1.033699,-5.522634,-8.927622,9.31,-2.03,-30.450001,1729474569574.0,0.0
-0.928415,-7.549356,-9.485149,-7.98,2.17,-42.349998,1729474569593.0,0.0
-0.70349,-6.240481,-7.274181,47.670002,2.87,-45.009998,1729474569612.0,0.0
-0.844666,-2.624927,-6.740582,83.230003,-2.38,-38.290001,1729474569639.0,0.0
-0.756132,-0.445065,-7.51107,34.650002,-8.19,-28.91,1729474569726.0,0.0
-0.141177,-0.631705,-8.073383,-13.440001,-11.55,-9.38,1729474569727.0,0.0
-0.026321,-2.672783,-8.209774,-35.279999,-7.91,14.14,1729474569728.0,0.0
0.227318,-3.730411,-8.788837,-43.75,-12.11,19.950001,1729474569732.0,0.0
0.653241,-3.481557,-10.145569,-47.459999,-17.639999,19.950001,1729474569733.0,0.0
0.205783,-4.539185,-9.920642,-42.560001,-10.85,19.25,1729474569752.0,0.0
-0.909273,-4.632504,-10.619347,-23.66,8.4,17.08,1729474569775.0,0.0
-0.976272,-3.790231,-11.205588,-14.0,8.89,18.620001,1729474569790.0,0.0
-0.119641,-6.005985,-9.487542,-40.18,12.39,19.950001,1729474569812.0,0.0
-0.057428,-8.623734,-8.764909,6.37,13.09,16.52,1729474569831.0,0.0
-0.961915,-8.161918,-8.999406,61.110001,15.75,0.49,1729474569852.0,0.0
-1.299303,-5.706882,-8.815158,73.150002,12.39,-17.219999,1729474569872.0,0.0
-1.014557,-5.520242,-8.88455,54.25,1.75,-23.66,1729474569892.0,0.0
-0.988236,-5.692525,-8.652447,43.049999,3.57,-30.73,1729474569911.0,0.0
-1.067199,-3.436093,-7.326823,36.959999,5.46,-34.860001,1729474569931.0,0.0
-1.182054,-2.706282,-7.712067,10.92,-3.99,-30.59,1729474569951.0,0.0
-0.631705,-2.801995,-8.025528,-10.29,-10.36,-21.07,1729474569972.0,0.0
-0.246461,-2.225325,-7.915457,-10.99,-9.03,-6.51,1729474569994.0,0.0
0.200997,-1.902294,-8.056634,-24.08,-10.08,3.71,1729474570011.0,0.0
0.602991,-2.48375,-8.764909,-40.040001,-14.98,14.49,1729474570032.0,0.0
1.040878,-3.235096,-9.717253,-49.560001,-18.059999,20.93,1729474570051.0,0.0
0.198604,-4.639683,-9.975677,-32.41,-7.77,27.93,1729474570072.0,0.0
-0.964308,-4.596612,-10.29153,-10.01,7.14,26.18,1729474570093.0,0.0
-1.349552,-4.338188,-11.270195,0.84,10.22,29.540001,1729474570111.0,0.0
-0.160319,-5.98445,-8.949157,-36.049999,12.74,21.98,1729474570131.0,0.0
-0.40678,-8.779266,-8.563912,2.45,13.09,17.01,1729474570151.0,0.0
-1.06002,-8.599805,-8.961121,46.27,13.58,-4.34,1729474570172.0,0.0
-1.308874,-6.053841,-9.269794,56.420002,7.77,-22.190001,1729474570192.0,0.0
-1.275374,-5.458029,-8.910872,37.450001,2.17,-30.940001,1729474570211.0,0.0
-1.339981,-5.716454,-8.228917,22.469999,3.43,-37.450001,1729474570231.0,0.0
-1.227518,-3.871587,-7.377072,18.83,0.63,-40.110001,1729474570251.0,0.0
-1.079163,-2.63689,-8.094919,5.46,-6.93,-33.110001,1729474570272.0,0.0
-0.89013,-2.337788,-8.130811,-2.73,-3.78,-18.34,1729474570293.0,0.0
-0.57667,-2.038685,-8.102098,-6.58,-2.73,-2.24,1729474570311.0,0.0
-0.014357,-2.115255,-8.133204,-13.23,-7.7,9.59,1729474570332.0,0.0
0.629312,-2.318645,-8.525627,-21.35,-14.21,18.48,1729474570351.0,0.0
0.954736,-2.596212,-9.590433,-32.200001,-20.299999,24.85,1729474570372.0,0.0
-0.155533,-3.919443,-9.750752,-36.259998,-6.44,30.450001,1729474570394.0,0.0
-1.033699,-4.486543,-10.329816,-26.040001,4.55,31.08,1729474570412.0,0.0
-1.289732,-3.943372,-11.617154,-29.540001,5.18,32.900002,1729474570431.0,0.0
-0.397209,-5.199604,-9.298509,-38.220001,9.03,33.18,1729474570452.0,0.0
-0.964308,-9.068797,-8.542377,22.75,19.67,25.83,1729474570472.0,0.0
-1.816152,-7.592427,-9.145369,49.209999,17.99,1.89,1729474570493.0,0.0
-1.65344,-5.548956,-8.973085,24.15,6.72,-17.15,1729474570511.0,0.0
-0.969093,-6.613762,-8.796017,-23.24,-3.43,-31.85,1729474570532.0,0.0
-0.579063,-8.147561,-8.664411,-12.81,-5.25,-42.139999,1729474570551.0,0.0
-1.17009,-6.144768,-6.699903,49.07,-1.96,-48.439999,1729474570572.0,0.0
-1.363909,-2.043471,-7.515855,70.769997,-11.13,-47.18,1729474570592.0,0.0
-0.959522,-0.464208,-7.975278,37.799999,-19.18,-28.91,1729474570611.0,0.0
-0.265603,0.497707,-8.465806,-9.52,-13.02,-8.89,1729474570631.0,0.0
-0.562313,-1.246661,-8.846266,-26.809999,-5.11,21.91,1729474570651.0,0.0
0.191426,-4.027121,-9.889536,-46.619999,-17.57,26.25,1729474570672.0,0.0
0.930808,-4.041477,-9.784252,-48.439999,-17.43,21.210001,1729474570695.0,0.0
-0.019143,-4.625326,-9.870394,-41.860001,-8.82,15.26,1729474570711.0,0.0
-0.440279,-4.278367,-11.413764,-27.09,8.26,9.52,1729474570730.0,0.0
-0.801596,-3.744767,-11.334801,3.78,6.3,21.84,1729474570751.0,0.0
-0.61017,-4.709075,-10.459028,-19.809999,21.0,16.17,1729474570781.0,0.0
-1.048056,-8.465806,-7.977671,-9.52,22.610001,15.61,1729474570791.0,0.0
-1.825724,-8.149954,-8.319844,42.560001,17.360001,-7.56,1729474570811.0,0.0
-1.538585,-5.532206,-8.894121,37.869999,3.57,-26.67,1729474570832.0,0.0
-1.050449,-5.881558,-8.91805,14.77,-6.02,-34.580002,1729474570852.0,0.0
-1.225125,-7.128219,-9.135797,15.75,1.26,-42.560001,1729474570872.0,0.0
-1.253839,-4.386044,-7.123433,46.200001,0.7,-48.09,1729474570893.0,0.0
-1.095913,-1.141376,-7.551748,41.93,-8.68,-39.34,1729474570911.0,0.0
-0.62692,-0.334995,-8.118847,1.68,-11.62,-21.700001,1729474570930.0,0.0
-0.334995,-1.249053,-8.25763,-21.07,-7.56,2.8,1729474570951.0,0.0
-0.210568,-2.318645,-8.676375,-34.790001,-8.96,15.96,1729474570971.0,0.0
0.607777,-2.59382,-9.805787,-43.959999,-18.76,17.92,1729474570991.0,0.0
0.823131,-3.292524,-10.616954,-41.02,-17.85,21.77,1729474571011.0,0.0
-0.382852,-4.847858,-10.358529,-22.33,2.66,24.08,1729474571031.0,0.0
-1.325624,-4.553542,-10.054641,-1.82,13.79,23.450001,1729474571051.0,0.0
-0.715454,-3.850052,-11.739187,-23.799999,13.65,21.700001,1729474571072.0,0.0
0.141177,-5.568098,-9.836893,-29.469999,16.59,27.02,1729474571092.0,0.0
-0.526421,-8.310273,-7.716853,11.13,25.690001,24.780001,1729474571111.0,0.0
-2.122434,-7.219146,-8.367701,52.5,25.690001,5.32,1729474571131.0,0.0
-1.584049,-5.343173,-9.004191,38.009998,-0.21,-21.49,1729474571151.0,0.0
-0.897308,-6.376873,-9.044869,5.53,-5.81,-30.799999,1729474571172.0,0.0
-0.964308,-7.456036,-8.834301,12.81,-5.81,-38.779999,1729474571193.0,0.0
-1.18684,-4.211368,-6.853044,49.490002,0.56,-44.170002,1729474571211.0,0.0
-1.234696,-1.684547,-7.487142,50.400002,-13.09,-36.330002,1729474571230.0,0.0
-0.323031,-0.380459,-8.281559,7.28,-16.940001,-22.120001,1729474571251.0,0.0
0.22014,-0.760918,-8.618947,-21.42,-11.62,3.29,1729474571271.0,0.0
0.454636,-2.409572,-9.145369,-40.040001,-12.04,18.059999,1729474571291.0,0.0
0.55992,-3.20399,-9.573684,-42.420002,-13.440001,21.210001,1729474571311.0,0.0
0.617348,-3.285345,-10.289137,-35.560001,-12.46,24.780001,1729474571331.0,0.0
-0.614955,-5.240282,-10.267602,-24.57,0.35,27.58,1729474571351.0,0.0
-1.521835,-5.065606,-10.255639,-11.48,19.25,21.629999,1729474571372.0,0.0
-0.748954,-4.223332,-12.086146,-21.98,14.07,20.299999,1729474571392.0,0.0
0.514457,-5.099105,-9.724431,-18.969999,17.219999,26.460001,1729474571411.0,0.0
-0.270389,-7.855636,-7.49432,15.96,28.630001,27.58,1729474571431.0,0.0
-1.868794,-8.331808,-7.848458,48.580002,30.59,9.8,1729474571450.0,0.0
-2.002793,-5.692525,-8.736196,20.65,4.06,-17.710001,1729474571472.0,0.0
-1.024128,-6.905686,-8.949157,-16.73,-8.96,-31.710001,1729474571497.0,0.0
-0.777667,-8.236095,-8.561519,5.04,-5.46,-40.880001,1729474571510.0,0.0
-1.177269,-4.852644,-6.778866,55.299999,-1.33,-49.279999,1729474571531.0,0.0
-1.31366,-2.021935,-6.965507,68.949997,-13.58,-40.810001,1729474571551.0,0.0
-0.492921,0.071785,-8.173882,21.42,-18.620001,-24.43,1729474571572.0,0.0
-0.009571,0.902094,-8.087741,-16.870001,-12.81,4.83,1729474571592.0,0.0
0.040678,-2.667997,-8.982656,-40.18,-11.55,31.57,1729474571611.0,0.0
0.964308,-4.273581,-9.41815,-64.75,-22.82,23.799999,1729474571631.0,0.0
1.28016,-3.495914,-10.456635,-61.880001,-19.530001,20.02,1729474571650.0,0.0
-0.004786,-5.206782,-10.468598,-33.110001,-7.42,21.49,1729474571672.0,0.0
-1.229911,-5.053641,-9.667004,-4.34,16.030001,19.74,1729474571691.0,0.0
-1.37348,-3.809374,-12.509676,-15.68,15.12,20.16,1729474571710.0,0.0
-0.234497,-5.065606,-10.224532,-30.59,15.54,25.27,1729474571730.0,0.0
-0.4666,-8.432307,-8.116454,6.72,23.1,26.74,1729474571750.0,0.0
-1.691726,-9.389436,-8.327023,49.560001,25.76,9.24,1729474571774.0,0.0
-1.938186,-6.386444,-8.867801,53.41,14.84,-18.620001,1729474571791.0,0.0
-1.074377,-6.18784,-8.449057,0.28,-4.69,-36.75,1729474571810.0,0.0
-0.856631,-8.221739,-9.075976,-1.82,-1.68,-47.32,1729474571831.0,0.0
-1.026521,-5.965307,-6.659225,47.040001,1.4,-54.880001,1729474571851.0,0.0
-1.354338,-2.452643,-6.728617,68.949997,-5.25,-50.610001,1729474571872.0,0.0
-0.677169,0.425922,-7.982457,27.93,-13.79,-33.810001,1729474571891.0,0.0
-0.244068,0.315853,-7.826923,-4.76,-11.97,-0.35,1729474571911.0,0.0
-0.200997,-2.132005,-8.240881,-39.549999,-11.34,21.49,1729474571930.0,0.0
-0.12682,-3.103491,-9.265009,-46.759998,-15.4,26.67,1729474571951.0,0.0
0.148355,-3.235096,-10.358529,-24.5,-21.700001,31.290001,1729474571971.0,0.0
-0.045464,-3.952943,-10.217353,-18.620001,-14.84,29.049999,1729474571992.0,0.0
-1.31366,-5.259424,-10.394422,-11.62,6.3,25.83,1729474572011.0,0.0
-1.459622,-4.197011,-11.736795,-14.21,14.42,15.96,1729474572030.0,0.0
-0.270389,-4.165904,-11.406586,-28.700001,10.99,19.18,1729474572050.0,0.0
0.318245,-6.398407,-9.516255,-14.49,22.049999,24.99,1729474572071.0,0.0
-0.90688,-9.427721,-7.353144,27.65,35.139999,21.629999,1729474572092.0,0.0
-1.85683,-8.571091,-7.819745,54.040001,27.51,-2.17,1729474572110.0,0.0
-1.210768,-5.737988,-8.336594,40.810001,4.2,-22.68,1729474572130.0,0.0
-0.832702,-7.735995,-8.970692,-6.72,-5.39,-36.400002,1729474572150.0,0.0
-0.911665,-8.085347,-7.652246,22.120001,-1.54,-45.360001,1729474572171.0,0.0
-1.071985,-3.63709,-6.826723,62.369999,-3.43,-47.529999,1729474572193.0,0.0
-0.653241,-0.985843,-7.54457,49.700001,-18.83,-32.060001,1729474572210.0,0.0
0.232104,1.366302,-7.707282,5.53,-17.5,-10.64,1729474572230.0,0.0
-0.658026,-1.239482,-7.819745,-21.84,-1.12,25.690001,1729474572250.0,0.0
-0.471386,-3.337988,-8.834301,-65.029999,-9.66,26.950001,1729474572271.0,0.0
0.378066,-4.012764,-10.052249,-66.220001,-28.07,25.129999,1729474572291.0,0.0
0.521635,-3.517449,-10.313066,-41.299999,-22.120001,21.07,1729474572310.0,0.0
-1.347159,-5.417351,-9.741181,-3.29,0.7,24.15,1729474572330.0,0.0
-2.766103,-4.577469,-9.485149,1.54,14.63,16.940001,1729474572350.0,0.0
-1.914258,-4.383651,-11.507084,-52.779999,5.04,10.29,1729474572371.0,0.0
0.155533,-5.551349,-9.705289,-62.860001,-3.57,13.37,1729474572394.0,0.0
0.579063,-8.398808,-9.396614,3.08,1.19,18.969999,1729474572410.0,0.0
-0.667598,-8.102098,-9.01137,52.920002,17.360001,4.34,1729474572429.0,0.0
-1.588834,-6.04427,-9.073583,42.07,20.02,-15.190001,1729474572450.0,0.0
-1.033699,-7.353144,-9.379865,7.21,7.21,-25.34,1729474572471.0,0.0
-0.782453,-8.087741,-8.355737,43.330002,7.35,-34.790001,1729474572491.0,0.0
-1.184447,-4.144369,-6.628119,78.959999,9.87,-40.950001,1729474572510.0,0.0
-1.725225,-1.655833,-6.108876,55.16,-1.75,-38.779999,1729474572530.0,0.0
-0.588634,0.160319,-7.513463,1.4,-15.61,-26.25,1729474572550.0,0.0
-0.117248,-2.354537,-7.805387,-28.559999,-17.57,5.25,1729474572571.0,0.0
0.184247,-4.527221,-8.767302,-52.639999,-12.81,7.84,1729474572591.0,0.0
0.485743,-3.960121,-9.815358,-39.549999,-19.32,7.49,1729474572610.0,0.0
0.495314,-2.569891,-9.243474,-11.27,-17.219999,11.62,1729474572630.0,0.0
-0.224925,-3.326023,-9.891929,-11.97,-8.4,20.719999,1729474572650.0,0.0
-1.048056,-4.381258,-10.442278,-23.940001,1.4,26.530001,1729474572672.0,0.0
-1.337588,-3.699304,-13.069597,-57.260002,15.4,20.440001,1729474572692.0,0.0
-0.533599,-4.850252,-11.148161,-69.160004,14.7,22.960001,1729474572711.0,0.0
-0.366102,-7.74796,-7.659425,-11.83,21.42,26.32,1729474572729.0,0.0
-1.328017,-8.525627,-8.633304,46.689999,23.030001,12.95,1729474572751.0,0.0
-1.698904,-5.962914,-8.51127,49.139999,16.450001,-11.76,1729474572773.0,0.0
-1.5003,-5.501099,-9.116654,2.59,6.3,-23.59,1729474572791.0,0.0
-1.301696,-7.410572,-8.973085,-9.52,8.05,-36.959999,1729474572811.0,0.0
-1.411765,-5.051248,-7.415358,47.599998,5.25,-38.779999,1729474572830.0,0.0
-1.741975,-3.113062,-7.042077,68.040001,-2.17,-36.259998,1729474572851.0,0.0
-1.079163,-0.447458,-6.692725,23.52,-11.62,-32.34,1729474572871.0,0.0
-0.021535,0.043071,-8.130811,-17.08,-23.52,-11.48,1729474572891.0,0.0
0.727418,-2.431108,-8.762517,-36.75,-21.0,10.08,1729474572909.0,0.0
1.012164,-3.809374,-9.013763,-40.810001,-22.33,19.389999,1729474572930.0,0.0
0.758525,-3.436093,-10.13839,-25.76,-14.0,25.129999,1729474572952.0,0.0
-0.009571,-4.429115,-10.119246,-1.47,-10.22,31.360001,1729474572971.0,0.0
-1.033699,-4.15394,-9.966106,3.43,7.91,31.43,1729474572992.0,0.0
-1.282553,-3.766303,-13.703696,-34.439999,10.57,28.07,1729474573010.0,0.0
-0.514457,-5.276174,-11.449656,-39.27,16.52,33.389999,1729474573030.0,0.0
-0.861416,-8.037491,-7.984849,9.38,31.15,34.23,1729474573051.0,0.0
-1.935793,-8.982656,-8.391629,57.959999,33.670002,17.43,1729474573071.0,0.0
-1.974079,-6.709475,-8.396415,63.560001,17.360001,-8.47,1729474573091.0,0.0
-1.172483,-5.98445,-8.056634,16.450001,4.27,-26.809999,1729474573110.0,0.0
-0.880559,-7.578069,-7.721639,-15.68,-0.63,-40.599998,1729474573131.0,0.0
-1.622334,-5.723632,-6.486942,57.959999,0.91,-49.490002,1729474573150.0,0.0
-1.993221,-2.658426,-5.54417,82.459999,-9.38,-44.450001,1729474573172.0,0.0
-0.62692,1.009771,-7.982457,8.47,-25.549999,-38.5,1729474573191.0,0.0
0.157926,-1.579263,-8.212167,-35.279999,-25.690001,-3.57,1729474573211.0,0.0
1.091127,-4.024727,-9.269794,-59.849998,-20.719999,5.11,1729474573230.0,0.0
0.837488,-3.74716,-9.762716,-23.940001,-17.08,16.73,1729474573250.0,0.0
0.174676,-2.600998,-9.518648,8.61,-12.67,21.210001,1729474573270.0,0.0
-0.698704,-4.201797,-10.564312,-12.11,-3.85,23.17,1729474573291.0,0.0
-0.993021,-5.211568,-10.459028,-13.37,4.41,23.030001,1729474573310.0,0.0
-1.014557,-4.309474,-11.933006,-8.68,18.9,22.049999,1729474573329.0,0.0
-0.468993,-4.852644,-10.700702,-20.790001,18.620001,24.15,1729474573351.0,0.0
-0.579063,-7.022934,-8.087741,0.91,29.049999,25.059999,1729474573371.0,0.0
-1.435694,-8.489735,-8.073383,36.189999,28.77,14.42,1729474573391.0,0.0
-1.887937,-7.293324,-8.429914,43.470001,16.73,-8.47,1729474573410.0,0.0
-1.56012,-6.470192,-8.274381,11.97,7.98,-26.32,1729474573429.0,0.0
-1.239482,-7.350751,-8.77448,-9.66,2.59,-38.43,1729474573451.0,0.0
-1.320838,-5.783452,-7.578069,21.91,6.16,-44.240002,1729474573471.0,0.0
-1.643869,-4.024727,-5.730811,54.529999,0.21,-44.939999,1729474573490.0,0.0
-0.540778,-1.189233,-6.85783,12.67,-16.24,-41.93,1729474573510.0,0.0
0.088534,-1.957329,-7.518249,-14.7,-20.58,-14.49,1729474573530.0,0.0
0.949951,-2.167897,-7.927422,-49.0,-16.799999,-7.14,1729474573549.0,0.0
0.844666,-2.502892,-9.059227,-39.689999,-15.82,14.98,1729474573570.0,0.0
0.55992,-2.85703,-9.844072,-10.01,-16.379999,25.129999,1729474573591.0,0.0
-0.368495,-3.68734,-8.729016,4.2,-8.33,33.740002,1729474573611.0,0.0
-1.241875,-3.945765,-9.875179,-18.969999,-0.91,26.880001,1729474573629.0,0.0
-1.521835,-4.524827,-10.906486,-19.25,0.42,31.08,1729474573651.0,0.0
-0.849452,-4.48415,-12.854243,-25.129999,8.33,29.610001,1729474573670.0,0.0
0.105284,-5.233103,-11.22473,-40.670002,17.639999,31.08,1729474573690.0,0.0
-0.062213,-7.341179,-8.142776,-1.12,27.51,34.16,1729474573710.0,0.0
-1.249053,-8.980263,-7.518249,43.330002,33.740002,23.799999,1729474573730.0,0.0
-1.919044,-7.525427,-8.085347,46.48,18.200001,-0.49,1729474573750.0,0.0
-1.536192,-6.443871,-8.090133,-3.57,6.37,-22.68,1729474573774.0,0.0
-1.26341,-8.018349,-8.693125,-42.349998,0.63,-36.189999,1729474573790.0,0.0
-1.316052,-8.38445,-8.118847,-4.97,3.85,-43.889999,1729474573810.0,0.0
-1.210768,-4.118048,-6.855437,87.5,-2.66,-43.540001,1729474573831.0,0.0
-0.708275,0.418744,-7.020542,46.060001,-16.1,-36.330002,1729474573849.0,0.0
0.088534,1.057628,-7.91785,0.35,-25.27,-10.78,1729474573939.0,0.0
0.667598,-1.928615,-8.867801,-56.420002,-20.23,10.29,1729474573943.0,0.0
0.497707,-4.106083,-9.815358,-63.279999,-15.96,19.040001,1729474573947.0,0.0
0.289532,-3.5007,-10.939985,-31.639999,-10.36,21.35,1729474573949.0,0.0
-0.315853,-4.378866,-10.183852,1.89,-3.36,27.51,1729474573949.0,0.0
-0.863809,-4.429115,-9.79143,-1.4,13.58,23.1,1729474573970.0,0.0
-0.933201,-4.098906,-12.323036,-33.32,16.030001,18.549999,1729474573990.0,0.0
-0.019143,-5.051248,-10.731809,-39.34,19.389999,23.66,1729474574009.0,0.0
-0.18664,-7.647461,-7.846066,11.97,28.07,31.360001,1729474574029.0,0.0
-1.395016,-8.977871,-7.743174,51.939999,31.219999,18.48,1729474574049.0,0.0
-1.773082,-7.037291,-8.379664,49.91,17.780001,-7.77,1729474574070.0,0.0
-1.239482,-6.240481,-8.391629,15.05,3.01,-24.43,1729474574090.0,0.0
-0.937986,-7.542177,-8.116454,-7.63,1.82,-36.959999,1729474574110.0,0.0
-1.392623,-8.623734,-8.9348,26.32,6.86,-43.610001,1729474574129.0,0.0
-1.488336,-3.330809,-5.812167,81.410004,1.96,-45.220001,1729474574149.0,0.0
-0.200997,1.153341,-7.80778,31.08,-19.18,-35.07,1729474574170.0,0.0
0.519243,-0.5001,-8.044669,-14.07,-24.92,-0.77,1729474574190.0,0.0
1.055235,-2.579463,-8.738588,-74.340004,-15.47,5.39,1729474574209.0,0.0
0.51685,-3.816552,-9.583255,-55.439999,-7.77,18.34,1729474574229.0,0.0
0.512064,-4.185047,-10.320245,-14.56,-16.870001,20.65,1729474574249.0,0.0
-0.258425,-4.108476,-8.650054,-15.89,-5.6,14.98,1729474574270.0,0.0
-1.385444,-5.182854,-8.946764,-17.92,0.21,9.73,1729474574290.0,0.0
-1.954936,-5.268995,-8.415558,-3.57,-2.1,6.65,1729474574309.0,0.0
-1.471586,-5.65424,-10.456635,-8.19,-8.82,4.06,1729474574329.0,0.0
-0.739382,-6.400801,-9.722038,-28.210001,-10.43,1.05,1729474574349.0,0.0
-0.452243,-7.32443,-9.487542,-21.559999,-4.06,-4.13,1729474574370.0,0.0
-0.387637,-7.089933,-8.882158,21.280001,-3.5,-7.28,1729474574401.0,0.0
-0.579063,-5.845665,-8.578269,68.879997,-0.42,-8.96,1729474574409.0,0.0
-0.90688,-5.295317,-9.066404,79.379997,-6.86,-8.54,1729474574430.0,0.0
-0.851845,-4.567898,-8.635696,50.470001,6.51,-17.08,1729474574449.0,0.0
-0.447458,-3.723232,-7.922636,23.52,1.47,-11.06,1729474574470.0,0.0
-0.598206,-5.285746,-8.360522,4.55,4.76,-6.16,1729474574490.0,0.0
-0.51685,-5.333601,-8.350951,15.61,2.52,-7.0,1729474574509.0,0.0
-0.430708,-4.76411,-8.293523,28.84,0.56,-4.9,1729474574529.0,0.0
-0.425922,-4.725825,-8.219346,12.53,-2.38,-7.77,1729474574551.0,0.0
-0.538385,-5.541777,-8.563912,-7.84,-3.92,-9.17,1729474574569.0,0.0
-0.48335,-5.922236,-8.46102,3.08,-3.15,-7.0,1729474574590.0,0.0
-0.495314,-5.17089,-7.317252,16.309999,-2.66,-0.77,1729474574609.0,0.0
-0.782453,-5.003392,-8.209774,1.26,-2.03,-0.14,1729474574630.0,0.0
-0.81356,-5.008178,-9.097511,-13.65,-4.2,2.8,1729474574650.0,0.0
-0.361316,-5.094319,-9.487542,-13.86,-5.46,6.72,1729474574671.0,0.0
-0.751346,-6.166305,-9.142976,-7.35,2.73,14.98,1729474574689.0,0.0
-1.356731,-6.398407,-8.9348,10.57,14.35,18.059999,1729474574711.0,0.0
-1.337588,-5.472386,-8.769694,16.1,16.309999,14.84,1729474574729.0,0.0
-1.036092,-5.864808,-8.532805,8.68,14.21,12.18,1729474574749.0,0.0
-0.507278,-5.938986,-8.843873,2.87,8.54,5.88,1729474574772.0,0.0
-0.473779,-5.848059,-7.551748,6.79,10.99,2.94,1729474574792.0,0.0
0.105284,-5.635098,-7.066005,-6.44,5.11,-3.43,1729474574808.0,0.0
0.492921,-5.424529,-6.470192,-46.200001,-2.38,-11.55,1729474574829.0,0.0
-0.471386,-6.317052,-8.195417,-71.400002,-7.49,-17.219999,1729474574850.0,0.0
-2.225325,-7.88435,-9.74836,-36.68,6.16,-18.690001,1729474574870.0,0.0
-2.031506,-6.960721,-8.9348,24.99,8.54,-21.559999,1729474574890.0,0.0
-0.648455,-5.125426,-8.669197,59.150002,-8.68,-20.370001,1729474574909.0,0.0
0.614955,-4.307081,-8.453842,44.66,-7.07,-21.98,1729474574929.0,0.0
1.713261,-4.426722,-6.74776,5.46,-12.6,-21.210001,1729474574950.0,0.0
0.68674,-4.316652,-5.149354,-28.630001,-11.83,-20.51,1729474574971.0,0.0
-0.90688,-3.215954,-7.133004,-53.27,-0.84,-21.280001,1729474574990.0,0.0
-1.404587,-5.938986,-10.033106,-42.630001,-32.689999,-11.9,1729474575009.0,0.0
-1.591227,-5.548956,-11.547763,3.99,-18.690001,-0.7,1729474575031.0,0.0
-2.696711,-3.383451,-10.542776,41.16,18.549999,17.01,1729474575049.0,0.0
-2.455036,-3.986443,-9.142976,44.799999,22.33,35.209999,1729474575069.0,0.0
0.303888,-4.031906,-8.422735,19.950001,-1.89,35.91,1729474575094.0,0.0
0.521635,-5.087141,-11.057234,35.560001,-0.28,43.75,1729474575109.0,0.0
-0.818345,-4.41715,-10.466206,26.25,40.950001,34.09,1729474575128.0,0.0
-1.239482,-5.235496,-5.039285,-9.94,46.549999,30.030001,1729474575151.0,0.0
0.624527,-9.114261,-6.288338,-35.0,-8.4,15.26,1729474575170.0,0.0
1.804188,-7.939385,-4.888536,-46.200001,-15.68,-7.63,1729474575191.0,0.0
1.184447,-6.281159,-5.970093,-59.709999,-15.05,-31.710001,1729474575208.0,0.0
-2.40718,-7.427321,-9.97807,-54.529999,-12.04,-30.450001,1729474575230.0,0.0
-3.838088,-7.257431,-10.506885,-9.94,16.59,-35.0,1729474575249.0,0.0
-2.364109,-6.26441,-10.413565,38.709999,-12.46,-23.17,1729474575269.0,0.0
0.78006,-5.922236,-9.257831,39.689999,-30.940001,-20.790001,1729474575291.0,0.0
2.720639,-4.319045,-6.838687,28.280001,-23.73,-20.58,1729474575310.0,0.0
0.131605,-2.270789,-5.556134,10.92,6.09,-14.21,1729474575329.0,0.0
-1.914258,-3.084348,-9.793823,-33.459999,3.36,-7.0,1729474575348.0,0.0
-2.457429,-5.915058,-12.466606,-57.189999,-8.61,0.91,1729474575371.0,0.0
-2.208575,-5.118248,-10.267602,-6.3,14.63,8.61,1729474575391.0,0.0
-1.612763,-3.67059,-8.779266,71.050003,19.950001,20.719999,1729474575408.0,0.0
-0.303888,-3.096312,-8.054241,76.720001,12.18,30.940001,1729474575428.0,0.0
0.382852,-3.909872,-9.683753,28.139999,4.97,28.280001,1729474575449.0,0.0
-1.607977,-5.335995,-10.626525,-7.14,26.67,26.809999,1729474575469.0,0.0
-1.581656,-5.383851,-6.072984,-17.01,40.32,18.200001,1729474575489.0,0.0
-0.057428,-7.343572,-7.664211,-12.95,4.83,15.190001,1729474575510.0,0.0
0.892523,-7.180861,-6.704689,-52.990002,12.81,-10.99,1729474575529.0,0.0
1.088734,-7.223931,-5.194818,-73.709999,4.76,-27.790001,1729474575548.0,0.0
0.782453,-6.798009,-7.927422,-44.099998,-8.61,-31.710001,1729474575571.0,0.0
-1.586441,-7.197611,-9.164511,33.18,5.04,-19.32,1729474575591.0,0.0
-2.275574,-5.644669,-7.429714,58.310001,12.18,-20.790001,1729474575608.0,0.0
-1.052842,-4.529613,-6.850651,26.809999,-19.530001,-16.66,1729474575628.0,0.0
1.074377,-4.68754,-6.283553,-12.53,-45.639999,-17.01,1729474575648.0,0.0
1.861616,-3.160919,-8.346166,-35.209999,-52.220001,-14.77,1729474575669.0,0.0
-1.792224,-3.397808,-10.652846,-31.01,-24.639999,-2.73,1729474575691.0,0.0
-4.103691,-5.20439,-12.370893,-10.29,18.76,5.11,1729474575708.0,0.0
-3.964907,-5.429315,-11.097912,21.91,15.89,15.26,1729474575728.0,0.0
-1.976472,-4.500899,-10.068997,49.0,4.06,21.42,1729474575749.0,0.0
0.937986,-3.273381,-8.200203,56.279999,-5.81,20.719999,1729474575772.0,0.0
1.806581,-3.096312,-9.279366,30.870001,-7.0,20.58,1729474575790.0,0.0
-0.16989,-4.479364,-9.77468,-0.56,27.440001,19.879999,1729474575810.0,0.0
-1.765903,-5.568098,-5.900701,-14.7,38.709999,19.389999,1729474575828.0,0.0
0.301496,-7.487142,-7.410572,-34.369999,-3.71,5.39,1729474575849.0,0.0
1.06002,-6.78126,-6.63769,-53.970001,-12.6,-13.65,1729474575871.0,0.0
0.571885,-6.403193,-6.67119,-56.209999,-3.36,-29.68,1729474575891.0,0.0
-0.653241,-7.056434,-8.647661,-50.959999,-14.28,-33.110001,1729474575908.0,0.0
-2.562713,-7.412964,-9.937392,-12.39,0.42,-33.740002,1729474575930.0,0.0
-2.600998,-6.149554,-9.281759,21.77,3.71,-35.91,1729474575950.0,0.0
-0.39003,-5.261817,-8.819944,32.970001,-20.93,-28.630001,1729474575971.0,0.0
2.701497,-4.563113,-7.415358,16.870001,-42.98,-26.950001,1729474575992.0,0.0
3.062813,-3.125026,-6.092126,-10.08,-32.27,-23.940001,1729474576008.0,0.0
-1.533799,-2.773281,-8.298308,-33.32,5.11,-16.940001,1729474576029.0,0.0
-4.445865,-5.563312,-13.392628,-19.110001,6.44,-3.5,1729474576050.0,0.0
-4.333402,-4.491328,-11.413764,10.29,10.5,6.16,1729474576069.0,0.0
-2.892922,-4.127619,-10.468598,42.560001,13.65,20.58,1729474576089.0,0.0
0.334995,-3.938586,-8.161918,55.369999,-2.17,20.58,1729474576108.0,0.0
1.998007,-3.163311,-9.056834,46.27,-8.19,18.129999,1729474576130.0,0.0
-0.768096,-4.089334,-9.41815,23.73,22.82,20.299999,1729474576150.0,0.0
-2.132005,-4.161119,-7.030113,6.65,47.599998,25.059999,1729474576170.0,0.0
-0.641276,-6.151947,-8.255238,-22.960001,6.93,25.620001,1729474576189.0,0.0
0.909273,-6.07777,-7.094719,-78.959999,-5.39,4.97,1729474576209.0,0.0
1.538585,-7.80778,-4.697111,-74.550003,2.24,-4.9,1729474576228.0,0.0
1.057628,-7.76471,-6.874579,-35.630001,-19.67,-14.35,1729474576250.0,0.0
-2.416751,-6.82433,-9.08794,25.129999,3.64,-17.99,1729474576270.0,0.0
-3.213561,-5.927022,-8.056634,24.92,6.51,-24.290001,1729474576289.0,0.0
-0.244068,-5.711668,-8.410772,-13.65,-49.84,-23.940001,1729474576309.0,0.0
2.888137,-4.237689,-10.492528,-33.040001,-65.800003,-22.469999,1729474576330.0,0.0
-0.29671,-2.26361,-9.370294,-5.32,-17.639999,-6.3,1729474576350.0,0.0
-4.85743,-4.811966,-12.30868,33.740002,49.630001,14.07,1729474576370.0,0.0
-5.273781,-4.328616,-11.662617,36.400002,36.68,15.89,1729474576389.0,0.0
-2.294717,-3.991228,-8.910872,58.869999,15.75,27.02,1729474576410.0,0.0
2.294717,-2.790031,-7.539784,55.16,-19.74,20.09,1729474576428.0,0.0
2.852244,-2.859423,-9.178867,23.17,-10.5,21.35,1729474576448.0,0.0
-1.564906,-4.493721,-7.68096,-22.960001,49.490002,13.02,1729474576470.0,0.0
-1.509871,-7.381857,-7.209574,-45.849998,50.259998,13.79,1729474576488.0,0.0
0.337388,-7.539784,-6.71426,-59.709999,-11.55,-5.67,1729474576508.0,0.0
1.258625,-6.338587,-5.570491,-42.209999,-2.1,-18.549999,1729474576530.0,0.0
1.012164,-6.075377,-5.656632,-22.889999,-19.110001,-18.48,1729474576549.0,0.0
-2.038685,-6.975078,-10.121639,-13.16,-15.4,-18.549999,1729474576568.0,0.0
-4.079762,-6.491727,-9.147761,-18.83,20.58,-30.73,1729474576590.0,0.0
-2.225325,-6.699903,-9.131011,-17.08,-26.389999,-28.42,1729474576609.0,0.0
1.892723,-5.347959,-7.79103,-14.0,-62.299999,-30.1,1729474576630.0,0.0
2.459821,-2.419144,-7.523034,-5.81,-43.400002,-25.969999,1729474576649.0,0.0
-2.160719,-2.720639,-13.016955,11.76,5.32,-10.29,1729474576668.0,0.0
-4.565506,-3.888337,-13.49552,16.24,20.299999,1.61,1729474576690.0,0.0
-4.395615,-3.704089,-10.526026,24.5,30.380001,14.42,1729474576708.0,0.0
-1.612763,-3.658626,-9.84168,44.240002,8.19,21.280001,1729474576727.0,0.0
1.61037,-3.35713,-8.987441,58.310001,-7.77,21.77,1729474576748.0,0.0
1.430908,-2.610569,-10.15514,44.170002,12.04,21.07,1729474576771.0,0.0
-0.827917,-3.359523,-10.571491,13.51,54.529999,16.379999,1729474576787.0,0.0
-1.76351,-4.103691,-6.321837,0.14,59.990002,21.84,1729474576809.0,0.0
0.418744,-6.65444,-6.173482,-27.370001,-0.42,11.55,1729474576829.0,0.0
1.411765,-6.991827,-3.876373,-59.639999,19.040001,-10.71,1729474576849.0,0.0
1.339981,-7.228717,-4.82393,-61.880001,-20.51,-20.51,1729474576869.0,0.0
-1.588834,-8.01117,-9.798609,-28.98,-12.95,-28.35,1729474576889.0,0.0
-3.663411,-6.759724,-9.688539,1.54,13.51,-35.279999,1729474576907.0,0.0
-2.148755,-5.594419,-9.619147,18.969999,-21.35,-29.82,1729474576928.0,0.0
1.395016,-4.749753,-8.200203,13.51,-55.16,-25.83,1729474576949.0,0.0
3.376273,-2.78046,-8.051848,7.63,-47.810001,-22.469999,1729474576968.0,0.0
-0.935594,-0.957129,-9.717253,1.05,-8.68,-7.07,1729474576993.0,0.0
-4.907679,-5.556134,-13.703696,3.78,28.77,8.47,1729474577008.0,0.0
-4.62054,-4.862216,-12.521641,2.66,27.93,10.08,1729474577028.0,0.0
-2.438286,-4.161119,-9.437292,56.98,16.450001,24.01,1729474577049.0,0.0
1.177269,-3.180061,-7.623533,76.790001,-5.18,18.620001,1729474577069.0,0.0
2.433501,-2.289931,-9.133404,45.779999,-7.56,14.7,1729474577091.0,0.0
0.512064,-2.809174,-9.734003,-5.32,38.639999,13.3,1729474577108.0,0.0
-0.674776,-5.252246,-6.580262,-21.629999,47.670002,20.16,1729474577128.0,0.0
0.973879,-7.259824,-5.924629,-25.48,6.23,16.59,1729474577148.0,0.0
1.471586,-6.848258,-4.685147,-64.959999,3.08,-14.56,1729474577170.0,0.0
0.545564,-6.994221,-6.991827,-74.269997,-25.83,-23.1,1729474577191.0,0.0
-2.596212,-7.704889,-9.657433,-44.799999,-2.8,-29.26,1729474577207.0,0.0
-4.354938,-7.02772,-9.690931,-6.16,15.68,-33.32,1729474577227.0,0.0
-2.426322,-6.30748,-10.10489,19.809999,-24.43,-29.4,1729474577248.0,0.0
1.354338,-4.943572,-8.403593,23.59,-52.849998,-27.719999,1729474577269.0,0.0
3.199204,-2.48375,-6.685547,10.57,-45.849998,-25.059999,1729474577288.0,0.0
-0.29671,0.301496,-9.255438,-20.16,-2.94,-16.17,1729474577308.0,0.0
-3.507878,-3.895515,-14.404793,-28.139999,1.68,5.95,1729474577327.0,0.0
-3.184847,-5.407779,-13.701303,-8.26,-0.21,15.54,1729474577351.0,0.0
-2.584249,-3.845266,-9.71486,46.689999,23.799999,23.799999,1729474577369.0,0.0
-0.638884,-3.213561,-8.331808,74.900002,15.33,20.790001,1729474577391.0,0.0
1.210768,-2.505285,-9.430114,47.950001,-6.09,13.51,1729474577407.0,0.0
0.18664,-3.548556,-10.875379,10.64,19.950001,14.49,1729474577427.0,0.0
-0.710668,-4.216154,-8.403593,-9.87,41.790001,11.27,1729474577447.0,0.0
0.040678,-6.175875,-5.776274,-10.29,25.549999,16.379999,1729474577468.0,0.0
1.083949,-7.207181,-5.783452,-29.540001,-8.75,4.62,1729474577490.0,0.0
0.945165,-5.91745,-4.852644,-83.019997,-10.15,-24.92,1729474577508.0,0.0
-1.438086,-7.262216,-9.568897,-62.790001,-22.33,-21.559999,1729474577528.0,0.0
-3.775874,-7.611568,-10.896914,-11.48,12.32,-24.08,1729474577549.0,0.0
-2.809174,-6.175875,-11.25823,37.380001,-4.2,-22.33,1729474577570.0,0.0
0.564706,-4.989035,-9.68136,53.760002,-38.639999,-14.63,1729474577588.0,0.0
3.270989,-3.35713,-7.692925,38.150002,-37.240002,-15.05,1729474577608.0,0.0
0.894916,-1.68694,-4.31426,8.89,-2.17,-8.89,1729474577629.0,0.0
-2.754139,-3.627519,-10.320245,-46.619999,10.43,-8.82,1729474577647.0,0.0
-3.625126,-5.627919,-13.438091,-51.869999,-3.15,-3.36,1729474577668.0,0.0
-3.376273,-4.807181,-11.294124,19.040001,17.5,8.68,1729474577689.0,0.0
-1.89033,-3.304488,-9.45165,75.879997,16.73,18.9,1729474577709.0,0.0
1.100698,-1.990828,-8.855836,67.340004,-2.59,18.059999,1729474577727.0,0.0
1.174876,-2.699104,-9.667004,26.74,4.34,24.85,1729474577749.0,0.0
-0.634098,-3.699304,-8.068598,-10.85,48.93,21.84,1729474577772.0,0.0
-1.191626,-5.948557,-6.632904,-7.07,36.68,27.65,1729474577789.0,0.0
-0.01675,-6.833901,-6.975078,-23.1,-6.79,15.190001,1729474577808.0,0.0
0.196211,-6.563512,-5.663811,-52.360001,6.37,-5.32,1729474577828.0,0.0
0.538385,-6.51087,-7.936993,-50.400002,-26.67,-18.549999,1729474577849.0,0.0
-2.096112,-7.135397,-10.4016,-3.29,-8.05,-12.95,1729474577870.0,0.0
-3.424129,-5.881558,-9.284152,23.73,18.76,-20.23,1729474577888.0,0.0
-1.801795,-5.345565,-9.154939,25.83,-17.15,-13.3,1729474577908.0,0.0
1.569692,-4.816752,-8.293523,16.030001,-45.990002,-14.63,1729474577928.0,0.0
3.177669,-3.397808,-8.219346,15.12,-39.900002,-11.06,1729474577949.0,0.0
-0.224925,-2.084148,-8.937192,7.28,-2.73,-3.57,1729474577968.0,0.0
-4.005585,-5.649454,-12.459428,-4.55,26.6,3.5,1729474577990.0,0.0
-4.67079,-5.352744,-11.760723,-3.85,30.309999,0.28,1729474578007.0,0.0
-2.87378,-5.199604,-10.226924,49.420002,21.91,9.8,1729474578029.0,0.0
1.148555,-3.120241,-7.831708,70.769997,-13.86,7.91,1729474578049.0,0.0
2.74696,-1.868794,-8.958728,49.560001,-12.46,10.08,1729474578068.0,0.0
0.258425,-2.06022,-9.499505,0.07,40.040001,11.83,1729474578089.0,0.0
-1.859223,-5.161318,-7.379465,-25.76,56.07,19.6,1729474578107.0,0.0
-0.935594,-7.221539,-8.042276,-39.549999,12.74,14.35,1729474578128.0,0.0
0.595813,-6.336195,-6.357729,-66.220001,0.84,-5.18,1729474578148.0,0.0
1.588834,-6.360123,-4.87418,-67.620003,-24.780001,-19.809999,1729474578168.0,0.0
-1.036092,-7.082755,-9.930215,-15.05,-15.82,-15.82,1729474578189.0,0.0
-4.376472,-5.965307,-8.958728,26.460001,19.6,-17.5,1729474578207.0,0.0
-4.098906,-6.206983,-8.999406,20.93,-2.87,-19.110001,1729474578227.0,0.0
-0.021535,-5.182854,-8.386844,-13.37,-63.84,-24.08,1729474578247.0,0.0
3.615555,-2.928815,-8.982656,-16.1,-68.040001,-21.700001,1729474578268.0,0.0
0.689133,-1.265803,-8.898908,-7.42,-31.57,-4.97,1729474578290.0,0.0
-4.524827,-4.302295,-11.686546,-4.48,40.529999,8.19,1729474578307.0,0.0
-6.001199,-5.508278,-12.99542,-4.2,33.740002,11.55,1729474578328.0,0.0
-3.397808,-4.297509,-10.633704,42.91,15.33,18.9,1729474578347.0,0.0
1.29691,-2.694318,-8.669197,66.5,-20.51,18.48,1729474578368.0,0.0
3.050849,-1.524228,-9.669396,42.279999,-15.12,17.01,1729474578389.0,0.0
0.129212,-2.392823,-8.458629,8.82,49.84,23.030001,1729474578408.0,0.0
-1.698904,-5.4341,-6.740582,-11.83,54.389999,29.469999,1729474578428.0,0.0
-0.430708,-7.525427,-6.128019,-49.07,7.07,18.059999,1729474578447.0,0.0
1.268196,-7.197611,-5.460421,-80.150002,-4.55,-3.85,1729474578468.0,0.0
0.51685,-6.972685,-8.4012,-70.419998,-21.77,-17.780001,1729474578491.0,0.0
-3.48395,-6.860222,-9.643075,8.05,10.78,-18.9,1729474578507.0,0.0
-4.249653,-6.159126,-9.671788,31.710001,16.379999,-25.549999,1729474578527.0,0.0
-1.071985,-5.4676,-9.315259,30.17,-40.950001,-17.92,1729474578547.0,0.0
2.935993,-4.122833,-8.097312,28.210001,-61.32,-17.5,1729474578569.0,0.0
1.272982,-1.945365,-6.69751,10.64,-32.060001,-15.190001,1729474578589.0,0.0
-3.574877,-2.866602,-11.899508,-23.66,25.27,-13.3,1729474578607.0,0.0
-5.257031,-5.249853,-13.969299,-22.4,30.030001,-4.2,1729474578627.0,0.0
-3.785445,-4.527221,-10.564312,44.310001,22.960001,14.21,1729474578646.0,0.0
-0.502493,-3.414558,-8.910872,88.199997,6.93,20.860001,1729474578669.0,0.0
2.062613,-2.723032,-7.668997,68.32,-4.34,16.450001,1729474578688.0,0.0
0.863809,-3.854837,-9.272188,35.700001,19.460001,16.52,1729474578706.0,0.0
-1.402194,-3.996014,-8.477771,4.41,56.209999,10.71,1729474578726.0,0.0
-1.533799,-5.469993,-5.95095,-23.870001,38.57,11.9,1729474578746.0,0.0
0.681954,-7.341179,-7.013363,-38.639999,-15.33,8.19,1729474578771.0,0.0
1.825724,-6.250053,-6.656832,-63.490002,-9.1,-12.04,1729474578788.0,0.0
1.26341,-5.922236,-5.28096,-63.279999,-4.34,-17.780001,1729474578808.0,0.0
-2.639283,-7.156933,-10.269995,-36.400002,-18.620001,-17.5,1729474578826.0,0.0
-4.342973,-6.022735,-9.322437,17.99,22.889999,-22.610001,1729474578848.0,0.0
-2.177469,-5.479564,-8.678767,13.16,-27.370001,-19.25,1729474578868.0,0.0
1.667797,-4.17069,-7.886744,-11.97,-60.970001,-22.68,1729474578953.0,0.0
1.617548,-2.567499,-7.444071,-31.99,-41.790001,-21.700001,1729474578971.0,0.0
-1.995614,-4.304688,-11.653046,-34.09,-2.03,-17.15,1729474578972.0,0.0
-3.931407,-4.216154,-13.057633,-18.9,19.040001,-9.73,1729474578972.0,0.0
-3.917051,-4.089334,-11.219944,42.630001,19.74,8.82,1729474578986.0,0.0
-1.641476,-3.486342,-9.674182,68.32,14.49,13.23,1729474578988.0,0.0
1.29691,-2.514857,-9.169296,56.209999,-5.6,10.36,1729474579006.0,0.0
1.268196,-2.29711,-9.662218,21.629999,11.13,12.74,1729474579026.0,0.0
-0.710668,-3.39063,-9.056834,-5.11,46.689999,13.16,1729474579050.0,0.0
-1.433301,-4.675575,-5.922236,1.89,46.060001,22.68,1729474579070.0,0.0
0.11007,-6.271588,-7.307681,-25.620001,3.29,15.89,1729474579131.0,0.0
0.844666,-5.103891,-5.793024,-83.790001,3.64,-6.65,1729474579135.0,0.0
0.655633,-6.537192,-5.266603,-87.709999,-9.17,-11.27,1729474579136.0,0.0
-0.33021,-7.831708,-9.726824,-33.32,-28.49,-12.81,1729474579169.0,0.0
-3.811767,-5.07757,-9.286544,30.17,7.14,-15.68,1729474579170.0,0.0
-2.548356,-5.319244,-8.628519,20.860001,-20.860001,-11.48,1729474579207.0,0.0
1.325624,-5.163712,-7.755138,-20.440001,-60.060001,-19.67,1729474579209.0,0.0
2.813959,-4.192225,-8.420342,-20.719999,-55.790001,-21.98,1729474579226.0,0.0
-1.308874,-3.883551,-11.844472,4.55,-9.03,-20.09,1729474579246.0,0.0
-4.103691,-4.376472,-13.77548,27.16,8.68,-16.870001,1729474579268.0,0.0
-4.457829,-3.488736,-11.868401,32.34,18.48,-5.95,1729474579288.0,0.0
-2.459821,-3.701697,-10.882557,43.68,10.43,4.41,1729474579307.0,0.0
0.854238,-4.163511,-8.700303,51.939999,-0.7,7.0,1729474579326.0,0.0
1.928615,-2.76371,-10.097712,48.580002,1.75,9.73,1729474579347.0,0.0
0.143569,-2.533999,-10.389636,41.16,45.990002,11.13,1729474579367.0,0.0
-1.928615,-2.507678,-7.79103,18.83,60.130001,18.129999,1729474579387.0,0.0
-1.651048,-5.063213,-5.941379,-3.92,50.330002,24.57,1729474579406.0,0.0
0.107677,-6.372087,-6.498906,-44.52,-2.94,15.47,1729474579426.0,0.0
1.45005,-6.855437,-4.003192,-71.330002,14.49,1.19,1729474579446.0,0.0
1.744368,-7.549356,-4.362115,-71.050003,-21.35,-6.93,1729474579467.0,0.0
-1.284946,-7.798209,-9.741181,-39.200001,-12.11,-18.83,1729474579487.0,0.0
-4.113262,-6.455836,-10.480563,13.51,14.77,-24.85,1729474579506.0,0.0
-1.052842,-5.749953,-9.549755,32.060001,-38.080002,-16.59,1729474579527.0,0.0
2.957529,-3.878766,-8.46102,52.290001,-59.920002,-14.21,1729474579547.0,0.0
1.816152,-1.612763,-6.288338,57.540001,-36.049999,-4.27,1729474579568.0,0.0
-3.129812,-3.553342,-11.375479,22.540001,29.75,0.7,1729474579587.0,0.0
-5.158926,-4.788038,-12.935599,-28.210001,29.889999,-4.69,1729474579725.0,0.0
-3.95055,-5.558527,-10.667203,-0.84,16.030001,5.32,1729474579726.0,0.0
-0.090927,-4.527221,-8.293523,41.09,-8.4,6.65,1729474579727.0,0.0
2.924029,-2.723032,-8.568698,53.900002,-28.0,6.79,1729474579728.0,0.0
1.268196,-2.574677,-9.305687,23.1,15.26,8.54,1729474579729.0,0.0
-1.237089,-3.651447,-7.932207,-8.75,59.849998,12.95,1729474579731.0,0.0
-0.708275,-5.924629,-7.338787,-20.58,23.799999,22.190001,1729474579732.0,0.0
1.146162,-6.183054,-6.776474,-62.02,-9.59,9.59,1729474579749.0,0.0
1.158126,-6.850651,-5.438886,-76.93,8.89,-0.21,1729474579769.0,0.0
-0.133998,-8.001599,-7.046863,-50.82,-6.3,-10.57,1729474579788.0,0.0
-2.87378,-7.781459,-10.183852,-1.05,8.26,-19.74,1729474579808.0,0.0
-2.057827,-5.960521,-8.616554,36.400002,14.56,-24.08,1729474579828.0,0.0
1.256232,-4.546363,-7.331609,32.130001,-49.98,-18.620001,1729474579846.0,0.0
1.646262,-2.490928,-5.532206,10.64,-48.16,-18.549999,1729474579867.0,0.0
-2.206182,-2.725425,-10.377672,-29.540001,-4.2,-17.639999,1729474579890.0,0.0
-4.273581,-4.728218,-13.328021,-41.23,4.41,-7.63,1729474579907.0,0.0
-4.156333,-5.082355,-12.107682,2.31,9.31,6.37,1729474579928.0,0.0
-2.244468,-3.649055,-9.164511,47.670002,11.27,15.190001,1729474579946.0,0.0
0.928415,-3.067599,-9.140583,51.59,-12.39,13.440001,1729474579969.0,0.0
1.277767,-2.677568,-10.109675,15.33,-1.89,14.63,1729474579988.0,0.0
-0.382852,-4.31426,-9.669396,-12.11,44.170002,12.95,1729474580007.0,0.0
-1.064806,-5.446064,-5.95095,2.59,47.459999,23.17,1729474580026.0,0.0
0.636491,-6.613762,-6.388836,-0.56,4.97,20.16,1729474580046.0,0.0
1.648655,-4.570292,-5.335995,-48.580002,-4.83,2.1,1729474580067.0,0.0
0.89013,-6.728617,-4.936393,-64.330002,-13.37,-1.47,1729474580088.0,0.0
-1.694118,-8.482556,-9.513863,-40.740002,-21.700001,-13.93,1729474580107.0,0.0
-3.943372,-7.104291,-9.162118,1.96,14.42,-23.940001,1729474580126.0,0.0
-2.344966,-6.06102,-9.008978,46.34,-24.92,-20.860001,1729474580147.0,0.0
2.347359,-3.058028,-7.752745,47.950001,-70.699997,-16.1,1729474580168.0,0.0
-0.461815,-2.11047,-10.628918,-38.57,-22.120001,-17.639999,1729474580189.0,0.0
-4.051049,-5.773881,-14.584253,-68.529999,16.309999,-16.030001,1729474580207.0,0.0
-4.412365,-5.462814,-12.007183,-19.950001,22.889999,-9.03,1729474580226.0,0.0
-2.510071,-4.491328,-11.085947,74.269997,13.3,7.91,1729474580246.0,0.0
0.617348,-3.24706,-8.484949,98.209999,-3.08,9.45,1729474580269.0,0.0
2.084148,-1.919044,-8.647661,53.549999,0.98,6.23,1729474580288.0,0.0
0.102891,-3.400201,-9.946963,-4.9,38.990002,5.74,1729474580306.0,0.0
-1.926222,-4.118048,-7.944171,-13.58,62.299999,11.06,1729474580330.0,0.0
-1.67019,-6.585048,-6.38405,10.57,38.220001,22.26,1729474580346.0,0.0
0.306281,-5.343173,-6.352944,-35.420002,-2.38,3.57,1729474580367.0,0.0
0.794417,-6.139983,-4.685147,-75.110001,13.37,-7.0,1729474580387.0,0.0
0.930808,-7.865208,-5.757132,-76.790001,-19.18,-15.96,1729474580406.0,0.0
-1.615155,-8.750552,-10.193424,-11.34,-14.56,-19.040001,1729474580426.0,0.0
-3.007778,-6.285945,-9.133404,34.93,14.56,-27.51,1729474580447.0,0.0
-1.540978,-4.993821,-7.776673,35.91,-20.93,-20.719999,1729474580467.0,0.0
1.689333,-3.663411,-7.188039,11.41,-56.139999,-18.549999,1729474580487.0,0.0
-0.753739,-2.48375,-9.891929,-20.09,-46.689999,-14.14,1729474580506.0,0.0
-3.67059,-4.804788,-14.727824,-43.889999,1.96,-11.13,1729474580526.0,0.0
-3.68734,-4.771288,-12.488142,-5.74,9.38,-1.61,1729474580546.0,0.0
-2.333002,-3.706482,-10.593026,49.279999,15.82,12.32,1729474580568.0,0.0
0.61017,-3.558127,-8.55434,75.739998,2.73,14.0,1729474580587.0,0.0
2.019542,-2.876173,-9.705289,55.93,-5.25,10.92,1729474580606.0,0.0
0.526421,-3.596412,-10.365707,23.379999,36.259998,9.17,1729474580626.0,0.0
-1.459622,-3.558127,-8.181061,9.1,60.27,13.86,1729474580646.0,0.0
-1.74676,-5.927022,-6.082555,4.27,47.880001,22.960001,1729474580668.0,0.0
0.028714,-6.975078,-6.494121,-54.670002,5.53,5.04,1729474580689.0,0.0
0.849452,-8.267202,-5.548956,-78.260002,13.23,-9.59,1729474580706.0,0.0
1.354338,-7.975278,-3.993621,-38.150002,-11.06,-18.48,1729474580726.0,0.0
-0.708275,-7.32443,-9.968499,38.009998,-21.35,-17.92,1729474580747.0,0.0
-3.294917,-5.213961,-8.616554,56.209999,16.59,-18.27,1729474580769.0,0.0
-3.160919,-5.180461,-7.704889,20.23,-0.49,-15.12,1729474580787.0,0.0
-0.112463,-5.611169,-6.896115,-9.03,-53.900002,-15.12,1729474580807.0,0.0
2.62732,-4.541577,-7.396214,6.02,-65.870003,-16.379999,1729474580827.0,0.0
-1.770689,-4.21376,-14.00519,5.6,-13.440001,-19.530001,1729474580846.0,0.0
-3.716053,-3.902694,-13.227524,8.61,14.28,-19.460001,1729474580866.0,0.0
-3.275774,-3.735196,-9.803394,33.110001,13.86,-1.68,1729474580886.0,0.0
-1.143769,-4.256832,-10.167104,61.389999,-5.81,11.48,1729474580906.0,0.0
1.067199,-4.4674,-9.233903,59.360001,-6.3,12.39,1729474580926.0,0.0
0.256032,-5.053641,-9.927821,39.41,17.710001,13.58,1729474580947.0,0.0
-1.574477,-5.005785,-9.817751,42.07,57.610001,8.19,1729474580967.0,0.0
-2.321038,-4.723432,-8.470592,55.299999,52.009998,17.780001,1729474580987.0,0.0
-1.256232,-4.809574,-5.484349,24.85,40.599998,18.129999,1729474581007.0,0.0
0.282353,-7.082755,-7.104291,-44.099998,11.34,11.69,1729474581027.0,0.0
1.284946,-7.424929,-4.766503,-79.239998,26.25,-5.67,1729474581047.0,0.0
1.875973,-8.394022,-2.787638,-36.75,3.08,-4.2,1729474581066.0,0.0
1.100698,-7.99442,-7.609176,27.860001,-27.58,-8.89,1729474581087.0,0.0
-1.962115,-6.601797,-8.595018,56.77,-1.82,-12.39,1729474581105.0,0.0
-3.708875,-5.795416,-7.960921,32.27,25.129999,-15.4,1729474581125.0,0.0
-2.103291,-6.838687,-8.944371,24.57,-22.469999,-6.02,1729474581145.0,0.0
1.868794,-7.245467,-8.941978,76.230003,-47.740002,6.02,1729474581166.0,0.0
1.325624,-7.133004,-8.91805,182.979996,-13.79,19.67,1729474581189.0,0.0
-0.725025,-7.147361,-8.126025,185.639999,19.110001,12.11,1729474581207.0,0.0
-2.256432,-8.269595,-8.078169,144.550003,29.960001,3.15,1729474581225.0,0.0
-2.340181,-9.824929,-9.296116,132.089996,17.780001,-5.18,1729474581245.0,0.0
-1.246661,-10.277173,-9.044869,182.490005,11.48,-2.1,1729474581266.0,0.0
-0.088534,-9.616754,-8.726624,262.429993,27.370001,8.47,1729474581288.0,0.0
-0.485743,-9.827322,-6.941578,292.950012,54.740002,8.4,1729474581305.0,0.0
-1.61037,-10.169496,-4.290331,263.339996,77.07,-6.93,1729474581327.0,0.0
-1.887937,-8.458629,-2.361716,198.449997,73.080002,-22.68,1729474581345.0,0.0
-1.06002,-7.834101,-1.531406,130.130005,56.420002,-28.139999,1729474581367.0,0.0
-0.179462,-7.929814,-0.557528,70.419998,38.849998,-31.43,1729474581388.0,0.0
0.066999,-9.219545,-0.39003,78.050003,29.68,-29.120001,1729474581406.0,0.0
0.51685,-10.387242,1.363909,178.220001,20.370001,-13.58,1729474581425.0,0.0
1.014557,-8.863015,3.0006,232.399994,22.26,-15.4,1729474581446.0,0.0
2.584249,-5.941379,4.378866,225.960007,7.84,-6.93,1729474581466.0,0.0
3.725625,-4.898108,4.474578,141.050003,-15.54,10.71,1729474581486.0,0.0
2.273181,-8.95155,3.084348,33.110001,-29.540001,16.030001,1729474581507.0,0.0
2.311467,-9.844072,0.837488,15.05,-34.509998,28.280001,1729474581525.0,0.0
1.674976,-9.080762,-0.404387,68.25,-23.870001,39.48,1729474581546.0,0.0
-0.040678,-7.649854,1.48355,97.650002,6.51,45.5,1729474581568.0,0.0
-0.143569,-5.156533,0.734596,81.059998,12.04,60.830002,1729474581586.0,0.0
-3.811767,-8.537591,6.494121,15.75,5.25,68.459999,1729474581605.0,0.0
-4.280759,-11.13859,2.29711,-51.59,-9.31,43.400002,1729474581625.0,0.0
-2.057827,-8.865408,-0.394816,-77.349998,-23.24,49.560001,1729474581645.0,0.0
-1.416551,-9.762716,-1.974079,-50.540001,-26.25,52.990002,1729474581667.0,0.0
-3.641876,-14.529219,-2.940779,-10.01,-14.49,40.389999,1729474581689.0,0.0
-5.592027,-14.751752,-4.62054,26.530001,12.53,14.49,1729474581704.0,0.0
-5.469993,-13.902299,-3.821337,84.769997,27.09,1.12,1729474581725.0,0.0
-3.802195,-11.796617,0.122034,111.300003,30.59,-17.639999,1729474581745.0,0.0
-2.146362,-8.693125,3.302095,82.040001,26.950001,-35.209999,1729474581768.0,0.0
-1.272982,-7.819745,5.058427,54.810001,20.860001,-44.939999,1729474581785.0,0.0
-0.409173,-7.812566,5.821737,11.9,2.38,-50.82,1729474581806.0,0.0
0.004786,-8.183454,4.606184,-25.549999,-17.710001,-38.360001,1729474581825.0,0.0
-0.22014,-9.784252,0.631705,-28.210001,-17.43,-34.23,1729474581845.0,0.0
-1.239482,-11.971292,-0.631705,5.95,6.44,-37.029999,1729474581866.0,0.0
-1.916651,-11.983256,-1.931008,2.1,31.290001,-48.09,1729474581888.0,0.0
-0.921237,-5.230711,-1.205983,5.53,48.93,-49.07,1729474581905.0,0.0
0.454636,-7.156933,2.847459,101.989998,46.27,-4.34,1729474581925.0,0.0
-0.224925,-5.706882,4.481757,53.130001,52.57,-31.219999,1729474581945.0,0.0
-0.521635,-3.558127,5.869594,14.56,51.029999,-12.81,1729474581967.0,0.0
0.028714,-3.737589,6.539584,-31.360001,30.24,11.55,1729474581986.0,0.0
-0.29671,-6.025128,5.268995,-111.160004,5.81,15.96,1729474582004.0,0.0
-0.631705,-8.717053,3.323631,-150.779999,-18.059999,20.65,1729474582025.0,0.0
0.401994,-10.834702,1.801795,-111.790001,-37.939999,40.18,1729474582047.0,0.0
1.40698,-10.712667,4.06062,-64.889999,-46.830002,52.639999,1729474582068.0,0.0
0.902094,-9.934999,3.773481,-104.440002,-51.450001,43.610001,1729474582085.0,0.0
-2.175076,-11.8349,2.177469,-178.850006,-61.110001,24.92,1729474582105.0,0.0
-2.545963,-12.509676,-1.725225,-133.070007,-67.410004,19.25,1729474582125.0,0.0
-0.617348,-10.829915,-3.287738,-23.030001,-48.02,37.450001,1729474582146.0,0.0
-3.309274,-15.450456,-6.132804,51.029999,-21.77,42.209999,1729474582166.0,0.0
-6.814759,-15.828522,-2.801995,59.920002,50.82,-14.63,1729474582186.0,0.0
-4.496114,-13.399807,1.294517,105.840004,24.290001,-11.69,1729474582205.0,0.0
-0.981057,-9.930215,3.199204,122.360001,15.26,-27.370001,1729474582225.0,0.0
0.074178,-6.879365,2.871387,105.980003,14.28,-43.610001,1729474582245.0,0.0
-0.784846,-9.98525,1.292124,74.690002,2.31,-43.82,1729474582267.0,0.0
-0.782453,-8.752945,0.162712,-9.1,2.87,-69.650002,1729474582287.0,0.0
2.06022,-10.078569,0.181855,79.870003,8.12,-37.66,1729474582304.0,0.0
0.440279,-8.769694,4.103691,136.919998,8.68,-31.710001,1729474582324.0,0.0
-0.921237,-5.888737,5.580062,134.399994,24.219999,-37.380001,1729474582345.0,0.0
0.325424,-3.017349,7.484749,109.620003,9.1,-11.27,1729474582365.0,0.0
1.234696,-3.507878,6.075377,28.07,-3.22,-6.3,1729474582386.0,0.0
1.115055,-6.362515,4.364508,-71.959999,-21.139999,7.21,1729474582405.0,0.0
1.064806,-8.293523,2.201397,-113.470001,-16.940001,20.440001,1729474582424.0,0.0
1.048056,-8.341379,1.897508,-72.730003,-10.01,33.389999,1729474582445.0,0.0
0.385244,-8.133204,4.175476,-7.84,-3.99,54.25,1729474582465.0,0.0
-0.792024,-6.74776,4.56072,0.28,-6.16,65.940002,1729474582485.0,0.0
-4.156333,-11.394621,1.734797,-42.700001,-14.56,72.309998,1729474582505.0,0.0
-3.869194,-10.451849,-3.816552,-125.370003,-17.43,51.73,1729474582524.0,0.0
-6.862615,-19.745573,-0.803988,-113.959999,-21.42,38.009998,1729474582544.0,0.0
-5.927022,-19.479969,-5.285746,-100.870003,-0.07,-32.48,1729474582565.0,0.0
-3.529413,-14.835501,-2.292324,50.68,35.420002,-22.4,1729474582586.0,0.0
-2.572284,-10.293922,2.404787,119.0,42.279999,-41.16,1729474582604.0,0.0
-1.808974,-5.000999,3.292524,77.139999,44.240002,-54.040001,1729474582625.0,0.0
-0.959522,-9.571291,4.287938,66.5,16.52,-50.68,1729474582645.0,0.0
0.557528,-9.937392,1.529014,-37.170002,-2.73,-72.449997,1729474582665.0,0.0
3.4672,-6.963113,0.062213,23.24,6.51,-44.380001,1729474582686.0,0.0
1.732404,-7.846066,3.617948,85.75,15.33,-8.89,1729474582706.0,0.0
-1.679761,-8.659625,5.489135,53.060001,24.360001,-42.209999,1729474582724.0,0.0
-0.636491,-5.761917,5.862415,47.18,1.05,-18.059999,1729474582745.0,0.0
2.203789,-2.943172,6.30748,15.33,-14.14,5.81,1729474582769.0,0.0
2.474179,-4.010371,4.821537,-57.260002,-32.619999,18.27,1729474582795.0,0.0
0.399601,-6.908078,2.139183,-118.370003,-23.24,28.98,1729474582806.0,0.0
-0.294317,-8.623734,2.103291,-97.440002,-26.389999,41.720001,1729474582824.0,0.0
-3.055635,-11.229517,2.06022,-44.029999,-27.09,76.650002,1729474582844.0,0.0
-3.125026,-8.874979,-0.646062,-43.75,-13.09,55.860001,1729474582867.0,0.0
-3.735196,-14.976677,-1.304088,-32.060001,-23.309999,75.809998,1729474582886.0,0.0
-5.197211,-16.46262,-4.266403,-91.699997,-2.8,7.63,1729474582904.0,0.0
-6.228518,-15.474383,-4.893322,-67.620003,37.73,4.34,1729474582924.0,0.0
-3.213561,-13.406984,-0.863809,34.02,36.610001,-7.42,1729474582944.0,0.0
-2.775674,-10.662418,2.778067,83.510002,43.119999,-22.82,1729474582965.0,0.0
-2.646462,-8.149954,4.307081,70.279999,47.18,-44.310001,1729474582986.0,0.0
-1.830509,-9.389436,0.784846,-9.31,31.57,-57.610001,1729474583004.0,0.0
-1.069592,-5.197211,-3.460021,-149.309998,17.08,-80.360001,1729474583024.0,0.0
2.160719,-11.921042,0.681954,-19.879999,8.82,-33.950001,1729474583044.0,0.0
1.375873,-9.293723,3.378666,18.9,30.450001,-40.25,1729474583067.0,0.0
0.117248,-6.041877,5.781059,73.849998,42.98,-27.299999,1729474583086.0,0.0
1.131805,-4.472186,7.477571,65.449997,1.12,-4.48,1729474583104.0,0.0
1.698904,-4.914857,5.278566,-24.290001,-28.630001,3.29,1729474583125.0,0.0
1.473979,-6.738188,0.981057,-98.699997,-45.43,16.030001,1729474583144.0,0.0
1.06002,-7.867601,-0.18664,-81.059998,-43.75,36.75,1729474583165.0,0.0
-2.455036,-11.643474,3.407379,11.06,-24.639999,76.440002,1729474583187.0,0.0
-6.460621,-15.91227,0.064606,-54.670002,-34.860001,26.18,1729474583204.0,0.0
-5.623133,-13.265808,-5.292924,-59.360001,-18.41,17.360001,1729474583224.0,0.0
-2.397608,-11.133803,-6.692725,-10.78,-0.63,24.290001,1729474583244.0,0.0
-3.069991,-12.260822,-3.52702,-8.96,23.799999,4.13,1729474583265.0,0.0
-4.929214,-14.699109,-0.717847,21.84,42.84,-14.21,1729474583287.0,0.0
-4.319045,-13.37827,1.433301,63.91,37.240002,-37.450001,1729474583305.0,0.0
-2.806781,-10.351351,0.923629,40.110001,19.530001,-61.040001,1729474583324.0,0.0
-0.33021,-7.649854,-0.887737,15.12,6.37,-75.25,1729474583344.0,0.0
1.002593,-8.889337,1.567299,52.779999,2.94,-56.0,1729474583367.0,0.0
0.409173,-7.168896,3.318845,22.68,26.18,-70.419998,1729474583385.0,0.0
1.514657,-5.13739,4.086941,24.57,14.84,-45.990002,1729474583404.0,0.0
3.285345,-5.015356,2.28036,16.52,-13.37,-28.280001,1729474583425.0,0.0
2.993421,-7.836494,2.411965,21.629999,-19.460001,3.15,1729474583444.0,0.0
0.969093,-8.688338,2.249253,35.630001,-19.110001,19.110001,1729474583466.0,0.0
0.827917,-8.798409,1.524228,34.509998,-22.26,22.469999,1729474583493.0,0.0
1.627119,-9.566505,1.172483,7.42,-23.52,29.82,1729474583504.0,0.0
0.294317,-10.423136,3.598805,15.82,-5.67,27.790001,1729474583526.0,0.0
-2.325824,-10.614561,5.85763,18.9,-9.66,24.92,1729474583544.0,0.0
-3.031706,-11.026128,2.352145,-16.24,-29.82,18.27,1729474583566.0,0.0
-3.48395,-11.251052,-2.227718,-52.009998,-21.280001,15.33,1729474583585.0,0.0
-3.926622,-11.703296,-5.694918,-75.459999,9.45,2.17,1729474583605.0,0.0
-3.852444,-13.670196,-3.634698,-44.799999,26.460001,-1.96,1729474583624.0,0.0
-2.632105,-14.153545,-0.856631,36.610001,34.09,-15.12,1729474583644.0,0.0
-2.419144,-12.205789,0.413958,120.540001,51.799999,-32.549999,1729474583665.0,0.0
-2.282753,-8.992228,1.172483,129.570007,45.220001,-47.670002,1729474583685.0,0.0
-0.734596,-7.45125,2.947958,108.849998,22.610001,-49.0,1729474583704.0,0.0
1.205983,-5.903094,5.130211,77.699997,13.16,-43.470001,1729474583724.0,0.0
2.897708,-3.713661,6.45105,34.09,6.58,-30.73,1729474583743.0,0.0
3.591627,-4.098906,6.69751,-8.75,-10.78,-6.16,1729474583768.0,0.0
1.78026,-5.771489,4.649254,-92.260002,-25.9,1.96,1729474583784.0,0.0
0.564706,-8.626125,1.612763,-135.589996,-35.349998,8.61,1729474583804.0,0.0
1.375873,-10.643275,0.557528,-113.120003,-36.470001,23.030001,1729474583824.0,0.0
-1.01695,-13.77548,2.490928,-31.99,-20.719999,34.860001,1729474583844.0,0.0
-2.751746,-12.382857,1.959722,32.48,-9.1,14.28,1729474583867.0,0.0
-1.964507,-9.281759,1.397408,52.5,-5.6,18.41,1729474583937.0,0.0
-0.667598,-7.470392,0.753739,36.119999,-7.0,17.01,1729474583938.0,0.0
-0.868595,-8.166703,-0.33021,8.47,-6.58,18.200001,1729474583938.0,0.0
-1.916651,-9.772287,0.433101,8.96,0.63,21.629999,1729474583946.0,0.0
-2.775674,-10.782058,1.667797,31.639999,2.87,23.450001,1729474583965.0,0.0
-1.954936,-10.614561,1.837688,22.68,-6.79,11.97,1729474583985.0,0.0
-0.658026,-10.34178,1.150948,-11.41,-13.72,2.59,1729474584004.0,0.0
-0.471386,-11.547763,0.835095,-38.150002,-18.200001,-4.83,1729474584024.0,0.0
-0.550349,-11.346765,0.437887,-21.559999,-16.52,-10.57,1729474584043.0,0.0
-0.875773,-9.21476,1.725225,16.52,-9.03,-3.92,1729474584065.0,0.0
-1.050449,-8.267202,3.201597,46.41,-11.62,2.45,1729474584085.0,0.0
-0.354138,-8.274381,0.586242,42.07,-15.54,6.16,1729474584103.0,0.0
-0.248854,-10.334601,1.787439,30.66,-6.72,14.98,1729474584124.0,0.0
-1.325624,-10.652846,3.964907,-4.69,12.25,8.47,1729474584144.0,0.0
-2.019542,-8.599805,1.251446,-76.580002,17.85,-12.04,1729474584165.0,0.0
-0.579063,-10.985448,1.086342,-117.32,14.77,-12.53,1729474584184.0,0.0
0.636491,-11.81815,1.531406,-32.060001,7.07,-0.28,1729474584208.0,0.0
-1.428515,-10.394422,1.787439,12.32,32.060001,-5.95,1729474584223.0,0.0
-1.481157,-10.884951,4.61097,24.92,19.74,-10.64,1729474584243.0,0.0
-0.760918,-10.212566,4.759324,17.639999,5.11,-14.98,1729474584265.0,0.0
-0.710668,-8.69791,3.718446,6.23,1.54,-26.18,1729474584285.0,0.0
0.643669,-6.250053,3.433701,-17.710001,-4.06,-20.65,1729474584303.0,0.0
2.866602,-6.329016,-1.098306,-30.24,-12.53,-6.02,1729474584324.0,0.0
1.835295,-11.41855,-2.237289,-27.440001,8.33,27.790001,1729474584343.0,0.0
-1.48355,-13.122239,0.004786,21.0,28.77,20.02,1729474584364.0,0.0
-1.904687,-8.702696,2.876173,79.660004,27.860001,9.38,1729474584385.0,0.0
-1.619941,-6.221339,3.23031,53.689999,2.59,10.29,1729474584403.0,0.0
-1.919044,-8.901299,1.050449,-2.45,-33.670002,14.07,1729474584423.0,0.0
-3.464807,-12.081362,-1.251446,-35.07,-56.139999,11.69,1729474584443.0,0.0
-4.067799,-13.560125,-2.801995,-3.43,-34.02,2.73,1729474584464.0,0.0
-2.63689,-12.370893,-2.732604,7.77,-0.21,-13.37,1729474584484.0,0.0
-1.261017,-10.786844,1.521835,24.780001,29.4,-15.82,1729474584505.0,0.0
-2.26361,-8.097312,2.545963,-30.030001,41.720001,-31.219999,1729474584523.0,0.0
-1.37348,-6.943972,3.716053,-72.940002,31.85,-23.24,1729474584578.0,0.0
0.043071,-13.442878,3.23031,-26.67,6.65,-20.93,1729474584578.0,0.0
0.409173,-10.131211,3.689733,-24.99,14.14,-50.889999,1729474584586.0,0.0
2.675175,-3.582055,5.067998,14.42,13.16,-20.790001,1729474584603.0,0.0
4.256832,-3.663411,4.086941,9.66,-11.55,4.2,1729474584624.0,0.0
0.698704,-8.662018,2.419144,-58.029999,-15.05,13.37,1729474584645.0,0.0
-1.462015,-10.557133,0.136391,-61.529999,-16.940001,15.68,1729474584664.0,0.0
-0.050249,-10.205389,0.708275,-7.42,-24.92,25.549999,1729474584685.0,0.0
1.107877,-7.982457,0.765703,21.35,-30.450001,23.66,1729474584703.0,0.0
-3.091527,-16.756937,5.4006,30.030001,-32.130001,42.630001,1729474584723.0,0.0
-4.852644,-11.038091,-3.708875,-82.18,-37.170002,-11.62,1729474584743.0,0.0
-4.850252,-13.37827,-7.264609,-46.41,-2.73,15.96,1729474584769.0,0.0
-2.014757,-13.69891,-3.945765,-23.799999,13.16,-15.4,1729474584786.0,0.0
-1.251446,-12.076575,0.363709,64.190002,49.0,-11.9,1729474584804.0,0.0
-2.411965,-8.88455,3.598805,71.120003,62.09,-32.130001,1729474584823.0,0.0
-1.270589,-4.886144,4.969893,9.1,33.040001,-28.98,1729474584843.0,0.0
1.282553,-11.045268,4.785645,11.2,-11.83,-11.9,1729474584864.0,0.0
0.0335,-11.942577,1.813759,-49.139999,-13.09,-51.939999,1729474584884.0,0.0
-0.138784,-9.422935,0.248854,-22.120001,-5.88,-32.970001,1729474584903.0,0.0
1.485943,-7.580462,1.545763,23.379999,2.31,-24.57,1729474584924.0,0.0
1.320838,-6.104091,3.275774,34.439999,11.06,-11.55,1729474584943.0,0.0
0.827917,-5.288138,4.211368,16.030001,8.68,7.49,1729474584964.0,0.0
0.550349,-7.470392,2.426322,-47.459999,-9.73,19.6,1729474584985.0,0.0
0.251246,-10.219746,-0.808774,-105.629997,-29.540001,20.370001,1729474585003.0,0.0
1.048056,-10.054641,-1.619941,-55.790001,-27.299999,30.030001,1729474585025.0,0.0
0.361316,-9.023334,0.533599,33.880001,-10.22,43.82,1729474585043.0,0.0
-1.28016,-7.925028,1.698904,62.720001,-5.53,46.900002,1729474585064.0,0.0
-5.532206,-13.328021,2.605784,-14.98,-38.5,43.259998,1729474585084.0,0.0
-5.572884,-13.261024,-5.149354,-103.599998,-40.040001,-4.06,1729474585103.0,0.0
-3.555735,-14.603395,-8.906086,-65.660004,-12.46,2.31,1729474585123.0,0.0
-1.11027,-12.550355,-4.158726,26.74,39.830002,-5.39,1729474585143.0,0.0
-1.651048,-10.643275,-0.09332,94.290001,82.669998,-7.0,1729474585164.0,0.0
-1.974079,-6.099305,5.45085,45.360001,80.57,-29.960001,1729474585184.0,0.0
1.105484,-8.736196,5.225924,-35.279999,12.46,-14.98,1729474585203.0,0.0
1.368695,-11.475977,2.115255,-96.459999,-21.98,-37.869999,1729474585223.0,0.0
2.134398,-9.499505,1.811367,-33.670002,-5.67,-37.029999,1729474585243.0,0.0
2.0004,-6.716653,3.680161,38.290001,-5.46,-2.17,1729474585264.0,0.0
0.014357,-6.168696,3.78066,1.75,-1.68,-6.58,1729474585285.0,0.0
-1.20359,-8.338986,1.304088,-49.0,-21.280001,11.55,1729474585304.0,0.0
-0.299103,-10.444671,-1.045663,-74.410004,-42.139999,17.710001,1729474585323.0,0.0
1.294517,-9.174082,-2.493321,-27.719999,-33.740002,29.33,1729474585344.0,0.0
0.461815,-8.776874,-0.705883,59.849998,-13.65,48.369999,1729474585364.0,0.0
-1.603191,-8.592626,1.12702,102.129997,-1.68,56.209999,1729474585384.0,0.0
-5.982057,-11.399406,2.940779,32.619999,-24.01,51.799999,1729474585404.0,0.0
-5.733203,-12.655639,-3.661019,-63.630001,-31.85,12.32,1729474585423.0,0.0
-3.713661,-14.220546,-7.432107,-84.489998,-27.51,5.88,1729474585443.0,0.0
-1.502693,-12.287145,-6.302694,-39.34,18.76,-4.55,1729474585464.0,0.0
-1.581656,-12.653246,-3.192025,34.369999,57.82,-3.22,1729474585486.0,0.0
-2.340181,-11.990433,-2.222932,25.9,83.580002,-31.219999,1729474585503.0,0.0
-1.562513,-6.439085,2.921637,-25.200001,70.699997,-39.549999,1729474585531.0,0.0
0.693919,-10.423136,1.892723,-0.21,17.710001,-30.52,1729474585544.0,0.0
1.969293,-8.664411,0.827917,-10.29,4.9,-51.52,1729474585564.0,0.0
1.627119,-9.020942,5.13739,65.379997,11.69,-15.75,1729474585586.0,0.0
0.598206,-7.709675,6.13759,26.040001,3.92,-29.120001,1729474585603.0,0.0
-1.107877,-8.078169,4.103691,-38.849998,-18.27,-28.139999,1729474585623.0,0.0
-0.11007,-8.365308,0.208176,-57.049999,-44.66,-13.93,1729474585643.0,0.0
1.208375,-9.305687,-1.497907,-37.380001,-44.59,5.32,1729474585663.0,0.0
1.679761,-8.102098,-2.364109,-7.77,-24.99,17.5,1729474585684.0,0.0
-0.131605,-8.571091,-1.265803,40.32,-5.25,35.77,1729474585703.0,0.0
-2.644069,-9.243474,0.705883,66.43,3.5,35.07,1729474585723.0,0.0
-2.907279,-9.530612,1.799403,70.840004,-22.26,44.52,1729474585742.0,0.0
-3.400201,-11.80858,-0.181855,1.4,-40.950001,31.5,1729474585768.0,0.0
-3.696911,-12.098111,-5.139783,-103.110001,-36.889999,-3.71,1729474585783.0,0.0
-2.713461,-13.765909,-8.044669,-82.529999,-18.27,-3.57,1729474585804.0,0.0
-1.435694,-12.201002,-4.826324,0.42,28.0,-4.34,1729474585823.0,0.0
-1.883151,-11.899508,-1.055235,69.370003,57.049999,-4.48,1729474585843.0,0.0
-2.490928,-10.470992,1.782653,6.93,64.959999,-38.990002,1729474585864.0,0.0
-0.741775,-6.802795,-0.026321,-65.099998,31.710001,-44.380001,1729474585884.0,0.0
0.897308,-8.609376,0.095713,-48.790001,11.2,-34.369999,1729474585903.0,0.0
2.021935,-8.82473,-0.299103,14.56,8.68,-25.129999,1729474585922.0,0.0
1.926222,-8.51127,5.039285,104.370003,21.49,-7.63,1729474585943.0,0.0
0.473779,-7.501499,6.410372,74.410004,12.53,-3.57,1729474585964.0,0.0
-1.103091,-7.692925,4.443472,-36.75,-14.63,-15.05,1729474585984.0,0.0
-0.830309,-9.332008,-0.480957,-105.559998,-51.099998,-10.57,1729474586003.0,0.0
0.959522,-10.581062,-2.622534,-67.340004,-59.639999,2.8,1729474586022.0,0.0
1.844866,-8.606983,-2.029114,25.27,-26.18,23.030001,1729474586043.0,0.0
0.078963,-8.097312,0.306281,87.849998,-5.11,33.459999,1729474586064.0,0.0
-2.014757,-8.745767,2.766103,85.75,-11.2,37.52,1729474586083.0,0.0
-3.347559,-11.636297,1.308874,33.459999,-41.509998,47.25,1729474586103.0,0.0
-4.115655,-12.358929,-2.634498,-76.300003,-44.52,4.97,1729474586123.0,0.0
-3.469593,-14.081761,-7.295716,-105.559998,-29.190001,-4.41,1729474586142.0,0.0
-2.289931,-11.643474,-6.54437,-51.170002,19.879999,-4.69,1729474586163.0,0.0
-1.660619,-11.487941,-2.301895,33.529999,52.920002,2.73,1729474586184.0,0.0
-1.634298,-11.124231,-1.737189,-4.69,68.110001,-35.560001,1729474586202.0,0.0
-1.083949,-9.836893,1.718047,-53.970001,52.990002,-37.869999,1729474586222.0,0.0
-0.122034,-7.305287,-0.196211,-86.309998,39.48,-41.09,1729474586248.0,0.0
0.9667,-7.972885,-0.397209,-59.709999,33.950001,-40.529999,1729474586263.0,0.0
2.309074,-9.286544,1.722832,35.07,19.040001,-12.39,1729474586283.0,0.0
1.842474,-8.685946,6.23091,101.5,15.82,-0.42,1729474586303.0,0.0
-0.837488,-9.202796,5.838487,48.02,5.18,-12.67,1729474586322.0,0.0
-2.354537,-8.860621,2.033899,-86.940002,-28.0,-36.259998,1729474586342.0,0.0
0.064606,-9.123833,-1.198804,-108.080002,-70.699997,-22.049999,1729474586364.0,0.0
3.215954,-8.305488,-2.055435,-34.439999,-61.880001,6.23,1729474586383.0,0.0
1.832902,-11.109876,-1.256232,40.459999,-37.240002,22.889999,1729474586402.0,0.0
-0.375673,-8.250452,-2.124826,70.559998,-25.83,9.24,1729474586423.0,0.0
-1.782653,-9.564112,-2.213361,111.160004,-24.219999,53.130001,1729474586442.0,0.0
-3.964907,-12.626925,-1.78026,10.85,-15.05,23.940001,1729474586463.0,0.0
-5.63749,-13.701303,-4.902894,-91.0,-0.42,-8.61,1729474586484.0,0.0
-2.443072,-11.590833,-6.305088,-62.580002,15.26,-12.11,1729474586503.0,0.0
0.251246,-10.930414,-3.165704,21.210001,39.060001,-0.49,1729474586522.0,0.0
-0.174676,-9.243474,0.069392,0.14,68.599998,-28.139999,1729474586542.0,0.0
-0.531207,-9.38465,0.148355,-30.59,54.25,-23.450001,1729474586563.0,0.0
-0.217747,-6.173482,-1.505085,-98.07,46.48,-38.849998,1729474586583.0,0.0
0.782453,-9.162118,-0.078963,-15.190001,24.99,-6.51,1729474586603.0,0.0
2.792424,-9.956534,3.311667,88.690002,11.41,5.11,1729474586622.0,0.0
1.363909,-9.29133,5.034499,80.290001,14.42,0.7,1729474586643.0,0.0
-1.323231,-9.805787,3.976871,-19.110001,-7.98,-12.39,1729474586663.0,0.0
-1.150948,-8.755339,0.562313,-95.269997,-42.77,-26.67,1729474586683.0,0.0
0.672383,-8.958728,-2.694318,-59.849998,-63.279999,-10.92,1729474586702.0,0.0
1.849652,-7.913064,-2.656033,-3.85,-40.599998,7.63,1729474586722.0,0.0
1.562513,-8.145168,-2.533999,49.98,-23.940001,30.24,1729474586742.0,0.0
-0.586242,-9.77468,-0.425922,68.32,-10.01,33.810001,1729474586767.0,0.0
-1.342373,-9.444471,0.375673,88.970001,-10.85,45.43,1729474586783.0,0.0
-2.414358,-10.499706,-2.309074,62.369999,-18.83,54.25,1729474586802.0,0.0
-4.546363,-13.28495,-6.113662,-46.48,3.78,14.49,1729474586822.0,0.0
-4.704289,-15.706488,-7.716853,-80.220001,19.110001,-1.4,1729474586842.0,0.0
-0.801596,-11.377872,-0.057428,31.290001,38.150002,3.08,1729474586863.0,0.0
-1.064806,-8.054241,1.505085,70.840004,66.080002,-27.65,1729474586883.0,0.0
-0.930808,-6.372087,-0.428315,-2.94,47.459999,-31.780001,1729474586903.0,0.0
0.0335,-6.546762,-0.658026,-76.090004,20.16,-26.67,1729474586922.0,0.0
0.459422,-9.827322,-0.244068,-59.639999,16.24,-11.97,1729474586942.0,0.0
1.162912,-9.245867,3.192025,-7.14,13.440001,-9.66,1729474586964.0,0.0
0.387637,-8.662018,4.197011,30.799999,0.77,0.77,1729474586984.0,0.0
-1.619941,-9.32483,1.349552,-35.420002,-16.030001,-18.76,1729474587002.0,0.0
-1.844866,-9.887143,-2.18704,-87.849998,-37.380001,-20.58,1729474587023.0,0.0
0.01675,-10.358529,-3.828516,-62.790001,-47.040001,-8.12,1729474587042.0,0.0
0.823131,-9.923036,-3.699304,-11.48,-25.620001,1.68,1729474587063.0,0.0
0.112463,-9.219545,-2.790031,39.060001,-0.07,9.1,1729474587083.0,0.0
-0.981057,-8.910872,-1.531406,39.900002,9.8,13.3,1729474587102.0,0.0
-1.478764,-9.556933,-0.251246,-1.26,0.21,10.01,1729474587122.0,0.0
-1.232304,-10.293922,-0.071785,-36.889999,-16.030001,5.6,1729474587143.0,0.0
-0.777667,-9.927821,-0.648455,-46.830002,-23.1,0.42,1729474587163.0,0.0
-0.437887,-8.937192,-1.301696,-50.610001,-25.620001,-3.08,1729474587185.0,0.0
-0.514457,-8.750552,-2.134398,-82.459999,-27.23,-4.13,1729474587202.0,0.0
-0.648455,-10.016356,-3.002992,-112.699997,-34.93,-7.28,1729474587223.0,0.0
-0.595813,-11.169697,-3.184847,-99.260002,-38.990002,-6.93,1729474587242.0,0.0
0.004786,-10.767702,-2.550749,-53.549999,-33.599998,-5.53,1729474587263.0,0.0
0.162712,-9.509077,-1.85683,-32.48,-28.210001,-10.22,1729474587284.0,0.0
0.136391,-8.908479,-1.962115,-58.240002,-29.26,-15.4,1729474587302.0,0.0
0.031107,-9.047262,-2.495714,-106.68,-35.630001,-18.129999,1729474587322.0,0.0
-0.07657,-9.533006,-3.168097,-136.289993,-40.529999,-17.15,1729474587342.0,0.0
-0.246461,-9.219545,-3.914658,-133.979996,-36.75,-15.68,1729474587364.0,0.0
-0.354138,-8.126025,-4.539185,-128.240005,-29.68,-16.52,1729474587383.0,0.0
-0.801596,-8.329416,-4.948357,-134.75,-24.57,-18.48,1729474587402.0,0.0
-1.229911,-8.867801,-5.692525,-123.830002,-24.43,-14.14,1729474587422.0,0.0
-0.98345,-9.298509,-6.709475,-79.519997,-27.65,-4.9,1729474587442.0,0.0
-0.61017,-8.338986,-5.98445,-44.310001,-23.66,-4.34,1729474587464.0,0.0
-1.119841,-7.350751,-4.883751,-45.150002,-15.26,-3.99,1729474587484.0,0.0
-1.505085,-6.745367,-6.24766,-80.220001,-15.190001,-12.81,1729474587502.0,0.0
-1.268196,-8.709875,-8.630912,-93.870003,-31.639999,-16.17,1729474587521.0,0.0
-0.253639,-10.533205,-8.702696,6.58,-29.120001,-4.55,1729474587552.0,0.0
0.064606,-8.953942,-7.623533,90.019997,-10.92,-5.95,1729474587571.0,0.0
-0.344566,-7.042077,-6.898508,101.709999,8.54,-7.42,1729474587583.0,0.0
-1.282553,-5.836094,-6.372087,37.240002,24.43,-5.81,1729474587604.0,0.0
-1.835295,-6.599405,-5.182854,-28.35,24.360001,1.54,1729474587623.0,0.0
-1.162912,-8.226524,-5.003392,-61.32,8.96,8.33,1729474587643.0,0.0
-0.385244,-9.028119,-5.783452,-45.57,-0.21,8.54,1729474587663.0,0.0
-0.055035,-7.826923,-6.321837,-13.440001,0.84,2.17,1729474587684.0,0.0
-0.339781,-7.396214,-5.903094,8.05,0.7,-1.54,1729474587703.0,0.0
-0.581456,-7.683353,-6.116055,-7.28,-3.5,-7.63,1729474587723.0,0.0
-0.418744,-8.133204,-6.939186,-17.43,-10.22,-10.22,1729474587744.0,0.0
-0.636491,-8.047063,-6.982256,-12.04,-6.86,-5.53,1729474587768.0,0.0
-0.765703,-8.640482,-7.661818,3.92,2.87,-1.33,1729474587785.0,0.0
-1.12702,-8.171489,-6.403193,-5.25,13.65,0.14,1729474587804.0,0.0
-1.246661,-7.963314,-5.769095,-27.790001,23.52,-4.06,1729474587823.0,0.0
-0.588634,-7.518249,-5.13739,-22.120001,14.0,-5.18,1729474587844.0,0.0
0.124427,-6.991827,-4.570292,-11.69,2.31,-6.09,1729474587866.0,0.0
0.062213,-6.525227,-5.094319,-7.7,-7.56,-5.18,1729474587884.0,0.0
-0.636491,-6.539584,-5.740381,-5.46,-6.23,-2.45,1729474587903.0,0.0
-1.213161,-7.307681,-5.776274,-11.48,-7.07,3.5,1729474587924.0,0.0
-1.495514,-8.171489,-5.970093,-22.82,-11.48,3.22,1729474587944.0,0.0
-1.067199,-8.209774,-6.331409,-27.58,-18.549999,-2.87,1729474587964.0,0.0
-0.488136,-7.908278,-7.066005,-23.59,-24.360001,-6.65,1729474587985.0,0.0
-0.09332,-7.91785,-6.948757,-26.25,-28.280001,-10.92,1729474588003.0,0.0
-0.129212,-7.795816,-6.76451,-36.959999,-27.02,-16.799999,1729474588025.0,0.0
-0.535992,-7.32443,-7.448857,-37.869999,-26.74,-20.09,1729474588047.0,0.0
-1.442872,-8.025528,-8.88455,-19.460001,-9.87,-10.85,1729474588065.0,0.0
-2.112862,-8.350951,-10.346564,7.42,5.32,0.56,1729474588086.0,0.0
-0.533599,-5.675776,-7.070791,40.389999,25.48,9.1,1729474588106.0,0.0
-0.011964,-5.130211,-7.927422,27.23,20.93,13.3,1729474588125.0,0.0
-0.79681,-6.130411,-7.826923,8.12,32.900002,13.3,1729474588146.0,0.0
-1.244268,-6.788438,-6.405586,9.87,34.720001,15.26,1729474588166.0,0.0
-0.825524,-7.80778,-3.081956,4.83,20.719999,13.09,1729474588185.0,0.0
0.157926,-7.862815,-3.239882,-44.66,-2.38,-7.49,1729474588205.0,0.0
0.646062,-8.173882,-4.816752,-57.540001,-24.780001,-12.81,1729474588225.0,0.0
-0.557528,-8.281559,-6.896115,-15.05,-23.379999,-8.61,1729474588246.0,0.0
-2.749353,-8.736196,-8.243275,9.17,-1.82,-10.71,1729474588267.0,0.0
-2.711068,-8.633304,-7.448857,6.72,0.98,-16.24,1729474588290.0,0.0
-0.550349,-8.391629,-6.515656,16.66,-24.99,-9.73,1729474588304.0,0.0
1.01695,-7.73121,-4.768896,31.85,-31.290001,-12.81,1729474588324.0,0.0
0.208176,-6.484549,-7.235896,26.880001,-26.74,-17.15,1729474588345.0,0.0
-2.072184,-6.518049,-7.996813,5.67,-10.5,-14.0,1729474588365.0,0.0
-3.845266,-6.369694,-8.685946,-14.63,14.28,-5.88,1729474588385.0,0.0
-3.079563,-7.77428,-10.537991,50.259998,10.08,17.219999,1729474588404.0,0.0
-0.098106,-6.142376,-7.278966,100.800003,9.17,26.32,1729474588424.0,0.0
0.952343,-5.986843,-7.800602,93.379997,19.6,28.630001,1729474588444.0,0.0
-0.820738,-7.331609,-6.932007,45.990002,46.41,18.200001,1729474588465.0,0.0
-1.799403,-9.597611,-5.448457,28.210001,48.509998,15.190001,1729474588485.0,0.0
-0.332602,-8.233703,-3.464807,13.16,24.99,7.91,1729474588504.0,0.0
1.435694,-8.228917,-0.011964,13.23,5.6,-1.19,1729474588524.0,0.0
1.552942,-7.932207,-0.476172,-13.3,-17.5,-4.97,1729474588544.0,0.0
-1.194018,-10.454242,-6.082555,-10.99,-27.65,-3.01,1729474588566.0,0.0
-3.464807,-10.262815,-7.166504,-33.599998,5.67,-26.950001,1729474588586.0,0.0
-2.761317,-9.942179,-7.89153,-10.92,-5.74,-16.17,1729474588604.0,0.0
-0.48335,-8.707481,-6.106483,42.700001,-21.98,-1.26,1729474588625.0,0.0
0.473779,-7.283752,-5.410172,91.0,-6.16,1.75,1729474588644.0,0.0
-0.849452,-5.438886,-4.022335,52.639999,-2.38,-0.63,1729474588667.0,0.0
-2.565106,-5.139783,-7.578069,-7.63,11.69,-0.28,1729474588685.0,0.0
-2.500499,-7.960921,-9.918249,-7.49,4.62,15.47,1729474588705.0,0.0
-1.198804,-9.88475,-8.341379,44.59,19.18,31.99,1729474588724.0,0.0
-0.189033,-8.585447,-5.642276,79.169998,37.52,30.450001,1729474588744.0,0.0
-1.842474,-7.32443,-3.383451,64.470001,45.849998,19.530001,1729474588769.0,0.0
-1.531406,-8.233703,-2.40718,-16.450001,29.75,2.87,1729474588786.0,0.0
0.512064,-7.709675,0.0335,-42.630001,-0.49,7.0,1729474588804.0,0.0
2.766103,-8.95155,0.437887,-34.23,-29.82,14.42,1729474588824.0,0.0
1.459622,-12.96192,-4.139583,-8.05,-50.75,14.7,1729474588844.0,0.0
-2.545963,-10.755738,-5.692525,-20.51,-6.16,-19.040001,1729474588865.0,0.0
-4.56072,-8.812766,-5.185246,-4.69,5.04,-19.6,1729474588947.0,0.0
-1.141376,-8.602197,-4.876573,-0.56,-36.400002,-4.27,1729474588949.0,0.0
3.115455,-9.114261,-4.828716,14.98,-63.139999,10.92,1729474588950.0,0.0
0.866202,-8.224132,-3.115455,47.110001,-39.970001,7.28,1729474588950.0,0.0
-3.354738,-7.135397,-8.315059,30.940001,0.28,-13.02,1729474588968.0,0.0
-5.972485,-8.362915,-9.609575,0.98,0.42,0.35,1729474588987.0,0.0
-4.938786,-10.052249,-10.571491,75.040001,8.12,17.15,1729474589005.0,0.0
-2.364109,-8.633304,-8.896514,149.100006,36.119999,29.190001,1729474589024.0,0.0
-0.368495,-6.381658,-4.883751,141.399994,51.59,20.719999,1729474589044.0,0.0
-0.636491,-7.300502,-5.395815,60.900002,50.82,11.76,1729474589065.0,0.0
-2.397608,-10.482956,-6.24766,-25.129999,54.459999,-10.64,1729474589089.0,0.0
-3.383451,-11.219944,-3.76391,-17.57,60.48,-17.780001,1729474589104.0,0.0
-1.962115,-6.668797,4.783253,20.23,55.02,-26.32,1729474589125.0,0.0
0.567099,-4.553542,4.725825,-35.490002,1.54,-20.860001,1729474589153.0,0.0
2.608176,-8.68116,0.260818,-69.440002,-56.420002,-3.29,1729474589165.0,0.0
1.588834,-12.067005,-4.912465,-62.860001,-57.189999,-5.18,1729474589185.0,0.0
-2.053042,-11.645866,-4.773681,-45.990002,-5.18,-17.57,1729474589205.0,0.0
-2.404787,-8.901299,-3.512664,-24.710001,-6.58,-12.11,1729474589224.0,0.0
0.062213,-6.501299,-3.206382,-42.91,-32.549999,-4.2,1729474589244.0,0.0
-1.184447,-8.204988,-2.995814,-66.709999,-43.68,-2.66,1729474589265.0,0.0
-2.352145,-5.513064,-7.475177,-67.410004,-18.129999,-14.56,1729474589286.0,0.0
-3.56052,-8.346166,-9.585647,-58.029999,-32.130001,14.14,1729474589304.0,0.0
-3.570091,-9.755538,-10.423136,-39.759998,-3.5,12.46,1729474589324.0,0.0
-2.663212,-9.626326,-10.033106,2.45,25.549999,9.31,1729474589344.0,0.0
-0.547956,-8.85823,-6.594619,45.360001,27.02,10.36,1729474589365.0,0.0
0.29671,-7.989635,-7.755138,50.610001,36.610001,5.74,1729474589385.0,0.0
-0.081356,-6.427122,-5.161318,-9.59,65.099998,-5.95,1729474589411.0,0.0
-1.349552,-7.862815,5.599205,-79.800003,62.02,-6.23,1729474589424.0,0.0
1.823331,-12.224932,1.205983,-47.599998,-54.18,3.85,1729474589444.0,0.0
1.646262,-12.093326,-6.101698,12.39,-65.660004,-7.14,1729474589464.0,0.0
-2.158326,-9.968499,-6.788438,14.77,-7.91,-22.049999,1729474589487.0,0.0
-3.663411,-8.769694,-5.321638,-6.79,3.99,-18.200001,1729474589504.0,0.0
-0.792024,-8.01117,-4.766503,-4.13,-34.790001,-5.04,1729474589524.0,0.0
1.366302,-8.16431,-5.123034,32.689999,-46.619999,8.61,1729474589544.0,0.0
-1.758725,-7.664211,-2.206182,55.93,-29.75,1.96,1729474589565.0,0.0
-4.658825,-7.403394,-7.573284,31.5,-12.95,-11.97,1729474589585.0,0.0
-5.661418,-7.759924,-9.683753,-24.15,-28.84,-6.65,1729474589689.0,0.0
-4.510471,-7.972885,-9.609575,-2.59,0.42,1.82,1729474589690.0,0.0
-2.256432,-7.042077,-9.360723,46.549999,13.09,13.65,1729474589690.0,0.0
-0.595813,-7.042077,-6.443871,81.059998,35.349998,20.58,1729474589690.0,0.0
-0.258425,-6.9344,-7.149754,47.950001,37.939999,16.379999,1729474589690.0,0.0
-1.237089,-7.302894,-8.080563,-15.68,55.369999,4.69,1729474589708.0,0.0
-1.976472,-9.628718,-6.147161,-33.040001,68.040001,8.54,1729474589727.0,0.0
-1.079163,-9.047262,5.319244,-24.85,60.970001,6.23,1729474589747.0,0.0
1.045663,-8.547162,7.006185,-34.439999,-8.68,-4.55,1729474589768.0,0.0
2.402394,-10.609775,-3.184847,-32.200001,-80.779999,-2.94,1729474589784.0,0.0
0.557528,-11.41137,-6.888937,-29.960001,-47.040001,-16.73,1729474589803.0,0.0
-2.56032,-10.719845,-6.872187,-38.220001,-4.55,-16.940001,1729474589825.0,0.0
-2.596212,-10.473385,-4.895715,-1.61,-6.58,-10.08,1729474589848.0,0.0
0.239282,-8.91805,-3.34038,42.84,-31.780001,-1.4,1729474589866.0,0.0
0.837488,-7.152147,-3.871587,66.989998,-34.509998,-1.4,1729474589886.0,0.0
-3.041277,-5.922236,-2.129612,13.16,-27.02,-16.450001,1729474589906.0,0.0
-4.168297,-6.922436,-9.504292,-50.68,-28.98,-24.85,1729474589925.0,0.0
-4.441079,-7.936993,-12.083755,-86.239998,-44.66,-3.78,1729474589946.0,0.0
-4.333402,-9.990034,-10.344172,-6.65,8.68,9.94,1729474589966.0,0.0
-2.952743,-7.537392,-7.551748,71.120003,38.360001,9.52,1729474589987.0,0.0
-1.328017,-5.893522,-5.414958,82.879997,39.48,10.71,1729474590006.0,0.0
-0.622134,-6.336195,-7.322037,17.710001,27.860001,3.71,1729474590025.0,0.0
-1.320838,-9.858429,-6.350551,-49.98,48.93,3.01,1729474590045.0,0.0
-1.806581,-10.58824,-0.57667,-40.670002,60.549999,-0.98,1729474590068.0,0.0
-1.17009,-7.310073,2.974278,-21.629999,28.280001,-3.78,1729474590091.0,0.0
1.014557,-7.869993,1.785046,-23.379999,-30.380001,-5.25,1729474590107.0,0.0
1.677369,-10.107283,-5.465207,-41.16,-68.459999,-7.14,1729474590127.0,0.0
-1.043271,-12.387643,-7.058826,-44.240002,-26.25,-15.54,1729474590147.0,0.0
-2.845066,-10.872985,-6.67119,-20.51,1.12,-21.0,1729474590168.0,0.0
-0.81356,-8.729016,-5.166104,41.299999,-19.460001,-7.28,1729474590190.0,0.0
1.098306,-7.381857,-4.457829,75.18,-28.559999,-0.77,1729474590208.0,0.0
-1.320838,-8.386844,-2.342573,67.269997,-24.710001,-4.41,1729474590227.0,0.0
-3.522235,-5.948557,-6.417551,-7.56,-8.68,-27.23,1729474590246.0,0.0
-3.871587,-6.455836,-9.707682,-54.110001,-31.01,-10.15,1729474590269.0,0.0
-2.847459,-7.21436,-9.217153,-70.0,-9.17,-0.35,1729474590290.0,0.0
-2.663212,-8.563912,-10.585848,-8.4,16.52,19.040001,1729474590307.0,0.0
-2.029114,-8.063812,-7.692925,56.209999,45.290001,22.540001,1729474590331.0,0.0
-1.969293,-7.599605,-7.068398,56.07,46.830002,17.08,1729474590347.0,0.0
-2.120041,-7.563712,-6.393622,-27.299999,57.400002,-4.55,1729474590367.0,0.0
-1.277767,-8.587841,0.399601,-71.959999,47.810001,-4.55,1729474590387.0,0.0
0.193819,-9.119047,0.550349,-81.480003,11.34,-4.83,1729474590406.0,0.0
2.665605,-10.329816,0.959522,-57.68,-26.880001,-12.95,1729474590426.0,0.0
2.565106,-9.379865,-3.426522,-26.110001,-55.790001,-14.84,1729474590446.0,0.0
-0.815953,-10.205389,-6.312266,-21.77,-27.09,-22.889999,1729474590467.0,0.0
-3.227918,-9.834501,-6.661618,-72.519997,-8.54,-36.400002,1729474590488.0,0.0
-1.813759,-9.377472,-6.601797,-77.980003,-35.490002,-33.599998,1729474590507.0,0.0
1.033699,-8.106883,-6.742974,-31.710001,-51.170002,-25.34,1729474590526.0,0.0
1.57687,-6.262017,-6.259624,51.869999,-41.299999,-12.04,1729474590548.0,0.0
-2.18704,-5.307281,-5.781059,69.370003,-18.549999,-4.76,1729474590570.0,0.0
-5.661418,-6.673582,-10.542776,21.210001,31.92,-3.22,1729474590587.0,0.0
-6.063413,-6.853044,-11.79183,-16.309999,10.08,9.73,1729474590606.0,0.0
-4.065405,-7.712067,-10.585848,22.540001,21.35,23.450001,1729474590626.0,0.0
-0.818345,-7.200003,-7.542177,95.199997,29.68,29.68,1729474590645.0,0.0
0.200997,-6.489335,-6.302694,111.790001,37.240002,27.299999,1729474590669.0,0.0
-1.043271,-5.520242,-6.046663,34.16,64.959999,8.26,1729474590688.0,0.0
-2.009971,-8.451449,-0.600598,-69.019997,57.959999,6.86,1729474590705.0,0.0
-0.064606,-10.863414,0.251246,-55.369999,14.49,12.6,1729474590725.0,0.0
2.952743,-9.616754,1.854438,-31.5,-24.01,0.77,1729474590746.0,0.0
2.778067,-9.422935,-3.771089,-7.42,-57.119999,-0.91,1729474590775.0,0.0
-0.792024,-9.461221,-7.042077,-27.790001,-31.01,-15.96,1729474590786.0,0.0
-3.665804,-9.602397,-6.513263,-54.740002,6.65,-20.299999,1729474590805.0,0.0
-1.976472,-9.652647,-6.616155,-29.190001,-36.889999,-8.54,1729474590826.0,0.0
0.909273,-9.052048,-5.522634,16.799999,-46.900002,-3.08,1729474590846.0,0.0
-1.217947,-8.377272,-2.679961,66.150002,-31.15,-3.15,1729474590867.0,0.0
-3.641876,-4.771288,-7.905886,23.799999,1.12,-22.120001,1729474590887.0,0.0
-4.955536,-4.773681,-10.380065,-45.290001,-23.799999,-7.56,1729474590905.0,0.0
-4.800002,-7.590034,-10.092925,-58.170002,-3.71,3.01,1729474590926.0,0.0
-2.969493,-8.11167,-10.432706,7.98,3.99,14.84,1729474590946.0,0.0
-0.87338,-7.530212,-7.877172,101.57,19.879999,23.52,1729474590967.0,0.0
-0.308674,-6.520442,-8.102098,108.010002,29.610001,19.18,1729474590989.0,0.0
-1.785046,-7.21436,-7.384251,38.009998,53.619999,6.23,1729474591008.0,0.0
-3.117848,-9.516255,-5.67099,-24.85,69.230003,-4.55,1729474591025.0,0.0
-1.68694,-9.939785,1.153341,-17.08,42.77,-2.17,1729474591047.0,0.0
0.866202,-6.757331,2.644069,5.88,6.3,2.1,1729474591068.0,0.0
3.251846,-9.552148,0.751346,12.04,-37.52,1.75,1729474591086.0,0.0
1.938186,-9.750752,-5.103891,-2.17,-53.830002,-3.22,1729474591105.0,0.0
-1.840081,-10.047462,-6.364908,-29.75,-2.38,-19.74,1729474591126.0,0.0
-3.486342,-9.674182,-7.097112,-48.580002,2.38,-18.83,1729474591146.0,0.0
-0.866202,-8.468199,-6.570691,-10.99,-30.17,-8.12,1729474591170.0,0.0
1.512264,-8.252845,-5.213961,57.68,-38.849998,4.69,1729474591186.0,0.0
-1.476372,-8.506484,-2.510071,92.400002,-25.620001,-1.33,1729474591207.0,0.0
-3.720839,-5.340781,-7.587641,22.75,-1.75,-29.049999,1729474591227.0,0.0
-4.929214,-5.831308,-11.160125,-65.449997,-22.26,-14.91,1729474591246.0,0.0
-4.366901,-8.008778,-10.853845,-95.480003,2.59,-7.49,1729474591268.0,0.0
-2.701497,-8.922836,-9.32483,-5.18,16.450001,13.93,1729474591289.0,0.0
-0.760918,-9.099905,-5.474778,119.489998,32.689999,28.35,1729474591306.0,0.0
-0.854238,-7.752745,-5.783452,97.720001,42.84,9.52,1729474591325.0,0.0
-2.002793,-7.085148,-6.869793,-14.63,58.310001,-17.43,1729474591348.0,0.0
-1.426122,-10.064213,0.007178,-90.300003,50.889999,-16.450001,1729474591366.0,0.0
1.07677,-10.057034,-0.105284,-42.630001,3.99,0.42,1729474591387.0,0.0
3.07717,-7.307681,1.591227,-20.93,-7.63,-9.8,1729474591407.0,0.0
1.423729,-9.513863,-5.316852,-8.33,-42.630001,-2.1,1729474591426.0,0.0
-2.294717,-10.509278,-7.003791,-37.240002,-2.17,-29.120001,1729474591445.0,0.0
-3.421736,-9.540184,-7.628319,-24.01,7.63,-24.01,1729474591467.0,0.0
-0.224925,-8.374879,-5.943772,14.21,-39.549999,-8.68,1729474591486.0,0.0
1.306481,-8.154739,-5.941379,41.09,-39.060001,-8.68,1729474591505.0,0.0
-0.435494,-5.438886,-5.52742,56.0,-9.66,-14.35,1729474591525.0,0.0
-2.919244,-5.134997,-8.140383,7.14,1.05,-6.58,1729474591545.0,0.0
-4.575077,-6.439085,-9.044869,-42.91,13.16,2.45,1729474591566.0,0.0
-4.192225,-7.142576,-8.973085,-14.28,19.040001,19.530001,1729474591589.0,0.0
-2.249253,-7.503892,-8.29113,49.700001,13.79,35.84,1729474591605.0,0.0
-0.937986,-8.405986,-5.84088,59.43,18.34,33.110001,1729474591625.0,0.0
-1.761117,-9.616754,-5.888737,20.23,31.08,14.91,1729474591646.0,0.0
-2.785245,-9.456435,-6.436693,-18.76,44.869999,-8.75,1729474591667.0,0.0
-2.18704,-9.542577,-3.223132,-23.52,33.670002,-12.39,1729474591686.0,0.0
0.808774,-7.692925,-1.294517,-25.969999,14.28,-13.16,1729474591710.0,0.0
2.883351,-10.949556,-1.617548,-18.34,-9.03,-4.34,1729474591724.0,0.0
3.199204,-8.49452,-1.667797,-10.78,-24.290001,-12.88,1729474591745.0,0.0
-0.098106,-8.635696,-4.378866,21.629999,0.56,-13.58,1729474591771.0,0.0
-3.223132,-8.853443,-5.60399,-20.02,1.54,-23.030001,1729474591787.0,0.0
-2.821138,-9.176475,-7.128219,-47.110001,-13.51,-30.940001,1729474591805.0,0.0
0.648455,-8.762517,-7.051648,-17.43,-56.209999,-15.61,1729474591825.0,0.0
3.105884,-7.489535,-5.240282,47.670002,-48.16,-13.51,1729474591845.0,0.0
1.134198,-5.886343,-5.687739,90.790001,-33.32,-4.06,1729474591868.0,0.0
-3.730411,-4.388437,-5.589634,26.74,10.92,-9.1,1729474591889.0,0.0
-6.38405,-6.62094,-11.009377,-73.989998,21.210001,-15.47,1729474591906.0,0.0
-5.690133,-8.181061,-11.083554,-108.57,-3.57,3.08,1729474591925.0,0.0
-1.497907,-9.743573,-7.513463,-19.18,-4.83,27.719999,1729474591947.0,0.0
1.01695,-9.968499,-7.290931,70.489998,7.7,37.66,1729474591967.0,0.0
-0.557528,-6.463014,-6.003592,59.990002,62.23,10.57,1729474591986.0,0.0
-3.349952,-6.594619,-3.07717,-1.26,84.139999,6.3,1729474592006.0,0.0
-2.541178,-10.037891,-4.627719,-34.580002,27.790001,8.33,1729474592025.0,0.0
1.751546,-8.82473,-0.904487,-60.130001,4.41,0.77,1729474592045.0,0.0
4.010371,-8.705089,-1.215554,-31.780001,-35.700001,2.87,1729474592068.0,0.0
2.45025,-9.765109,-5.615955,4.41,-30.24,-9.94,1729474592086.0,0.0
-2.074577,-8.717053,-5.82413,-7.63,9.52,-23.73,1729474592105.0,0.0
-3.584448,-8.202596,-6.240481,-27.23,13.37,-32.060001,1729474592125.0,0.0
-0.794417,-8.965906,-6.611369,-24.43,-57.260002,-17.01,1729474592146.0,0.0
1.902294,-8.542377,-6.312266,3.5,-60.200001,-19.879999,1729474592168.0,0.0
1.842474,-5.630312,-6.972685,63.98,-41.16,-9.03,1729474592188.0,0.0
-3.055635,-5.424529,-6.317052,15.75,-2.59,-2.1,1729474592205.0,0.0
-6.831509,-5.541777,-10.514063,-96.529999,58.099998,-23.450001,1729474592225.0,0.0
-7.267002,-7.786245,-11.033305,-88.480003,20.09,9.24,1729474592247.0,0.0
-1.928615,-9.413363,-7.850852,19.32,-15.26,34.299999,1729474592267.0,0.0
1.868794,-9.052048,-6.56112,72.239998,-9.94,30.59,1729474592286.0,0.0
0.447458,-6.599405,-6.932007,45.709999,34.369999,7.14,1729474592305.0,0.0
-2.548356,-5.838487,-5.278566,-7.14,69.440002,-9.59,1729474592324.0,0.0
-3.208775,-8.561519,-6.386444,-28.559999,40.950001,5.53,1729474592345.0,0.0
1.019342,-7.860423,-5.041678,-53.060001,10.64,-1.33,1729474592368.0,0.0
3.443272,-9.013763,-0.959522,-38.709999,-13.02,8.47,1729474592386.0,0.0
3.878766,-9.798609,-3.35713,19.809999,-21.35,4.76,1729474592405.0,0.0
-0.624527,-8.927622,-4.773681,36.470001,-1.4,-14.49,1729474592425.0,0.0
-3.354738,-8.618947,-5.343173,4.48,25.76,-29.469999,1729474592445.0,0.0
-2.486143,-9.678967,-5.288138,-9.8,-41.860001,-18.27,1729474592467.0,0.0
1.555335,-7.999206,-5.4341,34.369999,-69.019997,-11.62,1729474592486.0,0.0
1.806581,-6.190232,-7.207181,79.870003,-65.519997,-11.62,1729474592505.0,0.0
-2.928815,-5.424529,-10.939985,21.280001,2.31,-8.61,1729474592524.0,0.0
-6.534799,-6.759724,-11.629118,-23.59,42.209999,-8.4,1729474592545.0,0.0
-6.78126,-8.939585,-9.45165,-9.73,33.950001,11.55,1729474592567.0,0.0
-2.009971,-7.439285,-6.388836,26.530001,11.48,14.0,1729474592586.0,0.0
1.380659,-7.362715,-7.211967,37.310001,-6.09,19.389999,1729474592605.0,0.0
1.225125,-7.089933,-7.652246,0.35,25.969999,0.21,1729474592625.0,0.0
-1.90708,-7.558927,-5.690133,-23.59,69.580002,-7.14,1729474592644.0,0.0
-3.062813,-8.992228,-3.18724,-2.17,62.09,-0.7,1729474592666.0,0.0
-0.600598,-8.834301,-4.692325,4.34,9.38,0.49,1729474592686.0,0.0
2.739782,-7.771888,-1.895115,-36.82,8.61,-14.56,1729474592706.0,0.0
3.381058,-9.12144,-2.002793,-2.52,-25.41,2.45,1729474592724.0,0.0
-0.059821,-9.738789,-5.52742,31.57,-14.49,-10.36,1729474592746.0,0.0
-3.144169,-7.786245,-4.673182,6.86,22.049999,-27.93,1729474592768.0,0.0
-3.180061,-8.468199,-5.9677,-7.63,-22.4,-17.360001,1729474592786.0,0.0
-0.11007,-8.468199,-6.041877,-5.53,-62.02,-14.21,1729474592805.0,0.0
2.758924,-6.951149,-5.036892,55.299999,-63.84,-2.66,1729474592825.0,0.0
1.438086,-6.874579,-5.493921,78.120003,-53.689999,6.16,1729474592846.0,0.0
-3.022135,-5.680561,-8.391629,-24.99,5.18,-15.54,1729474592865.0,0.0
-6.185446,-5.410172,-9.595219,-101.849998,28.42,-14.84,1729474592887.0,0.0
-5.85763,-8.650054,-9.832108,-85.68,-1.26,9.66,1729474592906.0,0.0
-2.22054,-8.633304,-6.977471,-22.190001,-12.67,20.09,1729474592924.0,0.0
0.684347,-9.327222,-3.869194,48.439999,-14.14,27.440001,1729474592944.0,0.0
1.284946,-8.082954,-3.625126,45.43,-14.56,5.04,1729474592966.0,0.0
-0.595813,-7.668997,-4.991428,8.82,-3.57,-13.79,1729474592985.0,0.0
-2.098505,-8.123632,-6.276374,-35.84,-2.8,-18.83,1729474593006.0,0.0
-1.842474,-9.008978,-6.814759,-57.260002,-13.3,-14.63,1729474593025.0,0.0
-0.591027,-9.726824,-6.898508,-35.0,-10.85,-10.36,1729474593044.0,0.0
-0.61017,-9.030513,-6.865008,-12.88,1.19,-14.91,1729474593065.0,0.0
-0.859023,-8.082954,-6.546762,-11.83,8.47,-19.32,1729474593086.0,0.0
-0.660419,-6.848258,-6.513263,-35.490002,8.4,-23.450001,1729474593104.0,0.0
-0.346959,-6.592227,-7.06122,-55.580002,2.45,-20.860001,1729474593125.0,0.0
-0.368495,-7.032506,-7.65464,-61.880001,4.06,-17.290001,1729474593145.0,0.0
-0.526421,-6.881758,-8.035098,-50.610001,11.13,-14.63,1729474593165.0,0.0
-0.70349,-6.125626,-7.862815,-32.970001,18.690001,-9.8,1729474593185.0,0.0
-0.827917,-5.886343,-7.60439,-26.460001,19.950001,-2.94,1729474593205.0,0.0
-0.79681,-6.144768,-7.013363,-38.639999,19.32,-1.12,1729474593224.0,0.0
-0.854238,-6.417551,-6.585048,-52.920002,18.48,-0.35,1729474593244.0,0.0
-1.024128,-6.575477,-6.278766,-61.040001,16.309999,1.4,1729474593266.0,0.0
-1.048056,-6.879365,-6.613762,-58.869999,9.24,2.94,1729474593288.0,0.0
-0.947558,-6.920043,-7.075576,-54.740002,2.94,2.24,1729474593306.0,0.0
-1.031307,-6.546762,-7.889136,-43.75,4.2,3.22,1729474593324.0,0.0
-1.036092,-6.04427,-8.212167,-20.790001,5.04,8.68,1729474593344.0,0.0
-0.636491,-5.886343,-7.776673,-7.56,2.45,13.440001,1729474593366.0,0.0
-0.282353,-6.640083,-7.554141,-22.049999,-2.03,9.38,1729474593386.0,0.0
-0.133998,-7.319644,-6.903293,-23.940001,-6.44,7.28,1729474593404.0,0.0
-0.22014,-6.929615,-7.362715,6.72,-1.82,5.39,1729474593424.0,0.0
-0.473779,-5.319244,-8.068598,26.6,-3.85,3.64,1729474593444.0,0.0
-0.634098,-3.756732,-9.363115,5.81,-4.9,10.29,1729474593465.0,0.0
-0.356531,-4.436293,-9.413363,-13.440001,-3.78,21.280001,1729474593485.0,0.0
0.01675,-5.804988,-9.109475,-34.09,-0.42,26.74,1729474593505.0,0.0
0.083749,-6.329016,-9.166903,-30.870001,7.21,29.33,1729474593524.0,0.0
-0.078963,-6.30748,-8.977871,-6.09,18.620001,27.65,1729474593544.0,0.0
0.055035,-6.321837,-8.970692,7.77,23.1,25.969999,1729474593565.0,0.0
0.18664,-6.288338,-8.446664,24.01,21.629999,30.73,1729474593584.0,0.0
0.260818,-5.955735,-8.913264,38.290001,25.969999,34.369999,1729474593604.0,0.0
-0.014357,-5.412565,-7.465607,51.52,34.860001,42.84,1729474593624.0,0.0
-0.748954,-5.649454,-8.013563,42.279999,47.810001,49.490002,1729474593644.0,0.0
-1.902294,-6.221339,-6.094519,31.08,56.349998,52.779999,1729474593666.0,0.0
-3.232704,-6.702296,-4.508078,15.96,63.139999,45.220001,1729474593685.0,0.0
-3.031706,-6.754939,-7.06122,-15.47,30.24,34.580002,1729474593705.0,0.0
-1.272982,-6.463014,-8.812766,-14.56,-35.209999,41.650002,1729474593724.0,0.0
-0.287139,-5.91745,-9.437292,10.85,-35.07,45.009998,1729474593744.0,0.0
-0.476172,-5.046463,-9.265009,15.54,-0.42,42.420002,1729474593770.0,0.0
-1.435694,-5.079963,-8.946764,5.18,25.969999,37.170002,1729474593784.0,0.0
-2.163112,-5.826523,-8.779266,-7.84,28.700001,30.52,1729474593804.0,0.0
-2.462214,-6.740582,-10.423136,-6.3,20.93,17.780001,1729474593825.0,0.0
-2.175076,-6.281159,-11.186446,5.53,18.76,-3.71,1729474593844.0,0.0
-1.495514,-5.510671,-10.461421,18.549999,28.210001,-24.780001,1729474593867.0,0.0
-0.760918,-4.98425,-9.812965,7.28,35.700001,-40.18,1729474593935.0,0.0
-0.172283,-5.453243,-9.047262,-14.21,33.110001,-56.279999,1729474593941.0,0.0
0.358923,-6.312266,-9.387043,-2.8,41.509998,-68.32,1729474593941.0,0.0
1.06002,-6.417551,-7.034898,25.549999,30.52,-72.660004,1729474593945.0,0.0
2.167897,-3.285345,-6.867401,0.7,26.460001,-85.470001,1729474593965.0,0.0
2.184647,-4.331009,-5.405386,-5.67,29.75,-73.849998,1729474593985.0,0.0
1.356731,-6.98465,-2.667997,-4.13,46.970001,-48.23,1729474594004.0,0.0
-0.62692,-9.803394,-2.87378,7.07,44.59,-46.200001,1729474594024.0,0.0
-2.718246,-9.803394,-4.421937,-3.36,31.15,-50.68,1729474594044.0,0.0
-2.163112,-7.743174,-5.795416,-8.54,-17.219999,-30.799999,1729474594065.0,0.0
-0.765703,-7.097112,-6.692725,-3.15,-46.689999,0.98,1729474594084.0,0.0
-0.069392,-7.826923,-6.675975,-11.34,-56.490002,21.0,1729474594104.0,0.0
0.253639,-8.26481,-5.915058,-27.860001,-35.420002,31.360001,1729474594123.0,0.0
0.251246,-7.566105,-5.63749,-47.25,-23.73,32.830002,1729474594144.0,0.0
0.40678,-5.699703,-7.037291,-51.099998,-38.009998,38.990002,1729474594165.0,0.0
0.732204,-4.086941,-10.497313,-16.940001,-59.990002,52.150002,1729474594185.0,0.0
0.622134,-2.871387,-10.985448,26.809999,-54.18,74.970001,1729474594203.0,0.0
0.0335,-3.67059,-10.389636,50.959999,-13.16,87.290001,1729474594224.0,0.0
-0.81356,-3.649055,-10.234102,17.290001,0.42,81.970001,1729474594243.0,0.0
-1.258625,-5.706882,-10.447062,-1.68,2.8,65.940002,1729474594264.0,0.0
-0.739382,-5.690133,-10.805987,1.96,-4.55,48.720001,1729474594285.0,0.0
-0.435494,-5.304887,-10.492528,28.0,-12.81,37.869999,1729474594304.0,0.0
-0.581456,-4.443472,-11.459228,10.29,9.52,10.22,1729474594323.0,0.0
-1.727618,-5.520242,-10.34178,-11.9,46.060001,-16.799999,1729474594345.0,0.0
-2.459821,-5.905487,-7.91785,-25.690001,67.199997,-37.869999,1729474594365.0,0.0
-1.141376,-5.766702,-7.54457,-62.93,27.370001,-71.050003,1729474594385.0,0.0
-0.20339,-7.152147,-7.164111,-102.970001,6.09,-82.18,1729474594404.0,0.0
0.457029,-9.226725,-9.221939,-66.150002,-5.18,-90.650002,1729474594423.0,0.0
1.636691,-7.068398,-8.487342,-12.32,-5.74,-99.75,1729474594443.0,0.0
1.828116,-5.187639,-8.374879,52.43,12.88,-97.650002,1729474594465.0,0.0
1.119841,-4.565506,-6.419943,64.050003,34.02,-73.150002,1729474594484.0,0.0
0.519243,-5.479564,-5.151747,47.32,28.700001,-57.889999,1729474594503.0,0.0
-0.081356,-5.314459,-4.716253,11.27,13.16,-39.619999,1729474594523.0,0.0
-0.655633,-5.034499,-5.139783,-16.870001,6.3,-21.280001,1729474594543.0,0.0
-1.354338,-6.116055,-5.936593,-42.98,-3.85,0.07,1729474594565.0,0.0
-1.986043,-7.054041,-7.393822,-67.690002,-13.72,15.61,1729474594584.0,0.0
-2.392823,-8.248059,-8.219346,-49.07,-16.24,27.58,1729474594603.0,0.0
-1.741975,-8.872586,-9.023334,-5.95,-29.82,30.52,1729474594623.0,0.0
-0.193819,-6.649654,-9.738789,32.060001,-52.5,31.43,1729474594644.0,0.0
0.698704,-4.041477,-9.463614,53.760002,-51.099998,38.639999,1729474594664.0,0.0
0.504886,-2.431108,-9.607183,68.110001,-17.5,43.400002,1729474594684.0,0.0
-0.311067,-2.878566,-9.803394,87.080002,13.3,57.330002,1729474594704.0,0.0
0.698704,-2.206182,-9.135797,45.080002,-14.49,73.080002,1729474594724.0,0.0
1.404587,-4.575077,-8.535198,3.99,-20.93,73.849998,1729474594743.0,0.0
1.79701,-6.362515,-7.726424,-25.129999,-8.82,56.139999,1729474594767.0,0.0
1.368695,-6.21416,-9.463614,-22.540001,-3.08,36.470001,1729474594784.0,0.0
0.181855,-5.649454,-11.045268,-9.87,15.75,24.5,1729474594804.0,0.0
-1.148555,-6.032306,-10.437491,-17.5,48.09,8.68,1729474594823.0,0.0
-2.074577,-7.013363,-8.324631,-33.599998,56.84,-10.5,1729474594847.0,0.0
-2.213361,-7.302894,-5.525027,-44.099998,50.400002,-29.889999,1729474594864.0,0.0
-1.861616,-7.384251,-7.302894,-54.810001,11.2,-52.009998,1729474594885.0,0.0
-0.870987,-7.123433,-9.35833,-62.510002,-15.82,-70.489998,1729474594903.0,0.0
-0.267996,-7.984849,-9.96132,-32.689999,-9.94,-70.980003,1729474594923.0,0.0
0.485743,-7.173682,-8.575876,11.13,2.52,-70.910004,1729474594944.0,0.0
1.021735,-5.915058,-8.200203,51.66,5.32,-70.559998,1729474594964.0,0.0
1.048056,-4.180261,-6.814759,14.56,10.36,-66.849998,1729474594986.0,0.0
0.930808,-4.386044,-7.06122,-15.05,17.01,-59.639999,1729474595004.0,0.0
0.679562,-5.120641,-7.001399,6.86,5.39,-31.780001,1729474595023.0,0.0
0.059821,-4.283153,-6.522834,27.23,2.45,-16.66,1729474595043.0,0.0
-0.581456,-4.826324,-8.094919,-26.809999,4.62,-1.54,1729474595065.0,0.0
-0.921237,-6.070591,-8.377272,-60.060001,-3.08,8.61,1729474595084.0,0.0
-1.430908,-7.958528,-7.305287,-38.220001,-4.62,18.83,1729474595103.0,0.0
-1.72044,-8.721838,-6.85783,-0.21,-6.51,16.24,1729474595124.0,0.0
-1.651048,-7.71446,-7.415358,22.26,-17.85,11.69,1729474595143.0,0.0
-0.942772,-6.410372,-8.319844,13.440001,-37.029999,10.64,1729474595166.0,0.0
0.014357,-5.345565,-9.035298,-5.6,-45.5,16.309999,1729474595185.0,0.0
0.70349,-4.630112,-9.140583,10.01,-40.110001,30.24,1729474595203.0,0.0
0.667598,-4.051049,-9.822537,49.630001,-29.190001,45.220001,1729474595224.0,0.0
0.437887,-3.168097,-10.399208,87.010002,-12.53,58.66,1729474595243.0,0.0
0.31346,-1.538585,-10.049855,88.059998,1.89,73.709999,1729474595264.0,0.0
0.143569,-2.59382,-9.150154,63.84,8.47,86.590004,1729474595285.0,0.0
0.205783,-4.898108,-8.267202,7.84,8.96,83.93,1729474595304.0,0.0
0.172283,-6.668797,-8.118847,-23.940001,7.91,67.550003,1729474595324.0,0.0
0.138784,-6.06102,-9.176475,-37.380001,4.41,41.02,1729474595343.0,0.0
-0.961915,-5.860023,-9.485149,-48.650002,12.81,16.309999,1729474595364.0,0.0
-2.06022,-5.955735,-8.504091,-51.380001,36.049999,-3.78,1729474595384.0,0.0
-2.737389,-5.45085,-8.279166,-48.860001,37.450001,-27.719999,1729474595403.0,0.0
-2.467,-6.283553,-8.781659,-66.849998,20.02,-47.459999,1729474595423.0,0.0
-0.978664,-7.243074,-10.889735,-89.739998,-7.28,-70.629997,1729474595443.0,0.0
-0.133998,-8.054241,-9.293723,-72.730003,1.05,-81.900002,1729474595465.0,0.0
-0.002393,-7.360322,-8.748159,3.99,22.26,-82.110001,1729474595485.0,0.0
0.653241,-4.816752,-8.614161,82.25,16.66,-82.949997,1729474595503.0,0.0
1.088734,-3.194418,-7.60439,72.309998,17.08,-71.260002,1729474595523.0,0.0
1.22034,-2.888137,-7.757531,3.85,19.110001,-59.849998,1729474595543.0,0.0
0.677169,-4.59422,-7.345965,-26.530001,19.67,-34.02,1729474595564.0,0.0
0.019143,-6.867401,-5.812167,3.71,18.34,-12.25,1729474595586.0,0.0
-0.894916,-7.71446,-6.017949,40.740002,18.48,-3.78,1729474595604.0,0.0
-0.892523,-6.288338,-7.563712,57.959999,4.69,-0.98,1729474595623.0,0.0
-0.689133,-4.134798,-7.396214,45.639999,-15.54,12.11,1729474595643.0,0.0
-1.550549,-4.790431,-5.644669,6.58,1.26,28.49,1729474595665.0,0.0
-2.854637,-7.771888,-5.56092,-32.549999,7.56,28.42,1729474595685.0,0.0
-2.67039,-9.391829,-6.762117,-44.380001,-19.6,16.52,1729474595703.0,0.0
-0.210568,-6.668797,-9.164511,-12.25,-86.519997,19.25,1729474595723.0,0.0
0.985843,-4.237689,-10.590633,44.52,-86.590004,33.110001,1729474595742.0,0.0
0.636491,-2.608176,-10.688738,84.840004,-46.060001,50.119999,1729474595767.0,0.0
-0.521635,-2.541178,-10.612168,91.769997,10.64,67.269997,1729474595785.0,0.0
-0.882952,-2.9336,-9.635897,64.190002,13.3,82.599998,1729474595802.0,0.0
-0.098106,-4.024727,-8.413164,24.219999,-6.58,97.019997,1729474595822.0,0.0
1.0002,-5.60399,-8.666803,-26.809999,-31.360001,84.910004,1729474595843.0,0.0
0.729811,-7.89153,-9.676575,-45.779999,-17.219999,62.16,1729474595864.0,0.0
-0.399601,-8.25763,-9.839286,-22.75,16.940001,21.42,1729474595883.0,0.0
-1.651048,-5.845665,-9.107083,15.54,41.02,-6.51,1729474595903.0,0.0
-2.395216,-3.979264,-9.269794,10.08,38.57,-24.99,1729474595922.0,0.0
-2.388037,-3.878766,-9.485149,-35.77,27.370001,-42.139999,1729474595943.0,0.0
-1.586441,-5.125426,-10.135997,-87.5,23.66,-63.07,1729474595964.0,0.0
-0.581456,-6.89133,-9.877571,-112.489998,25.76,-78.260002,1729474595985.0,0.0
-0.246461,-7.762317,-8.370094,-98.07,31.5,-82.110001,1729474596002.0,0.0
-0.378066,-7.554141,-8.221739,-50.889999,39.200001,-87.43,1729474596023.0,0.0
-0.33021,-7.188039,-7.745567,25.34,33.599998,-87.43,1729474596042.0,0.0
-0.141177,-4.716253,-7.37468,79.870003,22.26,-69.440002,1729474596063.0,0.0
-0.315853,-4.881358,-6.329016,80.080002,20.23,-43.82,1729474596084.0,0.0
-0.18664,-5.075177,-5.271388,69.370003,13.3,-23.309999,1729474596102.0,0.0
0.011964,-4.737789,-5.788238,64.190002,0.84,2.03,1729474596122.0,0.0
0.246461,-4.07737,-6.506085,25.34,-11.9,18.9,1729474596143.0,0.0
-0.294317,-5.4006,-7.822137,-34.439999,-4.34,32.619999,1729474596163.0,0.0
-1.359123,-7.099504,-7.623533,-70.629997,7.91,38.43,1729474596183.0,0.0
-2.431108,-8.65484,-7.054041,-68.529999,10.15,32.48,1729474596203.0,0.0
-2.689533,-9.427721,-7.51107,-49.630001,-2.66,22.82,1729474596222.0,0.0
-1.875973,-9.674182,-7.666604,-5.95,-31.92,16.73,1729474596242.0,0.0
-0.660419,-7.633104,-8.197811,21.35,-54.740002,14.35,1729474596264.0,0.0
0.01675,-4.986642,-9.422935,31.360001,-50.889999,14.28,1729474596283.0,0.0
0.533599,-2.342573,-10.396815,34.720001,-39.900002,26.389999,1729474596302.0,0.0
0.535992,-2.069792,-10.604989,64.260002,-28.98,52.220001,1729474596322.0,0.0
0.811167,-2.500499,-11.653046,73.290001,-21.210001,68.25,1729474596342.0,0.0
0.899701,-3.713661,-10.545169,57.540001,-9.24,73.709999,1729474596363.0,0.0
-0.31346,-5.419744,-6.996613,20.65,24.92,62.790001,1729474596384.0,0.0
-1.043271,-6.278766,-6.910471,-34.860001,30.1,26.880001,1729474596402.0,0.0
-1.387837,-6.881758,-7.752745,-46.619999,7.56,5.6,1729474596422.0,0.0
-1.342373,-6.386444,-10.08814,-43.049999,-2.8,-19.950001,1729474596443.0,0.0
-1.521835,-6.364908,-9.851252,-22.960001,7.56,-39.830002,1729474596463.0,0.0
-1.502693,-5.682954,-8.836694,-17.710001,23.940001,-59.43,1729474596483.0,0.0
-1.107877,-5.067998,-9.784252,-26.74,16.66,-73.989998,1729474596503.0,0.0
-0.004786,-5.20439,-9.889536,-42.420002,5.6,-83.300003,1729474596522.0,0.0
0.667598,-6.226124,-8.798409,-45.220001,16.379999,-76.580002,1729474596544.0,0.0
0.583849,-6.419943,-7.922636,-36.889999,32.619999,-76.019997,1729474596564.0,0.0
-0.612563,-6.465407,-7.446464,2.38,50.330002,-56.98,1729474596583.0,0.0
-0.835095,-6.953543,-6.541977,51.52,35.490002,-43.610001,1729474596602.0,0.0
-0.256032,-6.489335,-5.974878,87.779999,8.82,-28.210001,1729474596622.0,0.0
-0.131605,-5.07757,-5.218746,94.989998,3.85,-7.14,1729474596643.0,0.0
-0.519243,-4.491328,-5.115855,59.080002,6.65,5.18,1729474596663.0,0.0
-1.043271,-4.821537,-5.216353,-17.290001,5.88,18.200001,1729474596684.0,0.0
-1.229911,-6.108876,-6.537192,-87.989998,-8.68,28.07,1729474596702.0,0.0
-1.402194,-8.949157,-7.432107,-113.120003,-28.700001,32.060001,1729474596723.0,0.0
-1.689333,-9.765109,-6.991827,-65.379997,-32.689999,23.17,1729474596743.0,0.0
-1.572084,-7.513463,-8.023134,-20.02,-39.060001,15.33,1729474596767.0,0.0
-0.839881,-4.632504,-10.107283,6.58,-59.360001,19.879999,1729474596782.0,0.0
0.344566,-2.222932,-12.081362,20.23,-70.910004,36.259998,1729474596804.0,0.0
0.756132,-1.684547,-11.937792,36.82,-46.060001,57.330002,1729474596823.0,0.0
0.306281,-2.203789,-12.081362,44.450001,-6.72,68.739998,1729474596842.0,0.0
-0.342174,-3.596412,-10.360922,48.790001,12.39,76.790001,1729474596864.0,0.0
-0.267996,-4.06062,-7.886744,10.92,19.809999,62.650002,1729474596883.0,0.0
-0.294317,-4.977071,-8.396415,-39.34,9.38,41.369999,1729474596902.0,0.0
-0.294317,-5.936593,-9.085547,-62.439999,1.96,18.549999,1729474596922.0,0.0
