acc_x,acc_y,acc_z,gyr_x,gyr_y,gyr_z,timestamp,label
-5.15414,-5.352744,-0.177069,518.909973,124.32,62.790001,1729431508906.0,0.0
-3.242275,-4.780859,6.496514,395.290009,92.120003,41.23,1729431508906.0,0.0
-1.217947,-6.943972,7.209574,238.839996,52.080002,21.139999,1729431508907.0,0.0
0.5001,-9.564112,7.735995,239.330002,33.459999,24.57,1729431508908.0,0.0
0.11007,-5.826523,7.216753,298.339996,38.220001,54.599998,1729431508921.0,0.0
-2.943172,-4.878965,6.391229,270.410004,24.780001,72.239998,1729431508940.0,0.0
-4.342973,-9.049655,4.663611,189.070007,1.33,67.059998,1729431508962.0,0.0
-3.031706,-10.30828,2.277967,130.899994,-20.299999,63.139999,1729431508981.0,0.0
-6.970293,-11.8349,-0.215354,97.370003,-15.47,57.400002,1729431509001.0,0.0
-7.724032,-12.346965,-1.871187,-28.98,-24.57,8.26,1729431509021.0,0.0
-4.852644,-9.171689,-2.699104,-88.690002,-23.59,1.68,1729431509040.0,0.0
-6.008378,-7.999206,-3.555735,-142.309998,2.59,4.2,1729431509060.0,0.0
-7.140182,-5.647062,-3.9673,-217.630005,13.3,-5.32,1729431509080.0,0.0
-8.214561,-4.615755,-3.058028,-278.320007,30.380001,-2.1,1729431509102.0,0.0
-8.894121,-5.216353,-3.524628,-364.140015,23.940001,-25.200001,1729431509121.0,0.0
-7.300502,-6.865008,-0.227318,-394.450012,-23.450001,-39.759998,1729431509140.0,0.0
-6.072984,-6.250053,-0.358923,-409.98999,-40.880001,-38.220001,1729431509160.0,0.0
-5.814559,-5.45085,-1.90708,-378.140015,-41.369999,-38.57,1729431509180.0,0.0
-6.455836,-7.563712,-2.330609,-320.040009,-42.630001,-29.190001,1729431509201.0,0.0
-6.613762,-6.661618,-2.553142,-342.369995,-40.110001,-33.670002,1729431509221.0,0.0
-6.530013,-6.041877,-3.785445,-325.5,-44.59,-26.809999,1729431509240.0,0.0
-5.570491,-7.405786,-5.032106,-265.579987,-47.110001,-20.51,1729431509260.0,0.0
-5.742774,-7.575676,-5.632704,-225.75,-44.73,-12.11,1729431509280.0,0.0
-6.128019,-7.077969,-5.871986,-208.949997,-38.43,-24.99,1729431509301.0,0.0
-7.156933,-3.76391,-7.989635,-228.550003,-36.610001,-32.48,1729431509322.0,0.0
-6.348158,-4.350152,-9.590433,-202.229996,-20.790001,-36.82,1729431509340.0,0.0
-6.855437,-2.624927,-9.016156,-179.270004,-13.3,-35.349998,1729431509360.0,0.0
-7.704889,-1.557728,-7.881958,-186.410004,0.07,-48.23,1729431509382.0,0.0
-7.235896,-3.09392,-10.509278,-182.630005,15.61,-47.18,1729431509401.0,0.0
-6.611369,-5.075177,-10.628918,-119.209999,28.42,-45.5,1729431509420.0,0.0
-6.178268,-5.556134,-9.470792,-32.619999,33.389999,-44.52,1729431509441.0,0.0
-5.98445,-5.24746,-8.714661,4.34,31.710001,-44.869999,1729431509459.0,0.0
-5.745167,-4.869394,-7.525427,41.720001,33.110001,-43.470001,1729431509480.0,0.0
-5.702096,-3.481557,-8.190632,113.330002,27.440001,-24.780001,1729431509501.0,0.0
-4.685147,-2.031506,-10.066606,149.800003,19.18,0.14,1729431509520.0,0.0
-3.689733,-4.859823,-11.277373,147.279999,38.360001,12.6,1729431509541.0,0.0
-2.880959,-4.699504,-10.470992,219.520004,46.759998,27.719999,1729431509561.0,0.0
-2.423929,-4.527221,-9.954143,353.98999,43.400002,55.16,1729431509580.0,0.0
-1.442872,-4.979464,-9.623933,462.279999,44.59,67.970001,1729431509602.0,0.0
-1.5003,-5.726025,-8.312666,523.320007,62.93,76.440002,1729431509623.0,0.0
-2.708675,-6.91765,-6.357729,554.820007,80.639999,79.099998,1729431509640.0,0.0
-4.113262,-6.711867,-2.459821,544.669983,81.970001,69.93,1729431509660.0,0.0
-4.991428,-6.362515,-0.26321,436.309998,59.220001,51.799999,1729431509679.0,0.0
-4.790431,-7.235896,0.926022,322.0,39.130001,32.41,1729431509704.0,0.0
-4.563113,-8.432307,1.124627,211.960007,25.48,14.21,1729431509724.0,0.0
-4.807181,-8.463413,1.423729,117.18,19.879999,-0.56,1729431509742.0,0.0
-5.039285,-8.30788,1.634298,37.869999,16.1,-12.88,1729431509761.0,0.0
-4.689932,-8.518449,1.134198,-25.48,13.72,-24.85,1729431509780.0,0.0
-4.311867,-8.472985,0.856631,-57.75,12.32,-34.09,1729431509801.0,0.0
-5.051248,-8.312666,1.227518,-78.82,16.73,-27.93,1729431509821.0,0.0
-4.673182,-9.159724,0.081356,-117.739998,24.08,-39.970001,1729431509839.0,0.0
-4.532006,-9.638289,-1.469193,-142.589996,18.549999,-39.48,1729431509861.0,0.0
-4.460221,-9.707682,-2.050649,-120.959999,22.960001,-34.93,1729431509882.0,0.0
-4.701896,-9.360723,-1.945365,-60.060001,28.700001,-26.530001,1729431509901.0,0.0
-4.914857,-8.477771,-1.359123,0.63,29.960001,-18.27,1729431509921.0,0.0
-5.020142,-7.977671,-0.696311,28.0,30.59,-13.3,1729431509939.0,0.0
-5.003392,-7.554141,-0.320638,26.32,28.35,-12.39,1729431509959.0,0.0
-5.190032,-7.855636,0.356531,-3.22,27.440001,-12.32,1729431509979.0,0.0
-5.096712,-6.924829,-0.507278,-79.169998,25.969999,-24.92,1729431510001.0,0.0
-4.902894,-7.664211,-2.689533,-234.080002,13.02,-41.09,1729431510022.0,0.0
-4.151547,-9.303294,-5.426922,-304.920013,6.23,-54.950001,1729431510041.0,0.0
-3.06042,-10.882557,-6.149554,-291.619995,9.1,-60.760002,1729431510061.0,0.0
-2.376073,-11.274981,-7.037291,-198.169998,17.219999,-57.610001,1729431510080.0,0.0
-1.976472,-9.406186,-6.240481,-109.480003,22.610001,-47.599998,1729431510102.0,0.0
-1.842474,-7.702496,-5.515456,-101.57,32.759998,-42.0,1729431510119.0,0.0
-2.115255,-7.063612,-6.281159,-152.949997,45.849998,-42.139999,1729431510141.0,0.0
-2.012364,-8.207381,-7.929814,-184.240005,49.630001,-43.470001,1729431510161.0,0.0
-1.191626,-7.728817,-8.673983,-172.410004,47.740002,-39.48,1729431510180.0,0.0
-1.153341,-6.71426,-8.559127,-141.050003,50.330002,-27.51,1729431510202.0,0.0
-1.792224,-6.58744,-8.228917,-130.199997,63.490002,-24.780001,1729431510222.0,0.0
-2.09372,-6.833901,-8.327023,-111.93,67.900002,-18.9,1729431510240.0,0.0
-2.0004,-6.329016,-8.061419,-71.330002,64.050003,-14.56,1729431510260.0,0.0
-2.151148,-5.589634,-7.745567,-44.380001,61.110001,-9.8,1729431510279.0,0.0
-2.79721,-5.367101,-7.02772,-30.1,61.110001,-4.41,1729431510303.0,0.0
-3.285345,-4.354938,-5.345565,-11.2,53.130001,0.42,1729431510321.0,0.0
-3.24706,-4.735396,-5.362316,-1.89,39.48,6.16,1729431510341.0,0.0
-3.476771,-5.74756,-5.752346,8.33,23.379999,11.55,1729431510359.0,0.0
-3.634698,-5.393422,-5.938986,25.83,13.72,11.97,1729431510380.0,0.0
-3.397808,-4.345366,-5.410172,34.16,3.64,15.26,1729431510400.0,0.0
-3.460021,-4.804788,-5.833702,21.629999,-2.52,17.639999,1729431510420.0,0.0
-3.735196,-5.257031,-6.135197,3.22,-4.97,17.43,1729431510439.0,0.0
-3.811767,-5.615955,-6.580262,1.05,-9.59,19.879999,1729431510460.0,0.0
-3.414558,-6.15434,-7.525427,-5.74,-9.59,14.84,1729431510479.0,0.0
-3.067599,-6.348158,-7.838887,-18.48,-2.45,8.61,1729431510502.0,0.0
-2.818745,-5.869594,-7.597212,-25.059999,4.97,3.08,1729431510521.0,0.0
-2.634498,-5.596812,-7.9346,-27.51,9.52,0.07,1729431510539.0,0.0
-2.254039,-5.572884,-8.130811,-30.450001,14.77,-0.28,1729431510559.0,0.0
-1.981257,-5.793024,-8.427521,-25.690001,16.1,1.47,1729431510582.0,0.0
-1.799403,-5.876772,-8.750552,-17.85,13.86,0.7,1729431510600.0,0.0
-1.545763,-5.630312,-8.882158,-13.09,10.99,-2.03,1729431510620.0,0.0
-1.689333,-6.238089,-9.207582,-24.290001,12.6,-6.44,1729431510639.0,0.0
-1.799403,-5.087141,-8.159525,-22.190001,11.27,-7.28,1729431510660.0,0.0
-2.603391,-5.335995,-8.233703,-10.15,9.52,-8.96,1729431510681.0,0.0
-3.019742,-5.149354,-8.133204,-8.61,10.08,-8.54,1729431510701.0,0.0
-2.897708,-5.206782,-8.276773,-7.84,11.06,-8.82,1729431510722.0,0.0
-2.414358,-4.934,-8.662018,-9.03,13.23,-9.24,1729431510739.0,0.0
-2.471786,-5.326423,-8.595018,-9.17,13.440001,-7.77,1729431510760.0,0.0
-1.895115,-5.335995,-9.116654,-4.9,12.18,-11.13,1729431510780.0,0.0
-1.548156,-4.529613,-8.638089,1.75,11.97,-10.29,1729431510800.0,0.0
-1.665405,-4.278367,-7.62114,-12.11,11.41,-11.13,1729431510820.0,0.0
-1.569692,-5.221139,-8.008778,-39.900002,11.69,-16.66,1729431510839.0,0.0
-1.892723,-5.412565,-8.420342,-39.27,11.13,-18.41,1729431510860.0,0.0
-2.342573,-4.625326,-8.721838,-22.610001,11.97,-18.059999,1729431510881.0,0.0
-2.081756,-3.775874,-8.609376,-1.12,12.39,-14.63,1729431510901.0,0.0
-2.072184,-2.591427,-8.135597,10.22,10.29,-10.29,1729431510922.0,0.0
-2.177469,-2.739782,-7.939385,-12.53,8.61,-7.14,1729431510946.0,0.0
-2.065006,-3.613162,-7.936993,-43.75,6.86,-9.1,1729431510960.0,0.0
-1.155733,-3.323631,-7.910671,-49.349998,-3.78,-8.89,1729431510989.0,0.0
0.045464,-3.285345,-9.085547,-59.080002,-25.34,-3.29,1729431511001.0,0.0
-0.100499,-3.345166,-9.891929,-77.559998,-29.33,2.31,1729431511020.0,0.0
-0.612563,-4.146761,-9.77468,-90.160004,-27.58,10.71,1729431511039.0,0.0
-1.318445,-4.680361,-9.131011,-78.260002,-27.23,17.5,1729431511061.0,0.0
-1.871187,-4.249653,-8.958728,-60.760002,-29.610001,21.49,1729431511081.0,0.0
-2.230111,-4.371687,-9.08794,-47.529999,-30.1,22.889999,1729431511101.0,0.0
-2.088934,-5.12782,-9.51147,-14.7,-30.380001,23.1,1729431511123.0,0.0
-1.844866,-10.947165,-10.887343,-35.0,-18.129999,-10.22,1729431511140.0,0.0
-1.816152,-4.998606,-9.784252,-10.29,-20.58,-35.420002,1729431511159.0,0.0
-1.490728,-4.709075,-10.470992,48.509998,-13.23,-23.52,1729431511180.0,0.0
-1.426122,-5.233103,-10.904092,107.800003,-1.89,-10.22,1729431511203.0,0.0
-1.840081,-5.599205,-10.846665,189.350006,2.8,4.2,1729431511221.0,0.0
-1.674976,-5.970093,-11.148161,248.149994,2.31,2.03,1729431511241.0,0.0
-1.459622,-6.958328,-11.569297,298.480011,12.11,-6.79,1729431511262.0,0.0
-1.651048,-6.252446,-10.298709,367.429993,23.24,-4.2,1729431511280.0,0.0
-3.383451,-4.211368,-7.951349,435.890015,46.900002,13.58,1729431511303.0,0.0
-3.881158,-5.034499,-5.776274,469.420013,59.150002,25.27,1729431511321.0,0.0
-4.113262,-7.853244,-5.32403,484.959991,71.959999,40.32,1729431511342.0,0.0
-3.278167,-8.432307,-6.309873,528.150024,61.810001,36.470001,1729431511362.0,0.0
-3.096312,-6.702296,-6.647261,563.640015,78.330002,54.18,1729431511380.0,0.0
-3.361916,0.842274,6.546762,461.51001,112.419998,56.98,1729431511483.0,0.0
-3.881158,2.632105,10.636096,105.349998,84.699997,60.060001,1729431511484.0,0.0
-2.768496,-9.600004,5.036892,-277.130005,-6.02,-3.43,1729431511484.0,0.0
-0.445065,-16.347765,1.574477,-358.820007,-67.269997,-32.830002,1729431511557.0,0.0
0.064606,-9.640682,2.371287,-219.589996,-71.400002,-17.5,1729431511625.0,0.0
0.399601,-4.682754,2.062613,-151.479996,-90.510002,-38.290001,1729431511625.0,0.0
-2.897708,-8.798409,-0.119641,-200.059998,-104.160004,-42.139999,1729431511626.0,0.0
1.270589,-5.898308,-2.158326,-247.029999,-133.350006,-44.240002,1729431511626.0,0.0
1.928615,-4.371687,-3.316452,-300.369995,-152.809998,-70.699997,1729431511626.0,0.0
-3.314059,-9.84168,-2.969493,-297.5,-166.110001,-56.490002,1729431511627.0,0.0
-1.191626,-6.161518,-10.987842,-374.850006,-162.539993,-81.970001,1729431511627.0,0.0
-1.990828,-4.122833,-8.812766,-368.059998,-170.449997,-117.459999,1729431511640.0,0.0
-6.905686,0.471386,-12.083755,-330.679993,-131.180008,-61.32,1729431511664.0,0.0
-6.412765,-4.682754,-16.321442,-424.970001,-72.449997,-32.689999,1729431511694.0,0.0
-3.629912,-8.669197,-17.079967,-343.910004,-13.93,-15.33,1729431511709.0,0.0
-2.423929,-5.699703,-13.813765,-111.860001,-2.8,4.62,1729431511724.0,0.0
-3.689733,-1.328017,-12.416357,-17.57,10.92,15.26,1729431511739.0,0.0
-4.867002,-4.302295,-13.643874,-23.940001,45.5,12.25,1729431511761.0,0.0
-2.734996,-3.644269,-14.902499,8.61,73.080002,11.27,1729431511781.0,0.0
-0.557528,-4.292724,-10.427922,72.590004,94.220001,15.190001,1729431511802.0,0.0
0.131605,0.870987,-3.823731,57.610001,72.730003,3.57,1729431511850.0,0.0
0.452243,-7.635497,-7.259824,-8.26,60.970001,-3.29,1729431511851.0,0.0
-1.816152,-10.29153,-10.30828,9.45,64.889999,-33.25,1729431511862.0,0.0
-1.272982,-6.563512,-7.575676,101.849998,60.549999,-33.670002,1729431511881.0,0.0
0.787239,-5.347959,-8.178668,201.740005,48.790001,-26.67,1729431511903.0,0.0
-0.083749,-3.409772,-8.181061,253.259995,48.299999,-15.12,1729431511922.0,0.0
-0.399601,-8.51127,-6.721439,207.970001,46.200001,-1.26,1729431511942.0,0.0
0.753739,-3.795017,-5.582455,189.910004,42.77,-12.67,1729431511961.0,0.0
-0.569492,-4.510471,-5.740381,204.119995,42.420002,24.290001,1729431511981.0,0.0
-0.131605,-1.481157,-3.108276,150.149994,35.07,14.49,1729431512004.0,0.0
0.399601,-8.015956,-4.165904,220.779999,18.9,65.239998,1729431512022.0,0.0
2.304288,-5.879165,-5.235496,259.910004,-3.92,50.889999,1729431512042.0,0.0
0.715454,-9.504292,0.655633,406.209991,0.35,94.919998,1729431512061.0,0.0
-4.512863,-16.591831,7.743174,380.519989,5.81,59.5,1729431512082.0,0.0
-4.201797,-10.293922,-4.333402,172.970001,-13.3,27.93,1729431512103.0,0.0
-0.600598,-9.688539,-4.960321,67.900002,1.96,50.189999,1729431512121.0,0.0
-0.72024,-11.921042,-3.52702,160.160004,36.610001,41.369999,1729431512141.0,0.0
-3.917051,-9.798609,-2.002793,345.029999,96.949997,68.879997,1729431512161.0,0.0
-4.122833,-9.217153,3.294917,392.420013,122.849998,71.889999,1729431512181.0,0.0
-1.550549,-7.094719,7.37468,237.580002,89.529999,30.73,1729431512204.0,0.0
-0.815953,-11.734402,5.986843,70.419998,41.860001,13.65,1729431512222.0,0.0
1.792224,-11.193624,0.902094,-4.2,-2.24,-19.040001,1729431512241.0,0.0
-2.378466,-6.410372,-0.787239,51.380001,27.299999,13.65,1729431512262.0,0.0
-4.285545,-6.218946,3.936193,35.420002,49.209999,20.790001,1729431512283.0,0.0
-3.031706,-9.348758,5.379066,-62.720001,15.89,7.07,1729431512302.0,0.0
-1.253839,-9.980463,0.772882,-178.149994,-8.19,1.75,1729431512322.0,0.0
-1.014557,-5.702096,-2.70389,-281.540009,-7.42,-0.07,1729431512341.0,0.0
-2.172683,-6.302694,-0.748954,-300.929993,-1.61,2.1,1729431512363.0,0.0
-4.453043,-10.995021,-2.85703,-294.350006,1.47,-6.23,1729431512383.0,0.0
-4.290331,-12.143576,-4.756931,-285.25,-14.84,-30.450001,1729431512402.0,0.0
-3.160919,-10.329816,-4.096512,-258.649994,-33.529999,-34.720001,1729431512421.0,0.0
-2.737389,-9.068797,-3.06042,-218.259995,-31.15,-41.16,1729431512446.0,0.0
-3.062813,-9.956534,-5.225924,-186.830002,-15.54,-43.049999,1729431512461.0,0.0
-3.165704,-10.34178,-5.04407,-176.119995,-16.24,-45.849998,1729431512481.0,0.0
-2.883351,-8.867801,-4.756931,-184.169998,-4.2,-47.810001,1729431512503.0,0.0
-2.438286,-7.073184,-5.651847,-194.600006,-4.34,-51.240002,1729431512521.0,0.0
-1.897508,-6.599405,-5.20439,-203.210007,-4.41,-43.189999,1729431512541.0,0.0
-1.426122,-7.676175,-5.881558,-185.5,-2.17,-37.66,1729431512561.0,0.0
-0.914058,-7.372287,-6.372087,-180.320007,-9.03,-33.950001,1729431512582.0,0.0
-0.607777,-7.518249,-5.553742,-168.350006,-10.92,-33.459999,1729431512601.0,0.0
-0.679562,-7.082755,-7.125826,-146.580002,-13.79,-33.25,1729431512623.0,0.0
-0.928415,-6.470192,-8.599805,-103.529999,-11.55,-28.49,1729431512643.0,0.0
-1.852045,-6.302694,-8.123632,-88.900002,-3.15,-21.07,1729431512661.0,0.0
-1.828116,-6.180661,-7.82453,-102.129997,-12.11,-26.950001,1729431512680.0,0.0
-1.282553,-5.740381,-8.85105,-108.360001,-22.960001,-36.68,1729431512701.0,0.0
-1.641476,-4.0008,-8.563912,-128.520004,-26.32,-42.349998,1729431512723.0,0.0
-2.163112,-5.06082,-8.508877,-112.279999,-21.35,-44.450001,1729431512742.0,0.0
-2.63689,-3.424129,-8.729016,-111.300003,-22.469999,-40.529999,1729431512760.0,0.0
-3.031706,-4.048656,-8.585447,-148.119995,-25.41,-44.939999,1729431512780.0,0.0
-1.002593,-1.942972,-15.979269,-189.490005,-18.76,-61.389999,1729431512802.0,0.0
-0.705883,-4.275974,-12.942777,-170.869995,3.36,-57.75,1729431512821.0,0.0
0.411566,1.471586,-9.822537,-90.300003,5.46,-42.91,1729431512841.0,0.0
-2.277967,8.008778,-7.726424,5.67,5.25,-2.17,1729431512861.0,0.0
-3.838088,6.412765,-8.157133,-69.440002,-4.27,29.540001,1729431512881.0,0.0
-5.587241,-3.493521,-8.341379,-174.229996,-5.67,49.0,1729431512902.0,0.0
2.392823,-14.263616,-15.608383,-130.550003,-18.34,10.01,1729431512922.0,0.0
-1.100698,2.761317,-12.617353,-56.84,-17.780001,-47.389999,1729431512940.0,0.0
-5.740381,2.385644,-12.057433,-94.779999,-3.71,-3.5,1729431512962.0,0.0
-1.086342,-6.163911,-11.088341,-99.75,28.139999,14.07,1729431512987.0,0.0
-2.395216,-2.665605,-10.157533,24.01,15.190001,26.74,1729431513001.0,0.0
-2.189433,-0.825524,-9.645468,60.34,15.190001,42.279999,1729431513024.0,0.0
-0.947558,-1.426122,-8.85823,51.240002,20.09,43.330002,1729431513041.0,0.0
-1.696511,-3.306881,-8.870193,61.529999,15.26,41.439999,1729431513063.0,0.0
-1.028914,-4.496114,-9.614362,91.910004,7.63,31.710001,1729431513081.0,0.0
-0.854238,-5.015356,-10.135997,164.360001,0.49,26.67,1729431513105.0,0.0
-0.29671,-5.76431,-11.346765,265.51001,-5.11,16.66,1729431513121.0,0.0
0.564706,-5.209175,-12.902101,389.339996,-3.08,4.34,1729431513143.0,0.0
2.837888,-1.741975,-13.540984,501.970001,2.31,11.41,1729431513161.0,0.0
2.845066,-4.118048,-13.184454,527.380005,27.09,17.780001,1729431513181.0,0.0
-0.023928,-6.144768,-11.875579,436.519989,69.720001,8.75,1729431513205.0,0.0
-1.079163,-5.752346,-5.491528,374.709991,91.980003,5.04,1729431513223.0,0.0
-0.911665,-9.571291,-4.283153,352.660004,78.610001,13.65,1729431513241.0,0.0
-1.476372,-10.571491,-4.625326,412.369995,65.099998,-3.5,1729431513263.0,0.0
-0.650848,-3.333202,-4.685147,580.859985,83.580002,38.639999,1729431513282.0,0.0
0.57667,-1.591227,-0.141177,624.400024,127.68,75.110001,1729431513302.0,0.0
0.605384,3.680161,3.440879,482.089996,134.399994,63.420002,1729431513336.0,0.0
-5.283352,-8.487342,12.208181,298.130005,108.779999,65.800003,1729431513342.0,0.0
-4.328616,-9.88475,9.80818,155.470001,49.139999,21.07,1729431513362.0,0.0
-1.974079,-6.601797,10.870593,109.970001,22.889999,32.130001,1729431513383.0,0.0
-3.208775,-5.194818,6.829116,-23.799999,-0.49,30.940001,1729431513402.0,0.0
-0.287139,-5.223531,4.113262,-131.669998,-40.810001,15.33,1729431513423.0,0.0
-1.359123,-9.875179,3.567699,-84.0,-38.709999,45.360001,1729431513442.0,0.0
-6.288338,-12.519248,2.608176,-6.16,-43.540001,39.060001,1729431513463.0,0.0
-7.704889,-13.526627,2.081756,7.35,-29.82,21.629999,1729431513483.0,0.0
-2.65364,-13.971692,3.952943,-31.99,-18.969999,-17.219999,1729431513503.0,0.0
-3.579663,-8.365308,5.448457,-81.269997,4.97,-14.63,1729431513527.0,0.0
-2.579463,-6.769295,4.45065,-95.690002,-11.34,-30.73,1729431513608.0,0.0
-1.442872,-5.362316,4.881358,-103.529999,-23.450001,-10.01,1729431513610.0,0.0
-0.059821,-4.058227,2.39043,-124.739998,-45.009998,3.01,1729431513613.0,0.0
-0.088534,-5.101498,-0.9667,-196.490005,-38.150002,6.58,1729431513617.0,0.0
-2.586641,-5.62074,1.215554,-329.209991,-21.139999,0.42,1729431513649.0,0.0
-2.98385,-7.317252,-2.548356,-391.720001,-37.310001,4.41,1729431513651.0,0.0
-0.478565,-5.292924,-4.84068,-375.480011,-64.610001,10.92,1729431513668.0,0.0
0.155533,-2.081756,-9.564112,-376.25,-69.860001,37.939999,1729431513681.0,0.0
-4.015156,-8.166703,-15.390635,-356.299988,-31.780001,51.52,1729431513759.0,0.0
-6.317052,-13.052847,-9.650253,-419.019989,8.4,25.059999,1729431513760.0,0.0
-3.548556,-9.724431,-9.772287,-449.399994,-1.47,-16.52,1729431513766.0,0.0
-3.622734,-5.278566,-6.699903,-363.790009,-27.719999,-49.630001,1729431513781.0,0.0
-0.655633,1.284946,-18.580267,-286.51001,-14.21,-49.420002,1729431513805.0,0.0
-3.917051,0.634098,-17.991632,-189.770004,30.73,13.51,1729431513822.0,0.0
-1.588834,-5.938986,-0.409173,-153.229996,67.059998,14.35,1729431513883.0,0.0
-3.409772,-8.49452,-6.9344,-193.270004,27.860001,-9.38,1729431513883.0,0.0
-3.996014,-10.351351,-14.481362,-200.339996,22.68,-61.32,1729431513894.0,0.0
-3.996014,-5.85763,-9.839286,-55.93,34.23,-52.639999,1729431513903.0,0.0
-2.242075,-2.651247,-5.838487,-4.55,35.0,-27.51,1729431513922.0,0.0
-0.643669,-3.158526,-4.474578,-52.220001,27.16,-7.7,1729431513942.0,0.0
-1.091127,-8.353344,-10.344172,-81.550003,19.530001,-5.18,1729431513961.0,0.0
-1.155733,-9.844072,-11.842079,8.68,23.24,-0.98,1729431513983.0,0.0
0.337388,-7.240681,-11.052447,119.840004,26.040001,-6.58,1729431514002.0,0.0
0.473779,-2.409572,-8.743374,150.5,16.379999,-1.4,1729431514023.0,0.0
-0.064606,-0.531207,-9.370294,114.379997,15.82,-3.99,1729431514042.0,0.0
-1.347159,-4.546363,-13.086348,70.980003,28.280001,-3.15,1729431514064.0,0.0
-1.268196,-4.692325,-12.524034,87.290001,48.02,-3.29,1729431514083.0,0.0
-1.447658,-1.533799,-10.593026,146.649994,49.91,17.780001,1729431514116.0,0.0
-2.206182,-4.488935,-6.12084,139.089996,55.16,16.1,1729431514125.0,0.0
1.768296,-4.565506,4.223332,107.660004,39.549999,-1.89,1729431514142.0,0.0
0.088534,1.512264,-6.601797,31.43,-22.82,-27.58,1729431514162.0,0.0
-2.804388,-5.828916,-10.255639,-70.209999,-0.7,-14.63,1729431514183.0,0.0
-0.447458,-9.298509,-8.274381,-80.779999,0.77,-22.4,1729431514203.0,0.0
-0.617348,-4.701896,-6.113662,-40.670002,-10.5,-31.5,1729431514223.0,0.0
-1.019342,-4.220939,-7.683353,-65.940002,-30.870001,-40.040001,1729431514242.0,0.0
0.789631,-6.192625,-9.114261,-122.5,-26.32,-46.689999,1729431514262.0,0.0
0.071785,-3.326023,-8.377272,-83.230003,-27.16,-38.220001,1729431514282.0,0.0
-1.395016,-1.083949,-7.482357,-74.760002,-45.43,-31.99,1729431514303.0,0.0
0.050249,-4.924429,-9.755538,-105.139999,-50.68,-30.940001,1729431514323.0,0.0
2.29711,-2.414358,-10.853845,-108.360001,-49.490002,-55.02,1729431514343.0,0.0
-1.308874,-2.359323,-10.817951,-75.110001,-46.48,-42.139999,1729431514362.0,0.0
-1.655833,-3.366701,-9.889536,-21.210001,-34.299999,-40.389999,1729431514388.0,0.0
-0.351745,-2.012364,-9.982857,9.66,-38.920002,-40.459999,1729431514403.0,0.0
-0.727418,-1.672583,-9.702895,-31.360001,-33.18,-43.259998,1729431514422.0,0.0
-1.430908,-3.869194,-9.777073,-40.459999,-27.23,-38.009998,1729431514442.0,0.0
-1.596013,-4.261617,-8.520842,12.74,-31.99,-34.369999,1729431514462.0,0.0
-1.564906,-3.469593,-7.482357,69.580002,-47.389999,-28.210001,1729431514483.0,0.0
-1.739582,-3.426522,-8.078169,93.800003,-61.670002,-19.67,1729431514504.0,0.0
-1.756332,-2.553142,-11.47119,132.930008,-74.480003,1.12,1729431514538.0,0.0
-2.62732,-0.849452,-10.222138,141.539993,-60.549999,38.990002,1729431514542.0,0.0
-3.751946,-1.268196,-11.140982,97.720001,-45.709999,65.449997,1729431514608.0,0.0
-3.309274,-2.275574,-13.361522,67.059998,-28.07,68.459999,1729431514609.0,0.0
-2.59382,-2.589034,-13.92862,90.230003,-9.73,69.510002,1729431514611.0,0.0
-2.512464,-3.266203,-12.552748,115.5,13.51,68.110001,1729431514623.0,0.0
-2.711068,-3.371487,-10.200603,90.790001,34.580002,57.330002,1729431514641.0,0.0
-2.467,-4.663611,-8.118847,42.279999,46.900002,45.5,1729431514663.0,0.0
-1.945365,-6.508478,-7.070791,-10.85,52.150002,32.48,1729431514682.0,0.0
-2.806781,-8.616554,-5.405386,-35.77,49.420002,19.460001,1729431514701.0,0.0
-5.015356,-10.932807,-0.756132,-56.700001,30.1,-7.56,1729431514727.0,0.0
-3.464807,-7.118648,-3.041277,-115.080002,-22.33,-51.170002,1729431514741.0,0.0
-4.07737,-6.683154,-5.4676,-154.490005,-38.990002,-48.580002,1729431514761.0,0.0
-4.103691,-5.850451,-7.357929,-129.5,-45.849998,-48.720001,1729431514781.0,0.0
-3.35713,-5.070391,-10.205389,-74.690002,-48.23,-35.91,1729431514803.0,0.0
-4.776074,-3.5007,-9.506684,-43.959999,-40.459999,-24.360001,1729431514822.0,0.0
-4.694718,-2.423929,-10.344172,9.59,-33.110001,-10.99,1729431514842.0,0.0
-3.156133,-0.78006,-11.827723,40.389999,-19.18,9.03,1729431514861.0,0.0
-3.316452,-0.521635,-11.765509,45.639999,0.14,19.74,1729431514881.0,0.0
-2.500499,-1.61037,-10.731809,50.119999,12.74,28.139999,1729431514904.0,0.0
-1.978864,-2.143969,-10.265208,42.700001,21.98,29.68,1729431514922.0,0.0
-1.95015,-2.926422,-9.889536,36.959999,27.65,30.17,1729431514942.0,0.0
-1.430908,-4.457829,-8.142776,45.920002,26.950001,31.780001,1729431514963.0,0.0
-2.423929,-5.079963,-6.309873,21.629999,28.49,19.530001,1729431514982.0,0.0
-3.07717,-6.259624,-5.754738,-17.85,22.540001,12.39,1729431515006.0,0.0
-3.692125,-5.47717,-6.199803,-34.369999,8.82,4.48,1729431515029.0,0.0
-4.565506,-6.774081,-6.283553,-53.34,-3.71,-1.54,1729431515042.0,0.0
-4.974678,-6.924829,-6.530013,-76.93,-10.22,-17.08,1729431515062.0,0.0
-5.015356,-5.156533,-7.673782,-39.27,-21.98,-22.049999,1729431515081.0,0.0
-3.806981,-3.680161,-9.667004,-3.92,-26.530001,-24.43,1729431515103.0,0.0
-3.168097,-2.029114,-12.689137,9.52,-21.49,-21.629999,1729431515123.0,0.0
-2.892922,-1.804188,-11.988041,16.379999,-9.24,-18.129999,1729431515142.0,0.0
-3.292524,-1.09352,-10.782058,42.07,1.26,-7.07,1729431515161.0,0.0
-1.78026,-0.995414,-9.521042,66.5,7.7,-0.14,1729431515180.0,0.0
-1.808974,-1.811367,-9.623933,24.290001,18.41,11.9,1729431515202.0,0.0
-1.9669,-2.964707,-9.013763,7.14,19.6,20.790001,1729431515221.0,0.0
-2.088934,-5.17089,-7.893922,-14.42,22.120001,22.120001,1729431515242.0,0.0
-3.04367,-8.181061,-6.601797,-37.52,24.85,14.35,1729431515261.0,0.0
-3.469593,-6.946364,-6.948757,-32.27,15.47,3.64,1729431515281.0,0.0
-4.139583,-6.757331,-5.965307,-27.93,7.7,-0.21,1729431515303.0,0.0
-5.185246,-7.76471,-6.652047,-65.940002,0.77,-19.18,1729431515323.0,0.0
-5.144568,-6.147161,-7.24786,-45.220001,-13.16,-26.25,1729431515342.0,0.0
-3.582055,-3.895515,-8.79123,-15.75,-21.629999,-35.0,1729431515362.0,0.0
-2.790031,-2.957529,-10.238889,4.34,-23.940001,-32.549999,1729431515382.0,0.0
-2.371287,-1.612763,-10.396815,20.02,-21.77,-29.26,1729431515404.0,0.0
-4.125226,-0.184247,-10.882557,34.580002,-15.26,-8.61,1729431515422.0,0.0
-3.400201,-0.820738,-9.946963,53.970001,0.35,3.71,1729431515446.0,0.0
-2.222932,-1.251446,-8.949157,74.410004,7.98,16.17,1729431515464.0,0.0
-1.512264,-0.430708,-9.49472,51.380001,7.28,23.66,1729431515482.0,0.0
-1.399801,-2.07697,-9.265009,1.68,16.940001,29.889999,1729431515504.0,0.0
-2.617748,-7.008578,-8.130811,-17.99,26.530001,39.689999,1729431515524.0,0.0
-3.261417,-9.415757,-6.51087,-11.06,22.049999,25.27,1729431515543.0,0.0
-3.438486,-6.769295,-6.893722,22.190001,4.97,14.14,1729431515565.0,0.0
-4.869394,-6.173482,-3.878766,15.190001,-9.45,7.7,1729431515583.0,0.0
-5.833702,-5.481956,-5.745167,-33.740002,-22.540001,-4.62,1729431515608.0,0.0
-5.546563,-6.381658,-9.320045,-65.519997,-20.02,-17.219999,1729431515625.0,0.0
-4.223332,-4.608576,-9.372685,-9.17,-26.32,-16.379999,1729431515643.0,0.0
-2.907279,-4.046263,-9.45165,19.67,-29.75,-28.280001,1729431515664.0,0.0
-3.366701,-2.443072,-11.38505,-12.53,-23.1,-35.349998,1729431515685.0,0.0
-3.993621,-0.923629,-10.717452,-3.71,-13.37,-27.65,1729431515708.0,0.0
-3.56052,-2.0004,-9.671788,31.710001,-3.29,-18.200001,1729431515730.0,0.0
-2.98385,-1.885544,-8.599805,34.580002,3.64,-11.2,1729431515750.0,0.0
-1.78026,-1.079163,-9.288938,-4.34,6.02,-2.45,1729431515765.0,0.0
-1.481157,-4.572684,-8.930015,-31.360001,13.58,11.27,1729431515785.0,0.0
-1.964507,-6.001199,-9.116654,-22.960001,17.360001,14.0,1729431515808.0,0.0
-2.478964,-5.201996,-8.377272,4.55,15.89,19.879999,1729431515825.0,0.0
-2.584249,-7.628319,-7.472785,-1.26,17.01,13.72,1729431515844.0,0.0
-3.101098,-7.087541,-7.9681,11.13,6.09,6.51,1729431515865.0,0.0
-6.015556,-5.024928,-4.285545,-7.0,-4.83,-7.42,1729431515885.0,0.0
-6.266802,-4.177868,-5.096712,-42.84,-20.02,-20.299999,1729431515906.0,0.0
-5.209175,-5.087141,-7.936993,-68.040001,-26.040001,-28.42,1729431515927.0,0.0
-4.311867,-4.900501,-10.298709,-56.700001,-24.290001,-30.870001,1729431515944.0,0.0
-4.125226,-2.675175,-10.774881,-7.56,-21.49,-24.85,1729431515964.0,0.0
-3.084348,-1.332802,-10.612168,19.530001,-10.71,-12.95,1729431515984.0,0.0
-3.026921,-1.088734,-10.51167,32.130001,0.28,7.7,1729431516009.0,0.0
-2.256432,-2.840281,-9.611969,31.15,11.83,14.42,1729431516024.0,0.0
-2.031506,-2.605784,-8.671589,31.290001,14.21,13.37,1729431516045.0,0.0
-2.230111,-2.56032,-8.717053,1.26,16.59,6.37,1729431516063.0,0.0
-2.340181,-5.498707,-9.509077,-30.52,20.790001,2.66,1729431516085.0,0.0
-2.861816,-5.125426,-9.334401,-19.530001,22.469999,-1.68,1729431516108.0,0.0
-3.259024,-6.331409,-7.91785,-6.79,22.960001,-1.26,1729431516127.0,0.0
-5.06082,-6.472585,-4.553542,-6.3,11.62,-11.27,1729431516143.0,0.0
-5.120641,-6.197411,-4.800002,-22.26,-6.37,-24.08,1729431516164.0,0.0
-5.350351,-4.862216,-6.202196,-51.380001,-20.65,-32.830002,1729431516184.0,0.0
-4.989035,-3.996014,-7.953743,-43.68,-24.15,-29.120001,1729431516204.0,0.0
-3.211168,-3.617948,-9.561719,-30.73,-26.67,-26.530001,1729431516226.0,0.0
-2.572284,-3.811767,-10.9017,-8.47,-21.139999,-20.51,1729431516244.0,0.0
-3.677768,-1.732404,-10.727024,25.620001,-24.360001,-9.59,1729431516263.0,0.0
-3.048456,-2.086541,-11.265409,49.07,-11.27,-6.3,1729431516286.0,0.0
-2.426322,-1.540978,-11.097912,54.670002,-1.75,2.03,1729431516305.0,0.0
-2.045863,-1.701297,-11.200804,38.43,9.38,3.64,1729431516325.0,0.0
-2.459821,-3.215954,-10.944772,27.93,19.879999,2.24,1729431516347.0,0.0
-2.242075,-2.830709,-11.68176,45.639999,27.16,1.82,1729431516363.0,0.0
-3.034099,-3.60359,-10.96152,84.419998,36.610001,10.36,1729431516386.0,0.0
-3.988836,-2.768496,-10.162319,123.059998,47.670002,16.870001,1729431516407.0,0.0
-4.323831,-5.283352,-8.343772,156.169998,60.200001,28.0,1729431516424.0,0.0
-4.800002,-6.441479,-7.116255,209.369995,78.959999,28.98,1729431516444.0,0.0
-5.118248,-6.951149,-7.661818,259.0,78.470001,37.099998,1729431516464.0,0.0
-4.522435,-6.183054,-9.12144,248.360001,92.190002,31.01,1729431516483.0,0.0
-4.065405,-4.931608,-9.96132,233.520004,116.270004,40.389999,1729431516504.0,0.0
-4.460221,-7.180861,-4.350152,256.059998,129.360001,49.84,1729431516525.0,0.0
-4.893322,-9.894321,3.07717,315.209991,118.300003,30.17,1729431516545.0,0.0
-3.617948,-11.370694,3.952943,296.029999,62.23,7.42,1729431516563.0,0.0
-2.081756,-8.068598,1.682154,189.699997,26.389999,-20.02,1729431516584.0,0.0
-1.194018,-5.300103,-1.07677,58.029999,16.870001,-24.219999,1729431516605.0,0.0
0.911665,-7.523034,-1.600798,-35.91,-6.65,-22.469999,1729431516624.0,0.0
1.643869,-10.772489,-2.734996,-33.599998,-9.24,-19.530001,1729431516644.0,0.0
1.086342,-9.389436,-3.132205,52.290001,-2.17,-14.98,1729431516663.0,0.0
0.11007,-4.579862,-1.040878,80.080002,-2.73,-0.98,1729431516684.0,0.0
-1.067199,-3.720839,-0.394816,-8.4,-22.26,8.96,1729431516705.0,0.0
-2.208575,-8.047063,-2.179861,-141.050003,-47.950001,-3.71,1729431516727.0,0.0
-2.969493,-11.346765,-6.391229,-183.960007,-63.07,-15.05,1729431516744.0,0.0
-4.443472,-11.595619,-9.023334,-84.139999,-53.900002,1.96,1729431516764.0,0.0
-5.254639,-10.332209,-7.788638,-24.57,-21.280001,-9.24,1729431516783.0,0.0
-5.881558,-11.937792,-7.377072,8.4,8.26,-10.64,1729431516803.0,0.0
-3.412165,-10.432706,-5.201996,-5.25,7.84,-19.460001,1729431516824.0,0.0
-1.674976,-8.788837,-6.860222,-9.17,22.82,-17.08,1729431516842.0,0.0
-1.397408,-8.317451,-3.974478,11.9,40.459999,-12.95,1729431516863.0,0.0
-0.756132,-7.546963,-0.18664,15.12,38.150002,-12.6,1729431516883.0,0.0
-0.057428,-9.207582,-1.277767,20.65,15.4,-14.77,1729431516904.0,0.0
1.028914,-7.377072,-2.385644,-13.65,-7.42,-30.799999,1729431516923.0,0.0
0.847059,-6.257231,-2.866602,-24.219999,-17.710001,-21.98,1729431516945.0,0.0
-0.177069,-6.053841,-2.818745,-18.549999,-33.599998,-14.91,1729431516965.0,0.0
-1.880759,-6.192625,-3.4672,-14.91,-42.07,-8.47,1729431516984.0,0.0
-2.065006,-6.209375,-4.323831,-56.98,-54.950001,-2.8,1729431517006.0,0.0
-1.031307,-7.077969,-7.479963,-110.32,-63.0,-0.14,1729431517024.0,0.0
-1.330409,-9.77468,-9.095119,-79.730003,-49.630001,14.0,1729431517044.0,0.0
-4.666004,-15.230316,-6.396015,36.82,-4.2,27.299999,1729431517077.0,0.0
-5.757132,-11.337193,-10.262815,42.279999,20.23,10.22,1729431517083.0,0.0
-2.419144,-9.671788,-6.324231,84.629997,30.73,10.15,1729431517109.0,0.0
-0.961915,-9.387043,-5.735595,64.68,59.5,-0.07,1729431517126.0,0.0
-1.785046,-8.60459,-1.921437,68.110001,68.949997,4.76,1729431517143.0,0.0
-1.533799,-8.319844,0.160319,55.790001,42.139999,-12.32,1729431517164.0,0.0
-0.184247,-6.908078,0.409173,28.0,8.82,-24.219999,1729431517185.0,0.0
0.543171,-5.651847,-1.646262,-18.34,-11.62,-23.17,1729431517205.0,0.0
-0.100499,-4.756931,-3.680161,-54.32,-20.719999,-14.84,1729431517225.0,0.0
-1.605584,-5.312066,-3.199204,-67.340004,-27.719999,-0.84,1729431517244.0,0.0
-2.414358,-6.034698,-3.651447,-104.650002,-43.610001,-1.05,1729431517264.0,0.0
-1.328017,-6.477371,-6.266802,-155.680008,-70.489998,-10.36,1729431517285.0,0.0
-0.227318,-6.750153,-8.944371,-169.119995,-74.620003,-5.67,1729431517306.0,0.0
-1.538585,-11.34198,-10.770095,-98.279999,-50.82,13.93,1729431517325.0,0.0
-5.71406,-12.837494,-9.001799,-21.139999,21.280001,8.47,1729431517344.0,0.0
-7.676175,-13.971692,-8.346166,74.690002,35.630001,29.120001,1729431517365.0,0.0
-2.208575,-9.779467,-9.131011,41.790001,17.710001,-4.13,1729431517385.0,0.0
-0.490529,-9.12144,-7.02772,90.160004,42.91,-8.26,1729431517409.0,0.0
-1.799403,-5.728417,-1.103091,91.980003,78.260002,4.97,1729431517426.0,0.0
-2.050649,-8.140383,1.272982,55.23,39.549999,-5.25,1729431517445.0,0.0
-0.361316,-6.333801,-0.459422,55.23,-4.48,-29.120001,1729431517464.0,0.0
-0.337388,-3.567699,-2.495714,-71.889999,-17.43,-18.34,1729431517485.0,0.0
-1.17009,-5.996413,-5.541777,-122.080002,-22.120001,-13.79,1729431517507.0,0.0
-1.141376,-7.951349,-7.267002,-148.259995,-26.25,-16.309999,1729431517525.0,0.0
-1.584049,-7.415358,-7.243074,-107.870003,-32.689999,-5.04,1729431517546.0,0.0
-1.600798,-6.709475,-7.15454,-98.980003,-39.900002,-11.69,1729431517565.0,0.0
-0.949951,-6.774081,-8.015956,-138.600006,-38.779999,-24.290001,1729431517586.0,0.0
-0.509671,-6.020342,-6.664011,-189.419998,-32.900002,-29.26,1729431517607.0,0.0
-0.323031,-6.037091,-8.240881,-211.050003,-30.309999,-36.400002,1729431517627.0,0.0
-0.705883,-5.448457,-9.037691,-217.350006,-24.85,-33.740002,1729431517646.0,0.0
-1.749153,-7.554141,-8.99462,-224.419998,-15.54,-28.630001,1729431517666.0,0.0
-4.460221,-8.874979,-7.984849,-100.590004,-6.3,-38.709999,1729431517686.0,0.0
-4.347759,-3.864408,-6.015556,-30.17,-31.99,-36.470001,1729431517707.0,0.0
-3.04367,-3.275774,-7.740781,-124.25,-35.91,-50.189999,1729431517730.0,0.0
-2.352145,-5.359922,-10.150353,-175.139999,-29.190001,-56.139999,1729431517746.0,0.0
-1.095913,-5.778666,-11.96172,-123.059998,-29.4,-58.59,1729431517766.0,0.0
-0.947558,-3.646662,-11.117055,-32.830002,-23.870001,-43.330002,1729431517791.0,0.0
-1.998007,-2.287539,-11.535798,49.279999,-14.98,-6.02,1729431517807.0,0.0
-2.426322,-0.507278,-12.169895,124.040001,-5.11,29.960001,1729431517826.0,0.0
-2.158326,1.007378,-10.896914,147.770004,10.15,61.880001,1729431517846.0,0.0
-1.832902,0.504886,-10.712667,127.610001,22.75,79.099998,1729431517866.0,0.0
-1.775474,-0.497707,-10.801201,77.139999,36.610001,79.730003,1729431517886.0,0.0
-1.74676,-3.811767,-9.159724,47.040001,45.990002,78.889999,1729431517907.0,0.0
-1.919044,-5.118248,-8.372486,30.73,44.099998,63.420002,1729431517926.0,0.0
-2.017149,-6.795617,-6.991827,2.73,42.630001,49.420002,1729431517946.0,0.0
-1.981257,-9.468399,-4.476971,-31.780001,38.990002,23.73,1729431517966.0,0.0
-2.397608,-9.497113,-5.766702,-82.110001,17.99,-20.23,1729431517985.0,0.0
-3.421736,-6.867401,-6.582655,-114.099998,-1.19,-39.970001,1729431518006.0,0.0
-3.565305,-5.565705,-8.597411,-83.720001,-17.92,-55.860001,1729431518028.0,0.0
-2.321038,-6.360123,-9.140583,-35.209999,-19.32,-63.630001,1729431518045.0,0.0
-2.95035,-2.428715,-8.79123,-25.34,-25.76,-61.880001,1729431518065.0,0.0
-2.971886,-0.052642,-10.15514,2.52,-25.620001,-40.740002,1729431518086.0,0.0
-1.902294,0.31346,-11.25823,34.16,-14.84,-9.8,1729431518108.0,0.0
-1.198804,-0.433101,-11.710474,69.300003,1.54,26.32,1729431518127.0,0.0
-0.679562,-0.849452,-10.614561,83.160004,12.6,49.560001,1729431518146.0,0.0
-0.789631,-1.213161,-10.880164,52.779999,22.049999,50.119999,1729431518167.0,0.0
-1.179662,-2.414358,-10.475778,26.950001,29.960001,56.84,1729431518186.0,0.0
-0.882952,-5.709275,-8.772088,13.51,35.349998,53.830002,1729431518207.0,0.0
-1.971686,-6.762117,-7.609176,14.91,32.900002,37.73,1729431518226.0,0.0
-2.368894,-7.496714,-6.197411,-7.0,27.440001,17.92,1729431518245.0,0.0
-2.878566,-8.159525,-6.331409,-50.189999,16.030001,-8.4,1729431518266.0,0.0
-4.534399,-7.159326,-5.912664,-100.590004,-4.06,-44.450001,1729431518285.0,0.0
-4.359723,-5.615955,-7.896315,-96.669998,-23.1,-55.650002,1729431518306.0,0.0
-2.790031,-4.488935,-8.585447,-59.639999,-26.809999,-67.340004,1729431518327.0,0.0
-1.421337,-0.547956,-10.210175,-12.67,-30.59,-55.93,1729431518345.0,0.0
-1.947758,0.215354,-10.834702,-6.65,-27.93,-28.0,1729431518365.0,0.0
-2.498107,0.380459,-11.243874,23.73,-14.91,4.13,1729431518386.0,0.0
-1.007378,-0.425922,-10.289137,54.040001,-1.89,29.889999,1729431518407.0,0.0
-0.124427,-1.825724,-10.380065,40.670002,8.19,41.439999,1729431518425.0,0.0
0.12682,-2.811567,-10.679168,28.98,10.85,43.400002,1729431518446.0,0.0
-0.471386,-4.063013,-9.990034,3.15,17.710001,37.170002,1729431518465.0,0.0
-0.710668,-5.927022,-9.609575,-2.38,22.049999,35.84,1729431518485.0,0.0
-1.596013,-5.4341,-9.600004,3.78,21.210001,29.33,1729431518507.0,0.0
-1.651048,-6.13759,-10.171888,-9.45,23.66,22.120001,1729431518527.0,0.0
-5.010571,-10.923235,-3.333202,-24.99,24.01,8.47,1729431518546.0,0.0
-4.599005,-6.422336,-6.18784,-45.220001,-2.94,-33.740002,1729431518566.0,0.0
-4.35733,-6.228518,-7.700103,-35.349998,-15.54,-39.27,1729431518585.0,0.0
-2.885744,-3.39063,-8.181061,-18.83,-22.82,-54.110001,1729431518607.0,0.0
-1.646262,-1.119841,-10.435099,-11.62,-27.23,-51.029999,1729431518626.0,0.0
-1.395016,-0.571885,-10.693524,-9.1,-22.33,-29.4,1729431518645.0,0.0
-2.242075,0.165105,-11.667403,13.3,-11.76,-5.95,1729431518665.0,0.0
-0.145962,0.334995,-10.576276,61.810001,-1.47,31.01,1729431518685.0,0.0
-0.064606,-1.194018,-10.222138,45.639999,12.81,38.639999,1729431518706.0,0.0
-1.217947,-2.433501,-10.447062,11.2,18.129999,39.130001,1729431518731.0,0.0
-1.785046,-3.261417,-10.640882,-9.73,25.620001,37.52,1729431518746.0,0.0
-1.919044,-5.716454,-9.755538,-12.04,34.580002,38.920002,1729431518765.0,0.0
-2.493321,-7.412964,-8.432307,3.22,35.98,27.719999,1729431518785.0,0.0
-3.366701,-8.439486,-5.706882,3.22,28.07,6.37,1729431518807.0,0.0
-4.091727,-7.848458,-4.728218,-20.09,9.1,-21.139999,1729431518826.0,0.0
-5.156533,-6.419943,-5.879165,-48.790001,-9.24,-39.830002,1729431518911.0,0.0
-4.106083,-4.185047,-8.039884,-31.5,-20.09,-43.610001,1729431518916.0,0.0
-3.20399,-2.988636,-7.963314,-6.79,-23.52,-36.82,1729431518918.0,0.0
-0.519243,-2.09372,-10.202995,-4.55,-23.870001,-32.060001,1729431518918.0,0.0
-1.986043,-0.342174,-10.96152,15.26,-27.58,-9.38,1729431518926.0,0.0
-2.019542,0.844666,-11.227123,51.380001,-16.17,8.12,1729431518946.0,0.0
-0.354138,0.122034,-10.504492,63.139999,-5.81,29.190001,1729431518965.0,0.0
-0.043071,-0.861416,-10.853845,33.880001,1.26,33.32,1729431518985.0,0.0
-1.081556,-2.088934,-11.380265,5.18,5.81,33.529999,1729431519006.0,0.0
-1.328017,-5.07757,-10.748559,-18.549999,20.719999,37.869999,1729431519026.0,0.0
-2.510071,-5.912664,-9.274581,8.05,26.25,31.639999,1729431519045.0,0.0
-2.641676,-6.470192,-7.767102,8.12,27.790001,21.0,1729431519065.0,0.0
-3.505485,-8.379664,-6.898508,-18.83,23.66,2.8,1729431519085.0,0.0
-4.445865,-9.176475,-5.211568,-39.34,9.17,-24.01,1729431519109.0,0.0
-4.804788,-5.647062,-6.630512,-32.549999,-12.04,-42.349998,1729431519126.0,0.0
-3.371487,-4.331009,-7.814958,-17.92,-18.620001,-46.48,1729431519144.0,0.0
-2.612962,-2.232504,-8.903693,-16.66,-25.41,-44.59,1729431519165.0,0.0
-1.428515,-2.048256,-10.193424,-7.07,-24.43,-33.529999,1729431519184.0,0.0
-2.825923,-0.4666,-10.765309,15.33,-23.940001,-11.34,1729431519206.0,0.0
-1.777867,0.196211,-11.095518,42.84,-11.48,5.53,1729431519226.0,0.0
-0.693919,-0.284746,-10.047462,46.900002,-0.84,24.639999,1729431519245.0,0.0
0.289532,-1.418944,-10.624132,20.09,3.85,28.280001,1729431519266.0,0.0
-0.524028,-2.239682,-10.753345,-1.96,7.28,23.379999,1729431519285.0,0.0
-0.973879,-4.601398,-10.286745,-14.77,11.41,27.58,1729431519306.0,0.0
-1.624727,-5.898308,-10.052249,-13.79,20.93,18.549999,1729431519326.0,0.0
-2.397608,-5.424529,-9.504292,-3.29,23.799999,13.65,1729431519345.0,0.0
-3.194418,-7.9011,-6.946364,-8.12,26.18,4.34,1729431519365.0,0.0
-5.297709,-8.563912,-4.852644,-25.76,13.23,-18.200001,1729431519385.0,0.0
-5.218746,-6.513263,-6.101698,-27.58,-9.8,-39.759998,1729431519406.0,0.0
-3.754339,-3.65384,-8.260024,-19.809999,-18.549999,-50.470001,1729431519426.0,0.0
-2.340181,-2.641676,-9.810574,0.84,-20.440001,-41.860001,1729431519446.0,0.0
-1.12702,-1.433301,-10.061819,15.96,-17.290001,-32.060001,1729431519466.0,0.0
-2.880959,0.418744,-10.863414,36.82,-18.27,-6.3,1729431519486.0,0.0
-1.462015,0.564706,-10.975878,35.420002,-9.1,3.71,1729431519506.0,0.0
-0.583849,-0.440279,-11.298907,7.14,3.43,15.05,1729431519525.0,0.0
-0.253639,-2.455036,-11.313265,-5.25,12.11,16.940001,1729431519544.0,0.0
-0.014357,-3.254239,-10.746166,-1.12,16.66,11.13,1729431519564.0,0.0
-0.588634,-2.895315,-10.033106,2.59,22.75,12.46,1729431519585.0,0.0
-1.208375,-5.927022,-9.188439,-16.24,32.970001,8.12,1729431519605.0,0.0
-2.026721,-6.503692,-8.396415,5.95,31.5,10.5,1729431519625.0,0.0
-2.402394,-7.676175,-7.477571,2.59,31.08,-9.8,1729431519645.0,0.0
-2.24686,-6.113662,-7.549356,8.75,19.389999,-15.75,1729431519665.0,0.0
-4.955536,-4.45065,-4.220939,1.89,12.11,-19.74,1729431519684.0,0.0
-6.283553,-4.048656,-5.130211,-31.5,-16.309999,-23.870001,1729431519706.0,0.0
-3.266203,-4.192225,-10.133603,-34.580002,-20.790001,-19.6,1729431519730.0,0.0
-0.949951,-2.533999,-10.516455,-15.82,-22.4,-17.780001,1729431519745.0,0.0
-3.065206,-0.485743,-10.274779,25.549999,-21.07,-0.42,1729431519766.0,0.0
-2.270789,-0.318245,-10.231709,51.099998,-16.940001,12.53,1729431519785.0,0.0
-1.196411,-0.878166,-10.205389,25.76,-6.58,22.960001,1729431519806.0,0.0
-0.174676,-2.225325,-10.875379,-12.6,1.75,21.98,1729431519826.0,0.0
-0.248854,-3.756732,-11.291731,-12.6,4.2,17.780001,1729431519844.0,0.0
-0.332602,-3.811767,-10.143176,-3.22,6.02,15.61,1729431519864.0,0.0
-0.928415,-4.39083,-9.556933,-14.7,12.88,9.38,1729431519885.0,0.0
-1.208375,-7.860423,-8.84148,-30.17,20.16,3.78,1729431519907.0,0.0
-2.22054,-6.314659,-9.38465,-16.1,15.33,-8.68,1729431519926.0,0.0
-2.249253,-7.657032,-8.140383,-9.66,16.379999,-16.870001,1729431519945.0,0.0
-2.177469,-5.493921,-8.781659,10.71,7.0,-21.210001,1729431519964.0,0.0
-5.039285,-4.405186,-5.082355,-1.05,-0.84,-27.58,1729431519985.0,0.0
-4.474578,-3.639483,-6.144768,-8.75,-16.870001,-26.389999,1729431520006.0,0.0
-2.67039,-3.48395,-11.973685,1.82,-18.549999,-17.15,1729431520025.0,0.0
-1.485943,-1.205983,-11.810973,35.91,-12.67,-10.43,1729431520044.0,0.0
-2.971886,-1.069592,-11.547763,86.239998,0.84,18.34,1729431520064.0,0.0
-1.823331,-1.184447,-9.020942,117.879997,12.39,23.24,1729431520084.0,0.0
-0.607777,-1.304088,-9.475577,80.5,16.73,22.469999,1729431520105.0,0.0
-0.267996,-2.912065,-9.815358,23.309999,19.950001,15.33,1729431520125.0,0.0
-0.332602,-4.414758,-8.99462,4.97,19.18,9.59,1729431520144.0,0.0
-0.485743,-6.396015,-7.99442,-10.5,20.440001,5.81,1729431520164.0,0.0
-1.184447,-9.233903,-6.865008,-8.82,16.52,-11.83,1729431520184.0,0.0
-1.418944,-8.882158,-7.877172,-26.32,9.66,-36.470001,1729431520205.0,0.0
-1.29691,-6.89133,-8.618947,-25.200001,-0.77,-45.779999,1729431520225.0,0.0
-2.842674,-4.599005,-5.374279,-17.85,-2.38,-42.209999,1729431520244.0,0.0
-4.21376,-3.948158,-4.682754,-7.0,-22.33,-32.060001,1729431520264.0,0.0
-4.476971,-3.491128,-7.470392,-33.880001,-35.07,-27.299999,1729431520284.0,0.0
-2.550749,-3.249453,-10.51167,-33.32,-31.15,-17.99,1729431520306.0,0.0
-1.182054,-1.56012,-11.306087,-9.73,-21.91,-4.27,1729431520325.0,0.0
-2.634498,-0.717847,-10.15514,59.290001,-9.17,27.09,1729431520344.0,0.0
-0.51685,-0.976272,-8.609376,68.110001,3.22,34.93,1729431520364.0,0.0
-0.229711,-2.854637,-10.19821,1.19,4.76,26.74,1729431520384.0,0.0
-0.337388,-4.558327,-9.875179,-43.82,7.91,15.47,1729431520406.0,0.0
-0.535992,-5.606383,-9.332008,-22.960001,4.9,13.37,1729431520425.0,0.0
-0.985843,-7.113862,-8.800802,-10.22,7.77,6.86,1729431520444.0,0.0
-1.22034,-6.630512,-8.757731,-12.95,10.78,-5.18,1729431520464.0,0.0
-1.828116,-7.659425,-8.477771,-21.210001,9.1,-11.34,1729431520484.0,0.0
-2.431108,-8.159525,-6.69751,-28.49,5.46,-24.5,1729431520506.0,0.0
-3.584448,-6.625726,-5.381458,-8.19,-14.84,-32.900002,1729431520525.0,0.0
-4.261617,-3.95055,-4.890929,-21.84,-37.029999,-36.049999,1729431520544.0,0.0
-3.931407,-3.287738,-9.379865,-44.170002,-40.389999,-33.880001,1729431520564.0,0.0
-1.574477,-3.376273,-12.134004,-37.099998,-31.43,-21.700001,1729431520585.0,0.0
-3.194418,-0.988236,-12.15554,27.51,-23.66,3.29,1729431520606.0,0.0
-2.95035,-0.12682,-11.535798,105.349998,-7.21,25.83,1729431520625.0,0.0
-1.454836,-0.366102,-9.427721,100.519997,2.59,29.68,1729431520644.0,0.0
-0.937986,-1.531406,-10.655239,15.47,9.8,24.43,1729431520664.0,0.0
-0.969093,-4.819145,-10.212566,-33.880001,17.5,16.870001,1729431520684.0,0.0
-1.462015,-6.108876,-8.870193,21.42,11.76,18.48,1729431520705.0,0.0
-1.718047,-6.65444,-8.116454,10.57,21.49,7.49,1729431520729.0,0.0
-1.440479,-9.293723,-7.776673,-6.58,23.379999,-3.85,1729431520744.0,0.0
-1.87358,-9.856036,-6.750153,1.54,15.68,-19.67,1729431520764.0,0.0
-2.955136,-5.032106,-4.331009,2.24,-0.42,-34.860001,1729431520785.0,0.0
-4.225725,-4.479364,-3.622734,10.78,-18.129999,-25.76,1729431520805.0,0.0
-4.577469,-3.723232,-7.121039,-5.04,-31.5,-25.549999,1729431520825.0,0.0
-3.962514,-2.813959,-10.38485,-11.62,-33.389999,-16.73,1729431520844.0,0.0
-2.998207,-1.330409,-11.85165,-21.84,-24.710001,-6.58,1729431520864.0,0.0
-3.031706,0.236889,-11.619547,-5.18,-9.94,16.24,1729431520884.0,0.0
-2.426322,-1.95015,-10.892128,26.880001,6.65,29.889999,1729431520907.0,0.0
-1.85683,-2.019542,-11.066804,15.61,15.12,21.139999,1729431520926.0,0.0
-1.741975,-2.462214,-10.693524,-13.16,21.84,17.99,1729431520944.0,0.0
-1.383051,-3.931407,-11.148161,-23.870001,26.6,18.200001,1729431520966.0,0.0
-1.177269,-4.0008,-11.753544,-4.76,34.16,19.32,1729431520984.0,0.0
-2.45025,-8.188239,-8.250452,55.23,40.950001,29.049999,1729431521005.0,0.0
-1.564906,-2.471786,-9.98525,70.07,42.07,18.76,1729431521025.0,0.0
-1.655833,-9.920642,-7.042077,56.77,50.959999,22.049999,1729431521044.0,0.0
-1.691726,-7.21436,-8.477771,96.739998,46.689999,9.94,1729431521065.0,0.0
-3.074777,-11.437693,-5.273781,147.0,45.009998,10.43,1729431521084.0,0.0
-7.826923,-9.492328,-2.261217,168.279999,39.759998,-18.200001,1729431521109.0,0.0
-5.225924,-2.845066,-8.398808,165.059998,6.37,-12.25,1729431521124.0,0.0
-0.445065,-3.17049,-8.410772,89.669998,7.56,8.82,1729431521144.0,0.0
-0.811167,-4.876573,-10.059426,23.52,40.040001,13.440001,1729431521164.0,0.0
-3.113062,-8.066205,-12.753745,41.790001,65.590004,37.450001,1729431521184.0,0.0
-1.79701,-8.233703,-12.684352,142.449997,80.080002,43.610001,1729431521205.0,0.0
-0.028714,-6.281159,-5.580062,231.070007,95.900002,49.98,1729431521224.0,0.0
-1.414158,-4.510471,-3.227918,186.759995,104.650002,39.759998,1729431521245.0,0.0
-1.488336,-7.477571,-0.20339,105.07,79.870003,22.540001,1729431521266.0,0.0
0.449851,-8.812766,3.68734,51.939999,56.630001,8.26,1729431521284.0,0.0
1.651048,-10.121639,4.338188,57.400002,10.57,8.54,1729431521305.0,0.0
1.59362,-7.795816,0.856631,16.870001,-33.740002,-6.58,1729431521325.0,0.0
-1.004985,-6.360123,-3.574877,-70.139999,-55.369999,-14.28,1729431521345.0,0.0
2.117648,-4.886144,-7.927422,-140.210007,-79.800003,-10.5,1729431521364.0,0.0
4.713861,-8.109276,-9.963714,-165.899994,-109.199997,-28.559999,1729431521384.0,0.0
0.318245,-8.504091,-11.897114,-98.07,-74.340004,-9.94,1729431521405.0,0.0
-5.625526,-10.432706,-13.177275,-9.38,-33.529999,7.07,1729431521424.0,0.0
-10.693524,-12.794422,-11.679367,17.15,35.700001,-1.19,1729431521446.0,0.0
-7.523034,-14.52204,-10.652846,9.87,35.490002,-34.93,1729431521463.0,0.0
-1.701297,-10.516455,-9.812965,50.330002,10.01,-43.400002,1729431521484.0,0.0
0.323031,-5.592027,-6.795617,176.680008,47.110001,-17.08,1729431521506.0,0.0
0.019143,-3.5007,-0.624527,174.369995,83.440002,9.73,1729431521524.0,0.0
-0.849452,-5.230711,3.302095,101.919998,59.360001,8.26,1729431521543.0,0.0
0.940379,-6.319445,0.538385,33.040001,9.24,-12.39,1729431521564.0,0.0
2.65364,-4.307081,-2.129612,-64.050003,-23.450001,-14.0,1729431521584.0,0.0
1.990828,-5.276174,-6.202196,-108.080002,-32.619999,-14.07,1729431521605.0,0.0
0.200997,-6.326623,-6.199803,-82.809998,-33.810001,-12.11,1729431521625.0,0.0
-1.45005,-5.541777,-6.209375,-57.540001,-47.810001,-10.01,1729431521643.0,0.0
-1.775474,-3.089134,-7.685746,-71.889999,-71.540001,-8.26,1729431521664.0,0.0
-2.569891,-6.9009,-10.502099,-108.010002,-73.849998,4.06,1729431521684.0,0.0
-6.678369,-13.414164,-12.559926,-78.050003,17.780001,2.17,1729431521705.0,0.0
-4.156333,-12.96192,-12.253645,6.44,13.93,9.24,1729431521727.0,0.0
-1.643869,-9.176475,-8.006385,161.350006,30.380001,14.42,1729431521744.0,0.0
-1.919044,-4.34058,-6.508478,171.080002,71.470001,35.630001,1729431521764.0,0.0
-1.78026,-5.264209,0.382852,76.860001,72.870003,23.309999,1729431521784.0,0.0
-0.935594,-10.849058,-0.081356,13.79,38.5,-2.94,1729431521805.0,0.0
1.194018,-7.401,-2.172683,-13.440001,-4.62,-15.61,1729431521824.0,0.0
1.768296,-5.309673,-5.716454,-41.650002,-13.23,-13.37,1729431521844.0,0.0
1.622334,-5.627919,-6.898508,-73.360001,-10.36,-12.53,1729431521864.0,0.0
0.071785,-6.599405,-6.206983,-7.35,-9.52,-1.96,1729431521884.0,0.0
-1.536192,-4.642076,-3.905087,20.790001,-21.559999,4.13,1729431521904.0,0.0
-2.249253,-4.125226,-4.706682,-54.599998,-46.549999,0.56,1729431521935.0,0.0
-0.918844,-7.489535,-12.25843,-128.100006,-59.849998,-7.14,1729431521944.0,0.0
-2.792424,-12.289536,-8.767302,-123.129997,-31.360001,6.02,1729431521963.0,0.0
-7.097112,-15.558132,-10.143176,-4.27,19.110001,3.22,1729431521984.0,0.0
-4.328616,-12.516854,-14.416756,63.98,6.16,-8.19,1729431522004.0,0.0
-1.787439,-6.690332,-10.147961,184.240005,28.91,1.47,1729431522024.0,0.0
-2.244468,-6.412765,-3.285345,173.110001,89.110001,7.84,1729431522044.0,0.0
-1.469193,-8.16431,3.45045,132.300003,67.059998,-2.1,1729431522063.0,0.0
0.42353,-9.040084,-0.459422,60.549999,26.67,-17.290001,1729431522083.0,0.0
2.232504,-5.60399,-2.921637,25.129999,-4.62,-32.41,1729431522105.0,0.0
0.777667,-4.197011,-4.017549,-0.84,7.42,-8.26,1729431522124.0,0.0
-0.90688,-3.823731,-3.34038,-31.639999,10.64,3.71,1729431522143.0,0.0
-1.256232,-5.570491,-2.773281,-36.259998,-15.4,15.33,1729431522163.0,0.0
-0.734596,-5.084748,-3.629912,-109.199997,-49.700001,8.47,1729431522184.0,0.0
-0.473779,-7.745567,-8.078169,-217.419998,-69.860001,-14.56,1729431522204.0,0.0
-0.914058,-10.236496,-10.837094,-206.080002,-64.75,-23.66,1729431522226.0,0.0
-3.713661,-12.981063,-9.332008,-62.02,-21.07,-5.74,1729431522243.0,0.0
-5.627919,-12.205789,-8.88455,60.200001,4.27,8.33,1729431522263.0,0.0
-1.919044,-8.630912,-9.040084,66.5,-5.39,3.99,1729431522284.0,0.0
0.22014,-8.49452,-7.432107,92.400002,14.28,13.58,1729431522304.0,0.0
-1.840081,-8.063812,-2.557927,122.919998,48.02,23.59,1729431522324.0,0.0
-2.9336,-8.118847,-0.916451,93.519997,36.259998,17.57,1729431522344.0,0.0
-0.646062,-5.103891,-2.141576,47.18,-1.82,3.64,1729431522363.0,0.0
-0.323031,-4.850252,-6.733403,-108.989998,-14.98,-6.86,1729431522384.0,0.0
-0.648455,-9.542577,-8.992228,-168.839996,1.54,-17.99,1729431522405.0,0.0
-0.174676,-10.954341,-8.886944,-139.580002,-10.92,-35.560001,1729431522423.0,0.0
0.435494,-9.176475,-5.486742,-54.459999,-23.799999,-50.75,1729431522443.0,0.0
0.540778,-6.135197,-6.209375,-83.860001,-40.810001,-80.639999,1729431522463.0,0.0
1.244268,-4.424329,-7.030113,-164.149994,-43.400002,-93.660004,1729431522483.0,0.0
1.007378,-3.775874,-7.704889,-149.520004,-36.330002,-71.75,1729431522506.0,0.0
0.401994,-6.486942,-9.351151,-95.690002,-31.780001,-40.32,1729431522525.0,0.0
-1.217947,-7.389036,-8.831908,-4.13,-0.56,-17.780001,1729431522543.0,0.0
-1.198804,-5.046463,-9.288938,170.380005,3.08,21.42,1729431522564.0,0.0
-0.40678,-1.301696,-9.954143,275.940002,-14.49,63.139999,1729431522584.0,0.0
-2.397608,-7.099504,-3.582055,224.279999,17.85,75.529999,1729431522604.0,0.0
-4.589434,-5.541777,-4.778467,127.68,31.43,57.540001,1729431522625.0,0.0
-7.209574,-13.332808,-5.398208,37.240002,13.86,72.239998,1729431522643.0,0.0
-2.304288,-14.567505,-0.595813,-180.039993,27.440001,-15.190001,1729431522664.0,0.0
-0.071785,-16.05584,-1.471586,-153.930008,9.8,-21.49,1729431522683.0,0.0
-1.074377,-8.152347,-2.282753,43.68,-14.14,-33.110001,1729431522705.0,0.0
-4.304688,-4.862216,-2.210968,71.400002,-12.32,-9.52,1729431522727.0,0.0
-1.959722,-3.723232,-5.977271,-108.919998,-30.380001,-18.129999,1729431522743.0,0.0
-2.696711,-5.072784,-8.037491,-281.470001,-38.709999,-35.84,1729431522763.0,0.0
-0.334995,-3.046063,-9.678967,-365.26001,-51.939999,-57.610001,1729431522784.0,0.0
-4.007978,-2.979064,-8.800802,-285.459991,-49.560001,-40.040001,1729431522805.0,0.0
-3.897908,-2.270789,-12.246466,-72.239998,-46.619999,-35.560001,1729431522824.0,0.0
-2.24686,1.947758,-12.083755,68.389999,-33.389999,17.92,1729431522843.0,0.0
-1.485943,1.217947,-9.152546,18.620001,-6.37,43.889999,1729431522863.0,0.0
-0.995414,-2.868994,-14.184652,-121.239998,14.42,44.869999,1729431522883.0,0.0
-1.911865,-4.476971,-16.97229,-80.080002,38.57,64.470001,1729431522904.0,0.0
-0.038285,-3.897908,-13.8688,78.540001,67.830002,98.07,1729431522924.0,0.0
-0.792024,-6.453443,-9.504292,127.82,91.139999,107.730003,1729431522947.0,0.0
-3.622734,-7.123433,6.721439,75.040001,82.040001,75.110001,1729431522966.0,0.0
-1.232304,-13.653446,-2.048256,-123.760002,37.450001,19.6,1729431522983.0,0.0
-1.512264,-18.561125,-5.730811,-141.190002,18.549999,-37.66,1729431523005.0,0.0
-1.727618,-9.894321,-8.504091,13.93,-11.48,-44.59,1729431523024.0,0.0
1.055235,-5.17089,-5.300103,88.620003,-35.279999,-63.490002,1729431523044.0,0.0
0.571885,-2.986243,-7.077969,-0.84,-57.75,-70.980003,1729431523063.0,0.0
-4.766503,-5.606383,-10.095319,-128.169998,-65.870003,-91.980003,1729431523084.0,0.0
-5.546563,-6.4678,-11.308479,-143.360001,-60.830002,-114.169998,1729431523108.0,0.0
-4.809574,-0.866202,-13.167704,-17.780001,-56.91,-88.690002,1729431523124.0,0.0
-3.668197,1.773082,-14.333008,77.559998,-28.77,-43.400002,1729431523143.0,0.0
-2.605784,2.734996,-12.361321,116.760002,5.18,11.69,1729431523163.0,0.0
-2.402394,1.397408,-8.496914,110.32,22.82,52.43,1729431523183.0,0.0
-2.163112,-0.758525,-10.057034,79.730003,22.610001,58.240002,1729431523203.0,0.0
-1.627119,-3.182454,-11.375479,20.299999,37.029999,59.220001,1729431523223.0,0.0
0.4666,-5.615955,-9.193225,-10.92,53.200001,57.540001,1729431523243.0,0.0
1.421337,-8.224132,-8.073383,9.66,57.889999,54.810001,1729431523263.0,0.0
1.677369,-9.109475,-7.23111,54.32,50.540001,39.130001,1729431523284.0,0.0
-0.672383,-9.128618,-2.120041,86.239998,36.049999,19.879999,1729431523304.0,0.0
-3.084348,-7.446464,-1.641476,20.860001,-7.21,-23.450001,1729431523323.0,0.0
-4.632504,-7.077969,-4.197011,-88.550003,-38.360001,-49.630001,1729431523343.0,0.0
-2.464607,-8.865408,-7.398607,-134.050003,-43.959999,-63.98,1729431523363.0,0.0
-1.904687,-4.922036,-8.176274,-108.150002,-57.189999,-81.830002,1729431523383.0,0.0
-3.242275,-1.234696,-10.226924,-95.199997,-49.84,-55.720001,1729431523415.0,0.0
-4.567898,-3.046063,-13.301701,17.639999,-27.93,-2.17,1729431523423.0,0.0
-2.402394,-1.378266,-11.894722,104.019997,-8.82,17.99,1729431523444.0,0.0
-1.421337,-1.68694,-10.083356,110.389999,8.68,49.279999,1729431523463.0,0.0
-0.509671,-1.51705,-10.396815,56.279999,18.41,39.619999,1729431523483.0,0.0
-0.57667,-3.517449,-9.894321,23.450001,25.620001,43.330002,1729431523504.0,0.0
-0.248854,-6.45105,-7.99442,39.130001,25.34,45.57,1729431523523.0,0.0
-1.411765,-7.750352,-5.297709,52.779999,20.09,29.960001,1729431523550.0,0.0
-3.096312,-6.132804,-5.012963,7.91,9.31,8.05,1729431523562.0,0.0
-2.495714,-7.030113,-6.039484,-69.790001,-1.47,-6.86,1729431523584.0,0.0
-2.445465,-8.975478,-6.778866,-121.029999,-7.56,-26.67,1729431523606.0,0.0
-2.976671,-8.46102,-7.568498,-90.860001,-18.9,-37.52,1729431523624.0,0.0
-2.505285,-5.28096,-8.274381,-41.93,-34.580002,-37.029999,1729431523643.0,0.0
-2.644069,-3.773481,-8.683553,-10.08,-34.369999,-29.190001,1729431523663.0,0.0
-1.828116,-2.995814,-9.810574,-1.4,-27.65,-19.25,1729431523683.0,0.0
-1.883151,-3.074777,-11.215159,-2.94,-12.6,-2.94,1729431523705.0,0.0
-2.277967,-3.460021,-11.832507,43.68,-1.68,11.34,1729431523728.0,0.0
-1.454836,-3.378666,-10.882557,98.07,12.25,17.15,1729431523743.0,0.0
-0.655633,-2.976671,-9.693325,92.540001,17.99,20.58,1729431523763.0,0.0
-0.392423,-3.95055,-9.152546,42.98,24.360001,10.43,1729431523784.0,0.0
-0.519243,-4.95075,-8.65484,22.120001,23.24,9.17,1729431523804.0,0.0
-1.229911,-5.735595,-7.858029,18.76,20.51,5.18,1729431523825.0,0.0
-1.988436,-7.118648,-7.37468,4.27,21.49,1.33,1729431523899.0,0.0
-1.859223,-6.290731,-7.826923,-14.63,17.15,-6.86,1729431523899.0,0.0
-1.782653,-6.896115,-7.300502,-19.530001,13.440001,-2.03,1729431523899.0,0.0
-3.23031,-7.874779,-4.991428,-32.900002,10.99,-14.07,1729431523909.0,0.0
-4.347759,-5.312066,-5.175675,-65.940002,-8.54,-24.99,1729431523937.0,0.0
-3.804588,-6.082555,-8.480164,-75.32,-22.469999,-26.040001,1729431523945.0,0.0
-2.333002,-7.463214,-8.750552,-50.330002,-15.33,-29.75,1729431523964.0,0.0
-2.012364,-3.795017,-8.745767,-50.330002,-23.379999,-22.33,1729431523984.0,0.0
-1.629512,-2.529213,-10.272388,12.95,-7.14,-8.4,1729431524005.0,0.0
-1.622334,-3.402594,-10.406385,54.32,1.4,13.58,1729431524025.0,0.0
-0.509671,-2.502892,-9.348758,55.16,6.58,10.71,1729431524045.0,0.0
-0.270389,-3.601198,-9.363115,8.05,10.22,12.81,1729431524066.0,0.0
-0.447458,-4.651647,-9.482756,-20.93,12.11,5.81,1729431524086.0,0.0
-0.981057,-5.943772,-8.738588,-22.889999,12.46,5.18,1729431524113.0,0.0
-1.282553,-6.98465,-8.398808,-14.77,15.47,-0.35,1729431524126.0,0.0
-1.998007,-7.267002,-7.616355,-8.89,13.79,-7.07,1729431524145.0,0.0
-2.151148,-5.687739,-7.925028,-1.82,10.29,-6.37,1729431524165.0,0.0
-3.773481,-5.855237,-5.082355,-13.51,7.28,-7.98,1729431524184.0,0.0
-4.275974,-5.836094,-6.218946,-29.469999,-9.24,-15.33,1729431524206.0,0.0
-3.668197,-5.618347,-7.826923,-44.240002,-16.24,-18.129999,1729431524226.0,0.0
-2.770889,-5.900701,-9.080762,-13.79,-17.639999,-16.379999,1729431524245.0,0.0
-1.734797,-4.898108,-11.085947,34.369999,-15.4,-13.58,1729431524278.0,0.0
-2.397608,-3.199204,-11.219944,84.489998,-4.76,1.4,1729431524288.0,0.0
-1.672583,-3.06042,-9.659825,122.57,11.69,11.83,1729431524305.0,0.0
-0.579063,-3.079563,-8.647661,81.480003,15.89,10.71,1729431524326.0,0.0
-0.265603,-4.910072,-9.724431,14.91,19.67,2.87,1729431524345.0,0.0
-0.562313,-5.647062,-9.686146,-11.48,23.73,-2.73,1729431524365.0,0.0
-0.942772,-5.642276,-8.530413,4.41,21.91,-3.78,1729431524386.0,0.0
-1.162912,-6.075377,-7.673782,-6.65,27.719999,-5.11,1729431524406.0,0.0
-0.756132,-7.51107,-6.707082,-18.83,26.809999,-11.34,1729431524425.0,0.0
-1.363909,-7.534998,-6.183054,-13.93,22.540001,-9.1,1729431524445.0,0.0
-3.371487,-6.955935,-4.316652,-24.780001,12.81,-15.47,1729431524464.0,0.0
-3.845266,-6.84108,-4.991428,-48.09,-9.45,-24.43,1729431524485.0,0.0
-3.972085,-7.568498,-9.073583,-57.959999,-10.5,-25.690001,1729431524506.0,0.0
-3.184847,-6.963113,-8.556733,-2.59,-6.93,-18.690001,1729431524526.0,0.0
-0.985843,-3.921836,-7.54457,37.73,-20.65,-11.48,1729431524544.0,0.0
-0.457029,-1.823331,-8.578269,13.72,-17.780001,-5.6,1729431524565.0,0.0
-0.933201,-4.048656,-10.267602,-6.58,-1.61,3.43,1729431524608.0,0.0
-0.356531,-4.969893,-10.389636,8.96,6.51,4.41,1729431524611.0,0.0
0.349352,-3.991228,-9.23151,43.889999,6.51,7.84,1729431524665.0,0.0
-0.133998,-4.316652,-8.590233,25.620001,11.55,3.85,1729431524665.0,0.0
-0.772882,-5.190032,-8.128418,-17.710001,14.98,-1.89,1729431524665.0,0.0
-0.952343,-6.809973,-8.410772,-40.459999,19.110001,-2.24,1729431524684.0,0.0
-0.964308,-8.403593,-7.850852,-27.790001,15.96,-8.19,1729431524706.0,0.0
-1.294517,-6.668797,-8.181061,-5.74,11.9,-5.18,1729431524734.0,0.0
-3.395415,-6.398407,-4.039084,-8.4,8.61,-4.55,1729431524745.0,0.0
-4.644469,-6.65444,-5.589634,-23.450001,-3.99,-14.49,1729431524763.0,0.0
-3.615555,-6.321837,-8.451449,-44.310001,-16.17,-15.4,1729431524784.0,0.0
-1.942972,-6.738188,-9.449257,-24.85,-15.33,-16.450001,1729431524805.0,0.0
-0.976272,-6.266802,-11.131411,33.25,-12.04,-15.54,1729431524824.0,0.0
-0.693919,-3.852444,-9.97807,93.239998,-5.88,-7.63,1729431524843.0,0.0
-1.17009,-3.943372,-9.315259,133.770004,3.29,5.04,1729431524864.0,0.0
0.212961,-2.194218,-8.286345,76.510002,7.7,-2.38,1729431524883.0,0.0
0.787239,-4.807181,-8.398808,7.0,12.32,3.5,1729431524904.0,0.0
0.653241,-6.197411,-9.202796,-37.799999,17.5,-10.5,1729431524924.0,0.0
-0.153141,-6.585048,-8.62134,-23.66,19.950001,-5.18,1729431524943.0,0.0
-0.495314,-6.76451,-7.618747,-2.87,17.5,-9.03,1729431524963.0,0.0
-0.997807,-6.941578,-6.814759,-14.21,20.09,-11.27,1729431524983.0,0.0
-1.198804,-7.503892,-5.63749,-24.639999,12.74,-12.32,1729431525004.0,0.0
-2.299503,-6.757331,-3.76391,-36.82,-1.05,-15.82,1729431525024.0,0.0
-3.675375,-5.819345,-4.630112,-68.389999,-17.92,-22.190001,1729431525043.0,0.0
-3.292524,-4.993821,-7.944171,-96.459999,-31.15,-21.35,1729431525063.0,0.0
-1.277767,-5.369494,-9.853643,-91.07,-32.830002,-16.73,1729431525084.0,0.0
-0.200997,-5.173282,-10.772489,-51.380001,-25.969999,-9.52,1729431525108.0,0.0
-2.39043,-3.74716,-9.609575,1.68,-14.42,4.41,1729431525124.0,0.0
-2.227718,-2.854637,-9.887143,49.0,-10.29,10.57,1729431525143.0,0.0
-0.265603,-2.316252,-9.353544,49.77,-7.35,17.219999,1729431525163.0,0.0
0.602991,-3.393023,-9.32483,7.98,-1.61,18.48,1729431525183.0,0.0
0.327817,-3.869194,-9.992428,-40.32,3.36,9.1,1729431525204.0,0.0
-0.638884,-5.139783,-10.080962,-37.450001,5.88,11.48,1729431525224.0,0.0
-0.667598,-5.288138,-9.394222,-25.41,8.54,7.42,1729431525243.0,0.0
-0.5001,-5.728417,-9.23151,-18.690001,12.88,6.93,1729431525263.0,0.0
-0.701097,-6.331409,-8.13799,-16.24,15.54,4.62,1729431525284.0,0.0
-1.603191,-7.168896,-6.15434,-12.81,9.17,-3.22,1729431525305.0,0.0
-3.579663,-6.826723,-5.058427,-26.6,-3.78,-15.47,1729431525326.0,0.0
-4.165904,-5.802595,-6.896115,-40.040001,-17.290001,-24.08,1729431525344.0,0.0
-3.101098,-5.491528,-9.341579,-20.93,-24.219999,-19.809999,1729431525365.0,0.0
-1.182054,-4.584648,-9.683753,9.59,-21.559999,-17.290001,1729431525384.0,0.0
-1.792224,-2.617748,-9.286544,32.48,-19.110001,-7.98,1729431525407.0,0.0
-2.337788,-3.318845,-9.473185,48.299999,-8.61,-0.49,1729431525424.0,0.0
-0.861416,-2.443072,-10.246067,67.690002,-6.93,7.7,1729431525445.0,0.0
0.241675,-2.9336,-10.004392,69.790001,-1.61,15.68,1729431525464.0,0.0
0.768096,-3.316452,-9.734003,28.42,3.92,10.92,1729431525483.0,0.0
0.382852,-4.307081,-9.726824,-7.63,7.49,6.44,1729431525505.0,0.0
-0.043071,-4.893322,-9.499505,-25.27,11.27,3.99,1729431525525.0,0.0
-0.07657,-6.486942,-9.01137,-21.42,12.74,1.47,1729431525544.0,0.0
-0.753739,-7.896315,-8.26481,-12.39,20.370001,-1.19,1729431525563.0,0.0
-2.086541,-9.262616,-6.814759,2.73,16.66,-12.18,1729431525591.0,0.0
-3.254239,-8.145168,-5.960521,10.01,6.79,-23.309999,1729431525610.0,0.0
-3.885944,-5.242674,-5.668597,10.36,-8.19,-26.25,1729431525629.0,0.0
-3.491128,-4.733003,-8.054241,7.14,-17.43,-12.25,1729431525646.0,0.0
-2.431108,-3.850052,-9.4349,35.0,-14.91,5.67,1729431525665.0,0.0
-1.292124,-3.062813,-10.140782,52.639999,-12.53,21.84,1729431525685.0,0.0
-0.957129,-4.381258,-8.946764,65.940002,-5.67,24.43,1729431525708.0,0.0
-1.363909,-4.697111,-10.064213,69.580002,0.7,25.48,1729431525728.0,0.0
-1.165305,-4.776074,-9.128618,69.440002,2.45,18.620001,1729431525745.0,0.0
-0.875773,-5.584848,-8.805587,43.049999,5.95,9.94,1729431525774.0,0.0
-0.430708,-6.960721,-9.420543,27.02,5.6,-1.96,1729431525785.0,0.0
-0.70349,-7.37468,-9.896714,23.870001,7.98,-11.55,1729431525806.0,0.0
-1.232304,-7.312466,-10.387242,58.66,17.92,-15.33,1729431525827.0,0.0
-1.368695,-7.496714,-9.829715,123.129997,27.299999,-8.96,1729431525844.0,0.0
-1.282553,-6.786045,-8.85105,192.080002,39.619999,1.82,1729431525866.0,0.0
-1.366302,-6.472585,-7.941778,231.699997,51.66,13.58,1729431525886.0,0.0
-1.402194,-6.240481,-6.228518,235.830002,61.599998,24.85,1729431525910.0,0.0
-1.840081,-7.51107,-5.551349,226.800003,69.650002,32.970001,1729431525926.0,0.0
-1.622334,-7.910671,-5.000999,201.740005,75.32,32.27,1729431525946.0,0.0
-1.512264,-7.037291,-4.285545,151.199997,86.590004,24.639999,1729431525966.0,0.0
-2.074577,-8.214561,-3.87398,108.080002,93.519997,22.610001,1729431525985.0,0.0
-2.342573,-10.923235,-4.398008,86.660004,87.220001,12.88,1729431526007.0,0.0
-2.354537,-13.002598,-1.253839,127.470001,65.940002,2.8,1729431526026.0,0.0
-2.974278,-11.863614,10.07139,195.440002,31.15,-8.54,1729431526044.0,0.0
-2.06022,-6.740582,5.45085,92.050003,6.58,-27.440001,1729431526068.0,0.0
-0.859023,-4.766503,0.708275,-42.209999,-36.540001,-34.23,1729431526086.0,0.0
1.031307,-7.869993,-3.010171,-121.309998,-48.23,-36.68,1729431526107.0,0.0
1.330409,-10.320245,-5.082355,-108.290001,-31.99,-25.129999,1729431526129.0,0.0
0.361316,-9.540184,-3.105884,-10.22,-8.4,-7.07,1729431526146.0,0.0
-0.579063,-6.687939,-1.820938,29.82,-8.4,9.24,1729431526167.0,0.0
-0.567099,-5.991628,-1.249053,-17.5,-25.27,10.15,1729431526187.0,0.0
-0.849452,-7.788638,-1.794617,-108.779999,-37.73,7.0,1729431526209.0,0.0
-1.584049,-10.526026,-6.833901,-135.380005,-49.420002,9.66,1729431526232.0,0.0
-2.24686,-10.971091,-6.025128,-67.269997,-40.040001,19.389999,1729431526246.0,0.0
-2.754139,-12.251251,-7.391429,-11.06,-18.27,6.58,1729431526266.0,0.0
-1.160519,-11.619547,-7.190433,13.440001,-19.6,-1.33,1729431526286.0,0.0
-0.122034,-9.812965,-5.54417,25.41,-5.11,-1.75,1729431526313.0,0.0
-0.887737,-7.523034,-6.685547,-33.32,17.710001,-13.58,1729431526326.0,0.0
-1.641476,-10.112068,-7.144968,-16.940001,32.060001,-17.710001,1729431526345.0,0.0
-1.722832,-10.729417,-2.464607,7.07,45.57,-16.799999,1729431526366.0,0.0
-0.337388,-10.162319,0.275175,17.360001,18.690001,-32.970001,1729431526386.0,0.0
0.081356,-8.446664,-0.002393,37.52,1.19,-40.040001,1729431526408.0,0.0
-0.050249,-5.948557,-0.959522,-0.91,-16.66,-42.0,1729431526426.0,0.0
0.028714,-5.309673,-2.388037,-53.830002,-32.48,-39.130001,1729431526445.0,0.0
-0.227318,-6.843473,-2.182254,-93.730003,-41.09,-27.23,1729431526467.0,0.0
-0.244068,-7.300502,-2.818745,-121.870003,-53.200001,-25.200001,1729431526486.0,0.0
-0.129212,-6.898508,-4.151547,-160.649994,-64.82,-30.59,1729431526507.0,0.0
0.01675,-6.460621,-7.018148,-182.699997,-66.57,-24.08,1729431526528.0,0.0
-0.119641,-8.886944,-9.444471,-142.589996,-62.23,0.63,1729431526546.0,0.0
-0.811167,-8.863015,-9.98525,22.33,-17.219999,32.27,1729431526566.0,0.0
-3.359523,-8.834301,-7.290931,73.919998,8.47,53.970001,1729431526586.0,0.0
-5.161318,-9.868,-4.716253,15.05,24.219999,30.52,1729431526608.0,0.0
-3.239882,-10.892128,-7.487142,-71.120003,2.38,5.04,1729431526626.0,0.0
-0.880559,-9.037691,-6.202196,-16.030001,-9.59,2.03,1729431526645.0,0.0
-1.402194,-6.216553,-5.87438,-9.1,15.190001,7.49,1729431526665.0,0.0
-1.739582,-6.91765,-3.268596,-35.490002,9.73,-4.76,1729431526686.0,0.0
-1.11027,-7.427321,-3.18724,-87.709999,-7.56,-12.46,1729431526706.0,0.0
0.33021,-8.843873,-5.793024,-114.239998,-33.950001,-33.599998,1729431526729.0,0.0
0.586242,-7.649854,-6.805188,-88.970001,-41.509998,-38.709999,1729431526745.0,0.0
0.081356,-6.051448,-6.733403,-41.439999,-41.23,-31.5,1729431526765.0,0.0
-0.713061,-4.204189,-6.178268,-45.57,-37.73,-25.059999,1729431526786.0,0.0
-0.102891,-3.699304,-7.905886,-105.559998,-47.040001,-28.98,1729431526807.0,0.0
0.78006,-3.488736,-8.520842,-177.449997,-49.630001,-28.559999,1729431526826.0,0.0
-0.090927,-5.393422,-7.735995,-254.589996,-47.670002,-31.08,1729431526845.0,0.0
-1.418944,-6.673582,-12.41875,-235.759995,-27.440001,-34.23,1729431526865.0,0.0
-3.639483,-3.127419,-11.942577,-107.029999,-19.530001,-2.94,1729431526885.0,0.0
-1.9669,-2.921637,-10.820344,-24.43,-14.7,29.610001,1729431526908.0,0.0
-0.753739,-3.665804,-9.202796,-81.480003,2.1,18.549999,1729431526926.0,0.0
-1.775474,-3.385844,-9.934999,-62.580002,11.2,26.110001,1729431526944.0,0.0
-3.261417,-3.208775,-8.059027,-20.440001,1.4,36.119999,1729431526966.0,0.0
-3.651447,-2.24686,-11.882757,-74.970001,12.04,38.009998,1729431526984.0,0.0
-3.646662,-4.283153,-10.923235,-104.230003,24.85,38.5,1729431527009.0,0.0
-2.48375,-8.475377,-10.447062,-119.910004,42.0,29.33,1729431527026.0,0.0
0.01675,-10.820344,-9.24826,-85.959999,39.48,-2.24,1729431527044.0,0.0
1.581656,-6.525227,-12.181859,-26.32,32.549999,-34.09,1729431527064.0,0.0
1.971686,-3.531806,-6.273981,13.86,29.469999,-38.920002,1729431527086.0,0.0
-0.583849,-2.139183,-4.412365,63.98,12.6,-16.309999,1729431527118.0,0.0
-1.447658,-0.27996,-3.333202,97.860001,-5.39,-2.1,1729431527127.0,0.0
-0.631705,-2.641676,-4.948357,36.189999,-30.450001,-4.97,1729431527145.0,0.0
-0.22014,-1.265803,-8.343772,-48.369999,-51.099998,-13.58,1729431527165.0,0.0
1.978864,-2.612962,-10.040283,-112.629997,-53.41,-45.360001,1729431527184.0,0.0
0.514457,-2.998207,-11.684153,-79.730003,-65.099998,-36.259998,1729431527207.0,0.0
-3.342773,-0.129212,-11.234302,-57.049999,-56.279999,-25.200001,1729431527226.0,0.0
-5.462814,1.730011,-13.926227,20.719999,-54.740002,10.57,1729431527245.0,0.0
-6.867401,-3.148954,-14.091332,-41.790001,-22.540001,35.630001,1729431527266.0,0.0
-2.139183,-5.659025,-13.162917,-54.529999,10.71,36.259998,1729431527285.0,0.0
-4.17069,-3.079563,-14.311473,79.940002,7.0,42.139999,1729431527306.0,0.0
-5.307281,0.052642,-14.234902,151.270004,29.120001,43.189999,1729431527326.0,0.0
-3.919443,-1.751546,-10.447062,98.980003,68.040001,48.369999,1729431527345.0,0.0
-2.799603,-3.455236,-4.577469,62.02,77.209999,33.810001,1729431527365.0,0.0
-1.586441,-8.910872,-8.817552,41.439999,69.440002,13.58,1729431527386.0,0.0
-0.385244,-10.413565,-5.546563,56.700001,68.529999,-24.639999,1729431527407.0,0.0
-0.0335,-5.108676,-3.644269,98.209999,22.889999,-48.02,1729431527427.0,0.0
0.131605,-2.234896,-5.99402,17.43,0.77,-79.590004,1729431527446.0,0.0
-1.792224,-0.567099,-7.410572,-12.39,-16.940001,-64.050003,1729431527465.0,0.0
2.775674,-3.991228,-9.114261,-43.259998,-19.389999,-80.849998,1729431527486.0,0.0
1.832902,-3.007778,-9.29133,-9.03,-37.939999,-71.82,1729431527509.0,0.0
0.512064,0.835095,-9.178867,22.4,-42.349998,-63.0,1729431527526.0,0.0
0.842274,0.368495,-10.011569,22.75,-43.82,-26.6,1729431527545.0,0.0
-4.098906,-1.892723,-11.004591,-4.41,-22.540001,22.049999,1729431527565.0,0.0
-5.319244,-2.311467,-13.387842,-0.63,-4.97,40.459999,1729431527587.0,0.0
-4.45065,-2.632105,-13.196418,-3.15,13.51,50.889999,1729431527608.0,0.0
-3.235096,-5.556134,-12.784851,-16.030001,35.560001,52.920002,1729431527633.0,0.0
-1.871187,-7.317252,-10.803595,9.31,48.509998,41.860001,1729431527645.0,0.0
-0.976272,-7.250252,-7.609176,54.740002,47.25,30.940001,1729431527665.0,0.0
-1.519442,-5.936593,-4.87418,75.529999,36.959999,12.18,1729431527687.0,0.0
-1.835295,-5.419744,-4.87418,51.73,15.68,-4.13,1729431527706.0,0.0
-1.103091,-6.912865,-4.95075,-16.24,6.79,-32.200001,1729431527730.0,0.0
-1.545763,-4.510471,-6.819544,-39.689999,-12.95,-40.599998,1729431527745.0,0.0
-1.641476,-1.713261,-7.518249,-36.330002,-20.09,-40.040001,1729431527766.0,0.0
-0.521635,-1.574477,-7.386643,-3.15,-26.880001,-22.049999,1729431527786.0,0.0
0.602991,-3.431308,-10.332209,30.870001,-38.43,-4.27,1729431527808.0,0.0
-1.521835,1.732404,-9.616754,-34.23,-43.259998,-1.82,1729431527828.0,0.0
-2.199004,0.844666,-11.959327,-117.669998,-40.810001,20.299999,1729431527846.0,0.0
-0.646062,-5.67099,-17.202002,-123.900002,4.76,32.41,1729431527868.0,0.0
-2.232504,-4.61097,-13.186846,14.49,15.33,45.5,1729431527886.0,0.0
-2.938386,-4.716253,-7.688138,37.170002,25.83,35.77,1729431527911.0,0.0
-0.531207,-5.496314,-6.183054,-66.709999,26.809999,9.45,1729431527927.0,0.0
-1.368695,-7.910671,-8.578269,-116.690002,17.360001,-16.52,1729431527946.0,0.0
-3.395415,-9.317651,-11.803794,-36.049999,10.57,-30.940001,1729431527967.0,0.0
-3.134598,-7.872386,-11.447264,66.639999,11.55,-44.310001,1729431527989.0,0.0
-2.256432,-4.26401,-8.970692,87.010002,21.49,-62.510002,1729431528008.0,0.0
-0.598206,1.555335,-5.962914,51.59,10.78,-54.18,1729431528030.0,0.0
-0.122034,1.70369,-8.336594,-11.34,7.49,-45.639999,1729431528047.0,0.0
-1.902294,0.4666,-8.676375,-11.34,8.54,-11.48,1729431528067.0,0.0
-2.364109,1.112662,-8.147561,70.489998,-0.84,18.76,1729431528087.0,0.0
-0.244068,1.134198,-7.745567,30.380001,-8.05,22.049999,1729431528108.0,0.0
-0.138784,1.426122,-8.721838,-57.889999,-16.24,23.940001,1729431528130.0,0.0
0.141177,-1.751546,-11.353944,-126.07,-15.4,21.700001,1729431528147.0,0.0
-0.993021,-6.71426,-12.191431,-114.379997,-4.41,24.01,1729431528168.0,0.0
-2.036292,-5.462814,-9.446864,-21.42,-1.33,21.91,1729431528190.0,0.0
-0.653241,-4.503292,-8.437093,-40.880001,-2.31,9.03,1729431528209.0,0.0
-2.088934,-6.38405,-11.382657,-63.560001,6.37,-6.58,1729431528231.0,0.0
-2.912065,-6.936793,-12.220145,3.36,12.46,-13.37,1729431528249.0,0.0
-2.261217,-5.95095,-11.63869,65.590004,18.41,-20.65,1729431528270.0,0.0
-1.210768,-2.057827,-7.444071,70.419998,20.65,-29.33,1729431528291.0,0.0
-0.136391,0.291924,-7.520642,42.0,14.49,-24.15,1729431528311.0,0.0
-1.813759,-0.270389,-7.384251,11.83,7.42,-11.9,1729431528331.0,0.0
-3.335595,-0.299103,-7.094719,33.459999,-3.22,2.52,1729431528352.0,0.0
-2.866602,-0.40678,-7.32443,53.549999,-14.98,9.31,1729431528368.0,0.0
-0.480957,0.100499,-8.209774,6.93,-25.129999,-2.38,1729431528389.0,0.0
0.90688,0.31346,-9.408579,-74.410004,-32.970001,-13.72,1729431528412.0,0.0
0.90688,-1.854438,-12.01197,-131.529999,-28.139999,-16.379999,1729431528429.0,0.0
-0.217747,-4.567898,-13.909478,-110.739998,-14.91,-10.43,1729431528449.0,0.0
-1.31366,-3.706482,-12.112469,-14.42,-2.52,6.72,1729431528468.0,0.0
-0.459422,-3.744767,-11.959327,2.73,8.68,12.88,1729431528488.0,0.0
-1.507478,-4.488935,-11.952149,28.77,19.530001,15.47,1729431528511.0,0.0
-1.68694,-5.601598,-11.24866,77.349998,29.540001,15.26,1729431528530.0,0.0
-1.651048,-3.979264,-7.657032,112.840004,27.65,10.5,1729431528548.0,0.0
-1.598405,-1.875973,-6.525227,102.830002,21.84,0.77,1729431528569.0,0.0
-2.134398,-1.591227,-7.412964,52.150002,15.68,0.28,1729431528589.0,0.0
-3.117848,-1.852045,-7.314859,23.870001,13.3,3.43,1729431528609.0,0.0
-2.656033,-2.806781,-7.075576,33.040001,2.31,2.8,1729431528629.0,0.0
-1.478764,-2.0004,-7.590034,45.220001,-14.14,-1.89,1729431528650.0,0.0
0.636491,-0.095713,-7.800602,9.38,-32.130001,-18.200001,1729431528670.0,0.0
-0.253639,-1.4668,-9.233903,-66.360001,-36.049999,-17.08,1729431528690.0,0.0
-1.0002,-3.694518,-12.244074,-109.270004,-26.040001,-17.57,1729431528710.0,0.0
-0.435494,-4.723432,-13.27538,-73.150002,-14.91,-7.98,1729431528732.0,0.0
-0.885344,-3.706482,-11.787045,-15.47,-3.85,0.91,1729431528749.0,0.0
0.090927,-3.510271,-12.119646,-2.17,5.67,3.29,1729431528771.0,0.0
-1.837688,-5.259424,-12.629318,23.1,17.780001,10.71,1729431528790.0,0.0
-1.806581,-4.692325,-9.731609,104.580002,34.23,11.41,1729431528810.0,0.0
-1.323231,-2.9671,-6.494121,118.160004,31.57,6.09,1729431528829.0,0.0
-1.507478,-3.395415,-7.341179,63.91,26.32,-4.48,1729431528895.0,0.0
-1.416551,-4.500899,-7.80778,15.190001,24.219999,-14.0,1729431528899.0,0.0
-1.677369,-3.988836,-7.733603,25.48,13.72,-15.26,1729431528900.0,0.0
-2.048256,-3.062813,-6.74776,37.380001,5.88,-19.389999,1729431528910.0,0.0
-1.545763,-0.741775,-7.111469,61.670002,-12.95,-11.13,1729431528929.0,0.0
-0.361316,0.658026,-7.113862,26.460001,-24.710001,-4.06,1729431528949.0,0.0
-1.414158,0.232104,-8.413164,-53.200001,-30.1,11.83,1729431528968.0,0.0
-1.289732,-1.691726,-12.330215,-137.410004,-21.629999,14.7,1729431528988.0,0.0
-0.325424,-4.165904,-15.450456,-131.320007,-7.84,21.91,1729431529009.0,0.0
-0.981057,-5.359922,-13.720445,-35.490002,5.95,29.960001,1729431529028.0,0.0
-2.201397,-4.890929,-8.149954,29.33,11.34,26.6,1729431529048.0,0.0
-0.842274,-3.548556,-7.384251,-23.59,5.74,8.12,1729431529068.0,0.0
-1.921437,-6.515656,-10.372886,-93.379997,10.29,-9.17,1729431529088.0,0.0
-2.646462,-7.996813,-12.569498,-27.65,13.86,-17.85,1729431529112.0,0.0
-1.464408,-4.876573,-10.109675,84.0,19.879999,-22.190001,1729431529128.0,0.0
-0.59342,-0.150748,-5.740381,140.770004,14.7,-16.24,1729431529148.0,0.0
-0.741775,0.524028,-5.704489,54.599998,3.36,-17.43,1729431529168.0,0.0
-1.103091,-2.005185,-8.295916,-34.23,5.67,-13.79,1729431529188.0,0.0
-1.880759,-2.029114,-7.905886,-2.38,-1.68,2.73,1729431529209.0,0.0
-0.825524,-1.789831,-7.479963,28.700001,-13.86,6.44,1729431529230.0,0.0
-0.086142,-0.957129,-8.805587,1.26,-22.4,6.51,1729431529248.0,0.0
-0.725025,-0.311067,-8.882158,-46.27,-27.299999,11.62,1729431529268.0,0.0
-1.100698,-2.400001,-11.909079,-117.949997,-17.57,11.9,1729431529288.0,0.0
-0.433101,-5.417351,-14.333008,-117.459999,-5.04,18.059999,1729431529309.0,0.0
-1.366302,-6.072984,-11.52862,-34.439999,2.17,25.620001,1729431529329.0,0.0
-0.964308,-4.134798,-9.731609,-0.77,0.21,17.219999,1729431529348.0,0.0
-1.115055,-4.287938,-9.994821,-30.73,0.21,8.82,1729431529368.0,0.0
-2.426322,-6.695118,-12.746566,-30.17,5.81,0.77,1729431529387.0,0.0
-2.89053,-7.855636,-13.385449,46.41,14.28,-4.55,1729431529410.0,0.0
-2.495714,-5.56092,-9.683753,119.840004,26.460001,-17.360001,1729431529428.0,0.0
-1.727618,-2.136791,-6.037091,129.009995,15.05,-21.49,1729431529448.0,0.0
-2.548356,-1.28016,-6.975078,38.220001,9.17,-24.360001,1729431529467.0,0.0
-2.725425,-2.770889,-6.912865,24.01,5.81,-17.639999,1729431529490.0,0.0
-1.732404,-4.122833,-6.62094,29.049999,-8.19,-20.719999,1729431529511.0,0.0
-0.772882,-3.917051,-7.743174,17.57,-23.24,-29.469999,1729431529529.0,0.0
1.272982,-1.921437,-8.346166,-3.08,-41.439999,-42.700001,1729431529549.0,0.0
0.107677,-1.708475,-8.755339,-41.93,-45.43,-33.389999,1729431529567.0,0.0
-1.107877,-1.584049,-9.829715,-76.090004,-38.849998,-23.1,1729431529589.0,0.0
-0.287139,-2.624927,-11.399406,-67.900002,-34.23,-3.5,1729431529612.0,0.0
-1.414158,-3.658626,-12.423534,-47.040001,-25.129999,14.0,1729431529629.0,0.0
-2.567499,-4.737789,-12.086146,-24.08,-13.37,20.440001,1729431529648.0,0.0
-1.942972,-4.785645,-11.119448,3.36,-3.15,16.24,1729431529676.0,0.0
-2.067399,-4.771288,-9.518648,18.690001,5.32,8.12,1729431529699.0,0.0
-2.237289,-5.706882,-10.772489,11.13,15.47,-9.17,1729431529710.0,0.0
-1.919044,-7.869993,-11.674582,38.779999,27.719999,-22.26,1729431529732.0,0.0
-0.825524,-5.508278,-8.618947,93.379997,27.299999,-33.880001,1729431529748.0,0.0
-0.674776,-1.050449,-5.721239,116.900002,13.86,-33.740002,1729431529769.0,0.0
-1.852045,-2.404787,-6.546762,21.98,8.4,-28.700001,1729431529790.0,0.0
-2.294717,-3.239882,-5.991628,10.15,-0.07,-17.57,1729431529811.0,0.0
-1.311267,-4.192225,-6.455836,-6.86,-10.15,-21.700001,1729431529829.0,0.0
-0.526421,-3.622734,-6.862615,-17.92,-24.710001,-21.91,1729431529849.0,0.0
-0.51685,-0.770489,-7.503892,-45.990002,-35.91,-17.92,1729431529869.0,0.0
-0.315853,-1.143769,-10.686346,-89.739998,-38.290001,-4.06,1729431529899.0,0.0
-0.200997,-4.570292,-14.835501,-116.900002,-22.190001,3.85,1729431529911.0,0.0
-1.682154,-6.582655,-12.799208,-49.560001,-12.74,13.440001,1729431529930.0,0.0
-2.478964,-4.752146,-10.461421,10.85,-7.63,4.97,1729431529950.0,0.0
-1.770689,-4.072584,-9.693325,1.68,-0.14,-0.21,1729431529969.0,0.0
-2.498107,-4.800002,-10.346564,-9.52,8.89,-5.39,1729431529989.0,0.0
-2.988636,-6.106483,-10.980663,21.139999,18.690001,-9.87,1729431530014.0,0.0
-2.457429,-6.987042,-10.884951,66.010002,28.07,-18.549999,1729431530030.0,0.0
-0.62692,-2.9671,-7.877172,94.220001,24.5,-23.66,1729431530049.0,0.0
-0.275175,-0.581456,-6.051448,90.090004,12.11,-8.75,1729431530069.0,0.0
-2.435893,-2.938386,-6.209375,57.400002,14.91,-5.46,1729431530091.0,0.0
-2.495714,-3.35713,-4.711468,65.379997,-3.29,7.28,1729431530110.0,0.0
-1.514657,-2.160719,-5.134997,29.610001,-21.49,-1.61,1729431530131.0,0.0
-0.102891,-1.969293,-7.664211,-50.889999,-38.849998,-15.75,1729431530152.0,0.0
0.732204,-1.892723,-12.296716,-124.529999,-40.110001,-14.77,1729431530170.0,0.0
0.638884,-4.962714,-15.067604,-117.32,-27.51,-1.4,1729431530191.0,0.0
-0.921237,-6.84108,-13.610376,-39.34,-6.02,9.1,1729431530211.0,0.0
-2.227718,-5.355137,-10.188639,38.43,0.84,15.68,1729431530232.0,0.0
-2.091327,-4.24726,-8.956335,18.9,5.32,11.2,1729431530251.0,0.0
-1.744368,-4.737789,-9.174082,-35.560001,12.67,5.18,1729431530272.0,0.0
-3.235096,-6.589834,-10.616954,-25.27,19.67,5.39,1729431530291.0,0.0
-2.794817,-7.030113,-10.040283,19.879999,22.4,-0.21,1729431530311.0,0.0
-2.0004,-7.336394,-9.329616,68.32,21.35,-6.23,1729431530332.0,0.0
-0.772882,-4.158726,-9.092726,102.269997,16.940001,-12.88,1729431530352.0,0.0
-0.157926,-0.758525,-6.82433,96.459999,4.48,1.4,1729431530371.0,0.0
-2.68714,-3.156133,-6.025128,48.439999,19.530001,14.77,1729431530394.0,0.0
-4.027121,-5.156533,-5.532206,83.860001,11.83,26.18,1729431530411.0,0.0
-2.266003,-1.323231,-5.472386,89.25,-19.67,15.68,1729431530432.0,0.0
-0.069392,-0.636491,-7.467999,-15.190001,-32.619999,13.3,1729431530450.0,0.0
0.212961,-4.199404,-10.518847,-151.970001,-24.780001,-0.77,1729431530470.0,0.0
-0.028714,-6.415157,-12.208181,-170.589996,-20.23,-4.27,1729431530490.0,0.0
-0.267996,-6.963113,-13.143774,-96.529999,-16.24,0.98,1729431530522.0,0.0
-1.234696,-6.489335,-12.14836,-27.23,-6.02,3.92,1729431530530.0,0.0
-1.462015,-6.163911,-10.908878,-13.02,11.76,-3.78,1729431530551.0,0.0
-2.122434,-6.108876,-9.870394,-0.42,18.969999,0.77,1729431530572.0,0.0
-2.036292,-5.938986,-9.262616,16.379999,27.370001,-3.85,1729431530589.0,0.0
-1.698904,-8.429914,-8.171489,69.019997,24.710001,-1.75,1729431530613.0,0.0
-2.321038,-5.438886,-6.865008,106.190002,18.969999,-17.780001,1729431530631.0,0.0
-1.696511,-2.330609,-6.675975,105.209999,9.73,-10.99,1729431530651.0,0.0
-2.600998,-1.347159,-6.197411,75.879997,9.66,1.96,1729431530670.0,0.0
-4.208975,-3.168097,-6.15434,56.700001,12.32,10.92,1729431530690.0,0.0
-2.809174,-3.720839,-5.826523,70.840004,1.89,14.7,1729431530712.0,0.0
-1.083949,-3.081956,-5.970093,-3.85,-25.969999,1.54,1729431530734.0,0.0
-0.002393,-3.988836,-6.63769,-88.830002,-37.939999,-11.97,1729431530751.0,0.0
-0.375673,-3.914658,-10.159925,-145.110001,-35.77,-14.91,1729431530769.0,0.0
-0.18664,-4.881358,-12.162716,-138.669998,-32.060001,-13.3,1729431530790.0,0.0
-0.803988,-5.417351,-13.433307,-92.540001,-16.799999,-6.16,1729431530811.0,0.0
-1.490728,-5.659025,-12.279965,-42.07,-1.4,4.34,1729431530830.0,0.0
-1.502693,-6.199803,-10.973484,-11.97,9.03,8.12,1729431530849.0,0.0
-1.246661,-5.962914,-10.607382,9.59,13.79,8.47,1729431530870.0,0.0
-1.806581,-6.486942,-9.882358,49.139999,18.41,11.62,1729431530889.0,0.0
-2.758924,-6.484549,-9.489935,95.129997,26.6,10.78,1729431530913.0,0.0
-2.684747,-5.735595,-8.757731,127.470001,33.32,6.09,1729431530931.0,0.0
-1.423729,-4.907679,-7.025328,140.770004,25.690001,9.03,1729431530949.0,0.0
-0.643669,-2.845066,-6.439085,108.43,23.030001,4.27,1729431530969.0,0.0
-1.555335,-3.337988,-6.06102,67.410004,25.620001,13.79,1729431530991.0,0.0
-2.926422,-3.998406,-5.687739,67.620003,24.780001,19.25,1729431531013.0,0.0
-3.63709,-4.689932,-3.823731,84.07,11.2,20.93,1729431531030.0,0.0
-1.605584,-3.766303,-5.307281,56.490002,-18.76,9.66,1729431531050.0,0.0
0.241675,-3.809374,-7.956135,-94.989998,-51.310001,-11.69,1729431531069.0,0.0
1.095913,-4.929214,-12.217752,-170.100006,-44.939999,-10.99,1729431531090.0,0.0
0.394816,-6.666404,-12.636496,-160.440002,-24.15,-4.76,1729431531111.0,0.0
-0.784846,-8.169096,-13.040883,-93.099998,0.7,-3.08,1729431531129.0,0.0
-1.404587,-7.219146,-12.040684,-15.12,7.91,-2.03,1729431531150.0,0.0
-1.490728,-5.611169,-10.454242,6.65,18.9,-0.56,1729431531169.0,0.0
-1.579263,-6.812366,-8.745767,16.59,29.75,1.89,1729431531189.0,0.0
-1.083949,-7.109076,-8.130811,67.760002,28.0,1.96,1729431531209.0,0.0
-1.98365,-4.589434,-6.096912,125.440002,21.07,6.58,1729431531230.0,0.0
-3.644269,-3.29731,-5.812167,100.449997,21.559999,8.05,1729431531250.0,0.0
-3.579663,-5.063213,-7.135397,29.4,26.040001,0.35,1729431531270.0,0.0
-2.208575,-5.692525,-5.692525,-12.25,17.01,-7.77,1729431531289.0,0.0
-1.488336,-5.288138,-6.565905,-34.09,-0.98,-21.0,1729431531312.0,0.0
-0.217747,-4.45065,-9.501899,-37.380001,-12.32,-32.060001,1729431531330.0,0.0
0.224925,-4.311867,-13.031311,-7.21,-11.76,-18.549999,1729431531349.0,0.0
-1.002593,-5.996413,-13.153346,33.880001,14.21,-7.35,1729431531369.0,0.0
-3.156133,-4.766503,-10.937593,113.050003,45.150002,8.54,1729431531388.0,0.0
-3.790231,-4.465007,-9.772287,153.720001,52.639999,23.73,1729431531411.0,0.0
-3.321238,-7.085148,-7.125826,145.039993,62.860001,24.57,1729431531429.0,0.0
-4.869394,-8.561519,-3.393023,94.150002,69.230003,11.48,1729431531448.0,0.0
-4.632504,-8.468199,-9.779467,76.440002,67.269997,5.04,1729431531469.0,0.0
-3.065206,-7.606783,-10.121639,120.610001,75.18,17.290001,1729431531489.0,0.0
-2.993421,-5.802595,-0.51685,148.259995,92.610001,24.43,1729431531510.0,0.0
-1.864009,-5.489135,-5.211568,112.07,63.98,34.23,1729431531530.0,0.0
-1.325624,-7.52782,-6.759724,51.939999,78.959999,40.880001,1729431531549.0,0.0
-0.021535,-9.810574,-3.751946,93.519997,81.340004,46.27,1729431531569.0,0.0
1.213161,-7.980063,1.938186,139.229996,65.660004,47.389999,1729431531589.0,0.0
-0.42353,-9.671788,1.931008,121.940002,44.59,34.439999,1729431531610.0,0.0
0.007178,-10.801201,0.40678,72.519997,12.32,6.65,1729431531629.0,0.0
2.122434,-9.521042,0.172283,55.02,-20.860001,4.83,1729431531649.0,0.0
3.56052,-5.051248,-0.870987,33.670002,-45.290001,8.75,1729431531669.0,0.0
1.184447,-4.768896,-2.761317,-41.09,-37.450001,19.110001,1729431531689.0,0.0
-0.239282,-3.976871,-8.535198,-150.919998,-40.880001,10.64,1729431531713.0,0.0
1.72044,-9.150154,-10.358529,-203.839996,-54.040001,8.33,1729431531733.0,0.0
1.976472,-12.538391,-12.327823,-158.199997,-48.650002,-4.27,1729431531750.0,0.0
-3.117848,-12.179466,-8.109276,-43.889999,1.54,-19.6,1729431531769.0,0.0
-5.737988,-11.10509,-8.781659,19.040001,15.26,-31.639999,1729431531789.0,0.0
-2.823531,-10.499706,-10.34178,41.439999,-19.18,-28.91,1729431531810.0,0.0
0.70349,-11.526227,-8.23131,55.439999,-1.89,-32.34,1729431531830.0,0.0
-0.344566,-11.739187,-9.767502,173.529999,56.209999,-15.12,1729431531848.0,0.0
-2.378466,-6.393622,-5.596812,272.790009,86.590004,3.57,1729431531869.0,0.0
-2.364109,-2.531606,6.149554,231.839996,79.309998,19.809999,1729431531889.0,0.0
-0.87338,-6.333801,-1.722832,119.699997,21.91,15.75,1729431531912.0,0.0
2.141576,-5.257031,-1.818545,19.460001,-11.48,-9.66,1729431531932.0,0.0
1.414158,-6.135197,-3.981657,-18.34,24.780001,20.860001,1729431531949.0,0.0
0.638884,-9.193225,-4.867002,-46.759998,30.52,19.6,1729431531971.0,0.0
0.090927,-8.288737,-5.285746,-15.47,5.18,13.440001,1729431531990.0,0.0
-1.785046,-7.800602,-2.608176,36.75,6.93,20.23,1729431532010.0,0.0
-1.919044,-7.970492,-1.847259,-30.66,-18.83,0.49,1729431532031.0,0.0
0.023928,-10.267602,-8.865408,-135.589996,-54.040001,-29.190001,1729431532050.0,0.0
-2.54357,-11.475977,-6.087341,-51.240002,-40.040001,-30.940001,1729431532070.0,0.0
-5.99402,-11.073983,-8.377272,80.5,21.280001,-4.83,1729431532089.0,0.0
-4.0008,-9.018548,-4.752146,63.07,15.82,8.05,1729431532109.0,0.0
-0.442672,-10.657632,-4.551149,-44.59,12.25,-10.01,1729431532130.0,0.0
1.311267,-11.193624,-7.085148,-41.439999,26.25,-15.89,1729431532148.0,0.0
0.227318,-8.805587,-2.120041,73.150002,59.5,17.57,1729431532171.0,0.0
-1.28016,-9.262616,2.364109,83.160004,57.330002,21.91,1729431532188.0,0.0
0.303888,-8.88455,-0.457029,29.469999,13.58,-1.75,1729431532210.0,0.0
1.813759,-8.408379,-2.206182,-14.7,-5.67,-4.34,1729431532231.0,0.0
2.215754,-7.412964,-2.421536,-34.02,-13.93,-7.0,1729431532251.0,0.0
0.382852,-7.609176,-3.684947,-10.99,-16.73,2.87,1729431532268.0,0.0
-2.175076,-6.774081,-1.430908,-19.389999,-21.629999,7.63,1729431532290.0,0.0
-2.794817,-5.893522,-2.414358,-85.190002,-42.98,-5.53,1729431532311.0,0.0
-0.598206,-8.532805,-7.257431,-172.619995,-74.900002,-14.0,1729431532332.0,0.0
1.820938,-9.889536,-11.217552,-188.580002,-94.080002,-27.51,1729431532350.0,0.0
-1.411765,-10.528419,-9.513863,-67.830002,-36.400002,-5.95,1729431532369.0,0.0
-8.039884,-11.454442,-7.377072,-24.5,41.580002,5.25,1729431532391.0,0.0
-3.026921,-11.863614,-6.484549,-24.01,-7.07,-19.6,1729431532412.0,0.0
2.431108,-9.487542,-5.491528,29.469999,-23.309999,-23.940001,1729431532429.0,0.0
1.739582,-8.496914,-2.268396,97.440002,17.57,-7.42,1729431532451.0,0.0
-1.627119,-7.357929,-2.459821,72.800003,33.18,-2.59,1729431532469.0,0.0
-1.040878,-6.838687,-2.624927,25.129999,0.7,-8.33,1729431532491.0,0.0
0.940379,-8.001599,-4.596612,-6.23,-14.7,-7.7,1729431532512.0,0.0
1.26341,-7.73121,-6.221339,-9.52,-7.56,-5.25,1729431532530.0,0.0
0.552742,-6.869793,-6.171089,2.94,-0.42,0.07,1729431532549.0,0.0
0.177069,-6.754939,-5.879165,5.39,1.19,1.89,1729431532568.0,0.0
-0.035892,-7.159326,-6.534799,-2.1,-5.25,3.43,1729431532590.0,0.0
-0.334995,-7.245467,-4.701896,-26.950001,-8.68,-3.57,1729431532611.0,0.0
-1.545763,-8.293523,-4.876573,-78.470001,-12.53,-13.51,1729431532630.0,0.0
-0.679562,-9.485149,-6.719046,-164.149994,-41.02,-40.459999,1729431532648.0,0.0
1.148555,-9.824929,-1.383051,-174.509995,-54.529999,-60.27,1729431532669.0,0.0
0.222532,-9.322437,-5.429315,-150.710007,-54.040001,-62.580002,1729431532691.0,0.0
-0.306281,-6.515656,-8.11167,-105.209999,-78.050003,-74.129997,1729431532712.0,0.0
-1.789831,-4.914857,-5.252246,80.010002,-49.700001,-6.02,1729431532732.0,0.0
-1.744368,-5.599205,-6.659225,120.470001,-49.420002,31.43,1729431532749.0,0.0
-2.646462,-7.625926,-7.630712,44.029999,-7.77,44.240002,1729431532770.0,0.0
-3.503092,-10.195816,-8.159525,22.469999,16.799999,49.77,1729431532789.0,0.0
-3.893122,-10.971091,-6.920043,54.810001,22.26,41.369999,1729431532811.0,0.0
-4.826324,-7.745567,-4.285545,13.3,16.870001,17.99,1729431532829.0,0.0
-2.105684,-4.048656,-7.415358,-57.049999,-9.52,3.43,1729431532849.0,0.0
0.882952,-5.611169,-8.123632,-98.209999,-23.73,15.75,1729431532868.0,0.0
0.995414,-6.640083,-9.600004,-145.669998,-7.28,1.68,1729431532889.0,0.0
-0.698704,-6.317052,-12.99542,-153.509995,11.06,1.19,1729431532912.0,0.0
-2.182254,-7.506285,-10.447062,-89.739998,23.450001,13.37,1729431532929.0,0.0
-0.385244,-6.453443,-9.296116,-52.990002,23.1,6.37,1729431532951.0,0.0
1.07677,-7.357929,-8.018349,-13.16,26.809999,10.15,1729431532969.0,0.0
0.480957,-8.372486,-6.472585,22.33,42.490002,2.17,1729431532988.0,0.0
-1.5003,-7.939385,-2.691926,52.849998,34.720001,-4.62,1729431533010.0,0.0
-2.943172,-6.735795,-2.988636,43.540001,8.12,-15.68,1729431533030.0,0.0
-3.806981,-4.68754,-2.622534,9.38,-11.97,-16.24,1729431533049.0,0.0
-2.129612,-1.734797,-5.252246,-42.349998,-49.630001,6.51,1729431533068.0,0.0
-2.328217,-4.362115,-6.494121,-127.400002,-59.150002,13.3,1729431533088.0,0.0
-2.70389,-6.180661,-11.026128,-203.279999,-51.380001,-0.63,1729431533109.0,0.0
-1.643869,-7.267002,-12.622139,-174.229996,-52.920002,11.13,1729431533129.0,0.0
-0.468993,-6.972685,-12.112469,-122.150002,-38.290001,9.38,1729431533151.0,0.0
-0.710668,-7.60439,-11.375479,-88.199997,-10.57,11.62,1729431533170.0,0.0
-1.261017,-6.228518,-11.949757,-40.599998,1.12,9.73,1729431533189.0,0.0
-2.07697,-6.58744,-11.514263,22.75,18.059999,14.98,1729431533210.0,0.0
-0.957129,-5.709275,-8.480164,55.09,29.26,12.39,1729431533229.0,0.0
-0.514457,-5.895915,-7.458428,78.470001,25.200001,10.64,1729431533249.0,0.0
-1.299303,-6.26441,-6.515656,73.989998,27.440001,-1.19,1729431533271.0,0.0
-2.299503,-5.9677,-6.446264,76.300003,19.879999,-2.38,1729431533288.0,0.0
-3.596412,-4.61097,-4.718646,47.740002,10.99,-9.59,1729431533309.0,0.0
-3.455236,-3.515057,-4.768896,1.19,-2.94,-14.42,1729431533331.0,0.0
-2.218147,-4.309474,-5.592027,-20.93,-26.110001,-15.190001,1729431533350.0,0.0
0.088534,-2.665605,-7.393822,-37.099998,-49.91,-22.190001,1729431533369.0,0.0
-0.954736,-1.495514,-9.274581,-95.410004,-61.040001,-13.79,1729431533389.0,0.0
-2.239682,-3.352344,-11.655439,-173.460007,-32.130001,11.9,1729431533410.0,0.0
-1.832902,-6.750153,-14.347364,-151.130005,-11.69,16.24,1729431533428.0,0.0
-1.607977,-6.74776,-13.787444,-65.870003,-0.7,22.33,1729431533449.0,0.0
-2.136791,-4.792823,-12.093326,5.46,11.13,23.450001,1729431533468.0,0.0
-2.837888,-4.383651,-10.057034,21.77,21.700001,21.91,1729431533488.0,0.0
-2.533999,-6.104091,-9.920642,9.59,32.759998,14.42,1729431533510.0,0.0
-2.37368,-7.762317,-8.592626,22.26,38.150002,2.59,1729431533529.0,0.0
-1.349552,-6.721439,-7.838887,61.599998,28.84,-4.2,1729431533549.0,0.0
-1.268196,-3.302095,-6.742974,94.849998,16.450001,-10.78,1729431533569.0,0.0
-3.507878,-0.57667,-5.982057,76.580002,14.63,-5.46,1729431533589.0,0.0
-4.697111,-1.485943,-4.689932,28.35,9.59,-1.19,1729431533608.0,0.0
-2.222932,-3.084348,-6.656832,-34.650002,-6.37,-10.92,1729431533631.0,0.0
-0.177069,-2.002793,-9.580862,-67.410004,-24.780001,-12.88,1729431533648.0,0.0
0.696311,-1.615155,-9.659825,-106.889999,-29.33,-10.5,1729431533669.0,0.0
-0.782453,-4.235296,-12.550355,-140.419998,-16.450001,-2.38,1729431533690.0,0.0
-1.808974,-5.943772,-13.505091,-97.720001,-0.49,7.21,1729431533709.0,0.0
-3.244668,-4.704289,-10.231709,-2.24,9.38,16.59,1729431533732.0,0.0
-1.998007,-3.876373,-9.442079,-6.16,16.73,8.4,1729431533750.0,0.0
-1.524228,-5.65424,-9.068797,-36.119999,19.74,3.57,1729431533767.0,0.0
-2.579463,-6.376873,-8.386844,0.21,16.1,-4.13,1729431533789.0,0.0
-3.261417,-6.91765,-9.647861,41.860001,10.22,-10.01,1729431533811.0,0.0
-2.895315,-6.288338,-10.186246,53.619999,23.450001,-29.68,1729431533829.0,0.0
0.538385,0.222532,-5.924629,75.389999,11.41,-15.47,1729431533898.0,0.0
-0.72024,0.854238,-7.446464,66.919998,7.07,-5.74,1729431533898.0,0.0
-2.962314,-2.158326,-6.24766,18.969999,12.74,10.71,1729431533899.0,0.0
-4.185047,-2.175076,-6.063413,47.950001,-3.92,10.01,1729431533910.0,0.0
-2.019542,-2.301895,-7.049256,24.85,-23.17,4.06,1729431533932.0,0.0
-0.311067,-1.256232,-9.80818,-89.879997,-27.65,-16.799999,1729431533950.0,0.0
-0.026321,-3.529413,-10.528419,-134.610001,-24.219999,-15.89,1729431533968.0,0.0
0.009571,-5.589634,-13.91187,-111.020004,-10.43,-10.92,1729431533995.0,0.0
-1.962115,-4.173083,-12.136396,-37.59,-3.5,4.9,1729431534012.0,0.0
-3.443272,-3.969693,-12.512069,4.97,8.89,11.48,1729431534028.0,0.0
-2.694318,-4.307081,-12.909278,12.46,25.969999,17.15,1729431534072.0,0.0
-2.931208,-2.945565,-11.507084,71.050003,40.950001,20.440001,1729431534074.0,0.0
-3.9673,-3.924229,-12.167502,108.290001,55.439999,23.59,1729431534088.0,0.0
-3.5007,-3.136991,-10.112068,145.320007,65.309998,26.110001,1729431534177.0,0.0
-3.34038,-2.888137,-8.243275,142.449997,60.34,20.58,1729431534178.0,0.0
-2.74696,-7.329216,-11.200804,140.559998,70.559998,20.51,1729431534178.0,0.0
-1.87358,-8.77448,-8.647661,232.259995,79.940002,18.76,1729431534178.0,0.0
-2.136791,-5.020142,-1.344766,360.570007,87.010002,24.710001,1729431534220.0,0.0
-1.67019,-5.209175,-0.174676,359.730011,54.25,16.309999,1729431534222.0,0.0
-1.043271,-6.072984,-6.446264,283.360016,36.82,18.690001,1729431534229.0,0.0
0.949951,-6.149554,-5.682954,270.690002,24.780001,18.620001,1729431534247.0,0.0
1.801795,-4.599005,1.552942,179.690002,17.5,7.49,1729431534268.0,0.0
-0.473779,-5.465207,-0.619741,5.25,16.24,5.95,1729431534289.0,0.0
-1.74676,-7.762317,-2.804388,-111.090004,-6.58,-7.07,1729431534310.0,0.0
0.246461,-6.953543,-4.862216,-136.430008,-22.469999,-13.09,1729431534329.0,0.0
0.59342,-1.880759,-4.113262,-142.729996,-36.119999,-2.17,1729431534349.0,0.0
-1.361516,-5.931807,-15.019747,-353.779999,-40.18,11.13,1729431534369.0,0.0
-0.722632,-17.41975,-16.886148,-350.839996,-16.59,-9.17,1729431534390.0,0.0
0.270389,-21.413368,-15.177674,-12.32,35.209999,-7.49,1729431534411.0,0.0
-0.241675,-11.870793,-11.263017,299.110016,38.849998,-1.19,1729431534430.0,0.0
-0.78006,-3.795017,-5.099105,329.700012,71.75,-3.08,1729431534453.0,0.0
-0.959522,-4.800002,0.050249,197.190002,60.900002,-3.43,1729431534470.0,0.0
-0.382852,-5.630312,-0.528814,55.860001,31.43,-20.299999,1729431534490.0,0.0
0.535992,-5.895915,-2.06022,44.59,-2.31,-6.51,1729431534512.0,0.0
1.079163,-5.680561,-2.801995,56.349998,-9.24,4.06,1729431534543.0,0.0
0.306281,-4.821537,-5.266603,-26.880001,-22.960001,10.36,1729431534582.0,0.0
0.002393,-7.276574,-7.034898,-59.5,-37.029999,-6.51,1729431534582.0,0.0
-0.294317,-6.518049,-4.843073,-94.5,-50.889999,-23.940001,1729431534635.0,0.0
0.052642,-4.675575,-6.802795,-106.190002,-72.590004,-34.23,1729431534636.0,0.0
0.969093,-4.302295,-12.899707,-110.879997,-85.190002,-21.07,1729431534637.0,0.0
-2.285146,-8.91805,-10.660025,-133.770004,-58.869999,-19.879999,1729431534650.0,0.0
-8.642875,-11.746366,-8.068598,56.91,53.200001,34.580002,1729431534670.0,0.0
-6.166305,-7.798209,-8.152347,21.35,9.94,5.25,1729431534689.0,0.0
-1.794617,-6.869793,-8.889337,7.49,3.01,8.4,1729431534718.0,0.0
-0.425922,-6.860222,-3.524628,24.43,28.84,19.74,1729431534732.0,0.0
-1.531406,-9.616754,-1.639083,6.3,35.349998,25.41,1729431534749.0,0.0
-0.397209,-8.805587,-4.096512,-13.16,8.82,8.82,1729431534769.0,0.0
1.852045,-5.479564,-3.050849,-59.920002,-2.45,13.58,1729431534789.0,0.0
1.864009,-11.062018,-4.393222,-86.660004,-2.73,9.38,1729431534810.0,0.0
2.778067,-8.599805,-5.285746,-20.23,-31.360001,-17.08,1729431534830.0,0.0
0.449851,-6.568298,-6.924829,78.470001,-35.84,5.46,1729431534849.0,0.0
-1.29691,-2.87378,-3.905087,61.25,-37.52,1.75,1729431534869.0,0.0
-1.191626,-4.185047,-4.725825,-84.209999,-52.5,-14.49,1729431534889.0,0.0
0.713061,-6.494121,-9.351151,-236.880005,-82.25,-44.799999,1729431534909.0,0.0
-0.892523,-7.712067,-14.615361,-231.210007,-58.170002,-42.84,1729431534929.0,0.0
-4.491328,-9.343972,-11.52862,-9.66,-18.549999,-3.22,1729431534949.0,0.0
-4.788038,-4.704289,-11.464014,37.73,-10.36,19.110001,1729431534969.0,0.0
-2.129612,-9.236296,-9.308081,-56.209999,15.05,14.49,1729431534989.0,0.0
-1.51705,-8.79123,-5.584848,-30.73,46.48,8.47,1729431535009.0,0.0
-1.818545,-7.197611,-4.039084,-7.21,34.509998,9.87,1729431535029.0,0.0
-0.497707,-6.360123,-4.871787,-39.48,14.42,-10.78,1729431535049.0,0.0
-0.270389,-5.491528,-6.118448,-90.230003,-0.35,-15.82,1729431535069.0,0.0
-0.287139,-7.479963,-7.858029,-141.470001,-9.17,-28.139999,1729431535089.0,0.0
0.897308,-9.035298,-10.430314,-144.759995,-12.11,-49.279999,1729431535109.0,0.0
1.198804,-6.089733,-9.753145,-90.370003,-14.07,-54.670002,1729431535130.0,0.0
0.830309,-5.024928,-9.865608,-39.549999,-13.09,-55.650002,1729431535148.0,0.0
-2.744568,-0.5001,-3.998406,33.880001,-10.01,-33.740002,1729431535168.0,0.0
-1.569692,-2.301895,-3.416951,58.450001,-42.91,-19.950001,1729431535189.0,0.0
-0.160319,-11.408978,-5.436492,-91.769997,-44.799999,-65.169998,1729431535209.0,0.0
-5.297709,-1.959722,-4.68754,-136.710007,-59.360001,-75.599998,1729431535231.0,0.0
-2.026721,1.454836,-7.874779,-32.619999,-98.559998,-7.56,1729431535248.0,0.0
-0.143569,-7.377072,-12.354142,-61.670002,-55.02,-12.04,1729431535271.0,0.0
-3.096312,-3.972085,-13.8688,-22.190001,-52.360001,15.12,1729431535289.0,0.0
-2.76371,-0.842274,-12.203396,32.689999,-31.92,38.639999,1729431535310.0,0.0
-4.536791,-4.177868,-9.820145,12.6,-2.38,42.91,1729431535329.0,0.0
-2.885744,-5.352744,-9.879964,-33.040001,0.35,20.65,1729431535350.0,0.0
-1.674976,-4.35733,-10.832308,-35.98,-1.54,6.51,1729431535369.0,0.0
-1.172483,-5.053641,-11.370694,-22.4,7.63,1.89,1729431535390.0,0.0
-1.526621,-4.283153,-10.829915,8.68,15.190001,-0.91,1729431535411.0,0.0
-0.904487,-4.051049,-8.420342,26.67,19.879999,0.42,1729431535430.0,0.0
-1.213161,-3.086741,-7.412964,28.07,13.86,-1.26,1729431535449.0,0.0
-2.163112,-3.986443,-7.755138,0.63,12.88,-9.1,1729431535469.0,0.0
-3.550949,-3.67059,-6.874579,10.71,8.96,1.05,1729431535489.0,0.0
-3.26381,-2.644069,-6.257231,21.42,-2.66,3.99,1729431535512.0,0.0
-1.552942,-2.914458,-6.245267,-28.630001,-11.83,-4.9,1729431535530.0,0.0
-1.428515,-2.469393,-7.71446,-48.439999,-27.23,0.56,1729431535549.0,0.0
-2.835495,-2.914458,-9.131011,-49.84,-32.689999,10.43,1729431535571.0,0.0
-2.275574,-3.014957,-12.236896,-79.029999,-24.219999,13.93,1729431535590.0,0.0
-1.840081,-5.036892,-13.016955,-90.090004,-7.35,20.02,1729431535612.0,0.0
-1.85683,-6.238089,-12.442677,-40.529999,3.57,22.049999,1729431535630.0,0.0
-2.902494,-4.273581,-9.829715,13.65,5.18,17.15,1729431535649.0,0.0
-3.39063,-4.991428,-9.485149,40.950001,11.34,8.61,1729431535670.0,0.0
-3.909872,-4.709075,-9.162118,47.740002,15.96,2.66,1729431535689.0,0.0
-2.392823,-4.412365,-8.975478,28.91,19.74,-5.25,1729431535713.0,0.0
-1.083949,-4.455436,-8.087741,27.02,20.440001,-8.61,1729431535733.0,0.0
-2.720639,-2.926422,-7.025328,28.42,16.59,-9.17,1729431535751.0,0.0
-4.934,-2.768496,-4.910072,54.389999,12.88,-8.68,1729431535770.0,0.0
-3.282953,-0.124427,-4.697111,64.400002,-11.97,-11.97,1729431535790.0,0.0
0.555135,-0.023928,-5.979663,-21.98,-32.900002,-20.02,1729431535812.0,0.0
0.502493,-1.945365,-8.719445,-125.160004,-39.830002,-24.43,1729431535830.0,0.0
-1.756332,-2.476572,-12.844672,-117.32,-40.950001,-16.17,1729431535850.0,0.0
-2.385644,-4.036692,-14.605788,-70.489998,-25.059999,3.08,1729431535869.0,0.0
-3.591627,-4.819145,-12.466606,-51.029999,-0.84,12.6,1729431535891.0,0.0
-2.871387,-5.826523,-9.84168,-53.060001,12.53,6.86,1729431535914.0,0.0
-2.423929,-5.74756,-10.750952,-51.380001,12.81,-3.85,1729431535930.0,0.0
-3.842873,-6.898508,-11.574083,4.83,21.07,-11.62,1729431535950.0,0.0
-2.581856,-5.79063,-10.571491,60.48,25.969999,-19.389999,1729431535970.0,0.0
-2.452643,-0.870987,-7.456036,92.75,20.440001,-21.210001,1729431535989.0,0.0
-1.131805,-0.452243,-6.687939,31.360001,12.6,-9.31,1729431536013.0,0.0
-3.354738,-0.066999,-6.910471,5.53,8.05,0.14,1729431536037.0,0.0
-5.067998,-2.285146,-6.948757,28.630001,2.73,10.01,1729431536052.0,0.0
-2.629712,-3.072384,-7.745567,1.33,-8.19,-8.68,1729431536071.0,0.0
0.61017,-2.376073,-9.590433,-57.75,-18.620001,-34.369999,1729431536089.0,0.0
1.462015,-1.146162,-11.696117,-82.25,-21.84,-43.470001,1729431536111.0,0.0
0.859023,-0.878166,-13.861622,-51.52,-14.7,-24.57,1729431536132.0,0.0
-1.014557,-2.828316,-15.41935,-44.450001,12.81,-9.8,1729431536150.0,0.0
-2.340181,-3.108276,-13.58884,-2.59,34.650002,2.03,1729431536169.0,0.0
-2.579463,-3.292524,-12.964314,46.759998,53.200001,10.99,1729431536188.0,0.0
-3.570091,-1.820938,-14.581861,146.020004,52.150002,29.889999,1729431536211.0,0.0
-4.034299,-8.578269,-9.396614,254.660004,82.809998,43.259998,1729431536230.0,0.0
-4.876573,-2.699104,-7.13779,305.970001,63.420002,9.87,1729431536251.0,0.0
-5.85763,-3.15374,-5.694918,187.809998,57.75,29.469999,1729431536270.0,0.0
-3.206382,-8.422735,-9.308081,82.040001,63.279999,-10.78,1729431536290.0,0.0
-3.120241,-7.860423,-8.4347,147.559998,87.010002,10.36,1729431536313.0,0.0
-2.225325,-6.991827,-8.827123,252.350006,89.809998,32.689999,1729431536331.0,0.0
-0.430708,-5.946165,-7.111469,310.730011,92.75,38.150002,1729431536352.0,0.0
1.603191,-4.003192,-0.574277,288.679993,93.239998,45.360001,1729431536370.0,0.0
2.151148,-3.61077,1.485943,191.660004,65.940002,41.790001,1729431536393.0,0.0
0.105284,-4.295116,1.825724,54.25,52.080002,33.950001,1729431536414.0,0.0
-0.658026,-7.178468,0.028714,-18.969999,35.349998,28.35,1729431536431.0,0.0
2.096112,-9.047262,-2.667997,-26.880001,-4.69,16.24,1729431536451.0,0.0
3.761517,-7.278966,-4.007978,-8.26,-41.93,23.450001,1729431536470.0,0.0
1.091127,-4.807181,-5.776274,-57.959999,-37.73,21.91,1729431536491.0,0.0
-2.017149,-5.838487,-7.23111,-129.779999,-28.98,20.23,1729431536512.0,0.0
-1.79701,-9.671788,-10.004392,-116.900002,-40.810001,10.36,1729431536531.0,0.0
-2.191825,-12.15554,-9.341579,-76.300003,-30.030001,7.91,1729431536551.0,0.0
-4.4339,-13.51227,-7.683353,-81.830002,6.09,-2.24,1729431536574.0,0.0
-0.894916,-11.349157,-12.545568,-120.260002,7.28,-35.490002,1729431536591.0,0.0
-0.071785,-12.370893,-8.049455,103.25,28.280001,-18.83,1729431536615.0,0.0
-0.581456,-7.123433,-2.596212,157.850006,57.540001,-14.14,1729431536632.0,0.0
-1.457229,-4.285545,0.990629,125.440002,39.759998,0.91,1729431536651.0,0.0
-1.22034,-5.675776,1.347159,49.84,10.36,-17.360001,1729431536671.0,0.0
0.177069,-5.022535,-1.014557,-34.299999,-20.860001,-23.1,1729431536691.0,0.0
0.282353,-3.299703,-5.678168,-93.169998,-43.82,-12.25,1729431536712.0,0.0
0.31346,-3.555735,-9.200402,-143.710007,-53.200001,-10.08,1729431536734.0,0.0
0.155533,-5.347959,-9.018548,-175.630005,-46.27,-11.06,1729431536754.0,0.0
0.246461,-5.974878,-8.298308,-156.309998,-45.150002,-16.940001,1729431536770.0,0.0
0.729811,-5.694918,-10.530812,-118.440002,-53.41,-11.76,1729431536790.0,0.0
-0.416351,-5.257031,-13.392628,-134.610001,-38.5,-6.23,1729431536812.0,0.0
-4.381258,-5.199604,-12.691531,-110.879997,17.43,7.77,1729431536831.0,0.0
-6.616155,-11.770294,-9.363115,5.53,24.5,16.450001,1729431536850.0,0.0
-2.955136,-9.133404,-9.920642,33.599998,16.799999,10.85,1729431536871.0,0.0
-0.921237,-6.616155,-6.817152,87.220001,19.18,16.799999,1729431536890.0,0.0
-1.806581,-4.347759,-10.765309,77.559998,46.549999,26.040001,1729431536911.0,0.0
0.306281,-4.508078,-2.952743,53.200001,38.150002,43.540001,1729431536931.0,0.0
0.332602,-9.626326,-0.902094,19.460001,27.51,21.77,1729431536950.0,0.0
-1.18684,-7.752745,-3.337988,0.07,8.68,4.55,1729431536970.0,0.0
0.028714,-4.393222,-6.491727,-22.540001,-28.280001,-1.33,1729431536993.0,0.0
1.134198,-4.926822,-9.516255,-72.590004,-35.279999,-13.65,1729431537023.0,0.0
0.394816,-6.233303,-10.083356,-87.010002,-21.42,-19.32,1729431537032.0,0.0
-0.78006,-4.706682,-7.465607,-52.849998,-20.51,-18.690001,1729431537052.0,0.0
-0.643669,-4.063013,-7.183254,-78.540001,-31.5,-23.17,1729431537071.0,0.0
0.256032,-5.582455,-10.703095,-126.910004,-37.59,-23.73,1729431537092.0,0.0
-1.189233,-5.998806,-11.073983,-105.910004,-12.74,-9.38,1729431537112.0,0.0
-5.759524,-6.149554,-9.554541,-46.060001,12.67,13.79,1729431537132.0,0.0
-3.716053,-7.087541,-9.96132,-17.780001,-0.84,26.110001,1729431537151.0,0.0
-2.167897,-8.039884,-10.13839,6.58,10.57,27.09,1729431537173.0,0.0
-2.979064,-5.778666,-9.626326,44.66,26.460001,30.73,1729431537191.0,0.0
-2.352145,-8.451449,-9.300901,52.360001,33.810001,28.280001,1729431537214.0,0.0
-0.234497,-7.951349,-7.195218,103.949997,39.130001,5.46,1729431537232.0,0.0
-0.595813,-5.45085,-6.343372,122.010002,23.52,-7.56,1729431537251.0,0.0
0.698704,-6.183054,-6.393622,22.120001,13.37,-28.84,1729431537272.0,0.0
1.598405,-5.891129,-6.039484,22.68,2.24,-46.41,1729431537292.0,0.0
0.614955,-2.883351,-6.838687,46.549999,-15.12,-38.639999,1729431537313.0,0.0
-0.765703,-1.4668,-7.350751,41.93,-19.18,-21.84,1729431537333.0,0.0
-1.320838,-0.588634,-7.032506,-24.57,-17.360001,-9.66,1729431537354.0,0.0
-1.325624,-4.259224,-5.276174,-94.5,-17.639999,-5.04,1729431537371.0,0.0
0.636491,-5.895915,-10.339387,-155.050003,-32.900002,-19.110001,1729431537392.0,0.0
0.141177,-8.597411,-11.794223,-130.270004,-34.509998,-8.12,1729431537415.0,0.0
-3.883551,-6.733403,-8.523234,-38.009998,7.0,-4.83,1729431537431.0,0.0
-5.175675,-6.348158,-10.372886,18.76,5.39,23.870001,1729431537453.0,0.0
-1.162912,-8.243275,-9.229117,-14.42,7.98,17.780001,1729431537473.0,0.0
-1.045663,-9.442079,-9.753145,23.309999,25.059999,9.87,1729431537491.0,0.0
-1.892723,-7.63789,-6.58744,109.129997,23.940001,17.639999,1729431537512.0,0.0
-0.157926,-6.139983,-6.568298,108.919998,21.0,14.0,1729431537532.0,0.0
0.327817,-7.250252,-6.80758,61.459999,19.25,4.83,1729431537552.0,0.0
-0.100499,-7.594819,-5.237889,46.900002,6.86,-15.05,1729431537571.0,0.0
-0.315853,-5.082355,-5.996413,68.32,-9.45,-18.690001,1729431537592.0,0.0
-0.698704,-2.758924,-7.805387,43.540001,-27.65,-14.91,1729431537612.0,0.0
-1.598405,-3.668197,-8.628519,4.76,-19.18,-8.75,1729431537632.0,0.0
-2.07697,-3.708875,-8.190632,-17.5,-12.11,-2.87,1729431537653.0,0.0
-1.019342,-3.416951,-5.895915,-17.639999,-24.5,8.68,1729431537676.0,0.0
0.696311,-3.278167,-7.427321,-72.660004,-37.029999,19.460001,1729431537691.0,0.0
-0.612563,-6.74776,-11.550155,-104.580002,-23.73,24.43,1729431537713.0,0.0
-3.268596,-11.672189,-7.350751,-9.31,4.69,26.32,1729431537734.0,0.0
-4.012764,-9.731609,-11.904292,51.59,17.57,50.189999,1729431537751.0,0.0
-0.964308,-8.391629,-9.140583,95.480003,20.02,48.16,1729431537772.0,0.0
-2.270789,-8.937192,-5.099105,113.889999,46.970001,46.619999,1729431537791.0,0.0
-2.088934,-7.338787,-6.833901,81.830002,47.599998,27.02,1729431537813.0,0.0
-1.65344,-7.590034,-5.855237,60.689999,41.23,16.52,1729431537833.0,0.0
-0.366102,-9.315259,-5.319244,18.690001,23.24,-10.43,1729431537852.0,0.0
0.196211,-8.152347,-6.108876,35.77,3.36,-32.830002,1729431537873.0,0.0
0.665205,-4.551149,-6.087341,34.509998,-18.200001,-41.299999,1729431537893.0,0.0
-0.062213,-2.744568,-5.871986,-2.94,-39.689999,-44.52,1729431537914.0,0.0
-1.153341,-3.079563,-6.970293,-99.330002,-39.830002,-46.27,1729431537932.0,0.0
-1.074377,-4.4339,-8.114061,-157.430008,-42.139999,-47.389999,1729431537952.0,0.0
-0.5001,-5.694918,-11.679367,-143.5,-36.330002,-28.98,1729431537972.0,0.0
-1.335195,-5.833702,-10.504492,-56.07,-8.89,1.4,1729431537991.0,0.0
-5.611169,-5.058427,-5.520242,38.709999,16.379999,38.43,1729431538014.0,0.0
-6.9009,-6.331409,-8.724231,14.77,1.19,48.23,1729431538033.0,0.0
-2.103291,-10.286745,-10.265208,-33.32,14.77,29.190001,1729431538051.0,0.0
0.648455,-11.801401,-14.313866,66.360001,25.969999,38.220001,1729431538078.0,0.0
0.133998,-7.89153,-8.236095,239.050003,55.23,55.16,1729431538093.0,0.0
-3.314059,-4.991428,-2.139183,205.029999,65.379997,59.779999,1729431538111.0,0.0
-1.758725,-9.195618,-2.07697,39.830002,27.299999,-6.72,1729431538133.0,0.0
-0.380459,-11.464014,-4.630112,-43.259998,-2.17,-47.670002,1729431538151.0,0.0
0.289532,-10.277173,-6.573084,15.12,-32.759998,-61.040001,1729431538172.0,0.0
0.090927,-5.410172,-6.293124,99.889999,-51.869999,-56.209999,1729431538192.0,0.0
-0.074178,-1.923829,-6.82433,66.290001,-60.689999,-47.599998,1729431538213.0,0.0
-0.023928,-2.459821,-7.245467,-80.080002,-46.900002,-41.09,1729431538234.0,0.0
-0.430708,-5.685347,-6.927221,-102.690002,-36.119999,-20.02,1729431538253.0,0.0
-0.717847,-6.687939,-9.525827,-107.520004,-29.26,-5.74,1729431538272.0,0.0
-2.98385,-6.991827,-8.815158,-13.440001,-2.03,31.780001,1729431538293.0,0.0
-5.563312,-8.128418,-6.802795,51.029999,15.61,53.34,1729431538315.0,0.0
-4.510471,-8.365308,-7.652246,-12.95,14.91,37.66,1729431538333.0,0.0
-1.933401,-10.329816,-8.300702,-25.83,13.72,29.68,1729431538352.0,0.0
-0.442672,-9.640682,-10.447062,51.52,32.689999,31.5,1729431538373.0,0.0
-1.225125,-7.781459,-8.518449,135.169998,52.290001,50.330002,1729431538393.0,0.0
-1.282553,-6.02752,-4.21376,123.970001,62.790001,41.16,1729431538413.0,0.0
-1.490728,-9.396614,-0.949951,64.330002,51.66,26.460001,1729431538433.0,0.0
-0.978664,-11.47837,-2.175076,53.549999,26.25,-10.57,1729431538452.0,0.0
-0.430708,-10.035499,-2.708675,109.129997,-11.69,-18.83,1729431538473.0,0.0
0.18664,-7.068398,-4.713861,139.369995,-42.91,-22.469999,1729431538493.0,0.0
-0.512064,-5.02732,-5.98445,85.889999,-47.529999,-22.190001,1729431538513.0,0.0
-0.98345,-4.929214,-5.788238,-66.639999,-42.07,-28.49,1729431538533.0,0.0
-0.66999,-5.56092,-6.288338,-174.300003,-52.920002,-36.259998,1729431538554.0,0.0
-0.736989,-3.818945,-8.547162,-240.660004,-56.84,-42.490002,1729431538573.0,0.0
-1.339981,-7.13779,-7.326823,-201.320007,-41.790001,-19.25,1729431538593.0,0.0
-2.222932,-5.795416,-9.41815,-175.699997,-28.700001,-9.24,1729431538615.0,0.0
-3.974478,-7.580462,-9.731609,-126.559998,-11.55,23.59,1729431538634.0,0.0
-4.424329,-9.262616,-8.786445,-100.590004,12.67,20.09,1729431538653.0,0.0
-3.34038,-10.794022,-7.073184,-53.830002,15.89,16.24,1729431538674.0,0.0
-2.495714,-10.975878,-6.259624,21.84,19.25,10.01,1729431538694.0,0.0
-1.775474,-7.022934,-1.715654,92.260002,15.61,7.98,1729431538715.0,0.0
-1.744368,-6.498906,-2.598605,73.57,-10.43,9.73,1729431538737.0,0.0
-1.189233,-6.69751,-5.469993,2.94,-28.98,-12.81,1729431538753.0,0.0
-0.904487,-5.912664,-8.298308,-18.34,-39.970001,-16.870001,1729431538773.0,0.0
-0.421137,-6.396015,-10.040283,-17.360001,-39.48,-17.710001,1729431538798.0,0.0
-0.775275,-3.943372,-9.786645,4.34,-30.1,-14.0,1729431538814.0,0.0
-0.914058,-0.70349,-9.456435,-13.23,-17.639999,-4.9,1729431538898.0,0.0
-1.440479,-2.758924,-6.872187,-50.82,-22.540001,18.129999,1729431538903.0,0.0
-1.435694,-7.439285,-10.040283,-181.930008,-12.32,-1.47,1729431538904.0,0.0
-3.605984,-8.310273,-8.408379,-105.209999,2.59,8.82,1729431538907.0,0.0
-4.512863,-8.212167,-7.197611,17.290001,-7.7,31.15,1729431538914.0,0.0
-2.68714,-7.336394,-10.789237,17.85,0.49,27.65,1729431538934.0,0.0
-4.070191,-7.599605,-4.852644,59.920002,23.450001,32.27,1729431538953.0,0.0
-3.022135,-7.743174,-7.259824,48.369999,8.12,27.370001,1729431538974.0,0.0
-1.899901,-9.013763,-6.058627,60.34,18.620001,20.440001,1729431538993.0,0.0
-1.830509,-7.046863,-7.142576,80.919998,12.39,15.75,1729431539015.0,0.0
-1.734797,-5.32403,-5.927022,77.769997,11.27,6.65,1729431539035.0,0.0
-1.426122,-6.728617,-4.022335,20.790001,-3.99,5.74,1729431539053.0,0.0
-1.564906,-7.389036,-6.955935,-20.23,-20.16,-12.6,1729431539073.0,0.0
-2.711068,-8.090133,-7.460821,-32.689999,-25.48,-21.77,1729431539093.0,0.0
-2.335395,-8.295916,-7.843673,-7.0,-40.670002,-33.810001,1729431539114.0,0.0
-2.273181,-3.677768,-7.290931,1.33,-51.310001,-44.450001,1729431539133.0,0.0
-0.141177,-4.079762,-6.508478,-104.93,-60.34,-57.68,1729431539153.0,0.0
-0.988236,-4.826324,-7.673782,-175.419998,-49.91,-48.299999,1729431539173.0,0.0
-2.684747,-5.644669,-6.628119,-184.589996,-52.080002,-40.810001,1729431539193.0,0.0
-3.352344,-6.30748,-9.183653,-117.599998,-49.98,-46.759998,1729431539215.0,0.0
-3.318845,-5.465207,-11.184053,2.87,-42.560001,-7.0,1729431539234.0,0.0
-2.842674,-3.778267,-10.715059,34.16,-19.879999,19.67,1729431539253.0,0.0
-3.706482,-4.019942,-9.044869,5.25,12.18,21.700001,1729431539273.0,0.0
-6.788438,-7.776673,-2.29711,11.06,15.82,32.48,1729431539293.0,0.0
-6.403193,-5.632704,-6.85783,31.5,-3.71,17.5,1729431539315.0,0.0
-4.211368,-3.864408,-7.640282,-42.07,-26.950001,2.94,1729431539334.0,0.0
-2.828316,-5.587241,-9.889536,-133.770004,-10.71,-11.55,1729431539353.0,0.0
-2.100898,-7.429714,-12.136396,-140.630005,-4.2,-18.34,1729431539373.0,0.0
-1.837688,-7.860423,-12.078968,-52.709999,-0.28,-19.74,1729431539393.0,0.0
-2.07697,-5.45085,-11.538191,50.259998,8.4,-24.710001,1729431539416.0,0.0
-2.105684,-4.21376,-10.13839,91.910004,20.09,-20.299999,1729431539434.0,0.0
-1.579263,-3.773481,-6.9679,90.510002,27.65,-13.93,1729431539453.0,0.0
-3.012564,-4.321437,-4.656433,78.260002,25.9,-14.0,1729431539473.0,0.0
-4.532006,-3.299703,-4.591826,33.389999,11.27,-18.41,1729431539493.0,0.0
-3.993621,-2.725425,-4.831109,-29.4,-5.67,-21.77,1729431539515.0,0.0
-2.971886,-4.376472,-6.4343,-89.529999,-17.5,-27.09,1729431539534.0,0.0
-2.129612,-3.991228,-7.456036,-100.519997,-30.799999,-27.58,1729431539553.0,0.0
-2.512464,-4.165904,-7.877172,-76.510002,-37.59,-11.27,1729431539574.0,0.0
-3.311667,-3.26381,-10.109675,-71.889999,-31.639999,1.47,1729431539593.0,0.0
-3.359523,-5.132604,-11.748759,-72.379997,-19.809999,16.24,1729431539615.0,0.0
-3.163311,-6.98465,-12.294323,-63.209999,-4.2,21.210001,1729431539634.0,0.0
-2.790031,-6.094519,-12.126825,-20.93,5.74,16.66,1729431539654.0,0.0
-2.818745,-6.051448,-11.466407,38.779999,18.48,22.75,1729431539673.0,0.0
-2.792424,-6.793223,-9.506684,76.860001,29.540001,20.719999,1729431539693.0,0.0
-3.168097,-6.73101,-7.226324,93.169998,36.540001,12.04,1729431539714.0,0.0
-2.883351,-5.45085,-8.02792,100.800003,35.209999,3.71,1729431539736.0,0.0
-2.658426,-5.096712,-6.178268,92.889999,31.5,-3.85,1729431539754.0,0.0
-2.605784,-4.749753,-5.656632,50.889999,23.24,-18.620001,1729431539772.0,0.0
-1.971686,-4.646862,-5.692525,14.98,8.61,-28.280001,1729431539794.0,0.0
-1.753939,-3.04367,-5.618347,-6.44,-8.47,-36.470001,1729431539816.0,0.0
-1.660619,-2.311467,-6.520442,-18.41,-27.02,-28.280001,1729431539834.0,0.0
-1.548156,-4.122833,-7.233503,-45.220001,-39.41,-16.940001,1729431539852.0,0.0
-3.402594,-4.216154,-9.657433,-84.209999,-31.01,-12.39,1729431539875.0,0.0
-3.431308,-4.603791,-10.585848,-65.660004,-25.9,3.71,1729431539892.0,0.0
-3.242275,-5.615955,-11.765509,-22.120001,-10.43,8.54,1729431539916.0,0.0
-3.395415,-5.192425,-11.447264,13.02,2.8,15.12,1729431539934.0,0.0
-2.605784,-4.754539,-10.671989,24.710001,14.91,19.6,1729431539952.0,0.0
-2.11047,-6.015556,-8.932407,19.040001,24.99,19.389999,1729431539974.0,0.0
-3.024528,-6.484549,-8.77448,29.469999,26.950001,16.17,1729431539993.0,0.0
-3.323631,-6.948757,-8.606983,60.760002,30.380001,7.77,1729431540013.0,0.0
-2.909672,-6.343372,-7.286145,84.980003,30.52,0.49,1729431540034.0,0.0
-1.895115,-4.905287,-5.929415,70.139999,27.93,-8.4,1729431540053.0,0.0
-1.854438,-4.180261,-5.493921,43.400002,14.98,-8.26,1729431540074.0,0.0
-2.443072,-4.436293,-6.424729,11.2,9.8,-10.15,1729431540092.0,0.0
-2.589034,-4.606184,-5.292924,4.34,1.54,-11.83,1729431540121.0,0.0
-3.414558,-3.476771,-6.250053,19.809999,-9.38,-6.16,1729431540133.0,0.0
-2.835495,-3.562913,-5.089533,-44.869999,-31.780001,-3.15,1729431540154.0,0.0
-3.208775,-3.098706,-7.159326,-117.809998,-42.91,-6.65,1729431540173.0,0.0
-2.98385,-4.031906,-10.380065,-175.279999,-47.32,-6.65,1729431540193.0,0.0
-2.230111,-7.166504,-14.175081,-176.259995,-26.32,2.03,1729431540224.0,0.0
-2.09372,-7.334002,-14.199009,-84.629997,-6.02,3.22,1729431540234.0,0.0
-2.605784,-5.115855,-11.985649,38.150002,7.84,15.82,1729431540253.0,0.0
-2.215754,-3.555735,-8.781659,63.349998,18.620001,18.200001,1729431540274.0,0.0
-2.778067,-4.733003,-7.345965,26.32,23.52,20.440001,1729431540293.0,0.0
-3.199204,-6.867401,-8.152347,-0.49,26.32,9.87,1729431540314.0,0.0
-3.201597,-7.133004,-7.420143,20.58,20.16,0.42,1729431540334.0,0.0
-2.555535,-5.761917,-6.163911,55.650002,12.88,-4.41,1729431540355.0,0.0
-3.144169,-4.488935,-6.156733,61.25,-0.28,-7.0,1729431540374.0,0.0
-3.249453,-4.271189,-7.554141,20.370001,-1.26,-13.23,1729431540394.0,0.0
-2.792424,-3.835695,-7.733603,2.8,-3.99,-14.49,1729431540415.0,0.0
-2.045863,-3.213561,-7.903493,-5.46,-9.31,-13.440001,1729431540433.0,0.0
-2.242075,-3.742374,-6.029913,-60.41,-21.0,-22.469999,1729431540455.0,0.0
-2.586641,-2.694318,-7.633104,-53.200001,-31.5,-6.23,1729431540475.0,0.0
-2.730211,-2.885744,-11.365908,-80.709999,-26.389999,3.43,1729431540494.0,0.0
-2.742175,-5.297709,-13.562519,-90.790001,-6.23,11.41,1729431540515.0,0.0
-2.718246,-6.396015,-12.823137,-41.650002,12.18,14.91,1729431540536.0,0.0
-3.24706,-5.910272,-9.836893,20.16,21.35,12.04,1729431540553.0,0.0
-2.467,-4.668397,-8.173882,13.72,21.84,-0.28,1729431540574.0,0.0
-3.192025,-5.474778,-8.652447,-8.19,21.77,-3.5,1729431540596.0,0.0
-3.536592,-7.195218,-9.420543,-0.56,24.92,-10.57,1729431540616.0,0.0
-2.847459,-7.223931,-9.085547,42.0,25.27,-17.92,1729431540636.0,0.0
-2.146362,-3.596412,-7.372287,85.68,14.91,-16.799999,1729431540656.0,0.0
-2.419144,-1.598405,-6.91765,76.650002,4.69,-13.23,1729431540674.0,0.0
-2.79721,-2.225325,-6.910471,26.6,11.76,-10.01,1729431540695.0,0.0
-3.59402,-2.98385,-6.405586,37.099998,7.07,2.38,1729431540716.0,0.0
-2.043471,-1.033699,-7.286145,31.290001,-10.08,-5.11,1729431540741.0,0.0
-1.256232,-1.179662,-7.633104,-50.119999,-28.559999,-4.69,1729431540755.0,0.0
-2.282753,-1.294517,-9.360723,-96.949997,-33.459999,-4.69,1729431540775.0,0.0
-2.809174,-3.5007,-12.894921,-120.75,-26.74,8.47,1729431540794.0,0.0
-2.438286,-6.735795,-13.562519,-94.220001,-7.0,12.04,1729431540817.0,0.0
-3.369094,-5.943772,-12.004791,-26.040001,5.18,13.440001,1729431540840.0,0.0
-3.701697,-4.259224,-10.25803,7.7,13.440001,9.87,1729431540855.0,0.0
-3.404987,-4.046263,-11.988041,8.68,21.629999,12.67,1729431540874.0,0.0
-3.926622,-5.051248,-11.705689,43.330002,35.279999,17.08,1729431540895.0,0.0
-4.039084,-6.56112,-12.296716,107.099998,48.720001,18.200001,1729431540917.0,0.0
-4.316652,-4.098906,-5.666204,190.050003,62.510002,23.59,1729431540935.0,0.0
-4.0008,-2.646462,-7.601997,203.279999,50.400002,29.120001,1729431540955.0,0.0
-4.041477,-6.293124,-9.339187,170.800003,69.090004,32.900002,1729431540974.0,0.0
-2.490928,-6.101698,-4.491328,163.449997,71.190002,31.57,1729431540996.0,0.0
-2.897708,-4.881358,-3.122634,200.479996,62.650002,45.220001,1729431541016.0,0.0
-3.058028,-7.862815,-6.750153,187.949997,66.639999,26.040001,1729431541036.0,0.0
-2.727818,-9.025726,-4.981857,184.240005,66.010002,17.08,1729431541054.0,0.0
-0.964308,-7.972885,-2.287539,173.529999,42.84,20.58,1729431541075.0,0.0
0.658026,-5.228317,-2.038685,89.879997,-3.99,-2.66,1729431541095.0,0.0
0.397209,-5.4676,-2.938386,12.67,-0.84,-1.33,1729431541118.0,0.0
-0.059821,-7.45125,-4.225725,-63.07,-8.12,-10.92,1729431541136.0,0.0
0.0335,-9.547362,-5.568098,-69.790001,-19.18,-20.58,1729431541154.0,0.0
-0.014357,-11.131411,-4.800002,-20.65,-31.57,-28.42,1729431541174.0,0.0
-0.0335,-8.65484,-3.816552,-20.23,-52.779999,-51.52,1729431541195.0,0.0
-1.007378,-6.276374,-6.037091,-41.860001,-66.919998,-56.07,1729431541216.0,0.0
-1.368695,-7.838887,-9.700503,-50.330002,-66.919998,-45.290001,1729431541235.0,0.0
-1.619941,-10.195816,-11.255837,-6.3,-35.91,-33.110001,1729431541254.0,0.0
