acc_x,acc_y,acc_z,gyr_x,gyr_y,gyr_z,timestamp,label
-8.970692,-5.326423,-8.757731,155.399994,92.190002,0.42,1729416164696.0,0.0
-9.84168,-3.940979,-7.898707,250.320007,103.040001,4.62,1729416164698.0,0.0
-9.997212,-4.476971,-3.917051,315.700012,109.900002,12.25,1729416164698.0,0.0
-10.195816,-3.15374,-4.07737,370.51001,101.989998,25.83,1729416164698.0,0.0
-9.35833,-4.587041,-4.115655,408.940002,81.480003,14.63,1729416164699.0,0.0
-8.705089,-4.563113,-2.282753,460.459991,59.150002,15.61,1729416164713.0,0.0
-8.693125,-4.421937,-0.832702,553.630005,28.700001,25.620001,1729416164733.0,0.0
-8.228917,-2.935993,1.237089,537.320007,5.04,17.710001,1729416164753.0,0.0
-6.386444,-2.775674,5.290531,358.610016,-8.68,12.25,1729416164774.0,0.0
-4.101298,-4.807181,4.21376,125.93,-6.93,-2.59,1729416164794.0,0.0
-3.919443,-9.109475,4.151547,-29.68,-16.309999,-1.75,1729416164814.0,0.0
-3.739982,-9.765109,2.397608,-108.010002,-30.450001,5.25,1729416164833.0,0.0
-2.830709,-8.003991,1.710868,-157.080002,-44.939999,4.62,1729416164853.0,0.0
-1.660619,-6.623333,-0.937986,-246.259995,-52.009998,3.64,1729416164873.0,0.0
-1.122234,-8.551948,-3.287738,-276.570007,-43.68,12.67,1729416164893.0,0.0
-1.701297,-10.356135,-4.742575,-202.440002,-22.82,17.780001,1729416164914.0,0.0
-3.366701,-11.291731,-3.144169,-87.220001,0.63,26.040001,1729416164933.0,0.0
-3.850052,-10.741381,-2.574677,25.969999,14.07,32.200001,1729416164953.0,0.0
-4.204189,-10.092925,-0.985843,85.470001,24.780001,33.040001,1729416164974.0,0.0
-5.407779,-10.181459,1.160519,58.380001,31.780001,35.560001,1729416164993.0,0.0
-5.221139,-11.320443,1.194018,-25.620001,9.03,9.66,1729416165015.0,0.0
-5.800202,-7.941778,1.45005,-44.73,5.67,5.74,1729416165033.0,0.0
-5.13739,-8.154739,-1.318445,-114.660004,-6.09,-11.2,1729416165052.0,0.0
-4.101298,-8.628519,-5.096712,-133.770004,-2.94,-16.309999,1729416165074.0,0.0
-4.67079,-9.217153,-6.333801,-134.470001,16.66,-14.07,1729416165094.0,0.0
-5.032106,-8.389235,-2.883351,-152.600006,25.969999,-20.09,1729416165114.0,0.0
-6.082555,-6.374479,1.543371,-178.080002,15.89,-15.96,1729416165133.0,0.0
-4.34058,-7.075576,-1.85683,-246.889999,1.05,-27.93,1729416165153.0,0.0
-3.055635,-2.904887,-2.510071,-363.929993,-7.42,-42.560001,1729416165174.0,0.0
-3.220739,-6.336195,-2.199004,-424.480011,-16.1,-39.900002,1729416165194.0,0.0
-1.765903,-5.907879,-3.4672,-448.279999,-34.09,-38.43,1729416165213.0,0.0
-1.404587,-2.935993,-6.094519,-452.899994,-63.77,-26.74,1729416165233.0,0.0
-0.863809,-1.804188,-14.033905,-482.720001,-71.889999,-11.9,1729416165253.0,0.0
-3.290131,-6.326623,-14.703895,-408.450012,-34.09,6.44,1729416165275.0,0.0
-4.398008,-8.169096,-14.11526,-131.809998,-26.040001,-7.42,1729416165295.0,0.0
-5.010571,-4.297509,-11.358729,140.839996,-27.370001,-9.73,1729416165315.0,0.0
-5.412565,-2.478964,-10.583455,214.270004,-17.01,-23.73,1729416165333.0,0.0
-8.226524,5.379066,-3.775874,83.510002,-18.48,-14.56,1729416165353.0,0.0
-6.556334,-1.014557,-5.175675,-76.230003,-16.66,13.79,1729416165375.0,0.0
-7.161718,-6.317052,-7.032506,-110.739998,-12.74,3.5,1729416165395.0,0.0
-9.140583,-3.696911,-8.729016,14.0,-26.880001,0.42,1729416165415.0,0.0
-8.894121,-4.316652,-9.786645,74.830002,-21.77,-13.09,1729416165433.0,0.0
-8.848659,-2.517249,-11.085947,116.340004,10.29,-9.17,1729416165455.0,0.0
-9.710074,-2.277967,-9.923036,174.860001,34.720001,6.37,1729416165478.0,0.0
-8.635696,-2.612962,-9.58804,188.440002,65.029999,7.91,1729416165493.0,0.0
-8.195417,-1.811367,-7.721639,220.710007,75.529999,14.98,1729416165516.0,0.0
-7.695317,-4.567898,-4.496114,216.369995,71.82,5.95,1729416165532.0,0.0
-5.895915,-5.264209,-3.694518,174.300003,62.720001,-10.85,1729416165555.0,0.0
-4.658825,-5.503492,-2.641676,147.770004,39.200001,-9.31,1729416165574.0,0.0
-3.18724,-1.947758,-1.935793,91.349998,-2.03,8.47,1729416165595.0,0.0
-3.206382,-4.443472,-2.919244,15.82,-17.290001,26.460001,1729416165614.0,0.0
-3.39063,-6.661618,-5.163712,-19.74,-25.48,34.369999,1729416165633.0,0.0
-3.699304,-7.216753,-5.034499,42.560001,-42.349998,50.470001,1729416165653.0,0.0
-4.816752,-8.52802,-4.601398,165.690002,-50.049999,71.540001,1729416165674.0,0.0
-5.630312,-8.116454,-3.407379,235.899994,-30.17,70.07,1729416165695.0,0.0
-6.250053,-7.838887,-3.646662,220.710007,-22.540001,86.730003,1729416165714.0,0.0
-6.656832,-10.813165,-4.278367,209.580002,-9.38,96.669998,1729416165736.0,0.0
-7.082755,-12.607781,-4.424329,233.800003,1.12,79.519997,1729416165754.0,0.0
-7.197611,-10.633704,-3.948158,283.079987,3.29,59.360001,1729416165775.0,0.0
-6.630512,-8.449057,-2.589034,298.970001,8.12,44.799999,1729416165796.0,0.0
-5.977271,-7.805387,-1.452443,244.440002,11.41,25.9,1729416165814.0,0.0
-5.910272,-7.960921,-0.55992,175.770004,14.63,9.24,1729416165834.0,0.0
-5.936593,-8.49452,0.090927,120.75,14.7,-2.66,1729416165855.0,0.0
-5.69731,-8.271988,0.332602,65.029999,9.8,-18.27,1729416165875.0,0.0
-5.754738,-8.236095,0.196211,7.35,5.95,-30.17,1729416165893.0,0.0
-5.979663,-8.420342,0.052642,-44.450001,2.87,-38.080002,1729416165916.0,0.0
-6.171089,-8.523234,-0.586242,-86.730003,3.64,-46.900002,1729416165933.0,0.0
-6.472585,-8.286345,-1.320838,-127.190002,8.19,-57.610001,1729416165955.0,0.0
-6.455836,-8.216952,-2.143969,-161.630005,13.3,-66.290001,1729416165975.0,0.0
-6.216553,-8.597411,-2.959922,-177.940002,20.51,-70.209999,1729416165993.0,0.0
-6.142376,-9.619147,-3.582055,-169.610001,29.33,-73.150002,1729416166014.0,0.0
-5.778666,-8.970692,-4.254438,-147.839996,32.41,-85.68,1729416166033.0,0.0
-5.082355,-8.056634,-4.979464,-145.740005,34.09,-88.059998,1729416166052.0,0.0
-4.539185,-7.992027,-5.379066,-141.610001,45.080002,-80.43,1729416166075.0,0.0
-4.115655,-9.018548,-6.173482,-115.360001,56.630001,-74.550003,1729416166093.0,0.0
-3.988836,-8.834301,-6.594619,-67.620003,65.309998,-72.800003,1729416166115.0,0.0
-3.689733,-7.700103,-6.278766,-22.540001,70.349998,-67.690002,1729416166133.0,0.0
-2.737389,-7.13779,-6.309873,0.98,73.57,-59.010002,1729416166154.0,0.0
-1.679761,-7.219146,-5.960521,7.49,77.629997,-46.970001,1729416166175.0,0.0
-1.509871,-7.269395,-5.087141,-3.08,85.050003,-34.299999,1729416166193.0,0.0
-1.835295,-6.987042,-4.491328,-30.030001,87.010002,-23.309999,1729416166214.0,0.0
-1.727618,-6.699903,-4.551149,-65.730003,81.760002,-15.190001,1729416166233.0,0.0
-1.672583,-6.314659,-5.091926,-98.559998,74.199997,-8.12,1729416166254.0,0.0
-2.100898,-6.108876,-5.814559,-124.529999,70.769997,-2.1,1729416166273.0,0.0
-2.600998,-6.144768,-6.692725,-138.389999,65.519997,3.36,1729416166295.0,0.0
-2.912065,-5.67099,-7.262216,-132.860001,53.34,6.51,1729416166315.0,0.0
-3.419343,-5.785845,-7.635497,-123.480003,50.68,6.37,1729416166334.0,0.0
-3.960121,-6.297909,-7.302894,-94.220001,49.07,1.61,1729416166353.0,0.0
-4.345366,-6.218946,-6.628119,-63.630001,41.860001,-3.01,1729416166373.0,0.0
-4.493721,-5.958128,-6.135197,-36.330002,38.849998,-6.93,1729416166394.0,0.0
-4.663611,-5.85763,-6.156733,-15.12,34.09,-10.08,1729416166415.0,0.0
-4.627719,-4.582255,-6.295516,-17.57,23.73,-12.6,1729416166434.0,0.0
-4.302295,-4.809574,-6.314659,-47.880001,24.219999,-8.68,1729416166454.0,0.0
-3.625126,-6.099305,-6.192625,-66.709999,27.16,-5.46,1729416166483.0,0.0
-3.440879,-6.250053,-6.123233,-50.400002,22.469999,-3.01,1729416166493.0,0.0
-3.132205,-5.850451,-6.558727,-33.110001,15.54,-2.52,1729416166515.0,0.0
-2.388037,-5.345565,-7.140182,-23.940001,10.5,-1.61,1729416166533.0,0.0
-2.103291,-5.185246,-7.350751,-16.870001,8.05,1.05,1729416166552.0,0.0
-2.337788,-4.864608,-7.276574,-15.190001,3.92,2.59,1729416166574.0,0.0
-2.371287,-5.230711,-7.207181,-23.52,2.31,3.85,1729416166594.0,0.0
-1.885544,-5.486742,-7.4345,-25.76,-2.87,2.03,1729416166614.0,0.0
-1.722832,-5.211568,-8.070991,-16.73,-9.52,-1.05,1729416166631.0,0.0
-1.562513,-4.969893,-8.446664,-9.66,-13.440001,-1.82,1729416166653.0,0.0
-1.378266,-5.525027,-8.867801,-2.31,-11.97,-2.59,1729416166672.0,0.0
-1.165305,-5.206782,-8.518449,15.75,-15.12,-2.73,1729416166692.0,0.0
-1.464408,-5.168497,-8.319844,21.98,-17.01,-1.82,1729416166713.0,0.0
-1.789831,-4.587041,-8.080563,15.33,-17.710001,0.63,1729416166733.0,0.0
-1.74676,-4.902894,-8.260024,2.31,-16.450001,4.76,1729416166752.0,0.0
-1.835295,-4.795217,-8.664411,3.29,-19.74,6.37,1729416166774.0,0.0
-2.081756,-5.273781,-9.623933,-2.8,-19.74,6.72,1729416166794.0,0.0
-2.634498,-5.678168,-10.336994,-12.53,-12.95,3.22,1729416166816.0,0.0
-2.766103,-4.993821,-9.286544,-9.52,-5.53,1.75,1729416166832.0,0.0
-2.924029,-4.48415,-8.312666,-10.64,-1.12,0.35,1729416166852.0,0.0
-2.811567,-5.257031,-8.520842,-19.67,2.73,-3.29,1729416166873.0,0.0
-2.723032,-5.386244,-8.762517,-18.9,4.27,-4.62,1729416166895.0,0.0
-2.490928,-5.225924,-8.95155,-19.530001,6.72,-6.02,1729416166914.0,0.0
-2.275574,-5.17089,-8.9683,-17.639999,9.94,-6.44,1729416166933.0,0.0
-2.086541,-5.175675,-8.693125,-7.42,12.18,-4.83,1729416166955.0,0.0
-2.079363,-5.072784,-8.140383,4.34,12.53,-3.36,1729416166973.0,0.0
-1.849652,-4.934,-8.013563,13.23,10.64,-2.03,1729416166994.0,0.0
-1.67019,-4.888536,-8.02792,13.3,8.12,-0.63,1729416167014.0,0.0
-1.67019,-5.07757,-8.183454,4.9,4.97,0.77,1729416167032.0,0.0
-1.801795,-4.955536,-8.185846,6.79,1.96,0.77,1729416167052.0,0.0
-1.938186,-4.931608,-8.224132,8.89,0.56,0.91,1729416167075.0,0.0
-2.112862,-4.936393,-8.370094,8.47,-0.28,0.98,1729416167094.0,0.0
-2.275574,-4.902894,-8.650054,5.46,-1.75,0.35,1729416167113.0,0.0
-2.443072,-5.003392,-8.580662,5.46,0.14,-0.98,1729416167133.0,0.0
-2.299503,-5.000999,-8.348558,1.54,2.03,-1.4,1729416167153.0,0.0
-1.919044,-4.931608,-8.489735,4.2,2.03,-2.94,1729416167173.0,0.0
-1.708475,-4.73061,-8.530413,3.01,0.91,-3.36,1729416167197.0,0.0
-1.765903,-4.828716,-8.585447,-1.82,1.26,-2.87,1729416167213.0,0.0
-2.108077,-5.008178,-8.518449,-4.06,0.63,-2.66,1729416167233.0,0.0
-2.282753,-5.032106,-8.322237,-3.78,-0.28,-3.29,1729416167253.0,0.0
-2.471786,-5.089533,-8.449057,-4.2,-0.28,-3.85,1729416167273.0,0.0
-2.366502,-5.024928,-8.484949,-2.59,0.42,-4.27,1729416167294.0,0.0
-2.210968,-4.759324,-8.30788,0.07,0.84,-3.5,1729416167313.0,0.0
-2.239682,-4.895715,-7.867601,-1.19,2.38,-2.17,1729416167332.0,0.0
-2.337788,-5.242674,-7.520642,-0.21,2.94,-1.61,1729416167352.0,0.0
-2.371287,-5.091926,-7.582855,6.86,-2.1,-1.12,1729416167373.0,0.0
-2.277967,-4.905287,-7.76471,6.65,-8.96,-0.84,1729416167392.0,0.0
-2.239682,-5.115855,-7.858029,1.4,-14.07,-0.21,1729416167415.0,0.0
-2.062613,-5.221139,-7.91785,-1.26,-17.01,-0.42,1729416167433.0,0.0
-1.923829,-5.079963,-8.085347,5.67,-24.08,1.4,1729416167463.0,0.0
-2.062613,-4.728218,-8.38445,5.46,-28.84,0.7,1729416167474.0,0.0
-2.005185,-4.910072,-8.609376,-7.0,-27.16,3.92,1729416167492.0,0.0
-2.050649,-5.393422,-8.882158,-10.22,-23.450001,6.02,1729416167513.0,0.0
-2.388037,-5.058427,-8.695518,3.15,-22.120001,5.88,1729416167532.0,0.0
-2.340181,-4.546363,-8.903693,12.25,-23.030001,5.46,1729416167554.0,0.0
-2.40718,-4.644469,-9.085547,5.18,-18.969999,5.32,1729416167574.0,0.0
-2.589034,-5.003392,-8.956335,-0.21,-14.7,5.46,1729416167592.0,0.0
-3.005385,-5.347959,-8.920443,-0.98,-10.22,3.15,1729416167614.0,0.0
-3.163311,-5.218746,-8.786445,3.78,-7.0,0.42,1729416167631.0,0.0
-3.084348,-4.859823,-8.504091,10.36,-7.28,-0.91,1729416167652.0,0.0
-3.184847,-4.931608,-8.185846,8.47,-5.46,-1.82,1729416167673.0,0.0
-3.416951,-5.261817,-7.865208,6.09,-4.34,-2.66,1729416167692.0,0.0
-3.845266,-5.326423,-7.69771,6.86,-3.85,-6.58,1729416167711.0,0.0
-3.991228,-5.041678,-7.274181,8.19,-3.92,-9.31,1729416167733.0,0.0
-4.015156,-5.048856,-6.932007,6.37,-3.85,-10.85,1729416167753.0,0.0
-4.132405,-5.063213,-6.678369,0.21,-3.78,-12.32,1729416167772.0,0.0
-4.158726,-5.099105,-6.558727,-7.0,-3.57,-14.07,1729416167792.0,0.0
-4.122833,-5.034499,-6.628119,-8.68,-5.32,-15.96,1729416167815.0,0.0
-4.405186,-4.843073,-6.948757,-13.3,-6.58,-19.879999,1729416167832.0,0.0
-4.220939,-4.527221,-7.56132,-17.99,-9.66,-24.43,1729416167853.0,0.0
-4.034299,-4.192225,-7.84128,-25.620001,-14.63,-26.18,1729416167872.0,0.0
-4.240082,-4.596612,-8.157133,-45.220001,-14.28,-28.210001,1729416167893.0,0.0
-4.496114,-4.802395,-8.236095,-55.650002,-7.63,-32.060001,1729416167914.0,0.0
-4.65404,-4.563113,-7.999206,-48.439999,-2.24,-32.48,1729416167933.0,0.0
-3.972085,-4.354938,-8.685946,-32.34,-4.34,-33.459999,1729416167951.0,0.0
-3.608376,-3.290131,-9.006584,-30.52,-5.25,-29.190001,1729416167973.0,0.0
-3.598805,-3.122634,-8.796017,-32.619999,-3.5,-21.91,1729416167993.0,0.0
-3.940979,-3.227918,-6.98465,-12.95,-12.6,-17.01,1729416168012.0,0.0
-2.007578,2.012364,-1.01695,-33.529999,-66.360001,3.99,1729416168033.0,0.0
-3.48395,-9.868,-6.9009,-96.459999,-55.510002,-3.78,1729416168051.0,0.0
-5.838487,-6.960721,-9.865608,54.599998,-81.830002,-23.379999,1729416168074.0,0.0
-3.464807,0.947558,-6.094519,98.0,-94.43,-4.62,1729416168094.0,0.0
-3.017349,-3.507878,-8.616554,-22.960001,-84.419998,8.96,1729416168112.0,0.0
-2.679961,-9.533006,-11.586047,-90.720001,-60.130001,-4.34,1729416168131.0,0.0
-1.249053,-6.793223,-8.173882,-11.62,-69.019997,-13.65,1729416168152.0,0.0
-1.596013,-6.635297,-7.594819,12.25,-70.980003,-25.34,1729416168172.0,0.0
-4.074977,-4.161119,-5.594419,-12.67,-71.540001,-32.900002,1729416168195.0,0.0
-3.938586,0.366102,-4.079762,-46.130001,-89.809998,-22.75,1729416168214.0,0.0
-0.478565,-2.770889,-6.417551,-137.199997,-96.459999,-14.98,1729416168231.0,0.0
1.098306,-2.866602,-11.282159,-161.559998,-110.040001,-10.01,1729416168251.0,0.0
-0.689133,-2.416751,-15.536596,-156.029999,-110.599998,-14.0,1729416168274.0,0.0
-3.156133,-2.883351,-19.089939,-155.960007,-78.75,-11.48,1729416168292.0,0.0
-6.144768,-5.469993,-17.197216,-70.07,-34.02,0.7,1729416168313.0,0.0
-14.634504,-1.538585,-6.26441,1.82,-8.33,6.02,1729416168332.0,0.0
-5.139783,-7.190433,-13.337594,-24.219999,29.889999,-6.3,1729416168351.0,0.0
-7.700103,-3.146562,-11.956935,31.639999,49.560001,-2.38,1729416168372.0,0.0
-8.879765,-1.634298,-10.96152,89.459999,71.330002,-0.77,1729416168393.0,0.0
-6.896115,-1.404587,-9.023334,99.330002,95.129997,0.07,1729416168413.0,0.0
-5.529813,-2.392823,-2.888137,81.970001,89.040001,-0.63,1729416168431.0,0.0
-4.266403,-3.929015,-4.122833,2.52,69.510002,-16.870001,1729416168453.0,0.0
-3.395415,-4.895715,-6.410372,-44.52,54.529999,-30.52,1729416168475.0,0.0
-3.182454,-4.62054,-6.111269,-11.48,37.029999,-41.790001,1729416168492.0,0.0
-4.847858,-3.206382,-7.779066,17.08,24.99,-41.509998,1729416168521.0,0.0
-3.948158,-3.136991,-7.707282,29.540001,23.379999,-37.450001,1729416168533.0,0.0
-1.59362,-2.050649,-7.255038,19.460001,7.07,-42.349998,1729416168552.0,0.0
-1.404587,-1.182054,-7.41775,-47.040001,-6.44,-39.34,1729416168572.0,0.0
-1.902294,-2.471786,-8.587841,-91.349998,-16.870001,-36.540001,1729416168593.0,0.0
-3.60359,-2.024328,-8.889337,-102.340004,-24.780001,-40.599998,1729416168612.0,0.0
-5.297709,-1.124627,-9.899107,-88.760002,-24.360001,-34.439999,1729416168632.0,0.0
-6.920043,1.622334,-10.743774,-35.84,-16.66,-15.75,1729416168651.0,0.0
-4.993821,3.404987,-10.406385,24.15,-3.57,16.030001,1729416168672.0,0.0
-5.740381,-3.768696,-8.255238,10.36,5.46,44.380001,1729416168693.0,0.0
-4.84068,-5.374279,-12.21536,-0.14,14.28,45.639999,1729416168712.0,0.0
-3.907479,-2.991028,-11.334801,63.91,28.07,43.68,1729416168731.0,0.0
-3.68734,-2.22054,-10.035499,104.019997,40.32,57.470001,1729416168751.0,0.0
-2.555535,-5.864808,-7.633104,106.610001,56.0,65.029999,1729416168773.0,0.0
-2.897708,-8.413164,-3.342773,107.169998,48.790001,50.470001,1729416168793.0,0.0
-3.601198,-10.516455,-2.837888,61.25,26.74,14.0,1729416168812.0,0.0
-2.859423,-7.960921,-5.867201,7.07,4.76,-16.59,1729416168831.0,0.0
-1.06002,-5.666204,-7.496714,-20.65,-10.64,-30.73,1729416168851.0,0.0
-1.605584,-3.089134,-8.729016,-35.560001,-22.26,-32.060001,1729416168872.0,0.0
-3.931407,-1.914258,-9.209974,-28.84,-29.82,-28.559999,1729416168891.0,0.0
-4.776074,-0.789631,-9.032906,-23.030001,-38.5,-35.279999,1729416168912.0,0.0
-7.133004,-1.909473,-11.239087,-70.139999,-28.0,-41.02,1729416168931.0,0.0
-7.310073,0.978664,-11.277373,-44.170002,-14.14,-40.670002,1729416168951.0,0.0
-6.228518,3.479164,-10.260423,-2.87,-1.05,-23.17,1729416168971.0,0.0
-5.498707,2.134398,-7.755138,-14.84,7.0,-0.7,1729416168992.0,0.0
-6.269196,-1.892723,-9.23151,-47.459999,8.96,2.8,1729416169012.0,0.0
-4.993821,-1.411765,-10.439885,-33.459999,14.0,3.22,1729416169032.0,0.0
-3.759124,-1.485943,-10.057034,43.959999,27.790001,28.91,1729416169051.0,0.0
-2.876173,-4.04387,-9.296116,98.910004,44.310001,55.93,1729416169073.0,0.0
-1.940579,-3.895515,-6.594619,134.960007,49.420002,73.989998,1729416169092.0,0.0
-0.782453,-7.463214,-2.959922,90.160004,49.560001,70.139999,1729416169113.0,0.0
-0.299103,-13.067204,-0.725025,40.529999,18.969999,42.84,1729416169130.0,0.0
-1.100698,-13.835299,-6.128019,31.08,-12.18,-3.01,1729416169151.0,0.0
-1.818545,-7.719246,-5.32403,50.82,-43.610001,-33.110001,1729416169172.0,0.0
-1.399801,-4.259224,-7.240681,-18.34,-51.029999,-36.259998,1729416169191.0,0.0
-3.744767,-5.678168,-8.329416,-62.93,-51.73,-35.560001,1729416169212.0,0.0
-4.898108,-1.694118,-10.703095,-40.32,-61.810001,-42.349998,1729416169236.0,0.0
-7.257431,-4.130012,-11.308479,-20.65,-62.23,-52.709999,1729416169251.0,0.0
-7.692925,1.028914,-10.762917,-8.96,-49.07,-61.389999,1729416169271.0,0.0
-8.760124,1.818545,-11.614761,-25.9,-28.210001,-52.220001,1729416169291.0,0.0
-7.642675,0.981057,-9.829715,-31.219999,-5.81,-33.670002,1729416169311.0,0.0
-6.73101,0.528814,-8.590233,-36.889999,2.66,-20.02,1729416169330.0,0.0
-7.692925,-1.26341,-8.099705,-53.619999,11.62,-14.84,1729416169351.0,0.0
-6.23091,-0.07657,-9.351151,-12.74,18.969999,5.81,1729416169372.0,0.0
-4.261617,-2.737389,-10.470992,22.960001,42.77,34.369999,1729416169390.0,0.0
-3.976871,-1.567299,-8.276773,102.199997,52.920002,58.73,1729416169413.0,0.0
-1.416551,-1.835295,-7.345965,107.449997,58.099998,78.959999,1729416169431.0,0.0
0.370888,-7.970492,-5.441278,51.66,60.34,80.360001,1729416169450.0,0.0
-0.337388,-13.706088,-1.347159,32.549999,33.040001,47.950001,1729416169474.0,0.0
-2.486143,-13.9358,-1.777867,-0.56,-8.4,-9.31,1729416169490.0,0.0
1.055235,-4.608576,-7.970492,-46.619999,-42.91,-42.07,1729416169512.0,0.0
-0.241675,-5.106283,-9.159724,-116.550003,-47.040001,-32.970001,1729416169532.0,0.0
-4.249653,-8.635696,-9.851252,-114.590004,-44.240002,-25.9,1729416169550.0,0.0
-5.290531,-4.194618,-9.894321,-57.889999,-46.34,-45.290001,1729416169572.0,0.0
-9.020942,-3.306881,-10.700702,-46.970001,-46.060001,-45.080002,1729416169591.0,0.0
-8.750552,-1.473979,-10.135997,-42.84,-16.870001,-66.639999,1729416169685.0,0.0
-7.470392,3.024528,-9.84168,19.67,-13.16,-56.349998,1729416169687.0,0.0
-6.580262,3.110669,-9.255438,-36.259998,3.22,-38.150002,1729416169687.0,0.0
-6.039484,-0.232104,-8.535198,-70.629997,12.46,-20.440001,1729416169687.0,0.0
-6.221339,-1.347159,-10.006784,-50.400002,12.11,-18.9,1729416169720.0,0.0
-5.422136,-0.957129,-9.497113,10.64,18.41,5.25,1729416169720.0,0.0
-3.87398,-1.986043,-10.363315,58.099998,36.189999,38.779999,1729416169730.0,0.0
-2.538785,-2.452643,-9.645468,110.459999,41.860001,65.800003,1729416169750.0,0.0
-2.18704,-0.241675,-8.532805,132.509995,42.209999,88.129997,1729416169771.0,0.0
-0.428315,-4.766503,-8.77448,52.57,59.010002,100.519997,1729416169790.0,0.0
0.239282,-10.545169,-5.4006,39.200001,59.849998,88.340004,1729416169811.0,0.0
-0.914058,-11.160125,-1.083949,32.060001,28.35,42.139999,1729416169831.0,0.0
-1.691726,-10.786844,-3.07717,-26.18,-4.83,7.0,1729416169850.0,0.0
-3.445665,-8.238488,-6.503692,-93.309998,-29.540001,-27.51,1729416169871.0,0.0
-2.766103,-8.099705,-10.461421,-105.769997,-33.32,-46.200001,1729416169891.0,0.0
-3.345166,-6.259624,-14.708681,-34.580002,-35.98,-51.170002,1729416169913.0,0.0
-8.109276,1.457229,-9.535398,0.77,-43.540001,-62.580002,1729416169931.0,0.0
-6.352944,-3.227918,-10.810772,-49.209999,-28.700001,-74.900002,1729416169950.0,0.0
-7.116255,0.734596,-10.346564,-31.5,-21.35,-80.919998,1729416169971.0,0.0
-7.077969,1.852045,-10.829915,-30.799999,-10.08,-69.650002,1729416169990.0,0.0
-6.250053,2.531606,-7.956135,-49.91,5.67,-56.91,1729416170011.0,0.0
-6.159126,-0.902094,-9.74836,-8.82,10.22,-36.470001,1729416170030.0,0.0
-5.134997,-0.495314,-10.564312,27.02,21.629999,2.59,1729416170050.0,0.0
-4.383651,-0.926022,-11.916256,73.290001,40.18,34.299999,1729416170071.0,0.0
-2.383251,-1.634298,-10.571491,119.980003,56.91,62.23,1729416170090.0,0.0
-1.581656,0.62692,-9.547362,172.830002,65.730003,80.290001,1729416170111.0,0.0
0.011964,-3.814159,-6.15434,141.960007,75.389999,94.849998,1729416170131.0,0.0
-0.741775,-12.705888,0.37328,104.370003,73.010002,87.57,1729416170151.0,0.0
-1.459622,-15.613168,-0.926022,62.02,31.290001,38.709999,1729416170171.0,0.0
-3.273381,-15.476776,-2.804388,29.889999,1.75,-10.92,1729416170191.0,0.0
-1.129412,-8.348558,-4.175476,36.189999,-28.139999,-46.619999,1729416170211.0,0.0
1.756332,-0.114855,-5.862415,-67.410004,-58.310001,-50.049999,1729416170230.0,0.0
-4.981857,-4.354938,-5.175675,-186.550003,-65.379997,-28.42,1729416170250.0,0.0
-3.416951,-3.878766,-7.958528,-185.289993,-82.879997,-35.139999,1729416170271.0,0.0
-5.876772,-1.952543,-11.432907,-98.980003,-88.059998,-41.509998,1729416170290.0,0.0
-9.439686,-3.031706,-14.155938,-36.400002,-72.940002,-51.170002,1729416170311.0,0.0
-10.34178,1.572084,-17.036898,23.030001,-33.040001,-48.860001,1729416170330.0,0.0
-7.724032,5.974878,-11.246266,67.620003,18.059999,-14.84,1729416170361.0,0.0
-3.993621,-3.445665,-9.877571,85.470001,38.709999,34.23,1729416170382.0,0.0
-7.831708,-2.828316,-14.770894,22.82,57.260002,38.290001,1729416170456.0,0.0
-6.257231,-0.315853,-11.660224,17.710001,90.300003,51.869999,1729416170457.0,0.0
-3.598805,-7.049256,-12.696317,36.119999,124.18,57.189999,1729416170462.0,0.0
-3.120241,-6.503692,-4.622933,148.889999,125.090004,38.360001,1729416170463.0,0.0
-2.105684,-6.582655,0.969093,154.350006,96.32,10.71,1729416170473.0,0.0
-0.691526,-10.794022,-1.079163,46.27,70.489998,-23.450001,1729416170490.0,0.0
-2.421536,-10.456635,-3.852444,65.169998,28.98,-49.84,1729416170514.0,0.0
-4.965107,-8.283953,-8.157133,136.360001,15.190001,-59.43,1729416170531.0,0.0
-2.512464,-6.910471,-9.710074,251.089996,15.82,-37.59,1729416170556.0,0.0
-0.76331,-4.82393,-7.240681,363.929993,26.32,-10.01,1729416170570.0,0.0
-1.282553,-5.462814,-5.328816,452.410004,28.210001,27.370001,1729416170590.0,0.0
-1.952543,-6.67119,-3.859623,528.080017,27.299999,55.860001,1729416170611.0,0.0
-2.366502,-10.152746,-2.041078,663.880005,16.52,86.449997,1729416170629.0,0.0
-2.964707,-10.10489,1.636691,762.929993,17.290001,79.169998,1729416170649.0,0.0
-1.947758,-7.728817,5.379066,687.609985,38.360001,53.130001,1729416170670.0,0.0
0.471386,-6.197411,4.677969,451.779999,50.330002,16.73,1729416170689.0,0.0
1.289732,-9.018548,2.550749,249.479996,74.690002,-7.49,1729416170708.0,0.0
0.681954,-11.243874,2.679961,225.399994,98.0,-29.75,1729416170729.0,0.0
0.524028,-6.013163,5.735595,313.670013,130.339996,-36.82,1729416170748.0,0.0
-2.026721,-5.02732,9.762716,281.890015,123.129997,-25.200001,1729416170770.0,0.0
-2.435893,-6.687939,7.166504,203.419998,90.440002,-29.82,1729416170790.0,0.0
-5.649454,-5.190032,8.195417,186.479996,82.040001,-17.360001,1729416170809.0,0.0
-6.482157,-1.849652,8.705089,146.789993,56.279999,0.7,1729416170831.0,0.0
-6.185446,-2.699104,6.888937,70.209999,37.59,19.67,1729416170849.0,0.0
-7.534998,-7.221539,4.118048,31.01,21.700001,31.57,1729416170871.0,0.0
-11.308479,-9.123833,4.082155,40.25,22.469999,35.700001,1729416170891.0,0.0
-11.672189,-13.28495,2.40718,28.49,-1.82,-10.92,1729416170911.0,0.0
-6.9009,-7.221539,3.940979,75.599998,13.09,-47.25,1729416170930.0,0.0
-8.310273,-7.152147,5.910272,50.470001,9.31,-74.620003,1729416170949.0,0.0
-5.52742,-6.04427,8.037491,54.32,8.19,-99.610001,1729416170970.0,0.0
-2.287539,-2.17029,10.059426,58.240002,3.01,-110.599998,1729416170989.0,0.0
0.327817,4.041477,9.755538,42.84,2.59,-86.800003,1729416171010.0,0.0
1.210768,6.541977,7.786245,-10.99,-6.65,-45.849998,1729416171105.0,0.0
0.200997,4.479364,4.931608,-35.700001,15.26,26.32,1729416171137.0,0.0
-7.666604,-9.257831,0.859023,-70.349998,31.15,58.450001,1729416171155.0,0.0
-7.546963,-2.65364,3.04367,29.75,48.860001,52.990002,1729416171159.0,0.0
-4.438686,5.65424,8.16431,89.110001,76.720001,72.730003,1729416171161.0,0.0
-7.645068,-2.964707,6.372087,-8.96,46.200001,76.300003,1729416171211.0,0.0
-8.453842,-7.831708,8.829515,-10.22,47.389999,89.18,1729416171212.0,0.0
-7.611568,-4.800002,9.631111,-0.21,45.639999,82.18,1729416171213.0,0.0
-9.181261,-9.755538,10.499706,1.26,23.379999,65.449997,1729416171214.0,0.0
-10.372886,-8.733803,10.200603,14.63,18.969999,38.5,1729416171217.0,0.0
-8.839087,-9.367901,9.025726,7.42,-3.43,-11.41,1729416171230.0,0.0
-7.936993,-7.185646,9.540184,23.030001,-6.51,-51.450001,1729416171254.0,0.0
-2.321038,-0.947558,10.322637,29.26,-20.23,-62.790001,1729416171299.0,0.0
0.050249,-0.270389,5.673382,35.98,-21.139999,-55.369999,1729416171318.0,0.0
0.325424,3.101098,2.754139,-14.42,-33.950001,-45.360001,1729416171328.0,0.0
-4.381258,-1.600798,2.009971,-42.420002,-7.42,-8.33,1729416171348.0,0.0
-1.426122,1.174876,4.962714,15.26,26.950001,37.52,1729416171369.0,0.0
-6.757331,-1.129412,6.321837,14.98,39.27,74.900002,1729416171390.0,0.0
-9.676575,-9.315259,6.893722,-1.05,40.529999,91.419998,1729416171411.0,0.0
-10.621738,-10.777272,9.616754,36.470001,41.16,63.209999,1729416171428.0,0.0
-9.06162,-3.591627,12.571891,55.23,20.440001,10.15,1729416171449.0,0.0
-5.446064,-5.52742,5.864808,-13.37,18.9,-7.49,1729416171471.0,0.0
-7.965706,-10.815558,2.167897,-38.150002,11.55,-26.6,1729416171488.0,0.0
-9.363115,-3.194418,4.082155,66.639999,32.27,-35.490002,1729416171510.0,0.0
-8.188239,3.668197,8.456236,83.93,10.22,-40.950001,1729416171528.0,0.0
-8.394022,-2.531606,9.573684,0.7,-10.01,-44.099998,1729416171549.0,0.0
-6.058627,-6.867401,12.339786,-11.83,-42.209999,-53.830002,1729416171570.0,0.0
-2.957529,1.308874,13.328021,51.450001,-24.43,-34.369999,1729416171591.0,0.0
0.239282,2.773281,5.938986,-58.170002,-30.799999,-27.51,1729416171614.0,0.0
-4.204189,-4.991428,-0.940379,-113.889999,-26.950001,-15.4,1729416171631.0,0.0
-4.843073,-1.062413,1.138984,12.25,9.73,10.85,1729416171652.0,0.0
-4.218546,5.469993,4.728218,82.739998,44.240002,27.790001,1729416171671.0,0.0
-4.034299,4.972286,10.729417,40.670002,55.720001,64.889999,1729416171690.0,0.0
-8.116454,-10.272388,6.958328,-38.779999,28.07,93.239998,1729416171709.0,0.0
-7.920243,-5.132604,14.797215,24.57,10.71,53.41,1729416171730.0,0.0
-6.702296,-3.146562,10.461421,-13.86,15.05,37.029999,1729416171750.0,0.0
-10.41835,-15.50549,6.673582,-104.019997,-29.540001,13.51,1729416171769.0,0.0
-4.479364,-1.438086,6.417551,24.710001,17.780001,-13.09,1729416171789.0,0.0
-8.592626,-5.194818,1.548156,-47.880001,0.14,-22.469999,1729416171810.0,0.0
-7.659425,0.490529,2.634498,0.7,22.049999,-25.34,1729416171829.0,0.0
-13.227524,-5.642276,6.228518,11.9,1.12,-26.25,1729416171849.0,0.0
-9.377472,-1.777867,13.85205,62.299999,-19.809999,-60.689999,1729416171870.0,0.0
-3.189633,7.336394,11.308479,18.620001,-39.759998,-62.439999,1729416171890.0,0.0
-2.804388,-0.045464,4.12044,-79.800003,-45.639999,-36.82,1729416171911.0,0.0
-1.512264,-2.943172,3.069991,-58.170002,-5.18,-12.88,1729416171931.0,0.0
-8.322237,-2.337788,2.261217,2.66,-1.54,15.89,1729416171949.0,0.0
-5.288138,-0.287139,4.809574,53.689999,22.049999,16.030001,1729416171969.0,0.0
-3.199204,2.813959,8.920443,38.779999,38.5,36.959999,1729416171989.0,0.0
-3.464807,-0.830309,7.255038,-18.27,32.130001,52.5,1729416172010.0,0.0
-5.182854,-10.10489,5.000999,-14.14,35.07,64.190002,1729416172030.0,0.0
-9.075976,-3.541377,9.430114,17.360001,42.420002,63.98,1729416172049.0,0.0
-12.299109,-15.067604,11.062018,-49.139999,-8.05,27.16,1729416172069.0,0.0
-5.563312,-6.204589,8.003991,-20.93,-14.63,-16.450001,1729416172091.0,0.0
-6.518049,-5.903094,1.148555,-39.200001,-3.92,-33.529999,1729416172122.0,0.0
-11.13859,-9.176475,2.837888,10.01,22.469999,-41.580002,1729416172129.0,0.0
-12.253645,-7.695317,11.057234,118.440002,8.68,-68.879997,1729416172150.0,0.0
-7.003791,-2.354537,12.770494,120.260002,-8.68,-115.080002,1729416172170.0,0.0
-4.046263,4.85743,7.058826,19.6,-14.98,-106.959999,1729416172192.0,0.0
-1.06002,4.266403,3.086741,-52.57,-18.129999,-78.959999,1729416172210.0,0.0
-2.364109,1.229911,-0.217747,-29.889999,12.53,-12.46,1729416172228.0,0.0
-8.635696,-0.009571,2.45025,17.5,12.95,13.86,1729416172248.0,0.0
-4.843073,9.023334,6.565905,67.550003,32.48,23.870001,1729416172269.0,0.0
-3.09392,5.678168,7.429714,-3.36,34.369999,62.93,1729416172288.0,0.0
-6.364908,-4.366901,5.45085,-67.760002,24.360001,87.709999,1729416172308.0,0.0
-10.942378,-11.889936,5.012963,-37.799999,27.299999,87.5,1729416172328.0,0.0
-10.621738,-5.804988,9.207582,35.139999,50.540001,109.270004,1729416172348.0,0.0
-12.892529,-10.913664,13.380664,-15.82,-7.91,24.15,1729416172368.0,0.0
-7.829315,-7.802995,5.793024,-20.23,-4.9,-9.66,1729416172388.0,0.0
-6.996613,-5.709275,3.165704,-40.25,-4.34,-34.509998,1729416172409.0,0.0
-10.755738,-3.723232,7.101898,62.09,-9.87,-40.529999,1729416172428.0,0.0
-7.771888,-1.117448,14.447863,90.93,-30.309999,-63.560001,1729416172449.0,0.0
-4.919643,0.547956,12.284752,-14.49,-56.0,-71.540001,1729416172472.0,0.0
-0.751346,2.679961,1.229911,-98.840004,-43.049999,-49.77,1729416172490.0,0.0
-2.292324,0.157926,-3.629912,-80.989998,-10.92,-2.87,1729416172511.0,0.0
-7.066005,-1.318445,2.507678,35.349998,16.450001,36.049999,1729416172529.0,0.0
-6.585048,5.82413,7.910671,82.949997,36.330002,38.360001,1729416172549.0,0.0
-6.522834,2.421536,7.049256,-15.96,28.07,55.510002,1729416172570.0,0.0
-9.942179,-11.169697,2.088934,-67.340004,20.16,77.209999,1729416172596.0,0.0
-6.290731,-2.955136,6.494121,17.780001,41.860001,75.18,1729416172611.0,0.0
-10.779665,-8.748159,8.937192,40.880001,38.709999,54.599998,1729416172630.0,0.0
-9.265009,-8.535198,13.971692,13.3,3.08,-2.45,1729416172649.0,0.0
-6.573084,-4.017549,9.047262,3.71,5.74,-26.809999,1729416172670.0,0.0
-7.946564,-6.915257,5.773881,-59.43,-9.94,-47.740002,1729416172689.0,0.0
-11.176874,-5.814559,9.580862,82.599998,-28.139999,-80.5,1729416172711.0,0.0
-7.4345,1.208375,12.490535,106.120003,-39.41,-102.410004,1729416172729.0,0.0
-3.914658,3.996014,7.245467,-34.860001,-58.099998,-95.199997,1729416172750.0,0.0
-1.100698,7.082755,0.945165,-103.879997,-46.900002,-58.029999,1729416172771.0,0.0
-5.71406,-1.931008,-4.115655,-94.010002,-31.639999,2.38,1729416172789.0,0.0
-6.300302,1.622334,2.165504,46.41,0.77,31.15,1729416172811.0,0.0
-5.663811,8.106883,5.656632,80.290001,24.85,34.720001,1729416172832.0,0.0
-6.156733,0.208176,6.965507,16.870001,36.119999,58.73,1729416172850.0,0.0
-4.481757,3.756732,6.515656,2.94,46.200001,89.599998,1729416172873.0,0.0
-10.813165,-13.892728,2.739782,-66.989998,17.43,51.380001,1729416172891.0,0.0
-9.463614,-11.294124,8.51127,67.410004,50.470001,86.029999,1729416172913.0,0.0
-10.738988,-8.085347,14.309079,67.129997,16.66,11.06,1729416172930.0,0.0
-6.156733,-2.301895,10.703095,-2.1,7.42,-22.4,1729416172951.0,0.0
-6.62094,-6.300302,4.338188,-117.110001,-18.48,-48.93,1729416172974.0,0.0
-11.837293,-7.482357,7.056434,-43.610001,-19.879999,-46.900002,1729416172992.0,0.0
-7.405786,5.163712,14.342579,118.230003,-39.900002,-66.43,1729416173013.0,0.0
-3.625126,6.630512,8.463413,-61.740002,-77.629997,-67.199997,1729416173031.0,0.0
-1.043271,3.349952,0.208176,-176.050003,-68.809998,-31.5,1729416173050.0,0.0
-4.689932,-3.964907,-4.278367,-133.070007,-38.080002,11.62,1729416173072.0,0.0
-6.860222,0.658026,2.598605,39.41,-0.84,45.990002,1729416173091.0,0.0
-8.537591,-1.521835,3.393023,67.830002,14.7,35.07,1729416173112.0,0.0
-5.099105,1.689333,7.678568,37.59,39.200001,45.43,1729416173131.0,0.0
-5.484349,-1.923829,5.685347,-6.79,45.360001,54.18,1729416173150.0,0.0
-7.259824,-12.272788,2.799603,-5.11,50.189999,54.110001,1729416173172.0,0.0
-5.893522,1.864009,7.915457,75.18,61.110001,57.75,1729416173192.0,0.0
-11.241481,-7.889136,10.124033,44.59,35.560001,40.110001,1729416173212.0,0.0
-7.197611,-5.659025,15.139388,2.87,2.24,-8.75,1729416173230.0,0.0
-6.144768,-7.166504,8.207381,-43.959999,-8.19,-38.5,1729416173252.0,0.0
-6.443871,-5.429315,5.20439,-37.450001,-5.32,-61.670002,1729416173271.0,0.0
-12.914064,-9.516255,6.34098,30.799999,-16.450001,-73.779999,1729416173292.0,0.0
-7.659425,0.473779,14.97907,152.529999,-25.9,-94.360001,1729416173316.0,0.0
-3.974478,4.632504,7.819745,40.459999,-64.050003,-106.120003,1729416173332.0,0.0
0.734596,7.9346,0.351745,-95.620003,-53.34,-61.670002,1729416173350.0,0.0
-3.869194,-1.868794,-5.130211,-82.459999,-16.52,10.43,1729416173372.0,0.0
-9.176475,-1.5003,-0.830309,40.389999,7.07,23.24,1729416173390.0,0.0
-6.867401,3.37388,4.17069,123.270004,46.549999,26.460001,1729416173411.0,0.0
-4.189832,4.785645,8.209774,63.560001,58.310001,56.77,1729416173430.0,0.0
-7.221539,-3.175276,7.475177,-22.4,45.360001,75.389999,1729416173450.0,0.0
-7.51107,-10.597812,8.408379,-32.689999,42.630001,70.07,1729416173475.0,0.0
-9.128618,-5.776274,11.490334,-6.44,32.41,69.440002,1729416173491.0,0.0
-11.674582,-12.351749,12.268002,-36.189999,1.26,24.92,1729416173511.0,0.0
-7.850852,-7.939385,12.550355,-62.439999,-32.41,-36.82,1729416173530.0,0.0
-4.457829,-4.17069,4.127619,-64.68,-17.219999,-69.580002,1729416173551.0,0.0
-9.353544,-12.516854,0.011964,-55.02,-7.28,-73.220001,1729416173572.0,0.0
-7.82453,-3.393023,9.320045,139.930008,2.03,-94.57,1729416173590.0,0.0
-6.798009,2.421536,12.399607,150.5,-18.059999,-104.160004,1729416173612.0,0.0
-2.22054,8.752945,8.293523,9.66,-34.509998,-64.68,1729416173631.0,0.0
1.495514,8.228917,2.462214,-104.160004,-23.870001,-8.61,1729416173650.0,0.0
-10.011569,-4.606184,-0.602991,-29.540001,-17.15,43.75,1729416173672.0,0.0
-5.943772,6.79083,5.548956,91.629997,25.620001,52.639999,1729416173690.0,0.0
-7.456036,-3.160919,4.969893,-9.1,20.790001,63.91,1729416173713.0,0.0
-6.015556,-5.460421,9.073583,-18.690001,19.67,59.080002,1729416173733.0,0.0
-14.691931,-16.821545,3.498307,-15.190001,7.84,43.330002,1729416173750.0,0.0
-7.456036,-5.974878,16.101303,66.57,25.9,32.48,1729416173771.0,0.0
-5.804988,-7.192825,11.85165,-48.650002,-12.04,-30.24,1729416173791.0,0.0
-5.173282,-8.362915,6.309873,-126.980003,-31.639999,-50.75,1729416173812.0,0.0
-4.74736,-2.567499,0.868595,-83.720001,-12.04,-45.779999,1729416173830.0,0.0
-11.112268,-7.45125,5.682954,-18.41,-22.33,-48.509998,1729416173850.0,0.0
-5.12782,7.532606,10.253245,74.830002,-21.91,-64.68,1729416173871.0,0.0
-6.26441,3.596412,7.326823,-32.759998,-38.43,-40.670002,1729416173901.0,0.0
-4.278367,2.478964,6.135197,-98.209999,-39.41,-19.389999,1729416173914.0,0.0
-4.642076,-4.701896,-0.399601,-79.239998,-23.73,16.52,1729416173930.0,0.0
-7.367501,-4.977071,-0.308674,8.82,0.21,26.74,1729416173950.0,0.0
-3.931407,4.871787,5.206782,103.110001,44.099998,30.73,1729416173971.0,0.0
-6.257231,-2.112862,7.063612,73.849998,59.709999,63.77,1729416173990.0,0.0
-8.999406,-12.509676,5.259424,-9.1,46.970001,80.57,1729416174012.0,0.0
-7.109076,-2.26361,10.738988,22.33,68.739998,110.669998,1729416174031.0,0.0
-9.487542,-12.009576,10.604989,-42.700001,8.75,53.34,1729416174050.0,0.0
-11.406586,-15.043676,11.126624,-6.86,-0.7,25.41,1729416174070.0,0.0
-6.530013,-5.091926,9.949356,10.01,-1.05,-25.969999,1729416174091.0,0.0
-9.236296,-10.834702,7.386643,-74.550003,-13.51,-53.619999,1729416174111.0,0.0
-8.879765,-10.030712,8.118847,-10.08,-42.0,-87.919998,1729416174130.0,0.0
-4.993821,-0.705883,11.973685,88.129997,-51.869999,-97.160004,1729416174151.0,0.0
-3.598805,4.761717,6.80758,-39.830002,-71.190002,-101.43,1729416174170.0,0.0
-3.285345,3.364309,4.295116,-118.93,-67.059998,-59.990002,1729416174190.0,0.0
-0.200997,9.32483,-0.61017,-128.449997,-43.610001,-12.6,1729416174211.0,0.0
-7.733603,-4.778467,-2.859423,-102.970001,-34.23,16.799999,1729416174230.0,0.0
-5.881558,1.713261,3.089134,49.98,5.18,49.420002,1729416174250.0,0.0
-4.886144,4.465007,6.642475,56.700001,24.08,64.889999,1729416174271.0,0.0
-7.106683,0.945165,6.350551,-1.47,29.049999,85.75,1729416174290.0,0.0
-8.197811,-6.242875,6.288338,-40.459999,24.780001,108.779999,1729416174311.0,0.0
-10.057034,-1.007378,8.908479,-27.790001,22.68,95.830002,1729416174330.0,0.0
-10.04507,-2.758924,8.717053,-44.240002,8.19,68.669998,1729416174349.0,0.0
-9.152546,-3.905087,7.21436,-88.199997,-7.35,58.380001,1729416174370.0,0.0
-9.664611,-5.601598,8.322237,-112.0,-19.74,43.330002,1729416174390.0,0.0
-8.456236,-3.175276,11.059627,-162.190002,-30.24,40.32,1729416174411.0,0.0
-8.216952,-4.07737,9.401401,-266.070007,-57.049999,35.98,1729416174431.0,0.0
-7.554141,-5.788238,6.235696,-354.619995,-80.709999,30.52,1729416174450.0,0.0
-6.742974,-11.119448,1.691726,-378.48999,-99.260002,8.89,1729416174475.0,0.0
-5.328816,-14.038691,-1.320838,-328.649994,-94.779999,-23.870001,1729416174490.0,0.0
-4.426722,-15.345171,-3.359523,-203.139999,-66.290001,-54.740002,1729416174511.0,0.0
-3.888337,-14.591432,-1.672583,-68.040001,-29.889999,-81.480003,1729416174531.0,0.0
-3.955336,-12.366108,1.100698,30.450001,-0.98,-102.410004,1729416174550.0,0.0
-3.852444,-10.518847,2.644069,52.709999,10.01,-113.470001,1729416174813.0,0.0
-3.455236,-8.595018,1.904687,8.33,14.0,-117.599998,1729416174814.0,0.0
-3.196811,-7.879565,0.212961,-52.709999,21.42,-121.379997,1729416174817.0,0.0
-4.493721,-10.016356,0.162712,-72.730003,39.27,-118.580002,1729416174818.0,0.0
-5.091926,-9.413363,1.658226,-4.62,54.599998,-104.090004,1729416174818.0,0.0
-5.675776,-2.916851,9.303294,127.330002,52.220001,-84.0,1729416174819.0,0.0
-6.802795,3.436093,11.657832,212.240005,38.779999,-56.07,1729416174820.0,0.0
-4.981857,0.200997,10.183852,-18.27,-7.28,-44.52,1729416174821.0,0.0
-3.692125,-7.393822,4.307081,-167.440002,-16.870001,-55.720001,1729416174823.0,0.0
-1.026521,-4.797609,2.871387,-90.090004,-12.39,-30.799999,1729416174823.0,0.0
-0.806381,-3.428915,4.364508,8.96,4.55,-1.33,1729416174824.0,0.0
-2.411965,-2.701497,6.616155,70.489998,19.6,28.280001,1729416174825.0,0.0
-2.742175,-0.660419,6.625726,68.040001,23.73,59.57,1729416174826.0,0.0
-2.969493,-6.001199,6.932007,27.860001,12.11,73.989998,1729416174830.0,0.0
-4.431508,-10.013963,6.087341,32.689999,-11.55,94.43,1729416174848.0,0.0
-7.623533,-11.387443,5.328816,16.1,-26.530001,93.449997,1729416174869.0,0.0
-10.844273,-17.651854,2.26361,-61.670002,-38.57,50.119999,1729416174889.0,0.0
-8.635696,-16.98904,-2.813959,-74.620003,-27.93,-16.24,1729416174910.0,0.0
-5.931807,-15.321243,-1.028914,14.28,16.73,-60.130001,1729416174929.0,0.0
-6.195018,-11.657832,2.725425,88.760002,48.16,-86.309998,1729416174948.0,0.0
-5.613562,-8.523234,2.469393,59.360001,55.860001,-103.18,1729416174970.0,0.0
-2.974278,-8.102098,2.378466,-13.72,62.790001,-118.720001,1729416174990.0,0.0
-0.062213,-5.848059,2.775674,-71.190002,70.840004,-127.050003,1729416175011.0,0.0
2.787638,9.475577,14.677574,155.610001,59.360001,-42.630001,1729416175029.0,0.0
1.938186,13.064812,17.881563,133.419998,5.74,31.639999,1729416175049.0,0.0
-2.26361,2.376073,12.466606,-84.349998,-26.460001,79.379997,1729416175070.0,0.0
-2.854637,-2.63689,5.022535,-160.089996,-51.170002,124.32,1729416175090.0,0.0
-5.063213,-9.801002,5.048856,-158.899994,-69.090004,142.100006,1729416175111.0,0.0
-10.58824,-15.864414,0.562313,-120.400002,-77.279999,129.919998,1729416175130.0,0.0
-8.671589,-9.01137,-2.816352,21.139999,-63.77,141.190002,1729416175149.0,0.0
-11.097912,-17.654245,-1.852045,30.17,-30.73,81.900002,1729416175171.0,0.0
-12.660425,-18.838692,-2.227718,48.650002,2.45,22.469999,1729416175190.0,0.0
-9.487542,-13.579268,-0.289532,113.889999,39.27,-36.400002,1729416175211.0,0.0
-7.664211,-11.062018,8.166703,212.589996,24.15,-83.230003,1729416175230.0,0.0
-8.726624,-0.787239,9.927821,127.190002,10.64,-92.120003,1729416175249.0,0.0
-4.316652,-2.158326,4.807181,-126.910004,-7.07,-110.32,1729416175270.0,0.0
0.150748,-0.914058,-0.150748,-262.850006,7.35,-100.660004,1729416175290.0,0.0
4.795217,-1.569692,3.852444,-153.789993,0.63,-59.920002,1729416175310.0,0.0
4.429115,-0.777667,9.497113,26.25,-3.5,29.889999,1729416175330.0,0.0
-3.608376,-7.702496,8.248059,-27.23,-18.690001,90.580002,1729416175349.0,0.0
-4.122833,-4.283153,7.197611,-22.610001,-42.349998,102.129997,1729416175370.0,0.0
-8.271988,-8.82473,4.309474,-82.529999,-61.599998,109.830002,1729416175389.0,0.0
-11.428121,-10.305886,0.232104,-115.290001,-62.23,105.209999,1729416175410.0,0.0
-12.390036,-12.952348,0.693919,-129.639999,-47.880001,71.470001,1729416175429.0,0.0
-8.815158,-14.371292,-7.350751,-205.309998,0.77,10.29,1729416175450.0,0.0
-8.039884,-21.511477,-5.651847,-77.419998,40.040001,-55.09,1729416175473.0,0.0
-7.267002,-11.9689,2.194218,184.169998,46.830002,-74.550003,1729416175490.0,0.0
-5.910272,-4.630112,3.058028,163.589996,42.560001,-90.580002,1729416175510.0,0.0
-1.055235,-1.320838,3.84048,-12.32,44.450001,-99.68,1729416175530.0,0.0
2.945565,-4.718646,4.800002,-73.779999,58.380001,-78.959999,1729416175549.0,0.0
5.769095,0.210568,12.751352,100.169998,46.689999,-6.16,1729416175570.0,0.0
-3.237489,-0.758525,14.038691,67.690002,19.67,47.740002,1729416175590.0,0.0
-6.443871,-6.046663,9.482756,-98.349998,-10.85,71.82,1729416175610.0,0.0
-3.732803,-6.673582,0.212961,-163.940002,-23.66,58.59,1729416175629.0,0.0
-4.168297,-10.260423,-0.878166,-50.259998,-43.540001,78.75,1729416175649.0,0.0
-8.499306,-10.490135,1.045663,110.25,-55.02,88.129997,1729416175670.0,0.0
-11.609976,-9.415757,3.18724,78.82,-54.32,82.110001,1729416175689.0,0.0
-10.176675,-13.789837,-10.578669,-168.630005,-8.26,-20.790001,1729416175710.0,0.0
-5.864808,-25.380667,-4.108476,-75.110001,25.969999,-60.549999,1729416175729.0,0.0
-7.128219,-7.396214,4.814359,202.580002,53.689999,-76.580002,1729416175748.0,0.0
-8.11167,-3.194418,-0.622134,49.349998,50.889999,-91.489998,1729416175771.0,0.0
-3.098706,-13.366307,2.608176,-113.190002,66.360001,-131.25,1729416175789.0,0.0
-1.201197,-1.691726,5.235496,-9.8,71.82,-118.370003,1729416175810.0,0.0
4.876573,6.960721,7.094719,74.620003,47.950001,-62.369999,1729416175830.0,0.0
0.26321,1.552942,18.900908,127.330002,5.25,11.06,1729416175849.0,0.0
-6.573084,0.397209,12.337393,-48.509998,-20.58,54.110001,1729416175870.0,0.0
-3.919443,-3.996014,0.744168,-188.789993,-40.880001,63.490002,1729416175889.0,0.0
-6.144768,-10.805987,-1.09352,-140.350006,-59.010002,77.0,1729416175910.0,0.0
-8.281559,-12.143576,-2.09372,41.720001,-78.400002,91.699997,1729416175929.0,0.0
-9.535398,-11.810973,-1.5003,100.660004,-63.91,87.57,1729416175957.0,0.0
-11.358729,-19.164118,-8.01117,-11.48,-16.379999,28.35,1729416175969.0,0.0
-9.958927,-24.926033,-7.913064,-24.92,65.309998,-35.139999,1729416175989.0,0.0
-9.176475,-2.744568,7.257431,285.670013,86.449997,-100.730003,1729416176012.0,0.0
-8.049455,-5.517848,2.67039,17.99,79.099998,-125.860001,1729416176029.0,0.0
-3.270989,-11.822936,4.287938,-98.489998,79.940002,-164.080002,1729416176050.0,0.0
1.165305,2.143969,5.682954,9.8,76.019997,-125.720001,1729416176070.0,0.0
5.197211,6.759724,18.156738,129.850006,30.52,-33.740002,1729416176090.0,0.0
-4.266403,6.070591,16.857435,35.209999,-22.049999,21.210001,1729416176111.0,0.0
-4.290331,1.244268,5.383851,-201.460007,-58.310001,64.330002,1729416176130.0,0.0
-2.304288,-7.692925,-5.996413,-306.179993,-71.68,55.369999,1729416176150.0,0.0
-3.888337,-11.440084,-6.783652,-146.649994,-88.550003,97.650002,1729416176170.0,0.0
-8.018349,-13.026526,-2.081756,106.68,-83.93,120.610001,1729416176190.0,0.0
-11.9689,-10.980663,-0.387637,128.589996,-63.0,95.690002,1729416176211.0,0.0
-13.655839,-17.955742,-7.886744,-93.309998,-6.37,22.190001,1729416176230.0,0.0
-7.759924,-24.988247,-7.379465,-92.050003,61.740002,-42.07,1729416176250.0,0.0
-5.048856,-8.803195,10.944772,248.430008,75.18,-59.990002,1729416176274.0,0.0
-7.496714,-5.099105,-0.440279,-30.450001,31.360001,-75.949997,1729416176292.0,0.0
-4.158726,-16.776079,-1.785046,-172.550003,53.41,-107.940002,1729416176314.0,0.0
-4.189832,-6.821937,3.436093,54.040001,74.410004,-88.410004,1729416176331.0,0.0
-3.235096,-0.145962,6.558727,68.110001,60.27,-90.160004,1729416176351.0,0.0
-3.17049,-6.752545,8.279166,-53.060001,39.41,-78.959999,1729416176373.0,0.0
-4.421937,-4.474578,9.463614,-53.760002,11.9,-67.480003,1729416176392.0,0.0
-3.062813,-2.237289,9.018548,-95.340004,-24.99,-57.260002,1729416176412.0,0.0
-1.878366,-2.225325,6.082555,-164.009995,-50.119999,-37.73,1729416176432.0,0.0
-1.878366,-3.376273,4.740182,-163.309998,-89.459999,-12.81,1729416176451.0,0.0
-2.26361,-4.09412,1.107877,-170.029999,-113.610001,14.14,1729416176474.0,0.0
-1.897508,-6.678369,-1.198804,-196.0,-139.369995,27.23,1729416176492.0,0.0
-1.67019,-6.963113,-1.100698,-165.270004,-161.419998,48.09,1729416176514.0,0.0
-2.758924,-5.910272,0.48335,-149.449997,-171.710007,66.360001,1729416176532.0,0.0
-4.354938,-5.943772,-1.399801,-211.75,-172.619995,74.550003,1729416176552.0,0.0
-6.005985,-7.721639,-2.581856,-345.730011,-158.759995,54.810001,1729416176573.0,0.0
-7.190433,-7.996813,-5.395815,-448.700012,-147.210007,41.650002,1729416176591.0,0.0
-6.352944,-4.23051,-9.925428,-471.100006,-129.149994,38.639999,1729416176612.0,0.0
-5.711668,-3.548556,-11.727223,-439.040009,-100.449997,52.290001,1729416176631.0,0.0
-6.436693,-6.4343,-13.890336,-356.369995,-79.379997,67.760002,1729416176652.0,0.0
-6.393622,-8.46102,-14.438292,-224.910004,-54.810001,63.0,1729416176676.0,0.0
-5.793024,-8.705089,-12.27518,-78.470001,-31.360001,54.599998,1729416176691.0,0.0
-5.867201,-6.4343,-8.559127,41.790001,-11.27,40.18,1729416176711.0,0.0
-6.065805,-4.644469,-5.85763,77.0,-1.89,36.189999,1729416176731.0,0.0
-5.82413,-5.101498,-5.630312,22.190001,5.81,34.93,1729416176750.0,0.0
-5.438886,-6.360123,-5.594419,-58.099998,9.17,30.870001,1729416176771.0,0.0
-4.859823,-8.171489,-5.625526,-110.18,10.71,27.23,1729416176791.0,0.0
-5.101498,-9.501899,-7.326823,-107.520004,9.24,14.98,1729416176813.0,0.0
-6.977471,-5.300103,1.318445,-78.75,4.62,-2.31,1729416176831.0,0.0
-9.518648,-7.71446,-4.776074,-104.510002,-27.16,-5.67,1729416176850.0,0.0
-5.264209,-5.635098,-7.640282,-138.880005,-18.200001,-20.440001,1729416176871.0,0.0
-7.223931,-6.601797,-8.616554,-107.730003,-4.2,-27.860001,1729416176891.0,0.0
-7.429714,-4.225725,-7.881958,-40.18,1.68,-27.790001,1729416176913.0,0.0
-6.975078,-3.326023,-8.69791,15.4,7.49,-15.190001,1729416176930.0,0.0
-6.573084,-0.524028,-9.159724,61.950001,14.14,-10.15,1729416176950.0,0.0
-5.245068,-1.227518,-9.08794,35.91,35.700001,8.96,1729416176971.0,0.0
-5.010571,-1.481157,-8.475377,29.26,42.139999,13.23,1729416176992.0,0.0
-4.024727,-1.737189,-8.499306,32.48,42.91,24.85,1729416177012.0,0.0
-4.13719,-4.421937,-6.687939,27.93,45.080002,39.689999,1729416177032.0,0.0
-4.61097,-7.080362,-6.776474,6.44,43.189999,32.48,1729416177050.0,0.0
-4.299902,-4.180261,-6.192625,-4.55,30.66,23.24,1729416177071.0,0.0
-5.048856,-10.222138,-4.771288,-36.049999,36.610001,14.84,1729416177091.0,0.0
-6.197411,-10.188639,-4.125226,-17.639999,9.8,-11.41,1729416177111.0,0.0
-5.65424,-6.922436,-5.986843,22.33,-11.2,-27.790001,1729416177130.0,0.0
-6.094519,-4.979464,-6.539584,51.59,-16.799999,-25.690001,1729416177152.0,0.0
-6.104091,-2.428715,-6.742974,76.090004,-22.33,-22.049999,1729416177171.0,0.0
-5.919843,-1.519442,-7.709675,29.610001,-21.77,-19.32,1729416177190.0,0.0
-6.843473,-2.935993,-9.370294,2.1,-12.74,-16.24,1729416177212.0,0.0
-7.384251,-1.208375,-9.779467,12.46,-5.6,-13.72,1729416177230.0,0.0
-6.707082,0.794417,-10.528419,16.1,11.13,-11.06,1729416177250.0,0.0
-5.584848,0.492921,-10.128819,24.01,29.75,6.79,1729416177271.0,0.0
-4.656433,-2.522035,-9.111869,-7.14,42.349998,20.23,1729416177290.0,0.0
-4.67079,-1.526621,-8.542377,12.18,35.77,30.309999,1729416177311.0,0.0
-3.883551,-4.900501,-4.534399,4.69,35.490002,40.529999,1729416177331.0,0.0
-4.48415,-3.259024,-8.145168,-1.96,22.75,42.490002,1729416177350.0,0.0
-3.756732,-9.992428,-4.453043,-42.560001,34.369999,45.009998,1729416177371.0,0.0
-4.886144,-9.973285,-4.847858,-9.24,7.35,32.060001,1729416177391.0,0.0
-6.262017,-9.616754,-2.17029,-14.91,-11.55,-1.82,1729416177411.0,0.0
-6.156733,-7.915457,-5.76431,-15.12,-25.9,-18.76,1729416177430.0,0.0
-6.757331,-5.199604,-6.087341,-35.279999,-29.960001,-29.26,1729416177450.0,0.0
-5.996413,-4.749753,-9.035298,-42.0,-27.370001,-28.07,1729416177475.0,0.0
-6.046663,-3.010171,-7.166504,-30.17,-23.1,-33.110001,1729416177490.0,0.0
-5.924629,-2.723032,-9.372685,-9.38,-19.6,-32.830002,1729416177512.0,0.0
-5.996413,-1.995614,-9.930215,20.16,-11.2,-24.639999,1729416177530.0,0.0
-6.276374,0.387637,-10.425529,48.790001,1.47,-13.58,1729416177550.0,0.0
-5.673382,0.009571,-9.432507,29.26,21.0,-0.21,1729416177571.0,0.0
-4.651647,-2.225325,-8.750552,-0.35,35.139999,7.42,1729416177590.0,0.0
-4.12044,-2.392823,-8.556733,1.61,34.93,14.14,1729416177611.0,0.0
-3.704089,-4.831109,-6.955935,26.530001,32.549999,32.200001,1729416177631.0,0.0
-4.199404,-5.412565,-5.67099,58.52,26.460001,42.209999,1729416177650.0,0.0
-5.082355,-6.13759,-4.101298,55.580002,19.040001,43.470001,1729416177672.0,0.0
-5.596812,-9.24108,-3.783052,9.66,4.9,24.01,1729416177691.0,0.0
-6.096912,-9.020942,-3.921836,-6.86,-12.32,1.82,1729416177710.0,0.0
-4.689932,-5.321638,-6.821937,7.0,-28.84,-13.23,1729416177730.0,0.0
-7.372287,-4.309474,-5.474778,6.51,-27.93,-13.51,1729416177750.0,0.0
-7.046863,-3.031706,-7.202396,25.690001,-33.810001,-7.35,1729416177770.0,0.0
-6.692725,-1.57687,-7.166504,-16.17,-28.77,-10.99,1729416177790.0,0.0
-7.183254,-3.290131,-8.829515,-24.92,-19.32,-5.18,1729416177812.0,0.0
-6.15434,-0.564706,-8.843873,-29.4,-20.370001,-9.8,1729416177830.0,0.0
-5.905487,-1.160519,-10.303494,-13.16,-6.86,-2.8,1729416177850.0,0.0
-5.343173,-1.11027,-8.702696,-8.54,3.01,5.32,1729416177872.0,0.0
-5.206782,-2.550749,-8.166703,-36.119999,16.17,7.0,1729416177890.0,0.0
-5.398208,-2.845066,-6.970293,-40.389999,15.82,8.47,1729416177911.0,0.0
-4.386044,-4.371687,-6.915257,-34.02,13.3,13.65,1729416177931.0,0.0
-4.735396,-4.290331,-8.611769,-22.120001,7.56,21.98,1729416177950.0,0.0
-4.249653,-8.207381,-6.276374,-20.440001,12.81,23.73,1729416177970.0,0.0
-4.31426,-8.221739,-6.539584,-16.030001,1.75,10.64,1729416177997.0,0.0
-4.26401,-6.79083,-6.558727,6.51,-10.29,1.26,1729416178011.0,0.0
-8.860621,-4.548756,-2.715853,-8.05,-20.440001,2.31,1729416178031.0,0.0
-6.080163,-7.929814,-9.073583,-50.189999,-18.9,-20.09,1729416178050.0,0.0
-8.250452,-5.441278,-8.472985,-36.610001,-24.08,-24.219999,1729416178072.0,0.0
-6.965507,-4.09412,-8.587841,-21.98,-12.32,-41.580002,1729416178091.0,0.0
-5.79063,-1.117448,-7.60439,-23.379999,-6.79,-41.650002,1729416178111.0,0.0
-6.754939,-1.162912,-10.4016,-26.110001,3.64,-26.389999,1729416178130.0,0.0
-5.367101,-0.5001,-10.08814,-16.450001,12.04,-27.65,1729416178150.0,0.0
-5.474778,-0.55992,-9.573684,0.7,25.9,-19.18,1729416178172.0,0.0
-5.065606,-0.758525,-8.102098,-2.73,36.68,-16.309999,1729416178190.0,0.0
-4.048656,-1.122234,-8.001599,-1.05,35.630001,-2.31,1729416178212.0,0.0
-3.921836,-3.048456,-6.69751,-6.65,31.08,14.84,1729416178232.0,0.0
-5.123034,-4.864608,-6.173482,14.49,29.33,32.970001,1729416178250.0,0.0
-4.922036,-6.987042,-4.811966,54.040001,23.24,44.310001,1729416178272.0,0.0
-6.166305,-7.843673,-3.917051,6.86,-2.87,14.63,1729416178292.0,0.0
-5.065606,-7.642675,-6.498906,12.32,-22.960001,-8.12,1729416178312.0,0.0
-7.252645,-4.342973,-6.381658,69.860001,-35.139999,-3.92,1729416178332.0,0.0
-5.819345,-3.168097,-8.394022,42.560001,-33.459999,-20.58,1729416178354.0,0.0
-4.773681,-2.565106,-8.700303,-5.67,-31.219999,-17.639999,1729416178372.0,0.0
-6.13759,-3.498307,-9.013763,-25.690001,-26.67,-21.07,1729416178393.0,0.0
-6.216553,-1.045663,-9.396614,-24.780001,-21.42,-31.780001,1729416178414.0,0.0
-6.113662,-0.770489,-9.489935,6.86,-11.27,-24.780001,1729416178431.0,0.0
-5.493921,-0.351745,-9.722038,9.31,3.01,-19.110001,1729416178452.0,0.0
-4.9675,-1.837688,-8.360522,-14.21,13.79,-7.56,1729416178475.0,0.0
-3.792624,-3.022135,-8.4347,-30.870001,21.0,2.45,1729416178492.0,0.0
-3.960121,-3.278167,-7.384251,14.14,14.98,14.56,1729416178522.0,0.0
-3.809374,-4.472186,-5.498707,40.459999,10.71,31.99,1729416178534.0,0.0
-3.888337,-5.938986,-5.402994,47.389999,5.81,44.450001,1729416178551.0,0.0
-4.802395,-6.987042,-6.350551,46.130001,-9.31,44.450001,1729416178572.0,0.0
-5.47717,-7.745567,-5.436492,33.810001,-24.57,36.189999,1729416178594.0,0.0
-6.826723,-7.295716,-5.869594,16.73,-34.23,14.07,1729416178612.0,0.0
-7.743174,-3.830909,-5.319244,-11.34,-56.349998,4.41,1729416178636.0,0.0
-7.116255,-5.814559,-6.869793,-90.650002,-36.189999,-19.879999,1729416178653.0,0.0
-8.355737,-6.130411,-8.271988,-67.760002,-36.119999,-32.130001,1729416178672.0,0.0
-7.066005,-4.577469,-6.78126,-50.330002,-37.450001,-38.080002,1729416178694.0,0.0
-7.551748,-3.041277,-9.19801,-68.18,-20.370001,-39.759998,1729416178717.0,0.0
-8.10449,-1.940579,-9.035298,-22.120001,-3.01,-34.509998,1729416178733.0,0.0
-7.525427,-1.284946,-8.843873,12.81,11.13,-32.200001,1729416178751.0,0.0
-6.649654,-1.51705,-8.248059,-0.28,32.900002,-25.83,1729416178774.0,0.0
-5.426922,-0.708275,-8.130811,2.24,40.040001,-16.24,1729416178792.0,0.0
-4.165904,-1.505085,-8.11167,14.14,39.759998,-2.87,1729416178813.0,0.0
-4.426722,-4.476971,-6.819544,40.32,36.330002,17.290001,1729416178832.0,0.0
-3.728018,-4.802395,-5.996413,63.630001,27.02,26.25,1729416178851.0,0.0
-4.151547,-3.917051,-6.951149,99.68,21.280001,41.299999,1729416178874.0,0.0
-5.668597,-4.917251,-3.976871,102.970001,20.860001,43.610001,1729416178893.0,0.0
-8.475377,-6.9009,-1.29691,62.02,1.47,34.16,1729416178912.0,0.0
-6.290731,-6.752545,-6.558727,-86.169998,-17.780001,-14.07,1729416178931.0,0.0
-6.209375,-5.946165,-7.848458,-107.590004,-28.210001,-29.4,1729416178951.0,0.0
-7.23111,-4.783253,-7.429714,-123.620003,-23.030001,-35.490002,1729416178973.0,0.0
-7.264609,-4.852644,-8.549555,-94.919998,-15.12,-43.119999,1729416178992.0,0.0
-6.692725,-2.409572,-8.633304,-67.550003,-14.07,-42.139999,1729416179013.0,0.0
-7.063612,-1.629512,-9.662218,-50.75,-3.99,-36.82,1729416179031.0,0.0
-6.12084,-1.574477,-9.190832,-2.31,4.41,-27.93,1729416179052.0,0.0
-5.539384,-0.969093,-8.336594,20.16,16.030001,-19.110001,1729416179074.0,0.0
-5.079963,-1.07677,-7.568498,4.9,24.43,-5.81,1729416179092.0,0.0
-4.500899,-2.29711,-6.920043,4.41,30.030001,9.24,1729416179113.0,0.0
-4.409972,-3.981657,-6.556334,16.940001,27.299999,21.98,1729416179131.0,0.0
-4.266403,-5.718846,-6.463014,31.780001,21.0,24.08,1729416179151.0,0.0
-4.223332,-6.056234,-6.046663,42.560001,9.73,20.790001,1729416179173.0,0.0
-4.510471,-5.833702,-6.123233,30.870001,-0.91,12.67,1729416179193.0,0.0
-5.350351,-6.020342,-5.558527,-3.92,-9.87,-0.56,1729416179212.0,0.0
-6.017949,-5.776274,-6.008378,-41.790001,-18.549999,-13.440001,1729416179232.0,0.0
-6.300302,-5.422136,-8.303094,-69.580002,-21.559999,-32.619999,1729416179252.0,0.0
-6.285945,-4.168297,-7.207181,-63.490002,-20.790001,-42.279999,1729416179273.0,0.0
-6.958328,-3.471986,-8.740981,-37.66,-18.27,-41.09,1729416179294.0,0.0
-6.503692,-1.842474,-9.473185,-9.59,-10.01,-37.66,1729416179313.0,0.0
-6.525227,-1.596013,-9.525827,20.16,4.62,-28.77,1729416179332.0,0.0
-5.910272,-1.098306,-9.140583,33.110001,18.549999,-17.01,1729416179351.0,0.0
-5.599205,-2.024328,-8.523234,30.24,29.960001,-5.53,1729416179373.0,0.0
-4.867002,-1.775474,-8.499306,52.150002,32.619999,4.76,1729416179392.0,0.0
-4.917251,-1.37348,-7.905886,74.690002,28.98,15.4,1729416179412.0,0.0
-4.867002,-2.713461,-5.716454,67.760002,27.09,24.85,1729416179431.0,0.0
-4.632504,-2.364109,-5.642276,51.66,22.610001,34.23,1729416179451.0,0.0
-4.256832,-5.60399,-6.486942,27.440001,25.41,40.880001,1729416179477.0,0.0
-5.680561,-7.405786,-3.321238,30.380001,13.93,33.950001,1729416179492.0,0.0
-6.185446,-6.580262,-2.921637,-9.94,-12.04,13.09,1729416179512.0,0.0
-6.06102,-7.817351,-6.18784,-64.75,-19.950001,-9.8,1729416179531.0,0.0
-6.381658,-6.881758,-7.738388,-58.310001,-28.630001,-27.93,1729416179552.0,0.0
-5.668597,-5.355137,-8.193025,-50.82,-30.870001,-41.23,1729416179573.0,0.0
-5.685347,-4.465007,-9.001799,-83.300003,-23.379999,-54.25,1729416179591.0,0.0
-7.336394,-3.462414,-10.243673,-38.290001,-12.39,-48.650002,1729416179681.0,0.0
-6.013163,-1.526621,-9.530612,-20.16,2.45,-49.349998,1729416179702.0,0.0
-5.948557,-0.866202,-8.216952,-14.0,16.52,-41.23,1729416179702.0,0.0
-4.565506,-0.887737,-7.719246,-21.629999,22.190001,-35.209999,1729416179702.0,0.0
-4.589434,0.569492,-9.355937,-12.39,21.49,-23.450001,1729416179707.0,0.0
-3.976871,-0.947558,-8.173882,1.96,22.190001,3.5,1729416179720.0,0.0
-4.441079,-2.991028,-7.578069,9.17,21.77,22.889999,1729416179732.0,0.0
-4.426722,-3.799802,-7.709675,30.66,22.540001,39.549999,1729416179751.0,0.0
-3.981657,-4.534399,-8.092526,47.25,23.799999,42.84,1729416179771.0,0.0
-4.56072,-6.242875,-5.498707,52.080002,23.030001,38.43,1729416179791.0,0.0
-6.599405,-5.228317,-2.24686,6.3,3.08,18.620001,1729416179811.0,0.0
-6.221339,-6.489335,-5.022535,-97.650002,-2.87,-10.99,1729416179830.0,0.0
-5.489135,-7.185646,-8.032705,-149.869995,-14.07,-35.279999,1729416179851.0,0.0
-5.290531,-7.350751,-8.85105,-129.360001,-17.710001,-54.740002,1729416179871.0,0.0
-5.615955,-3.558127,-8.611769,-93.449997,-23.940001,-65.870003,1729416179891.0,0.0
-5.800202,-1.56012,-9.399008,-75.529999,-18.549999,-61.040001,1729416179912.0,0.0
-5.245068,-0.995414,-9.444471,-28.07,-8.33,-45.150002,1729416179931.0,0.0
-4.445865,0.002393,-9.561719,-3.08,4.55,-30.1,1729416179950.0,0.0
-4.522435,-0.167498,-9.092726,20.58,12.39,-12.04,1729416179971.0,0.0
-4.194618,-0.33021,-9.133404,38.5,14.77,6.51,1729416179990.0,0.0
-4.149154,-1.804188,-8.4012,56.490002,16.52,31.639999,1729416180012.0,0.0
-4.606184,-3.385844,-7.513463,75.739998,14.42,47.670002,1729416180037.0,0.0
-4.572684,-4.299902,-7.453642,85.260002,14.21,48.509998,1729416180052.0,0.0
-4.73061,-5.505885,-7.874779,92.330002,16.1,49.0,1729416180071.0,0.0
-5.230711,-5.584848,-6.656832,94.080002,11.62,32.759998,1729416180092.0,0.0
-7.73121,-2.699104,-2.861816,49.0,-11.27,16.1,1729416180112.0,0.0
-6.829116,-3.912265,-5.568098,-73.220001,-13.37,-14.42,1729416180131.0,0.0
-5.71406,-4.85743,-8.396415,-139.580002,-17.780001,-32.549999,1729416180157.0,0.0
-4.685147,-4.957928,-9.111869,-135.589996,-19.25,-44.450001,1729416180172.0,0.0
-5.565705,-3.59402,-9.851252,-77.910004,-19.18,-44.170002,1729416180192.0,0.0
-4.871787,-1.246661,-9.042477,-10.57,-16.73,-35.0,1729416180213.0,0.0
-4.756931,-0.208176,-9.382257,15.75,-0.63,-13.3,1729416180232.0,0.0
-4.091727,-0.696311,-9.353544,22.540001,12.88,4.76,1729416180252.0,0.0
-4.278367,-3.079563,-9.286544,53.34,21.700001,21.700001,1729416180273.0,0.0
-4.115655,-2.545963,-9.360723,94.57,22.68,37.099998,1729416180292.0,0.0
-4.13719,-3.627519,-9.181261,107.520004,29.610001,51.52,1729416180313.0,0.0
-4.766503,-4.996214,-7.793423,109.830002,33.670002,51.029999,1729416180341.0,0.0
-4.761717,-5.795416,-7.133004,104.650002,34.439999,46.060001,1729416180522.0,0.0
-5.04407,-5.608776,-6.558727,96.949997,30.030001,31.43,1729416180523.0,0.0
-6.343372,-3.67059,-3.505485,44.73,8.05,5.46,1729416180523.0,0.0
-5.759524,-3.069991,-4.421937,-50.470001,-9.31,-15.4,1729416180523.0,0.0
-5.613562,-4.632504,-8.049455,-111.860001,-21.49,-26.530001,1729416180524.0,0.0
-5.412565,-4.249653,-7.578069,-115.919998,-31.639999,-37.869999,1729416180524.0,0.0
-5.728417,-3.677768,-7.398607,-113.540001,-27.09,-45.709999,1729416180524.0,0.0
-6.278766,-2.371287,-9.312866,-59.5,-25.129999,-37.310001,1729416180524.0,0.0
-5.469993,-0.835095,-10.236496,-18.200001,-8.54,-22.469999,1729416180524.0,0.0
-5.029713,-1.196411,-8.989835,-5.88,7.49,-9.17,1729416180535.0,0.0
-4.496114,-1.844866,-9.147761,-3.99,19.25,6.37,1729416180553.0,0.0
-4.189832,-2.438286,-9.078369,18.549999,24.710001,22.889999,1729416180574.0,0.0
-4.010371,-3.850052,-8.805587,44.170002,29.469999,39.060001,1729416180593.0,0.0
-3.852444,-4.579862,-8.60459,69.019997,32.41,45.639999,1729416180613.0,0.0
-3.68734,-5.414958,-7.800602,82.739998,34.439999,44.310001,1729416180633.0,0.0
-3.859623,-5.486742,-7.21436,89.18,30.870001,36.259998,1729416180653.0,0.0
-5.529813,-3.646662,-2.931208,52.990002,17.780001,18.690001,1729416180674.0,0.0
-6.601797,-4.776074,-4.668397,-52.779999,-2.66,-8.96,1729416180694.0,0.0
-5.407779,-5.895915,-7.733603,-126.489998,-14.07,-31.780001,1729416180715.0,0.0
-5.438886,-5.206782,-7.939385,-123.059998,-20.16,-50.540001,1729416180734.0,0.0
-5.197211,-3.924229,-6.9679,-102.059998,-28.84,-62.16,1729416180757.0,0.0
-5.556134,-2.830709,-8.46102,-99.75,-24.5,-59.57,1729416180773.0,0.0
-5.986843,-1.718047,-9.798609,-52.009998,-18.549999,-45.290001,1729416180794.0,0.0
-5.156533,0.112463,-10.456635,3.57,-8.68,-27.51,1729416180815.0,0.0
-4.173083,-0.892523,-9.365508,43.75,14.49,1.75,1729416180832.0,0.0
-3.668197,-1.0002,-9.075976,69.790001,16.030001,17.360001,1729416180852.0,0.0
-3.457629,-1.246661,-9.875179,74.059998,22.190001,34.09,1729416180873.0,0.0
-3.845266,-3.084348,-8.95155,86.099998,28.49,49.560001,1729416180894.0,0.0
-4.627719,-4.646862,-7.893922,94.360001,31.08,52.709999,1729416180916.0,0.0
-4.668397,-4.261617,-7.314859,82.949997,30.1,50.259998,1729416180934.0,0.0
-5.563312,-6.367301,-4.096512,48.369999,29.120001,34.860001,1729416180952.0,0.0
-7.180861,-5.881558,-2.136791,-6.44,4.76,2.17,1729416180975.0,0.0
-6.522834,-5.379066,-5.596812,-75.949997,-15.33,-24.85,1729416180994.0,0.0
-5.886343,-4.761717,-8.638089,-111.510002,-24.219999,-39.34,1729416181014.0,0.0
-5.266603,-4.249653,-9.217153,-97.93,-24.290001,-48.369999,1729416181033.0,0.0
-4.65404,-3.165704,-8.456236,-84.910004,-25.34,-49.560001,1729416181053.0,0.0
-5.436492,-2.555535,-9.391829,-64.959999,-17.360001,-41.650002,1729416181073.0,0.0
-4.699504,-0.459422,-9.372685,5.95,-16.17,-30.309999,1729416181093.0,0.0
-3.9338,0.727418,-10.423136,22.75,-0.63,-12.11,1729416181122.0,0.0
-3.460021,-0.485743,-9.829715,35.84,10.92,8.75,1729416181134.0,0.0
-3.680161,-1.579263,-10.238889,39.200001,14.77,26.530001,1729416181164.0,0.0
-3.711268,-3.481557,-9.255438,62.439999,23.59,45.5,1729416181174.0,0.0
-4.613362,-4.290331,-8.549555,83.230003,25.41,46.34,1729416181193.0,0.0
-4.852644,-4.326223,-8.405986,73.57,28.07,38.220001,1729416181214.0,0.0
-5.04407,-5.525027,-6.924829,49.77,29.049999,26.32,1729416181233.0,0.0
-6.223732,-5.807381,-4.103691,22.4,16.030001,5.74,1729416181252.0,0.0
-6.982256,-5.15414,-3.89073,-30.59,-2.8,-15.54,1729416181274.0,0.0
-6.427122,-5.726025,-6.960721,-84.840004,-11.34,-36.470001,1729416181294.0,0.0
-5.192425,-3.06042,-7.592427,-95.620003,-21.42,-47.459999,1729416181315.0,0.0
-3.74716,-3.132205,-8.006385,-115.010002,-24.92,-56.209999,1729416181334.0,0.0
-5.161318,-2.790031,-8.623734,-96.599998,-26.040001,-48.299999,1729416181355.0,0.0
-4.532006,-1.574477,-9.949356,-48.02,-25.200001,-38.990002,1729416181373.0,0.0
-3.9338,-0.823131,-10.466206,-8.33,-13.86,-21.559999,1729416181393.0,0.0
-3.433701,-1.440479,-10.947165,25.41,3.5,0.35,1729416181417.0,0.0
-3.259024,-2.799603,-10.188639,61.950001,17.639999,21.49,1729416181434.0,0.0
-3.48395,-1.89033,-10.272388,105.910004,22.469999,35.700001,1729416181452.0,0.0
-3.61077,-3.553342,-8.508877,119.209999,26.6,46.759998,1729416181476.0,0.0
-4.338188,-4.673182,-7.216753,109.620003,24.92,48.369999,1729416181494.0,0.0
-3.718446,-5.98445,-7.874779,52.080002,23.17,36.119999,1729416181514.0,0.0
-3.732803,-7.123433,-6.853044,48.650002,16.66,22.610001,1729416181534.0,0.0
-5.426922,-4.529613,-4.065405,46.830002,-1.75,3.08,1729416181552.0,0.0
-6.415157,-4.500899,-5.395815,-11.41,-19.530001,-11.27,1729416181574.0,0.0
-6.34098,-5.312066,-8.676375,-67.269997,-24.710001,-29.540001,1729416181594.0,0.0
-5.793024,-3.52702,-8.082954,-86.940002,-34.509998,-38.220001,1729416181616.0,0.0
-5.826523,-2.833102,-7.707282,-120.959999,-29.4,-44.029999,1729416181632.0,0.0
-6.34098,-2.476572,-10.427922,-69.230003,-18.059999,-43.119999,1729416181653.0,0.0
-5.008178,0.478565,-11.126624,10.5,-7.77,-26.18,1729416181673.0,0.0
-4.627719,-1.182054,-10.762917,63.560001,19.32,3.36,1729416181693.0,0.0
-4.347759,-3.330809,-9.480364,90.440002,41.580002,21.629999,1729416181715.0,0.0
-3.826123,-2.526821,-8.099705,142.240005,44.380001,32.27,1729416181735.0,0.0
-4.041477,-1.818545,-5.730811,158.130005,36.189999,41.09,1729416181752.0,0.0
-3.692125,-3.050849,-4.864608,104.790001,27.02,41.720001,1729416181773.0,0.0
-4.201797,-7.176075,-4.287938,30.030001,19.6,32.48,1729416181793.0,0.0
-4.199404,-8.118847,-4.34058,-6.58,1.89,13.09,1729416181814.0,0.0
-5.568098,-6.776474,-4.869394,-14.49,-22.82,-4.48,1729416181833.0,0.0
-5.79063,-4.929214,-6.668797,-59.080002,-49.349998,-30.24,1729416181853.0,0.0
-5.111069,-4.555934,-9.705289,-99.75,-51.380001,-35.279999,1729416181875.0,0.0
-5.355137,-5.663811,-9.367901,-118.440002,-37.59,-43.889999,1729416181893.0,0.0
-6.522834,-4.328616,-8.901299,-77.0,-33.32,-42.139999,1729416181917.0,0.0
-6.022735,-1.282553,-9.327222,-31.85,-28.559999,-43.68,1729416181933.0,0.0
-6.070591,-1.155733,-10.425529,4.69,-8.33,-20.860001,1729416181953.0,0.0
-5.079963,-1.730011,-10.10489,24.57,17.92,2.87,1729416181973.0,0.0
-4.323831,-3.419343,-8.673983,40.25,34.720001,17.99,1729416181992.0,0.0
-4.070191,-3.333202,-8.286345,70.419998,41.16,26.18,1729416182015.0,0.0
-3.20399,-3.168097,-6.867401,91.910004,36.470001,32.549999,1729416182033.0,0.0
-3.058028,-5.663811,-5.630312,53.830002,37.170002,37.799999,1729416182053.0,0.0
-3.510271,-8.55434,-5.350351,25.9,31.57,29.049999,1729416182080.0,0.0
-4.091727,-8.327023,-4.996214,17.639999,13.09,7.49,1729416182093.0,0.0
-5.010571,-6.046663,-4.591826,-8.89,-12.11,-18.690001,1729416182115.0,0.0
-5.144568,-3.897908,-7.537392,-53.200001,-34.299999,-31.219999,1729416182134.0,0.0
-4.785645,-3.900301,-10.487741,-109.480003,-38.009998,-39.689999,1729416182153.0,0.0
-6.144768,-3.713661,-8.453842,-107.309998,-32.130001,-39.060001,1729416182174.0,0.0
-7.156933,-1.749153,-7.446464,-42.0,-28.280001,-27.370001,1729416182194.0,0.0
-6.831509,-0.825524,-10.226924,-10.64,-9.03,-10.5,1729416182216.0,0.0
-6.142376,-1.380659,-10.832308,15.54,12.18,11.06,1729416182233.0,0.0
-5.194818,-2.821138,-9.131011,28.98,31.92,23.030001,1729416182254.0,0.0
-4.503292,-2.519642,-8.35813,56.560001,35.349998,27.65,1729416182274.0,0.0
-3.917051,-1.78026,-7.063612,82.529999,30.450001,30.870001,1729416182294.0,0.0
-3.328416,-2.40718,-6.259624,67.480003,23.379999,35.91,1729416182316.0,0.0
-3.562913,-3.165704,-7.250252,18.48,19.040001,38.5,1729416182333.0,0.0
-3.012564,-6.415157,-7.929814,-15.12,22.960001,37.59,1729416182353.0,0.0
-2.79721,-7.15454,-8.219346,-12.88,15.75,28.280001,1729416182376.0,0.0
-3.034099,-7.255038,-8.123632,7.91,10.78,21.91,1729416182396.0,0.0
-4.189832,-7.515855,-7.04447,12.74,8.05,10.43,1729416182414.0,0.0
-7.006185,-4.845466,-4.725825,6.72,-10.36,-3.01,1729416182436.0,0.0
-6.953543,-5.424529,-5.32403,-76.440002,-24.92,-26.389999,1729416182456.0,0.0
-6.345766,-5.496314,-8.10449,-122.989998,-27.440001,-35.349998,1729416182478.0,0.0
-4.957928,-4.572684,-8.276773,-111.020004,-29.540001,-46.970001,1729416182496.0,0.0
-6.355337,-5.149354,-10.396815,-63.98,-20.370001,-37.380001,1729416182515.0,0.0
-5.295317,-2.488536,-9.74836,5.25,-14.07,-43.119999,1729416182537.0,0.0
-4.855037,-0.863809,-10.133603,17.01,3.36,-26.389999,1729416182557.0,0.0
-4.268795,-1.284946,-9.561719,13.3,17.5,-18.620001,1729416182577.0,0.0
-3.919443,-1.708475,-9.315259,20.719999,22.82,-6.72,1729416182595.0,0.0
-3.491128,-1.940579,-9.820145,44.029999,24.08,4.97,1729416182619.0,0.0
-3.180061,-2.029114,-9.188439,65.660004,21.84,14.21,1729416182636.0,0.0
-3.809374,-2.330609,-7.530212,84.489998,14.91,25.76,1729416182666.0,0.0
-4.414758,-3.428915,-7.54457,52.009998,17.639999,26.950001,1729416182676.0,0.0
-4.285545,-4.07737,-7.599605,33.529999,14.63,24.290001,1729416182695.0,0.0
-4.383651,-4.266403,-8.317451,23.379999,14.35,23.59,1729416182719.0,0.0
-4.615755,-4.778467,-7.79103,14.98,15.82,17.639999,1729416182735.0,0.0
-5.307281,-4.438686,-4.98425,-7.84,8.33,6.86,1729416182756.0,0.0
-8.726624,-3.54377,-0.650848,-80.150002,-15.89,1.75,1729416182776.0,0.0
-6.178268,-4.862216,-5.630312,-152.529999,-16.24,-15.26,1729416182800.0,0.0
-6.257231,-6.568298,-7.326823,-142.589996,-23.379999,-28.49,1729416182816.0,0.0
-5.424529,-4.656433,-9.01137,-95.480003,-23.66,-31.360001,1729416182835.0,0.0
-5.54417,-3.929015,-10.334601,-56.84,-18.620001,-29.120001,1729416182856.0,0.0
-5.412565,-2.971886,-10.456635,-7.98,-11.9,-20.860001,1729416182876.0,0.0
-4.632504,-1.993221,-9.946963,29.540001,-4.97,-15.05,1729416182895.0,0.0
-3.471986,-1.363909,-9.305687,37.029999,4.13,-10.36,1729416182917.0,0.0
-3.081956,-1.430908,-9.676575,32.48,10.22,-1.89,1729416182936.0,0.0
-2.897708,-2.761317,-9.020942,23.379999,13.51,5.74,1729416182956.0,0.0
-3.227918,-2.481357,-9.171689,32.619999,14.0,11.48,1729416182975.0,0.0
-3.725625,-4.378866,-8.145168,24.92,15.47,15.68,1729416182996.0,0.0
-4.302295,-4.424329,-7.484749,32.060001,13.86,15.61,1729416183017.0,0.0
-4.960321,-5.723632,-6.908078,31.01,9.59,8.4,1729416183035.0,0.0
-5.039285,-5.642276,-6.821937,18.969999,0.7,-1.26,1729416183055.0,0.0
-5.702096,-4.405186,-6.996613,0.91,-3.85,-8.89,1729416183076.0,0.0
-6.608976,-4.503292,-4.981857,-5.32,-7.28,-12.18,1729416183096.0,0.0
-6.9344,-2.813959,-5.76431,10.57,-17.360001,-8.4,1729416183118.0,0.0
-6.175875,-2.055435,-6.678369,-26.18,-16.59,-14.42,1729416183135.0,0.0
-6.094519,-3.28056,-8.889337,-48.860001,-12.32,-9.38,1729416183155.0,0.0
-5.187639,-2.311467,-8.997013,-54.25,-13.02,-11.48,1729416183175.0,0.0
-5.075177,-2.366502,-10.509278,-31.92,-7.84,-10.22,1729416183195.0,0.0
-4.462614,-2.304288,-9.554541,-11.69,-4.55,-10.08,1729416183216.0,0.0
-3.574877,-2.304288,-9.542577,-10.71,1.82,-7.63,1729416183236.0,0.0
-3.29731,-1.579263,-9.609575,-2.73,5.04,-4.06,1729416183255.0,0.0
-2.572284,-1.634298,-9.97807,9.1,6.09,3.5,1729416183275.0,0.0
-3.586841,-2.957529,-8.609376,14.91,4.76,13.72,1729416183295.0,0.0
-3.754339,-4.546363,-8.334201,5.6,7.98,14.07,1729416183316.0,0.0
-4.931608,-4.4674,-7.432107,16.24,2.94,13.440001,1729416183335.0,0.0
-4.56072,-5.376673,-7.958528,-1.33,2.87,-1.47,1729416183355.0,0.0
-5.4341,-4.350152,-7.800602,11.48,-1.82,-2.31,1729416183376.0,0.0
-6.15434,-4.744967,-6.07777,18.27,1.47,-0.98,1729416183395.0,0.0
-7.298109,-4.295116,-6.168696,28.98,-7.07,-9.24,1729416183420.0,0.0
-6.79083,-3.48395,-6.558727,10.29,-7.56,-15.68,1729416183434.0,0.0
-5.996413,-4.436293,-7.776673,-5.04,-3.85,-21.139999,1729416183455.0,0.0
-6.111269,-3.61077,-7.848458,-27.440001,-1.89,-27.58,1729416183478.0,0.0
-5.070391,-3.457629,-6.683154,-30.24,-12.11,-36.330002,1729416183496.0,0.0
-5.618347,-4.21376,-8.518449,-44.59,-10.43,-44.450001,1729416183517.0,0.0
-5.07757,-4.807181,-10.727024,-0.21,-4.2,-48.790001,1729416183534.0,0.0
-4.555934,-3.744767,-11.306087,67.129997,6.09,-47.950001,1729416183555.0,0.0
-4.041477,-3.574877,-11.631511,124.669998,23.799999,-36.82,1729416183576.0,0.0
-3.876373,-4.208975,-12.019149,185.850006,41.02,-24.99,1729416183595.0,0.0
-4.273581,-4.534399,-11.464014,257.040009,55.299999,-14.56,1729416183617.0,0.0
-4.110869,-4.740182,-10.492528,309.820007,70.629997,-9.38,1729416183635.0,0.0
-3.524628,-5.745167,-9.611969,323.75,91.489998,-3.92,1729416183654.0,0.0
-2.385644,-7.092326,-10.109675,306.040009,110.529999,-4.2,1729416183676.0,0.0
-2.244468,-8.867801,-8.657232,299.110016,131.180008,-3.43,1729416183696.0,0.0
-2.610569,-9.489935,-7.915457,310.799988,135.869995,3.85,1729416183715.0,0.0
-2.488536,-9.413363,-5.249853,364.980011,136.779999,-3.92,1729416183735.0,0.0
-4.218546,-5.903094,-2.277967,450.100006,136.360001,-10.36,1729416183756.0,0.0
-4.761717,-3.431308,-0.004786,384.369995,122.290001,-41.509998,1729416183776.0,0.0
-5.953342,-5.84088,12.24168,283.570007,61.18,-40.670002,1729416183797.0,0.0
-4.615755,-8.006385,9.812965,294.0,-8.33,-35.139999,1729416183816.0,0.0
-2.682354,-5.343173,6.611369,193.339996,-20.65,-59.990002,1729416183834.0,0.0
-0.945165,-3.531806,3.718446,35.91,-32.900002,-43.959999,1729416183855.0,0.0
-0.81356,-5.108676,0.562313,-56.279999,-24.219999,-28.42,1729416183877.0,0.0
-1.28016,-8.700303,1.428515,5.18,-11.27,0.77,1729416183896.0,0.0
-1.301696,-9.279366,2.431108,79.099998,4.2,14.56,1729416183916.0,0.0
-2.11047,-8.738588,1.959722,95.620003,17.43,17.92,1729416183935.0,0.0
-3.144169,-9.025726,3.146562,85.050003,18.41,32.830002,1729416183955.0,0.0
-2.445465,-11.32523,2.160719,70.349998,5.53,22.75,1729416183974.0,0.0
-3.850052,-13.217952,3.462414,147.630005,0.42,22.469999,1729416183994.0,0.0
-4.290331,-8.25763,4.448257,218.610001,16.73,22.82,1729416184016.0,0.0
-4.275974,-10.837094,2.825923,80.779999,-1.61,-3.5,1729416184036.0,0.0
-3.830909,-11.473583,4.553542,-23.17,9.66,-31.639999,1729416184056.0,0.0
-1.897508,-12.634104,2.206182,-36.75,-2.73,-58.66,1729416184076.0,0.0
-1.938186,-5.982057,4.701896,90.440002,32.549999,-66.989998,1729416184094.0,0.0
-0.256032,-6.482157,3.385844,-3.01,21.139999,-84.209999,1729416184116.0,0.0
0.4666,-3.268596,4.95075,18.969999,14.42,-50.82,1729416184136.0,0.0
-1.158126,4.548756,7.458428,122.779999,25.9,10.78,1729416184155.0,0.0
-1.4668,3.524628,8.831908,15.75,8.75,40.389999,1729416184175.0,0.0
-3.285345,-4.716253,5.733203,-158.619995,-14.63,57.470001,1729416184195.0,0.0
-3.553342,-13.825729,1.282553,-155.330002,-42.98,67.340004,1729416184215.0,0.0
-2.344966,-14.352149,2.443072,35.07,-50.540001,86.379997,1729416184235.0,0.0
-6.699903,-11.234302,8.367701,132.649994,-20.299999,80.849998,1729416184254.0,0.0
-6.4678,-15.74238,1.957329,-89.879997,-39.48,16.1,1729416184276.0,0.0
-2.050649,-20.377277,-1.552942,-120.400002,-38.43,-39.549999,1729416184295.0,0.0
-2.081756,-14.519648,2.325824,70.139999,21.210001,-57.400002,1729416184315.0,0.0
-2.828316,-7.757531,3.926622,113.610001,40.25,-78.120003,1729416184334.0,0.0
-1.909473,-7.310073,4.972286,67.970001,23.940001,-87.639999,1729416184355.0,0.0
-0.677169,-4.158726,6.04427,32.900002,26.110001,-91.910004,1729416184375.0,0.0
-0.634098,-6.195018,3.675375,-31.639999,12.53,-85.610001,1729416184394.0,0.0
-0.48335,2.787638,7.68096,83.300003,3.71,-47.110001,1729416184418.0,0.0
-1.957329,5.142176,8.975478,96.669998,4.41,26.880001,1729416184436.0,0.0
-3.883551,1.256232,7.298109,-72.239998,-9.17,56.77,1729416184455.0,0.0
-3.895515,-7.322037,2.847459,-176.960007,-35.0,70.629997,1729416184478.0,0.0
-1.828116,-16.472191,0.847059,-76.650002,-65.730003,75.18,1729416184494.0,0.0
-3.136991,-14.105689,6.350551,155.960007,-25.76,105.629997,1729416184517.0,0.0
-8.063812,-9.75793,11.600404,180.110001,-1.82,91.699997,1729416184536.0,0.0
-8.729016,-12.808779,4.505685,-87.43,-17.01,29.049999,1729416184555.0,0.0
-2.031506,-22.126431,-3.412165,-172.130005,-59.080002,-38.990002,1729416184574.0,0.0
-0.404387,-14.275579,2.531606,109.270004,26.530001,-39.34,1729416184595.0,0.0
-3.347559,-5.941379,5.699703,172.899994,56.209999,-52.150002,1729416184690.0,0.0
-2.306681,-6.285945,5.642276,31.639999,30.73,-70.349998,1729416184698.0,0.0
0.251246,-9.96132,3.833302,-66.43,9.87,-97.300003,1729416184700.0,0.0
0.988236,-6.518049,5.328816,18.9,14.28,-80.220001,1729416184701.0,0.0
-0.172283,-1.318445,8.556733,85.889999,21.280001,-61.110001,1729416184701.0,0.0
0.200997,-1.112662,9.142976,30.030001,-5.32,-40.670002,1729416184715.0,0.0
-0.071785,-0.40678,8.178668,-3.57,-21.49,-2.94,1729416184735.0,0.0
-1.404587,-0.236889,7.255038,-69.160004,-22.190001,50.540001,1729416184754.0,0.0
-1.428515,-4.788038,3.438486,-149.729996,-34.860001,63.420002,1729416184775.0,0.0
-3.4672,-9.889536,4.39083,-118.650002,-39.130001,77.07,1729416184794.0,0.0
-2.986243,-14.577076,4.481757,-1.82,-48.02,67.340004,1729416184815.0,0.0
-3.323631,-12.509676,7.125826,76.510002,-28.98,61.529999,1729416184834.0,0.0
-4.713861,-13.229917,5.441278,21.49,-12.46,45.849998,1729416184854.0,0.0
-2.433501,-15.010178,0.887737,-65.660004,-17.5,-5.32,1729416184875.0,0.0
-1.433301,-11.88515,1.433301,11.55,17.360001,-22.75,1729416184895.0,0.0
-3.680161,-10.906486,1.184447,69.160004,43.189999,-34.509998,1729416184915.0,0.0
-2.565106,-6.355337,3.785445,74.550003,52.360001,-57.049999,1729416184934.0,0.0
-1.78026,-6.474977,4.149154,-5.74,56.0,-63.630001,1729416184954.0,0.0
-2.055435,-10.08814,4.156333,-84.559998,46.34,-75.389999,1729416184975.0,0.0
0.507278,-5.931807,8.750552,47.389999,22.540001,-53.619999,1729416184995.0,0.0
-1.234696,-0.346959,10.906486,97.720001,28.35,-22.4,1729416185015.0,0.0
-0.658026,-1.311267,9.485149,-12.88,-20.299999,-11.34,1729416185033.0,0.0
-1.801795,-1.713261,7.393822,-61.880001,-32.759998,27.790001,1729416185054.0,0.0
-2.282753,-2.330609,5.656632,-111.300003,-34.790001,45.360001,1729416185075.0,0.0
-1.337588,-10.152746,3.175276,-112.349998,-54.529999,51.73,1729416185094.0,0.0
-1.31366,-11.767902,4.041477,30.450001,-51.52,62.16,1729416185116.0,0.0
-2.89053,-11.492726,6.041877,90.93,-19.25,73.989998,1729416185135.0,0.0
-5.146961,-12.610175,5.314459,38.639999,-12.67,53.970001,1729416185153.0,0.0
-3.962514,-14.617754,2.299503,-12.04,-9.45,9.94,1729416185176.0,0.0
-2.330609,-13.012171,1.141376,34.580002,16.940001,-14.56,1729416185195.0,0.0
-3.022135,-12.117253,3.663411,78.959999,44.099998,-35.77,1729416185216.0,0.0
-3.304488,-9.45165,3.897908,77.559998,53.970001,-61.810001,1729416185234.0,0.0
-2.124826,-5.910272,6.173482,21.49,58.799999,-74.059998,1729416185255.0,0.0
-0.887737,-8.068598,6.099305,-23.1,37.59,-91.209999,1729416185274.0,0.0
-0.667598,-5.010571,7.45125,-0.7,42.490002,-79.940002,1729416185294.0,0.0
0.725025,-3.072384,7.128219,-19.879999,17.15,-77.209999,1729416185315.0,0.0
0.674776,-0.851845,7.326823,-17.57,9.52,-38.43,1729416185334.0,0.0
0.533599,-0.62692,8.051848,-46.34,-3.57,-6.72,1729416185355.0,0.0
-1.986043,-3.510271,6.977471,-89.25,-18.27,25.76,1729416185376.0,0.0
-5.199604,-5.328816,5.465207,-82.18,-26.809999,53.200001,1729416185396.0,0.0
-4.06062,-11.45205,4.697111,-84.489998,-46.200001,60.900002,1729416185417.0,0.0
-1.507478,-12.531212,1.507478,3.92,-76.580002,57.119999,1729416185434.0,0.0
-1.569692,-7.389036,2.11047,116.830002,-46.900002,87.5,1729416185456.0,0.0
-4.328616,-7.496714,3.431308,146.649994,-27.09,93.169998,1729416185477.0,0.0
-6.005985,-10.468598,5.410172,48.580002,-8.89,57.189999,1729416185494.0,0.0
-4.4339,-17.64946,4.709075,-135.660004,-5.95,-10.99,1729416185515.0,0.0
0.495314,-24.870996,-1.330409,-84.139999,-26.25,-76.440002,1729416185534.0,0.0
-0.315853,-10.226924,5.766702,192.360001,68.949997,-63.98,1729416185555.0,0.0
-2.37368,-2.239682,5.816952,119.209999,58.59,-94.010002,1729416185575.0,0.0
0.643669,-7.001399,3.761517,-88.760002,41.09,-123.480003,1729416185593.0,0.0
0.538385,-10.147961,3.627519,-100.239998,29.82,-117.389999,1729416185616.0,0.0
0.509671,3.876373,8.279166,170.660004,43.400002,-37.66,1729416185634.0,0.0
0.358923,8.872586,10.025927,164.080002,31.08,-0.14,1729416185653.0,0.0
-0.806381,3.881158,11.184053,-97.090004,-5.04,32.200001,1729416185676.0,0.0
-6.589834,-4.161119,7.197611,-196.979996,-15.26,78.190002,1729416185694.0,0.0
-7.597212,-12.528819,0.404387,-224.490005,-53.130001,62.439999,1729416185715.0,0.0
-1.22034,-17.580067,2.952743,-59.639999,-91.910004,54.18,1729416185734.0,0.0
-3.469593,-4.39083,3.689733,155.190002,-23.940001,89.879997,1729416185755.0,0.0
-6.106483,-4.235296,5.190032,164.149994,-11.55,108.849998,1729416185776.0,0.0
-6.238089,-5.151747,10.358529,-22.4,15.75,62.369999,1729416185794.0,0.0
-8.056634,-32.489746,-3.079563,-259.630005,-47.32,-26.74,1729416185815.0,0.0
2.694318,-19.776678,-0.624527,57.049999,21.84,-47.950001,1729416185835.0,0.0
-2.878566,-7.209574,3.811767,225.050003,97.650002,-58.939999,1729416185853.0,0.0
-0.842274,-9.583255,9.075976,121.800003,44.869999,-97.650002,1729416185874.0,0.0
-0.713061,-3.60359,5.460421,10.78,56.209999,-117.18,1729416185895.0,0.0
0.413958,-6.058627,3.828516,-82.389999,34.790001,-117.599998,1729416185921.0,0.0
1.292124,-3.589234,5.412565,52.990002,15.96,-88.340004,1729416185935.0,0.0
-2.084148,5.4341,9.253045,192.850006,43.540001,-15.75,1729416185955.0,0.0
-1.885544,2.715853,10.875379,24.219999,-3.71,-9.73,1729416185974.0,0.0
-3.318845,-2.62732,7.903493,-128.660004,-32.900002,20.09,1729416185994.0,0.0
-4.969893,-5.869594,6.625726,-76.019997,-46.689999,64.889999,1729416186016.0,0.0
-5.572884,-9.150154,7.013363,-41.509998,-54.670002,60.619999,1729416186034.0,0.0
-3.15374,-12.610175,4.37408,-3.64,-72.169998,58.73,1729416186055.0,0.0
-3.881158,-8.444271,3.622734,37.029999,-31.219999,64.75,1729416186075.0,0.0
-2.782853,-7.501499,0.756132,68.949997,-8.68,49.77,1729416186095.0,0.0
-2.122434,-6.070591,-0.267996,24.57,28.559999,33.880001,1729416186117.0,0.0
-2.012364,-22.820349,5.381458,-63.420002,17.08,-17.710001,1729416186134.0,0.0
1.538585,-13.246667,2.574677,7.98,53.549999,-59.150002,1729416186156.0,0.0
-2.117648,-9.853643,6.865008,85.120003,80.779999,-33.670002,1729416186175.0,0.0
-0.512064,-8.788837,7.092326,23.450001,49.98,-82.669998,1729416186196.0,0.0
-0.672383,-6.180661,6.845865,7.14,51.380001,-72.519997,1729416186218.0,0.0
-0.327817,-5.405386,7.125826,-22.190001,23.450001,-75.459999,1729416186234.0,0.0
-0.787239,-0.124427,9.379865,36.889999,14.21,-37.099998,1729416186256.0,0.0
-2.605784,1.509871,10.212566,12.81,0.49,-2.31,1729416186276.0,0.0
-3.431308,-1.533799,9.109475,-109.199997,-32.830002,13.93,1729416186296.0,0.0
-5.740381,-7.769495,7.073184,-139.229996,-63.560001,38.080002,1729416186320.0,0.0
-3.48395,-7.865208,3.955336,-109.690002,-76.370003,36.889999,1729416186336.0,0.0
-1.65344,-5.551349,5.663811,63.349998,-65.800003,83.790001,1729416186356.0,0.0
-5.242674,-5.398208,4.62054,38.009998,-51.380001,110.25,1729416186377.0,0.0
-5.836094,-11.136196,3.089134,-78.330002,-44.310001,81.690002,1729416186397.0,0.0
-3.720839,-20.817558,-0.528814,-89.110001,-41.439999,22.33,1729416186419.0,0.0
-0.928415,-16.340586,2.823531,30.309999,35.84,-12.74,1729416186435.0,0.0
-0.071785,-14.349757,5.611169,80.010002,58.66,-63.349998,1729416186456.0,0.0
0.421137,-7.240681,6.518049,98.0,77.07,-67.900002,1729416186479.0,0.0
-0.823131,-4.701896,5.393422,54.389999,61.32,-70.699997,1729416186496.0,0.0
-0.325424,-5.726025,5.532206,-24.57,55.510002,-83.440002,1729416186518.0,0.0
-0.612563,-6.82433,6.860222,-51.099998,37.099998,-83.019997,1729416186535.0,0.0
0.591027,-0.117248,8.386844,67.269997,29.190001,-32.900002,1729416186556.0,0.0
-1.258625,4.716253,10.954341,88.550003,16.799999,20.58,1729416186576.0,0.0
-4.007978,3.87398,8.549555,-52.290001,-9.66,58.240002,1729416186595.0,0.0
-6.329016,-2.830709,3.617948,-192.220001,-32.900002,73.639999,1729416186616.0,0.0
-4.127619,-15.053247,2.225325,-145.809998,-90.720001,59.849998,1729416186642.0,0.0
-0.059821,-10.375278,5.596812,81.410004,-51.66,104.580002,1729416186655.0,0.0
-7.477571,-5.855237,6.460621,138.949997,-14.42,129.570007,1729416186678.0,0.0
-9.667004,-13.03849,4.601398,-105.769997,-19.530001,71.959999,1729416186697.0,0.0
-3.811767,-23.322842,-4.476971,-156.940002,-40.950001,-8.33,1729416186717.0,0.0
-0.404387,-18.786051,-0.050249,65.590004,46.130001,-22.190001,1729416186736.0,0.0
-3.28056,-8.432307,5.623133,196.699997,91.840004,-51.450001,1729416186756.0,0.0
-2.522035,-5.333601,6.436693,82.389999,74.199997,-67.410004,1729416186777.0,0.0
-0.839881,-11.437693,5.455636,0.28,25.9,-84.349998,1729416186796.0,0.0
-1.320838,-4.627719,8.525627,61.670002,43.049999,-68.389999,1729416186816.0,0.0
-2.108077,-2.041078,8.114061,-15.54,19.32,-70.699997,1729416186836.0,0.0
-0.722632,-5.182854,6.089733,-70.769997,-21.0,-65.800003,1729416186855.0,0.0
-1.531406,1.852045,7.740781,39.34,0.63,3.15,1729416186876.0,0.0
-3.352344,4.792823,7.520642,-2.59,-13.93,35.420002,1729416186897.0,0.0
-3.292524,-1.485943,7.384251,-125.93,-35.490002,62.16,1729416186916.0,0.0
-4.232903,-9.236296,4.914857,-157.220001,-56.77,73.150002,1729416186935.0,0.0
-4.749753,-10.313066,5.754738,-71.050003,-60.970001,89.25,1729416186955.0,0.0
-4.601398,-8.147561,5.089533,8.47,-42.209999,97.160004,1729416186977.0,0.0
-7.735995,-10.640882,3.194418,-28.35,-34.09,89.32,1729416186996.0,0.0
-5.522634,-18.355343,-0.519243,-71.050003,-19.74,33.810001,1729416187016.0,0.0
-3.225525,-15.998412,0.349352,53.130001,37.799999,-34.93,1729416187037.0,0.0
-4.35733,-9.006584,1.462015,94.220001,88.830002,-41.93,1729416187056.0,0.0
-2.167897,-11.375479,4.007978,21.629999,69.720001,-80.779999,1729416187077.0,0.0
-1.572084,-11.3683,5.99402,22.610001,58.099998,-83.090004,1729416187096.0,0.0
-1.48355,-4.053442,9.533006,87.5,59.220001,-75.459999,1729416187119.0,0.0
-0.622134,-2.785245,9.468399,4.06,15.4,-80.919998,1729416187135.0,0.0
0.315853,-1.715654,9.142976,-6.58,-8.82,-47.950001,1729416187156.0,0.0
-1.770689,1.715654,9.533006,-5.95,-20.93,-6.65,1729416187177.0,0.0
-3.742374,-0.026321,6.573084,-94.849998,-32.970001,24.219999,1729416187196.0,0.0
-4.756931,-5.099105,2.835495,-178.850006,-45.009998,34.509998,1729416187216.0,0.0
-2.914458,-12.586248,2.962314,-117.949997,-63.490002,35.77,1729416187236.0,0.0
-1.162912,-10.805987,2.9336,22.4,-52.009998,50.610001,1729416187256.0,0.0
-4.244867,-5.907879,5.312066,93.870003,-14.98,76.860001,1729416187276.0,0.0
-7.116255,-11.330014,3.09392,-18.549999,-24.710001,54.32,1729416187295.0,0.0
-4.721039,-16.048662,0.868595,-42.98,-25.34,20.65,1729416187315.0,0.0
-4.503292,-16.555939,-0.473779,13.23,7.84,-10.85,1729416187336.0,0.0
-3.35713,-10.293922,1.59362,94.989998,34.93,-42.279999,1729416187356.0,0.0
-3.18724,-10.530812,3.433701,85.330002,58.380001,-73.989998,1729416187377.0,0.0
-3.062813,-8.95155,4.249653,36.959999,60.549999,-80.989998,1729416187395.0,0.0
-1.208375,-6.594619,8.126025,36.82,39.130001,-95.410004,1729416187417.0,0.0
-1.342373,-2.852244,9.193225,53.48,24.99,-80.290001,1729416187434.0,0.0
-0.346959,1.445265,10.193424,57.75,-1.47,-51.170002,1729416187455.0,0.0
-1.514657,4.386044,9.734003,30.799999,-15.33,0.98,1729416187479.0,0.0
-3.515057,2.478964,7.211967,-89.949997,-24.360001,40.670002,1729416187495.0,0.0
-4.759324,-4.149154,3.323631,-185.779999,-32.48,57.540001,1729416187518.0,0.0
-3.096312,-12.220145,1.940579,-150.710007,-55.299999,55.02,1729416187535.0,0.0
-0.449851,-11.028521,2.821138,21.629999,-47.810001,77.419998,1729416187556.0,0.0
-4.56072,-5.907879,6.003592,123.129997,-8.54,110.18,1729416187575.0,0.0
-8.937192,-10.832308,6.424729,31.360001,-13.23,96.599998,1729416187595.0,0.0
-7.300502,-16.13241,3.156133,-112.0,-24.99,27.02,1729416187618.0,0.0
-4.35733,-22.298714,-2.751746,-92.400002,-23.870001,-29.960001,1729416187634.0,0.0
-1.356731,-14.940784,0.184247,100.660004,29.960001,-44.59,1729416187656.0,0.0
-3.359523,-6.388836,2.68714,190.680008,65.239998,-56.209999,1729416187675.0,0.0
-1.684547,-9.085547,3.409772,-41.860001,54.599998,-96.110001,1729416187697.0,0.0
-1.641476,-11.732009,1.957329,-92.190002,42.700001,-103.110001,1729416187717.0,0.0
0.751346,-5.032106,7.683353,83.300003,20.370001,-83.370003,1729416187735.0,0.0
-1.909473,2.971886,11.806188,170.940002,35.91,-42.349998,1729416187754.0,0.0
-2.400001,4.275974,10.997414,4.76,-19.530001,-28.35,1729416187776.0,0.0
-2.24686,0.904487,8.860621,-143.289993,-39.549999,7.91,1729416187796.0,0.0
-1.562513,-6.333801,6.455836,-243.809998,-64.959999,12.88,1729416187817.0,0.0
-2.598605,-11.667403,2.888137,-187.460007,-87.709999,28.42,1729416187835.0,0.0
-2.648855,-8.834301,3.28056,-9.38,-63.630001,64.120003,1729416187855.0,0.0
-1.919044,-6.319445,2.490928,62.16,-40.529999,67.690002,1729416187877.0,0.0
-3.493521,-6.975078,2.579463,61.810001,-22.4,86.379997,1729416187897.0,0.0
-6.73101,-10.423136,3.486342,45.990002,-0.28,79.940002,1729416187917.0,0.0
-7.178468,-17.012968,2.70389,-0.49,-2.38,38.290001,1729416187935.0,0.0
-4.398008,-16.21616,2.18704,39.200001,17.360001,-0.84,1729416187964.0,0.0
-3.270989,-10.143176,-0.370888,69.230003,59.220001,-17.01,1729416187975.0,0.0
-1.514657,-10.913664,2.522035,59.360001,39.900002,-58.52,1729416187995.0,0.0
-1.464408,-10.621738,5.462814,70.769997,65.029999,-43.68,1729416188020.0,0.0
-1.605584,-6.06102,5.649454,41.720001,48.369999,-45.920002,1729416188035.0,0.0
-1.363909,-5.374279,7.551748,10.08,31.08,-51.869999,1729416188056.0,0.0
-1.18684,-4.34058,7.88435,-30.1,10.99,-44.380001,1729416188075.0,0.0
-2.029114,-1.713261,7.79103,-18.27,-3.64,-9.66,1729416188095.0,0.0
-2.993421,2.423929,8.276773,-18.549999,-4.34,37.240002,1729416188117.0,0.0
-3.591627,-1.619941,6.415157,-134.680008,-22.75,51.66,1729416188135.0,0.0
-4.759324,-8.618947,3.658626,-184.800003,-39.34,67.129997,1729416188156.0,0.0
-3.979264,-11.875579,3.550949,-89.18,-48.369999,75.669998,1729416188176.0,0.0
-2.476572,-8.202596,4.465007,36.540001,-27.93,97.019997,1729416188197.0,0.0
-5.960521,-9.97807,4.675575,35.490002,-12.81,96.669998,1729416188217.0,0.0
-7.9346,-15.663417,3.936193,-10.01,-9.73,58.59,1729416188235.0,0.0
-6.735795,-15.493526,0.459422,-51.450001,17.710001,9.66,1729416188255.0,0.0
-4.613362,-23.353949,0.988236,4.13,8.96,-68.459999,1729416188276.0,0.0
-2.694318,-8.987441,1.421337,115.57,67.269997,-72.730003,1729416188295.0,0.0
-2.761317,-10.645668,2.440679,80.779999,63.77,-99.889999,1729416188317.0,0.0
-1.801795,-11.739187,2.773281,-7.28,47.880001,-120.959999,1729416188336.0,0.0
-0.72024,-3.862016,6.802795,136.220001,31.290001,-102.480003,1729416188356.0,0.0
-1.409373,8.755339,11.32523,228.899994,32.41,-46.41,1729416188378.0,0.0
-1.325624,9.997212,11.270195,44.099998,-7.28,-6.65,1729416188398.0,0.0
-2.328217,4.027121,8.260024,-199.919998,-25.620001,29.26,1729416188418.0,0.0
-6.049056,-2.036292,3.95055,-320.600006,-33.950001,63.209999,1729416188438.0,0.0
-6.652047,-12.794422,-1.744368,-302.890015,-64.190002,60.130001,1729416188456.0,0.0
-0.79681,-18.44627,-3.29731,-36.889999,-94.709999,63.630001,1729416188480.0,0.0
-2.419144,-7.372287,2.586641,272.720001,1.05,132.229996,1729416188497.0,0.0
-10.676775,-6.324231,8.932407,189.910004,19.18,122.150002,1729416188518.0,0.0
-10.913664,-14.474185,3.538985,-186.759995,2.59,18.27,1729416188537.0,0.0
-5.455636,-28.843082,-6.506085,-279.230011,-45.360001,-78.260002,1729416188557.0,0.0
0.550349,-20.32703,-1.217947,90.860001,32.41,-70.980003,1729416188578.0,0.0
-4.108476,-5.391029,3.395415,210.419998,82.18,-84.0,1729416188598.0,0.0
-1.26341,-10.542776,0.191426,2.87,48.369999,-118.650002,1729416188618.0,0.0
-0.40678,-10.815558,2.335395,-35.98,42.209999,-125.300003,1729416188637.0,0.0
-0.251246,-1.959722,7.152147,138.880005,33.18,-114.099998,1729416188656.0,0.0
-1.538585,4.797609,10.368099,217.350006,30.17,-47.810001,1729416188682.0,0.0
-1.131805,4.548756,9.707682,45.43,-14.56,-42.420002,1729416188697.0,0.0
-2.215754,1.844866,7.52782,-77.279999,-28.35,20.860001,1729416188716.0,0.0
-5.534599,-5.156533,7.578069,-111.510002,-32.060001,53.41,1729416188738.0,0.0
-6.202196,-10.643275,2.95035,-189.0,-49.139999,16.030001,1729416188756.0,0.0
-2.971886,-15.771093,-4.754539,-121.379997,-76.720001,26.67,1729416188777.0,0.0
2.555535,-8.800802,3.103491,129.289993,-50.68,62.299999,1729416188797.0,0.0
-1.792224,-0.598206,5.139783,252.139999,-8.82,111.510002,1729416188817.0,0.0
-6.515656,-1.770689,5.594419,93.590004,-9.1,106.959999,1729416188836.0,0.0
-9.114261,-15.972091,4.287938,-123.199997,-16.450001,67.900002,1729416188856.0,0.0
-4.151547,-24.313471,-3.634698,-160.160004,-54.32,-24.57,1729416188878.0,0.0
-0.952343,-23.729622,0.507278,65.800003,16.1,-23.24,1729416188897.0,0.0
-1.244268,-8.752945,2.289931,230.160004,74.550003,-62.369999,1729416188918.0,0.0
-2.665605,-4.532006,2.215754,109.199997,73.220001,-63.560001,1729416188937.0,0.0
-0.086142,-10.150353,4.962714,-55.93,46.549999,-112.07,1729416188957.0,0.0
-1.543371,-7.467999,6.575477,53.830002,50.189999,-97.370003,1729416188977.0,0.0
-0.854238,0.921237,10.569098,136.009995,10.5,-68.040001,1729416188997.0,0.0
-3.113062,5.816952,11.095518,116.970001,5.39,-14.98,1729416189019.0,0.0
-2.713461,4.256832,9.755538,-64.82,-28.280001,5.67,1729416189036.0,0.0
-3.632305,-0.971486,6.183054,-182.559998,-43.049999,43.049999,1729416189056.0,0.0
-4.175476,-8.061419,2.199004,-189.699997,-58.66,53.41,1729416189077.0,0.0
-2.861816,-12.026326,-0.009571,-84.489998,-64.330002,67.970001,1729416189098.0,0.0
-0.445065,-12.997812,2.665605,102.480003,-48.93,96.459999,1729416189118.0,0.0
-2.411965,-7.372287,3.869194,196.070007,-17.08,106.330002,1729416189136.0,0.0
-6.441479,-4.862216,5.996413,84.699997,19.950001,101.779999,1729416189156.0,0.0
-10.219746,-20.664417,3.84048,-159.669998,1.82,12.81,1729416189177.0,0.0
-1.182054,-23.286947,0.004786,-102.830002,-20.790001,-50.889999,1729416189197.0,0.0
-0.507278,-13.875979,4.079762,80.639999,51.240002,-62.16,1729416189229.0,0.0
-2.395216,-10.327423,3.151347,90.860001,42.0,-81.970001,1729416189237.0,0.0
-1.024128,-7.707282,4.0008,19.040001,40.950001,-103.18,1729416189257.0,0.0
-0.62692,-8.908479,3.471986,-27.370001,38.43,-117.599998,1729416189277.0,0.0
0.303888,-1.356731,10.004392,121.449997,34.720001,-85.470001,1729416189297.0,0.0
-1.39023,2.974278,10.150353,109.059998,13.09,-61.599998,1729416189317.0,0.0
-2.589034,6.556334,9.298509,66.360001,-6.23,12.67,1729416189336.0,0.0
-4.469792,2.852244,11.16491,-35.279999,-9.94,50.119999,1729416189356.0,0.0
-6.987042,-4.790431,6.549156,-214.830002,-29.960001,47.810001,1729416189377.0,0.0
-7.125826,-14.550755,0.531207,-311.290009,-55.650002,33.25,1729416189397.0,0.0
-0.926022,-18.900908,0.251246,-138.740005,-81.059998,23.24,1729416189418.0,0.0
0.509671,-10.171888,2.665605,97.93,-17.99,39.130001,1729416189436.0,0.0
-3.053242,-4.912465,2.510071,70.0,-2.59,48.860001,1729416189457.0,0.0
-1.911865,-7.338787,-0.916451,-64.82,-6.51,27.02,1729416189480.0,0.0
-1.557728,-13.679767,3.431308,13.58,-20.299999,59.360001,1729416189497.0,0.0
-2.969493,-10.298709,3.706482,155.820007,4.41,28.630001,1729416189518.0,0.0
-6.443871,-10.583455,10.396815,89.949997,14.7,27.23,1729416189536.0,0.0
-2.672783,-15.744773,2.514857,-102.269997,-28.630001,-54.18,1729416189556.0,0.0
0.909273,-12.782458,3.756732,-13.93,2.17,-48.509998,1729416189576.0,0.0
-0.756132,-8.315059,4.130012,62.23,29.75,-53.619999,1729416189597.0,0.0
-0.777667,-6.269196,5.998806,45.57,28.700001,-60.060001,1729416189677.0,0.0
0.040678,-5.285746,7.111469,6.86,21.35,-61.670002,1729416189677.0,0.0
-1.174876,-3.17049,7.575676,21.629999,11.06,-33.18,1729416189677.0,0.0
-1.794617,0.282353,6.336195,61.040001,7.14,-2.1,1729416189678.0,0.0
-1.545763,0.31346,5.977271,38.709999,-1.82,23.66,1729416189702.0,0.0
-2.493321,-4.309474,5.883951,1.33,-7.35,48.369999,1729416189718.0,0.0
-2.70389,-6.391229,6.324231,20.23,-12.39,73.150002,1729416189737.0,0.0
-2.218147,-7.89153,6.491727,34.02,-9.1,88.129997,1729416189756.0,0.0
-7.164111,-10.820344,6.982256,7.28,-21.77,92.120003,1729416189777.0,0.0
-6.74776,-13.012171,5.45085,7.84,-15.33,73.849998,1729416189796.0,0.0
-6.278766,-15.11546,4.003192,-29.540001,-16.940001,24.99,1729416189817.0,0.0
-2.830709,-16.474585,3.345166,-13.79,-5.46,-17.219999,1729416189836.0,0.0
-2.45025,-13.143774,3.996014,29.4,18.9,-42.07,1729416189856.0,0.0
-3.287738,-8.020741,4.115655,25.83,36.889999,-59.220001,1729416189877.0,0.0
-1.679761,-11.810973,5.209175,10.64,15.75,-81.410004,1729416189896.0,0.0
-1.529014,-5.178068,7.412964,36.889999,35.77,-77.980003,1729416189919.0,0.0
-0.715454,-5.120641,7.133004,-43.470001,8.19,-95.199997,1729416189936.0,0.0
0.411566,0.777667,8.719445,13.79,-0.07,-62.02,1729416189955.0,0.0
-0.248854,3.981657,7.743174,4.34,-6.51,-8.26,1729416189976.0,0.0
-1.277767,1.679761,6.666404,-75.459999,-11.48,36.540001,1729416190003.0,0.0
-2.48375,-5.79781,5.213961,-162.889999,-23.450001,46.900002,1729416190017.0,0.0
-2.787638,-13.799409,2.596212,-107.730003,-51.380001,51.240002,1729416190037.0,0.0
-2.005185,-10.262815,5.91745,88.550003,-26.18,87.639999,1729416190056.0,0.0
-4.625326,-6.159126,8.056634,126.209999,-5.46,92.470001,1729416190077.0,0.0
-9.29133,-11.779866,7.499106,-30.17,-23.52,69.019997,1729416190096.0,0.0
-6.798009,-17.816957,0.5001,-171.009995,-43.75,-3.29,1729416190118.0,0.0
-0.504886,-19.432112,-1.471586,-78.82,-22.960001,-46.970001,1729416190136.0,0.0
-1.572084,-11.270195,1.787439,118.020004,43.470001,-49.490002,1729416190156.0,0.0
-3.68734,-5.771489,3.416951,107.099998,62.790001,-56.98,1729416190177.0,0.0
-1.799403,-10.671989,5.498707,-15.12,35.07,-90.720001,1729416190197.0,0.0
-0.617348,-7.171289,8.049455,17.710001,43.259998,-78.610001,1729416190217.0,0.0
-0.457029,-3.854837,7.578069,22.610001,31.57,-82.32,1729416190237.0,0.0
0.485743,-0.114855,8.219346,24.57,13.3,-51.939999,1729416190257.0,0.0
-0.308674,0.811167,7.13779,-45.639999,-1.19,-0.49,1729416190278.0,0.0
-1.641476,-3.002992,6.096912,-92.889999,-8.47,35.139999,1729416190297.0,0.0
-2.964707,-7.276574,5.041678,-92.470001,-20.719999,45.57,1729416190320.0,0.0
-2.919244,-8.4347,4.802395,-26.6,-33.18,68.669998,1729416190351.0,0.0
-2.28036,-10.260423,5.481956,30.59,-29.68,82.25,1729416190360.0,0.0
-4.163511,-8.310273,5.907879,45.639999,-18.200001,89.389999,1729416190392.0,0.0
-7.152147,-11.353944,4.17069,-11.55,-19.950001,77.840004,1729416190532.0,0.0
-4.601398,-17.692532,0.811167,-31.01,-34.509998,33.32,1729416190533.0,0.0
-2.988636,-14.581861,2.603391,79.519997,14.49,18.620001,1729416190533.0,0.0
-3.76391,-10.79163,6.597012,85.330002,38.150002,-33.25,1729416190533.0,0.0
-4.175476,-13.598411,5.115855,4.76,24.92,-49.91,1729416190533.0,0.0
-0.803988,-9.949356,5.249853,13.51,22.540001,-84.489998,1729416190534.0,0.0
-1.447658,-10.557133,4.220939,45.360001,16.450001,-80.220001,1729416190534.0,0.0
-0.399601,-4.493721,8.252845,96.599998,28.42,-84.629997,1729416190540.0,0.0
0.425922,-4.797609,8.173882,9.24,15.82,-99.190002,1729416190556.0,0.0
-0.784846,1.241875,9.166903,56.209999,-0.35,-45.009998,1729416190577.0,0.0
-2.108077,3.862016,9.638289,20.02,-7.0,-9.66,1729416190599.0,0.0
-0.258425,0.26321,5.886343,-118.720001,-32.900002,3.5,1729416190618.0,0.0
-3.883551,-3.605984,6.491727,-143.149994,-33.670002,58.939999,1729416190638.0,0.0
-5.424529,-8.49452,1.019342,-173.529999,-44.869999,52.009998,1729416190657.0,0.0
-1.012164,-11.485549,3.0006,-95.970001,-70.209999,59.990002,1729416190678.0,0.0
-0.581456,-8.054241,4.074977,82.389999,-36.330002,98.279999,1729416190697.0,0.0
-5.285746,-5.886343,5.151747,79.379997,-19.25,115.5,1729416190721.0,0.0
-5.288138,-14.041083,-0.083749,2.24,-35.91,86.940002,1729416190737.0,0.0
-4.761717,-14.529219,2.706282,40.529999,13.86,67.059998,1729416190757.0,0.0
-5.484349,-14.952748,5.936593,12.11,28.630001,-9.31,1729416190780.0,0.0
-3.211168,-20.559132,5.417351,-10.64,6.65,-42.77,1729416190797.0,0.0
-1.268196,-12.990634,5.76431,47.740002,43.330002,-79.169998,1729416190817.0,0.0
-1.622334,-8.764909,1.995614,-3.36,29.4,-91.07,1729416190838.0,0.0
-0.356531,-8.611769,4.778467,13.3,33.110001,-95.199997,1729416190857.0,0.0
-0.839881,-5.802595,7.453642,20.93,21.700001,-106.470001,1729416190878.0,0.0
-1.536192,5.546563,9.475577,107.520004,11.27,-23.450001,1729416190899.0,0.0
-0.004786,4.424329,9.990034,-49.279999,-21.07,-11.97,1729416190919.0,0.0
-0.275175,-1.682154,3.534199,-224.350006,-34.369999,10.71,1729416190940.0,0.0
-5.245068,-7.649854,2.036292,-164.990005,-30.66,66.709999,1729416190958.0,0.0
-3.572484,-11.449656,2.78046,-91.910004,-46.41,45.360001,1729416190979.0,0.0
0.863809,-10.779665,3.426522,61.459999,-36.889999,80.709999,1729416190997.0,0.0
-1.98365,-4.26401,4.919643,162.539993,6.93,104.510002,1729416191020.0,0.0
-6.98465,-4.386044,5.288138,74.340004,18.76,110.879997,1729416191037.0,0.0
-9.186047,-17.915062,8.159525,-153.720001,1.82,50.68,1729416191057.0,0.0
0.098106,-24.416363,-4.405186,-191.589996,-75.879997,-44.73,1729416191078.0,0.0
-1.887937,-14.584253,4.237689,83.510002,58.240002,15.47,1729416191099.0,0.0
-3.168097,-12.260822,2.684747,69.790001,35.77,-79.029999,1729416191121.0,0.0
-1.052842,-9.633504,2.22054,39.34,42.279999,-70.489998,1729416191138.0,0.0
-1.304088,-6.793223,5.398208,44.799999,50.540001,-83.230003,1729416191157.0,0.0
-1.294517,-4.515256,6.173482,-1.75,34.369999,-90.090004,1729416191178.0,0.0
0.222532,-0.880559,7.690532,27.16,8.4,-54.389999,1729416191198.0,0.0
-0.480957,4.261617,8.341379,63.630001,9.8,-2.52,1729416191218.0,0.0
-1.002593,-0.509671,4.895715,-142.729996,-17.710001,33.529999,1729416191238.0,0.0
-6.070591,-7.01097,2.029114,-158.690002,-20.02,81.550003,1729416191258.0,0.0
-4.527221,-11.394621,3.98405,-92.470001,-55.09,75.25,1729416191278.0,0.0
-1.643869,-11.980864,2.935993,36.82,-56.91,96.459999,1729416191297.0,0.0
-4.141976,-6.82433,2.995814,111.510002,-20.02,120.75,1729416191318.0,0.0
-7.52782,-7.903493,2.316252,32.689999,-6.3,109.410004,1729416191337.0,0.0
-9.705289,-17.656639,4.326223,-144.759995,0.7,43.119999,1729416191358.0,0.0
-3.139383,-19.422541,-1.844866,-212.660004,-25.549999,-50.049999,1729416191378.0,0.0
-2.337788,-17.347965,1.272982,-61.389999,43.82,-34.02,1729416191397.0,0.0
-1.715654,-12.997812,3.268596,18.76,48.09,-78.050003,1729416191418.0,0.0
-0.708275,-10.760524,2.206182,56.77,50.049999,-66.849998,1729416191438.0,0.0
-0.588634,-5.417351,3.436093,29.610001,45.920002,-94.150002,1729416191458.0,0.0
-1.548156,-4.728218,3.926622,-38.709999,39.34,-75.529999,1729416191481.0,0.0
0.471386,-5.517848,4.474578,-99.260002,10.43,-84.840004,1729416191498.0,0.0
0.768096,-2.347359,5.608776,60.41,1.12,-13.09,1729416191518.0,0.0
-1.146162,3.689733,6.683154,157.289993,9.8,39.549999,1729416191541.0,0.0
-4.199404,-0.803988,4.749753,18.129999,-3.92,70.0,1729416191557.0,0.0
-5.804988,-10.652846,2.876173,-182.699997,-38.43,66.360001,1729416191577.0,0.0
-4.481757,-17.393427,1.651048,-40.389999,-83.440002,82.040001,1729416191597.0,0.0
-3.225525,-11.614761,2.352145,132.369995,-40.25,108.5,1729416191628.0,0.0
-6.482157,-10.526026,2.273181,141.75,-1.19,92.889999,1729416191642.0,0.0
-10.712667,-15.720845,2.026721,-51.73,13.09,21.280001,1729416191659.0,0.0
-5.656632,-24.064617,-2.105684,-103.529999,-21.91,-72.309998,1729416191679.0,0.0
-0.040678,-16.912472,1.380659,82.739998,26.67,-63.77,1729416191697.0,0.0
-2.103291,-8.985049,4.627719,173.110001,48.790001,-85.889999,1729416191719.0,0.0
-2.476572,-4.898108,1.679761,63.139999,36.259998,-95.480003,1729416191737.0,0.0
-1.612763,-6.829116,4.424329,-16.52,18.76,-105.419998,1729416191757.0,0.0
-1.196411,-6.350551,6.695118,30.17,18.76,-98.980003,1729416191777.0,0.0
-0.301496,-1.572084,8.489735,102.550003,2.87,-71.330002,1729416191797.0,0.0
-1.196411,3.696911,8.901299,107.169998,-3.57,-24.57,1729416191819.0,0.0
-0.380459,3.306881,7.908278,-63.560001,-26.389999,-7.63,1729416191837.0,0.0
-1.162912,-1.600798,4.644469,-219.729996,-35.630001,23.870001,1729416191858.0,0.0
-2.871387,-9.013763,1.57687,-237.229996,-42.98,39.900002,1729416191878.0,0.0
-1.586441,-12.375679,0.162712,-101.150002,-61.880001,49.0,1729416191897.0,0.0
-1.641476,-8.018349,2.562713,203.210007,-24.99,101.150002,1729416191918.0,0.0
-5.783452,-6.233303,6.087341,174.860001,-4.55,114.800003,1729416191937.0,0.0
-7.877172,-8.25763,2.249253,-40.040001,-6.16,77.0,1729416191957.0,0.0
-7.728817,-19.044476,0.071785,-168.419998,-11.2,13.65,1729416191978.0,0.0
-2.696711,-21.913469,-1.899901,-77.279999,-25.48,-36.610001,1729416191997.0,0.0
-1.490728,-10.872985,0.909273,152.180008,51.240002,-22.889999,1729416192017.0,0.0
-4.101298,-3.885944,2.758924,128.589996,63.77,-26.460001,1729416192044.0,0.0
-2.830709,-11.880364,6.034698,-2.94,23.450001,-58.310001,1729416192059.0,0.0
-1.655833,-9.664611,5.436492,-44.66,29.82,-67.059998,1729416192078.0,0.0
-1.37348,-6.479764,7.951349,-37.66,15.26,-62.09,1729416192097.0,0.0
-0.153141,-5.029713,6.826723,-55.860001,1.68,-56.209999,1729416192119.0,0.0
0.382852,-2.823531,7.673782,-56.490002,-5.74,-27.93,1729416192137.0,0.0
-0.136391,-1.938186,5.812167,-125.580002,-11.62,-15.96,1729416192157.0,0.0
-1.249053,-3.988836,4.132405,-196.139999,-28.210001,14.49,1729416192177.0,0.0
-3.694518,-11.133803,0.806381,-182.770004,-37.66,29.82,1729416192199.0,0.0
-3.218346,-10.461421,0.57667,28.139999,-42.77,56.490002,1729416192219.0,0.0
-2.828316,-8.803195,1.892723,135.800003,-32.41,75.529999,1729416192238.0,0.0
-4.522435,-7.702496,2.883351,134.960007,-18.620001,90.019997,1729416192258.0,0.0
-7.042077,-9.798609,0.684347,99.400002,-12.81,91.0,1729416192279.0,0.0
-7.953743,-11.947363,3.775874,8.89,2.87,41.720001,1729416192298.0,0.0
-6.252446,-17.654245,-2.725425,-71.889999,-18.129999,-8.4,1729416192321.0,0.0
-4.022335,-16.957933,3.85723,64.330002,40.950001,-17.360001,1729416192338.0,0.0
-2.514857,-14.201403,2.28036,34.16,30.17,-82.25,1729416192358.0,0.0
-1.770689,-9.425328,3.177669,37.799999,57.75,-63.630001,1729416192378.0,0.0
-0.79681,-9.265009,6.116055,12.39,38.849998,-89.599998,1729416192399.0,0.0
-1.880759,-8.571091,5.891129,25.620001,49.420002,-75.110001,1729416192421.0,0.0
0.258425,-4.309474,6.151947,28.77,14.56,-81.199997,1729416192438.0,0.0
-0.646062,0.928415,8.760124,97.090004,19.110001,-20.299999,1729416192459.0,0.0
0.667598,0.083749,7.755138,-27.02,-9.24,-20.440001,1729416192482.0,0.0
-3.421736,-6.008378,4.118048,-121.870003,-18.690001,19.809999,1729416192499.0,0.0
-5.606383,-7.676175,4.524827,6.65,-33.110001,74.410004,1729416192522.0,0.0
-4.304688,-8.415558,4.24726,66.989998,-34.299999,72.379997,1729416192538.0,0.0
-4.54397,-8.539984,3.773481,72.239998,-29.33,91.910004,1729416192558.0,0.0
-7.164111,-10.576276,3.661019,60.34,-23.379999,95.970001,1729416192580.0,0.0
-5.936593,-10.119246,-0.325424,32.619999,-7.98,65.660004,1729416192600.0,0.0
-8.420342,-17.572889,3.041277,-50.189999,12.46,12.25,1729416192623.0,0.0
-3.639483,-17.47957,-4.326223,-37.170002,1.61,-38.009998,1729416192640.0,0.0
-2.98385,-15.168103,2.507678,65.590004,52.43,-45.009998,1729416192660.0,0.0
-1.753939,-11.794223,2.914458,32.759998,47.670002,-81.970001,1729416192680.0,0.0
-1.335195,-9.092726,1.813759,-19.67,48.02,-99.330002,1729416192700.0,0.0
-0.894916,-7.79103,5.192425,-8.19,47.25,-85.470001,1729416192721.0,0.0
-0.729811,-6.800402,5.572884,8.75,38.360001,-92.120003,1729416192740.0,0.0
0.827917,-2.48375,8.673983,24.92,16.379999,-71.889999,1729416192765.0,0.0
0.227318,1.737189,7.810174,-3.29,-0.63,-31.780001,1729416192780.0,0.0
-2.955136,0.287139,8.987441,-64.959999,-23.24,18.41,1729416192800.0,0.0
-5.13739,-4.65404,4.843073,-197.330002,-54.040001,50.189999,1729416192821.0,0.0
-4.934,-9.399008,1.672583,-158.199997,-75.110001,66.010002,1729416192840.0,0.0
-2.091327,-9.676575,-1.526621,31.639999,-70.07,92.330002,1729416192860.0,0.0
-5.424529,-9.530612,3.677768,141.610001,-19.67,117.879997,1729416192881.0,0.0
-7.946564,-10.923235,1.775474,80.709999,2.24,106.959999,1729416192900.0,0.0
-8.01117,-14.098512,-2.239682,-10.5,19.74,57.400002,1729416192921.0,0.0
-8.702696,-24.947569,0.299103,-72.870003,14.84,-15.12,1729416192941.0,0.0
-2.526821,-19.987249,-2.727818,39.689999,9.31,-60.970001,1729416192959.0,0.0
-3.122634,-7.338787,-1.129412,170.940002,86.660004,-57.189999,1729416192980.0,0.0
-2.378466,-9.695717,2.569891,33.110001,60.830002,-88.970001,1729416193000.0,0.0
-1.619941,-11.705689,3.074777,-18.059999,57.470001,-114.940002,1729416193021.0,0.0
-1.375873,-5.474778,6.427122,41.580002,44.170002,-98.489998,1729416193040.0,0.0
-0.236889,1.744368,9.207582,113.120003,23.66,-65.940002,1729416193060.0,0.0
0.342174,2.136791,10.274779,13.16,-7.91,-42.420002,1729416193080.0,0.0
-0.756132,0.622134,5.776274,-125.020004,-26.67,-15.82,1729416193099.0,0.0
-4.039084,-2.414358,5.898308,-153.089996,-30.73,41.369999,1729416193121.0,0.0
-4.754539,-11.566904,0.844666,-152.25,-50.119999,41.860001,1729416193140.0,0.0
-1.524228,-11.064411,-0.11007,123.129997,-59.920002,76.440002,1729416193159.0,0.0
-4.283153,-7.367501,5.568098,216.790009,-8.47,105.0,1729416193180.0,0.0
-8.26481,-9.719646,4.496114,60.549999,-3.43,93.379997,1729416193200.0,0.0
-6.965507,-15.972091,-1.39023,-21.700001,-17.01,40.599998,1729416193221.0,0.0
-6.518049,-20.867805,3.682554,8.68,15.61,4.62,1729416193241.0,0.0
-2.758924,-16.273586,-0.772882,83.790001,10.29,-48.580002,1729416193260.0,0.0
-2.206182,-5.584848,1.804188,122.360001,59.709999,-44.73,1729416193280.0,0.0
-1.454836,-13.146168,4.486543,32.619999,19.950001,-65.449997,1729416193300.0,0.0
-0.066999,-9.140583,3.912265,39.759998,25.129999,-83.300003,1729416193321.0,0.0
-1.65344,-4.790431,7.652246,56.630001,33.459999,-61.810001,1729416193340.0,0.0
-0.61017,-4.76411,5.465207,-29.68,11.13,-70.489998,1729416193359.0,0.0
0.20339,-2.964707,5.362316,-79.590004,-2.17,-52.920002,1729416193380.0,0.0
-1.316052,1.232304,6.52762,-41.93,-7.91,5.39,1729416193399.0,0.0
-3.414558,-0.849452,7.49432,-35.07,-21.280001,45.57,1729416193421.0,0.0
-5.149354,-5.240282,5.06082,-96.25,-37.52,53.830002,1729416193439.0,0.0
-5.474778,-8.84148,3.84048,-98.980003,-49.77,71.190002,1729416193459.0,0.0
-4.914857,-12.55514,3.098706,65.660004,-40.950001,80.849998,1729416193483.0,0.0
-5.347959,-8.080563,0.815953,153.720001,-18.549999,89.389999,1729416193500.0,0.0
-6.551548,-8.827123,1.603191,144.130005,9.59,78.190002,1729416193521.0,0.0
-8.69791,-13.66541,5.551349,27.16,28.49,33.459999,1729416193539.0,0.0
-4.323831,-19.156939,2.237289,-9.73,-12.39,-44.799999,1729416193559.0,0.0
-1.952543,-8.374879,4.783253,60.34,44.59,-39.549999,1729416193580.0,0.0
-2.672783,-12.047862,3.89073,-8.68,25.129999,-77.559998,1729416193600.0,0.0
0.071785,-9.466006,4.354938,-72.519997,20.299999,-96.949997,1729416193620.0,0.0
-0.198604,-7.54457,5.106283,-49.630001,31.85,-96.879997,1729416193639.0,0.0
-0.985843,-6.128019,4.517649,-77.559998,33.740002,-100.169998,1729416193660.0,0.0
0.918844,-4.09412,6.910471,-94.639999,12.39,-94.989998,1729416193680.0,0.0
1.119841,-1.397408,5.828916,-82.18,-0.21,-66.709999,1729416193699.0,0.0
-1.823331,-0.342174,6.190232,5.11,-13.65,2.8,1729416193730.0,0.0
-4.197011,-1.904687,7.15454,35.490002,-23.870001,33.25,1729416193740.0,0.0
-4.957928,-4.613362,4.955536,-30.799999,-40.950001,36.119999,1729416193759.0,0.0
-5.843273,-7.176075,4.943572,-21.210001,-46.130001,65.940002,1729416193780.0,0.0
-6.874579,-12.059827,4.388437,-42.0,-37.59,63.349998,1729416193799.0,0.0
-5.022535,-13.96212,1.464408,-124.18,-65.449997,23.379999,1729416193830.0,0.0
-3.206382,-9.485149,-0.050249,5.81,-17.08,40.110001,1729416193839.0,0.0
-4.905287,-11.57169,-0.148355,-8.12,-3.85,16.52,1729416193859.0,0.0
-3.859623,-15.335601,1.225125,-17.43,7.49,-8.96,1729416193880.0,0.0
-1.835295,-13.62234,-2.249253,58.310001,19.040001,-34.23,1729416193899.0,0.0
-1.392623,-14.766108,6.192625,126.349998,33.670002,-33.389999,1729416193920.0,0.0
-1.442872,-10.052249,3.189633,83.440002,30.59,-83.93,1729416193939.0,0.0
-1.744368,-6.013163,3.333202,51.099998,30.59,-66.010002,1729416193959.0,0.0
-1.160519,-4.821537,3.39063,-22.469999,21.629999,-79.660004,1729416193979.0,0.0
0.189033,-6.786045,4.366901,-30.380001,11.97,-66.989998,1729416193999.0,0.0
-1.160519,-2.804388,6.422336,46.759998,10.99,-21.07,1729416194030.0,0.0
-2.117648,-1.088734,6.297909,-16.66,-7.77,-6.58,1729416194039.0,0.0
-2.581856,-4.642076,3.661019,-115.290001,-26.6,5.74,1729416194059.0,0.0
-4.34058,-9.580862,2.321038,-46.830002,-39.900002,41.509998,1729416194080.0,0.0
-2.660819,-8.195417,2.500499,66.080002,-44.73,47.389999,1729416194099.0,0.0
-3.010171,-7.140182,4.496114,104.090004,-36.330002,68.18,1729416194120.0,0.0
-6.728617,-10.564312,3.445665,54.599998,-27.16,73.989998,1729416194139.0,0.0
-7.668997,-18.580267,3.546163,-25.83,-19.809999,20.719999,1729416194159.0,0.0
-5.996413,-16.828722,4.429115,-1.12,0.63,-21.07,1729416194179.0,0.0
-0.574277,-19.996819,4.955536,-14.84,-23.379999,-82.879997,1729416194199.0,0.0
-0.380459,-9.796216,3.15374,37.099998,1.68,-91.209999,1729416194220.0,0.0
-1.306481,-4.991428,3.108276,11.2,10.36,-99.400002,1729416194239.0,0.0
1.722832,-5.960521,0.306281,-121.800003,14.0,-118.440002,1729416194259.0,0.0
2.672783,-7.161718,2.596212,-99.260002,20.16,-90.440002,1729416194279.0,0.0
2.254039,-2.928815,3.866802,64.120003,21.77,-56.279999,1729416194299.0,0.0
1.323231,4.981857,6.740582,183.050003,11.62,-0.56,1729416194320.0,0.0
-0.552742,5.972485,9.934999,112.629997,2.59,59.220001,1729416194338.0,0.0
-5.099105,-0.902094,11.236694,-115.919998,-15.12,78.120003,1729416194358.0,0.0
-6.759724,-14.330614,0.358923,-326.130005,-44.170002,48.650002,1729416194380.0,0.0
-2.62732,-21.54019,-0.543171,-152.110001,-119.559998,39.759998,1729416194399.0,0.0
0.55992,-11.535798,2.581856,196.210007,-37.799999,91.0,1729416194420.0,0.0
-3.290131,-3.460021,4.98425,200.690002,-7.07,81.129997,1729416194439.0,0.0
-8.226524,-9.224331,4.472186,-24.99,-3.43,56.98,1729416194458.0,0.0
-3.546163,-26.979076,-2.435893,-169.050003,-22.889999,-16.17,1729416194482.0,0.0
1.892723,-19.211973,0.543171,90.160004,6.16,-57.610001,1729416194500.0,0.0
-2.249253,-5.448457,1.689333,225.190002,52.709999,-59.290001,1729416194519.0,0.0
-1.782653,-7.487142,7.4345,154.630005,22.540001,-77.07,1729416194539.0,0.0
-0.253639,-6.585048,6.635297,41.650002,15.89,-95.129997,1729416194559.0,0.0
0.303888,-4.091727,6.092126,-23.1,12.11,-90.370003,1729416194580.0,0.0
1.404587,-2.679961,5.905487,-21.139999,2.94,-63.349998,1729416194599.0,0.0
1.122234,0.378066,6.661618,-32.619999,0.07,-29.75,1729416194691.0,0.0
1.866402,0.193819,5.510671,-122.57,-9.66,-3.99,1729416194701.0,0.0
0.122034,-6.049056,1.5003,-170.520004,-7.84,19.110001,1729416194702.0,0.0
-2.584249,-9.085547,1.672583,-39.900002,-8.47,50.330002,1729416194703.0,0.0
-1.710868,-7.9346,4.287938,98.419998,-7.98,68.18,1729416194703.0,0.0
-2.340181,-8.116454,6.271588,139.720001,-14.84,78.68,1729416194721.0,0.0
-4.639683,-8.898908,6.716653,111.160004,-9.52,91.349998,1729416194739.0,0.0
-6.494121,-12.186646,4.814359,44.799999,-24.290001,75.32,1729416194759.0,0.0
-6.01077,-13.409377,3.833302,24.219999,-17.99,46.200001,1729416194779.0,0.0
-3.395415,-11.41855,2.734996,30.030001,-10.29,4.83,1729416194799.0,0.0
-1.883151,-12.643675,4.359723,32.27,17.92,-20.16,1729416194830.0,0.0
-1.232304,-11.782259,5.788238,17.85,24.780001,-53.619999,1729416194839.0,0.0
-0.741775,-6.470192,5.465207,16.379999,28.49,-59.080002,1729416194858.0,0.0
0.09332,-8.324631,5.644669,-33.040001,12.11,-68.32,1729416194879.0,0.0
-0.129212,-4.800002,6.616155,-33.110001,15.190001,-59.010002,1729416194898.0,0.0
1.785046,-3.261417,7.683353,-75.599998,-3.71,-72.730003,1729416194927.0,0.0
1.89033,-1.591227,6.266802,-48.509998,-2.59,-28.91,1729416194940.0,0.0
0.619741,-1.289732,5.264209,-48.439999,-7.14,9.59,1729416194960.0,0.0
-0.196211,-5.85763,3.929015,-126.279999,-8.75,19.67,1729416194980.0,0.0
-2.428715,-10.083356,2.79721,-98.349998,-10.01,32.27,1729416195000.0,0.0
-3.091527,-7.941778,3.481557,37.099998,-12.81,66.57,1729416195022.0,0.0
-2.122434,-8.149954,4.362115,63.700001,-20.51,64.470001,1729416195040.0,0.0
-1.660619,-9.927821,4.465007,72.940002,-15.4,80.360001,1729416195065.0,0.0
-6.38405,-9.611969,7.281359,63.630001,-1.12,81.340004,1729416195085.0,0.0
-2.328217,-18.441484,-0.81356,-37.52,-1.82,42.0,1729416195132.0,0.0
-3.067599,-7.499106,4.316652,106.610001,42.279999,-43.400002,1729416195221.0,0.0
-0.497707,-8.475377,5.570491,88.269997,50.82,-61.740002,1729416195226.0,0.0
0.954736,-6.625726,5.845665,-0.63,31.639999,-86.660004,1729416195227.0,0.0
0.971486,-2.11047,6.89133,-5.67,17.360001,-71.050003,1729416195227.0,0.0
0.617348,-0.404387,6.312266,11.69,16.309999,-49.279999,1729416195239.0,0.0
-0.485743,-0.485743,6.132804,-49.209999,2.66,10.08,1729416195261.0,0.0
-2.045863,-3.244668,4.833502,-101.709999,-5.04,34.790001,1729416195281.0,0.0
-3.35713,-6.400801,2.952743,-135.660004,-10.85,47.389999,1729416195300.0,0.0
-2.63689,-11.672189,1.828116,-127.540001,-20.51,45.080002,1729416195321.0,0.0
-1.529014,-12.866207,1.548156,-27.860001,-23.66,50.540001,1729416195340.0,0.0
-2.787638,-9.554541,4.345366,101.849998,-3.29,76.090004,1729416195360.0,0.0
-5.927022,-8.30788,6.89133,85.400002,-2.45,71.050003,1729416195382.0,0.0
-5.682954,-11.8349,0.823131,-86.029999,-15.89,26.530001,1729416195404.0,0.0
-2.553142,-14.526826,-0.459422,-59.849998,-22.82,7.84,1729416195424.0,0.0
-2.117648,-14.163116,0.923629,53.760002,5.04,-1.26,1729416195441.0,0.0
-3.318845,-10.305886,2.555535,166.389999,24.15,-1.05,1729416195463.0,0.0
-3.960121,-5.015356,6.879365,155.330002,43.400002,-5.11,1729416195484.0,0.0
-2.411965,-3.816552,5.082355,-24.639999,24.85,-31.15,1729416195503.0,0.0
-2.081756,-14.598611,6.149554,-108.779999,-4.76,-49.0,1729416195523.0,0.0
-0.524028,-11.344372,6.666404,-26.040001,19.809999,-42.279999,1729416195541.0,0.0
-1.600798,-8.343772,5.65424,-2.45,26.18,-47.529999,1729416195562.0,0.0
-1.485943,-9.375079,3.725625,-34.790001,8.89,-39.759998,1729416195581.0,0.0
0.363709,-7.759924,4.778467,-19.460001,3.64,-39.759998,1729416195601.0,0.0
-0.631705,-5.517848,4.606184,-28.91,12.32,-27.23,1729416195623.0,0.0
-0.145962,-4.378866,4.960321,-63.560001,2.24,-15.4,1729416195645.0,0.0
-0.421137,-6.69751,4.989035,-73.779999,-1.19,-1.05,1729416195660.0,0.0
-1.852045,-9.925428,5.290531,-52.639999,-9.87,6.51,1729416195682.0,0.0
-3.455236,-6.017949,5.460421,29.540001,-9.94,33.950001,1729416195701.0,0.0
-3.972085,-5.503492,4.249653,12.88,-15.05,46.200001,1729416195721.0,0.0
-2.230111,-9.190832,3.0006,-14.0,-32.689999,49.91,1729416195742.0,0.0
-3.330809,-7.915457,4.625326,73.57,-15.61,76.580002,1729416195761.0,0.0
-4.689932,-7.156933,4.898108,57.470001,-18.200001,77.629997,1729416195782.0,0.0
-5.759524,-10.949556,4.852644,-21.280001,-26.389999,76.230003,1729416195801.0,0.0
-4.192225,-16.168303,-4.627719,-38.220001,-59.360001,32.130001,1729416195822.0,0.0
-5.532206,-18.575481,1.509871,14.14,-3.08,28.91,1729416195842.0,0.0
-3.316452,-15.92902,1.251446,-7.0,-6.58,-61.18,1729416195860.0,0.0
-1.65344,-11.152946,0.227318,55.580002,25.76,-66.43,1729416195881.0,0.0
-0.942772,-10.24846,4.323831,78.959999,39.830002,-76.090004,1729416195902.0,0.0
-3.036492,-3.510271,5.702096,29.889999,55.790001,-84.840004,1729416195922.0,0.0
-1.794617,-4.740182,5.192425,-36.259998,30.66,-79.029999,1729416195941.0,0.0
-0.397209,-1.103091,7.484749,9.87,22.4,-49.279999,1729416195960.0,0.0
-0.976272,0.011964,6.343372,-27.02,28.77,-21.139999,1729416195982.0,0.0
0.538385,-1.433301,4.658825,-128.240005,-0.56,-1.19,1729416196003.0,0.0
-2.37368,-4.323831,4.280759,-77.769997,3.08,72.519997,1729416196022.0,0.0
-5.599205,-9.705289,3.464807,-15.82,1.47,91.629997,1729416196041.0,0.0
-2.476572,-12.277573,2.646462,-6.23,-32.970001,57.470001,1729416196061.0,0.0
-3.359523,-7.168896,2.07697,172.410004,-8.33,102.550003,1729416196081.0,0.0
-8.157133,-10.710274,4.273581,81.620003,3.08,90.160004,1729416196101.0,0.0
-9.01137,-15.993626,5.101498,-79.379997,9.03,16.379999,1729416196123.0,0.0
-3.905087,-23.045277,-0.937986,-163.240005,-28.49,-59.150002,1729416196140.0,0.0
-1.318445,-13.749159,-2.005185,13.09,31.219999,-52.990002,1729416196161.0,0.0
-3.050849,-8.755339,2.610569,89.669998,51.59,-72.379997,1729416196182.0,0.0
-2.007578,-9.525827,3.347559,22.960001,36.470001,-96.110001,1729416196201.0,0.0
-1.141376,-8.051848,4.713861,-8.4,37.170002,-96.739998,1729416196221.0,0.0
-0.55992,-8.346166,4.383651,16.870001,15.47,-94.919998,1729416196240.0,0.0
-1.201197,-1.275374,8.334201,145.110001,15.68,-39.619999,1729416196260.0,0.0
-2.311467,2.050649,7.908278,118.440002,6.93,-22.82,1729416196282.0,0.0
-1.351945,1.866402,6.197411,-45.5,-19.32,-6.09,1729416196302.0,0.0
-0.839881,-0.232104,3.536592,-193.199997,-20.16,18.690001,1729416196322.0,0.0
-2.148755,-5.410172,0.358923,-267.119995,-24.780001,39.970001,1729416196340.0,0.0
-4.644469,-14.488542,-0.401994,-191.449997,-40.040001,57.82,1729416196361.0,0.0
-3.359523,-16.711473,-0.940379,37.170002,-47.389999,63.560001,1729416196381.0,0.0
-4.4674,-9.422935,2.928815,196.210007,2.45,71.120003,1729416196401.0,0.0
-7.391429,-10.112068,4.331009,53.549999,28.91,41.650002,1729416196422.0,0.0
-6.869793,-12.717852,2.352145,-96.25,20.02,-4.27,1729416196441.0,0.0
-3.029313,-12.957134,1.141376,-119.07,8.61,-23.59,1729416196460.0,0.0
-1.76351,-11.827723,1.878366,-28.139999,25.549999,-19.74,1729416196484.0,0.0
-2.579463,-8.839087,2.605784,24.08,33.32,-31.08,1729416196502.0,0.0
-2.409572,-7.771888,2.794817,9.8,28.630001,-30.380001,1729416196522.0,0.0
-2.086541,-7.690532,4.697111,3.36,16.379999,-30.030001,1729416196541.0,0.0
-1.792224,-5.886343,4.706682,6.23,15.96,-20.370001,1729416196560.0,0.0
-2.151148,-6.161518,5.76431,-8.82,-11.41,-11.62,1729416196581.0,0.0
-3.098706,-6.975078,4.838287,-11.48,-13.51,0.77,1729416196601.0,0.0
-3.699304,-7.750352,4.563113,-25.059999,-25.969999,7.28,1729416196628.0,0.0
-3.787838,-6.955935,4.723432,1.19,-33.880001,18.27,1729416196640.0,0.0
-3.201597,-6.242875,4.244867,36.470001,-40.18,32.130001,1729416196660.0,0.0
-3.120241,-5.769095,3.955336,52.779999,-46.970001,51.73,1729416196680.0,0.0
-3.084348,-5.742774,4.192225,76.370003,-52.360001,73.360001,1729416196700.0,0.0
