acc_x,acc_y,acc_z,gyr_x,gyr_y,gyr_z,timestamp,label
-4.053442,-9.095119,1.921437,-56.490002,22.26,-34.439999,1729472462819.0,0.0
-4.21376,-8.793623,1.775474,-56.630001,25.549999,-35.279999,1729472462819.0,0.0
-4.173083,-8.666803,1.842474,-52.849998,25.059999,-34.860001,1729472462820.0,0.0
-3.979264,-8.54477,1.725225,-49.560001,24.15,-32.130001,1729472462826.0,0.0
-3.830909,-8.506484,1.78026,-43.540001,23.1,-27.51,1729472462846.0,0.0
-3.67059,-8.276773,1.689333,-33.670002,21.84,-22.610001,1729472462866.0,0.0
-3.649055,-8.26481,1.789831,-26.389999,22.049999,-17.15,1729472462887.0,0.0
-3.68734,-8.35813,1.782653,-25.9,20.23,-13.37,1729472462907.0,0.0
-3.651447,-8.738588,1.607977,-24.08,17.01,-9.17,1729472462927.0,0.0
-3.699304,-8.85105,1.421337,-19.32,15.12,-5.18,1729472462946.0,0.0
-3.739982,-8.755339,1.253839,-13.93,14.63,-2.17,1729472462967.0,0.0
-3.706482,-8.717053,1.174876,-17.15,12.67,0.21,1729472462986.0,0.0
-3.646662,-9.068797,0.957129,-26.110001,7.7,0.84,1729472463006.0,0.0
-3.452843,-9.688539,0.495314,-29.610001,3.57,2.52,1729472463027.0,0.0
-3.285345,-9.745967,0.315853,-18.41,1.05,4.83,1729472463046.0,0.0
-3.273381,-9.566505,0.208176,-12.88,0.98,5.32,1729472463069.0,0.0
-3.39063,-9.564112,0.208176,-14.84,0.56,4.62,1729472463087.0,0.0
-3.457629,-9.592826,0.155533,-21.07,-0.63,3.01,1729472463106.0,0.0
-3.400201,-9.623933,0.098106,-25.48,-1.33,1.26,1729472463128.0,0.0
-3.342773,-9.707682,-0.102891,-25.48,-1.96,-0.77,1729472463146.0,0.0
-3.278167,-9.743573,-0.404387,-20.09,-2.87,-2.24,1729472463167.0,0.0
-3.302095,-9.664611,-0.387637,-8.82,-2.45,-2.45,1729472463187.0,0.0
-3.306881,-9.377472,-0.289532,2.73,-1.05,-2.38,1729472463207.0,0.0
-3.438486,-9.305687,-0.114855,5.04,0.07,-2.87,1729472463227.0,0.0
-3.572484,-9.399008,-0.002393,0.98,-0.14,-3.71,1729472463246.0,0.0
-3.519842,-9.375079,-0.031107,-1.96,-0.77,-3.57,1729472463267.0,0.0
-3.481557,-9.217153,-0.057428,-5.25,-0.98,-3.99,1729472463286.0,0.0
-3.45045,-9.212367,-0.014357,-11.55,-0.63,-5.39,1729472463306.0,0.0
-3.661019,-9.265009,0.086142,-18.969999,0.07,-7.07,1729472463345.0,0.0
-3.684947,-9.293723,0.050249,-22.540001,-0.77,-7.98,1729472463346.0,0.0
-3.570091,-9.300901,-0.124427,-23.309999,-1.89,-9.38,1729472463367.0,0.0
-3.443272,-9.24826,-0.380459,-25.9,-3.15,-11.97,1729472463386.0,0.0
-3.452843,-9.413363,-0.57667,-29.190001,-3.36,-12.6,1729472463407.0,0.0
-3.479164,-9.487542,-0.756132,-32.27,-3.57,-14.07,1729472463426.0,0.0
-3.414558,-9.427721,-0.823131,-36.540001,-4.27,-15.4,1729472463449.0,0.0
-3.18724,-9.305687,-0.957129,-45.920002,-6.16,-18.200001,1729472463467.0,0.0
-2.981457,-9.363115,-1.299303,-56.98,-7.98,-19.32,1729472463485.0,0.0
-2.833102,-9.439686,-1.581656,-68.739998,-7.56,-22.68,1729472463506.0,0.0
-2.514857,-9.535398,-1.696511,-82.599998,-8.19,-27.23,1729472463527.0,0.0
-2.127219,-9.628718,-2.019542,-98.699997,-10.36,-31.08,1729472463546.0,0.0
-1.804188,-9.138189,-2.553142,-121.099998,-12.6,-37.799999,1729472463567.0,0.0
-1.478764,-8.530413,-2.909672,-145.320007,-11.48,-43.259998,1729472463585.0,0.0
-1.435694,-8.319844,-3.302095,-171.289993,-9.73,-43.68,1729472463606.0,0.0
-1.323231,-8.126025,-4.354938,-195.720001,-8.96,-44.450001,1729472463628.0,0.0
-1.287339,-8.293523,-5.199604,-208.880005,-7.14,-45.009998,1729472463645.0,0.0
-1.328017,-8.513663,-5.352744,-207.759995,-3.99,-42.77,1729472463666.0,0.0
-1.710868,-8.353344,-5.441278,-191.100006,0.14,-40.740002,1729472463686.0,0.0
-2.349752,-7.733603,-5.474778,-166.880005,0.7,-34.369999,1729472463706.0,0.0
-2.711068,-7.286145,-5.568098,-150.779999,-2.45,-34.93,1729472463726.0,0.0
-3.151347,-6.850651,-6.221339,-151.970001,-6.72,-32.48,1729472463746.0,0.0
-3.208775,-6.678369,-6.80758,-146.720001,-11.62,-29.469999,1729472463766.0,0.0
-3.306881,-6.257231,-7.259824,-145.809998,-14.7,-28.77,1729472463786.0,0.0
-3.95055,-5.79781,-6.776474,-139.300003,-13.65,-26.18,1729472463806.0,0.0
-6.04427,-6.927221,-4.555934,-93.870003,-15.190001,-10.36,1729472463827.0,0.0
-6.037091,-5.54417,-5.848059,-54.529999,-32.060001,-16.309999,1729472463848.0,0.0
-5.029713,-4.017549,-6.431907,-79.099998,-43.189999,-17.85,1729472463867.0,0.0
-3.290131,-6.45105,-10.906486,-101.919998,-44.099998,-6.51,1729472463886.0,0.0
-1.828116,-6.752545,-11.688939,-55.16,-27.02,2.45,1729472463906.0,0.0
-1.627119,-5.376673,-11.947363,59.150002,-10.64,23.379999,1729472463938.0,0.0
-1.306481,-4.532006,-10.432706,107.940002,5.32,35.139999,1729472463945.0,0.0
0.157926,-6.297909,-8.803195,93.099998,8.33,34.509998,1729472463966.0,0.0
1.842474,-7.295716,-6.369694,63.98,8.4,21.84,1729472463986.0,0.0
2.727818,-6.013163,-2.696711,40.950001,-3.22,2.45,1729472464005.0,0.0
-0.461815,-4.910072,-2.349752,17.85,-20.02,-13.3,1729472464028.0,0.0
-2.352145,-4.426722,-5.735595,-78.82,-74.830002,-54.740002,1729472464056.0,0.0
-1.473979,-1.021735,-7.24786,-151.899994,-98.279999,-77.910004,1729472464068.0,0.0
-3.644269,-3.29731,-8.606983,-159.039993,-91.419998,-66.220001,1729472464085.0,0.0
-6.860222,-5.051248,-13.548162,-125.580002,-61.040001,-45.849998,1729472464106.0,0.0
-7.659425,-2.785245,-15.330814,-69.090004,-23.450001,-3.92,1729472464128.0,0.0
-3.534199,-5.041678,-14.050655,-50.889999,-11.27,13.09,1729472464146.0,0.0
-1.337588,-6.15434,-11.983256,5.53,1.05,29.26,1729472464166.0,0.0
-1.615155,-6.056234,-10.025927,64.190002,19.809999,29.75,1729472464186.0,0.0
-0.768096,-5.941379,-8.190632,83.230003,18.129999,27.440001,1729472464206.0,0.0
-0.37328,-7.015756,-6.295516,68.110001,14.84,16.870001,1729472464229.0,0.0
-1.385444,-7.312466,-5.608776,41.439999,16.870001,0.91,1729472464245.0,0.0
-1.631905,-6.484549,-6.45105,34.439999,6.37,-14.07,1729472464266.0,0.0
-2.09372,-3.859623,-6.829116,38.709999,-2.45,-16.030001,1729472464286.0,0.0
-3.883551,-2.37368,-7.180861,20.719999,-1.61,-17.08,1729472464306.0,0.0
-3.969693,-1.56012,-8.324631,-43.259998,-17.15,-26.460001,1729472464327.0,0.0
-3.022135,-2.017149,-9.796216,-84.559998,-28.77,-21.700001,1729472464346.0,0.0
-4.37408,-4.718646,-10.092925,-62.369999,-10.78,-7.7,1729472464367.0,0.0
-6.254838,-3.960121,-10.856236,4.41,8.47,22.68,1729472464385.0,0.0
-3.718446,-5.230711,-10.487741,-16.799999,8.96,19.6,1729472464406.0,0.0
-2.208575,-6.197411,-10.028319,-2.38,16.73,27.02,1729472464427.0,0.0
-2.019542,-5.821737,-9.45165,42.07,29.960001,34.299999,1729472464445.0,0.0
-1.268196,-6.496514,-9.274581,71.75,35.77,42.700001,1729472464466.0,0.0
-0.210568,-9.389436,-8.228917,83.720001,36.189999,37.170002,1729472464485.0,0.0
0.519243,-10.79163,-6.58744,95.340004,37.799999,14.77,1729472464506.0,0.0
0.421137,-7.384251,-3.63709,100.239998,34.02,-10.71,1729472464527.0,0.0
-0.868595,-4.177868,-3.45045,61.670002,13.79,-33.529999,1729472464546.0,0.0
-3.091527,-2.206182,-5.460421,3.01,-7.0,-47.32,1729472464566.0,0.0
-3.620341,-0.306281,-6.283553,-40.25,-30.73,-48.860001,1729472464586.0,0.0
-2.069792,-2.991028,-8.30788,-103.879997,-51.66,-49.420002,1729472464606.0,0.0
-4.07737,-3.23031,-8.032705,-107.730003,-38.009998,-34.580002,1729472464627.0,0.0
-7.518249,-2.981457,-9.719646,-33.529999,-20.51,0.56,1729472464652.0,0.0
-8.317451,-3.546163,-13.146168,-56.349998,-7.42,15.26,1729472464666.0,0.0
-4.843073,-6.211767,-12.844672,-68.110001,-1.47,28.280001,1729472464685.0,0.0
-1.272982,-5.804988,-9.332008,-10.01,6.37,30.030001,1729472464706.0,0.0
-1.61037,-5.843273,-8.638089,102.199997,29.540001,45.150002,1729472464728.0,0.0
-1.48355,-5.553742,-7.592427,87.080002,38.5,44.099998,1729472464745.0,0.0
-0.662812,-9.317651,-5.072784,32.27,32.060001,27.09,1729472464766.0,0.0
-0.413958,-9.937392,-3.799802,38.920002,21.139999,2.52,1729472464785.0,0.0
-0.650848,-6.23091,-4.350152,47.32,3.92,-18.129999,1729472464806.0,0.0
-2.041078,-4.819145,-5.223531,9.17,-6.65,-32.759998,1729472464828.0,0.0
-2.567499,-3.802195,-7.305287,-31.15,-22.120001,-44.939999,1729472464845.0,0.0
-1.45005,-1.775474,-8.355737,-70.629997,-36.75,-51.73,1729472464866.0,0.0
-1.031307,-3.704089,-9.968499,-89.040001,-34.790001,-44.799999,1729472464886.0,0.0
-4.163511,-2.182254,-9.145369,-47.459999,-12.88,-22.4,1729472464906.0,0.0
-6.927221,-0.830309,-9.894321,16.799999,-2.45,19.809999,1729472464937.0,0.0
-7.094719,-2.65364,-10.657632,-15.96,3.08,32.27,1729472464945.0,0.0
-5.187639,-5.206782,-10.451849,-66.639999,5.46,29.049999,1729472464965.0,0.0
-2.665605,-6.630512,-10.4016,-54.25,5.46,22.33,1729472464985.0,0.0
-2.189433,-6.429514,-7.415358,-13.37,12.04,18.059999,1729472465005.0,0.0
-2.335395,-7.613962,-8.372486,43.189999,11.76,20.93,1729472465026.0,0.0
-1.574477,-6.4343,-8.018349,56.630001,13.16,11.55,1729472465045.0,0.0
-1.040878,-8.051848,-7.532606,7.28,12.04,-8.19,1729472465069.0,0.0
-1.021735,-8.599805,-7.360322,8.26,8.19,-28.07,1729472465085.0,0.0
-1.749153,-7.252645,-7.678568,33.950001,8.82,-43.610001,1729472465105.0,0.0
-2.062613,-5.020142,-6.649654,17.43,5.18,-59.220001,1729472465126.0,0.0
-1.899901,-5.429315,-7.972885,-24.639999,-5.67,-69.440002,1729472465145.0,0.0
-1.978864,-3.081956,-7.695317,-30.799999,-7.28,-68.459999,1729472465166.0,0.0
-2.165504,-1.691726,-8.839087,-34.439999,-8.19,-53.130001,1729472465185.0,0.0
-2.665605,-1.083949,-9.899107,-42.560001,-0.21,-24.43,1729472465205.0,0.0
-3.960121,-1.878366,-10.133603,20.719999,12.74,22.540001,1729472465226.0,0.0
-4.54397,-1.421337,-9.363115,82.110001,22.68,56.77,1729472465245.0,0.0
-3.558127,-1.304088,-7.936993,82.389999,18.27,67.550003,1729472465266.0,0.0
-3.696911,-1.481157,-8.628519,29.190001,18.129999,72.029999,1729472465286.0,0.0
-3.790231,-4.311867,-9.399008,3.71,19.32,73.57,1729472465305.0,0.0
-3.220739,-5.237889,-7.197611,-3.57,20.65,72.309998,1729472465326.0,0.0
-2.502892,-8.23131,-6.666404,-31.57,16.379999,54.740002,1729472465346.0,0.0
-1.387837,-10.851451,-6.769295,-39.619999,6.79,36.75,1729472465371.0,0.0
-1.024128,-10.973484,-6.190232,-29.75,-2.17,-9.31,1729472465385.0,0.0
-2.112862,-9.547362,-6.350551,-34.02,-10.99,-42.77,1729472465405.0,0.0
-1.818545,-7.456036,-7.369894,-38.779999,-26.110001,-62.23,1729472465438.0,0.0
-1.651048,-4.850252,-7.391429,-39.970001,-33.18,-69.090004,1729472465446.0,0.0
-3.182454,-4.065405,-8.394022,-74.059998,-27.16,-69.93,1729472465465.0,0.0
-3.684947,-3.948158,-10.413565,-91.910004,-25.129999,-66.779999,1729472465486.0,0.0
-3.917051,-2.514857,-11.727223,-45.43,-15.89,-40.670002,1729472465505.0,0.0
-3.381058,-0.023928,-11.160125,9.38,-0.84,-15.96,1729472465527.0,0.0
-2.474179,1.150948,-10.583455,69.300003,8.96,24.360001,1729472465545.0,0.0
-2.849852,1.282553,-9.650253,74.269997,22.33,50.049999,1729472465566.0,0.0
-3.538985,-0.995414,-9.860823,27.299999,29.33,59.639999,1729472465585.0,0.0
-2.359323,-4.386044,-10.717452,23.1,28.77,61.25,1729472465605.0,0.0
-1.78026,-5.371887,-7.661818,50.400002,31.43,59.220001,1729472465627.0,0.0
-2.39043,-6.156733,-5.740381,33.880001,34.580002,46.619999,1729472465645.0,0.0
-1.854438,-10.609775,-4.053442,-20.440001,17.99,20.51,1729472465666.0,0.0
-1.859223,-11.988041,-4.833502,-43.400002,-2.03,-11.76,1729472465685.0,0.0
-2.672783,-9.454042,-8.602197,-36.470001,-13.09,-45.290001,1729472465704.0,0.0
-1.74676,-6.558727,-8.446664,-12.39,-24.710001,-68.459999,1729472465726.0,0.0
-3.529413,-4.086941,-7.13779,-38.990002,-18.620001,-73.779999,1729472465744.0,0.0
-3.823731,-5.386244,-10.571491,-78.260002,-21.280001,-84.840004,1729472465766.0,0.0
-3.278167,-4.115655,-12.081362,-52.009998,-15.89,-67.340004,1729472465785.0,0.0
-3.058028,-1.564906,-12.203396,-1.4,2.87,-48.09,1729472465805.0,0.0
-2.816352,0.023928,-11.772687,69.230003,20.440001,-7.7,1729472465827.0,0.0
-2.301895,3.07717,-9.894321,105.279999,35.349998,29.4,1729472465844.0,0.0
-2.148755,1.840081,-8.84148,76.860001,39.549999,50.330002,1729472465865.0,0.0
-1.820938,-0.717847,-10.595419,44.170002,37.029999,59.57,1729472465885.0,0.0
-1.526621,-2.39043,-10.559525,54.110001,40.25,67.830002,1729472465905.0,0.0
-0.811167,-5.513064,-9.784252,84.279999,46.41,73.150002,1729472465929.0,0.0
0.014357,-8.834301,-7.728817,114.449997,54.529999,67.129997,1729472465944.0,0.0
-0.306281,-10.200603,-1.208375,143.220001,59.010002,54.599998,1729472465966.0,0.0
-2.785245,-10.49492,-0.100499,84.0,46.619999,12.04,1729472465985.0,0.0
-3.998406,-11.854043,-4.259224,-9.1,9.03,-34.439999,1729472466004.0,0.0
-3.486342,-12.035898,-7.972885,18.41,-20.93,-46.900002,1729472466027.0,0.0
-3.17049,-8.193025,-8.465806,107.940002,-27.790001,-50.75,1729472466044.0,0.0
-2.801995,-7.41775,-8.650054,210.979996,-20.860001,-34.02,1729472466068.0,0.0
-2.079363,-5.927022,-8.298308,245.699997,-7.07,-18.200001,1729472466086.0,0.0
-2.0004,-5.465207,-7.427321,269.01001,4.9,9.52,1729472466105.0,0.0
-1.842474,-4.67079,-6.769295,238.279999,18.059999,12.32,1729472466127.0,0.0
-2.526821,-5.848059,-5.393422,191.800003,34.02,25.549999,1729472466145.0,0.0
-2.706282,-6.896115,-4.476971,137.270004,36.68,16.799999,1729472466166.0,0.0
-2.924029,-8.140383,-2.469393,111.93,33.740002,20.93,1729472466184.0,0.0
-2.816352,-8.874979,-1.366302,117.32,21.77,18.969999,1729472466205.0,0.0
-2.344966,-8.240881,-0.337388,121.940002,7.91,18.9,1729472466226.0,0.0
-1.706082,-7.326823,-0.014357,73.43,-9.59,16.030001,1729472466244.0,0.0
-1.684547,-7.156933,-0.430708,-37.170002,-25.41,10.08,1729472466265.0,0.0
-1.866402,-7.343572,-0.815953,-170.520004,-41.790001,4.62,1729472466285.0,0.0
-1.596013,-7.578069,-3.529413,-290.220001,-57.75,-8.47,1729472466306.0,0.0
-0.713061,-7.69771,-7.003791,-356.51001,-71.959999,-22.540001,1729472466326.0,0.0
-0.20339,-6.991827,-7.724032,-378.910004,-65.660004,-36.049999,1729472466344.0,0.0
-0.70349,-6.699903,-8.930015,-359.940002,-46.619999,-40.880001,1729472466366.0,0.0
-0.993021,-6.037091,-9.815358,-304.5,-39.830002,-43.82,1729472466385.0,0.0
-1.639083,-6.075377,-10.033106,-224.839996,-24.57,-40.529999,1729472466406.0,0.0
-2.478964,-6.197411,-9.827322,-170.800003,-18.129999,-38.150002,1729472466425.0,0.0
-2.835495,-6.65444,-10.851451,-122.849998,-16.450001,-35.209999,1729472466445.0,0.0
-2.54357,-9.391829,-12.483356,-38.150002,-10.99,-28.07,1729472466465.0,0.0
-2.500499,-10.710274,-11.58844,104.510002,9.17,-16.799999,1729472466485.0,0.0
-3.326023,-10.181459,-9.035298,258.790009,31.290001,-3.57,1729472466506.0,0.0
-3.486342,-10.492528,-8.051848,414.399994,25.9,10.22,1729472466526.0,0.0
-2.517249,-10.315458,-8.55434,578.059998,2.59,15.33,1729472466544.0,0.0
-1.995614,-8.338986,-7.197611,688.940002,11.13,18.200001,1729472466564.0,0.0
-2.718246,-7.506285,-3.388237,700.0,22.190001,17.43,1729472466585.0,0.0
-2.706282,-7.898707,-0.969093,650.299988,6.72,6.51,1729472466605.0,0.0
-1.148555,-7.329216,0.356531,584.919983,-10.57,-8.68,1729472466625.0,0.0
0.411566,-6.649654,2.287539,513.099976,2.38,-8.19,1729472466644.0,0.0
0.100499,-7.585248,1.227518,421.190002,22.610001,-22.82,1729472466666.0,0.0
-1.464408,-7.936993,3.936193,377.160004,31.710001,-27.23,1729472466692.0,0.0
-2.682354,-5.233103,5.98445,294.910004,60.27,-38.639999,1729472466706.0,0.0
-2.565106,-4.012764,7.331609,194.529999,61.32,-46.900002,1729472466726.0,0.0
-2.993421,-6.168696,8.35813,80.639999,42.98,-47.670002,1729472466744.0,0.0
-4.31426,-5.431707,9.001799,65.029999,32.830002,-45.220001,1729472466764.0,0.0
-5.036892,-4.902894,8.77448,53.619999,20.51,-33.32,1729472466786.0,0.0
-4.948357,-7.314859,7.360322,20.23,4.06,-30.1,1729472466806.0,0.0
-4.405186,-5.821737,5.094319,13.37,4.06,-36.610001,1729472466828.0,0.0
-4.400401,-6.915257,6.283553,37.099998,12.11,-34.790001,1729472466845.0,0.0
-4.737789,-3.991228,6.84108,44.029999,17.92,-45.990002,1729472466866.0,0.0
-5.986843,-6.54437,7.829315,31.290001,12.74,-36.119999,1729472466886.0,0.0
-2.402394,-6.649654,6.463014,2.38,11.97,-55.860001,1729472466905.0,0.0
-1.572084,-5.740381,7.850852,2.73,19.32,-62.650002,1729472466927.0,0.0
-1.287339,-4.706682,9.250652,-0.7,20.299999,-64.75,1729472466945.0,0.0
-0.854238,-2.766103,9.178867,-6.93,13.58,-57.119999,1729472466966.0,0.0
-0.318245,-2.67039,7.982457,-6.16,7.42,-43.259998,1729472466986.0,0.0
0.014357,-0.765703,8.185846,1.82,10.15,-30.940001,1729472467005.0,0.0
0.98345,-0.102891,7.71446,-13.02,9.73,-13.72,1729472467028.0,0.0
1.485943,0.875773,6.943972,-31.219999,12.39,24.08,1729472467045.0,0.0
-0.311067,-3.672983,5.328816,-49.630001,14.56,44.029999,1729472467068.0,0.0
-1.28016,-5.716454,4.843073,-10.22,25.76,54.18,1729472467086.0,0.0
-0.959522,-3.067599,7.341179,48.369999,41.93,63.560001,1729472467105.0,0.0
-2.478964,-4.661219,8.99462,43.400002,35.349998,75.389999,1729472467126.0,0.0
-4.220939,-7.472785,7.456036,16.309999,24.710001,75.18,1729472467145.0,0.0
-5.302495,-6.65444,5.414958,14.84,27.51,67.059998,1729472467166.0,0.0
-4.960321,-5.860023,6.01077,31.57,38.920002,54.740002,1729472467185.0,0.0
-5.505885,-10.415956,7.45125,26.32,39.200001,41.720001,1729472467206.0,0.0
-5.728417,-11.346765,9.169296,41.93,40.25,16.66,1729472467227.0,0.0
-4.429115,-6.821937,9.899107,34.93,39.34,-9.31,1729472467245.0,0.0
-3.847659,-7.582855,7.259824,-31.43,22.82,-21.84,1729472467266.0,0.0
-3.278167,-8.910872,6.489335,-24.360001,20.58,-41.93,1729472467285.0,0.0
-2.213361,-1.581656,10.870593,9.87,28.77,-54.529999,1729472467305.0,0.0
-0.634098,4.869394,11.842079,-6.44,10.57,-20.51,1729472467326.0,0.0
-0.997807,3.175276,9.056834,-56.279999,-11.55,24.710001,1729472467346.0,0.0
-1.332802,-3.294917,5.151747,-121.590004,-21.91,52.150002,1729472467365.0,0.0
-5.106283,-7.9681,4.972286,-49.84,-11.2,64.190002,1729472467385.0,0.0
-6.4678,-5.491528,7.331609,48.650002,4.41,69.019997,1729472467409.0,0.0
-4.9675,-5.534599,10.597812,43.889999,3.36,59.010002,1729472467426.0,0.0
-5.455636,-7.752745,9.375079,-24.57,-16.24,44.310001,1729472467445.0,0.0
-5.869594,-7.372287,6.530013,-41.299999,-22.049999,28.84,1729472467465.0,0.0
-7.487142,-7.664211,3.608376,-36.75,-10.29,16.450001,1729472467485.0,0.0
-8.910872,-9.96132,2.993421,1.26,-1.54,-3.5,1729472467506.0,0.0
-7.487142,-10.566705,6.819544,75.459999,17.15,-31.85,1729472467527.0,0.0
-6.34098,-8.831908,7.927422,65.239998,23.66,-53.130001,1729472467545.0,0.0
-3.361916,-4.771288,8.348558,38.5,19.67,-70.699997,1729472467564.0,0.0
-2.65364,-5.125426,6.776474,-3.22,12.39,-70.419998,1729472467585.0,0.0
-3.270989,-6.54437,6.056234,-3.29,8.82,-64.889999,1729472467605.0,0.0
-1.818545,-1.768296,8.4012,58.66,21.91,-53.549999,1729472467627.0,0.0
-2.256432,1.158126,10.877771,46.130001,15.26,-44.099998,1729472467645.0,0.0
-0.586242,2.935993,10.478169,-22.469999,2.38,-15.26,1729472467665.0,0.0
-1.607977,-2.902494,7.336394,-86.940002,-15.54,7.14,1729472467685.0,0.0
-2.742175,-2.459821,6.051448,-16.030001,1.4,34.509998,1729472467706.0,0.0
-5.099105,-3.074777,5.592027,15.33,5.67,48.720001,1729472467725.0,0.0
-5.572884,-4.955536,6.632904,15.82,8.19,54.25,1729472467746.0,0.0
-3.95055,-5.836094,9.554541,28.77,11.76,51.59,1729472467815.0,0.0
-4.934,-4.618148,8.903693,2.8,2.38,45.709999,1729472467815.0,0.0
-5.79063,-5.596812,5.362316,-39.060001,-9.66,41.439999,1729472467815.0,0.0
-6.436693,-9.468399,3.711268,-6.86,-10.36,33.740002,1729472467830.0,0.0
-7.070791,-8.109276,7.032506,66.010002,17.219999,16.940001,1729472467844.0,0.0
-7.180861,-10.724631,5.862415,42.77,7.07,-14.07,1729472467865.0,0.0
-5.020142,-9.458827,6.831509,41.720001,18.83,-45.150002,1729472467885.0,0.0
-3.421736,-6.448657,5.955735,28.98,26.809999,-64.470001,1729472467906.0,0.0
-5.156533,-5.816952,6.831509,10.99,27.440001,-62.93,1729472467926.0,0.0
-3.287738,-2.938386,7.01097,10.01,27.23,-62.580002,1729472467945.0,0.0
-4.218546,-3.050849,10.387242,32.48,22.33,-50.259998,1729472467965.0,0.0
-1.660619,3.5007,10.566705,-14.07,12.6,-42.560001,1729472467986.0,0.0
-2.031506,1.741975,8.829515,-66.5,-8.19,-4.13,1729472468006.0,0.0
-2.928815,-3.531806,7.702496,-100.660004,-16.66,14.56,1729472468029.0,0.0
-4.414758,-4.768896,6.513263,-9.66,-18.34,42.139999,1729472468045.0,0.0
-5.584848,-4.505685,6.951149,14.14,-16.940001,42.91,1729472468068.0,0.0
-3.144169,-4.802395,8.860621,3.57,-13.02,35.07,1729472468085.0,0.0
-3.665804,-5.419744,8.585447,-19.67,-18.549999,35.0,1729472468106.0,0.0
-4.62054,-5.848059,4.462614,-34.09,-20.860001,31.57,1729472468126.0,0.0
-6.034698,-8.822337,3.29731,-7.63,-6.79,26.460001,1729472468144.0,0.0
-7.625926,-8.159525,6.489335,46.970001,11.34,8.82,1729472468166.0,0.0
-8.037491,-8.46102,6.783652,49.349998,10.64,-16.870001,1729472468185.0,0.0
-5.903094,-7.302894,7.018148,29.4,4.69,-36.330002,1729472468206.0,0.0
-3.641876,-5.084748,7.192825,21.280001,10.64,-47.529999,1729472468228.0,0.0
-4.618148,-4.979464,7.219146,5.74,7.07,-38.849998,1729472468245.0,0.0
-4.48415,-5.498707,6.709475,5.18,4.83,-42.07,1729472468265.0,0.0
-4.074977,-3.443272,8.118847,24.92,6.93,-36.470001,1729472468284.0,0.0
-3.211168,-2.557927,9.75793,3.22,3.43,-40.18,1729472468307.0,0.0
-1.138984,0.952343,10.092925,-32.48,-4.97,-29.889999,1729472468326.0,0.0
-1.660619,-1.428515,7.958528,-66.989998,-15.33,-4.9,1729472468349.0,0.0
-2.266003,-3.306881,7.063612,-67.760002,-12.53,7.63,1729472468365.0,0.0
-5.606383,-4.302295,7.757531,1.19,-8.05,28.630001,1729472468385.0,0.0
-5.809773,-4.139583,8.410772,8.68,-12.18,33.040001,1729472468405.0,0.0
-3.158526,-5.192425,8.362915,-9.59,-17.92,32.619999,1729472468427.0,0.0
-3.615555,-7.257431,6.606583,-25.48,-23.24,29.75,1729472468585.0,0.0
-4.086941,-6.240481,5.230711,-10.57,-11.69,23.73,1729472468586.0,0.0
-5.651847,-7.558927,4.567898,-10.85,-0.21,16.59,1729472468587.0,0.0
-5.898308,-8.370094,4.398008,27.09,5.6,4.9,1729472468587.0,0.0
-6.099305,-7.379465,6.798009,63.98,23.1,-8.4,1729472468587.0,0.0
-5.883951,-9.176475,5.836094,23.52,15.4,-28.98,1729472468588.0,0.0
-3.957729,-6.896115,6.427122,35.98,25.620001,-44.73,1729472468588.0,0.0
-3.833302,-4.218546,6.680761,31.360001,29.610001,-50.889999,1729472468588.0,0.0
-4.85743,-5.87438,7.274181,7.0,21.07,-45.57,1729472468604.0,0.0
-4.335794,-7.456036,8.585447,13.93,13.09,-47.670002,1729472468624.0,0.0
-2.739782,-2.120041,9.480364,47.810001,11.83,-48.509998,1729472468643.0,0.0
-2.37368,1.808974,9.836893,-0.77,1.68,-35.209999,1729472468667.0,0.0
-1.844866,0.605384,8.73141,-51.799999,-13.09,-9.03,1729472468683.0,0.0
-2.744568,-3.661019,7.058826,-71.75,-16.870001,9.59,1729472468705.0,0.0
-3.9338,-4.845466,7.331609,-14.7,-10.15,24.57,1729472468731.0,0.0
-6.092126,-4.912465,8.274381,19.25,-11.48,30.1,1729472468744.0,0.0
-5.048856,-4.804788,8.812766,7.91,-17.43,24.99,1729472468763.0,0.0
-3.038885,-6.343372,8.106883,-18.27,-27.09,21.559999,1729472468784.0,0.0
-2.730211,-6.295516,7.240681,-23.030001,-27.16,15.33,1729472468804.0,0.0
-3.302095,-4.007978,6.656832,-12.46,-21.559999,16.73,1729472468824.0,0.0
-4.579862,-5.694918,5.582455,-19.950001,-17.85,22.960001,1729472468843.0,0.0
-4.945964,-6.4343,5.04407,8.54,-15.12,24.15,1729472468864.0,0.0
-4.945964,-5.702096,7.211967,39.41,0.42,18.969999,1729472468884.0,0.0
-5.62074,-8.456236,6.551548,7.21,-7.63,9.38,1729472468906.0,0.0
-4.957928,-8.623734,6.238089,17.290001,-1.75,-7.63,1729472468926.0,0.0
-4.319045,-7.530212,6.470192,32.200001,3.43,-24.99,1729472468945.0,0.0
-3.991228,-5.003392,7.491928,40.529999,8.96,-33.040001,1729472468965.0,0.0
-4.9675,-6.795617,7.695317,13.58,-1.05,-34.02,1729472468984.0,0.0
-2.945565,-4.599005,7.590034,15.82,1.26,-45.709999,1729472469006.0,0.0
-3.17049,-1.488336,9.382257,25.200001,5.39,-35.0,1729472469031.0,0.0
-1.605584,2.134398,8.827123,-44.869999,-5.11,-32.200001,1729472469046.0,0.0
-1.208375,0.425922,7.257431,-75.809998,-12.74,0.42,1729472469069.0,0.0
-1.820938,-2.306681,7.360322,-71.82,-8.33,21.139999,1729472469087.0,0.0
-4.338188,-5.446064,7.02772,-20.860001,-6.86,31.5,1729472469106.0,0.0
-5.809773,-4.158726,8.243275,30.52,-1.75,38.43,1729472469130.0,0.0
-4.034299,-4.579862,9.298509,13.65,-7.35,32.549999,1729472469146.0,0.0
-3.132205,-6.812366,7.69771,-14.91,-19.67,28.630001,1729472469166.0,0.0
-3.160919,-4.895715,6.379266,-10.29,-14.84,25.41,1729472469186.0,0.0
-4.67079,-7.396214,4.448257,-11.27,-9.66,23.309999,1729472469207.0,0.0
-5.879165,-7.972885,5.4676,55.16,3.36,19.389999,1729472469232.0,0.0
-6.879365,-7.331609,6.879365,62.02,13.65,-5.74,1729472469247.0,0.0
-5.589634,-9.95175,5.876772,31.5,8.96,-24.360001,1729472469267.0,0.0
-3.285345,-8.805587,6.876972,44.799999,18.41,-47.25,1729472469286.0,0.0
-3.546163,-4.163511,7.597212,49.07,26.880001,-56.84,1729472469306.0,0.0
-4.347759,-6.312266,7.056434,-14.07,9.66,-50.470001,1729472469329.0,0.0
-2.883351,-3.211168,7.240681,10.99,16.17,-50.330002,1729472469346.0,0.0
-2.656033,-0.107677,10.856236,26.18,21.84,-32.759998,1729472469366.0,0.0
-0.81356,2.608176,10.470992,-43.68,2.8,-23.450001,1729472469387.0,0.0
-1.567299,1.055235,8.001599,-72.940002,-5.95,12.6,1729472469408.0,0.0
-3.383451,-3.797409,7.661818,-85.75,-9.94,37.66,1729472469428.0,0.0
-5.941379,-6.941578,7.008578,-23.24,-15.68,44.52,1729472469457.0,0.0
-5.304887,-5.486742,8.525627,31.15,-8.05,43.610001,1729472469468.0,0.0
-3.732803,-7.379465,8.236095,4.62,-16.1,29.82,1729472469488.0,0.0
-3.127419,-7.06122,6.922436,-12.67,-16.1,14.84,1729472469506.0,0.0
-3.553342,-4.058227,5.218746,-14.56,-6.16,8.05,1729472469526.0,0.0
-5.493921,-7.759924,3.45045,-7.42,1.4,13.51,1729472469545.0,0.0
-6.238089,-6.266802,6.465407,72.379997,22.960001,12.81,1729472469566.0,0.0
-6.135197,-5.469993,8.336594,69.790001,30.66,-4.9,1729472469586.0,0.0
-4.529613,-10.219746,6.675975,-1.4,13.3,-22.120001,1729472469605.0,0.0
-2.591427,-6.080163,7.534998,35.0,29.33,-38.920002,1729472469627.0,0.0
-4.362115,-4.383651,7.582855,32.619999,28.0,-34.580002,1729472469647.0,0.0
-5.120641,-8.84148,7.798209,0.56,10.71,-39.689999,1729472469666.0,0.0
-2.864209,-2.744568,9.54497,41.720001,14.84,-48.720001,1729472469685.0,0.0
-3.117848,0.882952,11.030912,-10.71,2.24,-44.59,1729472469705.0,0.0
-1.555335,2.340181,9.848858,-62.439999,-16.799999,-13.440001,1729472469726.0,0.0
-2.167897,-1.751546,6.06102,-101.849998,-28.210001,12.46,1729472469747.0,0.0
-2.74696,-3.957729,7.750352,-55.93,-21.77,28.35,1729472469765.0,0.0
-4.981857,-4.053442,8.228917,8.96,-18.27,47.459999,1729472469785.0,0.0
-5.285746,-5.151747,7.838887,5.18,-23.450001,49.349998,1729472469806.0,0.0
-3.393023,-7.111469,7.597212,-28.700001,-27.65,36.75,1729472469829.0,0.0
-2.206182,-7.013363,7.278966,-27.860001,-24.710001,26.809999,1729472469848.0,0.0
-3.041277,-4.436293,6.58744,-13.58,-18.83,24.780001,1729472469868.0,0.0
-3.979264,-4.54397,5.982057,-21.42,-13.09,28.84,1729472469886.0,0.0
-5.4341,-8.068598,4.352544,-2.03,-14.0,30.17,1729472469906.0,0.0
-6.001199,-7.609176,6.687939,65.730003,7.91,20.02,1729472469926.0,0.0
-7.372287,-9.188439,7.80778,65.590004,6.65,-5.81,1729472469945.0,0.0
-4.529613,-9.286544,7.640282,44.310001,7.98,-38.290001,1729472469965.0,0.0
-2.409572,-5.048856,7.274181,35.349998,15.68,-57.68,1729472469986.0,0.0
-4.486543,-6.266802,7.67139,24.5,5.95,-51.66,1729472470005.0,0.0
-4.931608,-5.642276,8.444271,30.52,1.68,-52.779999,1729472470026.0,0.0
-3.235096,-1.198804,8.903693,31.360001,-1.61,-49.139999,1729472470047.0,0.0
-2.706282,1.564906,8.855836,-20.860001,-10.92,-40.599998,1729472470070.0,0.0
-2.108077,1.799403,6.659225,-62.93,-20.02,-9.66,1729472470085.0,0.0
-3.251846,-1.952543,5.563312,-78.400002,-15.96,19.32,1729472470106.0,0.0
-4.476971,-4.168297,7.702496,-72.519997,-6.51,28.0,1729472470131.0,0.0
-6.396015,-4.086941,9.052048,-66.989998,-6.37,36.540001,1729472470145.0,0.0
-7.21436,-6.013163,8.245667,-86.660004,-23.52,38.360001,1729472470167.0,0.0
-6.156733,-6.80758,7.542177,-85.050003,-36.049999,31.01,1729472470185.0,0.0
-4.95075,-6.762117,6.800402,-57.889999,-40.25,26.74,1729472470205.0,0.0
-5.084748,-5.929415,7.77428,-47.880001,-35.349998,24.43,1729472470226.0,0.0
-5.520242,-4.65404,8.908479,-75.25,-42.0,20.719999,1729472470245.0,0.0
-4.881358,-4.474578,10.260423,-110.809998,-61.740002,30.940001,1729472470266.0,0.0
-3.35713,-7.836494,7.977671,-148.399994,-90.370003,33.740002,1729472470286.0,0.0
-0.239282,-12.071791,3.110669,-169.190002,-111.510002,19.460001,1729472470305.0,0.0
1.06002,-12.191431,1.282553,-128.169998,-90.720001,-13.86,1729472470326.0,0.0
1.591227,-12.301501,3.347559,-73.5,-51.73,-47.950001,1729472470345.0,0.0
2.471786,-11.062018,3.237489,-65.029999,-24.5,-80.849998,1729472470365.0,0.0
2.957529,-9.832108,2.383251,-51.939999,-7.07,-98.629997,1729472470384.0,0.0
2.383251,-8.279166,1.725225,-22.889999,16.73,-102.410004,1729472470405.0,0.0
1.306481,-7.508677,2.084148,-7.28,40.740002,-102.480003,1729472470427.0,0.0
0.289532,-6.661618,2.163112,9.59,59.290001,-97.720001,1729472470447.0,0.0
-0.217747,-4.991428,3.294917,35.07,76.300003,-84.419998,1729472470466.0,0.0
-0.894916,-3.206382,4.831109,56.91,82.669998,-61.040001,1729472470485.0,0.0
-2.675175,-4.055835,6.786045,54.880001,77.139999,-33.599998,1729472470505.0,0.0
-4.034299,-6.175875,7.657032,32.130001,57.330002,-15.82,1729472470528.0,0.0
-4.541577,-7.350751,5.871986,30.17,34.509998,1.26,1729472470545.0,0.0
-5.249853,-8.408379,14.440684,58.240002,14.35,-2.73,1729472470565.0,0.0
-3.012564,-9.355937,11.078769,57.119999,-33.18,-1.54,1729472470586.0,0.0
-0.835095,-8.561519,5.709275,18.48,-51.52,-3.71,1729472470606.0,0.0
-0.382852,-7.65464,5.041678,22.82,-37.66,-0.63,1729472470626.0,0.0
0.270389,-6.687939,4.486543,32.830002,-24.01,-6.16,1729472470645.0,0.0
0.413958,-5.036892,4.867002,47.040001,-0.07,-2.59,1729472470665.0,0.0
0.074178,-3.639483,5.47717,34.720001,12.81,4.41,1729472470685.0,0.0
0.143569,-2.589034,5.879165,6.86,18.690001,12.67,1729472470705.0,0.0
-1.572084,-5.661418,7.278966,-14.49,19.460001,28.84,1729472470726.0,0.0
-2.48375,-5.041678,7.420143,-13.51,17.780001,41.790001,1729472470745.0,0.0
-2.646462,-7.929814,7.276574,-33.25,7.07,44.799999,1729472470766.0,0.0
-1.986043,-10.059426,4.146761,-93.239998,-1.4,19.950001,1729472470785.0,0.0
-2.818745,-10.640882,4.208975,-64.540001,5.53,25.9,1729472470805.0,0.0
-5.721239,-12.949955,6.343372,-34.16,10.22,7.49,1729472470826.0,0.0
-8.973085,-15.041284,7.788638,-2.1,0.35,2.31,1729472470844.0,0.0
-6.994221,-12.050256,6.774081,15.68,-14.84,-24.710001,1729472470866.0,0.0
-5.627919,-10.805987,6.515656,46.689999,-22.4,-56.630001,1729472470885.0,0.0
-4.919643,-7.657032,5.12782,47.950001,-14.28,-72.940002,1729472470905.0,0.0
-1.543371,-5.778666,4.295116,36.259998,-10.5,-79.169998,1729472470925.0,0.0
0.760918,-6.666404,5.340781,31.43,-8.19,-74.830002,1729472470945.0,0.0
4.307081,-3.385844,5.407779,31.710001,6.72,-58.380001,1729472470965.0,0.0
5.649454,-1.607977,8.157133,35.98,14.35,-43.189999,1729472470985.0,0.0
4.855037,0.775275,8.666803,40.670002,20.16,-14.98,1729472471005.0,0.0
3.383451,-0.650848,8.724231,8.68,13.93,0.98,1729472471025.0,0.0
2.76371,-2.445465,7.164111,-48.16,8.4,12.04,1729472471045.0,0.0
2.445465,-3.826123,5.618347,-66.919998,8.96,24.639999,1729472471068.0,0.0
1.569692,-5.496314,4.457829,-55.790001,14.35,39.130001,1729472471086.0,0.0
-0.859023,-7.056434,5.737988,-19.040001,21.629999,50.610001,1729472471105.0,0.0
-1.758725,-8.396415,8.118847,27.16,7.84,52.220001,1729472471137.0,0.0
-4.790431,-10.315458,7.740781,11.69,-3.15,62.720001,1729472471144.0,0.0
-7.41775,-12.433105,5.309673,-64.959999,-15.12,45.849998,1729472471166.0,0.0
-7.76471,-16.811972,3.249453,-82.25,-27.23,25.83,1729472471186.0,0.0
-8.295916,-15.555739,2.065006,-65.590004,-13.51,-3.71,1729472471204.0,0.0
-7.111469,-12.696317,4.608576,26.18,-2.45,-36.959999,1729472471226.0,0.0
-6.151947,-9.047262,6.709475,84.07,4.2,-58.240002,1729472471245.0,0.0
-5.441278,-6.197411,6.515656,26.6,6.16,-71.120003,1729472471265.0,0.0
-1.68694,-6.762117,3.871587,-78.889999,0.56,-85.959999,1729472471285.0,0.0
4.503292,-7.080362,3.625126,-95.830002,8.12,-79.590004,1729472471306.0,0.0
5.056034,-1.962115,6.994221,18.76,31.639999,-41.580002,1729472471326.0,0.0
4.862216,1.87358,10.810772,136.779999,39.970001,-13.79,1729472471344.0,0.0
4.469792,1.158126,12.143576,69.019997,25.76,-1.26,1729472471366.0,0.0
2.28036,-1.95015,9.762716,-45.709999,12.67,11.48,1729472471385.0,0.0
1.964507,-3.56052,6.625726,-82.529999,-0.21,32.34,1729472471406.0,0.0
1.940579,-4.165904,4.218546,-54.880001,-0.21,53.34,1729472471426.0,0.0
-1.09352,-6.683154,4.182654,-13.58,6.09,69.440002,1729472471445.0,0.0
-2.658426,-8.38445,7.76471,46.130001,1.54,78.540001,1729472471465.0,0.0
-4.520042,-10.126426,7.355537,40.529999,-10.15,78.82,1729472471484.0,0.0
-7.448857,-13.969299,6.020342,-37.240002,-26.809999,74.199997,1729472471505.0,0.0
-8.427521,-17.965311,1.706082,-99.120003,-37.380001,33.459999,1729472471527.0,0.0
-6.89133,-14.787644,-0.150748,-77.139999,-11.55,-3.85,1729472471544.0,0.0
-6.65444,-13.074384,3.273381,12.39,14.0,-39.970001,1729472471565.0,0.0
-6.742974,-9.923036,6.221339,56.98,27.51,-62.860001,1729472471584.0,0.0
-5.321638,-6.580262,5.692525,2.38,26.880001,-78.540001,1729472471605.0,0.0
-1.919044,-7.006185,4.235296,-85.889999,22.26,-90.090004,1729472471626.0,0.0
2.172683,-7.925028,4.074977,-96.040001,26.6,-85.68,1729472471646.0,0.0
4.634897,-3.146562,8.214561,75.32,38.43,-44.52,1729472471665.0,0.0
5.4676,1.194018,11.179268,142.660004,27.51,-14.91,1729472471684.0,0.0
4.668397,-0.210568,11.602797,53.830002,9.38,0.63,1729472471705.0,0.0
2.596212,-3.431308,8.748159,-55.720001,9.38,15.82,1729472471727.0,0.0
2.438286,-4.252046,5.436492,-77.0,-11.06,33.25,1729472471745.0,0.0
1.045663,-6.312266,3.885944,-39.900002,-10.22,52.57,1729472471765.0,0.0
-1.509871,-7.156933,5.319244,23.17,-11.27,60.200001,1729472471785.0,0.0
-3.574877,-9.633504,8.090133,78.889999,-21.91,83.160004,1729472471805.0,0.0
-6.068198,-11.437693,8.078169,35.490002,-34.860001,64.610001,1729472471826.0,0.0
-7.630712,-14.170296,3.56052,-69.790001,-52.990002,41.16,1729472471844.0,0.0
-6.570691,-15.785451,-1.502693,-111.440002,-34.93,3.36,1729472471865.0,0.0
-5.056034,-14.505291,0.064606,-39.27,5.81,-29.4,1729472471885.0,0.0
-5.773881,-11.246266,4.630112,81.760002,37.310001,-52.57,1729472471906.0,0.0
-6.491727,-7.874779,6.996613,95.410004,45.290001,-62.720001,1729472471927.0,0.0
-5.228317,-6.850651,4.795217,-10.43,40.670002,-76.790001,1729472471944.0,0.0
-0.894916,-8.226524,2.019542,-111.93,36.610001,-93.590004,1729472471965.0,0.0
2.79721,-8.169096,3.428915,-81.199997,47.810001,-83.019997,1729472471984.0,0.0
4.228118,-3.046063,8.537591,138.809998,57.400002,-42.98,1729472472004.0,0.0
4.534399,2.730211,11.193624,207.130005,42.07,-14.0,1729472472026.0,0.0
3.4672,2.053042,12.940384,93.800003,20.93,3.5,1729472472044.0,0.0
1.957329,-1.256232,10.461421,-60.48,-1.68,13.3,1729472472069.0,0.0
1.318445,-3.809374,7.073184,-115.709999,-25.27,40.32,1729472472085.0,0.0
1.002593,-5.65424,3.797409,-92.82,-33.389999,59.150002,1729472472107.0,0.0
-1.335195,-8.573483,3.072384,-33.670002,-31.710001,75.949997,1729472472124.0,0.0
-3.658626,-11.239087,6.922436,39.900002,-34.650002,73.290001,1729472472145.0,0.0
-5.168497,-11.949757,8.365308,74.199997,-42.84,76.090004,1729472472165.0,0.0
-5.819345,-11.933006,6.448657,7.35,-53.970001,45.779999,1729472472184.0,0.0
-6.407979,-13.722836,1.871187,-89.110001,-53.200001,14.63,1729472472205.0,0.0
-4.768896,-14.179866,-0.122034,-88.269997,-24.780001,-19.040001,1729472472224.0,0.0
-3.885944,-13.938192,2.517249,22.190001,2.38,-40.040001,1729472472244.0,0.0
-4.091727,-10.131211,5.568098,115.989998,22.049999,-52.639999,1729472472265.0,0.0
-3.54377,-6.630512,6.159126,81.900002,25.200001,-60.130001,1729472472284.0,0.0
-1.150948,-6.876972,4.977071,-24.219999,18.41,-73.010002,1729472472304.0,0.0
1.904687,-8.228917,5.06082,-62.09,19.6,-72.800003,1729472472328.0,0.0
3.079563,-5.132604,6.558727,84.209999,25.83,-45.220001,1729472472343.0,0.0
2.868994,0.323031,8.537591,157.639999,25.34,-22.889999,1729472472365.0,0.0
2.277967,2.522035,10.540384,101.010002,14.84,-2.52,1729472472385.0,0.0
1.526621,-0.442672,9.927821,-21.07,-7.7,15.12,1729472472404.0,0.0
1.387837,-3.0006,7.51107,-85.68,-22.68,33.32,1729472472433.0,0.0
1.514657,-3.608376,5.45085,-85.82,-26.530001,52.220001,1729472472446.0,0.0
1.227518,-4.26401,3.955336,-64.68,-19.25,69.370003,1729472472464.0,0.0
-0.89013,-6.752545,4.445865,-31.43,-9.17,85.330002,1729472472483.0,0.0
-2.632105,-9.946963,8.839087,21.210001,-10.64,84.910004,1729472472505.0,0.0
-4.012764,-10.459028,9.516255,23.66,-20.02,86.239998,1729472472525.0,0.0
-5.142176,-12.602997,6.613762,-47.810001,-36.189999,60.27,1729472472544.0,0.0
-6.233303,-15.005391,3.268596,-93.029999,-35.98,32.41,1729472472564.0,0.0
-6.123233,-13.624733,1.438086,-72.449997,-9.8,-5.53,1729472472585.0,0.0
-5.876772,-12.363714,3.541377,-5.46,15.47,-34.16,1729472472605.0,0.0
-5.675776,-10.91845,6.771688,50.889999,27.370001,-55.580002,1729472472627.0,0.0
-5.07757,-8.99462,6.943972,31.15,29.889999,-70.559998,1729472472644.0,0.0
-1.462015,-9.650253,3.771089,-45.290001,22.610001,-86.730003,1729472472664.0,0.0
1.069592,-10.468598,3.184847,-42.07,20.09,-84.840004,1729472472684.0,0.0
3.172883,-6.821937,4.895715,75.739998,24.99,-65.169998,1729472472704.0,0.0
3.56052,-1.050449,6.958328,175.559998,24.639999,-37.240002,1729472472726.0,0.0
3.26381,2.816352,9.903893,131.25,12.81,-16.309999,1729472472744.0,0.0
2.993421,0.945165,9.894321,16.799999,-3.85,-0.07,1729472472821.0,0.0
1.730011,-2.031506,8.269595,-57.119999,-15.4,18.129999,1729472472831.0,0.0
1.22034,-3.144169,6.54437,-67.199997,-21.210001,39.549999,1729472472835.0,0.0
0.952343,-2.883351,5.02732,-62.860001,-17.92,56.98,1729472472838.0,0.0
-0.18664,-6.056234,4.644469,-46.619999,-13.86,70.489998,1729472472847.0,0.0
-1.631905,-8.379664,5.364708,-3.57,-10.92,81.760002,1729472472864.0,0.0
-3.146562,-10.569098,8.73141,40.670002,-9.66,76.090004,1729472472884.0,0.0
-4.625326,-12.134004,7.798209,6.16,-18.48,65.660004,1729472472904.0,0.0
-5.460421,-14.273187,4.479364,-63.700001,-26.6,31.639999,1729472472925.0,0.0
-6.819544,-15.63231,1.945365,-65.029999,-16.030001,2.52,1729472472943.0,0.0
-5.45085,-12.727424,2.854637,-7.7,8.47,-23.66,1729472472964.0,0.0
-5.309673,-10.518847,5.65424,26.950001,18.969999,-48.02,1729472472984.0,0.0
-4.618148,-9.171689,5.522634,-11.76,18.059999,-71.400002,1729472473004.0,0.0
-1.875973,-9.647861,3.778267,-56.98,12.25,-83.370003,1729472473024.0,0.0
0.361316,-10.853845,3.517449,-43.82,13.09,-82.25,1729472473045.0,0.0
1.435694,-8.207381,4.426722,53.34,17.92,-71.470001,1729472473066.0,0.0
1.885544,-3.201597,6.577869,159.880005,18.34,-50.119999,1729472473084.0,0.0
1.847259,0.59342,8.867801,135.309998,7.98,-36.330002,1729472473104.0,0.0
2.122434,1.012164,9.877571,52.009998,-8.4,-14.14,1729472473126.0,0.0
3.079563,-1.028914,9.150154,-24.01,-25.620001,3.36,1729472473144.0,0.0
3.046063,-2.239682,7.795816,-56.279999,-30.380001,24.43,1729472473164.0,0.0
2.529213,-3.168097,6.585048,-66.220001,-28.84,40.389999,1729472473183.0,0.0
1.895115,-3.493521,5.149354,-65.169998,-21.700001,57.75,1729472473204.0,0.0
0.985843,-5.510671,4.541577,-53.689999,-13.93,70.0,1729472473224.0,0.0
-0.095713,-7.396214,4.443472,-20.02,-6.23,79.379997,1729472473243.0,0.0
-2.005185,-9.578469,5.843273,23.309999,4.2,87.779999,1729472473264.0,0.0
-4.362115,-12.413965,8.623734,24.15,0.84,76.160004,1729472473284.0,0.0
-5.261817,-13.490734,6.26441,-32.970001,-10.5,42.0,1729472473304.0,0.0
-7.331609,-16.249659,4.096512,-68.669998,-15.96,20.440001,1729472473326.0,0.0
-6.333801,-13.493127,2.969493,-7.0,5.04,-29.82,1729472473352.0,0.0
-6.003592,-11.114661,5.565705,36.470001,15.68,-54.18,1729472473363.0,0.0
-5.489135,-9.674182,5.572884,24.85,18.059999,-77.209999,1729472473385.0,0.0
-3.761517,-8.035098,4.151547,-27.02,17.780001,-89.529999,1729472473405.0,0.0
-0.710668,-8.312666,2.912065,-52.150002,13.37,-91.419998,1729472473425.0,0.0
1.643869,-7.89153,3.404987,-18.059999,18.059999,-79.449997,1729472473445.0,0.0
3.304488,-4.867002,5.371887,78.330002,26.880001,-49.139999,1729472473464.0,0.0
3.672983,-0.887737,8.049455,128.029999,31.290001,-34.16,1729472473484.0,0.0
3.232704,2.036292,10.116854,92.120003,24.08,-10.29,1729472473505.0,0.0
4.366901,0.849452,9.60479,-1.68,1.4,8.05,1729472473527.0,0.0
3.517449,-2.608176,8.355737,-84.910004,-12.74,30.450001,1729472473544.0,0.0
2.167897,-5.716454,6.453443,-97.230003,-22.120001,44.73,1729472473565.0,0.0
2.18704,-6.400801,5.333601,-64.540001,-22.33,56.490002,1729472473585.0,0.0
1.909473,-6.159126,4.165904,-33.740002,-14.63,64.75,1729472473605.0,0.0
0.174676,-7.475177,3.728018,-27.09,-9.66,72.590004,1729472473626.0,0.0
-2.720639,-11.406586,7.958528,31.5,1.54,87.989998,1729472473645.0,0.0
-5.642276,-11.358729,9.205189,25.129999,-11.69,66.919998,1729472473665.0,0.0
-5.977271,-10.853845,5.144568,-33.459999,-25.27,57.82,1729472473685.0,0.0
-7.219146,-13.433307,1.617548,-101.290001,-28.84,24.99,1729472473706.0,0.0
-7.341179,-14.768501,0.799203,-88.830002,-7.14,-6.3,1729472473727.0,0.0
-6.156733,-12.935599,2.713461,-8.33,15.47,-30.73,1729472473744.0,0.0
-5.388636,-9.853643,5.845665,42.0,25.27,-51.310001,1729472473765.0,0.0
-4.776074,-8.02792,6.685547,20.93,16.940001,-58.869999,1729472473785.0,0.0
-3.639483,-8.377272,4.599005,-57.400002,9.17,-67.690002,1729472473806.0,0.0
-1.363909,-9.887143,2.129612,-106.610001,10.29,-72.239998,1729472473831.0,0.0
0.792024,-10.164711,1.069592,-71.050003,26.880001,-70.769997,1729472473845.0,0.0
1.624727,-9.901501,4.395615,16.379999,45.360001,-69.580002,1729472473866.0,0.0
0.303888,-4.455436,6.987042,117.18,47.810001,-50.470001,1729472473886.0,0.0
-0.581456,-0.607777,10.025927,99.050003,47.040001,-50.330002,1729472473906.0,0.0
-1.244268,-2.431108,8.16431,-87.709999,-0.63,-33.950001,1729472473927.0,0.0
-0.117248,-2.591427,-1.007378,-182.0,-30.52,-20.58,1729472473946.0,0.0
1.409373,-8.38445,0.748954,-161.210007,-32.060001,-8.75,1729472473967.0,0.0
1.854438,-9.365508,1.304088,-93.940002,-16.799999,6.09,1729472473986.0,0.0
1.634298,-7.743174,3.95055,17.57,-12.95,28.630001,1729472474006.0,0.0
0.995414,-6.053841,6.070591,88.129997,-18.620001,54.740002,1729472474028.0,0.0
0.136391,-6.305088,7.575676,58.450001,-39.200001,66.290001,1729472474045.0,0.0
-0.33021,-8.173882,6.223732,-29.190001,-61.32,70.769997,1729472474074.0,0.0
0.052642,-9.499505,3.737589,-107.379997,-70.07,58.029999,1729472474086.0,0.0
0.18664,-10.13839,2.617748,-165.479996,-61.880001,40.529999,1729472474105.0,0.0
-0.301496,-10.372886,1.17009,-212.380005,-53.48,24.57,1729472474130.0,0.0
-0.674776,-11.176874,0.217747,-224.910004,-44.099998,14.84,1729472474147.0,0.0
-0.662812,-11.559726,-1.521835,-206.779999,-29.889999,5.6,1729472474166.0,0.0
-0.701097,-11.54537,-1.68694,-170.169998,-14.28,0.56,1729472474187.0,0.0
-0.988236,-10.437491,-1.555335,-128.449997,-4.62,1.12,1729472474207.0,0.0
-0.885344,-10.985448,-0.765703,-77.489998,0.49,6.3,1729472474228.0,0.0
-1.258625,-9.097511,-0.291924,-71.68,10.43,-2.03,1729472474247.0,0.0
-1.225125,-8.252845,-0.4666,-126.349998,9.59,1.96,1729472474266.0,0.0
-0.205783,-9.116654,-0.653241,-137.759995,-2.1,15.61,1729472474285.0,0.0
0.557528,-11.01177,-3.797409,-131.949997,-4.27,15.75,1729472474306.0,0.0
-0.100499,-12.442677,-4.63729,-114.029999,13.65,7.49,1729472474327.0,0.0
-2.24686,-11.837293,-1.868794,-43.189999,31.15,12.32,1729472474347.0,0.0
-2.227718,-11.789437,-0.524028,43.049999,15.12,22.120001,1729472474368.0,0.0
-1.495514,-10.164711,1.586441,75.110001,9.31,8.96,1729472474392.0,0.0
-1.974079,-8.29113,2.555535,70.769997,5.67,9.94,1729472474405.0,0.0
-2.861816,-8.236095,2.400001,41.790001,-5.6,16.1,1729472474428.0,0.0
-2.426322,-9.049655,0.887737,-21.0,-17.360001,10.36,1729472474446.0,0.0
-1.430908,-10.260423,-0.830309,-35.490002,-26.74,10.15,1729472474466.0,0.0
-1.45005,-10.10489,-1.72044,-7.49,-17.01,13.37,1729472474486.0,0.0
-2.426322,-11.203196,-3.237489,9.24,-9.31,10.78,1729472474506.0,0.0
-2.62732,-11.964113,-3.45045,24.85,-19.74,3.71,1729472474528.0,0.0
-2.26361,-10.360922,-3.632305,45.57,-26.32,-1.82,1729472474546.0,0.0
-1.232304,-8.322237,-4.197011,39.970001,-30.870001,-9.1,1729472474566.0,0.0
-0.650848,-8.286345,-2.995814,11.48,-30.309999,-9.94,1729472474586.0,0.0
-0.914058,-8.927622,-2.120041,-40.880001,-35.139999,-10.78,1729472474606.0,0.0
-1.421337,-8.365308,-0.617348,-23.59,-39.549999,0.28,1729472474628.0,0.0
-1.222732,-7.441679,-2.529213,-22.82,-46.549999,6.02,1729472474645.0,0.0
-0.660419,-8.530413,-5.268995,-65.309998,-38.360001,2.24,1729472474666.0,0.0
0.234497,-11.100305,-8.059027,-78.75,-18.27,5.11,1729472474687.0,0.0
1.198804,-10.980663,-8.458629,-39.34,18.059999,6.16,1729472474706.0,0.0
0.76331,-10.296316,-5.996413,-19.18,61.459999,8.75,1729472474728.0,0.0
-0.602991,-10.435099,-1.4668,-41.299999,79.940002,-4.97,1729472474745.0,0.0
-0.832702,-12.677175,-1.550549,-49.420002,66.57,-15.89,1729472474765.0,0.0
-2.007578,-10.844273,1.569692,10.22,39.41,-13.65,1729472474786.0,0.0
-2.804388,-7.755138,1.868794,62.860001,46.549999,-4.9,1729472474809.0,0.0
-6.245267,-9.162118,8.468199,29.120001,7.0,-3.29,1729472474826.0,0.0
-4.869394,-9.209974,3.4672,20.93,-18.83,-1.47,1729472474845.0,0.0
-2.400001,-10.523634,-1.433301,-32.689999,-35.209999,-12.6,1729472474866.0,0.0
-0.66999,-11.22473,-2.921637,-31.710001,-25.620001,-5.39,1729472474885.0,0.0
-1.141376,-10.983055,-2.718246,6.37,-5.46,5.53,1729472474906.0,0.0
-1.026521,-9.609575,-3.574877,45.920002,-14.42,-0.98,1729472474926.0,0.0
0.12682,-7.786245,-5.938986,32.689999,-38.57,-6.16,1729472474945.0,0.0
0.222532,-6.058627,-3.261417,-16.17,-34.369999,-1.47,1729472474966.0,0.0
-0.87338,-9.348758,-3.471986,-46.34,-34.860001,13.02,1729472474985.0,0.0
-0.911665,-10.82513,-8.099705,-3.29,-27.58,10.15,1729472475006.0,0.0
-0.701097,-9.21476,-7.458428,21.559999,26.18,6.23,1729472475027.0,0.0
-1.59362,-8.721838,-3.986443,-18.969999,56.700001,8.05,1729472475045.0,0.0
-2.318645,-12.571891,-2.79721,-56.630001,60.130001,7.7,1729472475069.0,0.0
-1.323231,-12.985848,-1.727618,-18.969999,42.98,-11.76,1729472475085.0,0.0
-1.56012,-9.683753,-0.002393,53.34,56.560001,-3.99,1729472475106.0,0.0
-4.783253,-8.458629,10.269995,105.209999,24.360001,3.85,1729472475128.0,0.0
-5.785845,-6.080163,6.393622,99.68,4.97,21.35,1729472475145.0,0.0
-3.682554,-9.049655,1.20359,-55.23,-37.73,-9.03,1729472475166.0,0.0
-1.179662,-12.059827,-2.897708,-116.690002,-53.689999,-14.42,1729472475185.0,0.0
-0.729811,-13.39502,-3.725625,-57.330002,-40.599998,-3.22,1729472475206.0,0.0
-1.462015,-11.24866,-2.505285,4.34,-32.689999,-12.81,1729472475226.0,0.0
-1.854438,-9.111869,-3.062813,38.57,-37.310001,-18.129999,1729472475245.0,0.0
-1.981257,-7.776673,0.433101,4.55,-50.959999,-11.13,1729472475266.0,0.0
-0.753739,-9.097511,-3.337988,-7.49,-78.68,-10.85,1729472475285.0,0.0
0.507278,-8.578269,-6.685547,22.68,-52.5,-0.07,1729472475305.0,0.0
0.579063,-8.240881,-6.673582,-16.24,-12.04,0.21,1729472475326.0,0.0
0.038285,-9.925428,-7.915457,-36.68,19.530001,4.27,1729472475345.0,0.0
-0.062213,-10.667203,-6.838687,-28.84,42.279999,5.6,1729472475366.0,0.0
-0.344566,-10.516455,-5.087141,-16.870001,60.200001,-3.43,1729472475394.0,0.0
-0.653241,-8.915657,-4.149154,9.8,64.120003,-7.63,1729472475406.0,0.0
-1.119841,-9.224331,-1.72044,7.0,60.27,-7.14,1729472475427.0,0.0
-1.476372,-9.145369,-0.713061,-22.120001,41.439999,-13.02,1729472475446.0,0.0
-1.265803,-10.269995,-1.545763,-17.99,42.490002,-4.83,1729472475467.0,0.0
-4.589434,-12.136396,10.049855,9.1,25.969999,-2.17,1729472475485.0,0.0
-5.45085,-8.879765,5.47717,76.860001,4.34,8.89,1729472475506.0,0.0
-3.632305,-8.970692,0.653241,-11.62,-24.08,-13.16,1729472475526.0,0.0
-0.658026,-10.325029,-3.120241,-79.239998,-42.98,-23.52,1729472475545.0,0.0
-0.445065,-12.009576,-3.704089,-47.389999,-17.15,-3.78,1729472475566.0,0.0
-1.646262,-10.167104,-2.787638,6.93,1.89,-6.02,1729472475586.0,0.0
-1.124627,-8.673983,-3.684947,38.779999,-5.81,-9.8,1729472475606.0,0.0
-0.339781,-7.84128,-2.854637,25.200001,-17.780001,-6.72,1729472475627.0,0.0
-0.684347,-7.896315,-2.254039,-2.45,-20.370001,0.56,1729472475644.0,0.0
-1.0002,-9.226725,-3.885944,-19.040001,-27.93,-2.03,1729472475666.0,0.0
-1.055235,-9.944571,-4.017549,-14.49,-26.040001,-3.71,1729472475685.0,0.0
-0.78006,-9.056834,-6.391229,-3.36,-11.69,-6.02,1729472475706.0,0.0
-0.004786,-8.99462,-7.65464,-17.92,2.38,-0.28,1729472475726.0,0.0
0.756132,-9.410972,-7.348359,-25.76,21.49,3.29,1729472475745.0,0.0
0.09332,-9.954143,-7.130611,-24.99,55.369999,5.25,1729472475765.0,0.0
-0.949951,-11.9689,-3.163311,-21.35,71.82,-4.55,1729472475785.0,0.0
-1.986043,-11.552547,0.035892,18.34,73.57,0.14,1729472475805.0,0.0
-4.192225,-9.97807,15.060425,124.739998,34.299999,6.51,1729472475826.0,0.0
-6.798009,-6.867401,8.779266,126.629997,3.57,13.58,1729472475845.0,0.0
-4.187439,-8.236095,0.868595,-49.0,-45.220001,-25.9,1729472475866.0,0.0
-0.409173,-10.813165,-3.732803,-139.509995,-71.68,-29.049999,1729472475885.0,0.0
-0.107677,-12.638889,-3.991228,-95.269997,-42.84,-4.9,1729472475905.0,0.0
-2.084148,-10.377672,-2.825923,-20.16,-11.13,-8.26,1729472475926.0,0.0
-1.490728,-8.556733,-3.158526,31.01,-22.26,-11.06,1729472475945.0,0.0
-1.100698,-7.525427,-2.323431,21.559999,-37.450001,-3.01,1729472475966.0,0.0
-1.141376,-8.965906,-2.928815,12.74,-52.080002,6.09,1729472475986.0,0.0
-0.07657,-8.575876,-4.701896,22.889999,-62.580002,0.98,1729472476005.0,0.0
0.401994,-7.625926,-6.541977,26.389999,-35.700001,10.01,1729472476028.0,0.0
-0.026321,-8.975478,-7.913064,-50.119999,-7.21,4.76,1729472476045.0,0.0
0.062213,-10.535598,-9.040084,-68.599998,17.290001,6.37,1729472476068.0,0.0
0.193819,-10.358529,-6.372087,-30.940001,45.080002,8.26,1729472476085.0,0.0
-0.062213,-10.004392,-5.156533,-7.91,66.150002,-0.35,1729472476109.0,0.0
-0.612563,-10.983055,-2.852244,17.85,69.160004,2.24,1729472476126.0,0.0
-1.253839,-9.54497,-0.148355,33.599998,55.790001,-4.83,1729472476146.0,0.0
-1.48355,-8.724231,-0.435494,32.41,60.130001,2.45,1729472476165.0,0.0
-4.831109,-10.310673,9.303294,29.68,15.54,-0.28,1729472476185.0,0.0
-5.379066,-9.052048,5.190032,68.879997,1.4,13.09,1729472476205.0,0.0
-2.194218,-9.832108,-1.141376,-20.23,-41.299999,-14.49,1729472476226.0,0.0
0.0335,-10.25803,-2.919244,-45.5,-41.299999,-9.45,1729472476245.0,0.0
-0.598206,-11.028521,-3.78066,-11.13,-17.01,4.83,1729472476266.0,0.0
-0.588634,-10.447062,-3.845266,26.040001,-12.18,-1.05,1729472476285.0,0.0
-0.040678,-8.446664,-4.134798,47.740002,-16.940001,-7.49,1729472476305.0,0.0
-0.368495,-6.850651,-3.45045,47.459999,-9.8,4.41,1729472476327.0,0.0
-0.856631,-8.29113,-2.9336,6.23,-12.53,8.61,1729472476346.0,0.0
-0.748954,-11.014162,-4.864608,-7.56,-16.24,4.13,1729472476365.0,0.0
-0.299103,-10.018748,-7.781459,15.4,9.03,1.54,1729472476385.0,0.0
-0.777667,-8.68116,-5.895915,3.29,42.77,8.05,1729472476405.0,0.0
-0.978664,-10.236496,-5.381458,-15.82,49.98,8.54,1729472476426.0,0.0
-0.870987,-11.952149,-2.754139,-19.110001,53.27,-2.17,1729472476445.0,0.0
-1.28016,-10.054641,-3.259024,13.3,65.239998,-1.26,1729472476465.0,0.0
-7.408179,-9.707682,19.494326,12.46,42.98,-6.02,1729472476485.0,0.0
-7.460821,-7.022934,8.209774,94.150002,-27.23,15.82,1729472476504.0,0.0
-2.907279,-7.805387,-0.430708,-10.29,-61.389999,-18.34,1729472476527.0,0.0
0.722632,-8.413164,-3.893122,-78.400002,-66.010002,-14.07,1729472476544.0,0.0
-1.399801,-11.815758,-3.115455,-77.489998,-27.09,10.78,1729472476565.0,0.0
-2.572284,-13.430914,-3.668197,-36.400002,-17.85,-1.61,1729472476585.0,0.0
-0.782453,-8.508877,-2.964707,55.510002,-29.049999,-3.01,1729472476605.0,0.0
-0.794417,-6.666404,-2.299503,19.809999,-38.080002,-7.07,1729472476627.0,0.0
-1.272982,-8.271988,-1.847259,-25.129999,-44.66,1.12,1729472476644.0,0.0
-0.251246,-10.159925,-4.383651,-20.370001,-60.27,-1.26,1729472476665.0,0.0
0.48335,-9.274581,-7.389036,31.15,-40.670002,8.19,1729472476685.0,0.0
-0.119641,-8.446664,-6.838687,21.629999,3.64,12.88,1729472476706.0,0.0
-0.133998,-9.645468,-7.582855,-16.870001,28.42,8.19,1729472476726.0,0.0
-0.392423,-9.846465,-4.819145,-22.4,50.119999,10.29,1729472476745.0,0.0
-0.552742,-10.4016,-3.881158,-12.11,55.510002,3.08,1729472476765.0,0.0
-0.344566,-10.485349,-3.471986,3.36,55.23,-0.7,1729472476784.0,0.0
-0.808774,-8.992228,-1.536192,18.9,49.209999,-5.81,1729472476806.0,0.0
-2.098505,-8.752945,-1.617548,19.950001,64.190002,6.72,1729472476827.0,0.0
-6.699903,-11.645866,11.583653,-8.05,29.26,-0.56,1729472476844.0,0.0
-6.025128,-9.028119,4.855037,63.279999,2.45,22.75,1729472476865.0,0.0
-2.514857,-9.738789,-0.803988,-30.59,-27.719999,-12.11,1729472476885.0,0.0
-0.18664,-10.439885,-3.046063,-52.360001,-26.880001,-4.34,1729472476905.0,0.0
-0.961915,-11.234302,-2.842674,-13.72,0.21,13.37,1729472476926.0,0.0
-1.995614,-11.296515,-2.455036,9.17,-1.4,1.47,1729472476944.0,0.0
-1.986043,-10.600205,-2.344966,29.120001,-12.67,-6.44,1729472476965.0,0.0
-2.005185,-9.894321,-2.565106,34.509998,-21.0,-11.62,1729472476985.0,0.0
-1.65344,-8.362915,-1.947758,19.809999,-28.280001,-19.389999,1729472477004.0,0.0
-1.421337,-8.116454,-1.969293,-2.59,-34.790001,-16.940001,1729472477026.0,0.0
-0.818345,-8.793623,-3.699304,-17.290001,-40.529999,-18.83,1729472477044.0,0.0
-0.165105,-8.726624,-6.415157,-7.49,-28.559999,-12.39,1729472477068.0,0.0
-0.291924,-8.501699,-6.668797,-14.35,2.8,-8.4,1729472477085.0,0.0
-0.375673,-9.516255,-6.652047,-18.27,27.58,-3.78,1729472477104.0,0.0
-0.354138,-9.846465,-5.491528,-9.8,44.939999,2.38,1729472477125.0,0.0
-0.42353,-12.296716,-4.304688,1.61,59.779999,0.63,1729472477144.0,0.0
-0.409173,-9.781858,-3.321238,26.67,67.830002,-6.16,1729472477165.0,0.0
-5.101498,-7.992027,18.379271,63.07,78.75,3.29,1729472477184.0,0.0
-9.298509,-6.884151,10.265208,81.269997,-0.42,27.02,1729472477205.0,0.0
-3.926622,-9.915856,-0.801596,-69.93,-44.240002,-33.110001,1729472477225.0,0.0
1.414158,-9.848858,-3.275774,-94.57,-67.480003,-32.200001,1729472477244.0,0.0
-1.959722,-11.349157,-2.612962,-28.630001,-12.74,9.8,1729472477265.0,0.0
-3.457629,-11.246266,-1.792224,13.37,-1.12,-3.08,1729472477285.0,0.0
-2.179861,-9.133404,-1.155733,43.259998,-26.880001,-3.15,1729472477304.0,0.0
-1.241875,-8.611769,-2.696711,18.76,-40.459999,-7.63,1729472477326.0,0.0
-1.596013,-8.733803,-2.658426,-25.76,-45.220001,-8.4,1729472477344.0,0.0
-1.301696,-10.255639,-3.440879,-26.32,-55.650002,-7.49,1729472477365.0,0.0
-0.167498,-8.638089,-3.63709,21.77,-61.810001,-3.92,1729472477385.0,0.0
-0.287139,-7.692925,-4.788038,30.380001,-33.18,7.63,1729472477405.0,0.0
-0.167498,-8.889337,-7.336394,-30.380001,-14.77,1.26,1729472477434.0,0.0
0.902094,-10.140782,-9.085547,-28.07,5.11,8.68,1729472477448.0,0.0
1.332802,-10.10489,-8.310273,3.36,42.0,12.81,1729472477464.0,0.0
-0.011964,-9.183653,-3.06042,31.99,70.980003,13.440001,1729472477486.0,0.0
-1.325624,-9.257831,-3.065206,29.82,77.209999,10.22,1729472477504.0,0.0
-0.985843,-11.52862,-5.496314,-3.43,77.629997,-1.89,1729472477526.0,0.0
-2.79721,-11.167303,1.572084,35.279999,81.340004,1.33,1729472477544.0,0.0
-6.405586,-8.097312,15.048461,80.010002,71.82,3.99,1729472477565.0,0.0
-7.676175,-10.770095,2.35693,13.16,-13.72,0.84,1729472477585.0,0.0
-0.619741,-10.971091,-3.65384,-37.240002,-55.510002,-39.689999,1729472477605.0,0.0
0.847059,-9.609575,-3.122634,0.63,-31.01,-20.370001,1729472477626.0,0.0
-1.335195,-9.334401,-2.222932,16.940001,11.48,-2.87,1729472477645.0,0.0
-2.871387,-9.614362,-1.146162,-3.29,10.99,-8.54,1729472477666.0,0.0
-2.105684,-10.334601,-0.586242,13.02,-12.04,-4.2,1729472477684.0,0.0
-0.306281,-9.224331,-0.839881,26.460001,-27.299999,-8.19,1729472477705.0,0.0
-0.179462,-9.305687,-0.68674,-30.17,-23.379999,-10.15,1729472477727.0,0.0
-0.495314,-9.042477,-0.612563,-118.300003,-23.309999,-22.190001,1729472477745.0,0.0
-1.11027,-10.200603,-1.48355,-138.529999,-23.940001,-13.79,1729472477809.0,0.0
-1.083949,-11.014162,-2.9671,-115.150002,-19.040001,-15.47,1729472477810.0,0.0
-0.847059,-10.241282,-3.897908,-59.080002,-5.32,-14.49,1729472477810.0,0.0
-0.002393,-8.760124,-3.771089,-35.91,6.72,-8.82,1729472477842.0,0.0
0.971486,-7.221539,-3.795017,-68.18,7.49,-3.43,1729472477849.0,0.0
1.471586,-6.728617,-5.501099,-122.5,13.16,6.86,1729472477867.0,0.0
1.004985,-7.523034,-6.757331,-151.130005,29.26,30.309999,1729472477886.0,0.0
-0.504886,-7.341179,-6.802795,-120.120003,49.209999,48.23,1729472477907.0,0.0
-2.59382,-7.9011,-5.845665,-111.860001,68.040001,54.040001,1729472477928.0,0.0
-3.692125,-7.817351,-5.374279,-140.210007,63.700001,41.580002,1729472477946.0,0.0
-3.68734,-7.611568,-5.285746,-152.180008,36.189999,47.32,1729472477967.0,0.0
-2.478964,-7.982457,-5.058427,-138.529999,6.65,41.860001,1729472477986.0,0.0
-1.320838,-8.652447,-7.432107,-119.629997,-1.26,35.0,1729472478010.0,0.0
0.129212,-8.470592,-8.803195,-58.450001,-12.39,28.35,1729472478031.0,0.0
0.543171,-7.537392,-10.159925,23.379999,-10.22,18.9,1729472478116.0,0.0
-0.416351,-5.871986,-8.415558,98.07,9.38,-1.19,1729472478116.0,0.0
-0.837488,-5.910272,-7.874779,146.440002,29.4,3.85,1729472478124.0,0.0
-0.349352,-6.67119,-4.146761,121.660004,42.420002,-9.94,1729472478208.0,0.0
-1.56012,-8.635696,-1.426122,117.18,41.580002,-8.47,1729472478209.0,0.0
-2.900101,-8.788837,-1.167697,136.149994,49.700001,-7.28,1729472478210.0,0.0
-3.239882,-9.413363,-3.321238,87.010002,36.049999,-18.059999,1729472478211.0,0.0
-3.010171,-10.655239,-3.326023,44.73,20.51,-23.73,1729472478227.0,0.0
-3.304488,-10.671989,-0.909273,7.42,-2.8,-3.78,1729472478245.0,0.0
-4.055835,-11.746366,-3.383451,5.74,16.52,-7.84,1729472478266.0,0.0
-3.558127,-11.75833,-3.89073,30.870001,-4.69,-1.75,1729472478286.0,0.0
-2.65364,-10.686346,-3.381058,61.32,-9.66,8.89,1729472478305.0,0.0
-2.179861,-9.480364,-3.259024,84.0,-2.94,11.06,1729472478327.0,0.0
-2.787638,-8.745767,-2.787638,56.279999,13.79,11.06,1729472478345.0,0.0
-3.156133,-9.24826,0.160319,-67.690002,23.1,1.82,1729472478366.0,0.0
-2.349752,-8.82473,-0.42353,-177.240005,-1.96,-13.72,1729472478386.0,0.0
-0.524028,-9.726824,-3.766303,-142.660004,-57.959999,-7.84,1729472478406.0,0.0
1.012164,-7.755138,-5.668597,-70.489998,-67.269997,12.53,1729472478426.0,0.0
0.930808,-2.328217,-8.042276,-68.459999,-44.799999,32.549999,1729472478565.0,0.0
-0.868595,-6.118448,-8.693125,-73.360001,-34.09,52.43,1729472478566.0,0.0
-1.464408,-7.149754,-10.205389,-100.169998,-1.68,63.0,1729472478669.0,0.0
-1.064806,-8.762517,-10.983055,-47.110001,-2.94,54.459999,1729472478676.0,0.0
-1.464408,-8.173882,-9.726824,0.07,15.68,33.459999,1729472478678.0,0.0
-1.301696,-6.860222,-5.845665,73.779999,32.060001,3.15,1729472478679.0,0.0
-0.710668,-5.472386,-6.104091,56.07,25.059999,-14.98,1729472478680.0,0.0
0.045464,-7.046863,-5.594419,33.529999,15.190001,-30.380001,1729472478681.0,0.0
1.160519,-8.453842,-6.817152,19.389999,10.78,-46.48,1729472478682.0,0.0
2.790031,-9.822537,-7.302894,34.299999,2.8,-49.490002,1729472478685.0,0.0
2.612962,-10.681561,-2.617748,48.860001,14.07,-45.290001,1729472478686.0,0.0
-1.473979,-8.267202,0.392423,55.580002,58.52,-38.779999,1729472478687.0,0.0
-5.479564,-9.801002,-1.538585,36.119999,46.970001,-59.220001,1729472478705.0,0.0
-6.728617,-10.583455,-4.73061,19.67,4.48,-33.25,1729472478727.0,0.0
-4.85743,-9.88475,-3.89073,-3.92,-37.240002,-20.93,1729472478745.0,0.0
-3.960121,-10.085747,-2.313859,-49.209999,-24.219999,-19.460001,1729472478764.0,0.0
-4.87418,-10.731809,-2.849852,-82.529999,-1.61,-18.9,1729472478785.0,0.0
-4.811966,-11.069198,-3.139383,-68.459999,-4.48,-1.68,1729472478806.0,0.0
-2.562713,-7.384251,-3.625126,-48.23,-32.900002,-0.07,1729472478824.0,0.0
-1.773082,-6.659225,-5.47717,-44.170002,-41.439999,27.790001,1729472478844.0,0.0
-1.103091,-5.79781,-4.831109,-94.5,-37.310001,35.630001,1729472478866.0,0.0
-0.461815,-5.094319,-9.96132,-136.080002,-47.880001,52.220001,1729472478884.0,0.0
1.596013,-5.508278,-9.162118,-66.57,-49.98,64.75,1729472478905.0,0.0
0.442672,-3.084348,-10.530812,3.5,-22.049999,93.800003,1729472478927.0,0.0
-1.375873,-6.034698,-7.939385,-42.139999,16.17,77.980003,1729472478945.0,0.0
-1.600798,-7.219146,-9.145369,-72.800003,12.95,70.419998,1729472478966.0,0.0
-1.064806,-6.374479,-8.288737,-17.5,10.15,63.560001,1729472478985.0,0.0
-2.275574,-6.374479,-7.73121,-15.68,21.0,43.75,1729472479005.0,0.0
-2.79721,-8.585447,-7.647461,-24.85,18.059999,21.77,1729472479028.0,0.0
-3.165704,-7.850852,-9.513863,15.61,12.32,5.46,1729472479046.0,0.0
-3.323631,-6.405586,-9.49472,75.459999,18.059999,-11.27,1729472479069.0,0.0
-2.105684,-5.776274,-7.515855,63.490002,14.98,-32.200001,1729472479086.0,0.0
0.380459,-5.101498,-6.963113,30.380001,-2.94,-57.75,1729472479105.0,0.0
2.354537,-5.520242,-6.345766,-42.209999,-4.76,-78.610001,1729472479127.0,0.0
1.72044,-5.374279,-11.277373,-182.0,20.16,-117.879997,1729472479145.0,0.0
-1.859223,-13.380664,-5.123034,-157.149994,38.009998,-104.650002,1729472479167.0,0.0
-3.919443,-15.51267,-3.976871,-82.739998,35.0,-119.559998,1729472479185.0,0.0
-3.038885,-6.132804,-8.286345,190.119995,-13.93,-69.440002,1729472479205.0,0.0
-2.792424,-0.564706,-4.472186,248.639999,-16.309999,-44.450001,1729472479230.0,0.0
-4.108476,-2.9671,-3.988836,30.66,6.51,-18.549999,1729472479245.0,0.0
-3.34038,-8.965906,-6.407979,-76.019997,-18.969999,-11.83,1729472479266.0,0.0
-3.589234,-11.595619,-6.273981,-29.26,-12.88,13.23,1729472479285.0,0.0
-4.103691,-9.178867,-6.360123,76.580002,10.57,22.190001,1729472479305.0,0.0
-4.055835,-6.092126,-5.264209,104.019997,10.15,38.849998,1729472479328.0,0.0
-3.326023,-6.525227,-4.548756,48.509998,-6.58,44.869999,1729472479346.0,0.0
-2.938386,-7.767102,-4.388437,-23.450001,-0.77,45.360001,1729472479366.0,0.0
-3.359523,-8.693125,-5.673382,-65.660004,8.54,44.170002,1729472479386.0,0.0
-2.660819,-9.470792,-4.271189,-125.580002,-0.07,38.990002,1729472479409.0,0.0
-0.605384,-10.456635,-6.369694,-87.080002,-29.26,45.43,1729472479429.0,0.0
2.041078,-7.173682,-6.455836,-6.23,-43.189999,47.740002,1729472479445.0,0.0
0.815953,-4.890929,-6.898508,-10.15,-11.48,61.389999,1729472479473.0,0.0
-0.461815,-6.716653,-7.183254,-46.130001,-11.9,43.82,1729472479485.0,0.0
-0.617348,-5.017749,-11.41855,-33.529999,-18.76,59.43,1729472479506.0,0.0
0.057428,-2.459821,-10.616954,-5.46,-2.03,84.769997,1729472479528.0,0.0
-1.765903,-4.225725,-10.116854,-21.77,30.940001,90.019997,1729472479545.0,0.0
-3.069991,-8.941978,-7.006185,-50.330002,36.610001,60.27,1729472479566.0,0.0
-5.003392,-6.192625,-5.661418,-0.91,29.049999,44.799999,1729472479587.0,0.0
-5.367101,-3.416951,-7.877172,21.49,14.0,20.51,1729472479607.0,0.0
-3.639483,-3.919443,-10.944772,15.33,5.6,-6.02,1729472479629.0,0.0
-2.888137,-5.383851,-7.087541,7.14,18.059999,-24.15,1729472479646.0,0.0
-0.744168,-4.713861,-7.164111,-57.75,5.46,-61.25,1729472479666.0,0.0
2.526821,-6.963113,-11.631511,-117.25,-24.15,-84.489998,1729472479688.0,0.0
1.911865,-11.375479,-10.887343,-140.0,10.64,-104.440002,1729472479706.0,0.0
-0.736989,-11.016556,-6.216553,-96.32,44.450001,-117.809998,1729472479728.0,0.0
-4.366901,-10.224532,-4.127619,70.699997,40.599998,-91.139999,1729472479747.0,0.0
-6.659225,-6.302694,-4.022335,176.820007,19.18,-62.09,1729472479770.0,0.0
-5.563312,-1.794617,-6.977471,149.169998,-27.02,-43.400002,1729472479788.0,0.0
-3.546163,-0.753739,-6.608976,15.05,-33.18,-7.42,1729472479808.0,0.0
-4.04387,-7.075576,-5.56092,-70.699997,-3.36,15.05,1729472479830.0,0.0
-5.54417,-12.557532,-4.481757,-19.18,6.3,50.610001,1729472479846.0,0.0
-4.398008,-9.310472,-5.804988,56.560001,-13.09,54.25,1729472479867.0,0.0
-3.39063,-7.936993,-4.63729,55.369999,-18.059999,52.779999,1729472479887.0,0.0
-3.656233,-8.470592,-5.903094,4.41,-16.1,47.670002,1729472479907.0,0.0
-4.067799,-9.745967,-5.903094,-26.389999,-19.040001,33.529999,1729472479928.0,0.0
-2.919244,-8.094919,-6.996613,-38.360001,-36.75,28.77,1729472479947.0,0.0
-0.717847,-5.103891,-7.515855,-36.189999,-50.82,27.93,1729472479969.0,0.0
0.571885,-5.190032,-10.995021,-14.35,-54.25,46.900002,1729472479988.0,0.0
1.270589,-2.782853,-9.21476,-5.18,-36.889999,43.400002,1729472480008.0,0.0
-1.864009,-2.663212,-10.576276,-13.93,4.55,61.110001,1729472480031.0,0.0
-2.024328,-3.302095,-8.523234,-14.49,17.08,69.510002,1729472480048.0,0.0
-3.058028,-3.359523,-9.882358,-13.58,18.129999,80.779999,1729472480074.0,0.0
-4.479364,-5.819345,-11.449656,-43.540001,30.309999,50.119999,1729472480087.0,0.0
-5.070391,-5.568098,-10.25803,5.88,39.900002,28.49,1729472480108.0,0.0
-4.364508,-4.555934,-7.49432,54.459999,55.369999,-8.54,1729472480129.0,0.0
-2.012364,-3.596412,-6.460621,41.93,30.030001,-39.130001,1729472480148.0,0.0
0.665205,-3.120241,-7.609176,-8.19,12.39,-69.230003,1729472480168.0,0.0
1.0002,-3.282953,-9.10469,-38.080002,17.5,-67.410004,1729472480192.0,0.0
-2.048256,-9.466006,-6.013163,-71.610001,36.259998,-82.389999,1729472480208.0,0.0
-5.601598,-13.995619,-5.682954,-18.76,52.080002,-94.220001,1729472480228.0,0.0
-4.086941,-7.092326,-11.45205,163.869995,6.79,-47.529999,1729472480248.0,0.0
-1.730011,-2.234896,-5.79781,216.580002,-37.66,-24.780001,1729472480268.0,0.0
-2.18704,-5.151747,-5.084748,40.110001,13.65,-42.560001,1729472480287.0,0.0
-4.046263,-12.174682,-1.445265,-49.700001,25.549999,-12.95,1729472480307.0,0.0
-3.622734,-12.926028,-0.265603,6.16,-2.45,-16.450001,1729472480328.0,0.0
-4.558327,-10.444671,-2.318645,117.529999,-20.16,0.21,1729472480348.0,0.0
-4.974678,-5.618347,-3.019742,97.650002,-5.6,0.77,1729472480368.0,0.0
-5.831308,-5.694918,-3.115455,-6.58,-5.11,17.08,1729472480387.0,0.0
-5.422136,-10.040283,-4.668397,-128.169998,-15.68,11.97,1729472480407.0,0.0
-2.825923,-8.937192,-6.130411,-178.289993,-40.389999,1.26,1729472480429.0,0.0
-1.002593,-7.659425,-7.862815,-108.360001,-59.080002,20.860001,1729472480448.0,0.0
0.244068,-4.563113,-10.131211,-97.440002,-29.33,31.43,1729472480467.0,0.0
-0.708275,-5.359922,-9.899107,-31.639999,-21.42,59.57,1729472480487.0,0.0
-3.328416,-5.221139,-9.267403,13.86,23.17,66.43,1729472480508.0,0.0
-4.728218,-6.525227,-8.848659,-17.360001,13.65,68.32,1729472480530.0,0.0
-3.036492,-6.970293,-7.688138,-25.83,-14.7,58.799999,1729472480548.0,0.0
-1.840081,-7.276574,-10.152746,6.02,-16.799999,49.490002,1729472480568.0,0.0
-1.311267,-6.080163,-10.607382,67.620003,-4.62,44.73,1729472480587.0,0.0
-2.524428,-3.404987,-10.219746,99.68,11.97,38.779999,1729472480608.0,0.0
-4.187439,-3.333202,-7.913064,59.150002,26.6,26.32,1729472480629.0,0.0
-4.24726,-4.876573,-10.336994,34.580002,17.290001,3.36,1729472480647.0,0.0
-4.072584,-5.505885,-10.942378,34.299999,26.74,-21.91,1729472480669.0,0.0
-4.709075,-5.757132,-6.869793,35.209999,50.610001,-50.119999,1729472480687.0,0.0
-2.971886,-2.658426,-4.211368,4.62,34.439999,-84.07,1729472480707.0,0.0
-0.193819,-0.9667,-9.683753,-6.16,-8.47,-97.160004,1729472480729.0,0.0
1.473979,-4.993821,-8.133204,-84.629997,-14.84,-116.690002,1729472480747.0,0.0
-1.74676,-10.499706,-8.513663,-119.489998,40.389999,-125.440002,1729472480767.0,0.0
-2.431108,-8.006385,-5.687739,22.960001,24.360001,-105.489998,1729472480787.0,0.0
-4.766503,-4.206582,-1.95015,192.430008,6.44,-40.459999,1729472480808.0,0.0
-6.479764,-6.128019,-2.65364,113.889999,-5.32,-17.99,1729472480828.0,0.0
-6.089733,-8.350951,-4.773681,6.23,-21.84,-11.34,1729472480847.0,0.0
-4.65404,-8.846266,-6.242875,-53.27,-20.58,1.33,1729472480867.0,0.0
-3.259024,-9.678967,-6.001199,-54.040001,-15.96,18.620001,1729472480888.0,0.0
-2.452643,-9.327222,-5.429315,-20.58,-3.71,36.889999,1729472480908.0,0.0
-2.70389,-8.405986,-4.553542,13.58,13.58,50.889999,1729472480928.0,0.0
-3.349952,-7.692925,-4.67079,-2.73,19.809999,60.689999,1729472480947.0,0.0
-3.680161,-8.346166,-4.532006,-37.029999,7.21,72.379997,1729472480968.0,0.0
-2.804388,-9.882358,-5.307281,-76.090004,-22.26,57.959999,1729472480987.0,0.0
-1.509871,-10.265208,-8.090133,-56.349998,-41.93,42.630001,1729472481008.0,0.0
-0.61017,-6.695118,-7.948956,16.799999,-38.43,35.98,1729472481028.0,0.0
-0.882952,-2.254039,-8.982656,-1.89,-21.98,37.099998,1729472481046.0,0.0
-0.937986,-5.422136,-8.391629,-49.279999,-28.139999,34.02,1729472481070.0,0.0
-0.256032,-7.04447,-9.894321,-72.940002,-25.34,26.25,1729472481087.0,0.0
-0.40678,-4.536791,-10.368099,-15.89,-14.21,39.830002,1729472481107.0,0.0
-2.26361,-2.979064,-10.805987,27.23,4.97,41.720001,1729472481129.0,0.0
-3.579663,-4.627719,-10.540384,11.34,36.330002,24.710001,1729472481147.0,0.0
-3.471986,-6.388836,-10.581062,31.360001,38.779999,-0.91,1729472481177.0,0.0
-3.881158,-5.833702,-8.269595,76.160004,54.18,-20.51,1729472481187.0,0.0
-2.993421,-4.386044,-5.048856,66.43,46.200001,-55.860001,1729472481208.0,0.0
-0.9667,-4.204189,-6.630512,20.16,6.02,-85.959999,1729472481238.0,0.0
0.660419,-5.008178,-9.767502,-37.66,-14.35,-112.699997,1729472481247.0,0.0
-0.256032,-8.35813,-10.284351,-52.080002,10.5,-117.040001,1729472481268.0,0.0
-2.486143,-9.949356,-4.780859,12.25,29.190001,-99.470001,1729472481287.0,0.0
-5.886343,-7.783852,-3.728018,127.190002,48.580002,-64.050003,1729472481307.0,0.0
-7.41775,-6.326623,-5.446064,136.220001,13.02,-62.580002,1729472481329.0,0.0
-5.388636,-9.506684,-4.019942,34.720001,-17.15,-42.77,1729472481346.0,0.0
-2.108077,-11.863614,-1.521835,-2.73,-39.549999,-35.349998,1729472481367.0,0.0
-1.785046,-10.473385,-1.440479,23.379999,-17.219999,-9.8,1729472481387.0,0.0
-3.558127,-7.9011,-1.813759,44.939999,25.129999,10.15,1729472481407.0,0.0
-4.960321,-7.625926,-3.728018,10.92,26.18,29.68,1729472481428.0,0.0
-4.134798,-8.949157,-5.079963,-45.5,0.21,38.5,1729472481449.0,0.0
-0.588634,-7.953743,-5.290531,-109.550003,-28.35,44.240002,1729472481467.0,0.0
-0.504886,-6.415157,-7.432107,-64.120003,-30.66,57.610001,1729472481487.0,0.0
-1.830509,-5.012963,-7.566105,-64.260002,-8.61,50.189999,1729472481507.0,0.0
-3.723232,-6.771688,-9.422935,-75.809998,-11.27,52.779999,1729472481528.0,0.0
-1.552942,-8.341379,-9.607183,-69.860001,-43.610001,43.889999,1729472481546.0,0.0
-0.378066,-5.556134,-10.923235,-15.54,-36.400002,57.189999,1729472481567.0,0.0
-0.770489,-3.804588,-11.07159,44.66,-5.88,66.220001,1729472481586.0,0.0
-2.440679,-2.773281,-9.06162,40.25,17.99,73.779999,1729472481606.0,0.0
-3.309274,-6.142376,-7.343572,0.42,23.870001,55.299999,1729472481628.0,0.0
-2.885744,-8.044669,-8.492127,8.19,11.48,38.779999,1729472481646.0,0.0
-3.132205,-6.721439,-10.179067,60.41,19.040001,9.17,1729472481667.0,0.0
-4.414758,-5.417351,-9.111869,112.840004,41.02,-15.89,1729472481687.0,0.0
-4.21376,-4.256832,-4.524827,102.550003,44.099998,-38.709999,1729472481707.0,0.0
-1.679761,-3.897908,-5.144568,48.23,2.66,-67.690002,1729472481727.0,0.0
1.495514,-4.022335,-10.731809,-15.05,-34.23,-89.040001,1729472481747.0,0.0
3.349952,-5.094319,-6.776474,-68.949997,-10.78,-101.150002,1729472481766.0,0.0
-0.488136,-10.30828,-7.960921,-149.940002,42.490002,-127.120003,1729472481787.0,0.0
-3.866802,-9.58804,-7.04447,-108.150002,37.73,-97.160004,1729472481807.0,0.0
-4.256832,-8.429914,-5.647062,171.919998,-4.62,-70.559998,1729472481828.0,0.0
-4.713861,-4.768896,-4.582255,161.910004,-24.85,-64.260002,1729472481847.0,0.0
-5.240282,-4.261617,-4.067799,73.010002,-17.360001,-37.869999,1729472481868.0,0.0
-4.606184,-7.668997,-3.986443,-21.77,-22.610001,-32.060001,1729472481886.0,0.0
-3.778267,-11.334801,-5.103891,-64.120003,-16.52,-13.16,1729472481906.0,0.0
-2.591427,-11.083554,-3.835695,-57.049999,-9.73,4.62,1729472481928.0,0.0
-2.26361,-9.028119,-4.405186,-11.06,1.89,23.799999,1729472481946.0,0.0
-2.428715,-7.281359,-4.953143,34.650002,9.45,50.400002,1729472481967.0,0.0
-3.663411,-7.130611,-3.141776,5.39,10.78,66.150002,1729472481987.0,0.0
-3.005385,-5.199604,-4.302295,-130.479996,-5.46,39.060001,1729472482006.0,0.0
-2.474179,-9.353544,-7.226324,-99.050003,-45.009998,67.970001,1729472482028.0,0.0
0.009571,-9.238688,-9.611969,-44.799999,-58.869999,53.34,1729472482046.0,0.0
0.452243,-2.9336,-11.330014,17.15,-32.619999,76.370003,1729472482070.0,0.0
-1.785046,-3.345166,-10.604989,0.98,-11.06,91.209999,1729472482086.0,0.0
-2.335395,-5.608776,-9.745967,-34.790001,17.5,70.0,1729472482107.0,0.0
-2.191825,-5.362316,-8.472985,6.86,12.67,86.519997,1729472482131.0,0.0
-1.952543,-4.369294,-8.867801,-16.66,10.85,59.010002,1729472482146.0,0.0
-2.105684,-4.977071,-8.666803,-48.650002,12.25,34.860001,1729472482167.0,0.0
-2.021935,-6.025128,-8.451449,-58.099998,10.57,7.84,1729472482188.0,0.0
-1.258625,-6.419943,-8.805587,-83.790001,2.59,-26.389999,1729472482206.0,0.0
-1.495514,-7.362715,-7.848458,-83.720001,16.030001,-63.07,1729472482229.0,0.0
-1.840081,-7.532606,-7.518249,-41.790001,20.860001,-93.309998,1729472482246.0,0.0
-1.98365,-6.396015,-11.172089,31.290001,12.74,-105.419998,1729472482266.0,0.0
-1.299303,-7.058826,-10.693524,73.779999,9.45,-109.129997,1729472482287.0,0.0
-2.17029,-5.895915,-6.037091,30.24,25.059999,-108.080002,1729472482308.0,0.0
-3.84048,-7.611568,-4.465007,37.799999,23.59,-107.029999,1729472482331.0,0.0
-4.768896,-7.317252,-6.812366,27.370001,19.879999,-94.43,1729472482348.0,0.0
-5.304887,-5.036892,-5.096712,47.459999,19.879999,-49.279999,1729472482368.0,0.0
-5.429315,-6.419943,-5.501099,70.910004,7.7,-18.969999,1729472482386.0,0.0
-2.993421,-7.130611,-8.748159,50.189999,-26.530001,-13.65,1729472482407.0,0.0
-1.880759,-6.963113,-7.530212,79.029999,-22.26,40.389999,1729472482427.0,0.0
-1.275374,-8.157133,-5.82413,117.529999,6.65,28.210001,1729472482446.0,0.0
-2.0004,-8.336594,-5.721239,123.830002,26.67,36.189999,1729472482467.0,0.0
-2.184647,-8.623734,-4.563113,151.130005,8.89,28.0,1729472482486.0,0.0
-2.0004,-9.415757,-3.778267,127.120003,1.68,18.41,1729472482508.0,0.0
-1.246661,-9.317651,-4.287938,126.209999,-17.639999,10.71,1729472482529.0,0.0
-0.409173,-9.150154,-4.541577,133.139999,-37.73,4.62,1729472482546.0,0.0
-0.217747,-8.377272,-4.134798,112.770004,-22.540001,-2.66,1729472482566.0,0.0
-1.055235,-9.028119,-3.369094,85.68,4.13,2.66,1729472482586.0,0.0
-1.945365,-8.812766,-3.005385,66.080002,13.72,0.7,1729472482606.0,0.0
-2.723032,-9.743573,-3.328416,52.920002,15.33,3.57,1729472482627.0,0.0
-2.526821,-10.222138,-3.48395,48.23,10.57,2.59,1729472482646.0,0.0
-2.397608,-11.574083,-2.651247,50.119999,8.96,4.9,1729472482666.0,0.0
-2.292324,-11.540584,-2.474179,35.91,16.17,-5.04,1729472482687.0,0.0
-2.76371,-11.16491,-1.440479,3.64,19.6,-15.26,1729472482706.0,0.0
-2.878566,-9.595219,-0.468993,-52.709999,18.690001,-35.349998,1729472482727.0,0.0
-2.883351,-7.628319,-0.200997,-155.190002,-0.63,-45.920002,1729472482745.0,0.0
-1.787439,-3.54377,-1.51705,-283.570007,-24.219999,-43.189999,1729472482826.0,0.0
-0.495314,-0.344566,-5.328816,-354.410004,-59.360001,-0.49,1729472482826.0,0.0
-2.916851,-5.582455,-12.093326,-383.809998,-48.580002,35.630001,1729472482830.0,0.0
-2.498107,-16.706688,-7.601997,-103.18,9.03,47.040001,1729472482832.0,0.0
-1.227518,-3.541377,-6.417551,35.560001,-9.38,79.029999,1729472482849.0,0.0
-3.404987,-3.402594,-8.228917,84.0,0.84,90.650002,1729472482867.0,0.0
-3.395415,-5.242674,-9.595219,-24.290001,14.7,56.209999,1729472482886.0,0.0
-1.859223,-6.879365,-10.760524,-19.18,1.68,62.860001,1729472482906.0,0.0
-2.005185,-6.982256,-11.8349,36.959999,20.58,44.029999,1729472482927.0,0.0
-2.572284,-6.233303,-10.293922,95.129997,43.82,17.219999,1729472482946.0,0.0
-2.830709,-4.943572,-6.113662,136.710007,51.52,-4.9,1729472482966.0,0.0
-2.333002,-5.728417,-5.453243,103.25,36.889999,-35.209999,1729472482986.0,0.0
-1.067199,-5.139783,-4.407579,17.08,11.9,-66.150002,1729472483006.0,0.0
-0.133998,-6.142376,-9.310472,-25.620001,-2.17,-83.650002,1729472483027.0,0.0
1.452443,-6.037091,-9.49472,-11.34,-9.94,-82.599998,1729472483045.0,0.0
0.294317,-4.766503,-4.59422,78.610001,34.439999,-44.52,1729472483069.0,0.0
-3.491128,-9.671788,-3.601198,144.550003,59.220001,-26.25,1729472483086.0,0.0
-5.103891,-8.185846,-2.675175,70.699997,48.369999,-29.960001,1729472483106.0,0.0
-5.632704,-6.668797,-3.979264,81.199997,10.22,28.84,1729472483127.0,0.0
-4.37408,-10.667203,-3.507878,111.160004,0.35,38.990002,1729472483145.0,0.0
-4.031906,-11.349157,-2.464607,91.699997,24.57,58.939999,1729472483166.0,0.0
-3.141776,-10.571491,-1.658226,74.059998,15.89,51.380001,1729472483186.0,0.0
-2.900101,-11.432907,-1.462015,98.07,3.78,51.380001,1729472483206.0,0.0
-3.04367,-11.473583,-0.667598,143.779999,-7.07,52.43,1729472483227.0,0.0
-3.503092,-10.858629,-0.770489,191.940002,-17.99,48.02,1729472483246.0,0.0
-3.89073,-10.526026,-2.447858,215.740005,-34.02,42.98,1729472483266.0,0.0
-4.218546,-10.348958,-3.34038,213.289993,-43.189999,34.509998,1729472483285.0,0.0
-4.448257,-10.966305,-4.180261,204.960007,-47.110001,22.26,1729472483306.0,0.0
-4.472186,-12.717852,-2.349752,237.229996,-59.920002,8.47,1729472483327.0,0.0
-2.98385,-13.201202,-3.199204,325.709991,-82.599998,1.26,1729472483346.0,0.0
-1.048056,-10.80838,-1.383051,408.380005,-73.080002,0.91,1729472483366.0,0.0
-0.387637,-8.169096,0.89013,432.529999,-49.279999,1.4,1729472483386.0,0.0
-1.050449,-6.800402,2.59382,401.660004,-36.330002,5.95,1729472483405.0,0.0
-1.512264,-6.460621,4.479364,325.429993,-30.799999,4.41,1729472483427.0,0.0
-1.217947,-6.668797,5.474778,219.800003,-34.509998,-4.06,1729472483446.0,0.0
-0.241675,-5.749953,4.838287,106.190002,-30.52,-14.56,1729472483466.0,0.0
-0.679562,-5.242674,4.962714,33.25,-19.950001,-23.52,1729472483486.0,0.0
-1.354338,-6.319445,5.776274,57.82,-8.12,-4.69,1729472483505.0,0.0
-1.282553,-5.946165,5.931807,57.610001,2.66,-10.99,1729472483529.0,0.0
-1.01695,-4.579862,4.965107,58.450001,5.04,-8.4,1729472483545.0,0.0
-2.816352,-4.15394,8.420342,69.440002,22.82,9.24,1729472483566.0,0.0
-3.84048,-4.555934,8.350951,24.219999,7.42,3.36,1729472483586.0,0.0
-4.352544,-5.804988,7.369894,24.01,-0.28,14.7,1729472483607.0,0.0
-3.041277,-5.178068,8.420342,64.050003,10.43,14.7,1729472483637.0,0.0
-2.897708,-4.807181,9.41815,67.830002,15.47,16.1,1729472483645.0,0.0
-2.845066,-5.749953,8.073383,14.56,8.05,9.03,1729472483666.0,0.0
-2.505285,-6.4678,7.030113,-22.120001,7.14,-0.98,1729472483686.0,0.0
-3.184847,-5.484349,7.877172,0.84,14.42,-0.98,1729472483706.0,0.0
-4.455436,-4.74736,9.095119,26.32,15.68,3.64,1729472483728.0,0.0
-4.086941,-5.381458,8.429914,13.79,2.38,-1.82,1729472483745.0,0.0
-2.87378,-6.520442,7.211967,12.11,-4.48,-2.03,1729472483766.0,0.0
-2.524428,-6.288338,6.936793,24.5,-2.38,-3.99,1729472483786.0,0.0
-3.287738,-5.517848,7.149754,34.860001,-1.05,-4.9,1729472483806.0,0.0
-3.462414,-5.565705,7.319644,45.920002,-2.03,-5.74,1729472483828.0,0.0
-2.995814,-4.95075,6.862615,57.82,-0.49,-4.83,1729472483846.0,0.0
-2.98385,-4.634897,7.503892,63.349998,4.06,-2.17,1729472483866.0,0.0
-3.261417,-4.496114,7.843673,48.93,4.2,-3.85,1729472483886.0,0.0
-2.955136,-5.134997,7.573284,28.0,7.14,-5.39,1729472483907.0,0.0
-3.019742,-4.821537,6.716653,10.71,11.41,-11.13,1729472483928.0,0.0
-2.904887,-3.589234,10.552348,-7.77,15.96,-16.940001,1729472483946.0,0.0
-4.421937,-4.713861,9.238688,-12.53,-4.06,-7.28,1729472483967.0,0.0
-1.715654,-4.776074,8.846266,-3.71,-6.65,-10.57,1729472483986.0,0.0
-2.117648,-4.319045,7.858029,12.18,-10.99,-3.22,1729472484005.0,0.0
-2.29711,-3.26381,6.707082,18.27,-7.28,3.71,1729472484028.0,0.0
-3.079563,-3.52702,5.871986,5.25,-3.29,3.36,1729472484046.0,0.0
-3.598805,-4.146761,5.76431,1.54,8.61,7.0,1729472484069.0,0.0
-3.416951,-4.015156,6.400801,-10.08,21.559999,4.9,1729472484085.0,0.0
-3.055635,-4.197011,7.855636,-36.540001,27.23,3.43,1729472484106.0,0.0
-3.029313,-4.371687,9.497113,-65.519997,23.030001,5.95,1729472484127.0,0.0
-3.120241,-5.271388,8.958728,-91.279999,8.19,6.93,1729472484145.0,0.0
-3.438486,-5.927022,8.595018,-78.400002,-13.72,13.58,1729472484166.0,0.0
-2.809174,-5.970093,8.863015,-69.230003,-20.299999,13.51,1729472484187.0,0.0
-2.273181,-5.690133,8.657232,-90.440002,-27.299999,8.33,1729472484208.0,0.0
-2.471786,-5.773881,7.168896,-128.589996,-37.029999,3.43,1729472484226.0,0.0
-3.050849,-7.51107,5.627919,-130.410004,-43.119999,1.68,1729472484246.0,0.0
-2.445465,-8.35813,5.723632,-91.980003,-34.02,-2.59,1729472484266.0,0.0
-2.352145,-7.314859,6.065805,-50.889999,-22.68,-5.95,1729472484285.0,0.0
-2.538785,-6.125626,6.673582,-25.9,-15.96,-5.67,1729472484306.0,0.0
-2.459821,-5.65424,6.642475,-26.6,-14.42,-5.25,1729472484327.0,0.0
-2.770889,-6.216553,6.396015,-29.4,-14.28,-2.66,1729472484345.0,0.0
-3.029313,-7.022934,6.446264,-11.34,-12.11,1.12,1729472484366.0,0.0
-3.007778,-7.288538,6.034698,18.620001,-6.65,1.4,1729472484386.0,0.0
-3.287738,-6.687939,6.453443,51.170002,3.5,2.38,1729472484406.0,0.0
-3.414558,-6.151947,6.766902,63.349998,9.31,2.24,1729472484428.0,0.0
-2.849852,-5.687739,6.577869,52.080002,14.42,-0.14,1729472484446.0,0.0
-2.414358,-5.515456,6.652047,45.849998,16.870001,3.36,1729472484465.0,0.0
-3.081956,-5.469993,6.594619,53.970001,17.360001,9.73,1729472484486.0,0.0
-3.381058,-7.262216,6.111269,46.060001,14.14,10.99,1729472484505.0,0.0
-2.715853,-8.815158,6.640083,38.080002,17.15,-0.28,1729472484528.0,0.0
-2.26361,-7.601997,7.240681,35.560001,20.16,-10.78,1729472484546.0,0.0
-2.529213,-6.644868,7.91785,29.540001,16.52,-15.54,1729472484566.0,0.0
-2.411965,-6.128019,8.094919,13.02,7.14,-19.460001,1729472484585.0,0.0
-2.445465,-5.235496,7.941778,6.23,0.56,-19.25,1729472484606.0,0.0
-2.388037,-5.312066,7.724032,-4.13,-6.23,-15.82,1729472484627.0,0.0
-1.89033,-5.625526,7.118648,-12.74,-10.36,-15.05,1729472484645.0,0.0
-1.325624,-5.264209,6.4343,-10.01,-8.19,-10.99,1729472484666.0,0.0
-1.619941,-4.407579,5.855237,5.74,-4.41,-3.15,1729472484687.0,0.0
-3.309274,-4.163511,7.250252,25.83,2.73,10.15,1729472484705.0,0.0
-4.395615,-4.476971,8.075776,-2.8,0.21,9.87,1729472484727.0,0.0
-4.335794,-4.821537,8.240881,-49.560001,-5.95,9.8,1729472484746.0,0.0
-3.706482,-6.386444,9.073583,-82.949997,-14.21,7.91,1729472484765.0,0.0
-2.57707,-7.245467,9.475577,-92.75,-26.530001,3.64,1729472484785.0,0.0
-1.988436,-7.520642,6.812366,-77.0,-35.700001,3.15,1729472484806.0,0.0
-2.433501,-8.54477,4.13719,-70.840004,-38.709999,-4.34,1729472484826.0,0.0
-2.785245,-7.970492,3.491128,-29.33,-12.39,-15.190001,1729472484845.0,0.0
-2.9671,-6.838687,4.677969,5.95,11.97,-17.360001,1729472484867.0,0.0
-2.979064,-5.843273,6.585048,10.85,22.120001,-17.360001,1729472484886.0,0.0
-3.0006,-4.883751,7.377072,-8.12,20.440001,-13.37,1729472484906.0,0.0
-3.098706,-5.118248,6.719046,-29.4,12.11,-6.51,1729472484926.0,0.0
-3.129812,-5.898308,5.737988,-31.15,7.07,-6.51,1729472484945.0,0.0
-3.457629,-6.738188,5.481956,-6.86,8.33,7.07,1729472484966.0,0.0
-3.148954,-7.008578,5.474778,13.79,15.75,8.33,1729472484986.0,0.0
-2.397608,-6.577869,6.252446,15.54,20.299999,8.96,1729472485005.0,0.0
-2.596212,-6.685547,6.71426,6.16,16.870001,10.99,1729472485025.0,0.0
-2.486143,-7.862815,6.374479,-4.13,6.3,9.17,1729472485045.0,0.0
-2.086541,-9.016156,6.07777,28.700001,1.19,7.35,1729472485068.0,0.0
-2.07697,-7.477571,7.164111,85.260002,9.17,8.05,1729472485084.0,0.0
-2.952743,-5.266603,7.716853,104.580002,12.11,6.93,1729472485105.0,0.0
-2.644069,-4.689932,8.317451,78.959999,8.68,5.53,1729472485127.0,0.0
-1.9669,-3.565305,7.616355,61.459999,8.47,6.79,1729472485144.0,0.0
-3.749553,-4.465007,6.465407,78.889999,11.2,28.139999,1729472485166.0,0.0
-3.739982,-8.032705,6.472585,45.080002,16.379999,14.49,1729472485185.0,0.0
-3.156133,-9.224331,7.166504,22.120001,24.08,-3.15,1729472485205.0,0.0
-3.656233,-8.032705,7.944171,27.299999,28.210001,-13.51,1729472485226.0,0.0
-3.517449,-6.898508,8.216952,5.25,20.16,-26.389999,1729472485245.0,0.0
-3.249453,-6.178268,8.432307,-20.790001,8.82,-31.5,1729472485265.0,0.0
-2.490928,-5.12782,7.65464,-26.110001,-2.38,-28.280001,1729472485285.0,0.0
-1.744368,-4.563113,6.568298,-13.93,-10.57,-18.9,1729472485305.0,0.0
-1.820938,-3.306881,5.938986,2.24,-11.27,-8.26,1729472485327.0,0.0
-2.813959,-3.079563,6.250053,12.53,-7.28,7.91,1729472485345.0,0.0
-3.806981,-4.031906,7.109076,-10.22,-2.87,14.07,1729472485365.0,0.0
-4.441079,-4.713861,7.221539,-53.619999,-2.45,15.05,1729472485385.0,0.0
-4.130012,-5.927022,7.709675,-87.080002,-3.43,15.4,1729472485406.0,0.0
-3.37388,-6.522834,8.970692,-110.18,-6.72,9.52,1729472485426.0,0.0
-3.086741,-6.573084,10.506885,-125.020004,-18.48,6.65,1729472485444.0,0.0
-2.952743,-7.106683,9.245867,-128.660004,-40.459999,4.27,1729472485465.0,0.0
-3.089134,-7.9346,6.357729,-118.720001,-51.240002,1.4,1729472485485.0,0.0
-2.98385,-8.324631,3.251846,-99.050003,-31.780001,-12.32,1729472485505.0,0.0
-2.567499,-8.11167,4.378866,-67.480003,-10.78,-17.57,1729472485534.0,0.0
-2.624927,-7.111469,6.163911,-41.09,1.82,-17.639999,1729472485545.0,0.0
-2.854637,-6.556334,6.716653,-44.52,-0.28,-17.08,1729472485566.0,0.0
-2.548356,-6.431907,5.587241,-53.060001,-10.29,-14.7,1729472485586.0,0.0
-2.921637,-6.874579,4.596612,-39.130001,-11.41,-7.56,1729472485605.0,0.0
-3.163311,-7.54457,4.350152,-6.93,-10.15,-1.89,1729472485626.0,0.0
-3.646662,-7.479963,4.09412,41.23,-1.75,6.16,1729472485646.0,0.0
-3.488736,-7.02772,4.744967,84.489998,6.93,13.37,1729472485665.0,0.0
-3.469593,-6.159126,5.111069,103.739998,14.56,16.799999,1729472485685.0,0.0
-3.641876,-5.223531,5.879165,97.440002,21.07,24.710001,1729472485706.0,0.0
-3.646662,-6.02752,6.479764,67.269997,20.93,26.040001,1729472485726.0,0.0
-2.725425,-8.176274,6.489335,37.869999,14.14,21.35,1729472485745.0,0.0
-2.366502,-8.154739,6.410372,73.360001,13.23,24.99,1729472485766.0,0.0
-2.392823,-8.458629,6.185446,120.540001,17.15,22.68,1729472485787.0,0.0
-1.885544,-8.310273,6.65444,90.090004,23.66,-0.28,1729472485808.0,0.0
-2.701497,-7.018148,7.013363,66.360001,27.299999,-9.38,1729472485827.0,0.0
-2.59382,-5.900701,7.597212,33.18,24.92,-18.83,1729472485846.0,0.0
-2.828316,-5.65424,8.020741,2.1,19.6,-20.58,1729472485867.0,0.0
-2.691926,-5.613562,7.822137,-22.540001,10.57,-19.879999,1729472485887.0,0.0
-2.419144,-5.716454,7.62114,-28.77,2.94,-16.309999,1729472485906.0,0.0
-2.177469,-5.273781,6.771688,-17.639999,-2.45,-10.71,1729472485926.0,0.0
-2.691926,-4.618148,6.489335,-2.73,-3.08,-2.59,1729472485946.0,0.0
-3.61077,-4.917251,7.156933,-10.71,-4.06,4.41,1729472485966.0,0.0
-3.519842,-4.759324,7.668997,-51.799999,-7.28,4.76,1729472485985.0,0.0
-3.976871,-5.276174,8.690732,-95.830002,-13.86,9.24,1729472486009.0,0.0
-3.871587,-7.147361,9.430114,-135.869995,-29.889999,4.83,1729472486029.0,0.0
-3.562913,-8.678767,7.65464,-160.300003,-46.060001,-5.32,1729472486046.0,0.0
-3.144169,-9.585647,4.409972,-146.440002,-47.740002,-14.42,1729472486073.0,0.0
-2.304288,-9.01137,3.180061,-99.959999,-31.360001,-25.34,1729472486086.0,0.0
-2.70389,-7.489535,4.541577,-33.810001,0.07,-27.02,1729472486107.0,0.0
-2.667997,-6.118448,5.716454,-35.139999,5.11,-24.780001,1729472486129.0,0.0
-3.120241,-6.202196,5.659025,-48.509998,-0.63,-17.639999,1729472486147.0,0.0
-3.634698,-6.630512,4.45065,-32.619999,-4.97,-8.33,1729472486170.0,0.0
-3.397808,-6.855437,4.479364,21.0,-1.19,1.89,1729472486188.0,0.0
-3.986443,-6.762117,4.867002,76.019997,9.24,12.39,1729472486208.0,0.0
-3.936193,-6.362515,4.850252,89.32,15.96,16.52,1729472486229.0,0.0
-3.651447,-5.958128,5.367101,80.290001,20.09,18.9,1729472486252.0,0.0
-4.412365,-6.752545,6.238089,73.290001,19.460001,23.799999,1729472486268.0,0.0
-4.15394,-7.551748,6.101698,66.010002,15.26,23.870001,1729472486287.0,0.0
-3.189633,-8.149954,5.187639,92.050003,14.42,23.73,1729472486307.0,0.0
-3.299703,-9.571291,5.190032,111.160004,24.99,17.92,1729472486328.0,0.0
-2.352145,-9.509077,5.553742,71.400002,29.190001,-5.74,1729472486348.0,0.0
-2.273181,-7.91785,6.680761,48.580002,35.700001,-14.91,1729472486367.0,0.0
-2.108077,-6.778866,7.623533,30.450001,30.1,-23.450001,1729472486386.0,0.0
-2.041078,-5.245068,7.881958,17.57,21.0,-23.59,1729472486407.0,0.0
-2.062613,-4.962714,7.556533,-2.45,5.74,-16.24,1729472486428.0,0.0
-1.495514,-5.182854,6.195018,-14.77,0.63,-9.87,1729472486449.0,0.0
-1.701297,-5.553742,6.226124,-20.65,3.15,-2.38,1729472486467.0,0.0
-2.713461,-5.749953,6.982256,-36.119999,3.85,1.68,1729472486487.0,0.0
-3.517449,-6.259624,7.834101,-69.370003,-2.8,2.45,1729472486506.0,0.0
-3.998406,-7.144968,9.705289,-91.0,-12.74,1.33,1729472486530.0,0.0
-4.015156,-7.692925,9.77468,-104.510002,-32.200001,-5.81,1729472486546.0,0.0
-3.244668,-8.087741,7.52782,-108.639999,-47.18,-10.64,1729472486567.0,0.0
-2.536392,-8.197811,4.486543,-117.040001,-48.299999,-17.360001,1729472486587.0,0.0
-2.646462,-8.958728,3.481557,-105.910004,-36.82,-22.4,1729472486607.0,0.0
-2.806781,-9.47797,4.144369,-75.040001,-17.92,-27.09,1729472486628.0,0.0
-2.706282,-8.525627,4.84068,-40.670002,-4.83,-28.559999,1729472486646.0,0.0
-2.854637,-7.702496,4.898108,-25.549999,-1.54,-29.82,1729472486668.0,0.0
-2.761317,-7.829315,4.086941,-16.17,-5.46,-28.84,1729472486687.0,0.0
-2.388037,-7.76471,3.656233,24.219999,-3.29,-22.960001,1729472486706.0,0.0
-2.801995,-6.664011,4.429115,97.090004,8.54,-10.22,1729472486728.0,0.0
-3.503092,-4.582255,6.443871,147.350006,17.99,1.26,1729472486746.0,0.0
-3.596412,-2.196611,6.26441,151.130005,20.02,25.9,1729472486766.0,0.0
-3.878766,-3.728018,5.513064,122.43,19.040001,39.900002,1729472486787.0,0.0
-4.711468,-6.999006,4.785645,80.080002,20.93,37.52,1729472486808.0,0.0
-4.677969,-9.975677,5.113462,45.360001,32.41,28.630001,1729472486827.0,0.0
-3.596412,-10.643275,5.501099,16.66,38.360001,6.72,1729472486846.0,0.0
-2.756532,-9.846465,6.9009,13.79,39.060001,-6.72,1729472486868.0,0.0
-2.445465,-7.915457,8.042276,18.76,32.549999,-16.73,1729472486886.0,0.0
-2.194218,-6.692725,8.106883,19.6,17.57,-18.27,1729472486907.0,0.0
-2.132005,-5.754738,7.726424,12.53,4.27,-17.15,1729472486927.0,0.0
-1.861616,-5.343173,6.903293,2.17,-7.42,-14.98,1729472486946.0,0.0
-1.404587,-5.613562,6.616155,9.52,-11.48,-9.66,1729472486967.0,0.0
-1.536192,-5.663811,6.331409,23.17,-11.48,-3.08,1729472486986.0,0.0
-1.868794,-5.584848,6.269196,30.59,-9.03,0.77,1729472487008.0,0.0
-2.452643,-5.678168,7.305287,32.759998,-4.55,1.96,1729472487027.0,0.0
-3.091527,-5.685347,8.116454,19.67,-4.97,1.96,1729472487046.0,0.0
-3.416951,-5.895915,8.073383,0.98,-12.32,-3.08,1729472487069.0,0.0
-5.146961,-5.953342,9.590433,13.23,-17.710001,1.61,1729472487087.0,0.0
-5.647062,-5.850451,9.116654,49.279999,-29.4,2.8,1729472487108.0,0.0
-4.158726,-6.252446,5.60399,61.950001,-25.41,-1.4,1729472487129.0,0.0
-3.364309,-8.580662,4.661219,57.400002,-1.96,-16.379999,1729472487147.0,0.0
-2.337788,-7.188039,5.958128,52.080002,22.049999,-40.880001,1729472487167.0,0.0
-2.737389,-4.776074,7.733603,88.830002,36.259998,-36.119999,1729472487187.0,0.0
-2.773281,-4.926822,8.456236,95.410004,27.58,-35.77,1729472487207.0,0.0
-2.545963,-4.54397,8.130811,87.989998,20.58,-36.119999,1729472487228.0,0.0
-2.591427,-2.945565,7.515855,76.370003,17.15,-27.719999,1729472487246.0,0.0
-2.892922,-2.76371,6.960721,54.32,11.2,-20.09,1729472487267.0,0.0
-3.488736,-2.586641,7.673782,41.93,10.43,-9.31,1729472487286.0,0.0
-3.208775,-2.806781,7.752745,23.870001,8.05,-0.63,1729472487306.0,0.0
-2.481357,-3.168097,7.140182,-5.88,4.62,5.53,1729472487327.0,0.0
-2.378466,-2.907279,6.845865,-28.210001,6.44,13.65,1729472487346.0,0.0
-2.833102,-2.39043,7.135397,-40.740002,10.43,22.120001,1729472487366.0,0.0
-3.062813,-3.215954,7.865208,-51.240002,13.86,28.77,1729472487388.0,0.0
-3.029313,-4.965107,8.470592,-75.739998,10.78,28.139999,1729472487406.0,0.0
-2.612962,-5.826523,9.427721,-101.43,6.37,26.18,1729472487426.0,0.0
-2.600998,-5.350351,10.29153,-148.470001,-7.28,20.65,1729472487449.0,0.0
-3.168097,-5.302495,10.619347,-200.059998,-28.139999,18.48,1729472487467.0,0.0
-3.795017,-6.750153,8.729016,-260.890015,-50.259998,7.91,1729472487486.0,0.0
-3.5007,-8.901299,5.304887,-285.950012,-66.57,-10.15,1729472487507.0,0.0
-3.005385,-10.19821,1.725225,-242.619995,-56.279999,-17.92,1729472487527.0,0.0
-2.385644,-9.999605,1.998007,-177.309998,-21.559999,-23.870001,1729472487546.0,0.0
-2.438286,-8.831908,3.457629,-141.119995,-2.8,-29.540001,1729472487575.0,0.0
-2.691926,-8.063812,4.496114,-118.720001,4.48,-26.389999,1729472487586.0,0.0
-2.435893,-7.702496,4.642076,-90.510002,-0.84,-19.74,1729472487609.0,0.0
-2.502892,-8.422735,4.012764,-45.43,-9.24,-12.74,1729472487628.0,0.0
-3.117848,-8.685946,4.187439,14.63,-8.96,-3.36,1729472487647.0,0.0
-3.634698,-9.08794,3.60359,69.790001,-6.58,3.15,1729472487668.0,0.0
-2.962314,-9.181261,3.799802,109.059998,-5.18,3.08,1729472487687.0,0.0
-3.333202,-7.271788,5.156533,146.089996,1.68,4.76,1729472487707.0,0.0
-2.26361,-5.000999,4.85743,194.740005,3.64,19.040001,1729472487728.0,0.0
-2.845066,-4.106083,4.706682,230.020004,11.41,31.780001,1729472487747.0,0.0
-3.905087,-6.996613,5.242674,214.970001,20.440001,31.710001,1729472487812.0,0.0
-3.163311,-11.337193,5.206782,147.839996,19.530001,1.96,1729472487813.0,0.0
-3.378666,-10.370493,7.341179,114.379997,37.099998,-14.77,1729472487813.0,0.0
-2.974278,-7.429714,8.245667,92.120003,31.85,-30.66,1729472487834.0,0.0
-1.40698,-4.773681,8.422735,81.199997,19.74,-29.82,1729472487850.0,0.0
-1.316052,-3.632305,7.513463,88.760002,8.68,-22.889999,1729472487869.0,0.0
-2.17029,-3.146562,6.989435,94.5,3.99,-13.16,1729472487888.0,0.0
-2.883351,-2.548356,7.752745,81.410004,8.33,-5.6,1729472487908.0,0.0
-3.969693,-3.014957,8.597411,37.66,4.76,0.21,1729472487929.0,0.0
-4.709075,-4.192225,9.523434,-13.16,-4.69,1.75,1729472487948.0,0.0
-4.919643,-4.524827,9.712467,-55.369999,-10.92,1.19,1729472487969.0,0.0
-4.855037,-5.245068,8.379664,-107.449997,-21.77,-5.67,1729472487990.0,0.0
-3.862016,-6.364908,6.65444,-146.369995,-26.74,-14.49,1729472488008.0,0.0
-2.550749,-8.865408,5.072784,-130.339996,-25.059999,-28.84,1729472488030.0,0.0
-2.184647,-9.346365,6.250053,-71.260002,-11.83,-32.689999,1729472488051.0,0.0
-1.418944,-7.927422,6.333801,-4.55,4.2,-36.889999,1729472488072.0,0.0
-0.531207,-7.197611,6.032306,55.299999,18.76,-32.27,1729472488089.0,0.0
0.488136,-6.922436,5.460421,97.510002,28.280001,-35.98,1729472488110.0,0.0
0.622134,-7.046863,5.838487,142.520004,32.48,-31.43,1729472488130.0,0.0
0.512064,-4.465007,7.793423,197.960007,46.619999,-31.15,1729472488149.0,0.0
-0.18664,-1.040878,8.628519,199.080002,51.52,-28.559999,1729472488169.0,0.0
0.031107,0.035892,8.317451,126.0,33.25,-21.210001,1729472488189.0,0.0
-0.150748,-1.136591,8.348558,51.799999,25.27,-14.21,1729472488209.0,0.0
-1.962115,-1.141376,7.953743,16.799999,25.969999,-0.63,1729472488231.0,0.0
-5.075177,-3.132205,13.813765,6.23,22.82,9.1,1729472488249.0,0.0
-5.656632,-4.965107,15.24228,-44.450001,-16.379999,0.84,1729472488270.0,0.0
-5.017749,-5.589634,12.708281,-88.340004,-57.470001,3.01,1729472488295.0,0.0
-3.381058,-5.166104,5.56092,-98.279999,-70.139999,7.0,1729472488309.0,0.0
-1.89033,-6.417551,3.692125,-81.059998,-57.75,-1.82,1729472488331.0,0.0
-3.531806,-6.18784,6.833901,-50.540001,2.73,-18.48,1729472488351.0,0.0
-4.292724,-5.058427,7.903493,-69.370003,17.57,-25.76,1729472488371.0,0.0
-4.17069,-4.591826,7.922636,-123.830002,16.870001,-32.200001,1729472488389.0,0.0
-3.177669,-4.457829,7.628319,-175.559998,8.82,-34.369999,1729472488409.0,0.0
-2.478964,-5.458029,8.480164,-175.839996,5.39,-31.710001,1729472488429.0,0.0
-2.364109,-5.173282,10.040283,-180.880005,8.61,-25.34,1729472488459.0,0.0
-1.20359,-3.330809,8.133204,-206.220001,-16.73,-12.88,1729472488496.0,0.0
0.37328,-3.584448,5.130211,-235.130005,-17.780001,0.35,1729472488497.0,0.0
-0.849452,-6.788438,-0.047856,-264.110016,-8.26,17.92,1729472488674.0,0.0
-2.845066,-12.083755,-3.07717,-251.580002,-9.59,8.68,1729472488675.0,0.0
-3.87398,-13.375877,-6.518049,-154.070007,7.0,13.23,1729472488677.0,0.0
-4.266403,-13.947763,-6.625726,27.370001,44.59,20.719999,1729472488679.0,0.0
-3.285345,-11.935399,-3.912265,187.389999,51.799999,16.309999,1729472488680.0,0.0
-1.990828,-8.135597,-0.028714,323.679993,66.57,31.290001,1729472488681.0,0.0
-1.940579,-4.898108,7.015756,420.420013,67.129997,24.780001,1729472488682.0,0.0
-2.790031,0.935594,13.569696,435.119995,62.09,-1.61,1729472488684.0,0.0
-5.816952,-0.646062,14.423935,400.679993,17.5,64.959999,1729472488685.0,0.0
-0.344566,-4.029513,9.568897,173.320007,-54.529999,41.860001,1729472488688.0,0.0
0.452243,-3.335595,8.855836,44.450001,-26.040001,36.68,1729472488708.0,0.0
-2.648855,-3.378666,9.119047,-27.23,-6.86,18.129999,1729472488729.0,0.0
-2.426322,-5.072784,9.336794,-41.790001,-3.01,12.32,1729472488747.0,0.0
-2.249253,-3.223132,10.997414,-38.43,12.88,0.56,1729472488768.0,0.0
-3.07717,-4.704289,11.710474,-53.549999,-1.54,5.25,1729472488787.0,0.0
-3.220739,-5.06082,10.334601,-71.959999,-22.120001,-1.19,1729472488808.0,0.0
-2.85703,-5.496314,8.85105,-109.059998,-26.809999,-10.15,1729472488830.0,0.0
-3.728018,-4.651647,6.089733,-140.139999,-19.040001,-13.72,1729472488848.0,0.0
-6.209375,-6.953543,8.341379,-143.5,-5.04,-17.219999,1729472488868.0,0.0
-5.833702,-6.927221,8.700303,-167.160004,-18.690001,-27.440001,1729472488888.0,0.0
-3.716053,-6.293124,9.274581,-197.470001,-18.83,-35.420002,1729472488908.0,0.0
-1.428515,-4.311867,8.157133,-241.290009,-30.309999,-41.09,1729472488928.0,0.0
0.191426,-2.440679,6.001199,-256.269989,-46.060001,-21.280001,1729472488948.0,0.0
-0.794417,-2.845066,3.0006,-260.75,-33.810001,11.62,1729472488968.0,0.0
-3.378666,-4.225725,-1.337588,-317.730011,-7.49,13.16,1729472488988.0,0.0
-3.783052,-8.312666,-7.070791,-318.429993,24.99,12.88,1729472489009.0,0.0
-3.629912,-12.535997,-9.52822,-240.589996,40.670002,16.24,1729472489029.0,0.0
-3.5007,-15.75913,-9.97807,-90.440002,52.990002,16.1,1729472489049.0,0.0
-2.45025,-16.857435,-6.991827,109.830002,47.670002,31.01,1729472489072.0,0.0
-0.349352,-11.586047,-2.06022,317.589996,16.66,36.540001,1729472489088.0,0.0
1.12702,-6.396015,0.299103,518.77002,34.720001,33.950001,1729472489108.0,0.0
-0.624527,-0.485743,5.474778,558.320007,76.650002,2.87,1729472489130.0,0.0
-4.388437,5.295317,16.242479,509.320007,66.989998,21.280001,1729472489148.0,0.0
-7.166504,2.411965,16.874186,323.75,-6.58,72.940002,1729472489169.0,0.0
-4.893322,-5.067998,11.882757,109.830002,-94.220001,49.0,1729472489189.0,0.0
0.18664,-9.796216,6.101698,35.490002,-107.730003,39.619999,1729472489209.0,0.0
-0.320638,-8.829515,6.766902,63.0,-34.93,32.41,1729472489235.0,0.0
-3.168097,-2.505285,10.157533,55.09,12.74,-10.22,1729472489249.0,0.0
-3.570091,-2.012364,11.140982,-24.85,3.08,-8.12,1729472489269.0,0.0
-2.811567,-3.768696,10.990234,-67.480003,-12.81,-9.8,1729472489288.0,0.0
-2.699104,-5.051248,11.093125,-47.950001,-15.96,-4.2,1729472489309.0,0.0
-2.600998,-4.934,8.300702,-39.689999,-23.450001,-8.75,1729472489330.0,0.0
-3.165704,-2.818745,5.69731,-104.370003,-6.16,-10.57,1729472489349.0,0.0
-6.013163,-5.599205,9.001799,-142.589996,16.52,-16.309999,1729472489370.0,0.0
-6.532406,-6.592227,9.600004,-205.940002,0.77,-27.370001,1729472489388.0,0.0
-4.242475,-6.585048,9.836893,-264.73999,-31.43,-36.049999,1729472489408.0,0.0
-0.588634,-6.23091,6.558727,-287.630005,-38.849998,-32.619999,1729472489429.0,0.0
1.995614,-5.003392,1.158126,-271.809998,-33.529999,-14.28,1729472489448.0,0.0
0.904487,-6.884151,-1.875973,-241.080002,-25.549999,11.55,1729472489472.0,0.0
-2.569891,-6.991827,-2.488536,-227.290009,11.27,14.63,1729472489489.0,0.0
-4.680361,-8.683553,-5.498707,-160.580002,52.990002,14.63,1729472489508.0,0.0
-5.548956,-11.045268,-6.34098,-91.980003,70.699997,8.54,1729472489530.0,0.0
-5.067998,-13.426127,-4.699504,1.47,41.369999,7.77,1729472489548.0,0.0
-2.376073,-13.079168,-2.423929,142.169998,22.120001,24.92,1729472489569.0,0.0
-0.01675,-9.367901,1.76351,285.459991,24.92,30.1,1729472489588.0,0.0
0.856631,-6.005985,5.029713,399.910004,38.009998,15.75,1729472489615.0,0.0
-0.557528,-2.67039,9.901501,395.570007,59.080002,-0.56,1729472489633.0,0.0
-4.09412,-1.85683,14.05544,300.860016,27.16,21.629999,1729472489648.0,0.0
-3.783052,-5.257031,11.88515,123.690002,-73.639999,36.959999,1729472489670.0,0.0
-1.76351,-8.346166,9.016156,112.770004,-90.230003,36.330002,1729472489689.0,0.0
-1.57687,-9.049655,7.802995,110.949997,-61.110001,20.23,1729472489709.0,0.0
-2.471786,-5.441278,8.279166,96.040001,-27.16,-3.64,1729472489733.0,0.0
-3.364309,-4.242475,8.831908,47.599998,-16.24,-11.34,1729472489748.0,0.0
-3.211168,-3.735196,8.882158,-10.57,-14.77,-19.32,1729472489768.0,0.0
-3.366701,-3.773481,9.336794,-59.43,-7.35,-24.15,1729472489790.0,0.0
-3.9673,-3.160919,7.013363,-92.75,-4.27,-24.08,1729472489809.0,0.0
-5.625526,-4.962714,7.920243,-108.220001,8.33,-13.02,1729472489830.0,0.0
-5.168497,-6.431907,7.769495,-153.930008,11.06,-22.469999,1729472489852.0,0.0
-3.388237,-7.453642,8.338986,-206.430008,-1.33,-35.84,1729472489869.0,0.0
-1.512264,-6.829116,7.89153,-230.790009,-10.57,-34.23,1729472489889.0,0.0
0.378066,-5.905487,6.199803,-210.419998,-18.549999,-22.120001,1729472489909.0,0.0
1.069592,-4.811966,3.905087,-163.309998,-11.9,-2.59,1729472489930.0,0.0
-2.129612,-6.020342,1.234696,-146.509995,7.49,21.0,1729472489949.0,0.0
-3.211168,-6.053841,-1.117448,-208.039993,25.76,17.85,1729472489970.0,0.0
-3.85723,-8.867801,-2.45025,-214.550003,37.939999,21.629999,1729472489990.0,0.0
-4.345366,-11.511869,-5.673382,-182.490005,47.880001,9.1,1729472490010.0,0.0
-4.953143,-14.462219,-5.13739,-67.690002,46.200001,3.64,1729472490030.0,0.0
-2.651247,-13.794623,-3.596412,98.840004,12.32,19.18,1729472490051.0,0.0
-0.064606,-10.561919,-0.196211,265.579987,11.13,31.99,1729472490073.0,0.0
0.634098,-7.008578,3.23031,371.070007,40.670002,17.85,1729472490091.0,0.0
-0.189033,-4.019942,8.82473,400.610016,46.27,-5.39,1729472490111.0,0.0
-2.59382,-0.303888,13.899906,364.140015,42.209999,11.9,1729472490131.0,0.0
-4.969893,-0.748954,13.916656,276.429993,-12.39,46.830002,1729472490151.0,0.0
-4.453043,-5.692525,11.160125,176.960007,-71.610001,50.330002,1729472490171.0,0.0
-1.691726,-7.946564,8.422735,128.100006,-66.639999,30.940001,1729472490190.0,0.0
-2.146362,-4.76411,8.157133,98.559998,-24.639999,19.6,1729472490210.0,0.0
-3.117848,-3.768696,9.150154,36.049999,-8.82,0.42,1729472490232.0,0.0
-3.771089,-5.022535,8.980263,-35.349998,-7.28,-10.22,1729472490251.0,0.0
-3.134598,-4.914857,9.183653,-80.5,2.8,-20.23,1729472490271.0,0.0
-3.273381,-4.589434,8.650054,-110.18,7.7,-20.51,1729472490292.0,0.0
-4.165904,-4.646862,8.736196,-159.740005,4.83,-22.610001,1729472490311.0,0.0
-5.386244,-5.886343,9.712467,-212.869995,0.98,-22.540001,1729472490337.0,0.0
-4.259224,-6.336195,10.200603,-242.619995,-23.52,-23.66,1729472490350.0,0.0
-1.507478,-4.740182,8.274381,-266.700012,-32.060001,-18.620001,1729472490371.0,0.0
0.940379,-2.916851,3.309274,-272.440002,-35.0,-3.85,1729472490393.0,0.0
-0.222532,-5.584848,-0.710668,-282.170013,-34.509998,19.74,1729472490410.0,0.0
-2.95035,-8.245667,-3.328416,-291.480011,-8.19,-4.2,1729472490431.0,0.0
-5.345565,-11.399406,-5.424529,-228.970001,31.15,4.62,1729472490451.0,0.0
-5.020142,-14.153545,-8.202596,-90.019997,31.290001,5.74,1729472490471.0,0.0
-2.904887,-15.13221,-6.185446,85.330002,-4.34,-11.48,1729472490490.0,0.0
-0.256032,-10.207782,-3.290131,263.200012,5.81,16.66,1729472490511.0,0.0
-0.210568,-5.257031,0.820738,420.839996,67.129997,32.48,1729472490532.0,0.0
-1.363909,-2.502892,8.114061,491.330017,70.980003,20.93,1729472490550.0,0.0
-1.954936,0.524028,12.744174,431.830017,40.459999,2.87,1729472490573.0,0.0
-4.802395,0.497707,15.311671,194.25,26.530001,41.369999,1729472490592.0,0.0
-4.278367,-4.883751,11.260624,5.67,-69.510002,31.5,1729472490611.0,0.0
-2.086541,-9.178867,7.429714,-52.220001,-93.239998,29.75,1729472490631.0,0.0
-1.777867,-9.437292,6.204589,-33.32,-55.790001,21.42,1729472490651.0,0.0
-3.26381,-7.350751,6.223732,13.37,-20.93,-8.19,1729472490671.0,0.0
-3.76391,-6.180661,5.850451,97.440002,-9.66,-4.13,1729472490692.0,0.0
-3.347559,-4.242475,7.049256,165.690002,11.27,7.28,1729472490713.0,0.0
-3.342773,-1.359123,8.276773,147.839996,14.7,0.7,1729472490731.0,0.0
-3.479164,-2.907279,8.037491,87.290001,1.12,11.76,1729472490752.0,0.0
-3.120241,-5.398208,7.795816,52.290001,-5.67,14.28,1729472490770.0,0.0
-2.337788,-4.328616,7.616355,52.360001,5.6,8.75,1729472490791.0,0.0
-2.160719,-3.125026,7.975278,19.530001,13.58,-0.91,1729472490811.0,0.0
-2.806781,-4.225725,8.827123,-26.6,6.86,-1.61,1729472490833.0,0.0
-2.993421,-5.091926,9.722038,-32.27,6.37,-5.04,1729472490850.0,0.0
-2.787638,-4.235296,10.547562,-36.470001,9.17,-13.37,1729472490873.0,0.0
-2.629712,-3.811767,9.836893,-78.82,2.8,-14.77,1729472490892.0,0.0
-3.208775,-5.209175,9.583255,-151.830002,-0.91,-23.66,1729472490912.0,0.0
-4.04387,-5.91745,9.722038,-244.580002,0.35,-42.560001,1729472490932.0,0.0
-3.15374,-4.737789,10.973484,-270.829987,-4.55,-41.439999,1729472490951.0,0.0
-2.239682,-4.39083,10.537991,-266.630005,-25.969999,-34.369999,1729472490971.0,0.0
-0.471386,-4.053442,6.927221,-255.290009,-45.709999,-22.049999,1729472490990.0,0.0
-0.007178,-3.665804,1.928615,-265.720001,-37.66,5.18,1729472491010.0,0.0
-1.292124,-4.546363,-2.433501,-280.209991,-18.76,12.11,1729472491033.0,0.0
-3.735196,-6.719046,-3.754339,-271.600006,36.119999,4.97,1729472491053.0,0.0
-5.352744,-9.186047,-3.35713,-241.220001,61.18,5.04,1729472491075.0,0.0
-3.9338,-11.882757,-2.505285,-162.259995,39.970001,22.610001,1729472491090.0,0.0
-2.974278,-15.77588,-4.223332,-78.260002,21.91,11.55,1729472491110.0,0.0
-3.282953,-16.979469,-5.230711,51.029999,34.509998,-10.36,1729472491131.0,0.0
-2.045863,-12.119646,-3.515057,225.75,4.27,-9.66,1729472491149.0,0.0
-0.284746,-6.209375,-0.574277,399.420013,26.389999,9.73,1729472491171.0,0.0
-0.574277,-2.031506,3.15374,484.610016,60.619999,18.76,1729472491193.0,0.0
-1.067199,0.349352,9.12144,459.619995,47.25,4.9,1729472491524.0,0.0
-2.021935,1.744368,14.117653,329.209991,32.759998,-1.68,1729472491525.0,0.0
-5.510671,-4.771288,13.957335,184.589996,-6.86,22.610001,1729472491525.0,0.0
-2.54357,-7.805387,10.9352,98.489998,-68.25,32.130001,1729472491525.0,0.0
-1.435694,-6.300302,9.391829,49.77,-37.939999,15.33,1729472491525.0,0.0
-2.069792,-5.017749,10.121639,-43.68,-25.27,-7.84,1729472491526.0,0.0
-2.962314,-4.45065,10.24846,-165.270004,-10.57,-28.630001,1729472491526.0,0.0
-6.022735,-4.584648,10.8682,-266.420013,-16.870001,-35.139999,1729472491526.0,0.0
-6.54437,-4.206582,11.447264,-262.640015,-43.82,-30.52,1729472491526.0,0.0
-4.326223,-5.735595,9.619147,-238.419998,-39.41,-3.15,1729472491526.0,0.0
0.27996,-5.316852,2.086541,-275.450012,-50.959999,-21.42,1729472491526.0,0.0
2.845066,-5.702096,-1.787439,-257.809998,-64.540001,8.89,1729472491527.0,0.0
-0.043071,-4.194618,-2.28036,-249.619995,-13.02,22.33,1729472491527.0,0.0
-4.180261,-5.783452,-4.130012,-226.589996,70.07,10.78,1729472491528.0,0.0
-5.63749,-9.212367,-3.641876,-196.910004,70.349998,24.92,1729472491528.0,0.0
-3.488736,-13.998013,-3.316452,-142.380005,23.030001,38.639999,1729472491528.0,0.0
-2.782853,-18.623339,-6.376873,-32.34,22.540001,18.34,1729472491531.0,0.0
-2.928815,-15.91227,-6.838687,162.539993,34.23,-2.31,1729472491551.0,0.0
-0.48335,-3.586841,-2.019542,401.869995,22.120001,16.59,1729472491570.0,0.0
-1.141376,1.215554,4.208975,605.289978,82.529999,27.790001,1729472491589.0,0.0
-2.730211,4.383651,13.52902,549.150024,78.889999,18.27,1729472491610.0,0.0
-5.826523,3.818945,19.24308,308.279999,46.759998,32.200001,1729472491713.0,0.0
-6.80758,-2.56032,15.275781,21.07,-35.560001,35.420002,1729472491713.0,0.0
-2.282753,-8.724231,9.863215,-39.970001,-115.709999,46.48,1729472491713.0,0.0
0.086142,-10.796415,8.863015,27.370001,-77.699997,49.630001,1729472491714.0,0.0
-1.663012,-6.537192,7.271788,43.610001,-51.66,17.15,1729472491714.0,0.0
-2.423929,-4.388437,7.963314,21.629999,-34.860001,-8.12,1729472491731.0,0.0
-2.249253,-5.103891,8.927622,8.4,-32.200001,-2.52,1729472491750.0,0.0
-2.775674,-4.833502,7.965706,15.26,-23.66,-8.68,1729472491771.0,0.0
-3.713661,-3.84048,7.269395,46.41,-7.63,-6.51,1729472491808.0,0.0
-3.988836,-4.098906,8.736196,47.459999,5.88,-8.96,1729472491814.0,0.0
-4.522435,-4.953143,11.32523,-3.99,12.04,-21.91,1729472491833.0,0.0
-5.855237,-6.283553,10.956735,-84.910004,9.24,-33.040001,1729472491851.0,0.0
-4.804788,-4.898108,11.583653,-187.25,5.32,-44.029999,1729472491871.0,0.0
-0.863809,-1.138984,10.176675,-310.309998,-37.799999,-50.889999,1729472491892.0,0.0
1.787439,-2.553142,3.76391,-322.140015,-63.209999,-18.690001,1729472491911.0,0.0
2.409572,-5.785845,-1.945365,-283.920013,-38.220001,-0.77,1729472491944.0,0.0
-0.866202,-7.879565,-0.411566,-215.880005,4.55,12.88,1729472491964.0,0.0
-4.692325,-6.51087,-1.258625,-163.100006,61.18,30.66,1729472491973.0,0.0
-5.833702,-6.618547,-0.662812,-120.959999,78.540001,29.049999,1729472491993.0,0.0
-4.802395,-9.171689,0.713061,-125.510002,37.029999,22.75,1729472492013.0,0.0
-2.294717,-16.520048,-2.301895,-123.410004,7.0,14.35,1729472492451.0,0.0
-0.969093,-14.024333,-1.648655,-34.439999,-7.56,1.96,1729472492451.0,0.0
0.177069,-8.80798,-1.931008,120.75,-11.76,1.33,1729472492451.0,0.0
-1.919044,-5.905487,3.804588,304.360016,15.96,13.37,1729472492451.0,0.0
-1.617548,-2.672783,7.635497,441.48999,48.650002,15.61,1729472492452.0,0.0
-2.658426,3.78066,10.413565,540.679993,18.200001,6.09,1729472492452.0,0.0
-6.178268,3.627519,17.297714,559.789978,43.889999,12.39,1729472492452.0,0.0
-4.122833,-3.639483,11.966506,436.450012,59.5,46.830002,1729472492452.0,0.0
-2.392823,-9.059227,7.578069,-50.049999,-60.48,11.76,1729472492452.0,0.0
-0.564706,-7.76471,7.379465,-126.279999,-76.93,3.29,1729472492452.0,0.0
-1.880759,-3.400201,8.760124,-58.450001,-38.43,-18.549999,1729472492525.0,0.0
-2.691926,-0.87338,8.772088,34.650002,1.82,-26.460001,1729472492526.0,0.0
-2.579463,-3.148954,8.724231,10.99,9.38,-16.59,1729472492527.0,0.0
-4.161119,-5.788238,9.025726,-101.849998,6.37,-12.67,1729472492528.0,0.0
-8.267202,-7.642675,12.019149,-245.070007,9.66,-27.58,1729472492529.0,0.0
-5.785845,-3.361916,12.370893,-341.950012,-6.93,-45.5,1729472492535.0,0.0
-2.641676,-2.986243,8.274381,-348.459991,-47.950001,-38.009998,1729472492536.0,0.0
0.564706,-3.515057,0.985843,-283.709991,-42.630001,-5.95,1729472492537.0,0.0
1.459622,-6.726225,-2.684747,-285.459991,-63.560001,-20.65,1729472492538.0,0.0
-0.715454,-6.855437,-1.89033,-263.410004,-74.199997,0.21,1729472492539.0,0.0
-3.498307,-6.699903,-0.588634,-238.0,-22.889999,10.01,1729472492540.0,0.0
-4.895715,-6.757331,0.756132,-177.800003,26.950001,15.82,1729472492541.0,0.0
-3.646662,-8.324631,1.677369,-151.479996,24.780001,28.07,1729472492542.0,0.0
-3.354738,-9.619147,2.792424,-150.850006,-10.57,36.470001,1729472492543.0,0.0
-3.455236,-9.274581,3.168097,-144.130005,-41.369999,44.66,1729472492544.0,0.0
-4.285545,-8.9348,0.019143,-138.600006,-68.040001,46.27,1729472492552.0,0.0
-4.139583,-9.207582,-2.550749,-176.75,-58.59,43.68,1729472492573.0,0.0
-3.058028,-7.951349,-3.952943,-361.480011,-78.330002,-1.61,1729472492600.0,0.0
-1.804188,-10.449455,-8.001599,-373.309998,-86.449997,-13.37,1729472492613.0,0.0
-0.930808,-9.853643,-7.331609,-341.179993,-39.060001,-37.66,1729472492749.0,0.0
-1.277767,-10.700702,-10.255639,-330.26001,-23.309999,-59.849998,1729472492749.0,0.0
-0.411566,-10.188639,-9.848858,-251.089996,26.67,-52.360001,1729472492749.0,0.0
-0.265603,-9.176475,-6.872187,-123.690002,17.08,-39.619999,1729472492749.0,0.0
-1.067199,-8.685946,-10.523634,-63.07,48.369999,-31.5,1729472492750.0,0.0
-1.823331,-5.455636,-8.025528,-44.450001,57.400002,-18.41,1729472492797.0,0.0
-1.526621,-6.652047,-7.487142,-77.769997,58.799999,-15.4,1729472492800.0,0.0
-3.586841,-6.786045,2.706282,-91.769997,54.25,-8.19,1729472492801.0,0.0
-5.821737,-10.013963,-3.584448,-109.970001,10.22,-30.870001,1729472492835.0,0.0
-2.201397,-9.12144,-7.312466,-142.800003,-31.780001,-58.52,1729472492836.0,0.0
0.598206,-8.504091,-10.143176,-121.029999,-42.279999,-53.619999,1729472492854.0,0.0
-0.801596,-8.413164,-10.693524,-29.33,-16.52,-42.139999,1729472492874.0,0.0
-0.617348,-6.400801,-9.327222,64.889999,-5.11,-36.189999,1729472492896.0,0.0
0.634098,-3.596412,-7.860423,75.809998,-3.57,-21.91,1729472492937.0,0.0
0.392423,-3.591627,-5.678168,8.68,5.04,-12.25,1729472492969.0,0.0
-0.957129,-5.587241,-5.041678,-45.220001,-1.26,-7.21,1729472492972.0,0.0
-1.194018,-6.606583,-7.331609,-29.33,-10.22,-4.55,1729472492975.0,0.0
-1.646262,-5.020142,-8.16431,16.799999,-8.26,6.51,1729472492995.0,0.0
-1.648655,-4.788038,-8.085347,12.67,-3.08,10.85,1729472493014.0,0.0
-1.744368,-5.69731,-8.10449,-1.89,-0.98,15.96,1729472493040.0,0.0
-1.612763,-5.000999,-8.618947,12.6,-1.12,19.110001,1729472493054.0,0.0
-1.459622,-5.659025,-9.762716,8.4,0.7,21.139999,1729472493078.0,0.0
-2.098505,-6.252446,-9.131011,9.52,12.18,21.700001,1729472493095.0,0.0
-2.536392,-7.458428,-7.881958,19.530001,15.47,16.030001,1729472493114.0,0.0
-1.323231,-7.130611,-7.216753,24.710001,8.05,5.6,1729472493136.0,0.0
-1.249053,-6.762117,-7.056434,21.91,3.57,-0.35,1729472493154.0,0.0
-1.718047,-6.642475,-8.044669,1.19,2.17,-9.24,1729472493175.0,0.0
-1.481157,-6.884151,-8.484949,-0.35,1.12,-6.58,1729472493194.0,0.0
-0.930808,-6.345766,-7.810174,19.18,5.39,-2.03,1729472493215.0,0.0
-1.026521,-6.381658,-6.963113,28.210001,8.47,1.33,1729472493236.0,0.0
-1.083949,-6.431907,-6.932007,12.39,5.95,-0.07,1729472493254.0,0.0
-1.131805,-7.070791,-6.733403,-1.75,0.77,-3.15,1729472493275.0,0.0
-1.78026,-7.719246,-7.099504,-4.76,-0.7,-9.17,1729472493294.0,0.0
-1.095913,-6.786045,-7.886744,1.61,-6.58,-11.83,1729472493316.0,0.0
-1.012164,-5.505885,-7.630712,7.84,-3.01,-9.24,1729472493336.0,0.0
-3.069991,-5.099105,-6.726225,-16.52,3.71,-6.09,1729472493355.0,0.0
-3.658626,-6.809973,-7.113862,-42.91,-2.66,-9.73,1729472493376.0,0.0
-1.782653,-6.896115,-8.080563,-27.65,-16.17,-10.71,1729472493394.0,0.0
-1.12702,-6.484549,-8.913264,-5.39,-15.4,-10.92,1729472493415.0,0.0
-0.782453,-6.022735,-8.319844,-13.79,-3.78,-17.780001,1729472493435.0,0.0
-0.442672,-5.111069,-7.613962,12.95,-4.97,-2.87,1729472493454.0,0.0
-0.059821,-3.615555,-7.587641,51.52,-3.22,3.08,1729472493475.0,0.0
-0.646062,-2.689533,-7.76471,46.619999,-0.84,18.9,1729472493496.0,0.0
-0.945165,-4.986642,-8.9683,-12.18,1.47,17.43,1729472493515.0,0.0
-0.562313,-7.659425,-8.786445,-41.650002,4.34,15.47,1729472493539.0,0.0
-0.827917,-8.350951,-8.549555,-15.33,7.84,8.4,1729472493554.0,0.0
-1.328017,-7.367501,-8.800802,4.69,14.28,-2.1,1729472493585.0,0.0
-1.239482,-7.623533,-6.608976,7.49,14.0,-6.65,1729472493595.0,0.0
-2.440679,-8.941978,-5.680561,-26.809999,10.08,-23.24,1729472493615.0,0.0
-2.548356,-8.635696,-7.21436,-40.32,-4.69,-36.889999,1729472493635.0,0.0
-1.739582,-7.15454,-8.025528,-15.68,-11.69,-40.110001,1729472493654.0,0.0
-2.191825,-6.070591,-7.171289,-5.46,-8.61,-37.73,1729472493676.0,0.0
-2.586641,-5.95095,-6.943972,-10.22,-9.52,-33.950001,1729472493694.0,0.0
-2.490928,-5.529813,-7.609176,-13.58,-13.86,-27.23,1729472493715.0,0.0
-2.15354,-5.431707,-8.415558,-17.99,-13.58,-22.82,1729472493736.0,0.0
-1.923829,-4.45065,-8.748159,-0.7,-10.57,-9.38,1729472493755.0,0.0
-0.794417,-2.85703,-8.190632,60.689999,-2.94,17.290001,1729472493775.0,0.0
-0.167498,-2.021935,-7.721639,52.150002,0.84,34.02,1729472493796.0,0.0
0.01675,-4.086941,-7.946564,13.09,-0.77,41.509998,1729472493815.0,0.0
-0.277567,-5.85763,-8.303094,-17.15,-0.07,34.860001,1729472493835.0,0.0
-0.739382,-7.9681,-8.975478,-17.360001,-2.1,26.809999,1729472493855.0,0.0
-1.459622,-8.475377,-8.219346,-14.14,1.54,8.4,1729472493875.0,0.0
-1.804188,-8.432307,-7.728817,-11.76,-0.63,-10.29,1729472493895.0,0.0
-1.581656,-7.740781,-8.685946,-17.639999,-3.22,-25.83,1729472493914.0,0.0
-1.007378,-7.092326,-8.85105,-13.51,-0.98,-30.24,1729472493936.0,0.0
-1.208375,-7.02772,-8.408379,-10.85,5.6,-29.4,1729472493955.0,0.0
-1.270589,-6.534799,-7.817351,1.75,7.98,-23.030001,1729472493975.0,0.0
-2.005185,-6.159126,-6.293124,17.57,9.03,-13.58,1729472493995.0,0.0
-2.98385,-6.556334,-6.34098,6.72,6.65,-11.62,1729472494014.0,0.0
-2.208575,-6.049056,-6.635297,-1.68,-4.06,-8.4,1729472494035.0,0.0
-2.191825,-5.726025,-7.068398,5.32,-7.7,-2.8,1729472494054.0,0.0
-2.143969,-5.673382,-7.767102,10.92,-9.24,-0.91,1729472494078.0,0.0
-1.366302,-4.567898,-8.109276,22.4,-11.2,5.81,1729472494096.0,0.0
-1.117448,-4.438686,-7.872386,39.41,-5.18,16.17,1729472494116.0,0.0
-0.567099,-3.859623,-7.848458,35.630001,-3.5,20.02,1729472494136.0,0.0
-0.622134,-4.54397,-8.382057,24.43,-3.99,21.84,1729472494153.0,0.0
-0.978664,-5.807381,-8.874979,-1.54,-0.77,16.309999,1729472494175.0,0.0
-0.98345,-7.200003,-9.245867,-22.26,3.22,6.37,1729472494195.0,0.0
-0.892523,-8.370094,-8.312666,-24.5,6.79,-2.52,1729472494214.0,0.0
-1.213161,-8.38445,-8.047063,-9.8,9.24,-13.3,1729472494237.0,0.0
-0.997807,-7.082755,-8.834301,7.35,10.99,-16.24,1729472494254.0,0.0
-1.050449,-6.903293,-7.422535,14.35,15.05,-9.87,1729472494274.0,0.0
-2.318645,-7.817351,-5.54417,-5.46,17.99,-9.59,1729472494294.0,0.0
-2.660819,-7.970492,-6.168696,-21.629999,7.63,-11.9,1729472494314.0,0.0
-2.959922,-7.168896,-5.338387,-12.32,-1.47,-11.55,1729472494337.0,0.0
-3.926622,-7.587641,-7.262216,-7.42,-5.04,-13.79,1729472494354.0,0.0
-2.696711,-6.920043,-7.771888,2.1,-12.81,-10.5,1729472494374.0,0.0
-1.636691,-6.192625,-8.02792,12.18,-12.81,-5.18,1729472494394.0,0.0
-1.284946,-5.06082,-6.955935,6.02,-4.76,-4.13,1729472494422.0,0.0
-0.935594,-5.627919,-7.235896,65.940002,-9.03,17.360001,1729472494435.0,0.0
-0.184247,-3.68734,-7.101898,83.230003,-7.56,17.57,1729472494455.0,0.0
-0.392423,-2.397608,-8.336594,33.389999,-4.55,19.18,1729472494476.0,0.0
-0.425922,-6.065805,-9.597611,-47.18,-5.6,17.780001,1729472494495.0,0.0
-0.492921,-8.894121,-9.891929,-58.52,4.41,7.91,1729472494515.0,0.0
-0.543171,-8.46102,-9.365508,-13.37,14.28,0.07,1729472494547.0,0.0
-0.732204,-7.176075,-8.453842,13.09,21.91,-7.14,1729472494554.0,0.0
-1.117448,-7.707282,-7.365108,4.62,22.68,-12.04,1729472494575.0,0.0
-2.806781,-8.109276,-4.398008,-14.14,21.77,-17.57,1729472494596.0,0.0
-2.730211,-8.389235,-6.197411,-39.689999,4.06,-29.82,1729472494615.0,0.0
-3.148954,-7.661818,-6.506085,-23.1,-1.47,-26.6,1729472494636.0,0.0
-3.048456,-6.630512,-7.144968,-14.84,-7.0,-28.280001,1729472494655.0,0.0
-2.744568,-6.07777,-7.781459,-7.07,-7.84,-18.690001,1729472494676.0,0.0
-1.938186,-5.505885,-8.106883,-2.8,-5.32,-9.73,1729472494696.0,0.0
-1.162912,-4.546363,-7.463214,8.26,0.98,6.93,1729472494716.0,0.0
-0.68674,-4.673182,-7.307681,52.080002,0.77,20.719999,1729472494736.0,0.0
-0.148355,-3.574877,-6.759724,52.779999,-1.19,23.870001,1729472494756.0,0.0
-0.401994,-4.476971,-7.496714,11.41,-3.71,22.960001,1729472494775.0,0.0
-0.624527,-7.056434,-9.38465,-44.170002,-4.06,13.3,1729472494796.0,0.0
-0.327817,-8.977871,-9.255438,-40.110001,-0.21,3.57,1729472494816.0,0.0
-0.835095,-8.738588,-8.226524,-7.35,8.33,-9.8,1729472494836.0,0.0
-1.442872,-6.896115,-8.489735,4.34,12.74,-21.35,1729472494856.0,0.0
-1.138984,-6.687939,-7.735995,-2.52,12.74,-21.07,1729472494876.0,0.0
-1.68694,-7.582855,-6.211767,-23.59,14.0,-23.59,1729472494897.0,0.0
-1.90708,-7.879565,-7.149754,-25.549999,7.91,-23.66,1729472494916.0,0.0
-1.454836,-6.958328,-7.21436,-0.07,4.83,-17.360001,1729472494938.0,0.0
-2.76371,-6.711867,-6.226124,8.05,9.73,-13.86,1729472494957.0,0.0
-2.428715,-6.616155,-6.702296,-3.71,2.24,-11.97,1729472494978.0,0.0
-1.842474,-6.283553,-7.077969,0.91,-2.94,-5.18,1729472494996.0,0.0
-1.674976,-6.235696,-7.133004,1.47,-2.94,-0.91,1729472495017.0,0.0
-1.261017,-5.486742,-7.441679,31.639999,-6.44,8.61,1729472495037.0,0.0
-0.782453,-4.359723,-7.123433,54.25,-4.27,13.440001,1729472495056.0,0.0
-0.459422,-3.658626,-6.908078,51.59,-5.11,23.450001,1729472495082.0,0.0
-0.165105,-4.022335,-7.735995,6.02,-7.56,21.35,1729472495096.0,0.0
-0.468993,-6.190232,-9.265009,-32.759998,-6.65,19.460001,1729472495116.0,0.0
-0.555135,-7.733603,-9.712467,-34.860001,-0.07,10.99,1729472495142.0,0.0
-0.665205,-8.061419,-9.090333,-12.95,6.44,3.29,1729472495156.0,0.0
-1.222732,-7.491928,-7.91785,-2.38,12.6,-6.44,1729472495176.0,0.0
-1.56012,-7.338787,-8.042276,-14.98,12.46,-14.42,1729472495196.0,0.0
-0.885344,-7.460821,-8.123632,-16.450001,10.08,-14.28,1729472495216.0,0.0
-1.481157,-7.69771,-5.742774,-1.82,13.51,-11.69,1729472495248.0,0.0
-2.517249,-8.25763,-6.147161,-10.92,9.03,-15.33,1729472495256.0,0.0
-1.531406,-7.353144,-7.049256,-8.47,-2.52,-14.84,1729472495276.0,0.0
-2.009971,-6.659225,-6.448657,1.4,1.33,-11.76,1729472495296.0,0.0
-2.78046,-7.089933,-7.013363,-8.61,1.96,-12.11,1729472495316.0,0.0
-1.789831,-6.07777,-7.448857,-3.01,-5.88,-7.98,1729472495336.0,0.0
-1.89033,-5.929415,-7.592427,-0.14,-2.73,-6.23,1729472495356.0,0.0
-1.478764,-5.187639,-8.135597,24.15,-4.06,3.64,1729472495376.0,0.0
-0.775275,-4.125226,-7.89153,38.779999,-1.54,9.38,1729472495396.0,0.0
-0.602991,-3.964907,-7.582855,28.35,1.4,17.219999,1729472495416.0,0.0
-0.394816,-5.115855,-7.82453,6.16,-0.14,21.91,1729472495437.0,0.0
-0.473779,-5.84088,-7.668997,-7.63,0.35,19.389999,1729472495456.0,0.0
-0.634098,-6.874579,-8.539984,-2.31,0.42,19.110001,1729472495476.0,0.0
-0.744168,-6.69751,-8.274381,-5.46,5.18,11.55,1729472495496.0,0.0
-0.926022,-7.513463,-8.391629,-10.57,5.67,7.56,1729472495516.0,0.0
-1.246661,-7.831708,-7.805387,-13.16,8.33,-0.14,1729472495539.0,0.0
-1.335195,-7.733603,-7.144968,-4.76,7.7,-4.9,1729472495557.0,0.0
-1.471586,-7.865208,-6.367301,-6.79,4.2,-11.13,1729472495576.0,0.0
-1.665405,-7.812566,-6.695118,-7.21,-0.91,-16.1,1729472495596.0,0.0
-1.4668,-7.125826,-7.341179,-5.11,-4.2,-18.48,1729472495617.0,0.0
-1.241875,-6.79083,-8.128418,-3.78,-3.57,-15.61,1729472495638.0,0.0
-1.275374,-6.522834,-8.197811,0.42,1.4,-11.06,1729472495655.0,0.0
-1.555335,-6.809973,-7.563712,3.36,5.95,-6.09,1729472495676.0,0.0
-1.584049,-6.080163,-7.357929,13.65,7.0,-2.03,1729472495696.0,0.0
