acc_x,acc_y,acc_z,gyr_x,gyr_y,gyr_z,timestamp,label
-5.161318,-8.695518,-3.452843,9.31,19.809999,-29.68,1729420661601.0,0.0
-4.855037,-8.980263,-3.452843,8.47,15.68,-32.689999,1729420661603.0,0.0
-4.701896,-9.068797,-3.20399,14.28,13.3,-35.560001,1729420661603.0,0.0
-4.524827,-9.166903,-3.328416,28.280001,13.86,-37.52,1729420661607.0,0.0
-4.63729,-9.006584,-3.096312,37.939999,13.72,-40.810001,1729420661623.0,0.0
-4.37408,-8.886944,-3.309274,39.27,14.7,-46.200001,1729420661642.0,0.0
-4.082155,-9.023334,-3.29731,28.42,15.75,-54.810001,1729420661662.0,0.0
-3.847659,-9.473185,-3.141776,18.41,16.52,-61.040001,1729420661682.0,0.0
-3.596412,-9.796216,-3.402594,19.18,22.120001,-65.800003,1729420661704.0,0.0
-3.156133,-9.391829,-3.536592,35.0,26.950001,-70.840004,1729420661723.0,0.0
-2.723032,-8.752945,-2.892922,41.509998,24.360001,-73.360001,1729420661742.0,0.0
-2.455036,-8.757731,-2.931208,21.210001,17.710001,-74.199997,1729420661763.0,0.0
-2.199004,-9.047262,-3.144169,16.1,14.49,-69.090004,1729420661782.0,0.0
-2.143969,-9.288938,-3.125026,28.84,13.58,-65.870003,1729420661803.0,0.0
-1.998007,-9.049655,-2.201397,50.540001,16.379999,-63.420002,1729420661823.0,0.0
-1.926222,-8.398808,-1.392623,63.77,9.94,-58.380001,1729420661842.0,0.0
-2.124826,-7.858029,-1.289732,67.129997,9.1,-52.290001,1729420661862.0,0.0
-2.388037,-7.314859,-0.662812,61.389999,10.64,-45.43,1729420661883.0,0.0
-2.533999,-7.04447,-0.241675,40.599998,7.28,-39.200001,1729420661903.0,0.0
-2.708675,-6.975078,0.050249,9.24,3.92,-34.93,1729420661922.0,0.0
-2.928815,-7.06122,-0.239282,-14.49,0.98,-25.76,1729420661943.0,0.0
-3.249453,-6.836295,0.325424,-20.02,-2.52,-11.27,1729420661962.0,0.0
-3.529413,-6.996613,-0.081356,-17.43,-6.16,4.69,1729420661982.0,0.0
-3.809374,-5.682954,0.614955,-35.139999,-14.42,14.28,1729420662007.0,0.0
-4.972286,-7.57089,1.478764,-20.51,-28.91,36.470001,1729420662022.0,0.0
-5.182854,-8.12124,-0.70349,-37.380001,-31.99,27.65,1729420662042.0,0.0
-5.429315,-8.997013,-1.57687,-66.360001,-32.130001,21.91,1729420662064.0,0.0
-3.871587,-9.233903,-4.364508,-122.639999,-59.990002,2.03,1729420662084.0,0.0
-2.072184,-10.492528,-5.328816,-117.809998,-94.290001,5.81,1729420662103.0,0.0
-0.935594,-9.755538,-4.819145,-74.760002,-87.290001,14.77,1729420662122.0,0.0
-0.787239,-9.095119,-3.845266,-57.889999,-49.630001,5.6,1729420662143.0,0.0
-1.76351,-9.468399,-3.349952,-76.300003,-18.76,-0.07,1729420662162.0,0.0
-2.455036,-10.145569,-3.871587,-79.309998,-11.55,-1.33,1729420662185.0,0.0
-2.507678,-8.812766,-3.201597,-74.129997,-29.469999,-1.54,1729420662206.0,0.0
-2.311467,-9.284152,-4.034299,-62.510002,-36.330002,-1.05,1729420662223.0,0.0
-2.287539,-9.370294,-4.845466,-59.290001,-27.16,-6.16,1729420662244.0,0.0
-2.050649,-7.846066,-5.333601,-77.629997,-27.65,-11.76,1729420662262.0,0.0
-1.555335,-7.630712,-5.60399,-123.340004,-32.970001,-22.889999,1729420662284.0,0.0
-1.555335,-9.480364,-5.446064,-162.889999,-31.5,-33.459999,1729420662305.0,0.0
-1.737189,-9.253045,-5.860023,-162.75,-22.26,-41.439999,1729420662323.0,0.0
-1.835295,-7.999206,-5.599205,-150.850006,-18.34,-40.670002,1729420662343.0,0.0
-1.732404,-7.60439,-6.558727,-167.369995,-20.51,-34.790001,1729420662362.0,0.0
-1.631905,-7.953743,-7.872386,-178.080002,-3.36,-32.549999,1729420662384.0,0.0
-2.206182,-8.365308,-9.267403,-156.869995,14.56,-26.880001,1729420662406.0,0.0
-2.376073,-7.068398,-9.918249,-122.989998,35.349998,-24.360001,1729420662424.0,0.0
-1.634298,-5.166104,-9.607183,-60.619999,39.830002,-14.0,1729420662442.0,0.0
-0.981057,-4.608576,-8.846266,-50.889999,44.450001,-3.78,1729420662464.0,0.0
-0.346959,-5.156533,-6.321837,-52.849998,46.34,5.74,1729420662482.0,0.0
-0.605384,-7.298109,-2.919244,-30.73,45.57,12.88,1729420662505.0,0.0
-0.940379,-6.455836,-2.438286,-15.190001,29.190001,8.96,1729420662523.0,0.0
-1.878366,-7.259824,-3.728018,-20.23,9.73,-11.06,1729420662542.0,0.0
-3.058028,-5.4676,-5.761917,-60.41,12.39,-34.09,1729420662562.0,0.0
-2.677568,-4.39083,-8.248059,-94.57,-14.91,-57.540001,1729420662584.0,0.0
-0.839881,-4.582255,-10.336994,-82.669998,-69.580002,-63.84,1729420662606.0,0.0
0.619741,-4.386044,-10.353743,-31.43,-88.480003,-65.309998,1729420662622.0,0.0
-0.399601,-3.158526,-9.738789,5.53,-44.66,-47.599998,1729420662641.0,0.0
-3.290131,-3.495914,-9.667004,-14.77,14.42,-16.799999,1729420662663.0,0.0
-3.938586,-3.055635,-12.777672,-66.989998,31.360001,-3.78,1729420662684.0,0.0
-2.589034,-1.9669,-13.287343,-94.919998,11.13,24.43,1729420662706.0,0.0
-0.256032,-4.323831,-13.354343,-75.110001,-0.49,38.290001,1729420662723.0,0.0
0.248854,-4.668397,-11.894722,-39.689999,18.969999,59.080002,1729420662741.0,0.0
-0.978664,-4.161119,-11.284552,13.58,87.709999,68.32,1729420662762.0,0.0
-1.301696,-5.242674,-10.293922,21.77,91.0,74.900002,1729420662782.0,0.0
-0.133998,-6.396015,-4.807181,56.77,77.910004,74.480003,1729420662806.0,0.0
0.526421,-7.568498,-4.938786,71.260002,49.0,59.220001,1729420662822.0,0.0
-0.574277,-9.449257,-2.818745,16.030001,24.639999,1.89,1729420662842.0,0.0
-3.270989,-9.839286,-5.103891,-61.459999,38.920002,-46.060001,1729420662863.0,0.0
-3.28056,-8.298308,-7.893922,-15.89,23.030001,-68.040001,1729420662883.0,0.0
-1.820938,-4.201797,-6.778866,7.0,-51.380001,-70.559998,1729420662905.0,0.0
-0.351745,-4.151547,-7.405786,-27.790001,-71.260002,-93.309998,1729420662921.0,0.0
-0.579063,-2.928815,-13.493127,-57.82,-54.599998,-109.970001,1729420662942.0,0.0
-2.041078,-0.564706,-15.981662,-12.32,-6.02,-90.440002,1729420662963.0,0.0
-2.103291,2.292324,-16.180265,52.43,31.219999,-34.790001,1729420662981.0,0.0
-0.267996,4.070191,-12.303895,131.039993,29.960001,34.439999,1729420663008.0,0.0
1.244268,2.792424,-9.394222,107.940002,37.52,68.110001,1729420663022.0,0.0
0.61017,-0.861416,-8.867801,21.77,72.379997,84.910004,1729420663043.0,0.0
-0.81356,-4.589434,-6.922436,-33.389999,91.209999,97.300003,1729420663061.0,0.0
-1.56012,-9.573684,-4.859823,-59.709999,63.84,82.389999,1729420663084.0,0.0
-1.68694,-12.354142,-2.409572,-39.689999,30.59,75.32,1729420663102.0,0.0
-2.299503,-14.371292,-6.941578,-64.540001,14.07,29.610001,1729420663121.0,0.0
-1.842474,-11.880364,-10.116854,-50.75,-1.33,-11.76,1729420663143.0,0.0
-0.698704,-6.838687,-7.645068,61.459999,-45.080002,-20.65,1729420663162.0,0.0
-0.988236,-1.832902,-7.872386,47.950001,-53.060001,-53.130001,1729420663182.0,0.0
-2.029114,-2.672783,-10.037891,-40.389999,-46.27,-89.529999,1729420663204.0,0.0
-2.182254,-5.290531,-15.940985,-100.449997,-48.299999,-112.139999,1729420663222.0,0.0
-1.083949,-2.043471,-15.890735,-18.620001,-33.740002,-97.370003,1729420663241.0,0.0
-0.311067,4.919643,-14.301902,98.840004,4.34,-29.049999,1729420663261.0,0.0
0.641276,7.288538,-9.958927,125.440002,22.889999,26.389999,1729420663282.0,0.0
1.428515,4.692325,-8.238488,29.540001,28.139999,67.970001,1729420663303.0,0.0
0.504886,-1.409373,-7.274181,-21.91,51.66,108.080002,1729420663323.0,0.0
-0.224925,-5.876772,-7.980063,-36.049999,62.02,122.290001,1729420663341.0,0.0
-2.234896,-9.937392,-2.883351,-19.32,59.5,138.180008,1729420663361.0,0.0
-3.361916,-12.808779,-5.915058,-61.459999,46.200001,90.300003,1729420663382.0,0.0
-4.027121,-16.168303,-7.980063,-105.279999,16.379999,44.799999,1729420663403.0,0.0
-0.899701,-12.861421,-10.975878,-23.24,-42.700001,-19.74,1729420663424.0,0.0
-0.086142,-6.573084,-9.044869,150.850006,-34.650002,-42.91,1729420663442.0,0.0
-0.619741,-1.476372,-7.444071,71.050003,-39.900002,-80.290001,1729420663462.0,0.0
-1.433301,-0.772882,-8.810372,-61.810001,-36.330002,-119.559998,1729420663481.0,0.0
-1.028914,-5.228317,-12.815958,-81.199997,-43.189999,-136.430008,1729420663506.0,0.0
-0.155533,-0.571885,-14.266008,-12.53,-37.099998,-104.790001,1729420663522.0,0.0
0.155533,4.084548,-11.619547,114.940002,5.11,-31.219999,1729420663542.0,0.0
0.433101,6.506085,-10.475778,109.340004,32.619999,26.530001,1729420663562.0,0.0
0.291924,4.41715,-7.606783,49.630001,34.509998,79.730003,1729420663583.0,0.0
1.009771,-0.011964,-9.133404,-3.29,31.92,103.32,1729420663603.0,0.0
-0.157926,-5.955735,-9.166903,-37.799999,53.549999,122.779999,1729420663622.0,0.0
-3.515057,-13.732409,-3.215954,-29.190001,85.120003,107.660004,1729420663642.0,0.0
-6.108876,-16.316658,-1.696511,-90.720001,66.57,55.790001,1729420663661.0,0.0
-4.034299,-14.29233,-8.135597,-78.959999,-11.55,5.6,1729420663681.0,0.0
-1.026521,-10.810772,-9.209974,46.900002,-61.459999,-8.68,1729420663704.0,0.0
-0.236889,-6.690332,-7.180861,72.309998,-61.040001,-48.790001,1729420663721.0,0.0
-1.210768,-3.510271,-6.656832,-16.66,-50.610001,-93.309998,1729420663741.0,0.0
-2.086541,-4.003192,-14.711074,-52.080002,-47.18,-128.100006,1729420663761.0,0.0
-1.509871,1.976472,-15.342779,24.15,-34.369999,-94.220001,1729420663781.0,0.0
-0.332602,6.628119,-14.512468,88.059998,-13.58,-25.200001,1729420663805.0,0.0
1.0002,6.960721,-10.358529,66.150002,10.01,36.959999,1729420663821.0,0.0
1.131805,2.043471,-10.068997,9.24,46.48,84.209999,1729420663841.0,0.0
-0.545564,-3.117848,-5.003392,10.15,82.25,131.460007,1729420663861.0,0.0
-2.557927,-7.819745,-3.739982,-29.33,86.870003,132.369995,1729420663881.0,0.0
-4.024727,-12.401999,-4.280759,-64.75,75.389999,127.889999,1729420663905.0,0.0
-2.225325,-14.426328,-7.676175,-67.620003,12.39,85.68,1729420663921.0,0.0
-0.380459,-15.553347,-8.879765,-78.610001,-39.549999,38.990002,1729420663940.0,0.0
-0.224925,-16.395622,-7.293324,5.18,-31.780001,-18.969999,1729420663961.0,0.0
-1.375873,-8.62134,-7.829315,66.779999,-7.42,-66.989998,1729420663983.0,0.0
-3.337988,-1.773082,-7.759924,61.529999,-9.31,-95.059998,1729420664006.0,0.0
-3.921836,-1.962115,-11.921042,-36.049999,-41.16,-133.419998,1729420664021.0,0.0
-2.244468,-5.309673,-13.91187,-87.5,-77.769997,-148.960007,1729420664041.0,0.0
-0.524028,-3.457629,-13.502698,-31.290001,-75.32,-143.080002,1729420664060.0,0.0
-0.272782,9.219545,-14.49572,63.91,-14.56,-95.480003,1729420664082.0,0.0
0.284746,9.310472,-10.035499,116.340004,27.370001,35.560001,1729420664104.0,0.0
0.39003,2.529213,-7.726424,64.68,52.080002,109.270004,1729420664120.0,0.0
0.215354,-0.277567,-5.046463,30.030001,62.510002,144.690002,1729420664141.0,0.0
-1.509871,-6.269196,-6.398407,-21.35,67.410004,145.740005,1729420664162.0,0.0
-3.029313,-12.090932,-7.661818,-67.830002,83.300003,126.559998,1729420664182.0,0.0
-3.771089,-17.857635,-4.522435,-64.540001,34.790001,76.720001,1729420664202.0,0.0
-3.37388,-17.450855,-4.177868,-56.91,-14.63,5.04,1729420664221.0,0.0
-2.385644,-11.241481,-8.082954,34.09,-18.76,-36.470001,1729420664241.0,0.0
-2.048256,-4.366901,-9.111869,85.050003,-32.060001,-48.439999,1729420664260.0,0.0
-2.414358,-2.880959,-7.197611,23.379999,-53.200001,-81.830002,1729420664281.0,0.0
-2.100898,-4.893322,-10.351351,-86.379997,-53.830002,-121.520004,1729420664302.0,0.0
-1.524228,-4.508078,-11.942577,-62.369999,-66.080002,-120.75,1729420664321.0,0.0
-0.579063,1.031307,-12.397215,28.07,-49.560001,-91.840004,1729420664341.0,0.0
0.803988,7.118648,-14.371292,36.470001,-35.77,-48.299999,1729420664361.0,0.0
1.880759,4.838287,-11.748759,63.139999,0.84,25.969999,1729420664382.0,0.0
0.98345,0.815953,-9.4349,20.93,44.66,88.410004,1729420664405.0,0.0
-0.787239,-4.271189,-5.218746,7.77,72.940002,117.32,1729420664420.0,0.0
-3.962514,-12.454641,-2.782853,-49.209999,72.099998,97.090004,1729420664440.0,0.0
-4.555934,-15.28535,-5.431707,-123.900002,36.400002,49.420002,1729420664462.0,0.0
-2.76371,-14.768501,-9.066404,-83.860001,-10.64,23.17,1729420664481.0,0.0
-1.225125,-11.619547,-8.173882,58.380001,-34.650002,-5.95,1729420664504.0,0.0
-2.057827,-7.54457,-6.788438,81.550003,-12.88,-54.599998,1729420664521.0,0.0
-3.464807,-3.550949,-6.683154,3.29,-24.710001,-94.639999,1729420664541.0,0.0
-3.098706,-5.199604,-9.887143,-43.959999,-57.119999,-125.580002,1729420664560.0,0.0
-1.323231,-5.197211,-14.191832,-37.170002,-84.629997,-132.300003,1729420664583.0,0.0
-0.160319,0.311067,-13.986048,28.559999,-55.09,-101.919998,1729420664602.0,0.0
0.993021,5.398208,-15.053247,73.220001,-16.1,-64.610001,1729420664620.0,0.0
1.919044,5.096712,-12.693924,110.809998,27.93,12.46,1729420664641.0,0.0
2.005185,2.199004,-8.571091,96.32,40.040001,70.910004,1729420664660.0,0.0
0.777667,-1.619941,-5.716454,66.010002,82.949997,103.25,1729420664681.0,0.0
-1.428515,-7.733603,-3.917051,9.8,92.330002,95.340004,1729420664702.0,0.0
-3.141776,-11.454442,-3.278167,-63.84,88.199997,80.989998,1729420664721.0,0.0
-4.285545,-12.856635,-3.811767,-92.540001,44.66,46.34,1729420664741.0,0.0
-2.995814,-12.717852,-9.566505,-114.169998,8.4,17.85,1729420664762.0,0.0
-1.5003,-8.750552,-7.410572,34.580002,-53.830002,0.77,1729420664780.0,0.0
-2.098505,-6.51087,-6.585048,54.529999,-56.349998,-46.200001,1729420664802.0,0.0
-3.479164,-3.579663,-10.281959,-56.700001,-40.670002,-104.860001,1729420664821.0,0.0
-3.254239,-6.118448,-12.789637,-59.639999,-62.93,-125.93,1729420664841.0,0.0
-1.488336,-0.859023,-14.909678,8.82,-62.510002,-106.050003,1729420664860.0,0.0
0.275175,7.168896,-15.129817,55.439999,-39.34,-43.049999,1729420664883.0,0.0
1.844866,6.333801,-9.47797,59.150002,-16.940001,22.610001,1729420664902.0,0.0
2.005185,0.39003,-11.602797,-12.04,38.849998,63.77,1729420664919.0,0.0
0.071785,-3.495914,-6.879365,-7.49,80.989998,106.540001,1729420664940.0,0.0
-1.277767,-5.62074,-7.592427,6.51,82.25,114.379997,1729420664960.0,0.0
-1.90708,-7.767102,-6.999006,-14.77,73.919998,118.580002,1729420664982.0,0.0
-1.926222,-12.210573,-5.737988,-50.540001,50.330002,92.330002,1729420665007.0,0.0
-3.225525,-17.312071,-2.311467,-79.940002,24.639999,35.490002,1729420665021.0,0.0
-3.979264,-18.381664,-5.972485,-43.68,7.07,-30.870001,1729420665040.0,0.0
-2.364109,-9.97807,-8.169096,53.619999,-24.57,-68.389999,1729420665061.0,0.0
-2.514857,-2.242075,-7.927422,73.43,-51.450001,-83.93,1729420665081.0,0.0
-2.598605,-2.76371,-12.090932,-33.25,-70.559998,-133.070007,1729420665101.0,0.0
-1.493121,-3.141776,-15.845272,-63.91,-64.190002,-139.580002,1729420665122.0,0.0
-0.346959,2.567499,-15.218351,59.57,-24.639999,-71.75,1729420665140.0,0.0
0.823131,6.515656,-12.16511,80.290001,-2.45,-1.33,1729420665160.0,0.0
2.026721,4.862216,-10.301102,63.77,25.34,45.709999,1729420665181.0,0.0
1.268196,1.414158,-9.47797,61.040001,59.849998,95.199997,1729420665204.0,0.0
-0.935594,-2.459821,-5.625526,-4.69,82.949997,115.43,1729420665220.0,0.0
-2.569891,-8.982656,-6.80758,-43.82,90.090004,106.82,1729420665240.0,0.0
-4.87418,-13.878372,-1.727618,-70.139999,56.420002,82.25,1729420665260.0,0.0
-5.52742,-15.053247,-4.587041,-106.68,34.93,40.950001,1729420665280.0,0.0
-3.835695,-14.593824,-7.963314,-36.889999,-22.190001,-0.63,1729420665304.0,0.0
-1.79701,-9.980463,-8.126025,56.0,-54.599998,-28.77,1729420665320.0,0.0
-1.569692,-4.977071,-8.295916,51.380001,-53.27,-67.970001,1729420665340.0,0.0
-2.203789,-3.749553,-8.88455,-23.1,-56.630001,-115.080002,1729420665367.0,0.0
-1.423729,-6.738188,-11.57169,-50.189999,-67.480003,-143.289993,1729420665382.0,0.0
0.07657,-1.684547,-14.227723,-0.77,-65.519997,-133.419998,1729420665403.0,0.0
1.823331,7.377072,-15.4361,62.369999,-34.02,-80.639999,1729420665422.0,0.0
2.885744,7.111469,-12.464212,84.209999,24.15,21.49,1729420665441.0,0.0
1.445265,0.622134,-7.977671,70.980003,51.170002,88.900002,1729420665460.0,0.0
-0.495314,-3.768696,-3.601198,57.119999,86.519997,117.459999,1729420665481.0,0.0
-2.969493,-7.932207,-5.120641,-5.6,93.099998,108.849998,1729420665503.0,0.0
-5.85763,-13.234701,-1.861616,-61.740002,79.730003,84.769997,1729420665522.0,0.0
-6.147161,-13.964513,-5.429315,-103.529999,46.830002,49.139999,1729420665541.0,0.0
-2.962314,-14.335401,-11.004591,-67.199997,-32.549999,17.15,1729420665560.0,0.0
-0.756132,-10.557133,-7.341179,54.25,-63.630001,5.46,1729420665581.0,0.0
-1.885544,-8.836694,-5.886343,81.900002,-37.52,-62.580002,1729420665604.0,0.0
-3.366701,-8.221739,-9.217153,-25.83,-24.08,-127.330002,1729420665621.0,0.0
-2.490928,-6.594619,-13.363914,-22.26,-57.400002,-166.180008,1729420665641.0,0.0
-0.765703,-2.986243,-13.643874,78.330002,-46.619999,-131.949997,1729420665662.0,0.0
1.119841,0.942772,-12.634104,108.919998,-40.32,-99.610001,1729420665682.0,0.0
2.014757,1.342373,-11.88515,90.790001,-6.44,-62.720001,1729420665703.0,0.0
2.340181,3.677768,-14.368899,49.209999,20.440001,-33.18,1729420665722.0,0.0
0.098106,-1.277767,-7.456036,92.68,86.239998,51.869999,1729420665742.0,0.0
-1.761117,-7.018148,-5.168497,148.050003,112.07,75.529999,1729420665761.0,0.0
-2.567499,-3.732803,-3.775874,93.519997,96.389999,76.370003,1729420665783.0,0.0
-2.127219,-5.398208,-0.959522,7.35,42.420002,69.090004,1729420665806.0,0.0
-1.619941,-9.188439,-2.139183,-90.019997,17.92,48.16,1729420665822.0,0.0
-2.050649,-14.730216,-3.658626,-116.620003,6.51,27.16,1729420665843.0,0.0
-1.395016,-13.016955,-4.108476,-111.650002,-12.88,14.49,1729420665863.0,0.0
0.468993,-7.52782,-5.838487,-81.059998,-61.040001,-1.4,1729420665882.0,0.0
0.775275,-6.305088,-5.228317,-62.650002,-78.330002,-16.030001,1729420665906.0,0.0
-0.722632,-6.422336,-6.67119,-103.879997,-61.810001,-46.830002,1729420665922.0,0.0
-3.337988,-5.381458,-14.002798,-77.139999,-15.12,-56.630001,1729420665944.0,0.0
-5.376673,-2.634498,-21.001806,-72.099998,25.059999,-35.349998,1729420665963.0,0.0
-3.445665,-1.337588,-15.335601,28.700001,15.12,22.75,1729420665982.0,0.0
0.689133,-0.117248,-9.099905,47.18,-21.84,61.599998,1729420666009.0,0.0
2.804388,-0.861416,-9.942179,-34.93,6.3,62.23,1729420666023.0,0.0
-0.653241,-7.384251,-8.106883,-34.23,76.93,72.099998,1729420666043.0,0.0
-1.787439,-10.834702,-5.173282,16.309999,100.940002,56.490002,1729420666062.0,0.0
-1.586441,-10.772489,-1.404587,-2.59,39.48,33.950001,1729420666087.0,0.0
0.167498,-11.870793,-0.634098,-7.28,-18.549999,-23.030001,1729420666108.0,0.0
0.014357,-8.563912,-5.469993,9.73,-31.85,-58.240002,1729420666122.0,0.0
-0.653241,-6.597012,-7.829315,29.82,-20.58,-88.269997,1729420666144.0,0.0
-0.29671,-7.54457,-9.233903,-6.3,-63.490002,-116.129997,1729420666162.0,0.0
0.150748,-4.979464,-8.228917,-57.610001,-90.440002,-136.360001,1729420666183.0,0.0
-0.768096,-1.816152,-16.295122,-13.3,-52.920002,-122.57,1729420666203.0,0.0
-2.880959,-1.18684,-17.556139,107.169998,33.389999,-54.810001,1729420666223.0,0.0
-2.467,0.445065,-15.199209,167.580002,63.490002,31.43,1729420666243.0,0.0
0.086142,-0.947558,-8.166703,178.009995,27.23,77.349998,1729420666264.0,0.0
1.684547,-3.488736,-7.645068,109.340004,35.209999,72.590004,1729420666283.0,0.0
1.007378,-4.814359,-6.738188,65.660004,76.370003,60.060001,1729420666304.0,0.0
-0.835095,-6.45105,-7.786245,53.760002,99.330002,53.48,1729420666322.0,0.0
-1.217947,-8.985049,-8.451449,110.040001,102.900002,62.299999,1729420666343.0,0.0
-1.189233,-10.214959,-2.541178,199.289993,61.599998,74.410004,1729420666362.0,0.0
-0.227318,-10.691131,0.827917,162.050003,39.130001,32.830002,1729420666382.0,0.0
0.239282,-10.736595,0.658026,97.370003,2.8,14.42,1729420666406.0,0.0
1.062413,-10.870593,-1.674976,55.93,-28.77,-13.23,1729420666424.0,0.0
0.399601,-7.980063,-0.337388,29.540001,-44.52,-26.809999,1729420666444.0,0.0
-0.27996,-6.551548,-1.847259,21.559999,-51.59,-29.469999,1729420666461.0,0.0
-1.222732,-6.343372,-1.342373,20.65,-67.199997,-30.870001,1729420666482.0,0.0
-2.043471,-4.285545,-6.580262,18.27,-72.309998,-12.88,1729420666505.0,0.0
-2.383251,-4.029513,-16.960327,20.93,-51.099998,3.29,1729420666522.0,0.0
-4.316652,-9.698111,-12.06222,-16.450001,-0.07,29.049999,1729420666593.0,0.0
-6.319445,-17.670996,-8.695518,10.78,107.940002,55.23,1729420666596.0,0.0
-1.998007,-14.093725,-6.223732,140.210007,39.200001,55.369999,1729420666602.0,0.0
1.85683,-6.123233,-5.67099,203.770004,1.54,74.480003,1729420666613.0,0.0
3.0006,-6.783652,6.094519,169.539993,-2.31,42.630001,1729420666660.0,0.0
2.380858,-9.60479,5.733203,90.580002,-3.5,57.610001,1729420666661.0,0.0
-1.249053,-11.133803,3.771089,38.639999,66.709999,3.43,1729420666682.0,0.0
-2.447858,-9.169296,-0.806381,-13.37,36.470001,-11.97,1729420666703.0,0.0
-2.943172,-8.269595,-3.457629,-100.169998,-31.780001,-20.860001,1729420666722.0,0.0
-2.366502,-8.035098,-9.209974,-102.410004,-91.769997,-32.900002,1729420666742.0,0.0
-1.347159,-3.78066,-16.740189,-96.739998,-62.650002,-17.85,1729420666766.0,0.0
-2.644069,-4.917251,-16.182659,-44.73,-69.790001,-0.56,1729420666782.0,0.0
-2.737389,-11.732009,-11.691331,10.15,61.110001,37.73,1729420666803.0,0.0
-3.266203,-11.533404,-0.667598,-8.75,35.420002,26.6,1729420666824.0,0.0
-1.591227,-12.851851,-1.880759,17.780001,44.029999,29.120001,1729420666842.0,0.0
0.447458,-9.980463,-4.768896,-3.64,63.490002,13.37,1729420666861.0,0.0
0.921237,-7.702496,1.464408,-6.51,63.560001,30.870001,1729420666882.0,0.0
0.899701,-12.327823,5.982057,21.280001,34.16,21.77,1729420666903.0,0.0
1.316052,-12.856635,6.613762,32.830002,4.62,2.59,1729420666921.0,0.0
-1.052842,-8.973085,1.371087,38.990002,14.0,1.82,1729420666941.0,0.0
-3.400201,-7.611568,-1.65344,-25.129999,53.549999,-36.959999,1729420666961.0,0.0
-3.783052,-8.647661,-4.768896,-44.939999,1.19,-36.889999,1729420666982.0,0.0
-2.249253,-9.844072,-6.879365,-34.720001,-140.419998,-45.639999,1729420667005.0,0.0
-2.744568,-4.644469,-8.477771,-50.330002,-125.090004,-33.529999,1729420667021.0,0.0
-3.335595,-5.484349,-20.714666,-87.709999,-51.66,-37.66,1729420667043.0,0.0
-3.168097,-13.337594,-8.80798,6.44,53.130001,36.82,1729420667061.0,0.0
-2.043471,-18.800407,-3.388237,137.759995,10.64,35.420002,1729420667081.0,0.0
-0.583849,-7.889136,-1.105484,133.839996,74.970001,30.73,1729420667103.0,0.0
0.607777,-4.548756,-3.079563,66.360001,64.75,5.39,1729420667121.0,0.0
1.512264,-5.455636,0.394816,-18.48,38.220001,6.93,1729420667141.0,0.0
1.502693,-10.664811,3.677768,-20.65,19.25,20.23,1729420667162.0,0.0
1.617548,-12.732209,5.297709,-16.73,2.31,-2.94,1729420667181.0,0.0
-1.268196,-9.894321,0.638884,-11.83,16.66,-13.09,1729420667205.0,0.0
-4.173083,-8.097312,-1.89033,-38.150002,57.400002,-50.75,1729420667232.0,0.0
-6.087341,-9.107083,-3.196811,-20.790001,6.44,-51.240002,1729420667269.0,0.0
-3.273381,-8.271988,-8.587841,24.639999,-118.160004,-32.34,1729420667273.0,0.0
-1.787439,-3.701697,-13.134203,-24.360001,-162.259995,-24.780001,1729420667356.0,0.0
-1.426122,-0.399601,-19.190437,-94.220001,-129.080002,-31.360001,1729420667363.0,0.0
-2.143969,-7.518249,-10.521241,-105.489998,11.55,8.05,1729420667366.0,0.0
-3.74716,-19.594824,2.600998,-24.85,21.07,8.47,1729420667367.0,0.0
-0.299103,-15.574883,-3.912265,76.300003,-30.52,18.549999,1729420667370.0,0.0
1.31366,-4.285545,-4.579862,88.970001,22.960001,19.18,1729420667382.0,0.0
2.045863,-2.916851,-2.256432,29.190001,37.029999,22.68,1729420667414.0,0.0
1.885544,-9.413363,10.057034,-23.17,37.59,27.09,1729420667425.0,0.0
1.366302,-14.41197,5.515456,-85.82,11.76,14.49,1729420667442.0,0.0
-1.538585,-13.033704,-0.270389,-56.84,13.58,-21.629999,1729420667461.0,0.0
-3.393023,-9.004191,-1.842474,3.01,50.75,-41.16,1729420667481.0,0.0
-3.17049,-7.252645,-3.572484,14.07,17.85,-27.02,1729420667502.0,0.0
-2.292324,-8.346166,-5.278566,-16.52,-98.419998,-35.279999,1729420667521.0,0.0
-0.81356,-6.987042,-11.270195,-40.040001,-132.440002,-34.790001,1729420667541.0,0.0
-2.813959,-4.051049,-15.471991,-73.220001,-72.309998,-21.35,1729420667561.0,0.0
-4.498507,-7.470392,-15.972091,-49.279999,63.84,-17.780001,1729420667582.0,0.0
-5.053641,-12.629318,-3.775874,11.83,68.110001,21.42,1729420667602.0,0.0
-1.828116,-15.146567,-3.529413,106.75,-26.25,33.459999,1729420667622.0,0.0
1.232304,-8.470592,-5.285746,96.529999,-0.63,32.759998,1729420667641.0,0.0
2.428715,-3.18724,-6.678369,33.389999,17.639999,26.530001,1729420667661.0,0.0
2.646462,-9.497113,5.977271,6.37,61.670002,36.189999,1729420667682.0,0.0
0.239282,-14.445471,7.781459,-29.190001,74.340004,13.02,1729420667704.0,0.0
-2.526821,-11.102697,1.024128,-16.940001,31.5,-25.620001,1729420667721.0,0.0
-4.158726,-8.066205,-1.598405,-5.11,51.170002,-29.960001,1729420667742.0,0.0
-2.74696,-8.020741,-4.24726,-4.41,-21.35,-37.310001,1729420667761.0,0.0
-0.952343,-9.41815,-5.702096,-14.84,-122.639999,-27.09,1729420667781.0,0.0
0.385244,-6.297909,-9.123833,-53.41,-149.100006,-46.619999,1729420667804.0,0.0
-2.591427,-2.522035,-18.496519,-99.610001,-42.139999,-22.049999,1729420667821.0,0.0
-4.096512,-10.566705,-16.661224,14.28,102.620003,-35.490002,1729420667841.0,0.0
-5.814559,-14.103296,-3.079563,10.36,79.029999,10.43,1729420667862.0,0.0
-2.072184,-13.679767,-0.502493,125.720001,-22.190001,18.83,1729420667884.0,0.0
1.083949,-6.108876,-3.464807,99.190002,3.08,25.200001,1729420667905.0,0.0
2.380858,-2.790031,-6.252446,37.59,8.12,13.72,1729420667922.0,0.0
3.259024,-4.754539,-0.689133,-15.96,32.200001,30.450001,1729420667943.0,0.0
1.923829,-14.842678,8.709875,-37.869999,52.290001,38.849998,1729420667962.0,0.0
-1.208375,-11.3683,2.469393,-24.360001,32.619999,-14.14,1729420667983.0,0.0
-4.321437,-8.420342,-0.787239,-24.219999,60.34,-36.119999,1729420668007.0,0.0
-4.41715,-9.533006,-4.792823,-8.26,44.029999,-48.650002,1729420668023.0,0.0
-3.055635,-9.858429,-5.615955,11.27,-120.400002,-36.119999,1729420668042.0,0.0
-1.019342,-4.931608,-13.086348,-18.200001,-174.160004,-28.77,1729420668064.0,0.0
-2.239682,-0.543171,-19.137794,-128.169998,-107.590004,-38.43,1729420668083.0,0.0
-4.067799,-5.235496,-17.144573,-168.630005,67.269997,-15.68,1729420668104.0,0.0
-6.142376,-20.322243,-3.550949,10.71,57.610001,-4.55,1729420668127.0,0.0
-1.397408,-13.847265,-2.17029,104.93,-50.189999,14.07,1729420668142.0,0.0
1.165305,-5.316852,-2.74696,72.590004,-32.34,30.940001,1729420668163.0,0.0
2.775674,-2.569891,-6.465407,13.93,-31.780001,6.02,1729420668183.0,0.0
3.141776,-3.069991,-3.361916,-49.279999,41.860001,29.469999,1729420668205.0,0.0
2.548356,-9.530612,2.67039,-73.779999,87.080002,43.049999,1729420668223.0,0.0
1.636691,-16.051056,5.773881,-18.83,38.920002,28.84,1729420668247.0,0.0
-0.019143,-12.366108,1.392623,15.61,-8.19,-1.33,1729420668266.0,0.0
-2.921637,-7.786245,-2.158326,8.26,37.52,-24.780001,1729420668283.0,0.0
-2.519642,-8.066205,-4.256832,2.73,6.72,-31.08,1729420668307.0,0.0
-0.552742,-7.089933,-11.578869,18.48,-128.240005,-21.0,1729420668323.0,0.0
-1.942972,-2.790031,-19.312471,-31.290001,-97.440002,-10.36,1729420668344.0,0.0
-4.895715,-6.101698,-15.972091,-86.029999,92.050003,-6.86,1729420668363.0,0.0
-8.719445,-19.841284,-6.259624,-1.75,152.460007,7.56,1729420668383.0,0.0
-2.876173,-15.921842,-4.701896,151.899994,-30.73,27.860001,1729420668407.0,0.0
1.22034,-6.111269,-3.550949,141.259995,-24.99,41.02,1729420668424.0,0.0
3.294917,-2.684747,-6.290731,68.949997,-41.720001,10.71,1729420668443.0,0.0
3.864408,-2.287539,-3.795017,-14.14,23.379999,22.540001,1729420668463.0,0.0
3.180061,-8.322237,4.59422,-48.580002,92.889999,32.060001,1729420668485.0,0.0
-0.007178,-15.359529,8.563912,-37.310001,87.220001,14.7,1729420668504.0,0.0
-1.990828,-12.399607,1.282553,-14.91,7.21,-19.879999,1729420668523.0,0.0
-3.574877,-8.262416,-1.131805,0.28,30.309999,-39.900002,1729420668544.0,0.0
-3.151347,-7.087541,-4.835894,2.59,1.61,-41.02,1729420668566.0,0.0
-2.165504,-7.692925,-7.092326,8.4,-119.209999,-31.15,1729420668583.0,0.0
-1.294517,-4.955536,-17.206787,-38.150002,-151.130005,-24.290001,1729420668607.0,0.0
-2.76371,-4.807181,-18.793228,-81.620003,-33.950001,-18.969999,1729420668629.0,0.0
-6.649654,-17.467606,-2.991028,13.16,118.93,10.64,1729420668643.0,0.0
-2.354537,-13.127025,-2.624927,120.959999,2.59,25.48,1729420668664.0,0.0
0.971486,-6.197411,-3.20399,87.639999,-11.2,31.57,1729420668683.0,0.0
2.557927,-3.589234,-6.723832,27.65,-18.76,17.219999,1729420668707.0,0.0
3.242275,-3.907479,-4.216154,-17.360001,33.599998,30.73,1729420668724.0,0.0
2.634498,-9.152546,5.134997,-45.009998,85.610001,43.259998,1729420668743.0,0.0
0.739382,-15.601204,8.659625,-1.05,55.860001,26.950001,1729420668763.0,0.0
-2.07697,-12.866207,2.213361,7.28,-0.91,-20.65,1729420668784.0,0.0
-3.675375,-9.456435,-1.564906,4.76,28.98,-54.25,1729420668810.0,0.0
-3.84048,-8.640482,-3.402594,13.65,-22.960001,-49.209999,1729420668833.0,0.0
-2.761317,-6.262017,-6.518049,1.61,-133.699997,-39.619999,1729420668845.0,0.0
-2.359323,-1.414158,-16.041483,-101.43,-141.539993,-38.990002,1729420668865.0,0.0
-3.105884,-0.047856,-21.308086,-191.729996,-36.119999,-26.25,1729420668883.0,0.0
-5.063213,-11.842079,-11.016556,-129.639999,89.25,10.99,1729420668916.0,0.0
-4.54397,-21.836901,-3.986443,7.77,13.3,14.0,1729420668922.0,0.0
-0.401994,-9.341579,-3.883551,70.769997,-21.0,36.540001,1729420668945.0,0.0
1.730011,-2.608176,-7.822137,63.07,-18.620001,20.23,1729420668967.0,0.0
2.301895,-1.548156,-5.534599,-38.57,31.5,28.630001,1729420668983.0,0.0
2.37368,-6.788438,-1.701297,-76.160004,64.959999,43.610001,1729420669010.0,0.0
1.289732,-15.701703,8.269595,-53.27,35.139999,41.09,1729420669024.0,0.0
1.316052,-14.785251,2.907279,-6.65,-16.309999,16.940001,1729420669043.0,0.0
-1.227518,-7.903493,-2.148755,3.36,20.299999,-15.33,1729420669063.0,0.0
-2.333002,-6.67119,-4.532006,-3.22,43.889999,-28.91,1729420669083.0,0.0
-3.005385,-8.673983,-4.634897,3.92,-53.34,-32.34,1729420669107.0,0.0
-0.997807,-8.429914,-12.445071,44.799999,-118.580002,-25.129999,1729420669123.0,0.0
-1.663012,-3.354738,-17.860029,5.46,-103.669998,-20.370001,1729420669149.0,0.0
-4.122833,-6.357729,-16.855042,-36.68,50.75,-16.24,1729420669163.0,0.0
-7.558927,-14.340185,-4.132405,-22.960001,129.639999,4.76,1729420669183.0,0.0
-4.158726,-16.469799,-4.211368,112.419998,-7.7,19.040001,1729420669206.0,0.0
0.07657,-6.656832,-6.668797,102.900002,-12.25,29.75,1729420669223.0,0.0
1.89033,-2.352145,-8.427521,41.93,-13.02,13.23,1729420669244.0,0.0
3.055635,-4.366901,-2.179861,-12.95,45.009998,27.860001,1729420669263.0,0.0
2.28036,-13.768302,11.63869,-21.559999,47.880001,38.779999,1729420669283.0,0.0
0.150748,-11.464014,1.251446,-11.2,6.23,3.71,1729420669306.0,0.0
-2.931208,-7.240681,-1.981257,1.26,63.77,-36.049999,1729420669323.0,0.0
-3.378666,-8.037491,-3.850052,0.56,38.009998,-38.709999,1729420669342.0,0.0
-3.072384,-9.078369,-3.888337,0.77,-87.360001,-25.83,1729420669362.0,0.0
-0.117248,-6.309873,-9.461221,12.39,-120.470001,-25.83,1729420669383.0,0.0
-1.507478,-1.320838,-20.257637,-48.720001,-98.910004,-12.88,1729420669405.0,0.0
-2.464607,-6.405586,-19.460827,-6.23,30.450001,0.98,1729420669423.0,0.0
-4.869394,-15.474383,-4.335794,28.0,108.779999,18.549999,1729420669457.0,0.0
-4.261617,-18.510876,-1.478764,91.769997,36.540001,18.549999,1729420669465.0,0.0
-0.306281,-7.233503,-4.993821,78.400002,5.32,3.92,1729420669484.0,0.0
1.529014,-4.441079,-7.058826,48.16,-7.42,-10.29,1729420669507.0,0.0
3.17049,-4.804788,-2.117648,-1.89,6.58,7.77,1729420669523.0,0.0
3.419343,-10.640882,6.520442,-11.55,13.16,15.33,1729420669542.0,0.0
2.495714,-11.942577,4.922036,-3.01,32.549999,-5.11,1729420669564.0,0.0
-0.435494,-8.276773,1.153341,19.040001,22.049999,-30.450001,1729420669583.0,0.0
-3.182454,-6.118448,-0.746561,-9.45,48.720001,-31.5,1729420669605.0,0.0
-3.192025,-8.020741,-5.012963,-46.970001,-17.5,-39.549999,1729420669626.0,0.0
-0.990629,-8.941978,-10.224532,10.36,-141.610001,-16.309999,1729420669643.0,0.0
-1.775474,-4.254438,-14.596218,7.42,-114.449997,12.39,1729420669663.0,0.0
-2.981457,-3.177669,-16.642082,-60.970001,14.49,-3.08,1729420669684.0,0.0
-5.07757,-8.573483,-8.523234,-106.050003,120.610001,22.889999,1729420669707.0,0.0
-5.584848,-23.105095,-3.574877,78.540001,16.940001,20.93,1729420669725.0,0.0
-0.921237,-11.4353,-3.744767,107.940002,-18.27,38.43,1729420669743.0,0.0
1.344766,-5.371887,-6.111269,76.720001,-14.07,25.129999,1729420669762.0,0.0
2.725425,-3.785445,-4.225725,5.11,-8.61,12.95,1729420669784.0,0.0
3.333202,-8.331808,3.668197,-32.41,14.14,34.02,1729420669808.0,0.0
2.447858,-13.356737,9.030513,-39.200001,29.540001,19.6,1729420669824.0,0.0
-0.57667,-11.01177,0.746561,-36.540001,17.92,-15.4,1729420669845.0,0.0
-3.436093,-8.403593,-2.287539,-34.16,44.73,-36.889999,1729420669864.0,0.0
-3.945765,-9.690931,-5.235496,-27.65,54.18,-52.849998,1729420669885.0,0.0
-0.411566,-6.78126,-9.839286,-13.65,-135.940002,-26.25,1729420669910.0,0.0
-0.61017,-2.002793,-11.56451,-37.450001,-138.809998,-0.49,1729420669925.0,0.0
-1.150948,-3.519842,-17.11586,-33.18,-28.49,-12.81,1729420669946.0,0.0
-3.45045,-11.066804,-10.116854,-59.920002,110.529999,27.93,1729420669965.0,0.0
-5.333601,-23.851656,-4.704289,58.170002,58.939999,13.65,1729420669986.0,0.0
-1.871187,-9.209974,-4.098906,112.910004,41.439999,32.060001,1729420670009.0,0.0
0.765703,-4.644469,-5.972485,93.730003,14.49,24.08,1729420670026.0,0.0
2.782853,-2.196611,-4.912465,5.6,-2.87,11.13,1729420670046.0,0.0
3.278167,-7.664211,6.262017,-12.39,20.719999,51.310001,1729420670064.0,0.0
1.837688,-14.165509,9.987641,2.66,25.690001,35.77,1729420670086.0,0.0
-2.529213,-11.669796,2.325824,-16.940001,34.790001,-21.84,1729420670109.0,0.0
-3.584448,-9.389436,-4.498507,-18.34,71.610001,-60.060001,1729420670125.0,0.0
-4.524827,-9.643075,-5.230711,3.99,1.4,-46.759998,1729420670145.0,0.0
-1.028914,-6.941578,-9.760324,23.870001,-142.029999,-29.26,1729420670169.0,0.0
-1.160519,-3.876373,-17.64946,-18.200001,-159.529999,-15.75,1729420670185.0,0.0
-0.770489,-1.741975,-14.943177,-83.580002,-44.240002,-27.09,1729420670207.0,0.0
-5.486742,-20.035103,-1.775474,-54.599998,117.949997,36.470001,1729420670225.0,0.0
-3.046063,-14.605788,-3.586841,81.690002,33.110001,2.94,1729420670245.0,0.0
-0.344566,-5.938986,-5.443672,71.75,35.560001,38.360001,1729420670266.0,0.0
1.880759,-3.821337,-6.427122,42.279999,0.35,7.0,1729420670287.0,0.0
2.684747,-3.893122,-2.105684,-13.65,39.41,36.959999,1729420670308.0,0.0
1.222732,-11.377872,13.921442,-27.65,57.82,46.689999,1729420670325.0,0.0
-1.012164,-14.565112,4.613362,2.87,33.25,19.6,1729420670345.0,0.0
-2.579463,-11.322837,-3.081956,-15.82,45.290001,-47.880001,1729420670367.0,0.0
-3.146562,-9.896714,-6.498906,7.28,32.060001,-52.080002,1729420670387.0,0.0
-2.378466,-8.350951,-5.24746,45.220001,-100.169998,-46.619999,1729420670419.0,0.0
-0.473779,-4.063013,-13.550553,42.700001,-132.160004,-22.469999,1729420670424.0,0.0
-1.141376,-2.641676,-18.135202,1.54,-90.160004,-35.07,1729420670445.0,0.0
-4.587041,-11.198411,-11.083554,-126.139999,124.32,-9.66,1729420670465.0,0.0
-7.977671,-26.038696,-4.62054,-96.32,112.349998,-28.77,1729420670487.0,0.0
-1.911865,-11.140982,-5.266603,101.639999,-3.36,-4.97,1729420670509.0,0.0
0.916451,-4.979464,-6.135197,162.259995,-10.57,15.96,1729420670525.0,0.0
3.773481,0.830309,-6.396015,53.970001,-40.529999,-28.91,1729420670546.0,0.0
4.204189,-6.4678,14.045869,-18.690001,13.02,29.469999,1729420670566.0,0.0
1.852045,-13.105491,9.178867,-31.15,48.23,7.63,1729420670586.0,0.0
-0.624527,-11.243874,0.765703,-27.440001,-14.0,-26.18,1729420670606.0,0.0
-1.622334,-7.420143,0.212961,-18.690001,-5.46,-35.98,1729420670625.0,0.0
-0.997807,-7.745567,-3.165704,-12.88,-26.389999,-26.389999,1729420670644.0,0.0
-0.825524,-9.856036,-7.111469,-29.68,-89.459999,-28.210001,1729420670666.0,0.0
-1.435694,-7.197611,-19.350756,-75.18,-126.209999,-18.129999,1729420670685.0,0.0
-2.928815,-7.286145,-19.16651,-77.910004,-13.51,-19.040001,1729420670706.0,0.0
-5.347959,-12.110075,-10.856236,-20.51,139.089996,24.57,1729420670726.0,0.0
-3.799802,-14.589039,-3.292524,89.18,37.59,24.01,1729420670744.0,0.0
0.272782,-8.042276,-3.95055,54.18,2.59,19.67,1729420670765.0,0.0
2.404787,-5.228317,-6.285945,15.4,0.35,14.14,1729420670785.0,0.0
3.481557,-4.216154,-1.619941,-19.110001,9.24,28.42,1729420670806.0,0.0
3.347559,-10.956735,8.719445,-7.35,39.48,44.66,1729420670827.0,0.0
1.497907,-12.933208,7.520642,35.630001,40.459999,10.01,1729420670845.0,0.0
-2.117648,-8.556733,2.165504,22.68,14.56,-22.75,1729420670865.0,0.0
-2.880959,-7.960921,-3.462414,-8.33,27.370001,-35.77,1729420670885.0,0.0
-2.37368,-9.190832,-7.556533,1.26,-42.279999,-47.599998,1729420670906.0,0.0
-2.550749,-3.775874,-15.924235,-36.68,-154.070007,-10.99,1729420670924.0,0.0
-2.691926,-6.89133,-21.851257,-56.98,-58.170002,-25.690001,1729420670947.0,0.0
-4.577469,-13.878372,-9.518648,-37.59,82.669998,15.61,1729420670964.0,0.0
-2.87378,-18.616161,-4.986642,113.82,23.52,31.08,1729420670985.0,0.0
0.275175,-7.470392,-3.730411,131.809998,24.710001,33.740002,1729420671011.0,0.0
2.22054,-3.622734,-4.113262,67.620003,16.799999,21.0,1729420671024.0,0.0
3.507878,-4.725825,-1.392623,-11.55,-7.91,21.559999,1729420671045.0,0.0
3.524628,-9.676575,4.87418,-57.260002,30.870001,45.43,1729420671067.0,0.0
2.536392,-12.071791,6.699903,-14.63,69.230003,12.74,1729420671084.0,0.0
-1.579263,-9.336794,1.447658,5.25,30.799999,-3.29,1729420671107.0,0.0
-3.852444,-7.786245,-0.22014,-33.040001,61.880001,-31.360001,1729420671125.0,0.0
-4.311867,-10.466206,-3.74716,-50.75,57.610001,-54.25,1729420671145.0,0.0
-2.955136,-11.772687,-8.013563,-14.21,-100.099998,-27.299999,1729420671165.0,0.0
-1.174876,-7.087541,-13.39502,-42.630001,-145.529999,-27.16,1729420671185.0,0.0
-0.722632,-3.909872,-23.825335,-43.540001,-72.730003,-22.540001,1729420671209.0,0.0
-0.349352,-4.290331,-13.27538,53.48,-13.440001,28.98,1729420671225.0,0.0
-1.701297,-13.801801,6.190232,50.189999,67.059998,29.4,1729420671244.0,0.0
-2.447858,-14.177474,-2.201397,-54.25,72.730003,-14.7,1729420671264.0,0.0
0.102891,-9.389436,-5.998806,-52.639999,65.449997,-21.139999,1729420671286.0,0.0
2.136791,-7.9681,-4.252046,0.28,1.61,10.22,1729420671307.0,0.0
3.414558,-8.961121,4.68754,34.509998,-9.66,20.09,1729420671324.0,0.0
1.739582,-9.485149,8.504091,52.849998,11.9,8.54,1729420671346.0,0.0
-2.921637,-7.676175,2.766103,-6.37,49.209999,-34.369999,1729420671364.0,0.0
-3.969693,-8.341379,-4.24726,-42.560001,66.220001,-48.509998,1729420671385.0,0.0
-3.558127,-9.877571,-4.56072,-21.0,-63.0,-48.650002,1729420671406.0,0.0
0.586242,-6.080163,-9.987641,5.6,-171.149994,-17.360001,1729420671426.0,0.0
-0.471386,-4.491328,-21.382261,-7.7,-153.229996,-14.28,1729420671445.0,0.0
-0.229711,-5.084748,-17.082361,-35.77,29.120001,-3.92,1729420671464.0,0.0
-2.167897,-13.306486,-5.333601,-19.18,107.239998,33.389999,1729420671491.0,0.0
-3.682554,-21.004198,-1.878366,99.889999,66.919998,10.29,1729420671505.0,0.0
-0.445065,-6.793223,-5.046463,65.590004,66.639999,17.85,1729420671525.0,0.0
1.418944,-3.505485,-7.580462,15.12,29.610001,6.58,1729420671620.0,0.0
2.184647,-8.688338,12.533605,-18.41,34.439999,32.200001,1729420671621.0,0.0
1.442872,-13.127025,9.95175,63.700001,1.4,31.08,1729420671621.0,0.0
-2.488536,-9.21476,4.462614,11.13,44.939999,-32.27,1729420671621.0,0.0
-2.95035,-7.879565,-1.639083,-41.790001,25.9,-40.459999,1729420671631.0,0.0
-2.612962,-10.279566,-0.892523,-35.07,-69.440002,-49.84,1729420671644.0,0.0
-0.059821,-5.733203,-10.403993,-9.45,-172.830002,-16.870001,1729420671665.0,0.0
-0.303888,-6.489335,-26.409582,8.82,-148.820007,-24.780001,1729420671685.0,0.0
-1.129412,-10.758131,-16.637295,-29.26,72.029999,5.95,1729420671707.0,0.0
-4.749753,-16.163517,-0.18664,-28.700001,125.440002,18.48,1729420671725.0,0.0
-2.708675,-13.24906,-2.457429,84.139999,69.370003,-3.15,1729420671745.0,0.0
0.825524,-6.477371,-7.362715,67.129997,45.639999,15.33,1729420671765.0,0.0
3.369094,-2.115255,-6.104091,-3.92,-4.27,3.08,1729420671786.0,0.0
4.496114,-6.972685,13.445271,-8.12,12.04,50.889999,1729420671807.0,0.0
0.832702,-11.645866,11.507084,31.5,39.689999,23.450001,1729420671827.0,0.0
-4.082155,-8.283953,3.328416,-24.43,57.470001,-45.5,1729420671846.0,0.0
-3.282953,-9.719646,-3.409772,-34.23,61.950001,-42.560001,1729420671865.0,0.0
-1.004985,-8.377272,-9.518648,-22.049999,-153.930008,-23.799999,1729420671896.0,0.0
-0.521635,-6.216553,-23.614769,-26.809999,-176.259995,-2.1,1729420671910.0,0.0
0.071785,-8.315059,-18.235701,5.39,-33.32,1.61,1729420671924.0,0.0
-1.304088,-11.595619,-4.386044,0.56,111.370003,36.889999,1729420671945.0,0.0
-3.35713,-16.950754,-1.325624,31.57,83.860001,15.190001,1729420671966.0,0.0
-0.299103,-8.920443,-5.881558,21.98,54.950001,1.26,1729420671986.0,0.0
1.651048,-5.771489,-7.664211,24.43,21.84,24.85,1729420672011.0,0.0
3.048456,-4.934,0.241675,14.56,14.07,40.110001,1729420672027.0,0.0
2.287539,-10.447062,13.828122,21.84,17.08,54.18,1729420672047.0,0.0
-0.550349,-9.95175,6.427122,3.43,28.07,-7.21,1729420672066.0,0.0
-3.876373,-8.276773,0.098106,-45.639999,27.860001,-33.32,1729420672088.0,0.0
-3.407379,-9.911072,-4.252046,-34.16,16.799999,-36.400002,1729420672109.0,0.0
-2.28036,-7.67139,-5.726025,-6.23,-124.809998,-34.09,1729420672126.0,0.0
-0.940379,-6.762117,-25.830521,-23.870001,-155.960007,-4.83,1729420672147.0,0.0
-1.256232,-8.843873,-13.933406,-9.87,52.779999,39.200001,1729420672166.0,0.0
-3.445665,-14.593824,0.57667,-6.09,107.169998,30.380001,1729420672187.0,0.0
-2.562713,-14.498112,-2.9671,44.170002,69.160004,3.5,1729420672212.0,0.0
0.875773,-7.056434,-8.018349,29.540001,45.009998,20.719999,1729420672227.0,0.0
2.481357,-2.239682,-6.15434,-15.68,26.18,21.98,1729420672247.0,0.0
1.911865,-8.152347,13.371094,12.95,30.870001,62.580002,1729420672268.0,0.0
0.100499,-13.124631,12.736995,4.27,15.96,24.92,1729420672287.0,0.0
-2.768496,-11.803794,3.847659,-47.810001,32.41,-41.439999,1729420672308.0,0.0
-1.722832,-9.205189,-2.847459,-62.439999,-12.53,-56.91,1729420672326.0,0.0
-1.112662,-8.611769,-4.835894,-47.18,-119.699997,-63.279999,1729420672347.0,0.0
0.607777,-4.515256,-12.557532,29.120001,-149.449997,-23.52,1729420672366.0,0.0
0.133998,-3.299703,-24.674786,101.080002,-88.830002,-13.86,1729420672387.0,0.0
-1.85683,-6.585048,-10.475778,-8.82,74.340004,27.719999,1729420672408.0,0.0
-4.378866,-16.773687,-6.936793,-137.130005,126.279999,14.0,1729420672427.0,0.0
-3.948158,-19.992033,-3.292524,-13.02,46.27,-29.26,1729420672447.0,0.0
0.538385,-8.260024,-8.532805,94.150002,50.75,31.290001,1729420672466.0,0.0
2.428715,-0.600598,1.579263,62.299999,17.360001,0.07,1729420672487.0,0.0
0.897308,-5.67099,15.677773,43.259998,22.889999,49.490002,1729420672509.0,0.0
-2.309074,-9.667004,9.946963,-16.66,26.460001,-1.05,1729420672526.0,0.0
-2.368894,-10.191031,0.153141,-88.340004,15.54,-30.59,1729420672546.0,0.0
0.272782,-13.995619,-2.333002,-20.860001,-52.709999,-38.57,1729420672567.0,0.0
1.457229,-8.405986,-11.01177,35.0,-192.289993,3.57,1729420672586.0,0.0
2.22054,-4.642076,-24.485756,18.76,-123.059998,-43.470001,1729420672608.0,0.0
-1.710868,-8.9683,-18.726231,-30.17,101.5,11.27,1729420672627.0,0.0
-5.84088,-16.242479,-1.548156,26.18,175.699997,18.34,1729420672645.0,0.0
-5.742774,-12.68196,-1.311267,63.279999,92.400002,-16.24,1729420672667.0,0.0
-0.863809,-6.089733,-4.180261,25.690001,36.330002,3.85,1729420672688.0,0.0
1.79701,-3.730411,-2.74696,-15.47,-17.5,6.3,1729420672708.0,0.0
1.048056,-5.52742,11.777473,-32.689999,-9.1,43.889999,1729420672727.0,0.0
-1.469193,-8.403593,8.437093,-24.639999,5.39,18.34,1729420672747.0,0.0
-2.756532,-8.075776,-2.222932,-83.790001,33.599998,-33.740002,1729420672767.0,0.0
-2.337788,-11.129018,-6.553941,-66.919998,4.27,-52.43,1729420672786.0,0.0
-0.363709,-6.716653,-12.796815,-18.9,-157.080002,-8.05,1729420672808.0,0.0
-0.569492,-10.222138,-14.806787,24.92,-147.559998,-24.85,1729420672827.0,0.0
-2.533999,-10.365707,-6.85783,-59.5,106.75,7.49,1729420672847.0,0.0
-2.713461,-14.002798,-2.629712,-15.4,56.91,1.4,1729420672866.0,0.0
-0.265603,-9.10469,-4.299902,-11.55,4.48,-7.63,1729420672887.0,0.0
1.0002,-6.321837,-6.73101,-17.780001,12.25,8.96,1729420672910.0,0.0
1.342373,-5.355137,-2.359323,-29.75,26.32,20.65,1729420672926.0,0.0
0.145962,-8.535198,4.448257,-50.330002,56.77,25.34,1729420672947.0,0.0
-1.639083,-12.636496,2.35693,-43.470001,24.290001,3.85,1729420672966.0,0.0
-1.897508,-9.602397,-1.179662,-36.889999,15.96,-17.43,1729420672988.0,0.0
-1.68694,-6.798009,-4.024727,-18.41,-13.23,-17.15,1729420673011.0,0.0
-1.356731,-7.68096,-7.360322,-28.77,-33.110001,-18.129999,1729420673028.0,0.0
-1.4668,-10.411172,-6.630512,-18.549999,-43.119999,-17.710001,1729420673047.0,0.0
-0.971486,-10.255639,-6.819544,44.939999,-41.16,-4.06,1729420673066.0,0.0
-0.318245,-7.939385,-5.98445,80.57,-42.490002,2.73,1729420673086.0,0.0
0.535992,-7.109076,-6.23091,45.150002,-52.639999,-10.08,1729420673108.0,0.0
1.081556,-7.094719,-5.328816,-20.93,-62.23,-12.88,1729420673127.0,0.0
1.153341,-8.958728,-5.345565,-70.489998,-62.650002,-10.01,1729420673146.0,0.0
0.442672,-10.119246,-4.45065,-70.629997,-26.809999,-13.02,1729420673166.0,0.0
-0.37328,-8.023134,-3.663411,-79.730003,-4.62,-20.719999,1729420673186.0,0.0
-0.849452,-7.458428,-4.254438,-104.090004,3.5,-17.219999,1729420673207.0,0.0
-0.880559,-7.704889,-6.381658,-120.82,-10.57,-9.38,1729420673227.0,0.0
-1.40698,-5.546563,-5.414958,-111.580002,-10.78,18.549999,1729420673245.0,0.0
-1.282553,-3.275774,-4.993821,-114.029999,-17.5,43.119999,1729420673267.0,0.0
0.303888,-3.854837,-9.937392,-94.220001,-3.92,75.529999,1729420673288.0,0.0
-0.057428,-5.580062,-11.4018,-100.169998,39.549999,87.290001,1729420673309.0,0.0
-2.074577,-5.771489,-9.810574,-106.260002,60.830002,86.239998,1729420673326.0,0.0
-3.751946,-3.058028,-6.795617,-146.300003,41.509998,74.900002,1729420673346.0,0.0
-3.476771,-5.948557,-8.200203,-158.410004,26.530001,61.740002,1729420673366.0,0.0
-2.806781,-8.001599,-11.227123,-122.43,37.170002,22.4,1729420673386.0,0.0
-2.163112,-6.305088,-12.631711,-52.920002,21.91,21.35,1729420673409.0,0.0
-0.866202,-5.407779,-11.923435,-15.33,-6.23,2.66,1729420673425.0,0.0
0.145962,-7.066005,-11.38505,8.96,-13.79,-26.040001,1729420673446.0,0.0
0.681954,-7.106683,-10.904092,28.49,-10.08,-51.66,1729420673467.0,0.0
0.459422,-5.173282,-5.391029,89.25,-3.85,-65.169998,1729420673486.0,0.0
0.143569,-2.675175,-6.084948,4.13,3.71,-70.209999,1729420673508.0,0.0
0.748954,-4.35733,-10.9352,-45.849998,-1.54,-88.690002,1729420673526.0,0.0
-1.674976,-8.812766,-4.053442,21.0,-10.15,-32.830002,1729420673547.0,0.0
-3.871587,-2.904887,-2.9671,-10.08,23.52,-20.719999,1729420673566.0,0.0
-6.630512,-5.752346,-6.745367,-9.8,68.529999,-1.54,1729420673588.0,0.0
-7.350751,-10.805987,-6.585048,-6.02,29.960001,14.07,1729420673608.0,0.0
-3.768696,-11.205588,-5.960521,18.200001,-4.9,33.110001,1729420673626.0,0.0
-0.868595,-8.587841,-6.135197,54.18,-19.530001,62.02,1729420673647.0,0.0
0.327817,-7.042077,-7.070791,78.540001,4.83,60.689999,1729420673665.0,0.0
0.90688,-4.015156,-7.305287,28.630001,24.219999,87.360001,1729420673689.0,0.0
2.273181,-2.646462,-11.196017,16.66,-35.84,118.160004,1729420673708.0,0.0
4.259224,-2.85703,-14.955141,43.189999,-57.959999,142.449997,1729420673728.0,0.0
3.716053,-4.682754,-10.683953,33.389999,-7.28,151.479996,1729420673745.0,0.0
-0.81356,-7.267002,-5.948557,43.400002,89.040001,116.830002,1729420673766.0,0.0
-4.835894,-6.427122,-7.80778,23.59,122.919998,45.290001,1729420673786.0,0.0
-4.84068,-6.443871,-9.327222,-5.39,47.25,3.92,1729420673817.0,0.0
-0.614955,-8.542377,-8.95155,-27.09,-35.420002,-37.450001,1729420673826.0,0.0
0.122034,-6.958328,-5.180461,-10.15,-55.510002,-91.980003,1729420673845.0,0.0
0.20339,-6.91765,-5.501099,0.35,-24.92,-115.5,1729420673865.0,0.0
0.27996,-2.98385,-11.88515,-25.969999,28.98,-112.07,1729420673887.0,0.0
-0.981057,-1.801795,-10.887343,-8.68,48.16,-79.449997,1729420673907.0,0.0
-2.486143,-2.055435,-7.147361,-59.920002,14.21,-76.440002,1729420673924.0,0.0
-2.835495,-4.455436,-11.617154,-98.349998,27.860001,-71.540001,1729420673947.0,0.0
-1.438086,-6.975078,-4.517649,-78.889999,-49.560001,-46.34,1729420673967.0,0.0
-0.062213,-8.322237,-5.60399,-94.709999,-69.300003,-32.619999,1729420673987.0,0.0
-3.488736,-10.782058,-5.565705,-36.959999,3.57,-0.49,1729420674014.0,0.0
-7.077969,-8.724231,-5.446064,45.920002,68.040001,17.780001,1729420674025.0,0.0
-7.67139,-6.54437,-4.108476,93.590004,49.349998,47.389999,1729420674046.0,0.0
-4.204189,-7.058826,-9.332008,70.559998,4.76,73.779999,1729420674065.0,0.0
-1.227518,-6.202196,-9.200402,45.779999,-46.34,76.300003,1729420674085.0,0.0
0.464208,-7.161718,-12.88535,71.959999,-17.290001,103.32,1729420674109.0,0.0
3.067599,-4.266403,-11.930614,101.360001,-71.540001,121.379997,1729420674126.0,0.0
4.04387,-4.189832,-10.734202,164.360001,-78.120003,135.100006,1729420674146.0,0.0
2.086541,-4.316652,-7.441679,124.25,6.65,113.959999,1729420674165.0,0.0
-2.117648,-4.864608,-4.118048,54.670002,93.590004,44.240002,1729420674186.0,0.0
-5.601598,-6.965507,-4.656433,-48.860001,96.459999,-28.84,1729420674207.0,0.0
-4.144369,-10.059426,-8.906086,-100.239998,28.49,-88.690002,1729420674227.0,0.0
-0.251246,-8.755339,-9.200402,-87.709999,-72.660004,-104.370003,1729420674245.0,0.0
1.428515,-6.520442,-8.171489,-56.209999,-86.730003,-109.760002,1729420674265.0,0.0
1.574477,-4.76411,-7.740781,-63.420002,-52.920002,-136.639999,1729420674286.0,0.0
1.505085,-1.947758,-9.212367,-109.340004,-9.45,-134.889999,1729420674309.0,0.0
0.459422,-3.48395,-9.896714,-141.119995,30.799999,-115.080002,1729420674325.0,0.0
-2.579463,-7.874779,-9.157332,-126.910004,64.610001,-62.09,1729420674347.0,0.0
-5.075177,-10.396815,-2.323431,-78.75,37.170002,-38.360001,1729420674366.0,0.0
-6.640083,-14.356936,-0.07657,-26.389999,-1.68,-38.360001,1729420674386.0,0.0
-4.886144,-14.615361,-8.413164,60.900002,0.91,6.37,1729420674408.0,0.0
-4.15394,-5.836094,-9.355937,164.639999,32.619999,63.98,1729420674425.0,0.0
-4.974678,-2.634498,-6.786045,186.830002,44.310001,113.540001,1729420674446.0,0.0
-3.732803,-3.471986,-10.078569,102.480003,-7.77,101.5,1729420674465.0,0.0
5.71406,-7.034898,-16.048662,53.130001,-87.849998,84.349998,1729420674487.0,0.0
5.69731,-5.407779,-12.550355,175.070007,-85.75,170.660004,1729420674508.0,0.0
1.832902,-3.105884,-6.903293,186.899994,49.07,99.889999,1729420674525.0,0.0
-3.479164,-6.630512,-5.826523,189.979996,134.539993,63.349998,1729420674547.0,0.0
-5.568098,-1.816152,-5.632704,120.610001,77.629997,46.060001,1729420674565.0,0.0
-4.275974,-3.574877,-1.241875,15.75,-38.5,16.309999,1729420674585.0,0.0
-1.598405,-6.003592,-4.582255,-85.330002,-29.68,-54.389999,1729420674607.0,0.0
-1.043271,-7.429714,-5.491528,-166.460007,-11.97,-98.0,1729420674626.0,0.0
-0.272782,-9.870394,-7.702496,-180.949997,-15.4,-125.300003,1729420674644.0,0.0
0.294317,-7.893922,-10.607382,-183.330002,-25.41,-136.779999,1729420674665.0,0.0
0.327817,-5.486742,-8.733803,-193.270004,-34.439999,-130.130005,1729420674685.0,0.0
0.229711,-5.730811,-7.750352,-245.979996,-42.91,-120.120003,1729420674707.0,0.0
0.425922,-8.477771,-12.859028,-266.279999,-17.99,-141.680008,1729420674726.0,0.0
-2.380858,-11.887544,-8.520842,-51.170002,38.779999,11.34,1729420674745.0,0.0
-2.249253,-9.35833,-1.043271,91.910004,19.6,18.969999,1729420674766.0,0.0
-5.417351,-9.461221,0.16989,8.33,26.809999,10.01,1729420674787.0,0.0
-5.479564,-11.643474,-9.221939,58.52,73.849998,9.03,1729420674806.0,0.0
-5.106283,-8.082954,-8.726624,138.880005,38.009998,69.580002,1729420674826.0,0.0
-2.376073,-5.271388,-9.786645,175.630005,-3.43,109.059998,1729420674845.0,0.0
0.643669,-2.718246,-13.560125,115.5,-36.119999,104.790001,1729420674865.0,0.0
3.002992,-3.424129,-14.735002,128.100006,-50.610001,130.690002,1729420674886.0,0.0
3.005385,-4.328616,-9.930215,191.729996,-28.0,109.690002,1729420674910.0,0.0
0.710668,-5.79063,-5.618347,195.160004,27.02,81.059998,1729420674926.0,0.0
-2.502892,-2.155933,-3.768696,126.07,43.330002,55.16,1729420674945.0,0.0
-5.364708,-3.538985,0.265603,-8.19,16.66,-8.05,1729420674965.0,0.0
-2.158326,-6.881758,-6.250053,-142.380005,-11.9,-79.870003,1729420674986.0,0.0
-0.437887,-7.037291,-8.712267,-210.770004,-47.599998,-122.5,1729420675009.0,0.0
0.677169,-7.692925,-7.814958,-221.759995,-85.120003,-153.509995,1729420675025.0,0.0
1.835295,-8.939585,-7.903493,-209.089996,-93.730003,-177.729996,1729420675045.0,0.0
1.749153,-8.772088,-10.820344,-251.369995,-64.75,-165.059998,1729420675066.0,0.0
2.340181,-7.482357,-12.181859,-204.539993,-37.73,-135.169998,1729420675087.0,0.0
0.234497,-6.173482,-9.032906,-36.540001,9.66,-65.940002,1729420675106.0,0.0
-3.259024,-7.259824,-4.84068,30.59,66.709999,-61.18,1729420675125.0,0.0
-9.60479,-13.373486,-2.816352,-21.77,111.790001,-38.639999,1729420675146.0,0.0
-6.223732,-10.200603,-8.961121,47.880001,42.349998,-17.01,1729420675166.0,0.0
-2.203789,-3.881158,-8.353344,217.699997,-1.96,82.18,1729420675186.0,0.0
-3.125026,-2.790031,-5.383851,161.979996,7.35,111.230003,1729420675208.0,0.0
-1.45005,-5.625526,-12.12204,93.099998,53.41,87.080002,1729420675226.0,0.0
1.052842,-4.228118,-13.842479,82.879997,-3.22,98.629997,1729420675246.0,0.0
3.778267,-4.266403,-14.014762,139.580002,-52.779999,138.389999,1729420675266.0,0.0
3.538985,-3.218346,-10.691131,162.820007,-15.75,119.840004,1729420675285.0,0.0
-0.634098,-6.235696,-4.036692,150.919998,55.23,82.669998,1729420675306.0,0.0
-2.847459,-5.941379,-3.005385,97.090004,74.550003,26.6,1729420675325.0,0.0
-4.113262,-5.735595,0.01675,4.27,1.47,-10.64,1729420675345.0,0.0
-0.409173,-7.463214,-2.120041,-123.830002,-65.239998,-85.540001,1729420675365.0,0.0
1.665405,-9.554541,-5.314459,-216.509995,-100.379997,-138.039993,1729420675386.0,0.0
2.837888,-10.925629,-8.377272,-245.139999,-90.720001,-176.539993,1729420675406.0,0.0
2.40718,-7.168896,-10.865808,-224.490005,-38.639999,-176.610001,1729420675425.0,0.0
1.012164,-2.426322,-13.940585,-182.350006,1.89,-151.339996,1729420675446.0,0.0
-0.200997,-7.286145,-9.810574,-66.57,46.060001,-92.68,1729420675466.0,0.0
-2.301895,-9.224331,-2.507678,-49.700001,30.1,-38.43,1729420675485.0,0.0
-8.054241,-17.694923,-4.175476,-87.080002,14.84,-33.529999,1729420675506.0,0.0
-7.04447,-10.743774,-7.286145,136.639999,45.360001,16.379999,1729420675524.0,0.0
-4.345366,-1.986043,-8.056634,235.270004,38.220001,87.220001,1729420675544.0,0.0
-5.462814,-1.414158,-2.306681,203.839996,16.59,105.07,1729420675564.0,0.0
-3.546163,-7.025328,-5.237889,73.989998,48.02,69.230003,1729420675585.0,0.0
-0.794417,-6.553941,-11.088341,-36.540001,16.1,52.43,1729420675607.0,0.0
2.22054,-4.364508,-10.19821,39.549999,-37.450001,108.080002,1729420675628.0,0.0
4.73061,-2.493321,-13.146168,102.129997,-59.57,137.479996,1729420675644.0,0.0
2.935993,-3.531806,-10.116854,112.770004,24.43,115.849998,1729420675666.0,0.0
-1.51705,-7.970492,-7.211967,113.68,90.370003,88.970001,1729420675686.0,0.0
-3.211168,-5.869594,-4.438686,91.349998,54.950001,54.25,1729420675708.0,0.0
-2.306681,-5.438886,-2.208575,22.610001,-20.58,33.25,1729420675725.0,0.0
-0.346959,-6.482157,-2.505285,-76.650002,-51.380001,-23.73,1729420675744.0,0.0
0.985843,-8.126025,-5.919843,-173.180008,-41.09,-81.129997,1729420675767.0,0.0
0.899701,-9.896714,-9.099905,-230.930008,-26.110001,-122.43,1729420675785.0,0.0
1.179662,-10.351351,-11.64826,-218.190002,-26.809999,-156.029999,1729420675809.0,0.0
0.993021,-7.415358,-10.442278,-157.220001,-51.869999,-134.259995,1729420675824.0,0.0
1.122234,-11.198411,-10.741381,-100.379997,-49.91,-92.68,1729420675846.0,0.0
0.31346,-5.063213,-9.580862,-105.0,31.639999,-37.240002,1729420675864.0,0.0
-2.409572,-10.102496,-4.395615,-49.91,28.630001,-18.76,1729420675885.0,0.0
-5.300103,-16.835899,-2.096112,-33.670002,74.269997,-29.82,1729420675908.0,0.0
-6.884151,-11.416157,-5.67099,94.080002,71.82,-2.66,1729420675924.0,0.0
-6.319445,-3.0006,-5.163712,206.430008,33.670002,68.669998,1729420675946.0,0.0
-5.347959,-0.18664,-5.687739,197.119995,4.48,107.099998,1729420675964.0,0.0
-3.290131,-2.287539,-6.582655,89.669998,-0.49,71.75,1729420675985.0,0.0
-1.251446,-5.726025,-11.586047,-21.559999,7.14,67.129997,1729420676011.0,0.0
2.053042,-5.771489,-13.347164,16.870001,-16.66,85.610001,1729420676024.0,0.0
2.634498,-3.273381,-13.627125,103.389999,-54.389999,114.169998,1729420676046.0,0.0
3.098706,-3.084348,-10.387242,170.240005,4.48,66.919998,1729420676064.0,0.0
-1.538585,-5.9677,-5.804988,159.320007,47.040001,74.690002,1729420676084.0,0.0
-1.969293,-7.049256,-4.634897,164.080002,18.969999,31.01,1729420676107.0,0.0
-1.143769,-7.290931,-3.503092,136.080002,-39.27,19.110001,1729420676126.0,0.0
-1.521835,-6.539584,-1.868794,38.43,-62.16,-23.17,1729420676144.0,0.0
-0.916451,-7.180861,-4.953143,-98.559998,-53.34,-77.699997,1729420676165.0,0.0
-1.143769,-9.442079,-5.632704,-210.630005,-70.840004,-114.730003,1729420676186.0,0.0
1.545763,-8.640482,-9.19801,-195.580002,-35.700001,-138.809998,1729420676207.0,0.0
0.949951,-6.798009,-9.169296,-192.710007,-27.51,-114.800003,1729420676225.0,0.0
1.22034,-4.252046,-8.898908,-292.73999,-23.73,-118.020004,1729420676244.0,0.0
-0.753739,-9.628718,-12.897314,-289.23999,24.780001,-32.200001,1729420676266.0,0.0
-2.476572,-15.177674,-7.515855,-88.900002,20.65,10.85,1729420676286.0,0.0
-2.478964,-15.601204,-3.548556,62.860001,-2.73,2.1,1729420676306.0,0.0
-2.794817,-11.13859,-6.573084,159.880005,35.209999,30.73,1729420676325.0,0.0
-4.962714,-6.601797,-6.233303,207.270004,56.560001,57.540001,1729420676344.0,0.0
-7.262216,-7.130611,-3.811767,232.330002,47.25,86.239998,1729420676366.0,0.0
-3.948158,-7.118648,-7.415358,200.339996,6.51,74.129997,1729420676384.0,0.0
-0.543171,-3.625126,-12.416357,141.399994,-27.299999,76.019997,1729420676408.0,0.0
1.397408,-0.617348,-12.574283,129.430008,-42.77,74.970001,1729420676426.0,0.0
2.411965,-2.053042,-11.866007,135.169998,-10.22,63.349998,1729420676444.0,0.0
0.770489,-3.017349,-7.719246,81.970001,40.810001,57.610001,1729420676467.0,0.0
-2.713461,-7.556533,-4.010371,41.02,47.670002,47.670002,1729420676485.0,0.0
-3.991228,-6.872187,-1.165305,11.34,15.12,4.55,1729420676508.0,0.0
-1.651048,-5.965307,-2.98385,-96.739998,-59.920002,-58.380001,1729420676525.0,0.0
-0.136391,-5.761917,-5.123034,-206.710007,-86.029999,-105.07,1729420676597.0,0.0
1.007378,-6.132804,-7.69771,-304.079987,-101.080002,-142.520004,1729420676599.0,0.0
3.101098,-6.096912,-13.481163,-339.779999,-90.580002,-167.789993,1729420676654.0,0.0
3.108276,-6.958328,-13.995619,-275.869995,-70.629997,-141.050003,1729420676657.0,0.0
2.888137,-11.265409,-11.32523,-140.630005,-10.01,-68.529999,1729420676658.0,0.0
0.229711,-12.076575,-11.339586,-30.1,61.110001,16.309999,1729420676658.0,0.0
-4.201797,-13.500306,-6.080163,17.57,112.559998,-3.71,1729420676663.0,0.0
-7.125826,-17.656639,-3.06042,128.380005,71.959999,-14.49,1729420676684.0,0.0
-4.395615,-8.571091,-6.685547,233.729996,9.31,42.84,1729420676706.0,0.0
-5.448457,-2.770889,-4.881358,257.25,-11.2,80.989998,1729420676724.0,0.0
-4.831109,-1.694118,-6.678369,172.830002,34.369999,39.900002,1729420676744.0,0.0
-3.35713,-3.737589,-9.329616,58.450001,48.23,23.870001,1729420676764.0,0.0
-1.160519,-6.037091,-9.150154,20.299999,5.46,30.799999,1729420676784.0,0.0
1.713261,-4.821537,-9.784252,44.59,-9.87,50.330002,1729420676805.0,0.0
1.229911,-4.649254,-7.525427,54.32,-22.33,48.16,1729420676824.0,0.0
1.112662,-6.075377,-7.226324,21.280001,13.72,22.33,1729420676844.0,0.0
-0.76331,-8.279166,-5.24746,34.09,15.89,20.860001,1729420676864.0,0.0
-1.816152,-5.690133,-4.04387,43.400002,18.76,30.24,1729420676889.0,0.0
-2.380858,-3.52702,-3.584448,-3.78,0.14,28.77,1729420676911.0,0.0
-1.284946,-4.278367,-6.082555,-82.18,5.18,3.08,1729420676923.0,0.0
-0.727418,-6.855437,-7.118648,-112.209999,11.55,-20.790001,1729420676951.0,0.0
-0.504886,-9.525827,-8.745767,-118.93,-11.76,-25.9,1729420676964.0,0.0
0.138784,-8.671589,-10.021141,-118.090004,-39.060001,-7.49,1729420676985.0,0.0
0.454636,-8.714661,-8.587841,-69.93,-43.330002,4.97,1729420677008.0,0.0
-0.342174,-8.49452,-5.4006,-48.369999,-0.21,-3.85,1729420677025.0,0.0
-1.457229,-4.895715,-8.372486,-107.520004,54.110001,-8.61,1729420677044.0,0.0
-2.100898,-11.992826,-7.116255,-56.279999,51.52,10.71,1729420677082.0,0.0
-1.002593,-15.433706,-4.010371,0.77,-23.17,6.37,1729420677088.0,0.0
-2.309074,-9.267403,-4.651647,53.900002,-22.469999,44.450001,1729420677108.0,0.0
-4.453043,-6.793223,-5.804988,112.840004,19.32,25.9,1729420677147.0,0.0
-6.838687,-5.07757,-3.883551,113.82,44.170002,23.309999,1729420677148.0,0.0
-5.606383,-4.73061,-5.694918,-45.990002,-12.32,4.06,1729420677168.0,0.0
-2.354537,-4.21376,-9.183653,-118.580002,-34.02,0.35,1729420677202.0,0.0
1.18684,-3.122634,-13.122239,-68.809998,-32.549999,1.75,1729420677211.0,0.0
0.660419,-2.538785,-11.169697,-15.05,-26.110001,25.34,1729420677223.0,0.0
-0.681954,-1.74676,-8.496914,-8.96,4.62,12.95,1729420677250.0,0.0
-2.59382,-3.089134,-7.56132,-46.41,18.129999,16.1,1729420677269.0,0.0
-2.952743,-4.378866,-6.032306,-56.209999,13.65,7.7,1729420677287.0,0.0
-2.148755,-6.017949,-6.79083,-45.57,17.08,3.01,1729420677372.0,0.0
-2.139183,-5.233103,-8.980263,-87.290001,15.26,-5.74,1729420677373.0,0.0
-0.904487,-5.673382,-10.214959,-96.879997,-2.31,6.65,1729420677374.0,0.0
0.471386,-9.257831,-8.772088,-61.25,-17.710001,35.279999,1729420677375.0,0.0
0.803988,-11.92822,-7.903493,-46.27,-13.37,45.5,1729420677387.0,0.0
-0.227318,-11.925828,-9.351151,-30.17,17.92,47.25,1729420677405.0,0.0
-1.124627,-10.279566,-11.308479,38.639999,49.0,37.59,1729420677425.0,0.0
-1.596013,-6.750153,-10.437491,97.019997,44.869999,37.310001,1729420677444.0,0.0
-0.945165,-6.051448,-7.716853,127.470001,2.1,20.440001,1729420677464.0,0.0
0.119641,-4.862216,-7.970492,81.620003,-25.059999,-3.36,1729420677485.0,0.0
0.820738,-5.632704,-7.4345,65.730003,-26.809999,-19.25,1729420677506.0,0.0
-0.112463,-5.905487,-6.613762,37.240002,-10.64,-40.599998,1729420677525.0,0.0
-2.940779,-3.050849,-8.65484,-62.439999,38.920002,-74.410004,1729420677546.0,0.0
-7.941778,0.198604,-9.47797,-109.270004,55.790001,-65.099998,1729420677565.0,0.0
-10.478169,-1.916651,-4.859823,-76.790001,3.71,-34.860001,1729420677585.0,0.0
-7.740781,-8.303094,-2.371287,-62.16,-33.670002,-21.77,1729420677607.0,0.0
-4.13719,-8.312666,-4.680361,1.75,0.56,-7.42,1729420677626.0,0.0
-4.393222,-8.475377,-6.735795,109.059998,67.480003,29.33,1729420677644.0,0.0
-4.165904,-7.805387,-7.530212,129.570007,91.699997,37.380001,1729420677671.0,0.0
-3.56052,-8.530413,-5.919843,86.870003,45.779999,66.150002,1729420677685.0,0.0
-0.248854,-4.067799,-6.943972,29.190001,-30.030001,74.900002,1729420677708.0,0.0
3.270989,-0.320638,-9.698111,15.26,-105.419998,86.099998,1729420677726.0,0.0
3.881158,-2.445465,-7.221539,15.68,-82.879997,102.620003,1729420677744.0,0.0
3.065206,-4.563113,-10.944772,-50.959999,47.459999,68.809998,1729420677764.0,0.0
-4.089334,-12.856635,-9.879964,-53.200001,112.910004,31.57,1729420677785.0,0.0
-4.074977,-9.286544,-9.06162,10.08,23.309999,3.5,1729420677807.0,0.0
-0.851845,-6.78126,-9.236296,11.69,-48.509998,-27.860001,1729420677824.0,0.0
1.040878,-8.044669,-11.313265,1.19,-42.420002,-80.989998,1729420677844.0,0.0
0.468993,-7.56132,-9.265009,31.01,-17.15,-113.68,1729420677864.0,0.0
-0.507278,-4.553542,-3.850052,39.619999,-8.61,-121.800003,1729420677885.0,0.0
-0.882952,-3.60359,-3.907479,10.5,-12.81,-113.470001,1729420677906.0,0.0
0.174676,-0.117248,-9.394222,-89.040001,12.32,-117.529999,1729420677924.0,0.0
-1.301696,-4.319045,-9.980463,-145.529999,30.870001,-81.269997,1729420677944.0,0.0
-3.034099,-5.414958,-10.911271,-164.710007,29.120001,-48.23,1729420677964.0,0.0
-5.838487,-10.202995,-1.773082,-18.620001,-18.27,-7.0,1729420677984.0,0.0
-7.609176,-10.399208,-1.124627,-13.72,-2.94,17.01,1729420678008.0,0.0
-7.903493,-12.145968,-6.171089,50.610001,28.139999,35.98,1729420678025.0,0.0
-4.804788,-9.645468,-9.444471,110.879997,52.639999,55.860001,1729420678046.0,0.0
-3.172883,-7.750352,-6.549156,98.980003,-4.69,82.389999,1729420678065.0,0.0
-0.181855,-5.606383,-10.923235,40.529999,-43.959999,89.879997,1729420678085.0,0.0
4.991428,-2.275574,-13.9358,65.519997,-126.139999,103.040001,1729420678108.0,0.0
4.366901,0.672383,-9.044869,130.479996,-52.639999,116.900002,1729420678124.0,0.0
1.337588,-0.59342,-7.719246,84.699997,84.419998,52.990002,1729420678145.0,0.0
-4.704289,-5.063213,-4.656433,-8.19,120.540001,40.18,1729420678165.0,0.0
-5.788238,-8.839087,-4.878965,-55.860001,56.209999,-10.99,1729420678186.0,0.0
-3.359523,-9.556933,-7.834101,-108.220001,-26.880001,-45.709999,1729420678209.0,0.0
-0.825524,-9.982857,-9.95175,-69.510002,-35.209999,-66.709999,1729420678225.0,0.0
-1.316052,-8.82473,-7.140182,-24.99,-13.09,-66.639999,1729420678245.0,0.0
-1.835295,-7.467999,-6.537192,-32.130001,-6.37,-58.59,1729420678265.0,0.0
-1.433301,-6.26441,-7.817351,-48.720001,-17.92,-63.700001,1729420678285.0,0.0
-2.141576,-7.523034,-5.661418,-24.92,-2.24,-38.779999,1729420678308.0,0.0
-2.17029,-8.070991,-7.700103,3.43,20.93,-10.78,1729420678326.0,0.0
-3.012564,-6.970293,-6.24766,17.219999,6.44,-4.76,1729420678346.0,0.0
-2.299503,-6.195018,-7.743174,5.88,3.78,3.64,1729420678365.0,0.0
-0.801596,-6.199803,-10.705488,-9.31,-15.68,-6.44,1729420678385.0,0.0
-0.01675,-7.676175,-9.688539,-10.01,-17.57,-28.77,1729420678407.0,0.0
0.540778,-5.520242,-10.492528,-11.69,-11.34,-47.110001,1729420678426.0,0.0
1.366302,-3.440879,-7.501499,19.25,-15.190001,-61.880001,1729420678446.0,0.0
0.878166,-3.869194,-4.237689,-65.800003,-43.119999,-64.260002,1729420678466.0,0.0
-2.354537,-5.718846,-5.781059,-162.119995,26.32,-47.18,1729420678485.0,0.0
-7.513463,-11.454442,-5.694918,-98.209999,76.860001,-63.279999,1729420678508.0,0.0
-9.413363,-8.611769,-6.649654,-26.460001,30.24,-44.869999,1729420678525.0,0.0
-5.831308,-4.256832,-6.757331,22.889999,-27.16,5.74,1729420678545.0,0.0
-5.338387,-7.843673,-5.656632,49.630001,-4.69,32.970001,1729420678565.0,0.0
-4.816752,-8.662018,-6.489335,38.639999,54.32,15.61,1729420678585.0,0.0
-3.756732,-8.989835,-8.118847,45.150002,20.51,39.759998,1729420678608.0,0.0
-1.426122,-5.417351,-9.994821,23.799999,-34.02,46.48,1729420678627.0,0.0
2.455036,-0.782453,-16.919647,13.93,-97.019997,80.43,1729420678645.0,0.0
6.226124,0.349352,-14.969498,85.400002,-134.539993,120.610001,1729420678665.0,0.0
3.67059,-0.356531,-8.975478,184.940002,-16.030001,127.610001,1729420678685.0,0.0
-1.921437,-2.258825,-6.226124,141.539993,89.459999,73.709999,1729420678706.0,0.0
-3.742374,-4.493721,-4.106083,45.849998,24.15,44.380001,1729420678725.0,0.0
-0.837488,-7.271788,-5.070391,-56.560001,-51.799999,6.79,1729420678745.0,0.0
-1.150948,-9.839286,-6.13759,-125.580002,-52.849998,-42.07,1729420678765.0,0.0
-3.158526,-13.560125,-8.38445,-107.449997,24.57,-80.360001,1729420678785.0,0.0
-2.866602,-12.459428,-8.776874,-4.06,23.52,-117.529999,1729420678809.0,0.0
-1.828116,-8.80798,-8.573483,55.299999,-1.47,-102.830002,1729420678825.0,0.0
-0.473779,-4.948357,-9.315259,95.830002,-10.5,-73.080002,1729420678845.0,0.0
-0.023928,-4.888536,-7.819745,123.620003,-11.06,-51.240002,1729420678865.0,0.0
-1.172483,-6.104091,-5.733203,111.090004,9.87,-40.32,1729420678885.0,0.0
-2.467,-7.168896,-6.017949,120.75,40.18,-26.950001,1729420678906.0,0.0
-3.704089,-7.4345,-4.632504,162.610001,27.23,-17.710001,1729420678926.0,0.0
-3.553342,-8.154739,-4.919643,194.460007,10.78,-3.01,1729420678944.0,0.0
-2.440679,-5.886343,-4.311867,150.220001,19.460001,-18.27,1729420678965.0,0.0
-2.524428,-4.366901,-4.185047,31.92,19.110001,-5.81,1729420678993.0,0.0
-2.68714,-5.778666,-5.240282,-60.900002,8.4,-9.87,1729420679011.0,0.0
-2.723032,-8.578269,-5.773881,-40.599998,10.57,0.84,1729420679025.0,0.0
-2.189433,-8.55434,-6.04427,41.23,0.91,13.93,1729420679052.0,0.0
-1.545763,-7.243074,-5.931807,94.290001,4.41,21.280001,1729420679066.0,0.0
-1.526621,-7.869993,-5.020142,93.590004,5.46,27.860001,1729420679085.0,0.0
-1.442872,-11.169697,-3.761517,92.330002,9.24,35.560001,1729420679106.0,0.0
-1.098306,-10.581062,-1.579263,99.959999,-20.860001,33.529999,1729420679125.0,0.0
-0.526421,-11.006985,-2.758924,123.550003,-16.66,34.299999,1729420679145.0,0.0
-0.952343,-13.820943,-1.495514,213.710007,0.63,44.939999,1729420679166.0,0.0
-1.119841,-11.612368,-1.306481,293.089996,1.12,33.25,1729420679187.0,0.0
-2.067399,-11.985649,0.526421,337.190002,2.45,30.380001,1729420679208.0,0.0
0.124427,-13.58166,-3.115455,377.160004,14.56,40.599998,1729420679226.0,0.0
1.002593,-15.402599,-2.146362,504.630005,12.6,71.470001,1729420679245.0,0.0
1.18684,-17.333607,-2.287539,628.530029,-7.91,57.119999,1729420679266.0,0.0
0.803988,-12.141183,1.804188,726.25,-21.559999,25.27,1729420679286.0,0.0
1.055235,-1.339981,6.345766,687.75,-51.73,-16.940001,1729420679307.0,0.0
-0.112463,4.919643,11.80858,512.75,-34.439999,-78.959999,1729420679328.0,0.0
-4.26401,-0.212961,10.502099,226.309998,39.549999,-112.0,1729420679400.0,0.0
-6.915257,-6.058627,3.988836,66.43,81.199997,-141.539993,1729420679448.0,0.0
-7.838887,-2.206182,6.017949,105.209999,75.040001,-91.0,1729420679449.0,0.0
-6.687939,-0.665205,6.565905,56.98,54.529999,-98.279999,1729420679449.0,0.0
-5.570491,-0.643669,7.101898,55.369999,36.470001,-82.599998,1729420679449.0,0.0
-4.072584,1.698904,8.123632,59.639999,8.61,-40.599998,1729420679450.0,0.0
-3.589234,2.333002,9.363115,27.370001,-8.75,-8.89,1729420679488.0,0.0
-3.67059,-0.026321,7.948956,-23.59,4.97,-1.26,1729420679489.0,0.0
-3.878766,-1.875973,5.594419,-38.360001,12.04,20.93,1729420679513.0,0.0
-3.304488,-3.072384,6.034698,-16.309999,-2.24,39.830002,1729420679532.0,0.0
-3.57727,-4.907679,6.805188,1.33,-6.09,41.299999,1729420679553.0,0.0
-7.329216,-13.586447,12.210573,31.639999,11.06,25.620001,1729420679567.0,0.0
-7.223931,-13.840086,12.363714,64.260002,2.87,-26.25,1729420679587.0,0.0
0.157926,-0.339781,9.958927,86.870003,-58.73,-5.46,1729420679724.0,0.0
0.102891,-1.847259,7.259824,16.59,-73.639999,-2.8,1729420679741.0,0.0
-1.103091,-0.050249,8.963513,-52.5,-7.77,-62.650002,1729420679741.0,0.0
-0.823131,2.510071,8.865408,-41.16,-9.94,-52.5,1729420679741.0,0.0
0.445065,4.321437,5.245068,-25.059999,-14.42,-33.740002,1729420679741.0,0.0
-0.899701,3.029313,7.267002,-31.639999,-9.31,-11.83,1729420679742.0,0.0
-1.722832,0.052642,5.860023,-40.040001,18.129999,23.52,1729420679749.0,0.0
-1.878366,-0.418744,1.325624,-46.619999,49.560001,20.299999,1729420679768.0,0.0
-2.383251,-2.215754,2.739782,-39.689999,60.830002,47.599998,1729420679786.0,0.0
-4.852644,-8.293523,9.018548,9.38,34.16,70.699997,1729420679811.0,0.0
-14.421541,-17.704494,20.492134,137.339996,57.400002,31.5,1729420679830.0,0.0
-8.432307,-8.834301,20.157139,155.539993,-53.900002,12.81,1729420679847.0,0.0
4.663611,-1.069592,12.708281,43.119999,-106.120003,-16.450001,1729420679865.0,0.0
-2.002793,-2.024328,10.100104,-40.670002,18.48,2.73,1729420679886.0,0.0
-6.324231,-5.221139,8.46102,-63.349998,45.920002,-28.98,1729420679911.0,0.0
-3.706482,-0.739382,7.412964,7.0,-7.98,-53.060001,1729420679942.0,0.0
-3.419343,1.064806,10.083356,18.41,-52.990002,-33.950001,1729420679946.0,0.0
-1.349552,1.938186,8.133204,-23.799999,-26.389999,-47.529999,1729420679975.0,0.0
-0.839881,3.364309,6.537192,-43.82,-10.99,-19.879999,1729420679986.0,0.0
-1.141376,3.555735,5.292924,-73.150002,2.66,-2.17,1729420680014.0,0.0
-2.938386,-3.335595,5.687739,-93.800003,31.92,-9.1,1729420680026.0,0.0
-2.610569,-3.711268,2.574677,-65.660004,56.139999,-6.09,1729420680046.0,0.0
-0.866202,-1.753939,3.718446,12.81,23.73,25.200001,1729420680067.0,0.0
-1.428515,-3.773481,6.163911,13.93,34.860001,36.400002,1729420680086.0,0.0
-9.028119,-15.873986,15.675381,66.360001,67.129997,14.07,1729420680107.0,0.0
-9.152546,-12.184253,16.438692,126.279999,48.860001,-27.93,1729420680126.0,0.0
-0.468993,-0.708275,13.533805,107.099998,-86.029999,6.93,1729420680145.0,0.0
0.272782,-0.502493,13.048061,11.83,-62.439999,-13.65,1729420680165.0,0.0
-4.005585,0.131605,8.587841,-48.720001,18.690001,-47.740002,1729420680186.0,0.0
-4.572684,0.708275,9.525827,-33.880001,-26.950001,-34.23,1729420680206.0,0.0
-1.244268,0.674776,5.757132,-43.68,-31.43,-48.509998,1729420680225.0,0.0
-1.244268,3.491128,4.926822,-27.790001,-23.24,-14.21,1729420680246.0,0.0
-0.722632,4.268795,4.323831,-36.82,1.4,0.77,1729420680265.0,0.0
-2.029114,-0.323031,6.21416,-50.189999,29.610001,8.96,1729420680286.0,0.0
-2.002793,-1.308874,1.634298,-69.160004,63.84,19.6,1729420680308.0,0.0
-1.366302,-0.346959,0.739382,-38.779999,55.580002,45.990002,1729420680325.0,0.0
-2.878566,-4.177868,4.926822,-23.24,54.880001,59.920002,1729420680347.0,0.0
-6.69751,-9.779467,10.691131,0.07,79.660004,61.529999,1729420680369.0,0.0
-18.644875,-15.309279,19.436897,75.809998,73.080002,33.599998,1729420680388.0,0.0
-2.160719,-5.345565,15.809379,76.230003,-115.080002,15.4,1729420680409.0,0.0
1.258625,-2.091327,14.084153,-20.790001,-86.940002,-2.87,1729420680427.0,0.0
-4.725825,-5.541777,10.978271,-83.580002,28.559999,-24.710001,1729420680446.0,0.0
-5.228317,-3.562913,6.041877,-48.09,24.15,-62.790001,1729420680466.0,0.0
-4.146761,0.949951,9.205189,30.030001,-79.660004,-10.22,1729420680487.0,0.0
-0.902094,3.582055,6.625726,-6.86,-62.580002,-30.73,1729420680507.0,0.0
-1.01695,4.532006,4.007978,-38.639999,-17.85,-8.26,1729420680527.0,0.0
-2.024328,1.397408,5.056034,-55.23,5.25,1.12,1729420680547.0,0.0
-2.62732,-0.868595,3.570091,-62.02,26.950001,8.68,1729420680566.0,0.0
-2.495714,-0.57667,2.790031,-21.98,39.060001,26.67,1729420680586.0,0.0
-2.134398,-0.739382,2.947958,-4.48,37.52,46.200001,1729420680610.0,0.0
-3.730411,-4.546363,6.65444,4.34,40.32,47.880001,1729420680633.0,0.0
-9.597611,-18.494125,17.374285,74.690002,48.09,11.34,1729420680646.0,0.0
-10.9017,-13.430914,17.276178,123.199997,56.209999,2.87,1729420680667.0,0.0
-3.37388,-0.586242,13.45245,112.699997,-57.540001,2.87,1729420680686.0,0.0
0.114855,-0.184247,11.332408,-13.72,-101.43,4.13,1729420680709.0,0.0
-3.471986,-2.761317,4.491328,-80.43,40.32,-43.68,1729420680726.0,0.0
-4.383651,-0.179462,6.843473,10.99,-1.05,-19.6,1729420680746.0,0.0
-1.304088,4.051049,5.486742,16.379999,-31.780001,-13.16,1729420680766.0,0.0
-0.825524,2.785245,6.142376,-7.42,-22.049999,8.33,1729420680786.0,0.0
-2.868994,-1.852045,6.448657,-38.849998,30.17,4.27,1729420680808.0,0.0
-4.240082,-2.979064,3.732803,-47.389999,57.610001,13.79,1729420680826.0,0.0
-3.036492,-1.469193,3.09392,-8.61,18.059999,32.619999,1729420680846.0,0.0
-1.926222,-4.21376,7.068398,21.210001,-4.2,37.869999,1729420680866.0,0.0
-7.9346,-12.559926,15.51267,54.040001,30.030001,37.310001,1729420680888.0,0.0
-13.694124,-11.334801,15.515062,91.559998,73.849998,-4.27,1729420680909.0,0.0
-3.701697,-2.665605,12.323036,77.489998,-65.660004,-7.84,1729420680926.0,0.0
-0.433101,-0.208176,11.090734,12.46,-77.489998,8.4,1729420680946.0,0.0
-2.589034,-1.351945,8.628519,-44.029999,16.59,-25.27,1729420680968.0,0.0
-5.307281,-1.51705,6.252446,-45.080002,38.150002,-33.950001,1729420680988.0,0.0
-2.943172,1.557728,5.113462,-25.83,-24.5,-24.780001,1729420681012.0,0.0
-0.988236,3.919443,6.252446,-25.9,-59.709999,-4.27,1729420681033.0,0.0
0.064606,5.398208,7.977671,-52.849998,-25.690001,7.35,1729420681046.0,0.0
-3.349952,-1.103091,4.740182,-126.419998,39.060001,39.48,1729420681068.0,0.0
-4.182654,-1.911865,0.868595,-101.5,54.32,51.66,1729420681087.0,0.0
-3.65384,-2.962314,3.725625,-32.48,11.76,75.809998,1729420681108.0,0.0
-5.381458,-9.202796,10.174281,5.53,-16.799999,71.260002,1729420681127.0,0.0
-10.030712,-18.778872,17.587246,88.620003,11.48,33.740002,1729420681147.0,0.0
-8.006385,-11.313265,15.136996,106.889999,8.54,-12.95,1729420681168.0,0.0
-3.29731,-3.182454,11.602797,72.379997,-72.519997,14.91,1729420681187.0,0.0
1.337588,-2.385644,10.186246,-10.85,-71.540001,-17.5,1729420681208.0,0.0
-4.07737,-4.481757,8.827123,-52.5,40.670002,-38.990002,1729420681226.0,0.0
-6.518049,-3.627519,6.364908,-28.98,61.950001,-77.559998,1729420681247.0,0.0
-3.74716,1.404587,7.022934,13.79,-42.139999,-44.939999,1729420681267.0,0.0
-0.167498,4.474578,6.465407,16.799999,-90.160004,-12.25,1729420681288.0,0.0
1.706082,6.192625,3.400201,-34.509998,-34.299999,-0.49,1729420681310.0,0.0
-1.464408,0.981057,5.426922,-62.369999,24.360001,18.9,1729420681328.0,0.0
-4.31426,-2.007578,2.505285,-87.080002,82.599998,23.52,1729420681346.0,0.0
-5.56092,-4.4339,6.448657,29.120001,35.77,69.860001,1729420681366.0,0.0
-9.693325,-13.75873,17.07279,71.959999,5.04,43.189999,1729420681389.0,0.0
-17.044075,-15.220744,16.503298,84.629997,47.389999,0.98,1729420681411.0,0.0
-4.053442,-7.286145,13.469198,70.699997,-90.650002,-7.21,1729420681428.0,0.0
1.368695,-4.13719,9.999605,7.28,-112.349998,-12.6,1729420681448.0,0.0
-1.59362,-3.364309,8.322237,0.35,0.49,-41.369999,1729420681468.0,0.0
-4.632504,-0.155533,6.647261,-14.49,42.77,-57.82,1729420681488.0,0.0
-2.419144,2.615355,4.677969,-42.91,-20.860001,-58.66,1729420681510.0,0.0
0.133998,1.708475,4.146761,-60.41,-65.730003,-35.139999,1729420681529.0,0.0
2.100898,2.117648,2.859423,-45.779999,-27.51,-29.33,1729420681615.0,0.0
-0.619741,1.828116,6.202196,3.29,32.060001,10.15,1729420681616.0,0.0
-3.036492,1.531406,4.625326,-25.059999,87.919998,17.08,1729420681616.0,0.0
-5.563312,-2.445465,5.675776,-46.549999,90.300003,37.380001,1729420681616.0,0.0
-9.164511,-10.459028,10.846665,18.41,61.110001,51.170002,1729420681628.0,0.0
-13.569696,-12.902101,16.106089,97.93,56.349998,19.67,1729420681649.0,0.0
-6.989435,-4.883751,13.457234,110.529999,-48.860001,-21.559999,1729420681668.0,0.0
-0.954736,-1.153341,12.21536,25.969999,-143.289993,-5.18,1729420681688.0,0.0
1.368695,-2.208575,10.650455,-44.170002,-89.669998,-23.59,1729420681711.0,0.0
-3.550949,-3.074777,7.49432,-62.369999,25.41,-31.710001,1729420681728.0,0.0
-3.756732,-1.538585,3.859623,-44.869999,13.3,-56.279999,1729420681752.0,0.0
-1.911865,-0.059821,5.62074,-12.6,-69.160004,-22.75,1729420681767.0,0.0
1.311267,1.864009,4.35733,-21.629999,-59.360001,-27.02,1729420681788.0,0.0
1.232304,5.022535,3.141776,-24.01,-7.21,0.07,1729420681815.0,0.0
-1.457229,1.651048,5.723632,-30.309999,42.630001,9.38,1729420681828.0,0.0
-3.555735,-0.291924,1.730011,-75.110001,92.540001,29.049999,1729420681847.0,0.0
-5.089533,-3.572484,5.376673,-15.54,63.0,47.740002,1729420681867.0,0.0
-8.396415,-11.866007,13.550553,57.82,41.23,50.189999,1729420681888.0,0.0
-13.69173,-14.612967,18.113668,122.919998,65.029999,27.02,1729420681910.0,0.0
-8.762517,-8.166703,16.512869,138.600006,-23.17,-15.82,1729420681927.0,0.0
-1.612763,-2.63689,13.521841,43.959999,-132.930008,-12.11,1729420681947.0,0.0
0.210568,-2.644069,11.576476,-21.77,-90.090004,-19.809999,1729420681967.0,0.0
-4.101298,-2.754139,5.149354,-63.700001,10.29,-41.93,1729420681988.0,0.0
-2.112862,-3.072384,4.797609,-68.669998,-61.25,-45.990002,1729420682012.0,0.0
1.646262,0.01675,2.813959,-47.389999,-71.470001,-41.580002,1729420682027.0,0.0
2.062613,3.912265,3.158526,-9.24,-24.01,-31.99,1729420682048.0,0.0
-0.385244,5.245068,6.843473,9.38,27.719999,-3.08,1729420682067.0,0.0
-2.510071,2.37368,6.161518,-50.540001,65.029999,11.55,1729420682089.0,0.0
-2.885744,-1.225125,3.61077,-77.769997,75.040001,26.950001,1729420682111.0,0.0
-4.584648,-5.551349,5.745167,-24.780001,54.740002,52.150002,1729420682127.0,0.0
-6.24766,-7.970492,8.49452,39.41,63.98,53.130001,1729420682147.0,0.0
-9.363115,-10.966305,14.476578,102.340004,52.709999,39.549999,1729420682168.0,0.0
-9.499505,-9.942179,16.457834,124.18,11.13,8.12,1729420682187.0,0.0
-3.955336,-4.938786,14.699109,79.099998,-74.269997,-12.39,1729420682211.0,0.0
0.055035,-4.331009,13.22513,9.52,-112.349998,9.66,1729420682227.0,0.0
-3.091527,-4.354938,10.456635,-23.24,-10.99,-20.370001,1729420682247.0,0.0
-4.223332,-3.139383,4.850252,-43.82,4.62,-52.920002,1729420682268.0,0.0
-2.337788,-2.22054,6.118448,-15.47,-74.760002,-41.16,1729420682288.0,0.0
0.732204,2.62732,5.9342,-14.21,-71.889999,-46.970001,1729420682310.0,0.0
-0.196211,5.989235,5.371887,-25.549999,-3.99,-8.26,1729420682328.0,0.0
-1.756332,1.741975,4.429115,-58.380001,29.540001,7.77,1729420682348.0,0.0
-2.519642,-1.758725,2.254039,-50.189999,55.369999,19.6,1729420682367.0,0.0
-2.586641,-2.469393,3.314059,-3.43,49.560001,33.389999,1729420682388.0,0.0
-4.252046,-3.833302,6.91765,36.75,43.68,50.470001,1729420682410.0,0.0
-8.755339,-11.033305,16.347765,119.910004,55.93,30.870001,1729420682427.0,0.0
-11.021341,-9.064013,18.640089,140.559998,66.989998,0.35,1729420682447.0,0.0
-6.032306,-2.318645,15.14896,79.309998,-32.200001,-9.87,1729420682467.0,0.0
0.114855,-1.734797,12.16511,-26.389999,-118.300003,-1.33,1729420682487.0,0.0
-1.397408,-5.194818,10.415956,-72.169998,-37.939999,-15.190001,1729420682509.0,0.0
-4.587041,-5.419744,5.783452,-54.389999,33.670002,-40.740002,1729420682527.0,0.0
-3.972085,-2.938386,6.396015,5.53,-21.91,-29.610001,1729420682547.0,0.0
-1.146162,0.066999,5.979663,6.09,-59.150002,-34.299999,1729420682567.0,0.0
0.428315,3.352344,6.594619,0.98,-42.07,-26.18,1729420682588.0,0.0
0.543171,4.59422,5.833702,-28.49,-5.88,-5.81,1729420682610.0,0.0
-1.512264,-0.22014,5.826523,-68.32,29.75,1.89,1729420682627.0,0.0
-3.084348,-4.292724,2.249253,-80.57,62.510002,5.39,1729420682647.0,0.0
-3.479164,-3.361916,7.353144,23.030001,31.15,34.16,1729420682667.0,0.0
-4.615755,-4.242475,9.260223,37.59,45.220001,29.889999,1729420682687.0,0.0
-7.281359,-8.764909,14.933606,65.800003,47.459999,20.09,1729420682709.0,0.0
-8.915657,-9.035298,16.627726,67.199997,32.34,2.17,1729420682728.0,0.0
-5.04407,-4.419543,14.773287,43.119999,-35.420002,-17.5,1729420682747.0,0.0
-1.40698,-3.20399,12.631711,-22.469999,-87.150002,-4.76,1729420682768.0,0.0
-2.615355,-4.407579,8.506484,-68.040001,-24.290001,-32.689999,1729420682788.0,0.0
-2.273181,-2.323431,4.261617,-54.599998,-13.3,-47.040001,1729420682810.0,0.0
-1.665405,-1.318445,5.74756,-13.440001,-57.260002,-32.34,1729420682828.0,0.0
0.827917,2.59382,4.862216,-1.82,-37.869999,-37.869999,1729420682847.0,0.0
1.174876,5.871986,3.579663,-10.43,-9.94,-7.91,1729420682868.0,0.0
-1.069592,1.631905,6.771688,-28.98,29.82,4.9,1729420682887.0,0.0
-2.98385,-1.990828,3.550949,-68.32,72.379997,15.33,1729420682909.0,0.0
-2.768496,-1.952543,2.603391,-28.77,67.760002,26.809999,1729420682926.0,0.0
-4.307081,-4.771288,7.286145,28.630001,35.279999,52.639999,1729420682948.0,0.0
-8.343772,-12.641282,15.711272,74.480003,57.889999,33.950001,1729420682967.0,0.0
-10.164711,-8.501699,16.316658,112.139999,71.120003,-2.45,1729420682988.0,0.0
-3.038885,0.70349,12.796815,59.080002,-84.699997,-6.02,1729420683012.0,0.0
0.849452,-1.213161,11.229517,-45.57,-114.099998,-0.84,1729420683028.0,0.0
-2.368894,-5.288138,7.465607,-97.090004,3.08,-32.130001,1729420683048.0,0.0
-3.318845,-4.285545,3.766303,-46.549999,22.540001,-51.799999,1729420683075.0,0.0
-2.388037,-0.969093,6.752545,23.309999,-43.470001,-20.02,1729420683089.0,0.0
0.394816,2.586641,5.65424,8.54,-35.07,-32.970001,1729420683109.0,0.0
-0.038285,5.008178,4.996214,-18.549999,-4.9,-4.76,1729420683127.0,0.0
-2.098505,0.196211,6.616155,-45.920002,34.16,2.94,1729420683148.0,0.0
-3.529413,-1.957329,3.041277,-61.25,63.139999,18.76,1729420683167.0,0.0
-3.275774,-2.143969,5.493921,-7.14,38.639999,34.580002,1729420683188.0,0.0
-4.048656,-5.546563,9.138189,22.4,18.76,51.380001,1729420683211.0,0.0
-9.176475,-14.648861,18.419949,98.489998,38.990002,25.9,1729420683227.0,0.0
-10.076177,-8.891729,16.639688,113.540001,49.630001,-2.66,1729420683248.0,0.0
-3.352344,0.42353,12.77528,66.849998,-66.849998,-1.68,1729420683268.0,0.0
0.198604,-2.648855,8.707481,-41.509998,-115.010002,8.89,1729420683288.0,0.0
-3.866802,-6.104091,5.608776,-80.779999,22.120001,-37.59,1729420683311.0,0.0
-2.938386,-2.175076,5.285746,-9.52,-11.55,-29.610001,1729420683328.0,0.0
-0.990629,0.746561,5.79063,7.35,-52.009998,-16.870001,1729420683349.0,0.0
0.591027,3.816552,3.804588,-14.07,-16.870001,-16.870001,1729420683368.0,0.0
-1.713261,1.014557,6.893722,-29.120001,18.27,-1.89,1729420683388.0,0.0
-3.751946,-2.335395,4.553542,-54.040001,58.380001,6.37,1729420683412.0,0.0
-3.579663,-2.230111,4.460221,-19.6,47.389999,19.67,1729420683433.0,0.0
-2.656033,-2.383251,6.326623,16.870001,10.92,43.259998,1729420683450.0,0.0
-5.307281,-8.525627,15.084354,70.910004,13.65,39.619999,1729420683469.0,0.0
-9.856036,-11.330014,18.932013,115.290001,60.549999,7.84,1729420683490.0,0.0
-7.025328,-3.218346,15.201601,99.75,9.87,-6.86,1729420683511.0,0.0
-0.81356,0.557528,11.32523,-10.92,-102.900002,13.02,1729420683530.0,0.0
-0.655633,-3.282953,8.437093,-92.470001,-49.279999,-15.54,1729420683550.0,0.0
-4.074977,-6.62094,3.828516,-87.779999,16.1,-39.549999,1729420683569.0,0.0
-2.419144,-1.234696,6.403193,10.43,-49.84,-17.5,1729420683590.0,0.0
0.287139,2.818745,4.962714,3.29,-32.830002,-29.82,1729420683612.0,0.0
-0.430708,5.118248,4.673182,-25.76,-2.52,-6.58,1729420683632.0,0.0
-2.098505,0.29671,4.87418,-65.379997,32.27,3.22,1729420683650.0,0.0
-2.909672,-1.789831,2.416751,-64.610001,54.459999,21.91,1729420683670.0,0.0
-2.368894,-1.349552,3.84048,2.38,29.4,44.939999,1729420683689.0,0.0
-4.163511,-7.554141,12.351749,57.889999,18.9,50.119999,1729420683710.0,0.0
-10.162319,-14.282759,20.027925,117.25,60.549999,19.460001,1729420683730.0,0.0
-8.133204,-5.785845,16.486549,118.650002,40.670002,-13.3,1729420683750.0,0.0
-1.39023,0.892523,12.021541,16.59,-93.519997,14.63,1729420683769.0,0.0
0.351745,-2.852244,9.798609,-90.93,-72.660004,-6.3,1729420683794.0,0.0
-3.759124,-7.276574,5.783452,-118.230003,24.99,-32.689999,1729420683812.0,0.0
-3.74716,-5.065606,4.242475,-34.299999,10.57,-43.889999,1729420683829.0,0.0
-1.964507,0.074178,5.479564,28.700001,-45.779999,-22.610001,1729420683849.0,0.0
0.318245,5.216353,4.524827,18.200001,-25.41,-24.85,1729420683870.0,0.0
-1.265803,3.54377,6.848258,-18.27,7.28,-2.24,1729420683890.0,0.0
-3.407379,-1.165305,3.17049,-75.040001,55.510002,14.98,1729420683911.0,0.0
-3.342773,-2.411965,4.582255,-3.43,36.75,45.920002,1729420683928.0,0.0
-6.778866,-11.722438,15.907485,78.540001,14.91,42.560001,1729420683950.0,0.0
-10.851451,-12.057433,19.09951,118.93,57.610001,6.79,1729420683970.0,0.0
-6.293124,-3.227918,15.21596,117.529999,-13.09,-7.28,1729420683990.0,0.0
0.42353,1.033699,10.920842,-8.75,-126.139999,14.77,1729420684016.0,0.0
0.849452,-2.603391,7.606783,-93.379997,-58.73,-11.48,1729420684031.0,0.0
-3.103491,-5.350351,3.9338,-97.370003,26.32,-37.450001,1729420684049.0,0.0
-3.649055,-3.4672,4.663611,-28.0,-0.7,-27.58,1729420684069.0,0.0
-1.507478,-0.842274,5.592027,3.92,-35.209999,-26.25,1729420684090.0,0.0
-0.856631,1.674976,6.128019,6.23,-17.08,-22.75,1729420684110.0,0.0
-2.325824,1.148555,7.855636,-11.9,13.23,-1.82,1729420684132.0,0.0
-3.756732,-0.902094,5.285746,-48.93,33.740002,7.21,1729420684259.0,0.0
-2.849852,-1.210768,3.665804,-25.41,22.75,18.690001,1729420684278.0,0.0
-2.155933,-1.832902,7.188039,20.51,-5.53,41.509998,1729420684279.0,0.0
-2.794817,-5.245068,10.643275,38.290001,13.72,48.369999,1729420684280.0,0.0
-7.814958,-10.782058,17.223537,84.629997,44.59,35.07,1729420684281.0,0.0
-5.867201,-3.943372,13.304093,92.610001,47.529999,2.73,1729420684282.0,0.0
-0.167498,-1.366302,11.140982,3.57,-87.57,3.64,1729420684378.0,0.0
-0.674776,-3.381058,8.805587,-80.779999,-24.43,-15.68,1729420684379.0,0.0
-4.424329,-6.690332,6.319445,-103.459999,38.920002,-42.560001,1729420684380.0,0.0
-4.185047,-5.271388,5.577669,-55.16,5.81,-48.369999,1729420684383.0,0.0
-1.722832,-0.433101,4.785645,1.75,-28.139999,-42.630001,1729420684385.0,0.0
-0.870987,5.754738,5.07757,35.490002,-17.85,-18.83,1729420684386.0,0.0
-1.538585,5.084748,6.757331,23.940001,-2.66,12.39,1729420684407.0,0.0
-2.388037,1.201197,5.563312,-33.670002,38.5,27.719999,1729420684413.0,0.0
-2.785245,-1.844866,4.359723,-34.16,45.360001,40.950001,1729420684433.0,0.0
-5.788238,-11.724831,13.773087,22.889999,25.129999,33.040001,1729420684462.0,0.0
-10.140782,-13.832907,17.647066,71.190002,60.760002,10.43,1729420684468.0,0.0
-6.999006,-4.505685,16.264015,104.860001,11.13,-9.87,1729420684487.0,0.0
-1.148555,0.526421,11.58844,-14.7,-90.580002,1.19,1729420684510.0,0.0
-0.820738,-4.749753,7.661818,-110.599998,-60.27,-27.93,1729420684527.0,0.0
-3.23031,-6.302694,4.039084,-87.290001,-3.29,-34.860001,1729420684547.0,0.0
-3.572484,-3.160919,6.096912,10.15,-32.830002,-26.530001,1729420684568.0,0.0
-2.277967,1.277767,7.554141,41.09,-35.700001,-26.809999,1729420684588.0,0.0
-1.607977,2.160719,5.508278,17.08,-16.24,-12.46,1729420684610.0,0.0
-0.959522,2.672783,4.816752,-0.7,-18.690001,4.76,1729420684628.0,0.0
0.136391,1.103091,3.716053,-22.540001,-17.01,21.49,1729420684648.0,0.0
0.42353,-0.665205,4.558327,-21.210001,0.56,34.93,1729420684668.0,0.0
-2.955136,-6.082555,11.504691,19.809999,24.290001,38.290001,1729420684688.0,0.0
-6.79083,-9.059227,12.624532,55.510002,80.5,29.540001,1729420684711.0,0.0
-8.85105,-7.008578,13.871193,91.349998,60.900002,32.060001,1729420684728.0,0.0
-5.850451,-2.880959,11.801401,57.959999,0.63,9.52,1729420684748.0,0.0
-1.866402,-0.547956,10.112068,-1.47,-41.860001,0.28,1729420684768.0,0.0
-1.61037,-1.20359,9.480364,-56.490002,-16.940001,-6.51,1729420684788.0,0.0
-4.354938,-3.445665,9.461221,-89.110001,30.73,-8.68,1729420684812.0,0.0
-6.132804,-5.139783,8.638089,-105.349998,31.43,-22.82,1729420684828.0,0.0
-5.458029,-3.778267,8.422735,-92.190002,-9.03,-19.25,1729420684847.0,0.0
-4.089334,-2.40718,8.542377,-83.580002,-41.16,-14.28,1729420684868.0,0.0
-3.479164,-1.756332,8.963513,-84.209999,-40.740002,-11.55,1729420684888.0,0.0
-3.438486,-0.952343,8.848659,-106.190002,-36.82,9.1,1729420684909.0,0.0
-1.916651,-5.924629,7.460821,-183.75,-65.239998,8.89,1729420684928.0,0.0
-0.318245,-8.678767,4.354938,-165.830002,-91.980003,17.710001,1729420684948.0,0.0
1.555335,-7.355537,3.558127,-74.760002,-102.410004,60.900002,1729420684978.0,0.0
1.550549,-5.558527,6.082555,28.91,-109.550003,92.75,1729420684989.0,0.0
2.538785,-2.70389,7.9011,100.519997,-92.260002,82.25,1729420685012.0,0.0
2.141576,-2.770889,8.135597,91.139999,-54.950001,59.920002,1729420685027.0,0.0
0.799203,-2.419144,8.271988,29.4,-30.1,54.32,1729420685048.0,0.0
-0.059821,-3.302095,6.436693,-133.630005,-9.1,27.58,1729420685068.0,0.0
-1.658226,-6.147161,7.633104,-271.950012,18.969999,11.9,1729420685089.0,0.0
-1.490728,-6.994221,4.957928,-353.290009,45.009998,-3.85,1729420685109.0,0.0
-0.770489,-6.872187,2.096112,-332.850006,67.269997,-1.68,1729420685128.0,0.0
-1.495514,-7.829315,0.12682,-295.610016,83.790001,8.12,1729420685148.0,0.0
-2.536392,-9.640682,2.313859,-203.419998,103.879997,29.190001,1729420685168.0,0.0
-7.987241,-11.875579,12.361321,15.54,33.670002,75.949997,1729420685188.0,0.0
-2.85703,-1.469193,7.070791,23.870001,-33.529999,64.610001,1729420685209.0,0.0
-2.129612,-4.266403,3.361916,-65.940002,-28.559999,96.25,1729420685228.0,0.0
-5.958128,-12.859028,-0.51685,-107.590004,37.939999,64.82,1729420685248.0,0.0
-8.965906,-17.965311,-0.612563,-78.68,64.610001,23.870001,1729420685268.0,0.0
-10.942378,-19.771893,0.870987,-51.380001,83.720001,-15.47,1729420685288.0,0.0
-7.910671,-13.74198,2.959922,2.87,51.66,-48.720001,1729420685310.0,0.0
-4.558327,-8.252845,3.790231,16.030001,17.43,-67.410004,1729420685328.0,0.0
-1.651048,-4.09412,5.965307,22.960001,-1.33,-77.699997,1729420685348.0,0.0
-0.114855,2.512464,7.013363,49.630001,-19.809999,-41.580002,1729420685369.0,0.0
1.945365,4.56072,9.870394,61.389999,-17.5,-27.02,1729420685388.0,0.0
-0.014357,-0.698704,10.277173,-80.43,-9.38,24.99,1729420685410.0,0.0
-2.754139,-8.415558,5.347959,-192.220001,22.75,18.129999,1729420685427.0,0.0
-3.495914,-10.894521,0.143569,-146.160004,8.82,35.420002,1729420685448.0,0.0
-2.337788,-9.994821,-1.09352,-49.0,-53.900002,58.939999,1729420685477.0,0.0
-2.706282,-11.842079,-4.625326,2.73,-47.110001,66.43,1729420685488.0,0.0
-8.609376,-17.675781,-2.048256,10.22,21.700001,49.77,1729420685509.0,0.0
-11.085947,-20.260029,-0.667598,-4.55,64.050003,-5.32,1729420685530.0,0.0
-6.405586,-13.562519,0.911665,18.83,4.41,-29.33,1729420685548.0,0.0
-3.23031,-8.819944,2.902494,37.310001,-11.27,-59.920002,1729420685568.0,0.0
-3.342773,-6.549156,2.550749,-12.53,48.369999,-60.900002,1729420685588.0,0.0
-1.435694,-0.095713,5.426922,8.47,17.219999,-45.57,1729420685610.0,0.0
1.507478,4.453043,6.556334,19.18,-20.860001,-7.21,1729420685628.0,0.0
0.710668,-3.244668,9.750752,-32.200001,-19.389999,22.26,1729420685649.0,0.0
-3.766303,-8.38445,4.893322,-152.949997,38.5,33.389999,1729420685667.0,0.0
-3.550949,-8.975478,-1.148555,-100.940002,14.42,41.860001,1729420685690.0,0.0
-3.862016,-10.91845,-3.98405,-41.369999,-47.810001,71.82,1729420685711.0,0.0
-6.209375,-15.409778,-4.488935,-0.14,-8.61,57.119999,1729420685731.0,0.0
-9.702895,-21.494726,-3.74716,14.84,40.32,21.0,1729420685750.0,0.0
-7.092326,-15.711272,-2.103291,23.799999,9.17,-10.36,1729420685769.0,0.0
-3.574877,-9.975677,3.084348,82.949997,-45.849998,-21.210001,1729420685789.0,0.0
-2.316252,-8.193025,3.510271,45.849998,-0.14,-59.849998,1729420685810.0,0.0
-3.378666,-9.504292,2.167897,-5.67,47.110001,-59.990002,1729420685829.0,0.0
-3.206382,-6.240481,2.620141,25.549999,37.799999,-50.470001,1729420685850.0,0.0
-0.102891,2.318645,5.532206,55.510002,3.15,-30.17,1729420685869.0,0.0
-0.488136,-2.550749,9.322437,19.25,-33.040001,7.77,1729420685890.0,0.0
-2.974278,-7.097112,4.979464,-103.040001,13.72,14.49,1729420685910.0,0.0
-3.893122,-7.075576,0.346959,-76.510002,2.31,36.119999,1729420685929.0,0.0
-2.804388,-7.415358,-3.615555,-28.700001,-36.610001,54.670002,1729420685951.0,0.0
-3.017349,-11.310873,-5.927022,-7.07,-21.559999,61.040001,1729420685969.0,0.0
-9.836893,-22.121645,2.725425,5.25,24.290001,37.52,1729420685989.0,0.0
-9.181261,-20.3701,0.715454,-19.25,36.189999,-5.95,1729420686014.0,0.0
-4.804788,-10.923235,0.471386,5.25,-15.190001,-17.219999,1729420686029.0,0.0
-3.330809,-8.616554,0.916451,-2.1,7.42,-61.459999,1729420686050.0,0.0
-3.847659,-10.844273,1.177269,-35.84,32.549999,-69.650002,1729420686069.0,0.0
-3.402594,-9.425328,2.184647,2.1,15.75,-55.790001,1729420686089.0,0.0
-2.072184,-2.615355,2.0004,27.23,10.01,-58.52,1729420686120.0,0.0
-0.837488,-1.739582,6.76451,62.439999,-7.91,-37.939999,1729420686130.0,0.0
-1.268196,-4.890929,8.260024,7.14,-19.389999,-19.74,1729420686149.0,0.0
-3.014957,-5.881558,5.570491,-40.810001,-1.33,-3.08,1729420686169.0,0.0
-2.605784,-4.725825,0.208176,-54.740002,-17.43,15.89,1729420686193.0,0.0
-1.706082,-6.812366,-1.024128,-44.799999,-32.900002,34.790001,1729420686210.0,0.0
-4.185047,-11.057234,-1.842474,-33.25,-5.67,48.790001,1729420686228.0,0.0
-6.276374,-18.348164,-2.868994,-50.470001,15.190001,23.66,1729420686249.0,0.0
-5.606383,-20.157139,-2.866602,-29.26,14.21,-3.57,1729420686269.0,0.0
-3.455236,-13.557733,-0.823131,44.73,1.75,-10.43,1729420686290.0,0.0
-3.675375,-9.444471,1.854438,65.660004,17.5,-38.009998,1729420686313.0,0.0
-3.160919,-8.405986,1.78026,39.48,33.389999,-55.93,1729420686329.0,0.0
-1.134198,-4.606184,1.629512,26.460001,22.120001,-49.98,1729420686349.0,0.0
0.29671,-0.433101,4.737789,48.650002,6.02,-18.969999,1729420686369.0,0.0
-1.117448,-3.407379,9.377472,15.4,2.94,-3.85,1729420686389.0,0.0
-4.618148,-9.784252,6.9679,-74.550003,19.950001,-0.07,1729420686410.0,0.0
-4.524827,-8.523234,1.48355,-69.790001,-2.17,10.08,1729420686430.0,0.0
-2.778067,-5.048856,0.028714,-33.459999,-61.459999,38.290001,1729420686448.0,0.0
-2.758924,-5.563312,-1.445265,-19.25,-64.959999,51.380001,1729420686469.0,0.0
-3.625126,-9.827322,-2.459821,-19.6,-37.869999,39.41,1729420686489.0,0.0
-6.534799,-20.578274,-2.136791,-51.170002,-27.860001,23.73,1729420686510.0,0.0
-6.283553,-21.169302,-6.111269,-53.619999,19.809999,-18.27,1729420686530.0,0.0
-5.888737,-9.590433,-1.945365,7.35,35.77,-32.41,1729420686592.0,0.0
-2.644069,-7.659425,-1.895115,14.91,-3.92,-54.950001,1729420686593.0,0.0
-2.024328,-8.975478,-0.595813,30.309999,16.66,-52.639999,1729420686593.0,0.0
-1.275374,-3.326023,6.601797,58.240002,25.129999,-34.580002,1729420686649.0,0.0
-0.684347,-6.068198,9.590433,64.260002,14.0,-36.330002,1729420686651.0,0.0
-1.01695,-8.441878,9.717253,-10.57,-8.54,-24.08,1729420686669.0,0.0
-1.904687,-7.989635,4.479364,-66.989998,-28.35,-4.9,1729420686690.0,0.0
-2.203789,-7.635497,1.007378,-75.879997,-32.970001,8.54,1729420686710.0,0.0
-0.461815,-5.793024,-1.741975,-53.27,-55.790001,24.57,1729420686730.0,0.0
-0.052642,-7.578069,-3.180061,-21.559999,-56.490002,44.450001,1729420686748.0,0.0
-3.646662,-13.866407,-1.706082,-6.86,-14.35,53.549999,1729420686768.0,0.0
-7.369894,-20.642881,-2.352145,-21.210001,32.619999,21.0,1729420686789.0,0.0
-8.126025,-19.03969,-5.690133,-20.23,64.75,-1.96,1729420686810.0,0.0
-6.632904,-13.751552,-4.814359,45.5,66.150002,-39.130001,1729420686828.0,0.0
-3.488736,-8.932407,-1.45005,89.809998,39.689999,-61.599998,1729420686850.0,0.0
-0.655633,0.662812,0.306281,107.449997,18.9,-44.799999,1729420686868.0,0.0
0.837488,0.11007,11.4353,96.809998,13.79,-17.15,1729420686889.0,0.0
-1.624727,-6.147161,13.031311,0.35,13.37,-3.78,1729420686910.0,0.0
-3.127419,-8.714661,3.728018,-123.129997,19.879999,-3.01,1729420686929.0,0.0
-2.289931,-8.38445,-1.210768,-100.870003,-13.37,7.21,1729420686948.0,0.0
-1.040878,-5.680561,-1.971686,-48.790001,-56.490002,36.259998,1729420686969.0,0.0
-0.119641,-5.702096,-4.383651,-12.95,-53.760002,53.619999,1729420686988.0,0.0
-3.775874,-13.232309,-2.969493,-3.78,-15.68,58.170002,1729420687013.0,0.0
-8.843873,-25.024137,-1.722832,-24.639999,47.110001,6.3,1729420687029.0,0.0
-6.977471,-18.24288,-7.022934,-29.960001,55.23,-5.74,1729420687048.0,0.0
-4.553542,-10.339387,-2.519642,41.509998,9.31,-17.5,1729420687068.0,0.0
-3.266203,-7.913064,-0.241675,41.93,28.280001,-54.529999,1729420687089.0,0.0
-2.158326,-1.679761,0.318245,37.59,36.959999,-48.09,1729420687110.0,0.0
-0.598206,0.157926,10.370493,127.889999,-14.21,-19.809999,1729420687128.0,0.0
-0.267996,-2.59382,13.584054,21.07,-12.32,-5.25,1729420687150.0,0.0
-2.335395,-8.463413,6.415157,-113.400002,-0.07,-1.05,1729420687169.0,0.0
-2.239682,-10.688738,-1.205983,-134.190002,-4.06,-2.17,1729420687190.0,0.0
-0.634098,-5.525027,-3.955336,-69.160004,-45.57,28.0,1729420687212.0,0.0
-1.818545,-9.06162,-5.728417,-4.34,-54.880001,61.459999,1729420687229.0,0.0
-6.623333,-20.315065,-2.943172,-13.3,20.09,28.210001,1729420687287.0,0.0
-9.193225,-23.279772,-4.331009,-21.0,49.279999,-11.13,1729420687288.0,0.0
-5.034499,-11.057234,-2.854637,38.009998,11.34,-12.32,1729420687457.0,0.0
-3.113062,-7.401,0.023928,57.400002,10.92,-48.650002,1729420687457.0,0.0
-2.26361,-8.01117,1.304088,29.82,41.93,-59.779999,1729420687457.0,0.0
-0.122034,-1.325624,4.45065,92.470001,23.379999,-30.799999,1729420687458.0,0.0
0.22014,1.136591,11.64826,134.259995,-23.030001,0.28,1729420687458.0,0.0
-1.251446,-4.680361,10.272388,5.95,-15.33,7.84,1729420687458.0,0.0
-3.378666,-8.903693,1.038485,-153.720001,9.8,13.93,1729420687458.0,0.0
-3.649055,-10.875379,-2.65364,-132.089996,-10.85,12.6,1729420687459.0,0.0
-1.732404,-7.441679,-4.419543,-48.16,-53.060001,41.860001,1729420687459.0,0.0
-1.605584,-9.688539,-6.197411,-5.39,-59.990002,50.540001,1729420687470.0,0.0
-6.171089,-20.903698,-2.629712,1.4,-5.32,23.1,1729420687488.0,0.0
-8.013563,-20.851057,-2.340181,1.61,21.700001,-9.52,1729420687516.0,0.0
-3.349952,-9.109475,-2.029114,42.279999,-12.04,-8.82,1729420687528.0,0.0
-2.531606,-8.724231,0.887737,50.259998,-3.57,-40.950001,1729420687549.0,0.0
-3.218346,-10.018748,0.119641,7.42,53.760002,-52.150002,1729420687569.0,0.0
-1.237089,-3.314059,2.969493,79.519997,27.860001,-29.4,1729420687589.0,0.0
-0.354138,-1.514657,8.422735,84.419998,-1.33,-13.09,1729420687613.0,0.0
-1.079163,-3.883551,10.423136,-4.34,-1.75,-5.74,1729420687630.0,0.0
-2.715853,-7.659425,5.505885,-85.400002,-10.29,8.47,1729420687649.0,0.0
-2.706282,-9.332008,-0.174676,-106.400002,-22.889999,16.52,1729420687669.0,0.0
-1.239482,-6.704689,-4.005585,-48.439999,-45.150002,40.810001,1729420687690.0,0.0
-2.234896,-10.394422,-5.659025,-7.77,-50.470001,59.57,1729420687710.0,0.0
-6.991827,-21.154945,-2.529213,-10.22,19.18,22.610001,1729420687729.0,0.0
-7.925028,-21.619152,-4.058227,-19.530001,34.369999,-5.81,1729420687749.0,0.0
-3.809374,-10.360922,-2.694318,26.110001,4.2,-12.32,1729420687769.0,0.0
-2.938386,-7.980063,0.291924,38.080002,24.639999,-50.470001,1729420687790.0,0.0
-3.031706,-9.45165,0.863809,5.81,51.240002,-59.779999,1729420687812.0,0.0
0.854238,0.705883,8.449057,72.519997,24.290001,-18.549999,1729420687829.0,0.0
1.069592,-0.306281,11.327622,140.630005,-41.580002,17.219999,1729420687850.0,0.0
-2.732604,-6.573084,5.702096,-85.470001,10.29,16.1,1729420687870.0,0.0
-4.113262,-11.956935,-2.98385,-192.220001,30.870001,11.2,1729420687890.0,0.0
-3.771089,-13.296914,-4.287938,-105.840004,-18.200001,18.34,1729420687912.0,0.0
-1.782653,-8.539984,-5.115855,-3.5,-47.389999,49.77,1729420687930.0,0.0
-2.995814,-12.004791,-1.476372,40.810001,-27.790001,39.549999,1729420687950.0,0.0
-7.125826,-20.908484,0.772882,1.96,6.37,24.01,1729420687969.0,0.0
-4.929214,-16.680367,-5.091926,-26.460001,23.309999,-17.710001,1729420687991.0,0.0
-2.70389,-10.068997,-3.574877,54.880001,4.62,-27.02,1729420688014.0,0.0
-2.718246,-8.389235,1.122234,78.190002,14.35,-48.790001,1729420688030.0,0.0
-2.909672,-2.943172,4.436293,68.110001,24.219999,-41.02,1729420688053.0,0.0
-0.591027,1.868794,8.597411,119.840004,0.14,-25.690001,1729420688070.0,0.0
-0.734596,2.306681,9.205189,47.18,-2.87,-5.04,1729420688091.0,0.0
-3.125026,-8.937192,2.914458,-79.519997,-0.21,9.73,1729420688112.0,0.0
-2.892922,-13.785051,-1.043271,-143.360001,-10.22,6.51,1729420688130.0,0.0
-1.098306,-11.093125,-3.39063,-50.330002,-50.400002,38.220001,1729420688150.0,0.0
-2.612962,-13.256237,-5.63749,15.96,-35.139999,48.720001,1729420688171.0,0.0
-8.288737,-23.83012,-6.927221,5.32,56.560001,5.32,1729420688192.0,0.0
-8.693125,-18.728622,-5.45085,46.900002,63.560001,-22.610001,1729420688212.0,0.0
-3.314059,-7.386643,-0.70349,121.520004,-1.12,-15.26,1729420688237.0,0.0
-0.940379,-3.469593,3.079563,80.989998,16.24,-54.880001,1729420688251.0,0.0
-0.100499,-3.871587,5.623133,89.18,43.75,-47.810001,1729420688274.0,0.0
-1.639083,-3.651447,6.017949,53.48,48.299999,-35.91,1729420688293.0,0.0
-1.741975,-6.082555,6.668797,22.049999,24.57,-22.190001,1729420688312.0,0.0
-2.28036,-5.548956,6.108876,14.63,-0.14,2.38,1729420688331.0,0.0
-3.019742,-4.977071,3.522235,-65.660004,-12.04,5.46,1729420688352.0,0.0
-3.330809,-9.085547,2.084148,-104.370003,-36.889999,8.26,1729420688371.0,0.0
-2.366502,-10.765309,-0.947558,-20.719999,-49.420002,37.799999,1729420688392.0,0.0
-1.655833,-7.054041,1.363909,62.02,-73.639999,45.009998,1729420688413.0,0.0
-1.978864,-5.149354,4.924429,50.959999,-73.989998,58.59,1729420688431.0,0.0
-4.271189,-14.952748,-1.318445,-49.349998,-49.279999,40.880001,1729420688451.0,0.0
-5.869594,-25.01696,-10.925629,-133.210007,37.52,-3.99,1729420688472.0,0.0
-5.063213,-18.678373,-8.721838,-44.450001,27.860001,-7.28,1729420688492.0,0.0
-3.486342,-10.260423,-1.655833,89.389999,14.7,-6.02,1729420688513.0,0.0
-4.118048,-6.520442,3.395415,96.669998,61.950001,-41.860001,1729420688532.0,0.0
-3.766303,-2.179861,5.766702,4.83,77.419998,-61.25,1729420688551.0,0.0
-1.036092,0.820738,9.932607,28.700001,21.210001,-15.05,1729420688572.0,0.0
-0.368495,1.366302,13.062418,16.66,-17.780001,3.85,1729420688592.0,0.0
-1.911865,-3.089134,7.618747,-121.309998,-10.29,19.32,1729420688614.0,0.0
-2.469393,-5.288138,1.794617,-163.380005,-13.65,40.25,1729420688643.0,0.0
-0.894916,-4.974678,-2.672783,-120.889999,-63.279999,74.620003,1729420688652.0,0.0
-1.555335,-9.257831,-6.455836,-101.919998,-63.209999,93.239998,1729420688674.0,0.0
-9.75793,-28.8048,-13.146168,-101.919998,30.940001,53.619999,1729420688691.0,0.0
-11.655439,-31.439295,-12.619746,28.210001,76.510002,-18.9,1729420688714.0,0.0
-6.398407,-12.892529,-5.730811,137.970001,1.26,21.700001,1729420688731.0,0.0
-4.82393,-7.113862,0.172283,123.550003,27.790001,-74.970001,1729420688752.0,0.0
-3.460021,-8.930015,1.811367,71.470001,63.0,-104.93,1729420688771.0,0.0
-0.562313,2.06022,2.773281,23.450001,53.130001,-75.879997,1729420688791.0,0.0
0.184247,4.266403,10.738988,169.889999,-38.709999,-2.52,1729420688815.0,0.0
-1.557728,0.129212,12.351749,34.860001,-6.16,4.55,1729420688832.0,0.0
-3.414558,-5.955735,5.687739,-105.07,-7.77,25.83,1729420688852.0,0.0
-2.459821,-7.982457,0.48335,-110.32,-33.18,42.490002,1729420688871.0,0.0
-1.428515,-7.618747,-2.531606,-77.559998,-70.279999,64.610001,1729420688891.0,0.0
-2.751746,-15.811772,-7.518249,-89.25,-47.389999,49.630001,1729420688913.0,0.0
-8.796017,-32.606995,-8.382057,-49.279999,36.82,0.63,1729420688931.0,0.0
-6.628119,-16.941183,-5.12782,56.139999,24.15,2.8,1729420688952.0,0.0
-4.48415,-6.910471,-0.069392,93.169998,-19.110001,-5.25,1729420688971.0,0.0
-2.737389,-7.585248,-0.064606,24.99,32.130001,-82.739998,1729420688991.0,0.0
-4.409972,-8.800802,1.371087,-53.760002,78.330002,-83.019997,1729420689015.0,0.0
-0.713061,0.602991,5.56092,26.32,24.08,-35.209999,1729420689031.0,0.0
1.366302,4.235296,15.531813,122.779999,-70.489998,35.700001,1729420689051.0,0.0
-0.253639,0.988236,11.069198,-24.780001,-28.98,25.129999,1729420689072.0,0.0
-3.529413,-3.28056,1.514657,-164.919998,-14.07,53.970001,1729420689093.0,0.0
-2.447858,-7.286145,-7.389036,-164.009995,-23.030001,62.580002,1729420689115.0,0.0
-10.801201,-30.266813,-10.700702,-43.82,-5.04,41.720001,1729420689132.0,0.0
-8.822337,-22.810778,-9.109475,61.25,4.13,41.509998,1729420689151.0,0.0
-4.800002,-10.518847,-4.342973,84.0,-9.31,-2.94,1729420689171.0,0.0
-3.60359,-9.095119,0.258425,54.950001,34.790001,-80.220001,1729420689195.0,0.0
-4.448257,-9.367901,-1.038485,-22.26,65.239998,-99.330002,1729420689224.0,0.0
-3.778267,-6.798009,4.37408,48.299999,50.259998,-71.889999,1729420689231.0,0.0
-2.036292,3.864408,7.566105,63.139999,-0.84,-17.5,1729420689252.0,0.0
1.17009,4.438686,11.69851,95.550003,-52.990002,-3.57,1729420689271.0,0.0
-0.607777,-1.842474,7.678568,-65.800003,-19.879999,10.99,1729420689291.0,0.0
-3.672983,-7.800602,1.222732,-132.860001,11.13,27.299999,1729420689315.0,0.0
-3.89073,-9.889536,-2.464607,-93.660004,4.13,37.029999,1729420689331.0,0.0
-3.168097,-11.712867,-3.347559,-67.900002,-33.040001,55.299999,1729420689351.0,0.0
-5.740381,-17.077576,-2.799603,-61.529999,-28.84,33.110001,1729420689371.0,0.0
-6.357729,-17.077576,-3.744767,-16.17,2.17,12.6,1729420689391.0,0.0
-5.180461,-11.794223,-2.242075,35.560001,-20.790001,5.11,1729420689413.0,0.0
-4.024727,-9.068797,-0.76331,15.61,-22.26,-19.32,1729420689431.0,0.0
-3.570091,-8.159525,0.957129,-18.059999,-14.98,-32.41,1729420689454.0,0.0
-3.381058,-7.274181,1.117448,-71.889999,-12.39,-42.279999,1729420689471.0,0.0
-3.460021,-6.118448,-0.193819,-124.739998,-9.59,-44.450001,1729420689491.0,0.0
-3.215954,-5.546563,-2.065006,-169.960007,-14.07,-40.740002,1729420689519.0,0.0
-2.876173,-6.288338,-3.086741,-198.940002,-31.290001,-33.810001,1729420689531.0,0.0
-1.5003,-8.116454,-6.501299,-189.839996,-36.959999,-24.01,1729420689557.0,0.0
-0.5001,-9.516255,-7.743174,-138.529999,-42.349998,-9.52,1729420689570.0,0.0
-1.165305,-9.499505,-6.037091,-94.290001,-41.16,10.15,1729420689591.0,0.0
-1.832902,-10.389636,-3.893122,-56.560001,-21.35,4.06,1729420689616.0,0.0
-2.366502,-8.178668,-3.57727,-65.099998,-17.08,-5.67,1729420689640.0,0.0
-2.500499,-7.384251,-4.31426,-108.989998,-14.35,-17.15,1729420689651.0,0.0
-2.189433,-8.46102,-3.955336,-200.830002,-38.639999,-51.52,1729420689672.0,0.0
-2.120041,-10.9017,-5.577669,-272.160004,-62.23,-53.549999,1729420689691.0,0.0
-0.81356,-11.212767,-6.989435,-254.309998,-71.190002,-64.540001,1729420689714.0,0.0
-0.993021,-9.10469,-5.142176,-215.180008,-85.610001,-66.989998,1729420689732.0,0.0
-1.301696,-6.623333,-8.444271,-200.759995,-53.34,-69.510002,1729420689750.0,0.0
-4.914857,-7.728817,-2.823531,-216.509995,-31.85,-60.41,1729420689770.0,0.0
-6.206983,-10.80838,-4.646862,-208.180008,-3.29,-60.48,1729420689792.0,0.0
-3.979264,-9.698111,-9.999605,-184.869995,-28.700001,-54.18,1729420689814.0,0.0
-1.935793,-6.424729,-10.13839,-144.759995,-59.43,-27.719999,1729420689831.0,0.0
-2.376073,-7.506285,-7.905886,-83.93,-34.650002,-37.869999,1729420689851.0,0.0
-4.876573,-7.441679,-6.814759,-1.54,7.49,-55.299999,1729420689871.0,0.0
-5.814559,-7.176075,-9.676575,55.650002,15.82,-64.470001,1729420689891.0,0.0
-5.108676,-4.579862,-11.038091,76.720001,7.91,-36.610001,1729420689913.0,0.0
-3.196811,-2.15354,-10.502099,68.879997,-8.75,-15.61,1729420689931.0,0.0
-1.402194,-2.096112,-10.013963,76.370003,-15.68,1.05,1729420689951.0,0.0
-0.533599,-3.63709,-10.784451,98.209999,-6.02,12.88,1729420689971.0,0.0
0.717847,-2.340181,-10.669596,124.110001,21.629999,16.870001,1729420689992.0,0.0
1.074377,-2.141576,-9.245867,173.809998,27.65,32.759998,1729420690017.0,0.0
1.040878,-1.682154,-5.17089,127.190002,43.75,29.049999,1729420690035.0,0.0
-2.940779,-9.889536,-0.136391,12.74,48.93,44.52,1729420690052.0,0.0
-4.21376,-12.16511,-2.091327,-112.0,37.66,-11.13,1729420690073.0,0.0
-4.426722,-13.215559,-6.403193,-129.080002,3.85,-17.15,1729420690094.0,0.0
-2.962314,-9.131011,-8.382057,-80.43,-20.719999,-16.17,1729420690115.0,0.0
-2.464607,-6.283553,-7.805387,-27.790001,-8.19,-6.16,1729420690133.0,0.0
-2.584249,-5.843273,-7.085148,-3.57,12.74,6.51,1729420690153.0,0.0
-3.586841,-6.206983,-5.9342,-5.67,10.22,14.14,1729420690172.0,0.0
-3.790231,-5.891129,-8.640482,-5.67,6.86,6.23,1729420690193.0,0.0
-4.228118,-5.094319,-8.35813,32.549999,1.19,4.34,1729420690215.0,0.0
-3.28056,-5.120641,-8.827123,90.720001,-2.1,9.87,1729420690232.0,0.0
-1.820938,-3.342773,-8.571091,98.349998,-14.49,14.35,1729420690252.0,0.0
-0.315853,-1.282553,-8.865408,42.139999,-24.15,10.57,1729420690276.0,0.0
0.732204,-0.978664,-9.516255,-9.24,-18.76,11.34,1729420690292.0,0.0
-0.112463,-4.005585,-8.9348,-8.89,3.92,37.029999,1729420690315.0,0.0
-0.868595,-6.496514,-7.329216,-7.21,27.860001,39.130001,1729420690333.0,0.0
-2.813959,-10.298709,-4.54397,-14.7,25.83,43.330002,1729420690355.0,0.0
-2.991028,-11.708081,-6.142376,-63.91,13.37,13.02,1729420690375.0,0.0
-3.012564,-11.375479,-7.798209,-89.949997,8.12,-7.28,1729420690395.0,0.0
-3.869194,-9.946963,-6.60419,-75.809998,10.92,-24.710001,1729420690414.0,0.0
-4.639683,-10.13839,-5.970093,-17.85,14.0,-34.93,1729420690435.0,0.0
-4.240082,-8.195417,-7.386643,16.940001,0.98,-45.779999,1729420690454.0,0.0
-3.778267,-5.479564,-7.439285,39.200001,-15.12,-45.709999,1729420690475.0,0.0
-3.799802,-3.192025,-7.429714,31.92,-15.4,-45.220001,1729420690494.0,0.0
-3.129812,-3.381058,-9.243474,44.869999,-15.75,-36.330002,1729420690518.0,0.0
-2.0004,-3.026921,-9.927821,73.360001,-18.620001,-11.48,1729420690535.0,0.0
-0.528814,-1.840081,-10.660025,89.32,-14.7,1.61,1729420690553.0,0.0
0.468993,-1.038485,-10.413565,40.32,0.49,2.94,1729420690575.0,0.0
0.210568,-2.959922,-8.84148,-4.34,21.559999,22.26,1729420690595.0,0.0
-0.457029,-6.793223,-8.853443,13.23,33.389999,42.77,1729420690614.0,0.0
-1.383051,-8.618947,-5.749953,11.62,45.990002,43.330002,1729420690634.0,0.0
-4.165904,-11.815758,2.158326,-19.18,37.029999,29.889999,1729420690652.0,0.0
-5.639884,-11.559726,-0.775275,-125.510002,36.330002,-17.5,1729420690674.0,0.0
-4.74736,-11.265409,-8.085347,-145.110001,13.3,-36.959999,1729420690693.0,0.0
-2.59382,-8.453842,-8.370094,-65.379997,-42.630001,-26.530001,1729420690714.0,0.0
-3.495914,-5.613562,-7.448857,55.93,-6.16,-18.48,1729420690733.0,0.0
-4.807181,-3.878766,-6.862615,106.82,31.08,-18.27,1729420690753.0,0.0
-4.45065,-3.242275,-8.68116,101.150002,6.72,-4.62,1729420690773.0,0.0
-2.029114,-2.349752,-9.267403,59.709999,-49.139999,5.46,1729420690793.0,0.0
0.849452,-1.942972,-11.801401,16.1,-75.529999,6.37,1729420690815.0,0.0
2.694318,-1.545763,-10.968699,-3.85,-60.760002,-5.04,1729420690836.0,0.0
1.773082,-5.788238,-10.272388,48.93,-2.1,30.17,1729420690854.0,0.0
-0.055035,-6.336195,-8.348558,32.619999,76.860001,25.41,1729420690873.0,0.0
-3.208775,-9.171689,-6.185446,28.0,110.18,44.450001,1729420690893.0,0.0
-4.993821,-11.85165,0.586242,-22.889999,58.240002,11.83,1729420690914.0,0.0
-5.316852,-11.239087,-1.275374,-147.839996,5.32,-24.5,1729420690933.0,0.0
-4.005585,-11.700903,-7.178468,-170.380005,-16.52,-31.43,1729420690954.0,0.0
-2.835495,-10.58824,-8.346166,-81.690002,-41.299999,-26.67,1729420690973.0,0.0
-3.034099,-8.516055,-7.590034,28.0,-13.72,-22.26,1729420690994.0,0.0
-4.259224,-5.051248,-6.84108,81.059998,21.629999,-28.280001,1729420691016.0,0.0
-5.168497,-3.058028,-7.073184,94.080002,19.950001,-17.710001,1729420691033.0,0.0
-2.134398,-2.440679,-10.289137,84.699997,-18.34,-4.06,1729420691054.0,0.0
0.847059,-1.56012,-10.856236,41.93,-65.379997,13.09,1729420691073.0,0.0
3.122634,-0.995414,-10.530812,-4.06,-52.709999,-1.05,1729420691095.0,0.0
2.184647,-4.601398,-9.351151,16.379999,-13.79,23.66,1729420691116.0,0.0
-0.555135,-7.307681,-7.542177,23.1,68.389999,44.939999,1729420691132.0,0.0
-4.204189,-9.934999,-2.545963,-12.18,91.910004,26.040001,1729420691153.0,0.0
-6.532406,-9.635897,-2.677568,-124.949997,54.599998,-8.19,1729420691174.0,0.0
-5.551349,-10.748559,-5.505885,-205.169998,0.35,-22.33,1729420691193.0,0.0
-3.074777,-12.500106,-8.664411,-154.350006,-59.5,-9.24,1729420691214.0,0.0
-1.954936,-10.877771,-7.290931,-42.560001,-53.27,0.35,1729420691235.0,0.0
-1.923829,-7.77428,-7.817351,58.59,-8.89,-18.9,1729420691253.0,0.0
-3.5007,-5.206782,-7.767102,97.300003,33.389999,-34.860001,1729420691272.0,0.0
-4.735396,-4.386044,-8.037491,104.300003,45.779999,-35.349998,1729420691294.0,0.0
-4.321437,-3.369094,-8.324631,81.830002,4.27,-19.040001,1729420691316.0,0.0
-2.189433,-2.766103,-8.762517,59.5,-46.549999,-0.28,1729420691334.0,0.0
-0.043071,-3.175276,-10.669596,51.240002,-68.809998,0.77,1729420691353.0,0.0
1.172483,-2.404787,-10.100104,46.830002,-49.349998,7.42,1729420691373.0,0.0
1.371087,-3.158526,-8.032705,46.619999,-12.88,17.710001,1729420691394.0,0.0
-0.129212,-5.711668,-7.180861,31.99,68.739998,33.389999,1729420691415.0,0.0
-2.663212,-10.207782,-3.615555,-6.93,94.57,28.07,1729420691433.0,0.0
-5.912664,-11.803794,-1.854438,-133.490005,68.529999,-6.3,1729420691452.0,0.0
-6.953543,-13.603197,-3.213561,-189.279999,25.9,-35.209999,1729420691474.0,0.0
-4.771288,-11.956935,-8.846266,-163.589996,-39.549999,-45.849998,1729420691495.0,0.0
-2.969493,-10.07139,-9.638289,-52.150002,-53.619999,-30.24,1729420691517.0,0.0
-2.617748,-8.535198,-7.192825,54.740002,-27.02,-32.27,1729420691605.0,0.0
-3.830909,-4.907679,-6.352944,101.779999,20.370001,-42.700001,1729420691606.0,0.0
-4.589434,-3.206382,-6.577869,129.220001,33.529999,-27.299999,1729420691606.0,0.0
-3.404987,-1.457229,-9.250652,101.360001,-22.26,-4.69,1729420691606.0,0.0
-1.105484,0.303888,-9.583255,43.119999,-67.620003,15.12,1729420691616.0,0.0
1.249053,-1.282553,-9.95175,8.26,-73.220001,9.87,1729420691634.0,0.0
1.79701,-4.295116,-10.700702,-33.599998,-29.68,17.219999,1729420691653.0,0.0
0.70349,-7.001399,-10.671989,6.72,17.57,35.490002,1729420691673.0,0.0
-1.596013,-6.324231,-7.551748,41.09,76.440002,42.07,1729420691693.0,0.0
-2.816352,-9.982857,-4.905287,55.369999,66.989998,29.049999,1729420691715.0,0.0
-4.890929,-12.098111,1.311267,-0.14,49.07,24.219999,1729420691733.0,0.0
-5.666204,-11.715261,0.215354,-100.940002,10.78,-17.780001,1729420691754.0,0.0
-5.123034,-11.090734,-6.489335,-137.270004,-12.88,-38.220001,1729420691775.0,0.0
-3.225525,-8.930015,-8.896514,-64.540001,-37.240002,-27.370001,1729420691794.0,0.0
-1.849652,-5.919843,-8.061419,26.389999,-47.389999,-13.3,1729420691814.0,0.0
-3.091527,-4.644469,-5.639884,66.5,-15.12,-11.06,1729420691834.0,0.0
-4.436293,-4.386044,-7.525427,66.989998,27.860001,-12.53,1729420691854.0,0.0
-4.034299,-3.194418,-10.236496,74.480003,8.26,6.37,1729420691874.0,0.0
-1.835295,-0.993021,-11.042876,53.970001,-36.68,32.060001,1729420691894.0,0.0
0.401994,-1.962115,-10.018748,28.42,-50.68,35.700001,1729420691916.0,0.0
0.859023,-4.23051,-10.478169,-20.58,-17.08,30.17,1729420691934.0,0.0
-0.394816,-6.056234,-10.236496,-30.309999,50.889999,49.630001,1729420691954.0,0.0
-1.708475,-7.889136,-7.360322,21.35,59.990002,46.200001,1729420691974.0,0.0
-3.689733,-11.006985,-0.198604,46.830002,59.849998,50.889999,1729420691994.0,0.0
-4.453043,-11.346765,-0.66999,-85.050003,11.76,-11.55,1729420692019.0,0.0
-5.087141,-12.440285,-2.928815,-147.630005,-2.1,-27.65,1729420692033.0,0.0
-4.902894,-12.397215,-6.336195,-129.710007,-30.380001,-65.449997,1729420692055.0,0.0
-3.294917,-9.58804,-7.692925,-42.279999,-33.18,-55.510002,1729420692076.0,0.0
-1.698904,-5.462814,-9.480364,42.420002,-39.549999,-37.869999,1729420692097.0,0.0
-2.76371,-1.636691,-7.226324,80.010002,-23.940001,-23.66,1729420692117.0,0.0
-4.125226,-2.845066,-7.89153,92.959999,12.11,-11.41,1729420692135.0,0.0
-4.067799,-3.572484,-9.365508,58.799999,-6.58,-1.33,1729420692157.0,0.0
-2.081756,-3.144169,-10.006784,35.700001,-34.580002,23.24,1729420692175.0,0.0
0.224925,-2.572284,-10.722239,-5.11,-39.619999,15.05,1729420692196.0,0.0
0.461815,-5.709275,-10.839487,5.39,-3.15,33.110001,1729420692220.0,0.0
-0.112463,-5.895915,-9.327222,22.26,34.09,26.460001,1729420692234.0,0.0
-1.864009,-7.999206,-8.090133,48.23,72.099998,41.299999,1729420692257.0,0.0
-3.117848,-11.45205,-3.335595,31.92,61.459999,8.96,1729420692276.0,0.0
-5.647062,-11.4018,1.555335,-27.02,48.580002,-0.21,1729420692295.0,0.0
-5.06082,-9.095119,-4.17069,-145.180008,-6.58,-59.43,1729420692321.0,0.0
-3.773481,-8.209774,-7.929814,-119.07,-18.200001,-49.98,1729420692334.0,0.0
-2.244468,-7.453642,-8.453842,-41.02,-50.68,-38.009998,1729420692357.0,0.0
-3.034099,-5.876772,-7.353144,40.389999,-25.549999,-29.4,1729420692376.0,0.0
-5.02732,-4.074977,-7.613962,74.900002,29.889999,-31.15,1729420692395.0,0.0
-5.084748,-4.402793,-8.958728,106.120003,27.51,-11.9,1729420692417.0,0.0
-2.567499,-1.741975,-9.442079,59.990002,-35.279999,9.73,1729420692435.0,0.0
-0.021535,-1.861616,-9.186047,29.190001,-61.389999,25.549999,1729420692456.0,0.0
1.289732,-3.282953,-9.84168,-3.85,-45.009998,21.0,1729420692474.0,0.0
0.930808,-4.125226,-9.293723,-14.7,8.05,34.369999,1729420692496.0,0.0
-0.588634,-7.032506,-8.683553,36.400002,51.380001,45.080002,1729420692517.0,0.0
-2.26361,-7.922636,-6.711867,18.969999,77.279999,31.99,1729420692535.0,0.0
-4.431508,-10.619347,-1.009771,-34.580002,64.75,23.24,1729420692556.0,0.0
-5.123034,-10.143176,-2.208575,-162.960007,23.17,-27.299999,1729420692575.0,0.0
-4.706682,-11.456835,-7.410572,-183.610001,-15.05,-38.709999,1729420692595.0,0.0
-3.266203,-10.191031,-8.338986,-129.5,-42.0,-45.57,1729420692618.0,0.0
-3.04367,-8.659625,-6.788438,-4.9,-25.969999,-32.200001,1729420692634.0,0.0
-4.232903,-5.462814,-6.65444,85.400002,16.24,-52.849998,1729420692656.0,0.0
-4.785645,-3.491128,-8.039884,91.209999,19.460001,-31.92,1729420692675.0,0.0
-3.48395,-1.76351,-8.84148,60.830002,-26.809999,-11.55,1729420692696.0,0.0
-1.45005,-1.801795,-9.363115,18.34,-50.189999,5.18,1729420692717.0,0.0
0.217747,-3.321238,-9.877571,0.35,-44.869999,13.65,1729420692735.0,0.0
0.835095,-5.268995,-10.415956,20.719999,-14.28,24.780001,1729420692755.0,0.0
0.875773,-5.103891,-9.832108,47.740002,14.35,24.57,1729420692775.0,0.0
-0.157926,-5.666204,-8.193025,60.130001,44.029999,34.02,1729420692796.0,0.0
-1.70369,-6.592227,-5.726025,16.030001,62.93,29.82,1729420692828.0,0.0
-3.381058,-11.382657,-2.053042,-17.780001,54.110001,16.66,1729420692834.0,0.0
-4.768896,-12.808779,-3.460021,-93.239998,23.799999,-23.940001,1729420692855.0,0.0
-5.288138,-12.220145,-4.953143,-104.580002,10.15,-40.25,1729420692875.0,0.0
-4.304688,-9.839286,-6.719046,-54.25,-21.559999,-52.849998,1729420692895.0,0.0
-2.880959,-7.121039,-8.001599,6.86,-24.57,-46.549999,1729420692919.0,0.0
-3.409772,-4.218546,-6.532406,48.720001,-18.620001,-29.82,1729420692936.0,0.0
-4.287938,-3.218346,-6.979864,81.690002,12.32,-19.040001,1729420692954.0,0.0
-3.28056,-1.65344,-9.896714,49.77,-4.62,10.15,1729420692976.0,0.0
-0.806381,-1.739582,-10.317852,28.35,-42.490002,28.0,1729420692996.0,0.0
1.103091,-3.634698,-10.664811,11.06,-53.619999,25.41,1729420693021.0,0.0
1.629512,-4.630112,-10.695917,-14.42,-7.63,29.82,1729420693034.0,0.0
0.380459,-7.01097,-9.489935,20.719999,37.450001,37.310001,1729420693054.0,0.0
-1.588834,-7.869993,-7.49432,27.790001,79.519997,34.369999,1729420693074.0,0.0
-3.45045,-9.391829,-3.761517,24.92,81.550003,27.370001,1729420693096.0,0.0
-4.95075,-11.540584,-1.040878,-27.719999,47.459999,-5.18,1729420693117.0,0.0
-5.546563,-10.633704,-1.155733,-123.900002,20.790001,-34.09,1729420693134.0,0.0
-4.900501,-9.982857,-5.711668,-124.459999,-25.059999,-45.709999,1729420693156.0,0.0
-3.04367,-7.582855,-6.843473,-65.309998,-39.830002,-41.790001,1729420693175.0,0.0
-3.09392,-5.716454,-7.006185,3.15,-35.139999,-17.290001,1729420693196.0,0.0
-4.134798,-3.555735,-6.254838,26.460001,-1.4,-11.55,1729420693217.0,0.0
-4.589434,-4.656433,-8.365308,53.060001,4.9,5.67,1729420693234.0,0.0
-2.792424,-4.465007,-10.557133,69.230003,-36.68,25.83,1729420693255.0,0.0
-1.050449,-2.986243,-10.200603,52.5,-61.040001,44.799999,1729420693276.0,0.0
1.37348,-4.024727,-10.657632,13.23,-49.279999,22.190001,1729420693296.0,0.0
0.399601,-7.116255,-10.777272,26.110001,2.38,27.860001,1729420693319.0,0.0
-0.485743,-6.474977,-8.274381,29.82,51.240002,17.360001,1729420693335.0,0.0
-2.510071,-8.664411,-6.072984,24.15,61.18,14.98,1729420693355.0,0.0
-3.795017,-10.621738,-3.562913,-10.64,59.080002,5.18,1729420693375.0,0.0
-4.977071,-12.014362,-0.768096,-62.860001,9.8,-34.439999,1729420693397.0,0.0
-4.962714,-10.514063,-3.567699,-99.260002,1.12,-47.670002,1729420693415.0,0.0
-3.498307,-7.743174,-7.846066,-58.59,-35.349998,-48.02,1729420693435.0,0.0
