acc_x,acc_y,acc_z,gyr_x,gyr_y,gyr_z,timestamp,label
-1.136591,-3.4672,-9.731609,-274.890015,-29.190001,-14.63,1729472092503.0,0.0
-1.150948,-5.218746,-9.870394,-208.25,-28.0,-2.1,1729472092505.0,0.0
-2.368894,-5.608776,-8.702696,-84.910004,-26.460001,8.54,1729472092507.0,0.0
-2.507678,-5.029713,-7.329216,49.349998,-41.369999,19.32,1729472092509.0,0.0
-2.299503,-5.223531,-7.750352,151.479996,-58.799999,31.85,1729472092516.0,0.0
-2.565106,-6.338587,-9.822537,237.649994,-68.459999,45.220001,1729472092536.0,0.0
-3.318845,-8.082954,-13.29213,351.329987,-63.84,61.389999,1729472092556.0,0.0
-4.498507,-9.96132,-14.947963,497.630005,-26.460001,77.699997,1729472092577.0,0.0
-6.613762,-8.051848,-13.940585,619.919983,29.610001,92.120003,1729472092596.0,0.0
-7.712067,-4.479364,-7.381857,617.609985,61.670002,82.599998,1729472092616.0,0.0
-7.56132,-1.442872,-1.043271,461.160004,64.75,62.16,1729472092636.0,0.0
-7.362715,-4.35733,1.445265,291.200012,56.700001,34.720001,1729472092656.0,0.0
-6.209375,-7.982457,1.375873,149.729996,44.170002,-7.28,1729472092677.0,0.0
-2.981457,-9.954143,-0.949951,62.299999,17.43,-27.299999,1729472092695.0,0.0
-1.828116,-10.186246,-2.09372,-3.08,9.1,-29.610001,1729472092717.0,0.0
-1.837688,-9.387043,-2.306681,-21.0,9.31,-28.42,1729472092736.0,0.0
-2.380858,-8.082954,-1.536192,-38.009998,10.57,-23.870001,1729472092755.0,0.0
-3.113062,-7.37468,-1.081556,-64.470001,4.27,-16.17,1729472092776.0,0.0
-3.371487,-7.142576,-1.055235,-93.099998,-4.27,-16.24,1729472092796.0,0.0
-3.515057,-7.52782,-1.596013,-114.239998,-10.36,-15.75,1729472092816.0,0.0
-3.665804,-8.346166,-2.641676,-122.010002,-12.39,-15.190001,1729472092836.0,0.0
-3.866802,-9.097511,-3.790231,-111.720001,-12.6,-15.12,1729472092856.0,0.0
-4.098906,-9.317651,-4.259224,-82.32,-9.45,-11.34,1729472092877.0,0.0
-4.316652,-8.898908,-4.402793,-49.139999,-7.14,-7.7,1729472092896.0,0.0
-4.352544,-8.566305,-4.39083,-21.42,-5.6,-4.41,1729472092915.0,0.0
-4.383651,-8.752945,-4.039084,-1.4,-2.03,-1.75,1729472092936.0,0.0
-4.737789,-9.162118,-3.663411,12.04,3.36,-0.35,1729472092956.0,0.0
-5.039285,-9.257831,-3.39063,21.629999,7.21,-0.7,1729472092977.0,0.0
-5.07757,-8.999406,-2.974278,23.1,7.91,-2.03,1729472092997.0,0.0
-4.924429,-8.779266,-2.976671,14.42,6.44,-6.51,1729472093015.0,0.0
-4.642076,-8.001599,-3.115455,6.79,8.54,-10.5,1729472093036.0,0.0
-4.149154,-7.525427,-3.055635,6.09,6.86,-11.27,1729472093056.0,0.0
-3.493521,-7.470392,-3.081956,7.91,5.11,-9.17,1729472093077.0,0.0
-3.151347,-7.587641,-3.211168,10.43,6.3,-5.6,1729472093096.0,0.0
-3.024528,-7.704889,-3.213561,12.6,7.56,0.42,1729472093116.0,0.0
-2.945565,-7.793423,-3.201597,7.07,6.23,5.6,1729472093140.0,0.0
-3.034099,-8.116454,-3.129812,-7.07,4.9,9.94,1729472093156.0,0.0
-3.237489,-8.518449,-3.26381,-23.24,4.13,10.36,1729472093177.0,0.0
-3.515057,-8.88455,-3.567699,-32.970001,3.78,7.98,1729472093197.0,0.0
-3.84048,-9.111869,-3.919443,-32.759998,2.73,3.92,1729472093216.0,0.0
-4.086941,-9.147761,-4.204189,-27.58,2.17,-1.4,1729472093236.0,0.0
-4.242475,-8.970692,-4.268795,-23.1,1.33,-6.65,1729472093256.0,0.0
-4.072584,-8.705089,-4.326223,-21.77,-1.12,-10.64,1729472093277.0,0.0
-3.9338,-8.492127,-4.342973,-20.790001,-2.59,-12.95,1729472093295.0,0.0
-3.850052,-8.389235,-4.290331,-19.18,-1.82,-12.95,1729472093315.0,0.0
-3.818945,-8.374879,-4.192225,-16.940001,-0.14,-12.95,1729472093337.0,0.0
-3.725625,-8.343772,-4.024727,-15.26,1.05,-12.95,1729472093355.0,0.0
-3.558127,-8.219346,-3.739982,-13.440001,2.1,-11.76,1729472093379.0,0.0
-3.507878,-8.149954,-3.761517,-10.92,3.29,-9.87,1729472093396.0,0.0
-3.455236,-8.181061,-3.885944,-10.29,3.01,-8.19,1729472093415.0,0.0
-3.369094,-8.319844,-3.852444,-9.73,3.29,-6.16,1729472093436.0,0.0
-3.388237,-8.238488,-3.783052,-7.91,3.71,-4.55,1729472093456.0,0.0
-3.605984,-8.260024,-3.775874,-6.02,4.41,-2.8,1729472093479.0,0.0
-3.737589,-8.310273,-3.869194,-6.58,3.01,-2.94,1729472093495.0,0.0
-3.742374,-8.336594,-4.022335,-6.3,1.12,-2.8,1729472093515.0,0.0
-3.716053,-8.322237,-4.125226,-6.44,-0.49,-2.87,1729472093536.0,0.0
-3.74716,-8.353344,-4.197011,-8.05,-1.12,-3.43,1729472093555.0,0.0
-3.646662,-8.310273,-4.287938,-8.26,-1.89,-3.08,1729472093579.0,0.0
-3.646662,-8.293523,-4.302295,-6.3,-1.82,-3.15,1729472093595.0,0.0
-3.656233,-8.185846,-4.316652,-4.48,-1.96,-3.57,1729472093615.0,0.0
-3.620341,-8.193025,-4.331009,-3.78,-2.24,-3.71,1729472093636.0,0.0
-3.644269,-8.185846,-4.371687,-3.43,-1.82,-3.22,1729472093655.0,0.0
-3.644269,-8.228917,-4.335794,-3.43,-2.03,-3.01,1729472093677.0,0.0
-3.646662,-8.202596,-4.400401,-3.01,-2.66,-2.52,1729472093695.0,0.0
-3.694518,-8.286345,-4.405186,-4.9,-2.45,-2.38,1729472093716.0,0.0
-3.639483,-8.30788,-4.35733,-5.6,-2.31,-2.17,1729472093736.0,0.0
-3.641876,-8.35813,-4.400401,-5.11,-2.31,-2.03,1729472093764.0,0.0
-3.632305,-8.310273,-4.395615,-3.22,-2.1,-1.68,1729472093778.0,0.0
-3.584448,-8.310273,-4.412365,-1.68,-2.03,-1.54,1729472093796.0,0.0
-3.505485,-8.338986,-4.338188,-1.68,-1.96,-1.47,1729472093816.0,0.0
-3.574877,-8.303094,-4.307081,-2.59,-1.68,-1.96,1729472093836.0,0.0
-3.574877,-8.300702,-4.378866,-4.06,-1.75,-2.31,1729472093856.0,0.0
-3.567699,-8.29113,-4.479364,-4.97,-1.68,-2.73,1729472093880.0,0.0
-3.515057,-8.305488,-4.500899,-5.18,-1.68,-2.52,1729472093896.0,0.0
-3.507878,-8.312666,-4.534399,-5.46,-1.54,-2.45,1729472093915.0,0.0
-3.493521,-8.374879,-4.474578,-5.32,-0.98,-2.24,1729472093938.0,0.0
-3.52702,-8.355737,-4.505685,-3.71,-0.98,-1.89,1729472093956.0,0.0
-3.498307,-8.25763,-4.479364,-2.45,0.98,-2.03,1729472093977.0,0.0
-3.481557,-8.295916,-4.472186,-1.89,1.82,-2.1,1729472093997.0,0.0
-3.48395,-8.269595,-4.443472,-1.54,2.8,-2.45,1729472094016.0,0.0
-3.510271,-8.185846,-4.400401,-0.63,3.57,-3.64,1729472094037.0,0.0
-3.529413,-8.092526,-4.424329,-0.56,3.64,-3.92,1729472094056.0,0.0
-3.524628,-8.090133,-4.441079,-1.54,3.08,-3.43,1729472094079.0,0.0
-3.567699,-8.157133,-4.453043,-2.59,3.22,-2.94,1729472094097.0,0.0
-3.668197,-8.212167,-4.443472,-3.78,3.99,-2.45,1729472094117.0,0.0
-3.754339,-8.250452,-4.510471,-4.34,3.64,-2.03,1729472094141.0,0.0
-3.711268,-8.26481,-4.553542,-5.6,3.29,-2.17,1729472094157.0,0.0
-3.816552,-8.451449,-4.613362,-7.91,3.64,-2.59,1729472094180.0,0.0
-3.790231,-8.46102,-4.63729,-9.17,4.41,-3.5,1729472094197.0,0.0
-3.639483,-8.408379,-4.651647,-9.59,3.5,-4.34,1729472094217.0,0.0
-3.321238,-8.35813,-4.802395,-11.27,2.52,-5.53,1729472094238.0,0.0
-2.991028,-8.293523,-4.785645,-13.79,1.89,-6.65,1729472094257.0,0.0
-2.70389,-8.30788,-5.029713,-15.54,2.94,-7.91,1729472094279.0,0.0
-2.715853,-8.496914,-5.314459,-15.82,6.72,-9.59,1729472094298.0,0.0
-2.971886,-8.539984,-5.4676,-6.23,14.98,-10.36,1729472094317.0,0.0
-3.026921,-8.346166,-5.410172,4.41,17.780001,-10.5,1729472094339.0,0.0
-3.031706,-8.221739,-5.489135,10.08,20.860001,-10.57,1729472094358.0,0.0
-2.964707,-8.236095,-5.35753,10.08,23.870001,-10.78,1729472094378.0,0.0
-2.976671,-8.41795,-5.115855,9.38,27.16,-10.57,1729472094397.0,0.0
-3.07717,-8.367701,-5.201996,16.17,29.469999,-10.57,1729472094417.0,0.0
-3.007778,-8.523234,-5.345565,26.040001,29.4,-10.99,1729472094438.0,0.0
-2.883351,-8.468199,-5.481956,29.190001,30.450001,-13.02,1729472094456.0,0.0
-2.95035,-8.441878,-5.211568,27.93,34.580002,-14.49,1729472094482.0,0.0
-3.134598,-8.573483,-4.852644,26.389999,35.630001,-15.05,1729472094498.0,0.0
-3.007778,-8.882158,-4.493721,28.07,33.25,-16.309999,1729472094518.0,0.0
-2.644069,-8.848659,-4.309474,35.77,26.809999,-16.52,1729472094538.0,0.0
-2.342573,-8.630912,-3.775874,44.240002,26.530001,-17.08,1729472094557.0,0.0
-2.371287,-8.437093,-3.326023,44.52,26.530001,-17.08,1729472094578.0,0.0
-2.335395,-8.374879,-2.816352,43.049999,24.08,-16.309999,1729472094597.0,0.0
-2.189433,-8.212167,-2.517249,37.59,18.34,-15.75,1729472094617.0,0.0
-2.108077,-7.537392,-2.304288,27.16,11.9,-14.28,1729472094637.0,0.0
-2.435893,-7.472785,-2.366502,-3.85,2.24,-8.19,1729472094658.0,0.0
-2.790031,-7.192825,-1.959722,-27.790001,-5.81,-3.5,1729472094678.0,0.0
-2.849852,-6.12084,-3.034099,-42.420002,-18.059999,5.25,1729472094697.0,0.0
-5.173282,-6.300302,3.175276,-55.860001,-29.049999,11.34,1729472094718.0,0.0
-9.420543,-7.695317,-1.055235,-110.110001,-40.880001,4.69,1729472094737.0,0.0
-9.085547,-4.737789,-9.829715,-192.149994,-71.889999,-13.65,1729472094756.0,0.0
-4.890929,-6.606583,-12.14836,-201.600006,-76.790001,1.33,1729472094778.0,0.0
-2.103291,-12.327823,-12.24168,-79.169998,-30.030001,25.969999,1729472094797.0,0.0
-4.63729,-10.473385,-12.509676,97.440002,65.099998,49.84,1729472094816.0,0.0
-4.089334,-5.929415,-10.470992,247.029999,94.919998,73.010002,1729472094838.0,0.0
-0.98345,-4.295116,-2.646462,170.449997,97.160004,57.959999,1729472094856.0,0.0
1.28016,-7.965706,3.022135,-0.7,88.059998,37.939999,1729472094878.0,0.0
1.792224,-12.600604,6.223732,-83.300003,51.52,25.549999,1729472094897.0,0.0
0.200997,-9.566505,7.601997,-7.42,-1.47,19.809999,1729472094916.0,0.0
-3.479164,-11.770294,1.883151,62.580002,-34.93,27.370001,1729472094937.0,0.0
-1.258625,-8.54477,-2.005185,-28.07,-99.050003,-14.63,1729472094957.0,0.0
-3.677768,-3.041277,-10.054641,-143.779999,-137.690002,-29.26,1729472094978.0,0.0
-7.135397,-6.178268,-20.659632,-225.050003,-96.739998,-35.07,1729472094998.0,0.0
-12.205789,-12.392428,-22.179073,0.21,27.790001,5.46,1729472095017.0,0.0
-10.506885,-8.331808,-10.760524,90.650002,80.010002,12.18,1729472095037.0,0.0
-2.529213,-4.936393,-12.189038,114.660004,42.209999,10.43,1729472095057.0,0.0
-2.019542,-3.864408,-7.977671,79.169998,110.110001,-0.77,1729472095078.0,0.0
-5.326423,-6.07777,-3.314059,23.59,146.369995,20.370001,1729472095097.0,0.0
-2.620141,-8.606983,2.40718,16.59,112.699997,29.610001,1729472095116.0,0.0
1.311267,-10.820344,10.516455,54.389999,65.800003,20.16,1729472095140.0,0.0
1.995614,-9.341579,7.800602,92.610001,-3.71,10.36,1729472095167.0,0.0
-3.639483,-6.960721,5.115855,39.619999,-58.52,-9.24,1729472095180.0,0.0
-1.493121,-7.032506,-2.615355,-88.480003,-136.639999,-36.610001,1729472095197.0,0.0
2.481357,-5.69731,-12.112469,-204.75,-188.229996,-65.519997,1729472095216.0,0.0
-5.910272,-8.863015,-10.937593,-230.860001,-116.970001,-59.360001,1729472095237.0,0.0
-14.524432,-11.356337,-24.741785,-55.369999,-6.79,-31.99,1729472095257.0,0.0
-13.127025,-7.9681,-15.500705,115.220001,65.449997,16.309999,1729472095279.0,0.0
0.031107,-2.943172,-10.851451,96.739998,7.91,5.74,1729472095296.0,0.0
-1.107877,-4.668397,-9.023334,57.889999,91.559998,11.69,1729472095317.0,0.0
-4.651647,-5.089533,-2.9336,57.470001,147.839996,46.34,1729472095337.0,0.0
-1.366302,-7.903493,6.920043,49.209999,111.160004,45.57,1729472095356.0,0.0
0.37328,-11.523834,14.562718,49.700001,52.360001,37.799999,1729472095378.0,0.0
-2.007578,-9.288938,9.269794,47.040001,-35.279999,-1.12,1729472095396.0,0.0
-3.792624,-6.312266,3.299703,-21.42,-92.540001,-9.52,1729472095417.0,0.0
2.56032,-1.136591,-4.295116,-174.440002,-181.649994,-41.580002,1729472095437.0,0.0
-0.961915,-6.013163,-11.691331,-246.820007,-178.710007,-34.650002,1729472095456.0,0.0
-11.004591,-11.770294,-22.42314,-229.460007,-82.25,-41.580002,1729472095477.0,0.0
-17.766708,-13.49552,-27.572496,-8.96,46.830002,-20.65,1729472095496.0,0.0
-6.534799,-4.23051,-16.094126,136.639999,5.25,-9.31,1729472095516.0,0.0
2.711068,-2.182254,-13.603197,116.620003,45.639999,-3.57,1729472095537.0,0.0
0.148355,-3.902694,-9.796216,62.02,141.119995,-3.22,1729472095557.0,0.0
-3.926622,-4.331009,-2.392823,83.93,168.910004,38.5,1729472095578.0,0.0
-1.816152,-6.439085,11.088341,86.519997,128.520004,47.670002,1729472095596.0,0.0
0.870987,-8.695518,17.508284,59.709999,52.080002,38.849998,1729472095617.0,0.0
-0.394816,-6.025128,10.037891,35.420002,-44.939999,21.35,1729472095637.0,0.0
-1.289732,-4.558327,-0.981057,-161.979996,-96.040001,6.09,1729472095656.0,0.0
1.088734,-5.178068,-15.481563,-289.940002,-193.199997,-24.43,1729472095678.0,0.0
-8.059027,-11.722438,-17.19243,-266.48999,-108.989998,-31.43,1729472095696.0,0.0
-19.372292,-20.276779,-29.74757,-39.41,43.049999,-54.740002,1729472095716.0,0.0
-11.203196,-7.688138,-17.247467,239.259995,46.830002,-8.26,1729472095738.0,0.0
4.07737,5.297709,-12.244074,185.360001,13.93,-10.99,1729472095757.0,0.0
3.419343,-3.436093,-9.468399,38.779999,122.919998,-12.25,1729472095779.0,0.0
-4.309474,-8.097312,-2.464607,69.93,167.020004,37.310001,1729472095804.0,0.0
-3.785445,-3.948158,7.953743,138.039993,128.449997,49.07,1729472095816.0,0.0
1.404587,-5.125426,16.127625,105.629997,38.290001,44.380001,1729472095836.0,0.0
-0.696311,-5.158926,10.688738,3.22,-39.900002,31.5,1729472095859.0,0.0
-5.659025,-6.51087,2.600998,-137.059998,-88.480003,31.5,1729472095878.0,0.0
-0.933201,-8.549555,-12.210573,-230.229996,-174.930008,-11.9,1729472095896.0,0.0
-4.666004,-11.751152,-17.185251,-208.039993,-135.029999,-20.93,1729472095918.0,0.0
-15.373885,-15.065211,-26.100908,-103.529999,-5.6,-58.66,1729472095938.0,0.0
-14.433505,-11.404193,-22.325035,169.889999,77.419998,-33.670002,1729472095957.0,0.0
4.529613,2.89053,-11.497513,224.070007,-8.47,-13.09,1729472095978.0,0.0
1.643869,-5.759524,-10.293922,30.380001,127.889999,-11.76,1729472095997.0,0.0
-4.046263,-3.804588,-3.486342,100.940002,176.330002,37.52,1729472096017.0,0.0
-3.287738,-3.907479,9.702895,138.949997,134.610001,52.360001,1729472096038.0,0.0
0.318245,-6.754939,16.436298,83.720001,50.75,42.490002,1729472096057.0,0.0
-0.775275,-7.733603,11.475977,6.51,-37.799999,18.27,1729472096079.0,0.0
-6.041877,-7.513463,6.429514,-75.32,-90.300003,19.879999,1729472096098.0,0.0
-2.435893,-3.754339,-6.331409,-217.770004,-177.589996,-24.219999,1729472096117.0,0.0
-2.208575,-6.522834,-19.771893,-256.269989,-182.490005,-18.41,1729472096141.0,0.0
-13.471591,-11.990433,-23.48316,-229.460007,-42.490002,-25.9,1729472096158.0,0.0
-19.578075,-18.044275,-27.555746,16.870001,115.919998,-34.09,1729472096180.0,0.0
-4.338188,-3.644269,-17.285749,247.800003,-19.040001,6.09,1729472096197.0,0.0
4.752146,3.491128,-10.131211,171.220001,76.860001,-14.28,1729472096220.0,0.0
-0.248854,-3.895515,-4.328616,37.869999,160.229996,-2.45,1729472096239.0,0.0
-2.045863,-6.108876,11.779866,137.130005,124.389999,60.48,1729472096258.0,0.0
2.017149,-4.445865,17.108681,155.050003,39.689999,63.98,1729472096280.0,0.0
0.308674,-6.163911,10.504492,50.959999,-39.759998,47.040001,1729472096299.0,0.0
-4.570292,-6.874579,3.488736,-92.330002,-79.099998,52.080002,1729472096318.0,0.0
-4.266403,-10.679168,-11.854043,-209.089996,-151.899994,16.940001,1729472096339.0,0.0
-6.707082,-12.782458,-21.623938,-263.059998,-110.389999,-26.389999,1729472096359.0,0.0
-13.423735,-10.509278,-25.667809,-172.059998,-1.19,-55.860001,1729472096379.0,0.0
-12.705888,-11.322837,-19.063618,38.57,76.300003,-52.080002,1729472096398.0,0.0
-2.081756,-4.807181,-12.191431,125.650002,19.809999,-35.630001,1729472096418.0,0.0
2.428715,-0.839881,-8.248059,115.919998,93.660004,-26.18,1729472096443.0,0.0
0.148355,-5.017749,-6.221339,150.360001,146.440002,1.54,1729472096458.0,0.0
-1.174876,-4.673182,6.673582,266.910004,135.520004,52.080002,1729472096480.0,0.0
-0.327817,-1.584049,9.272188,378.350006,71.120003,63.279999,1729472096498.0,0.0
1.028914,-2.206182,7.439285,413.420013,9.66,82.739998,1729472096522.0,0.0
-2.70389,-0.658026,7.257431,318.429993,-5.39,97.510002,1729472096538.0,0.0
-6.216553,-8.726624,4.711468,177.940002,-50.119999,104.370003,1729472096558.0,0.0
-2.871387,-13.983655,0.894916,126.419998,-91.980003,82.32,1729472096579.0,0.0
-4.479364,-12.741781,-0.007178,169.470001,-57.540001,79.239998,1729472096598.0,0.0
-7.013363,-14.699109,-0.68674,129.5,-32.759998,67.059998,1729472096618.0,0.0
-6.532406,-17.994026,-4.962714,66.080002,-16.870001,29.190001,1729472096640.0,0.0
-5.28096,-14.172688,-2.880959,6.58,3.78,-8.82,1729472096659.0,0.0
-4.110869,-7.465607,-2.512464,-49.84,17.290001,-26.389999,1729472096679.0,0.0
-5.209175,-5.766702,-3.034099,-154.979996,26.32,-41.23,1729472096699.0,0.0
-6.699903,-5.639884,1.871187,-270.619995,32.41,-67.480003,1729472096718.0,0.0
-5.314459,-8.094919,2.830709,-327.600006,-16.73,-80.150002,1729472096739.0,0.0
-2.615355,-8.595018,-1.90708,-362.459991,-69.510002,-97.510002,1729472096758.0,0.0
-3.048456,-7.070791,-4.326223,-391.929993,-56.560001,-92.82,1729472096779.0,0.0
-3.85723,-4.639683,-2.667997,-430.570007,-33.599998,-110.389999,1729472096798.0,0.0
-5.15414,-5.446064,-5.584848,-491.190002,-27.790001,-125.090004,1729472096818.0,0.0
-4.187439,-5.4341,-8.614161,-463.610016,-42.349998,-122.779999,1729472096838.0,0.0
-2.904887,-4.917251,-7.106683,-363.579987,-37.029999,-92.75,1729472096858.0,0.0
-0.684347,-5.132604,-9.064013,-290.149994,-36.889999,-85.260002,1729472096880.0,0.0
-0.021535,-6.51087,-10.037891,-220.080002,-28.98,-43.540001,1729472096897.0,0.0
0.662812,-13.222737,-13.629518,-107.379997,-20.02,-12.6,1729472096916.0,0.0
1.679761,-10.949556,-12.99542,225.330002,5.53,16.450001,1729472096938.0,0.0
1.012164,-9.276974,-11.875579,516.109985,21.700001,50.189999,1729472096958.0,0.0
0.401994,-3.833302,-9.640682,799.26001,26.530001,66.360001,1729472096980.0,0.0
-4.180261,0.401994,-2.718246,883.539978,75.110001,101.5,1729472096999.0,0.0
-6.099305,1.330409,1.765903,769.090027,67.269997,111.440002,1729472097017.0,0.0
-5.630312,-0.665205,3.897908,528.919983,24.43,102.830002,1729472097038.0,0.0
-5.819345,-4.436293,6.06102,320.670013,27.58,73.5,1729472097058.0,0.0
-7.288538,-9.635897,3.347559,241.220001,14.35,83.720001,1729472097079.0,0.0
-5.599205,-10.399208,1.356731,297.079987,-12.04,74.900002,1729472097098.0,0.0
-6.812366,-8.714661,1.725225,407.329987,43.959999,72.870003,1729472097118.0,0.0
-9.513863,-11.755937,3.160919,358.679993,72.940002,38.290001,1729472097140.0,0.0
-6.793223,-12.404392,4.335794,155.119995,51.939999,-18.48,1729472097158.0,0.0
-7.913064,-10.277173,5.98445,-32.549999,38.360001,-29.75,1729472097180.0,0.0
-7.312466,-10.748559,5.096712,-184.029999,8.33,-41.650002,1729472097198.0,0.0
-5.541777,-11.717653,2.550749,-317.170013,-2.59,-79.800003,1729472097217.0,0.0
-4.388437,-8.178668,6.436693,-461.369995,1.61,-115.150002,1729472097238.0,0.0
-1.457229,-5.213961,3.74716,-473.690002,-49.560001,-119.629997,1729472097257.0,0.0
-1.119841,-6.180661,-0.356531,-367.709991,-89.25,-91.349998,1729472097279.0,0.0
-1.438086,-5.871986,1.124627,-387.170013,-62.93,-89.110001,1729472097298.0,0.0
-2.818745,0.717847,0.066999,-583.23999,-44.029999,-107.099998,1729472097319.0,0.0
-5.965307,-4.847858,-3.818945,-746.619995,-49.490002,-103.879997,1729472097337.0,0.0
-2.689533,-10.786844,-11.751152,-670.039978,-89.739998,-142.449997,1729472097357.0,0.0
-0.794417,-8.597411,-11.32523,-469.630005,-56.209999,-100.029999,1729472097379.0,0.0
-0.528814,-5.783452,-8.831908,-217.350006,-23.24,-66.220001,1729472097398.0,0.0
-1.150948,-4.199404,-8.626125,-128.380005,-7.49,-46.830002,1729472097418.0,0.0
0.119641,-8.635696,-11.631511,-76.160004,-17.15,-18.059999,1729472097506.0,0.0
1.071985,-11.55494,-13.385449,91.209999,-14.84,17.290001,1729472097509.0,0.0
0.478565,-9.111869,-10.990234,318.920013,18.41,47.950001,1729472097511.0,0.0
-0.602991,-8.114061,-12.143576,628.460022,28.91,75.949997,1729472097514.0,0.0
-1.9669,-1.306481,-8.116454,885.780029,45.920002,94.290001,1729472097539.0,0.0
-4.986642,-0.502493,-1.737189,963.76001,90.300003,115.709999,1729472097541.0,0.0
-6.936793,0.468993,4.182654,766.919983,97.440002,95.620003,1729472097557.0,0.0
-6.597012,-4.029513,9.075976,504.980011,55.720001,81.550003,1729472097579.0,0.0
-5.584848,-6.778866,4.639683,289.380005,31.219999,48.93,1729472097598.0,0.0
-4.651647,-8.614161,2.29711,124.459999,8.33,80.43,1729472097617.0,0.0
-6.034698,-10.133603,1.222732,128.240005,25.34,82.32,1729472097638.0,0.0
-8.437093,-9.020942,-1.007378,10.71,45.220001,76.790001,1729472097658.0,0.0
-8.204988,-10.480563,-2.502892,-221.759995,30.799999,51.310001,1729472097681.0,0.0
-7.252645,-9.851252,-3.136991,-501.059998,2.8,8.75,1729472097698.0,0.0
-8.329416,-16.610975,-7.219146,-567.280029,-30.73,-29.68,1729472097717.0,0.0
-5.608776,-15.261423,-6.403193,-436.170013,-13.16,-52.920002,1729472097738.0,0.0
-5.383851,-6.369694,-2.213361,-369.670013,66.43,-100.099998,1729472097757.0,0.0
-4.232903,-4.074977,-0.87338,-369.809998,62.720001,-84.0,1729472097778.0,0.0
0.282353,-11.9689,3.220739,-358.820007,57.470001,-62.16,1729472097798.0,0.0
3.225525,-15.677773,9.798609,-189.699997,57.119999,-24.710001,1729472097817.0,0.0
2.998207,-9.317651,8.362915,5.74,26.389999,10.36,1729472097838.0,0.0
0.947558,-10.731809,3.756732,26.6,-7.35,18.620001,1729472097857.0,0.0
0.342174,-11.112268,2.069792,-63.560001,-23.940001,19.460001,1729472097880.0,0.0
0.957129,-9.119047,-1.524228,-147.0,-79.870003,8.19,1729472097897.0,0.0
-1.921437,-7.21436,-6.860222,-205.520004,-106.959999,-13.86,1729472097921.0,0.0
-6.592227,-6.412765,-18.685551,-164.990005,-78.610001,-18.620001,1729472097937.0,0.0
-14.359328,-5.745167,-21.226728,-63.630001,33.32,-12.74,1729472097957.0,0.0
-15.596417,-5.742774,-17.730816,54.599998,89.25,-7.21,1729472097979.0,0.0
-6.484549,-1.897508,-12.648461,118.440002,33.950001,-13.51,1729472097997.0,0.0
-3.759124,-1.328017,-10.628918,58.170002,105.629997,-10.92,1729472098017.0,0.0
-5.096712,-7.166504,-7.082755,34.790001,154.770004,13.02,1729472098037.0,0.0
-3.608376,-7.618747,5.163712,125.510002,146.509995,35.139999,1729472098057.0,0.0
-0.035892,-5.974878,14.105689,231.839996,92.120003,49.630001,1729472098079.0,0.0
2.921637,-3.349952,12.224932,183.119995,11.83,45.150002,1729472098097.0,0.0
-0.954736,-4.242475,9.370294,71.330002,-53.27,66.010002,1729472098117.0,0.0
-3.158526,-9.686146,1.395016,-20.370001,-114.520004,67.550003,1729472098142.0,0.0
-2.340181,-10.143176,-12.380465,-97.300003,-170.520004,38.779999,1729472098159.0,0.0
-5.730811,-9.444471,-17.369499,-151.199997,-116.900002,29.610001,1729472098186.0,0.0
-11.272588,-12.643675,-16.197016,-41.439999,-22.120001,28.42,1729472098333.0,0.0
-13.119846,-13.22513,-12.861421,188.300003,31.360001,21.0,1729472098333.0,0.0
-6.73101,-7.546963,-10.289137,347.269989,1.05,31.219999,1729472098334.0,0.0
-1.813759,-5.194818,-2.524428,387.380005,24.360001,20.719999,1729472098334.0,0.0
-0.009571,-0.885344,5.407779,362.320007,71.190002,49.0,1729472098334.0,0.0
0.397209,-1.445265,10.509278,323.329987,38.990002,84.349998,1729472098334.0,0.0
-2.227718,-6.905686,7.338787,186.479996,8.26,108.779999,1729472098335.0,0.0
-7.444071,-10.573883,1.897508,26.110001,20.09,99.120003,1729472098337.0,0.0
-10.688738,-10.30828,-3.385844,-141.470001,47.950001,60.41,1729472098356.0,0.0
-9.10469,-8.518449,-3.194418,-265.649994,5.04,15.05,1729472098377.0,0.0
-5.915058,-10.676775,-4.26401,-251.720001,-47.529999,-15.4,1729472098396.0,0.0
-6.324231,-10.415956,-4.37408,-239.610001,-30.59,-52.639999,1729472098416.0,0.0
-8.609376,-8.01117,-3.397808,-247.380005,13.58,-79.940002,1729472098437.0,0.0
-8.370094,-4.185047,-0.622134,-270.829987,-8.33,-108.849998,1729472098457.0,0.0
-8.279166,-2.007578,1.519442,-364.420013,-44.240002,-124.25,1729472098477.0,0.0
-8.114061,-2.78046,-2.354537,-470.470001,-41.650002,-133.350006,1729472098498.0,0.0
-5.051248,-3.460021,-5.946165,-454.580017,-61.040001,-99.610001,1729472098516.0,0.0
-2.395216,-5.699703,-6.750153,-361.690002,-71.889999,-59.990002,1729472098538.0,0.0
-2.304288,-9.781858,-8.458629,-249.899994,-31.92,-42.07,1729472098558.0,0.0
-2.017149,-11.507084,-12.806387,-50.119999,-17.290001,-9.24,1729472098578.0,0.0
-2.191825,-9.901501,-9.042477,178.779999,6.02,34.369999,1729472098597.0,0.0
-2.615355,-7.192825,-6.91765,504.839996,50.049999,70.419998,1729472098618.0,0.0
-4.036692,-5.295317,-5.618347,666.190002,40.040001,94.639999,1729472098639.0,0.0
-7.173682,-0.875773,1.11027,670.669983,71.889999,98.349998,1729472098658.0,0.0
-11.985649,-3.366701,3.5007,587.720032,72.099998,106.190002,1729472098679.0,0.0
-9.930215,-6.003592,0.964308,379.399994,-3.99,78.959999,1729472098698.0,0.0
-7.223931,-7.094719,-0.26321,269.079987,-24.710001,41.580002,1729472098716.0,0.0
-8.700303,-10.076177,-0.792024,249.970001,0.63,44.380001,1729472098738.0,0.0
-10.001998,-11.636297,-0.435494,245.070007,20.58,37.099998,1729472098758.0,0.0
-9.267403,-9.745967,-0.650848,207.899994,23.59,7.35,1729472098778.0,0.0
-8.695518,-10.124033,-1.014557,175.210007,22.33,-11.9,1729472098797.0,0.0
-8.099705,-9.635897,-1.957329,139.509995,19.879999,-37.59,1729472098816.0,0.0
-7.944171,-8.662018,-0.392423,110.739998,25.48,-46.27,1729472098838.0,0.0
-7.341179,-8.717053,2.007578,57.049999,18.549999,-59.360001,1729472098860.0,0.0
-4.953143,-8.35813,2.998207,-26.950001,-9.66,-87.849998,1729472098878.0,0.0
-2.500499,-8.662018,1.641476,-94.919998,-5.53,-97.370003,1729472098896.0,0.0
-1.292124,-8.161918,3.457629,-110.459999,18.969999,-96.32,1729472098916.0,0.0
-1.37348,-7.463214,9.102298,-104.510002,31.219999,-87.919998,1729472098937.0,0.0
-0.835095,-5.381458,11.456835,-132.089996,-2.87,-73.43,1729472098956.0,0.0
-0.368495,-4.146761,9.504292,-180.039993,-31.360001,-46.130001,1729472098982.0,0.0
-1.366302,-5.233103,4.09412,-218.330002,-48.509998,-36.68,1729472098998.0,0.0
-2.880959,-7.518249,-1.816152,-249.479996,-30.52,-28.559999,1729472099017.0,0.0
-2.89053,-9.810574,-1.811367,-189.279999,-7.7,-12.46,1729472099037.0,0.0
-3.292524,-8.102098,3.261417,-63.84,10.99,11.34,1729472099058.0,0.0
-4.419543,-6.197411,3.981657,-25.48,23.030001,27.440001,1729472099078.0,0.0
-6.726225,-4.24726,2.502892,-184.100006,6.02,24.290001,1729472099096.0,0.0
-6.855437,-5.627919,-3.15374,-355.110016,-35.0,3.57,1729472099116.0,0.0
-5.848059,-10.274779,-8.202596,-441.0,-69.019997,-14.14,1729472099139.0,0.0
-5.785845,-9.085547,-8.836694,-476.140015,-58.59,-51.380001,1729472099159.0,0.0
-7.51107,-8.886944,-8.506484,-410.619995,-24.219999,-66.709999,1729472099182.0,0.0
-6.56112,-4.204189,-8.322237,-349.089996,-41.09,-90.370003,1729472099196.0,0.0
-5.587241,-2.608176,-9.97807,-296.309998,-65.870003,-92.120003,1729472099217.0,0.0
-5.405386,-0.789631,-9.994821,-310.170013,-58.73,-106.75,1729472099237.0,0.0
-6.108876,-2.734996,-9.157332,-348.950012,-44.869999,-107.520004,1729472099256.0,0.0
-3.067599,-6.455836,-10.054641,-365.679993,-52.5,-111.720001,1729472099280.0,0.0
-3.826123,-7.089933,-9.652647,-290.779999,-30.1,-93.029999,1729472099298.0,0.0
-3.438486,-9.133404,-9.968499,-138.529999,-24.15,-58.029999,1729472099317.0,0.0
-1.552942,-10.229317,-10.320245,19.809999,-10.64,-42.84,1729472099338.0,0.0
-1.09352,-7.585248,-8.429914,187.600006,5.53,-3.78,1729472099357.0,0.0
-2.017149,-5.101498,-5.534599,295.679993,12.74,37.099998,1729472099379.0,0.0
-2.222932,-4.350152,-5.613562,323.679993,5.88,51.450001,1729472099396.0,0.0
-3.455236,-6.26441,-6.932007,316.329987,16.799999,58.59,1729472099416.0,0.0
-4.412365,-6.276374,-7.592427,332.01001,20.790001,67.269997,1729472099437.0,0.0
-3.723232,-7.580462,-6.776474,389.76001,-11.06,74.550003,1729472099456.0,0.0
-3.014957,-6.687939,-6.175875,396.480011,-23.52,63.0,1729472099477.0,0.0
-4.546363,-5.213961,-2.928815,294.0,14.63,40.880001,1729472099496.0,0.0
-7.972885,-3.266203,-0.911665,33.040001,33.25,10.78,1729472099516.0,0.0
-8.817552,-5.737988,-4.661219,-242.130005,1.33,-19.110001,1729472099537.0,0.0
-6.920043,-6.570691,-7.735995,-394.519989,-41.93,-46.549999,1729472099556.0,0.0
-5.611169,-5.429315,-9.075976,-416.779999,-55.16,-67.410004,1729472099579.0,0.0
-5.469993,-4.405186,-9.693325,-392.48999,-27.93,-84.769997,1729472099597.0,0.0
-5.63749,-2.730211,-9.592826,-260.329987,0.7,-90.019997,1729472099616.0,0.0
-6.496514,0.157926,-9.568897,-197.399994,16.66,-72.519997,1729472099636.0,0.0
-6.501299,1.485943,-7.975278,-190.539993,34.09,-48.860001,1729472099656.0,0.0
-5.142176,-0.62692,-7.975278,-197.820007,38.990002,-33.040001,1729472099678.0,0.0
-4.76411,-1.311267,-8.523234,-172.759995,43.400002,-15.12,1729472099697.0,0.0
-4.570292,-1.68694,-8.171489,-120.540001,40.040001,11.9,1729472099718.0,0.0
-4.283153,-2.574677,-7.977671,-97.230003,33.18,28.98,1729472099737.0,0.0
-0.713061,-6.762117,-9.078369,-75.809998,22.049999,28.42,1729472099757.0,0.0
1.282553,-6.285945,-9.549755,-39.200001,19.25,25.200001,1729472099781.0,0.0
0.342174,-2.799603,-8.762517,-36.82,19.809999,32.549999,1729472099797.0,0.0
1.531406,-6.336195,-10.602598,-76.650002,10.36,21.210001,1729472099816.0,0.0
2.122434,-6.503692,-10.956735,-41.720001,8.26,6.44,1729472099836.0,0.0
-0.672383,-2.909672,-10.499706,25.83,14.07,-2.59,1729472099856.0,0.0
-1.866402,-0.861416,-10.930414,18.27,15.61,-13.23,1729472099878.0,0.0
-2.086541,-1.775474,-10.188639,-24.43,16.870001,-24.710001,1729472099896.0,0.0
-3.259024,-0.713061,-10.370493,-43.189999,17.08,-37.029999,1729472099915.0,0.0
-4.575077,-0.959522,-9.829715,-45.57,17.780001,-39.689999,1729472099937.0,0.0
-5.28096,0.361316,-7.65464,-29.190001,20.719999,-45.639999,1729472099956.0,0.0
-5.462814,0.854238,-6.814759,-15.12,10.5,-32.200001,1729472099978.0,0.0
-6.094519,0.308674,-8.303094,-4.55,-3.64,-20.65,1729472099997.0,0.0
-7.250252,1.091127,-9.812965,-19.32,-9.66,-12.11,1729472100016.0,0.0
-8.274381,0.988236,-10.267602,-58.799999,-6.02,1.89,1729472100036.0,0.0
-6.673582,-0.882952,-10.325029,-65.590004,-4.76,11.2,1729472100056.0,0.0
-4.704289,-2.050649,-10.188639,-27.16,0.49,13.58,1729472100077.0,0.0
-4.21376,1.337588,-9.530612,35.209999,7.14,28.84,1729472100096.0,0.0
-2.447858,0.0335,-8.331808,58.099998,7.28,47.25,1729472100116.0,0.0
0.421137,-4.223332,-7.453642,36.610001,0.42,41.93,1729472100140.0,0.0
2.155933,-7.326823,-6.647261,6.37,-6.58,16.73,1729472100156.0,0.0
3.397808,-8.930015,-7.628319,21.210001,-20.860001,-4.41,1729472100180.0,0.0
2.54357,-6.515656,-9.62154,71.050003,-28.280001,-21.35,1729472100196.0,0.0
0.038285,-4.37408,-10.269995,94.010002,-23.030001,-28.77,1729472100216.0,0.0
-1.026521,-4.424329,-10.497313,106.330002,-21.559999,-33.740002,1729472100237.0,0.0
-1.074377,-5.491528,-10.133603,153.300003,-32.900002,-33.740002,1729472100256.0,0.0
-4.316652,-0.564706,-11.722438,196.839996,-32.619999,-40.110001,1729472100278.0,0.0
-6.391229,3.570091,-10.834702,166.880005,-13.09,-10.5,1729472100297.0,0.0
-7.087541,3.182454,-11.296515,56.349998,-5.88,11.48,1729472100315.0,0.0
-7.709675,1.062413,-12.291929,-39.970001,11.9,34.16,1729472100336.0,0.0
-9.444471,0.476172,-12.141183,-73.57,36.540001,50.330002,1729472100356.0,0.0
-8.561519,-0.705883,-11.188839,-57.68,53.900002,62.580002,1729472100378.0,0.0
-5.008178,-0.117248,-10.755738,-18.34,56.77,66.779999,1729472100396.0,0.0
-4.266403,0.837488,-9.501899,-1.54,68.389999,70.489998,1729472100417.0,0.0
-3.302095,-2.105684,-5.986843,-19.040001,67.269997,59.709999,1729472100436.0,0.0
-0.760918,-7.046863,-4.479364,-35.630001,46.41,31.43,1729472100483.0,0.0
1.380659,-9.205189,-3.512664,-30.450001,17.710001,-0.63,1729472100484.0,0.0
2.18704,-9.79143,-4.512863,33.529999,-10.99,-14.07,1729472100495.0,0.0
-0.105284,-9.401401,-7.223931,63.139999,-27.299999,-43.75,1729472100516.0,0.0
-1.962115,-5.831308,-8.932407,39.200001,-28.139999,-64.959999,1729472100536.0,0.0
-2.115255,-5.182854,-9.288938,13.58,-36.610001,-51.099998,1729472100555.0,0.0
-3.036492,-4.934,-8.240881,13.09,-41.369999,-47.670002,1729472100578.0,0.0
-4.125226,-2.897708,-11.334801,57.75,-46.060001,-37.029999,1729472100596.0,0.0
-6.570691,1.85683,-9.576077,58.52,-39.830002,-15.61,1729472100615.0,0.0
-6.470192,0.808774,-9.832108,-30.52,-22.4,2.94,1729472100636.0,0.0
-6.022735,-1.287339,-10.549955,-40.110001,-14.21,22.049999,1729472100656.0,0.0
-5.9677,-1.892723,-10.626525,1.05,-1.4,33.670002,1729472100677.0,0.0
-5.563312,-1.832902,-10.9017,41.439999,11.34,41.580002,1729472100695.0,0.0
-5.592027,-3.091527,-10.973484,38.5,26.18,41.299999,1729472100717.0,0.0
-5.551349,-3.701697,-9.786645,9.73,41.93,35.91,1729472100736.0,0.0
-4.070191,-4.252046,-7.666604,-33.110001,44.66,26.389999,1729472100756.0,0.0
-2.919244,-5.06082,-4.273581,-48.02,40.740002,18.83,1729472100778.0,0.0
-0.827917,-7.482357,-3.328416,-11.9,13.51,14.35,1729472100795.0,0.0
0.014357,-8.965906,-7.515855,24.01,-21.210001,-9.03,1729472100816.0,0.0
-0.42353,-6.082555,-11.416157,52.009998,-23.17,-28.91,1729472100837.0,0.0
-1.423729,-1.947758,-7.810174,50.049999,-17.08,-11.27,1729472100855.0,0.0
-1.217947,-2.124826,-8.252845,21.42,-35.279999,-9.94,1729472100877.0,0.0
-1.993221,-2.732604,-9.497113,2.59,-49.0,-11.55,1729472100896.0,0.0
-4.400401,0.09332,-9.504292,9.52,-49.700001,-8.47,1729472100916.0,0.0
-7.312466,2.11047,-10.518847,-7.7,-36.189999,1.05,1729472100936.0,0.0
-6.118448,-1.634298,-11.937792,-52.709999,-17.710001,11.97,1729472100963.0,0.0
-4.926822,-5.190032,-13.598411,-79.660004,12.04,4.69,1729472100978.0,0.0
-7.616355,-2.139183,-13.296914,-55.23,48.650002,10.15,1729472100997.0,0.0
-6.860222,1.540978,-10.274779,-50.330002,72.029999,27.51,1729472101017.0,0.0
-5.4006,-1.526621,-5.237889,-96.18,86.590004,34.16,1729472101036.0,0.0
-0.957129,-7.269395,-6.814759,-95.970001,62.93,18.200001,1729472101056.0,0.0
2.115255,-7.022934,-10.459028,-2.45,44.939999,22.82,1729472101078.0,0.0
1.57687,-6.618547,-7.307681,58.66,54.810001,18.549999,1729472101096.0,0.0
1.667797,-8.65484,-4.692325,34.790001,41.16,-10.22,1729472101116.0,0.0
2.646462,-10.121639,-8.965906,1.4,10.85,-40.25,1729472101141.0,0.0
0.571885,-6.898508,-8.085347,17.290001,5.53,-51.310001,1729472101157.0,0.0
-3.235096,-4.754539,-6.405586,21.84,-7.91,-45.709999,1729472101179.0,0.0
-4.395615,-1.842474,-6.903293,3.08,-31.219999,-36.540001,1729472101196.0,0.0
-7.056434,-2.87378,-5.690133,-4.83,-36.959999,-19.460001,1729472101217.0,0.0
-8.992228,-2.029114,-8.372486,16.52,-42.139999,-28.42,1729472101237.0,0.0
-7.219146,-3.239882,-9.066404,130.619995,-40.25,11.83,1729472101257.0,0.0
-7.183254,-4.503292,-11.653046,252.0,-12.18,30.59,1729472101278.0,0.0
-8.4012,-5.223531,-13.950156,380.380005,10.22,39.619999,1729472101297.0,0.0
-7.652246,-5.084748,-14.608182,492.730011,19.809999,38.779999,1729472101317.0,0.0
-5.460421,-3.943372,-10.619347,594.02002,18.200001,62.790001,1729472101338.0,0.0
-2.919244,-2.194218,-5.599205,652.470032,26.25,81.550003,1729472101359.0,0.0
-0.418744,-2.301895,-1.519442,605.359985,32.060001,82.949997,1729472101380.0,0.0
1.667797,-5.304887,0.512064,563.98999,51.099998,93.730003,1729472101398.0,0.0
2.273181,-7.216753,-0.937986,576.380005,73.5,87.010002,1729472101418.0,0.0
0.349352,-6.982256,11.260624,614.320007,99.610001,79.519997,1729472101445.0,0.0
-7.288538,0.70349,19.178473,319.269989,111.860001,53.900002,1729472101459.0,0.0
-8.539984,-5.168497,7.872386,-171.570007,8.19,37.52,1729472101480.0,0.0
-2.124826,-8.819944,1.636691,-366.660004,-72.379997,-26.530001,1729472101498.0,0.0
0.631705,-12.8686,-3.165704,-259.209991,-79.379997,19.67,1729472101518.0,0.0
-5.443672,-9.533006,-3.938586,-78.400002,-35.0,35.139999,1729472101538.0,0.0
-9.932607,-9.58804,-3.215954,0.56,10.85,35.91,1729472101558.0,0.0
-11.755937,-14.158331,-4.414758,-27.51,-9.52,7.49,1729472101579.0,0.0
-10.375278,-15.938592,-3.323631,28.77,-16.17,-32.34,1729472101598.0,0.0
-8.518449,-9.188439,1.038485,63.420002,23.17,-61.389999,1729472101618.0,0.0
-5.776274,-6.649654,-0.421137,33.110001,31.08,-83.230003,1729472101639.0,0.0
-4.546363,-10.954341,-1.768296,-72.029999,27.16,-98.209999,1729472101658.0,0.0
-2.768496,-11.75833,-1.861616,-85.400002,49.279999,-105.07,1729472101686.0,0.0
-2.222932,-8.85105,3.397808,-56.490002,77.209999,-92.540001,1729472101698.0,0.0
-1.007378,-4.149154,9.906286,-83.790001,57.68,-90.370003,1729472101717.0,0.0
1.581656,0.31346,11.030912,-19.950001,23.1,-45.080002,1729472101738.0,0.0
1.923829,2.45025,10.616954,17.57,-5.32,6.79,1729472101760.0,0.0
-2.526821,-0.224925,9.360723,-45.5,-31.92,57.610001,1729472101779.0,0.0
-6.15434,-7.121039,3.474378,-188.860001,-61.25,70.139999,1729472101798.0,0.0
-7.41775,-9.533006,-4.055835,-332.079987,-94.709999,33.040001,1729472101817.0,0.0
-7.52782,-7.668997,-8.989835,-412.51001,-129.220001,22.4,1729472101838.0,0.0
-7.520642,-10.085747,-16.058231,-362.529999,-120.190002,14.07,1729472101858.0,0.0
-13.167704,-15.000606,-16.220945,-216.300003,-36.610001,-14.49,1729472101879.0,0.0
-12.993028,-12.177074,-11.892329,10.78,71.470001,-26.110001,1729472101897.0,0.0
-7.097112,-6.668797,-8.02792,-12.11,61.110001,-44.380001,1729472101917.0,0.0
-2.727818,-6.003592,-8.075776,-36.259998,94.080002,-49.91,1729472101938.0,0.0
-0.880559,-6.740582,0.12682,-65.590004,125.790001,-34.09,1729472101957.0,0.0
0.346959,-8.293523,9.717253,-16.450001,104.090004,1.19,1729472101979.0,0.0
3.172883,-5.065606,10.504492,102.550003,43.400002,25.48,1729472101997.0,0.0
2.07697,-3.041277,8.949157,127.610001,-1.26,61.810001,1729472102017.0,0.0
-3.089134,-5.781059,6.173482,10.5,-28.35,71.330002,1729472102038.0,0.0
-4.972286,-9.186047,1.01695,-133.559998,-91.0,49.349998,1729472102057.0,0.0
-5.974878,-11.861222,-11.394621,-225.75,-139.930008,11.2,1729472102079.0,0.0
-6.910471,-12.069397,-18.479769,-230.160004,-122.5,-20.790001,1729472102098.0,0.0
-10.545169,-11.330014,-17.575283,-78.610001,-42.91,-31.85,1729472102117.0,0.0
-13.457234,-8.901299,-17.534603,86.099998,51.380001,-30.52,1729472102142.0,0.0
-8.10449,-7.133004,-11.090734,150.639999,42.139999,-18.129999,1729472102158.0,0.0
-1.76351,-3.929015,-9.889536,68.110001,48.23,-41.580002,1729472102178.0,0.0
-1.158126,-5.953342,-9.772287,19.67,106.120003,-27.23,1729472102197.0,0.0
-1.782653,-7.23111,3.256632,184.729996,131.110001,23.309999,1729472102218.0,0.0
-1.148555,-3.888337,11.504691,302.75,96.949997,41.369999,1729472102237.0,0.0
-1.069592,-3.117848,11.858829,307.160004,34.09,49.98,1729472102258.0,0.0
-4.055835,-0.681954,12.167502,219.029999,-15.4,66.290001,1729472102279.0,0.0
-4.520042,-4.378866,8.590233,104.580002,-80.360001,92.68,1729472102297.0,0.0
-2.608176,-11.10509,0.825524,-22.33,-133.839996,80.989998,1729472102317.0,0.0
-4.713861,-14.512468,-10.325029,-156.660004,-107.800003,41.02,1729472102338.0,0.0
-11.289338,-13.246667,-9.79143,-231.419998,-22.049999,34.02,1729472102357.0,0.0
-8.197811,-15.14896,-14.196616,-112.840004,-39.900002,35.0,1729472102379.0,0.0
-3.278167,-13.246667,-10.305886,111.090004,-38.080002,11.9,1729472102398.0,0.0
-4.072584,-5.465207,-6.147161,207.619995,27.09,6.93,1729472102417.0,0.0
-7.077969,-1.569692,-2.06022,123.480003,53.200001,1.82,1729472102500.0,0.0
-6.501299,-5.113462,-5.051248,-96.459999,23.309999,-27.02,1729472102502.0,0.0
-3.936193,-9.824929,-9.327222,-192.990005,7.98,-50.189999,1729472102508.0,0.0
-2.612962,-13.459626,-2.821138,-103.949997,7.49,-45.5,1729472102513.0,0.0
-5.185246,-9.997212,-1.033699,-33.740002,35.91,-62.16,1729472102519.0,0.0
-7.606783,-7.678568,-0.411566,9.1,29.33,-39.830002,1729472102538.0,0.0
-2.624927,-9.21476,-8.913264,33.18,17.85,-39.34,1729472102557.0,0.0
-1.414158,-6.386444,-3.962514,-29.190001,65.239998,-42.420002,1729472102579.0,0.0
-3.854837,-8.068598,0.758525,-56.630001,101.779999,-16.17,1729472102597.0,0.0
-4.237689,-10.238889,7.898707,-72.029999,61.670002,-19.110001,1729472102617.0,0.0
-3.452843,-9.413363,9.425328,-26.74,7.49,-24.15,1729472102638.0,0.0
-3.828516,-6.979864,7.278966,17.710001,-35.84,-8.47,1729472102657.0,0.0
-3.110669,-7.908278,4.180261,-15.26,-82.459999,-6.72,1729472102680.0,0.0
-2.45025,-8.190632,-1.600798,-132.720001,-119.699997,-18.76,1729472102698.0,0.0
-1.375873,-5.374279,-7.207181,-258.440002,-142.029999,-29.540001,1729472102718.0,0.0
-3.275774,-8.047063,-12.631711,-265.089996,-132.930008,-17.360001,1729472102738.0,0.0
-10.025927,-12.201002,-13.96212,-119.629997,-43.330002,-0.7,1729472102757.0,0.0
-18.561125,-9.147761,-21.054445,78.050003,78.050003,13.79,1729472102779.0,0.0
-13.134203,-5.446064,-14.074582,181.440002,54.110001,1.75,1729472102798.0,0.0
-4.036692,-0.835095,-10.200603,104.860001,16.52,-27.440001,1729472102817.0,0.0
-0.674776,-2.584249,-8.271988,40.389999,70.980003,-23.379999,1729472102837.0,0.0
-0.851845,-5.635098,-3.661019,33.389999,111.020004,11.97,1729472102856.0,0.0
-0.732204,-9.530612,10.205389,131.949997,90.510002,44.380001,1729472102878.0,0.0
-1.761117,-8.437093,10.289137,224.350006,29.190001,46.689999,1729472102898.0,0.0
-4.280759,-8.798409,5.924629,208.809998,-13.02,43.119999,1729472102916.0,0.0
-6.860222,-10.896914,3.285345,225.889999,-34.860001,53.900002,1729472102938.0,0.0
-6.168696,-11.889936,0.533599,211.259995,-43.540001,28.630001,1729472102957.0,0.0
-4.663611,-14.041083,-1.789831,178.080002,-46.900002,16.309999,1729472102980.0,0.0
-3.244668,-14.861821,-2.199004,199.5,-36.330002,10.36,1729472103004.0,0.0
-2.541178,-13.194024,-0.600598,256.899994,-10.01,9.45,1729472103017.0,0.0
-2.222932,-7.733603,-0.323031,270.269989,22.889999,-1.4,1729472103038.0,0.0
-3.206382,-4.311867,2.289931,227.220001,35.139999,9.45,1729472103059.0,0.0
-2.065006,-3.732803,1.706082,138.110001,24.639999,8.68,1729472103079.0,0.0
0.923629,-6.955935,-0.646062,132.440002,18.9,18.76,1729472103097.0,0.0
1.469193,-6.558727,6.391229,209.369995,62.02,43.68,1729472103118.0,0.0
-2.648855,0.468993,11.631511,240.869995,73.43,73.57,1729472103149.0,0.0
-5.783452,0.758525,11.289338,69.090004,32.900002,113.400002,1729472103368.0,0.0
-6.350551,-5.163712,0.246461,-181.509995,-17.639999,102.550003,1729472103383.0,0.0
-13.806586,-14.464613,-1.514657,-286.160004,-32.549999,124.949997,1729472103385.0,0.0
-20.702702,-25.529026,-7.226324,-157.149994,-62.510002,38.920002,1729472103386.0,0.0
-13.737194,-21.506691,-5.723632,61.810001,-11.48,-57.470001,1729472103386.0,0.0
-10.186246,-11.849257,-2.723032,187.529999,54.599998,-100.449997,1729472103387.0,0.0
-9.138189,-7.133004,-0.837488,195.440002,65.870003,-153.860001,1729472103388.0,0.0
-6.783652,-6.635297,1.174876,77.489998,26.040001,-154.0,1729472103390.0,0.0
-2.883351,-4.570292,0.055035,-19.18,6.44,-152.600006,1729472103391.0,0.0
2.445465,4.632504,2.648855,11.41,49.77,-124.529999,1729472103392.0,0.0
5.613562,8.10449,9.817751,56.490002,68.040001,-44.66,1729472103392.0,0.0
2.840281,5.053641,12.906885,69.300003,40.32,32.130001,1729472103392.0,0.0
-4.500899,1.787439,16.232908,95.410004,20.51,135.380005,1729472103397.0,0.0
-9.801002,-4.328616,12.591033,75.040001,-26.18,161.490005,1729472103420.0,0.0
-9.815358,-6.15434,5.429315,-23.450001,-55.09,129.360001,1729472103438.0,0.0
-8.95155,-3.826123,0.248854,-156.449997,-41.790001,122.849998,1729472103458.0,0.0
-13.354343,-10.643275,-3.756732,-205.520004,-41.509998,126.139999,1729472103483.0,0.0
-17.087147,-24.952356,-5.010571,-99.470001,-53.689999,33.810001,1729472103499.0,0.0
-11.79183,-27.043682,-6.515656,59.220001,-19.809999,-80.360001,1729472103518.0,0.0
-8.535198,-13.435699,-3.010171,176.330002,81.129997,-127.470001,1729472103541.0,0.0
-6.530013,-1.942972,2.462214,199.919998,71.68,-138.180008,1729472103560.0,0.0
-2.725425,1.706082,2.945565,93.449997,9.73,-126.419998,1729472103580.0,0.0
2.811567,4.345366,5.259424,-8.82,15.190001,-104.720001,1729472103599.0,0.0
5.264209,5.132604,10.772489,27.65,55.23,-21.07,1729472103620.0,0.0
-0.112463,4.106083,13.507483,75.599998,54.040001,72.099998,1729472103639.0,0.0
-7.197611,2.818745,15.194424,70.07,34.16,159.600006,1729472103660.0,0.0
-9.571291,-1.588834,9.403792,-70.209999,-7.42,153.369995,1729472103681.0,0.0
-12.239288,-5.094319,4.563113,-289.450012,-27.51,121.379997,1729472103698.0,0.0
-16.579868,-12.301501,-5.455636,-438.690002,-48.369999,88.620003,1729472103723.0,0.0
-13.77548,-21.324837,-11.653046,-419.230011,-106.470001,-16.379999,1729472103741.0,0.0
-7.74796,-20.69552,-9.475577,-197.75,-46.41,-37.939999,1729472103758.0,0.0
-5.438886,-12.811172,-5.730811,12.18,37.310001,-83.510002,1729472103781.0,0.0
-4.890929,-3.256632,1.411765,64.68,74.690002,-102.690002,1729472103799.0,0.0
-2.699104,0.334995,9.229117,-7.42,29.120001,-52.779999,1729472103818.0,0.0
-1.823331,-3.74716,7.257431,-217.279999,-38.009998,-43.119999,1729472103839.0,0.0
-2.533999,-8.26481,2.713461,-244.930008,-55.16,-21.98,1729472103859.0,0.0
-1.761117,-9.19801,-0.232104,-152.25,-72.029999,10.78,1729472103880.0,0.0
-2.206182,-7.733603,-1.287339,-84.699997,-58.099998,32.060001,1729472103899.0,0.0
-5.058427,-8.748159,-4.21376,-123.199997,-26.040001,25.27,1729472103918.0,0.0
-7.575676,-13.153346,-9.205189,-124.389999,-5.46,16.799999,1729472103940.0,0.0
-8.23131,-15.845272,-9.84168,22.82,12.88,9.66,1729472103961.0,0.0
-8.977871,-12.507284,-0.066999,144.759995,61.389999,-18.34,1729472104007.0,0.0
-10.042676,-5.276174,1.667797,124.389999,69.370003,-49.84,1729472104009.0,0.0
-9.276974,-6.738188,1.160519,92.400002,46.200001,-43.400002,1729472104080.0,0.0
-5.534599,-8.932407,0.358923,75.529999,41.650002,-63.560001,1729472104080.0,0.0
-2.419144,-7.465607,1.246661,146.789993,67.970001,-63.700001,1729472104081.0,0.0
-0.4666,-3.201597,4.814359,285.73999,75.599998,-31.92,1729472104090.0,0.0
-0.143569,0.579063,10.375278,325.709991,59.43,7.07,1729472104098.0,0.0
-1.957329,3.488736,11.693724,200.899994,28.630001,43.75,1729472104118.0,0.0
-7.188039,-5.024928,8.140383,-21.77,-21.629999,67.129997,1729472104167.0,0.0
-7.709675,-13.909478,-4.295116,-293.579987,-47.529999,4.2,1729472104168.0,0.0
-5.108676,-13.076776,-4.847858,-324.029999,-39.970001,2.17,1729472104189.0,0.0
-4.551149,-9.772287,-2.730211,-279.579987,-15.54,-17.08,1729472104199.0,0.0
-6.853044,-8.886944,-2.854637,-267.470001,1.54,-26.460001,1729472104219.0,0.0
-7.9346,-7.432107,-3.622734,-310.029999,-3.01,-49.630001,1729472104239.0,0.0
-6.805188,-6.400801,-2.081756,-339.429993,-40.880001,-56.98,1729472104259.0,0.0
-5.496314,-3.534199,-3.361916,-419.51001,-65.519997,-77.279999,1729472104281.0,0.0
-6.972685,-3.096312,-2.993421,-518.140015,-29.889999,-88.760002,1729472104298.0,0.0
-7.314859,-7.298109,-4.723432,-583.380005,-27.16,-123.760002,1729472104318.0,0.0
-2.258825,-8.26481,-4.9675,-433.51001,-76.230003,-103.459999,1729472104339.0,0.0
0.588634,-6.551548,-3.931407,-213.639999,-89.25,-61.599998,1729472104357.0,0.0
-1.911865,-8.382057,-9.602397,-98.910004,-51.240002,-46.900002,1729472104379.0,0.0
-2.065006,-12.035898,-16.630117,44.310001,-23.17,-20.299999,1729472104397.0,0.0
-2.464607,-11.980864,-13.708481,247.240005,5.67,32.900002,1729472104418.0,0.0
-3.725625,-7.936993,-10.370493,502.459991,48.09,66.360001,1729472104439.0,0.0
-4.479364,-3.495914,-10.368099,753.76001,53.830002,97.580002,1729472104458.0,0.0
-6.695118,3.005385,0.196211,892.570007,32.27,127.470001,1729472104479.0,0.0
-11.839686,0.571885,3.39063,713.929993,109.760002,95.269997,1729472104498.0,0.0
-12.562319,-3.29731,3.495914,481.73999,41.790001,98.209999,1729472104518.0,0.0
-6.939186,-7.207181,4.007978,362.670013,-32.48,42.560001,1729472104539.0,0.0
-6.199803,-9.195618,1.433301,281.190002,20.93,46.549999,1729472104558.0,0.0
-7.501499,-10.8682,1.847259,211.539993,38.920002,24.780001,1729472104580.0,0.0
-7.147361,-10.882557,4.668397,135.660004,33.740002,-11.2,1729472104598.0,0.0
-6.537192,-7.32443,7.030113,-3.64,27.860001,-39.549999,1729472104618.0,0.0
-6.91765,-7.860423,4.572684,-196.490005,-3.15,-61.040001,1729472104639.0,0.0
-6.046663,-8.26481,2.208575,-337.959991,-20.719999,-88.970001,1729472104659.0,0.0
-5.582455,-8.999406,3.854837,-418.880005,-25.620001,-97.580002,1729472104680.0,0.0
-3.761517,-9.60479,2.371287,-453.73999,-55.02,-109.480003,1729472104698.0,0.0
-3.117848,-8.992228,2.924029,-483.769989,-64.330002,-126.419998,1729472104718.0,0.0
-3.663411,-5.639884,1.091127,-579.950012,-52.080002,-153.649994,1729472104739.0,0.0
-3.129812,-2.531606,1.083949,-661.359985,-63.420002,-166.320007,1729472104759.0,0.0
-3.208775,-4.287938,1.167697,-704.830017,-73.779999,-147.419998,1729472104780.0,0.0
-1.507478,-5.778666,-0.722632,-616.0,-79.519997,-129.009995,1729472104798.0,0.0
1.447658,-9.628718,-6.73101,-386.329987,-100.169998,-68.879997,1729472104819.0,0.0
0.976272,-11.172089,-13.804193,17.92,-71.470001,8.26,1729472104839.0,0.0
-1.363909,-10.58824,-13.830515,299.880005,-1.54,71.889999,1729472104858.0,0.0
-3.917051,-10.633704,-10.439885,567.280029,47.740002,124.18,1729472104879.0,0.0
-5.773881,-11.942577,-11.669796,793.590027,49.560001,132.509995,1729472104898.0,0.0
-5.678168,-2.572284,-6.391229,799.470032,82.879997,81.830002,1729472104918.0,0.0
-7.295716,0.918844,2.002793,669.900024,107.590004,107.590004,1729472104939.0,0.0
-8.848659,-1.418944,3.285345,371.980011,40.670002,106.260002,1729472104958.0,0.0
-10.38485,-6.979864,-1.282553,105.07,-2.45,77.980003,1729472104980.0,0.0
-11.574083,-11.925828,-4.266403,-75.32,-35.07,42.84,1729472104998.0,0.0
-10.609775,-11.540584,-6.67119,-270.899994,-48.23,-35.91,1729472105018.0,0.0
-8.740981,-8.788837,-9.233903,-380.869995,-14.07,-114.520004,1729472105046.0,0.0
-7.810174,-10.870593,-8.678767,-295.049988,29.82,-102.830002,1729472105057.0,0.0
-7.164111,-9.509077,-1.325624,-147.419998,100.590004,-87.43,1729472105083.0,0.0
-6.199803,-5.134997,-1.777867,-132.930008,133.839996,-89.18,1729472105100.0,0.0
-1.928615,-10.676775,6.252446,-112.279999,112.840004,-75.669998,1729472105119.0,0.0
3.718446,-8.130811,12.612568,-40.880001,75.32,-25.690001,1729472105143.0,0.0
3.103491,-2.227718,10.834702,16.030001,23.73,4.62,1729472105160.0,0.0
0.708275,-3.775874,7.752745,-21.84,-37.939999,41.93,1729472105181.0,0.0
-2.021935,-10.253245,3.165704,-128.029999,-91.910004,47.040001,1729472105199.0,0.0
-4.563113,-14.739788,-10.805987,-203.630005,-134.190002,14.77,1729472105225.0,0.0
-6.415157,-11.49512,-12.684352,-226.869995,-123.059998,-9.94,1729472105242.0,0.0
-10.58824,-9.54497,-16.285551,-166.949997,-55.439999,-13.72,1729472105259.0,0.0
-12.167502,-8.77448,-19.891535,-12.88,39.689999,-30.309999,1729472105283.0,0.0
-8.752945,-9.181261,-14.689538,145.460007,72.309998,-18.27,1729472105301.0,0.0
-4.273581,-4.744967,-9.480364,135.520004,86.309998,-36.189999,1729472105319.0,0.0
-1.976472,-4.019942,-4.4674,58.73,115.080002,-29.610001,1729472105342.0,0.0
-0.26321,-6.975078,-0.119641,41.580002,125.160004,-18.83,1729472105361.0,0.0
0.208176,-7.312466,10.30828,131.320007,103.599998,17.01,1729472105381.0,0.0
-0.629312,-3.737589,14.309079,210.070007,43.049999,37.52,1729472105401.0,0.0
-3.072384,-2.998207,11.464014,179.970001,-30.52,55.16,1729472105420.0,0.0
-5.91745,-8.659625,3.07717,27.790001,-130.619995,61.110001,1729472105440.0,0.0
-5.525027,-10.502099,-9.183653,-50.610001,-158.270004,45.709999,1729472105460.0,0.0
-6.9344,-14.816358,-12.856635,-37.170002,-118.510002,58.73,1729472105481.0,0.0
-12.186646,-15.153747,-7.594819,22.190001,-40.389999,31.01,1729472105500.0,0.0
-11.47837,-13.289737,-9.645468,178.220001,27.09,11.41,1729472105523.0,0.0
-6.156733,-8.551948,-4.534399,229.529999,25.27,-4.34,1729472105543.0,0.0
-2.921637,-5.778666,-1.48355,196.910004,16.59,-6.16,1729472105561.0,0.0
-3.663411,-5.79781,0.339781,120.959999,58.170002,-10.15,1729472105584.0,0.0
-4.675575,-8.848659,3.579663,83.370003,33.810001,-3.57,1729472105603.0,0.0
-1.457229,-6.762117,3.95055,232.259995,-1.75,21.280001,1729472105623.0,0.0
-4.151547,-0.114855,10.205389,192.710007,43.540001,29.33,1729472105643.0,0.0
-6.151947,-2.589034,5.264209,-131.039993,3.08,6.37,1729472105662.0,0.0
-5.333601,-8.721838,-1.205983,-342.720001,-38.009998,-0.84,1729472105685.0,0.0
-3.589234,-13.406984,-7.233503,-327.110016,-56.560001,-11.27,1729472105701.0,0.0
-3.213561,-10.037891,-6.771688,-142.940002,-35.0,-23.379999,1729472105723.0,0.0
-4.773681,-6.599405,-2.993421,32.549999,12.95,-20.719999,1729472105743.0,0.0
-4.845466,-7.046863,-7.463214,-82.389999,18.83,-32.200001,1729472105765.0,0.0
-3.175276,-6.573084,-1.342373,-214.970001,-11.76,-46.900002,1729472105784.0,0.0
-4.756931,-12.351749,-1.421337,-143.5,-9.59,-24.99,1729472105801.0,0.0
-6.606583,-12.890135,-3.072384,-115.989998,-18.9,-61.810001,1729472105822.0,0.0
-5.012963,-9.667004,-6.54437,-30.66,-43.470001,-46.130001,1729472105842.0,0.0
-2.924029,-8.549555,-7.745567,33.389999,-35.420002,-41.02,1729472105860.0,0.0
-3.534199,-7.539784,-5.9342,30.17,0.28,-44.73,1729472105885.0,0.0
-4.287938,-8.829515,-3.165704,66.639999,26.32,-6.79,1729472105901.0,0.0
-3.335595,-8.190632,0.835095,60.689999,17.92,-28.630001,1729472105920.0,0.0
-4.795217,-6.419943,4.795217,5.11,32.200001,-15.75,1729472105942.0,0.0
-4.790431,-8.106883,1.844866,-72.099998,-3.99,-10.36,1729472105962.0,0.0
-2.478964,-9.592826,0.409173,-115.709999,-25.9,-25.200001,1729472105982.0,0.0
-1.706082,-9.906286,-0.165105,-91.629997,-14.49,-10.71,1729472106001.0,0.0
-2.306681,-7.525427,0.18664,-54.599998,7.7,3.64,1729472106022.0,0.0
-3.354738,-6.250053,-0.114855,-54.389999,7.77,23.24,1729472106041.0,0.0
-3.385844,-8.106883,-2.184647,-101.919998,-5.6,32.27,1729472106063.0,0.0
-2.285146,-9.020942,-3.584448,-93.379997,-35.84,34.16,1729472106083.0,0.0
-2.955136,-8.776874,-4.168297,-49.420002,-40.040001,35.84,1729472106100.0,0.0
-5.91745,-9.269794,-6.111269,-52.779999,-41.720001,24.710001,1729472106122.0,0.0
-8.329416,-9.375079,-7.460821,-95.690002,-41.02,-0.7,1729472106144.0,0.0
-9.743573,-8.556733,-7.532606,-116.410004,-35.209999,-21.280001,1729472106162.0,0.0
-10.195816,-8.123632,-10.327423,-70.209999,-9.94,-28.210001,1729472106185.0,0.0
-8.592626,-9.853643,-10.889735,31.57,37.59,-30.030001,1729472106201.0,0.0
-6.159126,-8.487342,-9.284152,134.610001,63.490002,-18.969999,1729472106221.0,0.0
-4.876573,-5.71406,-7.898707,144.270004,91.559998,-13.440001,1729472106243.0,0.0
-2.840281,-6.216553,-5.407779,94.360001,92.610001,-11.76,1729472106261.0,0.0
-0.461815,-9.322437,-4.316652,82.040001,91.559998,-6.86,1729472106284.0,0.0
1.265803,-10.691131,2.206182,146.720001,93.169998,-8.75,1729472106302.0,0.0
0.476172,-2.63689,8.65484,176.050003,87.57,4.34,1729472106321.0,0.0
-0.612563,-3.096312,7.800602,82.32,21.0,14.42,1729472106342.0,0.0
-2.478964,-6.762117,6.099305,-61.670002,-34.299999,16.66,1729472106362.0,0.0
-2.419144,-8.200203,0.473779,-142.729996,-90.790001,11.97,1729472106382.0,0.0
-4.453043,-7.843673,-7.755138,-205.029999,-128.380005,-0.56,1729472106401.0,0.0
-6.805188,-9.463614,-11.593226,-190.330002,-107.029999,5.74,1729472106421.0,0.0
-11.906685,-12.126825,-13.064812,-10.22,-12.39,25.549999,1729472106446.0,0.0
-12.959527,-11.351551,-14.041083,172.550003,52.5,25.549999,1729472106460.0,0.0
-6.783652,-7.123433,-10.009177,273.279999,24.639999,21.35,1729472106484.0,0.0
-2.292324,-3.838088,-5.998806,272.579987,36.959999,11.76,1729472106501.0,0.0
-1.600798,-4.082155,-2.78046,219.520004,72.309998,17.639999,1729472106521.0,0.0
-1.789831,-6.506085,-0.612563,204.050003,74.199997,30.309999,1729472106544.0,0.0
-1.674976,-8.487342,1.048056,262.920013,67.480003,43.330002,1729472106562.0,0.0
-2.562713,-8.276773,8.551948,275.589996,58.450001,45.220001,1729472106584.0,0.0
-2.242075,-8.657232,8.848659,156.940002,15.61,15.61,1729472106600.0,0.0
-2.498107,-7.290931,5.761917,18.83,-30.380001,12.46,1729472106620.0,0.0
-5.201996,-11.75833,-0.217747,-90.93,-36.259998,16.450001,1729472106641.0,0.0
-5.986843,-10.490135,-6.690332,-131.25,-16.52,-33.459999,1729472106661.0,0.0
-7.582855,-9.844072,-3.555735,-117.18,36.049999,-30.24,1729472106683.0,0.0
-7.4345,-10.535598,-3.739982,-137.550003,34.860001,-43.540001,1729472106700.0,0.0
-4.328616,-10.619347,-3.024528,-138.529999,-4.34,-73.010002,1729472106724.0,0.0
-2.325824,-8.188239,-1.651048,-132.229996,-7.35,-63.98,1729472106742.0,0.0
-3.402594,-5.594419,-0.90688,-200.339996,11.69,-65.519997,1729472106761.0,0.0
-4.646862,-4.625326,-2.435893,-297.850006,5.74,-66.639999,1729472106784.0,0.0
-5.441278,-5.651847,-2.988636,-412.790009,-8.12,-78.470001,1729472106801.0,0.0
-4.768896,-8.078169,-5.175675,-473.200012,-27.58,-94.5,1729472106820.0,0.0
-3.065206,-7.188039,-5.082355,-375.200012,-40.110001,-81.970001,1729472106843.0,0.0
-2.249253,-3.818945,-4.74736,-301.48999,-36.959999,-65.029999,1729472106860.0,0.0
-2.014757,-0.442672,-6.159126,-304.98999,-39.060001,-66.57,1729472106881.0,0.0
-2.22054,-0.31346,-9.537791,-332.220001,-42.91,-47.459999,1729472106900.0,0.0
-3.364309,-10.286745,-16.718651,-295.679993,-58.380001,-26.74,1729472106921.0,0.0
-0.758525,-9.432507,-10.411172,-206.570007,-35.84,-59.920002,1729472106941.0,0.0
-1.842474,-5.106283,-8.245667,-13.23,-37.029999,-9.38,1729472106962.0,0.0
-5.335995,-3.981657,-7.932207,65.660004,-36.049999,24.15,1729472106984.0,0.0
-4.017549,-4.845466,-9.281759,120.68,-65.730003,51.170002,1729472107001.0,0.0
-1.928615,-5.491528,-9.836893,165.970001,-35.98,26.32,1729472107023.0,0.0
-3.455236,-6.12084,-9.485149,235.690002,19.530001,30.59,1729472107042.0,0.0
-6.982256,-7.869993,-8.925228,322.140015,45.57,60.27,1729472107063.0,0.0
-6.853044,-8.896514,-9.059227,534.23999,-0.91,73.709999,1729472107090.0,0.0
-4.713861,-7.003791,-11.322837,706.789978,-11.27,80.57,1729472107102.0,0.0
-4.790431,-5.833702,-8.341379,834.190002,48.650002,77.980003,1729472107121.0,0.0
-7.144968,1.052842,0.981057,719.530029,130.130005,41.369999,1729472107146.0,0.0
-8.650054,0.600598,4.905287,445.480011,96.32,35.07,1729472107160.0,0.0
-6.331409,-5.273781,3.046063,109.129997,25.48,13.09,1729472107182.0,0.0
-3.105884,-11.021341,2.048256,23.66,9.66,0.77,1729472107202.0,0.0
-2.208575,-9.394222,2.45025,100.449997,34.23,16.59,1729472107223.0,0.0
-4.13719,-6.515656,5.501099,173.389999,46.970001,40.950001,1729472107242.0,0.0
-4.436293,-8.061419,5.180461,106.050003,24.85,34.02,1729472107262.0,0.0
-2.969493,-11.710474,2.711068,28.0,2.03,21.0,1729472107285.0,0.0
-3.180061,-11.566904,2.895315,20.790001,3.5,15.54,1729472107305.0,0.0
-4.378866,-8.46102,3.333202,11.48,4.69,14.49,1729472107323.0,0.0
-4.84068,-6.793223,4.192225,-33.110001,-9.38,10.78,1729472107343.0,0.0
-3.893122,-6.015556,3.201597,-104.650002,-28.700001,15.12,1729472107362.0,0.0
-4.431508,-7.367501,2.191825,-114.590004,-51.450001,21.91,1729472107385.0,0.0
-5.816952,-7.523034,1.251446,-119.699997,-52.009998,23.940001,1729472107402.0,0.0
-7.185646,-7.57089,-0.069392,-151.619995,-55.860001,21.629999,1729472107422.0,0.0
-9.042477,-8.044669,-3.321238,-226.729996,-56.279999,5.25,1729472107511.0,0.0
-9.901501,-9.580862,-7.135397,-296.940002,-44.939999,-25.129999,1729472107540.0,0.0
-8.427521,-12.985848,-8.4347,-250.25,-16.799999,-49.420002,1729472107551.0,0.0
-6.415157,-13.954943,-6.881758,-28.07,37.73,-51.799999,1729472107553.0,0.0
-7.879565,-10.38485,-5.931807,131.529999,101.779999,-54.599998,1729472107553.0,0.0
-7.568498,-8.645268,-2.883351,136.639999,114.379997,-65.379997,1729472107553.0,0.0
-4.867002,-6.563512,1.081556,54.670002,100.590004,-78.540001,1729472107564.0,0.0
-1.782653,-5.582455,0.579063,-10.78,94.779999,-79.940002,1729472107584.0,0.0
0.117248,-5.005785,4.453043,25.969999,94.919998,-48.860001,1729472107603.0,0.0
1.158126,-3.486342,7.15454,140.210007,82.389999,-15.12,1729472107623.0,0.0
-0.808774,-2.29711,10.344172,252.419998,56.279999,37.59,1729472107643.0,0.0
-4.165904,-5.647062,8.860621,279.649994,0.77,75.529999,1729472107663.0,0.0
-5.733203,-11.157731,5.903094,235.199997,-18.9,63.91,1729472107684.0,0.0
-5.012963,-13.098311,1.057628,167.720001,-1.47,43.189999,1729472107703.0,0.0
-5.099105,-16.47937,1.808974,55.790001,18.200001,-0.98,1729472107723.0,0.0
-2.553142,-12.229716,2.749353,-49.560001,14.35,-33.18,1729472107750.0,0.0
-3.649055,-9.547362,4.934,-61.32,7.07,-16.52,1729472107764.0,0.0
-5.836094,-6.85783,0.023928,-121.940002,-6.16,-17.360001,1729472107786.0,0.0
-7.302894,-7.896315,0.583849,-190.960007,1.4,-27.51,1729472107807.0,0.0
-6.558727,-8.283953,-0.339781,-283.429993,-24.360001,-49.209999,1729472107823.0,0.0
-5.091926,-9.851252,-0.550349,-290.850006,-57.889999,-63.700001,1729472107843.0,0.0
-4.756931,-10.147961,-0.945165,-256.339996,-57.470001,-73.080002,1729472107863.0,0.0
-5.087141,-9.403792,-0.993021,-202.089996,-42.07,-72.099998,1729472107884.0,0.0
-5.144568,-7.814958,-0.892523,-190.610001,-30.799999,-76.160004,1729472107902.0,0.0
-4.065405,-7.133004,-1.799403,-224.070007,-36.540001,-84.769997,1729472107922.0,0.0
-3.505485,-5.656632,-1.9669,-309.959991,-38.639999,-87.360001,1729472107943.0,0.0
-4.323831,-6.173482,-2.11047,-390.179993,-25.690001,-80.849998,1729472107962.0,0.0
-3.52702,-7.271788,-5.352744,-408.519989,-36.119999,-86.169998,1729472107985.0,0.0
-3.254239,-4.912465,-5.407779,-364.140015,-28.210001,-63.77,1729472108002.0,0.0
-3.316452,-3.706482,-6.922436,-337.329987,-19.6,-43.540001,1729472108022.0,0.0
-3.28056,-5.333601,-8.707481,-284.410004,-16.309999,-22.960001,1729472108043.0,0.0
-2.885744,-6.12084,-10.693524,-217.070007,-5.95,-12.95,1729472108064.0,0.0
-2.785245,-5.929415,-10.992627,-121.029999,5.32,-3.71,1729472108085.0,0.0
-2.938386,-5.79781,-10.844273,-17.219999,20.299999,10.71,1729472108104.0,0.0
-2.438286,-5.737988,-11.193624,78.959999,27.16,22.960001,1729472108122.0,0.0
-2.177469,-5.891129,-9.537791,176.330002,35.349998,33.459999,1729472108148.0,0.0
-2.790031,-5.283352,-7.659425,251.930008,44.099998,36.82,1729472108165.0,0.0
-2.9671,-6.324231,-6.037091,277.829987,42.98,38.360001,1729472108186.0,0.0
-2.167897,-8.793623,-5.300103,297.709991,32.130001,38.920002,1729472108243.0,0.0
-0.976272,-9.79143,-4.409972,356.790009,17.5,46.900002,1729472108243.0,0.0
-0.004786,-8.676375,-3.17049,463.470001,14.7,62.09,1729472108244.0,0.0
0.224925,-5.144568,-1.586441,578.830017,23.309999,78.959999,1729472108335.0,0.0
0.011964,-2.682354,-0.535992,598.429993,37.869999,100.870003,1729472108336.0,0.0
-1.048056,-5.417351,0.612563,508.830017,52.150002,98.699997,1729472108336.0,0.0
-3.452843,-5.015356,3.790231,443.869995,56.700001,114.449997,1729472108336.0,0.0
-6.56112,-3.388237,13.41895,305.410004,80.080002,92.190002,1729472108342.0,0.0
-8.9348,-5.529813,10.061819,-3.99,21.210001,66.150002,1729472108362.0,0.0
-6.855437,-10.437491,5.675776,-145.25,-37.59,57.119999,1729472108384.0,0.0
-4.197011,-12.114861,3.720839,-122.150002,-43.610001,45.990002,1729472108403.0,0.0
-4.108476,-10.798808,1.409373,-79.029999,-45.290001,52.57,1729472108422.0,0.0
-5.733203,-9.547362,2.737389,-63.560001,-34.369999,40.950001,1729472108447.0,0.0
-6.943972,-7.312466,5.962914,-159.320007,-38.709999,29.26,1729472108465.0,0.0
-7.424929,-4.206582,4.551149,-334.390015,-66.5,21.139999,1729472108484.0,0.0
-7.039684,-4.333402,0.799203,-420.420013,-88.269997,0.7,1729472108501.0,0.0
-6.601797,-10.217353,-0.294317,-343.279999,-119.419998,-18.969999,1729472108522.0,0.0
-6.479764,-12.05504,-1.89033,-219.380005,-113.260002,-15.96,1729472108544.0,0.0
-6.577869,-4.725825,-6.352944,-53.900002,-55.860001,4.83,1729472108562.0,0.0
-6.204589,0.181855,-8.338986,-36.470001,16.940001,40.389999,1729472108587.0,0.0
-6.324231,-3.565305,-9.966106,-191.660004,31.639999,30.030001,1729472108602.0,0.0
-6.661618,-5.903094,-5.831308,-284.269989,30.24,7.35,1729472108623.0,0.0
-4.472186,-5.539384,-7.927422,-260.329987,15.61,24.43,1729472108645.0,0.0
-3.56052,-4.792823,-7.147361,-293.860016,-0.21,18.690001,1729472108663.0,0.0
-4.350152,-5.221139,-7.963314,-297.570007,-7.07,10.99,1729472108683.0,0.0
-3.797409,-4.419543,-11.184053,-293.649994,-34.23,19.6,1729472108702.0,0.0
-3.663411,-5.565705,-14.462219,-296.100006,-36.330002,14.21,1729472108722.0,0.0
-3.998406,-8.097312,-14.593824,-279.160004,-4.97,-6.23,1729472108742.0,0.0
-3.869194,-6.338587,-11.408978,-238.979996,22.190001,-22.190001,1729472108763.0,0.0
-4.486543,-4.398008,-5.479564,-220.149994,47.18,-44.029999,1729472108786.0,0.0
-6.099305,-5.257031,-9.135797,-275.029999,53.41,-37.73,1729472108803.0,0.0
-4.414758,-7.927422,-7.9346,-268.100006,47.32,-48.23,1729472108823.0,0.0
-5.493921,-8.819944,-7.202396,-158.830002,38.43,-40.040001,1729472108843.0,0.0
-6.570691,-4.139583,-5.711668,-60.200001,39.130001,-30.380001,1729472108862.0,0.0
-6.565905,-3.704089,-6.491727,-64.050003,32.970001,-7.21,1729472108884.0,0.0
-5.532206,-4.010371,-8.623734,-61.25,33.32,11.55,1729472108902.0,0.0
-6.288338,-2.478964,-9.705289,-36.75,38.849998,36.540001,1729472108922.0,0.0
-6.101698,-4.902894,-9.281759,-28.77,39.830002,42.77,1729472108944.0,0.0
-4.742575,-6.553941,-8.142776,-17.219999,30.59,29.75,1729472108963.0,0.0
-3.273381,-7.070791,-8.295916,-4.48,22.049999,3.43,1729472108985.0,0.0
-2.431108,-6.250053,-8.149954,14.49,13.86,-33.18,1729472109002.0,0.0
-2.526821,-4.441079,-8.740981,24.43,13.09,-43.540001,1729472109023.0,0.0
-2.718246,-1.758725,-8.487342,31.290001,10.29,-43.470001,1729472109042.0,0.0
-3.641876,-2.232504,-8.458629,20.93,8.19,-41.09,1729472109062.0,0.0
-3.512664,-3.67059,-9.008978,6.72,4.06,-51.73,1729472109082.0,0.0
-2.804388,-2.914458,-9.365508,13.37,-0.49,-56.490002,1729472109101.0,0.0
-2.924029,-3.474378,-9.932607,5.11,1.4,-58.52,1729472109126.0,0.0
-3.096312,-3.23031,-10.49492,26.18,-0.77,-60.130001,1729472109145.0,0.0
-3.495914,-1.191626,-11.377872,127.120003,7.98,-33.18,1729472109162.0,0.0
-4.182654,-1.01695,-12.265609,226.589996,15.75,-5.11,1729472109192.0,0.0
-5.785845,-0.835095,-13.265808,282.660004,43.68,22.540001,1729472109203.0,0.0
-6.924829,-0.830309,-10.124033,302.26001,70.0,33.670002,1729472109224.0,0.0
-5.781059,-0.366102,-10.25803,275.799988,58.029999,19.389999,1729472109243.0,0.0
-4.689932,-1.579263,-10.69831,226.940002,53.48,19.530001,1729472109262.0,0.0
-4.400401,-2.234896,-5.235496,164.009995,78.75,14.21,1729472109286.0,0.0
-3.948158,-8.130811,-5.982057,181.440002,73.080002,24.08,1729472109302.0,0.0
-1.239482,-8.652447,-7.850852,230.860001,54.110001,23.379999,1729472109323.0,0.0
1.268196,-6.262017,-3.261417,246.470001,75.879997,30.73,1729472109342.0,0.0
1.481157,-4.053442,5.367101,222.669998,86.239998,46.619999,1729472109362.0,0.0
-2.605784,-4.888536,11.540584,131.25,55.720001,52.150002,1729472109385.0,0.0
-3.589234,-4.362115,9.860823,-27.299999,-9.87,37.380001,1729472109403.0,0.0
-3.862016,-5.47717,7.925028,-311.570007,-81.059998,13.3,1729472109423.0,0.0
-2.902494,-11.361122,-6.331409,-516.530029,-154.139999,-17.85,1729472109445.0,0.0
-0.043071,-9.454042,-13.878372,-539.0,-187.320007,-48.720001,1729472109466.0,0.0
-2.462214,-5.498707,-12.067005,-345.869995,-133.490005,-25.76,1729472109484.0,0.0
-15.266209,-7.556533,-21.944576,-88.620003,-9.94,-12.18,1729472109503.0,0.0
-16.756937,-5.661418,-20.09971,134.75,32.27,-2.03,1729472109522.0,0.0
-6.431907,2.931208,-17.441284,185.570007,-32.34,5.6,1729472109544.0,0.0
-2.22054,2.194218,-14.943177,101.010002,35.349998,-9.8,1729472109564.0,0.0
-3.184847,-2.055435,-14.158331,34.23,95.129997,-13.440001,1729472109584.0,0.0
-3.469593,-4.082155,-7.755138,106.68,113.330002,19.950001,1729472109603.0,0.0
-0.382852,-1.569692,1.261017,152.809998,90.860001,33.670002,1729472109623.0,0.0
0.904487,-2.761317,12.571891,44.450001,57.189999,28.139999,1729472109644.0,0.0
-4.34058,-9.513863,11.265409,-35.630001,-11.27,49.209999,1729472109665.0,0.0
-7.645068,-9.762716,4.974678,-98.0,-98.0,8.19,1729472109684.0,0.0
-8.159525,-4.242475,-3.058028,-201.180008,-146.649994,-4.41,1729472109705.0,0.0
-5.130211,0.260818,-15.617953,-323.119995,-173.389999,7.63,1729472109724.0,0.0
-6.82433,-7.180861,-19.664217,-281.679993,-98.07,-5.81,1729472109745.0,0.0
-12.79203,-10.561919,-20.317457,-68.040001,-16.59,-5.74,1729472109765.0,0.0
-8.874979,-2.452643,-17.778673,86.519997,1.4,-4.27,1729472109785.0,0.0
-2.971886,2.108077,-13.234701,87.010002,20.719999,-4.55,1729472109805.0,0.0
-2.888137,-3.818945,-11.193624,10.01,60.130001,2.1,1729472109823.0,0.0
-2.720639,-6.979864,-10.803595,26.530001,80.989998,6.37,1729472109845.0,0.0
0.162712,-7.288538,-7.367501,110.739998,72.449997,19.460001,1729472109865.0,0.0
2.541178,-9.523434,-1.725225,159.529999,63.560001,8.89,1729472109887.0,0.0
2.048256,-3.67059,6.12084,255.290009,33.810001,14.77,1729472109908.0,0.0
-4.902894,0.665205,11.45205,185.850006,-20.299999,41.93,1729472109923.0,0.0
-9.906286,-4.599005,2.239682,-112.840004,-104.160004,10.99,1729472109945.0,0.0
-9.987641,-4.986642,-13.976478,-348.110016,-148.680008,-48.860001,1729472109965.0,0.0
-6.848258,-6.336195,-22.607388,-310.450012,-114.239998,-36.75,1729472109988.0,0.0
-8.003991,-10.755738,-17.517855,-85.75,-24.290001,-44.869999,1729472110005.0,0.0
-12.033505,-6.240481,-18.788445,139.509995,67.340004,-27.02,1729472110025.0,0.0
-6.726225,3.682554,-13.69891,172.830002,51.450001,-10.22,1729472110044.0,0.0
-1.787439,0.404387,-10.600205,92.959999,54.110001,-4.13,1729472110065.0,0.0
-2.438286,-6.180661,-10.985448,75.32,101.150002,1.68,1729472110085.0,0.0
-2.251646,-7.307681,-9.482756,187.039993,125.580002,28.280001,1729472110105.0,0.0
-0.193819,-3.936193,2.318645,247.940002,125.580002,31.43,1729472110125.0,0.0
-0.748954,-2.033899,12.672389,245.979996,83.370003,45.360001,1729472110149.0,0.0
-3.397808,-3.369094,12.569498,194.320007,10.99,57.610001,1729472110165.0,0.0
-6.735795,-6.551548,8.097312,-16.870001,-60.130001,37.170002,1729472110186.0,0.0
-6.977471,-9.616754,-1.251446,-215.809998,-135.660004,-4.83,1729472110204.0,0.0
-5.699703,-7.013363,-18.474985,-344.890015,-152.669998,-23.030001,1729472110224.0,0.0
-8.444271,-13.134203,-15.948163,-245.419998,-77.699997,-10.71,1729472110245.0,0.0
-12.607781,-12.545568,-20.824736,195.020004,82.389999,-13.51,1729472110264.0,0.0
-8.786445,-5.60399,-14.344972,366.380005,57.189999,18.41,1729472110286.0,0.0
-3.069991,-2.9336,-10.875379,338.309998,32.41,-10.36,1729472110306.0,0.0
-0.315853,-3.306881,-8.221739,243.880005,84.629997,-26.460001,1729472110325.0,0.0
-0.232104,-3.61077,-3.072384,230.649994,122.220001,-4.76,1729472110345.0,0.0
0.057428,-1.225125,3.249453,261.450012,113.889999,21.139999,1729472110365.0,0.0
-0.811167,-0.138784,9.631111,291.899994,88.410004,67.760002,1729472110385.0,0.0
-4.261617,-4.426722,10.281959,296.589996,38.57,100.449997,1729472110403.0,0.0
-6.233303,-7.020542,9.217153,268.029999,-13.58,86.800003,1729472110425.0,0.0
-7.944171,-6.848258,5.737988,156.309998,-38.080002,76.510002,1729472110445.0,0.0
-7.826923,-7.702496,1.732404,-1.4,-64.540001,71.610001,1729472110463.0,0.0
-6.869793,-11.126624,-2.756532,-60.549999,-71.120003,91.769997,1729472110485.0,0.0
-5.448457,-13.770694,-3.476771,12.81,-61.529999,78.470001,1729472110504.0,0.0
-7.066005,-14.651253,-2.380858,107.169998,-21.139999,59.290001,1729472110525.0,0.0
-8.487342,-15.672989,-2.708675,141.960007,-7.63,27.440001,1729472110544.0,0.0
-7.427321,-13.129417,-4.445865,151.339996,11.48,4.06,1729472110564.0,0.0
-6.551548,-4.792823,-1.921437,62.580002,29.75,-46.200001,1729472110590.0,0.0
-5.548956,-3.081956,0.710668,-62.369999,22.68,-45.150002,1729472110605.0,0.0
-4.493721,-5.730811,1.818545,-152.880005,-9.66,-40.670002,1729472110623.0,0.0
-2.76371,-9.576077,1.0002,-148.470001,-41.720001,-50.540001,1729472110644.0,0.0
-3.428915,-8.343772,0.947558,-178.779999,-11.27,-46.830002,1729472110665.0,0.0
-5.079963,-6.376873,-0.421137,-252.070007,17.639999,-57.049999,1729472110687.0,0.0
-5.836094,-7.267002,-2.510071,-326.339996,-2.94,-65.660004,1729472110704.0,0.0
-5.07757,-8.513663,-4.405186,-410.619995,-21.210001,-83.090004,1729472110725.0,0.0
-4.323831,-6.417551,-3.04367,-480.76001,-13.51,-94.709999,1729472110745.0,0.0
-5.577669,-4.87418,-3.74716,-514.220032,6.23,-91.559998,1729472110765.0,0.0
-5.000999,-6.415157,-7.298109,-477.820007,-27.23,-91.419998,1729472110784.0,0.0
-4.23051,-6.975078,-5.931807,-374.360016,-40.880001,-71.400002,1729472110805.0,0.0
-3.4672,-5.290531,-5.680561,-298.480011,-24.85,-66.5,1729472110824.0,0.0
-3.304488,-3.510271,-8.403593,-231.839996,-30.66,-53.830002,1729472110845.0,0.0
-3.177669,-7.432107,-10.829915,-133.770004,-31.08,-20.51,1729472110864.0,0.0
-2.943172,-13.416556,-10.597812,11.83,-10.71,-10.43,1729472110885.0,0.0
-1.01695,-9.702895,-11.480762,174.089996,5.88,-19.950001,1729472110905.0,0.0
-2.868994,-6.788438,-8.01117,414.540009,31.780001,46.830002,1729472110923.0,0.0
-3.680161,-4.48415,-7.848458,518.349976,41.02,57.540001,1729472110946.0,0.0
-4.132405,-3.61077,-6.130411,596.190002,28.559999,94.709999,1729472110976.0,0.0
-4.242475,-4.778467,-5.852845,612.150024,22.049999,106.889999,1729472110985.0,0.0
-4.524827,-4.381258,-0.70349,545.720032,50.889999,83.860001,1729472111004.0,0.0
-7.228717,-4.378866,2.952743,479.220001,68.459999,97.790001,1729472111023.0,0.0
-8.908479,-6.355337,3.457629,451.290009,29.049999,104.93,1729472111044.0,0.0
-7.757531,-7.312466,3.785445,426.440002,12.32,78.190002,1729472111063.0,0.0
-6.831509,-5.986843,4.201797,329.910004,27.23,54.950001,1729472111088.0,0.0
-6.948757,-9.107083,4.345366,184.100006,16.24,48.09,1729472111104.0,0.0
-5.793024,-11.80858,2.830709,41.16,-4.27,15.61,1729472111123.0,0.0
-6.802795,-13.713267,1.20359,-83.440002,6.65,-16.1,1729472111147.0,0.0
-7.106683,-12.330215,0.787239,-211.470001,17.43,-51.170002,1729472111165.0,0.0
-6.051448,-9.013763,1.624727,-340.480011,22.960001,-88.269997,1729472111187.0,0.0
-5.089533,-7.403394,3.737589,-430.779999,5.67,-108.5,1729472111204.0,0.0
-2.828316,-6.352944,2.194218,-473.130005,-40.670002,-117.18,1729472111232.0,0.0
-1.689333,-6.752545,-2.675175,-478.23999,-75.32,-120.330002,1729472111244.0,0.0
-2.292324,-6.259624,-3.443272,-477.470001,-51.799999,-115.360001,1729472111265.0,0.0
-3.259024,-4.063013,-2.871387,-528.98999,-32.41,-122.43,1729472111285.0,0.0
-4.534399,-3.424129,-4.393222,-572.039978,-20.93,-119.980003,1729472111304.0,0.0
-4.194618,-4.833502,-7.843673,-534.309998,-34.439999,-103.669998,1729472111325.0,0.0
-3.0006,-6.419943,-8.944371,-366.309998,-39.060001,-62.23,1729472111345.0,0.0
-2.249253,-5.419744,-9.387043,-185.919998,-12.81,-42.0,1729472111364.0,0.0
-3.211168,-5.589634,-11.002198,-9.38,10.01,-1.26,1729472111396.0,0.0
-4.055835,-6.910471,-11.540584,122.43,28.559999,26.6,1729472111405.0,0.0
-4.055835,-7.039684,-11.542977,225.259995,45.290001,42.349998,1729472111424.0,0.0
-4.115655,-6.766902,-8.798409,308.839996,53.970001,61.670002,1729472111446.0,0.0
-4.017549,-6.020342,-6.565905,370.089996,53.900002,75.18,1729472111464.0,0.0
-3.515057,-5.580062,-4.448257,414.119995,51.939999,89.599998,1729472111486.0,0.0
-3.218346,-7.274181,-1.808974,461.440002,43.959999,108.5,1729472111507.0,0.0
-2.9336,-9.470792,-2.510071,504.700012,32.900002,113.540001,1729472111525.0,0.0
-2.313859,-7.63789,-3.354738,546.909973,27.09,100.449997,1729472111545.0,0.0
-2.725425,-3.48395,-1.134198,618.940002,60.549999,114.940002,1729472111565.0,0.0
-4.185047,-3.254239,5.213961,611.869995,77.769997,127.330002,1729472111589.0,0.0
-7.334002,-1.117448,9.138189,431.899994,87.080002,90.160004,1729472111605.0,0.0
-9.84168,-6.072984,9.513863,170.869995,47.18,82.809998,1729472111625.0,0.0
-7.049256,-13.521841,4.09412,-35.139999,-17.780001,32.549999,1729472111645.0,0.0
-4.82393,-17.807386,0.363709,-101.709999,-32.759998,2.59,1729472111666.0,0.0
-5.551349,-15.000606,-0.48335,-139.160004,14.28,-25.83,1729472111697.0,0.0
-6.58744,-8.317451,2.309074,-243.740005,50.540001,-67.690002,1729472111705.0,0.0
-6.573084,-4.699504,3.522235,-348.459991,23.73,-81.760002,1729472111726.0,0.0
-5.295317,-5.414958,1.978864,-407.610016,-36.049999,-92.400002,1729472111746.0,0.0
-3.9673,-8.123632,0.253639,-399.980011,-67.760002,-99.959999,1729472111766.0,0.0
-3.924229,-8.003991,1.026521,-363.440002,-58.73,-104.090004,1729472111788.0,0.0
-5.017749,-4.007978,0.172283,-373.730011,-49.560001,-110.879997,1729472111806.0,0.0
-5.9342,-3.881158,-1.497907,-401.170013,-54.740002,-96.669998,1729472111826.0,0.0
-5.290531,-1.622334,-7.956135,-533.679993,-58.799999,-110.18,1729472111846.0,0.0
-6.163911,-6.101698,-9.80818,-527.590027,-42.490002,-76.160004,1729472111866.0,0.0
-4.914857,-8.4012,-10.432706,-375.549988,-33.880001,-64.330002,1729472111888.0,0.0
-3.266203,-9.456435,-11.846866,-134.680008,-19.67,-30.380001,1729472111906.0,0.0
-3.194418,-8.894121,-12.634104,98.489998,12.25,1.61,1729472111925.0,0.0
-4.486543,-7.427321,-10.748559,255.639999,57.82,28.98,1729472111951.0,0.0
-4.63729,-6.015556,-7.353144,341.600006,77.279999,46.27,1729472111965.0,0.0
-4.098906,-5.259424,-2.39043,398.929993,88.550003,63.209999,1729472111987.0,0.0
-3.56052,-5.85763,1.383051,460.179993,79.870003,84.910004,1729472112006.0,0.0
-1.505085,-6.941578,1.146162,539.630005,50.189999,88.690002,1729472112026.0,0.0
1.040878,-6.577869,1.182054,587.789978,41.439999,94.5,1729472112046.0,0.0
1.636691,-6.814759,0.366102,594.159973,51.66,102.269997,1729472112066.0,0.0
-0.055035,-5.886343,1.447658,571.409973,65.169998,110.669998,1729472112086.0,0.0
-2.227718,-5.051248,3.529413,530.390015,68.599998,127.330002,1729472112105.0,0.0
-7.343572,-3.038885,14.658432,361.339996,85.260002,108.639999,1729472112126.0,0.0
-10.983055,-7.556533,10.750952,60.689999,8.05,80.010002,1729472112148.0,0.0
-7.245467,-11.913863,5.046463,-49.560001,-54.389999,44.59,1729472112165.0,0.0
-4.989035,-9.255438,3.744767,3.43,-37.799999,45.150002,1729472112187.0,0.0
-5.328816,-9.164511,1.76351,-4.06,-45.360001,20.790001,1729472112206.0,0.0
-5.845665,-8.405986,3.751946,-2.38,-35.279999,15.47,1729472112225.0,0.0
-7.307681,-8.317451,2.486143,-17.92,-33.25,5.53,1729472112246.0,0.0
-7.989635,-8.10449,-1.237089,-29.68,-22.26,-3.99,1729472112266.0,0.0
-7.685746,-7.781459,-2.629712,-48.580002,8.33,-24.360001,1729472112286.0,0.0
-8.343772,-8.056634,2.175076,-104.160004,35.700001,-39.689999,1729472112306.0,0.0
-7.862815,-6.441479,6.168696,-193.270004,18.27,-40.950001,1729472112325.0,0.0
-5.187639,-7.037291,5.07757,-246.330002,-14.14,-54.950001,1729472112346.0,0.0
-4.424329,-8.949157,3.416951,-294.48999,-36.959999,-73.5,1729472112366.0,0.0
-4.486543,-8.130811,-0.047856,-358.75,-28.559999,-88.620003,1729472112387.0,0.0
-4.165904,-5.594419,1.651048,-406.350006,-14.49,-102.480003,1729472112405.0,0.0
-2.809174,-7.23111,-0.107677,-381.779999,-47.040001,-95.620003,1729472112510.0,0.0
-1.806581,-8.238488,-0.70349,-361.690002,-53.130001,-98.910004,1729472112511.0,0.0
-2.404787,-5.309673,-2.270789,-386.959991,-23.52,-95.269997,1729472112513.0,0.0
-4.491328,-5.065606,0.646062,-449.890015,-6.51,-78.82,1729472112514.0,0.0
-3.739982,-7.982457,-5.012963,-501.410004,-40.740002,-91.0,1729472112518.0,0.0
-3.730411,-7.625926,-6.381658,-365.119995,-36.470001,-57.959999,1729472112525.0,0.0
-3.445665,-8.085347,-7.575676,-216.089996,-29.049999,-34.299999,1729472112547.0,0.0
-2.488536,-8.685946,-8.714661,-40.670002,-32.48,8.82,1729472112565.0,0.0
-1.380659,-9.745967,-7.57089,134.470001,-36.82,50.68,1729472112586.0,0.0
-2.522035,-9.24826,-6.30748,274.329987,-11.55,81.269997,1729472112607.0,0.0
-3.993621,-7.085148,-5.364708,372.399994,6.65,103.599998,1729472112625.0,0.0
-4.886144,-8.657232,-5.520242,450.100006,-6.58,116.970001,1729472112646.0,0.0
-4.424329,-7.006185,-3.84048,484.679993,-24.219999,94.639999,1729472112666.0,0.0
-4.912465,-7.290931,-1.258625,514.150024,-16.1,89.599998,1729472112687.0,0.0
-7.578069,-9.834501,-1.067199,502.320007,-15.54,91.699997,1729472112705.0,0.0
-7.972885,-8.69791,0.818345,457.660004,-12.32,76.580002,1729472112727.0,0.0
-7.410572,-8.35813,3.531806,384.579987,-18.41,55.09,1729472112745.0,0.0
-7.525427,-10.705488,3.701697,292.320007,-13.65,22.960001,1729472112766.0,0.0
-8.54477,-11.602797,2.397608,223.160004,-2.52,-8.61,1729472112787.0,0.0
-7.456036,-10.676775,2.158326,222.460007,5.32,-24.92,1729472112805.0,0.0
-6.62094,-8.729016,2.830709,234.290009,19.389999,-46.970001,1729472112825.0,0.0
-6.51087,-7.15454,4.424329,216.790009,15.89,-52.849998,1729472112846.0,0.0
-5.67099,-6.838687,3.720839,125.93,4.9,-74.269997,1729472112865.0,0.0
-4.63729,-6.565905,4.268795,79.309998,4.55,-88.480003,1729472112886.0,0.0
-4.352544,-6.18784,4.603791,63.84,8.26,-91.209999,1729472112906.0,0.0
-3.835695,-5.218746,5.771489,83.650002,10.78,-85.82,1729472112925.0,0.0
-4.591826,-3.553342,6.711867,110.32,14.07,-73.919998,1729472112945.0,0.0
-4.503292,-2.909672,7.142576,117.25,4.55,-63.98,1729472112966.0,0.0
-4.06062,-3.605984,8.080563,133.490005,-7.28,-54.459999,1729472112987.0,0.0
-4.034299,-2.964707,8.298308,156.169998,-11.27,-41.439999,1729472113005.0,0.0
-3.771089,-2.067399,7.977671,150.639999,-15.68,-32.130001,1729472113026.0,0.0
-3.701697,-2.304288,7.9011,129.430008,-18.690001,-26.389999,1729472113046.0,0.0
-4.216154,-3.376273,8.087741,109.760002,-16.24,-22.049999,1729472113065.0,0.0
-4.165904,-3.505485,8.262416,116.970001,-12.39,-19.530001,1729472113088.0,0.0
-4.051049,-2.986243,7.908278,122.989998,-9.73,-18.549999,1729472113106.0,0.0
-3.641876,-1.849652,7.345965,108.290001,-4.62,-19.040001,1729472113125.0,0.0
-3.440879,-0.961915,7.558927,73.919998,0.91,-17.99,1729472113148.0,0.0
-3.345166,-1.701297,8.226524,18.9,1.68,-15.47,1729472113165.0,0.0
-2.605784,-3.314059,7.054041,-4.2,-2.8,-9.31,1729472113187.0,0.0
-2.024328,-2.940779,7.008578,38.709999,6.58,8.75,1729472113205.0,0.0
-1.514657,-3.304488,7.058826,20.58,8.05,16.17,1729472113225.0,0.0
-2.129612,-4.749753,7.867601,-15.61,4.27,21.629999,1729472113245.0,0.0
-2.974278,-6.513263,7.795816,-31.01,-6.23,23.1,1729472113272.0,0.0
-2.880959,-4.902894,6.896115,-14.28,-8.33,17.57,1729472113288.0,0.0
-5.113462,-2.115255,6.283553,25.059999,-1.47,25.41,1729472113305.0,0.0
-7.111469,-2.54357,8.874979,16.59,6.51,26.25,1729472113325.0,0.0
-6.769295,-4.632504,9.420543,-30.1,-0.63,5.53,1729472113346.0,0.0
-4.309474,-3.787838,9.633504,-26.460001,6.09,-4.9,1729472113365.0,0.0
-4.558327,-3.227918,9.95175,-28.700001,4.69,-11.76,1729472113387.0,0.0
-4.996214,-3.414558,9.432507,-24.99,0.21,-17.92,1729472113405.0,0.0
-4.890929,-2.852244,9.822537,8.61,2.66,-19.32,1729472113426.0,0.0
-4.831109,-2.737389,9.375079,19.040001,-0.98,-23.940001,1729472113447.0,0.0
-4.35733,-3.218346,9.171689,23.450001,-6.86,-30.66,1729472113465.0,0.0
-4.326223,-3.838088,8.764909,33.880001,-9.66,-38.080002,1729472113487.0,0.0
-4.046263,-4.029513,8.836694,55.439999,-9.38,-47.880001,1729472113506.0,0.0
-3.273381,-3.5007,7.726424,58.380001,-7.14,-56.98,1729472113525.0,0.0
-3.864408,-1.785046,8.516055,73.010002,-4.41,-49.490002,1729472113547.0,0.0
-3.579663,-0.87338,9.461221,53.48,-9.59,-48.369999,1729472113565.0,0.0
-3.524628,-3.125026,8.463413,30.17,-21.42,-40.040001,1729472113589.0,0.0
-3.510271,-3.242275,8.355737,49.420002,-18.969999,-36.119999,1729472113606.0,0.0
-3.182454,-2.155933,7.932207,55.720001,-14.28,-39.689999,1729472113626.0,0.0
-2.981457,-1.529014,7.862815,42.209999,-11.62,-39.48,1729472113648.0,0.0
-2.979064,-0.868595,7.56132,28.210001,-9.73,-34.720001,1729472113668.0,0.0
-3.067599,-0.753739,7.539784,21.210001,-6.3,-27.02,1729472113688.0,0.0
-3.194418,0.306281,7.049256,16.940001,-1.33,-17.01,1729472113706.0,0.0
-2.962314,0.990629,6.79083,0.98,7.77,-5.53,1729472113726.0,0.0
-3.311667,0.504886,7.135397,-17.15,16.73,6.23,1729472113748.0,0.0
-3.974478,-0.473779,7.982457,-20.860001,21.629999,15.61,1729472113766.0,0.0
-4.266403,-2.914458,9.286544,-12.53,21.280001,20.370001,1729472113788.0,0.0
-4.005585,-3.168097,9.796216,-3.29,21.629999,13.3,1729472113807.0,0.0
-3.256632,-2.313859,9.724431,2.24,19.74,11.27,1729472113827.0,0.0
-2.842674,-2.225325,8.776874,-9.31,13.79,10.15,1729472113848.0,0.0
-2.854637,-2.837888,8.80798,-14.14,11.41,8.4,1729472113867.0,0.0
-2.969493,-2.926422,8.987441,-0.42,13.93,7.35,1729472113888.0,0.0
-2.95035,-2.651247,8.956335,8.33,13.58,5.74,1729472113906.0,0.0
-3.39063,-3.428915,9.327222,5.88,10.71,2.94,1729472113926.0,0.0
-3.361916,-3.464807,9.590433,6.37,9.59,-5.81,1729472113948.0,0.0
-3.318845,-2.603391,9.209974,14.77,8.47,-6.58,1729472113967.0,0.0
-3.369094,-1.861616,8.805587,13.86,5.25,-8.82,1729472113993.0,0.0
-3.716053,-1.375873,8.760124,11.55,4.76,-6.79,1729472114006.0,0.0
-3.859623,-1.691726,8.642875,4.76,2.52,-5.88,1729472114026.0,0.0
-4.87418,-1.485943,7.88435,-1.89,4.69,-5.32,1729472114048.0,0.0
-5.072784,-1.904687,7.836494,-7.21,6.3,-4.41,1729472114066.0,0.0
-4.479364,-2.624927,7.393822,-7.35,6.37,-10.92,1729472114089.0,0.0
-4.31426,-2.158326,7.491928,8.47,13.09,-12.95,1729472114107.0,0.0
-3.802195,-2.232504,8.348558,26.950001,17.290001,-13.58,1729472114127.0,0.0
-3.57727,-2.431108,8.779266,17.43,16.799999,-19.460001,1729472114150.0,0.0
-2.969493,-2.177469,9.489935,18.620001,15.190001,-20.860001,1729472114166.0,0.0
-2.816352,-2.435893,8.989835,21.35,10.78,-21.700001,1729472114189.0,0.0
-5.087141,-0.739382,7.221539,17.710001,12.74,-15.47,1729472114206.0,0.0
-5.307281,-0.229711,7.65464,6.3,8.89,-5.32,1729472114226.0,0.0
-3.548556,-0.772882,7.704889,-7.14,4.48,-2.66,1729472114248.0,0.0
-3.582055,-1.136591,6.853044,-5.53,6.72,2.31,1729472114267.0,0.0
-4.871787,-1.409373,7.128219,-6.02,16.940001,19.879999,1729472114288.0,0.0
-4.185047,1.454836,8.910872,22.26,20.790001,28.84,1729472114306.0,0.0
-4.23051,1.021735,9.073583,14.0,19.74,48.720001,1729472114355.0,0.0
-4.252046,-0.748954,8.044669,-29.960001,11.55,39.830002,1729472114363.0,0.0
-6.635297,-5.034499,7.726424,-27.65,14.49,52.5,1729472114369.0,0.0
-7.398607,-5.481956,8.492127,-16.59,14.98,24.01,1729472114389.0,0.0
-6.4678,-2.37368,10.140782,16.870001,18.27,13.37,1729472114407.0,0.0
-5.111069,-1.899901,9.650253,-4.9,6.58,1.26,1729472114426.0,0.0
-3.723232,-2.237289,9.162118,-29.469999,-1.75,-7.35,1729472114448.0,0.0
-3.110669,-1.773082,7.922636,-10.29,4.13,-0.07,1729472114466.0,0.0
-3.412165,-0.713061,6.809973,4.97,12.81,3.99,1729472114487.0,0.0
-4.218546,-1.031307,6.453443,6.02,22.120001,8.89,1729472114506.0,0.0
-4.881358,-1.596013,6.836295,-3.22,28.0,4.55,1729472114526.0,0.0
-5.848059,-0.588634,7.668997,-18.129999,33.810001,1.33,1729472114546.0,0.0
-5.190032,-0.830309,8.748159,-50.119999,28.280001,6.93,1729472114566.0,0.0
-6.355337,-0.892523,9.578469,-97.440002,15.4,11.62,1729472114589.0,0.0
-8.142776,-2.086541,10.317852,-155.610001,-9.31,17.710001,1729472114606.0,0.0
-8.88455,-3.041277,8.501699,-201.110001,-52.779999,13.86,1729472114626.0,0.0
-7.860423,-2.567499,7.166504,-197.399994,-73.639999,19.18,1729472114647.0,0.0
-5.4341,-4.132405,6.21416,-160.860001,-78.540001,28.700001,1729472114666.0,0.0
-3.378666,-3.696911,6.922436,-173.600006,-65.870003,25.83,1729472114688.0,0.0
-3.550949,-3.115455,9.224331,-259.140015,-63.0,29.540001,1729472114707.0,0.0
-3.658626,-2.790031,4.539185,-420.910004,-83.510002,25.48,1729472114726.0,0.0
-3.184847,-4.362115,-1.368695,-561.679993,-93.800003,5.6,1729472114747.0,0.0
-2.416751,-7.372287,-3.460021,-638.26001,-72.940002,-14.56,1729472114766.0,0.0
-2.292324,-11.263017,0.887737,-622.789978,-47.459999,-26.32,1729472114788.0,0.0
-3.366701,-10.054641,-0.844666,-613.900024,-3.5,-46.900002,1729472114806.0,0.0
-3.498307,-9.614362,-8.274381,-601.369995,-3.01,-71.190002,1729472114827.0,0.0
-1.574477,-13.964513,-15.139388,-516.460022,-2.66,-64.610001,1729472114846.0,0.0
0.646062,-18.319448,-14.050655,-282.940002,58.450001,-50.889999,1729472114866.0,0.0
-1.775474,-11.77508,-5.871986,6.93,116.340004,-28.0,1729472114888.0,0.0
-2.586641,-6.45105,1.17009,125.93,105.840004,-14.63,1729472114906.0,0.0
-3.134598,-8.405986,5.221139,71.540001,81.760002,-22.190001,1729472114925.0,0.0
-0.425922,-10.41835,5.130211,-7.77,30.1,-45.849998,1729472114946.0,0.0
1.923829,-7.034898,6.259624,-18.200001,-9.17,-30.799999,1729472114966.0,0.0
0.502493,-8.059027,4.563113,-10.85,-39.759998,-5.95,1729472114987.0,0.0
-1.674976,-8.614161,4.697111,-23.309999,-71.260002,-8.96,1729472115007.0,0.0
-3.089134,-8.68116,2.574677,-6.72,-115.989998,10.08,1729472115026.0,0.0
-2.54357,-8.214561,-3.68734,-107.379997,-159.320007,-28.35,1729472115046.0,0.0
-3.591627,-5.359922,-12.959527,-209.300003,-166.949997,-21.629999,1729472115066.0,0.0
-7.336394,-6.240481,-18.790836,-192.779999,-102.269997,-15.12,1729472115088.0,0.0
-13.423735,-6.379266,-21.248264,-71.75,30.52,14.21,1729472115106.0,0.0
-10.183852,-3.493521,-12.830315,86.730003,82.529999,67.760002,1729472115126.0,0.0
-5.190032,-2.845066,-10.482956,7.35,105.209999,55.720001,1729472115151.0,0.0
-3.440879,-4.68754,-8.84148,-56.0,127.120003,57.68,1729472115166.0,0.0
-2.009971,-8.819944,-6.56112,-24.01,124.599998,47.529999,1729472115189.0,0.0
1.234696,-9.157332,0.009571,68.949997,101.150002,55.299999,1729472115206.0,0.0
2.404787,-8.171489,6.345766,153.440002,78.050003,54.529999,1729472115226.0,0.0
1.775474,-10.281959,7.987241,211.119995,34.369999,47.040001,1729472115247.0,0.0
0.0335,-9.688539,9.820145,251.229996,-25.690001,34.299999,1729472115266.0,0.0
-1.306481,-6.185446,6.551548,114.660004,-86.940002,17.710001,1729472115287.0,0.0
-1.880759,-5.668597,-0.830309,-226.729996,-155.190002,-32.900002,1729472115315.0,0.0
-0.954736,-6.429514,-14.00519,-468.580017,-177.029999,-61.18,1729472115326.0,0.0
-3.165704,-9.288938,-19.640289,-392.48999,-95.690002,-46.48,1729472115348.0,0.0
-12.375679,-14.648861,-20.999413,14.7,37.029999,8.89,1729472115366.0,0.0
-15.105889,-11.557333,-16.883757,253.119995,84.699997,37.73,1729472115388.0,0.0
-5.151747,-1.852045,-11.894722,196.279999,32.060001,10.15,1729472115406.0,0.0
1.921437,-1.51705,-11.313265,118.230003,54.32,-6.58,1729472115427.0,0.0
1.253839,-8.382057,-0.366102,102.620003,134.820007,22.540001,1729472115448.0,0.0
-1.811367,-7.65464,11.150554,135.449997,125.510002,25.9,1729472115466.0,0.0
-1.76351,-7.532606,14.036297,142.169998,45.639999,25.41,1729472115488.0,0.0
-2.754139,-7.149754,14.297115,58.029999,-40.670002,7.84,1729472115507.0,0.0
-3.766303,-10.202995,7.195218,-83.790001,-132.160004,-15.96,1729472115526.0,0.0
-3.570091,-9.49472,-6.922436,-245.699997,-208.809998,-62.720001,1729472115548.0,0.0
-1.330409,-8.075776,-22.624138,-275.589996,-188.369995,-76.090004,1729472115566.0,0.0
-6.843473,-10.04507,-17.642281,-102.690002,-70.419998,-8.89,1729472115588.0,0.0
-14.866607,-9.473185,-24.110081,161.070007,94.220001,25.549999,1729472115606.0,0.0
-10.04507,-4.742575,-15.187245,251.790009,73.220001,63.349998,1729472115626.0,0.0
0.363709,0.61017,-7.578069,99.889999,56.91,12.04,1729472115648.0,0.0
1.359123,-2.840281,-6.819544,-26.950001,112.489998,6.23,1729472115668.0,0.0
-2.383251,-5.709275,1.201197,2.73,137.199997,34.299999,1729472115689.0,0.0
-3.462414,-9.052048,11.650653,101.709999,89.879997,58.029999,1729472115708.0,0.0
-2.323431,-9.016156,12.303895,110.459999,89.879997,26.6,1729472115728.0,0.0
-3.510271,-8.260024,6.848258,-66.709999,-124.599998,-20.860001,1729472115748.0,0.0
-2.172683,-7.427321,-5.307281,-205.169998,-198.800003,-49.349998,1729472115767.0,0.0
-0.751346,-9.073583,-15.706488,-251.229996,-203.070007,-71.470001,1729472115790.0,0.0
-6.568298,-11.20798,-12.095718,-197.889999,-122.290001,-52.779999,1729472115809.0,0.0
-14.682359,-10.990234,-23.552555,-51.170002,10.5,-53.130001,1729472115828.0,0.0
-11.973685,-7.685746,-18.900908,116.129997,50.540001,-8.12,1729472115848.0,0.0
-2.39043,-4.469792,-13.064812,130.410004,25.969999,-3.22,1729472115868.0,0.0
0.148355,-3.656233,-8.130811,64.400002,106.82,-4.83,1729472115889.0,0.0
-2.237289,-2.481357,-3.996014,32.41,148.680008,13.58,1729472115909.0,0.0
-1.842474,-5.362316,-0.866202,38.920002,138.669998,36.400002,1729472115928.0,0.0
-0.806381,-7.616355,13.148561,27.370001,109.690002,45.639999,1729472115948.0,0.0
-0.684347,-10.035499,14.215759,33.599998,33.459999,38.5,1729472115968.0,0.0
-1.344766,-10.262815,9.674182,19.460001,-59.990002,16.52,1729472115990.0,0.0
-2.87378,-8.65484,4.139583,-66.290001,-132.300003,-5.67,1729472116008.0,0.0
-1.962115,-9.602397,-8.700303,-210.350006,-197.330002,-50.119999,1729472116033.0,0.0
-2.785245,-8.233703,-15.907485,-278.320007,-179.550003,-72.870003,1729472116048.0,0.0
-15.684953,-16.484156,-27.34757,-163.660004,-66.709999,-62.860001,1729472116067.0,0.0
-12.464212,-11.80858,-19.970499,226.240005,80.43,-14.14,1729472116090.0,0.0
-2.127219,-0.253639,-12.545568,269.570007,36.400002,-4.97,1729472116109.0,0.0
2.359323,-0.282353,-7.453642,106.610001,120.400002,-24.85,1729472116127.0,0.0
0.284746,-3.936193,-3.421736,-7.7,156.869995,-9.45,1729472116154.0,0.0
-0.172283,-7.173682,-0.557528,44.380001,148.050003,23.59,1729472116167.0,0.0
0.842274,-4.091727,14.258829,108.5,112.349998,38.5,1729472116189.0,0.0
-0.401994,-6.309873,14.043476,95.340004,22.4,42.560001,1729472116208.0,0.0
-3.091527,-7.111469,12.847065,12.04,-69.580002,27.09,1729472116228.0,0.0
-4.977071,-7.479963,1.426122,-116.620003,-160.509995,5.6,1729472116248.0,0.0
-2.9671,-6.491727,-15.605989,-265.230011,-212.240005,-34.93,1729472116268.0,0.0
-4.974678,-13.294522,-16.855042,-281.049988,-155.399994,-30.1,1729472116289.0,0.0
-16.153946,-14.519648,-27.50071,-142.869995,31.219999,-51.59,1729472116309.0,0.0
-13.624733,-9.688539,-19.970499,189.490005,86.449997,2.73,1729472116328.0,0.0
-1.4668,-0.689133,-13.323236,278.529999,3.01,12.6,1729472116348.0,0.0
4.905287,0.401994,-6.364908,69.650002,102.690002,-11.69,1729472116367.0,0.0
-0.272782,-8.523234,0.638884,-36.959999,158.059998,20.58,1729472116390.0,0.0
-2.476572,-8.391629,14.792429,53.619999,126.699997,60.830002,1729472116407.0,0.0
-0.480957,-9.4349,13.012171,106.82,14.84,43.400002,1729472116427.0,0.0
-0.995414,-6.977471,10.523634,43.540001,-66.5,19.950001,1729472116449.0,0.0
-3.52702,-6.293124,1.505085,-104.93,-147.0,-0.84,1729472116467.0,0.0
-4.972286,-2.67039,-17.228323,-286.369995,-174.649994,-29.68,1729472116488.0,0.0
-8.183454,-11.746366,-24.949961,-169.190002,-97.790001,13.3,1729472116507.0,0.0
-16.917257,-14.177474,-27.132215,6.23,77.279999,-10.64,1729472116527.0,0.0
-11.308479,-9.702895,-14.940784,135.660004,81.830002,2.52,1729472116548.0,0.0
0.277567,-4.658825,-8.468199,150.570007,40.389999,-10.01,1729472116567.0,0.0
6.486942,-5.675776,-3.828516,71.959999,111.510002,-30.66,1729472116589.0,0.0
4.304688,-7.207181,8.817552,55.02,146.509995,0.35,1729472116607.0,0.0
-0.160319,-5.182854,16.584654,70.910004,88.970001,22.889999,1729472116627.0,0.0
0.323031,-7.487142,12.153147,62.580002,-24.780001,26.67,1729472116648.0,0.0
-0.260818,-6.862615,8.216952,-14.49,-102.620003,19.25,1729472116667.0,0.0
-4.934,-8.207381,2.751746,-155.820007,-167.300003,-2.59,1729472116689.0,0.0
-8.324631,-11.387443,-18.647268,-281.329987,-188.440002,-59.849998,1729472116707.0,0.0
-9.336794,-12.057433,-23.825335,-203.139999,-110.529999,-40.32,1729472116727.0,0.0
-12.205789,-8.056634,-20.707485,136.360001,92.190002,-2.03,1729472116749.0,0.0
-4.87418,-5.819345,-13.624733,219.240005,76.300003,14.14,1729472116767.0,0.0
1.579263,-0.18664,-6.9009,92.190002,106.330002,-11.34,1729472116789.0,0.0
2.031506,-2.012364,-3.45045,16.450001,139.369995,8.61,1729472116808.0,0.0
-0.540778,-3.814159,8.611769,47.599998,134.820007,57.540001,1729472116827.0,0.0
-1.813759,-8.561519,11.184053,146.509995,62.09,78.400002,1729472116848.0,0.0
-1.916651,-6.733403,8.597411,175.770004,-18.83,69.510002,1729472116867.0,0.0
-3.110669,-6.786045,3.830909,172.619995,-75.25,77.349998,1729472116890.0,0.0
-3.261417,-9.513863,-1.071985,152.949997,-113.610001,78.190002,1729472116907.0,0.0
-5.35753,-10.547562,-3.326023,134.119995,-91.699997,82.389999,1729472116928.0,0.0
-6.817152,-11.320443,-5.056034,202.580002,-66.220001,112.840004,1729472116948.0,0.0
-6.199803,-12.134004,-4.816752,275.940002,-52.43,120.82,1729472116967.0,0.0
-5.548956,-13.433307,-4.515256,294.0,-27.23,99.68,1729472116988.0,0.0
-5.666204,-12.88535,-3.811767,253.119995,1.26,75.599998,1729472117007.0,0.0
-5.261817,-11.337193,-2.411965,174.440002,19.879999,44.66,1729472117026.0,0.0
-5.395815,-9.79143,-0.095713,77.559998,26.18,18.48,1729472117047.0,0.0
-6.26441,-7.240681,2.852244,-16.799999,29.540001,-7.14,1729472117069.0,0.0
-5.565705,-5.218746,0.937986,-179.970001,14.77,-36.610001,1729472117089.0,0.0
-5.496314,-5.17089,-1.904687,-288.610016,-19.460001,-46.48,1729472117107.0,0.0
-5.618347,-7.499106,-2.18704,-323.75,-20.370001,-45.5,1729472117128.0,0.0
-5.005785,-8.85823,-1.294517,-340.619995,-21.280001,-57.959999,1729472117151.0,0.0
-4.041477,-9.446864,-3.220739,-344.470001,-35.279999,-69.440002,1729472117167.0,0.0
-4.54397,-9.116654,-5.493921,-377.019989,-25.620001,-71.050003,1729472117188.0,0.0
-5.472386,-4.792823,-3.996014,-474.600006,-7.84,-99.889999,1729472117207.0,0.0
-6.953543,-7.207181,-5.991628,-473.269989,-2.94,-88.690002,1729472117227.0,0.0
-5.316852,-7.948956,-9.659825,-360.570007,-31.85,-87.080002,1729472117248.0,0.0
-3.507878,-5.407779,-9.719646,-291.970001,-17.43,-82.25,1729472117267.0,0.0
-2.428715,-4.328616,-9.049655,-282.029999,2.8,-93.590004,1729472117288.0,0.0
-2.194218,-5.412565,-9.150154,-274.959991,8.33,-84.07,1729472117306.0,0.0
-2.074577,-6.472585,-6.932007,-208.320007,8.54,-75.459999,1729472117327.0,0.0
-1.301696,-7.233503,-7.929814,-83.230003,-6.93,-65.590004,1729472117348.0,0.0
-1.071985,-8.286345,-9.315259,44.029999,-11.2,-43.75,1729472117366.0,0.0
-1.993221,-7.192825,-8.733803,145.180008,14.56,-16.59,1729472117388.0,0.0
-2.816352,-5.541777,-8.729016,265.649994,24.5,34.93,1729472117407.0,0.0
-2.474179,-5.314459,-9.49472,431.410004,40.040001,75.32,1729472117518.0,0.0
-2.971886,-3.56052,-8.327023,506.100006,52.849998,102.690002,1729472117518.0,0.0
-5.151747,-4.06062,-2.26361,555.169983,44.73,141.75,1729472117518.0,0.0
-6.032306,-6.829116,1.284946,536.340027,47.880001,101.989998,1729472117519.0,0.0
-7.944171,-6.963113,-1.184447,427.910004,40.599998,59.150002,1729472117520.0,0.0
-8.523234,-7.094719,-2.529213,239.610001,36.470001,47.110001,1729472117536.0,0.0
-5.472386,-8.819944,-2.794817,63.209999,-13.23,14.84,1729472117548.0,0.0
-3.806981,-10.767702,-4.718646,-24.780001,-30.799999,-4.27,1729472117566.0,0.0
-5.190032,-12.409179,-5.812167,-53.830002,5.46,-11.41,1729472117588.0,0.0
-7.204789,-13.261024,-5.498707,-46.549999,31.57,-27.860001,1729472117606.0,0.0
-6.963113,-10.530812,-5.355137,-62.439999,43.119999,-55.860001,1729472117628.0,0.0
-4.759324,-8.738588,-4.725825,-100.870003,50.049999,-64.959999,1729472117648.0,0.0
-1.964507,-7.664211,-4.240082,-137.059998,68.32,-69.440002,1729472117667.0,0.0
0.327817,-7.984849,-3.18724,-153.300003,91.0,-57.82,1729472117690.0,0.0
0.70349,-10.920842,1.404587,-121.590004,112.279999,-31.08,1729472117707.0,0.0
-0.454636,-11.777473,10.600205,-15.82,89.529999,-22.4,1729472117726.0,0.0
-2.301895,-4.965107,9.597611,83.93,36.259998,-2.24,1729472117750.0,0.0
-3.182454,-6.070591,7.793423,32.970001,-54.110001,14.28,1729472117767.0,0.0
-4.295116,-9.080762,4.15394,-76.860001,-106.400002,14.77,1729472117788.0,0.0
-4.345366,-9.554541,-2.675175,-158.550003,-148.470001,-7.07,1729472117807.0,0.0
-3.845266,-9.111869,-10.564312,-176.820007,-160.369995,-3.85,1729472117827.0,0.0
-4.608576,-7.073184,-12.789637,-156.029999,-112.0,-3.85,1729472117848.0,0.0
-8.360522,-8.477771,-13.524234,-70.139999,-38.43,17.92,1729472117867.0,0.0
-10.660025,-10.906486,-15.8357,91.139999,10.08,12.32,1729472117888.0,0.0
-8.188239,-9.300901,-10.612168,225.680008,18.48,10.5,1729472117906.0,0.0
-4.053442,-4.972286,-6.45105,198.940002,15.47,-16.73,1729472117926.0,0.0
-3.23031,-3.460021,-6.04427,84.209999,49.209999,-16.73,1729472117948.0,0.0
-2.957529,-6.407979,-5.094319,44.939999,61.599998,2.24,1729472117967.0,0.0
-1.730011,-12.174682,2.055435,172.759995,33.670002,30.17,1729472117989.0,0.0
0.512064,-7.611568,2.548356,337.329987,19.6,17.08,1729472118008.0,0.0
-2.536392,-1.694118,7.920243,269.709991,61.040001,17.57,1729472118030.0,0.0
-4.409972,-4.199404,6.845865,25.690001,10.36,16.940001,1729472118047.0,0.0
-3.471986,-8.508877,2.924029,-169.050003,-26.389999,3.71,1729472118067.0,0.0
-2.335395,-8.394022,-1.67019,-182.839996,-43.75,4.9,1729472118089.0,0.0
-2.976671,-9.102298,-4.469792,-136.080002,-44.450001,9.38,1729472118106.0,0.0
-3.460021,-9.643075,-6.872187,-102.970001,-55.02,12.88,1729472118127.0,0.0
-5.010571,-11.655439,-7.74796,-107.099998,-36.400002,4.48,1729472118151.0,0.0
-6.742974,-11.375479,-6.754939,-151.410004,-14.98,-15.4,1729472118179.0,0.0
-6.955935,-10.9352,-8.537591,-155.050003,-12.67,-38.150002,1729472118201.0,0.0
-5.845665,-10.829915,-9.79143,-104.790001,-10.78,-48.790001,1729472118208.0,0.0
-4.328616,-10.794022,-8.348558,-23.030001,8.4,-55.580002,1729472118275.0,0.0
-4.010371,-9.092726,-4.776074,22.889999,48.16,-57.119999,1729472118276.0,0.0
-3.694518,-7.336394,-3.445665,20.02,65.169998,-54.880001,1729472118279.0,0.0
-2.428715,-7.819745,-3.117848,-13.72,59.360001,-47.599998,1729472118288.0,0.0
-0.940379,-8.757731,-1.246661,-28.91,57.049999,-42.700001,1729472118306.0,0.0
-0.09332,-8.60459,0.617348,8.89,63.91,-29.190001,1729472118326.0,0.0
0.471386,-6.192625,2.684747,45.220001,69.720001,-11.13,1729472118345.0,0.0
1.311267,-5.261817,3.938586,23.450001,52.080002,7.14,1729472118366.0,0.0
1.150948,-6.321837,2.464607,-0.7,25.059999,28.280001,1729472118386.0,0.0
-2.24686,-8.949157,4.036692,29.540001,0.7,58.240002,1729472118406.0,0.0
-5.903094,-7.702496,4.371687,120.68,-57.889999,78.75,1729472118426.0,0.0
-5.735595,-7.745567,1.036092,88.900002,-110.739998,75.529999,1729472118446.0,0.0
-6.199803,-8.539984,-5.266603,22.75,-136.149994,79.099998,1729472118466.0,0.0
-7.910671,-13.981262,-7.525427,67.620003,-120.260002,96.669998,1729472118488.0,0.0
-10.691131,-13.971692,-6.953543,142.169998,-57.119999,68.949997,1729472118505.0,0.0
-12.067005,-11.169697,-6.553941,174.369995,-3.36,24.710001,1729472118526.0,0.0
-7.91785,-11.148161,-7.312466,140.910004,3.43,-6.72,1729472118547.0,0.0
-3.053242,-11.514263,-6.051448,78.889999,1.61,-30.73,1729472118566.0,0.0
-2.615355,-11.112268,-4.721039,64.400002,37.380001,-35.98,1729472118587.0,0.0
-5.099105,-9.473185,-2.718246,56.630001,59.220001,-45.009998,1729472118607.0,0.0
-4.981857,-10.009177,-2.301895,27.790001,61.950001,-56.420002,1729472118628.0,0.0
-2.273181,-9.992428,-2.053042,33.529999,62.439999,-63.0,1729472118649.0,0.0
-1.933401,-8.149954,5.113462,84.629997,74.900002,-55.93,1729472118666.0,0.0
-1.978864,-2.493321,8.566305,109.480003,49.98,-41.580002,1729472118688.0,0.0
-2.909672,-3.531806,9.915856,82.879997,7.63,-13.72,1729472118706.0,0.0
-3.251846,-7.080362,7.204789,62.299999,-36.400002,-7.21,1729472118727.0,0.0
-2.988636,-8.587841,4.677969,72.379997,-46.759998,4.55,1729472118747.0,0.0
-2.589034,-8.499306,2.538785,-2.66,-45.220001,0.63,1729472118768.0,0.0
-4.189832,-7.422535,0.741775,-102.410004,-39.41,5.74,1729472118787.0,0.0
-5.601598,-9.037691,-1.320838,-156.729996,-45.779999,15.190001,1729472118806.0,0.0
-3.419343,-12.181859,-7.051648,-125.370003,-61.18,8.61,1729472118825.0,0.0
-3.282953,-13.789837,-7.496714,-48.580002,-33.740002,4.2,1729472118846.0,0.0
-3.608376,-11.523834,-6.407979,33.740002,-5.6,-7.07,1729472118867.0,0.0
-4.941179,-11.722438,-5.297709,69.510002,20.790001,-16.17,1729472118888.0,0.0
-5.053641,-11.660224,-5.312066,15.96,30.24,-50.889999,1729472118908.0,0.0
-4.13719,-11.229517,-3.799802,-25.549999,38.43,-58.380001,1729472118925.0,0.0
-1.859223,-7.520642,0.492921,-26.389999,44.52,-55.720001,1729472118947.0,0.0
-2.103291,-5.601598,0.435494,-34.509998,43.889999,-25.129999,1729472118966.0,0.0
-3.625126,-7.51107,0.0335,-70.699997,42.98,-36.540001,1729472118987.0,0.0
-3.845266,-8.91805,-0.179462,-56.98,45.709999,-30.380001,1729472119005.0,0.0
-2.947958,-5.190032,2.143969,-2.03,63.349998,-6.44,1729472119025.0,0.0
-1.945365,-2.919244,4.460221,48.369999,59.920002,33.459999,1729472119047.0,0.0
-4.622933,-4.998606,7.159326,79.660004,43.68,64.75,1729472119066.0,0.0
-3.830909,-6.62094,4.512863,136.990005,13.79,78.610001,1729472119087.0,0.0
-2.931208,-8.611769,4.905287,229.040009,8.82,100.309998,1729472119109.0,0.0
-4.338188,-8.678767,4.943572,190.259995,20.65,97.160004,1729472119125.0,0.0
-5.201996,-7.913064,4.661219,111.510002,19.460001,98.419998,1729472119152.0,0.0
-4.663611,-10.076177,3.972085,20.93,-3.71,89.669998,1729472119165.0,0.0
-5.089533,-16.589439,1.325624,-36.889999,-33.950001,70.349998,1729472119188.0,0.0
-3.15374,-21.561724,-1.701297,-15.89,-39.759998,25.969999,1729472119206.0,0.0
-3.790231,-18.340984,-2.598605,9.8,-0.35,-24.710001,1729472119226.0,0.0
-6.73101,-10.729417,0.236889,-31.780001,73.080002,-76.860001,1729472119248.0,0.0
-10.255639,-3.74716,1.775474,-212.729996,104.370003,-65.239998,1729472119268.0,0.0
-6.223732,-3.273381,1.579263,-319.269989,-2.1,-89.739998,1729472119287.0,0.0
-1.225125,-6.970293,-0.5001,-368.269989,-91.629997,-119.980003,1729472119306.0,0.0
-0.026321,-10.078569,-2.57707,-351.820007,-68.739998,-98.910004,1729472119326.0,0.0
-2.68714,-6.948757,-3.055635,-345.519989,3.36,-85.050003,1729472119346.0,0.0
-5.627919,-2.821138,-2.660819,-397.040009,27.58,-84.139999,1729472119366.0,0.0
-6.386444,-6.910471,-3.522235,-511.48999,-33.110001,-106.400002,1729472119387.0,0.0
-3.4672,-7.513463,-5.716454,-532.97998,-61.880001,-108.010002,1729472119407.0,0.0
-2.294717,-6.762117,-9.911072,-459.619995,-32.060001,-78.190002,1729472119426.0,0.0
-2.404787,-6.228518,-12.780065,-222.389999,-5.04,-47.529999,1729472119446.0,0.0
-2.787638,-7.652246,-12.937992,-41.369999,17.43,-6.65,1729472119467.0,0.0
-2.301895,-9.008978,-11.8349,119.489998,45.009998,11.48,1729472119488.0,0.0
-2.256432,-7.750352,-10.272388,250.320007,58.939999,27.790001,1729472119505.0,0.0
-3.058028,-6.147161,-9.233903,321.51001,75.389999,34.09,1729472119525.0,0.0
-3.199204,-5.35753,-7.568498,365.610016,73.360001,41.720001,1729472119546.0,0.0
-2.706282,-4.881358,-5.848059,403.549988,68.32,42.84,1729472119566.0,0.0
-2.349752,-6.396015,-3.656233,443.029999,62.23,37.939999,1729472119589.0,0.0
-2.70389,-7.281359,-1.430908,463.610016,53.48,39.549999,1729472119606.0,0.0
-2.818745,-6.565905,-0.823131,444.220001,50.470001,40.25,1729472119625.0,0.0
-1.808974,-6.69751,-0.540778,421.679993,26.67,50.959999,1729472119646.0,0.0
-1.442872,-6.273981,0.868595,414.119995,24.57,56.560001,1729472119665.0,0.0
-1.828116,-5.343173,1.428515,413.420013,28.700001,59.360001,1729472119688.0,0.0
-2.024328,-3.720839,0.854238,402.290009,37.099998,80.080002,1729472119707.0,0.0
-2.201397,-3.079563,3.349952,388.220001,53.130001,91.209999,1729472119725.0,0.0
-4.208975,-2.89053,7.707282,286.860016,62.510002,83.230003,1729472119746.0,0.0
-6.23091,-6.74776,9.872787,55.23,40.32,83.440002,1729472119766.0,0.0
-5.005785,-8.099705,8.066205,-49.279999,-3.85,65.379997,1729472119786.0,0.0
-4.168297,-7.726424,6.369694,-81.900002,-15.47,56.490002,1729472119806.0,0.0
-4.168297,-6.71426,5.4341,-94.779999,-19.879999,54.110001,1729472119825.0,0.0
-4.31426,-6.13759,4.773681,-123.410004,-20.370001,55.09,1729472119846.0,0.0
-5.493921,-7.149754,7.362715,-189.490005,-21.91,52.009998,1729472119867.0,0.0
-7.422535,-8.078169,7.853244,-306.670013,-45.5,44.939999,1729472119887.0,0.0
-7.88435,-9.432507,2.400001,-335.929993,-78.470001,35.0,1729472119905.0,0.0
-7.453642,-10.774881,1.974079,-292.950012,-75.599998,16.940001,1729472119925.0,0.0
-5.651847,-8.532805,-2.254039,-243.389999,-47.32,0.63,1729472119946.0,0.0
-4.989035,-9.133404,-3.337988,-169.820007,-7.77,-4.06,1729472119965.0,0.0
-4.752146,-8.226524,-0.799203,-159.880005,15.89,-19.389999,1729472119994.0,0.0
-5.304887,-8.159525,1.679761,-147.139999,7.0,-5.53,1729472120006.0,0.0
-4.4339,-7.609176,1.105484,-102.690002,1.61,-0.21,1729472120025.0,0.0
-3.78066,-5.960521,-1.615155,-97.370003,4.62,8.47,1729472120047.0,0.0
-3.785445,-5.168497,-3.57727,-127.190002,11.62,21.559999,1729472120066.0,0.0
-4.831109,-8.578269,-5.503492,-182.0,31.639999,33.740002,1729472120087.0,0.0
-5.230711,-10.789237,-6.814759,-221.059998,40.32,17.15,1729472120106.0,0.0
-4.156333,-11.736795,-8.109276,-210.770004,41.580002,-0.84,1729472120128.0,0.0
-3.108276,-10.057034,-6.317052,-180.949997,38.779999,-17.92,1729472120149.0,0.0
-2.842674,-9.308081,-6.144768,-178.710007,33.880001,-31.639999,1729472120166.0,0.0
-2.574677,-9.410972,-5.489135,-197.889999,32.900002,-55.02,1729472120188.0,0.0
-2.962314,-9.025726,-5.391029,-201.949997,31.780001,-66.989998,1729472120207.0,0.0
-2.912065,-8.178668,-5.776274,-194.110001,25.83,-79.660004,1729472120228.0,0.0
-4.285545,-6.23091,-4.912465,-123.270004,22.469999,-53.689999,1729472120248.0,0.0
-4.630112,-6.400801,-3.919443,-73.779999,19.74,-53.34,1729472120267.0,0.0
-6.139983,-3.242275,-5.381458,-186.690002,26.950001,-67.550003,1729472120289.0,0.0
-5.190032,-8.4012,-8.597411,-270.76001,20.58,-72.660004,1729472120307.0,0.0
-1.938186,-11.198411,-9.815358,-231.770004,7.07,-67.059998,1729472120326.0,0.0
-0.607777,-9.016156,-9.028119,-91.349998,10.36,-52.639999,1729472120348.0,0.0
-2.383251,-6.283553,-4.704289,50.189999,21.629999,-39.130001,1729472120367.0,0.0
-4.553542,-5.029713,-4.261617,143.149994,17.99,-24.08,1729472120388.0,0.0
-5.142176,-3.706482,-4.699504,106.75,-1.75,-13.93,1729472120408.0,0.0
-4.936393,-1.409373,-6.135197,-9.03,-7.0,-0.28,1729472120428.0,0.0
-3.538985,-3.809374,-8.092526,-138.740005,-11.69,-5.04,1729472120449.0,0.0
-2.481357,-5.347959,-8.817552,-183.330002,-6.65,-0.35,1729472120468.0,0.0
-2.105684,-4.505685,-9.394222,-146.369995,-5.53,12.18,1729472120489.0,0.0
-1.232304,-3.519842,-9.51147,-134.330002,-3.78,3.29,1729472120508.0,0.0
-0.442672,-4.625326,-9.894321,-136.850006,-8.05,6.65,1729472120528.0,0.0
-0.89013,-7.846066,-10.655239,-144.270004,-0.84,-21.0,1729472120548.0,0.0
-0.416351,-6.501299,-11.653046,-121.940002,5.11,-40.040001,1729472120568.0,0.0
-1.081556,-6.24766,-10.346564,-65.029999,17.5,-46.549999,1729472120589.0,0.0
-1.301696,-3.168097,-10.171888,-10.92,27.65,-39.34,1729472120608.0,0.0
-2.971886,-0.973879,-8.559127,10.15,33.810001,-6.51,1729472120628.0,0.0
-10.966305,-1.457229,-1.536192,-17.15,20.299999,29.049999,1729472120649.0,0.0
-12.954741,-2.017149,-13.75873,-18.83,34.23,21.280001,1729472120669.0,0.0
-2.598605,-3.744767,-13.768302,46.27,22.889999,79.309998,1729472120699.0,0.0
-2.091327,-2.940779,-7.590034,109.480003,65.239998,83.090004,1729472120713.0,0.0
-2.316252,-3.713661,-7.393822,200.059998,52.009998,108.220001,1729472120731.0,0.0
0.332602,-6.793223,-5.680561,185.919998,39.34,82.949997,1729472120748.0,0.0
1.897508,-8.331808,-3.574877,166.600006,37.450001,71.959999,1729472120768.0,0.0
2.380858,-8.724231,-1.852045,159.25,25.27,44.240002,1729472120789.0,0.0
0.921237,-7.590034,-1.088734,94.919998,10.36,5.81,1729472120808.0,0.0
-0.770489,-6.269196,-2.447858,-22.82,-22.75,-30.73,1729472120828.0,0.0
-1.641476,-8.133204,-10.205389,-108.360001,-55.93,-59.080002,1729472120848.0,0.0
-3.022135,-3.981657,-9.360723,-128.589996,-47.670002,-93.870003,1729472120867.0,0.0
-8.865408,-1.971686,-11.042876,-156.800003,-4.97,-95.340004,1729472120892.0,0.0
-7.685746,-3.524628,-11.643474,-243.389999,-15.33,-113.68,1729472120908.0,0.0
-1.919044,-3.625126,-12.703495,-79.169998,-47.880001,-58.939999,1729472120927.0,0.0
-1.875973,-0.392423,-11.181661,36.959999,-4.83,-12.6,1729472120949.0,0.0
-5.252246,-0.650848,-9.597611,43.119999,37.450001,31.639999,1729472120968.0,0.0
-4.292724,-2.928815,-7.640282,11.97,19.74,47.740002,1729472120999.0,0.0
-1.959722,-7.37468,-6.798009,3.71,6.02,47.950001,1729472121008.0,0.0
-1.986043,-6.518049,-5.728417,70.840004,0.49,43.75,1729472121028.0,0.0
-1.818545,-4.508078,-4.12044,48.369999,-13.79,26.040001,1729472121048.0,0.0
-1.921437,-3.897908,-4.364508,-49.349998,-36.889999,-1.54,1729472121070.0,0.0
-3.85723,-4.831109,-5.493921,-140.419998,-54.110001,-35.209999,1729472121090.0,0.0
-5.685347,-4.749753,-9.030513,-163.169998,-73.989998,-69.440002,1729472121108.0,0.0
-4.704289,-3.778267,-12.933208,-124.25,-81.900002,-85.120003,1729472121128.0,0.0
-1.952543,0.344566,-14.541183,-92.330002,-76.790001,-68.669998,1729472121154.0,0.0
-3.519842,0.074178,-15.081962,-53.689999,-26.67,-39.830002,1729472121168.0,0.0
-4.156333,0.234497,-13.49552,5.95,3.85,-10.78,1729472121191.0,0.0
-2.435893,-0.835095,-10.195816,17.99,11.48,13.23,1729472121207.0,0.0
-1.191626,-2.907279,-8.224132,-2.17,15.61,12.39,1729472121227.0,0.0
-1.275374,-6.281159,-8.073383,-18.129999,14.77,5.11,1729472121249.0,0.0
-0.76331,-7.389036,-8.159525,22.049999,11.41,1.82,1729472121267.0,0.0
-0.598206,-5.69731,-7.133004,83.510002,9.17,3.5,1729472121289.0,0.0
-1.079163,-4.833502,-7.779066,99.540001,12.18,0.98,1729472121308.0,0.0
-1.213161,-5.960521,-8.963513,90.370003,4.27,-5.88,1729472121327.0,0.0
-1.835295,-5.642276,-9.97807,86.660004,1.4,-12.95,1729472121348.0,0.0
-2.756532,-4.539185,-7.805387,104.720001,14.84,-26.32,1729472121368.0,0.0
-2.924029,-3.972085,-6.608976,86.099998,7.0,-39.619999,1729472121392.0,0.0
-3.163311,-4.216154,-6.656832,80.43,-2.17,-34.509998,1729472121408.0,0.0
-3.684947,-5.879165,-10.688738,83.720001,-9.03,-33.459999,1729472121428.0,0.0
-3.936193,-7.525427,-10.612168,80.709999,1.54,-38.080002,1729472121449.0,0.0
-4.103691,-5.883951,-9.190832,74.410004,6.72,-40.810001,1729472121468.0,0.0
-3.615555,-5.15414,-7.877172,51.52,-5.32,-49.630001,1729472121500.0,0.0
-3.180061,-3.67059,-7.91785,4.55,-3.78,-45.43,1729472121507.0,0.0
-4.17069,-6.482157,-9.372685,23.17,4.41,-25.76,1729472121527.0,0.0
-4.558327,-6.920043,-8.365308,71.75,18.690001,-18.200001,1729472121548.0,0.0
-3.443272,-4.548756,-8.353344,137.759995,8.19,-1.05,1729472121568.0,0.0
-1.45005,-4.462614,-9.159724,165.059998,13.23,13.23,1729472121589.0,0.0
-1.502693,-2.916851,-5.948557,135.169998,60.48,16.309999,1729472121608.0,0.0
-3.78066,-4.481757,-3.876373,94.43,71.68,42.0,1729472121627.0,0.0
-2.624927,-8.898908,-7.568498,140.419998,43.189999,49.98,1729472121648.0,0.0
-1.146162,-6.405586,-4.76411,208.460007,44.66,51.939999,1729472121668.0,0.0
-2.165504,-9.217153,-1.832902,266.559998,65.169998,71.260002,1729472121689.0,0.0
-2.462214,-10.676775,0.550349,289.170013,40.040001,67.269997,1729472121707.0,0.0
-1.940579,-9.58804,0.746561,300.579987,28.280001,44.66,1729472121728.0,0.0
-1.694118,-8.638089,1.122234,289.660004,19.32,44.170002,1729472121748.0,0.0
-1.141376,-7.463214,1.777867,238.839996,13.23,39.27,1729472121767.0,0.0
-2.146362,-9.396614,-0.083749,160.509995,12.6,39.970001,1729472121789.0,0.0
-2.624927,-10.38485,-1.184447,96.739998,15.61,30.17,1729472121808.0,0.0
-1.782653,-10.253245,-2.48375,55.580002,26.880001,25.200001,1729472121827.0,0.0
-1.588834,-8.4347,-2.155933,-39.759998,43.119999,12.88,1729472121849.0,0.0
-2.167897,-8.662018,0.509671,-152.460007,38.920002,5.6,1729472121867.0,0.0
-3.038885,-8.327023,-0.021535,-289.799988,11.97,-11.13,1729472121889.0,0.0
-3.689733,-9.367901,-3.302095,-337.26001,-25.76,-29.469999,1729472121918.0,0.0
-3.830909,-12.229716,-6.123233,-280.769989,-39.41,-40.880001,1729472121927.0,0.0
-4.285545,-9.145369,-5.927022,-237.440002,-30.59,-57.049999,1729472121948.0,0.0
-4.084548,-5.460421,-3.641876,-217.699997,-30.59,-54.529999,1729472121967.0,0.0
-3.785445,-5.123034,-5.525027,-259.140015,-41.16,-55.580002,1729472121989.0,0.0
-3.632305,-7.233503,-9.085547,-306.459991,-28.98,-63.349998,1729472122007.0,0.0
-3.572484,-10.738988,-10.159925,-241.710007,1.75,-55.439999,1729472122035.0,0.0
-2.892922,-7.738388,-7.341179,-123.270004,10.64,-27.65,1729472122048.0,0.0
-2.581856,-5.948557,-5.831308,-48.650002,16.73,-15.54,1729472122067.0,0.0
-2.455036,-4.400401,-4.929214,-52.080002,16.309999,-16.450001,1729472122091.0,0.0
-2.833102,-3.964907,-4.23051,-89.529999,6.86,-10.08,1729472122107.0,0.0
-2.541178,-5.900701,-10.987842,-123.900002,-15.05,-13.23,1729472122128.0,0.0
-0.81356,-9.619147,-12.873385,-40.529999,-15.4,-13.86,1729472122154.0,0.0
-0.571885,-9.008978,-11.63869,166.389999,10.22,25.76,1729472122167.0,0.0
-2.160719,-7.563712,-9.090333,415.799988,40.880001,66.709999,1729472122189.0,0.0
-3.476771,-8.066205,-6.793223,646.380005,42.77,87.709999,1729472122208.0,0.0
-3.17049,-10.083356,-9.064013,812.840027,25.76,83.650002,1729472122228.0,0.0
-1.880759,-1.897508,-5.015356,811.580017,60.060001,55.09,1729472122248.0,0.0
-2.56032,2.754139,3.821337,756.909973,81.900002,105.139999,1729472122269.0,0.0
-6.56112,-1.59362,10.437491,488.529999,78.330002,75.459999,1729472122319.0,0.0
-6.991827,-6.041877,6.350551,173.949997,15.54,19.67,1729472122572.0,0.0
-1.567299,-10.284351,3.304488,109.340004,3.78,40.389999,1729472122572.0,0.0
-0.430708,-12.811172,4.051049,51.869999,2.1,11.97,1729472122572.0,0.0
-3.282953,-15.349957,4.182654,-39.830002,2.31,-18.48,1729472122573.0,0.0
-4.295116,-10.999805,2.679961,-116.690002,-3.71,-43.889999,1729472122573.0,0.0
-3.696911,-7.630712,1.048056,-177.589996,12.25,-53.689999,1729472122573.0,0.0
-3.35713,-6.647261,1.519442,-322.350006,-1.89,-78.190002,1729472122573.0,0.0
-2.091327,-10.475778,5.067998,-371.630005,-31.360001,-74.199997,1729472122573.0,0.0
-0.995414,-8.930015,2.239682,-341.459991,-59.220001,-76.440002,1729472122573.0,0.0
-2.610569,-7.075576,1.241875,-256.899994,-45.220001,-59.010002,1729472122574.0,0.0
-3.732803,-5.534599,-1.476372,-257.110016,-42.700001,-51.240002,1729472122574.0,0.0
-2.813959,-7.264609,-4.943572,-313.179993,-63.700001,-61.040001,1729472122574.0,0.0
-1.239482,-9.609575,-6.101698,-399.700012,-63.0,-66.43,1729472122574.0,0.0
-0.98345,-11.291731,-4.675575,-424.619995,-17.43,-63.77,1729472122574.0,0.0
-2.37368,-9.97807,-1.4668,-407.399994,19.25,-66.290001,1729472122590.0,0.0
-3.28056,-7.427321,-2.041078,-365.049988,0.49,-69.510002,1729472122608.0,0.0
-3.354738,-5.15414,-3.04367,-246.330002,-37.029999,-44.380001,1729472122628.0,0.0
-2.849852,-5.118248,-5.726025,-157.430008,-37.59,-26.18,1729472122650.0,0.0
-1.502693,-6.037091,-11.475977,-49.209999,-45.150002,8.05,1729472122669.0,0.0
-0.327817,-9.456435,-14.557933,98.0,-35.630001,42.700001,1729472122691.0,0.0
0.323031,-11.722438,-12.14836,244.440002,11.83,53.689999,1729472122711.0,0.0
-0.490529,-10.951948,-9.992428,436.799988,43.049999,70.769997,1729472122730.0,0.0
-2.490928,-10.085747,-6.848258,672.840027,49.98,85.889999,1729472122754.0,0.0
-4.036692,-5.869594,-3.797409,775.809998,49.98,74.760002,1729472122769.0,0.0
-3.979264,-3.129812,1.069592,703.780029,51.240002,68.529999,1729472122791.0,0.0
-3.010171,-1.182054,5.144568,460.25,41.580002,53.760002,1729472122810.0,0.0
-4.756931,-6.958328,4.931608,293.299988,17.780001,60.060001,1729472122829.0,0.0
-5.740381,-12.12204,3.558127,261.730011,-16.379999,61.670002,1729472122850.0,0.0
-4.591826,-9.633504,3.014957,323.470001,4.9,45.779999,1729472122870.0,0.0
-4.878965,-6.070591,3.859623,353.360016,56.630001,37.939999,1729472122890.0,0.0
-4.278367,-6.343372,5.008178,248.990005,44.450001,20.860001,1729472122909.0,0.0
-3.524628,-10.731809,2.70389,85.75,28.77,2.52,1729472122929.0,0.0
-2.864209,-12.399607,6.723832,-26.110001,23.52,-51.450001,1729472122950.0,0.0
-3.385844,-9.329616,5.158926,-169.330002,33.32,-62.510002,1729472122969.0,0.0
-3.625126,-7.664211,4.527221,-289.380005,15.61,-73.989998,1729472122991.0,0.0
-3.579663,-6.932007,4.831109,-398.649994,-15.61,-68.529999,1729472123010.0,0.0
-1.914258,-7.018148,1.67019,-435.119995,-59.150002,-65.800003,1729472123029.0,0.0
-1.65344,-9.257831,2.18704,-454.649994,-83.440002,-72.870003,1729472123050.0,0.0
-2.773281,-7.525427,0.480957,-540.539978,-73.43,-97.160004,1729472123069.0,0.0
-3.553342,-4.041477,0.600598,-634.900024,-65.029999,-114.800003,1729472123091.0,0.0
-3.684947,-3.115455,-2.455036,-694.960022,-82.459999,-121.800003,1729472123112.0,0.0
-3.244668,-6.329016,-4.582255,-697.059998,-108.849998,-133.770004,1729472123129.0,0.0
-1.823331,-6.003592,-7.63789,-565.109985,-100.029999,-102.760002,1729472123153.0,0.0
-0.555135,-5.460421,-10.928021,-264.529999,-101.360001,-33.389999,1729472123169.0,0.0
0.820738,-9.509077,-16.091732,14.98,-86.940002,13.93,1729472123192.0,0.0
1.749153,-14.103296,-11.913863,279.51001,-27.51,61.32,1729472123209.0,0.0
0.717847,-11.767902,-9.083155,570.570007,17.43,110.739998,1729472123229.0,0.0
-0.607777,-6.800402,-10.707881,848.609985,33.389999,138.669998,1729472123250.0,0.0
-1.40698,-1.887937,-9.107083,943.390015,83.019997,157.779999,1729472123268.0,0.0
-6.592227,2.68714,7.250252,782.109985,153.860001,171.080002,1729472123292.0,0.0
-12.311072,-1.9669,10.707881,484.470001,130.759995,146.300003,1729472123308.0,0.0
-10.403993,-8.477771,7.271788,218.610001,15.190001,83.93,1729472123329.0,0.0
-4.850252,-11.377872,1.885544,132.160004,-24.290001,73.779999,1729472123350.0,0.0
-4.694718,-11.598011,0.248854,153.229996,32.41,66.5,1729472123369.0,0.0
-8.379664,-8.9683,2.801995,32.970001,52.360001,48.93,1729472123391.0,0.0
-10.461421,-9.497113,2.775674,-248.360001,40.529999,3.85,1729472123410.0,0.0
-11.124231,-13.552947,-2.172683,-544.039978,6.86,-66.849998,1729472123429.0,0.0
-6.111269,-19.092331,-7.448857,-574.909973,-40.040001,-130.339996,1729472123450.0,0.0
-3.495914,-14.584253,-3.579663,-404.880005,47.740002,-146.020004,1729472123579.0,0.0
-3.349952,-4.505685,-3.206382,-273.209991,77.699997,-152.039993,1729472123580.0,0.0
-1.201197,-5.407779,-2.775674,-229.389999,84.419998,-123.480003,1729472123580.0,0.0
0.492921,-7.77428,9.559326,-256.200012,84.629997,-102.550003,1729472123580.0,0.0
-0.787239,-7.156933,13.574483,-129.009995,46.549999,-49.349998,1729472123580.0,0.0
-1.756332,-3.048456,10.526026,3.78,-16.450001,0.7,1729472123581.0,0.0
-2.416751,-4.895715,6.211767,-1.26,-68.18,31.15,1729472123597.0,0.0
-4.187439,-6.465407,-6.740582,-139.229996,-111.93,31.43,1729472123608.0,0.0
-4.503292,-10.461421,-17.027327,-287.420013,-139.300003,-8.33,1729472123656.0,0.0
-7.642675,-11.004591,-17.907885,-288.540009,-73.220001,-29.120001,1729472123659.0,0.0
-12.002398,-10.344172,-21.858435,-106.050003,21.84,-52.920002,1729472123669.0,0.0
-9.245867,-7.075576,-17.020147,143.710007,62.439999,-24.85,1729472123690.0,0.0
-3.213561,-4.228118,-10.956735,171.080002,67.410004,-41.299999,1729472123709.0,0.0
-0.248854,-0.421137,-5.335995,18.969999,115.919998,-50.400002,1729472123728.0,0.0
-0.267996,-4.311867,-2.801995,-36.889999,127.260002,-21.139999,1729472123748.0,0.0
0.366102,-7.271788,7.367501,31.710001,109.410004,23.450001,1729472123768.0,0.0
0.306281,-6.762117,13.34238,158.970001,59.150002,49.279999,1729472123790.0,0.0
