acc_x,acc_y,acc_z,gyr_x,gyr_y,gyr_z,timestamp,label
-2.045863,-14.076975,1.646262,-160.369995,31.290001,-30.59,1729473357678.0,0.0
-1.550549,-10.042676,-2.218147,42.07,-31.290001,5.39,1729473357682.0,0.0
-1.502693,-9.489935,-4.962714,188.089996,-52.57,4.13,1729473357682.0,0.0
-3.608376,-6.628119,-3.452843,209.300003,-43.470001,4.13,1729473357689.0,0.0
-5.429315,-5.328816,-6.539584,153.649994,-55.860001,6.37,1729473357710.0,0.0
-6.113662,-6.01077,-8.628519,3.99,-58.240002,-9.87,1729473357728.0,0.0
-5.462814,-5.855237,-9.288938,-167.649994,-42.420002,-33.599998,1729473357749.0,0.0
-4.709075,-4.254438,-7.649854,-262.079987,-30.17,-34.93,1729473357770.0,0.0
-5.558527,-5.711668,-10.176675,-221.199997,-25.969999,-25.549999,1729473357790.0,0.0
-6.175875,-7.377072,-11.636297,-101.080002,-2.1,-37.939999,1729473357813.0,0.0
-6.149554,-4.596612,-11.24866,78.120003,15.05,-8.54,1729473357830.0,0.0
-6.644868,-0.5001,-8.202596,137.270004,29.540001,25.059999,1729473357850.0,0.0
-5.735595,-2.538785,-7.645068,82.389999,39.41,30.940001,1729473357870.0,0.0
-4.646862,-2.021935,-5.960521,88.340004,28.98,49.349998,1729473357890.0,0.0
-5.647062,0.507278,-5.194818,22.960001,28.559999,64.82,1729473357911.0,0.0
-5.929415,-4.407579,-3.847659,-135.520004,9.31,39.759998,1729473357930.0,0.0
-1.584049,-5.362316,-8.209774,-166.25,-23.1,21.35,1729473357950.0,0.0
-1.995614,-4.907679,-10.329816,-78.470001,-10.57,49.0,1729473357970.0,0.0
-5.716454,-4.677969,-5.458029,-34.439999,17.710001,35.279999,1729473357994.0,0.0
-5.161318,-6.171089,-6.175875,-73.989998,-3.36,13.58,1729473358011.0,0.0
-3.957729,-5.02732,-7.63789,-50.82,-18.83,13.37,1729473358030.0,0.0
-5.156533,-6.597012,-10.779665,-6.86,-11.97,6.16,1729473358050.0,0.0
-4.718646,-7.068398,-9.724431,23.24,-1.89,-3.08,1729473358070.0,0.0
-4.981857,-5.398208,-8.848659,74.269997,13.37,-2.38,1729473358090.0,0.0
-5.111069,-6.472585,-6.809973,77.699997,21.84,-12.74,1729473358112.0,0.0
-5.625526,-8.712267,-6.259624,65.099998,17.01,-30.66,1729473358130.0,0.0
-4.850252,-10.612168,-6.424729,170.029999,-17.710001,-39.200001,1729473358150.0,0.0
-5.606383,-6.51087,-3.101098,179.550003,-3.99,-46.27,1729473358171.0,0.0
-6.831509,-3.787838,-4.900501,154.839996,-8.05,-44.029999,1729473358191.0,0.0
-6.080163,-5.539384,-7.123433,-37.73,-23.379999,-54.880001,1729473358215.0,0.0
-4.156333,-5.515456,-9.200402,-61.110001,-30.17,-55.09,1729473358231.0,0.0
-3.235096,-4.998606,-9.336794,-30.66,-16.030001,-34.93,1729473358251.0,0.0
-3.079563,-4.596612,-8.930015,8.33,1.54,-22.610001,1729473358271.0,0.0
-3.146562,-4.163511,-8.453842,38.009998,5.67,-8.54,1729473358291.0,0.0
-2.943172,-3.885944,-8.066205,47.529999,1.75,-0.91,1729473358311.0,0.0
-2.847459,-3.976871,-7.896315,33.880001,2.03,2.1,1729473358330.0,0.0
-3.053242,-4.378866,-7.71446,9.87,5.67,3.43,1729473358350.0,0.0
-3.369094,-5.041678,-7.52782,-4.41,7.42,5.11,1729473358371.0,0.0
-3.739982,-5.618347,-7.243074,-7.91,8.82,3.78,1729473358391.0,0.0
-4.132405,-5.965307,-7.006185,-5.95,8.96,3.36,1729473358412.0,0.0
-4.259224,-6.24766,-7.180861,-4.55,5.88,1.33,1729473358431.0,0.0
-4.285545,-6.439085,-7.456036,-3.22,3.36,-0.56,1729473358451.0,0.0
-4.48415,-6.460621,-7.180861,-2.73,3.57,-1.75,1729473358470.0,0.0
-4.922036,-6.695118,-7.149754,-6.79,4.97,-1.47,1729473358490.0,0.0
-4.685147,-6.640083,-6.826723,-7.56,3.92,-0.35,1729473358512.0,0.0
-4.299902,-6.448657,-6.486942,-1.12,7.21,-1.33,1729473358530.0,0.0
-4.278367,-6.690332,-6.556334,9.1,22.26,-6.65,1729473358551.0,0.0
-4.063013,-6.360123,-6.484549,29.120001,25.27,-3.36,1729473358570.0,0.0
-3.503092,-5.98445,-6.424729,35.630001,25.200001,0.28,1729473358590.0,0.0
-3.010171,-5.783452,-6.216553,29.120001,26.389999,0.35,1729473358613.0,0.0
-2.988636,-5.680561,-6.065805,21.91,27.440001,1.47,1729473358630.0,0.0
-3.201597,-5.556134,-5.996413,15.82,25.76,2.38,1729473358650.0,0.0
-3.412165,-5.682954,-5.927022,5.39,21.629999,4.41,1729473358670.0,0.0
-3.498307,-5.850451,-6.175875,-10.08,14.63,4.2,1729473358691.0,0.0
-3.562913,-6.029913,-6.575477,-21.98,10.08,3.71,1729473358712.0,0.0
-3.809374,-6.051448,-6.673582,-27.65,8.12,1.61,1729473358729.0,0.0
-4.09412,-6.116055,-7.013363,-27.790001,4.83,-1.12,1729473358751.0,0.0
-4.211368,-6.07777,-7.21436,-27.370001,1.26,-4.06,1729473358770.0,0.0
-4.201797,-5.953342,-7.300502,-29.120001,-1.12,-5.11,1729473358790.0,0.0
-4.165904,-5.828916,-7.207181,-33.810001,-2.38,-5.25,1729473358811.0,0.0
-4.182654,-5.989235,-7.008578,-36.189999,-1.68,-5.67,1729473358830.0,0.0
-4.192225,-5.998806,-7.020542,-31.08,-2.8,-4.62,1729473358849.0,0.0
-4.06062,-5.869594,-7.121039,-20.299999,-5.11,-1.47,1729473358869.0,0.0
-4.074977,-5.919843,-7.243074,-17.15,-4.55,0.07,1729473358891.0,0.0
-4.058227,-5.9342,-7.178468,-13.37,-4.13,1.26,1729473358913.0,0.0
-3.993621,-5.833702,-7.075576,-7.56,-4.41,3.57,1729473358931.0,0.0
-4.0008,-5.883951,-7.080362,-3.57,-4.27,4.83,1729473358949.0,0.0
-3.9673,-5.771489,-7.085148,-3.01,-4.13,4.76,1729473358970.0,0.0
-4.029513,-5.850451,-6.994221,-3.29,-3.36,4.83,1729473358990.0,0.0
-4.086941,-5.931807,-7.066005,-4.41,-3.22,3.78,1729473359013.0,0.0
-4.125226,-6.063413,-7.159326,-4.69,-3.92,2.59,1729473359030.0,0.0
-4.180261,-6.02752,-7.106683,-3.92,-3.01,1.19,1729473359049.0,0.0
-4.141976,-5.938986,-7.164111,-0.98,-3.64,0.63,1729473359071.0,0.0
-4.04387,-5.867201,-7.159326,2.31,-3.64,-0.07,1729473359090.0,0.0
-4.0008,-5.788238,-7.075576,5.39,-3.36,-0.84,1729473359114.0,0.0
-4.015156,-5.663811,-7.006185,7.77,-3.08,-0.7,1729473359129.0,0.0
-4.017549,-5.589634,-7.003791,7.28,-3.5,-0.98,1729473359149.0,0.0
-4.034299,-5.551349,-7.140182,4.13,-4.27,-1.96,1729473359170.0,0.0
-4.127619,-5.458029,-7.171289,2.03,-4.69,-1.89,1729473359190.0,0.0
-4.086941,-5.498707,-7.211967,0.49,-6.3,-1.26,1729473359215.0,0.0
-4.15394,-5.577669,-7.219146,-0.21,-6.16,-1.26,1729473359230.0,0.0
-4.173083,-5.577669,-7.235896,0.49,-6.3,-0.91,1729473359250.0,0.0
-4.189832,-5.52742,-7.300502,0.77,-7.21,-0.77,1729473359271.0,0.0
-4.254438,-5.556134,-7.281359,-0.77,-7.14,-0.77,1729473359290.0,0.0
-4.307081,-5.577669,-7.288538,-3.22,-6.72,-1.68,1729473359319.0,0.0
-4.335794,-5.663811,-7.286145,-3.71,-6.23,-2.73,1729473359329.0,0.0
-4.285545,-5.678168,-7.319644,-2.31,-6.37,-3.29,1729473359349.0,0.0
-4.189832,-5.613562,-7.257431,-1.82,-5.95,-4.48,1729473359371.0,0.0
-4.134798,-5.613562,-7.269395,-1.61,-5.18,-5.39,1729473359390.0,0.0
-4.194618,-5.582455,-7.228717,-2.66,-4.69,-6.09,1729473359411.0,0.0
-4.173083,-5.587241,-7.310073,-5.6,-5.32,-6.16,1729473359430.0,0.0
-4.151547,-5.608776,-7.424929,-8.89,-4.69,-5.95,1729473359451.0,0.0
-4.06062,-5.694918,-7.460821,-9.38,-4.62,-5.6,1729473359471.0,0.0
-4.13719,-5.706882,-7.508677,-8.33,-3.01,-5.25,1729473359491.0,0.0
-4.261617,-5.79781,-7.499106,-7.35,0.42,-4.9,1729473359512.0,0.0
-4.256832,-5.71406,-7.429714,-6.37,1.96,-4.48,1729473359530.0,0.0
-4.235296,-5.65424,-7.401,-4.69,3.57,-3.78,1729473359551.0,0.0
-4.311867,-5.745167,-7.360322,-3.5,6.09,-3.71,1729473359572.0,0.0
-4.366901,-5.673382,-7.23111,-1.26,7.56,-3.15,1729473359592.0,0.0
-4.326223,-5.592027,-7.113862,0.91,7.49,-2.31,1729473359612.0,0.0
-4.366901,-5.65424,-7.156933,1.33,7.07,-1.89,1729473359631.0,0.0
-4.488935,-5.718846,-7.15454,0.84,7.63,-2.38,1729473359652.0,0.0
-4.536791,-5.656632,-7.13779,1.33,7.42,-1.61,1729473359671.0,0.0
-4.4674,-5.754738,-7.140182,0.49,6.72,-1.54,1729473359692.0,0.0
-4.496114,-5.816952,-7.037291,2.17,7.63,-2.1,1729473359714.0,0.0
-4.548756,-5.776274,-7.077969,4.48,7.98,-2.52,1729473359730.0,0.0
-4.546363,-5.766702,-7.032506,4.62,8.47,-3.43,1729473359751.0,0.0
-4.472186,-5.726025,-6.924829,5.6,8.12,-3.85,1729473359770.0,0.0
-4.438686,-5.721239,-6.972685,8.89,8.54,-4.13,1729473359792.0,0.0
-4.292724,-5.761917,-7.176075,12.6,8.96,-5.25,1729473359813.0,0.0
-4.165904,-5.65424,-7.255038,16.870001,10.01,-5.74,1729473359832.0,0.0
-4.067799,-5.491528,-7.183254,17.5,11.34,-6.72,1729473359852.0,0.0
-3.9673,-5.316852,-7.190433,14.84,11.48,-6.65,1729473359872.0,0.0
-3.95055,-5.563312,-7.484749,9.59,11.55,-7.28,1729473359892.0,0.0
-3.850052,-5.807381,-7.599605,8.26,11.55,-9.59,1729473359914.0,0.0
-3.689733,-5.771489,-7.616355,13.3,11.83,-10.64,1729473359932.0,0.0
-3.613162,-5.623133,-7.62114,16.870001,13.09,-12.53,1729473359951.0,0.0
-3.656233,-5.795416,-7.798209,16.940001,15.05,-12.53,1729473359973.0,0.0
-3.4672,-5.793024,-7.690532,13.02,17.5,-16.52,1729473359992.0,0.0
-3.381058,-5.761917,-7.355537,8.19,20.16,-17.57,1729473360013.0,0.0
-3.345166,-5.970093,-6.975078,4.06,21.700001,-19.460001,1729473360036.0,0.0
-3.287738,-6.108876,-6.903293,4.06,22.120001,-23.52,1729473360052.0,0.0
-3.254239,-6.022735,-7.089933,-8.89,21.700001,-26.950001,1729473360071.0,0.0
-3.235096,-6.108876,-6.728617,-16.450001,21.49,-27.719999,1729473360092.0,0.0
-3.211168,-6.242875,-6.582655,-22.68,20.51,-28.42,1729473360114.0,0.0
-3.012564,-6.108876,-6.759724,-28.42,13.93,-31.08,1729473360131.0,0.0
-2.928815,-5.702096,-6.788438,-31.43,9.59,-31.08,1729473360151.0,0.0
-2.579463,-5.489135,-7.166504,-38.150002,1.26,-30.870001,1729473360171.0,0.0
-2.17029,-5.469993,-7.623533,-50.610001,-10.99,-33.389999,1729473360191.0,0.0
-2.361716,-5.661418,-7.757531,-64.959999,-10.85,-36.68,1729473360216.0,0.0
-2.723032,-5.922236,-7.992027,-71.470001,-8.47,-39.689999,1729473360231.0,0.0
-2.756532,-6.183054,-7.695317,-67.059998,-4.62,-42.349998,1729473360252.0,0.0
-2.718246,-6.228518,-7.243074,-54.529999,-3.43,-43.82,1729473360272.0,0.0
-2.885744,-5.960521,-7.295716,-48.09,-1.82,-43.610001,1729473360292.0,0.0
-2.888137,-5.690133,-7.549356,-49.279999,-2.17,-43.049999,1729473360315.0,0.0
-2.696711,-5.556134,-7.76471,-53.130001,-3.57,-42.420002,1729473360332.0,0.0
-2.74696,-5.201996,-7.733603,-58.59,-3.29,-40.950001,1729473360351.0,0.0
-2.828316,-5.134997,-7.941778,-68.949997,-3.22,-41.369999,1729473360371.0,0.0
-2.837888,-4.328616,-7.290931,-77.209999,-5.11,-41.299999,1729473360392.0,0.0
-3.177669,-4.323831,-8.236095,-72.800003,-7.28,-38.220001,1729473360413.0,0.0
-3.072384,-3.754339,-9.221939,-63.209999,-11.41,-37.450001,1729473360431.0,0.0
-3.23031,-3.452843,-9.700503,-60.060001,-2.52,-37.939999,1729473360451.0,0.0
-2.959922,-3.598805,-10.736595,-42.700001,0.7,-34.860001,1729473360472.0,0.0
-2.612962,-3.26381,-11.526227,-10.85,10.92,-30.59,1729473360492.0,0.0
-2.400001,-2.682354,-11.799009,23.17,24.57,-21.700001,1729473360514.0,0.0
-1.971686,-3.385844,-11.916256,42.279999,36.330002,-12.11,1729473360532.0,0.0
-1.26341,-2.935993,-10.461421,78.82,42.0,-0.56,1729473360551.0,0.0
-0.856631,-1.138984,-10.025927,101.989998,46.549999,10.29,1729473360572.0,0.0
-0.473779,-2.342573,-8.685946,74.690002,49.560001,22.26,1729473360592.0,0.0
-0.07657,-3.627519,-7.618747,32.970001,50.119999,26.18,1729473360615.0,0.0
-0.0335,-5.596812,-6.530013,27.02,45.57,34.580002,1729473360631.0,0.0
0.07657,-7.403394,-4.62054,27.93,34.509998,28.700001,1729473360651.0,0.0
-0.265603,-8.379664,-4.527221,29.82,20.16,18.76,1729473360672.0,0.0
-0.459422,-7.819745,-5.254639,27.51,1.12,3.08,1729473360692.0,0.0
-0.770489,-5.76431,-6.972685,17.780001,-14.49,-5.39,1729473360712.0,0.0
-2.038685,-4.955536,-6.963113,-22.960001,-20.790001,-13.23,1729473360731.0,0.0
-3.28056,-4.481757,-9.317651,-83.790001,-24.01,-24.710001,1729473360751.0,0.0
-4.208975,-4.56072,-13.014563,-110.18,-26.389999,-31.01,1729473360771.0,0.0
-4.010371,-4.845466,-14.605788,-9.1,-11.13,-28.49,1729473360792.0,0.0
-2.720639,-1.634298,-13.246667,119.559998,1.47,-3.78,1729473360815.0,0.0
-1.11027,0.275175,-10.241282,158.619995,14.0,17.01,1729473360831.0,0.0
-0.701097,-0.887737,-10.277173,86.870003,30.450001,21.91,1729473360850.0,0.0
-0.693919,-4.23051,-10.497313,44.939999,41.439999,33.740002,1729473360871.0,0.0
0.636491,-3.852444,-9.561719,61.740002,46.200001,46.689999,1729473360891.0,0.0
1.677369,-5.493921,-7.058826,71.190002,51.939999,56.630001,1729473360913.0,0.0
1.457229,-9.79143,-1.160519,54.880001,61.32,55.09,1729473360931.0,0.0
0.598206,-11.566904,0.119641,11.76,44.939999,32.970001,1729473360951.0,0.0
0.696311,-13.60559,-1.277767,-37.799999,0.56,-8.33,1729473360971.0,0.0
-0.275175,-11.038091,-3.914658,-57.119999,-22.610001,-37.450001,1729473360991.0,0.0
-0.459422,-5.888737,-5.575277,-60.689999,-33.880001,-41.509998,1729473361012.0,0.0
0.354138,-2.600998,-5.642276,-106.889999,-55.369999,-43.959999,1729473361031.0,0.0
-2.057827,-3.031706,-7.379465,-188.160004,-51.799999,-48.860001,1729473361052.0,0.0
-4.479364,-4.59422,-12.251251,-222.110001,-43.75,-56.77,1729473361071.0,0.0
-5.438886,-4.130012,-15.069997,-151.059998,-34.439999,-51.73,1729473361092.0,0.0
-3.464807,-1.261017,-16.47937,-33.110001,-18.41,-27.65,1729473361113.0,0.0
-2.426322,1.646262,-12.643675,129.710007,23.799999,32.970001,1729473361131.0,0.0
-1.572084,3.101098,-8.587841,133.699997,36.75,55.23,1729473361151.0,0.0
-1.641476,0.019143,-9.181261,36.540001,40.529999,62.439999,1729473361170.0,0.0
-0.847059,-3.251846,-10.301102,10.01,34.09,66.709999,1729473361192.0,0.0
0.394816,-3.522235,-8.889337,48.299999,33.32,75.18,1729473361216.0,0.0
0.693919,-5.838487,-6.872187,91.139999,35.139999,77.139999,1729473361231.0,0.0
0.236889,-7.752745,-4.460221,99.190002,40.040001,69.370003,1729473361251.0,0.0
-0.57667,-8.633304,-1.629512,61.740002,25.83,42.490002,1729473361271.0,0.0
-1.947758,-9.875179,-2.761317,-16.450001,-0.14,8.54,1729473361291.0,0.0
-2.443072,-8.786445,-6.099305,-97.019997,-23.799999,-29.610001,1729473361313.0,0.0
-1.37348,-6.812366,-9.894321,-117.739998,-41.09,-44.59,1729473361331.0,0.0
-0.916451,-5.510671,-9.860823,-85.82,-36.959999,-45.150002,1729473361359.0,0.0
-3.754339,-5.455636,-8.609376,-69.650002,-17.99,-47.740002,1729473361370.0,0.0
-4.790431,-5.379066,-10.750952,-75.25,-21.77,-59.150002,1729473361393.0,0.0
-3.285345,-4.173083,-11.794223,-57.540001,-27.93,-61.950001,1729473361413.0,0.0
-2.438286,-1.952543,-11.519048,-40.25,-16.59,-62.02,1729473361431.0,0.0
-1.914258,-0.653241,-10.9017,15.54,-0.14,-32.41,1729473361451.0,0.0
-1.213161,0.976272,-10.018748,37.799999,7.42,-5.32,1729473361471.0,0.0
-1.124627,0.51685,-8.657232,40.389999,12.88,20.58,1729473361492.0,0.0
-1.45005,0.040678,-8.745767,38.920002,17.92,39.549999,1729473361513.0,0.0
-0.557528,-0.98345,-9.784252,44.73,13.3,58.799999,1729473361531.0,0.0
-0.600598,-1.959722,-9.341579,50.540001,19.32,72.870003,1729473361551.0,0.0
-0.725025,-3.972085,-9.422935,40.740002,24.780001,72.940002,1729473361572.0,0.0
-0.497707,-5.919843,-9.865608,18.690001,24.99,65.870003,1729473361593.0,0.0
-0.375673,-8.327023,-7.144968,18.690001,26.25,51.380001,1729473361614.0,0.0
-2.09372,-9.875179,-2.964707,-8.12,26.110001,30.24,1729473361632.0,0.0
-3.993621,-11.260624,-5.197211,-71.75,7.84,-14.56,1729473361652.0,0.0
-3.945765,-11.097912,-7.676175,-63.349998,-18.620001,-37.66,1729473361672.0,0.0
-3.127419,-6.293124,-8.568698,-6.58,-32.970001,-52.709999,1729473361694.0,0.0
-2.354537,-3.775874,-8.989835,-16.030001,-35.279999,-61.040001,1729473361716.0,0.0
-1.651048,-2.792424,-9.875179,-55.16,-32.619999,-60.900002,1729473361732.0,0.0
-1.926222,-2.892922,-11.533404,-46.759998,-17.219999,-47.810001,1729473361751.0,0.0
-1.981257,0.457029,-12.658032,24.290001,-5.88,-18.34,1729473361772.0,0.0
-0.629312,2.995814,-10.530812,81.690002,3.78,17.85,1729473361792.0,0.0
-0.224925,3.096312,-8.865408,91.0,15.96,54.459999,1729473361815.0,0.0
-1.241875,1.471586,-10.066606,28.49,29.049999,69.650002,1729473361833.0,0.0
-1.069592,-2.28036,-10.226924,-1.96,30.799999,79.800003,1729473361853.0,0.0
-1.138984,-4.816752,-9.693325,16.940001,37.029999,84.419998,1729473361873.0,0.0
-1.100698,-7.329216,-9.489935,40.529999,42.700001,81.059998,1729473361894.0,0.0
-0.457029,-8.965906,-6.166305,45.639999,41.580002,60.34,1729473361915.0,0.0
-1.471586,-10.920842,-3.218346,31.639999,33.599998,36.189999,1729473361934.0,0.0
-3.345166,-10.514063,-2.74696,-16.799999,14.28,-6.02,1729473361953.0,0.0
-3.919443,-9.700503,-7.020542,-72.590004,-13.79,-39.900002,1729473361975.0,0.0
-1.945365,-9.334401,-10.191031,-79.730003,-35.07,-62.860001,1729473361993.0,0.0
-1.146162,-5.95095,-8.250452,-29.610001,-32.060001,-73.919998,1729473362015.0,0.0
-2.895315,-3.74716,-10.04507,-35.279999,-20.23,-82.110001,1729473362034.0,0.0
-2.029114,-2.947958,-11.090734,-82.25,-20.23,-82.18,1729473362053.0,0.0
-1.868794,-3.163311,-12.30868,-50.540001,-10.22,-66.709999,1729473362078.0,0.0
-2.033899,-0.722632,-12.009576,22.889999,5.32,-39.830002,1729473362093.0,0.0
-1.208375,2.28036,-10.738988,80.5,11.06,-8.12,1729473362115.0,0.0
-1.342373,2.718246,-8.678767,72.099998,20.58,21.49,1729473362133.0,0.0
-1.574477,0.842274,-9.016156,39.900002,23.1,41.720001,1729473362154.0,0.0
-1.22034,-1.062413,-9.963714,24.08,23.379999,55.299999,1729473362173.0,0.0
-1.119841,-1.497907,-9.54497,34.23,26.67,65.730003,1729473362193.0,0.0
-1.679761,-3.754339,-8.980263,41.509998,30.940001,73.010002,1729473362218.0,0.0
-1.646262,-6.123233,-8.382057,41.860001,31.15,68.669998,1729473362233.0,0.0
-1.842474,-8.965906,-4.790431,44.73,27.58,59.57,1729473362254.0,0.0
-3.23031,-9.432507,-2.665605,-4.06,21.77,31.92,1729473362273.0,0.0
-3.852444,-9.224331,-4.618148,-57.470001,-7.21,0.21,1729473362293.0,0.0
-2.904887,-10.645668,-8.561519,-74.550003,-30.940001,-24.639999,1729473362314.0,0.0
-1.627119,-8.068598,-10.023535,-65.660004,-31.92,-47.18,1729473362333.0,0.0
-1.715654,-6.034698,-10.360922,-43.68,-24.360001,-60.27,1729473362352.0,0.0
-0.725025,-3.306881,-10.516455,-34.580002,-23.030001,-73.779999,1729473362373.0,0.0
-0.98345,-2.143969,-11.112268,-13.79,-10.71,-63.77,1729473362393.0,0.0
-1.442872,-0.179462,-11.059627,0.56,3.5,-42.77,1729473362414.0,0.0
-0.861416,1.244268,-10.648061,35.91,9.52,-13.16,1729473362433.0,0.0
-0.535992,2.088934,-9.860823,58.66,15.68,16.1,1729473362453.0,0.0
-1.148555,1.18684,-10.437491,46.549999,27.790001,39.130001,1729473362472.0,0.0
-1.004985,0.160319,-11.583653,33.810001,33.810001,55.580002,1729473362494.0,0.0
-1.131805,-2.285146,-10.176675,44.099998,44.66,71.68,1729473362514.0,0.0
-0.653241,-6.357729,-9.786645,70.629997,48.439999,73.43,1729473362532.0,0.0
-0.043071,-9.812965,-5.472386,105.419998,51.029999,65.309998,1729473362553.0,0.0
-1.572084,-11.540584,-0.088534,139.160004,40.950001,47.040001,1729473362573.0,0.0
-5.091926,-12.007183,-0.332602,94.919998,23.24,-6.51,1729473362593.0,0.0
-4.539185,-9.190832,-4.161119,-54.389999,-26.32,-63.560001,1729473362615.0,0.0
-0.244068,-6.388836,-8.432307,-136.570007,-78.470001,-72.940002,1729473362680.0,0.0
1.024128,-7.276574,-10.813165,-129.009995,-69.230003,-78.330002,1729473362680.0,0.0
-1.567299,-6.183054,-12.813565,-81.340004,-11.48,-82.529999,1729473362681.0,0.0
-2.880959,-2.081756,-12.019149,10.85,-1.96,-50.189999,1729473362706.0,0.0
-1.660619,1.105484,-11.308479,62.720001,5.74,-2.94,1729473362738.0,0.0
-0.705883,2.361716,-9.305687,86.239998,22.4,26.74,1729473362747.0,0.0
-0.937986,1.112662,-9.559326,24.92,32.689999,34.790001,1729473362753.0,0.0
-1.677369,-1.057628,-9.650253,-35.490002,40.810001,42.07,1729473362772.0,0.0
-0.524028,-2.112862,-9.858429,-34.790001,32.970001,46.48,1729473362793.0,0.0
-0.303888,-5.142176,-7.075576,-20.09,35.700001,50.330002,1729473362816.0,0.0
-1.043271,-9.707682,-3.986443,-9.59,25.83,32.619999,1729473362834.0,0.0
-1.615155,-12.205789,-2.85703,7.91,5.88,4.48,1729473362852.0,0.0
-1.024128,-5.828916,-3.218346,-6.51,-31.639999,-24.57,1729473362873.0,0.0
-2.194218,-1.916651,-8.236095,-104.720001,-45.709999,-32.689999,1729473362892.0,0.0
-3.333202,-6.348158,-12.449856,-213.570007,-40.810001,-43.119999,1729473362914.0,0.0
-2.591427,-7.525427,-15.141781,-194.039993,-22.469999,-49.07,1729473362933.0,0.0
-2.711068,-6.013163,-15.156138,-48.16,2.31,-22.33,1729473362952.0,0.0
-1.409373,-2.67039,-13.344771,54.599998,17.5,-9.8,1729473362973.0,0.0
1.335195,-0.856631,-11.454442,77.07,15.47,-3.5,1729473362993.0,0.0
1.095913,-0.882952,-9.425328,19.879999,35.91,-9.38,1729473363015.0,0.0
-0.258425,-3.481557,-8.090133,-37.029999,47.389999,-14.0,1729473363033.0,0.0
0.708275,-4.23051,-8.114061,28.98,25.200001,-15.05,1729473363052.0,0.0
2.333002,-2.787638,-7.365108,88.900002,13.09,-15.96,1729473363072.0,0.0
2.581856,-2.821138,-6.372087,108.57,13.3,-7.49,1729473363093.0,0.0
1.658226,-3.711268,-4.677969,89.18,8.26,-1.96,1729473363117.0,0.0
-0.583849,-5.096712,-3.797409,44.170002,-1.19,-9.66,1729473363132.0,0.0
-2.050649,-5.407779,-7.054041,13.16,-20.370001,-7.21,1729473363153.0,0.0
-1.538585,-4.989035,-11.667403,-20.719999,-40.18,-13.93,1729473363171.0,0.0
-2.490928,-7.200003,-12.217752,-35.420002,-24.360001,-8.47,1729473363192.0,0.0
-4.883751,-8.915657,-9.533006,28.0,2.1,-5.6,1729473363220.0,0.0
-5.682954,-7.391429,-10.908878,108.849998,13.3,-12.6,1729473363232.0,0.0
-2.821138,-4.41715,-9.839286,162.259995,-13.3,2.03,1729473363252.0,0.0
0.504886,-2.574677,-7.377072,182.979996,-28.35,15.190001,1729473363272.0,0.0
0.748954,-3.737589,-5.938986,142.449997,-17.08,19.25,1729473363293.0,0.0
-1.730011,-6.477371,-5.443672,91.629997,8.47,16.309999,1729473363314.0,0.0
-2.648855,-8.886944,-6.625726,119.489998,-4.34,17.01,1729473363334.0,0.0
-0.751346,-9.863215,-9.786645,224.0,-44.869999,15.68,1729473363444.0,0.0
1.392623,-6.759724,-7.238289,326.130005,-47.040001,19.389999,1729473363446.0,0.0
0.267996,-5.927022,-4.335794,172.199997,7.42,-11.27,1729473363448.0,0.0
-0.760918,-9.980463,-5.213961,-11.48,-4.06,-25.620001,1729473363449.0,0.0
0.825524,-12.234503,-7.307681,-42.139999,-30.870001,-37.73,1729473363453.0,0.0
1.789831,-11.279767,-6.549156,49.0,-17.710001,-42.91,1729473363454.0,0.0
0.299103,-8.882158,-4.835894,147.350006,17.57,-38.779999,1729473363471.0,0.0
-1.189233,-8.982656,-3.536592,198.729996,22.4,-24.780001,1729473363492.0,0.0
-1.277767,-9.79143,-2.641676,209.440002,12.46,-21.98,1729473363513.0,0.0
-1.0002,-9.729217,-1.433301,206.779999,10.22,-23.030001,1729473363531.0,0.0
-1.143769,-9.79143,-0.327817,206.639999,14.35,-20.02,1729473363551.0,0.0
-1.45005,-8.949157,0.485743,200.619995,17.01,-19.110001,1729473363572.0,0.0
-2.112862,-8.46102,1.988436,176.960007,17.5,-14.7,1729473363592.0,0.0
-2.053042,-10.061819,0.914058,144.970001,13.51,-13.3,1729473363615.0,0.0
-1.765903,-10.411172,-0.019143,134.610001,16.379999,-18.48,1729473363632.0,0.0
-1.942972,-8.85105,1.265803,135.869995,27.440001,-15.96,1729473363652.0,0.0
-2.26361,-7.422535,2.938386,113.82,26.389999,-11.06,1729473363672.0,0.0
-1.265803,-8.114061,1.883151,66.150002,11.2,-5.95,1729473363693.0,0.0
1.808974,-8.035098,-2.376073,13.37,0.07,-1.75,1729473363714.0,0.0
4.039084,-6.958328,-5.687739,-102.970001,-4.62,4.27,1729473363734.0,0.0
5.505885,-9.157332,-6.795617,-195.089996,3.85,3.57,1729473363753.0,0.0
5.017749,-13.629518,-7.173682,-187.180008,37.240002,1.33,1729473363772.0,0.0
2.689533,-15.113067,-5.733203,-55.720001,78.120003,-10.92,1729473363792.0,0.0
-0.710668,-11.210374,3.940979,108.290001,88.269997,-26.110001,1729473363814.0,0.0
-3.792624,-5.682954,16.024733,136.080002,76.860001,-10.43,1729473363832.0,0.0
-8.240881,-3.739982,11.631511,-12.81,-23.940001,1.05,1729473363852.0,0.0
-6.644868,-9.60479,6.910471,-116.340004,-93.660004,-14.56,1729473363872.0,0.0
-1.232304,-10.222138,-0.555135,-153.720001,-98.419998,-19.110001,1729473363892.0,0.0
0.145962,-10.181459,-2.864209,-83.300003,-66.360001,-5.04,1729473363913.0,0.0
-1.674976,-11.569297,-1.761117,-19.6,-42.420002,6.58,1729473363932.0,0.0
-2.306681,-11.102697,-3.48395,15.82,-24.5,8.61,1729473363952.0,0.0
-0.818345,-8.740981,-4.051049,32.549999,-15.75,3.78,1729473363972.0,0.0
0.794417,-6.707082,-2.371287,23.450001,-10.22,10.29,1729473363992.0,0.0
1.596013,-8.338986,-1.727618,9.8,-26.6,24.01,1729473364013.0,0.0
2.617748,-8.166703,-4.723432,20.65,-27.58,31.639999,1729473364032.0,0.0
3.069991,-9.217153,-8.379664,23.59,19.530001,36.75,1729473364052.0,0.0
1.292124,-11.559726,-4.749753,-28.280001,75.110001,25.9,1729473364072.0,0.0
-1.569692,-15.684953,-0.251246,-39.130001,88.900002,12.46,1729473364092.0,0.0
-2.62732,-12.870994,-0.229711,-20.58,74.550003,-2.31,1729473364114.0,0.0
-3.256632,-6.649654,14.562718,57.049999,55.580002,-8.96,1729473364131.0,0.0
-5.673382,-5.424529,12.050256,132.089996,-7.56,54.670002,1729473364152.0,0.0
-4.460221,-5.228317,4.539185,43.889999,-31.360001,23.66,1729473364171.0,0.0
-3.287738,-9.23151,0.057428,-100.379997,-61.950001,27.790001,1729473364193.0,0.0
-1.61037,-13.201202,-3.117848,-146.580002,-74.970001,17.219999,1729473364218.0,0.0
-1.758725,-14.483756,-2.359323,-101.290001,-58.099998,21.07,1729473364232.0,0.0
-1.421337,-11.952149,-2.031506,-28.700001,-41.93,6.51,1729473364252.0,0.0
-0.894916,-7.690532,-1.01695,-1.26,-40.32,-4.2,1729473364272.0,0.0
0.229711,-7.147361,-2.148755,-0.28,-69.580002,3.43,1729473364298.0,0.0
2.18704,-10.195816,-6.958328,-12.6,-69.720001,15.75,1729473364317.0,0.0
2.620141,-10.973484,-8.183454,-39.830002,-24.08,9.03,1729473364333.0,0.0
1.730011,-9.901501,-8.140383,-25.27,34.23,4.83,1729473364352.0,0.0
-0.287139,-12.299109,-1.98365,-25.9,86.800003,9.03,1729473364372.0,0.0
-1.562513,-11.540584,-0.368495,-1.12,77.279999,0.07,1729473364392.0,0.0
-1.694118,-9.68136,0.48335,7.07,71.68,-8.19,1729473364414.0,0.0
-1.57687,-8.487342,-0.911665,-19.460001,50.259998,-18.129999,1729473364433.0,0.0
-6.034698,-9.442079,13.016955,44.799999,39.970001,12.39,1729473364452.0,0.0
-7.310073,-7.819745,7.37468,86.029999,-9.03,31.219999,1729473364473.0,0.0
-6.175875,-9.937392,0.552742,-48.09,-15.82,-7.56,1729473364494.0,0.0
-2.67039,-11.346765,-2.62732,-126.349998,-65.660004,-27.370001,1729473364514.0,0.0
-0.567099,-11.74158,-3.864408,-85.330002,-60.060001,-6.16,1729473364533.0,0.0
-0.66999,-10.451849,-2.754139,-49.630001,-44.380001,-10.57,1729473364553.0,0.0
-0.519243,-7.568498,-2.177469,-45.990002,-62.580002,-21.91,1729473364575.0,0.0
0.971486,-8.255238,-6.360123,-36.75,-90.019997,-13.65,1729473364595.0,0.0
3.235096,-8.463413,-7.800602,-23.59,-62.860001,-7.14,1729473364615.0,0.0
2.371287,-9.420543,-9.233903,12.46,16.24,9.03,1729473364633.0,0.0
0.401994,-10.021141,-8.25763,49.0,73.709999,15.54,1729473364653.0,0.0
-2.103291,-11.205588,-2.268396,60.34,108.849998,23.799999,1729473364673.0,0.0
-2.962314,-11.712867,-0.784846,-0.28,102.760002,-8.54,1729473364693.0,0.0
-9.772287,-11.813366,19.992033,68.739998,80.43,3.78,1729473364714.0,0.0
-7.829315,-7.116255,8.276773,137.270004,-2.45,23.379999,1729473364734.0,0.0
-3.586841,-7.121039,-0.648455,-23.1,-28.77,-24.99,1729473364754.0,0.0
-0.981057,-9.200402,-2.445465,-133.699997,-70.840004,-30.73,1729473364774.0,0.0
-2.316252,-11.284552,-4.541577,-127.610001,-34.02,-6.23,1729473364795.0,0.0
-3.215954,-11.526227,-2.68714,-76.860001,-25.48,-16.24,1729473364816.0,0.0
-1.074377,-8.504091,-4.816752,2.24,-39.130001,-11.83,1729473364834.0,0.0
0.866202,-5.639884,-5.237889,38.709999,-35.139999,3.71,1729473364855.0,0.0
2.017149,-6.776474,-6.053841,13.16,-22.190001,20.23,1729473364874.0,0.0
1.90708,-10.30828,-7.267002,-4.48,14.0,30.940001,1729473364894.0,0.0
0.564706,-10.439885,-6.45105,26.880001,57.400002,30.309999,1729473364916.0,0.0
-1.828116,-11.461621,-2.727818,10.36,79.870003,27.02,1729473364934.0,0.0
-1.17009,-9.561719,-4.981857,10.99,67.620003,13.09,1729473364954.0,0.0
-3.144169,-10.535598,6.417551,48.580002,72.870003,11.2,1729473364974.0,0.0
-7.190433,-6.74776,9.305687,141.75,28.0,26.530001,1729473364995.0,0.0
-7.379465,-9.327222,4.048656,38.57,0.91,7.14,1729473365021.0,0.0
-2.333002,-10.145569,-1.785046,-104.510002,-66.010002,-45.360001,1729473365034.0,0.0
-0.619741,-11.004591,-3.548556,-92.050003,-63.77,-16.24,1729473365054.0,0.0
-1.299303,-10.688738,-2.813959,-60.130001,-45.5,-20.02,1729473365074.0,0.0
-1.835295,-9.927821,-2.778067,-36.049999,-40.810001,-25.41,1729473365094.0,0.0
-0.926022,-6.979864,-3.376273,-1.89,-57.260002,-21.35,1729473365116.0,0.0
0.751346,-7.69771,-4.931608,23.17,-63.139999,-0.77,1729473365134.0,0.0
2.177469,-9.023334,-7.121039,11.69,-39.689999,5.53,1729473365154.0,0.0
1.433301,-8.896514,-7.668997,8.26,19.389999,12.88,1729473365173.0,0.0
-0.480957,-9.877571,-7.144968,-1.54,62.790001,19.389999,1729473365195.0,0.0
-1.859223,-11.739187,-2.672783,-14.56,71.540001,19.389999,1729473365219.0,0.0
-1.935793,-11.499906,-3.37388,7.84,69.370003,7.28,1729473365234.0,0.0
-1.607977,-11.590833,-1.071985,4.41,62.510002,-10.57,1729473365255.0,0.0
-2.045863,-9.169296,-0.830309,65.800003,67.340004,-1.19,1729473365274.0,0.0
-7.652246,-7.403394,6.685547,101.220001,28.35,8.4,1729473365294.0,0.0
-5.472386,-9.645468,0.20339,-40.32,-25.76,-24.15,1729473365316.0,0.0
-1.471586,-10.356135,-3.110669,-114.099998,-74.900002,-35.560001,1729473365334.0,0.0
-0.370888,-10.365707,-3.929015,-81.690002,-54.950001,-12.39,1729473365354.0,0.0
-1.119841,-9.848858,-2.957529,-61.599998,-36.119999,-16.799999,1729473365374.0,0.0
-1.258625,-7.956135,-3.591627,-31.85,-38.709999,-17.639999,1729473365394.0,0.0
0.023928,-7.922636,-5.989235,20.299999,-48.23,-2.1,1729473365416.0,0.0
1.89033,-7.470392,-7.625926,43.889999,-37.73,7.91,1729473365434.0,0.0
1.89033,-7.869993,-8.13799,20.719999,13.72,19.040001,1729473365454.0,0.0
-0.081356,-10.313066,-6.192625,-41.720001,60.130001,17.710001,1729473365474.0,0.0
-1.655833,-12.58864,-5.048856,-42.490002,69.650002,15.96,1729473365495.0,0.0
-1.660619,-13.253844,-2.380858,19.389999,67.129997,3.85,1729473365515.0,0.0
-1.284946,-8.980263,-2.277967,80.849998,70.699997,-2.38,1729473365534.0,0.0
-6.101698,-6.439085,13.198811,98.910004,59.920002,0.7,1729473365554.0,0.0
-8.212167,-8.128418,6.45105,75.599998,2.38,10.29,1729473365574.0,0.0
-4.520042,-10.466206,-0.643669,-65.239998,-43.75,-35.91,1729473365594.0,0.0
-0.40678,-10.770095,-3.816552,-103.110001,-79.309998,-39.27,1729473365617.0,0.0
-1.205983,-9.568897,-3.113062,-53.27,-43.259998,-17.01,1729473365634.0,0.0
-1.31366,-8.350951,-4.199404,-25.549999,-27.370001,-19.6,1729473365654.0,0.0
0.162712,-6.486942,-4.912465,-5.95,-31.85,-6.16,1729473365674.0,0.0
1.691726,-8.015956,-5.941379,18.200001,-18.969999,15.47,1729473365694.0,0.0
2.115255,-9.41815,-7.972885,39.619999,14.07,28.42,1729473365718.0,0.0
1.091127,-9.353544,-7.391429,33.529999,61.670002,27.719999,1729473365735.0,0.0
-1.215554,-10.734202,-4.536791,-18.9,82.040001,26.880001,1729473365753.0,0.0
-1.569692,-13.708481,-4.039084,-7.21,69.300003,10.36,1729473365774.0,0.0
-1.222732,-11.933006,-2.323431,75.040001,70.840004,5.81,1729473365794.0,0.0
-5.20439,-5.187639,10.447062,124.879997,72.169998,3.78,1729473365816.0,0.0
-10.202995,-7.846066,9.133404,87.010002,5.95,15.4,1729473365834.0,0.0
-6.656832,-10.219746,0.205783,-61.950001,-56.279999,-38.779999,1729473365854.0,0.0
-1.646262,-10.372886,-2.667997,-120.470001,-97.93,-48.509998,1729473365873.0,0.0
0.086142,-9.568897,-4.063013,-95.059998,-81.760002,-28.700001,1729473365894.0,0.0
-1.138984,-10.176675,-3.424129,-73.010002,-44.380001,-21.559999,1729473365917.0,0.0
-1.392623,-9.95175,-4.15394,-40.880001,-35.490002,-22.82,1729473365933.0,0.0
-0.878166,-8.245667,-3.452843,19.879999,-37.240002,-8.26,1729473365953.0,0.0
-0.387637,-8.327023,-3.416951,59.849998,-33.880001,8.05,1729473365974.0,0.0
0.028714,-7.89153,-5.465207,36.540001,-21.700001,10.57,1729473365993.0,0.0
0.667598,-7.721639,-6.285945,-26.6,-4.48,11.9,1729473366015.0,0.0
1.404587,-10.265208,-8.659625,-53.619999,8.89,16.309999,1729473366034.0,0.0
0.887737,-11.889936,-5.47717,-30.380001,37.310001,15.190001,1729473366053.0,0.0
-0.397209,-10.468598,-4.768896,10.01,61.529999,5.25,1729473366073.0,0.0
-1.119841,-11.114661,-3.957729,5.11,69.440002,-1.12,1729473366094.0,0.0
-1.543371,-10.435099,-1.282553,-24.290001,59.990002,-17.01,1729473366115.0,0.0
-3.996014,-9.77468,8.23131,64.260002,64.889999,3.22,1729473366133.0,0.0
-7.946564,-9.162118,8.595018,140.210007,6.3,19.6,1729473366154.0,0.0
-6.498906,-9.559326,1.811367,32.970001,-12.81,-16.870001,1729473366173.0,0.0
-1.847259,-9.879964,-3.151347,-75.18,-68.18,-36.959999,1729473366194.0,0.0
-0.12682,-10.394422,-3.988836,-51.869999,-50.330002,-10.36,1729473366219.0,0.0
-1.198804,-10.894521,-3.412165,-20.440001,-16.59,-3.64,1729473366234.0,0.0
-1.514657,-10.035499,-3.830909,6.79,-8.75,-9.66,1729473366253.0,0.0
-0.902094,-7.984849,-3.069991,40.040001,-10.15,-7.28,1729473366274.0,0.0
-1.148555,-7.879565,-2.163112,43.259998,-12.95,3.36,1729473366294.0,0.0
-1.301696,-9.667004,-1.940579,7.28,-31.85,1.89,1729473366315.0,0.0
-0.756132,-10.023535,-3.862016,11.69,-28.0,-2.38,1729473366340.0,0.0
-0.646062,-9.32483,-4.577469,-4.69,-16.59,-3.08,1729473366353.0,0.0
-0.200997,-9.45165,-5.166104,-16.870001,-10.08,-2.94,1729473366373.0,0.0
0.208176,-10.112068,-5.321638,-24.290001,2.52,-2.59,1729473366397.0,0.0
-0.114855,-9.798609,-3.802195,-7.84,21.98,-2.73,1729473366415.0,0.0
-0.937986,-9.107083,-1.761117,11.62,32.689999,-1.19,1729473366434.0,0.0
-1.392623,-9.217153,-1.067199,2.1,26.809999,0.35,1729473366454.0,0.0
-1.356731,-9.719646,-1.024128,-8.82,14.84,-1.75,1729473366479.0,0.0
-1.182054,-9.626326,-1.435694,-11.06,10.71,-2.24,1729473366494.0,0.0
-0.839881,-9.322437,-2.11047,-17.01,11.76,-2.24,1729473366516.0,0.0
-0.512064,-9.408579,-3.113062,-21.0,13.16,2.45,1729473366534.0,0.0
-0.241675,-9.937392,-4.053442,-17.92,20.51,4.83,1729473366554.0,0.0
-0.198604,-10.396815,-3.893122,-14.28,27.370001,1.19,1729473366580.0,0.0
-0.591027,-9.568897,-3.663411,1.4,37.52,3.71,1729473366595.0,0.0
-1.050449,-10.889735,-3.151347,21.559999,49.98,5.32,1729473366619.0,0.0
-3.881158,-9.162118,6.687939,80.919998,34.580002,8.75,1729473366635.0,0.0
-6.534799,-7.989635,7.456036,141.539993,27.58,28.139999,1729473366656.0,0.0
-5.826523,-8.760124,4.218546,24.08,-7.56,-3.71,1729473366675.0,0.0
-2.361716,-8.748159,-0.045464,-56.490002,-39.549999,-10.15,1729473366696.0,0.0
-1.639083,-9.820145,-2.17029,-49.77,-30.380001,9.73,1729473366718.0,0.0
-2.682354,-11.799009,-2.641676,-32.759998,-10.15,10.36,1729473366736.0,0.0
-3.148954,-11.708081,-3.455236,8.19,-4.55,12.81,1729473366755.0,0.0
-2.261217,-10.114462,-4.103691,63.07,-6.79,16.450001,1729473366775.0,0.0
-1.40698,-9.346365,-3.885944,60.830002,-4.06,17.99,1729473366796.0,0.0
-1.469193,-9.607183,-3.436093,15.54,0.14,16.52,1729473366818.0,0.0
-1.835295,-10.478169,-2.935993,-12.6,-0.35,12.6,1729473366836.0,0.0
-2.474179,-10.533205,-1.962115,-15.4,-4.62,8.54,1729473366855.0,0.0
-2.74696,-10.688738,-1.624727,2.45,-16.73,1.54,1729473366876.0,0.0
-1.904687,-13.330415,-4.460221,54.389999,-31.219999,1.19,1729473366896.0,0.0
-0.337388,-12.512069,-5.163712,202.930008,-20.440001,-3.15,1729473366918.0,0.0
0.200997,-9.968499,-3.584448,271.529999,17.85,-6.65,1729473366935.0,0.0
0.021535,-9.439686,-1.115055,282.23999,39.48,-13.58,1729473366955.0,0.0
0.105284,-10.380065,0.177069,281.540009,40.459999,-23.309999,1729473366975.0,0.0
0.909273,-10.212566,0.574277,316.75,49.139999,-34.720001,1729473366995.0,0.0
1.433301,-8.075776,1.514657,366.450012,73.57,-39.970001,1729473367017.0,0.0
1.184447,-5.312066,2.98385,385.839996,85.82,-46.759998,1729473367036.0,0.0
-0.397209,-1.892723,4.792823,366.450012,88.830002,-51.59,1729473367060.0,0.0
-0.787239,0.535992,5.864808,317.029999,76.370003,-39.619999,1729473367077.0,0.0
0.294317,0.495314,6.068198,251.720001,66.5,-18.83,1729473367095.0,0.0
0.004786,-2.285146,7.860423,207.199997,72.239998,-1.12,1729473367116.0,0.0
-2.309074,-4.728218,9.863215,175.279999,75.739998,-1.26,1729473367135.0,0.0
-3.739982,-0.497707,11.684153,99.610001,71.82,-7.56,1729473367156.0,0.0
-4.101298,-0.351745,11.58844,-17.360001,41.790001,6.79,1729473367175.0,0.0
-5.74756,-3.287738,10.956735,-71.120003,13.58,26.6,1729473367195.0,0.0
-5.316852,-5.103891,9.578469,-56.209999,5.95,31.360001,1729473367220.0,0.0
-3.725625,-8.008778,8.700303,-18.690001,12.46,29.540001,1729473367235.0,0.0
-4.962714,-7.49432,6.666404,-18.27,12.11,9.45,1729473367255.0,0.0
-5.580062,-7.350751,7.601997,-39.970001,19.67,-6.37,1729473367275.0,0.0
-5.151747,-6.924829,7.80778,-73.5,22.049999,-19.530001,1729473367295.0,0.0
-5.075177,-6.008378,7.594819,-130.759995,29.610001,-33.740002,1729473367317.0,0.0
-5.297709,-5.946165,8.855836,-187.880005,25.549999,-45.990002,1729473367335.0,0.0
-4.759324,-4.776074,10.655239,-231.0,0.77,-43.400002,1729473367356.0,0.0
-3.713661,-2.476572,10.928021,-234.850006,-10.15,-30.870001,1729473367376.0,0.0
-3.125026,-0.696311,7.326823,-265.929993,-20.370001,-10.29,1729473367396.0,0.0
-1.782653,-1.335195,-1.380659,-347.690002,-36.889999,0.49,1729473367418.0,0.0
-1.708475,-8.487342,-6.522834,-379.610016,-40.950001,0.7,1729473367436.0,0.0
-2.694318,-12.851851,-8.822337,-345.380005,-22.889999,-7.21,1729473367455.0,0.0
-5.369494,-17.938992,-10.265208,-125.020004,11.97,0.35,1729473367476.0,0.0
-3.952943,-16.74258,-8.336594,149.729996,13.58,5.39,1729473367495.0,0.0
-1.591227,-11.133803,-5.733203,395.079987,50.189999,34.299999,1729473367517.0,0.0
-1.196411,-5.103891,0.519243,604.309998,78.050003,35.139999,1729473367535.0,0.0
-2.318645,4.266403,9.650253,660.590027,82.25,-0.7,1729473367555.0,0.0
-7.992027,3.448057,14.266008,487.76001,100.660004,3.92,1729473367575.0,0.0
-2.423929,-7.659425,7.302894,73.919998,-69.860001,6.58,1729473367596.0,0.0
1.07677,-5.924629,8.683553,59.849998,13.58,7.63,1729473367689.0,0.0
-1.631905,-0.502493,10.904092,52.150002,35.84,-1.4,1729473367689.0,0.0
-4.421937,0.358923,10.923235,-38.220001,20.299999,4.9,1729473367690.0,0.0
-5.190032,-0.918844,11.636297,-82.599998,4.9,23.379999,1729473367690.0,0.0
-4.359723,-3.158526,11.236694,-74.129997,-12.18,22.82,1729473367695.0,0.0
-3.668197,-5.12782,9.195618,-55.299999,-19.530001,24.290001,1729473367719.0,0.0
-4.41715,-6.659225,5.838487,-61.040001,-21.07,21.77,1729473367735.0,0.0
-5.673382,-7.89153,3.572484,-73.5,3.15,11.83,1729473367754.0,0.0
-4.838287,-9.037691,4.955536,-95.970001,21.49,-15.26,1729473367775.0,0.0
-4.783253,-8.288737,7.628319,-125.230003,25.200001,-38.009998,1729473367795.0,0.0
-5.225924,-5.900701,7.623533,-156.520004,27.860001,-43.82,1729473367816.0,0.0
-4.733003,-5.245068,6.262017,-184.029999,21.42,-31.85,1729473367835.0,0.0
-3.85723,-5.570491,5.106283,-211.259995,7.28,-28.35,1729473367855.0,0.0
-2.89053,-6.9009,2.969493,-203.559998,-4.9,-19.67,1729473367875.0,0.0
-2.732604,-11.018949,-1.878366,-154.350006,-12.32,-6.65,1729473367895.0,0.0
-3.081956,-11.289338,-3.976871,-8.26,-23.799999,-1.26,1729473367916.0,0.0
-2.275574,-5.532206,1.4668,353.570007,12.53,20.790001,1729473367934.0,0.0
-3.661019,-1.20359,8.200203,513.450012,40.110001,37.450001,1729473367954.0,0.0
-6.151947,0.026321,11.665009,475.019989,29.469999,43.610001,1729473367975.0,0.0
-5.343173,-1.20359,9.521042,265.230011,8.75,33.880001,1729473367995.0,0.0
-2.215754,-7.295716,8.41795,77.209999,-15.05,12.6,1729473368016.0,0.0
-4.12044,-5.314459,8.260024,-26.950001,11.83,-12.46,1729473368034.0,0.0
-3.091527,-1.696511,9.260223,-36.470001,28.49,-18.48,1729473368054.0,0.0
-3.428915,-1.78026,9.844072,-22.68,21.559999,-7.63,1729473368075.0,0.0
-4.421937,-0.464208,11.581261,-8.26,16.379999,6.79,1729473368095.0,0.0
-4.960321,-1.146162,11.081161,-17.639999,-5.25,25.76,1729473368116.0,0.0
-3.708875,-4.161119,9.595219,-33.740002,-19.879999,31.57,1729473368135.0,0.0
-3.067599,-5.486742,8.145168,-56.420002,-24.43,24.360001,1729473368155.0,0.0
-3.4672,-4.067799,5.644669,-56.700001,-17.92,16.73,1729473368173.0,0.0
-4.37408,-3.515057,4.831109,-49.07,2.1,18.969999,1729473368195.0,0.0
-4.409972,-3.775874,5.809773,-77.209999,18.48,20.790001,1729473368219.0,0.0
-4.886144,-5.623133,6.821937,-119.0,22.540001,11.9,1729473368234.0,0.0
-6.630512,-8.700303,7.76471,-177.660004,2.59,-9.1,1729473368255.0,0.0
-6.958328,-9.107083,8.82473,-205.240005,2.8,-26.880001,1729473368274.0,0.0
-7.341179,-8.501699,10.207782,-225.050003,-4.34,-45.57,1729473368295.0,0.0
-7.06122,-4.685147,12.019149,-242.899994,-14.42,-54.110001,1729473368316.0,0.0
-5.974878,-2.371287,9.219545,-252.279999,-37.170002,-50.889999,1729473368334.0,0.0
-3.23031,-1.864009,2.569891,-304.01001,-83.720001,-50.330002,1729473368354.0,0.0
-0.832702,-6.051448,-2.900101,-335.230011,-102.690002,-31.639999,1729473368382.0,0.0
-0.961915,-10.636096,-9.84168,-300.579987,-67.970001,-16.59,1729473368394.0,0.0
-3.366701,-16.371693,-11.148161,-115.57,-6.58,-30.380001,1729473368419.0,0.0
-3.361916,-16.426727,-9.815358,182.0,0.42,-20.93,1729473368434.0,0.0
-1.392623,-9.186047,-3.17049,510.51001,52.150002,28.35,1729473368454.0,0.0
-1.39023,-0.957129,4.587041,704.619995,93.449997,-5.6,1729473368475.0,0.0
-5.051248,7.826923,11.696117,655.76001,108.849998,-21.210001,1729473368495.0,0.0
-6.573084,5.314459,13.268202,366.170013,52.709999,18.620001,1729473368516.0,0.0
-0.662812,-1.952543,10.29153,104.580002,-32.970001,4.83,1729473368534.0,0.0
-1.933401,-4.027121,10.265208,18.41,-4.34,32.48,1729473368556.0,0.0
-3.658626,-2.210968,11.160125,3.08,9.03,21.98,1729473368575.0,0.0
-2.76371,-2.864209,9.894321,-61.529999,-6.86,21.0,1729473368596.0,0.0
-2.63689,-3.87398,10.176675,-92.120003,-15.54,17.290001,1729473368618.0,0.0
-3.615555,-3.852444,11.521441,-100.309998,-19.530001,14.49,1729473368635.0,0.0
-3.991228,-3.512664,9.74836,-143.360001,-24.219999,13.58,1729473368655.0,0.0
-3.728018,-4.012764,5.319244,-219.940002,-29.120001,2.17,1729473368676.0,0.0
-6.065805,-4.771288,2.909672,-265.860016,-19.110001,-8.89,1729473368698.0,0.0
-6.472585,-9.425328,5.553742,-211.889999,-3.71,-16.1,1729473368719.0,0.0
-5.017749,-7.436893,6.740582,-250.389999,14.49,-36.330002,1729473368737.0,0.0
-5.673382,-5.82413,6.300302,-292.880005,22.049999,-37.73,1729473368756.0,0.0
-5.254639,-4.780859,5.046463,-313.390015,14.98,-25.76,1729473368777.0,0.0
-3.677768,-4.785645,1.232304,-339.850006,4.83,-17.15,1729473368798.0,0.0
-2.053042,-6.953543,-3.651447,-337.610016,-13.58,-15.68,1729473368820.0,0.0
-2.883351,-12.602997,-7.855636,-286.089996,-12.67,-10.15,1729473368836.0,0.0
-4.503292,-16.890934,-10.509278,-93.940002,31.15,-11.27,1729473368857.0,0.0
-4.962714,-18.747765,-8.38445,124.040001,15.61,-17.85,1729473368877.0,0.0
-1.852045,-12.301501,-7.271788,386.610016,-5.39,-1.89,1729473368898.0,0.0
-0.732204,-4.761717,-4.512863,611.309998,49.490002,4.34,1729473368918.0,0.0
-1.519442,1.332802,2.421536,687.960022,74.900002,-5.88,1729473368937.0,0.0
-3.541377,6.719046,12.016755,623.140015,52.080002,5.81,1729473368957.0,0.0
-6.288338,4.622933,14.735002,426.649994,30.940001,15.05,1729473368976.0,0.0
-3.818945,-0.679562,10.777272,179.830002,-15.05,-9.8,1729473368996.0,0.0
-1.600798,-2.244468,9.793823,59.080002,4.34,4.83,1729473369021.0,0.0
-1.521835,-2.105684,8.676375,6.65,18.41,4.76,1729473369038.0,0.0
-4.658825,-4.096512,11.4018,2.87,24.99,15.89,1729473369057.0,0.0
-4.149154,-2.897708,12.136396,3.5,23.73,0.98,1729473369076.0,0.0
-3.723232,-3.601198,12.251251,3.22,14.07,9.8,1729473369101.0,0.0
-2.785245,-4.331009,9.58804,-27.02,-2.59,4.76,1729473369119.0,0.0
-2.756532,-5.180461,7.779066,-71.120003,-11.41,4.76,1729473369137.0,0.0
-4.831109,-6.151947,6.585048,-113.610001,-19.950001,0.91,1729473369157.0,0.0
-6.611369,-8.200203,4.04387,-128.240005,-17.219999,-2.59,1729473369177.0,0.0
-4.084548,-6.862615,6.551548,-121.379997,13.86,-16.59,1729473369198.0,0.0
-4.972286,-4.23051,10.506885,-192.289993,9.17,-34.439999,1729473369224.0,0.0
-5.4676,-1.533799,10.906486,-250.600006,-20.299999,-26.530001,1729473369237.0,0.0
-4.04387,-0.497707,8.525627,-297.360016,-51.450001,-10.71,1729473369256.0,0.0
-2.270789,0.689133,4.457829,-354.480011,-45.360001,-3.15,1729473369278.0,0.0
-3.048456,2.026721,0.832702,-452.619995,-31.92,22.75,1729473369298.0,0.0
-4.508078,-2.383251,-6.139983,-515.409973,-11.83,16.73,1729473369320.0,0.0
-4.345366,-11.643474,-12.564712,-514.710022,6.16,-6.23,1729473369338.0,0.0
-5.47717,-20.602203,-15.94577,-411.950012,28.630001,5.81,1729473369356.0,0.0
-5.056034,-25.78027,-11.550155,-113.889999,33.389999,-10.43,1729473369378.0,0.0
-0.914058,-19.322042,-8.796017,252.0,9.66,18.34,1729473369399.0,0.0
0.921237,-9.872787,-6.173482,559.299988,32.130001,25.83,1729473369419.0,0.0
0.461815,-3.694518,-1.952543,719.809998,70.980003,-9.17,1729473369436.0,0.0
-2.165504,2.108077,4.326223,720.51001,68.669998,-16.52,1729473369458.0,0.0
-4.907679,6.02752,10.478169,652.049988,27.51,19.32,1729473369478.0,0.0
-3.862016,1.292124,12.622139,450.869995,-3.29,10.78,1729473369497.0,0.0
-1.213161,-1.715654,8.738588,66.779999,-52.5,2.1,1729473369519.0,0.0
-2.175076,-5.469993,8.171489,-26.880001,-35.84,16.66,1729473369536.0,0.0
-2.778067,-5.577669,9.530612,-14.63,-24.57,5.18,1729473369556.0,0.0
-4.486543,-2.85703,12.390036,5.95,-4.41,3.29,1729473369579.0,0.0
-5.836094,-0.129212,14.043476,-23.940001,-11.27,2.31,1729473369596.0,0.0
-5.359922,-2.098505,9.128618,-76.860001,-43.889999,9.66,1729473369619.0,0.0
-4.816752,-4.218546,4.881358,-130.830002,-51.170002,3.99,1729473369636.0,0.0
-5.201996,-6.817152,3.491128,-144.410004,-28.139999,-4.76,1729473369656.0,0.0
-4.206582,-8.224132,5.960521,-133.139999,1.61,-12.53,1729473369676.0,0.0
-3.031706,-6.001199,8.133204,-151.899994,11.83,-16.52,1729473369699.0,0.0
-3.352344,-3.842873,9.308081,-178.289993,10.22,-10.5,1729473369717.0,0.0
-2.835495,-1.253839,8.008778,-220.710007,-8.26,-0.35,1729473369736.0,0.0
-3.120241,0.198604,5.532206,-311.640015,-26.530001,22.960001,1729473369758.0,0.0
-3.725625,-2.055435,-1.57687,-421.119995,-29.469999,18.549999,1729473369776.0,0.0
-4.151547,-8.516055,-6.888937,-448.559998,-22.889999,-8.4,1729473369799.0,0.0
-4.261617,-15.828522,-10.293922,-392.48999,-12.88,-21.42,1729473369818.0,0.0
-3.701697,-21.272192,-8.812766,-217.139999,-15.26,-21.0,1729473369837.0,0.0
0.047856,-16.027126,-7.709675,231.699997,-6.09,3.64,1729473369856.0,0.0
0.993021,-9.547362,-5.752346,490.700012,46.130001,22.049999,1729473369877.0,0.0
-0.267996,-3.37388,-0.33021,657.22998,73.709999,7.98,1729473369896.0,0.0
-2.237289,3.416951,9.06162,715.190002,55.09,-5.18,1729473369919.0,0.0
-5.503492,9.190832,15.498313,552.650024,65.590004,-0.28,1729473369937.0,0.0
-5.551349,2.321038,13.493127,175.210007,4.76,-4.34,1729473369956.0,0.0
-1.892723,-3.407379,8.767302,-77.07,-61.110001,-7.63,1729473369976.0,0.0
-1.052842,-7.121039,9.781858,-72.870003,-30.52,14.77,1729473369996.0,0.0
-3.732803,-4.039084,13.045669,-19.25,2.1,5.95,1729473370020.0,0.0
-5.974878,-2.538785,15.940985,-49.07,-8.96,3.43,1729473370037.0,0.0
-5.493921,-2.333002,13.445271,-192.149994,-49.98,-6.23,1729473370056.0,0.0
-5.4676,-2.40718,4.41715,-319.410004,-91.209999,-20.790001,1729473370078.0,0.0
-7.405786,-10.009177,0.837488,-283.640015,-81.760002,-25.690001,1729473370096.0,0.0
-2.158326,-15.304493,4.469792,-172.759995,-64.75,-36.889999,1729473370120.0,0.0
0.571885,-9.159724,5.680561,-144.550003,-11.2,-21.91,1729473370138.0,0.0
-0.277567,-3.189633,4.783253,-45.990002,23.940001,-5.39,1729473370155.0,0.0
-1.787439,2.39043,2.801995,-36.049999,13.65,18.76,1729473370176.0,0.0
-2.718246,-0.849452,0.248854,-234.570007,17.780001,26.460001,1729473370197.0,0.0
-3.735196,-7.003791,-3.35713,-377.929993,23.870001,3.99,1729473370222.0,0.0
-4.500899,-14.976677,-7.200003,-399.279999,33.599998,-2.87,1729473370237.0,0.0
-4.532006,-20.379669,-8.843873,-249.130005,10.15,-7.77,1729473370256.0,0.0
-0.945165,-19.255045,-7.721639,39.060001,-11.97,12.67,1729473370276.0,0.0
1.337588,-11.574083,-5.264209,306.25,29.960001,31.99,1729473370296.0,0.0
0.717847,-5.924629,-1.540978,520.659973,77.07,14.77,1729473370317.0,0.0
-1.45005,-1.098306,4.814359,610.470032,81.900002,3.43,1729473370336.0,0.0
-3.704089,2.301895,10.657632,588.070007,72.379997,5.32,1729473370356.0,0.0
-5.891129,2.95035,15.862022,414.329987,53.27,10.64,1729473370377.0,0.0
-4.84068,-0.409173,14.38565,159.949997,-3.78,6.86,1729473370398.0,0.0
-3.086741,-4.532006,11.210374,-6.79,-40.18,14.21,1729473370425.0,0.0
-3.287738,-7.23111,10.360922,-74.199997,-42.349998,12.32,1729473370437.0,0.0
-2.849852,-6.288338,11.52862,-137.270004,-39.830002,-13.23,1729473370465.0,0.0
-1.792224,-6.142376,13.974084,-197.680008,-40.529999,-27.16,1729473370478.0,0.0
-2.505285,0.689133,9.611969,-292.670013,-51.029999,-38.150002,1729473370498.0,0.0
-7.802995,-3.211168,4.118048,-387.940002,-63.0,-18.200001,1729473370520.0,0.0
-5.395815,-11.473583,0.064606,-315.839996,-71.82,-40.18,1729473370537.0,0.0
0.643669,-12.397215,0.303888,-197.889999,-76.370003,2.24,1729473370556.0,0.0
-0.385244,-7.415358,0.344566,-60.900002,12.95,19.110001,1729473370578.0,0.0
-3.61077,-2.828316,1.210768,-10.36,51.450001,6.23,1729473370598.0,0.0
-4.716253,-2.258825,0.863809,-85.82,43.959999,16.66,1729473370620.0,0.0
-3.462414,-4.26401,-0.693919,-212.380005,13.93,17.639999,1729473370637.0,0.0
-2.811567,-8.193025,-2.548356,-294.48999,12.18,22.75,1729473370657.0,0.0
-3.215954,-12.251251,-5.644669,-291.269989,22.469999,20.02,1729473370679.0,0.0
-3.622734,-17.508284,-8.420342,-189.910004,22.120001,5.39,1729473370700.0,0.0
-2.567499,-20.10689,-6.994221,2.94,-10.64,-4.97,1729473370719.0,0.0
0.382852,-14.031512,-5.79063,263.829987,-17.639999,14.63,1729473370737.0,0.0
0.696311,-6.762117,-3.376273,472.149994,46.200001,6.44,1729473370758.0,0.0
-0.533599,-2.385644,1.471586,540.400024,75.25,3.29,1729473370779.0,0.0
-2.696711,1.634298,9.377472,524.51001,61.529999,16.73,1729473370797.0,0.0
-3.550949,1.189233,11.873186,428.959991,55.23,26.32,1729473370820.0,0.0
-3.833302,-1.897508,11.708081,263.059998,23.030001,18.76,1729473370837.0,0.0
-3.823731,-2.603391,10.980663,146.580002,11.69,29.82,1729473370859.0,0.0
-3.431308,-2.801995,11.4353,81.760002,9.66,35.0,1729473370878.0,0.0
-3.378666,-3.54377,10.954341,18.620001,-1.4,28.280001,1729473370899.0,0.0
-3.146562,-4.795217,10.861022,-30.24,-7.56,25.83,1729473370921.0,0.0
-3.45045,-5.319244,12.284752,-65.309998,-10.64,18.41,1729473370939.0,0.0
-3.359523,-4.912465,10.15514,-119.0,-20.23,10.29,1729473370958.0,0.0
-3.704089,-5.106283,6.999006,-202.160004,-27.51,-2.1,1729473370979.0,0.0
-8.721838,-9.102298,4.541577,-253.119995,-33.110001,-16.1,1729473370998.0,0.0
-5.35753,-15.280564,7.381857,-182.979996,-50.259998,-34.509998,1729473371021.0,0.0
-1.624727,-9.975677,10.963913,-211.680008,-12.6,-24.290001,1729473371038.0,0.0
-2.428715,-2.237289,10.107283,-159.039993,-19.25,-19.879999,1729473371060.0,0.0
-3.20399,0.978664,3.907479,-146.860001,-45.360001,-4.97,1729473371078.0,0.0
-3.768696,-1.667797,-1.457229,-227.779999,-23.870001,1.12,1729473371099.0,0.0
-3.565305,-7.013363,-3.134598,-273.0,-11.97,-12.74,1729473371120.0,0.0
-3.278167,-12.378072,-5.101498,-264.25,7.91,-24.710001,1729473371142.0,0.0
-3.979264,-17.668602,-6.52762,-146.789993,5.81,-27.719999,1729473371160.0,0.0
-1.718047,-16.878971,-6.575477,92.330002,-10.5,-23.17,1729473371177.0,0.0
-0.509671,-8.937192,-4.216154,327.040009,38.009998,3.71,1729473371199.0,0.0
-1.098306,-2.787638,-0.808774,487.549988,82.879997,1.33,1729473371232.0,0.0
-2.175076,0.241675,5.852845,529.340027,73.150002,4.9,1729473371238.0,0.0
-3.452843,1.050449,10.162319,482.860016,61.740002,10.85,1729473371258.0,0.0
-5.010571,-0.952343,13.859229,372.470001,51.52,9.59,1729473371279.0,0.0
-3.328416,-0.323031,13.179667,229.320007,31.639999,10.92,1729473371298.0,0.0
-3.385844,-0.710668,12.000006,85.540001,13.79,28.210001,1729473371321.0,0.0
-3.579663,-4.886144,10.267602,-2.1,-26.6,24.710001,1729473371338.0,0.0
-3.333202,-6.721439,9.183653,47.529999,-24.639999,22.960001,1729473371358.0,0.0
-3.302095,-3.144169,9.889536,108.639999,-0.56,9.94,1729473371380.0,0.0
-2.646462,-1.579263,10.109675,73.709999,-3.15,4.2,1729473371398.0,0.0
-2.443072,-1.651048,8.671589,1.12,-8.82,1.68,1729473371422.0,0.0
-2.825923,-3.134598,8.738588,-4.83,-7.21,6.79,1729473371438.0,0.0
-3.211168,-1.880759,9.908678,19.809999,5.53,8.19,1729473371460.0,0.0
-3.931407,-1.514657,8.60459,-8.96,2.38,10.08,1729473371479.0,0.0
-2.986243,-1.584049,7.810174,-90.510002,2.03,11.2,1729473371498.0,0.0
-3.854837,-2.813959,7.195218,-150.430008,10.57,11.9,1729473371521.0,0.0
-6.111269,-7.41775,8.449057,-205.589996,22.75,6.86,1729473371538.0,0.0
-4.536791,-11.746366,11.042876,-257.529999,-7.56,-28.77,1729473371559.0,0.0
-2.273181,-6.412765,10.652846,-318.920013,-23.66,-41.509998,1729473371578.0,0.0
-2.658426,-1.770689,8.949157,-276.779999,-15.26,1.19,1729473371601.0,0.0
-2.706282,-1.718047,3.208775,-243.180008,-52.220001,5.11,1729473371620.0,0.0
-4.285545,-3.129812,0.20339,-237.300003,-46.48,8.19,1729473371638.0,0.0
-5.338387,-4.496114,-2.067399,-241.779999,-21.35,3.22,1729473371657.0,0.0
-4.910072,-9.272188,-1.249053,-219.660004,-30.799999,-8.61,1729473371678.0,0.0
-4.115655,-11.557333,0.39003,-179.199997,-61.25,-5.25,1729473371699.0,0.0
-2.182254,-10.817951,2.533999,-33.459999,-66.779999,8.05,1729473371719.0,0.0
-1.524228,-8.140383,5.936593,108.010002,-32.48,22.120001,1729473371739.0,0.0
-4.127619,-7.508677,4.438686,87.150002,-21.07,30.940001,1729473371758.0,0.0
-3.854837,-9.140583,3.60359,-29.26,-50.68,13.37,1729473371778.0,0.0
-2.493321,-10.602598,2.134398,-36.400002,-40.459999,16.66,1729473371800.0,0.0
-2.072184,-12.911672,1.287339,1.12,-28.139999,2.94,1729473371821.0,0.0
-1.304088,-15.426528,1.421337,133.490005,-32.830002,-5.11,1729473371838.0,0.0
-0.148355,-10.688738,1.964507,317.170013,20.93,1.68,1729473371858.0,0.0
-1.478764,-4.407579,6.087341,388.640015,56.349998,-10.01,1729473371880.0,0.0
-1.868794,-1.581656,7.89153,291.480011,38.009998,-17.15,1729473371897.0,0.0
-2.017149,-1.921437,6.489335,124.809998,24.43,-19.74,1729473371919.0,0.0
-1.962115,-4.709075,6.757331,24.85,21.629999,-20.719999,1729473371940.0,0.0
-1.880759,-4.436293,7.63789,-19.110001,24.290001,-24.15,1729473371957.0,0.0
-3.35713,-5.903094,8.915657,15.47,22.68,-10.43,1729473371979.0,0.0
-4.316652,-2.610569,12.433105,60.970001,23.379999,-3.92,1729473371998.0,0.0
-6.029913,-2.928815,12.880564,30.17,-0.14,19.6,1729473372022.0,0.0
-4.934,-4.9675,6.417551,-11.06,-47.740002,17.43,1729473372037.0,0.0
-2.622534,-5.383851,7.475177,24.710001,-15.82,38.920002,1729473372057.0,0.0
-3.35713,-4.962714,7.252645,-42.84,-11.06,15.75,1729473372079.0,0.0
-3.079563,-6.34098,5.766702,-120.120003,-14.07,14.56,1729473372100.0,0.0
-2.268396,-6.360123,8.267202,-138.880005,-0.98,15.82,1729473372118.0,0.0
-4.352544,-4.21376,9.224331,-161.419998,-8.61,22.68,1729473372138.0,0.0
-6.826723,-6.34098,5.046463,-192.430008,-25.41,24.85,1729473372158.0,0.0
-4.646862,-9.667004,1.191626,-248.220001,-21.629999,-5.81,1729473372179.0,0.0
-0.102891,-7.980063,1.148555,-295.190002,-16.1,-12.18,1729473372200.0,0.0
-0.174676,-7.02772,5.096712,-296.519989,-2.24,15.12,1729473372225.0,0.0
-3.125026,-8.283953,4.943572,-348.73999,8.33,7.07,1729473372237.0,0.0
-3.438486,-9.126225,-0.557528,-399.980011,-12.88,-21.559999,1729473372257.0,0.0
-2.172683,-9.683753,-4.567898,-330.890015,-25.200001,-4.48,1729473372278.0,0.0
-1.79701,-11.030912,-4.364508,-199.220001,-12.74,5.11,1729473372297.0,0.0
-2.9336,-12.392428,-2.813959,-85.889999,8.75,-0.42,1729473372319.0,0.0
-3.948158,-12.964314,-0.547956,15.96,9.38,1.61,1729473372338.0,0.0
-3.192025,-11.540584,-0.217747,105.980003,-8.68,-2.52,1729473372360.0,0.0
-2.40718,-9.860823,-0.480957,173.880005,-10.92,-4.06,1729473372379.0,0.0
-2.414358,-9.059227,-0.70349,214.339996,-6.79,-4.83,1729473372399.0,0.0
-2.790031,-8.980263,0.368495,250.740005,-1.89,5.67,1729473372419.0,0.0
-2.916851,-8.685946,3.136991,301.630005,-3.01,11.2,1729473372437.0,0.0
-2.976671,-6.831509,3.821337,341.040009,10.08,7.28,1729473372458.0,0.0
-3.491128,-5.17089,4.132405,324.519989,25.690001,7.0,1729473372477.0,0.0
-4.931608,-4.622933,3.201597,285.390015,30.17,13.3,1729473372499.0,0.0
-6.443871,-8.370094,4.395615,224.139999,45.57,9.17,1729473372520.0,0.0
-4.400401,-10.983055,6.486942,106.610001,30.24,-47.599998,1729473372539.0,0.0
-2.474179,-8.764909,8.693125,47.18,35.91,-58.240002,1729473372557.0,0.0
-2.019542,-5.125426,11.016556,61.599998,47.670002,-42.98,1729473372578.0,0.0
-2.70389,-3.201597,10.380065,51.59,8.89,-25.059999,1729473372599.0,0.0
-1.445265,-3.957729,7.192825,55.16,-26.110001,-12.25,1729473372682.0,0.0
-0.461815,-2.086541,5.690133,85.68,-10.43,10.57,1729473372683.0,0.0
-2.725425,0.069392,5.986843,66.080002,12.6,33.880001,1729473372684.0,0.0
-4.943572,-0.746561,6.599405,-46.830002,19.32,48.299999,1729473372684.0,0.0
-5.395815,-1.938186,6.659225,-211.050003,15.47,37.310001,1729473372700.0,0.0
-5.769095,-6.927221,5.618347,-327.600006,-3.85,27.51,1729473372734.0,0.0
-4.122833,-12.624532,6.041877,-358.540009,-28.559999,12.04,1729473372747.0,0.0
-2.445465,-12.58864,6.025128,-343.140015,-18.34,11.13,1729473372757.0,0.0
-4.024727,-10.437491,1.174876,-287.420013,-15.96,-19.74,1729473372777.0,0.0
-3.345166,-10.102496,-3.09392,-231.910004,-14.0,-27.51,1729473372798.0,0.0
-2.667997,-11.562119,-0.629312,-124.599998,-0.21,-17.43,1729473372819.0,0.0
-2.22054,-9.535398,2.210968,-39.830002,13.3,-19.950001,1729473372837.0,0.0
-3.20399,-7.690532,3.866802,8.47,14.21,-11.06,1729473372857.0,0.0
-3.409772,-8.717053,1.545763,44.869999,-9.59,-3.43,1729473372877.0,0.0
-2.072184,-10.686346,0.339781,128.589996,-28.91,1.61,1729473372898.0,0.0
-1.940579,-9.741181,1.217947,229.040009,-13.79,10.85,1729473372918.0,0.0
-3.002992,-6.848258,3.223132,276.220001,10.43,13.23,1729473372937.0,0.0
-3.988836,-5.228317,3.426522,239.190002,18.690001,17.5,1729473372957.0,0.0
-4.249653,-5.233103,4.053442,178.009995,19.809999,14.56,1729473372977.0,0.0
-5.087141,-6.812366,4.419543,129.779999,21.210001,12.6,1729473372998.0,0.0
-5.302495,-8.496914,5.228317,98.419998,19.389999,4.13,1729473373020.0,0.0
-4.800002,-9.377472,6.393622,72.099998,24.5,-6.86,1729473373037.0,0.0
-3.986443,-9.315259,6.948757,35.630001,16.940001,-19.040001,1729473373070.0,0.0
-3.105884,-7.613962,6.530013,30.59,14.42,-16.309999,1729473373077.0,0.0
-2.632105,-7.45125,6.12084,42.139999,4.97,-12.88,1729473373097.0,0.0
-2.189433,-6.161518,6.599405,61.32,3.57,-11.06,1729473373119.0,0.0
-3.103491,-3.007778,6.766902,72.590004,7.91,0.91,1729473373142.0,0.0
-4.400401,-1.904687,6.4343,48.790001,14.84,16.870001,1729473373160.0,0.0
-5.242674,-3.259024,6.666404,-56.209999,8.4,14.35,1729473373204.0,0.0
-4.969893,-6.412765,6.250053,-179.410004,-5.11,5.39,1729473373205.0,0.0
-4.024727,-9.030513,5.852845,-263.480011,-14.42,-5.18,1729473373227.0,0.0
-2.902494,-10.114462,7.195218,-297.570007,-17.99,-9.17,1729473373236.0,0.0
-4.118048,-8.839087,5.185246,-351.890015,-14.91,-24.710001,1729473373266.0,0.0
-4.347759,-9.135797,-0.641276,-370.579987,-26.460001,-42.209999,1729473373276.0,0.0
-3.333202,-10.602598,-2.562713,-322.0,-20.93,-36.82,1729473373297.0,0.0
-1.665405,-11.136196,-2.108077,-221.130005,-14.63,-32.34,1729473373317.0,0.0
-1.926222,-10.447062,-0.66999,-107.449997,7.91,-23.24,1729473373371.0,0.0
-3.347559,-10.442278,0.217747,0.14,18.83,-15.68,1729473373373.0,0.0
-3.723232,-11.358729,0.768096,112.770004,0.14,-8.47,1729473373433.0,0.0
-2.756532,-9.712467,1.505085,229.949997,-11.62,-1.54,1729473373434.0,0.0
-2.773281,-6.805188,3.036492,306.73999,-3.78,6.37,1729473373434.0,0.0
-4.532006,-5.666204,4.512863,310.309998,-6.02,17.57,1729473373443.0,0.0
-4.831109,-8.444271,3.766303,275.380005,-29.33,15.61,1729473373457.0,0.0
-2.931208,-8.109276,3.314059,285.600006,-22.190001,12.95,1729473373478.0,0.0
-2.993421,-5.391029,4.553542,296.380005,20.09,16.73,1729473373497.0,0.0
-4.299902,-4.567898,5.740381,234.360001,29.960001,16.309999,1729473373519.0,0.0
-4.216154,-9.169296,6.056234,121.239998,3.64,-4.41,1729473373537.0,0.0
-1.72044,-9.157332,5.149354,82.25,0.42,-28.210001,1729473373557.0,0.0
-2.22054,-5.974878,6.470192,140.559998,37.450001,-9.1,1729473373578.0,0.0
-3.675375,-2.620141,7.996813,121.870003,48.09,-10.5,1729473373598.0,0.0
-4.228118,-1.165305,7.879565,-0.14,32.689999,-8.33,1729473373619.0,0.0
-3.759124,-1.677369,7.386643,-117.459999,26.460001,-3.01,1729473373637.0,0.0
-3.65384,-3.754339,8.305488,-226.449997,24.360001,-1.96,1729473373658.0,0.0
-3.110669,-5.812167,8.123632,-346.220001,11.06,-10.01,1729473373677.0,0.0
-2.708675,-7.319644,5.819345,-448.48999,-0.14,-17.15,1729473373699.0,0.0
-2.656033,-8.55434,4.776074,-520.659973,-3.85,-23.379999,1729473373718.0,0.0
-2.467,-8.221739,1.201197,-572.950012,-11.97,-38.639999,1729473373737.0,0.0
-2.603391,-8.463413,-4.338188,-535.919983,-22.049999,-42.279999,1729473373756.0,0.0
-3.48395,-15.261423,-9.4349,-410.480011,-7.98,-29.960001,1729473373779.0,0.0
-4.04387,-20.740986,-4.766503,-21.139999,8.82,-24.290001,1729473373797.0,0.0
-3.555735,-14.909678,0.768096,254.520004,13.09,-26.18,1729473373819.0,0.0
-3.326023,-7.302894,2.557927,419.230011,17.01,-20.16,1729473373837.0,0.0
-3.440879,-4.09412,1.744368,481.670013,-8.96,0.07,1729473373857.0,0.0
-3.235096,-4.555934,1.732404,485.450012,-34.23,23.66,1729473373878.0,0.0
-2.502892,-5.757132,3.486342,453.950012,-36.959999,25.690001,1729473373899.0,0.0
-2.359323,-6.032306,5.295317,430.220001,-24.5,22.26,1729473373919.0,0.0
-4.115655,-5.051248,5.9342,392.839996,7.56,29.049999,1729473373937.0,0.0
-4.972286,-3.627519,7.128219,280.839996,25.76,16.379999,1729473373956.0,0.0
-4.034299,-2.325824,7.310073,121.870003,28.77,6.09,1729473373977.0,0.0
-4.307081,-6.156733,5.63749,-36.75,15.82,-4.2,1729473373997.0,0.0
-3.053242,-8.726624,5.615955,-98.980003,8.54,-22.190001,1729473374018.0,0.0
-3.151347,-7.362715,6.67119,-53.970001,35.139999,-13.72,1729473374037.0,0.0
-3.728018,-5.297709,7.068398,-32.970001,44.099998,-10.85,1729473374057.0,0.0
-4.400401,-4.019942,7.219146,-89.809998,41.93,-8.54,1729473374077.0,0.0
-3.881158,-3.859623,7.45125,-192.289993,28.0,-7.14,1729473374098.0,0.0
-3.268596,-4.634897,5.35753,-346.220001,5.39,-10.29,1729473374118.0,0.0
-2.876173,-7.106683,4.362115,-431.830017,-1.54,-17.639999,1729473374136.0,0.0
-2.943172,-8.051848,2.900101,-536.27002,-8.33,-28.07,1729473374159.0,0.0
-2.892922,-8.95155,-0.337388,-583.659973,-19.25,-46.130001,1729473374175.0,0.0
-2.928815,-10.514063,-4.197011,-538.02002,-25.969999,-48.650002,1729473374197.0,0.0
-2.172683,-10.894521,-6.479764,-424.76001,-18.76,-35.91,1729473374226.0,0.0
-1.540978,-11.586047,-7.252645,-275.799988,-9.87,-31.219999,1729473374237.0,0.0
-2.711068,-13.107882,-6.726225,-118.93,17.360001,-23.940001,1729473374257.0,0.0
-3.878766,-13.77548,-3.151347,53.130001,29.4,-17.710001,1729473374277.0,0.0
-3.541377,-12.095718,-1.050449,216.369995,10.08,-9.17,1729473374297.0,0.0
-2.684747,-10.260423,-0.993021,340.130005,-11.76,-5.88,1729473374331.0,0.0
-2.524428,-8.827123,-1.299303,441.420013,-20.93,3.5,1729473374336.0,0.0
-2.976671,-6.936793,-0.90688,536.47998,-21.210001,25.27,1729473374357.0,0.0
-3.658626,-4.855037,2.682354,561.539978,-13.79,43.470001,1729473374378.0,0.0
-4.563113,-5.608776,4.438686,483.839996,-19.879999,35.139999,1729473374397.0,0.0
-4.24726,-7.645068,5.12782,396.269989,-25.9,18.059999,1729473374420.0,0.0
-2.328217,-6.656832,5.879165,300.720001,-4.62,10.5,1729473374437.0,0.0
-3.089134,-7.625926,5.304887,97.370003,19.389999,-13.65,1729473374456.0,0.0
-3.364309,-7.475177,5.034499,6.3,3.64,-29.26,1729473374476.0,0.0
-2.897708,-4.685147,6.125626,13.93,21.77,-18.76,1729473374497.0,0.0
-3.163311,-3.835695,7.008578,45.009998,30.24,-1.68,1729473374520.0,0.0
-3.67059,-3.771089,7.307681,-3.5,28.280001,-4.83,1729473374537.0,0.0
-3.15374,-3.78066,6.431907,-112.209999,24.639999,-3.85,1729473374558.0,0.0
-3.23031,-3.730411,5.60399,-225.470001,19.950001,-3.57,1729473374576.0,0.0
-3.206382,-4.701896,4.893322,-320.459991,18.969999,0.77,1729473374597.0,0.0
-2.976671,-6.778866,4.981857,-406.700012,13.58,-4.34,1729473374619.0,0.0
-3.455236,-9.300901,4.113262,-497.0,5.88,-10.99,1729473374636.0,0.0
-3.605984,-11.593226,1.694118,-533.330017,-9.45,-29.75,1729473374657.0,0.0
-3.426522,-12.602997,-2.495714,-485.100006,-21.139999,-45.220001,1729473374677.0,0.0
-2.445465,-11.765509,-4.618148,-362.459991,-24.5,-39.48,1729473374697.0,0.0
-1.844866,-9.468399,-5.264209,-236.949997,-18.549999,-31.57,1729473374718.0,0.0
-2.727818,-10.810772,-6.338587,-122.57,1.68,-26.32,1729473374736.0,0.0
-3.754339,-14.268401,-4.244867,18.83,21.139999,-19.74,1729473374756.0,0.0
-3.007778,-12.205789,-0.062213,210.559998,7.07,-10.85,1729473374776.0,0.0
-2.201397,-8.061419,0.354138,441.48999,-16.1,0.56,1729473374798.0,0.0
-2.512464,-5.924629,0.478565,515.970032,-22.049999,20.65,1729473374818.0,0.0
-3.237489,-6.364908,2.203789,516.73999,-31.5,33.389999,1729473374837.0,0.0
-3.596412,-6.034698,3.833302,469.350006,-37.450001,27.93,1729473374857.0,0.0
-4.046263,-6.929615,5.338387,411.390015,-16.66,29.190001,1729473374877.0,0.0
-3.945765,-6.345766,5.706882,270.480011,13.93,8.19,1729473374896.0,0.0
-3.335595,-6.73101,4.843073,100.730003,19.32,-16.309999,1729473374921.0,0.0
-3.005385,-6.922436,4.61097,-26.389999,22.4,-32.48,1729473374936.0,0.0
-2.550749,-6.367301,5.426922,-57.82,27.51,-26.74,1729473374956.0,0.0
-2.282753,-5.505885,6.075377,-47.25,38.009998,-14.77,1729473374977.0,0.0
-3.067599,-4.508078,6.78126,-87.220001,48.369999,-13.3,1729473374999.0,0.0
-3.931407,-4.197011,6.960721,-194.529999,41.439999,-10.29,1729473375018.0,0.0
-4.493721,-4.783253,6.580262,-359.100006,29.889999,-16.450001,1729473375036.0,0.0
-4.259224,-5.304887,5.166104,-541.23999,8.54,-31.5,1729473375056.0,0.0
-3.285345,-7.264609,0.385244,-668.080017,-22.75,-47.040001,1729473375076.0,0.0
-1.785046,-10.171888,-5.498707,-664.789978,-45.779999,-56.700001,1729473375097.0,0.0
-0.571885,-10.794022,-7.657032,-538.859985,-39.689999,-39.689999,1729473375119.0,0.0
-1.064806,-10.145569,-10.011569,-253.470001,-13.3,-22.469999,1729473375138.0,0.0
-2.660819,-12.457035,-8.580662,-71.330002,22.82,-8.96,1729473375156.0,0.0
-3.364309,-13.718053,-4.0008,117.110001,36.119999,0.77,1729473375176.0,0.0
-3.180061,-12.117253,-1.18684,284.829987,15.4,10.85,1729473375196.0,0.0
-2.938386,-10.372886,-0.485743,404.880005,-6.51,8.26,1729473375221.0,0.0
-2.940779,-8.635696,-1.813759,496.580017,-24.15,15.54,1729473375237.0,0.0
-3.17049,-7.379465,-0.416351,562.450012,-33.880001,30.309999,1729473375256.0,0.0
-2.854637,-7.250252,2.26361,579.320007,-38.009998,33.599998,1729473375279.0,0.0
-2.634498,-6.211767,4.168297,526.26001,-29.960001,31.01,1729473375297.0,0.0
-3.218346,-7.140182,5.051248,446.600006,-1.54,23.52,1729473375317.0,0.0
-2.845066,-6.577869,5.962914,308.700012,13.16,-3.85,1729473375336.0,0.0
-2.897708,-6.046663,6.259624,177.449997,17.5,-18.200001,1729473375357.0,0.0
-3.115455,-5.194818,6.130411,93.940002,23.17,-22.82,1729473375377.0,0.0
-3.172883,-3.972085,5.321638,45.57,34.439999,-18.059999,1729473375397.0,0.0
-3.842873,-2.48375,5.74756,-3.08,49.349998,-12.74,1729473375417.0,0.0
-4.393222,-1.835295,6.783652,-98.769997,56.349998,-7.42,1729473375438.0,0.0
-4.752146,-5.096712,6.206983,-301.420013,45.360001,-9.17,1729473375457.0,0.0
-3.962514,-5.905487,6.132804,-426.230011,21.629999,-13.3,1729473375477.0,0.0
-3.661019,-4.694718,5.139783,-533.679993,17.780001,-3.01,1729473375498.0,0.0
-3.960121,-5.391029,1.057628,-624.539978,6.23,-14.0,1729473375518.0,0.0
-3.177669,-7.57089,-4.371687,-687.679993,-37.310001,-39.689999,1729473375537.0,0.0
-2.486143,-10.463813,-7.178468,-660.380005,-49.84,-34.860001,1729473375557.0,0.0
-1.904687,-11.22473,-8.891729,-534.030029,-30.66,-36.400002,1729473375576.0,0.0
-1.808974,-10.571491,-9.793823,-371.700012,-15.75,-27.51,1729473375596.0,0.0
-2.201397,-10.042676,-9.60479,-230.440002,3.99,-16.799999,1729473375617.0,0.0
-2.711068,-10.906486,-8.4347,-116.970001,21.629999,-14.63,1729473375637.0,0.0
-3.012564,-11.315658,-7.295716,-18.41,28.77,-14.56,1729473375657.0,0.0
-2.957529,-11.96172,-6.644868,106.190002,24.99,-12.53,1729473375677.0,0.0
-3.050849,-10.736595,-6.116055,251.229996,21.49,-5.95,1729473375696.0,0.0
-3.352344,-9.166903,-4.711468,395.709991,18.83,-1.26,1729473375717.0,0.0
-3.562913,-8.456236,-2.414358,504.140015,9.03,4.27,1729473375737.0,0.0
-3.158526,-7.956135,-1.198804,562.030029,-14.28,8.96,1729473375757.0,0.0
-2.581856,-7.200003,-0.583849,585.409973,-34.650002,18.34,1729473375776.0,0.0
-2.785245,-7.393822,0.531207,590.799988,-28.559999,35.84,1729473375796.0,0.0
-2.421536,-6.453443,3.306881,527.659973,-8.05,25.059999,1729473375819.0,0.0
-2.895315,-5.79781,5.948557,383.040009,18.690001,3.57,1729473375836.0,0.0
-3.907479,-6.455836,6.319445,220.570007,12.11,-13.65,1729473375857.0,0.0
-3.562913,-6.144768,6.144768,118.090004,10.64,-19.879999,1729473375875.0,0.0
-3.239882,-4.350152,6.723832,78.190002,27.719999,-22.120001,1729473375897.0,0.0
-3.948158,-3.168097,7.479963,31.99,29.469999,-15.61,1729473375917.0,0.0
-3.905087,-3.416951,7.786245,-46.619999,24.08,-11.97,1729473375936.0,0.0
-3.696911,-3.799802,7.403394,-163.800003,22.26,-16.030001,1729473375957.0,0.0
-3.495914,-3.917051,6.943972,-290.360016,13.440001,-19.25,1729473375976.0,0.0
-2.957529,-5.257031,5.510671,-394.100006,4.55,-11.76,1729473375997.0,0.0
-3.096312,-6.269196,3.505485,-509.320007,7.21,-19.67,1729473376017.0,0.0
-2.866602,-7.422535,0.270389,-590.590027,2.8,-32.34,1729473376036.0,0.0
-2.208575,-8.506484,-2.620141,-597.169983,-9.1,-34.369999,1729473376057.0,0.0
-1.866402,-9.097511,-4.031906,-546.559998,-17.57,-27.16,1729473376075.0,0.0
-2.213361,-9.470792,-5.625526,-466.410004,-14.49,-24.92,1729473376097.0,0.0
-2.723032,-10.755738,-8.571091,-365.610016,-12.39,-24.43,1729473376118.0,0.0
-2.493321,-12.177074,-8.398808,-153.440002,-2.52,-16.52,1729473376137.0,0.0
-2.677568,-11.595619,-5.938986,-8.75,9.94,-13.58,1729473376155.0,0.0
-3.026921,-9.650253,-3.943372,85.050003,10.85,-12.6,1729473376176.0,0.0
-3.249453,-7.592427,-3.414558,98.699997,3.78,-12.95,1729473376196.0,0.0
-3.15374,-6.125626,-3.23031,12.11,-1.05,-25.549999,1729473376219.0,0.0
-3.347559,-5.864808,-3.354738,-132.789993,-2.87,-32.689999,1729473376243.0,0.0
-2.888137,-6.216553,-5.4341,-239.610001,-8.96,-29.889999,1729473376255.0,0.0
-2.275574,-7.566105,-7.726424,-251.089996,-13.02,-15.47,1729473376278.0,0.0
-1.899901,-7.267002,-8.480164,-199.360001,-3.78,-10.22,1729473376296.0,0.0
-1.947758,-6.740582,-8.405986,-116.129997,4.55,0.49,1729473376317.0,0.0
-2.146362,-6.053841,-7.858029,-63.0,8.96,7.7,1729473376337.0,0.0
-2.706282,-7.216753,-7.018148,-60.130001,9.8,7.84,1729473376356.0,0.0
-2.311467,-7.539784,-6.76451,-47.810001,-0.56,9.31,1729473376378.0,0.0
-2.199004,-8.16431,-8.575876,5.67,-7.0,7.91,1729473376398.0,0.0
-2.206182,-9.174082,-10.872985,132.789993,-9.1,14.7,1729473376422.0,0.0
-2.26361,-10.760524,-11.602797,463.959991,9.1,33.880001,1729473376436.0,0.0
-2.469393,-8.740981,-8.276773,702.799988,31.43,43.049999,1729473376456.0,0.0
-3.400201,-5.441278,-1.299303,878.640015,33.740002,38.43,1729473376477.0,0.0
-3.192025,2.354537,1.978864,847.700012,7.28,50.259998,1729473376498.0,0.0
-4.197011,-3.306881,5.407779,651.559998,-19.809999,69.300003,1729473376518.0,0.0
-4.098906,-8.55434,6.276374,402.5,-41.790001,20.02,1729473376537.0,0.0
-2.172683,-10.827522,4.039084,269.01001,-47.32,7.28,1729473376558.0,0.0
-1.31366,-9.74836,3.684947,205.240005,8.26,-5.18,1729473376578.0,0.0
-2.959922,-6.245267,4.661219,168.910004,35.560001,-21.559999,1729473376599.0,0.0
-4.297509,-2.861816,6.355337,125.510002,48.93,-10.78,1729473376620.0,0.0
-4.161119,-2.177469,7.987241,38.220001,45.360001,-7.84,1729473376636.0,0.0
-3.582055,-4.096512,7.984849,-79.239998,19.530001,-13.58,1729473376656.0,0.0
-3.196811,-5.91745,6.518049,-183.050003,13.440001,-12.18,1729473376676.0,0.0
-4.098906,-6.616155,5.577669,-287.630005,16.24,-13.93,1729473376698.0,0.0
-4.113262,-6.498906,4.938786,-476.559998,17.639999,-22.190001,1729473376727.0,0.0
-3.421736,-6.106483,2.957529,-635.599976,6.09,-37.939999,1729473376737.0,0.0
-1.931008,-2.378466,-1.677369,-802.27002,-25.83,-69.510002,1729473376758.0,0.0
-1.222732,0.933201,-8.4012,-897.330017,-47.950001,-62.860001,1729473376778.0,0.0
-2.309074,-3.476771,-15.304493,-888.580017,-29.889999,-41.09,1729473376803.0,0.0
-0.954736,-9.085547,-18.472591,-731.01001,-7.49,-40.950001,1729473376819.0,0.0
-2.866602,-12.380465,-17.292929,-416.570007,22.610001,9.52,1729473376838.0,0.0
-3.036492,-10.796415,-13.964513,-86.590004,46.549999,14.56,1729473376857.0,0.0
-1.990828,-9.74836,-8.154739,94.919998,52.009998,12.81,1729473376877.0,0.0
-1.440479,-6.994221,-3.651447,153.160004,43.470001,-11.62,1729473376898.0,0.0
-2.498107,-3.163311,-2.385644,123.270004,19.389999,-30.73,1729473376921.0,0.0
-2.849852,-1.730011,-3.885944,33.040001,-8.89,-31.08,1729473376938.0,0.0
-2.924029,-3.440879,-5.268995,-42.139999,-30.309999,-15.4,1729473376961.0,0.0
-3.249453,-5.084748,-6.573084,-36.959999,-42.139999,8.75,1729473376978.0,0.0
-3.254239,-7.951349,-7.178468,-3.43,-47.389999,5.6,1729473376998.0,0.0
-3.136991,-7.039684,-8.997013,20.719999,-51.170002,2.45,1729473377021.0,0.0
-4.113262,-5.869594,-9.559326,39.759998,-44.029999,-1.33,1729473377037.0,0.0
-3.9338,-4.290331,-8.635696,-46.27,-30.030001,-24.99,1729473377058.0,0.0
-3.328416,-4.402793,-7.920243,-80.290001,-29.889999,-27.860001,1729473377077.0,0.0
-3.168097,-4.87418,-8.145168,-64.260002,-29.26,-27.440001,1729473377097.0,0.0
-2.928815,-3.658626,-8.602197,-20.299999,-30.17,-23.379999,1729473377125.0,0.0
-3.105884,-4.448257,-9.635897,0.35,-27.51,-16.24,1729473377138.0,0.0
-2.440679,-4.457829,-9.80818,7.63,-23.1,-13.65,1729473377158.0,0.0
-2.340181,-3.127419,-9.126225,-1.54,-13.72,-10.92,1729473377177.0,0.0
-2.493321,-3.838088,-8.927622,-36.610001,-5.18,-6.09,1729473377198.0,0.0
-2.002793,-5.333601,-9.030513,-43.610001,-2.45,-1.05,1729473377222.0,0.0
-1.962115,-5.656632,-9.224331,-14.77,1.68,1.61,1729473377237.0,0.0
-2.35693,-4.888536,-8.949157,6.23,6.86,1.68,1729473377259.0,0.0
-2.364109,-4.843073,-8.609376,2.24,8.75,2.73,1729473377279.0,0.0
-2.455036,-5.321638,-8.410772,-8.54,9.45,1.54,1729473377297.0,0.0
-2.761317,-5.65424,-8.219346,-7.28,9.94,-0.56,1729473377321.0,0.0
-3.029313,-5.666204,-8.367701,-3.01,8.68,-4.41,1729473377338.0,0.0
-3.084348,-5.493921,-8.300702,-2.03,7.77,-8.26,1729473377358.0,0.0
-3.302095,-5.216353,-8.118847,-4.06,6.72,-10.64,1729473377378.0,0.0
-3.318845,-5.283352,-8.226524,-9.24,4.9,-13.440001,1729473377399.0,0.0
-3.471986,-5.460421,-8.38445,-10.29,4.55,-14.91,1729473377420.0,0.0
-3.512664,-5.534599,-8.683553,-6.72,5.74,-16.59,1729473377439.0,0.0
-3.555735,-5.333601,-8.729016,-0.77,6.93,-17.780001,1729473377459.0,0.0
-3.476771,-4.905287,-8.635696,3.64,10.15,-20.02,1729473377477.0,0.0
-3.35713,-4.783253,-8.700303,4.76,11.62,-19.040001,1729473377500.0,0.0
-3.189633,-5.149354,-8.38445,3.5,14.91,-20.23,1729473377519.0,0.0
-2.835495,-5.584848,-8.578269,8.96,14.77,-20.09,1729473377537.0,0.0
-2.634498,-5.709275,-10.664811,21.139999,15.75,-22.68,1729473377559.0,0.0
-2.409572,-6.015556,-13.404593,65.870003,24.01,-23.799999,1729473377578.0,0.0
-2.500499,-5.740381,-10.518847,134.75,46.41,-16.66,1729473377597.0,0.0
-2.677568,-5.221139,-7.054041,171.5,57.260002,-12.81,1729473377688.0,0.0
-2.385644,-6.130411,-6.707082,185.009995,45.009998,-14.0,1729473377694.0,0.0
-2.275574,-7.79103,-7.88435,223.020004,33.950001,-15.26,1729473377697.0,0.0
-2.086541,-8.669197,-9.24826,320.529999,28.630001,-5.67,1729473377698.0,0.0
-1.660619,-8.547162,-8.726624,475.440002,23.52,3.5,1729473377699.0,0.0
-1.682154,-7.197611,-5.481956,599.130005,42.349998,7.42,1729473377719.0,0.0
-1.344766,-5.9677,-1.789831,545.789978,59.360001,-13.93,1729473377737.0,0.0
-0.70349,-6.178268,1.107877,391.019989,46.48,-20.16,1729473377758.0,0.0
0.421137,-7.345965,1.12702,234.779999,35.209999,-29.82,1729473377777.0,0.0
1.701297,-8.549555,0.01675,141.680008,40.040001,-38.290001,1729473377798.0,0.0
1.007378,-9.389436,0.545564,139.509995,62.16,-27.16,1729473377819.0,0.0
-0.61017,-8.650054,2.182254,202.020004,78.190002,-28.0,1729473377837.0,0.0
-1.012164,-5.749953,3.393023,252.839996,86.239998,-23.59,1729473377857.0,0.0
-0.909273,-4.048656,3.905087,241.430008,89.389999,-17.92,1729473377877.0,0.0
-1.871187,-4.23051,7.551748,189.0,77.769997,-19.110001,1729473377897.0,0.0
-3.493521,-2.428715,13.380664,131.669998,56.139999,9.87,1729473377919.0,0.0
-3.771089,-1.399801,10.325029,16.379999,33.32,12.46,1729473377938.0,0.0
-1.921437,-4.244867,7.530212,-71.260002,-14.35,30.24,1729473377957.0,0.0
-1.454836,-9.080762,4.4339,-65.099998,-38.43,37.380001,1729473377977.0,0.0
-0.569492,-7.542177,4.613362,40.950001,-33.599998,70.559998,1729473377997.0,0.0
-3.797409,-4.12044,7.592427,90.370003,3.36,90.720001,1729473378018.0,0.0
-8.580662,-9.60479,6.52762,-78.68,-26.110001,71.330002,1729473378037.0,0.0
-5.632704,-18.501305,-1.208375,-240.660004,-68.879997,8.96,1729473378057.0,0.0
-0.799203,-20.415564,-3.144169,-98.07,-3.22,-31.219999,1729473378077.0,0.0
-0.973879,-12.459428,0.270389,93.940002,80.779999,-53.130001,1729473378097.0,0.0
-3.474378,-8.238488,3.460021,116.480003,97.860001,-66.709999,1729473378118.0,0.0
-2.892922,-6.774081,5.486742,25.9,66.919998,-69.650002,1729473378136.0,0.0
-0.856631,-8.075776,5.486742,-25.83,44.52,-72.169998,1729473378157.0,0.0
-0.227318,-7.054041,6.943972,-29.190001,34.720001,-68.18,1729473378177.0,0.0
-1.052842,-4.582255,6.831509,-6.79,29.540001,-49.98,1729473378198.0,0.0
-0.662812,-3.486342,7.831708,6.86,6.51,-33.950001,1729473378221.0,0.0
-0.413958,-2.347359,7.185646,19.389999,-12.46,-12.11,1729473378238.0,0.0
-1.337588,-1.9669,7.034898,31.710001,-28.84,22.049999,1729473378257.0,0.0
-1.90708,-4.386044,5.283352,-0.42,-44.450001,38.990002,1729473378283.0,0.0
-0.655633,-5.257031,4.34058,-31.360001,-52.990002,55.02,1729473378298.0,0.0
-2.498107,-5.438886,5.364708,-35.349998,-46.689999,74.690002,1729473378320.0,0.0
-4.632504,-9.315259,4.61097,-24.85,-52.709999,89.040001,1729473378338.0,0.0
-5.302495,-12.485749,3.364309,-41.02,-45.779999,73.5,1729473378359.0,0.0
-6.269196,-15.275781,0.394816,-143.080002,-21.139999,37.66,1729473378378.0,0.0
-3.838088,-18.400805,-3.058028,-116.690002,-15.33,-4.34,1729473378399.0,0.0
-1.78026,-15.431314,-1.179662,22.120001,43.119999,-16.450001,1729473378419.0,0.0
-3.144169,-9.975677,1.725225,102.830002,85.400002,-34.860001,1729473378438.0,0.0
-3.24706,-8.252845,3.639483,53.619999,72.870003,-46.900002,1729473378458.0,0.0
-1.335195,-8.736196,3.759124,-27.93,48.02,-58.59,1729473378477.0,0.0
-0.208176,-9.415757,4.682754,-41.299999,42.700001,-64.68,1729473378498.0,0.0
-0.461815,-7.77428,6.592227,3.64,41.580002,-58.869999,1729473378520.0,0.0
-0.547956,-5.625526,7.022934,52.360001,29.190001,-48.720001,1729473378539.0,0.0
-0.287139,-4.091727,7.360322,73.989998,10.78,-31.360001,1729473378558.0,0.0
-0.672383,-3.136991,7.463214,53.41,-8.82,-16.59,1729473378578.0,0.0
-1.299303,-4.529613,6.865008,18.200001,-30.870001,5.04,1729473378598.0,0.0
-1.162912,-6.24766,5.190032,-3.92,-49.209999,16.52,1729473378621.0,0.0
-1.801795,-6.623333,5.429315,-5.46,-46.41,32.970001,1729473378637.0,0.0
-2.388037,-7.357929,3.823731,-22.120001,-54.459999,38.150002,1729473378659.0,0.0
-2.773281,-6.632904,3.036492,16.940001,-48.93,60.970001,1729473378679.0,0.0
-5.709275,-10.394422,4.603791,-23.17,-18.27,60.41,1729473378698.0,0.0
-6.094519,-12.732209,-0.107677,-125.230003,-33.670002,32.48,1729473378720.0,0.0
-5.699703,-14.988641,1.28016,-142.520004,3.71,31.219999,1729473378738.0,0.0
-2.813959,-15.94577,-2.376073,-136.289993,-3.78,-26.950001,1729473378760.0,0.0
-2.388037,-13.907085,-0.356531,-42.560001,41.09,-15.75,1729473378780.0,0.0
-3.110669,-11.440084,1.485943,10.29,58.799999,-42.98,1729473378800.0,0.0
-2.505285,-10.569098,2.136791,-6.86,44.029999,-51.310001,1729473378821.0,0.0
-0.050249,-9.322437,3.017349,-38.990002,34.23,-60.34,1729473378840.0,0.0
0.815953,-7.846066,3.924229,-56.91,25.9,-61.110001,1729473378860.0,0.0
1.129412,-6.936793,4.639683,-22.960001,16.17,-52.360001,1729473378879.0,0.0
0.777667,-4.938786,6.23091,33.389999,6.44,-32.34,1729473378900.0,0.0
0.07657,-3.321238,6.513263,55.02,-6.65,-12.46,1729473378921.0,0.0
-0.722632,-4.333402,6.606583,41.720001,-29.82,9.87,1729473378940.0,0.0
-1.380659,-6.032306,4.826324,16.73,-45.920002,22.889999,1729473378958.0,0.0
-1.385444,-6.948757,4.051049,19.950001,-55.580002,50.68,1729473378979.0,0.0
-3.199204,-9.303294,3.002992,16.59,-52.220001,55.790001,1729473379003.0,0.0
-4.441079,-10.009177,2.591427,34.16,-48.23,64.470001,1729473379021.0,0.0
-7.118648,-11.866007,2.108077,-17.99,-17.92,52.150002,1729473379038.0,0.0
-6.735795,-12.823137,-1.115055,-125.230003,-23.24,20.370001,1729473379059.0,0.0
-3.617948,-15.414563,-3.136991,-116.690002,1.68,3.57,1729473379079.0,0.0
-2.007578,-14.148761,-2.739782,-44.799999,36.049999,-17.290001,1729473379102.0,0.0
-3.0006,-10.581062,-0.368495,20.790001,68.32,-17.15,1729473379121.0,0.0
-2.469393,-9.482756,0.473779,-2.94,61.389999,-31.219999,1729473379139.0,0.0
-0.217747,-10.217353,1.859223,-50.259998,47.110001,-41.369999,1729473379159.0,0.0
0.746561,-10.116854,4.067799,-46.830002,47.529999,-43.259998,1729473379180.0,0.0
0.945165,-8.595018,6.599405,5.95,37.099998,-41.439999,1729473379199.0,0.0
0.236889,-5.52742,7.271788,62.23,22.75,-30.17,1729473379226.0,0.0
-0.198604,-3.35713,7.530212,76.019997,-0.91,-14.98,1729473379239.0,0.0
-0.727418,-2.988636,6.800402,48.580002,-23.450001,6.72,1729473379258.0,0.0
-1.371087,-6.058627,4.972286,-0.42,-42.07,23.309999,1729473379280.0,0.0
-1.028914,-8.020741,2.500499,-6.3,-57.330002,37.240002,1729473379299.0,0.0
-3.591627,-9.4349,3.54377,119.770004,-43.119999,76.790001,1729473379332.0,0.0
-5.659025,-11.609976,2.462214,131.039993,-37.240002,73.5,1729473379338.0,0.0
-7.252645,-13.24188,3.105884,41.860001,-14.0,56.77,1729473379360.0,0.0
-5.735595,-14.036297,-0.856631,-85.120003,-14.56,11.13,1729473379380.0,0.0
-3.658626,-15.933806,-2.115255,-86.730003,13.72,-9.17,1729473379399.0,0.0
-1.861616,-14.337792,-1.359123,-2.66,43.68,-31.57,1729473379420.0,0.0
-2.316252,-11.320443,0.528814,55.790001,68.32,-35.279999,1729473379439.0,0.0
-1.837688,-9.181261,1.631905,19.809999,70.699997,-52.990002,1729473379459.0,0.0
-0.349352,-10.238889,3.684947,-18.41,59.639999,-65.730003,1729473379479.0,0.0
0.162712,-9.12144,6.795617,13.72,52.639999,-65.800003,1729473379500.0,0.0
-0.337388,-4.725825,8.73141,67.480003,38.5,-53.970001,1729473379531.0,0.0
-0.449851,-2.644069,8.295916,74.269997,12.32,-35.630001,1729473379538.0,0.0
0.148355,-2.462214,7.283752,37.59,-18.34,-23.450001,1729473379560.0,0.0
-0.155533,-3.919443,6.056234,11.34,-31.780001,4.06,1729473379578.0,0.0
-0.995414,-6.235696,4.584648,3.36,-45.080002,23.450001,1729473379600.0,0.0
-1.028914,-6.501299,3.323631,32.900002,-45.57,45.43,1729473379622.0,0.0
-2.768496,-7.728817,2.74696,73.5,-36.540001,65.519997,1729473379639.0,0.0
-5.455636,-8.843873,5.955735,62.299999,-18.620001,84.0,1729473379660.0,0.0
-7.865208,-12.251251,4.465007,-61.389999,-30.799999,51.240002,1729473379680.0,0.0
-7.008578,-16.280766,0.208176,-143.639999,-40.18,19.389999,1729473379699.0,0.0
-3.572484,-14.699109,-2.526821,-112.279999,0.98,-10.36,1729473379719.0,0.0
-3.09392,-11.976077,-1.095913,-12.81,40.459999,-16.799999,1729473379738.0,0.0
-3.869194,-10.743774,0.442672,45.080002,57.889999,-28.91,1729473379760.0,0.0
-2.926422,-9.676575,1.270589,26.460001,62.369999,-39.130001,1729473379778.0,0.0
-1.26341,-9.300901,3.78066,-27.790001,60.970001,-51.66,1729473379799.0,0.0
-0.189033,-9.310472,4.644469,-67.269997,53.900002,-59.920002,1729473379820.0,0.0
1.019342,-8.327023,6.771688,-33.529999,39.549999,-53.760002,1729473379839.0,0.0
0.942772,-5.558527,7.188039,33.040001,29.120001,-42.279999,1729473379858.0,0.0
0.684347,-3.101098,7.676175,69.860001,5.74,-25.200001,1729473379880.0,0.0
0.002393,-1.497907,8.16431,72.309998,-15.33,1.05,1729473379899.0,0.0
-1.095913,-2.979064,7.429714,32.619999,-37.939999,25.48,1729473379920.0,0.0
-0.89013,-6.089733,4.876573,-19.74,-59.010002,36.889999,1729473379939.0,0.0
-0.334995,-7.652246,3.412165,-1.82,-60.970001,57.189999,1729473379959.0,0.0
-3.675375,-8.145168,4.565506,64.050003,-41.369999,82.459999,1729473379978.0,0.0
-7.57089,-12.535997,5.288138,39.060001,-34.439999,80.360001,1729473379998.0,0.0
-8.305488,-13.816156,3.783052,-56.700001,-34.93,51.66,1729473380022.0,0.0
-7.032506,-17.501104,-0.588634,-128.729996,-23.24,4.69,1729473380038.0,0.0
-3.036492,-16.58226,-2.414358,-118.580002,0.28,-39.830002,1729473380059.0,0.0
-2.400001,-11.837293,-0.143569,4.62,50.119999,-38.5,1729473380078.0,0.0
-2.981457,-9.202796,0.595813,49.490002,58.240002,-50.259998,1729473380099.0,0.0
-1.892723,-8.525627,1.672583,8.19,47.670002,-49.209999,1729473380121.0,0.0
-0.760918,-9.01137,2.134398,-50.540001,43.889999,-54.32,1729473380140.0,0.0
0.413958,-9.24108,5.230711,-72.730003,39.970001,-58.52,1729473380158.0,0.0
1.033699,-6.903293,7.951349,-17.57,31.43,-46.970001,1729473380177.0,0.0
0.624527,-4.398008,8.327023,39.619999,14.28,-34.509998,1729473380199.0,0.0
0.636491,-3.354738,7.592427,51.52,-13.3,-18.27,1729473380225.0,0.0
0.332602,-3.232704,6.649654,35.0,-31.219999,2.17,1729473380237.0,0.0
-0.880559,-5.644669,5.740381,-1.12,-41.580002,20.719999,1729473380258.0,0.0
-0.976272,-7.49432,3.323631,-24.85,-52.150002,25.83,1729473380278.0,0.0
-1.354338,-7.862815,2.916851,29.190001,-44.240002,44.52,1729473380298.0,0.0
-3.177669,-7.357929,3.5007,97.790001,-25.27,62.860001,1729473380327.0,0.0
-5.958128,-10.174281,4.704289,91.209999,-15.4,77.139999,1729473380339.0,0.0
-7.77428,-12.337393,5.276174,12.81,-22.33,52.5,1729473380359.0,0.0
-7.80778,-14.835501,2.041078,-71.75,-28.91,24.08,1729473380380.0,0.0
-4.666004,-14.916857,-1.014557,-71.540001,-10.71,-7.35,1729473380399.0,0.0
-3.326023,-12.693924,-1.045663,17.92,30.1,-27.440001,1729473380422.0,0.0
-4.457829,-9.734003,0.363709,68.879997,64.82,-35.91,1729473380439.0,0.0
-3.60359,-9.513863,1.581656,36.189999,69.510002,-46.34,1729473380458.0,0.0
-1.323231,-10.430314,3.962514,-22.26,65.660004,-58.380001,1729473380478.0,0.0
-0.057428,-8.331808,7.542177,-49.560001,62.299999,-65.309998,1729473380500.0,0.0
0.241675,-6.716653,7.982457,-33.599998,41.650002,-56.420002,1729473380522.0,0.0
0.914058,-6.108876,7.176075,1.61,15.33,-49.07,1729473380540.0,0.0
0.655633,-4.350152,7.008578,33.040001,6.02,-33.950001,1729473380559.0,0.0
-0.119641,-3.28056,6.929615,29.889999,-5.46,-15.47,1729473380580.0,0.0
-0.617348,-4.816752,6.439085,5.39,-21.280001,1.82,1729473380600.0,0.0
-0.454636,-6.994221,4.721039,8.12,-35.700001,23.52,1729473380622.0,0.0
-1.414158,-6.233303,4.323831,27.58,-30.73,41.580002,1729473380640.0,0.0
-2.316252,-6.71426,4.180261,34.16,-30.380001,55.369999,1729473380659.0,0.0
-3.503092,-8.047063,3.45045,48.580002,-31.15,69.300003,1729473380680.0,0.0
-5.592027,-10.061819,4.68754,58.59,-21.35,81.900002,1729473380701.0,0.0
-7.599605,-12.026326,4.740182,-4.97,-22.120001,58.240002,1729473380721.0,0.0
-7.460821,-15.696917,1.270589,-80.010002,-31.43,22.33,1729473380740.0,0.0
-3.452843,-15.158531,-1.294517,-53.549999,-2.66,-10.99,1729473380760.0,0.0
-2.751746,-11.487941,-0.160319,45.150002,51.029999,-20.719999,1729473380780.0,0.0
-3.792624,-9.889536,1.509871,68.110001,67.059998,-35.349998,1729473380801.0,0.0
-2.938386,-10.365707,3.294917,9.1,61.810001,-48.23,1729473380821.0,0.0
-0.380459,-10.468598,4.778467,-41.369999,54.670002,-67.199997,1729473380841.0,0.0
0.581456,-8.908479,7.513463,-34.369999,52.150002,-69.720001,1729473380860.0,0.0
0.160319,-5.785845,8.398808,-0.28,33.110001,-61.880001,1729473380880.0,0.0
0.208176,-4.151547,7.209574,22.26,6.58,-49.209999,1729473380901.0,0.0
0.418744,-4.981857,6.393622,-5.95,-21.77,-34.369999,1729473380923.0,0.0
0.272782,-6.240481,5.632704,-31.08,-32.27,-23.59,1729473380940.0,0.0
0.086142,-7.209574,4.443472,-27.93,-36.68,-13.51,1729473380960.0,0.0
-0.497707,-7.082755,3.850052,0.7,-31.01,1.26,1729473380980.0,0.0
-1.399801,-5.905487,3.658626,22.82,-20.719999,16.52,1729473381000.0,0.0
-2.536392,-6.108876,3.955336,27.51,-14.63,32.900002,1729473381021.0,0.0
-3.098706,-7.269395,3.893122,44.380001,-12.25,46.34,1729473381045.0,0.0
-3.04367,-7.546963,3.529413,90.019997,-3.64,61.529999,1729473381062.0,0.0
-3.457629,-5.692525,3.756732,145.180008,11.76,82.25,1729473381081.0,0.0
-4.448257,-4.512863,5.510671,154.630005,31.15,100.730003,1729473381100.0,0.0
-7.597212,-8.987441,5.9677,53.619999,21.629999,87.779999,1729473381122.0,0.0
-5.965307,-13.380664,3.06042,-12.95,-7.14,65.379997,1729473381140.0,0.0
-4.881358,-8.977871,4.268795,29.469999,38.080002,63.98,1729473381160.0,0.0
-5.831308,-8.403593,5.54417,51.73,47.740002,40.880001,1729473381180.0,0.0
-4.677969,-10.549955,4.61097,17.08,30.870001,16.66,1729473381200.0,0.0
-3.438486,-8.516055,5.513064,-11.9,45.080002,3.22,1729473381227.0,0.0
-3.249453,-6.52762,6.429514,-147.559998,35.98,-17.639999,1729473381240.0,0.0
-2.59382,-7.755138,5.32403,-242.970001,11.69,-17.92,1729473381260.0,0.0
-1.639083,-8.977871,4.110869,-271.040009,0.21,-16.1,1729473381281.0,0.0
-1.493121,-9.176475,4.182654,-270.549988,-1.4,-13.51,1729473381300.0,0.0
-2.129612,-7.814958,3.964907,-302.679993,-5.74,-17.92,1729473381321.0,0.0
-2.567499,-7.269395,2.914458,-370.230011,-18.34,-27.93,1729473381340.0,0.0
-2.617748,-7.872386,0.988236,-460.040009,-40.670002,-47.740002,1729473381360.0,0.0
-2.524428,-8.451449,-1.548156,-526.75,-57.119999,-61.389999,1729473381381.0,0.0
-2.261217,-8.269595,-3.505485,-545.159973,-64.330002,-73.080002,1729473381400.0,0.0
-1.935793,-7.195218,-5.635098,-519.539978,-62.439999,-80.779999,1729473381421.0,0.0
-1.806581,-6.455836,-7.441679,-461.580017,-54.740002,-76.510002,1729473381440.0,0.0
-2.282753,-6.577869,-9.260223,-369.390015,-41.02,-64.68,1729473381462.0,0.0
-2.749353,-6.360123,-10.432706,-263.690002,-32.830002,-49.630001,1729473381481.0,0.0
-2.957529,-6.568298,-11.023734,-173.25,-21.139999,-35.349998,1729473381500.0,0.0
-2.9336,-6.860222,-10.633704,-106.190002,-8.19,-25.690001,1729473381524.0,0.0
-2.912065,-6.599405,-9.769895,-53.830002,1.47,-20.299999,1729473381540.0,0.0
-2.845066,-5.704489,-8.173882,-22.540001,4.9,-17.5,1729473381560.0,0.0
-3.806981,-4.76411,-6.175875,-46.619999,4.76,-20.719999,1729473381580.0,0.0
-3.74716,-6.453443,-7.424929,-75.389999,-7.35,-24.360001,1729473381600.0,0.0
-2.914458,-6.084948,-7.958528,-65.029999,-14.35,-27.719999,1729473381621.0,0.0
-2.761317,-4.778467,-8.054241,-46.27,-14.98,-28.98,1729473381640.0,0.0
-2.663212,-4.814359,-8.652447,-39.830002,-15.190001,-26.6,1729473381660.0,0.0
-2.452643,-4.761717,-8.714661,-34.02,-12.95,-27.299999,1729473381680.0,0.0
-2.617748,-3.488736,-9.229117,-18.27,-12.11,-24.219999,1729473381701.0,0.0
-2.160719,-1.938186,-9.74836,16.66,-8.96,-9.87,1729473381724.0,0.0
-1.237089,-0.677169,-9.882358,40.040001,-3.85,5.04,1729473381741.0,0.0
-0.705883,-0.210568,-9.487542,35.77,2.17,20.93,1729473381761.0,0.0
-0.98345,-1.596013,-9.288938,8.75,8.12,29.75,1729473381780.0,0.0
-1.038485,-3.311667,-9.592826,-9.24,11.62,31.01,1729473381800.0,0.0
-0.681954,-5.716454,-9.927821,-2.38,10.92,28.559999,1729473381821.0,0.0
-1.421337,-6.58744,-9.968499,15.33,18.34,18.34,1729473381839.0,0.0
-1.741975,-7.745567,-7.539784,32.549999,17.85,6.02,1729473381861.0,0.0
-2.895315,-8.721838,-7.077969,21.91,13.86,-18.27,1729473381880.0,0.0
-3.428915,-5.931807,-7.487142,7.0,6.93,-36.049999,1729473381900.0,0.0
-3.270989,-6.640083,-8.008778,-49.209999,1.05,-52.080002,1729473381921.0,0.0
-3.720839,-6.625726,-8.209774,-57.610001,-2.59,-57.119999,1729473381940.0,0.0
-4.101298,-4.893322,-8.688338,-30.309999,-4.55,-59.639999,1729473381960.0,0.0
-3.885944,-2.139183,-10.068997,15.12,-5.74,-40.529999,1729473381979.0,0.0
-3.017349,0.514457,-10.463813,36.189999,0.63,-15.190001,1729473382000.0,0.0
-2.024328,0.256032,-9.784252,29.4,10.43,14.28,1729473382031.0,0.0
-0.772882,-0.55992,-8.860621,33.599998,15.54,40.040001,1729473382039.0,0.0
-0.571885,-1.634298,-8.614161,39.759998,17.710001,52.849998,1729473382059.0,0.0
-0.533599,-2.203789,-8.044669,16.17,18.34,53.27,1729473382080.0,0.0
-0.471386,-4.809574,-7.956135,-9.31,12.39,48.09,1729473382101.0,0.0
-0.641276,-6.546762,-9.001799,-16.940001,9.8,30.870001,1729473382122.0,0.0
-1.031307,-7.853244,-7.496714,-5.53,10.01,16.66,1729473382140.0,0.0
-1.619941,-8.796017,-9.174082,-7.14,6.51,-7.98,1729473382160.0,0.0
-2.273181,-6.436693,-8.652447,3.01,6.44,-22.049999,1729473382179.0,0.0
-2.943172,-6.163911,-8.003991,-24.290001,5.53,-32.900002,1729473382200.0,0.0
-3.644269,-6.118448,-6.687939,-52.080002,0.42,-36.540001,1729473382223.0,0.0
-5.257031,-7.039684,-8.25763,-61.880001,-6.23,-46.130001,1729473382240.0,0.0
-3.708875,-5.474778,-9.767502,-25.690001,-19.950001,-46.970001,1729473382260.0,0.0
-3.158526,-4.208975,-10.059426,-2.17,-14.21,-42.0,1729473382279.0,0.0
-2.562713,-3.129812,-10.585848,26.809999,-8.12,-25.9,1729473382300.0,0.0
-1.040878,-0.088534,-9.506684,69.790001,-1.89,-2.03,1729473382332.0,0.0
-0.102891,1.651048,-8.894121,67.410004,4.83,22.049999,1729473382340.0,0.0
0.284746,0.215354,-8.341379,31.57,6.93,37.799999,1729473382366.0,0.0
0.401994,-2.105684,-8.267202,-2.8,5.81,44.029999,1729473382380.0,0.0
-0.062213,-4.510471,-8.35813,-11.83,3.57,42.77,1729473382400.0,0.0
-1.167697,-6.321837,-10.078569,-20.09,5.32,28.210001,1729473382422.0,0.0
-1.184447,-6.144768,-12.361321,-18.690001,12.46,14.42,1729473382440.0,0.0
-1.59362,-6.393622,-9.394222,-1.54,26.25,6.02,1729473382460.0,0.0
-2.519642,-7.767102,-8.480164,-5.53,28.0,-7.42,1729473382480.0,0.0
-3.424129,-6.211767,-6.977471,-3.01,23.17,-15.12,1729473382501.0,0.0
-4.345366,-6.695118,-6.178268,-23.799999,14.35,-22.82,1729473382521.0,0.0
-4.692325,-7.15454,-8.173882,-46.060001,4.34,-32.130001,1729473382540.0,0.0
-3.469593,-5.62074,-8.470592,-14.77,-11.2,-33.32,1729473382560.0,0.0
-3.062813,-5.173282,-8.690732,3.15,-10.78,-30.309999,1729473382581.0,0.0
-1.832902,-3.979264,-8.80798,16.17,-11.27,-26.040001,1729473382601.0,0.0
-0.658026,-2.218147,-9.300901,51.240002,-10.64,-10.29,1729473382684.0,0.0
0.473779,0.40678,-8.659625,77.07,-9.52,5.04,1729473382701.0,0.0
0.535992,2.065006,-8.322237,46.970001,-7.42,20.23,1729473382701.0,0.0
0.29671,-1.421337,-9.145369,-10.5,-6.65,29.540001,1729473382702.0,0.0
-0.12682,-3.684947,-9.602397,-26.530001,-3.71,34.509998,1729473382702.0,0.0
-1.409373,-5.795416,-10.329816,-28.07,3.22,28.630001,1729473382751.0,0.0
-1.765903,-6.281159,-11.586047,-18.41,8.89,17.290001,1729473382752.0,0.0
-1.37348,-4.761717,-11.07159,10.22,17.5,13.72,1729473382760.0,0.0
-2.825923,-6.474977,-7.896315,8.54,24.92,10.43,1729473382780.0,0.0
-2.828316,-7.362715,-7.704889,-4.13,17.99,-2.52,1729473382801.0,0.0
-3.249453,-5.886343,-7.190433,1.05,12.11,-6.44,1729473382822.0,0.0
-3.505485,-6.994221,-7.453642,-15.190001,7.0,-12.6,1729473382841.0,0.0
-3.735196,-5.692525,-7.243074,-9.38,-2.94,-19.18,1729473382862.0,0.0
-3.893122,-5.781059,-8.030313,-18.969999,-7.49,-23.379999,1729473382882.0,0.0
-2.443072,-4.622933,-8.910872,-6.58,-14.35,-24.15,1729473382903.0,0.0
-2.151148,-3.220739,-9.209974,33.670002,-12.46,-12.11,1729473382924.0,0.0
-1.112662,-0.794417,-9.01137,65.379997,-9.73,3.29,1729473382942.0,0.0
0.081356,0.538385,-9.085547,49.279999,-8.47,17.01,1729473382962.0,0.0
0.208176,-1.071985,-9.059227,6.3,-5.25,26.460001,1729473382982.0,0.0
-0.22014,-3.084348,-9.123833,-17.01,-2.8,29.4,1729473383002.0,0.0
-0.418744,-4.869394,-9.600004,-15.89,-1.82,25.969999,1729473383024.0,0.0
-1.172483,-5.833702,-10.224532,-10.71,3.22,16.940001,1729473383042.0,0.0
-1.57687,-6.053841,-10.9017,-8.75,11.76,5.39,1729473383061.0,0.0
-1.978864,-6.62094,-9.154939,0.98,19.809999,0.77,1729473383087.0,0.0
-2.924029,-7.908278,-7.925028,-5.11,20.58,-12.67,1729473383101.0,0.0
-2.904887,-6.525227,-7.513463,2.94,13.02,-20.719999,1729473383123.0,0.0
-3.89073,-6.221339,-6.795617,1.05,9.38,-24.43,1729473383141.0,0.0
-3.761517,-6.702296,-7.460821,-22.75,1.19,-32.060001,1729473383162.0,0.0
-3.261417,-4.977071,-8.798409,-10.08,-10.57,-36.259998,1729473383181.0,0.0
-2.438286,-3.914658,-9.044869,6.86,-11.9,-27.58,1729473383203.0,0.0
-1.663012,-2.825923,-8.915657,39.830002,-9.03,-12.53,1729473383227.0,0.0
-0.859023,-0.734596,-8.55434,55.02,-5.74,6.65,1729473383241.0,0.0
-0.346959,-0.923629,-8.55434,35.98,-4.76,22.4,1729473383261.0,0.0
-0.045464,-1.792224,-8.575876,9.73,-4.55,28.49,1729473383282.0,0.0
-0.081356,-3.017349,-8.877372,2.94,-5.25,33.040001,1729473383302.0,0.0
-1.081556,-4.414758,-9.652647,-12.81,0.28,28.91,1729473383326.0,0.0
-1.402194,-6.046663,-10.262815,-27.93,5.67,18.549999,1729473383367.0,0.0
-1.395016,-6.886543,-10.537991,-17.360001,10.99,8.12,1729473383372.0,0.0
-1.418944,-6.171089,-10.205389,-0.28,18.969999,1.26,1729473383437.0,0.0
-2.380858,-6.757331,-7.389036,8.54,24.15,0.56,1729473383438.0,0.0
-3.105884,-7.401,-6.410372,-10.99,18.620001,-11.76,1729473383438.0,0.0
-4.04387,-7.62114,-6.218946,-21.35,8.26,-17.85,1729473383444.0,0.0
-4.366901,-7.410572,-6.709475,-26.530001,-3.92,-26.040001,1729473383460.0,0.0
-4.283153,-6.972685,-8.470592,-16.24,-11.97,-30.66,1729473383482.0,0.0
-2.579463,-5.113462,-8.762517,3.43,-17.5,-26.110001,1729473383501.0,0.0
-2.029114,-3.754339,-8.719445,60.200001,-14.77,-15.47,1729473383522.0,0.0
-1.416551,-1.607977,-8.733803,89.599998,-14.07,0.7,1729473383540.0,0.0
-0.842274,-0.937986,-8.420342,79.940002,-12.74,15.4,1729473383561.0,0.0
-0.51685,-1.129412,-8.370094,38.990002,-10.22,21.07,1729473383582.0,0.0
-0.251246,-2.718246,-8.398808,10.64,-11.69,26.460001,1729473383601.0,0.0
-0.722632,-3.919443,-8.439486,-3.57,-9.8,25.690001,1729473383625.0,0.0
-1.619941,-4.677969,-9.35833,-18.41,-7.49,20.860001,1729473383641.0,0.0
-2.134398,-6.317052,-8.913264,-23.799999,-3.01,16.799999,1729473383661.0,0.0
-2.500499,-7.814958,-9.375079,-24.360001,-1.89,4.13,1729473383681.0,0.0
-2.28036,-6.446264,-9.60479,-13.65,3.22,-0.07,1729473383701.0,0.0
-3.038885,-7.372287,-6.939186,-9.45,8.12,0.21,1729473383723.0,0.0
-3.833302,-8.066205,-6.262017,-26.460001,3.29,-11.06,1729473383741.0,0.0
-3.675375,-6.833901,-7.085148,-25.9,-6.79,-20.02,1729473383762.0,0.0
-3.783052,-6.472585,-8.377272,-30.59,-10.43,-21.35,1729473383781.0,0.0
-2.902494,-6.460621,-9.221939,-27.16,-10.85,-22.68,1729473383802.0,0.0
-2.043471,-5.087141,-9.111869,-4.06,-7.35,-19.879999,1729473383823.0,0.0
-1.679761,-3.404987,-9.080762,26.809999,0.49,-8.61,1729473383841.0,0.0
-0.90688,-1.658226,-8.542377,42.91,3.01,0.63,1729473383862.0,0.0
-0.765703,-1.038485,-8.054241,35.07,4.41,11.9,1729473383882.0,0.0
-0.732204,-1.806581,-8.472985,-5.39,5.25,13.16,1729473383901.0,0.0
-0.823131,-3.493521,-9.195618,-43.119999,5.95,10.71,1729473383923.0,0.0
-1.146162,-5.570491,-10.406385,-56.630001,10.99,4.34,1729473383941.0,0.0
-1.210768,-6.618547,-10.805987,-39.549999,17.08,-4.69,1729473383961.0,0.0
-1.261017,-5.501099,-10.722239,-10.78,24.99,-9.17,1729473383981.0,0.0
-2.24686,-5.292924,-8.233703,-0.42,33.529999,-6.72,1729473384002.0,0.0
-4.165904,-6.38405,-6.463014,-34.09,33.810001,-12.39,1729473384023.0,0.0
-4.225725,-7.073184,-7.101898,-66.779999,21.280001,-21.42,1729473384041.0,0.0
-3.615555,-6.812366,-8.764909,-54.670002,12.81,-23.870001,1729473384061.0,0.0
-3.359523,-6.046663,-9.24108,-27.65,11.2,-19.67,1729473384081.0,0.0
-2.586641,-4.651647,-9.018548,2.1,11.13,-12.18,1729473384102.0,0.0
-1.816152,-3.644269,-8.085347,15.75,9.94,-4.13,1729473384123.0,0.0
-1.31366,-3.675375,-7.580462,25.27,5.67,4.48,1729473384141.0,0.0
-0.514457,-1.974079,-7.192825,24.85,3.01,4.2,1729473384161.0,0.0
0.117248,-2.163112,-8.453842,12.32,-9.66,7.56,1729473384181.0,0.0
-0.823131,-3.184847,-9.836893,3.01,-4.76,8.47,1729473384208.0,0.0
-1.464408,-5.402994,-11.464014,0.07,0.7,2.66,1729473384242.0,0.0
-1.902294,-7.130611,-11.57169,18.83,12.88,-8.12,1729473384243.0,0.0
-2.160719,-8.078169,-11.119448,76.440002,20.16,-13.72,1729473384261.0,0.0
-2.62732,-8.202596,-8.944371,138.039993,28.98,-15.96,1729473384280.0,0.0
-3.326023,-8.372486,-7.67139,202.160004,30.73,-9.73,1729473384301.0,0.0
-3.273381,-9.195618,-9.480364,297.640015,16.52,1.96,1729473384323.0,0.0
-2.615355,-8.657232,-10.430314,415.730011,10.71,4.76,1729473384341.0,0.0
-1.689333,-8.815158,-11.236694,546.700012,11.55,10.57,1729473384361.0,0.0
-1.249053,-8.176274,-10.396815,610.190002,36.959999,11.27,1729473384381.0,0.0
-0.995414,-7.384251,-6.020342,567.909973,73.010002,-1.54,1729473384401.0,0.0
-0.136391,-7.202396,-2.713461,463.540009,72.800003,-14.63,1729473384423.0,0.0
1.103091,-7.630712,-0.129212,342.649994,63.490002,-29.540001,1729473384442.0,0.0
1.574477,-9.205189,0.988236,253.889999,69.370003,-44.380001,1729473384461.0,0.0
0.76331,-9.894321,2.208575,199.220001,69.510002,-56.91,1729473384482.0,0.0
1.074377,-8.118847,2.385644,189.490005,64.610001,-69.790001,1729473384501.0,0.0
-0.224925,-6.573084,3.053242,160.020004,75.25,-70.769997,1729473384523.0,0.0
-1.540978,-6.735795,4.127619,152.600006,53.34,-58.52,1729473384542.0,0.0
-0.287139,-6.563512,5.235496,206.990005,39.830002,-49.91,1729473384560.0,0.0
-0.5001,-1.976472,10.176675,235.970001,44.869999,-28.98,1729473384581.0,0.0
-0.98345,0.830309,14.050655,164.919998,17.85,-10.64,1729473384602.0,0.0
-0.870987,-0.878166,11.837293,11.27,-16.309999,13.79,1729473384624.0,0.0
0.416351,-3.862016,8.772088,-75.18,-46.48,24.92,1729473384640.0,0.0
1.091127,-4.95075,5.666204,-72.660004,-53.830002,42.279999,1729473384661.0,0.0
1.751546,-6.250053,3.54377,-37.66,-40.110001,49.84,1729473384680.0,0.0
1.847259,-6.460621,3.431308,0.28,-15.61,53.970001,1729473384702.0,0.0
1.430908,-6.204589,4.177868,28.35,7.21,61.25,1729473384722.0,0.0
-0.222532,-7.23111,5.831308,40.25,20.790001,60.27,1729473384740.0,0.0
-1.816152,-5.860023,7.121039,62.580002,30.24,71.889999,1729473384761.0,0.0
-4.73061,-6.355337,5.525027,6.65,39.41,81.410004,1729473384781.0,0.0
-8.276773,-12.748959,4.910072,-65.730003,37.52,52.220001,1729473384801.0,0.0
-9.186047,-15.24228,2.574677,-89.529999,24.780001,32.060001,1729473384823.0,0.0
-9.573684,-15.809379,4.491328,-39.900002,17.43,-4.97,1729473384840.0,0.0
-7.372287,-10.942378,6.209375,73.919998,6.02,-47.599998,1729473384860.0,0.0
-7.039684,-8.059027,7.542177,89.040001,-5.18,-66.43,1729473384881.0,0.0
-5.271388,-6.216553,5.845665,7.7,-21.139999,-74.410004,1729473384901.0,0.0
-2.885744,-8.707481,4.685147,-53.689999,-33.459999,-82.529999,1729473384924.0,0.0
0.184247,-8.865408,3.316452,-46.41,-26.950001,-85.330002,1729473384941.0,0.0
2.782853,-6.159126,3.06042,27.58,-11.48,-64.959999,1729473384961.0,0.0
3.845266,-2.816352,4.23051,75.949997,16.450001,-52.150002,1729473384981.0,0.0
4.218546,0.428315,7.802995,98.349998,26.040001,-31.85,1729473385002.0,0.0
5.254639,2.136791,8.003991,58.170002,27.23,-8.4,1729473385022.0,0.0
4.106083,-0.619741,8.080563,1.19,35.349998,14.0,1729473385041.0,0.0
1.584049,-3.397808,8.147561,-11.76,39.48,37.240002,1729473385060.0,0.0
0.155533,-3.455236,8.492127,-5.95,34.720001,57.189999,1729473385080.0,0.0
-0.105284,-4.517649,7.633104,-34.299999,24.15,63.0,1729473385101.0,0.0
-0.70349,-6.039484,6.455836,-51.66,12.32,75.949997,1729473385123.0,0.0
-2.041078,-7.168896,6.336195,-36.259998,3.36,91.419998,1729473385140.0,0.0
-3.582055,-7.470392,6.829116,-40.810001,-2.52,102.410004,1729473385161.0,0.0
-6.142376,-15.574883,4.21376,-112.629997,-30.380001,57.610001,1729473385180.0,0.0
-7.987241,-16.070196,2.505285,-85.120003,-30.940001,62.439999,1729473385201.0,0.0
-8.898908,-15.136996,1.198804,-34.299999,-17.710001,15.89,1729473385226.0,0.0
-8.829515,-15.247066,2.976671,8.89,-7.14,-27.58,1729473385241.0,0.0
-7.267002,-11.92822,5.249853,70.349998,7.84,-66.989998,1729473385261.0,0.0
-6.522834,-8.831908,5.663811,88.129997,17.92,-96.110001,1729473385280.0,0.0
-3.689733,-6.084948,4.919643,36.889999,10.85,-106.75,1729473385301.0,0.0
0.071785,-6.692725,5.029713,-0.77,1.12,-108.709999,1729473385322.0,0.0
2.591427,-4.742575,5.156533,40.740002,0.7,-86.660004,1729473385340.0,0.0
4.242475,-1.495514,6.776474,119.139999,12.6,-49.700001,1729473385361.0,0.0
4.402793,1.596013,8.054241,130.339996,8.05,-21.77,1729473385380.0,0.0
3.682554,1.773082,8.709875,66.849998,9.38,1.54,1729473385401.0,0.0
2.321038,-0.964308,8.035098,-33.810001,9.03,22.26,1729473385422.0,0.0
0.909273,-2.955136,6.525227,-80.709999,8.33,44.869999,1729473385441.0,0.0
0.342174,-2.986243,5.307281,-51.59,9.87,69.370003,1729473385460.0,0.0
-1.040878,-5.084748,6.62094,-25.200001,14.21,86.029999,1729473385480.0,0.0
-5.206782,-8.10449,8.149954,-30.870001,14.0,103.599998,1729473385501.0,0.0
-4.993821,-13.667803,7.322037,-64.540001,-19.809999,82.879997,1729473385522.0,0.0
-6.84108,-16.13241,4.005585,-120.050003,-35.349998,68.040001,1729473385541.0,0.0
-7.166504,-17.07279,2.146362,-72.239998,-34.299999,31.85,1729473385560.0,0.0
-7.788638,-14.416756,1.572084,-19.6,-9.66,-9.8,1729473385581.0,0.0
-7.611568,-12.964314,3.414558,10.71,1.89,-47.810001,1729473385602.0,0.0
-7.683353,-11.75833,5.484349,33.32,6.44,-76.090004,1729473385622.0,0.0
-6.190232,-8.652447,4.206582,-2.24,13.23,-107.029999,1729473385640.0,0.0
-2.493321,-8.341379,3.132205,-47.32,3.01,-118.300003,1729473385660.0,0.0
0.430708,-9.145369,3.407379,-35.07,2.94,-113.190002,1729473385680.0,0.0
2.39043,-4.876573,5.228317,60.970001,14.56,-85.190002,1729473385700.0,0.0
2.548356,-0.401994,7.987241,131.529999,20.65,-57.260002,1729473385725.0,0.0
3.538985,1.964507,8.322237,64.68,16.24,-43.75,1729473385740.0,0.0
4.278367,0.775275,7.68096,-9.94,11.76,-15.96,1729473385761.0,0.0
2.988636,-1.134198,8.556733,-15.33,13.79,11.76,1729473385780.0,0.0
1.22034,-3.122634,8.95155,-3.5,8.54,36.82,1729473385800.0,0.0
0.442672,-3.476771,8.860621,-7.7,0.77,56.98,1729473385823.0,0.0
-0.715454,-3.211168,7.71446,-20.16,-9.87,80.220001,1729473385840.0,0.0
-1.473979,-7.020542,5.548956,-91.07,-21.84,94.360001,1729473385861.0,0.0
-2.770889,-11.186446,4.290331,-107.239998,-26.460001,94.57,1729473385880.0,0.0
-3.871587,-13.28495,4.027121,-60.200001,-24.290001,91.769997,1729473385900.0,0.0
-6.56112,-12.844672,2.809174,-49.490002,-16.52,77.629997,1729473385922.0,0.0
-8.901299,-15.014962,1.811367,-45.150002,-15.33,47.670002,1729473385939.0,0.0
-8.133204,-14.349757,0.976272,-42.560001,0.84,10.08,1729473385961.0,0.0
-6.862615,-14.306686,2.108077,-33.389999,10.15,-27.51,1729473385980.0,0.0
-6.575477,-13.770694,2.995814,9.94,15.12,-57.330002,1729473386000.0,0.0
-5.587241,-10.633704,3.914658,60.970001,25.129999,-74.900002,1729473386023.0,0.0
-3.859623,-7.336394,4.15394,38.709999,22.26,-90.650002,1729473386040.0,0.0
-1.167697,-5.989235,3.771089,-7.77,12.74,-88.760002,1729473386060.0,0.0
1.261017,-5.563312,4.65404,-10.22,14.98,-79.660004,1729473386080.0,0.0
2.447858,-3.60359,7.156933,39.970001,21.0,-56.700001,1729473386101.0,0.0
2.799603,-0.22014,9.133404,90.019997,21.98,-27.719999,1729473386122.0,0.0
2.378466,-0.363709,10.980663,68.739998,13.09,-5.11,1729473386140.0,0.0
0.935594,-2.455036,9.999605,-7.0,1.61,11.27,1729473386160.0,0.0
-0.634098,-6.364908,6.38405,-56.209999,-13.37,28.210001,1729473386179.0,0.0
-2.210968,-8.750552,5.008178,-39.759998,-18.690001,42.07,1729473386202.0,0.0
-3.069991,-9.95175,4.622933,-1.54,-21.98,44.52,1729473386225.0,0.0
-2.785245,-9.693325,4.95075,35.139999,-27.93,44.310001,1729473386239.0,0.0
-3.488736,-9.937392,5.242674,42.560001,-30.799999,43.049999,1729473386261.0,0.0
-3.996014,-11.356337,3.993621,23.450001,-36.540001,34.369999,1729473386280.0,0.0
-4.012764,-12.356536,2.629712,9.66,-29.26,26.460001,1729473386301.0,0.0
-4.187439,-12.902101,1.071985,-11.27,-12.53,5.53,1729473386323.0,0.0
-3.290131,-12.134004,1.100698,-24.43,13.23,-17.92,1729473386341.0,0.0
-2.591427,-11.62194,3.108276,-2.94,31.57,-33.599998,1729473386360.0,0.0
-3.424129,-10.533205,3.495914,13.93,46.759998,-48.299999,1729473386380.0,0.0
-1.921437,-8.690732,3.756732,-12.25,51.099998,-66.150002,1729473386400.0,0.0
-0.457029,-7.781459,4.443472,-37.450001,47.110001,-68.879997,1729473386421.0,0.0
-0.131605,-7.369894,6.209375,-23.450001,47.670002,-67.129997,1729473386440.0,0.0
1.088734,-4.893322,7.238289,39.48,41.439999,-55.93,1729473386460.0,0.0
1.244268,-0.452243,9.755538,107.309998,40.740002,-33.810001,1729473386480.0,0.0
0.437887,1.344766,10.944772,82.949997,28.98,-16.309999,1729473386500.0,0.0
-0.308674,-1.971686,9.525827,-56.98,15.26,13.02,1729473386521.0,0.0
-0.562313,-4.536791,7.381857,-85.190002,-4.62,34.790001,1729473386539.0,0.0
0.191426,-5.268995,5.096712,-71.190002,-13.02,53.760002,1729473386568.0,0.0
0.028714,-7.472785,3.924229,-48.93,-15.33,75.669998,1729473386580.0,0.0
-1.993221,-9.580862,5.242674,-29.82,-15.75,82.18,1729473386600.0,0.0
-4.201797,-11.504691,5.321638,-20.16,-26.67,90.510002,1729473386624.0,0.0
-5.484349,-13.46202,3.211168,-35.84,-41.16,74.480003,1729473386640.0,0.0
-6.970293,-15.316458,1.129412,-50.049999,-38.290001,51.66,1729473386660.0,0.0
-7.448857,-15.371492,-0.241675,-60.689999,-23.309999,9.94,1729473386681.0,0.0
-6.484549,-14.519648,0.047856,-46.48,-4.13,-27.23,1729473386701.0,0.0
-5.446064,-13.134203,2.63689,18.83,1.82,-49.07,1729473386721.0,0.0
-5.06082,-10.169496,4.266403,65.449997,13.51,-68.110001,1729473386740.0,0.0
-3.424129,-7.513463,3.797409,27.370001,15.89,-84.0,1729473386762.0,0.0
-0.866202,-7.092326,3.113062,-14.49,11.69,-85.470001,1729473386783.0,0.0
0.665205,-6.606583,4.400401,-13.79,24.710001,-76.090004,1729473386801.0,0.0
0.902094,-4.051049,8.310273,71.330002,30.24,-51.52,1729473386823.0,0.0
0.959522,-1.636691,9.858429,106.330002,22.610001,-29.469999,1729473386840.0,0.0
0.227318,-2.531606,10.403993,73.919998,7.77,-11.34,1729473386861.0,0.0
-0.315853,-5.541777,8.520842,-11.76,-8.96,-5.67,1729473386881.0,0.0
-0.155533,-7.745567,6.269196,-37.799999,-22.960001,4.69,1729473386901.0,0.0
0.081356,-7.398607,4.922036,-6.58,-27.370001,12.04,1729473386924.0,0.0
-0.459422,-6.924829,4.768896,32.130001,-28.210001,26.040001,1729473386940.0,0.0
-1.074377,-6.317052,5.249853,36.400002,-29.33,35.139999,1729473386961.0,0.0
-1.442872,-5.905487,6.656832,26.950001,-35.84,47.18,1729473386981.0,0.0
-0.973879,-6.465407,7.001399,-0.84,-48.369999,53.549999,1729473387002.0,0.0
-1.244268,-6.707082,4.84068,-37.450001,-50.610001,61.810001,1729473387022.0,0.0
-1.725225,-8.018349,3.199204,-60.900002,-44.869999,69.300003,1729473387042.0,0.0
-3.091527,-11.100305,1.986043,-69.650002,-33.459999,62.09,1729473387062.0,0.0
-3.838088,-12.660425,1.600798,-42.349998,-16.52,52.360001,1729473387084.0,0.0
-4.881358,-12.007183,2.139183,-8.82,4.48,32.689999,1729473387103.0,0.0
-5.556134,-12.320643,4.024727,2.17,28.42,-1.75,1729473387124.0,0.0
-5.505885,-13.036098,5.414958,9.94,30.030001,-26.74,1729473387142.0,0.0
-5.393422,-13.301701,4.941179,24.92,27.790001,-51.029999,1729473387161.0,0.0
-4.144369,-11.574083,3.5007,11.27,28.49,-76.720001,1729473387182.0,0.0
-1.942972,-9.74836,1.820938,-18.200001,33.040001,-96.389999,1729473387202.0,0.0
0.210568,-8.889337,3.091527,-11.76,39.41,-105.699997,1729473387228.0,0.0
0.775275,-6.412765,6.740582,50.259998,41.93,-90.300003,1729473387243.0,0.0
1.440479,-1.222732,8.10449,130.059998,35.420002,-66.150002,1729473387261.0,0.0
1.696511,2.658426,10.097712,137.759995,23.24,-43.540001,1729473387286.0,0.0
1.339981,3.134598,10.530812,65.590004,13.86,-17.15,1729473387302.0,0.0
0.897308,0.401994,9.578469,-28.139999,-1.82,9.31,1729473387325.0,0.0
0.480957,-2.29711,7.716853,-80.150002,-12.74,37.170002,1729473387342.0,0.0
0.528814,-3.61077,5.848059,-86.449997,-18.620001,63.700001,1729473387361.0,0.0
-0.07657,-5.62074,4.290331,-73.080002,-18.34,89.040001,1729473387381.0,0.0
-2.048256,-8.99462,5.041678,-68.599998,-17.5,95.340004,1729473387402.0,0.0
-4.342973,-12.392428,4.761717,-52.990002,-24.780001,101.220001,1729473387423.0,0.0
-6.470192,-16.895721,2.9336,-41.790001,-28.77,67.129997,1729473387441.0,0.0
-7.460821,-17.838493,1.411765,-35.07,-13.3,25.059999,1729473387462.0,0.0
-5.912664,-14.857035,0.09332,-40.459999,17.57,-24.08,1729473387481.0,0.0
-4.65404,-14.665611,0.514457,-26.32,31.290001,-53.27,1729473387503.0,0.0
-4.622933,-15.641882,2.337788,20.790001,38.220001,-78.260002,1729473387523.0,0.0
-3.522235,-11.298907,2.945565,56.209999,49.349998,-97.720001,1729473387541.0,0.0
-1.414158,-7.176075,2.976671,53.060001,43.68,-111.160004,1729473387561.0,0.0
-0.059821,-4.07737,4.141976,44.869999,41.439999,-100.449997,1729473387582.0,0.0
2.244468,-2.40718,6.025128,64.82,31.43,-87.150002,1729473387602.0,0.0
1.153341,0.949951,7.630712,108.849998,34.02,-51.52,1729473387684.0,0.0
0.588634,2.900101,9.107083,121.449997,28.91,-30.17,1729473387685.0,0.0
0.825524,1.143769,11.114661,58.869999,7.35,-0.77,1729473387685.0,0.0
-0.306281,-2.294717,10.34178,-37.52,-7.35,22.33,1729473387686.0,0.0
-0.79681,-5.245068,7.484749,-94.220001,-23.379999,38.360001,1729473387701.0,0.0
0.038285,-6.338587,5.402994,-83.860001,-34.09,58.380001,1729473387723.0,0.0
0.18664,-6.508478,3.821337,-41.23,-33.670002,81.199997,1729473387751.0,0.0
-0.969093,-8.154739,4.76411,-5.88,-25.27,97.300003,1729473387761.0,0.0
-3.184847,-12.083755,5.520242,-40.950001,-26.040001,79.309998,1729473387781.0,0.0
-4.067799,-12.189038,3.471986,-47.389999,-21.42,79.449997,1729473387801.0,0.0
-4.694718,-11.803794,1.875973,-55.16,-8.89,46.830002,1729473387823.0,0.0
-5.166104,-9.023334,0.366102,-68.809998,15.61,32.619999,1729473387842.0,0.0
-4.09412,-6.802795,0.162712,-75.389999,27.719999,22.33,1729473387861.0,0.0
-3.481557,-5.888737,4.048656,-57.189999,38.220001,31.780001,1729473387881.0,0.0
-4.058227,-5.781059,4.539185,-21.77,47.110001,44.099998,1729473387901.0,0.0
-4.941179,-7.130611,5.800202,-3.78,41.299999,51.869999,1729473387923.0,0.0
-5.000999,-8.886944,5.948557,-2.03,22.75,51.59,1729473387941.0,0.0
-4.445865,-10.853845,5.723632,0.91,0.56,51.240002,1729473387961.0,0.0
-3.400201,-11.10509,5.649454,26.74,-20.93,50.189999,1729473387981.0,0.0
-2.677568,-10.344172,6.032306,79.519997,-22.960001,51.52,1729473388002.0,0.0
-2.775674,-9.135797,4.936393,93.239998,-21.139999,41.16,1729473388023.0,0.0
-2.455036,-11.057234,3.26381,120.540001,-23.17,35.84,1729473388041.0,0.0
-1.383051,-11.901899,2.821138,174.930008,-4.41,22.190001,1729473388062.0,0.0
-1.785046,-11.109876,3.828516,245.419998,21.280001,7.14,1729473388081.0,0.0
-3.065206,-6.953543,6.766902,289.589996,39.830002,-8.33,1729473388101.0,0.0
-3.39063,-4.118048,8.413164,249.479996,40.25,-28.77,1729473388133.0,0.0
-4.034299,-3.438486,9.188439,157.710007,24.360001,-38.150002,1729473388141.0,0.0
-4.37408,-3.95055,9.475577,79.169998,10.29,-43.049999,1729473388161.0,0.0
-4.304688,-3.981657,9.145369,35.560001,-0.07,-45.779999,1729473388180.0,0.0
-4.503292,-3.859623,9.001799,27.370001,-6.86,-41.369999,1729473388202.0,0.0
-4.917251,-2.914458,9.638289,34.580002,-13.65,-33.670002,1729473388225.0,0.0
-4.919643,-3.09392,7.908278,28.91,-20.93,-18.83,1729473388241.0,0.0
-5.206782,-2.031506,6.821937,7.14,-19.67,-13.79,1729473388261.0,0.0
-6.159126,-4.12044,5.659025,3.08,-20.790001,-3.99,1729473388281.0,0.0
-4.771288,-5.024928,6.778866,28.42,-11.41,-7.42,1729473388302.0,0.0
-5.161318,-6.022735,7.501499,35.77,-6.51,-12.04,1729473388323.0,0.0
-3.0006,-5.888737,7.972885,27.51,-1.82,-34.720001,1729473388341.0,0.0
-1.842474,-4.431508,8.073383,17.43,3.29,-38.990002,1729473388362.0,0.0
-1.339981,-2.959922,7.927422,-6.23,1.82,-37.939999,1729473388382.0,0.0
-2.17029,-2.127219,8.097312,-8.54,1.61,-20.65,1729473388401.0,0.0
-2.517249,-1.990828,7.936993,-9.87,2.17,-13.23,1729473388423.0,0.0
-2.067399,-2.354537,7.496714,-15.4,3.01,-3.71,1729473388442.0,0.0
-1.730011,-1.993221,8.360522,-25.690001,5.81,6.16,1729473388462.0,0.0
-2.050649,-1.217947,8.891729,-27.58,8.26,15.89,1729473388481.0,0.0
-2.651247,-2.239682,8.693125,-36.259998,4.27,25.969999,1729473388502.0,0.0
-2.998207,-3.385844,7.951349,-29.68,1.26,33.740002,1729473388522.0,0.0
-3.507878,-3.866802,8.202596,-11.2,1.26,43.049999,1729473388541.0,0.0
-3.87398,-3.921836,8.815158,5.74,-2.45,46.060001,1729473388561.0,0.0
-4.259224,-4.84068,8.475377,14.98,-4.83,47.459999,1729473388581.0,0.0
-4.945964,-5.9342,7.04447,-2.17,-7.77,37.310001,1729473388608.0,0.0
-5.075177,-7.161718,6.577869,3.85,-5.95,29.120001,1729473388623.0,0.0
-4.608576,-7.491928,6.845865,21.35,0.35,15.75,1729473388643.0,0.0
-4.68754,-7.647461,7.532606,26.460001,3.01,1.33,1729473388662.0,0.0
-4.4674,-7.520642,8.051848,12.32,0.98,-17.43,1729473388682.0,0.0
-2.813959,-5.292924,8.798409,3.85,1.26,-28.42,1729473388702.0,0.0
-2.885744,-4.677969,8.614161,-16.17,-4.69,-27.58,1729473388725.0,0.0
-3.287738,-5.108676,7.525427,-21.700001,-9.45,-28.84,1729473388742.0,0.0
-3.120241,-4.409972,7.898707,-3.15,-5.6,-34.439999,1729473388762.0,0.0
-2.89053,-4.007978,8.169096,5.6,-3.92,-38.220001,1729473388782.0,0.0
-2.517249,-0.564706,8.68116,8.33,-0.42,-28.98,1729473388802.0,0.0
-2.603391,-0.11007,8.736196,-22.75,-4.62,-16.450001,1729473388824.0,0.0
-1.777867,-0.043071,8.051848,-40.459999,-7.63,4.27,1729473388842.0,0.0
-2.646462,-1.452443,7.04447,-46.41,-6.16,23.309999,1729473388862.0,0.0
-3.89073,-4.54397,6.9679,-41.369999,-1.96,34.93,1729473388882.0,0.0
-3.902694,-5.319244,6.910471,-24.360001,7.07,34.299999,1729473388904.0,0.0
-3.455236,-6.427122,6.84108,-14.84,12.46,26.6,1729473388924.0,0.0
-3.694518,-5.864808,7.858029,5.95,19.6,23.24,1729473388942.0,0.0
-4.299902,-5.223531,9.736395,10.43,17.01,21.139999,1729473388962.0,0.0
-4.165904,-4.881358,9.461221,-10.43,5.74,17.639999,1729473388983.0,0.0
-4.235296,-5.462814,7.255038,-29.190001,-5.39,13.09,1729473389002.0,0.0
-4.185047,-4.922036,5.419744,-23.799999,-3.36,11.97,1729473389025.0,0.0
-4.508078,-6.60419,4.615755,-10.5,1.33,8.47,1729473389043.0,0.0
-4.156333,-6.326623,7.06122,40.599998,17.15,-3.43,1729473389064.0,0.0
-3.948158,-6.939186,8.078169,30.52,15.190001,-13.16,1729473389084.0,0.0
-3.20399,-7.140182,9.073583,16.17,12.32,-21.700001,1729473389104.0,0.0
-3.381058,-6.668797,8.370094,12.11,7.98,-30.59,1729473389125.0,0.0
-4.110869,-5.905487,8.068598,15.68,10.78,-45.080002,1729473389144.0,0.0
-5.431707,-6.886543,8.84148,21.35,11.41,-61.950001,1729473389164.0,0.0
-4.223332,-4.405186,8.82473,46.27,15.26,-67.199997,1729473389185.0,0.0
-3.854837,0.571885,9.47797,35.07,14.21,-52.150002,1729473389204.0,0.0
-2.347359,2.344966,10.34178,5.6,-2.24,-21.210001,1729473389228.0,0.0
-2.108077,1.663012,7.908278,-39.900002,-12.32,14.07,1729473389244.0,0.0
-3.129812,-2.830709,6.754939,-114.379997,-22.4,33.459999,1729473389264.0,0.0
-2.811567,-8.525627,5.268995,-100.169998,-27.58,34.860001,1729473389284.0,0.0
-2.986243,-7.152147,5.838487,2.8,-7.35,34.93,1729473389304.0,0.0
-3.68734,-3.388237,7.927422,58.029999,11.27,29.190001,1729473389330.0,0.0
-3.273381,-3.146562,9.317651,19.040001,6.37,28.07,1729473389344.0,0.0
-3.168097,-4.022335,8.559127,-29.33,-4.55,36.189999,1729473389364.0,0.0
-3.570091,-2.830709,7.307681,-22.889999,-6.16,47.880001,1729473389384.0,0.0
-5.704489,-7.06122,5.146961,-24.92,-10.01,53.619999,1729473389404.0,0.0
-6.391229,-9.255438,5.242674,16.940001,-8.05,42.209999,1729473389426.0,0.0
-4.95075,-8.085347,7.57089,82.529999,6.51,19.25,1729473389444.0,0.0
-5.266603,-9.446864,8.200203,57.889999,3.01,-3.22,1729473389464.0,0.0
-3.464807,-7.769495,8.195417,37.099998,1.54,-26.18,1729473389483.0,0.0
-3.089134,-4.969893,7.960921,17.99,0.84,-38.220001,1729473389504.0,0.0
-3.787838,-5.804988,6.80758,0.42,-3.78,-43.189999,1729473389525.0,0.0
-4.395615,-6.577869,7.207181,26.67,-2.24,-47.32,1729473389544.0,0.0
-3.98405,-3.488736,9.276974,64.610001,2.73,-53.060001,1729473389564.0,0.0
-2.455036,0.18664,8.54477,45.709999,3.78,-55.439999,1729473389583.0,0.0
-2.768496,3.361916,9.812965,-18.48,-2.38,-31.5,1729473389604.0,0.0
-0.801596,2.495714,7.41775,-64.68,-8.68,-6.86,1729473389626.0,0.0
-3.304488,-2.754139,6.752545,-76.650002,-7.14,22.469999,1729473389644.0,0.0
-4.981857,-6.666404,7.491928,-24.15,-5.67,25.41,1729473389663.0,0.0
-3.893122,-3.895515,9.023334,40.459999,6.58,25.690001,1729473389683.0,0.0
-3.275774,-4.500899,8.030313,-2.1,-2.38,19.32,1729473389704.0,0.0
-2.902494,-4.029513,7.125826,-29.610001,-1.19,16.59,1729473389725.0,0.0
-3.23031,-2.56032,6.678369,-32.830002,2.03,23.870001,1729473389744.0,0.0
-3.582055,-2.421536,6.381658,-28.0,6.51,37.869999,1729473389763.0,0.0
-5.259424,-6.652047,5.383851,-40.110001,2.1,40.32,1729473389783.0,0.0
-5.666204,-7.795816,6.675975,10.57,9.31,37.799999,1729473389804.0,0.0
-5.618347,-5.678168,8.685946,49.630001,17.15,20.719999,1729473389825.0,0.0
-5.852845,-7.558927,8.054241,7.91,3.64,8.82,1729473389844.0,0.0
-4.158726,-7.692925,7.71446,-3.36,1.61,-10.85,1729473389863.0,0.0
-3.699304,-5.788238,8.341379,14.14,6.3,-20.51,1729473389883.0,0.0
-3.716053,-5.010571,8.910872,7.77,1.12,-26.809999,1729473389903.0,0.0
-3.823731,-5.448457,8.642875,5.04,-6.16,-31.43,1729473389925.0,0.0
-3.469593,-5.307281,8.733803,21.629999,-7.98,-33.32,1729473389944.0,0.0
-3.23031,-3.938586,8.219346,30.52,-7.91,-39.689999,1729473389963.0,0.0
-2.656033,-0.040678,8.173882,15.61,-5.18,-41.509998,1729473389983.0,0.0
-2.852244,-0.598206,7.276574,-8.26,-5.53,-17.85,1729473390004.0,0.0
-2.787638,-1.691726,7.369894,-31.360001,-4.48,2.1,1729473390024.0,0.0
-3.223132,-3.314059,7.460821,-16.870001,2.73,13.02,1729473390043.0,0.0
-4.438686,-4.85743,7.819745,0.49,3.64,17.57,1729473390063.0,0.0
-4.706682,-4.371687,8.51127,15.05,5.25,15.54,1729473390083.0,0.0
-4.127619,-3.591627,8.946764,9.45,1.96,11.97,1729473390104.0,0.0
-3.445665,-3.113062,8.185846,-5.46,-3.57,17.01,1729473390125.0,0.0
-3.74716,-3.895515,7.250252,-17.290001,-8.19,24.780001,1729473390144.0,0.0
-4.45065,-5.541777,6.283553,-7.98,-7.77,29.33,1729473390163.0,0.0
-4.797609,-6.393622,6.580262,16.379999,-0.42,23.030001,1729473390182.0,0.0
-5.9342,-6.972685,6.865008,27.440001,4.34,13.72,1729473390203.0,0.0
-4.675575,-7.312466,7.278966,18.969999,1.75,-8.47,1729473390229.0,0.0
