acc_x,acc_y,acc_z,gyr_x,gyr_y,gyr_z,timestamp,label
-7.341179,-5.54417,-3.062813,-149.800003,29.68,-45.709999,1729416749445.0,0.0
-5.261817,-7.618747,-3.361916,-258.369995,46.970001,-39.41,1729416749454.0,0.0
-3.622734,-11.308479,-3.895515,-252.630005,65.590004,-37.869999,1729416749455.0,0.0
-3.158526,-11.117055,-1.01695,-115.010002,60.619999,-30.52,1729416749456.0,0.0
-0.57667,-9.341579,0.172283,-40.740002,44.869999,-22.26,1729416749469.0,0.0
-0.114855,-11.239087,1.488336,4.55,17.780001,-6.79,1729416749490.0,0.0
-1.009771,-8.516055,1.385444,87.849998,-22.889999,-0.28,1729416749509.0,0.0
-2.67039,-9.355937,-1.323231,152.180008,-64.050003,17.5,1729416749529.0,0.0
-2.009971,-5.642276,-3.68734,194.320007,-75.669998,36.889999,1729416749550.0,0.0
-5.802595,-5.924629,-2.165504,198.029999,-83.93,63.560001,1729416749569.0,0.0
-9.375079,-4.23051,-3.074777,153.229996,-78.400002,74.059998,1729416749590.0,0.0
-10.377672,-5.773881,-6.15434,50.75,-62.16,84.699997,1729416749609.0,0.0
-10.255639,-8.274381,-7.180861,-37.73,-31.15,65.309998,1729416749630.0,0.0
-8.669197,-9.24108,-5.855237,-63.139999,-1.54,41.369999,1729416749655.0,0.0
-8.597411,-11.688939,-5.525027,21.559999,26.460001,3.36,1729416749669.0,0.0
-8.831908,-7.848458,-3.07717,64.959999,40.529999,-30.24,1729416749692.0,0.0
-6.922436,-7.513463,-4.895715,67.550003,46.27,-29.610001,1729416749709.0,0.0
-7.460821,-10.693524,-4.651647,30.66,74.059998,-42.77,1729416749729.0,0.0
-5.558527,-11.085947,-3.976871,47.529999,89.040001,-61.740002,1729416749749.0,0.0
-2.837888,-9.415757,1.818545,99.82,90.300003,-67.059998,1729416749769.0,0.0
-0.725025,-6.927221,6.668797,123.620003,67.970001,-58.52,1729416749791.0,0.0
2.225325,-3.309274,7.436893,120.68,19.809999,-31.92,1729416749808.0,0.0
-2.172683,-3.113062,5.034499,75.110001,-12.25,0.91,1729416749829.0,0.0
-3.096312,-4.019942,2.567499,-14.56,-36.889999,25.059999,1729416749852.0,0.0
-2.56032,-6.455836,0.899701,-92.540001,-65.169998,40.599998,1729416749869.0,0.0
-6.874579,-7.04447,-2.277967,-98.980003,-77.980003,61.670002,1729416749891.0,0.0
-10.164711,-9.047262,-5.479564,-60.970001,-83.090004,66.849998,1729416749909.0,0.0
-12.105289,-9.19801,-7.23111,-73.919998,-67.199997,47.110001,1729416749928.0,0.0
-13.959727,-10.722239,-12.01197,-53.060001,-21.35,24.01,1729416749949.0,0.0
-6.709475,-12.624532,-5.230711,19.389999,29.4,-24.290001,1729416749969.0,0.0
-8.061419,-7.21436,-2.938386,117.110001,44.170002,-59.43,1729416749990.0,0.0
-7.779066,-6.331409,-2.435893,91.769997,51.939999,-58.66,1729416750008.0,0.0
-7.042077,-8.429914,-3.421736,23.73,75.879997,-67.550003,1729416750029.0,0.0
-6.281159,-7.130611,2.569891,27.860001,95.970001,-63.420002,1729416750049.0,0.0
-4.302295,-6.422336,5.99402,24.01,82.389999,-50.470001,1729416750070.0,0.0
-3.407379,-6.329016,6.15434,11.06,45.009998,-42.490002,1729416750090.0,0.0
-2.524428,-6.563512,4.900501,-9.45,7.7,-34.509998,1729416750109.0,0.0
-3.663411,-8.62134,2.854637,-18.969999,-12.67,-27.299999,1729416750128.0,0.0
-4.529613,-9.896714,0.66999,37.869999,-35.279999,-20.51,1729416750149.0,0.0
-3.929015,-9.576077,-1.428515,115.989998,-57.189999,-4.9,1729416750168.0,0.0
-4.21376,-8.831908,-2.014757,155.259995,-60.48,15.12,1729416750193.0,0.0
-4.273581,-7.68096,-2.079363,118.860001,-54.599998,24.290001,1729416750209.0,0.0
-4.859823,-5.56092,-1.143769,75.669998,-41.16,29.68,1729416750229.0,0.0
-4.847858,-6.072984,1.799403,25.200001,-31.639999,28.280001,1729416750248.0,0.0
-5.491528,-11.179268,1.849652,-2.94,-34.09,15.12,1729416750269.0,0.0
-4.376472,-10.442278,0.205783,53.200001,-46.060001,6.93,1729416750290.0,0.0
-2.804388,-5.651847,0.66999,139.440002,-54.110001,24.15,1729416750308.0,0.0
-2.993421,-5.022535,1.155733,98.489998,-32.060001,60.34,1729416750329.0,0.0
-4.046263,-6.707082,0.856631,81.900002,-20.58,82.809998,1729416750349.0,0.0
-4.84068,-9.284152,1.014557,89.739998,-6.86,93.099998,1729416750369.0,0.0
-5.036892,-7.939385,1.497907,87.639999,21.700001,88.970001,1729416750391.0,0.0
-5.84088,-10.779665,1.320838,107.870003,44.66,94.43,1729416750409.0,0.0
-7.566105,-12.780065,1.146162,203.630005,60.549999,99.540001,1729416750428.0,0.0
-6.573084,-5.960521,2.313859,341.670013,54.25,105.279999,1729416750449.0,0.0
-12.313466,7.276574,11.507084,239.960007,63.98,82.040001,1729416750468.0,0.0
-9.537791,-5.158926,-3.476771,-102.830002,-7.84,66.639999,1729416750490.0,0.0
-9.676575,-10.001998,-4.436293,-218.610001,19.67,4.69,1729416750508.0,0.0
-15.687346,-9.4349,4.065405,-34.369999,25.9,7.7,1729416750528.0,0.0
-10.372886,-12.205789,3.677768,-62.439999,-16.24,-96.040001,1729416750549.0,0.0
-7.738388,-9.966106,3.270989,0.14,-41.369999,-114.029999,1729416750570.0,0.0
-8.030313,-7.223931,3.900301,45.639999,-43.330002,-123.480003,1729416750590.0,0.0
-6.680761,-6.364908,4.331009,11.97,-37.59,-133.979996,1729416750608.0,0.0
-5.017749,-6.80758,3.883551,-5.46,-37.59,-133.350006,1729416750636.0,0.0
-3.007778,-6.484549,2.435893,58.310001,-27.299999,-105.07,1729416750650.0,0.0
-2.428715,-4.603791,2.940779,101.290001,-20.860001,-79.239998,1729416750669.0,0.0
-2.108077,-3.507878,3.924229,96.389999,-12.95,-59.360001,1729416750690.0,0.0
-3.098706,-4.682754,5.570491,64.610001,-7.91,-38.009998,1729416750709.0,0.0
-3.208775,-4.500899,5.649454,44.450001,-15.190001,-25.549999,1729416750729.0,0.0
-2.122434,-3.010171,4.09412,39.689999,-22.68,-9.03,1729416750749.0,0.0
-0.543171,-2.445465,1.399801,34.16,-14.63,12.18,1729416750769.0,0.0
-0.062213,-6.290731,1.892723,38.43,27.09,44.099998,1729416750790.0,0.0
-4.187439,-9.047262,7.144968,128.729996,69.720001,79.449997,1729416750809.0,0.0
-9.296116,-4.577469,30.745377,155.330002,67.830002,76.93,1729416750829.0,0.0
3.907479,-3.936193,-4.409972,-41.720001,-3.01,124.110001,1729416750854.0,0.0
-12.330215,-2.56032,-2.770889,-182.770004,99.260002,81.269997,1729416750871.0,0.0
-18.125631,-7.659425,6.778866,-87.919998,87.150002,132.020004,1729416750890.0,0.0
-12.265609,-16.831116,2.371287,-175.770004,27.09,-6.86,1729416750910.0,0.0
-8.276773,-13.057633,3.084348,-33.459999,0.14,-43.540001,1729416750930.0,0.0
-4.783253,-6.869793,4.273581,20.370001,2.24,-70.419998,1729416750950.0,0.0
-4.192225,-6.798009,5.192425,-58.869999,17.710001,-81.059998,1729416750970.0,0.0
-3.845266,-7.647461,4.929214,-93.309998,15.68,-77.209999,1729416750992.0,0.0
-3.462414,-8.405986,3.656233,-123.059998,12.04,-72.660004,1729416751010.0,0.0
-3.26381,-9.38465,2.514857,-146.720001,16.870001,-70.349998,1729416751029.0,0.0
-3.402594,-10.188639,1.919044,-144.759995,22.960001,-67.900002,1729416751050.0,0.0
-3.505485,-10.298709,1.79701,-126.629997,30.1,-66.5,1729416751071.0,0.0
-3.460021,-10.229317,1.916651,-112.699997,37.029999,-66.5,1729416751091.0,0.0
-3.725625,-10.272388,2.155933,-108.57,43.889999,-66.709999,1729416751111.0,0.0
-4.208975,-10.212566,2.048256,-105.419998,46.48,-68.18,1729416751130.0,0.0
-4.261617,-9.911072,1.710868,-103.879997,44.73,-67.900002,1729416751151.0,0.0
-3.5007,-9.712467,0.902094,-109.410004,43.049999,-67.620003,1729416751172.0,0.0
-2.665605,-10.167104,-0.055035,-115.150002,43.189999,-63.0,1729416751192.0,0.0
-2.811567,-10.870593,-0.555135,-106.959999,48.720001,-58.029999,1729416751210.0,0.0
-3.481557,-10.954341,-0.842274,-80.919998,51.66,-56.77,1729416751231.0,0.0
-2.919244,-10.112068,-1.674976,-46.830002,43.189999,-55.93,1729416751250.0,0.0
-2.959922,-9.779467,-1.847259,-40.810001,44.939999,-53.549999,1729416751270.0,0.0
-3.548556,-9.442079,-1.74676,-37.380001,49.279999,-50.75,1729416751291.0,0.0
-3.168097,-9.238688,-1.825724,-31.710001,45.220001,-47.25,1729416751310.0,0.0
-2.787638,-8.776874,-1.78026,-30.870001,39.619999,-41.93,1729416751330.0,0.0
-3.127419,-8.350951,-1.988436,-38.150002,37.869999,-36.259998,1729416751356.0,0.0
-3.163311,-8.532805,-2.438286,-46.27,35.77,-28.35,1729416751371.0,0.0
-2.78046,-9.126225,-2.679961,-39.970001,32.689999,-20.51,1729416751391.0,0.0
-2.758924,-8.702696,-1.849652,-6.16,26.809999,-13.09,1729416751412.0,0.0
-3.61077,-7.683353,-1.287339,15.33,21.210001,-8.47,1729416751430.0,0.0
-3.814159,-7.300502,-1.45005,15.61,12.88,-2.45,1729416751452.0,0.0
-3.196811,-7.642675,-2.244468,13.58,4.06,4.55,1729416751471.0,0.0
-3.536592,-7.721639,-2.175076,8.75,4.83,10.43,1729416751491.0,0.0
-4.041477,-7.76471,-1.65344,-2.94,8.33,14.63,1729416751510.0,0.0
-4.051049,-8.047063,-1.533799,-17.08,5.88,14.98,1729416751530.0,0.0
-4.130012,-8.312666,-1.718047,-16.799999,-0.14,13.09,1729416751550.0,0.0
-4.022335,-8.712267,-2.15354,-8.26,-4.55,9.73,1729416751570.0,0.0
-4.113262,-9.186047,-1.902294,6.79,-3.08,7.35,1729416751591.0,0.0
-4.240082,-8.673983,-1.844866,12.04,-3.08,4.2,1729416751610.0,0.0
-4.266403,-8.422735,-1.923829,2.66,-1.96,1.33,1729416751630.0,0.0
-4.022335,-8.319844,-2.335395,-16.17,0.28,-3.64,1729416751651.0,0.0
-3.89073,-8.700303,-2.569891,-20.65,1.61,-7.21,1729416751670.0,0.0
-3.35713,-8.819944,-2.07697,-9.73,-1.05,-7.77,1729416751691.0,0.0
-3.117848,-9.025726,-1.909473,-3.15,-2.66,-5.74,1729416751710.0,0.0
-3.012564,-9.446864,-2.45025,-7.77,-3.36,-5.46,1729416751730.0,0.0
-3.096312,-9.60479,-2.864209,-7.56,-1.54,-7.77,1729416751750.0,0.0
-3.211168,-8.690732,-2.366502,9.1,-1.19,-6.93,1729416751770.0,0.0
-3.232704,-9.008978,-1.196411,25.48,-2.8,-6.23,1729416751791.0,0.0
-3.534199,-8.130811,-1.383051,19.950001,-3.29,-8.75,1729416751810.0,0.0
-2.969493,-8.185846,-1.919044,-2.52,-12.32,-5.53,1729416751830.0,0.0
-2.744568,-8.95155,-3.058028,-30.450001,-10.92,-1.54,1729416751854.0,0.0
-3.017349,-10.229317,-3.488736,-33.110001,-6.93,-3.85,1729416751870.0,0.0
-3.038885,-9.939785,-3.172883,-9.45,-3.85,-8.54,1729416751892.0,0.0
-2.861816,-9.425328,-3.515057,0.35,0.28,-13.23,1729416751910.0,0.0
-2.615355,-8.638089,-3.333202,3.5,5.04,-16.24,1729416751930.0,0.0
-2.364109,-8.334201,-4.015156,-11.83,12.25,-15.05,1729416751951.0,0.0
-2.579463,-8.867801,-3.869194,-21.0,20.09,-18.620001,1729416751970.0,0.0
-2.474179,-9.659825,-2.766103,-19.67,20.299999,-21.559999,1729416751991.0,0.0
-1.938186,-8.238488,-2.610569,-6.58,15.12,-18.059999,1729416752010.0,0.0
-1.811367,-8.738588,-2.421536,-18.129999,14.49,-9.94,1729416752030.0,0.0
-2.199004,-9.765109,-2.35693,-33.740002,15.54,-8.05,1729416752050.0,0.0
-2.438286,-10.222138,-2.684747,-36.889999,12.6,-11.62,1729416752071.0,0.0
-2.335395,-9.784252,-3.302095,-32.200001,10.43,-15.33,1729416752090.0,0.0
-1.940579,-8.736196,-3.172883,-15.26,10.57,-13.02,1729416752110.0,0.0
-1.87358,-8.214561,-3.768696,-12.6,11.76,-9.17,1729416752130.0,0.0
-2.199004,-9.320045,-3.285345,-25.549999,15.05,-9.59,1729416752151.0,0.0
-1.663012,-9.430114,-3.56052,-18.059999,10.64,-11.13,1729416752171.0,0.0
-1.229911,-8.925228,-3.464807,-8.33,8.82,-9.17,1729416752191.0,0.0
-1.411765,-9.080762,-3.565305,-12.18,10.08,-6.02,1729416752210.0,0.0
-1.603191,-9.224331,-3.790231,-15.190001,8.75,-4.97,1729416752230.0,0.0
-1.588834,-9.4349,-3.361916,-12.39,7.35,-5.95,1729416752250.0,0.0
-1.387837,-9.064013,-3.29731,1.61,-0.98,-4.27,1729416752270.0,0.0
-1.725225,-9.018548,-3.412165,-3.64,-1.05,-2.94,1729416752291.0,0.0
-1.820938,-9.073583,-3.823731,-13.09,0.14,-3.43,1729416752310.0,0.0
-1.469193,-7.085148,-3.426522,-6.16,2.31,-0.07,1729416752329.0,0.0
-2.139183,-8.784052,-2.799603,10.71,-0.77,10.08,1729416752350.0,0.0
-2.56032,-9.427721,-3.299703,6.44,-2.8,6.79,1729416752370.0,0.0
-2.438286,-9.379865,-3.515057,4.69,-2.52,-0.84,1729416752391.0,0.0
-2.282753,-9.367901,-3.352344,-4.62,0.21,-2.87,1729416752409.0,0.0
-1.933401,-9.226725,-3.546163,-11.2,1.75,-4.13,1729416752430.0,0.0
-2.031506,-9.260223,-3.61077,-5.39,1.05,-2.94,1729416752450.0,0.0
-1.923829,-9.288938,-3.383451,-6.93,1.4,-3.01,1729416752470.0,0.0
-1.471586,-9.52822,-3.751946,-18.200001,1.4,-4.69,1729416752491.0,0.0
-1.282553,-10.265208,-4.364508,-30.309999,1.82,-6.37,1729416752509.0,0.0
-1.294517,-10.004392,-3.790231,-13.86,2.59,-7.91,1729416752529.0,0.0
-1.859223,-9.547362,-4.17069,1.96,0.56,-6.79,1729416752551.0,0.0
-1.741975,-7.860423,-3.766303,-9.38,4.62,-11.55,1729416752570.0,0.0
-1.835295,-8.62134,-3.969693,-3.22,3.08,-9.1,1729416752591.0,0.0
-1.909473,-8.518449,-4.197011,-7.42,2.73,-6.79,1729416752610.0,0.0
-1.78026,-8.197811,-4.316652,8.26,2.52,-3.78,1729416752632.0,0.0
-2.014757,-8.23131,-3.651447,16.870001,1.26,-0.21,1729416752650.0,0.0
-2.072184,-8.360522,-3.783052,5.81,0.28,-0.28,1729416752670.0,0.0
-1.87358,-8.60459,-3.830909,-8.54,-1.89,-0.21,1729416752691.0,0.0
-1.765903,-9.276974,-4.103691,-12.88,-2.45,0.35,1729416752709.0,0.0
-1.641476,-8.877372,-3.881158,0.77,-2.94,0.63,1729416752731.0,0.0
-1.737189,-8.673983,-3.065206,8.75,-4.34,3.08,1729416752750.0,0.0
-1.464408,-8.676375,-3.464807,2.52,-7.63,2.8,1729416752770.0,0.0
-1.409373,-9.111869,-3.78066,-6.16,-10.01,4.41,1729416752791.0,0.0
-1.715654,-9.516255,-4.103691,-10.01,-8.33,5.46,1729416752809.0,0.0
-1.816152,-9.674182,-4.122833,-8.26,-4.9,3.64,1729416752829.0,0.0
-1.916651,-9.542577,-3.893122,-1.19,-3.5,2.52,1729416752855.0,0.0
-1.87358,-9.408579,-4.024727,-1.96,-2.59,0.84,1729416752869.0,0.0
-1.854438,-9.253045,-3.957729,-5.67,-1.19,-1.05,1729416752890.0,0.0
-1.849652,-9.166903,-4.027121,-2.87,-2.1,-0.63,1729416752910.0,0.0
-1.98365,-9.394222,-4.055835,-0.98,-2.24,-0.63,1729416752930.0,0.0
-2.146362,-9.408579,-3.986443,-2.66,-0.28,-0.63,1729416752951.0,0.0
-2.07697,-9.592826,-3.809374,-2.1,1.75,-1.26,1729416752970.0,0.0
-2.486143,-8.9683,-3.053242,0.28,3.29,-3.29,1729416752990.0,0.0
-2.301895,-10.375278,-4.476971,-3.29,3.29,-7.77,1729416753010.0,0.0
-2.885744,-7.750352,-3.07717,7.28,3.78,-6.51,1729416753030.0,0.0
-2.651247,-8.142776,-3.213561,4.69,-0.91,-5.32,1729416753050.0,0.0
-2.842674,-7.716853,-3.18724,-3.01,-3.64,-4.06,1729416753070.0,0.0
-3.014957,-8.281559,-3.474378,-15.12,-7.91,-2.94,1729416753090.0,0.0
-3.306881,-8.886944,-3.996014,-24.710001,-10.15,-6.65,1729416753110.0,0.0
-3.196811,-9.245867,-4.24726,-20.51,-10.92,-13.16,1729416753130.0,0.0
-2.603391,-9.126225,-4.292724,-9.31,-10.71,-18.27,1729416753150.0,0.0
-2.426322,-9.19801,-4.180261,-5.11,-8.89,-20.23,1729416753169.0,0.0
-2.522035,-9.181261,-3.811767,-4.2,-6.09,-22.049999,1729416753191.0,0.0
-2.756532,-9.171689,-3.56052,-3.99,-4.83,-24.99,1729416753209.0,0.0
-2.275574,-8.827123,-3.924229,-0.35,-9.17,-28.42,1729416753229.0,0.0
-2.266003,-8.379664,-4.197011,-6.86,-13.16,-28.630001,1729416753249.0,0.0
-2.435893,-8.748159,-4.039084,-34.02,-11.55,-36.259998,1729416753270.0,0.0
-2.07697,-8.4012,-3.842873,-28.559999,-16.309999,-39.830002,1729416753291.0,0.0
-2.045863,-8.843873,-3.761517,-21.700001,-21.07,-40.25,1729416753309.0,0.0
-2.074577,-8.961121,-3.976871,-23.17,-20.65,-42.420002,1729416753329.0,0.0
-1.600798,-8.724231,-4.785645,-19.110001,-23.379999,-41.93,1729416753350.0,0.0
-1.311267,-8.472985,-5.091926,-6.02,-26.32,-37.170002,1729416753370.0,0.0
-1.438086,-7.776673,-4.783253,11.13,-25.27,-32.34,1729416753391.0,0.0
-0.911665,-7.269395,-4.582255,28.210001,-27.51,-25.620001,1729416753409.0,0.0
-0.401994,-7.372287,-4.656433,36.189999,-27.09,-16.52,1729416753429.0,0.0
-0.605384,-7.63789,-4.618148,31.08,-21.49,-7.42,1729416753450.0,0.0
-0.825524,-7.903493,-4.45065,21.280001,-14.49,-1.05,1729416753470.0,0.0
-0.215354,-7.274181,-4.728218,26.6,-16.799999,4.13,1729416753491.0,0.0
-0.071785,-7.944171,-4.61097,34.02,-18.549999,13.23,1729416753510.0,0.0
-0.552742,-9.073583,-4.522435,29.190001,-12.74,17.01,1729416753529.0,0.0
-1.12702,-9.482756,-4.749753,32.48,-4.13,22.190001,1729416753550.0,0.0
-0.677169,-9.145369,-5.295317,52.220001,-2.94,26.530001,1729416753570.0,0.0
-1.629512,-9.178867,-4.352544,74.550003,0.77,33.25,1729416753593.0,0.0
-2.474179,-9.96132,-3.986443,74.760002,13.86,34.439999,1729416753612.0,0.0
-2.665605,-10.607382,-2.935993,97.580002,20.93,31.780001,1729416753630.0,0.0
-2.005185,-10.947165,-2.667997,142.800003,13.37,27.440001,1729416753650.0,0.0
-2.143969,-9.406186,-1.79701,168.070007,12.32,21.700001,1729416753669.0,0.0
-2.89053,-8.001599,0.744168,153.789993,13.58,20.719999,1729416753690.0,0.0
-3.158526,-9.987641,1.502693,106.190002,12.39,16.450001,1729416753709.0,0.0
-3.031706,-10.849058,-0.349352,114.099998,10.01,16.309999,1729416753729.0,0.0
-1.770689,-9.552148,-1.067199,126.07,11.06,21.07,1729416753750.0,0.0
-1.938186,-8.803195,1.038485,90.370003,26.040001,19.25,1729416753769.0,0.0
-1.079163,-10.669596,2.519642,32.900002,27.51,16.030001,1729416753791.0,0.0
-1.17009,-12.957134,3.629912,38.5,7.35,11.2,1729416753809.0,0.0
-1.205983,-11.966506,2.9671,81.620003,-20.790001,-2.03,1729416753829.0,0.0
-0.732204,-9.145369,1.397408,71.330002,-32.619999,-8.68,1729416753854.0,0.0
-0.734596,-9.116654,0.713061,3.15,-18.200001,-11.83,1729416753870.0,0.0
-1.916651,-10.061819,0.327817,-29.889999,4.69,-11.13,1729416753891.0,0.0
-2.335395,-9.705289,0.212961,7.84,12.88,-7.07,1729416753909.0,0.0
-3.129812,-6.113662,2.055435,69.510002,7.91,-0.21,1729416753929.0,0.0
-1.921437,-7.389036,0.90688,9.59,-3.99,11.27,1729416753949.0,0.0
-2.158326,-8.913264,1.189233,-52.5,-2.87,15.190001,1729416753969.0,0.0
-1.418944,-10.468598,1.969293,-64.190002,-13.09,12.6,1729416753990.0,0.0
0.449851,-10.150353,1.945365,-55.439999,-30.66,7.84,1729416754008.0,0.0
0.894916,-9.62154,2.289931,-63.279999,-41.720001,6.79,1729416754028.0,0.0
-0.662812,-9.906286,1.899901,-109.059998,-41.720001,6.58,1729416754049.0,0.0
-2.993421,-8.415558,2.203789,-141.119995,-39.34,6.79,1729416754069.0,0.0
-2.340181,-6.915257,0.361316,-154.419998,-49.560001,13.58,1729416754090.0,0.0
-1.124627,-7.71446,-2.440679,-175.910004,-51.59,21.77,1729416754111.0,0.0
-1.842474,-8.848659,-4.328616,-181.509995,-45.709999,28.77,1729416754129.0,0.0
-3.366701,-9.413363,-4.955536,-158.270004,-39.619999,29.469999,1729416754149.0,0.0
-4.268795,-9.092726,-4.551149,-116.129997,-36.330002,26.67,1729416754169.0,0.0
-4.371687,-8.030313,-4.634897,-82.25,-35.209999,26.25,1729416754190.0,0.0
-4.180261,-8.183454,-5.84088,-95.199997,-24.57,27.370001,1729416754208.0,0.0
-4.232903,-9.858429,-6.750153,-139.930008,-2.66,22.889999,1729416754229.0,0.0
-2.921637,-11.849257,-5.938986,-143.990005,6.3,9.31,1729416754248.0,0.0
-3.141776,-8.267202,-4.110869,-108.709999,-1.96,-3.71,1729416754269.0,0.0
-2.986243,-7.467999,-5.288138,-107.309998,3.29,6.86,1729416754290.0,0.0
-3.751946,-6.601797,-8.114061,-116.199997,22.889999,22.889999,1729416754308.0,0.0
-4.575077,-7.441679,-7.367501,-90.230003,36.540001,33.670002,1729416754328.0,0.0
-5.924629,-8.300702,-6.498906,-97.860001,43.259998,21.280001,1729416754350.0,0.0
-4.84068,-9.571291,-5.730811,-122.57,40.880001,-0.42,1729416754369.0,0.0
-3.476771,-10.320245,-6.321837,-100.239998,28.210001,-17.710001,1729416754447.0,0.0
-2.120041,-8.262416,-6.762117,-63.07,24.639999,-21.42,1729416754481.0,0.0
-2.476572,-9.272188,-7.379465,-52.920002,36.889999,-10.71,1729416754482.0,0.0
-3.177669,-10.219746,-6.111269,-37.170002,47.32,-7.28,1729416754483.0,0.0
-2.641676,-10.090532,-4.785645,-18.48,40.670002,-20.440001,1729416754483.0,0.0
-2.287539,-9.410972,-3.816552,8.05,26.880001,-31.85,1729416754489.0,0.0
-0.859023,-8.106883,-4.378866,33.599998,11.83,-35.700001,1729416754508.0,0.0
0.040678,-6.422336,-4.409972,33.740002,3.85,-32.34,1729416754529.0,0.0
-0.222532,-6.331409,-4.218546,18.690001,-3.08,-24.290001,1729416754550.0,0.0
-0.734596,-6.728617,-4.993821,18.41,-16.73,-20.93,1729416754570.0,0.0
-0.145962,-4.852644,-6.178268,32.200001,-34.369999,-18.620001,1729416754590.0,0.0
-2.117648,-2.70389,-4.752146,1.96,-40.040001,4.69,1729416754609.0,0.0
-4.740182,-3.658626,-4.792823,-18.129999,-50.400002,21.42,1729416754637.0,0.0
-4.005585,-5.481956,-7.41775,-44.799999,-49.490002,34.93,1729416754651.0,0.0
-6.685547,-5.493921,-9.442079,-63.279999,-37.799999,40.880001,1729416754669.0,0.0
-5.907879,-6.21416,-11.995219,-73.57,-17.780001,39.200001,1729416754691.0,0.0
-6.116055,-9.444471,-10.219746,-48.02,5.32,34.439999,1729416754709.0,0.0
-4.802395,-7.79103,-7.920243,-11.06,8.61,21.77,1729416754728.0,0.0
-3.213561,-7.470392,-8.65484,-1.4,13.65,14.84,1729416754748.0,0.0
-3.165704,-6.664011,-7.178468,6.93,21.559999,16.52,1729416754769.0,0.0
-3.608376,-7.554141,-6.541977,6.79,28.139999,22.120001,1729416754790.0,0.0
-4.644469,-8.944371,-6.331409,17.639999,28.0,17.780001,1729416754808.0,0.0
-4.570292,-9.174082,-6.005985,39.200001,25.83,2.45,1729416754829.0,0.0
-2.48375,-9.188439,-4.127619,51.029999,22.049999,-12.11,1729416754851.0,0.0
-1.672583,-8.898908,-3.440879,38.080002,13.72,-19.879999,1729416754869.0,0.0
-1.318445,-8.451449,-3.756732,28.0,2.31,-24.43,1729416754900.0,0.0
-1.287339,-6.850651,-4.532006,32.48,-10.43,-22.540001,1729416754908.0,0.0
-0.830309,-7.156933,-5.726025,42.209999,-22.82,-17.780001,1729416754929.0,0.0
-1.095913,-6.070591,-5.977271,15.82,-38.009998,-20.299999,1729416754949.0,0.0
-1.641476,-4.977071,-6.443871,-26.18,-39.970001,-20.58,1729416754969.0,0.0
-2.234896,-5.419744,-7.243074,-47.389999,-36.959999,-15.82,1729416754989.0,0.0
-4.046263,-5.374279,-5.522634,-31.57,-38.849998,-8.82,1729416755008.0,0.0
-5.513064,-4.130012,-7.32443,-23.309999,-42.700001,-0.49,1729416755028.0,0.0
-4.704289,-4.668397,-9.801002,-43.470001,-26.6,13.09,1729416755049.0,0.0
-4.546363,-6.190232,-11.296515,-37.029999,-1.89,23.450001,1729416755070.0,0.0
-4.888536,-6.034698,-9.564112,-5.25,12.67,29.610001,1729416755093.0,0.0
-5.498707,-5.558527,-6.719046,7.21,20.860001,33.670002,1729416755156.0,0.0
-5.012963,-6.357729,-7.257431,5.46,24.360001,34.720001,1729416755156.0,0.0
-4.536791,-7.429714,-6.496514,5.67,32.060001,32.27,1729416755157.0,0.0
-4.156333,-8.470592,-5.656632,-4.2,35.0,24.08,1729416755281.0,0.0
-3.976871,-10.174281,-4.603791,-3.64,30.450001,12.39,1729416755282.0,0.0
-4.15394,-10.973484,-4.500899,18.76,15.54,-1.33,1729416755285.0,0.0
-2.940779,-9.896714,-4.295116,35.84,5.67,-17.15,1729416755286.0,0.0
-2.785245,-9.154939,-3.684947,27.09,5.67,-24.5,1729416755287.0,0.0
-2.392823,-7.67139,-4.479364,2.94,-4.48,-29.26,1729416755288.0,0.0
-2.079363,-6.410372,-4.668397,7.91,-14.77,-28.210001,1729416755290.0,0.0
-1.935793,-5.9677,-4.438686,32.200001,-33.110001,-25.9,1729416755309.0,0.0
-1.605584,-3.256632,-5.438886,18.620001,-45.290001,-15.54,1729416755327.0,0.0
-2.347359,-4.725825,-5.723632,-31.92,-43.540001,-6.51,1729416755348.0,0.0
-2.213361,-4.488935,-7.496714,-39.130001,-48.790001,-2.8,1729416755368.0,0.0
-2.210968,-3.952943,-8.391629,-34.299999,-47.18,5.67,1729416755388.0,0.0
-3.680161,-3.804588,-7.814958,-32.130001,-41.02,19.040001,1729416755407.0,0.0
-6.446264,-4.713861,-6.711867,-21.700001,-34.93,36.049999,1729416755427.0,0.0
-7.188039,-6.221339,-9.377472,-34.790001,-18.9,40.32,1729416755447.0,0.0
-6.4678,-7.719246,-9.262616,-29.82,1.68,40.389999,1729416755469.0,0.0
-5.879165,-7.982457,-8.563912,-7.7,10.29,32.759998,1729416755488.0,0.0
-4.721039,-8.13799,-6.74776,20.23,15.96,25.83,1729416755507.0,0.0
-4.266403,-7.532606,-5.69731,24.639999,16.379999,21.280001,1729416755527.0,0.0
-4.780859,-8.695518,-5.393422,12.88,18.129999,16.52,1729416755548.0,0.0
-4.474578,-10.018748,-4.118048,10.64,16.940001,5.32,1729416755567.0,0.0
-3.259024,-9.480364,-4.304688,13.23,8.54,-9.17,1729416755588.0,0.0
-2.761317,-7.745567,-4.35733,26.950001,-0.49,-17.08,1729416755607.0,0.0
-3.493521,-5.625526,-4.350152,31.43,-15.82,-18.549999,1729416755628.0,0.0
-3.35713,-6.058627,-5.570491,12.95,-24.290001,-14.91,1729416755649.0,0.0
-3.232704,-6.836295,-5.972485,-17.57,-29.26,-18.27,1729416755667.0,0.0
-3.323631,-5.498707,-5.350351,-38.290001,-35.349998,-22.610001,1729416755689.0,0.0
-3.460021,-4.709075,-6.049056,-44.59,-41.860001,-18.48,1729416755708.0,0.0
-4.902894,-4.041477,-6.530013,-28.77,-47.740002,-5.6,1729416755728.0,0.0
-6.821937,-3.168097,-8.664411,-25.549999,-44.310001,13.72,1729416755748.0,0.0
-7.657032,-5.101498,-10.07139,-21.559999,-17.43,32.48,1729416755768.0,0.0
-7.310073,-5.625526,-9.65504,11.06,6.37,42.560001,1729416755788.0,0.0
-7.075576,-5.146961,-8.563912,37.799999,21.35,43.119999,1729416755807.0,0.0
-6.262017,-5.783452,-7.554141,42.209999,33.880001,35.84,1729416755828.0,0.0
-5.426922,-7.951349,-5.62074,22.049999,43.330002,30.799999,1729416755851.0,0.0
-4.524827,-9.846465,-4.749753,11.41,41.720001,18.48,1729416755868.0,0.0
-4.311867,-10.758131,-2.620141,25.76,34.790001,7.14,1729416755888.0,0.0
-4.086941,-11.4018,-3.096312,53.060001,19.18,-10.43,1729416755910.0,0.0
-3.424129,-9.49472,-3.019742,54.25,5.18,-27.58,1729416755927.0,0.0
-2.947958,-7.795816,-4.316652,24.360001,-3.85,-38.57,1729416755948.0,0.0
-3.208775,-7.113862,-4.486543,5.04,-17.85,-39.060001,1729416755968.0,0.0
-2.656033,-5.592027,-5.52742,12.53,-31.01,-42.91,1729416755988.0,0.0
-3.007778,-3.031706,-6.259624,5.25,-37.099998,-32.689999,1729416756010.0,0.0
-3.876373,-1.48355,-6.139983,-2.45,-40.25,-14.84,1729416756028.0,0.0
-5.587241,-1.737189,-6.513263,-18.83,-38.779999,4.34,1729416756048.0,0.0
-5.594419,-3.024528,-7.183254,-35.84,-26.389999,21.559999,1729416756069.0,0.0
-7.377072,-4.680361,-8.008778,-32.48,-17.710001,35.700001,1729416756092.0,0.0
-6.874579,-6.065805,-11.196017,-48.580002,2.87,36.189999,1729416756108.0,0.0
-7.075576,-6.74776,-9.327222,-26.530001,27.58,37.799999,1729416756127.0,0.0
-6.309873,-7.298109,-6.656832,2.31,35.279999,31.360001,1729416756150.0,0.0
-5.103891,-8.709875,-6.431907,8.82,41.439999,25.76,1729416756169.0,0.0
-4.804788,-9.535398,-5.508278,4.55,47.32,16.450001,1729416756188.0,0.0
-5.123034,-10.729417,-3.172883,1.54,46.130001,5.74,1729416756208.0,0.0
-4.185047,-11.751152,-3.651447,18.620001,31.710001,-14.0,1729416756227.0,0.0
-3.63709,-9.882358,-2.864209,39.619999,16.799999,-31.15,1729416756247.0,0.0
-3.24706,-8.52802,-3.718446,33.459999,4.97,-40.110001,1729416756268.0,0.0
-3.074777,-7.118648,-4.441079,10.99,-4.9,-42.77,1729416756289.0,0.0
-3.321238,-6.726225,-4.441079,17.710001,-14.35,-41.299999,1729416756310.0,0.0
-3.199204,-5.410172,-4.237689,22.75,-28.0,-42.630001,1729416756327.0,0.0
-2.957529,-4.039084,-5.199604,4.62,-37.59,-33.25,1729416756348.0,0.0
-3.725625,-3.713661,-6.551548,-23.799999,-39.549999,-22.960001,1729416756367.0,0.0
-4.778467,-3.622734,-7.546963,-28.35,-37.73,-11.34,1729416756388.0,0.0
-5.860023,-3.845266,-7.338787,-17.08,-29.190001,1.89,1729416756408.0,0.0
-7.613962,-4.07737,-7.21436,-3.36,-19.389999,15.190001,1729416756428.0,0.0
-6.259624,-4.996214,-9.872787,-19.809999,-1.96,19.040001,1729416756448.0,0.0
-5.793024,-6.317052,-10.320245,-18.27,19.25,26.040001,1729416756467.0,0.0
-5.419744,-6.21416,-8.238488,5.04,30.380001,28.49,1729416756491.0,0.0
-4.972286,-7.377072,-7.295716,18.34,36.259998,29.82,1729416756508.0,0.0
-4.54397,-7.936993,-5.79063,23.450001,43.049999,27.65,1729416756528.0,0.0
-4.35733,-9.052048,-5.003392,20.93,45.5,24.219999,1729416756547.0,0.0
-4.807181,-10.798808,-3.223132,21.35,42.07,14.28,1729416756569.0,0.0
-4.151547,-10.643275,-2.550749,26.110001,29.68,-7.28,1729416756589.0,0.0
-3.227918,-9.489935,-2.620141,32.830002,14.35,-22.610001,1729416756608.0,0.0
-2.897708,-7.972885,-3.225525,24.15,-3.71,-30.52,1729416756632.0,0.0
-2.971886,-5.788238,-3.78066,26.880001,-15.96,-26.18,1729416756648.0,0.0
-2.952743,-6.111269,-4.862216,31.08,-25.83,-14.77,1729416756668.0,0.0
-3.278167,-5.871986,-5.525027,11.76,-33.599998,-14.21,1729416756690.0,0.0
-3.199204,-3.141776,-5.826523,-21.700001,-37.869999,-10.64,1729416756707.0,0.0
-4.429115,-3.905087,-6.54437,-51.450001,-37.939999,1.47,1729416756727.0,0.0
-5.460421,-4.532006,-7.216753,-43.82,-35.07,10.92,1729416756749.0,0.0
-7.226324,-4.280759,-6.508478,-19.879999,-25.969999,27.370001,1729416756767.0,0.0
-6.783652,-5.300103,-9.820145,-33.670002,-7.35,36.959999,1729416756788.0,0.0
-6.814759,-7.362715,-10.506885,-32.060001,19.530001,40.810001,1729416756808.0,0.0
-6.616155,-7.877172,-8.484949,-6.86,31.290001,31.57,1729416756827.0,0.0
-5.314459,-8.659625,-6.850651,13.72,35.98,21.98,1729416756851.0,0.0
-4.651647,-9.188439,-5.237889,13.440001,40.740002,14.56,1729416756868.0,0.0
-4.398008,-9.68136,-3.917051,18.41,40.459999,7.28,1729416756892.0,0.0
-4.510471,-11.038091,-2.196611,28.98,35.84,-3.57,1729416756908.0,0.0
-3.349952,-9.860823,-2.342573,49.07,19.809999,-21.35,1729416756927.0,0.0
-3.160919,-7.673782,-3.132205,42.420002,5.88,-29.75,1729416756947.0,0.0
-3.213561,-6.874579,-4.063013,6.72,-11.55,-31.43,1729416756967.0,0.0
-3.309274,-6.719046,-4.342973,7.14,-25.27,-31.710001,1729416756988.0,0.0
-2.888137,-5.213961,-5.036892,8.4,-37.52,-29.82,1729416757008.0,0.0
-3.270989,-3.460021,-5.472386,-20.65,-43.330002,-22.82,1729416757027.0,0.0
-4.082155,-3.943372,-7.250252,-45.43,-44.310001,-7.56,1729416757050.0,0.0
-6.094519,-5.194818,-6.204589,-44.73,-36.259998,3.08,1729416757069.0,0.0
-7.288538,-4.431508,-7.020542,-21.98,-31.710001,10.85,1729416757088.0,0.0
-6.321837,-5.4341,-9.523434,-27.16,-11.62,20.790001,1729416757108.0,0.0
-5.848059,-7.06122,-9.939785,-18.9,12.39,28.84,1729416757127.0,0.0
-5.845665,-7.073184,-9.006584,10.57,23.17,29.610001,1729416757148.0,0.0
-5.769095,-7.345965,-6.853044,27.51,30.799999,27.23,1729416757168.0,0.0
-5.233103,-8.202596,-5.678168,20.370001,37.310001,20.790001,1729416757189.0,0.0
-4.486543,-9.150154,-4.465007,17.710001,39.759998,11.76,1729416757207.0,0.0
-4.285545,-10.344172,-2.433501,22.82,35.630001,-0.84,1729416757227.0,0.0
-3.562913,-10.188639,-2.17029,34.650002,21.0,-12.88,1729416757247.0,0.0
-3.713661,-8.772088,-3.074777,38.43,6.3,-23.799999,1729416757268.0,0.0
-3.809374,-6.821937,-3.991228,27.299999,-4.34,-28.07,1729416757289.0,0.0
-3.814159,-6.393622,-4.979464,16.799999,-15.26,-24.99,1729416757307.0,0.0
-3.215954,-6.513263,-5.410172,11.06,-22.33,-25.129999,1729416757327.0,0.0
-2.842674,-5.347959,-5.218746,-3.92,-31.08,-26.950001,1729416757348.0,0.0
-3.579663,-3.321238,-5.836094,-32.619999,-36.400002,-20.860001,1729416757367.0,0.0
-4.926822,-4.479364,-6.776474,-42.84,-32.34,-5.18,1729416757388.0,0.0
-6.886543,-5.101498,-6.262017,-26.880001,-24.85,5.25,1729416757407.0,0.0
-6.987042,-5.130211,-7.905886,-19.530001,-14.7,10.85,1729416757428.0,0.0
-6.108876,-6.262017,-9.47797,-24.85,5.81,16.799999,1729416757448.0,0.0
-5.431707,-6.599405,-8.695518,-7.98,21.07,20.02,1729416757468.0,0.0
-5.242674,-6.82433,-7.846066,11.34,30.309999,23.59,1729416757488.0,0.0
-5.091926,-8.341379,-6.257231,20.58,39.41,25.549999,1729416757508.0,0.0
-4.845466,-9.482756,-4.962714,18.200001,44.52,19.67,1729416757528.0,0.0
-4.59422,-10.356135,-3.491128,23.1,43.470001,8.96,1729416757547.0,0.0
-4.218546,-10.009177,-1.562513,29.75,33.529999,-7.14,1729416757568.0,0.0
-3.249453,-9.810574,-2.09372,32.689999,16.379999,-20.860001,1729416757588.0,0.0
-3.022135,-8.271988,-2.907279,26.110001,3.29,-28.700001,1729416757607.0,0.0
-3.282953,-6.963113,-4.290331,21.07,-6.3,-26.32,1729416757627.0,0.0
-3.062813,-6.855437,-4.907679,13.3,-19.74,-25.27,1729416757647.0,0.0
-2.689533,-5.529813,-5.221139,2.8,-27.02,-23.799999,1729416757667.0,0.0
-3.148954,-4.113262,-4.656433,-18.549999,-33.18,-19.809999,1729416757690.0,0.0
-3.852444,-3.177669,-6.135197,-31.08,-40.740002,-6.16,1729416757707.0,0.0
-5.359922,-5.051248,-6.853044,-38.080002,-34.580002,10.71,1729416757728.0,0.0
-7.4345,-6.106483,-5.919843,-24.639999,-25.059999,20.02,1729416757748.0,0.0
-6.896115,-6.092126,-7.721639,-19.389999,-15.61,19.74,1729416757767.0,0.0
-6.52762,-6.745367,-8.439486,-25.34,4.41,21.559999,1729416757798.0,0.0
-5.749953,-8.008778,-8.54477,-12.74,17.43,20.93,1729416757807.0,0.0
-5.106283,-7.659425,-8.645268,11.97,26.32,20.790001,1729416757828.0,0.0
-4.685147,-8.535198,-6.776474,16.59,40.32,19.67,1729416757851.0,0.0
-4.651647,-9.887143,-4.309474,21.559999,46.549999,14.7,1729416757867.0,0.0
-4.249653,-10.480563,-1.969293,25.549999,40.459999,1.68,1729416757888.0,0.0
-3.503092,-10.662418,-2.349752,31.08,26.530001,-15.61,1729416757907.0,0.0
-3.302095,-9.401401,-2.120041,39.619999,12.6,-27.299999,1729416757928.0,0.0
-3.402594,-8.693125,-2.734996,36.400002,-0.98,-34.23,1729416757948.0,0.0
-3.287738,-7.23111,-3.538985,8.96,-12.81,-35.07,1729416757967.0,0.0
-3.103491,-5.718846,-3.929015,1.12,-25.48,-34.580002,1729416757989.0,0.0
-3.065206,-5.261817,-5.161318,2.1,-38.150002,-27.719999,1729416758007.0,0.0
-4.0008,-3.404987,-6.195018,-12.95,-40.040001,-14.28,1729416758027.0,0.0
-4.864608,-3.976871,-7.166504,-17.5,-32.970001,2.87,1729416758047.0,0.0
-5.529813,-4.723432,-6.101698,-8.54,-25.48,14.42,1729416758069.0,0.0
-7.056434,-4.335794,-5.510671,2.03,-25.34,20.719999,1729416758089.0,0.0
-6.800402,-5.668597,-7.999206,-37.52,-13.72,23.799999,1729416758106.0,0.0
-5.867201,-8.080563,-9.80818,-60.549999,9.8,22.75,1729416758127.0,0.0
-5.111069,-8.133204,-8.65484,-13.72,19.32,18.76,1729416758147.0,0.0
-4.508078,-8.037491,-7.546963,14.7,27.719999,19.040001,1729416758167.0,0.0
-4.527221,-9.700503,-5.821737,14.35,41.93,18.549999,1729416758187.0,0.0
-4.522435,-10.49492,-4.725825,22.33,44.52,10.08,1729416758207.0,0.0
-4.053442,-11.205588,-2.572284,29.540001,42.139999,-2.94,1729416758227.0,0.0
-3.708875,-10.444671,-1.225125,39.549999,29.26,-19.809999,1729416758247.0,0.0
-3.113062,-9.377472,-2.062613,42.490002,12.46,-31.5,1729416758267.0,0.0
-3.275774,-7.109076,-3.512664,27.09,5.53,-34.509998,1729416758288.0,0.0
-3.591627,-5.793024,-4.089334,11.62,-4.2,-26.950001,1729416758307.0,0.0
-3.536592,-5.082355,-4.706682,14.35,-14.77,-21.210001,1729416758327.0,0.0
-2.95035,-4.910072,-4.941179,4.06,-26.040001,-17.360001,1729416758346.0,0.0
-3.055635,-2.888137,-4.847858,-23.450001,-38.43,-11.97,1729416758367.0,0.0
-4.429115,-4.45065,-5.735595,-53.760002,-43.189999,1.19,1729416758388.0,0.0
-6.276374,-4.972286,-6.058627,-45.360001,-39.060001,11.41,1729416758406.0,0.0
-6.278766,-5.075177,-8.209774,-25.549999,-27.65,25.200001,1729416758427.0,0.0
-6.558727,-7.432107,-9.466006,-33.040001,1.05,36.889999,1729416758447.0,0.0
-6.276374,-6.915257,-9.367901,-10.15,19.460001,37.099998,1729416758468.0,0.0
-5.958128,-8.243275,-8.84148,8.82,33.950001,37.029999,1729416758489.0,0.0
-5.302495,-9.475577,-6.640083,13.09,45.080002,29.610001,1729416758506.0,0.0
-4.642076,-10.841879,-3.826123,20.65,49.98,18.41,1729416758527.0,0.0
-4.194618,-12.110075,-2.455036,34.580002,43.400002,-0.56,1729416758547.0,0.0
-3.605984,-10.628918,-1.227518,45.639999,31.15,-21.98,1729416758567.0,0.0
-3.117848,-9.583255,-0.954736,38.920002,12.53,-34.09,1729416758588.0,0.0
-3.206382,-9.111869,-2.048256,20.860001,-3.85,-40.670002,1729416758607.0,0.0
-2.758924,-6.427122,-4.323831,21.84,-17.360001,-41.860001,1729416758627.0,0.0
-2.785245,-6.477371,-4.254438,6.51,-31.219999,-33.950001,1729416758646.0,0.0
-2.388037,-4.225725,-5.79063,-17.5,-40.880001,-29.610001,1729416758668.0,0.0
-2.904887,-2.785245,-6.415157,-34.16,-41.16,-14.77,1729416758689.0,0.0
-5.111069,-4.199404,-6.888937,-39.689999,-35.209999,3.64,1729416758707.0,0.0
-5.927022,-5.498707,-6.391229,-28.630001,-23.73,15.33,1729416758727.0,0.0
-7.180861,-5.728417,-5.883951,-10.99,-16.59,22.33,1729416758747.0,0.0
-5.912664,-5.903094,-8.987441,-32.619999,-3.57,24.01,1729416758767.0,0.0
-5.864808,-9.509077,-9.846465,-55.860001,23.309999,27.93,1729416758788.0,0.0
-5.618347,-9.257831,-8.492127,-8.47,32.970001,21.139999,1729416758807.0,0.0
-4.847858,-10.052249,-6.608976,28.07,38.639999,14.0,1729416758827.0,0.0
-3.895515,-10.459028,-4.780859,29.120001,44.59,3.57,1729416758850.0,0.0
-3.431308,-10.631311,-2.938386,37.73,45.080002,-6.23,1729416758867.0,0.0
-3.98405,-11.466407,-1.682154,54.529999,35.98,-21.0,1729416758891.0,0.0
-3.24706,-9.688539,-1.524228,69.160004,16.52,-40.389999,1729416758908.0,0.0
-2.993421,-7.893922,-2.388037,40.599998,3.85,-47.32,1729416758926.0,0.0
-2.624927,-7.781459,-2.955136,11.62,-5.39,-48.509998,1729416758948.0,0.0
-2.242075,-4.759324,-3.761517,1.47,-21.139999,-47.25,1729416758968.0,0.0
-2.646462,-3.962514,-5.879165,-8.19,-35.91,-28.07,1729416758987.0,0.0
-3.464807,-3.629912,-6.233303,0.14,-35.700001,-7.35,1729416759006.0,0.0
-4.54397,-2.782853,-5.000999,-0.77,-34.09,10.08,1729416759027.0,0.0
-5.02732,-3.759124,-5.919843,-9.94,-35.279999,24.710001,1729416759048.0,0.0
-5.508278,-5.455636,-6.812366,-23.940001,-25.48,39.549999,1729416759066.0,0.0
-6.565905,-6.740582,-7.908278,-30.940001,-8.82,49.349998,1729416759088.0,0.0
-6.04427,-8.003991,-9.535398,-38.360001,14.21,53.130001,1729416759106.0,0.0
-6.608976,-9.516255,-8.853443,-5.95,34.09,47.040001,1729416759127.0,0.0
-5.666204,-9.954143,-6.778866,14.14,41.790001,31.85,1729416759148.0,0.0
-4.400401,-10.849058,-5.278566,10.08,46.130001,14.49,1729416759166.0,0.0
-3.89073,-11.062018,-3.316452,20.93,45.5,1.82,1729416759189.0,0.0
-3.550949,-10.758131,-1.119841,38.779999,37.73,-9.8,1729416759207.0,0.0
-2.864209,-9.4349,-1.074377,35.91,26.460001,-19.389999,1729416759227.0,0.0
-3.208775,-9.643075,-1.923829,29.049999,13.37,-26.040001,1729416759246.0,0.0
-3.259024,-8.77448,-2.567499,42.279999,-3.36,-32.130001,1729416759266.0,0.0
-1.990828,-5.391029,-3.156133,38.150002,-18.690001,-29.960001,1729416759289.0,0.0
-2.268396,-7.070791,-4.199404,-14.77,-25.969999,-15.190001,1729416759306.0,0.0
-2.730211,-3.529413,-5.079963,-21.559999,-43.119999,-11.62,1729416759326.0,0.0
-4.321437,-4.522435,-5.814559,-41.93,-43.959999,6.16,1729416759347.0,0.0
-5.699703,-6.386444,-7.377072,-53.200001,-36.470001,15.33,1729416759366.0,0.0
-6.518049,-6.680761,-7.022934,-26.25,-24.780001,19.040001,1729416759442.0,0.0
-7.575676,-5.448457,-7.810174,-13.37,-12.6,19.32,1729416759442.0,0.0
-6.144768,-8.037491,-9.174082,-42.0,11.9,22.120001,1729416759443.0,0.0
-5.757132,-8.901299,-9.824929,-28.139999,30.940001,16.73,1729416759451.0,0.0
-5.345565,-8.714661,-8.185846,11.48,41.509998,13.02,1729416759466.0,0.0
-4.819145,-9.506684,-5.304887,25.690001,53.200001,8.75,1729416759487.0,0.0
-3.988836,-9.52822,-2.09372,32.619999,53.48,1.19,1729416759506.0,0.0
-3.010171,-10.336994,-0.323031,33.810001,44.310001,-10.99,1729416759525.0,0.0
-2.522035,-9.298509,0.358923,25.129999,26.67,-19.25,1729416759548.0,0.0
-2.533999,-9.633504,-1.210768,17.360001,7.14,-24.92,1729416759566.0,0.0
-2.502892,-7.532606,-1.672583,25.76,-13.440001,-26.389999,1729416759586.0,0.0
-2.392823,-6.104091,-3.37388,14.21,-29.68,-17.780001,1729416759605.0,0.0
-2.086541,-5.819345,-5.599205,-0.21,-37.73,-5.95,1729416759625.0,0.0
-3.469593,-4.493721,-6.640083,-19.879999,-38.150002,-2.73,1729416759645.0,0.0
-4.496114,-2.840281,-5.534599,-33.880001,-37.380001,13.65,1729416759665.0,0.0
-5.584848,-6.369694,-6.778866,-30.24,-33.32,23.24,1729416759687.0,0.0
-7.611568,-6.01077,-6.209375,-0.42,-28.77,25.9,1729416759707.0,0.0
-7.216753,-5.888737,-9.327222,-27.93,-10.01,23.52,1729416759725.0,0.0
-7.286145,-9.686146,-9.45165,-53.27,22.75,19.6,1729416759746.0,0.0
-6.398407,-7.898707,-7.755138,-6.79,29.540001,9.66,1729416759765.0,0.0
-5.065606,-9.360723,-6.628119,17.710001,36.68,7.42,1729416759786.0,0.0
-4.400401,-9.600004,-4.673182,21.139999,43.959999,1.96,1729416759805.0,0.0
-3.785445,-10.540384,-3.113062,24.290001,46.619999,-5.25,1729416759825.0,0.0
-3.254239,-10.576276,-1.722832,35.91,37.099998,-19.67,1729416759851.0,0.0
-2.495714,-8.886944,-1.325624,36.470001,23.24,-30.66,1729416759866.0,0.0
-2.158326,-8.394022,-2.321038,21.35,10.08,-32.830002,1729416759886.0,0.0
-2.129612,-5.912664,-2.478964,24.290001,-7.14,-30.799999,1729416759905.0,0.0
-2.727818,-4.792823,-4.012764,12.67,-18.9,-16.66,1729416759925.0,0.0
-2.376073,-6.534799,-5.261817,8.96,-29.610001,-9.03,1729416759946.0,0.0
-3.771089,-3.352344,-4.639683,-11.41,-37.66,-6.93,1729416759967.0,0.0
-4.960321,-5.766702,-6.029913,-63.209999,-35.630001,12.67,1729416759987.0,0.0
-6.116055,-7.262216,-5.82413,-31.99,-34.509998,15.33,1729416760005.0,0.0
-7.269395,-6.104091,-8.003991,-6.86,-27.790001,19.040001,1729416760025.0,0.0
-6.9679,-8.171489,-9.028119,-38.360001,1.96,17.290001,1729416760047.0,0.0
-5.919843,-8.319844,-8.441878,-27.860001,23.17,15.89,1729416760066.0,0.0
-5.498707,-8.595018,-8.377272,1.82,33.389999,15.12,1729416760087.0,0.0
-4.996214,-10.183852,-6.568298,26.25,45.080002,12.46,1729416760107.0,0.0
-3.828516,-9.894321,-3.876373,39.970001,48.93,1.75,1729416760126.0,0.0
-3.326023,-10.609775,-1.926222,48.16,44.310001,-12.74,1729416760145.0,0.0
-2.952743,-9.693325,-0.002393,44.029999,30.450001,-25.129999,1729416760167.0,0.0
-2.222932,-9.296116,-1.476372,24.08,10.78,-33.670002,1729416760186.0,0.0
-2.555535,-7.877172,-2.29711,31.92,-5.74,-35.420002,1729416760205.0,0.0
-2.019542,-6.556334,-3.108276,38.43,-21.77,-28.77,1729416760226.0,0.0
-2.474179,-5.532206,-3.385844,11.41,-32.48,-22.960001,1729416760245.0,0.0
-2.651247,-5.644669,-5.032106,-14.35,-39.619999,-8.82,1729416760265.0,0.0
-3.52702,-4.481757,-6.288338,-26.950001,-38.639999,-4.48,1729416760287.0,0.0
-5.809773,-4.45065,-5.702096,-11.97,-38.990002,14.35,1729416760305.0,0.0
-6.252446,-6.290731,-5.611169,-10.22,-28.700001,28.630001,1729416760326.0,0.0
-7.585248,-6.573084,-5.690133,0.21,-23.1,27.299999,1729416760347.0,0.0
-6.735795,-6.640083,-7.389036,-27.719999,-9.38,21.98,1729416760365.0,0.0
-5.661418,-9.506684,-9.233903,-64.400002,16.66,18.549999,1729416760386.0,0.0
-5.051248,-9.461221,-8.894121,-24.01,27.51,10.64,1729416760405.0,0.0
-4.275974,-8.987441,-7.432107,21.07,35.279999,9.45,1729416760425.0,0.0
-4.12044,-9.966106,-5.134997,25.41,48.439999,7.49,1729416760446.0,0.0
-3.696911,-10.949556,-2.76371,25.27,50.75,-2.73,1729416760467.0,0.0
-3.326023,-11.52862,-1.751546,41.790001,39.48,-21.84,1729416760486.0,0.0
-3.046063,-9.265009,-0.51685,55.790001,23.870001,-34.23,1729416760506.0,0.0
-2.074577,-8.805587,-2.22054,34.860001,7.63,-36.540001,1729416760525.0,0.0
-2.749353,-8.539984,-2.62732,33.880001,-2.31,-34.16,1729416760546.0,0.0
-2.309074,-7.448857,-3.481557,44.66,-14.0,-30.380001,1729416760565.0,0.0
-2.414358,-6.580262,-3.826123,37.799999,-23.24,-24.639999,1729416760586.0,0.0
-2.074577,-3.732803,-3.28056,5.81,-27.860001,-14.91,1729416760605.0,0.0
-3.718446,-5.257031,-2.926422,-46.549999,-33.810001,-3.64,1729416760625.0,0.0
-5.472386,-7.118648,-5.596812,-42.77,-47.040001,2.87,1729416760645.0,0.0
-5.331209,-6.417551,-6.163911,3.01,-43.68,9.17,1729416760665.0,0.0
-7.133004,-6.568298,-4.613362,3.36,-33.110001,12.95,1729416760685.0,0.0
-6.752545,-7.810174,-7.286145,-16.17,-20.58,9.87,1729416760705.0,0.0
-5.082355,-8.958728,-8.695518,-12.11,-0.91,5.18,1729416760726.0,0.0
-3.952943,-8.224132,-7.558927,27.370001,11.76,9.17,1729416760745.0,0.0
-4.275974,-8.712267,-6.994221,61.810001,21.210001,13.79,1729416760766.0,0.0
-4.13719,-8.508877,-5.807381,93.239998,32.549999,14.77,1729416760787.0,0.0
-3.864408,-8.800802,-4.311867,131.529999,40.110001,13.58,1729416760805.0,0.0
-3.98405,-9.188439,-2.426322,159.740005,43.119999,7.0,1729416760825.0,0.0
-4.232903,-9.695717,-1.270589,173.529999,39.41,-1.47,1729416760848.0,0.0
-3.943372,-9.899107,-1.22034,173.949997,34.16,-7.56,1729416760865.0,0.0
-3.404987,-10.097712,0.01675,175.839996,27.51,-10.36,1729416760887.0,0.0
-3.383451,-9.499505,0.612563,180.25,17.43,-9.66,1729416760905.0,0.0
-3.63709,-8.224132,0.648455,185.710007,10.85,-4.13,1729416760925.0,0.0
-4.297509,-7.992027,1.342373,190.119995,8.75,4.69,1729416760946.0,0.0
-3.960121,-8.185846,1.392623,201.669998,1.47,13.02,1729416760964.0,0.0
-3.917051,-8.300702,1.624727,263.480011,-9.1,28.07,1729416760985.0,0.0
-4.713861,-8.298308,3.134598,311.290009,-18.34,39.48,1729416761006.0,0.0
-5.218746,-8.386844,3.069991,319.549988,-16.309999,38.920002,1729416761026.0,0.0
-4.529613,-10.028319,3.481557,300.720001,-12.74,29.889999,1729416761045.0,0.0
-3.29731,-11.535798,3.050849,264.73999,0.63,8.19,1729416761066.0,0.0
-3.294917,-9.284152,3.529413,272.440002,8.4,-5.88,1729416761087.0,0.0
-4.766503,-4.567898,4.393222,284.130005,7.49,-9.03,1729416761104.0,0.0
-5.276174,-3.912265,6.470192,237.020004,-0.42,-5.53,1729416761124.0,0.0
-5.285746,-5.62074,6.463014,171.639999,-4.27,-16.870001,1729416761145.0,0.0
-6.91765,-8.530413,7.532606,180.389999,-5.11,-26.6,1729416761166.0,0.0
-7.082755,-4.639683,7.585248,199.289993,-8.12,-45.43,1729416761186.0,0.0
-6.458229,-2.794817,6.884151,124.739998,-11.62,-59.150002,1729416761204.0,0.0
-5.187639,-4.498507,6.329016,39.900002,-5.88,-69.510002,1729416761224.0,0.0
-2.895315,-1.014557,7.523034,20.719999,5.53,-70.419998,1729416761246.0,0.0
-3.129812,-2.230111,7.436893,-2.38,9.87,-58.59,1729416761266.0,0.0
-3.024528,-2.088934,7.599605,22.4,-0.49,-42.139999,1729416761286.0,0.0
-2.79721,0.291924,8.633304,45.57,-3.99,-24.360001,1729416761306.0,0.0
-2.708675,0.301496,7.377072,4.2,-2.38,1.75,1729416761324.0,0.0
-3.0006,-1.813759,6.099305,-18.690001,5.74,11.69,1729416761345.0,0.0
-2.285146,-1.67019,6.381658,15.4,16.030001,24.99,1729416761367.0,0.0
-2.617748,-1.064806,6.699903,37.099998,26.950001,36.959999,1729416761386.0,0.0
-3.017349,-0.521635,5.907879,36.049999,36.189999,50.610001,1729416761404.0,0.0
-5.331209,-3.072384,6.441479,12.67,45.849998,64.889999,1729416761425.0,0.0
-8.061419,-8.439486,7.075576,18.48,43.400002,60.970001,1729416761446.0,0.0
-8.250452,-8.506484,9.296116,65.730003,31.710001,40.459999,1729416761465.0,0.0
-7.649854,-6.659225,11.787045,53.130001,16.66,5.39,1729416761488.0,0.0
-5.678168,-4.661219,9.937392,25.9,0.42,-12.81,1729416761504.0,0.0
-6.776474,-5.907879,9.652647,1.54,-12.04,-24.5,1729416761524.0,0.0
-7.085148,-6.711867,8.69791,13.23,-25.41,-36.259998,1729416761546.0,0.0
-6.192625,-3.113062,7.183254,28.91,-30.380001,-49.77,1729416761564.0,0.0
-6.441479,-3.448057,6.845865,1.82,-25.690001,-60.760002,1729416761587.0,0.0
-4.09412,-0.495314,7.692925,-3.01,-22.33,-69.440002,1729416761604.0,0.0
-1.899901,1.155733,8.030313,-11.13,-15.68,-57.330002,1729416761624.0,0.0
-1.895115,0.504886,7.501499,-41.16,-9.59,-38.5,1729416761644.0,0.0
-1.428515,1.954936,7.401,-21.0,-4.34,-2.38,1729416761666.0,0.0
-1.962115,0.184247,6.439085,-22.190001,3.78,23.24,1729416761684.0,0.0
-2.943172,-2.634498,6.608976,-22.75,16.59,36.189999,1729416761704.0,0.0
-2.251646,-1.861616,6.862615,2.8,26.110001,46.130001,1729416761726.0,0.0
-3.452843,-1.978864,7.106683,12.81,34.580002,60.830002,1729416761745.0,0.0
-4.634897,-1.478764,6.678369,-3.08,41.16,72.029999,1729416761764.0,0.0
-8.848659,-6.008378,7.709675,-25.549999,41.720001,77.419998,1729416761785.0,0.0
-11.45205,-10.377672,8.623734,-27.93,29.610001,48.299999,1729416761804.0,0.0
-9.379865,-10.009177,8.953942,14.49,6.93,6.44,1729416761826.0,0.0
-7.683353,-5.821737,9.212367,45.709999,-7.07,-29.68,1729416761848.0,0.0
-7.558927,-3.885944,8.377272,27.23,-16.17,-46.34,1729416761864.0,0.0
-7.238289,-5.383851,6.556334,-6.51,-20.299999,-55.439999,1729416761885.0,0.0
-6.417551,-7.23111,6.218946,-8.47,-19.6,-75.809998,1729416761904.0,0.0
-4.141976,-3.318845,8.865408,51.66,-16.1,-93.099998,1729416761925.0,0.0
-1.402194,3.091527,10.269995,60.060001,-18.200001,-87.290001,1729416761946.0,0.0
0.705883,5.635098,9.181261,-15.61,-19.6,-61.110001,1729416761965.0,0.0
-0.153141,1.122234,6.096912,-83.160004,-15.33,-16.52,1729416761985.0,0.0
-1.794617,-1.739582,4.850252,-57.400002,2.24,32.689999,1729416762005.0,0.0
-1.648655,0.770489,5.690133,6.23,20.299999,58.799999,1729416762024.0,0.0
-3.775874,-0.124427,6.151947,14.07,36.259998,83.300003,1729416762045.0,0.0
-6.441479,-2.333002,7.479963,-1.89,45.920002,100.730003,1729416762066.0,0.0
-11.459228,-9.664611,9.542577,-21.35,44.66,99.330002,1729416762087.0,0.0
-13.739587,-12.468999,9.296116,-20.719999,22.610001,47.740002,1729416762104.0,0.0
-10.399208,-9.521042,9.566505,26.809999,-6.09,-10.01,1729416762125.0,0.0
-7.288538,-5.436492,8.958728,48.509998,-23.1,-45.639999,1729416762147.0,0.0
-5.79063,-3.730411,7.432107,8.89,-28.280001,-60.830002,1729416762164.0,0.0
-6.197411,-7.267002,6.288338,-18.969999,-28.91,-64.68,1729416762185.0,0.0
-4.362115,-5.757132,6.9344,24.710001,-27.65,-80.290001,1729416762205.0,0.0
-3.029313,-2.007578,8.733803,67.410004,-25.76,-84.559998,1729416762225.0,0.0
-0.72024,3.598805,8.65484,49.139999,-24.99,-76.650002,1729416762245.0,0.0
0.789631,5.020142,8.197811,-21.35,-18.41,-46.060001,1729416762265.0,0.0
0.648455,2.447858,6.037091,-70.699997,-8.4,-1.75,1729416762285.0,0.0
-1.371087,-0.543171,4.721039,-59.010002,6.09,35.07,1729416762305.0,0.0
-2.098505,0.942772,6.364908,-8.89,22.82,65.239998,1729416762326.0,0.0
-4.704289,-0.976272,6.336195,9.24,43.68,102.199997,1729416762344.0,0.0
-8.181061,-3.816552,8.252845,-15.82,52.360001,110.459999,1729416762364.0,0.0
-14.146368,-11.270195,9.207582,-50.75,43.119999,87.989998,1729416762386.0,0.0
-12.490535,-11.389835,7.779066,-32.549999,13.3,28.630001,1729416762405.0,0.0
-9.501899,-9.468399,7.255038,18.27,-9.73,-31.08,1729416762423.0,0.0
-6.541977,-4.503292,7.453642,50.68,-13.86,-60.27,1729416762444.0,0.0
-6.309873,-5.249853,6.762117,16.52,-13.23,-67.129997,1729416762463.0,0.0
-5.623133,-6.4343,6.805188,0.56,-14.49,-82.18,1729416762485.0,0.0
-4.309474,-4.101298,8.480164,49.07,-16.450001,-88.410004,1729416762506.0,0.0
-2.316252,-4.101298,9.485149,63.91,-19.18,-90.580002,1729416762525.0,0.0
0.394816,5.173282,9.320045,36.119999,-18.48,-73.220001,1729416762544.0,0.0
0.940379,4.627719,8.075776,-32.970001,-12.11,-31.780001,1729416762565.0,0.0
-0.081356,1.672583,5.704489,-68.809998,-2.52,14.98,1729416762587.0,0.0
-2.620141,-0.959522,4.706682,-52.009998,12.67,49.77,1729416762604.0,0.0
-2.711068,0.20339,5.335995,-5.53,28.139999,77.0,1729416762625.0,0.0
-5.505885,-1.359123,5.364708,-2.17,42.77,96.040001,1729416762644.0,0.0
-10.19821,-6.305088,8.73141,-18.549999,50.470001,101.360001,1729416762663.0,0.0
-15.340386,-13.409377,9.320045,-31.290001,31.15,59.220001,1729416762684.0,0.0
-12.41875,-11.023734,9.29133,20.860001,-4.76,-6.58,1729416762705.0,0.0
-7.37468,-4.919643,8.901299,56.420002,-20.790001,-56.560001,1729416762723.0,0.0
-5.611169,-3.251846,7.082755,10.08,-21.35,-71.400002,1729416762745.0,0.0
-6.381658,-7.274181,6.240481,-38.009998,-18.200001,-82.040001,1729416762764.0,0.0
-4.072584,-5.268995,7.987241,19.110001,-18.059999,-92.68,1729416762784.0,0.0
-2.309074,-0.387637,9.84168,71.260002,-24.01,-91.419998,1729416762803.0,0.0
0.634098,4.945964,8.894121,53.27,-28.280001,-69.860001,1729416762823.0,0.0
2.06022,6.537192,6.144768,-20.09,-15.89,-27.51,1729416762848.0,0.0
-0.658026,0.887737,5.608776,-80.779999,5.39,19.67,1729416762866.0,0.0
-3.376273,-1.964507,4.275974,-56.279999,16.73,48.509998,1729416762886.0,0.0
-2.222932,0.933201,5.807381,20.440001,26.67,77.559998,1729416762905.0,0.0
-5.003392,-1.306481,6.149554,9.87,41.369999,98.559998,1729416762923.0,0.0
-7.310073,-3.503092,7.369894,-12.46,50.259998,109.690002,1729416762945.0,0.0
-12.425928,-12.492928,9.772287,-26.74,45.5,99.470001,1729416762965.0,0.0
-14.505291,-14.615361,9.549755,-19.460001,17.85,33.040001,1729416762985.0,0.0
-7.855636,-4.572684,9.004191,56.07,-22.190001,-44.240002,1729416763003.0,0.0
-7.223931,-3.120241,6.896115,11.06,-28.42,-63.77,1729416763025.0,0.0
-6.491727,-6.147161,5.472386,-25.620001,-28.35,-73.43,1729416763047.0,0.0
-5.072784,-5.685347,6.357729,16.799999,-22.75,-87.220001,1729416763065.0,0.0
-3.548556,-1.730011,8.379664,77.489998,-22.049999,-88.970001,1729416763086.0,0.0
-0.882952,3.189633,8.944371,76.090004,-23.66,-72.029999,1729416763104.0,0.0
1.07677,6.116055,7.800602,5.18,-12.6,-42.490002,1729416763124.0,0.0
0.01675,1.89033,6.759724,-64.400002,1.12,0.98,1729416763147.0,0.0
-2.28036,-1.739582,5.194818,-62.790001,10.99,33.880001,1729416763170.0,0.0
-1.832902,0.734596,6.041877,5.39,19.950001,66.010002,1729416763184.0,0.0
-4.132405,-0.315853,6.484549,4.97,32.200001,92.120003,1729416763203.0,0.0
-6.233303,-1.792224,5.864808,-19.040001,39.759998,110.529999,1729416763226.0,0.0
-11.260624,-10.660025,8.585447,-35.77,45.150002,109.550003,1729416763245.0,0.0
-13.94537,-12.562319,8.482556,-39.759998,27.719999,51.450001,1729416763265.0,0.0
-10.097712,-7.972885,8.987441,23.309999,-4.62,-2.31,1729416763285.0,0.0
-9.286544,-6.149554,9.274581,37.310001,-20.58,-38.709999,1729416763303.0,0.0
-6.788438,-4.778467,6.173482,-0.91,-34.16,-68.599998,1729416763324.0,0.0
-6.290731,-6.848258,6.699903,-6.58,-32.130001,-87.43,1729416763346.0,0.0
-3.337988,-2.500499,7.843673,53.970001,-32.34,-92.889999,1729416763366.0,0.0
-0.571885,3.471986,7.936993,63.77,-29.190001,-77.769997,1729416763384.0,0.0
1.119841,7.042077,7.587641,1.05,-15.82,-42.560001,1729416763404.0,0.0
0.181855,3.141776,6.568298,-77.980003,-2.73,4.2,1729416763425.0,0.0
-1.347159,-1.284946,5.292924,-77.769997,8.68,38.360001,1729416763444.0,0.0
-2.124826,0.514457,6.805188,-4.83,21.559999,76.019997,1729416763465.0,0.0
-4.338188,0.086142,6.628119,-2.66,32.830002,100.870003,1729416763486.0,0.0
-6.920043,-2.605784,6.601797,-31.85,42.0,117.879997,1729416763505.0,0.0
-13.849657,-11.444871,8.207381,-62.650002,44.66,104.510002,1729416763525.0,0.0
-14.155938,-11.198411,6.742974,-36.049999,20.440001,47.599998,1729416763546.0,0.0
-9.195618,-8.815158,8.4012,22.26,-2.31,-7.35,1729416763567.0,0.0
-9.576077,-6.372087,8.015956,40.880001,-18.41,-43.82,1729416763587.0,0.0
-7.32443,-6.762117,6.762117,29.68,-26.67,-65.800003,1729416763607.0,0.0
-6.319445,-6.951149,8.049455,33.950001,-31.639999,-93.379997,1729416763625.0,0.0
-3.711268,-1.213161,8.532805,70.279999,-35.98,-101.290001,1729416763646.0,0.0
-0.614955,4.462614,8.006385,44.799999,-37.52,-85.889999,1729416763665.0,0.0
0.318245,4.869394,6.896115,-32.549999,-27.65,-49.490002,1729416763687.0,0.0
-0.325424,0.430708,5.831308,-79.590004,-14.56,-11.76,1729416763706.0,0.0
-1.112662,-2.28036,5.568098,-49.98,1.4,16.24,1729416763726.0,0.0
-2.806781,-2.132005,6.221339,8.75,14.84,41.16,1729416763747.0,0.0
-2.586641,-0.021535,6.769295,39.619999,24.92,60.830002,1729416763766.0,0.0
-4.235296,-0.949951,7.733603,13.23,37.59,80.43,1729416763786.0,0.0
-6.76451,-4.06062,8.154739,-29.26,42.630001,89.18,1729416763805.0,0.0
-11.251052,-9.547362,8.496914,-39.27,36.119999,78.959999,1729416763827.0,0.0
-14.510076,-11.947363,8.815158,-10.5,14.0,33.040001,1729416763849.0,0.0
-9.24108,-7.063612,8.312666,40.389999,-14.7,-27.02,1729416763865.0,0.0
-6.78126,-4.070191,6.575477,33.459999,-21.0,-57.610001,1729416763891.0,0.0
-5.960521,-5.522634,5.757132,-5.53,-17.01,-67.620003,1729416763905.0,0.0
-6.125626,-8.501699,6.417551,-8.47,-13.440001,-83.580002,1729416763926.0,0.0
-3.658626,-1.818545,9.889536,56.84,-15.05,-93.239998,1729416763946.0,0.0
-1.651048,3.005385,9.473185,65.940002,-25.76,-78.050003,1729416763965.0,0.0
0.638884,6.254838,8.015956,0.35,-21.49,-51.240002,1729416763988.0,0.0
-0.177069,3.225525,6.314659,-70.0,-9.17,-6.44,1729416764005.0,0.0
-2.289931,-1.617548,4.565506,-75.809998,4.13,29.33,1729416764025.0,0.0
-1.734797,0.705883,5.589634,5.53,16.870001,59.010002,1729416764076.0,0.0
-3.232704,0.567099,6.910471,31.219999,31.219999,87.010002,1729416764078.0,0.0
-5.895915,-2.038685,6.21416,-6.65,41.369999,101.849998,1729416764095.0,0.0
-9.487542,-7.599605,8.609376,-29.610001,46.619999,101.360001,1729416764106.0,0.0
-13.756337,-13.58884,8.484949,-43.75,32.619999,57.189999,1729416764125.0,0.0
-10.526026,-9.166903,8.525627,24.219999,4.2,5.11,1729416764149.0,0.0
-7.798209,-5.694918,9.19801,61.110001,-12.18,-33.810001,1729416764165.0,0.0
-7.4345,-4.639683,8.487342,33.25,-23.030001,-53.130001,1729416764190.0,0.0
-7.982457,-7.592427,7.422535,-4.13,-32.830002,-71.610001,1729416764208.0,0.0
-5.257031,-5.493921,7.582855,31.15,-37.66,-89.32,1729416764278.0,0.0
-2.62732,0.208176,8.015956,61.25,-38.150002,-91.07,1729416764279.0,0.0
2.069792,7.563712,6.386444,34.09,-28.98,-69.370003,1729416764279.0,0.0
0.526421,3.515057,6.896115,-25.76,-6.93,0.14,1729416764285.0,0.0
-3.136991,-1.488336,6.123233,-68.529999,11.83,37.310001,1729416764304.0,0.0
-2.912065,0.545564,6.211767,-11.62,15.96,65.660004,1729416764324.0,0.0
-3.957729,-0.339781,6.18784,-15.190001,28.49,86.239998,1729416764345.0,0.0
-5.228317,-1.540978,4.883751,-37.59,42.700001,102.900002,1729416764367.0,0.0
-10.004392,-8.906086,7.015756,-44.380001,55.580002,109.760002,1729416764449.0,0.0
-14.447863,-13.914263,8.542377,-37.029999,40.040001,59.639999,1729416764451.0,0.0
-11.014162,-8.927622,9.62154,37.73,1.82,4.69,1729416764451.0,0.0
-8.566305,-4.917251,8.530413,48.580002,-17.85,-41.439999,1729416764451.0,0.0
-6.032306,-3.175276,6.532406,4.83,-20.440001,-62.720001,1729416764468.0,0.0
-6.80758,-6.85783,7.077969,-22.33,-14.84,-74.129997,1729416764503.0,0.0
-4.838287,-4.668397,8.786445,34.23,-17.780001,-85.68,1729416764508.0,0.0
-3.421736,-0.535992,9.832108,67.830002,-25.969999,-81.900002,1729416764525.0,0.0
-0.870987,3.885944,7.537392,39.27,-29.120001,-68.040001,1729416764546.0,0.0
1.261017,4.845466,6.530013,-26.389999,-16.52,-31.290001,1729416764566.0,0.0
-0.619741,0.409173,5.173282,-83.300003,4.06,8.89,1729416764587.0,0.0
-2.663212,-1.282553,5.233103,-44.869999,16.59,42.490002,1729416764606.0,0.0
-3.232704,0.835095,5.924629,22.75,31.92,84.07,1729416764624.0,0.0
-5.242674,-0.698704,6.632904,-0.28,47.25,106.610001,1729416764646.0,0.0
-11.715261,-10.748559,8.673983,-31.57,53.48,113.540001,1729416764665.0,0.0
-16.256836,-15.05564,9.501899,-46.830002,35.209999,50.82,1729416764686.0,0.0
-9.750752,-8.082954,9.028119,23.73,-7.56,-13.09,1729416764705.0,0.0
-7.599605,-4.65404,8.362915,36.82,-19.25,-48.439999,1729416764727.0,0.0
-7.032506,-4.292724,6.999006,5.18,-23.870001,-63.209999,1729416764747.0,0.0
-7.618747,-8.216952,6.534799,-8.89,-27.16,-77.559998,1729416764766.0,0.0
-5.113462,-5.991628,7.649854,50.610001,-29.4,-97.300003,1729416764786.0,0.0
-3.04367,0.200997,9.047262,90.860001,-32.34,-99.050003,1729416764805.0,0.0
0.337388,6.116055,7.678568,53.34,-30.24,-79.940002,1729416764825.0,0.0
1.091127,6.094519,7.219146,-33.110001,-11.62,-36.049999,1729416764848.0,0.0
-1.057628,0.418744,5.316852,-92.540001,1.47,6.44,1729416764865.0,0.0
-2.538785,-0.741775,4.76411,-43.330002,12.53,41.860001,1729416764886.0,0.0
-2.675175,1.201197,6.125626,25.76,25.059999,76.090004,1729416764905.0,0.0
-5.276174,-0.562313,5.76431,4.34,39.759998,94.290001,1729416764926.0,0.0
-7.609176,-3.905087,9.279366,-14.0,48.369999,107.379997,1729416764946.0,0.0
-15.483955,-14.565112,9.638289,-25.48,31.57,51.310001,1729416764970.0,0.0
-10.9352,-8.575876,9.561719,34.509998,-9.24,-10.22,1729416764985.0,0.0
-7.104291,-3.972085,8.394022,46.200001,-24.57,-49.77,1729416765005.0,0.0
-6.553941,-4.572684,7.197611,2.31,-25.690001,-64.400002,1729416765025.0,0.0
-6.616155,-7.345965,6.817152,-19.950001,-25.059999,-79.519997,1729416765045.0,0.0
-4.347759,-4.668397,7.60439,32.060001,-26.110001,-91.629997,1729416765065.0,0.0
-2.275574,0.344566,8.047063,65.099998,-30.450001,-86.590004,1729416765086.0,0.0
0.567099,5.630312,6.415157,38.990002,-24.710001,-60.200001,1729416765111.0,0.0
0.083749,5.391029,6.991827,-27.09,-4.69,-16.1,1729416765125.0,0.0
-2.148755,0.337388,5.814559,-77.840004,4.83,22.049999,1729416765201.0,0.0
-2.811567,0.210568,5.422136,-37.939999,11.76,54.810001,1729416765201.0,0.0
-3.242275,0.89013,6.333801,6.58,22.82,87.639999,1729416765201.0,0.0
-5.498707,-0.897308,6.116055,-18.200001,37.029999,106.68,1729416765211.0,0.0
-7.573284,-4.795217,7.661818,-39.830002,47.040001,116.830002,1729416765224.0,0.0
-13.974084,-13.117454,9.042477,-56.91,42.77,85.470001,1729416765246.0,0.0
-12.811172,-11.937792,9.298509,-6.16,10.57,25.969999,1729416765264.0,0.0
-7.989635,-5.233103,8.343772,28.98,-22.120001,-43.189999,1729416765284.0,0.0
-6.525227,-5.032106,6.52762,-2.38,-27.93,-62.790001,1729416765304.0,0.0
-6.982256,-7.389036,5.831308,-16.940001,-26.110001,-77.910004,1729416765325.0,0.0
-4.998606,-5.000999,7.228717,37.52,-24.710001,-91.419998,1729416765345.0,0.0
-2.782853,0.363709,8.386844,73.989998,-27.58,-88.410004,1729416765364.0,0.0
0.246461,6.037091,6.946364,48.720001,-24.43,-63.84,1729416765385.0,0.0
0.217747,5.661418,7.647461,-26.6,-7.91,-19.040001,1729416765405.0,0.0
-1.629512,0.174676,6.049056,-89.949997,2.24,20.58,1729416765425.0,0.0
-2.191825,-0.459422,5.584848,-54.880001,11.55,51.450001,1729416765445.0,0.0
-2.986243,0.411566,6.211767,-2.38,23.870001,87.220001,1729416765464.0,0.0
-5.474778,-0.784846,5.635098,-16.450001,38.779999,105.910004,1729416765486.0,0.0
-8.118847,-5.907879,7.384251,-33.459999,49.349998,114.870003,1729416765505.0,0.0
-14.715858,-13.198811,7.869993,-46.900002,46.060001,76.790001,1729416765525.0,0.0
-12.643675,-10.954341,8.925228,15.47,13.58,19.32,1729416765545.0,0.0
-10.140782,-6.606583,9.059227,42.490002,-11.48,-35.139999,1729416765565.0,0.0
-6.589834,-4.342973,6.111269,18.27,-26.809999,-67.410004,1729416765585.0,0.0
-6.991827,-7.700103,5.082355,-10.78,-20.860001,-87.220001,1729416765606.0,0.0
-5.532206,-6.06102,7.329216,53.48,-14.14,-101.220001,1729416765627.0,0.0
-3.821337,-0.129212,9.439686,96.809998,-17.710001,-104.650002,1729416765647.0,0.0
-0.643669,5.656632,7.798209,64.190002,-22.889999,-85.75,1729416765666.0,0.0
1.947758,6.999006,7.013363,-12.81,-8.68,-37.799999,1729416765687.0,0.0
-0.327817,2.096112,5.74756,-83.160004,9.87,10.85,1729416765707.0,0.0
-2.732604,-0.732204,5.455636,-56.0,19.950001,50.189999,1729416765725.0,0.0
-2.725425,0.531207,6.34098,15.12,26.74,83.300003,1729416765747.0,0.0
-5.276174,-1.294517,6.374479,6.65,41.09,102.410004,1729416765767.0,0.0
-7.757531,-4.491328,7.802995,-17.5,50.400002,111.93,1729416765787.0,0.0
-13.718053,-13.993226,9.107083,-40.810001,44.310001,88.830002,1729416765808.0,0.0
-14.210974,-11.997612,9.52822,7.0,14.63,26.950001,1729416765826.0,0.0
-9.710074,-4.95075,9.408579,47.880001,-15.26,-28.77,1729416765852.0,0.0
-5.496314,-3.943372,5.491528,-2.59,-27.58,-55.510002,1729416765868.0,0.0
-6.285945,-8.961121,5.309673,-44.73,-21.559999,-64.959999,1729416765887.0,0.0
-5.146961,-6.297909,8.114061,46.689999,-16.030001,-73.290001,1729416765906.0,0.0
-4.072584,-0.136391,10.004392,86.449997,-25.620001,-75.459999,1729416765930.0,0.0
-1.74676,4.254438,8.087741,48.16,-34.09,-65.730003,1729416765947.0,0.0
0.722632,6.506085,6.240481,-26.6,-22.469999,-31.710001,1729416765968.0,0.0
-1.09352,1.634298,4.945964,-89.879997,-1.19,14.0,1729416765988.0,0.0
-3.115455,-0.37328,5.436492,-58.52,13.37,52.639999,1729416766007.0,0.0
-3.979264,0.387637,6.003592,3.71,19.389999,83.160004,1729416766027.0,0.0
-5.675776,-0.729811,5.795416,-1.33,30.940001,100.169998,1729416766047.0,0.0
-9.006584,-6.905686,7.147361,-15.89,41.580002,106.400002,1729416766067.0,0.0
-13.69173,-11.918649,8.066205,-23.66,35.630001,67.269997,1729416766092.0,0.0
-11.265409,-10.202995,9.899107,30.17,5.11,18.27,1729416766108.0,0.0
-8.944371,-6.678369,9.690931,50.330002,-19.530001,-28.98,1729416766126.0,0.0
-7.166504,-3.929015,6.754939,14.0,-33.389999,-60.41,1729416766147.0,0.0
-7.520642,-7.314859,5.201996,-24.43,-31.15,-75.110001,1729416766167.0,0.0
-6.38405,-7.585248,6.204589,19.74,-26.950001,-96.459999,1729416766187.0,0.0
-4.713861,-2.057827,8.834301,89.389999,-25.549999,-105.489998,1729416766206.0,0.0
-0.61017,6.04427,7.546963,47.25,-26.880001,-82.32,1729416766226.0,0.0
1.249053,6.879365,6.628119,-29.190001,-12.88,-35.209999,1729416766247.0,0.0
-1.421337,1.191626,5.508278,-90.860001,4.41,13.72,1729416766267.0,0.0
-3.09392,-0.646062,5.123034,-54.740002,13.37,48.299999,1729416766288.0,0.0
-3.110669,1.06002,5.773881,11.48,20.51,81.269997,1729416766306.0,0.0
-5.206782,-0.851845,5.13739,-3.99,35.139999,100.519997,1729416766326.0,0.0
-6.970293,-3.352344,6.661618,-23.379999,49.139999,113.75,1729416766347.0,0.0
-12.875778,-12.576675,8.267202,-46.900002,51.029999,99.120003,1729416766367.0,0.0
-14.299508,-12.787244,9.62154,-13.16,24.639999,38.360001,1729416766387.0,0.0
-10.205389,-6.728617,9.906286,33.670002,-8.75,-18.620001,1729416766412.0,0.0
-7.692925,-5.008178,8.324631,15.68,-25.969999,-55.510002,1729416766432.0,0.0
-5.718846,-4.039084,6.845865,-10.57,-28.700001,-72.800003,1729416766446.0,0.0
-6.388836,-6.709475,6.762117,-14.77,-23.73,-81.550003,1729416766467.0,0.0
-5.010571,-5.120641,8.169096,43.119999,-25.34,-93.519997,1729416766486.0,0.0
-3.699304,-0.825524,9.597611,84.910004,-31.360001,-91.279999,1729416766506.0,0.0
-1.239482,2.660819,8.707481,57.260002,-35.420002,-77.209999,1729416766526.0,0.0
-0.550349,4.716253,6.410372,-12.04,-25.620001,-47.599998,1729416766547.0,0.0
-2.565106,-0.267996,4.520042,-63.07,-5.67,3.57,1729416766569.0,0.0
-1.462015,1.464408,4.804788,1.12,5.46,36.189999,1729416766588.0,0.0
-2.529213,2.201397,6.410372,42.279999,20.23,73.709999,1729416766605.0,0.0
-4.156333,2.761317,6.405586,16.17,31.639999,103.32,1729416766628.0,0.0
-5.970093,-1.65344,7.515855,-40.18,41.09,130.199997,1729416766647.0,0.0
-13.143774,-10.226924,8.472985,-113.540001,41.93,113.400002,1729416766666.0,0.0
-10.102496,-8.128418,9.047262,-97.580002,12.95,68.32,1729416766687.0,0.0
-8.831908,-4.333402,7.903493,-106.120003,-3.01,45.5,1729416766706.0,0.0
-7.176075,-2.486143,6.982256,-168.350006,-15.47,26.110001,1729416766726.0,0.0
-5.144568,-1.371087,5.79063,-237.720001,-24.99,24.43,1729416766747.0,0.0
-4.725825,-2.304288,4.919643,-297.779999,-25.200001,29.469999,1729416766767.0,0.0
-5.742774,-4.663611,4.369294,-340.480011,-22.889999,29.190001,1729416766786.0,0.0
-6.424729,-6.601797,2.493321,-379.540009,-29.610001,24.219999,1729416766806.0,0.0
-7.405786,-10.277173,2.105684,-386.329987,-34.439999,12.04,1729416766826.0,0.0
-6.183054,-7.690532,1.864009,-357.420013,-38.220001,-8.05,1729416766854.0,0.0
-5.54417,-6.362515,0.658026,-395.779999,-30.17,-25.34,1729416766866.0,0.0
-5.005785,-9.4349,-2.993421,-478.519989,-16.379999,-46.27,1729416766892.0,0.0
-4.354938,-9.968499,-5.075177,-469.0,-7.0,-52.150002,1729416766906.0,0.0
-3.979264,-9.202796,-7.707282,-412.649994,8.68,-51.170002,1729416766926.0,0.0
-3.615555,-9.853643,-8.999406,-328.160004,36.610001,-44.240002,1729416766946.0,0.0
-5.907879,-11.018949,-5.529813,-197.820007,64.330002,-31.5,1729416766966.0,0.0
-10.700702,-12.591033,2.998207,-48.369999,58.170002,-37.66,1729416766986.0,0.0
-5.898308,-7.204789,-3.328416,73.989998,17.01,-61.389999,1729416767006.0,0.0
-3.768696,-9.535398,-6.91765,2.31,41.439999,-51.450001,1729416767025.0,0.0
-2.251646,-11.858829,-6.568298,-2.66,71.260002,-52.220001,1729416767045.0,0.0
-3.225525,-10.770095,-4.070191,73.220001,83.580002,-39.48,1729416767065.0,0.0
-2.768496,-11.219944,-0.727418,151.970001,82.040001,-42.420002,1729416767085.0,0.0
-0.847059,-7.113862,0.172283,228.410004,54.459999,-46.689999,1729416767105.0,0.0
-0.524028,-8.642875,0.605384,256.970001,25.129999,-38.43,1729416767125.0,0.0
0.748954,-9.96132,1.162912,277.76001,6.3,-37.59,1729416767145.0,0.0
0.801596,-6.269196,1.624727,324.869995,-8.54,-17.639999,1729416767165.0,0.0
0.339781,-5.525027,2.335395,326.690002,-10.92,10.22,1729416767185.0,0.0
-0.473779,-6.216553,2.955136,285.179993,4.13,35.07,1729416767204.0,0.0
-1.761117,-6.52762,3.479164,252.0,6.02,49.139999,1729416767226.0,0.0
-4.074977,-5.328816,4.197011,285.179993,-3.78,72.449997,1729416767254.0,0.0
-4.261617,-1.813759,9.540184,234.710007,-12.53,94.43,1729416767265.0,0.0
-4.666004,-2.17029,6.766902,-4.55,-14.63,77.629997,1729416767288.0,0.0
-5.898308,-6.853044,2.242075,-182.350006,-14.91,81.269997,1729416767308.0,0.0
-5.893522,-10.884951,0.028714,-168.279999,-15.05,82.879997,1729416767326.0,0.0
-7.092326,-11.956935,-1.191626,-59.990002,-10.22,85.050003,1729416767347.0,0.0
-9.513863,-13.258631,-0.861416,3.78,3.15,56.420002,1729416767367.0,0.0
-11.301301,-15.031711,-0.689133,32.27,16.24,21.210001,1729416767388.0,0.0
-10.188639,-13.804193,-0.059821,63.700001,23.309999,-31.5,1729416767407.0,0.0
-9.394222,-11.77508,0.519243,54.110001,31.43,-73.5,1729416767427.0,0.0
-8.638089,-10.380065,0.028714,-12.88,45.43,-111.580002,1729416767448.0,0.0
-7.133004,-9.602397,-0.260818,-55.02,57.260002,-138.460007,1729416767467.0,0.0
-1.840081,-5.888737,2.993421,11.83,52.220001,-137.759995,1729416767487.0,0.0
2.500499,3.316452,10.616954,133.559998,35.560001,-87.57,1729416767507.0,0.0
3.598805,5.517848,13.584054,93.940002,16.66,-29.120001,1729416767527.0,0.0
1.804188,-2.423929,9.367901,-72.660004,-12.95,13.65,1729416767548.0,0.0
0.545564,-8.106883,5.242674,-117.32,-34.02,44.450001,1729416767568.0,0.0
1.201197,-5.534599,2.732604,-53.130001,-40.740002,73.010002,1729416767589.0,0.0
-3.536592,-8.343772,3.177669,-2.73,-30.59,107.870003,1729416767607.0,0.0
-5.986843,-7.769495,3.960121,79.029999,-31.290001,125.370003,1729416767629.0,0.0
-11.22473,-10.351351,3.744767,24.01,-15.61,109.410004,1729416767647.0,0.0
-14.701502,-16.359728,-0.425922,-79.590004,-4.34,67.129997,1729416767668.0,0.0
-12.576675,-17.123037,-3.562913,-48.16,6.23,-1.68,1729416767689.0,0.0
-12.157932,-15.77588,-0.588634,31.92,28.77,-68.599998,1729416767706.0,0.0
-11.315658,-11.301301,2.017149,31.92,43.119999,-121.660004,1729416767728.0,0.0
-6.640083,-4.898108,1.09352,-19.460001,45.639999,-154.210007,1729416767749.0,0.0
1.241875,-8.458629,5.424529,35.07,20.58,-135.169998,1729416767768.0,0.0
4.957928,4.596612,10.176675,158.410004,14.14,-93.940002,1729416767790.0,0.0
4.565506,1.507478,10.19821,-13.16,8.4,-8.54,1729416767808.0,0.0
1.361516,-5.565705,6.455836,-76.370003,-12.67,34.23,1729416767830.0,0.0
0.196211,-6.565905,3.330809,-38.920002,-24.780001,62.580002,1729416767852.0,0.0
0.241675,-5.343173,0.904487,-6.86,-22.26,89.599998,1729416767868.0,0.0
-4.847858,-10.085747,1.002593,9.8,-6.3,121.239998,1729416767890.0,0.0
-12.301501,-12.141183,6.60419,63.91,-7.77,123.340004,1729416767910.0,0.0
-12.701102,-9.994821,5.498707,31.15,-20.16,84.910004,1729416767928.0,0.0
-14.421541,-18.03949,-1.689333,-120.959999,-9.31,21.77,1729416767949.0,0.0
-12.153147,-17.821743,-3.574877,-45.009998,4.48,-46.900002,1729416767972.0,0.0
-10.731809,-11.8349,0.366102,52.849998,29.4,-106.889999,1729416767988.0,0.0
-7.745567,-5.438886,1.619941,30.73,42.279999,-140.490005,1729416768008.0,0.0
0.26321,-3.23031,5.915058,24.43,39.27,-129.639999,1729416768028.0,0.0
4.304688,1.672583,10.131211,98.0,21.700001,-87.43,1729416768048.0,0.0
7.401,6.58744,11.399406,77.980003,2.87,-21.629999,1729416768068.0,0.0
2.641676,-2.230111,8.537591,-77.840004,0.91,32.549999,1729416768089.0,0.0
1.18684,-7.384251,5.123034,-114.029999,-15.54,59.5,1729416768108.0,0.0
1.172483,-6.142376,3.074777,-66.43,-22.889999,88.199997,1729416768128.0,0.0
-7.79103,-10.712667,5.221139,-66.43,-17.360001,125.790001,1729416768149.0,0.0
-10.631311,-6.515656,5.766702,62.02,-37.52,138.320007,1729416768168.0,0.0
-14.603395,-13.057633,0.260818,-61.25,-23.66,95.059998,1729416768189.0,0.0
-14.203795,-17.223537,-3.960121,-89.18,-3.36,32.060001,1729416768208.0,0.0
-12.614961,-14.443078,-2.469393,3.64,23.1,-33.810001,1729416768229.0,0.0
-11.533404,-11.490334,0.416351,29.120001,44.939999,-98.559998,1729416768248.0,0.0
-7.578069,-9.466006,1.830509,-7.14,49.420002,-131.740005,1729416768268.0,0.0
-2.086541,-3.127419,1.787439,-27.09,53.34,-138.110001,1729416768289.0,0.0
4.67079,-6.855437,8.614161,74.830002,35.07,-107.309998,1729416768307.0,0.0
3.926622,7.941778,15.235102,154.559998,23.1,-50.189999,1729416768328.0,0.0
2.79721,2.866602,11.636297,-26.110001,-8.82,1.26,1729416768348.0,0.0
0.430708,-8.169096,5.431707,-152.600006,-29.68,29.82,1729416768368.0,0.0
0.090927,-9.202796,1.531406,-78.75,-38.290001,55.93,1729416768391.0,0.0
0.595813,-4.113262,0.239282,5.46,-34.02,86.800003,1729416768408.0,0.0
-4.146761,-6.276374,-0.378066,20.440001,-15.96,121.520004,1729416768428.0,0.0
-11.74158,-12.686745,5.606383,37.73,-3.29,136.220001,1729416768449.0,0.0
-14.060226,-12.746566,0.782453,27.51,-15.96,96.18,1729416768468.0,0.0
-13.316057,-17.654245,-4.304688,-69.790001,-2.38,2.87,1729416768489.0,0.0
-12.291929,-16.019949,-1.430908,25.549999,23.870001,-62.650002,1729416768508.0,0.0
-10.573883,-9.245867,2.050649,59.43,40.18,-117.25,1729416768528.0,0.0
-7.013363,-6.008378,2.871387,-5.39,40.25,-145.180008,1729416768548.0,0.0
0.528814,-6.185446,6.352944,0.91,26.18,-128.729996,1729416768569.0,0.0
3.76391,1.198804,10.652846,94.989998,8.61,-92.540001,1729416768590.0,0.0
5.809773,5.424529,11.143374,80.010002,-10.85,-31.710001,1729416768608.0,0.0
1.679761,-2.612962,8.573483,-62.860001,-10.78,18.41,1729416768628.0,0.0
0.430708,-6.412765,5.376673,-76.300003,-24.15,53.689999,1729416768649.0,0.0
0.409173,-5.381458,2.847459,-44.380001,-33.389999,77.910004,1729416768669.0,0.0
-2.048256,-6.742974,-0.701097,-15.54,-31.639999,114.449997,1729416768689.0,0.0
-10.447062,-11.456835,5.386244,16.1,-21.77,135.729996,1729416768707.0,0.0
-12.770494,-8.212167,4.895715,30.1,-35.98,117.32,1729416768729.0,0.0
-14.227723,-16.371693,-2.411965,-99.889999,-26.950001,61.459999,1729416768748.0,0.0
-13.210773,-17.436499,-5.716454,-61.040001,-0.07,-9.1,1729416768768.0,0.0
-11.952149,-14.356936,-1.679761,49.77,30.17,-69.580002,1729416768789.0,0.0
-8.439486,-9.243474,0.997807,39.900002,48.09,-120.959999,1729416768807.0,0.0
-3.158526,-3.041277,1.562513,-40.880001,49.420002,-147.839996,1729416768828.0,0.0
4.067799,-5.982057,7.838887,57.470001,36.119999,-107.379997,1729416768852.0,0.0
5.020142,6.458229,13.890336,162.470001,24.360001,-65.379997,1729416768869.0,0.0
3.768696,4.515256,12.512069,36.049999,2.24,-1.26,1729416768888.0,0.0
0.765703,-6.104091,7.192825,-108.220001,-18.76,37.59,1729416768908.0,0.0
-0.385244,-8.068598,3.649055,-76.440002,-33.740002,67.129997,1729416768927.0,0.0
-0.770489,-5.474778,1.639083,-14.91,-37.380001,96.809998,1729416768948.0,0.0
-5.374279,-9.394222,1.105484,-5.6,-25.969999,127.330002,1729416768968.0,0.0
-12.849458,-11.432907,5.441278,20.65,-23.66,134.75,1729416768990.0,0.0
-12.416357,-9.772287,1.488336,-3.08,-31.08,97.440002,1729416769007.0,0.0
-13.423735,-16.189838,-4.570292,-84.559998,-9.45,38.709999,1729416769028.0,0.0
-11.933006,-14.883357,-4.500899,-17.08,21.629999,-29.049999,1729416769048.0,0.0
-11.789437,-12.392428,0.567099,54.18,45.009998,-89.389999,1729416769068.0,0.0
-9.042477,-7.865208,1.660619,21.559999,43.68,-123.340004,1729416769088.0,0.0
-4.905287,-6.750153,3.270989,-43.889999,44.240002,-138.880005,1729416769108.0,0.0
2.395216,-4.21376,8.35813,7.42,36.189999,-111.440002,1729416769127.0,0.0
3.404987,4.931608,14.11526,128.800003,16.52,-70.840004,1729416769148.0,0.0
-0.088534,-2.213361,10.344172,-25.200001,-9.66,13.51,1729416769168.0,0.0
-0.521635,-9.200402,5.414958,-102.410004,-29.540001,33.880001,1729416769188.0,0.0
-0.227318,-9.236296,2.622534,-49.209999,-39.27,48.650002,1729416769207.0,0.0
-0.835095,-7.334002,0.863809,0.7,-34.860001,71.82,1729416769228.0,0.0
-4.694718,-7.597212,0.086142,23.030001,-22.82,94.5,1729416769248.0,0.0
-10.392029,-10.707881,3.67059,46.689999,-13.3,103.669998,1729416769268.0,0.0
-11.729616,-10.616954,3.383451,27.51,-16.24,69.230003,1729416769296.0,0.0
-11.31805,-12.605389,-0.937986,-46.970001,-11.9,17.01,1729416769307.0,0.0
-10.327423,-13.892728,-2.641676,-37.099998,7.7,-26.880001,1729416769328.0,0.0
-11.4018,-13.160524,-0.248854,12.18,32.41,-69.160004,1729416769348.0,0.0
-9.501899,-9.382257,2.289931,14.0,40.529999,-101.010002,1729416769368.0,0.0
-5.855237,-7.13779,2.500499,-23.17,37.869999,-124.040001,1729416769442.0,0.0
1.418944,-6.084948,6.259624,21.280001,26.040001,-106.75,1729416769451.0,0.0
3.369094,-0.693919,10.202995,121.940002,13.3,-80.709999,1729416769452.0,0.0
1.543371,0.801596,10.619347,101.57,0.7,-18.27,1729416769454.0,0.0
0.722632,-5.718846,5.962914,-90.370003,-21.77,29.82,1729416769469.0,0.0
0.09332,-8.965906,2.433501,-70.419998,-26.74,50.68,1729416769488.0,0.0
-1.859223,-6.82433,1.751546,-22.75,-20.16,69.860001,1729416769509.0,0.0
-2.35693,-4.797609,0.600598,26.110001,-23.1,98.699997,1729416769529.0,0.0
-7.877172,-9.116654,5.111069,31.5,-8.96,123.129997,1729416769549.0,0.0
-13.806586,-10.100104,8.30788,2.38,-14.14,105.980003,1729416769571.0,0.0
-11.593226,-11.394621,-1.418944,-92.400002,-30.030001,59.220001,1729416769590.0,0.0
-10.509278,-16.204195,-6.709475,-90.510002,-5.46,10.85,1729416769608.0,0.0
-10.394422,-14.507684,-2.151148,41.369999,31.99,-34.509998,1729416769628.0,0.0
-10.9352,-9.97807,2.414358,81.620003,44.66,-81.690002,1729416769651.0,0.0
-8.372486,-8.963513,2.364109,-6.93,37.799999,-109.690002,1729416769670.0,0.0
-2.766103,-2.57707,0.751346,-60.200001,33.670002,-122.849998,1729416769691.0,0.0
3.586841,-5.072784,5.888737,-6.65,31.15,-103.18,1729416769709.0,0.0
2.940779,2.440679,14.660825,70.769997,34.580002,-57.889999,1729416769729.0,0.0
0.880559,-3.443272,10.695917,-66.919998,-9.8,5.46,1729416769750.0,0.0
-0.019143,-8.133204,6.046663,-82.529999,-34.299999,35.349998,1729416769770.0,0.0
-1.191626,-6.252446,3.625126,-27.09,-40.880001,60.41,1729416769792.0,0.0
-2.495714,-6.278766,1.926222,-21.700001,-38.360001,80.220001,1729416769809.0,0.0
-7.118648,-8.973085,1.48355,-17.5,-31.01,103.809998,1729416769831.0,0.0
-10.241282,-10.767702,2.404787,18.83,-29.33,110.739998,1729416769853.0,0.0
-11.904292,-11.743973,1.452443,7.14,-21.07,71.540001,1729416769870.0,0.0
-12.753745,-13.567304,-2.620141,-39.060001,-6.51,19.950001,1729416769891.0,0.0
-11.425728,-14.105689,-4.345366,-27.02,15.68,-33.950001,1729416769910.0,0.0
-9.607183,-13.574483,-1.328017,10.43,34.790001,-80.360001,1729416769929.0,0.0
-7.984849,-10.502099,2.18704,15.190001,40.599998,-107.099998,1729416769950.0,0.0
-4.579862,-4.926822,2.995814,-23.59,39.41,-123.620003,1729416769970.0,0.0
2.878566,-5.278566,6.422336,27.719999,19.530001,-99.889999,1729416769990.0,0.0
2.931208,0.540778,10.006784,103.739998,11.9,-60.970001,1729416770015.0,0.0
1.526621,2.115255,11.217552,54.110001,-0.35,-3.15,1729416770029.0,0.0
0.653241,-4.883751,6.73101,-72.169998,-16.52,26.6,1729416770050.0,0.0
-1.392623,-10.971091,1.272982,-95.340004,-24.08,49.700001,1729416770071.0,0.0
-2.852244,-8.389235,0.454636,-20.65,-24.08,72.099998,1729416770090.0,0.0
-3.876373,-6.463014,-0.191426,43.049999,-29.75,91.980003,1729416770110.0,0.0
-8.020741,-9.102298,1.598405,56.209999,-16.66,104.440002,1729416770129.0,0.0
-12.535997,-12.708281,3.041277,36.259998,-6.23,77.910004,1729416770150.0,0.0
-11.633904,-11.162518,0.947558,25.969999,-10.22,33.740002,1729416770169.0,0.0
-10.08814,-11.650653,-1.744368,-14.21,2.87,-11.13,1729416770190.0,0.0
-10.19821,-14.100904,-1.411765,-20.23,26.880001,-50.75,1729416770209.0,0.0
-9.10469,-11.270195,0.521635,-0.77,41.93,-87.919998,1729416770230.0,0.0
-5.663811,-8.618947,2.050649,11.76,35.91,-110.110001,1729416770251.0,0.0
1.12702,-4.082155,5.584848,38.5,28.49,-104.580002,1729416770269.0,0.0
5.254639,-1.306481,9.351151,117.879997,17.08,-75.18,1729416770300.0,0.0
2.495714,5.000999,12.157932,108.709999,21.84,-7.42,1729416770309.0,0.0
-1.619941,-2.646462,9.590433,-57.260002,5.04,28.280001,1729416770329.0,0.0
-2.909672,-8.683553,4.981857,-125.300003,-16.870001,47.529999,1729416770350.0,0.0
-2.428715,-8.298308,3.328416,-58.450001,-29.540001,67.900002,1729416770369.0,0.0
-3.285345,-6.092126,1.29691,13.440001,-30.17,90.720001,1729416770391.0,0.0
-9.652647,-9.162118,8.135597,52.080002,-21.280001,110.949997,1729416770409.0,0.0
-11.432907,-8.386844,4.242475,-1.96,-28.700001,94.010002,1729416770429.0,0.0
-10.243673,-12.069397,-1.536192,-78.959999,-23.309999,51.73,1729416770449.0,0.0
-11.897114,-14.031512,-4.735396,-44.099998,4.83,15.96,1729416770469.0,0.0
-10.951948,-11.497513,-2.691926,29.049999,29.68,-31.57,1729416770490.0,0.0
-10.018748,-11.607583,-0.277567,39.900002,37.099998,-77.769997,1729416770509.0,0.0
-7.592427,-9.322437,0.251246,-4.06,39.549999,-104.019997,1729416770529.0,0.0
-4.469792,-9.020942,2.550749,-37.170002,42.700001,-111.510002,1729416770551.0,0.0
-0.78006,-1.631905,4.278367,-23.450001,45.57,-118.370003,1729416770570.0,0.0
5.063213,-1.09352,10.229317,85.330002,25.34,-76.510002,1729416770590.0,0.0
2.230111,1.287339,14.177474,94.709999,7.07,-21.77,1729416770609.0,0.0
-2.184647,-3.864408,10.112068,-42.98,-19.040001,20.65,1729416770629.0,0.0
-1.172483,-9.018548,3.854837,-110.25,-44.52,37.029999,1729416770649.0,0.0
-2.471786,-9.760324,1.22034,-74.970001,-38.709999,50.610001,1729416770670.0,0.0
-4.39083,-8.355737,1.421337,-10.64,-30.52,62.439999,1729416770690.0,0.0
-6.886543,-8.810372,2.806781,31.639999,-26.530001,76.300003,1729416770708.0,0.0
-10.04507,-9.171689,4.369294,35.98,-23.24,70.489998,1729416770730.0,0.0
-10.468598,-10.310673,-0.949951,-17.85,-23.870001,42.209999,1729416770749.0,0.0
-10.212566,-12.189038,-4.15394,-49.630001,-0.98,-15.33,1729416770769.0,0.0
-10.262815,-14.043476,-2.584249,-5.04,27.58,-56.700001,1729416770790.0,0.0
-9.219545,-10.100104,0.684347,39.200001,41.16,-90.580002,1729416770808.0,0.0
-6.745367,-7.499106,2.35693,20.02,34.580002,-105.489998,1729416770831.0,0.0
-0.387637,-1.17009,6.242875,-6.65,28.77,-101.779999,1729416770854.0,0.0
7.310073,-2.289931,9.724431,88.620003,-1.12,-69.440002,1729416770869.0,0.0
-0.792024,1.261017,13.60559,104.440002,8.75,-2.66,1729416770891.0,0.0
-1.72044,-3.098706,8.901299,-50.610001,-12.74,20.440001,1729416770910.0,0.0
0.246461,-10.097712,2.658426,-127.68,-29.960001,32.759998,1729416770928.0,0.0
-2.488536,-12.346965,0.672383,-89.599998,-17.5,44.799999,1729416770949.0,0.0
-3.790231,-9.461221,0.897308,-10.15,-17.5,55.369999,1729416770969.0,0.0
-4.354938,-6.707082,0.76331,50.400002,-27.860001,66.709999,1729416770990.0,0.0
-7.001399,-7.046863,2.141576,70.07,-24.360001,75.739998,1729416771011.0,0.0
-10.289137,-7.800602,3.249453,45.080002,-15.33,64.82,1729416771029.0,0.0
-10.892128,-9.45165,1.399801,-20.58,-9.8,34.650002,1729416771049.0,0.0
-10.13839,-14.129619,-1.921437,-73.5,6.02,-8.12,1729416771069.0,0.0
-9.332008,-13.651052,-0.442672,-9.73,30.870001,-69.440002,1729416771091.0,0.0
-7.503892,-10.968699,2.041078,13.23,37.869999,-92.68,1729416771108.0,0.0
-4.266403,-6.79083,2.488536,-6.51,36.330002,-107.169998,1729416771129.0,0.0
3.182454,-4.115655,7.109076,44.029999,23.309999,-88.760002,1729416771150.0,0.0
4.76411,-0.447458,10.736595,138.180008,3.64,-48.23,1729416771169.0,0.0
-2.28036,0.832702,11.971292,63.0,3.36,4.06,1729416771192.0,0.0
-0.995414,-4.843073,5.666204,-90.93,-15.89,19.67,1729416771209.0,0.0
-0.11007,-9.784252,1.270589,-119.629997,-19.67,34.09,1729416771228.0,0.0
-3.17049,-11.904292,0.284746,-72.870003,-8.33,50.75,1729416771249.0,0.0
-4.929214,-9.399008,0.519243,0.28,-10.85,59.080002,1729416771269.0,0.0
-5.056034,-7.362715,1.646262,63.420002,-19.67,65.239998,1729416771291.0,0.0
-7.812566,-6.326623,3.321238,73.849998,-14.98,69.300003,1729416771308.0,0.0
-10.303494,-8.676375,2.26361,6.79,-6.72,49.490002,1729416771329.0,0.0
-10.564312,-12.557532,-0.287139,-58.52,3.36,15.12,1729416771349.0,0.0
-9.501899,-13.569696,-2.208575,-34.650002,18.83,-24.710001,1729416771368.0,0.0
-9.908678,-13.550553,-0.62692,2.87,42.77,-60.760002,1729416771390.0,0.0
-8.922836,-11.62194,1.459622,-4.2,56.91,-92.610001,1729416771409.0,0.0
-0.782453,-4.438686,6.726225,4.76,54.599998,-109.550003,1729416771428.0,0.0
3.905087,-2.268396,11.475977,129.430008,17.780001,-75.949997,1729416771449.0,0.0
-1.18684,3.84048,13.457234,86.940002,3.36,-26.18,1729416771470.0,0.0
-1.423729,-4.187439,6.912865,-98.07,-17.57,-9.1,1729416771490.0,0.0
0.524028,-9.683753,2.275574,-118.510002,-22.889999,13.16,1729416771509.0,0.0
0.399601,-9.834501,1.184447,-45.290001,-14.63,40.389999,1729416771529.0,0.0
-2.54357,-7.642675,1.674976,-5.11,-11.9,62.720001,1729416771549.0,0.0
-3.553342,-7.348359,0.911665,13.02,-26.32,77.769997,1729416771570.0,0.0
-6.498906,-9.678967,1.39023,33.950001,-26.950001,84.139999,1729416771589.0,0.0
-9.980463,-9.075976,1.864009,52.220001,-18.9,75.879997,1729416771608.0,0.0
-12.256038,-11.126624,0.543171,-1.19,-3.99,42.209999,1729416771630.0,0.0
-11.777473,-13.768302,-1.378266,-37.380001,10.92,-6.93,1729416771649.0,0.0
-10.444671,-13.720445,-1.713261,-16.66,28.139999,-59.639999,1729416771668.0,0.0
-8.614161,-11.265409,0.519243,5.67,44.799999,-93.449997,1729416771690.0,0.0
-5.730811,-7.305287,2.380858,1.47,50.049999,-112.07,1729416771708.0,0.0
1.150948,-4.881358,6.860222,40.25,36.049999,-93.239998,1729416771728.0,0.0
0.713061,1.651048,12.387643,130.059998,10.99,-57.400002,1729416771749.0,0.0
-0.442672,-2.021935,8.618947,-14.63,-15.61,0.98,1729416771770.0,0.0
1.414158,-6.814759,3.749553,-92.610001,-28.84,30.940001,1729416771790.0,0.0
-0.334995,-9.635897,1.112662,-85.610001,-23.870001,57.959999,1729416771809.0,0.0
-3.232704,-8.62134,0.035892,-50.75,-21.77,73.360001,1729416771828.0,0.0
-4.287938,-8.322237,-0.818345,12.81,-34.09,88.620003,1729416771851.0,0.0
-8.389235,-8.860621,1.395016,58.099998,-26.530001,98.559998,1729416771869.0,0.0
-12.562319,-10.200603,2.277967,44.799999,-12.25,76.300003,1729416771889.0,0.0
-13.191631,-12.358929,1.11027,-7.14,-2.03,25.83,1729416771908.0,0.0
-10.8682,-13.11506,-0.930808,-27.370001,12.95,-31.219999,1729416771928.0,0.0
-10.621738,-13.756337,-0.459422,-22.469999,36.400002,-77.699997,1729416771948.0,0.0
-8.537591,-11.511869,1.356731,-6.09,47.880001,-112.279999,1729416771969.0,0.0
-3.668197,-1.40698,1.706082,-6.09,46.549999,-124.809998,1729416771990.0,0.0
3.9673,-6.912865,7.958528,79.519997,19.25,-90.510002,1729416772008.0,0.0
2.09372,0.830309,11.47119,157.570007,4.97,-53.619999,1729416772029.0,0.0
0.827917,1.160519,9.863215,57.959999,-12.32,-14.28,1729416772049.0,0.0
0.866202,-2.87378,6.721439,-72.379997,-22.4,22.049999,1729416772069.0,0.0
-1.840081,-9.207582,1.631905,-112.07,-28.0,51.73,1729416772089.0,0.0
-4.201797,-10.571491,-0.066999,-75.389999,-26.67,73.010002,1729416772108.0,0.0
-5.089533,-8.673983,-0.11007,-8.05,-32.970001,80.290001,1729416772128.0,0.0
-6.089733,-7.668997,0.705883,44.240002,-34.790001,87.849998,1729416772148.0,0.0
-9.365508,-9.016156,1.792224,30.799999,-17.5,81.480003,1729416772169.0,0.0
-10.815558,-11.330014,0.916451,-12.39,-3.78,48.16,1729416772189.0,0.0
-11.270195,-12.050256,1.48355,-28.49,9.52,10.43,1729416772208.0,0.0
-10.028319,-12.765708,0.052642,-24.01,16.379999,-31.360001,1729416772229.0,0.0
-9.772287,-13.66541,-0.210568,-19.809999,34.369999,-74.129997,1729416772249.0,0.0
-7.69771,-11.703296,1.627119,14.0,42.490002,-102.970001,1729416772268.0,0.0
-3.864408,-3.199204,3.148954,20.299999,45.990002,-115.639999,1729416772289.0,0.0
3.091527,-5.541777,7.116255,75.110001,27.93,-83.790001,1729416772308.0,0.0
0.430708,0.299103,11.789437,131.740005,14.98,-47.810001,1729416772328.0,0.0
-0.78006,-0.480957,9.690931,25.200001,-5.39,-16.17,1729416772349.0,0.0
0.150748,-4.508078,6.144768,-86.239998,-20.09,6.79,1729416772368.0,0.0
0.602991,-7.080362,3.156133,-94.290001,-29.610001,39.200001,1729416772391.0,0.0
-1.787439,-9.226725,1.402194,-76.580002,-25.690001,62.580002,1729416772409.0,0.0
-3.101098,-8.334201,0.045464,-23.66,-29.33,80.5,1729416772427.0,0.0
-6.788438,-9.422935,1.038485,51.799999,-30.66,95.690002,1729416772448.0,0.0
-11.566904,-10.753345,2.359323,60.48,-17.43,84.559998,1729416772468.0,0.0
-13.79223,-13.067204,2.696711,8.54,-7.91,36.889999,1729416772488.0,0.0
-11.131411,-13.46202,-0.751346,-35.139999,-2.73,-26.32,1729416772509.0,0.0
-9.217153,-13.773087,-1.45005,-20.65,18.48,-74.129997,1729416772528.0,0.0
-8.13799,-10.944772,0.70349,4.55,42.07,-107.099998,1729416772549.0,0.0
-5.845665,-7.616355,2.254039,9.03,45.43,-119.699997,1729416772568.0,0.0
-0.066999,-3.15374,5.520242,20.440001,39.27,-104.019997,1729416772589.0,0.0
3.395415,-2.828316,8.733803,106.190002,15.96,-69.090004,1729416772610.0,0.0
-0.684347,2.914458,11.045268,118.650002,6.23,-17.360001,1729416772628.0,0.0
-0.672383,-2.550749,7.982457,-22.540001,-14.07,5.04,1729416772648.0,0.0
-0.119641,-7.089933,4.350152,-80.849998,-24.57,33.25,1729416772668.0,0.0
-1.902294,-9.52822,2.112862,-76.93,-22.469999,48.93,1729416772689.0,0.0
-3.378666,-8.846266,1.136591,-37.450001,-22.68,62.09,1729416772708.0,0.0
-4.182654,-8.520842,0.349352,2.03,-28.210001,72.169998,1729416772728.0,0.0
-7.369894,-9.659825,1.275374,24.01,-19.040001,76.510002,1729416772748.0,0.0
-10.380065,-11.155338,1.56012,22.469999,-8.26,43.119999,1729416772768.0,0.0
-10.980663,-12.552748,0.815953,-0.21,-0.35,4.06,1729416772790.0,0.0
-9.848858,-12.708281,0.014357,-11.69,13.3,-42.420002,1729416772807.0,0.0
-8.154739,-11.526227,0.847059,-7.42,27.719999,-82.599998,1729416772828.0,0.0
-6.032306,-9.343972,2.254039,0.77,36.049999,-102.690002,1729416772852.0,0.0
-1.72044,-1.89033,4.089334,-4.62,38.849998,-99.190002,1729416772868.0,0.0
2.825923,-6.034698,7.465607,56.700001,18.41,-64.330002,1729416772891.0,0.0
-1.418944,-0.583849,10.980663,108.779999,15.26,-30.59,1729416772908.0,0.0
-1.244268,-1.964507,9.131011,18.76,-7.42,-14.77,1729416772927.0,0.0
-0.555135,-4.520042,6.242875,-57.260002,-18.48,7.21,1729416772948.0,0.0
-0.311067,-6.630512,4.012764,-66.360001,-27.58,31.780001,1729416772968.0,0.0
-2.191825,-8.470592,2.289931,-51.380001,-26.040001,52.709999,1729416772989.0,0.0
-3.797409,-7.958528,1.674976,-17.710001,-28.0,66.080002,1729416773007.0,0.0
-3.708875,-6.532406,1.067199,33.18,-37.66,81.340004,1729416773028.0,0.0
-5.206782,-5.938986,1.67019,58.59,-37.939999,99.330002,1729416773048.0,0.0
-8.542377,-6.972685,4.996214,9.24,-22.33,95.970001,1729416773069.0,0.0
-10.49492,-8.432307,3.773481,-77.279999,-28.35,74.340004,1729416773088.0,0.0
-7.664211,-7.147361,0.72024,-207.970001,-41.02,36.540001,1729416773107.0,0.0
-6.960721,-9.576077,-2.531606,-235.550003,-27.790001,21.210001,1729416773128.0,0.0
-6.443871,-10.767702,-3.620341,-192.850006,-5.25,10.43,1729416773148.0,0.0
-5.678168,-10.167104,-2.287539,-110.32,10.57,1.19,1729416773168.0,0.0
-5.706882,-8.542377,-0.5001,-74.550003,25.200001,-3.64,1729416773188.0,0.0
-5.548956,-8.688338,0.026321,-76.860001,28.07,-10.78,1729416773207.0,0.0
-4.771288,-9.439686,-0.705883,-89.18,22.540001,-15.89,1729416773227.0,0.0
-3.823731,-9.576077,-1.962115,-101.080002,28.91,-14.35,1729416773250.0,0.0
-3.67059,-10.336994,-1.840081,-92.400002,42.98,-12.81,1729416773268.0,0.0
-5.118248,-11.916256,-1.730011,-66.220001,57.959999,-16.52,1729416773288.0,0.0
-5.680561,-11.578869,-1.122234,-53.41,66.989998,-30.59,1729416773307.0,0.0
-4.833502,-12.342178,-2.469393,-59.990002,73.989998,-43.68,1729416773328.0,0.0
-4.118048,-12.454641,0.622134,-35.349998,82.879997,-50.959999,1729416773349.0,0.0
-7.161718,-10.844273,7.925028,17.639999,69.650002,-54.670002,1729416773368.0,0.0
-3.309274,-8.38445,6.084948,39.549999,23.1,-69.230003,1729416773388.0,0.0
-0.579063,-7.487142,3.993621,36.470001,3.64,-60.200001,1729416773407.0,0.0
-0.818345,-6.836295,2.610569,40.670002,2.73,-39.41,1729416773428.0,0.0
-1.464408,-7.211967,2.562713,64.470001,-5.11,-1.4,1729416773448.0,0.0
-2.057827,-8.281559,2.438286,71.050003,-21.700001,13.16,1729416773468.0,0.0
-2.938386,-6.096912,1.935793,68.949997,-44.799999,24.219999,1729416773488.0,0.0
-4.948357,-7.9011,1.351945,29.469999,-64.610001,31.01,1729416773507.0,0.0
-6.285945,-9.391829,-0.090927,-17.57,-72.029999,19.460001,1729416773527.0,0.0
-6.982256,-8.441878,-3.448057,-27.16,-68.739998,20.299999,1729416773548.0,0.0
-6.711867,-8.597411,-5.680561,-24.290001,-49.84,17.290001,1729416773568.0,0.0
-6.355337,-9.635897,-6.372087,-2.66,-21.700001,18.620001,1729416773589.0,0.0
-6.116055,-11.586047,-5.816952,18.76,9.66,5.53,1729416773608.0,0.0
-7.209574,-10.746166,-3.596412,61.459999,31.219999,-6.09,1729416773629.0,0.0
-6.910471,-9.396614,-1.818545,72.029999,37.099998,-24.08,1729416773647.0,0.0
-5.15414,-8.755339,-0.634098,24.360001,46.970001,-40.32,1729416773668.0,0.0
-3.096312,-6.915257,3.053242,-10.01,51.450001,-39.549999,1729416773690.0,0.0
-1.526621,-5.905487,6.276374,-26.6,41.509998,-30.030001,1729416773708.0,0.0
-1.562513,-7.379465,6.190232,-38.639999,22.33,-18.059999,1729416773727.0,0.0
-0.478565,-7.767102,5.510671,-14.84,3.01,-2.03,1729416773747.0,0.0
-2.306681,-8.628519,4.646862,5.74,-9.94,17.5,1729416773768.0,0.0
-1.818545,-8.571091,4.07737,9.73,-31.710001,35.77,1729416773789.0,0.0
-0.588634,-8.702696,1.708475,-0.35,-45.920002,48.650002,1729416773807.0,0.0
-3.589234,-7.499106,1.251446,-28.42,-47.389999,56.700001,1729416773827.0,0.0
-9.339187,-6.802795,1.445265,-62.299999,-49.84,63.279999,1729416773853.0,0.0
-8.573483,-7.551748,-3.811767,-109.059998,-48.02,61.950001,1729416773867.0,0.0
-7.802995,-11.502297,-6.960721,-74.690002,-40.110001,51.240002,1729416773889.0,0.0
-8.812766,-13.021741,-8.334201,10.22,-10.85,27.58,1729416773907.0,0.0
-7.939385,-10.124033,-5.694918,67.550003,13.02,-0.77,1729416773927.0,0.0
-7.171289,-9.226725,-2.667997,46.27,35.98,-14.49,1729416773949.0,0.0
-7.542177,-11.289338,-2.203789,-8.61,47.599998,-35.139999,1729416773967.0,0.0
-5.881558,-11.408978,-1.9669,-37.939999,53.760002,-57.82,1729416773988.0,0.0
-2.768496,-6.996613,4.883751,-2.73,50.119999,-55.93,1729416774007.0,0.0
-2.067399,-4.338188,5.948557,20.860001,32.060001,-43.540001,1729416774028.0,0.0
-0.696311,-7.281359,6.068198,6.58,16.73,-20.58,1729416774101.0,0.0
-0.909273,-8.037491,5.525027,-3.43,8.47,-4.06,1729416774103.0,0.0
-3.211168,-8.353344,1.617548,12.81,-13.440001,21.629999,1729416774111.0,0.0
-1.435694,-10.526026,-1.20359,6.16,-37.380001,35.98,1729416774127.0,0.0
-3.919443,-10.009177,-1.586441,-15.33,-57.959999,45.43,1729416774148.0,0.0
-9.329616,-7.817351,0.425922,-14.49,-55.369999,44.240002,1729416774167.0,0.0
-11.734402,-7.678568,-3.175276,-105.349998,-42.98,35.139999,1729416774189.0,0.0
-9.396614,-12.801601,-7.645068,-80.57,-41.790001,15.82,1729416774207.0,0.0
-8.518449,-12.964314,-7.377072,5.32,-4.41,-15.12,1729416774227.0,0.0
-6.453443,-8.281559,-4.024727,80.5,15.89,-33.110001,1729416774248.0,0.0
-7.008578,-8.707481,-2.924029,53.689999,39.48,-38.639999,1729416774268.0,0.0
-6.151947,-10.913664,-2.876173,-9.66,59.920002,-55.93,1729416774289.0,0.0
-2.919244,-7.068398,3.85723,5.53,58.170002,-56.630001,1729416774307.0,0.0
-0.815953,-5.429315,6.472585,9.24,33.670002,-42.279999,1729416774328.0,0.0
-0.557528,-6.994221,5.850451,-21.49,20.58,-25.34,1729416774347.0,0.0
-0.011964,-7.264609,5.352744,-6.58,3.5,-6.72,1729416774367.0,0.0
-2.656033,-7.523034,4.977071,10.5,-13.72,19.18,1729416774450.0,0.0
-3.876373,-8.145168,4.06062,-9.66,-29.26,31.99,1729416774453.0,0.0
-1.880759,-8.449057,0.256032,-20.719999,-50.68,41.09,1729416774455.0,0.0
-6.458229,-6.958328,-0.488136,0.42,-58.170002,58.59,1729416774457.0,0.0
-10.449455,-6.173482,-2.124826,-44.799999,-57.470001,54.25,1729416774483.0,0.0
-8.920443,-9.320045,-5.479564,-68.389999,-56.91,46.830002,1729416774488.0,0.0
-9.35833,-12.306287,-9.257831,-54.810001,-13.93,22.120001,1729416774507.0,0.0
-7.257431,-12.339786,-7.781459,11.06,16.870001,-10.85,1729416774528.0,0.0
-7.599605,-9.982857,-4.661219,80.290001,31.780001,-30.380001,1729416774548.0,0.0
-7.980063,-9.037691,-3.196811,66.080002,40.459999,-46.130001,1729416774569.0,0.0
-5.903094,-9.772287,-3.799802,-6.23,59.290001,-63.279999,1729416774588.0,0.0
-1.883151,-8.575876,3.168097,-31.99,81.900002,-69.440002,1729416774607.0,0.0
-2.249253,-5.682954,8.26481,32.27,60.200001,-38.009998,1729416774637.0,0.0
-2.35693,-6.003592,9.915856,21.49,25.200001,-33.950001,1729416774647.0,0.0
0.473779,-5.871986,7.489535,8.96,-9.31,-14.63,1729416774677.0,0.0
-1.813759,-7.13779,4.656433,-2.87,-28.07,15.190001,1729416774694.0,0.0
-3.634698,-9.004191,2.9671,-32.970001,-35.91,28.700001,1729416774711.0,0.0
-1.976472,-8.908479,-0.026321,-15.75,-51.170002,37.099998,1729416774726.0,0.0
-3.826123,-8.25763,-1.986043,13.37,-53.200001,51.450001,1729416774748.0,0.0
-11.849257,-5.285746,-0.241675,15.12,-49.77,63.490002,1729416774771.0,0.0
-10.193424,-9.956534,-6.805188,-67.199997,-48.09,39.41,1729416774788.0,0.0
-10.430314,-13.112667,-9.803394,-49.630001,-4.9,5.67,1729416774807.0,0.0
-7.743174,-12.373285,-6.73101,20.65,27.299999,-29.190001,1729416774826.0,0.0
-8.181061,-9.853643,-4.12044,82.25,43.189999,-47.880001,1729416774850.0,0.0
-6.113662,-8.829515,-4.149154,47.599998,58.099998,-65.239998,1729416774874.0,0.0
-4.718646,-8.487342,0.665205,-3.01,75.389999,-71.120003,1729416774890.0,0.0
-0.681954,-4.570292,7.999206,20.65,55.299999,-56.139999,1729416774908.0,0.0
-0.133998,-4.993821,9.454042,19.67,28.630001,-32.689999,1729416774927.0,0.0
-0.81356,-5.785845,8.843873,-3.15,3.08,-9.87,1729416774948.0,0.0
-1.68694,-6.419943,5.414958,-13.58,-21.42,13.93,1729416774968.0,0.0
-3.76391,-7.601997,2.842674,-43.119999,-29.469999,37.73,1729416774990.0,0.0
-3.192025,-9.994821,-0.856631,-59.010002,-45.009998,50.400002,1729416775011.0,0.0
-4.529613,-10.329816,-2.158326,-21.07,-51.799999,50.400002,1729416775028.0,0.0
-7.408179,-8.506484,-3.54377,22.610001,-59.220001,57.189999,1729416775049.0,0.0
-10.782058,-7.939385,-5.613562,-29.960001,-49.490002,45.920002,1729416775068.0,0.0
-7.735995,-12.191431,-6.721439,26.74,25.969999,-27.16,1729416775165.0,0.0
-7.21436,-8.23131,-3.26381,87.57,36.400002,-43.400002,1729416775167.0,0.0
-6.879365,-9.047262,-2.811567,31.01,49.77,-56.139999,1729416775169.0,0.0
-5.469993,-10.693524,-2.945565,-42.700001,64.400002,-69.019997,1729416775268.0,0.0
-2.443072,-6.369694,4.893322,8.54,50.330002,-55.09,1729416775268.0,0.0
-0.449851,-5.352744,8.140383,15.05,24.08,-43.540001,1729416775272.0,0.0
-1.866402,-7.130611,7.960921,-21.42,6.65,-21.0,1729416775273.0,0.0
-0.275175,-7.767102,5.13739,-17.43,-18.059999,-4.9,1729416775274.0,0.0
-1.454836,-7.484749,2.629712,-9.17,-28.98,17.99,1729416775275.0,0.0
-2.565106,-8.336594,0.51685,-14.98,-33.880001,36.119999,1729416775288.0,0.0
-1.698904,-9.535398,-1.237089,-0.7,-44.939999,41.509998,1729416775308.0,0.0
-3.09392,-7.989635,-1.615155,35.139999,-56.349998,50.330002,1729416775328.0,0.0
-11.997612,-5.379066,2.057827,42.700001,-58.450001,64.330002,1729416775351.0,0.0
-11.763116,-10.107283,-6.525227,-78.050003,-46.549999,44.66,1729416775369.0,0.0
-9.571291,-14.23251,-8.635696,-75.669998,5.67,12.32,1729416775390.0,0.0
-7.520642,-14.012369,-6.149554,45.57,28.07,-24.219999,1729416775410.0,0.0
-7.9011,-7.709675,-2.419144,126.770004,30.1,-48.09,1729416775428.0,0.0
-6.702296,-8.575876,-3.605984,41.299999,43.610001,-61.810001,1729416775450.0,0.0
-4.788038,-10.91845,-3.330809,-40.389999,64.68,-73.220001,1729416775469.0,0.0
-0.294317,-6.644868,5.888737,13.37,72.169998,-69.510002,1729416775489.0,0.0
-0.011964,-3.115455,9.686146,90.300003,39.200001,-32.970001,1729416775509.0,0.0
-1.411765,-3.517449,10.506885,26.880001,10.92,-9.38,1729416775529.0,0.0
-1.012164,-7.534998,6.185446,-38.639999,-16.940001,8.12,1729416775551.0,0.0
-2.995814,-8.496914,2.158326,-56.630001,-29.75,27.440001,1729416775569.0,0.0
-2.349752,-9.535398,-0.519243,-56.91,-39.759998,34.23,1729416775593.0,0.0
-3.156133,-9.597611,-1.651048,-12.39,-47.040001,42.209999,1729416775608.0,0.0
-5.936593,-7.549356,-1.933401,39.200001,-56.84,59.990002,1729416775630.0,0.0
-12.000006,-7.310073,0.114855,39.48,-55.720001,61.25,1729416775649.0,0.0
-10.30828,-11.035697,-8.848659,-22.049999,-50.610001,39.200001,1729416775668.0,0.0
-9.095119,-14.084153,-7.532606,-56.560001,5.39,-13.16,1729416775689.0,0.0
-7.300502,-9.107083,-3.237489,77.769997,34.16,-42.77,1729416775712.0,0.0
-7.783852,-8.178668,-3.48395,53.27,42.490002,-56.91,1729416775728.0,0.0
-4.570292,-11.521441,-3.256632,-27.23,66.290001,-72.099998,1729416775749.0,0.0
-1.069592,-8.788837,1.665405,9.45,75.389999,-71.889999,1729416775769.0,0.0
-1.349552,-3.85723,10.147961,97.650002,65.730003,-35.490002,1729416775790.0,0.0
-2.603391,-3.759124,11.38505,26.950001,39.970001,-28.700001,1729416775809.0,0.0
-1.665405,-6.410372,8.530413,-36.400002,7.56,-7.21,1729416775829.0,0.0
-1.399801,-7.436893,4.522435,-41.790001,-18.83,11.27,1729416775853.0,0.0
-2.574677,-8.549555,1.39023,-45.009998,-28.559999,29.33,1729416775870.0,0.0
-1.792224,-10.454242,-1.11027,-25.549999,-35.420002,42.279999,1729416775891.0,0.0
-3.45045,-9.288938,-1.758725,24.85,-45.360001,52.779999,1729416775910.0,0.0
-9.97807,-4.768896,4.436293,41.93,-56.139999,66.5,1729416775930.0,0.0
-11.097912,-8.52802,-2.311467,-44.799999,-62.650002,57.400002,1729416775950.0,0.0
-9.518648,-12.430713,-8.109276,-84.699997,-34.790001,27.58,1729416775970.0,0.0
-8.178668,-13.41895,-8.386844,-36.82,7.7,-3.29,1729416775990.0,0.0
-7.56132,-9.564112,-5.453243,59.080002,25.9,-22.610001,1729416776010.0,0.0
-7.149754,-10.076177,-3.974478,35.84,49.700001,-52.639999,1729416776028.0,0.0
-5.35753,-10.109675,-2.17029,9.8,59.990002,-65.099998,1729416776049.0,0.0
-1.416551,-5.103891,2.689533,26.809999,51.66,-59.43,1729416776070.0,0.0
-1.304088,-5.02732,5.32403,-0.07,52.009998,-40.18,1729416776093.0,0.0
-3.818945,-7.113862,9.492328,-22.960001,44.099998,-26.460001,1729416776109.0,0.0
-1.567299,-6.946364,9.004191,6.3,-1.47,-9.45,1729416776129.0,0.0
-2.0004,-6.632904,6.029913,3.99,-34.509998,12.46,1729416776150.0,0.0
-2.816352,-8.003991,2.907279,-34.93,-42.279999,26.460001,1729416776170.0,0.0
-1.706082,-9.406186,-0.155533,-54.670002,-51.029999,34.720001,1729416776191.0,0.0
-2.758924,-9.781858,-2.572284,-29.33,-55.299999,42.490002,1729416776208.0,0.0
-7.647461,-7.798209,-0.672383,-3.43,-51.799999,53.48,1729416776229.0,0.0
-12.026326,-8.288737,-0.550349,-29.049999,-51.73,52.709999,1729416776249.0,0.0
-9.147761,-11.026128,-7.259824,-53.27,-46.130001,23.940001,1729416776268.0,0.0
-8.073383,-12.988241,-7.769495,-29.889999,0.63,-9.1,1729416776289.0,0.0
-6.814759,-10.844273,-5.362316,49.84,16.73,-31.01,1729416776309.0,0.0
-7.111469,-9.102298,-3.893122,72.309998,32.830002,-41.580002,1729416776328.0,0.0
-5.539384,-9.671788,-3.684947,33.599998,52.639999,-55.720001,1729416776349.0,0.0
-1.251446,-7.185646,2.22054,35.07,64.82,-62.02,1729416776369.0,0.0
-1.316052,-4.074977,8.02792,45.779999,55.439999,-38.779999,1729416776392.0,0.0
-3.244668,-5.71406,9.719646,3.5,31.780001,-22.4,1729416776411.0,0.0
-2.682354,-6.166305,6.245267,-21.07,-1.61,-7.56,1729416776431.0,0.0
-3.125026,-7.051648,3.974478,-36.889999,-14.49,10.22,1729416776449.0,0.0
-3.136991,-8.606983,2.304288,-43.400002,-21.35,28.77,1729416776469.0,0.0
-2.711068,-9.300901,0.552742,-27.299999,-32.48,42.420002,1729416776489.0,0.0
-3.67059,-9.585647,0.303888,-11.27,-39.27,48.23,1729416776509.0,0.0
-6.769295,-7.700103,0.748954,14.7,-57.82,49.630001,1729416776529.0,0.0
-8.985049,-6.754939,-1.895115,14.7,-71.400002,47.740002,1729416776550.0,0.0
-9.595219,-9.913465,-7.039684,-42.349998,-42.84,38.220001,1729416776571.0,0.0
-8.79123,-12.502499,-9.066404,-44.66,4.27,10.71,1729416776591.0,0.0
-7.460821,-12.366108,-6.594619,36.610001,28.280001,-19.6,1729416776609.0,0.0
-7.69771,-9.221939,-3.242275,80.709999,39.200001,-40.599998,1729416776633.0,0.0
-7.345965,-9.815358,-2.505285,19.460001,53.130001,-57.889999,1729416776649.0,0.0
-5.242674,-11.035697,-1.052842,-25.200001,63.630001,-72.309998,1729416776673.0,0.0
-0.413958,-4.768896,8.62134,26.809999,57.119999,-72.099998,1729416776691.0,0.0
-1.706082,-5.178068,9.432507,22.120001,41.860001,-35.84,1729416776709.0,0.0
-2.005185,-5.424529,8.193025,10.92,12.46,-13.23,1729416776729.0,0.0
-1.751546,-5.962914,4.800002,1.47,-17.57,11.69,1729416776749.0,0.0
-2.947958,-7.460821,0.878166,-34.02,-28.07,34.860001,1729416776768.0,0.0
-2.313859,-9.559326,-2.213361,-49.0,-35.84,45.57,1729416776790.0,0.0
-4.225725,-8.963513,-3.022135,-25.690001,-39.689999,48.09,1729416776808.0,0.0
-7.805387,-7.520642,-0.512064,8.68,-44.799999,57.75,1729416776828.0,0.0
-11.136196,-7.200003,-1.981257,-23.24,-55.439999,45.849998,1729416776852.0,0.0
-9.19801,-11.102697,-8.116454,-70.699997,-32.549999,21.629999,1729416776868.0,0.0
-7.953743,-12.732209,-8.130811,-39.970001,12.46,-8.4,1729416776889.0,0.0
-7.520642,-10.904092,-4.644469,40.599998,36.049999,-32.34,1729416776915.0,0.0
-7.657032,-9.762716,-2.991028,52.290001,49.84,-49.560001,1729416776928.0,0.0
-5.151747,-10.411172,-2.347359,14.21,63.91,-62.860001,1729416776949.0,0.0
-1.639083,-8.02792,2.230111,21.35,70.910004,-65.660004,1729416776970.0,0.0
-1.012164,-6.324231,7.592427,39.48,61.670002,-41.23,1729416776988.0,0.0
-1.48355,-6.293124,8.839087,31.15,32.759998,-30.309999,1729416777008.0,0.0
-0.818345,-6.458229,5.704489,21.91,-15.89,-3.85,1729416777029.0,0.0
-2.294717,-7.334002,3.270989,4.97,-30.030001,17.43,1729416777049.0,0.0
-2.184647,-8.685946,0.270389,-21.42,-41.439999,32.549999,1729416777068.0,0.0
-2.969493,-10.195816,-1.909473,-35.209999,-44.310001,38.639999,1729416777089.0,0.0
-7.245467,-7.57089,1.548156,-31.639999,-47.040001,38.150002,1729416777109.0,0.0
-9.102298,-5.481956,-0.81356,-41.09,-70.559998,44.099998,1729416777128.0,0.0
-10.626525,-9.925428,-7.128219,-84.139999,-54.810001,29.82,1729416777149.0,0.0
-9.24826,-11.693724,-10.492528,-61.389999,-16.379999,2.45,1729416777168.0,0.0
-7.171289,-11.033305,-7.657032,30.17,24.43,-18.200001,1729416777190.0,0.0
-6.668797,-9.001799,-3.940979,90.93,42.490002,-33.389999,1729416777210.0,0.0
-5.996413,-8.652447,-2.924029,47.529999,57.540001,-45.360001,1729416777229.0,0.0
-4.424329,-10.025927,-0.935594,1.68,66.779999,-51.450001,1729416777250.0,0.0
-0.990629,-8.094919,5.120641,19.6,62.369999,-49.0,1729416777270.0,0.0
-0.564706,-6.202196,7.71446,39.549999,49.630001,-34.860001,1729416777291.0,0.0
-1.323231,-6.084948,9.327222,28.07,21.559999,-19.110001,1729416777309.0,0.0
-2.019542,-7.030113,4.792823,-1.4,-19.67,8.12,1729416777331.0,0.0
-2.478964,-8.647661,1.648655,-19.809999,-30.450001,26.67,1729416777352.0,0.0
-2.050649,-9.305687,-1.447658,-19.460001,-37.170002,34.23,1729416777371.0,0.0
-5.139783,-8.463413,-0.354138,7.42,-38.779999,42.490002,1729416777393.0,0.0
-8.365308,-6.18784,0.277567,27.51,-53.060001,56.209999,1729416777412.0,0.0
-10.846665,-8.602197,-3.414558,-33.32,-51.170002,45.360001,1729416777431.0,0.0
-10.090532,-12.12204,-8.355737,-66.220001,-19.809999,15.54,1729416777452.0,0.0
-7.283752,-11.059627,-7.609176,-12.88,11.83,-11.69,1729416777471.0,0.0
-6.23091,-10.229317,-4.208975,44.73,35.209999,-25.969999,1729416777491.0,0.0
-6.623333,-9.939785,-2.316252,55.299999,45.990002,-35.630001,1729416777511.0,0.0
-5.012963,-10.217353,-1.043271,22.82,57.049999,-46.830002,1729416777531.0,0.0
-2.600998,-9.549755,1.639083,18.34,66.639999,-52.779999,1729416777551.0,0.0
-0.51685,-7.757531,8.334201,55.510002,62.650002,-38.709999,1729416777571.0,0.0
-1.536192,-5.919843,9.487542,60.060001,33.599998,-30.52,1729416777592.0,0.0
-1.105484,-5.577669,5.960521,36.68,-3.15,-13.93,1729416777611.0,0.0
-2.926422,-7.288538,3.684947,-10.71,-31.15,19.32,1729416777635.0,0.0
-2.782853,-8.903693,0.433101,-40.599998,-41.369999,31.710001,1729416777652.0,0.0
-3.014957,-9.322437,-1.952543,-45.779999,-42.490002,36.68,1729416777671.0,0.0
-6.364908,-7.642675,0.413958,-11.69,-43.119999,47.389999,1729416777693.0,0.0
-8.068598,-5.826523,0.002393,6.86,-64.260002,55.93,1729416777710.0,0.0
-11.877973,-9.54497,-5.522634,-61.18,-48.02,45.360001,1729416777731.0,0.0
-9.138189,-11.942577,-8.99462,-75.879997,-12.81,12.95,1729416777754.0,0.0
-6.920043,-12.88535,-6.501299,-2.66,28.139999,-11.41,1729416777771.0,0.0
-6.924829,-10.399208,-2.845066,80.080002,41.93,-33.25,1729416777791.0,0.0
-5.867201,-9.667004,-1.660619,65.309998,48.509998,-47.599998,1729416777811.0,0.0
-4.299902,-10.626525,0.557528,32.900002,54.810001,-56.279999,1729416777831.0,0.0
-0.526421,-7.444071,5.474778,30.1,52.849998,-58.240002,1729416777855.0,0.0
-0.062213,-5.855237,7.91785,38.849998,40.110001,-38.990002,1729416777873.0,0.0
-0.665205,-4.989035,8.829515,33.040001,10.5,-23.799999,1729416777891.0,0.0
-1.031307,-4.85743,6.441479,6.09,-16.030001,-1.05,1729416777911.0,0.0
-3.309274,-7.350751,4.034299,-29.960001,-29.4,23.24,1729416777931.0,0.0
-2.414358,-8.365308,-0.887737,-63.279999,-42.560001,37.099998,1729416777951.0,0.0
-5.300103,-9.425328,-0.026321,-49.139999,-43.400002,47.110001,1729416777971.0,0.0
-8.549555,-7.171289,0.124427,24.08,-62.860001,61.740002,1729416777992.0,0.0
-12.198609,-7.580462,-3.201597,-27.790001,-61.32,45.990002,1729416778010.0,0.0
-9.499505,-11.696117,-8.465806,-91.629997,-22.190001,17.92,1729416778030.0,0.0
-7.448857,-13.617554,-8.382057,-31.5,23.24,-10.29,1729416778051.0,0.0
-6.185446,-10.159925,-3.804588,76.790001,38.709999,-33.040001,1729416778071.0,0.0
-6.551548,-8.403593,-1.258625,86.870003,44.799999,-40.599998,1729416778092.0,0.0
-5.173282,-9.839286,-0.880559,15.89,56.279999,-50.049999,1729416778111.0,0.0
-3.615555,-10.016356,0.674776,3.99,63.84,-54.110001,1729416778130.0,0.0
-0.495314,-7.757531,7.018148,32.970001,61.810001,-46.970001,1729416778151.0,0.0
-0.887737,-6.068198,9.343972,46.689999,41.650002,-35.700001,1729416778172.0,0.0
-0.583849,-4.962714,8.772088,32.41,8.26,-19.809999,1729416778191.0,0.0
-2.122434,-5.546563,5.694918,-9.52,-17.710001,3.22,1729416778211.0,0.0
-2.991028,-7.88435,2.67039,-52.080002,-29.75,21.210001,1729416778230.0,0.0
-3.211168,-8.898908,-1.251446,-64.260002,-40.810001,31.85,1729416778251.0,0.0
-5.74756,-8.896514,1.043271,-50.889999,-38.709999,39.27,1729416778270.0,0.0
-7.60439,-5.45085,0.691526,-6.58,-53.060001,45.990002,1729416778291.0,0.0
-9.949356,-7.848458,-4.362115,-59.849998,-62.650002,48.860001,1729416778310.0,0.0
-10.179067,-11.511869,-8.513663,-99.68,-17.780001,27.299999,1729416778331.0,0.0
-7.88435,-12.696317,-7.781459,-13.23,17.15,3.5,1729416778352.0,0.0
-6.015556,-10.339387,-3.627519,85.68,31.290001,-20.719999,1729416778381.0,0.0
-6.393622,-8.997013,-1.552942,84.209999,40.110001,-33.880001,1729416778394.0,0.0
-4.589434,-10.140782,-1.473979,5.53,50.889999,-45.990002,1729416778411.0,0.0
-3.199204,-10.722239,-0.258425,-24.780001,59.779999,-50.82,1729416778430.0,0.0
-0.435494,-8.805587,4.811966,-8.75,63.349998,-50.470001,1729416778451.0,0.0
-1.526621,-7.025328,8.671589,7.91,49.98,-37.66,1729416778470.0,0.0
-0.693919,-5.907879,8.559127,10.85,9.03,-25.200001,1729416778491.0,0.0
-2.285146,-6.068198,5.663811,-22.610001,-22.26,-6.09,1729416778512.0,0.0
-3.122634,-8.056634,2.423929,-66.779999,-35.07,10.92,1729416778530.0,0.0
-3.017349,-10.750952,-1.562513,-79.870003,-42.490002,21.49,1729416778551.0,0.0
-3.84048,-10.413565,-2.270789,-48.860001,-38.639999,22.4,1729416778570.0,0.0
-5.685347,-7.355537,0.519243,1.47,-44.59,27.23,1729416778591.0,0.0
-7.881958,-5.45085,-0.246461,-1.68,-55.580002,36.189999,1729416778610.0,0.0
-9.387043,-9.430114,-6.161518,-79.800003,-32.41,22.610001,1729416778632.0,0.0
-7.369894,-11.085947,-8.583055,-39.689999,-5.6,2.45,1729416778651.0,0.0
-5.599205,-9.973285,-6.515656,23.450001,22.120001,-15.4,1729416778670.0,0.0
-5.532206,-8.159525,-3.797409,44.799999,38.709999,-22.120001,1729416778693.0,0.0
-5.4006,-9.322437,-2.598605,-7.0,49.0,-28.630001,1729416778710.0,0.0
-5.17089,-10.841879,-0.995414,-49.139999,53.619999,-37.099998,1729416778730.0,0.0
-3.421736,-9.911072,-0.299103,-45.709999,46.619999,-48.860001,1729416778750.0,0.0
-1.239482,-9.274581,2.208575,-20.299999,46.27,-45.639999,1729416778770.0,0.0
-1.804188,-8.126025,5.067998,12.88,47.599998,-34.580002,1729416778791.0,0.0
-1.648655,-8.178668,5.685347,51.52,27.51,-19.040001,1729416778810.0,0.0
-3.486342,-8.11167,5.259424,70.559998,1.05,-5.53,1729416778830.0,0.0
-3.668197,-8.334201,3.385844,59.5,-25.549999,4.41,1729416778854.0,0.0
-2.57707,-8.547162,0.736989,22.469999,-42.77,12.74,1729416778870.0,0.0
-1.98365,-7.69771,-0.916451,-17.5,-46.689999,19.74,1729416778891.0,0.0
-3.864408,-6.977471,-1.191626,-36.049999,-48.93,29.610001,1729416778913.0,0.0
-6.049056,-5.838487,-1.864009,-16.940001,-55.93,42.91,1729416778930.0,0.0
-10.762917,-8.331808,-6.707082,-23.73,-49.139999,43.049999,1729416778958.0,0.0
-7.180861,-10.729417,-8.212167,-17.360001,-11.83,15.26,1729416778971.0,0.0
-5.699703,-10.734202,-6.144768,14.07,20.440001,-1.19,1729416778992.0,0.0
-5.501099,-10.114462,-3.634698,50.259998,29.33,-15.33,1729416779010.0,0.0
-5.783452,-10.463813,-2.239682,35.279999,35.349998,-27.09,1729416779031.0,0.0
-4.914857,-10.157533,-1.043271,11.48,40.599998,-38.709999,1729416779052.0,0.0
-3.180061,-10.13839,-0.818345,11.34,43.959999,-43.470001,1729416779074.0,0.0
-1.40698,-8.427521,3.629912,29.120001,53.200001,-38.849998,1729416779092.0,0.0
-1.868794,-6.812366,7.058826,35.349998,51.029999,-29.75,1729416779110.0,0.0
-1.806581,-7.970492,7.487142,41.369999,19.32,-16.379999,1729416779131.0,0.0
-2.964707,-7.683353,5.422136,28.630001,-13.440001,-10.01,1729416779153.0,0.0
-3.455236,-8.269595,3.421736,-4.27,-32.27,3.22,1729416779173.0,0.0
-2.409572,-9.468399,0.050249,-41.23,-42.98,11.9,1729416779193.0,0.0
-1.600798,-9.427721,-1.79701,-49.700001,-41.02,14.49,1729416779212.0,0.0
-3.235096,-6.709475,-0.019143,-24.57,-41.16,22.75,1729416779231.0,0.0
-7.89153,-6.711867,-1.162912,-19.809999,-54.810001,36.049999,1729416779253.0,0.0
-9.815358,-9.702895,-5.446064,-75.669998,-36.959999,22.82,1729416779273.0,0.0
-6.82433,-10.911271,-7.779066,-54.110001,-21.210001,3.36,1729416779293.0,0.0
-5.190032,-10.96152,-6.699903,0.91,4.13,-11.97,1729416779313.0,0.0
-5.666204,-9.399008,-3.943372,37.450001,24.360001,-20.65,1729416779332.0,0.0
-6.317052,-9.135797,-1.744368,28.139999,35.209999,-28.77,1729416779352.0,0.0
-5.481956,-10.033106,-2.435893,0.21,39.619999,-36.75,1729416779373.0,0.0
-4.414758,-9.944571,-2.191825,-3.15,45.920002,-42.630001,1729416779462.0,0.0
-3.476771,-8.812766,-1.490728,8.47,51.799999,-44.450001,1729416779465.0,0.0
-3.036492,-7.91785,0.138784,16.940001,59.849998,-40.110001,1729416779465.0,0.0
-2.816352,-6.836295,3.732803,14.28,60.200001,-30.17,1729416779466.0,0.0
-2.318645,-7.776673,4.991428,7.7,39.41,-21.139999,1729416779473.0,0.0
-1.90708,-8.015956,5.479564,0.56,15.05,-15.33,1729416779493.0,0.0
-0.863809,-8.070991,3.907479,-12.04,-10.99,-6.86,1729416779513.0,0.0
-1.59362,-8.236095,1.069592,-33.740002,-24.57,5.18,1729416779533.0,0.0
-1.706082,-8.846266,-0.449851,-91.419998,-29.75,20.65,1729416779553.0,0.0
-2.24686,-9.686146,-1.533799,-113.540001,-29.120001,24.43,1729416779573.0,0.0
-3.692125,-9.293723,-0.050249,-130.410004,-30.799999,25.969999,1729416779594.0,0.0
-4.878965,-8.695518,0.20339,-155.330002,-40.25,19.67,1729416779613.0,0.0
-5.039285,-8.276773,-1.189233,-173.25,-52.5,15.89,1729416779633.0,0.0
-4.122833,-8.997013,-3.89073,-184.589996,-52.849998,16.66,1729416779664.0,0.0
-4.673182,-9.059227,-5.737988,-161.979996,-39.900002,16.309999,1729416779677.0,0.0
-4.658825,-8.444271,-6.398407,-83.93,-35.420002,19.67,1729416779694.0,0.0
-5.757132,-8.441878,-5.534599,-39.34,-23.73,22.540001,1729416779713.0,0.0
-6.271588,-7.776673,-4.326223,-33.880001,-13.93,17.85,1729416779733.0,0.0
-5.804988,-8.295916,-4.685147,-55.650002,-7.35,8.82,1729416779753.0,0.0
-5.422136,-7.336394,-4.826324,-62.650002,-6.44,-4.13,1729416779773.0,0.0
-5.216353,-5.888737,-5.067998,-69.93,-1.33,-7.91,1729416779794.0,0.0
-5.335995,-7.60439,-4.869394,-88.760002,10.57,-2.73,1729416779813.0,0.0
-5.596812,-9.60479,-4.888536,-72.590004,13.86,-5.53,1729416779833.0,0.0
-5.486742,-9.08794,-5.228317,-29.33,12.53,-14.56,1729416779856.0,0.0
-5.151747,-6.056234,-4.682754,-3.71,19.879999,-13.58,1729416779873.0,0.0
-4.443472,-6.915257,-7.113862,-19.110001,18.690001,-5.39,1729416779896.0,0.0
-3.428915,-8.281559,-8.690732,-24.219999,20.65,-0.28,1729416779913.0,0.0
-2.935993,-7.558927,-8.001599,-3.08,28.139999,-2.1,1729416779932.0,0.0
-3.65384,-6.977471,-4.986642,18.200001,35.84,-0.98,1729416779955.0,0.0
-4.024727,-5.47717,-4.532006,25.83,31.710001,0.77,1729416779975.0,0.0
-3.866802,-6.635297,-5.04407,12.81,24.780001,3.01,1729416779994.0,0.0
-3.294917,-6.680761,-4.689932,20.370001,19.040001,2.38,1729416780013.0,0.0
-3.718446,-6.364908,-3.766303,41.509998,11.27,9.24,1729416780034.0,0.0
-4.256832,-6.769295,-5.611169,33.810001,7.14,16.1,1729416780053.0,0.0
-2.993421,-8.116454,-7.176075,9.1,9.03,15.4,1729416780073.0,0.0
-4.240082,-7.290931,-6.678369,15.05,24.43,17.43,1729416780094.0,0.0
-5.302495,-7.156933,-5.35753,43.610001,31.639999,21.139999,1729416780114.0,0.0
-5.783452,-5.625526,-2.498107,36.330002,29.75,24.5,1729416780132.0,0.0
-5.9342,-7.704889,-0.535992,-6.37,6.58,5.25,1729416780154.0,0.0
-3.907479,-9.284152,-3.830909,-27.65,-26.6,-20.440001,1729416780173.0,0.0
-3.122634,-10.212566,-7.453642,-18.27,-33.389999,-32.200001,1729416780193.0,0.0
-2.775674,-8.633304,-7.657032,55.16,-24.290001,-41.16,1729416780214.0,0.0
-2.988636,-7.532606,-7.278966,79.449997,-14.7,-36.400002,1729416780234.0,0.0
-4.685147,-9.98525,-5.048856,36.82,6.93,-31.15,1729416780254.0,0.0
-3.756732,-11.145767,-7.286145,17.290001,10.15,-52.920002,1729416780273.0,0.0
-0.42353,-8.092526,0.057428,141.610001,-2.66,-61.459999,1729416780295.0,0.0
-1.347159,-4.59422,-0.574277,134.190002,19.67,-28.98,1729416780313.0,0.0
-5.067998,-2.718246,0.957129,64.959999,19.530001,-7.28,1729416780333.0,0.0
-7.412964,-8.362915,-0.985843,-51.029999,18.129999,2.52,1729416780353.0,0.0
-6.558727,-12.378072,-1.708475,-80.849998,11.62,-15.12,1729416780373.0,0.0
-4.359723,-10.131211,-1.658226,-8.54,-10.92,-21.559999,1729416780395.0,0.0
-2.811567,-7.724032,-1.100698,-12.18,-1.26,-5.11,1729416780413.0,0.0
-3.847659,-9.686146,-0.078963,-92.190002,19.6,7.21,1729416780433.0,0.0
-6.04427,-10.820344,-0.29671,-108.57,11.27,-2.66,1729416780453.0,0.0
-4.292724,-10.822738,-5.431707,-63.98,-13.79,-12.6,1729416780472.0,0.0
-0.734596,-10.844273,-9.162118,-5.95,-17.01,-13.3,1729416780492.0,0.0
1.45005,-6.427122,-10.375278,45.009998,3.15,0.07,1729416780513.0,0.0
-1.974079,-2.179861,-8.748159,53.689999,33.670002,36.330002,1729416780532.0,0.0
-4.835894,-5.706882,-5.460421,31.710001,53.48,63.349998,1729416780553.0,0.0
-5.297709,-5.340781,-4.596612,31.85,37.939999,54.389999,1729416780573.0,0.0
-5.804988,-5.685347,-4.134798,-9.31,27.02,38.920002,1729416780595.0,0.0
-5.508278,-8.630912,-4.881358,-54.110001,12.04,13.09,1729416780613.0,0.0
-3.854837,-11.284552,-6.345766,-66.849998,-4.2,-15.89,1729416780633.0,0.0
-1.043271,-11.006985,-7.932207,-45.849998,-8.47,-47.529999,1729416780652.0,0.0
-2.007578,-10.033106,-1.85683,-12.25,5.25,-50.259998,1729416780673.0,0.0
-3.213561,-9.65504,-0.229711,-37.380001,3.57,-46.130001,1729416780693.0,0.0
-4.426722,-9.370294,-2.328217,-46.689999,2.73,-44.66,1729416780713.0,0.0
-2.734996,-8.669197,-4.197011,-10.36,-7.28,-33.459999,1729416780732.0,0.0
-1.840081,-8.233703,-5.513064,-7.28,1.82,-19.040001,1729416780754.0,0.0
-1.820938,-8.748159,-5.802595,-14.28,11.06,-12.6,1729416780773.0,0.0
-2.476572,-8.88455,-4.608576,8.33,12.67,-7.35,1729416780794.0,0.0
-3.388237,-7.68096,-3.902694,33.040001,8.75,-7.56,1729416780812.0,0.0
-2.938386,-5.955735,-7.068398,46.200001,-1.33,-5.95,1729416780832.0,0.0
-2.565106,-5.666204,-7.635497,67.129997,-5.18,2.66,1729416780856.0,0.0
-3.005385,-7.82453,-4.216154,50.330002,10.15,9.24,1729416780874.0,0.0
-5.862415,-7.207181,-0.208176,12.11,17.08,10.92,1729416780893.0,0.0
-6.78126,-8.130811,-2.335395,-18.969999,0.63,4.41,1729416780912.0,0.0
-3.156133,-9.052048,-5.924629,-3.43,-17.219999,-1.54,1729416780934.0,0.0
-2.017149,-9.38465,-4.795217,4.76,-5.18,6.37,1729416780954.0,0.0
-3.572484,-10.628918,-1.09352,-15.12,13.58,10.85,1729416780972.0,0.0
-4.721039,-10.269995,0.40678,-38.639999,11.83,4.34,1729416781001.0,0.0
-2.720639,-8.803195,-3.881158,-36.68,-13.58,3.43,1729416781023.0,0.0
-0.672383,-7.118648,-10.052249,-7.0,-17.99,20.58,1729416781032.0,0.0
-2.498107,-7.597212,-8.317451,30.66,8.26,46.900002,1729416781055.0,0.0
-3.522235,-6.594619,-4.299902,73.989998,16.73,51.240002,1729416781073.0,0.0
-2.270789,-6.396015,-3.201597,74.480003,5.11,51.73,1729416781096.0,0.0
-2.009971,-6.733403,-6.407979,37.939999,4.06,57.189999,1729416781113.0,0.0
-4.311867,-9.212367,-6.080163,28.559999,20.860001,49.349998,1729416781132.0,0.0
-4.706682,-8.700303,-4.338188,50.889999,19.32,48.299999,1729416781154.0,0.0
-4.31426,-7.556533,-4.381258,70.0,10.01,42.700001,1729416781174.0,0.0
-4.826324,-8.664411,-4.689932,45.360001,9.31,23.450001,1729416781194.0,0.0
-5.462814,-7.695317,-2.579463,31.92,4.27,8.54,1729416781213.0,0.0
-5.649454,-6.707082,-2.007578,4.83,-12.74,-5.25,1729416781234.0,0.0
-5.35753,-7.180861,-2.976671,-46.759998,-29.33,-27.65,1729416781254.0,0.0
-4.917251,-8.090133,-4.065405,-82.529999,-39.130001,-51.029999,1729416781274.0,0.0
-4.04387,-9.059227,-3.488736,-73.290001,-44.450001,-69.230003,1729416781295.0,0.0
-2.388037,-7.039684,-4.019942,-24.43,-61.599998,-64.540001,1729416781313.0,0.0
-1.639083,-6.649654,-9.116654,-25.969999,-56.630001,-46.619999,1729416781335.0,0.0
-1.591227,-7.274181,-7.728817,-25.34,-25.76,-31.57,1729416781355.0,0.0
-1.320838,-8.051848,-5.510671,-3.01,-3.29,-4.83,1729416781376.0,0.0
-1.612763,-8.147561,-3.728018,38.57,-4.69,12.74,1729416781396.0,0.0
-3.448057,-7.377072,-2.586641,22.4,7.56,17.360001,1729416781416.0,0.0
-5.907879,-8.405986,-1.624727,-24.01,22.889999,21.35,1729416781435.0,0.0
-6.594619,-9.284152,-0.78006,-27.860001,17.57,20.51,1729416781454.0,0.0
-6.082555,-10.784451,-0.471386,20.440001,-2.73,22.889999,1729416781476.0,0.0
-5.575277,-9.339187,-1.024128,27.860001,-8.82,21.07,1729416781494.0,0.0
-5.364708,-9.824929,-2.359323,13.51,-6.02,20.02,1729416781515.0,0.0
-4.965107,-10.664811,-1.861616,11.48,-2.24,15.05,1729416781535.0,0.0
-5.12782,-9.683753,0.586242,2.94,-5.46,9.94,1729416781556.0,0.0
-4.65404,-7.846066,1.4668,-38.220001,-23.030001,8.12,1729416781574.0,0.0
-3.783052,-8.640482,-2.522035,-53.41,-41.93,14.35,1729416781598.0,0.0
-2.378466,-10.315458,-6.716653,-35.209999,-45.360001,12.18,1729416781614.0,0.0
-1.916651,-10.164711,-7.398607,37.52,-35.91,23.450001,1729416781635.0,0.0
-2.816352,-8.056634,-8.941978,69.019997,-5.88,39.41,1729416781656.0,0.0
-4.795217,-6.776474,-8.403593,81.830002,22.4,50.540001,1729416781674.0,0.0
-4.553542,-5.831308,-6.357729,118.720001,24.15,55.23,1729416781695.0,0.0
-5.711668,-5.630312,-5.194818,115.849998,34.369999,57.82,1729416781719.0,0.0
-6.4678,-5.534599,-3.28056,111.440002,37.450001,56.630001,1729416781735.0,0.0
-6.687939,-6.259624,-3.76391,90.860001,30.380001,46.689999,1729416781756.0,0.0
