acc_x,acc_y,acc_z,gyr_x,gyr_y,gyr_z,timestamp,label
1.938186,-5.850451,-5.441278,7.07,-90.93,77.0,1729472923397.0,0.0
0.485743,-14.038691,-13.055241,-19.25,-99.120003,68.529999,1729472923400.0,0.0
-1.655833,-16.168303,-13.696517,156.869995,-50.540001,66.709999,1729472923401.0,0.0
-5.17089,-12.078968,-12.614961,422.660004,0.84,103.879997,1729472923413.0,0.0
-7.422535,-6.635297,-4.220939,538.22998,15.33,114.169998,1729472923431.0,0.0
-10.58824,-1.380659,0.827917,443.029999,33.670002,100.169998,1729472923451.0,0.0
-12.624532,-6.695118,2.069792,210.699997,55.790001,47.110001,1729472923472.0,0.0
-8.11167,-11.038091,-0.478565,-47.389999,1.75,-34.16,1729472923491.0,0.0
-3.24706,-12.531212,-3.582055,-158.339996,-18.9,-49.139999,1729472923513.0,0.0
-0.648455,-10.882557,-5.376673,-146.020004,-4.48,-38.709999,1729472923541.0,0.0
-0.476172,-7.642675,-4.24726,-75.809998,10.22,-26.460001,1729472923551.0,0.0
-1.512264,-6.678369,-3.395415,-50.75,17.43,-12.39,1729472923571.0,0.0
-2.323431,-7.113862,-3.225525,-26.32,9.24,-1.19,1729472923591.0,0.0
-2.756532,-8.130811,-3.493521,3.36,4.97,3.5,1729472923614.0,0.0
-3.314059,-9.12144,-3.318845,26.25,7.07,7.28,1729472923632.0,0.0
-4.249653,-9.35833,-2.976671,28.559999,14.49,7.42,1729472923651.0,0.0
-5.094319,-9.116654,-2.744568,13.65,18.83,3.99,1729472923671.0,0.0
-5.228317,-8.752945,-2.957529,-5.32,15.4,-0.49,1729472923691.0,0.0
-4.522435,-8.422735,-3.318845,-20.09,7.98,-4.69,1729472923714.0,0.0
-3.65384,-8.484949,-3.495914,-20.860001,6.23,-5.46,1729472923730.0,0.0
-3.136991,-8.551948,-3.708875,-9.03,9.94,-3.43,1729472923751.0,0.0
-2.976671,-8.465806,-3.546163,7.98,14.84,-0.56,1729472923771.0,0.0
-3.065206,-8.271988,-3.232704,20.299999,18.34,3.08,1729472923791.0,0.0
-3.129812,-8.243275,-3.072384,17.780001,17.710001,5.25,1729472923813.0,0.0
-3.261417,-8.563912,-3.096312,7.84,16.52,5.25,1729472923831.0,0.0
-3.52702,-8.666803,-3.254239,-0.98,14.98,4.69,1729472923851.0,0.0
-3.809374,-8.757731,-3.433701,-7.98,12.88,3.78,1729472923871.0,0.0
-4.053442,-8.662018,-3.519842,-17.360001,7.77,0.56,1729472923891.0,0.0
-3.962514,-8.666803,-3.672983,-19.18,1.75,-1.82,1729472923914.0,0.0
-3.730411,-8.489735,-3.639483,-20.440001,-1.96,-4.41,1729472923931.0,0.0
-3.589234,-8.343772,-3.541377,-22.4,-2.73,-5.74,1729472923952.0,0.0
-3.519842,-8.377272,-3.515057,-24.92,-2.45,-5.67,1729472923971.0,0.0
-3.455236,-8.362915,-3.570091,-27.58,-2.45,-5.74,1729472923991.0,0.0
-3.393023,-8.365308,-3.651447,-25.83,-2.24,-4.69,1729472924021.0,0.0
-3.393023,-8.221739,-3.792624,-21.42,-1.19,-3.36,1729472924033.0,0.0
-3.412165,-8.082954,-3.799802,-16.59,1.05,-2.45,1729472924052.0,0.0
-3.421736,-8.051848,-3.806981,-13.02,3.01,-1.68,1729472924072.0,0.0
-3.383451,-8.12124,-3.804588,-9.45,4.27,-1.19,1729472924091.0,0.0
-3.493521,-8.123632,-3.972085,-5.46,5.53,-0.35,1729472924113.0,0.0
-3.584448,-8.161918,-3.957729,-1.19,6.16,0.56,1729472924132.0,0.0
-3.680161,-8.212167,-3.864408,0.91,5.18,0.91,1729472924151.0,0.0
-3.730411,-8.207381,-3.943372,1.12,4.34,0.77,1729472924172.0,0.0
-3.835695,-8.147561,-4.007978,0.28,3.78,0.84,1729472924192.0,0.0
-3.799802,-8.336594,-4.051049,0.42,2.31,0.7,1729472924214.0,0.0
-3.809374,-8.355737,-4.065405,1.26,0.7,0.28,1729472924232.0,0.0
-3.876373,-8.312666,-4.031906,4.48,-0.14,0.63,1729472924252.0,0.0
-3.909872,-8.212167,-3.996014,4.41,-0.91,-0.14,1729472924272.0,0.0
-3.976871,-8.209774,-3.976871,-2.17,-1.54,-0.42,1729472924295.0,0.0
-3.924229,-8.30788,-4.115655,-9.87,-2.1,-0.63,1729472924317.0,0.0
-3.900301,-8.451449,-4.273581,-12.39,-1.61,-0.07,1729472924332.0,0.0
-3.862016,-8.422735,-4.23051,-10.22,-0.35,0.84,1729472924352.0,0.0
-3.835695,-8.355737,-4.149154,-7.14,0.91,0.98,1729472924372.0,0.0
-3.828516,-8.279166,-4.089334,-5.25,1.89,0.35,1729472924392.0,0.0
-3.778267,-8.338986,-4.098906,-4.62,1.89,-0.21,1729472924414.0,0.0
-3.823731,-8.405986,-4.144369,-4.97,1.75,-0.98,1729472924433.0,0.0
-3.862016,-8.30788,-4.158726,-5.18,1.61,-1.26,1729472924453.0,0.0
-3.876373,-8.324631,-4.237689,-7.0,0.77,-2.17,1729472924473.0,0.0
-3.902694,-8.429914,-4.244867,-6.37,0.35,-1.96,1729472924494.0,0.0
-3.914658,-8.508877,-4.185047,-4.48,0.49,-2.45,1729472924516.0,0.0
-3.957729,-8.429914,-4.168297,-3.43,0.56,-3.36,1729472924534.0,0.0
-3.921836,-8.437093,-4.168297,-3.78,0.63,-4.69,1729472924553.0,0.0
-3.952943,-8.46102,-4.271189,-5.74,0.56,-6.16,1729472924573.0,0.0
-3.931407,-8.465806,-4.275974,-5.67,0.91,-7.35,1729472924595.0,0.0
-3.869194,-8.480164,-4.197011,-3.08,1.05,-8.05,1729472924616.0,0.0
-3.792624,-8.458629,-4.161119,-0.7,1.54,-9.1,1729472924633.0,0.0
-3.854837,-8.55434,-4.244867,1.33,2.45,-10.5,1729472924653.0,0.0
-3.888337,-8.530413,-4.287938,3.71,4.41,-11.48,1729472924673.0,0.0
-3.905087,-8.377272,-4.488935,6.44,6.09,-11.41,1729472924694.0,0.0
-3.826123,-8.343772,-4.577469,5.39,8.12,-11.55,1729472924715.0,0.0
-3.658626,-8.571091,-4.697111,5.18,10.22,-11.62,1729472924738.0,0.0
-3.644269,-8.484949,-4.675575,9.73,13.51,-11.2,1729472924753.0,0.0
-3.598805,-8.255238,-4.706682,16.59,16.1,-10.64,1729472924773.0,0.0
-3.455236,-8.267202,-4.87418,16.24,16.1,-10.5,1729472924793.0,0.0
-3.318845,-8.575876,-5.087141,9.73,16.1,-9.94,1729472924815.0,0.0
-3.163311,-8.432307,-4.833502,8.26,17.5,-12.53,1729472924833.0,0.0
-2.878566,-8.159525,-4.278367,8.26,17.15,-15.05,1729472924854.0,0.0
-2.48375,-8.078169,-4.134798,3.08,16.030001,-18.83,1729472924873.0,0.0
-2.29711,-8.082954,-3.888337,-7.28,15.61,-24.5,1729472924893.0,0.0
-2.285146,-7.987241,-4.0008,-22.120001,16.52,-30.17,1729472924917.0,0.0
-2.15354,-7.872386,-4.225725,-40.529999,15.68,-36.68,1729472924933.0,0.0
-2.072184,-7.673782,-4.180261,-62.02,14.7,-38.360001,1729472924953.0,0.0
-2.081756,-7.726424,-4.127619,-81.269997,12.46,-36.470001,1729472924973.0,0.0
-2.244468,-7.616355,-4.316652,-99.400002,10.08,-34.439999,1729472924993.0,0.0
-2.313859,-7.432107,-4.567898,-112.629997,6.23,-30.940001,1729472925015.0,0.0
-2.416751,-7.068398,-4.998606,-116.970001,0.07,-25.200001,1729472925033.0,0.0
-3.110669,-6.85783,-5.484349,-121.309998,-5.11,-19.25,1729472925053.0,0.0
-4.409972,-6.845865,-7.168896,-132.369995,-10.99,-17.08,1729472925073.0,0.0
-5.778666,-7.113862,-3.249453,-123.900002,-21.629999,-15.47,1729472925093.0,0.0
-7.585248,-6.329016,-6.374479,-109.410004,-30.66,-3.57,1729472925114.0,0.0
-5.922236,-7.745567,-8.805587,-96.529999,-40.25,-16.799999,1729472925134.0,0.0
-2.189433,-8.01117,-11.090734,-69.370003,-42.279999,-25.620001,1729472925153.0,0.0
-2.337788,-7.795816,-11.794223,7.07,0.35,-2.94,1729472925173.0,0.0
-3.144169,-6.037091,-11.428121,89.879997,46.830002,9.66,1729472925193.0,0.0
-1.064806,-4.888536,-9.533006,151.479996,53.760002,25.76,1729472925215.0,0.0
1.617548,-5.036892,-5.900701,120.190002,59.080002,28.35,1729472925233.0,0.0
2.828316,-8.575876,-2.658426,38.57,62.23,22.4,1729472925252.0,0.0
3.26381,-11.921042,1.883151,19.67,49.490002,13.23,1729472925274.0,0.0
2.581856,-10.068997,1.622334,41.720001,18.27,-6.37,1729472925292.0,0.0
-1.844866,-4.180261,2.440679,4.9,-2.1,-19.25,1729472925318.0,0.0
-2.816352,-5.99402,-0.57667,-109.340004,-57.189999,-35.07,1729472925333.0,0.0
-0.212961,-5.812167,-6.860222,-194.389999,-122.639999,-58.73,1729472925353.0,0.0
-1.861616,-4.855037,-10.174281,-176.960007,-124.25,-61.459999,1729472925372.0,0.0
-6.994221,-6.053841,-12.849458,-142.940002,-75.459999,-57.68,1729472925393.0,0.0
-10.277173,-7.116255,-18.534805,-10.01,-24.360001,-23.940001,1729472925417.0,0.0
-8.920443,-5.039285,-14.708681,52.779999,10.85,2.73,1729472925433.0,0.0
-2.663212,-4.436293,-12.404392,8.75,3.29,2.24,1729472925453.0,0.0
-1.205983,-5.740381,-10.719845,23.1,50.610001,17.219999,1729472925473.0,0.0
-2.201397,-7.219146,-7.546963,89.739998,70.349998,41.93,1729472925493.0,0.0
-0.464208,-6.477371,-4.694718,127.75,62.580002,47.110001,1729472925515.0,0.0
0.918844,-7.709675,-2.127219,101.709999,56.209999,38.779999,1729472925533.0,0.0
1.232304,-9.207582,0.942772,52.43,35.84,20.65,1729472925552.0,0.0
0.672383,-6.695118,-0.057428,7.56,0.07,-1.82,1729472925573.0,0.0
-3.476771,-4.965107,-1.926222,-29.049999,-15.4,-7.35,1729472925593.0,0.0
-3.213561,-4.888536,-6.69751,-108.5,-62.860001,-36.82,1729472925615.0,0.0
0.023928,-3.163311,-9.999605,-156.029999,-100.519997,-44.73,1729472925633.0,0.0
-3.359523,-5.367101,-8.142776,-164.639999,-67.059998,-41.16,1729472925653.0,0.0
-8.001599,-7.573284,-11.992826,-86.379997,-28.07,-27.440001,1729472925673.0,0.0
-9.162118,-4.625326,-13.679767,23.030001,-8.68,4.97,1729472925695.0,0.0
-5.891129,-4.587041,-11.660224,11.69,0.49,16.030001,1729472925719.0,0.0
-1.660619,-5.958128,-10.585848,-31.5,0.49,15.68,1729472925732.0,0.0
-0.595813,-7.104291,-10.322637,8.96,23.030001,24.360001,1729472925753.0,0.0
-1.069592,-7.226324,-8.020741,74.059998,40.880001,36.259998,1729472925773.0,0.0
-0.526421,-7.743174,-6.118448,129.430008,43.470001,40.810001,1729472925793.0,0.0
0.753739,-9.073583,-4.663611,107.940002,48.509998,20.51,1729472925817.0,0.0
0.959522,-7.716853,-1.67019,88.410004,37.939999,6.44,1729472925832.0,0.0
-0.172283,-5.048856,-1.328017,45.849998,15.33,-14.42,1729472925852.0,0.0
-3.438486,-4.029513,-1.529014,7.21,-8.75,-18.200001,1729472925873.0,0.0
-3.847659,-3.407379,-5.95095,-66.849998,-56.77,-43.189999,1729472925893.0,0.0
-2.301895,-0.351745,-7.690532,-141.330002,-82.669998,-45.849998,1729472925914.0,0.0
-4.426722,-5.47717,-9.52822,-118.230003,-67.480003,-20.65,1729472925933.0,0.0
-8.79123,-5.163712,-11.468799,-58.66,-17.92,4.34,1729472925952.0,0.0
-10.626525,-5.503492,-13.892728,-27.65,9.1,40.810001,1729472925974.0,0.0
-5.481956,-6.979864,-11.533404,-62.369999,4.55,30.870001,1729472925993.0,0.0
-1.438086,-8.757731,-9.999605,13.79,3.64,50.959999,1729472926014.0,0.0
0.019143,-6.360123,-7.819745,57.049999,33.740002,44.799999,1729472926032.0,0.0
-0.191426,-9.29133,-6.63769,21.139999,44.869999,45.43,1729472926059.0,0.0
1.009771,-12.313466,-3.223132,22.75,42.0,30.030001,1729472926074.0,0.0
1.363909,-9.650253,-1.09352,73.919998,26.6,13.79,1729472926092.0,0.0
0.291924,-5.223531,-0.849452,52.360001,12.6,-10.78,1729472926117.0,0.0
-4.304688,-4.725825,-3.665804,4.55,-13.86,-14.7,1729472926133.0,0.0
-3.790231,-3.127419,-6.994221,-107.800003,-73.080002,-56.91,1729472926153.0,0.0
-2.912065,0.011964,-10.243673,-152.320007,-84.559998,-56.630001,1729472926173.0,0.0
-5.446064,-3.622734,-12.129218,-108.849998,-49.0,-24.15,1729472926193.0,0.0
-9.255438,-3.739982,-13.217952,-31.360001,-6.09,11.06,1729472926215.0,0.0
-9.702895,-3.416951,-13.667803,-7.98,18.34,35.0,1729472926233.0,0.0
-4.381258,-4.371687,-11.942577,-28.0,7.07,32.549999,1729472926254.0,0.0
-1.990828,-6.80758,-9.442079,-4.97,20.65,35.349998,1729472926273.0,0.0
-1.660619,-6.802795,-7.496714,31.15,33.599998,30.52,1729472926293.0,0.0
-0.957129,-8.408379,-7.046863,35.490002,31.92,25.76,1729472926318.0,0.0
-0.617348,-10.329816,-5.675776,36.75,28.0,10.36,1729472926333.0,0.0
-1.153341,-9.688539,-5.352744,70.0,27.65,-9.03,1729472926354.0,0.0
-1.395016,-6.474977,-3.711268,54.670002,18.129999,-34.02,1729472926373.0,0.0
-1.37348,-6.159126,-5.24746,2.24,-4.97,-52.43,1729472926393.0,0.0
-1.722832,-4.180261,-7.429714,-29.26,-18.690001,-67.690002,1729472926416.0,0.0
-2.014757,-3.270989,-8.736196,-29.540001,-24.57,-60.760002,1729472926434.0,0.0
-2.462214,-2.522035,-9.789038,-72.449997,-19.25,-46.759998,1729472926454.0,0.0
-5.041678,-2.727818,-9.932607,-31.15,-1.19,-11.69,1729472926475.0,0.0
-6.84108,-2.505285,-11.205588,24.57,14.84,19.389999,1729472926495.0,0.0
-5.740381,-2.160719,-10.112068,61.110001,21.07,46.130001,1729472926517.0,0.0
-2.85703,-1.986043,-10.037891,29.4,10.08,47.529999,1729472926535.0,0.0
-3.668197,-2.885744,-9.667004,33.18,33.599998,62.93,1729472926554.0,0.0
-4.13719,-4.26401,-6.470192,33.529999,39.900002,66.43,1729472926576.0,0.0
-2.916851,-7.21436,-3.859623,-26.389999,27.65,55.93,1729472926595.0,0.0
-1.811367,-12.229716,-2.742175,-57.049999,8.12,35.560001,1729472926617.0,0.0
-1.464408,-12.16511,-4.199404,-55.09,-6.09,6.16,1729472926636.0,0.0
-2.54357,-10.164711,-5.101498,-59.220001,-16.309999,-25.34,1729472926655.0,0.0
-2.629712,-9.683753,-7.489535,-85.050003,-30.309999,-54.040001,1729472926675.0,0.0
-1.615155,-5.98445,-7.740781,-73.989998,-44.73,-68.32,1729472926694.0,0.0
-3.251846,-3.548556,-9.602397,-91.699997,-37.869999,-71.889999,1729472926717.0,0.0
-4.479364,-2.658426,-12.495319,-94.150002,-23.52,-55.16,1729472926736.0,0.0
-4.677969,-1.878366,-13.328021,-24.710001,-6.3,-25.549999,1729472926755.0,0.0
-3.414558,0.270389,-11.949757,73.150002,9.03,11.9,1729472926780.0,0.0
-2.45025,3.677768,-9.609575,95.480003,22.610001,36.470001,1729472926794.0,0.0
-3.309274,0.581456,-9.750752,39.41,28.84,49.139999,1729472927008.0,0.0
-3.672983,-3.835695,-10.298709,4.97,34.439999,49.84,1729472927008.0,0.0
-1.945365,-5.065606,-7.956135,45.150002,30.940001,51.939999,1729472927009.0,0.0
-1.706082,-6.556334,-4.388437,63.91,33.740002,49.279999,1729472927009.0,0.0
-2.723032,-9.803394,-2.012364,-9.8,26.809999,19.110001,1729472927009.0,0.0
-3.359523,-12.859028,-3.641876,-77.559998,-0.49,-18.9,1729472927009.0,0.0
-3.507878,-10.095319,-7.460821,-64.68,-18.620001,-48.720001,1729472927010.0,0.0
-2.29711,-5.716454,-9.288938,-23.940001,-30.030001,-54.389999,1729472927010.0,0.0
-2.079363,-5.242674,-8.678767,-26.74,-27.790001,-54.389999,1729472927038.0,0.0
-4.354938,-4.012764,-9.102298,-41.439999,-15.54,-56.91,1729472927039.0,0.0
-4.007978,-4.981857,-12.224932,-40.110001,-18.129999,-53.130001,1729472927041.0,0.0
-2.684747,-3.036492,-11.473583,2.59,-12.25,-35.84,1729472927043.0,0.0
-2.74696,0.660419,-10.750952,74.129997,15.75,0.35,1729472927055.0,0.0
-1.808974,0.985843,-9.789038,59.57,23.030001,22.469999,1729472927089.0,0.0
-1.531406,-1.658226,-10.485349,9.59,34.860001,26.389999,1729472927094.0,0.0
-1.383051,-2.620141,-10.147961,30.52,40.810001,38.290001,1729472927118.0,0.0
-1.744368,-2.172683,-9.51147,59.080002,47.950001,45.849998,1729472927134.0,0.0
-2.254039,-4.783253,-6.506085,41.369999,52.080002,45.150002,1729472927155.0,0.0
-2.663212,-8.197811,-4.256832,21.49,41.09,32.830002,1729472927175.0,0.0
-3.34038,-10.411172,-2.648855,1.26,24.01,8.47,1729472927196.0,0.0
-3.948158,-7.755138,-3.720839,-22.4,-0.28,-15.190001,1729472927226.0,0.0
-4.23051,-6.754939,-5.871986,-48.93,-22.610001,-24.85,1729472927242.0,0.0
-3.567699,-5.458029,-9.135797,-72.309998,-31.85,-32.549999,1729472927257.0,0.0
-4.328616,-4.986642,-9.97807,-66.220001,-24.99,-26.6,1729472927277.0,0.0
-4.369294,-4.718646,-13.036098,-53.549999,-11.2,-25.690001,1729472927297.0,0.0
-2.59382,-2.443072,-12.662818,5.11,-5.95,-8.19,1729472927322.0,0.0
-1.751546,0.055035,-11.052447,60.549999,9.52,16.799999,1729472927336.0,0.0
-0.736989,-0.653241,-8.29113,0.77,19.879999,21.77,1729472927357.0,0.0
-2.031506,-3.460021,-9.923036,-45.709999,26.530001,18.690001,1729472927377.0,0.0
-0.78006,-4.974678,-11.870793,-3.43,23.66,18.549999,1729472927399.0,0.0
0.323031,-4.465007,-9.719646,60.41,29.120001,25.129999,1729472927420.0,0.0
-0.174676,-4.555934,-5.54417,82.040001,40.459999,27.23,1729472927438.0,0.0
-1.351945,-9.238688,-2.651247,56.0,30.66,13.58,1729472927457.0,0.0
-3.711268,-10.765309,-0.619741,43.959999,7.91,-11.34,1729472927477.0,0.0
-4.859823,-5.601598,-3.85723,24.92,-25.620001,-29.889999,1729472927499.0,0.0
-3.531806,-4.555934,-8.070991,-59.779999,-56.139999,-36.119999,1729472927520.0,0.0
-2.888137,-6.893722,-10.954341,-107.239998,-48.650002,-33.040001,1729472927537.0,0.0
-4.974678,-5.67099,-10.822738,-75.040001,-22.26,-31.92,1729472927557.0,0.0
-4.457829,-5.223531,-12.574283,-25.9,-17.01,-22.190001,1729472927579.0,0.0
-1.789831,-2.919244,-12.559926,64.120003,-18.690001,-2.17,1729472927598.0,0.0
-1.371087,-2.237289,-10.442278,129.919998,-0.56,15.68,1729472927620.0,0.0
-2.775674,-4.460221,-9.667004,91.0,18.129999,13.51,1729472927637.0,0.0
-2.782853,-13.629518,-11.499906,148.680008,26.530001,-4.2,1729472927656.0,0.0
-2.203789,-13.167704,-11.042876,361.549988,28.42,6.16,1729472927681.0,0.0
-1.871187,-9.564112,-11.485549,627.47998,28.35,7.98,1729472927699.0,0.0
-1.493121,-3.742374,-9.899107,776.929993,43.610001,4.83,1729472927718.0,0.0
-1.342373,-0.557528,-5.412565,765.23999,45.779999,16.59,1729472927736.0,0.0
-0.725025,-1.569692,-1.253839,689.220032,22.049999,24.85,1729472927759.0,0.0
-0.191426,-3.558127,2.818745,609.77002,15.54,22.26,1729472927778.0,0.0
-1.234696,-3.141776,6.525227,488.809998,17.360001,26.18,1729472927799.0,0.0
-2.316252,-4.711468,8.405986,356.579987,16.450001,16.17,1729472927819.0,0.0
-3.570091,-4.76411,9.820145,196.279999,2.24,29.960001,1729472927837.0,0.0
-4.694718,-7.125826,8.317451,64.959999,-20.58,17.92,1729472927857.0,0.0
-4.333402,-7.881958,7.066005,21.35,-32.549999,22.469999,1729472927879.0,0.0
-3.706482,-7.269395,6.345766,41.16,-26.74,21.629999,1729472927898.0,0.0
-3.304488,-6.441479,6.644868,64.82,-17.5,20.299999,1729472927918.0,0.0
-2.744568,-7.04447,5.594419,62.720001,-10.64,17.85,1729472927936.0,0.0
-3.058028,-7.738388,4.890929,56.700001,-2.31,12.18,1729472927957.0,0.0
-2.986243,-6.819544,4.398008,74.269997,15.82,6.3,1729472927978.0,0.0
-3.046063,-5.74756,5.276174,80.220001,41.509998,-7.63,1729472927996.0,0.0
-3.270989,-5.912664,6.716653,78.190002,48.650002,-12.04,1729472928021.0,0.0
-3.098706,-5.587241,7.295716,79.519997,49.84,-16.799999,1729472928037.0,0.0
-2.900101,-5.417351,7.319644,73.849998,47.880001,-20.719999,1729472928057.0,0.0
-2.885744,-5.359922,7.427321,64.889999,45.5,-23.309999,1729472928076.0,0.0
-3.285345,-5.381458,8.109276,57.75,42.560001,-23.1,1729472928104.0,0.0
-3.804588,-5.151747,8.580662,49.560001,36.68,-22.540001,1729472928123.0,0.0
-4.261617,-4.692325,8.243275,32.34,28.42,-22.190001,1729472928137.0,0.0
-4.618148,-4.304688,7.831708,13.37,19.040001,-16.1,1729472928158.0,0.0
-4.65404,-4.352544,7.113862,-0.42,13.65,-13.3,1729472928178.0,0.0
-4.536791,-4.311867,6.460621,-7.7,10.29,-7.63,1729472928198.0,0.0
-4.103691,-3.85723,5.773881,2.24,13.23,-1.33,1729472928219.0,0.0
-4.481757,-4.429115,6.740582,15.96,21.49,4.76,1729472928236.0,0.0
-3.795017,-5.261817,7.166504,15.26,29.26,-6.72,1729472928259.0,0.0
-3.589234,-5.431707,7.88435,12.6,34.369999,-14.98,1729472928278.0,0.0
-2.65364,-2.086541,9.863215,5.46,36.049999,-21.0,1729472928297.0,0.0
-2.184647,-1.256232,10.171888,-25.34,22.68,-9.24,1729472928322.0,0.0
-2.038685,-1.215554,9.982857,-25.48,10.36,8.75,1729472928337.0,0.0
-4.26401,-3.790231,8.379664,-29.889999,-3.43,25.620001,1729472928400.0,0.0
-3.900301,-4.756931,7.606783,-13.58,-9.94,30.380001,1729472928400.0,0.0
-3.089134,-3.706482,8.250452,10.92,-7.49,31.710001,1729472928400.0,0.0
-3.720839,-3.854837,8.16431,-3.01,-9.52,33.810001,1729472928431.0,0.0
-4.185047,-4.936393,7.034898,-30.030001,-12.95,34.93,1729472928437.0,0.0
-5.163712,-8.047063,5.070391,-27.51,-15.12,33.18,1729472928458.0,0.0
-5.936593,-8.023134,5.046463,24.85,-3.85,23.52,1729472928480.0,0.0
-6.82433,-6.69751,7.211967,62.580002,9.45,8.33,1729472928499.0,0.0
-6.798009,-8.891729,7.250252,25.41,1.68,-15.96,1729472928522.0,0.0
-4.878965,-7.630712,8.243275,23.1,2.59,-35.84,1729472928540.0,0.0
-4.898108,-5.735595,7.310073,18.549999,2.66,-44.380001,1729472928559.0,0.0
-4.130012,-4.199404,5.831308,-12.81,1.26,-53.900002,1729472928579.0,0.0
-4.445865,-2.380858,7.613962,9.45,10.99,-38.5,1729472928599.0,0.0
-2.323431,0.748954,8.16431,-13.86,10.64,-43.259998,1729472928622.0,0.0
-2.215754,2.660819,9.705289,-39.34,9.94,-19.110001,1729472928657.0,0.0
-2.59382,0.064606,9.190832,-73.989998,-0.35,8.68,1729472928659.0,0.0
-5.089533,-5.278566,7.116255,-54.18,-13.3,30.870001,1729472928679.0,0.0
-5.678168,-4.826324,6.91765,12.74,-10.29,39.200001,1729472928699.0,0.0
-3.5007,-2.691926,7.88435,36.049999,-4.27,37.73,1729472928723.0,0.0
-3.505485,-3.701697,7.343572,-9.94,-11.34,43.259998,1729472928738.0,0.0
-3.74716,-6.690332,5.814559,-32.619999,-12.25,46.900002,1729472928759.0,0.0
-4.73061,-9.683753,4.962714,-12.46,-9.52,39.619999,1729472928779.0,0.0
-5.802595,-8.475377,4.546363,46.130001,11.2,27.09,1729472928799.0,0.0
-7.04447,-9.202796,6.178268,45.009998,15.89,1.33,1729472928824.0,0.0
-5.570491,-8.451449,7.898707,30.450001,12.81,-25.76,1729472928838.0,0.0
-3.452843,-4.663611,8.85105,23.870001,10.5,-32.970001,1729472928859.0,0.0
-4.907679,-5.795416,7.63789,-14.56,-5.39,-24.639999,1729472928883.0,0.0
-4.204189,-5.781059,7.211967,-5.04,-6.72,-38.709999,1729472928898.0,0.0
-3.665804,-3.498307,8.405986,29.4,-1.96,-36.82,1729472928920.0,0.0
-2.364109,-0.502493,9.915856,-12.46,-3.5,-45.639999,1729472928940.0,0.0
-1.677369,0.916451,9.300901,-68.669998,-11.55,-29.4,1729472928958.0,0.0
-1.871187,-0.495314,8.032705,-84.769997,-17.08,-4.41,1729472928978.0,0.0
-3.955336,-3.739982,7.180861,-53.830002,-17.99,16.73,1729472928999.0,0.0
-6.065805,-5.82413,6.491727,-9.59,-20.93,23.52,1729472929020.0,0.0
-4.431508,-3.148954,7.814958,30.66,-10.78,24.43,1729472929039.0,0.0
-4.067799,-3.416951,8.300702,-1.33,-15.05,26.74,1729472929060.0,0.0
-3.809374,-4.039084,7.185646,-34.860001,-19.6,33.740002,1729472929086.0,0.0
-4.278367,-6.9344,6.008378,-32.41,-18.200001,36.330002,1729472929115.0,0.0
-5.752346,-8.874979,4.639683,4.83,-11.62,31.15,1729472929189.0,0.0
-6.202196,-6.503692,6.515656,49.420002,7.98,17.15,1729472929189.0,0.0
1.744368,-7.446464,6.910471,26.67,-2.1,-46.619999,1729472929190.0,0.0
-3.39063,-9.879964,7.489535,2.03,9.73,-0.56,1729472929190.0,0.0
-4.735396,-8.16431,7.068398,22.049999,9.1,-4.06,1729472929197.0,0.0
-4.381258,-3.156133,7.867601,38.920002,11.48,-35.77,1729472929220.0,0.0
-3.754339,-6.262017,7.305287,-0.49,-0.21,-31.780001,1729472929244.0,0.0
-3.065206,-3.440879,7.9011,17.15,2.03,-33.18,1729472929257.0,0.0
-2.864209,-1.019342,9.738789,10.43,4.76,-27.790001,1729472929279.0,0.0
-2.26361,-0.827917,9.19801,-54.670002,-8.19,-18.9,1729472929298.0,0.0
-2.227718,-1.622334,7.649854,-70.840004,-16.309999,0.77,1729472929322.0,0.0
-2.589034,-2.667997,7.290931,-51.450001,-15.05,20.09,1729472929339.0,0.0
-4.48415,-5.596812,6.76451,-19.040001,-15.4,31.710001,1729472929359.0,0.0
-5.187639,-5.709275,6.936793,9.24,-12.81,30.66,1729472929379.0,0.0
-3.936193,-5.481956,7.41775,9.59,-10.64,21.42,1729472929399.0,0.0
-3.144169,-5.788238,7.147361,-8.12,-9.24,16.1,1729472929420.0,0.0
-3.110669,-4.864608,6.539584,-14.84,-4.83,13.09,1729472929439.0,0.0
-3.814159,-4.366901,5.766702,-8.89,1.68,16.940001,1729472929459.0,0.0
-4.998606,-7.503892,5.596812,-0.28,4.62,20.370001,1729472929480.0,0.0
-5.283352,-7.769495,6.329016,35.209999,12.67,15.61,1729472929498.0,0.0
-5.589634,-7.609176,7.262216,40.670002,15.89,-2.17,1729472929520.0,0.0
-4.98425,-9.473185,6.455836,11.9,10.64,-18.690001,1729472929539.0,0.0
-2.940779,-6.338587,7.271788,17.290001,15.190001,-31.57,1729472929559.0,0.0
-4.273581,-5.79781,7.767102,15.54,12.88,-34.23,1729472929578.0,0.0
-3.838088,-5.776274,7.817351,8.75,0.77,-37.59,1729472929599.0,0.0
-3.534199,-3.617948,8.88455,33.740002,3.43,-32.41,1729472929620.0,0.0
-2.964707,-1.213161,10.236496,1.54,-2.03,-39.970001,1729472929638.0,0.0
-1.607977,0.897308,10.329816,-37.240002,-9.38,-20.51,1729472929658.0,0.0
-1.878366,-0.454636,8.441878,-74.480003,-21.629999,2.87,1729472929680.0,0.0
-2.816352,-3.790231,7.503892,-69.160004,-23.66,20.719999,1729472929699.0,0.0
-5.12782,-6.84108,6.372087,-19.32,-24.85,28.07,1729472929720.0,0.0
-4.819145,-5.139783,7.319644,33.880001,-12.74,26.32,1729472929738.0,0.0
-3.579663,-4.252046,7.989635,21.35,-13.37,18.200001,1729472929758.0,0.0
-3.211168,-4.596612,7.661818,-9.87,-16.24,18.200001,1729472929780.0,0.0
-3.330809,-4.601398,6.618547,-14.49,-14.91,27.16,1729472929797.0,0.0
-4.953143,-6.396015,5.927022,-5.39,-10.99,33.459999,1729472929820.0,0.0
-5.828916,-8.539984,4.835894,17.5,-7.56,24.360001,1729472929838.0,0.0
-6.18784,-7.905886,5.630312,54.389999,7.77,13.51,1729472929858.0,0.0
-5.771489,-11.186446,4.728218,26.880001,10.57,-17.57,1729472929880.0,0.0
-3.589234,-8.181061,6.819544,44.52,29.469999,-44.240002,1729472929898.0,0.0
-4.31426,-4.833502,6.9344,34.860001,35.84,-53.619999,1729472929920.0,0.0
-4.618148,-6.711867,5.974878,-6.72,24.01,-55.23,1729472929938.0,0.0
-3.012564,-3.259024,8.374879,41.369999,33.459999,-48.02,1729472929958.0,0.0
-3.512664,-1.174876,10.973484,33.110001,28.280001,-45.709999,1729472929980.0,0.0
-2.031506,0.148355,11.263017,-25.9,11.2,-24.85,1729472929998.0,0.0
-1.105484,-1.165305,8.310273,-80.360001,-5.11,-10.78,1729472930021.0,0.0
-2.208575,-2.160719,7.384251,-75.949997,-6.02,14.14,1729472930038.0,0.0
-4.316652,-5.601598,6.065805,-41.23,-9.94,27.09,1729472930058.0,0.0
-5.503492,-6.269196,6.419943,13.93,-6.3,32.970001,1729472930078.0,0.0
-3.694518,-4.618148,8.666803,35.560001,-1.19,23.52,1729472930098.0,0.0
-3.160919,-5.446064,9.025726,7.56,-10.78,21.0,1729472930122.0,0.0
-3.17049,-4.642076,8.245667,-13.79,-17.639999,22.120001,1729472930144.0,0.0
-3.244668,-3.37388,7.24786,-21.98,-18.76,30.17,1729472930158.0,0.0
-4.553542,-8.860621,4.536791,-34.299999,-26.389999,34.09,1729472930179.0,0.0
-4.661219,-8.472985,6.049056,33.740002,-8.33,26.110001,1729472930199.0,0.0
-6.209375,-7.929814,6.156733,53.48,3.08,3.64,1729472930222.0,0.0
-3.87398,-8.382057,6.793223,19.460001,0.63,-17.219999,1729472930239.0,0.0
-3.314059,-5.410172,7.613962,23.799999,9.45,-34.720001,1729472930259.0,0.0
-5.199604,-5.922236,7.853244,11.2,2.38,-33.740002,1729472930278.0,0.0
-4.04387,-6.766902,7.235896,10.99,-1.68,-43.259998,1729472930300.0,0.0
-3.694518,-4.041477,8.882158,40.740002,2.31,-41.09,1729472930323.0,0.0
-2.569891,-1.289732,10.279566,4.55,-2.31,-51.029999,1729472930338.0,0.0
-0.725025,0.208176,9.224331,-53.200001,-12.88,-34.299999,1729472930358.0,0.0
-0.832702,-0.827917,8.109276,-76.860001,-18.059999,-17.85,1729472930378.0,0.0
-1.832902,-1.899901,7.484749,-54.110001,-14.21,2.94,1729472930401.0,0.0
-3.639483,-5.912664,6.345766,-12.18,-17.639999,15.75,1729472930433.0,0.0
-4.309474,-5.065606,6.640083,39.48,-8.68,19.040001,1729472930439.0,0.0
-2.720639,-3.127419,7.810174,45.57,-0.42,14.63,1729472930459.0,0.0
-3.017349,-4.517649,7.334002,6.86,-2.1,17.92,1729472930481.0,0.0
-2.916851,-3.9338,6.245267,-17.360001,1.4,23.66,1729472930500.0,0.0
-4.465007,-6.91765,5.869594,-15.89,4.27,32.900002,1729472930522.0,0.0
-6.01077,-8.216952,5.211568,33.529999,10.01,35.84,1729472930539.0,0.0
-6.850651,-7.51107,6.876972,57.470001,20.58,23.799999,1729472930559.0,0.0
-6.501299,-10.102496,6.812366,22.120001,15.190001,-5.04,1729472930581.0,0.0
-4.280759,-8.267202,7.278966,22.68,17.780001,-27.719999,1729472930599.0,0.0
-2.718246,-4.551149,8.039884,28.280001,19.18,-36.82,1729472930621.0,0.0
-4.053442,-4.979464,7.611568,0.42,9.8,-31.639999,1729472930641.0,0.0
-3.251846,-5.907879,7.183254,-5.74,6.02,-38.360001,1729472930660.0,0.0
-3.127419,-5.067998,8.255238,24.639999,7.7,-36.119999,1729472930681.0,0.0
-2.909672,-3.022135,10.016356,29.049999,10.71,-41.509998,1729472930699.0,0.0
-2.151148,-1.282553,9.310472,-34.02,1.26,-38.290001,1729472930721.0,0.0
-1.923829,-1.990828,7.738388,-68.389999,-5.95,-24.99,1729472930739.0,0.0
-2.404787,-2.28036,7.326823,-60.689999,-3.15,-8.96,1729472930759.0,0.0
-2.991028,-3.067599,7.207181,-33.599998,-2.8,6.93,1729472930780.0,0.0
-4.409972,-4.505685,7.645068,-6.51,-4.69,19.460001,1729472930799.0,0.0
-4.287938,-4.85743,8.499306,0.21,-5.25,23.379999,1729472930824.0,0.0
-3.012564,-5.173282,8.446664,-14.49,-9.59,20.51,1729472930839.0,0.0
-2.258825,-4.826324,7.896315,-18.9,-11.62,20.860001,1729472930863.0,0.0
-2.67039,-3.76391,7.310073,-27.719999,-10.36,26.389999,1729472930879.0,0.0
-3.558127,-3.814159,6.312266,-20.58,-8.26,37.099998,1729472930901.0,0.0
-5.156533,-6.448657,6.860222,1.96,-6.37,43.470001,1729472930921.0,0.0
-5.417351,-7.140182,6.690332,32.34,-1.75,34.02,1729472930951.0,0.0
-6.431907,-7.975278,7.178468,45.849998,3.99,20.860001,1729472930959.0,0.0
-6.381658,-10.523634,6.419943,33.529999,-0.56,-4.48,1729472930979.0,0.0
-5.285746,-9.075976,6.429514,49.279999,6.51,-27.790001,1729472930999.0,0.0
-3.704089,-5.749953,7.700103,53.130001,10.29,-39.689999,1729472931021.0,0.0
-3.572484,-5.125426,7.695317,26.389999,4.2,-39.27,1729472931039.0,0.0
-4.041477,-6.23091,7.566105,7.84,-2.45,-43.259998,1729472931059.0,0.0
-3.481557,-5.029713,6.750153,29.049999,0.91,-39.130001,1729472931080.0,0.0
-3.275774,-2.682354,8.523234,36.470001,8.19,-40.740002,1729472931100.0,0.0
-1.347159,0.392423,9.906286,-2.31,8.33,-45.779999,1729472931121.0,0.0
-0.538385,1.160519,8.941978,-53.830002,0.84,-25.27,1729472931138.0,0.0
-1.033699,-0.370888,7.343572,-73.150002,-2.73,3.43,1729472931158.0,0.0
-2.316252,-3.4672,6.79083,-48.02,0.07,24.710001,1729472931181.0,0.0
-4.208975,-4.819145,6.570691,-0.56,3.01,32.900002,1729472931200.0,0.0
-3.294917,-4.130012,8.30788,41.650002,12.6,31.219999,1729472931221.0,0.0
-3.9673,-4.599005,9.152546,19.879999,6.79,34.299999,1729472931239.0,0.0
-4.261617,-4.41715,7.951349,-5.95,-1.75,39.549999,1729472931259.0,0.0
-4.529613,-8.154739,6.104091,-21.07,-10.15,38.360001,1729472931279.0,0.0
-5.479564,-8.183454,5.319244,18.690001,0.35,28.07,1729472931299.0,0.0
-6.843473,-6.616155,7.168896,53.060001,12.53,11.55,1729472931325.0,0.0
-6.563512,-8.863015,7.288538,33.950001,7.14,-10.01,1729472931340.0,0.0
-7.077969,-6.149554,7.695317,36.330002,5.32,-34.16,1729472931358.0,0.0
-2.761317,-6.118448,7.89153,26.74,7.56,-34.23,1729472931381.0,0.0
-4.158726,-2.919244,8.659625,40.040001,5.46,-37.310001,1729472931399.0,0.0
-5.206782,-4.567898,8.709875,9.24,-6.3,-32.830002,1729472931423.0,0.0
-4.393222,-4.65404,7.996813,18.620001,-8.96,-35.77,1729472931441.0,0.0
-3.797409,-2.924029,7.45125,32.34,-5.04,-34.09,1729472931458.0,0.0
-2.883351,-2.904887,7.690532,0.14,-0.56,-37.450001,1729472931479.0,0.0
-2.720639,-2.524428,7.60439,-29.75,1.05,-33.599998,1729472931499.0,0.0
-3.629912,-1.696511,7.657032,-40.810001,3.29,-23.66,1729472931521.0,0.0
-4.395615,-1.957329,8.370094,-54.529999,2.66,-0.84,1729472931546.0,0.0
-5.024928,-4.364508,7.688138,-68.25,-14.0,11.06,1729472931559.0,0.0
-5.347959,-5.35753,8.090133,-18.76,-21.559999,24.15,1729472931579.0,0.0
-5.106283,-4.287938,9.166903,21.77,-23.59,32.200001,1729472931599.0,0.0
-4.407579,-4.019942,9.056834,5.95,-32.200001,34.720001,1729472931621.0,0.0
-3.503092,-5.472386,8.281559,-32.759998,-40.459999,33.040001,1729472931639.0,0.0
-2.847459,-6.489335,8.298308,-61.32,-40.670002,27.23,1729472931659.0,0.0
-3.795017,-4.15394,9.77468,-72.519997,-44.170002,28.07,1729472931679.0,0.0
-4.634897,-3.878766,9.741181,-89.879997,-58.170002,42.630001,1729472931699.0,0.0
-3.684947,-7.489535,8.343772,-119.07,-83.93,36.119999,1729472931720.0,0.0
-1.792224,-10.631311,6.78126,-110.459999,-94.919998,23.1,1729472931740.0,0.0
-0.591027,-11.069198,5.556134,-81.550003,-84.699997,-0.35,1729472931759.0,0.0
0.129212,-10.08814,5.161318,-68.879997,-64.959999,-30.17,1729472931779.0,0.0
0.653241,-9.789038,4.922036,-76.580002,-45.009998,-63.07,1729472931799.0,0.0
1.026521,-9.501899,4.206582,-81.970001,-25.059999,-85.540001,1729472931962.0,0.0
1.148555,-8.949157,3.768696,-60.48,-3.92,-96.669998,1729472931966.0,0.0
0.897308,-7.692925,3.919443,-27.58,14.84,-103.040001,1729472931966.0,0.0
0.667598,-6.015556,4.144369,-4.62,39.970001,-98.559998,1729472931966.0,0.0
0.66999,-6.118448,4.558327,-6.58,51.240002,-99.470001,1729472931966.0,0.0
0.658026,-5.687739,5.257031,0.07,59.360001,-87.849998,1729472931967.0,0.0
0.069392,-5.230711,6.369694,17.15,62.93,-73.080002,1729472931967.0,0.0
-0.488136,-5.190032,6.922436,21.559999,58.310001,-61.18,1729472931967.0,0.0
-1.332802,-7.030113,6.63769,13.72,52.990002,-51.59,1729472932009.0,0.0
-1.459622,-8.800802,5.838487,16.17,41.580002,-47.950001,1729472932010.0,0.0
-0.404387,-6.144768,8.413164,76.650002,50.82,-43.959999,1729472932020.0,0.0
-0.071785,-2.533999,9.607183,80.989998,45.779999,-36.610001,1729472932038.0,0.0
0.394816,-1.328017,9.138189,9.17,26.110001,-24.85,1729472932057.0,0.0
1.088734,-2.270789,8.044669,-45.779999,12.95,-1.75,1729472932077.0,0.0
0.79681,-5.020142,6.053841,-78.68,9.1,14.0,1729472932097.0,0.0
-0.454636,-5.761917,6.163911,-54.880001,9.8,29.889999,1729472932120.0,0.0
-0.655633,-4.003192,7.144968,15.05,11.13,48.23,1729472932137.0,0.0
-2.237289,-2.883351,7.843673,13.79,9.38,64.610001,1729472932159.0,0.0
-3.974478,-4.778467,7.657032,-23.379999,1.4,82.879997,1729472932178.0,0.0
-6.599405,-7.944171,6.788438,-61.32,-4.48,87.709999,1729472932198.0,0.0
-11.234302,-17.450855,4.103691,-121.099998,-22.049999,56.560001,1729472932222.0,0.0
-11.030912,-18.278772,0.863809,-101.57,-19.110001,10.64,1729472932238.0,0.0
-7.977671,-15.273388,2.45025,-7.7,-7.35,-47.110001,1729472932258.0,0.0
-6.783652,-10.303494,4.900501,72.590004,11.34,-73.43,1729472932279.0,0.0
-5.182854,-6.848258,5.98445,51.099998,12.04,-85.470001,1729472932299.0,0.0
-1.818545,-6.771688,6.9344,-7.07,-3.99,-92.400002,1729472932324.0,0.0
1.545763,-5.491528,5.596812,-21.0,-7.77,-79.730003,1729472932338.0,0.0
4.828716,-2.787638,6.26441,23.73,-4.27,-55.02,1729472932359.0,0.0
4.587041,0.167498,7.56132,36.049999,7.91,-27.16,1729472932378.0,0.0
5.448457,0.940379,7.183254,6.93,10.15,-9.8,1729472932398.0,0.0
4.022335,-1.708475,8.025528,2.94,14.42,17.219999,1729472932421.0,0.0
1.777867,-3.550949,8.214561,13.02,16.52,34.580002,1729472932438.0,0.0
1.213161,-3.225525,7.121039,17.290001,10.36,50.959999,1729472932460.0,0.0
0.401994,-3.550949,5.673382,5.39,9.31,64.540001,1729472932478.0,0.0
-2.033899,-6.996613,4.993821,-18.27,11.83,78.959999,1729472932499.0,0.0
-4.046263,-8.633304,4.945964,-4.2,10.29,82.110001,1729472932520.0,0.0
-7.523034,-14.4024,5.943772,9.24,8.47,79.449997,1729472932538.0,0.0
-8.903693,-14.950355,1.473979,-122.150002,1.19,44.66,1729472932560.0,0.0
-9.123833,-16.393229,0.732204,-79.870003,-3.92,8.19,1729472932579.0,0.0
-8.903693,-14.459827,3.783052,18.34,-0.63,-22.960001,1729472932600.0,0.0
-7.927422,-10.870593,7.188039,92.889999,-3.01,-48.509998,1729472932620.0,0.0
-7.245467,-7.104291,7.525427,55.720001,-9.66,-73.010002,1729472932638.0,0.0
-4.036692,-5.778666,5.601598,-21.91,-19.67,-88.340004,1729472932659.0,0.0
0.51685,-6.460621,4.273581,-80.360001,-24.219999,-97.230003,1729472932678.0,0.0
4.426722,-4.271189,5.008178,-30.59,-11.69,-76.090004,1729472932698.0,0.0
6.113662,-0.282353,6.496514,48.369999,8.26,-40.810001,1729472932720.0,0.0
5.793024,1.643869,9.018548,53.48,18.200001,-7.7,1729472932738.0,0.0
4.816752,-1.710868,9.509077,7.7,16.66,16.450001,1729472932758.0,0.0
2.158326,-4.376472,8.669197,-24.08,15.4,34.09,1729472932778.0,0.0
2.155933,-3.845266,6.60419,-27.58,7.07,51.170002,1729472932798.0,0.0
1.351945,-3.756732,4.297509,-23.1,6.44,72.660004,1729472932821.0,0.0
-1.485943,-6.573084,4.163511,-23.030001,13.16,84.840004,1729472932838.0,0.0
-3.900301,-6.829116,5.146961,2.1,10.78,94.150002,1729472932860.0,0.0
-6.821937,-13.239488,5.156533,-5.18,3.15,87.779999,1729472932879.0,0.0
-7.688138,-15.816557,2.005185,-109.059998,-8.12,67.760002,1729472932898.0,0.0
-8.348558,-16.584654,0.646062,-69.019997,-6.93,11.69,1729472932924.0,0.0
-9.360723,-15.211173,2.778067,23.66,1.19,-7.42,1729472932938.0,0.0
-8.317451,-12.117253,5.47717,96.809998,-2.31,-44.799999,1729472932958.0,0.0
-7.513463,-8.157133,7.264609,96.669998,-9.38,-71.330002,1729472932979.0,0.0
-6.142376,-6.233303,6.046663,13.16,-16.030001,-89.459999,1729472932998.0,0.0
-2.285146,-7.255038,3.775874,-71.610001,-24.01,-105.279999,1729472933021.0,0.0
1.502693,-8.118847,3.828516,-62.02,-17.360001,-96.389999,1729472933039.0,0.0
4.039084,-5.424529,5.15414,29.82,-0.7,-69.650002,1729472933059.0,0.0
5.012963,-1.328017,7.676175,88.340004,13.3,-46.27,1729472933078.0,0.0
4.902894,0.660419,9.114261,74.410004,14.0,-19.950001,1729472933098.0,0.0
4.309474,-1.363909,8.965906,16.52,9.24,-0.56,1729472933120.0,0.0
1.947758,-3.924229,8.020741,-10.29,8.54,18.9,1729472933138.0,0.0
1.024128,-4.216154,6.498906,-8.96,4.55,37.73,1729472933159.0,0.0
0.392423,-4.453043,5.364708,-9.17,3.57,54.389999,1729472933177.0,0.0
-1.354338,-6.410372,4.630112,-12.25,6.65,67.970001,1729472933200.0,0.0
-3.962514,-8.855836,5.922236,6.65,4.2,74.480003,1729472933221.0,0.0
-5.417351,-9.614362,8.238488,34.299999,0.28,78.610001,1729472933238.0,0.0
-7.362715,-12.679568,6.108876,-52.639999,-14.63,41.509998,1729472933259.0,0.0
-7.025328,-13.574483,2.287539,-118.720001,-26.110001,17.92,1729472933280.0,0.0
-6.278766,-13.46202,1.081556,-67.480003,-18.34,-4.27,1729472933300.0,0.0
-6.321837,-12.177074,2.734996,12.18,-4.27,-17.92,1729472933321.0,0.0
-5.9342,-10.760524,6.111269,52.639999,-1.19,-35.490002,1729472933410.0,0.0
-5.927022,-9.77468,7.312466,32.060001,-5.6,-55.650002,1729472933411.0,0.0
-3.948158,-8.549555,5.079963,-32.060001,-4.76,-75.110001,1729472933411.0,0.0
-0.222532,-8.870193,3.35713,-75.25,-3.71,-87.989998,1729472933411.0,0.0
2.62732,-8.193025,3.412165,-46.759998,7.35,-83.370003,1729472933422.0,0.0
3.969693,-4.948357,5.448457,52.290001,22.82,-56.700001,1729472933439.0,0.0
4.505685,-0.894916,7.652246,112.419998,28.139999,-38.220001,1729472933457.0,0.0
4.268795,0.698704,9.499505,87.57,25.83,-15.96,1729472933478.0,0.0
2.555535,-1.998007,9.509077,25.549999,15.26,0.49,1729472933498.0,0.0
0.892523,-3.768696,7.82453,-20.51,6.65,20.65,1729472933520.0,0.0
0.9667,-3.457629,5.862415,-27.09,-2.87,39.549999,1729472933538.0,0.0
-0.574277,-5.359922,4.06062,-20.860001,-0.28,68.459999,1729472933558.0,0.0
-3.24706,-8.209774,5.374279,15.190001,2.87,85.120003,1729472933578.0,0.0
-6.051448,-10.229317,9.923036,48.509998,4.2,98.349998,1729472933598.0,0.0
-8.611769,-13.268202,6.80758,-29.889999,-15.89,57.82,1729472933619.0,0.0
-7.850852,-15.067604,2.665605,-130.899994,-33.670002,45.920002,1729472933638.0,0.0
-6.683154,-14.464613,-0.51685,-112.0,-20.719999,-7.49,1729472933659.0,0.0
-6.592227,-14.18226,1.531406,-6.93,-2.24,-27.719999,1729472933678.0,0.0
-6.111269,-11.799009,5.24746,89.25,12.18,-50.610001,1729472933698.0,0.0
-6.005985,-8.630912,6.623333,87.5,15.4,-64.470001,1729472933719.0,0.0
-3.962514,-7.070791,4.567898,-11.83,8.47,-82.32,1729472933737.0,0.0
-0.026321,-8.985049,3.438486,-97.510002,0.14,-96.739998,1729472933758.0,0.0
2.900101,-8.480164,3.897908,-56.07,12.74,-85.190002,1729472933777.0,0.0
4.37408,-4.328616,6.38405,75.32,25.969999,-53.689999,1729472933798.0,0.0
4.0008,0.768096,9.458827,126.0,29.610001,-32.759998,1729472933819.0,0.0
3.565305,1.404587,10.274779,77.279999,16.59,-11.13,1729472933838.0,0.0
2.500499,-1.871187,8.930015,-10.43,0.21,10.5,1729472933858.0,0.0
0.942772,-4.771288,6.431907,-34.02,-8.19,31.219999,1729472933878.0,0.0
0.679562,-4.792823,5.070391,-20.299999,-14.0,57.189999,1729472933899.0,0.0
-0.815953,-6.786045,3.74716,-19.32,-9.59,69.300003,1729472933921.0,0.0
-1.531406,-8.726624,3.938586,-3.57,-8.12,72.099998,1729472933937.0,0.0
-3.342773,-9.47797,5.915058,38.009998,0.42,78.75,1729472933960.0,0.0
-5.749953,-10.152746,6.570691,34.720001,2.03,74.550003,1729472933977.0,0.0
-6.240481,-10.770095,4.704289,-47.670002,-5.6,36.68,1729472933998.0,0.0
-6.017949,-12.251251,2.854637,-87.220001,-12.88,31.99,1729472934020.0,0.0
-6.362515,-13.239488,2.053042,-54.040001,-5.32,4.06,1729472934038.0,0.0
-7.042077,-12.949955,4.216154,27.51,-0.28,-7.07,1729472934059.0,0.0
-6.960721,-10.537991,6.379266,74.480003,1.05,-29.75,1729472934079.0,0.0
-6.326623,-8.583055,7.403394,50.610001,-8.47,-50.400002,1729472934099.0,0.0
-4.701896,-7.554141,5.331209,-26.110001,-9.1,-74.620003,1729472934119.0,0.0
-1.275374,-8.190632,3.242275,-85.260002,-9.8,-88.480003,1729472934140.0,0.0
2.067399,-9.253045,3.498307,-59.849998,-2.45,-82.879997,1729472934160.0,0.0
2.988636,-7.068398,5.264209,35.700001,15.33,-61.740002,1729472934179.0,0.0
3.024528,-3.424129,7.546963,110.389999,20.299999,-40.32,1729472934199.0,0.0
2.900101,-1.744368,9.308081,94.57,15.68,-26.950001,1729472934220.0,0.0
2.232504,-3.52702,8.819944,5.11,0.42,-5.25,1729472934238.0,0.0
1.332802,-4.943572,7.073184,-28.77,-4.55,5.67,1729472934259.0,0.0
0.880559,-5.465207,5.852845,-27.93,-5.74,18.41,1729472934277.0,0.0
0.650848,-5.254639,4.795217,-26.110001,-3.64,25.34,1729472934297.0,0.0
0.442672,-4.606184,4.029513,-13.23,1.75,37.73,1729472934321.0,0.0
-0.162712,-5.288138,3.952943,4.97,6.51,52.57,1729472934338.0,0.0
-2.538785,-6.721439,5.120641,31.780001,12.46,69.720001,1729472934359.0,0.0
-4.192225,-7.312466,7.51107,50.75,13.09,80.150002,1729472934379.0,0.0
-6.996613,-11.892329,10.482956,-11.2,-2.73,72.379997,1729472934397.0,0.0
-6.941578,-13.864014,5.125426,-123.900002,-26.040001,29.889999,1729472934422.0,0.0
-5.69731,-14.00519,1.919044,-106.959999,-30.940001,14.56,1729472934438.0,0.0
-5.733203,-13.009777,2.352145,-12.32,-12.18,-15.26,1729472934458.0,0.0
-5.601598,-10.79163,4.675575,59.779999,-0.56,-33.599998,1729472934477.0,0.0
-5.814559,-9.915856,6.659225,66.080002,-1.68,-52.220001,1729472934497.0,0.0
-4.419543,-8.475377,6.025128,9.94,-3.57,-71.260002,1729472934520.0,0.0
-1.74676,-8.496914,4.575077,-54.459999,-6.93,-84.489998,1729472934536.0,0.0
1.426122,-8.224132,4.031906,-67.410004,-1.47,-88.830002,1729472934557.0,0.0
3.06042,-5.47717,5.599205,39.48,11.13,-60.549999,1729472934584.0,0.0
3.713661,-2.129612,7.089933,73.779999,14.35,-43.259998,1729472934599.0,0.0
3.534199,-0.562313,8.456236,58.240002,14.7,-21.49,1729472934620.0,0.0
3.498307,-1.904687,8.542377,13.58,4.34,-4.55,1729472934638.0,0.0
2.096112,-3.938586,7.405786,-12.53,0.28,16.66,1729472934659.0,0.0
1.146162,-4.21376,6.355337,-2.66,-2.38,35.630001,1729472934677.0,0.0
0.722632,-3.675375,5.929415,2.73,-3.08,54.529999,1729472934698.0,0.0
-0.327817,-5.221139,4.864608,-18.690001,-1.19,68.599998,1729472934720.0,0.0
-1.363909,-7.518249,5.022535,-24.5,-0.14,76.580002,1729472934737.0,0.0
-3.749553,-10.195816,7.094719,2.1,3.5,84.07,1729472934758.0,0.0
-5.867201,-10.8682,7.920243,-6.79,2.45,78.050003,1729472934778.0,0.0
-6.008378,-11.172089,4.936393,-69.160004,-7.98,45.990002,1729472934798.0,0.0
-6.530013,-13.844872,2.813959,-87.290001,-14.91,33.040001,1729472934823.0,0.0
-7.255038,-13.832907,0.954736,-63.0,-0.21,4.13,1729472934839.0,0.0
-6.597012,-12.806387,4.175476,18.83,6.72,-34.439999,1729472934859.0,0.0
-6.530013,-11.600404,5.766702,38.43,8.54,-54.110001,1729472934878.0,0.0
-4.993821,-9.040084,4.756931,8.61,8.75,-78.75,1729472934900.0,0.0
-1.878366,-7.893922,3.419343,-41.580002,2.17,-90.720001,1729472934922.0,0.0
0.684347,-8.370094,3.09392,-58.029999,1.96,-90.370003,1729472934941.0,0.0
2.043471,-6.874579,4.359723,2.03,15.12,-69.580002,1729472934960.0,0.0
2.866602,-4.843073,5.962914,73.43,20.370001,-45.009998,1729472934979.0,0.0
2.313859,-3.474378,7.336394,82.599998,22.540001,-29.610001,1729472935001.0,0.0
1.387837,-3.175276,8.659625,54.529999,12.39,-13.3,1729472935021.0,0.0
2.17029,-4.189832,8.370094,6.86,-3.78,-0.14,1729472935040.0,0.0
2.275574,-5.395815,7.836494,-21.42,-13.58,12.6,1729472935060.0,0.0
2.031506,-5.936593,6.74776,-24.85,-17.360001,20.860001,1729472935079.0,0.0
1.74676,-6.015556,5.730811,-12.81,-14.42,29.4,1729472935100.0,0.0
1.323231,-5.020142,5.070391,4.34,-6.72,38.990002,1729472935122.0,0.0
0.964308,-5.694918,4.761717,10.01,0.07,51.170002,1729472935140.0,0.0
-0.679562,-7.06122,5.718846,10.43,9.73,68.32,1729472935159.0,0.0
-2.825923,-8.250452,6.331409,9.52,12.25,73.779999,1729472935180.0,0.0
-4.469792,-9.686146,7.24786,-12.74,5.39,67.550003,1729472935201.0,0.0
-5.359922,-11.090734,5.441278,-44.799999,-6.02,58.52,1729472935221.0,0.0
-6.687939,-13.028918,3.65384,-59.290001,-9.24,36.82,1729472935239.0,0.0
-8.10449,-13.873586,3.079563,-36.119999,-6.65,9.17,1729472935260.0,0.0
-7.668997,-12.847065,3.632305,4.41,-3.22,-20.51,1729472935280.0,0.0
-6.446264,-11.131411,4.82393,30.73,-2.94,-50.470001,1729472935303.0,0.0
-5.814559,-10.243673,5.474778,35.0,-3.99,-71.190002,1729472935324.0,0.0
-4.065405,-8.932407,4.62054,12.88,-3.36,-86.870003,1729472935339.0,0.0
-1.40698,-8.334201,3.993621,-12.95,-4.69,-91.980003,1729472935358.0,0.0
0.988236,-7.628319,4.240082,-5.18,-2.03,-86.169998,1729472935380.0,0.0
2.469393,-5.056034,4.993821,38.779999,6.23,-65.660004,1729472935400.0,0.0
3.208775,-3.141776,6.594619,61.529999,10.5,-47.459999,1729472935421.0,0.0
3.491128,-2.426322,7.267002,41.93,10.22,-29.049999,1729472935441.0,0.0
3.615555,-2.57707,7.587641,16.24,6.37,-9.45,1729472935459.0,0.0
3.136991,-4.091727,6.62094,1.68,0.77,8.4,1729472935479.0,0.0
2.230111,-4.59422,5.742774,-9.94,2.45,31.360001,1729472935501.0,0.0
1.919044,-3.488736,5.345565,-3.99,6.79,46.830002,1729472935522.0,0.0
0.823131,-4.465007,4.910072,-7.91,12.53,63.209999,1729472935539.0,0.0
-0.789631,-5.690133,5.422136,5.39,16.870001,77.840004,1729472935559.0,0.0
-3.168097,-6.941578,8.109276,28.77,19.389999,91.279999,1729472935579.0,0.0
-5.426922,-7.54457,7.62114,-22.540001,12.04,87.150002,1729472935599.0,0.0
-7.877172,-8.55434,4.969893,-138.180008,12.04,73.709999,1729472935623.0,0.0
-9.099905,-11.547763,2.986243,-180.529999,-13.86,59.57,1729472935639.0,0.0
-9.269794,-13.332808,2.11047,-171.850006,-25.200001,13.58,1729472935660.0,0.0
-8.126025,-12.193825,1.605584,-124.949997,-16.030001,-4.41,1729472935681.0,0.0
-7.367501,-9.937392,1.256232,-82.25,-4.62,-25.620001,1729472935700.0,0.0
-6.407979,-8.281559,1.820938,-59.360001,-5.18,-33.810001,1729472935721.0,0.0
-5.192425,-7.401,2.708675,-72.730003,-10.57,-36.82,1729472935738.0,0.0
-3.680161,-7.812566,3.395415,-117.389999,-22.120001,-35.420002,1729472935760.0,0.0
-1.995614,-8.82473,2.467,-171.149994,-28.559999,-31.639999,1729472935779.0,0.0
-0.739382,-10.990234,2.067399,-191.169998,-32.41,-27.93,1729472935799.0,0.0
1.198804,-10.377672,1.107877,-175.419998,-29.26,-20.93,1729472935821.0,0.0
1.442872,-10.545169,0.524028,-131.460007,-21.49,-7.77,1729472935841.0,0.0
1.265803,-12.23211,-0.239282,-95.269997,-25.690001,-14.91,1729472935861.0,0.0
0.591027,-12.581462,0.246461,-20.58,-19.6,-8.54,1729472935878.0,0.0
0.205783,-10.803595,1.947758,34.580002,-17.01,-20.790001,1729472935899.0,0.0
-0.512064,-8.764909,2.337788,40.25,-9.8,-23.870001,1729472935925.0,0.0
-1.009771,-7.977671,1.919044,-15.4,-13.72,-22.049999,1729472935939.0,0.0
-0.969093,-9.300901,1.564906,-67.410004,-29.120001,-22.049999,1729472935958.0,0.0
-0.667598,-10.327423,1.150948,-61.880001,-39.41,-11.76,1729472935980.0,0.0
-0.569492,-10.298709,1.28016,-23.17,-39.41,-9.52,1729472935998.0,0.0
-0.662812,-9.336794,1.153341,-0.98,-40.110001,-9.52,1729472936023.0,0.0
-0.356531,-9.257831,0.107677,-16.24,-42.139999,-6.65,1729472936038.0,0.0
0.9667,-9.406186,-1.01695,-57.82,-45.009998,-10.5,1729472936060.0,0.0
2.124826,-9.229117,-2.632105,-108.919998,-38.43,-7.84,1729472936079.0,0.0
3.113062,-9.422935,-2.622534,-158.270004,-22.960001,-12.39,1729472936100.0,0.0
3.498307,-8.896514,-3.708875,-200.410004,-1.12,-21.49,1729472936120.0,0.0
2.617748,-10.205389,-4.867002,-215.320007,24.43,-22.120001,1729472936140.0,0.0
0.380459,-14.900107,-4.59422,-130.619995,30.799999,-15.82,1729472936161.0,0.0
-2.129612,-14.450255,3.048456,162.470001,18.059999,-2.31,1729472936179.0,0.0
-1.48355,-6.884151,3.086741,295.329987,-9.1,-8.68,1729472936200.0,0.0
-3.151347,-3.897908,6.108876,137.759995,4.83,-10.5,1729472936222.0,0.0
-1.959722,-7.52782,1.497907,-49.420002,-43.470001,-22.26,1729472936238.0,0.0
-1.048056,-10.246067,-1.57687,-123.690002,-32.34,-11.83,1729472936258.0,0.0
-0.746561,-12.002398,-3.010171,-102.830002,-19.530001,-16.799999,1729472936279.0,0.0
-1.129412,-13.155738,-3.847659,-35.349998,-16.870001,-14.63,1729472936299.0,0.0
-0.746561,-11.636297,-4.072584,59.709999,-28.630001,-16.379999,1729472936323.0,0.0
0.078963,-8.77448,-4.256832,113.610001,-39.27,-18.059999,1729472936340.0,0.0
0.772882,-7.558927,-4.804788,98.489998,-38.220001,-15.33,1729472936358.0,0.0
0.849452,-8.250452,-2.569891,33.599998,-29.469999,-19.25,1729472936379.0,0.0
0.485743,-9.702895,-2.419144,32.689999,-32.900002,-18.48,1729472936398.0,0.0
0.057428,-8.958728,-1.828116,62.510002,-31.780001,-18.9,1729472936422.0,0.0
-0.844666,-9.195618,-0.387637,45.360001,-27.09,-21.559999,1729472936439.0,0.0
-1.229911,-9.779467,-1.76351,-4.48,-29.82,-27.790001,1729472936458.0,0.0
-0.806381,-10.214959,-3.309274,-25.200001,-25.83,-25.059999,1729472936480.0,0.0
-0.33021,-9.887143,-3.213561,-52.639999,11.34,-24.01,1729472936498.0,0.0
-0.787239,-9.863215,-2.471786,-68.949997,39.130001,-18.969999,1729472936521.0,0.0
-0.602991,-10.121639,-2.009971,-76.650002,53.970001,-14.28,1729472936538.0,0.0
0.174676,-11.370694,-1.617548,-62.860001,62.299999,-9.17,1729472936558.0,0.0
0.246461,-11.882757,2.117648,16.379999,58.73,-2.8,1729472936578.0,0.0
0.083749,-9.403792,4.275974,74.690002,67.550003,2.52,1729472936598.0,0.0
0.131605,-8.283953,9.042477,89.529999,30.24,3.15,1729472936629.0,0.0
-0.18664,-7.601997,6.800402,96.739998,-2.73,14.42,1729472936638.0,0.0
-1.308874,-8.662018,3.87398,18.690001,-13.09,8.4,1729472936658.0,0.0
-0.143569,-10.016356,-0.421137,-76.580002,-41.369999,-5.74,1729472936681.0,0.0
0.519243,-10.949556,-2.845066,-99.959999,-44.380001,3.15,1729472936698.0,0.0
0.581456,-10.858629,-2.816352,-74.340004,-43.400002,2.52,1729472936726.0,0.0
0.78006,-9.150154,-2.849852,-27.23,-50.049999,1.96,1729472936739.0,0.0
1.098306,-8.702696,-0.832702,26.25,-64.050003,11.2,1729472936759.0,0.0
2.103291,-7.826923,-4.902894,27.299999,-73.989998,9.73,1729472936779.0,0.0
3.20399,-8.606983,-8.571091,-4.62,-61.25,12.88,1729472936801.0,0.0
2.608176,-9.403792,-8.561519,-75.599998,-0.91,8.26,1729472936824.0,0.0
1.014557,-9.777073,-6.74776,-62.439999,39.830002,13.58,1729472936840.0,0.0
-0.334995,-9.303294,-3.924229,-46.41,60.41,14.07,1729472936860.0,0.0
-1.368695,-9.95175,-2.184647,-45.5,66.220001,11.83,1729472936880.0,0.0
-1.820938,-11.093125,-3.249453,-65.239998,60.900002,5.88,1729472936900.0,0.0
-2.074577,-13.471591,-0.495314,-26.880001,47.529999,6.09,1729472936923.0,0.0
-3.019742,-11.464014,2.122434,-0.84,40.740002,-0.21,1729472936941.0,0.0
-3.471986,-11.310873,2.833102,5.88,28.77,-0.28,1729472936960.0,0.0
-2.411965,-11.854043,2.500499,35.560001,7.35,3.15,1729472936980.0,0.0
-1.184447,-10.188639,2.301895,77.349998,16.17,4.48,1729472937001.0,0.0
-0.870987,-8.678767,3.031706,63.0,24.219999,1.47,1729472937023.0,0.0
-0.760918,-8.963513,2.24686,15.33,24.290001,5.67,1729472937040.0,0.0
-0.287139,-9.583255,0.107677,-25.76,8.89,7.07,1729472937061.0,0.0
0.256032,-10.188639,-1.316052,-36.119999,-7.84,4.27,1729472937080.0,0.0
1.11027,-9.710074,-3.663411,-24.43,-20.719999,4.13,1729472937101.0,0.0
2.464607,-7.60439,-6.549156,18.34,-33.040001,6.93,1729472937123.0,0.0
3.302095,-9.080762,-3.866802,32.27,-31.780001,18.129999,1729472937141.0,0.0
2.816352,-11.030912,-4.476971,46.900002,-28.49,16.379999,1729472937162.0,0.0
1.012164,-10.037891,-7.113862,75.25,0.63,16.379999,1729472937182.0,0.0
0.083749,-8.310273,-6.9344,21.84,34.93,5.46,1729472937201.0,0.0
-0.404387,-9.925428,-5.108676,-58.380001,55.650002,0.63,1729472937224.0,0.0
-0.861416,-11.155338,-4.934,-66.849998,69.019997,2.38,1729472937241.0,0.0
-1.380659,-12.631711,-1.694118,-18.76,81.900002,-0.21,1729472937262.0,0.0
-2.069792,-9.040084,-2.129612,37.869999,81.269997,-2.8,1729472937281.0,0.0
-6.465407,-9.415757,15.314064,92.260002,43.75,9.24,1729472937302.0,0.0
-3.742374,-7.448857,8.109276,117.529999,-8.96,12.18,1729472937325.0,0.0
-2.364109,-8.578269,1.619941,-57.470001,-38.009998,-28.35,1729472937344.0,0.0
-0.404387,-9.461221,-2.287539,-134.680008,-60.060001,-24.85,1729472937361.0,0.0
-0.48335,-11.01177,-3.287738,-104.93,-47.110001,-9.31,1729472937382.0,0.0
-0.954736,-10.715059,-2.742175,-27.719999,-42.349998,-14.35,1729472937401.0,0.0
-0.131605,-7.846066,-4.756931,32.830002,-47.740002,-13.3,1729472937423.0,0.0
0.519243,-8.963513,-1.68694,35.0,-47.32,-2.17,1729472937441.0,0.0
1.600798,-9.676575,-4.675575,33.110001,-54.599998,1.54,1729472937461.0,0.0
1.871187,-8.693125,-5.929415,52.220001,-21.35,12.11,1729472937481.0,0.0
1.61037,-7.441679,-5.661418,-4.55,16.450001,8.61,1729472937501.0,0.0
0.997807,-9.243474,-5.807381,-61.389999,39.619999,12.53,1729472937523.0,0.0
0.227318,-11.291731,-4.819145,-58.450001,55.02,18.620001,1729472937540.0,0.0
0.16989,-11.839686,-3.778267,-18.690001,61.040001,9.45,1729472937562.0,0.0
-0.318245,-11.3683,0.916451,21.559999,58.59,2.1,1729472937581.0,0.0
-0.691526,-8.530413,0.725025,56.98,46.200001,4.69,1729472937601.0,0.0
-1.586441,-9.489935,3.684947,38.990002,41.16,3.78,1729472937623.0,0.0
-4.386044,-9.970891,6.91765,4.13,-4.34,2.38,1729472937640.0,0.0
-3.809374,-9.743573,1.89033,1.12,-19.040001,1.19,1729472937661.0,0.0
-1.359123,-10.485349,-1.808974,-73.080002,-51.73,-22.26,1729472937681.0,0.0
-0.327817,-10.760524,-3.07717,-75.459999,-48.650002,-13.72,1729472937702.0,0.0
-0.89013,-10.482956,-2.428715,-32.130001,-34.509998,-7.77,1729472937725.0,0.0
-0.696311,-9.535398,-3.448057,5.95,-38.220001,-11.13,1729472937740.0,0.0
-0.476172,-9.040084,-1.914258,23.59,-40.389999,-5.53,1729472937762.0,0.0
0.239282,-9.375079,-2.57707,45.43,-49.700001,2.1,1729472937781.0,0.0
1.294517,-8.587841,-5.52742,47.18,-41.299999,4.2,1729472937800.0,0.0
1.485943,-7.082755,-5.62074,-3.71,-9.24,7.56,1729472937824.0,0.0
1.368695,-9.253045,-7.15454,-60.27,14.91,8.26,1729472937841.0,0.0
0.655633,-10.779665,-5.855237,-60.34,40.529999,15.05,1729472937860.0,0.0
0.198604,-10.243673,-4.948357,-27.860001,55.93,11.2,1729472937881.0,0.0
0.150748,-9.683753,-4.826324,-5.53,61.459999,9.94,1729472937900.0,0.0
-0.323031,-11.179268,0.404387,-7.91,58.170002,2.66,1729472937924.0,0.0
-1.045663,-9.779467,-0.727418,27.51,54.599998,7.21,1729472937941.0,0.0
-2.352145,-10.717452,6.611369,19.32,42.490002,-5.25,1729472937961.0,0.0
-4.934,-10.628918,5.333601,57.119999,-6.3,14.49,1729472937981.0,0.0
-3.649055,-8.913264,0.854238,12.32,-19.18,-8.75,1729472938002.0,0.0
-0.495314,-9.712467,-2.478964,-81.760002,-57.119999,-26.040001,1729472938022.0,0.0
-0.29671,-10.683953,-3.266203,-70.489998,-36.330002,-7.77,1729472938041.0,0.0
-1.06002,-11.076375,-2.469393,-33.459999,-21.559999,-8.26,1729472938061.0,0.0
-0.428315,-10.212566,-3.52702,22.540001,-23.799999,-9.38,1729472938082.0,0.0
0.138784,-8.489735,-3.412165,40.740002,-22.190001,-8.05,1729472938102.0,0.0
-0.095713,-8.470592,-2.201397,30.1,-18.76,2.03,1729472938124.0,0.0
-0.308674,-10.372886,-1.598405,18.549999,-28.0,1.05,1729472938141.0,0.0
-0.095713,-9.973285,-3.237489,45.290001,-32.200001,0.91,1729472938160.0,0.0
0.117248,-8.329416,-4.199404,40.389999,-17.5,-2.45,1729472938181.0,0.0
0.066999,-8.685946,-4.584648,-16.73,-6.93,-1.12,1729472938202.0,0.0
0.579063,-10.057034,-6.305088,-40.529999,-1.75,-0.14,1729472938225.0,0.0
1.28016,-9.74836,-6.496514,-19.389999,15.26,1.4,1729472938241.0,0.0
0.710668,-8.386844,-4.709075,1.05,42.0,3.71,1729472938260.0,0.0
0.133998,-8.693125,-4.733003,-12.39,57.68,4.48,1729472938281.0,0.0
0.189033,-10.786844,-3.972085,-35.0,61.25,3.78,1729472938301.0,0.0
-0.760918,-11.117055,0.100499,-4.06,54.740002,2.31,1729472938324.0,0.0
-1.40698,-9.635897,-0.253639,59.290001,57.119999,9.24,1729472938401.0,0.0
-4.029513,-9.549755,10.688738,47.25,30.450001,-3.43,1729472938443.0,0.0
-5.144568,-9.879964,4.941179,73.220001,-11.2,13.51,1729472938443.0,0.0
-1.538585,-9.956534,-1.51705,-22.540001,-33.25,-17.780001,1729472938443.0,0.0
-0.155533,-10.894521,-3.115455,-93.660004,-54.040001,-18.059999,1729472938444.0,0.0
-0.624527,-11.196017,-2.794817,-53.48,-30.450001,-10.01,1729472938444.0,0.0
-0.897308,-10.554741,-2.849852,-8.47,-23.379999,-8.19,1729472938460.0,0.0
-0.047856,-9.736395,-3.89073,23.52,-27.16,-10.71,1729472938482.0,0.0
0.267996,-8.551948,-3.462414,42.490002,-22.26,-1.33,1729472938502.0,0.0
-0.282353,-8.831908,-1.445265,40.389999,-22.469999,6.37,1729472938522.0,0.0
-0.543171,-9.695717,-1.545763,44.170002,-31.360001,5.39,1729472938541.0,0.0
-0.404387,-8.870193,-3.936193,45.220001,-25.83,4.34,1729472938561.0,0.0
-0.122034,-8.451449,-3.723232,-10.15,-15.96,0.49,1729472938581.0,0.0
0.361316,-10.246067,-5.431707,-49.700001,-18.620001,-1.33,1729472938602.0,0.0
0.725025,-10.798808,-6.147161,-30.870001,-5.67,0.56,1729472938622.0,0.0
0.509671,-9.705289,-4.843073,5.18,18.620001,-2.17,1729472938640.0,0.0
-0.232104,-8.322237,-3.115455,14.21,35.630001,-1.19,1729472938668.0,0.0
-0.540778,-8.350951,-3.127419,-8.33,36.470001,0.84,1729472938681.0,0.0
0.0335,-8.949157,-4.103691,-38.639999,35.77,2.38,1729472938702.0,0.0
-0.464208,-11.196017,-2.462214,-50.610001,42.630001,5.18,1729472938728.0,0.0
-1.284946,-10.552348,-1.514657,-1.89,45.009998,7.91,1729472938740.0,0.0
-1.225125,-8.949157,-1.354338,29.540001,47.459999,11.69,1729472938763.0,0.0
-1.919044,-9.700503,1.399801,4.62,32.200001,4.62,1729472938780.0,0.0
-3.541377,-9.379865,3.792624,29.190001,13.02,14.98,1729472938801.0,0.0
-3.574877,-8.999406,2.218147,27.370001,-1.61,11.34,1729472938822.0,0.0
-1.986043,-9.54497,-0.502493,-48.720001,-23.66,-6.23,1729472938841.0,0.0
-0.856631,-10.968699,-1.844866,-79.870003,-28.98,-4.69,1729472938863.0,0.0
-0.586242,-11.593226,-2.955136,-56.560001,-22.82,-2.73,1729472938881.0,0.0
-0.612563,-10.920842,-3.292524,-18.549999,-16.59,-3.01,1729472938903.0,0.0
-0.074178,-9.743573,-4.524827,7.91,-15.12,-7.28,1729472938923.0,0.0
0.337388,-9.083155,-3.914658,9.66,-14.77,-5.46,1729472938941.0,0.0
0.112463,-9.387043,-3.007778,15.4,-16.73,0.21,1729472938962.0,0.0
-0.354138,-9.695717,-2.804388,30.59,-23.73,-2.03,1729472938981.0,0.0
-0.825524,-9.410972,-1.57687,44.310001,-31.01,-4.06,1729472939001.0,0.0
-1.136591,-8.623734,-3.522235,34.299999,-34.299999,-8.33,1729472939025.0,0.0
-0.969093,-9.372685,-4.232903,-37.59,-31.01,-13.72,1729472939043.0,0.0
-0.452243,-10.463813,-4.917251,-39.34,-26.950001,-12.53,1729472939106.0,0.0
-0.246461,-10.234102,-5.213961,-3.15,-11.2,-7.7,1729472939107.0,0.0
-0.550349,-9.310472,-4.259224,26.460001,7.84,-3.5,1729472939109.0,0.0
-0.782453,-8.961121,-3.134598,33.670002,17.5,1.68,1729472939173.0,0.0
-0.78006,-8.922836,-2.701497,25.690001,18.27,4.9,1729472939181.0,0.0
-0.648455,-8.910872,-2.928815,9.24,17.92,5.6,1729472939182.0,0.0
-0.349352,-8.953942,-4.005585,-12.95,18.34,5.04,1729472939184.0,0.0
0.172283,-8.910872,-5.091926,-21.07,23.870001,7.56,1729472939202.0,0.0
0.61017,-9.020942,-5.261817,-23.52,35.700001,10.22,1729472939225.0,0.0
0.509671,-10.049855,-4.776074,-26.67,52.360001,10.5,1729472939242.0,0.0
-0.239282,-10.999805,-2.569891,-7.07,60.830002,10.22,1729472939261.0,0.0
-0.490529,-11.157731,-1.665405,42.560001,64.400002,6.37,1729472939282.0,0.0
-2.148755,-9.834501,4.898108,41.09,55.93,-5.39,1729472939302.0,0.0
-3.440879,-7.738388,4.716253,64.610001,11.27,2.1,1729472939327.0,0.0
-2.689533,-9.521042,1.284946,-20.860001,-32.900002,-19.67,1729472939343.0,0.0
-1.328017,-10.939985,-1.89033,-74.129997,-44.029999,-29.469999,1729472939362.0,0.0
-0.930808,-11.712867,-3.019742,-61.32,-35.91,-21.35,1729472939388.0,0.0
-0.70349,-11.265409,-2.993421,-21.559999,-25.690001,-20.09,1729472939403.0,0.0
-0.380459,-9.930215,-2.924029,16.940001,-22.469999,-17.15,1729472939434.0,0.0
-0.162712,-8.977871,-2.806781,31.5,-24.780001,-15.05,1729472939443.0,0.0
-0.5001,-8.930015,-2.18704,24.08,-26.6,-11.13,1729472939462.0,0.0
-0.727418,-9.616754,-1.162912,23.52,-33.040001,-5.74,1729472939483.0,0.0
-0.748954,-10.016356,-1.61037,36.470001,-41.09,-7.63,1729472939502.0,0.0
-0.875773,-8.752945,-3.495914,29.68,-34.93,-8.4,1729472939524.0,0.0
-0.51685,-9.090333,-4.627719,-10.08,-29.4,-9.1,1729472939542.0,0.0
0.014357,-9.930215,-5.623133,-25.969999,-19.809999,-4.97,1729472939562.0,0.0
0.471386,-9.877571,-6.458229,3.43,0.42,-1.19,1729472939582.0,0.0
0.521635,-8.822337,-5.924629,30.73,25.200001,1.75,1729472939602.0,0.0
-0.11007,-8.047063,-4.386044,23.17,44.59,7.42,1729472939624.0,0.0
-0.588634,-9.133404,-4.034299,-15.54,53.830002,6.3,1729472939642.0,0.0
-0.497707,-10.894521,-2.859423,-28.77,56.98,6.02,1729472939662.0,0.0
-1.785046,-11.430513,1.507478,54.040001,52.5,14.0,1729472939682.0,0.0
-1.70369,-8.422735,0.208176,97.93,52.920002,11.13,1729472939703.0,0.0
-1.849652,-8.305488,2.036292,28.280001,47.389999,2.1,1729472939726.0,0.0
-3.519842,-10.966305,6.446264,-17.08,5.46,3.29,1729472939743.0,0.0
-2.045863,-10.660025,1.57687,32.619999,-9.94,3.92,1729472939763.0,0.0
-0.459422,-9.786645,-0.894916,13.3,-20.58,-9.03,1729472939782.0,0.0
-0.019143,-9.463614,-1.378266,-11.55,-19.530001,-4.76,1729472939802.0,0.0
-0.79681,-10.358529,-2.316252,-12.04,-9.31,2.73,1729472939824.0,0.0
-0.897308,-10.875379,-2.134398,-7.49,-9.94,-0.56,1729472939852.0,0.0
-0.232104,-10.25803,-2.924029,14.98,-11.27,-3.15,1729472939862.0,0.0
0.208176,-8.855836,-2.481357,26.950001,-10.36,0.42,1729472939882.0,0.0
-0.138784,-8.671589,-1.861616,8.82,-16.870001,1.47,1729472939902.0,0.0
-0.641276,-9.700503,-1.210768,-8.82,-30.1,2.24,1729472939924.0,0.0
-0.555135,-10.243673,-0.579063,3.64,-41.93,-1.96,1729472939942.0,0.0
-0.825524,-9.042477,-2.761317,7.98,-39.689999,-5.39,1729472939962.0,0.0
-0.825524,-8.41795,-5.017749,-28.84,-31.15,-6.44,1729472939982.0,0.0
1.962115,-11.045268,-6.879365,-38.709999,-19.389999,2.24,1729472940002.0,0.0
1.545763,-10.506885,-5.965307,21.07,37.099998,6.65,1729472940024.0,0.0
0.468993,-9.08794,-4.622933,54.32,70.209999,8.75,1729472940042.0,0.0
-0.11007,-9.856036,-4.065405,34.299999,83.510002,8.47,1729472940061.0,0.0
-1.019342,-11.157731,-0.488136,34.02,85.889999,6.58,1729472940082.0,0.0
-1.574477,-11.346765,0.26321,77.489998,88.970001,7.84,1729472940102.0,0.0
-3.735196,-7.142576,10.604989,141.330002,50.610001,12.25,1729472940124.0,0.0
-6.104091,-8.130811,9.377472,177.729996,16.030001,33.110001,1729472940142.0,0.0
-4.369294,-9.217153,4.558327,30.030001,-22.33,-13.16,1729472940162.0,0.0
-0.830309,-9.918249,0.370888,-66.360001,-46.060001,-21.700001,1729472940182.0,0.0
-0.086142,-10.394422,-1.631905,-47.599998,-27.299999,-7.56,1729472940202.0,0.0
-1.548156,-10.695917,-0.629312,-31.5,-6.51,0.91,1729472940224.0,0.0
-1.677369,-10.183852,-0.655633,-14.77,-10.01,-2.38,1729472940241.0,0.0
-1.057628,-9.616754,-1.277767,8.33,-18.200001,-0.14,1729472940261.0,0.0
-1.12702,-9.044869,-0.725025,11.2,-19.74,3.85,1729472940282.0,0.0
-1.265803,-9.157332,-0.007178,-4.48,-29.68,5.53,1729472940302.0,0.0
-0.691526,-9.188439,0.078963,-19.809999,-40.18,5.67,1729472940325.0,0.0
-0.311067,-9.542577,-0.413958,-55.650002,-34.93,7.84,1729472940342.0,0.0
-0.323031,-10.470992,-1.435694,-68.669998,-24.710001,10.64,1729472940361.0,0.0
-0.019143,-11.01177,-3.261417,-65.099998,-13.72,7.42,1729472940382.0,0.0
0.617348,-10.80838,-3.761517,-32.27,4.97,7.14,1729472940402.0,0.0
0.782453,-10.162319,-2.85703,-17.43,30.799999,7.98,1729472940426.0,0.0
0.598206,-9.351151,-2.445465,-37.59,50.959999,4.55,1729472940442.0,0.0
0.602991,-8.372486,-2.522035,-77.559998,60.060001,4.2,1729472940462.0,0.0
0.440279,-8.185846,-2.998207,-129.639999,59.010002,6.86,1729472940482.0,0.0
0.028714,-8.403593,-3.584448,-180.389999,58.099998,8.68,1729472940502.0,0.0
-0.445065,-9.504292,-3.708875,-206.779999,62.439999,11.76,1729472940524.0,0.0
-0.961915,-10.600205,-4.297509,-200.759995,60.549999,15.89,1729472940541.0,0.0
-0.878166,-10.174281,-4.742575,-150.080002,52.779999,13.93,1729472940561.0,0.0
-1.392623,-8.573483,-3.749553,-87.919998,55.299999,23.24,1729472940582.0,0.0
-1.682154,-5.76431,-4.740182,-81.900002,46.830002,21.77,1729472940602.0,0.0
-2.423929,-4.510471,-5.216353,-119.910004,32.830002,28.0,1729472940625.0,0.0
-1.469193,-9.21476,-9.566505,-132.440002,12.95,20.719999,1729472940653.0,0.0
1.840081,-10.566705,-8.810372,-89.529999,-17.290001,22.610001,1729472940662.0,0.0
2.28036,-9.188439,-5.24746,49.490002,8.82,13.93,1729472940681.0,0.0
-0.215354,-7.092326,-3.792624,53.34,55.16,0.21,1729472940709.0,0.0
-2.840281,-7.322037,-3.428915,20.65,53.48,-4.55,1729472940726.0,0.0
-4.065405,-9.918249,-3.067599,-13.72,26.25,-13.51,1729472940741.0,0.0
-3.486342,-11.282159,-5.065606,-8.61,-13.72,-23.799999,1729472940763.0,0.0
-2.684747,-9.856036,-6.058627,30.450001,-23.799999,-5.81,1729472940782.0,0.0
-2.672783,-9.552148,-4.378866,28.139999,5.53,-8.33,1729472940802.0,0.0
-4.259224,-10.643275,-4.113262,-30.59,40.040001,-6.44,1729472940824.0,0.0
-4.532006,-11.502297,-3.756732,-46.130001,27.23,-0.84,1729472940842.0,0.0
-2.713461,-9.68136,-4.919643,-9.8,3.29,8.75,1729472940862.0,0.0
-1.134198,-6.02752,-5.551349,2.45,-1.33,27.93,1729472940882.0,0.0
-1.048056,-4.642076,-3.412165,-66.360001,8.89,42.98,1729472940903.0,0.0
-1.079163,-6.417551,-5.316852,-100.309998,-6.23,48.93,1729472940924.0,0.0
0.043071,-7.367501,-8.003991,-84.769997,-28.35,59.360001,1729472940942.0,0.0
2.079363,-2.651247,-9.497113,-68.389999,-40.110001,69.510002,1729472940962.0,0.0
0.681954,-4.39083,-10.054641,-97.019997,2.66,69.790001,1729472940985.0,0.0
-0.557528,-5.175675,-10.777272,-109.900002,9.94,61.25,1729472941002.0,0.0
0.380459,-7.113862,-10.648061,-54.459999,8.33,46.619999,1729472941025.0,0.0
-0.0335,-6.005985,-11.425728,20.58,22.120001,28.210001,1729472941043.0,0.0
-1.205983,-5.003392,-9.753145,92.050003,52.080002,6.51,1729472941064.0,0.0
-1.414158,-5.793024,-6.929615,134.889999,51.029999,1.4,1729472941084.0,0.0
-0.011964,-6.644868,-5.594419,125.650002,23.940001,-21.280001,1729472941104.0,0.0
1.397408,-8.279166,-6.417551,116.270004,15.89,-40.740002,1729472941127.0,0.0
1.134198,-9.35833,-5.534599,36.68,19.74,-63.0,1729472941144.0,0.0
-0.418744,-10.79163,-4.749753,26.74,29.75,-75.599998,1729472941164.0,0.0
-3.39063,-10.607382,-0.801596,56.07,34.23,-64.889999,1729472941184.0,0.0
-5.398208,-10.667203,-2.404787,99.82,25.48,-63.420002,1729472941204.0,0.0
-4.742575,-9.396614,-4.285545,167.580002,-38.779999,-26.6,1729472941226.0,0.0
-2.416751,-7.046863,-4.45065,211.330002,-75.25,-2.8,1729472941245.0,0.0
-2.522035,-7.76471,-3.326023,85.610001,-3.99,0.77,1729472941264.0,0.0
-4.622933,-10.313066,-2.979064,2.03,40.389999,13.23,1729472941284.0,0.0
-5.391029,-12.440285,-2.988636,-9.8,32.48,16.309999,1729472941304.0,0.0
-4.649254,-12.97867,-3.665804,25.34,13.79,27.02,1729472941328.0,0.0
-2.880959,-10.636096,-3.007778,56.209999,5.04,32.689999,1729472941345.0,0.0
-1.172483,-7.207181,-3.369094,25.690001,0.28,32.41,1729472941364.0,0.0
0.20339,-4.208975,-3.089134,-79.239998,-1.19,34.299999,1729472941385.0,0.0
1.445265,1.143769,-3.474378,-245.210007,-1.26,42.98,1729472941404.0,0.0
-0.765703,-5.235496,-6.12084,-322.700012,-3.08,68.040001,1729472941432.0,0.0
-0.571885,-13.720445,-7.874779,-212.800003,-27.719999,38.290001,1729472941444.0,0.0
1.002593,-6.479764,-11.093125,-171.009995,-35.490002,50.68,1729472941464.0,0.0
1.351945,-5.089533,-10.834702,-107.379997,-27.02,54.880001,1729472941484.0,0.0
-0.066999,-6.245267,-10.750952,-117.809998,26.389999,33.880001,1729472941504.0,0.0
-0.40678,-6.60419,-10.004392,-93.870003,23.1,27.09,1729472941526.0,0.0
-1.330409,-7.018148,-8.583055,-42.349998,31.08,15.190001,1729472941545.0,0.0
-3.452843,-6.372087,-8.958728,13.37,44.240002,-5.6,1729472941564.0,0.0
-2.770889,-4.488935,-9.992428,66.709999,43.400002,-18.059999,1729472941584.0,0.0
-0.430708,-3.048456,-5.781059,69.650002,27.440001,-25.9,1729472941604.0,0.0
2.433501,-4.914857,-6.640083,-32.689999,5.18,-57.189999,1729472941625.0,0.0
2.959922,-10.210175,-8.688338,-124.32,13.51,-87.360001,1729472941644.0,0.0
0.988236,-12.004791,-9.466006,-69.300003,49.349998,-81.760002,1729472941664.0,0.0
-0.930808,-10.128819,-5.9677,73.080002,49.07,-84.279999,1729472941684.0,0.0
-3.570091,-8.245667,-1.330409,123.410004,52.709999,-70.769997,1729472941704.0,0.0
-5.012963,-6.953543,-3.113062,98.209999,19.25,-52.779999,1729472941726.0,0.0
-3.739982,-10.102496,-6.290731,47.670002,-30.940001,-51.939999,1729472941743.0,0.0
-1.335195,-7.776673,-4.649254,63.98,-55.369999,-24.780001,1729472941763.0,0.0
-1.627119,-5.283352,-3.641876,93.029999,-20.860001,9.1,1729472941784.0,0.0
-4.601398,-8.712267,-3.773481,-7.7,27.860001,11.48,1729472941803.0,0.0
-5.611169,-12.457035,-6.69751,-75.25,7.56,16.1,1729472941825.0,0.0
-2.876173,-9.475577,-7.432107,-71.610001,-38.080002,10.57,1729472941844.0,0.0
-0.741775,-5.95095,-5.635098,-75.25,-43.82,23.799999,1729472941863.0,0.0
-0.524028,-4.713861,-6.51087,-114.169998,-31.85,25.690001,1729472941883.0,0.0
-1.416551,-4.656433,-10.013963,-116.059998,-29.469999,34.720001,1729472941903.0,0.0
1.78026,-3.613162,-10.638489,-71.330002,-42.630001,49.700001,1729472941926.0,0.0
2.455036,-2.914458,-8.551948,-15.82,-33.529999,73.849998,1729472941943.0,0.0
-0.68674,-4.019942,-10.042676,-22.33,5.46,70.699997,1729472941964.0,0.0
-1.691726,-5.69731,-9.442079,-18.129999,6.02,63.560001,1729472941983.0,0.0
-1.655833,-7.834101,-9.566505,-2.87,6.51,48.16,1729472942008.0,0.0
-1.299303,-7.869993,-11.679367,55.16,13.16,23.24,1729472942025.0,0.0
-1.344766,-6.326623,-10.090532,122.639999,32.060001,3.85,1729472942043.0,0.0
-0.732204,-6.254838,-8.118847,132.789993,41.09,-19.879999,1729472942063.0,0.0
1.117448,-8.370094,-7.585248,130.619995,20.440001,-52.990002,1729472942083.0,0.0
1.770689,-7.283752,-5.769095,121.379997,24.710001,-76.650002,1729472942108.0,0.0
0.320638,-4.881358,-5.84088,151.970001,34.860001,-82.599998,1729472942125.0,0.0
-0.964308,-5.568098,-4.567898,143.639999,18.34,-87.989998,1729472942143.0,0.0
-1.531406,-9.020942,-5.833702,51.240002,-9.87,-102.620003,1729472942163.0,0.0
-1.335195,-11.428121,-4.957928,5.25,-24.360001,-110.18,1729472942183.0,0.0
-0.586242,-7.690532,-4.237689,73.849998,-50.400002,-70.769997,1729472942204.0,0.0
-1.332802,-7.647461,-2.536392,113.889999,-26.25,-63.279999,1729472942225.0,0.0
-3.287738,-8.772088,-1.816152,37.59,4.48,-41.720001,1729472942243.0,0.0
-2.481357,-9.865608,-3.113062,6.79,-25.83,-21.98,1729472942263.0,0.0
-1.521835,-9.54497,-3.57727,-11.76,-32.759998,5.04,1729472942283.0,0.0
-1.74676,-9.717253,-3.050849,-24.639999,-1.19,19.6,1729472942303.0,0.0
-3.414558,-9.994821,-3.871587,-56.0,14.77,30.73,1729472942331.0,0.0
-3.95055,-9.671788,-4.48415,-86.029999,15.47,25.129999,1729472942343.0,0.0
-2.766103,-7.343572,-5.989235,-98.139999,-8.75,35.420002,1729472942363.0,0.0
-0.643669,-6.206983,-6.080163,-84.769997,-38.43,58.029999,1729472942383.0,0.0
2.230111,-4.185047,-4.572684,-130.899994,-52.360001,52.080002,1729472942404.0,0.0
0.215354,-5.958128,-7.783852,-106.959999,-32.41,85.75,1729472942425.0,0.0
1.380659,-6.649654,-7.322037,-62.16,-33.110001,67.199997,1729472942443.0,0.0
-0.01675,-2.943172,-8.662018,-23.799999,-26.74,106.470001,1729472942463.0,0.0
-2.316252,-4.460221,-9.932607,-72.379997,5.25,93.099998,1729472942483.0,0.0
-1.514657,-7.063612,-9.762716,-93.800003,3.78,96.32,1729472942503.0,0.0
0.435494,-6.489335,-10.061819,-62.02,-14.35,102.620003,1729472942525.0,0.0
0.014357,-6.513263,-9.205189,-28.91,9.38,79.870003,1729472942543.0,0.0
-1.366302,-6.381658,-8.413164,-16.52,19.879999,59.779999,1729472942563.0,0.0
-1.902294,-7.089933,-10.849058,-5.39,16.030001,32.48,1729472942584.0,0.0
-2.084148,-3.790231,-13.012171,98.489998,48.580002,-1.75,1729472942603.0,0.0
-3.113062,-4.551149,-3.756732,130.550003,83.090004,-4.69,1729472942626.0,0.0
-0.342174,-4.517649,-3.878766,0.35,48.369999,-62.860001,1729472942643.0,0.0
-0.48335,-11.346765,-6.73101,-132.229996,27.16,-102.550003,1729472942664.0,0.0
-0.100499,-17.64946,-10.193424,-154.630005,4.2,-155.680008,1729472942683.0,0.0
0.940379,-11.375479,-9.183653,0.98,7.77,-151.759995,1729472942703.0,0.0
-0.68674,-7.405786,-7.173682,229.880005,14.49,-118.300003,1729472942727.0,0.0
-1.770689,-4.673182,-7.02772,264.390015,12.32,-99.610001,1729472942744.0,0.0
-1.866402,-2.282753,-1.098306,182.210007,3.57,-57.189999,1729472942763.0,0.0
-2.067399,-3.976871,-2.440679,-0.42,0.35,-52.080002,1729472942783.0,0.0
-3.117848,-9.676575,-3.436093,-147.699997,10.99,-33.459999,1729472942803.0,0.0
-3.519842,-13.761123,-4.051049,-114.309998,-7.14,-8.75,1729472942825.0,0.0
-3.986443,-11.837293,-4.347759,-8.12,-14.91,10.15,1729472942843.0,0.0
-4.816752,-7.037291,-5.134997,20.51,-7.35,16.799999,1729472942864.0,0.0
-5.79781,-4.826324,-5.182854,-68.18,-14.77,24.5,1729472942883.0,0.0
-4.218546,-8.513663,-7.982457,-164.710007,-49.560001,9.17,1729472942903.0,0.0
0.234497,-4.45065,-8.23131,-133.910004,-76.93,24.219999,1729472942925.0,0.0
1.299303,-0.765703,-10.607382,-34.720001,-59.080002,53.130001,1729472942943.0,0.0
-0.449851,-3.778267,-10.643275,-19.879999,-18.41,64.82,1729472942963.0,0.0
-0.433101,-2.902494,-9.631111,14.42,-9.45,78.190002,1729472942983.0,0.0
-0.117248,-4.405186,-8.315059,-1.89,-6.58,79.029999,1729472943003.0,0.0
-0.12682,-5.876772,-8.422735,-23.309999,-2.24,60.900002,1729472943024.0,0.0
-0.471386,-6.412765,-8.252845,-27.860001,2.73,45.43,1729472943044.0,0.0
-0.59342,-6.757331,-7.99442,-18.969999,2.1,22.33,1729472943064.0,0.0
-1.253839,-7.338787,-10.296316,8.4,5.95,-9.03,1729472943083.0,0.0
-1.962115,-6.594619,-10.975878,27.02,21.98,-42.07,1729472943103.0,0.0
-2.364109,-7.080362,-9.092726,31.85,32.759998,-67.970001,1729472943125.0,0.0
-0.531207,-6.91765,-9.903893,4.83,9.8,-113.68,1729472943144.0,0.0
1.091127,-4.701896,-9.963714,2.66,8.61,-140.139999,1729472943163.0,0.0
0.787239,-4.252046,-9.377472,43.68,17.08,-143.850006,1729472943183.0,0.0
0.401994,-4.666004,-7.63789,119.910004,13.23,-128.169998,1729472943203.0,0.0
0.741775,-3.739982,-6.422336,179.059998,-4.2,-100.099998,1729472943226.0,0.0
0.519243,-4.917251,-6.927221,220.710007,-15.05,-63.279999,1729472943243.0,0.0
-1.911865,-7.800602,-0.689133,211.190002,25.129999,-7.07,1729472943263.0,0.0
-4.240082,-9.446864,2.531606,100.519997,69.160004,15.82,1729472943283.0,0.0
-6.013163,-10.41835,1.536192,-20.440001,60.34,14.07,1729472943303.0,0.0
-4.977071,-11.688939,-1.359123,-106.68,5.11,17.5,1729472943328.0,0.0
-1.79701,-12.744174,-3.962514,-146.509995,-72.870003,13.16,1729472943414.0,0.0
0.674776,-11.095518,-5.225924,-148.610001,-79.800003,25.27,1729472943419.0,0.0
1.660619,-7.630712,-3.663411,-145.809998,-39.41,27.790001,1729472943421.0,0.0
1.808974,-1.146162,-4.31426,-217.699997,-10.92,35.490002,1729472943429.0,0.0
-1.864009,-2.304288,-8.848659,-232.680008,-19.879999,56.349998,1729472943430.0,0.0
-4.122833,-10.394422,-14.177474,-205.800003,-31.01,39.41,1729472943443.0,0.0
0.789631,-7.99442,-13.232309,-107.379997,-66.989998,55.369999,1729472943463.0,0.0
0.339781,-6.017949,-13.155738,-6.86,-13.09,75.18,1729472943483.0,0.0
-2.282753,-5.582455,-11.992826,58.799999,43.119999,66.080002,1729472943503.0,0.0
-0.753739,-1.56012,-8.793623,112.139999,20.02,90.440002,1729472943525.0,0.0
-0.68674,-2.840281,-7.41775,45.080002,22.4,77.980003,1729472943543.0,0.0
-0.057428,-6.965507,-7.702496,-4.06,7.14,55.02,1729472943562.0,0.0
0.224925,-8.082954,-7.848458,33.670002,-6.79,29.120001,1729472943583.0,0.0
-1.811367,-3.773481,-11.595619,110.18,-1.33,-7.7,1729472943602.0,0.0
-2.316252,-3.914658,-9.722038,78.959999,20.790001,-54.110001,1729472943624.0,0.0
-0.418744,-4.756931,-8.152347,44.450001,11.2,-85.75,1729472943643.0,0.0
1.009771,-3.811767,-8.11167,38.709999,-0.91,-93.940002,1729472943662.0,0.0
0.48335,-4.902894,-6.695118,45.360001,4.55,-88.269997,1729472943682.0,0.0
0.849452,-5.905487,-9.882358,63.349998,3.71,-88.830002,1729472943703.0,0.0
0.509671,-6.281159,-8.169096,97.230003,3.78,-65.309998,1729472943726.0,0.0
-1.158126,-7.580462,-4.082155,123.340004,27.93,-53.130001,1729472943742.0,0.0
-2.723032,-8.171489,-2.354537,108.080002,37.380001,-32.830002,1729472943762.0,0.0
-2.206182,-4.421937,-1.942972,62.369999,13.86,-13.3,1729472943782.0,0.0
-2.727818,-7.781459,-4.211368,31.92,-6.3,15.05,1729472943802.0,0.0
-2.567499,-11.933006,-4.051049,22.4,5.53,33.18,1729472943825.0,0.0
-2.897708,-14.328221,-4.364508,44.73,8.33,45.920002,1729472943843.0,0.0
-3.471986,-12.813565,-3.615555,61.040001,34.09,41.299999,1729472943862.0,0.0
-3.579663,-10.179067,-2.218147,20.65,41.509998,32.900002,1729472943883.0,0.0
-3.156133,-9.647861,-2.706282,-50.540001,23.73,28.07,1729472943902.0,0.0
-0.976272,-6.262017,-6.008378,-122.150002,-1.89,23.940001,1729472943925.0,0.0
0.806381,-4.321437,-7.738388,-179.830002,-23.73,26.040001,1729472943942.0,0.0
0.397209,-2.507678,-9.370294,-248.290009,-17.360001,17.15,1729472943964.0,0.0
-1.641476,-5.039285,-10.399208,-167.089996,-5.81,49.279999,1729472943983.0,0.0
-1.679761,-8.037491,-8.355737,-69.230003,-3.57,51.170002,1729472944002.0,0.0
-1.524228,-4.692325,-6.76451,24.85,-14.14,74.199997,1729472944026.0,0.0
-2.656033,-2.878566,-7.099504,13.86,-6.93,65.660004,1729472944042.0,0.0
-2.009971,-4.029513,-8.489735,-21.629999,-13.51,64.120003,1729472944062.0,0.0
-0.088534,-4.790431,-9.796216,-37.66,-26.25,70.629997,1729472944082.0,0.0
-0.189033,-4.407579,-10.131211,-26.25,-7.84,70.209999,1729472944102.0,0.0
-1.294517,-5.087141,-8.695518,-2.66,8.89,71.400002,1729472944125.0,0.0
-1.115055,-5.441278,-7.585248,10.22,6.58,64.470001,1729472944142.0,0.0
-1.052842,-5.553742,-7.319644,0.28,1.05,49.77,1729472944162.0,0.0
-1.607977,-7.092326,-9.035298,-15.61,1.05,22.26,1729472944183.0,0.0
-1.875973,-6.276374,-10.389636,-4.62,4.13,-1.4,1729472944202.0,0.0
-2.18704,-5.778666,-10.143176,9.59,17.01,-24.43,1729472944225.0,0.0
-2.517249,-5.668597,-7.166504,17.57,29.469999,-36.400002,1729472944243.0,0.0
-2.629712,-5.895915,-5.989235,11.97,24.57,-40.740002,1729472944263.0,0.0
-1.0002,-6.9679,-10.193424,-7.7,-4.48,-55.02,1729472944282.0,0.0
-0.291924,-7.551748,-12.028719,43.540001,-0.56,-55.580002,1729472944302.0,0.0
-0.301496,-8.130811,-6.565905,96.949997,25.41,-56.630001,1729472944328.0,0.0
-1.215554,-9.006584,-5.015356,77.349998,36.400002,-70.910004,1729472944342.0,0.0
-1.51705,-8.149954,-5.094319,49.139999,1.75,-85.75,1729472944362.0,0.0
-1.765903,-7.156933,-6.238089,94.43,-17.99,-80.290001,1729472944382.0,0.0
-1.942972,-7.412964,-4.632504,168.490005,-42.91,-82.25,1729472944402.0,0.0
-1.222732,-5.852845,-4.335794,231.139999,-59.5,-64.120003,1729472944425.0,0.0
-1.603191,-6.647261,-6.329016,333.899994,-88.199997,-19.879999,1729472944442.0,0.0
-2.744568,-9.432507,-5.156533,329.279999,-69.93,-9.03,1729472944462.0,0.0
-3.67059,-7.886744,-2.208575,110.879997,-9.94,-27.860001,1729472944483.0,0.0
-4.62054,-7.338787,-2.859423,-145.389999,10.01,-36.889999,1729472944502.0,0.0
-4.498507,-10.114462,-3.845266,-282.029999,0.91,-34.790001,1729472944524.0,0.0
-3.335595,-12.870994,-4.833502,-282.450012,-16.030001,-32.689999,1729472944542.0,0.0
-2.404787,-13.550553,-6.017949,-194.389999,-20.65,-21.559999,1729472944562.0,0.0
-1.612763,-8.961121,-6.223732,-131.039993,-19.530001,-14.84,1729472944583.0,0.0
-0.971486,-4.180261,-8.13799,-115.779999,-13.65,9.03,1729472944602.0,0.0
0.567099,-3.579663,-8.992228,-81.269997,-9.8,44.029999,1729472944624.0,0.0
0.478565,-6.075377,-8.154739,-35.279999,10.15,69.090004,1729472944642.0,0.0
0.165105,-4.110869,-6.762117,-18.76,22.33,79.309998,1729472944662.0,0.0
-0.397209,-3.385844,-7.743174,-41.299999,16.52,82.949997,1729472944682.0,0.0
-0.236889,-4.838287,-8.877372,-78.68,8.96,75.669998,1729472944702.0,0.0
-0.045464,-6.063413,-9.171689,-55.720001,5.95,73.57,1729472944726.0,0.0
-0.160319,-5.565705,-9.042477,-13.72,4.2,63.209999,1729472944743.0,0.0
-1.12702,-6.07777,-9.564112,10.92,5.74,38.639999,1729472944761.0,0.0
-2.019542,-6.752545,-12.602997,43.75,8.47,5.04,1729472944782.0,0.0
-2.091327,-6.422336,-14.306686,131.110001,23.799999,-18.549999,1729472944802.0,0.0
-1.442872,-6.98465,-8.671589,208.809998,37.170002,-35.700001,1729472944824.0,0.0
-0.370888,-5.209175,-2.770889,208.389999,23.940001,-57.260002,1729472944842.0,0.0
0.827917,-3.354738,-5.455636,108.57,-6.58,-92.120003,1729472944862.0,0.0
1.952543,-6.568298,-8.001599,-2.94,-21.84,-112.0,1729472944882.0,0.0
1.68694,-8.910872,-8.054241,-28.84,-5.32,-98.07,1729472944902.0,0.0
0.37328,-9.370294,-7.125826,74.129997,28.98,-67.480003,1729472944925.0,0.0
-3.323631,-5.690133,2.478964,172.410004,45.080002,-46.48,1729472944942.0,0.0
-7.164111,-4.479364,1.569692,46.549999,45.990002,-27.23,1729472944962.0,0.0
-6.644868,-6.896115,-4.61097,-77.910004,-7.56,-8.96,1729472944982.0,0.0
-2.971886,-13.399807,-5.836094,-84.980003,-86.029999,15.54,1729472945002.0,0.0
-1.227518,-13.710874,-4.177868,-85.330002,-53.130001,35.490002,1729472945025.0,0.0
-3.952943,-10.523634,-4.41715,-53.34,52.220001,31.780001,1729472945042.0,0.0
-5.613562,-7.948956,-4.902894,-65.800003,56.91,26.040001,1729472945062.0,0.0
-3.907479,-5.295317,-4.917251,-131.529999,-23.59,30.940001,1729472945083.0,0.0
-1.864009,-6.252446,-5.788238,-152.809998,-65.169998,65.099998,1729472945103.0,0.0
0.349352,-5.716454,-8.082954,-183.190002,-55.369999,48.299999,1729472945124.0,0.0
-0.040678,-5.221139,-10.997414,-99.75,-40.740002,66.639999,1729472945141.0,0.0
-0.433101,-5.079963,-10.509278,-51.029999,-30.799999,80.989998,1729472945162.0,0.0
-0.172283,-3.586841,-10.968699,-24.43,-18.41,80.220001,1729472945181.0,0.0
-0.59342,-4.991428,-10.298709,-8.47,-6.51,85.75,1729472945203.0,0.0
-0.12682,-5.118248,-10.214959,-10.36,-0.49,74.620003,1729472945225.0,0.0
-0.22014,-6.685547,-9.906286,2.66,8.82,59.010002,1729472945242.0,0.0
-0.631705,-6.673582,-9.793823,34.299999,14.98,33.950001,1729472945261.0,0.0
-1.115055,-5.972485,-10.19821,53.619999,25.129999,-1.96,1729472945282.0,0.0
-0.624527,-6.486942,-6.530013,58.66,38.150002,-43.400002,1729472945302.0,0.0
-0.131605,-7.156933,-5.362316,31.360001,28.0,-69.510002,1729472945326.0,0.0
-0.308674,-7.769495,-6.245267,-27.370001,21.49,-95.199997,1729472945342.0,0.0
-0.741775,-6.06102,-6.139983,-70.349998,17.01,-98.139999,1729472945362.0,0.0
-1.68694,-6.063413,-6.577869,-92.400002,17.15,-87.57,1729472945382.0,0.0
-3.694518,-6.683154,-3.493521,-129.080002,23.030001,-67.550003,1729472945401.0,0.0
-5.319244,-7.704889,-3.005385,-142.029999,11.2,-44.73,1729472945426.0,0.0
-4.902894,-6.518049,-7.84128,-84.769997,-25.48,-1.68,1729472945442.0,0.0
-3.067599,-5.295317,-10.983055,25.41,-52.009998,53.41,1729472945462.0,0.0
-3.067599,-4.108476,-11.68176,53.689999,-28.35,93.099998,1729472945481.0,0.0
-2.084148,-2.801995,-11.047661,71.050003,-15.89,104.650002,1729472945502.0,0.0
-0.849452,-3.407379,-9.77468,56.560001,-15.26,113.470001,1729472945523.0,0.0
-0.760918,-5.199604,-8.975478,40.950001,-0.21,98.419998,1729472945542.0,0.0
-1.926222,-4.945964,-8.874979,44.450001,8.54,95.059998,1729472945561.0,0.0
-2.888137,-5.47717,-6.233303,50.470001,14.7,74.620003,1729472945582.0,0.0
-1.830509,-6.534799,-8.149954,14.07,-3.57,45.5,1729472945601.0,0.0
-2.514857,-5.106283,-8.080563,18.549999,0.49,14.49,1729472945633.0,0.0
-3.558127,-5.76431,-7.963314,-5.67,11.27,-3.57,1729472945641.0,0.0
-2.902494,-6.565905,-8.52802,-12.6,2.66,-17.57,1729472945661.0,0.0
-2.474179,-6.769295,-10.779665,11.13,3.5,-31.639999,1729472945683.0,0.0
-2.165504,-7.575676,-9.614362,46.900002,15.89,-53.900002,1729472945702.0,0.0
-2.043471,-7.877172,-7.427321,59.360001,16.940001,-78.470001,1729472945724.0,0.0
-1.840081,-7.267002,-6.539584,62.02,9.73,-121.449997,1729472945741.0,0.0
-1.964507,-5.769095,-8.449057,50.75,-9.8,-149.309998,1729472945763.0,0.0
-0.830309,-4.802395,-11.612368,44.450001,-19.950001,-164.080002,1729472945781.0,0.0
0.26321,-3.723232,-7.233503,93.660004,-17.43,-134.610001,1729472945803.0,0.0
0.497707,-2.95035,-4.821537,118.160004,-13.440001,-109.620003,1729472945823.0,0.0
0.595813,-2.103291,-6.029913,25.41,-2.52,-97.090004,1729472945841.0,0.0
0.658026,-3.65384,-6.848258,-92.470001,-4.83,-74.760002,1729472945862.0,0.0
0.48335,-7.097112,-6.45105,-157.710007,-11.27,-59.150002,1729472945882.0,0.0
-0.665205,-10.205389,-3.397808,-136.360001,-3.29,-55.580002,1729472945902.0,0.0
-2.596212,-9.343972,-3.426522,-114.590004,2.59,-61.599998,1729472945923.0,0.0
-2.519642,-8.133204,-7.534998,-131.949997,-34.509998,-76.580002,1729472945941.0,0.0
1.531406,-4.309474,-8.518449,-172.619995,-67.760002,-56.139999,1729472945962.0,0.0
-0.844666,-6.843473,-7.652246,-105.629997,-23.17,-20.860001,1729472945982.0,0.0
-5.836094,-9.801002,-3.244668,-25.34,19.389999,12.18,1729472946002.0,0.0
-5.424529,-6.733403,-8.714661,58.52,-18.27,26.32,1729472946025.0,0.0
-0.672383,-0.643669,-8.944371,-15.12,-94.080002,50.540001,1729472946042.0,0.0
-0.784846,-4.21376,-10.746166,-118.93,-56.349998,60.200001,1729472946061.0,0.0
-2.232504,-8.281559,-12.363714,-64.330002,-34.720001,73.57,1729472946081.0,0.0
-1.213161,-6.295516,-12.626925,73.080002,-35.209999,87.080002,1729472946103.0,0.0
-1.055235,-4.168297,-10.41835,101.919998,-17.5,97.019997,1729472946123.0,0.0
-1.261017,-3.345166,-9.781858,80.779999,-0.77,102.900002,1729472946141.0,0.0
-0.270389,-3.562913,-9.410972,93.519997,-8.12,118.370003,1729472946161.0,0.0
0.375673,-2.904887,-11.330014,106.540001,-3.01,124.529999,1729472946182.0,0.0
0.179462,-4.476971,-7.858029,83.230003,8.89,122.290001,1729472946201.0,0.0
-1.730011,-5.584848,-7.458428,66.010002,27.58,103.879997,1729472946224.0,0.0
-2.624927,-4.359723,-9.690931,39.200001,21.0,88.129997,1729472946241.0,0.0
-1.208375,-6.896115,-9.994821,12.6,5.25,66.010002,1729472946261.0,0.0
-2.048256,-5.505885,-12.337393,25.83,20.58,34.860001,1729472946282.0,0.0
-2.402394,-4.905287,-9.657433,92.260002,53.970001,-17.290001,1729472946301.0,0.0
-1.440479,-6.745367,-6.79083,80.010002,44.52,-47.459999,1729472946326.0,0.0
0.153141,-5.575277,-7.310073,74.269997,21.700001,-81.690002,1729472946341.0,0.0
0.138784,-5.221139,-4.022335,104.090004,11.69,-90.370003,1729472946362.0,0.0
-0.854238,-5.513064,-6.161518,78.470001,17.85,-108.639999,1729472946381.0,0.0
-1.112662,-8.664411,-6.314659,5.39,0.42,-131.180008,1729472946401.0,0.0
-1.335195,-9.355937,-7.49432,3.85,-18.200001,-111.580002,1729472946433.0,0.0
-1.28016,-7.41775,-6.599405,103.669998,-26.040001,-75.32,1729472946441.0,0.0
-1.337588,-2.766103,-2.778067,153.720001,-6.72,-40.880001,1729472946461.0,0.0
-3.847659,-3.842873,-2.677568,45.150002,14.14,-29.889999,1729472946482.0,0.0
-6.092126,-9.21476,-2.87378,-122.43,26.809999,-1.82,1729472946501.0,0.0
-5.010571,-13.562519,-4.675575,-184.800003,-17.290001,-11.13,1729472946523.0,0.0
-3.627519,-13.232309,-6.259624,-129.710007,-40.389999,13.37,1729472946541.0,0.0
-3.158526,-10.870593,-5.718846,-8.26,-25.9,24.43,1729472946562.0,0.0
-4.326223,-8.10449,-5.592027,38.5,-7.07,33.810001,1729472946582.0,0.0
-4.59422,-6.503692,-6.398407,34.650002,-16.940001,34.299999,1729472946602.0,0.0
-1.213161,-1.150948,-9.74836,-52.849998,-48.650002,34.650002,1729472946624.0,0.0
-0.074178,-2.122434,-12.662818,-150.919998,-49.84,65.379997,1729472946644.0,0.0
1.299303,-8.255238,-13.560125,-71.82,-32.130001,76.230003,1729472946671.0,0.0
2.218147,-3.349952,-11.64826,91.910004,-9.31,115.010002,1729472946692.0,0.0
-0.617348,0.674776,-6.616155,122.639999,32.34,121.940002,1729472946701.0,0.0
-2.67039,-3.582055,-5.991628,5.74,38.709999,86.029999,1729472946722.0,0.0
-1.739582,-6.312266,-8.504091,-41.650002,3.22,80.779999,1729472946740.0,0.0
-1.282553,-7.788638,-10.882557,-9.94,0.42,53.970001,1729472946762.0,0.0
-1.787439,-6.111269,-13.773087,59.990002,29.049999,11.48,1729472946781.0,0.0
-1.715654,-6.513263,-8.62134,112.279999,51.450001,-7.49,1729472946801.0,0.0
0.358923,-5.668597,-5.163712,82.25,36.330002,-42.139999,1729472946823.0,0.0
1.708475,-5.568098,-5.989235,50.049999,20.02,-71.68,1729472946841.0,0.0
1.239482,-7.209574,-5.618347,47.810001,19.18,-82.32,1729472946871.0,0.0
-0.088534,-9.408579,-7.45125,57.049999,16.030001,-98.769997,1729472946881.0,0.0
-1.521835,-10.882557,-6.226124,83.230003,15.47,-93.029999,1729472946901.0,0.0
-2.292324,-10.482956,-6.211767,149.029999,3.01,-78.330002,1729472946924.0,0.0
-1.237089,-2.988636,-4.09412,188.089996,-21.98,-60.689999,1729472946941.0,0.0
-3.842873,-5.381458,-2.031506,159.600006,-21.77,-53.760002,1729472946961.0,0.0
-5.525027,-9.533006,-2.143969,-14.56,-10.92,-29.68,1729472946982.0,0.0
-5.101498,-11.80858,-5.601598,6.16,-55.23,-24.92,1729472947001.0,0.0
-3.132205,-8.886944,-8.38445,22.469999,-81.970001,-5.04,1729472947024.0,0.0
-2.371287,-8.650054,-2.17029,22.469999,-67.059998,-9.52,1729472947041.0,0.0
-5.201996,-9.363115,-3.342773,0.91,18.200001,3.36,1729472947061.0,0.0
-5.56092,-10.583455,-3.56052,16.17,7.63,16.379999,1729472947081.0,0.0
-2.679961,-9.523434,-3.512664,30.030001,-43.400002,13.23,1729472947101.0,0.0
-0.646062,-9.334401,-4.862216,-21.629999,-47.810001,14.07,1729472947124.0,0.0
-0.284746,-7.534998,-4.512863,-159.110001,-0.84,1.47,1729472947141.0,0.0
-1.775474,-6.032306,-6.106483,-299.529999,43.959999,-10.71,1729472947161.0,0.0
-2.143969,-5.56092,-7.724032,-382.829987,31.360001,0.21,1729472947181.0,0.0
-1.246661,-6.228518,-9.399008,-374.079987,0.49,1.33,1729472947201.0,0.0
0.342174,-7.956135,-9.870394,-229.529999,-16.030001,20.299999,1729472947224.0,0.0
-0.447458,-10.023535,-8.669197,-39.689999,-2.52,53.200001,1729472947241.0,0.0
-2.641676,-7.599605,-8.252845,58.59,28.84,45.43,1729472947261.0,0.0
-2.938386,-4.835894,-7.396214,38.080002,22.68,45.080002,1729472947280.0,0.0
-0.914058,-2.969493,-10.537991,-27.719999,0.98,47.110001,1729472947302.0,0.0
0.275175,-5.07757,-11.023734,-14.35,-5.95,60.619999,1729472947325.0,0.0
0.600598,-4.754539,-10.028319,25.41,11.13,58.59,1729472947341.0,0.0
-0.299103,-4.220939,-8.355737,63.209999,21.49,53.200001,1729472947360.0,0.0
-0.200997,-3.558127,-9.092726,73.57,8.82,38.080002,1729472947381.0,0.0
-0.055035,-3.393023,-11.547763,79.099998,8.61,17.85,1729472947401.0,0.0
-0.234497,-4.242475,-10.07139,99.610001,26.880001,-1.68,1729472947424.0,0.0
-0.294317,-5.441278,-8.068598,120.75,31.710001,-14.0,1729472947441.0,0.0
0.153141,-5.312066,-7.025328,129.289993,30.1,-42.209999,1729472947460.0,0.0
-0.66999,-7.496714,-4.759324,113.330002,29.120001,-64.120003,1729472947481.0,0.0
-1.325624,-8.518449,-6.611369,84.349998,6.51,-75.739998,1729472947501.0,0.0
-1.540978,-7.958528,-6.020342,134.470001,-25.620001,-59.57,1729472947523.0,0.0
-1.792224,-7.826923,-5.692525,215.529999,-29.889999,-47.18,1729472947541.0,0.0
-3.081956,-6.38405,1.155733,206.289993,-22.610001,-36.119999,1729472947561.0,0.0
-5.65424,-7.913064,-1.694118,119.279999,-8.05,-32.689999,1729472947581.0,0.0
-5.903094,-9.166903,-2.909672,91.769997,-20.370001,1.26,1729472947601.0,0.0
-2.127219,-11.270195,-4.532006,135.589996,-73.5,6.3,1729472947623.0,0.0
-1.706082,-12.698709,-3.536592,187.600006,-53.900002,19.389999,1729472947641.0,0.0
-3.189633,-11.842079,-2.665605,162.610001,21.700001,11.48,1729472947661.0,0.0
-4.316652,-10.392029,-1.919044,117.879997,50.189999,7.91,1729472947681.0,0.0
-3.696911,-10.310673,-1.871187,84.489998,24.780001,10.01,1729472947702.0,0.0
-2.443072,-11.351551,-2.287539,46.130001,5.88,7.56,1729472947725.0,0.0
-1.215554,-11.514263,-2.347359,-26.74,7.21,-11.69,1729472947741.0,0.0
-0.284746,-8.26481,-1.538585,-164.430008,21.210001,-31.99,1729472947760.0,0.0
0.370888,-3.402594,-0.672383,-324.100006,44.59,-31.43,1729472947781.0,0.0
0.318245,-0.16989,-1.292124,-489.860016,29.610001,-31.360001,1729472947801.0,0.0
0.143569,-0.320638,-6.388836,-559.299988,-8.54,2.73,1729472947822.0,0.0
-0.648455,-7.334002,-8.008778,-418.25,-44.73,29.33,1729472947841.0,0.0
-2.117648,-16.206589,-10.516455,-74.760002,-34.650002,42.0,1729472947860.0,0.0
-0.734596,-6.836295,-11.124231,52.990002,-35.91,27.16,1729472947880.0,0.0
-1.244268,-0.289532,-10.152746,10.43,-24.639999,52.709999,1729472947901.0,0.0
-1.825724,-4.177868,-11.772687,-70.840004,3.64,16.309999,1729472947924.0,0.0
-0.612563,-7.984849,-11.205588,-74.760002,2.59,13.65,1729472947940.0,0.0
-1.033699,-6.374479,-7.267002,-8.68,9.59,17.99,1729472947961.0,0.0
-2.732604,-5.240282,-5.814559,60.48,27.790001,-6.86,1729472947980.0,0.0
-2.533999,-4.912465,-5.82413,42.560001,1.82,-14.98,1729472948000.0,0.0
-1.923829,-6.52762,-7.257431,26.32,-16.030001,-20.51,1729472948023.0,0.0
-1.761117,-8.420342,-7.80778,56.420002,-17.85,-25.969999,1729472948040.0,0.0
-1.909473,-8.853443,-6.987042,120.470001,-12.32,-22.049999,1729472948061.0,0.0
-2.031506,-8.77448,-6.474977,199.360001,-12.53,-11.41,1729472948081.0,0.0
-2.493321,-8.949157,-6.592227,302.190002,-6.51,3.36,1729472948100.0,0.0
-3.067599,-10.743774,-7.513463,429.519989,-0.84,14.84,1729472948124.0,0.0
-3.522235,-9.571291,-7.262216,529.200012,-0.56,31.43,1729472948141.0,0.0
-4.697111,-8.980263,-3.323631,614.73999,14.28,55.02,1729472948161.0,0.0
-5.304887,-8.130811,-0.01675,600.73999,7.63,46.200001,1729472948180.0,0.0
-4.201797,-7.642675,1.055235,481.809998,-28.559999,35.84,1729472948200.0,0.0
-1.540978,-6.070591,1.591227,324.450012,-53.41,18.969999,1729472948222.0,0.0
-0.133998,-6.563512,3.309274,204.680008,-42.420002,18.76,1729472948240.0,0.0
-1.141376,-7.89153,4.742575,109.550003,-20.09,14.84,1729472948261.0,0.0
-2.663212,-9.853643,4.338188,51.099998,-20.51,4.41,1729472948280.0,0.0
-1.316052,-8.372486,3.498307,19.18,-27.860001,-9.66,1729472948300.0,0.0
-0.68674,-8.271988,3.292524,8.96,-9.87,-7.28,1729472948325.0,0.0
-0.68674,-8.315059,4.268795,10.43,-9.38,-9.24,1729472948391.0,0.0
-0.937986,-8.602197,5.242674,29.190001,-5.67,-5.04,1729472948391.0,0.0
-1.198804,-7.575676,4.754539,46.34,-2.24,-7.49,1729472948391.0,0.0
-1.792224,-7.563712,3.273381,109.830002,0.35,-0.98,1729472948400.0,0.0
-2.258825,-6.795617,5.479564,206.710007,4.55,16.309999,1729472948426.0,0.0
-3.081956,-4.35733,6.623333,248.779999,17.85,17.08,1729472948441.0,0.0
-4.972286,-6.144768,7.298109,237.790009,14.7,17.710001,1729472948460.0,0.0
-3.684947,-7.142576,7.523034,202.580002,4.48,2.31,1729472948480.0,0.0
-2.794817,-5.893522,9.329616,191.449997,28.700001,-1.82,1729472948500.0,0.0
-3.022135,-2.868994,10.372886,135.869995,31.43,-8.26,1729472948522.0,0.0
-5.644669,-1.648655,10.432706,56.349998,8.26,7.91,1729472948541.0,0.0
-3.182454,-6.092126,8.023134,36.75,-24.08,9.03,1729472948560.0,0.0
-0.086142,-6.482157,5.359922,78.75,-1.96,4.06,1729472948581.0,0.0
-2.100898,-4.905287,6.74776,125.090004,22.120001,5.53,1729472948601.0,0.0
-3.012564,-3.591627,8.717053,96.25,27.02,-2.52,1729472948623.0,0.0
-2.586641,-3.988836,8.640482,46.759998,20.790001,-12.53,1729472948642.0,0.0
-3.548556,-3.996014,9.157332,5.46,14.07,-20.16,1729472948660.0,0.0
-3.034099,-4.259224,9.221939,-15.05,5.11,-17.85,1729472948681.0,0.0
-2.775674,-3.802195,9.899107,-14.49,-2.8,-12.46,1729472948701.0,0.0
-3.225525,-2.758924,8.985049,-10.36,-13.440001,0.49,1729472948725.0,0.0
-2.859423,-2.232504,7.563712,-14.98,-18.9,10.78,1729472948740.0,0.0
-3.156133,-1.916651,6.675975,-26.18,-15.96,21.42,1729472948760.0,0.0
-3.706482,-1.612763,6.30748,-49.209999,-8.68,30.17,1729472948779.0,0.0
-4.31426,-2.569891,6.573084,-77.0,-1.4,37.099998,1729472948800.0,0.0
-4.09412,-4.744967,7.54457,-96.32,-0.84,36.610001,1729472948822.0,0.0
-2.837888,-4.938786,8.365308,-93.870003,5.81,34.02,1729472948840.0,0.0
-2.562713,-4.376472,9.470792,-96.599998,8.75,37.66,1729472948860.0,0.0
-2.304288,-3.402594,10.171888,-123.900002,0.42,39.27,1729472948880.0,0.0
-3.376273,-3.751946,9.643075,-188.229996,-14.35,39.34,1729472948907.0,0.0
-2.017149,-5.56092,5.704489,-234.850006,-28.700001,36.540001,1729472948922.0,0.0
-1.79701,-5.972485,3.215954,-230.300003,-11.2,38.920002,1729472948941.0,0.0
-2.864209,-5.197211,3.663411,-223.369995,10.78,34.299999,1729472948960.0,0.0
-4.778467,-8.99462,5.642276,-241.779999,6.09,31.5,1729472948980.0,0.0
-4.776074,-10.798808,4.364508,-250.600006,-6.02,23.24,1729472949001.0,0.0
-4.177868,-12.844672,0.416351,-159.180008,-16.17,10.29,1729472949023.0,0.0
-3.117848,-13.050454,0.782453,-10.99,-12.32,5.39,1729472949040.0,0.0
-3.091527,-10.013963,3.067599,134.190002,7.49,4.97,1729472949060.0,0.0
-3.876373,-8.365308,5.06082,193.899994,9.73,1.19,1729472949140.0,0.0
-3.584448,-8.099705,4.615755,187.180008,4.97,-9.59,1729472949145.0,0.0
-2.919244,-6.819544,4.254438,168.910004,10.85,-11.27,1729472949147.0,0.0
-3.273381,-5.173282,5.273781,136.710007,21.210001,-14.28,1729472949148.0,0.0
-4.321437,-4.960321,8.468199,86.800003,22.33,-10.78,1729472949224.0,0.0
-4.498507,-6.80758,6.197411,64.470001,-5.46,-16.17,1729472949225.0,0.0
-3.562913,-6.501299,6.24766,154.0,10.01,6.93,1729472949225.0,0.0
-3.936193,-4.515256,6.338587,153.860001,20.23,-3.85,1729472949225.0,0.0
-4.948357,-4.658825,6.422336,72.940002,19.809999,-2.03,1729472949239.0,0.0
-4.24726,-7.080362,6.084948,6.37,13.51,-15.4,1729472949260.0,0.0
-2.74696,-6.640083,5.982057,5.74,17.710001,-15.4,1729472949280.0,0.0
-1.988436,-4.87418,8.26481,30.1,21.559999,-6.09,1729472949300.0,0.0
-2.421536,-2.840281,7.951349,-14.0,6.02,4.76,1729472949328.0,0.0
-2.699104,-3.292524,8.312666,-46.060001,-3.08,18.200001,1729472949339.0,0.0
-4.103691,-3.756732,9.372685,-85.75,-9.1,25.27,1729472949361.0,0.0
-5.240282,-5.058427,9.293723,-150.639999,-25.690001,24.99,1729472949381.0,0.0
-5.771489,-7.635497,7.84128,-216.440002,-44.66,14.21,1729472949401.0,0.0
-5.419744,-10.683953,3.371487,-229.740005,-54.459999,-6.79,1729472949422.0,0.0
-3.790231,-11.117055,3.495914,-170.589996,-29.120001,-15.89,1729472949440.0,0.0
-3.371487,-8.310273,5.237889,-110.879997,-4.34,-23.59,1729472949460.0,0.0
-4.024727,-6.022735,5.895915,-108.080002,0.35,-20.719999,1729472949481.0,0.0
-3.818945,-5.642276,3.5007,-148.610001,-13.23,-23.799999,1729472949499.0,0.0
-3.998406,-8.334201,1.770689,-126.770004,-16.799999,-13.16,1729472949523.0,0.0
-4.709075,-10.095319,1.51705,-52.290001,-9.1,-8.89,1729472949540.0,0.0
-4.419543,-9.52822,2.376073,41.299999,4.41,-2.52,1729472949560.0,0.0
-4.199404,-7.611568,3.503092,92.050003,14.35,1.12,1729472949580.0,0.0
-4.031906,-6.52762,3.507878,89.809998,15.61,4.76,1729472949601.0,0.0
-3.797409,-7.322037,2.945565,72.590004,16.309999,6.58,1729472949621.0,0.0
-3.694518,-8.575876,5.180461,70.07,21.0,5.67,1729472949639.0,0.0
-3.883551,-7.393822,7.63789,88.900002,17.08,2.1,1729472949661.0,0.0
-3.605984,-6.281159,5.9342,115.709999,5.04,10.64,1729472949679.0,0.0
-2.909672,-6.053841,5.053641,128.800003,4.62,14.77,1729472949700.0,0.0
-3.416951,-5.960521,4.843073,91.980003,12.53,11.06,1729472949722.0,0.0
-4.376472,-7.666604,4.886144,26.809999,19.389999,3.78,1729472949738.0,0.0
-3.479164,-8.867801,5.259424,-24.290001,22.190001,-8.82,1729472949761.0,0.0
-2.909672,-8.724231,5.520242,-35.98,23.940001,-16.1,1729472949779.0,0.0
-2.665605,-7.71446,6.003592,-13.86,21.77,-14.28,1729472949799.0,0.0
-2.158326,-6.470192,5.816952,4.9,12.32,-10.64,1729472949824.0,0.0
-2.081756,-5.702096,5.699703,18.34,3.92,-1.54,1729472949839.0,0.0
-3.108276,-4.977071,7.312466,2.1,-0.56,6.79,1729472949860.0,0.0
-4.225725,-5.290531,7.401,-63.420002,-15.05,9.8,1729472949880.0,0.0
-4.886144,-8.133204,6.709475,-130.410004,-35.0,5.81,1729472949900.0,0.0
-4.622933,-10.315458,5.053641,-165.270004,-44.380001,-9.87,1729472949922.0,0.0
-4.048656,-10.368099,2.622534,-172.410004,-34.16,-23.24,1729472949939.0,0.0
-3.407379,-9.47797,2.536392,-132.860001,-16.799999,-30.380001,1729472949959.0,0.0
-3.98405,-7.688138,4.508078,-88.550003,-16.799999,-29.469999,1729472949979.0,0.0
-3.974478,-6.436693,5.218746,-74.269997,-0.07,-25.9,1729472949999.0,0.0
-3.804588,-6.465407,3.751946,-70.0,-5.18,-15.61,1729472950021.0,0.0
-3.596412,-8.073383,2.129612,-38.849998,-4.48,-2.59,1729472950040.0,0.0
-2.526821,-8.970692,2.29711,22.68,2.73,8.05,1729472950059.0,0.0
-2.033899,-8.147561,2.151148,90.160004,14.0,22.049999,1729472950079.0,0.0
-3.639483,-8.803195,1.95015,121.379997,30.66,27.58,1729472950099.0,0.0
-5.063213,-9.458827,2.991028,89.599998,34.790001,15.61,1729472950122.0,0.0
-4.565506,-10.135997,4.096512,72.169998,27.02,5.32,1729472950140.0,0.0
-4.197011,-9.025726,7.173682,82.110001,20.51,-4.2,1729472950159.0,0.0
-4.311867,-6.080163,7.319644,99.120003,0.91,0.28,1729472950179.0,0.0
-4.206582,-6.008378,5.350351,144.199997,-14.98,11.41,1729472950199.0,0.0
-3.005385,-6.458229,4.237689,149.100006,-13.16,13.58,1729472950221.0,0.0
-2.916851,-5.87438,4.943572,122.360001,0.42,14.77,1729472950240.0,0.0
-3.754339,-7.956135,4.608576,64.330002,14.84,11.9,1729472950259.0,0.0
-2.904887,-9.343972,4.290331,6.44,16.799999,-7.42,1729472950279.0,0.0
-2.682354,-7.903493,6.463014,9.45,31.57,-7.21,1729472950300.0,0.0
-3.952943,-3.996014,8.422735,12.32,26.460001,-5.11,1729472950323.0,0.0
-5.206782,-4.82393,8.719445,-15.33,-7.84,9.87,1729472950339.0,0.0
-5.352744,-5.54417,8.626125,-109.059998,-26.389999,2.24,1729472950367.0,0.0
-5.245068,-7.192825,5.376673,-242.619995,-48.439999,-15.190001,1729472950380.0,0.0
-3.711268,-10.906486,-0.260818,-291.899994,-58.869999,-30.870001,1729472950402.0,0.0
-0.291924,-12.452249,-0.459422,-203.350006,-35.07,-26.880001,1729472950423.0,0.0
0.189033,-9.186047,2.54357,-81.620003,2.24,-26.389999,1729472950439.0,0.0
-3.103491,-7.401,5.096712,-36.889999,20.02,-18.76,1729472950459.0,0.0
-4.953143,-9.040084,2.87378,-58.869999,7.84,-26.6,1729472950480.0,0.0
-3.479164,-10.899307,2.277967,-16.309999,-4.27,-21.210001,1729472950499.0,0.0
-3.244668,-9.463614,3.438486,75.25,10.78,-14.42,1729472950521.0,0.0
-4.761717,-6.692725,4.381258,139.300003,17.5,-6.72,1729472950540.0,0.0
-5.099105,-5.089533,5.07757,140.490005,11.83,0.91,1729472950561.0,0.0
-4.493721,-5.869594,4.756931,92.889999,4.62,1.68,1729472950581.0,0.0
-3.907479,-6.802795,4.261617,16.66,4.76,-2.38,1729472950601.0,0.0
-3.292524,-9.092726,4.728218,-6.51,0.56,-2.8,1729472950623.0,0.0
-3.632305,-8.374879,5.56092,72.169998,2.73,7.49,1729472950641.0,0.0
-3.871587,-6.008378,5.556134,146.369995,10.57,19.110001,1729472950660.0,0.0
-3.407379,-5.659025,4.917251,133.350006,9.24,20.440001,1729472950680.0,0.0
-3.598805,-7.23111,4.139583,78.470001,10.29,16.309999,1729472950701.0,0.0
-4.007978,-9.305687,3.991228,35.420002,15.89,7.21,1729472950722.0,0.0
-3.625126,-9.592826,5.218746,14.14,23.030001,-6.44,1729472950740.0,0.0
-2.928815,-8.126025,6.522834,2.24,21.139999,-13.58,1729472950760.0,0.0
-2.242075,-6.156733,6.762117,2.59,11.34,-8.26,1729472950781.0,0.0
-1.904687,-5.359922,6.778866,8.05,-2.59,1.47,1729472950801.0,0.0
-2.428715,-5.503492,7.166504,-3.08,-12.74,9.17,1729472950822.0,0.0
-3.026921,-6.02752,6.860222,-48.790001,-20.860001,10.22,1729472950841.0,0.0
-3.28056,-7.460821,6.218946,-116.550003,-26.809999,5.6,1729472950861.0,0.0
-3.76391,-9.327222,5.393422,-180.460007,-28.77,-5.81,1729472950881.0,0.0
-3.761517,-10.100104,3.510271,-210.350006,-26.74,-22.75,1729472950901.0,0.0
-2.665605,-10.181459,2.713461,-174.300003,-15.26,-26.74,1729472950922.0,0.0
-3.086741,-8.762517,3.979264,-75.040001,-0.21,-26.74,1729472950942.0,0.0
-3.955336,-7.822137,5.438886,-49.420002,0.7,-24.85,1729472950961.0,0.0
-3.85723,-7.41775,4.917251,-65.590004,-11.34,-23.59,1729472950980.0,0.0
-3.56052,-8.295916,3.034099,-58.59,-17.5,-15.4,1729472951000.0,0.0
-3.706482,-8.740981,1.59362,-7.0,-10.71,-8.19,1729472951024.0,0.0
-4.328616,-8.633304,1.672583,57.82,3.85,3.08,1729472951040.0,0.0
-4.091727,-8.221739,1.978864,91.489998,15.89,6.58,1729472951061.0,0.0
-3.739982,-7.446464,3.393023,89.809998,26.530001,11.41,1729472951084.0,0.0
-4.149154,-7.436893,4.285545,50.68,28.77,9.87,1729472951101.0,0.0
-4.027121,-8.042276,4.342973,4.9,17.99,7.84,1729472951123.0,0.0
-3.07717,-9.702895,4.096512,13.09,-1.54,8.12,1729472951141.0,0.0
-2.490928,-10.212566,4.125226,85.470001,-5.74,12.04,1729472951161.0,0.0
-2.720639,-8.303094,4.256832,143.779999,6.37,12.74,1729472951180.0,0.0
-2.835495,-6.534799,4.371687,139.300003,9.38,10.5,1729472951201.0,0.0
-3.04367,-6.592227,3.962514,103.32,12.39,8.96,1729472951224.0,0.0
-3.227918,-8.003991,4.053442,60.900002,16.59,-0.7,1729472951240.0,0.0
-2.758924,-8.894121,4.666004,25.129999,22.469999,-11.27,1729472951260.0,0.0
-2.737389,-8.372486,5.673382,6.58,25.76,-13.72,1729472951280.0,0.0
-2.76371,-6.9679,6.01077,7.07,17.360001,-10.99,1729472951300.0,0.0
-2.615355,-6.34098,6.431907,28.35,4.41,-2.38,1729472951325.0,0.0
-3.498307,-6.38405,7.250252,39.900002,-7.21,6.16,1729472951340.0,0.0
-3.828516,-6.745367,6.678369,4.76,-20.719999,8.54,1729472951361.0,0.0
-3.749553,-7.781459,5.87438,-57.189999,-30.309999,2.8,1729472951380.0,0.0
-3.57727,-9.597611,4.974678,-96.529999,-34.09,-7.56,1729472951401.0,0.0
-3.053242,-10.894521,3.069991,-78.610001,-35.0,-21.77,1729472951423.0,0.0
-2.433501,-9.726824,3.101098,11.83,-13.72,-19.530001,1729472951440.0,0.0
-3.345166,-7.130611,5.187639,88.410004,6.02,-18.9,1729472951460.0,0.0
-4.275974,-4.962714,6.752545,100.379997,4.2,-13.86,1729472951480.0,0.0
-4.498507,-4.096512,7.360322,97.860001,-2.8,-5.25,1729472951500.0,0.0
-4.807181,-3.61077,7.278966,113.82,-2.38,10.99,1729472951533.0,0.0
-4.572684,-2.732604,6.173482,119.0,6.79,25.620001,1729472951540.0,0.0
-4.13719,-5.024928,5.020142,78.610001,21.700001,30.17,1729472951560.0,0.0
-4.283153,-9.568897,4.335794,10.43,27.440001,8.54,1729472951580.0,0.0
-2.557927,-10.683953,5.898308,-2.94,41.299999,-3.92,1729472951600.0,0.0
-3.005385,-8.635696,6.853044,35.420002,53.41,-17.639999,1729472951622.0,0.0
-3.254239,-7.018148,8.023134,45.709999,41.16,-17.5,1729472951641.0,0.0
-3.120241,-6.74776,8.456236,35.349998,19.67,-23.1,1729472951660.0,0.0
-2.622534,-6.613762,7.936993,31.219999,0.42,-22.68,1729472951681.0,0.0
-2.091327,-6.367301,6.766902,34.23,-12.53,-23.799999,1729472951701.0,0.0
-1.519442,-5.422136,6.350551,42.84,-15.190001,-21.77,1729472951722.0,0.0
-1.828116,-4.007978,6.391229,53.619999,-11.13,-15.05,1729472951741.0,0.0
-2.62732,-2.526821,6.695118,50.68,-8.19,-4.76,1729472951760.0,0.0
-3.069991,-2.045863,7.128219,26.809999,-2.24,5.88,1729472951781.0,0.0
-3.529413,-1.643869,7.712067,-28.49,0.63,13.37,1729472951800.0,0.0
-4.510471,-3.393023,8.724231,-106.610001,-3.29,22.120001,1729472951822.0,0.0
-4.632504,-5.520242,8.77448,-188.860001,-17.92,19.6,1729472951840.0,0.0
-4.493721,-7.795816,8.224132,-236.529999,-31.57,17.5,1729472951860.0,0.0
-3.768696,-9.377472,5.240282,-251.300003,-43.540001,7.21,1729472951881.0,0.0
-4.036692,-9.243474,1.926222,-237.020004,-33.18,1.26,1729472951900.0,0.0
-3.696911,-10.033106,0.430708,-177.169998,-19.18,-1.96,1729472951922.0,0.0
-3.883551,-9.32483,3.244668,-86.239998,0.77,0.21,1729472951940.0,0.0
-4.510471,-8.535198,4.412365,13.65,15.190001,4.27,1729472951960.0,0.0
-3.634698,-8.516055,4.225725,18.41,5.67,1.05,1729472951980.0,0.0
-2.519642,-9.609575,1.655833,16.030001,1.75,-7.07,1729472952002.0,0.0
-2.167897,-9.391829,1.361516,53.970001,16.73,-1.33,1729472952023.0,0.0
-3.486342,-8.01117,1.89033,96.459999,35.630001,-1.68,1729472952041.0,0.0
-4.766503,-9.018548,3.486342,125.510002,46.200001,-3.92,1729472952064.0,0.0
-5.314459,-5.709275,8.73141,110.669998,39.48,-19.809999,1729472952085.0,0.0
-5.087141,-2.249253,7.867601,170.589996,22.049999,14.35,1729472952099.0,0.0
-4.900501,-3.108276,7.319644,172.970001,18.129999,24.290001,1729472952122.0,0.0
-3.976871,-5.718846,5.618347,30.52,-3.22,1.47,1729472952139.0,0.0
-3.692125,-9.480364,4.630112,-53.760002,-8.68,2.38,1729472952184.0,0.0
-2.632105,-10.372886,5.625526,-25.76,-1.61,-0.14,1729472952278.0,0.0
-2.646462,-8.216952,6.709475,41.509998,8.82,1.89,1729472952278.0,0.0
-2.921637,-6.740582,6.271588,63.77,3.01,-1.19,1729472952279.0,0.0
-2.754139,-6.233303,6.24766,50.610001,-0.77,-0.07,1729472952279.0,0.0
-3.407379,-6.685547,5.472386,31.5,-6.72,1.26,1729472952279.0,0.0
-3.926622,-8.157133,6.094519,68.040001,-7.7,-5.67,1729472952279.0,0.0
-3.74716,-6.946364,6.719046,99.540001,2.17,-13.51,1729472952300.0,0.0
-3.754339,-6.21416,7.051648,91.139999,-0.35,-20.02,1729472952322.0,0.0
-3.629912,-6.417551,7.089933,85.050003,-3.85,-23.73,1729472952340.0,0.0
-3.684947,-6.005985,7.259824,90.019997,-1.96,-28.0,1729472952361.0,0.0
-3.809374,-5.304887,7.77428,98.489998,-0.28,-30.24,1729472952379.0,0.0
-3.981657,-4.618148,8.322237,101.010002,-0.91,-29.75,1729472952406.0,0.0
-4.311867,-3.866802,8.324631,88.970001,-6.02,-26.460001,1729472952423.0,0.0
-4.634897,-3.57727,7.999206,75.529999,-9.1,-19.530001,1729472952440.0,0.0
-4.520042,-3.287738,7.910671,57.75,-7.63,-15.4,1729472952460.0,0.0
-4.668397,-2.916851,8.365308,28.0,-3.71,-11.34,1729472952480.0,0.0
-4.84068,-3.239882,9.162118,-17.43,-8.89,-8.33,1729472952500.0,0.0
-4.307081,-3.180061,9.229117,-64.540001,-16.1,-6.16,1729472952524.0,0.0
-4.26401,-2.201397,7.673782,-115.43,-12.32,0.35,1729472952540.0,0.0
-4.67079,-4.017549,5.970093,-166.529999,-20.09,1.75,1729472952560.0,0.0
-2.995814,-8.886944,3.952943,-193.970001,-32.619999,-10.01,1729472952581.0,0.0
-1.29691,-10.889735,4.342973,-125.160004,-19.040001,-21.42,1729472952601.0,0.0
-0.552742,-10.080962,4.867002,-34.720001,10.36,-27.02,1729472952623.0,0.0
-0.638884,-8.250452,5.726025,48.650002,34.439999,-27.860001,1729472952640.0,0.0
-0.476172,-7.441679,4.261617,82.25,41.09,-35.700001,1729472952660.0,0.0
0.212961,-8.336594,5.106283,105.629997,34.23,-43.889999,1729472952681.0,0.0
0.382852,-5.788238,6.242875,158.550003,53.34,-39.48,1729472952700.0,0.0
-0.519243,-2.163112,6.920043,179.550003,57.610001,-33.880001,1729472952722.0,0.0
-0.847059,-0.138784,6.419943,131.180008,42.77,-22.120001,1729472952742.0,0.0
-1.208375,-0.507278,6.211767,69.160004,29.540001,-7.91,1729472952762.0,0.0
-3.079563,-0.859023,7.649854,44.450001,31.360001,7.28,1729472952782.0,0.0
-5.699703,-2.287539,10.79163,49.630001,28.07,20.860001,1729472952802.0,0.0
-5.484349,-2.15354,11.174481,29.68,15.05,27.23,1729472952825.0,0.0
-4.412365,-2.947958,11.440084,1.96,-2.59,35.349998,1729472952841.0,0.0
-4.716253,-6.845865,9.21476,-27.65,-29.68,42.209999,1729472952862.0,0.0
-4.161119,-7.013363,7.508677,-60.48,-47.670002,21.84,1729472952882.0,0.0
-3.591627,-6.809973,8.374879,-31.710001,-34.790001,15.68,1729472952901.0,0.0
-3.902694,-6.001199,7.953743,-15.33,-24.780001,9.45,1729472952923.0,0.0
-4.067799,-6.592227,7.518249,-22.610001,-14.07,-1.4,1729472952942.0,0.0
-3.397808,-5.936593,7.592427,-27.860001,-0.56,-13.86,1729472952962.0,0.0
-3.622734,-4.0008,8.243275,-21.700001,11.06,-17.99,1729472952982.0,0.0
-4.189832,-3.512664,9.561719,-27.09,2.94,-8.47,1729472953002.0,0.0
-3.17049,-2.457429,9.047262,-57.119999,-3.15,-6.3,1729472953023.0,0.0
-2.507678,-4.201797,8.240881,-88.410004,-18.83,-1.26,1729472953042.0,0.0
-2.892922,-6.69751,6.848258,-116.900002,-18.620001,-4.13,1729472953061.0,0.0
-4.577469,-7.872386,8.169096,-115.290001,4.41,-22.049999,1729472953082.0,0.0
-4.85743,-6.556334,8.870193,-145.039993,24.5,-38.360001,1729472953101.0,0.0
-4.460221,-3.59402,11.062018,-205.240005,24.92,-41.23,1729472953129.0,0.0
-2.723032,-1.105484,8.62134,-247.869995,9.03,-36.119999,1729472953141.0,0.0
-0.42353,-0.591027,5.355137,-293.649994,-6.23,-17.08,1729472953161.0,0.0
0.100499,-2.596212,-0.533599,-351.679993,-4.27,15.4,1729472953182.0,0.0
-2.266003,-8.597411,-6.611369,-376.880005,21.139999,4.48,1729472953202.0,0.0
-5.402994,-13.923835,-9.224331,-277.829987,58.66,5.95,1729472953224.0,0.0
-6.506085,-18.486948,-8.26481,-80.5,38.709999,-2.66,1729472953242.0,0.0
-3.180061,-14.703895,-5.730811,165.059998,13.3,28.07,1729472953261.0,0.0
-1.37348,-8.432307,-3.050849,368.130005,53.830002,50.889999,1729472953282.0,0.0
-2.041078,-4.723432,0.811167,450.519989,80.290001,38.779999,1729472953302.0,0.0
-3.486342,-2.249253,7.305287,433.929993,48.02,26.18,1729472953326.0,0.0
-4.091727,0.212961,11.947363,355.459991,13.72,17.01,1729472953409.0,0.0
-6.108876,-1.495514,12.923635,229.880005,-3.43,38.5,1729472953410.0,0.0
-5.051248,-7.168896,8.913264,138.600006,-65.800003,20.16,1729472953410.0,0.0
-0.265603,-9.24108,6.228518,156.729996,-63.77,24.01,1729472953410.0,0.0
-1.079163,-4.718646,9.793823,195.300003,17.780001,28.35,1729472953425.0,0.0
-3.768696,0.174676,11.078769,111.440002,23.309999,14.49,1729472953441.0,0.0
-5.142176,-2.244468,10.102496,-12.32,-1.19,17.15,1729472953461.0,0.0
-4.62054,-3.773481,11.487941,-57.119999,-7.98,2.03,1729472953482.0,0.0
-3.909872,-3.761517,10.4016,-65.870003,-10.01,-0.28,1729472953501.0,0.0
-4.156333,-4.852644,5.020142,-92.330002,-7.0,-0.28,1729472953523.0,0.0
-6.458229,-10.145569,7.360322,-148.259995,11.13,-9.52,1729472953542.0,0.0
-5.635098,-7.953743,10.08814,-232.330002,16.379999,-46.060001,1729472953561.0,0.0
-3.974478,-3.680161,11.155338,-254.309998,0.84,-37.099998,1729472953582.0,0.0
-2.644069,-2.629712,9.343972,-251.440002,-17.360001,-17.43,1729472953601.0,0.0
-0.899701,-0.894916,2.151148,-283.709991,-33.599998,0.07,1729472953624.0,0.0
-1.904687,-2.218147,-3.778267,-332.779999,-25.41,18.200001,1729472953641.0,0.0
-4.125226,-7.920243,-6.396015,-351.610016,9.52,0.84,1729472953661.0,0.0
-6.333801,-13.904692,-10.992627,-297.920013,44.380001,-15.61,1729472953682.0,0.0
-8.408379,-20.583059,-9.74836,-105.980003,34.299999,-23.73,1729472953701.0,0.0
-2.945565,-16.201803,-7.992027,174.160004,-8.19,7.21,1729472953733.0,0.0
-0.318245,-7.893922,-5.525027,420.839996,58.73,44.029999,1729472953741.0,0.0
-1.464408,-3.266203,1.526621,570.780029,99.75,25.549999,1729472953761.0,0.0
-3.105884,3.321238,11.069198,559.299988,59.639999,-2.52,1729472953781.0,0.0
-6.719046,5.706882,15.881163,412.019989,40.740002,36.540001,1729472953802.0,0.0
-7.020542,-2.163112,12.076575,216.930008,-20.93,26.74,1729472953823.0,0.0
-0.803988,-3.838088,7.62114,97.790001,-66.57,17.639999,1729472953841.0,0.0
-0.433101,-3.806981,9.674182,85.260002,-12.95,40.740002,1729472953861.0,0.0
-4.721039,-4.345366,11.038091,35.700001,-9.45,32.759998,1729472953881.0,0.0
-4.106083,-4.601398,10.755738,-30.66,-13.72,17.15,1729472953901.0,0.0
-3.962514,-4.407579,11.887544,-87.849998,-16.66,-0.56,1729472953925.0,0.0
-4.122833,-3.885944,9.049655,-147.839996,-23.17,-11.06,1729472953941.0,0.0
-4.831109,-4.189832,5.108676,-229.25,-17.08,-21.35,1729472953961.0,0.0
-8.556733,-10.796415,8.310273,-219.660004,-9.03,-25.620001,1729472953981.0,0.0
-5.965307,-7.089933,9.305687,-241.639999,-11.41,-46.970001,1729472954001.0,0.0
-3.323631,-4.673182,8.587841,-221.339996,-4.27,-33.670002,1729472954024.0,0.0
-1.684547,-2.237289,5.938986,-235.830002,-14.98,-20.09,1729472954042.0,0.0
-1.143769,0.480957,0.562313,-288.190002,-22.469999,2.94,1729472954061.0,0.0
-3.316452,-1.004985,-3.61077,-343.279999,1.96,15.12,1729472954082.0,0.0
-4.61097,-6.374479,-7.223931,-365.959991,29.049999,-8.26,1729472954101.0,0.0
-5.4676,-13.617554,-11.416157,-333.059998,44.099998,-1.19,1729472954123.0,0.0
-6.192625,-19.661823,-12.23211,-168.910004,54.459999,1.4,1729472954141.0,0.0
-4.027121,-17.962919,-8.102098,114.800003,24.43,12.04,1729472954161.0,0.0
-1.402194,-10.336994,-4.790431,374.98999,7.35,31.01,1729472954181.0,0.0
-0.579063,-4.783253,1.667797,535.919983,38.639999,17.15,1729472954201.0,0.0
-3.347559,1.205983,10.932807,530.599976,40.32,14.28,1729472954223.0,0.0
-5.302495,3.67059,13.993226,435.26001,11.83,30.030001,1729472954240.0,0.0
-6.084948,-1.050449,12.528819,280.209991,-13.37,30.380001,1729472954262.0,0.0
-3.759124,-6.707082,11.41855,129.710007,-63.279999,10.92,1729472954281.0,0.0
-2.730211,-7.743174,10.392029,89.25,-31.15,5.53,1729472954301.0,0.0
-3.792624,-4.017549,9.911072,92.610001,-4.13,-10.71,1729472954326.0,0.0
-4.287938,-2.48375,11.193624,82.739998,-4.2,-14.98,1729472954341.0,0.0
-4.345366,-2.624927,10.963913,38.990002,-19.32,-13.23,1729472954361.0,0.0
-3.457629,-3.232704,10.767702,5.67,-24.639999,-12.11,1729472954381.0,0.0
-2.617748,-3.136991,8.532805,-42.07,-29.889999,-10.43,1729472954401.0,0.0
-2.684747,-3.902694,5.656632,-129.220001,-28.98,-13.09,1729472954422.0,0.0
-4.790431,-4.898108,4.811966,-217.279999,-11.48,-21.84,1729472954449.0,0.0
-5.405386,-6.068198,6.690332,-236.040009,-1.96,-35.139999,1729472954460.0,0.0
-4.85743,-5.261817,8.322237,-256.200012,-24.01,-19.18,1729472954481.0,0.0
-2.806781,-5.249853,6.585048,-250.600006,-38.5,-10.78,1729472954503.0,0.0
-1.064806,-2.337788,3.596412,-259.140015,-26.460001,1.19,1729472954523.0,0.0
-3.751946,-2.801995,-1.038485,-327.390015,-6.51,29.4,1729472954541.0,0.0
-6.474977,-10.114462,-5.07757,-375.269989,10.08,1.54,1729472954561.0,0.0
-6.252446,-16.878971,-7.946564,-327.390015,2.94,-9.66,1729472954581.0,0.0
-4.058227,-19.695322,-7.996813,-123.480003,-18.27,-8.96,1729472954602.0,0.0
-2.316252,-16.953148,-6.271588,143.990005,-11.76,-23.24,1729472954624.0,0.0
-0.930808,-10.238889,-4.141976,360.079987,10.99,-21.91,1729472954641.0,0.0
-0.184247,-4.127619,-1.792224,487.130005,48.580002,-11.34,1729472954662.0,0.0
-1.225125,0.727418,4.555934,514.780029,67.129997,8.61,1729472954683.0,0.0
-2.313859,4.130012,9.738789,433.160004,52.920002,7.56,1729472954702.0,0.0
-3.194418,2.419144,11.107484,251.089996,39.970001,-6.3,1729472954727.0,0.0
-4.177868,-3.345166,9.449257,108.919998,1.75,-2.87,1729472955087.0,0.0
-2.074577,-4.74736,8.831908,129.220001,-8.61,27.65,1729472955088.0,0.0
-2.371287,-1.335195,10.762917,176.75,43.049999,42.209999,1729472955089.0,0.0
-4.436293,-0.394816,12.686745,121.169998,37.939999,41.860001,1729472955090.0,0.0
-5.199604,-5.259424,13.749159,-2.94,6.65,38.920002,1729472955102.0,0.0
-4.096512,-6.168696,12.208181,-117.949997,-20.09,14.7,1729472955104.0,0.0
-3.806981,-6.087341,6.80758,-209.440002,-27.440001,-7.07,1729472955105.0,0.0
-8.295916,-8.475377,7.068398,-290.920013,-21.07,-32.970001,1729472955106.0,0.0
-5.948557,-7.606783,6.819544,-302.959991,-33.670002,-57.889999,1729472955107.0,0.0
-4.505685,-5.424529,9.351151,-277.76001,-30.870001,-24.85,1729472955107.0,0.0
-1.634298,-2.825923,4.551149,-232.610001,-23.030001,-12.04,1729472955108.0,0.0
-1.356731,-1.658226,3.830909,-245.910004,-9.59,7.56,1729472955110.0,0.0
-2.959922,-0.509671,-0.725025,-324.450012,-15.82,19.040001,1729472955111.0,0.0
-5.17089,-3.988836,-4.503292,-391.860016,15.61,4.27,1729472955111.0,0.0
-5.783452,-11.045268,-7.970492,-392.700012,21.91,4.34,1729472955151.0,0.0
-4.979464,-17.560926,-9.468399,-259.48999,13.72,9.94,1729472955151.0,0.0
-4.063013,-19.463219,-9.245867,-15.54,14.35,7.0,1729472955152.0,0.0
-1.871187,-14.902499,-6.953543,229.389999,12.25,-4.06,1729472955152.0,0.0
-0.964308,-8.556733,-4.208975,409.709991,39.060001,9.66,1729472955152.0,0.0
-1.51705,-3.818945,-1.040878,512.470032,83.860001,17.92,1729472955152.0,0.0
-2.782853,1.706082,3.78066,543.409973,93.870003,21.42,1729472955153.0,0.0
-5.84088,6.388836,15.663417,485.450012,85.610001,34.509998,1729472955171.0,0.0
-8.171489,-0.184247,15.943377,165.130005,12.6,26.040001,1729472955194.0,0.0
-4.63729,-7.606783,10.928021,81.620003,-95.970001,17.99,1729472955203.0,0.0
-1.172483,-8.152347,8.149954,159.389999,-44.939999,52.57,1729472955228.0,0.0
-3.15374,-5.111069,9.006584,236.040009,-12.6,57.959999,1729472955242.0,0.0
-4.41715,-4.249653,9.872787,179.130005,-23.73,44.099998,1729472955272.0,0.0
-3.108276,-5.20439,9.442079,109.900002,-22.889999,29.68,1729472955282.0,0.0
-3.06042,-4.326223,9.300901,50.049999,-18.549999,12.88,1729472955309.0,0.0
-3.517449,-2.959922,10.499706,-19.110001,-11.13,-3.43,1729472955325.0,0.0
-3.555735,-2.825923,10.207782,-101.639999,-15.26,-14.14,1729472955373.0,0.0
-3.426522,-2.105684,7.255038,-163.940002,-19.110001,-15.68,1729472955376.0,0.0
-4.869394,-1.895115,5.589634,-222.949997,-11.41,-15.61,1729472955381.0,0.0
-7.606783,-4.534399,7.846066,-253.259995,0.7,-21.35,1729472955406.0,0.0
-5.733203,-2.837888,8.9348,-296.940002,-7.7,-28.280001,1729472955428.0,0.0
-3.778267,-3.101098,8.073383,-330.890015,-22.889999,-14.91,1729472955441.0,0.0
-2.15354,-3.931407,3.443272,-347.829987,-37.799999,-8.68,1729472955461.0,0.0
-1.804188,-6.096912,-0.985843,-323.679993,-20.09,9.94,1729472955481.0,0.0
-3.52702,-10.760524,-2.026721,-290.220001,1.82,10.01,1729472955502.0,0.0
-4.867002,-10.145569,-2.500499,-258.369995,35.490002,19.460001,1729472955524.0,0.0
-5.448457,-9.911072,-2.443072,-187.180008,54.32,26.74,1729472955542.0,0.0
-4.898108,-11.533404,-2.928815,-117.739998,37.029999,24.43,1729472955566.0,0.0
-5.04407,-15.613168,-5.716454,-46.060001,45.009998,10.01,1729472955658.0,0.0
-6.474977,-23.751158,-9.51147,143.149994,35.91,-22.540001,1729472955693.0,0.0
-3.57727,-22.573889,-12.507284,541.659973,-49.349998,-45.57,1729472955694.0,0.0
0.122034,4.768896,-9.872787,896.559998,67.410004,-34.09,1729472955694.0,0.0
-5.020142,19.436897,3.814159,1163.959961,164.080002,22.33,1729472955694.0,0.0
-7.628319,26.122444,13.641481,594.02002,66.5,48.09,1729472955695.0,0.0
-2.005185,8.370094,16.673187,81.199997,-59.639999,-32.830002,1729472955701.0,0.0
-3.723232,-4.345366,9.990034,-136.080002,-69.580002,67.620003,1729472955722.0,0.0
-1.89033,-8.513663,5.9677,-116.059998,-53.830002,70.0,1729472955755.0,0.0
-1.215554,-6.62094,7.664211,-95.410004,-5.53,33.040001,1729472955763.0,0.0
-3.550949,-7.396214,9.284152,-82.599998,7.7,14.84,1729472955782.0,0.0
-3.775874,-6.419943,10.595419,-57.540001,21.42,-3.85,1729472955803.0,0.0
-5.290531,-2.617748,12.016755,-97.860001,34.02,-15.05,1729472955826.0,0.0
-7.879565,-2.328217,12.311072,-312.059998,10.08,-37.73,1729472955842.0,0.0
-8.910872,-3.376273,10.944772,-436.170013,-33.950001,-59.639999,1729472955861.0,0.0
-6.032306,-4.74736,11.913863,-458.080017,-90.860001,-62.720001,1729472955881.0,0.0
-1.85683,-2.031506,6.647261,-381.290009,-108.290001,-29.889999,1729472955901.0,0.0
-1.667797,-2.672783,-1.598405,-252.979996,-66.010002,3.57,1729472955923.0,0.0
-3.675375,-7.477571,-5.4341,-262.149994,-54.740002,-17.85,1729472955941.0,0.0
-2.952743,-4.563113,-5.685347,-334.459991,-45.57,-14.91,1729472955962.0,0.0
-1.732404,-7.235896,-4.898108,-319.899994,4.06,11.9,1729472955981.0,0.0
-2.591427,-9.49472,-3.936193,-275.100006,22.4,29.26,1729472956002.0,0.0
-4.252046,-10.269995,-2.768496,-180.389999,49.84,53.689999,1729472956023.0,0.0
-3.634698,-10.382458,-2.706282,-96.389999,37.170002,62.16,1729472956042.0,0.0
-4.436293,-10.423136,-2.667997,-32.970001,27.51,55.23,1729472956062.0,0.0
-4.778467,-10.604989,-2.048256,31.360001,15.47,47.18,1729472956083.0,0.0
-4.850252,-9.257831,-0.727418,89.879997,-0.77,38.639999,1729472956101.0,0.0
