acc_x,acc_y,acc_z,gyr_x,gyr_y,gyr_z,timestamp,label
-0.105284,-6.879365,-8.238488,-25.76,46.549999,17.710001,1729475917978.0,0.0
-0.059821,-6.960721,-7.913064,-17.92,48.369999,10.5,1729475917981.0,0.0
-0.184247,-6.640083,-7.843673,-1.33,49.279999,1.61,1729475917987.0,0.0
-0.131605,-6.235696,-8.078169,10.22,43.259998,-7.35,1729475917988.0,0.0
0.177069,-5.991628,-7.996813,15.190001,35.91,-12.67,1729475918005.0,0.0
0.461815,-6.190232,-7.444071,11.55,33.32,-16.59,1729475918024.0,0.0
0.421137,-6.805188,-6.719046,5.95,38.5,-20.790001,1729475918045.0,0.0
-0.055035,-7.223931,-6.549156,11.55,36.75,-26.460001,1729475918066.0,0.0
-0.40678,-6.979864,-7.542177,20.58,25.129999,-35.0,1729475918086.0,0.0
-0.624527,-6.051448,-7.298109,16.309999,21.98,-39.759998,1729475918105.0,0.0
-1.251446,-5.740381,-6.534799,-21.139999,23.940001,-43.889999,1729475918124.0,0.0
-1.445265,-6.518049,-7.719246,-104.510002,16.66,-47.880001,1729475918144.0,0.0
-0.859023,-6.616155,-8.367701,-108.360001,2.52,-48.720001,1729475918164.0,0.0
-0.629312,-5.991628,-8.166703,-76.300003,7.63,-48.23,1729475918184.0,0.0
-1.107877,-5.417351,-7.441679,-39.689999,13.16,-42.700001,1729475918204.0,0.0
-1.622334,-5.283352,-7.310073,-26.950001,16.030001,-37.099998,1729475918224.0,0.0
-1.426122,-5.565705,-7.453642,-36.049999,6.44,-33.670002,1729475918244.0,0.0
-1.26341,-5.199604,-7.446464,-44.029999,2.73,-32.41,1729475918264.0,0.0
-1.564906,-4.934,-7.599605,-37.099998,2.8,-31.15,1729475918284.0,0.0
-1.445265,-4.969893,-7.343572,-24.57,-4.06,-29.049999,1729475918305.0,0.0
-1.665405,-5.321638,-7.707282,-14.77,-9.66,-24.710001,1729475918324.0,0.0
-2.057827,-4.95075,-8.171489,-11.83,-10.15,-22.960001,1729475918344.0,0.0
-2.316252,-3.862016,-8.4012,-27.02,-12.11,-23.799999,1729475918365.0,0.0
-2.486143,-3.826123,-8.614161,-65.940002,-13.09,-23.450001,1729475918385.0,0.0
-2.189433,-4.613362,-9.040084,-94.080002,-18.200001,-20.440001,1729475918404.0,0.0
-1.732404,-4.919643,-9.265009,-81.690002,-16.379999,-17.219999,1729475918431.0,0.0
-1.607977,-4.359723,-9.700503,-39.549999,-9.66,-13.58,1729475918444.0,0.0
-1.718047,-4.402793,-8.319844,-1.68,-6.37,-6.37,1729475918466.0,0.0
-1.785046,-4.173083,-8.427521,9.59,-12.11,-7.42,1729475918486.0,0.0
-1.806581,-4.26401,-9.028119,-4.97,-14.28,-7.77,1729475918505.0,0.0
-1.275374,-5.144568,-9.310472,-10.57,-19.32,-8.33,1729475918524.0,0.0
-0.665205,-5.178068,-9.444471,-4.62,-16.66,-11.97,1729475918545.0,0.0
-0.70349,-4.316652,-9.181261,7.77,-7.91,-11.06,1729475918564.0,0.0
-0.708275,-4.06062,-9.238688,10.78,-6.86,-8.82,1729475918585.0,0.0
-0.382852,-4.12044,-9.166903,7.63,-10.43,-7.35,1729475918607.0,0.0
-0.413958,-4.197011,-9.147761,15.05,-8.89,-5.04,1729475918625.0,0.0
-0.57667,-4.091727,-8.882158,25.83,-8.82,-4.34,1729475918645.0,0.0
-0.770489,-3.766303,-9.056834,25.620001,-11.27,-4.34,1729475918665.0,0.0
-0.837488,-3.792624,-9.535398,9.59,-15.190001,-5.81,1729475918687.0,0.0
-0.760918,-3.9673,-9.633504,-7.0,-15.61,-6.09,1729475918708.0,0.0
-1.009771,-4.084548,-9.480364,-14.28,-11.69,-6.58,1729475918727.0,0.0
-1.502693,-4.393222,-9.458827,-10.15,-6.93,-6.79,1729475918743.0,0.0
-1.588834,-4.414758,-9.303294,2.03,-7.07,-7.35,1729475918764.0,0.0
-1.631905,-4.09412,-9.286544,13.86,-3.99,-5.95,1729475918789.0,0.0
-2.029114,-4.21376,-9.08794,10.36,0.56,-5.11,1729475918808.0,0.0
-2.222932,-4.735396,-8.396415,9.45,1.89,-2.87,1729475918827.0,0.0
-2.129612,-4.709075,-8.793623,12.32,-2.59,-3.43,1729475918848.0,0.0
-1.794617,-4.790431,-9.10469,17.360001,-5.53,-3.22,1729475918868.0,0.0
-1.818545,-4.589434,-8.879765,23.52,0.35,-1.19,1729475918889.0,0.0
-2.024328,-4.462614,-8.678767,23.17,4.06,-1.19,1729475918907.0,0.0
-1.722832,-4.831109,-8.563912,19.110001,-0.63,0.42,1729475918926.0,0.0
-1.473979,-5.216353,-8.626125,18.549999,-4.27,0.7,1729475918946.0,0.0
-1.529014,-4.843073,-9.083155,17.360001,-3.29,-1.89,1729475918969.0,0.0
-1.481157,-4.261617,-8.941978,19.18,0.7,-2.1,1729475918987.0,0.0
-1.251446,-4.187439,-8.908479,17.780001,-2.1,-0.98,1729475919008.0,0.0
-1.304088,-4.725825,-8.805587,13.65,-2.03,0.63,1729475919026.0,0.0
-1.89033,-5.120641,-8.453842,9.87,4.41,0.77,1729475919048.0,0.0
-1.969293,-5.089533,-8.207381,8.47,6.37,-1.89,1729475919067.0,0.0
-1.196411,-4.63729,-8.568698,6.93,-14.98,-8.96,1729475919089.0,0.0
-1.17009,-4.500899,-8.953942,1.4,-16.17,-11.2,1729475919107.0,0.0
-1.942972,-4.402793,-9.21476,-6.02,-7.98,-13.16,1729475919126.0,0.0
-2.67039,-4.362115,-8.532805,-8.89,0.91,-12.39,1729475919151.0,0.0
-2.586641,-4.503292,-8.271988,-7.42,-6.72,-13.37,1729475919166.0,0.0
-1.899901,-4.527221,-8.714661,-0.49,-20.860001,-12.81,1729475919186.0,0.0
-1.646262,-4.046263,-9.437292,5.32,-21.84,-13.86,1729475919208.0,0.0
-2.129612,-3.369094,-8.894121,-0.42,-10.15,-14.21,1729475919225.0,0.0
-2.531606,-3.29731,-8.336594,-16.1,-8.47,-12.67,1729475919249.0,0.0
-2.038685,-3.830909,-8.207381,-31.08,-22.049999,-10.64,1729475919267.0,0.0
-1.20359,-4.465007,-8.506484,-39.41,-34.369999,-9.24,1729475919286.0,0.0
-0.952343,-4.761717,-9.044869,-33.110001,-32.619999,-9.24,1729475919306.0,0.0
-1.323231,-4.39083,-9.140583,-22.26,-27.370001,-10.43,1729475919328.0,0.0
-1.603191,-3.830909,-8.707481,-18.76,-26.32,-10.43,1729475919345.0,0.0
-1.416551,-4.21376,-8.628519,-27.440001,-31.780001,-10.01,1729475919367.0,0.0
-0.543171,-4.677969,-8.949157,-42.349998,-41.439999,-13.16,1729475919388.0,0.0
0.047856,-4.876573,-9.595219,-44.099998,-43.610001,-14.77,1729475919406.0,0.0
-0.27996,-4.625326,-9.367901,-27.65,-26.530001,-19.879999,1729475919425.0,0.0
-0.856631,-4.48415,-8.9683,-14.14,-22.049999,-20.23,1729475919447.0,0.0
-1.069592,-4.089334,-9.023334,-11.2,-20.58,-20.790001,1729475919467.0,0.0
-0.835095,-3.414558,-9.513863,-21.629999,-25.41,-18.83,1729475919488.0,0.0
-0.564706,-3.091527,-9.403792,-39.759998,-24.43,-14.07,1729475919507.0,0.0
-0.68674,-3.486342,-9.403792,-60.689999,-17.360001,-11.97,1729475919526.0,0.0
-0.710668,-4.237689,-9.327222,-68.040001,-9.8,-11.06,1729475919545.0,0.0
-0.66999,-4.917251,-9.817751,-38.57,-4.34,-9.73,1729475919567.0,0.0
-0.488136,-4.852644,-10.13839,11.13,-0.63,-7.63,1729475919586.0,0.0
-0.698704,-4.070191,-9.049655,36.889999,11.48,-7.35,1729475919606.0,0.0
-1.057628,-3.672983,-9.049655,18.969999,15.89,-9.73,1729475919628.0,0.0
-1.103091,-3.833302,-9.071191,-17.219999,13.79,-11.62,1729475919646.0,0.0
-1.007378,-4.319045,-9.207582,-36.82,10.29,-11.34,1729475919668.0,0.0
-1.122234,-4.649254,-9.501899,-35.700001,6.44,-10.43,1729475919687.0,0.0
-1.399801,-4.17069,-9.482756,-34.09,5.25,-11.34,1729475919708.0,0.0
-1.806581,-3.78066,-9.458827,-56.560001,3.78,-14.49,1729475919728.0,0.0
-1.028914,-3.845266,-10.028319,-76.790001,-7.14,-19.460001,1729475919745.0,0.0
-0.61017,-3.706482,-10.528419,-36.330002,-9.17,-18.620001,1729475919766.0,0.0
-0.748954,-2.916851,-10.894521,9.31,-3.99,-14.0,1729475919787.0,0.0
-0.830309,-1.830509,-10.643275,24.290001,1.26,-9.17,1729475919807.0,0.0
-0.62692,-0.98345,-10.526026,4.69,2.24,-4.06,1729475919825.0,0.0
-0.11007,-0.882952,-10.688738,-25.76,-0.49,0.42,1729475919846.0,0.0
0.217747,-2.352145,-10.904092,-34.93,3.78,7.35,1729475919867.0,0.0
0.227318,-1.811367,-12.397215,-27.23,11.06,5.88,1729475919885.0,0.0
0.42353,-1.741975,-10.719845,33.040001,22.68,14.49,1729475919907.0,0.0
-0.289532,-0.701097,-10.552348,34.720001,36.540001,7.98,1729475919925.0,0.0
-1.100698,-2.146362,-9.994821,8.33,32.34,0.35,1729475919945.0,0.0
-1.165305,-2.818745,-10.983055,-10.08,24.43,-16.870001,1729475919965.0,0.0
-0.646062,-2.63689,-9.894321,5.46,24.219999,-28.139999,1729475919986.0,0.0
-0.519243,-1.423729,-9.190832,23.52,26.25,-35.279999,1729475920005.0,0.0
-0.29671,-1.055235,-10.217353,14.84,25.690001,-41.16,1729475920025.0,0.0
0.37328,-0.579063,-8.843873,14.77,20.860001,-39.970001,1729475920045.0,0.0
-0.658026,3.311667,-6.750153,7.35,29.68,-30.030001,1729475920066.0,0.0
0.212961,3.881158,-5.424529,-20.51,-7.14,9.03,1729475920087.0,0.0
1.014557,1.39023,-6.625726,-28.07,-18.059999,38.080002,1729475920107.0,0.0
1.335195,-1.48355,-11.935399,-57.189999,-44.240002,46.41,1729475920125.0,0.0
-0.325424,-1.347159,-14.352149,-97.790001,-15.33,32.060001,1729475920145.0,0.0
-2.488536,-0.181855,-18.056238,-107.239998,24.43,28.0,1729475920166.0,0.0
-1.830509,-1.978864,-12.378072,-40.880001,17.710001,37.59,1729475920187.0,0.0
-2.021935,-7.133004,-8.745767,1.19,28.42,35.630001,1729475920206.0,0.0
-2.285146,-7.953743,-11.124231,16.73,20.299999,-2.1,1729475920225.0,0.0
-2.261217,-4.24726,-11.444871,101.220001,16.030001,-22.75,1729475920245.0,0.0
-2.201397,-1.899901,-9.729217,108.220001,24.290001,-31.01,1729475920265.0,0.0
-1.897508,-1.672583,-7.264609,44.939999,19.6,-39.41,1729475920287.0,0.0
-1.165305,-2.380858,-8.602197,2.59,-0.35,-38.709999,1729475920307.0,0.0
0.519243,2.751746,-7.755138,-10.36,-4.41,-37.869999,1729475920326.0,0.0
0.148355,5.029713,-5.986843,9.24,-6.72,7.28,1729475920346.0,0.0
-0.605384,1.091127,-6.427122,9.24,-20.09,44.380001,1729475920365.0,0.0
-0.045464,-0.583849,-8.350951,-71.470001,-34.580002,42.560001,1729475920386.0,0.0
0.803988,-0.533599,-13.107882,-94.150002,-57.260002,41.23,1729475920406.0,0.0
-2.294717,-1.232304,-13.464413,-77.489998,-6.72,42.98,1729475920425.0,0.0
-4.297509,-2.823531,-14.160725,-25.200001,7.42,50.82,1729475920445.0,0.0
-3.270989,-5.032106,-9.901501,-16.450001,1.47,40.32,1729475920473.0,0.0
-0.854238,-5.974878,-11.751152,-3.5,-9.17,24.08,1729475920487.0,0.0
-0.361316,-4.919643,-11.686546,52.990002,2.24,7.07,1729475920506.0,0.0
-2.132005,-3.605984,-11.236694,80.360001,33.18,-7.21,1729475920526.0,0.0
-1.904687,-3.768696,-6.565905,66.360001,22.889999,-27.16,1729475920545.0,0.0
-1.469193,-3.694518,-7.427321,57.470001,4.62,-38.5,1729475920567.0,0.0
-1.143769,-0.09332,-8.683553,22.540001,0.98,-56.07,1729475920588.0,0.0
-1.122234,3.498307,-7.049256,0.84,-3.15,-44.869999,1729475920606.0,0.0
-1.629512,5.429315,-5.972485,6.23,-5.6,4.48,1729475920626.0,0.0
-0.251246,0.739382,-8.338986,-17.219999,-49.630001,32.200001,1729475920647.0,0.0
1.588834,-0.12682,-10.066606,-89.459999,-61.599998,29.120001,1729475920666.0,0.0
0.5001,-0.277567,-12.25843,-83.019997,-46.27,34.790001,1729475920687.0,0.0
-3.991228,-2.311467,-15.275781,-74.269997,-8.19,41.09,1729475920709.0,0.0
-3.706482,-3.680161,-11.274981,-19.18,16.309999,37.380001,1729475920726.0,0.0
-2.397608,-7.209574,-8.616554,6.16,2.38,34.509998,1729475920748.0,0.0
-1.18684,-7.49432,-12.315859,63.630001,-4.97,13.37,1729475920768.0,0.0
-2.266003,-4.704289,-12.423534,119.419998,26.389999,-6.44,1729475920789.0,0.0
-2.962314,-2.57707,-8.260024,90.019997,43.330002,-21.559999,1729475920807.0,0.0
-1.854438,-4.180261,-8.080563,52.080002,12.81,-41.16,1729475920827.0,0.0
-1.643869,-2.565106,-6.649654,42.98,8.89,-54.950001,1729475920846.0,0.0
-2.213361,0.995414,-6.642475,17.219999,8.89,-59.920002,1729475920867.0,0.0
-1.37348,6.348158,-7.499106,4.34,-4.06,-34.439999,1729475920889.0,0.0
-0.713061,2.969493,-7.245467,24.57,-24.360001,20.440001,1729475920908.0,0.0
0.76331,-0.648455,-10.375278,-61.670002,-53.619999,19.809999,1729475920928.0,0.0
0.921237,-0.141177,-11.904292,-97.160004,-34.93,19.67,1729475920948.0,0.0
-2.469393,-2.108077,-12.937992,-67.480003,-7.0,26.74,1729475920968.0,0.0
-4.596612,-2.809174,-13.177275,-26.67,9.38,30.59,1729475920990.0,0.0
-3.345166,-6.104091,-9.176475,17.219999,1.4,26.880001,1729475921008.0,0.0
-1.588834,-6.704689,-11.32523,68.110001,-2.59,22.610001,1729475921028.0,0.0
-1.615155,-3.957729,-10.447062,77.769997,21.0,3.43,1729475921048.0,0.0
-2.414358,-5.063213,-9.413363,38.220001,25.83,-10.99,1729475921068.0,0.0
-1.143769,-3.9338,-8.303094,1.12,11.9,-39.970001,1729475921089.0,0.0
-1.289732,-4.627719,-6.285945,14.84,0.77,-49.490002,1729475921109.0,0.0
-1.701297,-0.832702,-8.62134,12.11,5.04,-66.5,1729475921128.0,0.0
-1.330409,3.845266,-6.376873,11.76,-1.96,-52.43,1729475921147.0,0.0
-1.447658,5.522634,-6.597012,-6.86,-9.59,-6.93,1729475921169.0,0.0
-0.366102,0.200997,-9.135797,-58.52,-50.259998,12.25,1729475921192.0,0.0
0.708275,-0.569492,-11.710474,-88.480003,-46.619999,15.47,1729475921209.0,0.0
-0.600598,-1.272982,-10.975878,-34.369999,-31.5,25.620001,1729475921227.0,0.0
-4.132405,-2.17029,-13.940585,-21.42,15.82,35.84,1729475921249.0,0.0
-4.307081,-1.57687,-12.969098,-11.41,10.22,43.470001,1729475921268.0,0.0
-2.541178,-5.130211,-10.344172,-19.460001,-4.2,45.009998,1729475921290.0,0.0
-1.234696,-7.523034,-12.722638,19.389999,0.28,43.470001,1729475921310.0,0.0
-1.837688,-4.201797,-9.363115,49.91,28.49,16.379999,1729475921328.0,0.0
-2.105684,-5.702096,-8.812766,23.450001,26.25,-20.51,1729475921350.0,0.0
-1.445265,-3.842873,-8.317451,14.42,20.58,-51.029999,1729475921367.0,0.0
-1.787439,-2.684747,-5.936593,29.190001,6.65,-65.519997,1729475921388.0,0.0
-2.194218,0.133998,-7.881958,26.110001,7.56,-70.559998,1729475921409.0,0.0
-0.782453,6.132804,-7.118648,6.37,-3.71,-52.920002,1729475921428.0,0.0
-0.55992,2.864209,-7.642675,16.379999,-19.110001,6.44,1729475921446.0,0.0
0.212961,-0.485743,-9.643075,-49.0,-40.599998,15.4,1729475921467.0,0.0
-0.452243,-0.337388,-12.12204,-81.480003,-27.93,18.969999,1729475921492.0,0.0
-2.952743,-2.165504,-11.466407,-52.5,-12.88,28.280001,1729475921508.0,0.0
-5.371887,-3.744767,-10.968699,-3.36,14.7,39.41,1729475921528.0,0.0
-4.800002,-4.596612,-10.140782,13.79,9.24,40.18,1729475921549.0,0.0
-1.976472,-6.113662,-11.018949,15.05,-11.13,30.52,1729475921567.0,0.0
0.038285,-6.223732,-11.672189,30.24,-10.15,14.84,1729475921590.0,0.0
-0.327817,-5.034499,-10.212566,39.48,19.389999,-10.01,1729475921610.0,0.0
-1.777867,-5.335995,-11.030912,70.489998,24.290001,-27.58,1729475921627.0,0.0
-1.691726,-1.5003,-7.255038,65.800003,28.630001,-53.900002,1729475921649.0,0.0
-2.510071,-1.177269,-6.482157,17.08,12.74,-69.440002,1729475921668.0,0.0
-1.842474,3.165704,-5.977271,-62.439999,-2.31,-60.130001,1729475921689.0,0.0
-0.926022,2.435893,-7.24786,-55.790001,-26.460001,-28.139999,1729475921710.0,0.0
-0.411566,0.674776,-9.293723,-35.07,-34.580002,9.1,1729475921726.0,0.0
0.062213,0.303888,-13.28495,-6.79,-44.799999,29.469999,1729475921746.0,0.0
-0.89013,0.509671,-12.854243,-15.75,-23.870001,39.759998,1729475921768.0,0.0
-3.460021,-0.885344,-12.447463,-17.780001,17.710001,52.080002,1729475921789.0,0.0
-4.096512,-2.392823,-12.026326,-5.88,21.98,55.790001,1729475921808.0,0.0
-2.888137,-6.295516,-8.642875,17.710001,2.73,49.630001,1729475921827.0,0.0
-1.397408,-7.094719,-12.047862,54.459999,1.89,34.720001,1729475921847.0,0.0
-1.081556,-4.089334,-10.128819,36.82,24.99,1.82,1729475921868.0,0.0
-1.65344,-5.163712,-10.171888,-2.24,26.950001,-17.99,1729475921890.0,0.0
-1.840081,-6.4678,-7.398607,10.36,22.26,-44.66,1729475921909.0,0.0
-1.588834,-3.443272,-8.30788,46.549999,13.58,-64.610001,1729475921927.0,0.0
-1.923829,-0.052642,-6.893722,30.799999,10.22,-72.730003,1729475921947.0,0.0
-1.852045,3.120241,-8.02792,-22.68,-1.26,-63.98,1729475921968.0,0.0
-1.234696,3.598805,-7.310073,-26.389999,-10.78,-17.57,1729475921989.0,0.0
-0.351745,-0.095713,-11.006985,-40.529999,-38.779999,23.379999,1729475922008.0,0.0
-0.729811,-0.052642,-12.916457,-36.610001,-30.450001,34.509998,1729475922028.0,0.0
-2.438286,-2.342573,-11.626726,-36.259998,-9.45,37.310001,1729475922046.0,0.0
-3.34038,-3.04367,-12.507284,-14.91,8.12,39.130001,1729475922070.0,0.0
-2.179861,-1.914258,-13.363914,4.83,13.65,37.380001,1729475922088.0,0.0
-1.363909,-4.639683,-9.805787,14.7,16.17,38.849998,1729475922108.0,0.0
-0.894916,-7.793423,-10.703095,36.82,17.92,27.09,1729475922127.0,0.0
-0.87338,-6.068198,-8.980263,39.549999,29.049999,-4.9,1729475922148.0,0.0
-1.438086,-4.82393,-9.339187,36.75,28.35,-28.280001,1729475922166.0,0.0
-2.309074,-4.991428,-8.405986,33.740002,24.639999,-50.330002,1729475922188.0,0.0
-2.024328,-1.414158,-7.556533,19.389999,14.91,-68.739998,1729475922207.0,0.0
-2.009971,0.26321,-6.015556,1.33,-1.61,-64.400002,1729475922226.0,0.0
-1.931008,4.278367,-6.867401,-44.939999,-5.53,-42.91,1729475922248.0,0.0
-1.682154,1.383051,-8.645268,-56.07,-27.23,-6.65,1729475922267.0,0.0
-0.741775,-0.265603,-10.49492,-30.450001,-40.670002,16.030001,1729475922290.0,0.0
-0.839881,-0.251246,-12.067005,23.1,-33.810001,30.870001,1729475922307.0,0.0
-3.065206,0.222532,-13.636696,3.71,-11.62,33.740002,1729475922327.0,0.0
-2.959922,0.507278,-12.875778,-31.219999,-0.42,45.5,1729475922347.0,0.0
-1.931008,-3.148954,-9.846465,-31.360001,2.73,53.549999,1729475922366.0,0.0
-1.423729,-7.556533,-10.246067,2.87,11.48,53.549999,1729475922391.0,0.0
-1.234696,-6.76451,-11.4018,43.540001,10.22,31.01,1729475922408.0,0.0
-1.751546,-3.835695,-9.370294,17.710001,35.630001,-0.56,1729475922427.0,0.0
-1.739582,-5.580062,-9.650253,-21.35,19.6,-23.940001,1729475922447.0,0.0
-1.792224,-5.575277,-6.431907,-15.4,17.780001,-52.009998,1729475922468.0,0.0
-2.036292,-3.299703,-7.369894,29.190001,6.51,-63.209999,1729475922487.0,0.0
-2.727818,-0.98345,-6.9344,19.389999,6.79,-70.910004,1729475922514.0,0.0
-2.062613,5.465207,-6.446264,-21.77,-6.93,-58.59,1729475922527.0,0.0
-1.071985,3.29731,-7.771888,-11.2,-28.49,-10.15,1729475922546.0,0.0
-0.179462,1.344766,-9.729217,-22.33,-49.420002,20.93,1729475922569.0,0.0
-0.535992,-0.205783,-10.597812,-3.5,-43.75,40.18,1729475922587.0,0.0
-1.816152,-0.229711,-11.016556,-13.93,-30.66,42.490002,1729475922608.0,0.0
-3.160919,-0.674776,-14.797215,-39.200001,-10.99,41.369999,1729475922628.0,0.0
-1.777867,-3.349952,-12.507284,-26.25,6.86,41.650002,1729475922647.0,0.0
-0.770489,-7.37468,-10.875379,18.34,4.97,39.759998,1729475922668.0,0.0
-0.904487,-7.453642,-11.217552,50.75,22.190001,12.67,1729475922690.0,0.0
-1.471586,-4.146761,-9.597611,40.32,38.080002,-18.200001,1729475922711.0,0.0
-2.167897,-5.795416,-9.253045,39.689999,30.030001,-35.349998,1729475922728.0,0.0
-2.194218,-3.050849,-6.860222,39.900002,27.51,-58.450001,1729475922749.0,0.0
-2.498107,-1.146162,-7.57089,38.990002,14.35,-56.420002,1729475922770.0,0.0
-2.421536,0.114855,-6.51087,16.379999,7.7,-56.0,1729475922790.0,0.0
-1.768296,4.503292,-7.484749,-33.32,-2.59,-33.529999,1729475922809.0,0.0
-1.043271,0.842274,-8.561519,-46.970001,-26.25,-5.67,1729475922827.0,0.0
0.035892,-0.535992,-10.219746,-46.200001,-33.810001,7.84,1729475922848.0,0.0
0.064606,0.019143,-11.583653,8.4,-28.42,20.370001,1729475922869.0,0.0
-1.691726,-0.059821,-10.078569,27.58,-10.85,30.799999,1729475922890.0,0.0
-3.309274,-1.476372,-12.485749,4.83,7.91,32.549999,1729475922909.0,0.0
-3.038885,-0.086142,-11.952149,-14.56,5.88,35.279999,1729475922973.0,0.0
-1.457229,-3.627519,-10.442278,-34.439999,5.6,39.689999,1729475922975.0,0.0
-1.646262,-7.147361,-10.380065,6.37,17.780001,36.610001,1729475922976.0,0.0
-1.868794,-5.778666,-10.169496,71.260002,23.1,17.710001,1729475922992.0,0.0
-1.921437,-3.462414,-9.092726,90.510002,30.309999,0.21,1729475923009.0,0.0
-1.61037,-4.563113,-10.954341,63.84,19.25,-17.290001,1729475923030.0,0.0
-1.555335,-4.508078,-7.4345,57.68,25.690001,-35.84,1729475923050.0,0.0
-1.529014,-1.249053,-7.9346,53.900002,20.16,-41.23,1729475923069.0,0.0
-1.730011,-2.696711,-5.276174,47.110001,2.52,-39.900002,1729475923090.0,0.0
-1.117448,0.636491,-7.652246,7.0,-2.03,-38.779999,1729475923111.0,0.0
-0.229711,0.361316,-8.422735,-21.280001,-17.01,-20.16,1729475923130.0,0.0
0.571885,-3.144169,-9.4349,-53.27,-32.759998,-13.3,1729475923150.0,0.0
-0.112463,-2.828316,-9.020942,-52.080002,-9.24,-14.49,1729475923170.0,0.0
-1.019342,-2.62732,-8.944371,-22.26,-11.83,-9.52,1729475923191.0,0.0
-1.095913,-3.282953,-9.298509,-9.94,-17.01,-4.48,1729475923209.0,0.0
-2.306681,-4.180261,-10.325029,13.37,-15.75,7.35,1729475923233.0,0.0
-3.486342,-3.036492,-11.892329,79.660004,-0.21,29.33,1729475923249.0,0.0
-3.550949,-3.019742,-11.155338,68.25,14.0,32.34,1729475923269.0,0.0
-1.880759,-3.259024,-10.581062,33.040001,8.26,26.74,1729475923291.0,0.0
-0.062213,-3.101098,-10.135997,10.64,8.33,15.33,1729475923311.0,0.0
-0.162712,-2.892922,-8.422735,16.66,15.47,8.96,1729475923330.0,0.0
-1.268196,-2.847459,-7.539784,24.360001,15.47,0.63,1729475923349.0,0.0
-2.074577,-4.005585,-9.468399,28.0,6.44,-8.4,1729475923369.0,0.0
-2.440679,-4.280759,-10.028319,38.150002,6.72,-19.74,1729475923389.0,0.0
-2.29711,-2.897708,-9.994821,21.07,11.2,-33.670002,1729475923410.0,0.0
-2.067399,-4.388437,-9.690931,0.07,2.45,-38.5,1729475923429.0,0.0
-1.198804,-6.850651,-9.805787,34.650002,-1.75,-38.709999,1729475923450.0,0.0
-0.588634,-2.9671,-8.183454,61.880001,15.96,-34.509998,1729475923469.0,0.0
-0.803988,-3.316452,-7.487142,41.720001,3.29,-25.48,1729475923492.0,0.0
-0.380459,-3.235096,-7.140182,10.15,-0.63,-13.3,1729475923510.0,0.0
-0.167498,-3.48395,-6.443871,-9.1,-6.44,-0.14,1729475923529.0,0.0
-0.521635,-3.488736,-7.06122,-24.710001,-18.200001,10.08,1729475923550.0,0.0
-1.191626,-4.173083,-8.779266,-43.470001,-31.43,10.99,1729475923570.0,0.0
-2.139183,-5.309673,-11.47837,-8.61,-31.57,11.2,1729475923591.0,0.0
-2.084148,-4.400401,-12.748959,72.449997,-19.460001,14.49,1729475923609.0,0.0
-2.024328,-3.086741,-11.856436,121.800003,-1.54,21.42,1729475923634.0,0.0
-1.928615,-2.991028,-10.210175,81.129997,12.18,22.469999,1729475923649.0,0.0
-2.318645,-5.067998,-10.171888,28.98,17.08,21.629999,1729475923700.0,0.0
-2.395216,-6.094519,-10.930414,57.330002,27.02,23.17,1729475923701.0,0.0
-1.911865,-5.65424,-7.9011,109.480003,37.66,24.15,1729475923812.0,0.0
-1.081556,-6.45105,-4.285545,96.25,30.799999,13.79,1729475923813.0,0.0
0.746561,-7.221539,-5.501099,32.27,2.31,-7.7,1729475923813.0,0.0
1.691726,-5.67099,-2.416751,-16.24,-5.18,-24.219999,1729475923813.0,0.0
0.550349,-5.000999,-4.766503,-56.84,-30.24,-27.58,1729475923813.0,0.0
-2.940779,-5.163712,-9.442079,-102.550003,-21.98,-36.610001,1729475923814.0,0.0
-4.675575,-6.778866,-9.142976,-96.879997,-15.68,-38.080002,1729475923828.0,0.0
-2.165504,-7.496714,-9.920642,-42.490002,-41.299999,-40.040001,1729475923848.0,0.0
0.055035,-7.200003,-9.96132,69.860001,-41.580002,-35.139999,1729475923869.0,0.0
-1.639083,-1.06002,-7.989635,156.240005,-19.040001,-25.620001,1729475923891.0,0.0
-4.34058,-2.132005,-11.387443,117.110001,-10.78,6.51,1729475923909.0,0.0
-5.922236,-4.39083,-11.234302,-105.0,14.21,9.17,1729475923928.0,0.0
-3.948158,-5.630312,-11.810973,-77.419998,5.6,26.110001,1729475923949.0,0.0
0.16989,-6.893722,-6.278766,34.369999,11.48,31.57,1729475923968.0,0.0
0.361316,-3.89073,-10.143176,65.379997,19.25,25.27,1729475923991.0,0.0
-1.28016,-2.007578,-10.301102,47.18,40.599998,27.370001,1729475924010.0,0.0
-2.139183,-3.091527,-6.45105,-8.68,53.130001,38.990002,1729475924028.0,0.0
-0.117248,-7.176075,-7.245467,-69.860001,17.92,34.650002,1729475924048.0,0.0
1.789831,-9.923036,-1.605584,-84.910004,2.73,19.110001,1729475924069.0,0.0
0.478565,-10.633704,-5.508278,-25.83,-32.830002,-10.57,1729475924089.0,0.0
-3.723232,-7.439285,-8.532805,5.32,-14.77,-43.540001,1729475924109.0,0.0
-4.945964,-6.199803,-9.320045,8.26,-18.41,-51.59,1729475924129.0,0.0
-1.581656,-4.110869,-9.272188,-4.62,-49.630001,-51.450001,1729475924148.0,0.0
-1.0002,-3.067599,-7.472785,9.8,-50.540001,-26.530001,1729475924169.0,0.0
-4.443472,-1.540978,-12.763316,28.84,-3.43,3.01,1729475924189.0,0.0
-5.304887,-4.486543,-13.124631,34.299999,-11.69,23.52,1729475924209.0,0.0
-5.099105,-3.495914,-11.909079,-8.68,20.719999,30.309999,1729475924230.0,0.0
0.026321,-4.577469,-6.788438,59.010002,14.49,43.889999,1729475924250.0,0.0
0.870987,-3.775874,-9.54497,53.27,14.0,36.610001,1729475924270.0,0.0
-0.607777,-1.801795,-7.944171,-4.41,49.0,32.549999,1729475924289.0,0.0
-0.887737,-5.340781,-4.046263,-85.540001,29.960001,31.15,1729475924309.0,0.0
1.079163,-7.367501,-1.942972,-143.850006,-6.44,16.1,1729475924328.0,0.0
1.629512,-13.141381,-6.601797,-76.370003,-37.869999,3.43,1729475924348.0,0.0
-1.208375,-10.181459,-10.492528,-37.939999,-17.710001,-45.360001,1729475924368.0,0.0
-4.225725,-8.049455,-10.028319,-8.96,1.75,-65.730003,1729475924389.0,0.0
-2.962314,-5.242674,-9.437292,-12.53,-14.91,-71.540001,1729475924409.0,0.0
-1.318445,-4.082155,-7.104291,16.940001,-28.42,-55.439999,1729475924428.0,0.0
-2.811567,-3.270989,-6.647261,142.309998,-32.619999,-17.85,1729475924450.0,0.0
-4.934,-2.488536,-12.543176,214.970001,1.68,11.13,1729475924469.0,0.0
-5.816952,-2.505285,-12.217752,92.959999,14.49,4.41,1729475924491.0,0.0
-5.766702,-2.526821,-11.624333,-40.950001,24.219999,11.41,1729475924508.0,0.0
-1.844866,-5.087141,-8.82473,-16.17,3.71,20.58,1729475924527.0,0.0
0.904487,-6.250053,-9.521042,93.099998,19.74,34.439999,1729475924555.0,0.0
-1.002593,-1.878366,-7.850852,124.879997,61.880001,24.43,1729475924568.0,0.0
-1.866402,-4.589434,2.62732,-30.309999,62.23,26.6,1729475924591.0,0.0
-0.0335,-6.759724,-0.90688,-166.25,-2.24,12.11,1729475924609.0,0.0
2.038685,-13.801801,-4.474578,-94.010002,-47.950001,5.95,1729475924629.0,0.0
-1.631905,-10.502099,-8.580662,-18.129999,-27.02,-32.619999,1729475924649.0,0.0
-4.603791,-8.114061,-9.793823,-0.7,-7.35,-55.16,1729475924669.0,0.0
-3.189633,-5.929415,-6.809973,-29.75,-31.639999,-60.060001,1729475924689.0,0.0
-1.801795,-4.304688,-8.11167,-13.65,-50.75,-42.700001,1729475924713.0,0.0
-5.108676,-2.672783,-10.753345,30.66,-31.08,-24.290001,1729475924729.0,0.0
-4.926822,-3.534199,-13.706088,50.259998,-27.51,-12.39,1729475924749.0,0.0
-4.378866,-3.029313,-13.339987,33.880001,5.04,15.4,1729475924771.0,0.0
-3.28056,-3.663411,-10.762917,24.01,27.51,29.120001,1729475924791.0,0.0
-0.689133,-4.587041,-6.994221,17.15,26.040001,28.630001,1729475924809.0,0.0
-0.265603,-3.641876,-9.738789,-11.13,29.68,21.700001,1729475924829.0,0.0
-1.036092,-4.309474,-8.372486,-13.72,45.990002,25.34,1729475924849.0,0.0
-0.136391,-6.506085,-7.142576,-30.1,40.32,26.040001,1729475924869.0,0.0
1.557728,-6.721439,0.172283,-83.510002,6.44,7.98,1729475924892.0,0.0
0.820738,-11.526227,-6.884151,-65.029999,-34.299999,-0.91,1729475924910.0,0.0
-2.921637,-10.506885,-9.355937,-47.32,-14.42,-47.599998,1729475924931.0,0.0
-4.204189,-7.745567,-7.422535,-2.45,-15.89,-60.619999,1729475924949.0,0.0
-1.59362,-3.680161,-7.487142,26.25,-43.049999,-56.700001,1729475924971.0,0.0
-2.163112,-0.562313,-5.666204,27.370001,-51.099998,-37.52,1729475924991.0,0.0
-5.996413,-1.464408,-13.258631,-21.07,-7.28,-6.02,1729475925009.0,0.0
-6.460621,-4.393222,-14.017156,-37.66,-14.0,21.700001,1729475925030.0,0.0
-5.010571,-5.300103,-12.911672,3.92,17.710001,36.470001,1729475925050.0,0.0
-2.215754,-4.9675,-7.140182,49.07,34.09,37.310001,1729475925072.0,0.0
-0.215354,-3.079563,-8.901299,12.81,22.4,21.84,1729475925092.0,0.0
0.191426,-2.902494,-8.939585,-39.689999,30.24,14.7,1729475925110.0,0.0
-0.208176,-4.756931,-0.993021,-65.309998,37.170002,22.26,1729475925130.0,0.0
0.899701,-5.065606,-8.985049,-79.660004,3.01,19.530001,1729475925151.0,0.0
0.736989,-10.246067,-4.9675,-57.82,16.24,16.17,1729475925171.0,0.0
-1.330409,-10.025927,-10.195816,-44.170002,-25.83,-31.710001,1729475925191.0,0.0
-4.74736,-8.693125,-9.403792,-2.45,-3.15,-54.32,1729475925211.0,0.0
-3.744767,-6.460621,-7.946564,50.889999,-37.52,-61.950001,1729475925230.0,0.0
-1.519442,-2.378466,-9.260223,87.779999,-41.720001,-49.77,1729475925251.0,0.0
-4.634897,-1.165305,-7.707282,70.07,-25.620001,-11.06,1729475925275.0,0.0
-8.286345,-3.206382,-14.47897,-8.12,18.76,4.2,1729475925291.0,0.0
-6.508478,-4.019942,-14.007583,-29.33,2.59,17.57,1729475925310.0,0.0
-2.909672,-4.04387,-10.674382,18.690001,21.0,26.67,1729475925330.0,0.0
-0.07657,-4.61097,-6.896115,51.799999,21.84,25.129999,1729475925351.0,0.0
0.332602,-3.323631,-8.822337,28.35,24.360001,10.64,1729475925371.0,0.0
-1.162912,-3.460021,-9.571291,-6.93,45.57,3.43,1729475925391.0,0.0
-1.119841,-4.139583,-2.809174,-36.610001,45.920002,6.93,1729475925411.0,0.0
0.868595,-5.800202,-10.456635,-55.510002,8.61,11.83,1729475925432.0,0.0
2.232504,-6.149554,-3.034099,-103.040001,27.790001,-8.33,1729475925451.0,0.0
1.51705,-10.021141,-3.974478,-60.760002,-17.5,-9.52,1729475925470.0,0.0
-2.266003,-8.343772,-9.284152,-12.25,-17.290001,-44.869999,1729475925491.0,0.0
-5.056034,-4.393222,-7.88435,39.759998,-17.85,-45.849998,1729475925511.0,0.0
-2.751746,-3.95055,-7.140182,82.32,-45.360001,-22.82,1729475925531.0,0.0
-0.184247,-3.847659,-10.856236,141.75,-56.490002,8.19,1729475925550.0,0.0
-4.04387,-2.048256,-8.898908,119.629997,-12.88,26.809999,1729475925571.0,0.0
-7.295716,-2.555535,-12.299109,-1.75,15.61,18.549999,1729475925591.0,0.0
-6.465407,-4.419543,-13.938192,-101.360001,-0.77,12.25,1729475925610.0,0.0
-1.416551,-6.209375,-9.590433,-45.639999,-9.03,19.950001,1729475925631.0,0.0
1.119841,-4.599005,-9.317651,27.51,5.46,26.74,1729475925650.0,0.0
-0.844666,-1.481157,-8.958728,35.139999,41.650002,17.08,1729475925671.0,0.0
-3.440879,-1.847259,-5.412565,-10.5,57.400002,27.440001,1729475925691.0,0.0
-1.878366,-5.781059,-11.583653,-64.050003,14.49,26.67,1729475925716.0,0.0
1.418944,-6.221339,-7.788638,-127.260002,21.77,5.53,1729475925729.0,0.0
3.282953,-10.351351,-3.113062,-33.810001,-0.14,17.710001,1729475925750.0,0.0
1.258625,-8.106883,-6.69751,21.280001,-5.95,-30.73,1729475925771.0,0.0
-3.864408,-6.171089,-6.005985,33.810001,13.440001,-48.369999,1729475925790.0,0.0
-4.890929,-5.034499,-7.350751,17.08,-22.4,-52.779999,1729475925811.0,0.0
-0.48335,-3.014957,-10.619347,47.950001,-50.959999,-32.900002,1729475925831.0,0.0
-3.084348,-2.725425,-9.743573,16.52,-37.59,-0.98,1729475925851.0,0.0
-7.719246,-4.692325,-14.306686,-61.459999,28.84,4.13,1729475925871.0,0.0
-6.329016,-5.716454,-12.117253,-42.139999,9.31,12.81,1729475925891.0,0.0
-1.61037,-5.635098,-6.410372,51.52,13.86,25.41,1729475925910.0,0.0
-0.007178,-4.299902,-9.004191,75.739998,6.02,22.540001,1729475925931.0,0.0
-2.294717,-1.806581,-8.595018,33.529999,41.369999,7.07,1729475925951.0,0.0
-4.256832,-2.380858,-6.034698,-22.120001,42.98,16.309999,1729475925970.0,0.0
-1.148555,-5.225924,-11.4353,-56.349998,3.29,15.89,1729475925993.0,0.0
1.792224,-3.287738,-7.106683,-91.279999,20.299999,8.26,1729475926010.0,0.0
3.103491,-8.99462,-2.78046,-4.34,-6.51,29.4,1729475926030.0,0.0
1.56012,-8.812766,-8.319844,30.59,-18.41,-12.46,1729475926051.0,0.0
-4.21376,-7.743174,-6.175875,18.690001,17.290001,-41.23,1729475926070.0,0.0
-6.400801,-6.673582,-6.470192,34.439999,-29.960001,-52.009998,1729475926092.0,0.0
-2.57707,-3.720839,-7.250252,88.269997,-57.82,-40.389999,1729475926112.0,0.0
-0.930808,-1.31366,-12.282358,67.059998,-66.779999,-15.33,1729475926130.0,0.0
-5.831308,-4.034299,-16.362122,-45.920002,1.05,1.12,1729475926150.0,0.0
-6.479764,-6.491727,-13.864014,-89.809998,16.59,-1.89,1729475926171.0,0.0
-1.725225,-5.005785,-8.49452,55.16,31.780001,21.91,1729475926190.0,0.0
0.528814,-4.455436,-7.996813,78.050003,23.379999,19.389999,1729475926210.0,0.0
-0.78006,-3.182454,-9.025726,40.740002,46.34,4.2,1729475926230.0,0.0
-2.742175,-2.431108,-5.113462,-2.24,62.860001,8.82,1729475926250.0,0.0
-0.631705,-4.443472,-10.451849,-26.74,23.379999,19.040001,1729475926271.0,0.0
1.56012,-2.443072,-2.859423,-97.860001,37.799999,9.8,1729475926291.0,0.0
2.529213,-10.174281,-1.481157,-32.549999,-14.07,28.630001,1729475926310.0,0.0
0.705883,-9.004191,-6.704689,-9.1,-39.200001,-25.9,1729475926329.0,0.0
-5.123034,-7.575676,-6.240481,-20.860001,-4.13,-58.52,1729475926349.0,0.0
-5.190032,-6.874579,-8.11167,-11.55,-53.549999,-63.209999,1729475926370.0,0.0
-1.438086,-4.900501,-7.429714,31.780001,-73.989998,-50.189999,1729475926391.0,0.0
-1.335195,-2.734996,-12.327823,35.0,-79.379997,-21.35,1729475926410.0,0.0
-6.058627,-4.917251,-19.47279,15.89,15.26,9.31,1729475926429.0,0.0
-7.077969,-5.541777,-14.378471,27.719999,29.469999,23.17,1729475926450.0,0.0
-3.852444,-4.441079,-6.216553,87.080002,35.84,41.299999,1729475926470.0,0.0
-0.102891,-3.629912,-6.570691,63.77,13.86,34.509998,1729475926492.0,0.0
-1.399801,-3.661019,-10.566705,-18.690001,38.150002,14.07,1729475926510.0,0.0
-3.294917,-4.505685,-8.95155,12.53,54.740002,16.799999,1729475926537.0,0.0
-1.667797,-4.931608,-7.025328,40.599998,35.98,18.690001,1729475926550.0,0.0
1.292124,-3.534199,-7.546963,-46.759998,10.43,-7.42,1729475926570.0,0.0
2.213361,-6.364908,-1.162912,-83.720001,22.540001,-6.44,1729475926591.0,0.0
1.737189,-8.271988,-2.87378,-44.939999,-19.32,-15.26,1729475926610.0,0.0
-2.615355,-5.87438,-6.618547,-2.73,-24.780001,-44.869999,1729475926629.0,0.0
-6.242875,-4.208975,-6.848258,0.84,-11.9,-42.490002,1729475926651.0,0.0
-4.185047,-3.39063,-8.228917,-8.19,-71.400002,-25.059999,1729475926670.0,0.0
-0.045464,-5.65424,-9.487542,-2.87,-93.730003,-3.78,1729475926692.0,0.0
-2.045863,-6.869793,-11.686546,-59.5,-69.650002,-5.11,1729475926717.0,0.0
-8.066205,-7.441679,-16.527225,-51.939999,31.43,-7.91,1729475926729.0,0.0
-8.224132,-5.388636,-11.657832,18.41,33.110001,14.14,1729475926749.0,0.0
-2.007578,-4.945964,-6.65444,109.270004,14.49,31.639999,1729475926770.0,0.0
1.024128,-2.825923,-8.702696,96.809998,-3.5,29.4,1729475926792.0,0.0
-1.418944,-1.698904,-9.863215,74.269997,40.599998,26.880001,1729475926809.0,0.0
-4.34058,-2.63689,-10.997414,33.810001,75.669998,31.710001,1729475926830.0,0.0
0.617348,-3.163311,-8.092526,-53.34,23.66,15.05,1729475926849.0,0.0
3.266203,-8.587841,-0.291924,-21.700001,18.41,39.970001,1729475926871.0,0.0
4.0008,-11.327622,-5.051248,14.63,-23.52,-2.24,1729475926892.0,0.0
-1.919044,-9.525827,-4.878965,23.450001,3.85,-53.060001,1729475926910.0,0.0
-6.305088,-7.405786,-6.539584,0.77,-9.38,-74.900002,1729475926929.0,0.0
-4.4674,-4.146761,-9.662218,0.84,-50.189999,-64.82,1729475926950.0,0.0
0.071785,-1.651048,-9.475577,35.700001,-62.860001,-24.360001,1729475926969.0,0.0
-1.892723,-2.938386,-8.891729,-17.219999,-41.439999,8.12,1729475926991.0,0.0
-5.919843,-5.405386,-15.58924,-137.410004,20.58,-2.03,1729475927010.0,0.0
-7.56132,-7.211967,-13.464413,-126.699997,34.509998,12.88,1729475927030.0,0.0
-2.141576,-7.01097,-6.163911,58.240002,17.219999,36.68,1729475927051.0,0.0
-0.636491,-4.4339,-6.778866,133.699997,26.25,33.389999,1729475927070.0,0.0
-2.400001,-1.706082,-6.848258,70.559998,48.09,5.74,1729475927093.0,0.0
-3.491128,-3.397808,-11.734402,-7.77,40.950001,13.02,1729475927109.0,0.0
-1.237089,-1.153341,-7.257431,-115.290001,39.200001,-4.2,1729475927130.0,0.0
1.179662,-8.666803,-3.412165,-46.130001,7.49,38.290001,1729475927151.0,0.0
2.440679,-9.547362,-4.833502,-4.55,-10.64,2.52,1729475927171.0,0.0
-3.146562,-8.501699,-5.407779,10.22,2.94,-38.57,1729475927191.0,0.0
-5.312066,-6.955935,-8.02792,-12.81,-15.75,-58.170002,1729475927210.0,0.0
-3.330809,-5.103891,-8.939585,13.02,-53.48,-45.009998,1729475927231.0,0.0
0.368495,-1.799403,-9.073583,104.510002,-60.200001,-17.99,1729475927250.0,0.0
-1.0002,-2.524428,-7.690532,86.379997,-52.779999,15.61,1729475927269.0,0.0
-5.931807,-2.842674,-13.682159,-88.480003,21.98,7.21,1729475927290.0,0.0
-8.740981,-5.599205,-15.354744,-162.960007,18.969999,11.27,1729475927310.0,0.0
-3.54377,-7.692925,-10.746166,-23.309999,-1.19,30.940001,1729475927329.0,0.0
0.332602,-7.908278,-6.439085,119.840004,21.210001,36.119999,1729475927351.0,0.0
-0.988236,-4.441079,-6.955935,94.360001,38.150002,7.21,1729475927370.0,0.0
-3.469593,-2.847459,-5.072784,25.620001,51.52,-6.79,1729475927391.0,0.0
-2.029114,-4.278367,-10.183852,-35.490002,12.53,-6.79,1729475927409.0,0.0
0.002393,-3.019742,-8.226524,-119.629997,25.969999,-7.28,1729475927430.0,0.0
0.794417,-7.405786,-3.917051,-71.889999,11.62,21.210001,1729475927451.0,0.0
1.002593,-9.085547,-5.479564,-13.16,-4.34,-0.35,1729475927469.0,0.0
-2.883351,-8.690732,-6.769295,23.24,3.99,-27.09,1729475927490.0,0.0
-4.010371,-5.659025,-7.781459,19.879999,-5.81,-47.25,1729475927510.0,0.0
-1.17009,-4.601398,-7.802995,18.27,-48.369999,-44.73,1729475927529.0,0.0
1.679761,-1.213161,-10.001998,62.23,-60.970001,-19.110001,1729475927549.0,0.0
-1.789831,-3.036492,-9.62154,41.93,-41.720001,9.31,1729475927570.0,0.0
-6.652047,-5.548956,-14.136796,-31.360001,24.780001,6.93,1729475927592.0,0.0
-8.152347,-7.063612,-12.138789,-34.23,24.290001,20.58,1729475927610.0,0.0
-2.912065,-6.305088,-7.558927,28.98,16.030001,21.559999,1729475927631.0,0.0
0.392423,-6.439085,-6.812366,56.84,7.35,17.43,1729475927650.0,0.0
-0.882952,-4.15394,-7.9681,22.26,24.99,-6.58,1729475927669.0,0.0
-2.888137,-3.136991,-6.666404,-9.45,34.93,-6.02,1729475927691.0,0.0
-1.217947,-4.139583,-10.985448,-40.880001,5.74,-0.28,1729475927712.0,0.0
-0.205783,-3.242275,-8.405986,-107.449997,30.870001,-6.58,1729475927728.0,0.0
0.535992,-6.865008,-4.225725,-59.920002,22.120001,17.219999,1729475927748.0,0.0
1.828116,-7.9681,-4.338188,-2.66,-5.74,0.84,1729475927770.0,0.0
-1.942972,-7.822137,-6.862615,-5.88,-0.28,-30.1,1729475927790.0,0.0
-5.149354,-7.271788,-7.609176,-29.049999,3.01,-52.849998,1729475927809.0,0.0
-3.491128,-5.510671,-8.611769,-19.809999,-38.5,-52.990002,1729475927829.0,0.0
1.122234,-1.002593,-9.734003,34.650002,-52.849998,-22.960001,1729475927849.0,0.0
-1.323231,-3.091527,-9.623933,11.55,-39.060001,7.28,1729475927871.0,0.0
-6.704689,-5.955735,-16.007982,-54.459999,47.25,13.3,1729475927892.0,0.0
-7.616355,-5.948557,-11.75833,-16.24,29.68,23.450001,1729475927910.0,0.0
-2.007578,-5.84088,-7.264609,73.5,19.25,32.27,1729475927995.0,0.0
1.672583,-6.333801,-6.632904,78.190002,0.14,19.809999,1729475927999.0,0.0
0.315853,-3.694518,-7.52782,22.540001,21.98,-9.52,1729475927999.0,0.0
-2.337788,-2.651247,-7.89153,-10.43,36.189999,-7.98,1729475927999.0,0.0
-1.208375,-2.969493,-11.069198,-54.389999,10.5,-4.83,1729475928011.0,0.0
-0.272782,-1.605584,-7.645068,-109.410004,28.77,4.41,1729475928028.0,0.0
0.200997,-5.4676,-5.190032,-68.040001,16.940001,27.02,1729475928049.0,0.0
0.569492,-8.769694,-5.130211,0.98,-4.13,21.0,1729475928069.0,0.0
-2.76371,-7.822137,-6.929615,20.09,-2.87,-8.47,1729475928090.0,0.0
-5.175675,-6.836295,-7.542177,3.29,0.21,-33.040001,1729475928110.0,0.0
-2.37368,-5.740381,-8.882158,4.9,-45.220001,-37.029999,1729475928128.0,0.0
1.256232,-4.07737,-8.516055,61.040001,-57.470001,-23.17,1729475928149.0,0.0
-1.177269,-3.584448,-7.575676,126.629997,-50.68,6.86,1729475928171.0,0.0
-6.163911,-4.613362,-14.141582,50.259998,26.809999,23.73,1729475928191.0,0.0
-7.67139,-4.838287,-10.482956,-30.030001,20.02,20.51,1729475928210.0,0.0
-3.632305,-6.238089,-8.958728,-18.48,-10.99,24.780001,1729475928229.0,0.0
0.72024,-6.836295,-8.047063,40.18,-14.21,22.540001,1729475928248.0,0.0
1.318445,-6.343372,-8.803195,81.199997,-6.65,9.31,1729475928269.0,0.0
-1.674976,-4.910072,-10.377672,81.760002,28.0,0.42,1729475928289.0,0.0
-3.531806,-4.642076,-10.459028,58.73,48.02,1.61,1729475928309.0,0.0
-2.976671,-4.350152,-5.929415,5.39,48.790001,6.51,1729475928328.0,0.0
-0.976272,-7.872386,-8.506484,-8.47,18.9,14.98,1729475928350.0,0.0
-0.602991,-8.300702,-4.989035,-17.219999,38.920002,-5.25,1729475928369.0,0.0
-0.39003,-7.338787,-2.349752,24.360001,14.21,-8.26,1729475928390.0,0.0
-1.141376,-5.673382,-3.976871,51.170002,-7.07,-16.379999,1729475928409.0,0.0
-3.713661,-5.838487,-6.534799,35.07,-5.81,-21.700001,1729475928428.0,0.0
-3.919443,-6.778866,-7.223931,5.32,-22.120001,-18.969999,1729475928449.0,0.0
-0.425922,-6.357729,-7.448857,0.84,-47.880001,-13.09,1729475928470.0,0.0
1.354338,-5.328816,-8.518449,17.5,-55.299999,-5.95,1729475928490.0,0.0
-3.895515,-3.627519,-12.078968,-23.030001,-27.65,-7.56,1729475928509.0,0.0
-6.45105,-7.298109,-11.937792,-116.480003,-17.57,1.12,1729475928527.0,0.0
-4.627719,-9.446864,-11.830115,-29.960001,-9.45,15.26,1729475928549.0,0.0
-1.584049,-6.592227,-8.212167,93.940002,23.66,23.59,1729475928569.0,0.0
-0.748954,-5.376673,-7.312466,106.260002,21.629999,18.200001,1729475928589.0,0.0
-1.938186,-5.974878,-7.843673,63.490002,25.129999,5.04,1729475928609.0,0.0
-2.380858,-6.431907,-8.949157,40.389999,27.23,-1.47,1729475928630.0,0.0
-1.361516,-5.608776,-5.048856,13.79,30.870001,-6.23,1729475928648.0,0.0
0.023928,-6.798009,-6.699903,17.360001,11.06,5.81,1729475928669.0,0.0
-0.600598,-6.867401,-4.922036,7.91,26.389999,-9.73,1729475928690.0,0.0
-1.598405,-6.226124,-3.019742,7.84,12.88,-8.12,1729475928716.0,0.0
-1.842474,-6.21416,-4.280759,0.84,-13.86,-6.44,1729475928728.0,0.0
-3.259024,-8.453842,-8.02792,-5.95,-26.040001,-14.21,1729475928748.0,0.0
-2.828316,-9.676575,-8.853443,27.09,-29.82,-17.99,1729475928769.0,0.0
0.234497,-6.616155,-7.326823,98.279999,-24.710001,-6.09,1729475928789.0,0.0
1.045663,-4.608576,-4.326223,156.309998,-19.879999,10.99,1729475928809.0,0.0
-2.995814,-6.317052,-0.899701,166.039993,-16.450001,25.620001,1729475928829.0,0.0
-4.876573,-9.695717,-9.549755,115.57,-14.14,24.85,1729475928848.0,0.0
-3.438486,-12.911672,-8.161918,160.789993,-25.27,34.16,1729475928870.0,0.0
-1.878366,-10.066606,-6.204589,277.690002,10.64,35.490002,1729475928889.0,0.0
-2.203789,-8.463413,-2.100898,355.670013,26.67,28.07,1729475928909.0,0.0
-3.45045,-8.633304,-2.617748,334.040009,17.99,8.82,1729475928929.0,0.0
-3.050849,-11.894722,-2.866602,348.880005,12.11,15.190001,1729475928949.0,0.0
-2.194218,-12.815958,-2.096112,334.040009,9.03,-10.15,1729475928968.0,0.0
-1.674976,-10.856236,-0.756132,298.619995,14.98,-28.210001,1729475928991.0,0.0
-1.971686,-9.521042,1.098306,254.800003,18.9,-34.16,1729475929010.0,0.0
-2.254039,-9.686146,2.792424,196.699997,8.33,-42.349998,1729475929031.0,0.0
-2.239682,-10.614561,3.596412,150.850006,-2.52,-43.540001,1729475929050.0,0.0
-1.033699,-10.602598,2.775674,141.399994,-8.82,-51.66,1729475929068.0,0.0
-1.734797,-8.68116,2.792424,172.619995,-1.61,-48.720001,1729475929091.0,0.0
-2.459821,-4.429115,2.132005,184.029999,17.290001,-45.639999,1729475929109.0,0.0
-5.113462,-6.180661,4.067799,138.460007,15.12,-44.939999,1729475929131.0,0.0
-3.402594,-3.498307,3.35713,79.660004,26.110001,-30.940001,1729475929148.0,0.0
-3.261417,-6.769295,5.663811,47.110001,30.73,-8.47,1729475929169.0,0.0
-0.457029,-5.953342,6.30748,14.91,24.01,4.76,1729475929190.0,0.0
0.361316,-3.665804,6.01077,42.560001,29.75,17.43,1729475929209.0,0.0
-2.237289,-6.029913,6.362515,13.72,9.24,22.4,1729475929229.0,0.0
-1.328017,-8.55434,7.077969,3.64,-1.26,38.709999,1729475929248.0,0.0
-1.39023,-7.379465,5.816952,31.360001,-7.91,34.580002,1729475929268.0,0.0
-3.778267,-5.436492,4.402793,47.25,-9.1,47.950001,1729475929292.0,0.0
-5.632704,-10.597812,3.125026,26.6,-2.8,44.799999,1729475929310.0,0.0
3.862016,-14.380865,4.299902,-13.51,2.03,-12.6,1729475929329.0,0.0
-4.931608,-14.309079,3.474378,-10.36,4.48,15.96,1729475929348.0,0.0
-2.230111,-10.296316,4.486543,28.210001,18.059999,-33.670002,1729475929368.0,0.0
0.002393,-7.54457,4.407579,13.93,28.98,-16.450001,1729475929392.0,0.0
-2.914458,-8.389235,5.070391,-12.25,13.86,-28.280001,1729475929409.0,0.0
-2.091327,-8.618947,7.123433,-13.58,7.63,-28.42,1729475929430.0,0.0
-0.57667,-5.402994,6.927221,11.69,21.84,-23.799999,1729475929448.0,0.0
-0.421137,-3.61077,6.008378,-26.74,5.81,-13.09,1729475929469.0,0.0
-0.294317,-2.35693,4.122833,-31.43,16.870001,22.26,1729475929490.0,0.0
-6.257231,-9.267403,6.745367,-23.66,-7.98,19.040001,1729475929508.0,0.0
-1.734797,-7.159326,9.025726,50.959999,3.57,39.27,1729475929528.0,0.0
-1.217947,-5.240282,6.276374,58.66,-5.67,26.040001,1729475929549.0,0.0
-3.326023,-5.98445,4.790431,-3.85,-14.91,41.299999,1729475929570.0,0.0
-4.063013,-11.937792,4.551149,-39.060001,-12.04,27.299999,1729475929591.0,0.0
-4.788038,-15.330814,5.089533,-41.509998,-10.57,-1.47,1729475929608.0,0.0
-3.259024,-12.284752,3.98405,8.96,6.37,-23.870001,1729475929627.0,0.0
-0.945165,-6.690332,3.723232,31.219999,18.620001,-36.68,1729475929649.0,0.0
-1.837688,-6.699903,4.175476,29.889999,20.23,-27.93,1729475929668.0,0.0
-4.350152,-10.521241,4.555934,-13.09,3.15,-36.470001,1729475929691.0,0.0
-0.777667,-7.343572,5.319244,-18.690001,12.74,-47.32,1729475929712.0,0.0
-3.393023,-5.52742,4.890929,24.290001,19.809999,-16.66,1729475929728.0,0.0
-1.091127,-3.017349,5.481956,-18.48,14.98,-30.799999,1729475929747.0,0.0
-1.485943,-3.079563,5.565705,-23.52,16.17,13.51,1729475929770.0,0.0
-5.24746,-6.56112,6.941578,-38.57,-10.36,9.66,1729475929789.0,0.0
-2.663212,-7.317252,8.985049,-9.73,-14.35,41.09,1729475929809.0,0.0
0.01675,-5.017749,7.255038,32.689999,-14.49,33.040001,1729475929828.0,0.0
-4.656433,-9.224331,1.818545,-12.39,-24.710001,46.34,1729475929849.0,0.0
-4.156333,-14.459827,4.405186,-26.6,-7.28,27.65,1729475929869.0,0.0
-4.606184,-14.325829,4.74736,4.2,13.79,-2.66,1729475929891.0,0.0
-2.98385,-10.841879,3.531806,10.5,19.74,-31.57,1729475929908.0,0.0
-0.971486,-7.537392,2.849852,16.1,29.889999,-32.970001,1729475929929.0,0.0
-3.912265,-9.777073,4.197011,32.34,25.34,-35.209999,1729475929949.0,0.0
-2.091327,-8.219346,6.063413,38.639999,21.0,-45.43,1729475929968.0,0.0
-2.835495,-5.041678,5.771489,68.459999,33.110001,-15.82,1729475929989.0,0.0
-1.90708,-3.395415,5.99402,-1.68,13.58,-38.709999,1729475930010.0,0.0
-1.545763,-2.522035,5.551349,-38.849998,9.24,7.91,1729475930027.0,0.0
-4.273581,-5.388636,5.479564,-53.41,-11.34,6.44,1729475930050.0,0.0
-4.316652,-8.279166,7.910671,-25.129999,-20.51,33.880001,1729475930070.0,0.0
-0.985843,-6.628119,8.566305,42.279999,-10.43,32.48,1729475930089.0,0.0
-0.705883,-4.945964,6.664011,30.799999,-12.11,39.27,1729475930108.0,0.0
-2.95035,-5.438886,2.825923,-35.0,-16.379999,36.470001,1729475930128.0,0.0
-5.754738,-13.399807,3.725625,-42.98,-7.98,43.889999,1729475930148.0,0.0
-4.749753,-14.146368,5.051248,-13.93,9.52,6.3,1729475930168.0,0.0
-4.67079,-11.107484,4.807181,45.360001,21.139999,-31.99,1729475930190.0,0.0
-2.266003,-7.427321,4.938786,21.35,16.73,-43.68,1729475930209.0,0.0
-1.682154,-6.932007,3.979264,23.17,15.82,-37.170002,1729475930230.0,0.0
-4.113262,-10.15514,4.369294,3.08,1.82,-42.560001,1729475930248.0,0.0
-1.07677,-8.896514,6.343372,18.27,5.74,-54.880001,1729475930270.0,0.0
-1.045663,-4.199404,3.964907,53.760002,26.6,-36.610001,1729475930289.0,0.0
-1.043271,-1.485943,5.412565,10.43,21.91,-39.759998,1729475930308.0,0.0
-0.909273,-0.76331,5.496314,-6.86,25.969999,7.98,1729475930327.0,0.0
-6.206983,-5.508278,7.396214,-39.130001,-4.97,10.01,1729475930347.0,0.0
-3.053242,-7.611568,9.71486,-18.83,-15.96,44.450001,1729475930368.0,0.0
-0.40678,-5.718846,7.800602,33.950001,-14.84,38.5,1729475930388.0,0.0
-3.59402,-4.45065,3.311667,-2.87,-24.85,52.57,1729475930408.0,0.0
-5.548956,-12.466606,4.991428,-49.279999,-24.85,46.41,1729475930430.0,0.0
-4.134798,-14.895321,5.106283,-51.52,-11.06,10.57,1729475930449.0,0.0
-4.34058,-12.902101,4.132405,1.47,4.2,-13.72,1729475930468.0,0.0
-3.732803,-10.145569,5.883951,16.450001,9.52,-30.1,1729475930488.0,0.0
-1.459622,-11.236694,3.251846,-63.420002,3.85,-55.02,1729475930508.0,0.0
-3.45045,-10.301102,3.895515,39.830002,10.57,-61.670002,1729475930527.0,0.0
-0.358923,-2.955136,3.215954,53.48,21.629999,-54.880001,1729475930549.0,0.0
-2.95035,-6.573084,6.008378,49.209999,20.51,-61.389999,1729475930568.0,0.0
-0.397209,-2.723032,6.458229,-22.889999,20.370001,-34.299999,1729475930590.0,0.0
-0.540778,-0.988236,3.608376,-56.0,5.95,-25.059999,1729475930608.0,0.0
-1.184447,-3.756732,5.407779,-45.639999,3.85,22.26,1729475930628.0,0.0
-3.35713,-6.79083,7.858029,-6.58,-5.32,35.630001,1729475930647.0,0.0
-1.194018,-4.603791,8.130811,40.040001,-3.78,53.060001,1729475930668.0,0.0
-1.012164,-2.957529,6.783652,40.810001,-3.64,66.849998,1729475930689.0,0.0
-3.806981,-8.228917,6.975078,-17.08,-13.58,83.93,1729475930710.0,0.0
-10.662418,-13.816156,3.199204,-79.239998,-35.0,60.830002,1729475930728.0,0.0
-5.668597,-18.262022,4.185047,-47.599998,-9.31,30.24,1729475930746.0,0.0
-4.35733,-15.515062,3.201597,3.99,13.440001,-33.950001,1729475930769.0,0.0
-2.179861,-9.789038,3.460021,35.700001,31.08,-42.91,1729475930791.0,0.0
-2.237289,-8.726624,4.469792,45.990002,35.209999,-47.880001,1729475930807.0,0.0
-4.584648,-9.901501,2.782853,7.49,16.52,-63.420002,1729475930827.0,0.0
-3.366701,-6.355337,4.113262,36.75,26.809999,-47.110001,1729475930849.0,0.0
-1.919044,-3.091527,7.384251,2.66,23.870001,-72.730003,1729475930867.0,0.0
-0.61017,-1.265803,6.845865,-17.219999,23.24,-8.61,1729475930891.0,0.0
-0.172283,-2.199004,5.266603,-57.75,1.26,-16.799999,1729475930910.0,0.0
-3.795017,-7.439285,7.133004,-58.240002,-21.629999,34.439999,1729475930927.0,0.0
-2.502892,-7.893922,8.867801,15.4,-31.92,35.139999,1729475930947.0,0.0
-1.440479,-4.039084,7.173682,62.510002,-29.469999,51.66,1729475930969.0,0.0
-1.928615,-3.615555,4.862216,16.1,-32.689999,59.220001,1729475930988.0,0.0
-6.611369,-10.528419,3.206382,-48.93,-31.219999,68.529999,1729475931008.0,0.0
-6.652047,-16.677973,3.337988,-60.27,-20.719999,44.66,1729475931027.0,0.0
-4.414758,-18.266808,5.558527,1.82,9.66,-19.879999,1729475931048.0,0.0
-3.708875,-11.167303,4.752146,31.85,21.77,-35.420002,1729475931070.0,0.0
-1.725225,-5.075177,4.079762,36.610001,28.49,-48.439999,1729475931088.0,0.0
-3.239882,-6.01077,3.208775,4.06,20.440001,-37.59,1729475931108.0,0.0
-3.455236,-9.54497,4.055835,-35.209999,5.74,-46.060001,1729475931127.0,0.0
-0.023928,-5.338387,3.955336,19.950001,29.26,-29.469999,1729475931154.0,0.0
-1.842474,-5.144568,7.319644,34.650002,26.6,-33.950001,1729475931167.0,0.0
0.066999,-1.986043,6.242875,-5.25,20.370001,-6.58,1729475931191.0,0.0
-4.275974,-6.228518,7.200003,-39.41,-13.72,16.24,1729475931210.0,0.0
-3.881158,-7.71446,7.898707,-42.91,-35.07,37.170002,1729475931227.0,0.0
-1.643869,-5.876772,6.762117,29.469999,-24.290001,48.23,1729475931249.0,0.0
-1.828116,-4.350152,4.871787,27.02,-27.16,52.150002,1729475931270.0,0.0
-5.900701,-9.138189,3.041277,-25.129999,-22.33,63.700001,1729475931288.0,0.0
-5.032106,-15.596417,4.850252,-59.150002,-16.52,34.509998,1729475931308.0,0.0
-3.48395,-13.490734,4.290331,-57.889999,3.36,-1.05,1729475931330.0,0.0
-3.895515,-11.327622,2.926422,-34.790001,17.92,-24.99,1729475931349.0,0.0
-3.192025,-9.702895,3.333202,-33.18,22.190001,-40.880001,1729475931368.0,0.0
-3.024528,-8.135597,3.316452,15.68,30.799999,-34.720001,1729475931390.0,0.0
-5.479564,-9.769895,3.751946,40.25,24.780001,-43.189999,1729475931409.0,0.0
-3.61077,-10.152746,4.206582,17.01,17.08,-66.639999,1729475931428.0,0.0
-1.624727,-6.953543,4.031906,39.759998,25.27,-45.639999,1729475931448.0,0.0
0.215354,-4.235296,6.774081,14.35,14.7,-62.439999,1729475931468.0,0.0
1.057628,-0.739382,4.98425,13.3,12.32,-18.129999,1729475931489.0,0.0
-3.503092,-3.534199,7.910671,7.21,-14.42,6.02,1729475931509.0,0.0
-3.457629,-5.197211,8.391629,-16.450001,-36.540001,40.810001,1729475931529.0,0.0
-2.22054,-4.06062,7.176075,3.36,-37.59,49.209999,1729475931551.0,0.0
-3.445665,-5.458029,3.991228,-14.49,-43.889999,70.279999,1729475931571.0,0.0
-4.682754,-9.427721,2.45025,-98.209999,-43.470001,63.279999,1729475931590.0,0.0
-3.007778,-13.184454,3.34038,-106.540001,-19.6,53.27,1729475931610.0,0.0
-3.756732,-13.234701,2.392823,-70.349998,5.67,27.51,1729475931630.0,0.0
-6.762117,-14.151153,1.715654,-20.58,21.42,3.15,1729475931649.0,0.0
-6.326623,-14.749359,2.368894,-1.33,28.139999,-31.08,1729475931670.0,0.0
-3.852444,-11.373087,0.859023,39.759998,40.950001,-48.02,1729475931691.0,0.0
-2.294717,-7.566105,3.378666,98.629997,41.23,-52.220001,1729475931714.0,0.0
-2.562713,-4.4674,6.106483,71.82,37.170002,-44.73,1729475931728.0,0.0
-1.392623,-5.493921,6.661618,6.09,30.799999,-45.779999,1729475931749.0,0.0
0.174676,-5.807381,5.465207,-70.769997,-3.29,-36.610001,1729475931769.0,0.0
0.007178,-4.76411,6.515656,-5.46,-10.78,-0.14,1729475931790.0,0.0
-1.825724,-6.616155,8.930015,22.469999,-24.85,8.54,1729475931810.0,0.0
-2.158326,-5.201996,5.54417,-9.38,-33.810001,24.360001,1729475931829.0,0.0
-1.718047,-5.678168,4.522435,-7.98,-34.650002,47.18,1729475931849.0,0.0
-4.151547,-9.513863,4.790431,20.51,-31.08,49.630001,1729475931873.0,0.0
-7.49432,-12.306287,4.278367,14.49,-30.59,42.77,1729475931890.0,0.0
-4.969893,-17.441284,5.706882,-15.75,-13.37,-0.77,1729475931909.0,0.0
-3.117848,-14.086546,3.895515,-43.400002,-6.72,-37.450001,1729475931930.0,0.0
-1.435694,-7.62114,3.383451,22.33,10.57,-39.830002,1729475931949.0,0.0
-2.443072,-5.900701,2.40718,36.400002,10.29,-37.029999,1729475931969.0,0.0
-4.618148,-8.99462,1.789831,-2.1,-2.87,-44.170002,1729475931991.0,0.0
-1.696511,-10.535598,2.624927,3.64,19.18,-53.900002,1729475932010.0,0.0
-2.282753,-9.863215,4.914857,21.77,23.59,-63.0,1729475932031.0,0.0
-0.272782,-3.680161,5.903094,32.830002,29.960001,-44.380001,1729475932050.0,0.0
0.315853,1.380659,4.17069,3.64,15.82,-26.32,1729475932070.0,0.0
-1.469193,-1.837688,6.551548,6.02,2.1,17.639999,1729475932091.0,0.0
-3.146562,-6.817152,8.075776,-27.23,-24.43,37.869999,1729475932111.0,0.0
-1.289732,-5.218746,5.051248,4.62,-27.58,67.760002,1729475932130.0,0.0
-1.282553,-5.690133,4.271189,14.98,-27.23,69.090004,1729475932149.0,0.0
-8.039884,-13.643874,1.715654,-35.700001,-27.23,67.550003,1729475932170.0,0.0
-4.383651,-19.128223,2.608176,-45.990002,-13.93,20.93,1729475932191.0,0.0
-2.737389,-14.624931,3.694518,13.23,23.799999,2.8,1729475932209.0,0.0
-2.979064,-8.173882,4.072584,43.889999,32.200001,-31.85,1729475932230.0,0.0
-2.416751,-5.340781,5.273781,36.889999,31.360001,-16.799999,1729475932248.0,0.0
-3.39063,-7.092326,6.242875,13.02,16.59,-22.4,1729475932269.0,0.0
-3.567699,-8.975478,5.742774,-27.02,-2.59,-25.200001,1729475932290.0,0.0
-3.046063,-10.212566,3.694518,-24.01,-2.1,-26.460001,1729475932309.0,0.0
-2.242075,-11.94497,3.9673,-30.380001,-1.89,-53.549999,1729475932329.0,0.0
-1.091127,-8.666803,3.364309,15.4,18.129999,-35.98,1729475932350.0,0.0
-1.536192,-4.95075,5.242674,50.82,27.02,-41.720001,1729475932369.0,0.0
-0.638884,-1.737189,6.029913,45.57,29.4,-11.34,1729475932390.0,0.0
-1.488336,-2.155933,7.709675,25.83,11.62,7.0,1729475932411.0,0.0
-4.192225,-5.010571,8.372486,-15.33,-16.799999,28.280001,1729475932429.0,0.0
-1.48355,-5.084748,6.372087,-22.82,-29.120001,51.73,1729475932448.0,0.0
-2.108077,-6.025128,4.855037,-10.08,-37.66,68.459999,1729475932470.0,0.0
-5.788238,-10.179067,3.522235,-42.490002,-42.490002,66.43,1729475932491.0,0.0
-5.694918,-13.46202,5.4006,-45.5,-36.82,60.830002,1729475932510.0,0.0
-3.979264,-13.998013,3.318845,-48.439999,-19.809999,21.84,1729475932529.0,0.0
-3.914658,-13.191631,1.055235,-29.75,-5.67,-2.94,1729475932549.0,0.0
-3.256632,-12.509676,0.90688,12.81,17.290001,-30.870001,1729475932570.0,0.0
-1.840081,-10.841879,2.677568,54.040001,37.380001,-37.450001,1729475932592.0,0.0
-1.844866,-9.176475,3.448057,60.27,44.099998,-48.02,1729475932611.0,0.0
-3.180061,-10.284351,3.550949,24.85,33.040001,-58.66,1729475932628.0,0.0
-1.282553,-8.575876,3.646662,15.33,32.900002,-72.940002,1729475932649.0,0.0
-0.827917,-4.034299,4.180261,59.990002,41.439999,-55.09,1729475932669.0,0.0
-1.524228,-0.784846,6.312266,48.509998,34.02,-38.290001,1729475932689.0,0.0
-2.813959,-0.636491,7.472785,12.6,12.04,-1.47,1729475932712.0,0.0
-5.206782,-3.823731,7.932207,-29.960001,-21.700001,18.690001,1729475932728.0,0.0
-2.919244,-5.546563,8.29113,-28.139999,-35.349998,44.099998,1729475932748.0,0.0
-3.481557,-6.518049,4.599005,7.7,-40.950001,56.700001,1729475932770.0,0.0
-5.441278,-8.65484,4.630112,-11.83,-28.139999,59.709999,1729475932789.0,0.0
-5.13739,-13.000205,5.716454,-29.960001,-15.4,44.380001,1729475932809.0,0.0
-4.103691,-12.658032,4.335794,-45.009998,-5.95,5.11,1729475932829.0,0.0
-3.115455,-11.507084,2.720639,-30.24,7.07,-8.33,1729475932848.0,0.0
-1.550549,-10.145569,3.261417,-7.28,15.68,-22.26,1729475932870.0,0.0
-1.021735,-8.298308,4.847858,19.110001,19.110001,-16.66,1729475932892.0,0.0
-2.952743,-9.190832,4.649254,8.4,5.88,-26.67,1729475932909.0,0.0
-2.07697,-10.731809,4.945964,-21.139999,-5.18,-42.84,1729475932976.0,0.0
-1.028914,-8.669197,2.452643,-34.369999,-11.06,-51.240002,1729475932976.0,0.0
-2.510071,-2.409572,3.768696,22.190001,-7.28,-23.030001,1729475932977.0,0.0
-3.517449,-3.098706,8.556733,47.389999,-4.76,2.8,1729475932999.0,0.0
-3.402594,-4.297509,7.9346,-76.440002,-42.84,9.45,1729475933027.0,0.0
-4.453043,-7.932207,6.912865,-157.220001,-74.129997,26.74,1729475933029.0,0.0
-4.297509,-9.162118,6.290731,-189.0,-97.650002,19.460001,1729475933072.0,0.0
-3.311667,-8.626125,7.707282,-128.729996,-114.099998,35.77,1729475933080.0,0.0
-3.23031,-9.982857,7.24786,-57.400002,-117.669998,37.939999,1729475933087.0,0.0
-1.904687,-11.100305,2.167897,-113.260002,-115.43,9.1,1729475933108.0,0.0
-0.346959,-12.224932,-2.031506,-210.630005,-77.419998,-17.219999,1729475933150.0,0.0
0.581456,-13.794623,-4.067799,-177.240005,-27.23,-45.080002,1729475933151.0,0.0
0.557528,-15.297315,-3.486342,-107.800003,25.059999,-49.279999,1729475933180.0,0.0
0.638884,-12.875778,-3.103491,-10.01,65.169998,-60.130001,1729475933196.0,0.0
0.418744,-9.571291,-3.314059,49.91,94.779999,-65.590004,1729475933208.0,0.0
0.009571,-7.377072,-2.969493,33.670002,112.770004,-67.690002,1729475933229.0,0.0
-0.612563,-6.843473,-0.653241,-2.8,121.870003,-59.779999,1729475933248.0,0.0
-0.722632,-5.52742,1.76351,-21.559999,118.580002,-44.59,1729475933269.0,0.0
-2.120041,-5.627919,2.629712,-24.360001,99.470001,-23.379999,1729475933289.0,0.0
-2.459821,-4.98425,5.149354,49.0,68.599998,-2.31,1729475933310.0,0.0
-1.741975,-3.261417,9.406186,113.120003,24.639999,30.73,1729475933329.0,0.0
-1.153341,-1.758725,8.62134,49.0,-9.31,46.34,1729475933349.0,0.0
-0.899701,-4.740182,6.427122,-49.84,-58.170002,72.800003,1729475933369.0,0.0
-2.282753,-9.085547,1.428515,-128.729996,-89.040001,93.870003,1729475933390.0,0.0
-5.558527,-16.302301,-4.175476,-178.919998,-78.68,63.77,1729475933411.0,0.0
-5.242674,-18.623339,-5.87438,-61.18,-57.889999,24.219999,1729475933429.0,0.0
-4.409972,-13.404593,-2.35693,65.660004,38.779999,0.28,1729475933450.0,0.0
-3.993621,-8.226524,1.29691,42.98,63.630001,-15.33,1729475933470.0,0.0
-2.041078,-9.202796,2.337788,-14.98,57.119999,-17.92,1729475933492.0,0.0
-1.840081,-10.222138,-0.717847,-110.25,45.150002,-34.860001,1729475933509.0,0.0
-2.282753,-10.928021,-1.866402,-98.209999,33.950001,-27.51,1729475933529.0,0.0
-1.392623,-14.045869,-0.758525,5.39,37.240002,-35.349998,1729475933551.0,0.0
-1.820938,-10.542776,-0.90688,29.540001,41.299999,-51.029999,1729475933570.0,0.0
-2.244468,-9.183653,2.199004,24.43,38.150002,-69.860001,1729475933591.0,0.0
-1.07677,-5.158926,4.567898,-31.5,10.22,-71.400002,1729475933611.0,0.0
1.921437,-2.706282,4.208975,-25.969999,-26.67,-55.02,1729475933629.0,0.0
2.273181,-3.596412,3.498307,-8.26,-48.650002,-7.14,1729475933755.0,0.0
1.301696,-3.912265,0.086142,2.38,-54.459999,30.73,1729475933755.0,0.0
0.739382,-4.352544,-1.658226,7.21,-54.040001,64.400002,1729475933755.0,0.0
-2.132005,-11.8349,-1.493121,20.02,-35.98,97.650002,1729475933756.0,0.0
-4.718646,-15.364313,-0.90688,0.77,-22.26,79.099998,1729475933756.0,0.0
-5.852845,-17.678173,-0.660419,-12.95,-15.61,55.580002,1729475933757.0,0.0
-4.211368,-13.674981,-5.036892,-45.849998,-2.8,16.379999,1729475933769.0,0.0
-3.962514,-13.744373,-4.003192,-10.85,22.4,0.49,1729475933793.0,0.0
-4.441079,-14.869,-1.9669,10.43,41.860001,-25.9,1729475933809.0,0.0
-3.524628,-11.748759,-0.751346,-9.38,46.619999,-57.540001,1729475933829.0,0.0
-1.741975,-10.447062,-0.457029,4.41,49.0,-61.740002,1729475933849.0,0.0
-0.555135,-6.472585,0.784846,-15.26,39.900002,-73.290001,1729475933870.0,0.0
0.679562,-4.953143,4.383651,7.35,30.66,-54.32,1729475933891.0,0.0
1.177269,-3.302095,5.340781,-3.99,1.61,-38.990002,1729475933914.0,0.0
0.641276,-5.632704,5.288138,-12.25,-28.84,-1.89,1729475933930.0,0.0
-0.007178,-4.876573,3.067599,-37.869999,-56.279999,14.35,1729475933950.0,0.0
-0.105284,-4.0008,0.672383,-7.0,-65.519997,50.330002,1729475933971.0,0.0
-1.344766,-7.458428,-0.619741,0.14,-61.810001,76.440002,1729475933992.0,0.0
-2.782853,-11.23191,-3.677768,-24.5,-63.0,87.220001,1729475934010.0,0.0
-6.13759,-17.682961,-4.35733,-45.849998,-53.130001,71.610001,1729475934030.0,0.0
-6.329016,-17.120646,-5.924629,-40.18,-16.940001,36.82,1729475934050.0,0.0
-3.816552,-11.9689,-4.917251,-8.4,42.91,-22.049999,1729475934070.0,0.0
-2.964707,-13.060026,-1.0002,26.040001,57.330002,-35.07,1729475934092.0,0.0
-2.428715,-11.619547,-1.079163,-27.02,53.130001,-62.790001,1729475934110.0,0.0
-1.395016,-9.24826,-1.545763,-25.969999,51.59,-61.389999,1729475934129.0,0.0
-0.251246,-7.482357,-0.739382,10.22,55.720001,-55.860001,1729475934150.0,0.0
0.031107,-6.240481,2.225325,33.110001,55.02,-50.959999,1729475934171.0,0.0
-0.531207,-4.297509,5.996413,20.440001,35.209999,-36.889999,1729475934190.0,0.0
0.641276,-4.931608,5.546563,0.14,-18.549999,-18.83,1729475934210.0,0.0
0.825524,-4.534399,3.275774,-43.259998,-57.049999,6.23,1729475934229.0,0.0
0.746561,-4.283153,0.401994,-28.559999,-74.340004,41.16,1729475934251.0,0.0
-0.267996,-5.639884,-1.823331,-12.04,-73.779999,68.669998,1729475934270.0,0.0
-2.691926,-9.755538,-3.809374,-20.370001,-68.25,85.190002,1729475934290.0,0.0
-5.862415,-15.845272,-6.537192,-20.440001,-51.099998,88.059998,1729475934311.0,0.0
-7.453642,-20.121246,-6.051448,-32.830002,-29.190001,42.139999,1729475934329.0,0.0
-5.130211,-16.855042,-6.936793,-10.85,11.97,12.32,1729475934350.0,0.0
-3.567699,-13.083955,-2.517249,28.42,56.84,-22.68,1729475934370.0,0.0
-2.663212,-12.220145,-0.473779,62.299999,67.059998,-62.650002,1729475934392.0,0.0
-1.789831,-10.348958,-1.002593,12.46,52.849998,-64.68,1729475934410.0,0.0
-1.148555,-7.491928,-0.524028,26.25,55.860001,-72.519997,1729475934429.0,0.0
-1.004985,-6.814759,0.370888,61.25,50.889999,-55.790001,1729475934450.0,0.0
-0.660419,-6.321837,3.299703,67.830002,39.549999,-56.420002,1729475934469.0,0.0
-1.835295,-4.134798,5.158926,14.07,12.74,-40.389999,1729475934492.0,0.0
-0.61017,-3.828516,5.015356,0.7,-30.24,-13.09,1729475934510.0,0.0
0.648455,-3.359523,3.78066,-27.09,-68.18,13.72,1729475934530.0,0.0
1.392623,-2.699104,0.856631,-24.290001,-84.139999,52.57,1729475934550.0,0.0
0.863809,-4.587041,-2.132005,-10.15,-80.989998,93.800003,1729475934571.0,0.0
-2.163112,-12.667603,-3.345166,-55.720001,-72.239998,104.230003,1729475934590.0,0.0
-7.054041,-24.074188,-4.699504,-61.950001,-48.439999,82.879997,1729475934611.0,0.0
-5.788238,-18.96312,-6.936793,-8.75,-11.06,45.080002,1729475934630.0,0.0
-5.340781,-13.490734,-5.285746,43.189999,47.740002,2.73,1729475934651.0,0.0
-5.28096,-13.191631,-2.239682,27.719999,66.57,-28.139999,1729475934670.0,0.0
-3.048456,-12.55514,-1.155733,-18.549999,54.599998,-67.690002,1729475934691.0,0.0
-1.959722,-11.904292,-1.98365,-7.42,52.709999,-64.260002,1729475934712.0,0.0
-0.62692,-7.769495,-0.681954,77.07,59.920002,-67.059998,1729475934729.0,0.0
-0.208176,-5.082355,2.120041,78.190002,52.920002,-70.910004,1729475934749.0,0.0
-1.627119,-4.496114,6.771688,31.5,35.630001,-53.830002,1729475934770.0,0.0
0.79681,-3.06042,4.898108,-25.48,-18.48,-42.420002,1729475934791.0,0.0
1.785046,-3.78066,4.448257,-32.830002,-52.360001,-2.59,1729475934810.0,0.0
1.20359,-2.938386,0.866202,-27.51,-71.610001,32.970001,1729475934829.0,0.0
0.021535,-4.051049,-2.445465,-18.34,-71.889999,72.029999,1729475934850.0,0.0
-2.237289,-11.877973,-3.98405,-48.02,-63.0,88.199997,1729475934870.0,0.0
-4.194618,-16.543976,-8.126025,-66.5,-50.75,74.199997,1729475934892.0,0.0
-6.168696,-20.508883,-3.65384,-17.85,-15.82,54.459999,1729475934910.0,0.0
-5.508278,-15.802199,-5.35753,5.04,23.59,7.56,1729475934931.0,0.0
-4.838287,-12.619746,-4.055835,6.23,45.360001,-26.389999,1729475934950.0,0.0
-3.921836,-13.103097,-2.074577,0.63,45.080002,-61.18,1729475934969.0,0.0
-2.486143,-11.693724,-1.622334,-5.6,43.610001,-73.150002,1729475934991.0,0.0
-1.600798,-8.303094,-0.636491,21.559999,48.299999,-76.230003,1729475935010.0,0.0
-0.064606,-5.556134,1.540978,60.549999,45.709999,-75.529999,1729475935030.0,0.0
0.349352,-1.366302,5.718846,53.619999,37.029999,-57.119999,1729475935049.0,0.0
1.667797,-2.708675,4.37408,-4.48,-10.78,-9.52,1729475935070.0,0.0
1.036092,-4.910072,2.995814,-38.920002,-44.869999,25.620001,1729475935090.0,0.0
0.964308,-5.008178,0.854238,-16.799999,-63.209999,57.82,1729475935110.0,0.0
0.351745,-6.345766,-2.498107,-12.53,-70.840004,89.389999,1729475935129.0,0.0
-2.222932,-13.892728,-3.292524,-61.389999,-72.099998,88.480003,1729475935150.0,0.0
-4.902894,-17.142181,-8.066205,-52.57,-48.369999,78.82,1729475935170.0,0.0
-7.228717,-20.133211,-5.120641,23.030001,-2.45,54.529999,1729475935191.0,0.0
-6.690332,-16.268801,-3.883551,39.830002,37.939999,-0.84,1729475935209.0,0.0
-4.565506,-12.416357,-2.567499,32.060001,56.490002,-32.130001,1729475935238.0,0.0
-2.883351,-12.246466,-1.232304,-3.64,55.790001,-75.459999,1729475935250.0,0.0
-1.667797,-11.023734,-1.701297,-21.629999,50.540001,-71.75,1729475935270.0,0.0
-0.425922,-8.537591,0.232104,31.290001,52.080002,-77.279999,1729475935291.0,0.0
-0.59342,-6.893722,0.909273,74.830002,53.900002,-61.810001,1729475935310.0,0.0
-0.157926,-5.941379,3.134598,70.629997,44.170002,-67.199997,1729475935329.0,0.0
-0.856631,-4.515256,5.771489,3.78,15.05,-50.049999,1729475935350.0,0.0
1.899901,-3.785445,4.218546,-16.940001,-47.740002,-14.91,1729475935370.0,0.0
1.423729,-2.677568,2.419144,-20.370001,-66.220001,21.700001,1729475935392.0,0.0
0.191426,-2.739782,-0.885344,-21.84,-74.900002,64.540001,1729475935410.0,0.0
-1.875973,-8.049455,-4.106083,-46.34,-66.220001,91.559998,1729475935430.0,0.0
-4.328616,-14.249258,-5.608776,-95.059998,-68.599998,82.599998,1729475935450.0,0.0
-3.964907,-18.070597,-9.150154,-37.310001,-27.65,82.669998,1729475935472.0,0.0
-4.587041,-20.915661,-5.398208,4.34,10.36,29.889999,1729475935503.0,0.0
-4.668397,-16.429121,-4.48415,11.48,42.349998,-13.72,1729475935511.0,0.0
-3.18724,-14.572289,-0.868595,59.080002,49.84,-49.279999,1729475935530.0,0.0
-3.067599,-12.203396,-1.916651,13.16,51.66,-87.220001,1729475935551.0,0.0
-2.105684,-9.662218,-0.579063,18.9,52.150002,-91.139999,1729475935572.0,0.0
0.22014,-5.778666,1.433301,77.279999,50.049999,-79.870003,1729475935593.0,0.0
1.196411,-2.292324,4.517649,97.580002,45.009998,-65.519997,1729475935611.0,0.0
0.239282,-0.150748,6.326623,42.209999,20.65,-36.049999,1729475935630.0,0.0
0.086142,-4.802395,3.730411,-9.8,-23.24,1.68,1729475935652.0,0.0
0.090927,-5.326423,1.036092,-68.529999,-68.110001,41.02,1729475935671.0,0.0
0.138784,-5.388636,-1.28016,-10.36,-67.620003,79.379997,1729475935692.0,0.0
-0.949951,-8.889337,-3.113062,-1.12,-58.029999,95.550003,1729475935717.0,0.0
-3.110669,-13.91187,-4.498507,-55.790001,-59.920002,85.190002,1729475935730.0,0.0
-5.134997,-21.030519,-4.859823,-39.900002,-29.82,84.0,1729475935750.0,0.0
-5.630312,-21.74597,-4.302295,-29.610001,-3.29,25.200001,1729475935771.0,0.0
-4.546363,-14.189439,-3.749553,13.09,29.469999,-21.42,1729475935801.0,0.0
-3.397808,-12.318252,-1.543371,48.16,48.720001,-47.18,1729475935812.0,0.0
-2.579463,-9.77468,-1.445265,-10.15,50.189999,-74.970001,1729475935831.0,0.0
-1.325624,-9.406186,0.387637,-7.49,47.459999,-62.790001,1729475935852.0,0.0
-0.507278,-6.343372,1.490728,5.6,45.360001,-61.25,1729475935871.0,0.0
-0.251246,-5.388636,3.034099,41.23,32.130001,-45.5,1729475935892.0,0.0
0.131605,-3.751946,4.084548,31.99,12.04,-34.439999,1729475935911.0,0.0
-0.014357,-4.737789,3.37388,-15.82,-20.719999,-9.59,1729475935931.0,0.0
-0.035892,-7.302894,1.619941,-57.049999,-53.41,6.44,1729475935956.0,0.0
0.658026,-6.211767,-0.272782,-44.170002,-70.209999,30.940001,1729475935971.0,0.0
0.583849,-5.266603,-3.696911,5.18,-63.490002,60.619999,1729475935993.0,0.0
-2.218147,-10.13839,-4.98425,28.07,-31.290001,94.5,1729475936012.0,0.0
-5.864808,-16.883757,-5.611169,25.200001,-8.26,82.110001,1729475936030.0,0.0
-6.558727,-21.844078,1.258625,26.809999,-8.26,41.93,1729475936050.0,0.0
-3.014957,-14.419148,-2.569891,-18.27,1.33,-6.44,1729475936072.0,0.0
-1.849652,-11.028521,-3.019742,-12.25,21.77,-29.540001,1729475936095.0,0.0
-2.098505,-11.107484,-2.842674,-45.57,35.98,-48.93,1729475936111.0,0.0
-1.497907,-11.909079,-3.675375,-55.299999,41.650002,-53.060001,1729475936131.0,0.0
-0.949951,-11.45205,-1.820938,6.65,54.529999,-53.200001,1729475936151.0,0.0
-1.01695,-7.958528,-1.366302,62.93,65.449997,-55.580002,1729475936171.0,0.0
-1.074377,-6.874579,2.78046,108.919998,59.150002,-48.650002,1729475936192.0,0.0
-1.024128,-4.500899,5.716454,73.919998,38.849998,-42.91,1729475936211.0,0.0
-1.17009,-4.855037,7.046863,1.75,-2.45,-25.41,1729475936230.0,0.0
-0.236889,-6.455836,2.402394,-69.510002,-53.34,-16.66,1729475936251.0,0.0
0.418744,-6.704689,0.064606,-60.760002,-69.580002,13.16,1729475936270.0,0.0
0.691526,-5.455636,-1.744368,-19.32,-68.32,39.130001,1729475936291.0,0.0
0.418744,-5.005785,-3.787838,-0.98,-53.619999,60.060001,1729475936313.0,0.0
-2.158326,-11.100305,-6.192625,0.84,-35.279999,86.449997,1729475936331.0,0.0
-5.814559,-18.850657,-1.57687,19.6,8.33,83.720001,1729475936350.0,0.0
-6.563512,-20.243279,-0.29671,-30.870001,5.67,20.440001,1729475936371.0,0.0
-3.988836,-14.002798,-3.567699,-46.900002,17.5,-14.7,1729475936392.0,0.0
-3.036492,-12.117253,-3.510271,-20.58,34.790001,-45.920002,1729475936411.0,0.0
-2.897708,-10.906486,-2.778067,-33.25,47.599998,-59.010002,1729475936430.0,0.0
-1.861616,-11.31805,-1.01695,-7.84,47.810001,-55.02,1729475936450.0,0.0
-1.275374,-9.018548,-0.315853,22.120001,48.439999,-61.040001,1729475936470.0,0.0
-1.493121,-7.183254,0.440279,58.52,47.740002,-51.869999,1729475936493.0,0.0
-0.947558,-6.149554,3.416951,71.82,29.26,-54.32,1729475936511.0,0.0
-1.009771,-5.292924,4.661219,23.799999,7.0,-37.450001,1729475936530.0,0.0
-0.744168,-5.611169,3.775874,-41.439999,-32.130001,-29.120001,1729475936551.0,0.0
-0.004786,-6.367301,1.009771,-55.860001,-62.23,-10.15,1729475936570.0,0.0
0.62692,-4.85743,-0.942772,-18.9,-67.199997,23.940001,1729475936591.0,0.0
1.148555,-4.302295,-1.866402,19.6,-59.849998,52.290001,1729475936611.0,0.0
0.825524,-5.441278,-2.488536,26.6,-47.32,81.199997,1729475936630.0,0.0
-1.919044,-11.212767,1.497907,31.08,-37.52,107.590004,1729475936651.0,0.0
-4.728218,-18.288343,-2.191825,-71.260002,-59.360001,53.970001,1729475936670.0,0.0
-3.926622,-17.269001,-5.661418,-69.650002,-36.75,32.970001,1729475936692.0,0.0
-2.536392,-13.306486,-6.678369,-37.450001,-1.4,-9.31,1729475936715.0,0.0
-2.67039,-11.160125,-4.302295,0.28,32.689999,-7.35,1729475936730.0,0.0
-2.878566,-9.966106,-2.754139,-7.98,49.560001,-20.51,1729475936750.0,0.0
-3.18724,-10.923235,-2.380858,-42.139999,52.080002,-32.689999,1729475936774.0,0.0
-2.232504,-11.717653,-2.648855,-38.080002,44.029999,-38.080002,1729475936791.0,0.0
-1.043271,-10.69831,-2.009971,-2.38,44.310001,-46.900002,1729475936810.0,0.0
-0.863809,-7.204789,-2.440679,11.83,50.049999,-50.049999,1729475936830.0,0.0
-1.990828,-6.118448,0.942772,21.42,48.509998,-38.920002,1729475936850.0,0.0
-1.196411,-6.252446,4.297509,44.170002,20.16,-24.43,1729475936870.0,0.0
-0.760918,-6.068198,7.518249,33.25,-6.58,-11.62,1729475936891.0,0.0
-1.438086,-5.60399,3.89073,-28.98,-47.32,-6.02,1729475936912.0,0.0
-0.579063,-6.948757,-0.468993,-38.360001,-74.269997,12.74,1729475936931.0,0.0
0.464208,-5.972485,-3.493521,-10.43,-74.970001,40.110001,1729475936950.0,0.0
-0.485743,-9.836893,-5.302495,45.5,-50.330002,74.830002,1729475936972.0,0.0
-4.800002,-20.078175,-1.892723,10.99,-34.439999,42.84,1729475936991.0,0.0
-3.704089,-17.718851,-5.678168,-31.5,-19.530001,-4.41,1729475937010.0,0.0
-1.421337,-13.016955,-6.312266,3.36,10.08,-28.91,1729475937030.0,0.0
-0.646062,-10.786844,-4.974678,15.89,38.5,-40.810001,1729475937050.0,0.0
-1.148555,-10.131211,-4.220939,26.32,62.790001,-46.27,1729475937070.0,0.0
-1.246661,-9.927821,-2.598605,50.470001,73.290001,-50.470001,1729475937091.0,0.0
-1.122234,-9.702895,0.349352,77.279999,68.599998,-52.080002,1729475937111.0,0.0
-1.402194,-7.226324,0.320638,76.090004,59.080002,-55.23,1729475937130.0,0.0
-1.581656,-4.74736,0.880559,52.220001,50.330002,-52.220001,1729475937151.0,0.0
0.083749,-4.761717,2.462214,76.580002,30.52,-29.049999,1729475937171.0,0.0
-1.404587,-5.82413,6.838687,42.349998,17.01,-7.14,1729475937193.0,0.0
-2.304288,-6.489335,5.048856,-29.26,-13.58,-1.12,1729475937211.0,0.0
-1.921437,-7.415358,1.899901,-64.190002,-41.369999,22.33,1729475937229.0,0.0
-1.141376,-8.135597,0.457029,-67.199997,-62.720001,40.110001,1729475937251.0,0.0
-0.37328,-7.802995,-0.787239,-43.75,-66.57,49.77,1729475937279.0,0.0
-0.380459,-9.370294,-3.318845,-23.1,-55.720001,55.16,1729475937291.0,0.0
-1.20359,-11.306087,-7.211967,-42.630001,-50.400002,49.349998,1729475937310.0,0.0
-3.156133,-15.594026,-3.180061,20.51,-12.74,57.959999,1729475937333.0,0.0
-3.778267,-14.615361,-0.868595,22.82,19.809999,14.28,1729475937350.0,0.0
-3.122634,-13.646267,-2.275574,-45.639999,15.96,-23.73,1729475937370.0,0.0
-1.531406,-12.504892,-3.156133,-56.209999,20.370001,-39.41,1729475937392.0,0.0
-1.079163,-11.133803,-3.426522,-50.610001,34.09,-51.450001,1729475937410.0,0.0
-1.318445,-11.109876,-3.041277,-46.41,48.509998,-57.75,1729475937430.0,0.0
-0.464208,-8.671589,-1.998007,-8.75,53.689999,-59.080002,1729475937450.0,0.0
-0.605384,-7.436893,-0.397209,68.459999,60.689999,-44.380001,1729475937471.0,0.0
-0.981057,-5.826523,4.029513,132.020004,47.950001,-28.700001,1729475937491.0,0.0
-1.529014,-4.031906,5.190032,85.400002,28.700001,-21.700001,1729475937511.0,0.0
-1.787439,-5.156533,5.381458,-8.61,-9.87,-8.47,1729475937530.0,0.0
-1.143769,-6.903293,2.368894,-107.730003,-53.41,2.8,1729475937551.0,0.0
-0.555135,-8.977871,-1.880759,-121.449997,-70.139999,19.530001,1729475937572.0,0.0
0.5001,-9.399008,-4.012764,-66.639999,-60.130001,34.93,1729475937601.0,0.0
0.177069,-9.702895,-4.223332,-6.65,-38.779999,51.450001,1729475937611.0,0.0
-1.48355,-12.021541,-3.574877,29.68,-3.99,46.759998,1729475937631.0,0.0
-1.806581,-12.263215,-0.658026,38.080002,4.83,38.920002,1729475937652.0,0.0
-1.715654,-11.980864,1.124627,9.38,-4.13,20.65,1729475937671.0,0.0
-1.294517,-10.755738,-0.748954,-22.4,-17.780001,7.28,1729475937693.0,0.0
-1.354338,-9.578469,-2.053042,-16.52,-16.73,8.33,1729475937716.0,0.0
-1.440479,-9.059227,-2.474179,1.33,-11.62,9.73,1729475937732.0,0.0
-2.033899,-9.652647,-2.861816,10.43,-4.27,14.77,1729475937752.0,0.0
-3.050849,-10.911271,-2.756532,5.81,6.09,7.35,1729475937772.0,0.0
-3.792624,-11.531013,-1.911865,6.09,13.51,0.77,1729475937792.0,0.0
-3.735196,-11.4018,-0.981057,17.710001,15.75,-8.61,1729475937813.0,0.0
-3.359523,-9.946963,-0.232104,20.51,15.89,-15.47,1729475937831.0,0.0
-3.086741,-9.164511,-0.614955,-7.7,13.23,-21.35,1729475937852.0,0.0
-3.337988,-10.889735,-1.928615,-36.75,7.56,-29.889999,1729475937872.0,0.0
-2.541178,-13.502698,-2.849852,1.26,3.71,-38.360001,1729475937893.0,0.0
-1.945365,-10.674382,-0.894916,87.5,17.85,-38.290001,1729475937977.0,0.0
-1.17009,-9.77468,-0.344566,119.910004,24.639999,-46.689999,1729475937977.0,0.0
-0.241675,-10.085747,-0.533599,95.970001,16.59,-43.259998,1729475937978.0,0.0
0.658026,-10.320245,-0.11007,109.830002,22.4,-35.77,1729475937978.0,0.0
1.172483,-9.245867,-0.153141,120.470001,30.52,-39.130001,1729475937997.0,0.0
1.055235,-8.075776,0.488136,119.559998,42.0,-38.709999,1729475938012.0,0.0
0.959522,-7.427321,1.143769,107.520004,49.91,-34.16,1729475938032.0,0.0
0.902094,-7.721639,2.550749,105.209999,56.700001,-20.09,1729475938052.0,0.0
1.416551,-6.71426,3.218346,107.029999,63.700001,-14.63,1729475938072.0,0.0
1.646262,-5.891129,3.007778,103.879997,70.0,-10.36,1729475938093.0,0.0
1.89033,-5.529813,1.222732,84.910004,79.519997,0.14,1729475938112.0,0.0
0.981057,-6.680761,1.404587,70.0,88.199997,22.960001,1729475938131.0,0.0
-0.504886,-5.855237,3.275774,112.349998,77.07,56.560001,1729475938153.0,0.0
-2.902494,-4.54397,9.930215,209.860001,61.18,96.879997,1729475938172.0,0.0
-4.929214,-10.521241,11.332408,163.869995,-9.87,83.230003,1729475938193.0,0.0
-4.074977,-14.99582,6.946364,56.560001,-49.77,53.060001,1729475938213.0,0.0
-3.17049,-15.072391,3.751946,14.0,-43.330002,51.029999,1729475938232.0,0.0
-3.651447,-12.260822,3.168097,13.51,-52.009998,23.030001,1729475938251.0,0.0
-3.134598,-10.188639,1.892723,5.46,-1.82,-30.870001,1729475938273.0,0.0
-2.146362,-13.316057,1.835295,-54.950001,16.66,-59.290001,1729475938294.0,0.0
-0.504886,-11.906685,2.270789,-72.239998,40.459999,-79.660004,1729475938312.0,0.0
0.057428,-10.080962,0.803988,-64.75,74.900002,-96.18,1729475938331.0,0.0
0.301496,-7.006185,1.904687,-133.490005,81.059998,-102.480003,1729475938352.0,0.0
0.181855,-7.929814,6.125626,-57.049999,77.559998,-64.470001,1729475938372.0,0.0
1.311267,-3.474378,8.705089,112.629997,62.02,-42.98,1729475938393.0,0.0
0.31346,1.832902,8.228917,192.779999,36.75,-10.78,1729475938412.0,0.0
-0.835095,3.562913,7.499106,111.720001,-4.55,35.279999,1729475938431.0,0.0
-2.07697,-1.643869,5.785845,-48.580002,-40.880001,78.68,1729475938451.0,0.0
-4.268795,-11.887544,3.019742,-139.930008,-76.720001,81.830002,1729475938472.0,0.0
-6.618547,-21.688545,2.651247,-71.82,-79.940002,56.98,1729475938493.0,0.0
-3.464807,-17.156538,2.313859,15.68,-41.299999,18.200001,1729475938512.0,0.0
-3.04367,-11.782259,1.706082,57.959999,-5.74,-0.28,1729475938532.0,0.0
-1.28016,-11.222338,2.85703,40.040001,20.370001,-42.0,1729475938551.0,0.0
-1.957329,-10.49492,5.455636,18.34,27.93,-45.5,1729475938572.0,0.0
-1.646262,-6.283553,5.455636,-20.58,35.630001,-64.610001,1729475938593.0,0.0
-0.689133,-4.773681,3.395415,-98.0,41.439999,-64.75,1729475938612.0,0.0
0.569492,-6.89133,1.928615,-181.789993,26.460001,-62.650002,1729475938631.0,0.0
2.610569,-9.597611,2.40718,-169.960007,11.62,-45.709999,1729475938653.0,0.0
2.938386,-6.489335,3.909872,41.16,29.82,-5.67,1729475938671.0,0.0
1.923829,-1.115055,6.147161,145.809998,24.43,-1.05,1729475938693.0,0.0
-0.698704,-1.071985,6.76451,91.139999,0.28,31.01,1729475938716.0,0.0
-0.485743,-4.692325,4.634897,-39.689999,-38.220001,54.529999,1729475938731.0,0.0
-0.088534,-9.559326,3.220739,-63.700001,-51.52,81.410004,1729475938751.0,0.0
-4.886144,-15.034104,4.273581,13.09,-50.189999,83.230003,1729475938772.0,0.0
-6.833901,-19.144974,3.67059,5.39,-61.740002,21.280001,1729475938793.0,0.0
-3.964907,-17.994026,0.617348,-6.86,-33.040001,6.02,1729475938812.0,0.0
-2.56032,-13.165311,0.662812,61.389999,5.25,-26.18,1729475938831.0,0.0
-3.333202,-9.58804,3.163311,87.080002,27.16,-56.279999,1729475938851.0,0.0
-2.586641,-7.525427,4.161119,67.620003,46.34,-61.529999,1729475938872.0,0.0
-1.584049,-4.431508,4.876573,-15.82,51.799999,-60.760002,1729475938893.0,0.0
0.043071,-4.445865,6.168696,-104.720001,42.98,-45.920002,1729475938911.0,0.0
2.713461,-8.300702,4.055835,-171.779999,4.97,-23.17,1729475938932.0,0.0
2.701497,-7.097112,2.991028,-83.440002,0.07,-12.81,1729475938952.0,0.0
1.447658,-3.742374,3.017349,34.720001,4.27,8.05,1729475938972.0,0.0
0.717847,-2.773281,3.76391,70.699997,-2.1,33.950001,1729475938993.0,0.0
0.811167,-4.587041,4.886144,16.17,-24.5,64.260002,1729475939012.0,0.0
-0.428315,-9.322437,4.807181,-25.83,-38.080002,79.660004,1729475939031.0,0.0
-4.603791,-15.35235,4.24726,-20.16,-48.860001,70.489998,1729475939051.0,0.0
-6.386444,-20.212173,2.282753,-10.15,-57.889999,31.92,1729475939072.0,0.0
-4.046263,-17.50589,1.524228,33.459999,-32.900002,9.45,1729475939092.0,0.0
-3.18724,-11.662617,1.31366,70.349998,-5.11,-27.23,1729475939113.0,0.0
-2.62732,-9.858429,2.689533,62.369999,10.43,-47.529999,1729475939131.0,0.0
-2.057827,-8.463413,4.311867,33.880001,23.450001,-52.220001,1729475939152.0,0.0
-1.65344,-6.075377,4.515256,-27.65,31.290001,-55.16,1729475939171.0,0.0
-1.148555,-5.778666,3.17049,-122.919998,35.91,-59.220001,1729475939192.0,0.0
0.768096,-8.054241,2.09372,-204.680008,13.37,-48.369999,1729475939213.0,0.0
3.601198,-9.901501,0.452243,-148.889999,8.96,-28.280001,1729475939231.0,0.0
3.091527,-4.091727,3.239882,38.43,30.17,-5.88,1729475939252.0,0.0
0.744168,-1.634298,5.62074,146.440002,33.110001,18.620001,1729475939271.0,0.0
-1.294517,-3.182454,6.577869,50.68,3.29,44.310001,1729475939292.0,0.0
-1.079163,-6.920043,4.991428,-43.68,-36.049999,63.77,1729475939313.0,0.0
-1.74676,-10.490135,3.87398,-17.15,-51.029999,83.160004,1729475939331.0,0.0
-5.520242,-15.586846,3.948158,16.940001,-62.299999,69.160004,1729475939352.0,0.0
-6.142376,-18.281166,1.684547,-7.77,-64.190002,27.23,1729475939372.0,0.0
-3.254239,-15.38585,-0.629312,18.34,-27.440001,14.77,1729475939392.0,0.0
-2.400001,-12.370893,0.971486,36.470001,7.84,-23.379999,1729475939411.0,0.0
-2.679961,-11.576476,2.567499,31.290001,28.210001,-45.849998,1729475939432.0,0.0
-1.789831,-9.159724,3.596412,22.960001,45.990002,-49.91,1729475939451.0,0.0
-0.954736,-6.06102,2.526821,-69.090004,51.52,-56.700001,1729475939471.0,0.0
-0.031107,-6.501299,0.753739,-178.919998,36.610001,-55.09,1729475939493.0,0.0
2.589034,-10.762917,1.038485,-134.680008,21.210001,-28.0,1729475939512.0,0.0
3.771089,-7.348359,2.541178,38.080002,38.639999,-18.34,1729475939532.0,0.0
1.931008,-1.663012,5.328816,158.550003,37.59,-2.03,1729475939551.0,0.0
-0.521635,-0.782453,6.635297,126.699997,19.6,21.700001,1729475939571.0,0.0
-1.371087,-6.513263,4.273581,-18.76,-28.42,50.119999,1729475939592.0,0.0
-1.816152,-11.916256,3.306881,-69.160004,-64.889999,74.410004,1729475939612.0,0.0
-5.149354,-16.754543,4.084548,7.98,-70.489998,62.23,1729475939631.0,0.0
-5.737988,-18.472591,2.744568,25.059999,-72.309998,20.93,1729475939652.0,0.0
-3.139383,-15.046068,0.083749,23.870001,-44.099998,1.33,1729475939671.0,0.0
-2.682354,-11.875579,0.705883,21.98,-12.25,-30.24,1729475939693.0,0.0
-2.79721,-10.518847,2.359323,23.799999,16.24,-51.869999,1729475939717.0,0.0
-2.165504,-7.69771,3.57727,-22.68,35.349998,-55.650002,1729475939731.0,0.0
-0.90688,-6.302694,2.469393,-114.029999,40.880001,-54.110001,1729475939750.0,0.0
1.136591,-6.91765,0.088534,-190.820007,20.370001,-50.470001,1729475939772.0,0.0
3.617948,-10.186246,-0.246461,-99.540001,26.6,-19.6,1729475939792.0,0.0
3.964907,-6.252446,3.098706,58.240002,43.959999,-11.27,1729475939811.0,0.0
1.519442,-2.065006,5.551349,136.080002,43.400002,4.06,1729475939832.0,0.0
-0.191426,-1.725225,6.647261,82.809998,17.08,25.41,1729475939851.0,0.0
-0.583849,-5.221139,5.455636,-20.65,-30.450001,57.540001,1729475939871.0,0.0
-1.294517,-9.844072,4.113262,-45.290001,-54.599998,71.120003,1729475939896.0,0.0
-4.603791,-15.41935,3.364309,-0.21,-64.050003,69.860001,1729475939911.0,0.0
-6.372087,-18.156738,0.368495,19.6,-60.27,22.889999,1729475939931.0,0.0
-4.103691,-14.397614,-0.270389,39.900002,-22.75,-1.05,1729475939951.0,0.0
-3.251846,-12.502499,1.270589,-0.42,1.26,-38.43,1729475939972.0,0.0
-2.699104,-10.80838,1.806581,-21.07,20.02,-55.02,1729475939993.0,0.0
-1.454836,-8.537591,3.046063,-28.139999,37.170002,-53.970001,1729475940011.0,0.0
-0.629312,-5.209175,0.665205,-120.889999,43.189999,-58.59,1729475940031.0,0.0
1.308874,-8.02792,-0.629312,-158.899994,29.68,-44.52,1729475940052.0,0.0
3.220739,-11.181661,1.22034,-56.91,38.779999,-17.57,1729475940072.0,0.0
3.261417,-5.970093,4.922036,103.879997,49.420002,-14.28,1729475940092.0,0.0
0.571885,-2.11047,6.628119,140.839996,36.75,-3.15,1729475940111.0,0.0
-0.693919,-1.847259,5.776274,53.900002,-2.03,20.370001,1729475940131.0,0.0
0.086142,-5.084748,3.34038,-41.580002,-47.459999,56.560001,1729475940151.0,0.0
-0.246461,-9.351151,2.589034,-35.139999,-59.150002,75.809998,1729475940171.0,0.0
-4.622933,-14.227723,3.909872,26.809999,-58.099998,76.720001,1729475940192.0,0.0
-7.546963,-17.946171,1.835295,-8.26,-77.910004,39.27,1729475940211.0,0.0
-5.048856,-17.225931,-2.299503,-64.120003,-51.869999,16.030001,1729475940230.0,0.0
-2.799603,-15.627523,-1.897508,-48.93,-8.19,-21.07,1729475940250.0,0.0
-2.282753,-11.380265,1.739582,94.220001,53.970001,-52.709999,1729475940272.0,0.0
-2.148755,-6.180661,2.172683,69.720001,64.889999,-60.130001,1729475940291.0,0.0
-0.923629,-5.982057,2.608176,-20.16,64.400002,-55.02,1729475940312.0,0.0
1.76351,-8.274381,3.694518,-113.82,37.170002,-49.700001,1729475940330.0,0.0
3.4672,-9.832108,2.959922,-63.91,31.01,-26.6,1729475940351.0,0.0
2.916851,-5.711668,4.405186,39.759998,28.280001,-27.370001,1729475940371.0,0.0
1.071985,-2.548356,4.905287,86.940002,21.07,-9.66,1729475940393.0,0.0
0.337388,-2.342573,4.630112,42.349998,-2.87,14.63,1729475940411.0,0.0
0.174676,-5.788238,3.479164,-23.1,-32.619999,47.810001,1729475940431.0,0.0
-0.859023,-9.812965,4.058227,-14.7,-42.84,64.959999,1729475940452.0,0.0
-4.338188,-12.894921,4.579862,32.549999,-46.34,65.379997,1729475940471.0,0.0
-6.326623,-16.074982,2.478964,20.51,-63.560001,42.209999,1729475940492.0,0.0
-4.431508,-15.481563,-0.251246,-6.44,-47.950001,22.68,1729475940511.0,0.0
-3.589234,-14.160725,-0.887737,21.629999,-18.549999,-2.45,1729475940531.0,0.0
-3.261417,-11.844472,0.289532,47.529999,10.57,-30.17,1729475940551.0,0.0
-2.727818,-9.561719,1.854438,48.23,33.389999,-35.630001,1729475940572.0,0.0
-1.502693,-8.360522,2.737389,-0.07,39.830002,-40.740002,1729475940592.0,0.0
-0.409173,-7.307681,-0.052642,-175.699997,37.869999,-54.18,1729475940611.0,0.0
2.567499,-10.648061,-0.753739,-176.610001,23.030001,-33.740002,1729475940631.0,0.0
4.046263,-11.114661,1.691726,-2.8,44.73,-12.88,1729475940652.0,0.0
2.70389,-4.814359,5.479564,145.320007,46.900002,-20.719999,1729475940671.0,0.0
0.363709,-1.09352,6.474977,134.050003,29.75,-8.12,1729475940691.0,0.0
-0.476172,-3.0006,6.963113,38.5,-13.72,23.309999,1729475940715.0,0.0
-0.468993,-6.865008,4.240082,-59.5,-57.75,50.330002,1729475940731.0,0.0
-1.284946,-10.82513,2.218147,-36.889999,-67.340004,61.18,1729475940757.0,0.0
-4.957928,-15.086747,1.801795,25.76,-59.639999,52.639999,1729475940770.0,0.0
-6.029913,-17.292929,0.717847,37.240002,-50.049999,25.200001,1729475940794.0,0.0
-3.969693,-15.19203,-0.988236,-3.22,-22.610001,3.71,1729475940812.0,0.0
-2.639283,-14.239687,-0.074178,-23.73,1.19,-24.99,1729475940831.0,0.0
-2.112862,-12.172288,1.428515,8.54,28.139999,-45.990002,1729475940851.0,0.0
-2.26361,-7.597212,1.174876,-11.76,51.099998,-62.23,1729475940871.0,0.0
-1.832902,-6.072984,0.916451,-94.5,59.57,-59.5,1729475940891.0,0.0
2.986243,-10.719845,2.258825,-122.360001,30.59,-44.450001,1729475940911.0,0.0
4.21376,-5.74756,4.661219,52.360001,43.68,-20.16,1729475940931.0,0.0
2.29711,-1.182054,6.398407,137.410004,38.43,-5.32,1729475940951.0,0.0
-0.524028,-1.462015,6.652047,93.519997,15.05,20.16,1729475940971.0,0.0
-1.789831,-5.383851,4.603791,-24.219999,-34.509998,47.529999,1729475940993.0,0.0
-1.048056,-9.671788,3.072384,-48.790001,-59.290001,68.040001,1729475941011.0,0.0
-2.330609,-11.093125,3.151347,33.18,-58.380001,83.790001,1729475941031.0,0.0
-5.453243,-15.866807,2.730211,66.010002,-64.82,62.09,1729475941052.0,0.0
-5.493921,-17.300108,-0.267996,8.68,-56.139999,30.52,1729475941072.0,0.0
-3.361916,-14.708681,-1.069592,20.09,-12.04,8.26,1729475941093.0,0.0
-3.460021,-13.53859,0.842274,9.73,14.49,-28.280001,1729475941113.0,0.0
-2.065006,-11.346765,2.277967,14.84,30.52,-43.610001,1729475941132.0,0.0
-0.993021,-8.365308,2.801995,-13.58,39.41,-47.529999,1729475941152.0,0.0
-0.229711,-5.766702,0.665205,-112.489998,39.41,-55.720001,1729475941173.0,0.0
0.732204,-7.176075,-1.9669,-201.25,29.190001,-52.990002,1729475941193.0,0.0
3.019742,-11.873186,2.184647,1.82,50.959999,-17.219999,1729475941213.0,0.0
2.352145,-4.603791,6.072984,146.020004,52.57,-30.940001,1729475941233.0,0.0
0.62692,-1.036092,7.74796,134.680008,30.940001,-13.3,1729475941251.0,0.0
-0.157926,-2.490928,6.881758,41.580002,-12.32,18.620001,1729475941272.0,0.0
-0.248854,-6.766902,4.041477,-57.119999,-55.299999,44.52,1729475941294.0,0.0
-1.428515,-10.966305,2.883351,-37.52,-65.169998,60.48,1729475941313.0,0.0
-5.548956,-14.4024,4.26401,64.190002,-60.34,67.410004,1729475941332.0,0.0
-6.805188,-16.412371,2.311467,59.080002,-70.139999,31.5,1729475941352.0,0.0
-3.936193,-15.761523,-0.543171,11.27,-45.779999,10.85,1729475941373.0,0.0
-3.376273,-13.028918,-1.189233,44.799999,-8.12,-13.58,1729475941393.0,0.0
-3.07717,-9.970891,0.9667,89.040001,28.700001,-32.060001,1729475941413.0,0.0
-1.706082,-8.846266,3.299703,66.010002,48.23,-32.48,1729475941432.0,0.0
-1.445265,-6.745367,2.648855,-36.330002,52.290001,-41.439999,1729475941452.0,0.0
-0.066999,-7.759924,2.285146,-131.320007,43.68,-38.709999,1729475941477.0,0.0
2.196611,-9.80818,-0.849452,-196.699997,24.219999,-38.920002,1729475941493.0,0.0
3.383451,-13.055241,1.213161,-76.160004,33.740002,-17.780001,1729475941512.0,0.0
2.344966,-5.635098,4.649254,60.130001,47.110001,-36.330002,1729475941532.0,0.0
1.789831,-4.266403,6.393622,39.34,20.93,-27.299999,1729475941552.0,0.0
1.651048,-4.706682,5.297709,-4.2,-12.53,-0.14,1729475941572.0,0.0
0.825524,-6.865008,5.266603,6.72,-28.42,22.960001,1729475941593.0,0.0
-1.091127,-7.357929,4.989035,16.73,-35.91,30.030001,1729475941612.0,0.0
-3.428915,-8.451449,4.283153,31.639999,-44.029999,48.720001,1729475941631.0,0.0
-5.525027,-11.631511,3.361916,48.580002,-56.91,59.220001,1729475941652.0,0.0
-6.441479,-16.125233,3.163311,54.18,-61.32,40.670002,1729475941672.0,0.0
-5.144568,-15.687346,1.840081,60.48,-42.84,24.01,1729475941693.0,0.0
-3.902694,-12.268002,-0.26321,62.16,-17.360001,-9.66,1729475941718.0,0.0
-3.249453,-9.068797,0.662812,49.139999,13.16,-21.91,1729475941731.0,0.0
-1.674976,-9.085547,1.205983,-4.9,39.830002,-33.389999,1729475941752.0,0.0
-1.318445,-8.042276,-0.399601,-81.970001,51.52,-36.959999,1729475941772.0,0.0
-0.306281,-9.21476,1.641476,-110.739998,57.189999,-34.09,1729475941793.0,0.0
1.986043,-10.846665,-0.535992,-136.360001,47.740002,-32.200001,1729475941812.0,0.0
3.292524,-11.449656,2.902494,-66.779999,45.080002,-23.450001,1729475941833.0,0.0
2.691926,-8.446664,5.355137,43.330002,44.59,-30.450001,1729475941851.0,0.0
2.447858,-3.598805,5.481956,53.130001,22.610001,-34.720001,1729475941872.0,0.0
2.179861,-4.663611,5.185246,-11.2,-22.049999,-4.2,1729475941893.0,0.0
0.478565,-7.051648,5.000999,-7.91,-40.18,21.629999,1729475941912.0,0.0
-1.416551,-7.006185,5.094319,19.110001,-47.18,32.759998,1729475941932.0,0.0
-3.175276,-6.314659,3.759124,36.75,-54.810001,54.880001,1729475941952.0,0.0
-5.809773,-11.078769,3.227918,32.34,-61.110001,69.510002,1729475941972.0,0.0
-6.836295,-18.558733,2.26361,4.55,-64.470001,46.549999,1729475941993.0,0.0
-4.323831,-17.036898,0.789631,24.57,-36.330002,25.48,1729475942012.0,0.0
-2.924029,-14.026726,0.200997,45.920002,-2.24,-15.12,1729475942031.0,0.0
-2.725425,-9.918249,0.416351,27.719999,20.790001,-34.23,1729475942051.0,0.0
-1.411765,-6.398407,0.739382,11.48,42.560001,-36.400002,1729475942072.0,0.0
-0.622134,-8.516055,1.56012,-51.799999,50.049999,-38.709999,1729475942093.0,0.0
0.476172,-8.037491,-1.339981,-163.309998,44.73,-42.139999,1729475942112.0,0.0
3.081956,-11.468799,0.107677,-149.800003,32.34,-27.58,1729475942133.0,0.0
3.76391,-11.4353,4.409972,14.84,51.170002,-14.21,1729475942151.0,0.0
2.658426,-5.056034,6.573084,106.190002,45.849998,-33.950001,1729475942172.0,0.0
1.497907,-2.696711,7.645068,64.120003,19.32,-24.5,1729475942204.0,0.0
1.081556,-5.505885,4.007978,-49.700001,-39.759998,17.290001,1729475942212.0,0.0
0.256032,-8.965906,3.287738,-39.34,-48.860001,36.68,1729475942243.0,0.0
-2.045863,-9.276974,3.57727,28.559999,-40.040001,48.860001,1729475942251.0,0.0
-5.383851,-11.13859,4.323831,85.889999,-38.57,58.170002,1729475942272.0,0.0
-7.427321,-15.096318,3.321238,48.580002,-54.810001,36.540001,1729475942295.0,0.0
-5.13739,-16.185053,1.622334,31.780001,-40.810001,23.309999,1729475942312.0,0.0
-3.785445,-13.52902,0.270389,48.720001,-19.67,-5.11,1729475942331.0,0.0
-2.866602,-11.655439,-0.425922,48.369999,4.34,-31.99,1729475942351.0,0.0
-1.880759,-8.867801,1.299303,66.57,32.970001,-30.450001,1729475942372.0,0.0
-0.854238,-8.169096,2.706282,19.040001,47.670002,-40.599998,1729475942393.0,0.0
-0.325424,-7.286145,1.191626,-80.919998,52.290001,-45.43,1729475942411.0,0.0
1.351945,-9.035298,1.12702,-136.360001,43.82,-39.900002,1729475942432.0,0.0
3.682554,-11.57169,2.112862,-115.919998,33.529999,-30.59,1729475942451.0,0.0
2.775674,-9.662218,5.268995,25.9,41.580002,-23.73,1729475942472.0,0.0
1.643869,-5.223531,6.290731,65.379997,28.139999,-38.990002,1729475942493.0,0.0
1.476372,-4.165904,5.438886,5.25,-0.07,-26.18,1729475942511.0,0.0
1.332802,-7.563712,3.345166,-59.990002,-31.57,-8.26,1729475942532.0,0.0
0.071785,-8.965906,2.888137,-24.08,-35.560001,14.14,1729475942551.0,0.0
-1.363909,-8.145168,3.436093,34.509998,-27.299999,26.040001,1729475942571.0,0.0
-2.610569,-7.889136,3.302095,48.439999,-25.690001,40.110001,1729475942602.0,0.0
-4.541577,-8.989835,2.397608,36.400002,-25.83,48.790001,1729475942612.0,0.0
-5.414958,-13.349558,3.369094,41.650002,-25.969999,48.509998,1729475942631.0,0.0
-4.488935,-17.182859,3.23031,22.68,-28.280001,24.780001,1729475942652.0,0.0
-2.952743,-14.557933,1.392623,32.759998,-20.440001,-1.47,1729475942672.0,0.0
-1.940579,-10.052249,-0.174676,32.549999,1.4,-19.74,1729475942692.0,0.0
-1.150948,-7.867601,0.208176,6.79,30.030001,-30.52,1729475942714.0,0.0
-0.68674,-6.996613,0.215354,-73.709999,45.080002,-33.810001,1729475942732.0,0.0
0.303888,-9.135797,1.287339,-129.779999,47.389999,-28.84,1729475942751.0,0.0
2.976671,-10.971091,0.885344,-116.199997,38.150002,-22.4,1729475942772.0,0.0
3.826123,-9.710074,4.852644,31.01,47.529999,-2.59,1729475942801.0,0.0
2.598605,-4.130012,6.273981,111.790001,36.470001,-9.24,1729475942814.0,0.0
0.528814,-2.249253,6.317052,77.559998,9.94,11.62,1729475942831.0,0.0
-1.631905,-7.465607,4.998606,9.94,-29.469999,39.130001,1729475942852.0,0.0
-2.921637,-10.052249,4.362115,0.49,-58.099998,53.549999,1729475942872.0,0.0
-4.089334,-13.837693,2.490928,26.530001,-62.720001,49.209999,1729475942893.0,0.0
-4.208975,-16.979469,0.823131,8.19,-54.740002,26.32,1729475942975.0,0.0
-2.409572,-15.948163,-0.961915,8.96,-16.940001,0.14,1729475942975.0,0.0
-1.179662,-13.373486,0.421137,12.25,17.15,-34.860001,1729475942975.0,0.0
-1.026521,-10.413565,2.11047,35.279999,43.68,-52.150002,1729475942981.0,0.0
-0.847059,-7.161718,2.835495,26.950001,56.07,-56.07,1729475942995.0,0.0
-0.160319,-5.881558,2.163112,-61.810001,58.170002,-59.779999,1729475943012.0,0.0
0.672383,-9.018548,2.914458,-129.710007,36.540001,-49.349998,1729475943031.0,0.0
2.18704,-10.408779,4.127619,-61.740002,27.790001,-34.790001,1729475943052.0,0.0
1.919044,-5.364708,4.744967,36.610001,26.809999,-32.549999,1729475943074.0,0.0
0.358923,-2.021935,4.663611,59.5,18.76,-15.26,1729475943095.0,0.0
-0.969093,-3.445665,4.103691,24.219999,-2.17,12.46,1729475943113.0,0.0
-0.734596,-8.377272,4.441079,-22.540001,-30.52,45.639999,1729475943133.0,0.0
-1.246661,-8.154739,3.785445,21.42,-41.299999,65.590004,1729475943154.0,0.0
-4.0008,-10.688738,3.309274,50.540001,-49.07,69.300003,1729475943175.0,0.0
-5.379066,-17.297714,3.180061,18.200001,-61.880001,42.700001,1729475943196.0,0.0
-3.460021,-18.072989,0.653241,8.54,-39.759998,26.110001,1729475943214.0,0.0
-2.208575,-14.825929,0.095713,47.389999,-11.62,-7.56,1729475943233.0,0.0
-2.203789,-11.542977,1.440479,65.660004,10.5,-32.900002,1729475943253.0,0.0
-1.596013,-9.274581,3.48395,41.580002,29.120001,-43.82,1729475943274.0,0.0
-0.899701,-7.606783,2.675175,-39.549999,35.139999,-55.860001,1729475943294.0,0.0
-0.445065,-7.429714,2.254039,-104.860001,40.950001,-56.700001,1729475943314.0,0.0
0.646062,-6.82433,-0.842274,-183.399994,31.290001,-58.59,1729475943334.0,0.0
2.35693,-11.593226,3.48395,-81.129997,26.110001,-29.190001,1729475943353.0,0.0
2.474179,-6.496514,5.264209,52.779999,35.209999,-32.830002,1729475943374.0,0.0
1.043271,-1.87358,6.843473,82.879997,20.93,-18.129999,1729475943394.0,0.0
-0.277567,-1.289732,6.69751,37.799999,-5.46,9.87,1729475943414.0,0.0
-0.545564,-4.012764,4.462614,-66.290001,-42.700001,37.799999,1729475943433.0,0.0
-0.509671,-9.274581,2.330609,-117.389999,-69.230003,54.810001,1729475943463.0,0.0
-0.602991,-10.004392,0.811167,-22.049999,-64.470001,74.269997,1729475943474.0,0.0
-3.586841,-13.387842,3.337988,108.43,-32.34,74.690002,1729475943494.0,0.0
-5.010571,-17.022539,2.021935,16.799999,-22.26,40.459999,1729475943517.0,0.0
-3.201597,-16.771294,-0.392423,-56.630001,-0.14,10.92,1729475943534.0,0.0
-1.823331,-12.954741,-0.277567,-28.84,21.139999,-14.21,1729475943553.0,0.0
-2.395216,-9.671788,1.540978,28.0,34.720001,-30.24,1729475943574.0,0.0
-2.725425,-7.068398,2.9671,34.299999,35.07,-33.599998,1729475943594.0,0.0
-2.06022,-5.970093,3.471986,-12.81,24.219999,-29.26,1729475943616.0,0.0
-1.014557,-5.962914,2.98385,-70.0,12.25,-20.02,1729475943643.0,0.0
-0.68674,-6.85783,3.5007,-105.769997,-0.84,-7.84,1729475943752.0,0.0
-1.148555,-6.273981,3.393023,-141.119995,-15.75,-1.54,1729475943753.0,0.0
-1.921437,-6.845865,3.091527,-171.220001,-31.15,7.84,1729475943753.0,0.0
-2.184647,-8.11167,1.65344,-216.440002,-54.880001,13.3,1729475943754.0,0.0
-1.507478,-9.836893,0.141177,-245.770004,-77.349998,18.059999,1729475943754.0,0.0
-0.894916,-10.734202,-1.476372,-257.179993,-89.25,19.040001,1729475943754.0,0.0
-0.993021,-10.167104,-2.608176,-276.01001,-87.989998,8.61,1729475943773.0,0.0
-1.287339,-9.734003,-3.775874,-303.660004,-80.779999,-1.54,1729475943799.0,0.0
-0.851845,-8.91805,-5.178068,-362.73999,-66.709999,-15.190001,1729475943813.0,0.0
-0.277567,-9.109475,-7.030113,-387.940002,-61.32,-13.93,1729475943833.0,0.0
0.710668,-8.810372,-7.965706,-372.470001,-54.32,-8.68,1729475943852.0,0.0
0.555135,-6.76451,-7.133004,-346.779999,-22.75,-2.59,1729475943873.0,0.0
-0.356531,-4.563113,-8.343772,-324.519989,-15.68,1.26,1729475943893.0,0.0
-0.815953,-4.149154,-9.616754,-313.040009,-17.360001,5.18,1729475943913.0,0.0
-1.069592,-4.436293,-11.246266,-265.860016,-25.969999,18.200001,1729475943933.0,0.0
-1.160519,-3.651447,-11.289338,-181.089996,-27.719999,35.91,1729475943953.0,0.0
-2.63689,-4.323831,-10.456635,-38.080002,-7.42,56.91,1729475943972.0,0.0
-2.478964,-3.708875,-12.382857,34.369999,-7.07,50.400002,1729475943995.0,0.0
-2.287539,-3.081956,-7.482357,108.010002,-4.13,66.080002,1729475944013.0,0.0
-2.866602,-1.253839,-9.066404,73.639999,17.639999,53.060001,1729475944032.0,0.0
-2.859423,-0.870987,-9.310472,-24.85,-12.6,26.809999,1729475944053.0,0.0
-2.723032,-3.644269,-11.392227,-65.940002,-7.49,17.639999,1729475944073.0,0.0
-2.009971,-3.672983,-13.217952,-32.27,-11.2,1.96,1729475944094.0,0.0
-2.038685,-1.136591,-15.306887,54.040001,15.75,-3.43,1729475944113.0,0.0
-2.495714,1.131805,-13.722836,118.090004,60.619999,-6.3,1729475944133.0,0.0
-1.892723,0.547956,-9.554541,151.130005,87.849998,-3.29,1729475944153.0,0.0
-0.72024,-0.430708,-7.814958,131.600006,83.230003,-8.82,1729475944174.0,0.0
-0.375673,-2.809174,-3.842873,79.379997,84.980003,-11.97,1729475944194.0,0.0
-0.725025,-4.766503,-3.414558,-56.630001,77.139999,-37.450001,1729475944213.0,0.0
-1.414158,-7.800602,-6.156733,-133.630005,49.209999,-57.470001,1729475944233.0,0.0
-0.421137,-10.669596,-6.642475,-85.260002,5.53,-66.639999,1729475944252.0,0.0
0.37328,-9.98525,-8.054241,23.450001,-5.67,-54.950001,1729475944274.0,0.0
-0.272782,-6.178268,-7.484749,127.540001,16.309999,-51.029999,1729475944293.0,0.0
-1.18684,-3.998406,-6.525227,145.949997,19.530001,-27.02,1729475944313.0,0.0
-1.887937,-4.323831,-5.685347,75.18,9.52,-3.08,1729475944332.0,0.0
-2.206182,-7.403394,-5.187639,-5.6,-13.3,17.780001,1729475944353.0,0.0
-1.732404,-11.179268,-4.697111,-46.200001,-32.689999,28.210001,1729475944372.0,0.0
-0.612563,-11.705689,-5.13739,-46.200001,-42.77,24.01,1729475944395.0,0.0
-0.509671,-8.939585,-4.955536,-45.43,-42.0,9.03,1729475944413.0,0.0
-1.004985,-5.034499,-5.659025,-90.090004,-51.380001,-3.29,1729475944432.0,0.0
-1.818545,-2.74696,-8.659625,-129.149994,-70.349998,0.77,1729475944452.0,0.0
-2.069792,-1.574477,-12.110075,-120.75,-91.419998,15.54,1729475944473.0,0.0
-2.531606,0.803988,-14.869,-21.42,-80.150002,52.779999,1729475944493.0,0.0
-2.598605,0.239282,-15.98884,114.730003,-40.18,78.330002,1729475944523.0,0.0
-2.395216,1.399801,-12.119646,125.300003,-19.389999,92.540001,1729475944532.0,0.0
-3.158526,1.871187,-11.260624,38.080002,10.92,88.620003,1729475944552.0,0.0
-3.854837,-1.421337,-12.715459,-35.560001,28.77,58.799999,1729475944573.0,0.0
-3.15374,-3.778267,-13.24906,-45.150002,15.82,19.040001,1729475944593.0,0.0
-1.531406,-5.161318,-12.019149,0.07,25.549999,-5.39,1729475944613.0,0.0
-0.050249,-4.130012,-12.169895,31.5,48.790001,-37.799999,1729475944633.0,0.0
0.394816,-3.996014,-10.408779,55.720001,88.690002,-75.949997,1729475944652.0,0.0
-1.205983,-4.398008,-7.276574,59.360001,130.059998,-87.849998,1729475944672.0,0.0
-2.620141,-6.345766,-4.290331,95.480003,118.160004,-91.769997,1729475944693.0,0.0
-1.347159,-4.989035,-2.416751,84.840004,32.060001,-106.540001,1729475944719.0,0.0
-0.736989,-4.864608,-2.196611,61.810001,2.38,-85.260002,1729475944731.0,0.0
-1.150948,-6.496514,-2.507678,-0.49,-11.48,-68.809998,1729475944751.0,0.0
-1.299303,-7.252645,-3.964907,-78.330002,-28.91,-46.41,1729475944773.0,0.0
-0.835095,-6.872187,-5.76431,-106.260002,-46.830002,-14.98,1729475944793.0,0.0
-1.785046,-8.4012,-5.87438,-93.309998,-48.860001,27.719999,1729475944813.0,0.0
-1.332802,-8.733803,-8.480164,-98.279999,-71.959999,36.470001,1729475944840.0,0.0
-0.464208,-8.709875,-10.904092,-89.389999,-89.739998,31.780001,1729475944852.0,0.0
-0.37328,-7.432107,-11.653046,-56.98,-83.580002,30.450001,1729475944874.0,0.0
-0.464208,-4.206582,-12.47857,5.11,-70.769997,29.120001,1729475944894.0,0.0
-1.158126,-1.277767,-13.701303,96.599998,-51.52,52.920002,1729475944913.0,0.0
-2.318645,0.26321,-13.380664,175.070007,-17.219999,89.459999,1729475944933.0,0.0
-2.457429,1.512264,-11.387443,179.479996,4.48,107.590004,1729475944954.0,0.0
-2.818745,0.598206,-10.236496,112.139999,0.91,108.639999,1729475944974.0,0.0
-3.364309,-3.256632,-10.683953,34.509998,12.74,83.720001,1729475944993.0,0.0
-3.287738,-5.974878,-9.765109,14.77,26.110001,37.59,1729475945013.0,0.0
-2.914458,-6.025128,-11.535798,25.129999,22.82,-3.01,1729475945032.0,0.0
-2.514857,-4.086941,-11.263017,69.300003,35.139999,-33.32,1729475945052.0,0.0
-2.691926,-2.249253,-9.257831,83.230003,57.470001,-58.939999,1729475945073.0,0.0
-2.840281,-1.265803,-8.863015,25.83,74.269997,-79.730003,1729475945095.0,0.0
-2.354537,-1.761117,-6.996613,-35.209999,71.959999,-82.669998,1729475945114.0,0.0
-1.136591,-4.4674,-5.728417,-91.699997,38.5,-85.75,1729475945134.0,0.0
0.42353,-7.238289,-5.730811,-95.900002,6.72,-69.230003,1729475945154.0,0.0
1.272982,-7.276574,-5.986843,-64.470001,-0.91,-55.860001,1729475945174.0,0.0
-1.356731,-9.693325,-4.175476,-30.1,24.219999,-44.170002,1729475945195.0,0.0
-2.945565,-10.375278,-3.239882,-30.1,-3.01,-30.450001,1729475945216.0,0.0
-2.120041,-8.721838,-3.622734,2.8,-24.01,-16.73,1729475945233.0,0.0
-1.519442,-8.370094,-4.936393,-16.52,-37.73,1.75,1729475945254.0,0.0
-1.524228,-8.762517,-6.166305,-69.300003,-46.48,8.47,1729475945274.0,0.0
-1.478764,-8.99462,-6.668797,-106.540001,-61.25,11.48,1729475945294.0,0.0
-1.033699,-7.379465,-8.269595,-121.870003,-80.57,4.13,1729475945315.0,0.0
-0.851845,-4.87418,-10.621738,-91.559998,-92.82,10.29,1729475945333.0,0.0
-1.01695,-1.847259,-13.361522,3.29,-93.239998,30.17,1729475945353.0,0.0
-1.782653,-1.272982,-14.627325,154.910004,-53.130001,70.559998,1729475945374.0,0.0
-2.65364,1.414158,-15.199209,200.970001,-16.17,94.360001,1729475945394.0,0.0
-3.869194,0.464208,-12.521641,174.089996,8.75,105.139999,1729475945414.0,0.0
-4.421937,-3.086741,-11.755937,28.49,44.939999,50.470001,1729475945434.0,0.0
-3.675375,-5.536992,-10.904092,2.31,41.439999,-1.26,1729475945453.0,0.0
-2.54357,-6.135197,-9.186047,10.99,39.759998,-35.209999,1729475945474.0,0.0
-1.777867,-3.079563,-8.664411,20.790001,42.139999,-71.400002,1729475945495.0,0.0
-1.526621,-1.727618,-9.351151,6.65,63.07,-94.010002,1729475945514.0,0.0
-0.928415,-1.399801,-8.068598,-37.450001,69.580002,-99.540001,1729475945533.0,0.0
-0.29671,-4.07737,-5.663811,-30.59,56.560001,-82.739998,1729475945558.0,0.0
0.849452,-4.797609,-5.458029,-22.889999,23.030001,-62.369999,1729475945573.0,0.0
-0.416351,-7.563712,-3.046063,-84.0,36.330002,-54.950001,1729475945596.0,0.0
-3.730411,-15.244674,-1.332802,-105.840004,1.12,-45.57,1729475945615.0,0.0
-2.18704,-14.340185,-3.572484,-79.239998,-46.060001,-43.82,1729475945634.0,0.0
-0.794417,-7.944171,-4.721039,-7.98,-26.32,-30.799999,1729475945653.0,0.0
-1.174876,-4.630112,-5.333601,-20.370001,-28.98,-7.35,1729475945674.0,0.0
-1.641476,-4.371687,-6.183054,-89.459999,-51.73,15.61,1729475945694.0,0.0
-1.785046,-6.673582,-9.422935,-147.770004,-88.690002,28.139999,1729475945716.0,0.0
-1.261017,-8.4012,-13.076776,-125.720001,-102.830002,20.09,1729475945734.0,0.0
-0.954736,-5.448457,-14.457435,-46.060001,-87.360001,13.86,1729475945752.0,0.0
-1.775474,-2.445465,-17.24268,186.899994,-27.440001,32.830002,1729475945774.0,0.0
-2.9336,-0.887737,-14.364115,323.26001,6.51,65.590004,1729475945795.0,0.0
-3.294917,2.816352,-12.550355,288.610016,38.220001,81.129997,1729475945814.0,0.0
-3.574877,1.56012,-8.867801,226.800003,45.43,79.800003,1729475945833.0,0.0
-3.869194,-0.839881,-5.584848,68.459999,57.049999,56.349998,1729475945853.0,0.0
-4.003192,-4.07737,-8.035098,-47.459999,40.459999,13.93,1729475945873.0,0.0
-3.302095,-6.06102,-9.332008,-85.959999,16.59,-24.219999,1729475945894.0,0.0
-2.600998,-5.173282,-11.966506,-65.239998,15.05,-45.709999,1729475945914.0,0.0
-1.584049,-3.510271,-11.57169,-1.54,26.67,-68.809998,1729475945933.0,0.0
-0.413958,-2.562713,-10.839487,14.49,47.459999,-87.779999,1729475945954.0,0.0
0.543171,-3.972085,-7.752745,4.62,61.810001,-88.760002,1729475945974.0,0.0
1.069592,-5.924629,-5.300103,-12.6,48.299999,-82.949997,1729475945994.0,0.0
1.622334,-4.347759,-5.000999,-41.650002,26.389999,-76.650002,1729475946014.0,0.0
-0.394816,-6.699903,-3.364309,-85.75,38.849998,-54.18,1729475946033.0,0.0
-2.129612,-12.035898,-2.35693,-86.940002,-8.61,-34.509998,1729475946054.0,0.0
-0.997807,-11.949757,-2.622534,0.21,-28.280001,-11.48,1729475946074.0,0.0
-1.402194,-9.116654,-3.720839,90.440002,-7.56,4.9,1729475946097.0,0.0
-2.421536,-7.834101,-5.24746,2.38,-24.99,13.79,1729475946114.0,0.0
-2.952743,-7.168896,-5.254639,-92.470001,-43.400002,19.879999,1729475946134.0,0.0
-2.840281,-6.678369,-6.518049,-147.559998,-76.790001,26.6,1729475946154.0,0.0
-2.261217,-4.917251,-10.506885,-159.25,-104.580002,24.290001,1729475946173.0,0.0
-1.584049,-3.529413,-15.170495,-99.050003,-86.730003,27.65,1729475946196.0,0.0
-1.959722,-2.940779,-15.598811,26.25,-62.720001,44.59,1729475946214.0,0.0
-2.711068,-2.081756,-15.263817,172.830002,-3.15,60.830002,1729475946233.0,0.0
-2.926422,-1.478764,-12.521641,231.210007,25.76,68.949997,1729475946253.0,0.0
-3.062813,0.653241,-8.662018,125.440002,31.08,62.439999,1729475946274.0,0.0
-2.701497,-0.911665,-8.88455,-3.29,18.620001,28.98,1729475946295.0,0.0
-2.194218,-3.306881,-10.547562,-109.199997,5.18,-2.52,1729475946313.0,0.0
-0.923629,-6.65444,-12.789637,-94.709999,10.08,-39.759998,1729475946334.0,0.0
-0.251246,-5.472386,-11.416157,-31.85,45.5,-54.880001,1729475946353.0,0.0
-0.799203,-3.84048,-10.58824,73.57,71.190002,-67.269997,1729475946373.0,0.0
-0.81356,-3.041277,-7.472785,104.790001,78.959999,-70.769997,1729475946394.0,0.0
0.490529,-2.488536,-4.019942,48.860001,53.970001,-66.989998,1729475946413.0,0.0
0.904487,-5.343173,-1.799403,-71.75,26.18,-31.15,1729475946434.0,0.0
-1.947758,-10.281959,-0.39003,-96.040001,7.91,-12.67,1729475946453.0,0.0
-5.462814,-14.263616,0.342174,-68.32,-17.43,-1.05,1729475946474.0,0.0
-4.697111,-11.8349,-3.35713,-51.799999,-44.939999,-14.91,1729475946495.0,0.0
-2.811567,-7.405786,-6.496514,-20.93,-42.139999,-0.56,1729475946514.0,0.0
-1.976472,-4.508078,-7.068398,-38.360001,-60.689999,13.58,1729475946533.0,0.0
-1.79701,-5.123034,-10.140782,-103.459999,-82.110001,27.93,1729475946553.0,0.0
-1.529014,-6.245267,-13.009777,-154.139999,-92.540001,30.450001,1729475946573.0,0.0
-1.244268,-5.98445,-13.46202,-102.970001,-77.910004,25.129999,1729475946594.0,0.0
-2.215754,-2.947958,-14.703895,17.639999,-41.09,28.77,1729475946613.0,0.0
-3.421736,-0.31346,-15.921842,154.139999,9.52,42.700001,1729475946634.0,0.0
-3.790231,0.246461,-11.607583,232.75,22.82,58.240002,1729475946653.0,0.0
-3.337988,3.371487,-10.353743,127.120003,26.040001,49.77,1729475946673.0,0.0
-2.490928,2.502892,-8.812766,8.12,11.83,26.950001,1729475946694.0,0.0
-1.768296,-1.572084,-11.988041,-112.07,4.06,0.35,1729475946715.0,0.0
-0.62692,-4.658825,-10.724631,-140.559998,29.26,-27.860001,1729475946732.0,0.0
-0.189033,-6.9009,-8.085347,-90.160004,67.760002,-44.66,1729475946752.0,0.0
-0.212961,-4.07737,-8.102098,-74.129997,53.200001,-72.169998,1729475946773.0,0.0
-0.605384,-5.522634,-6.369694,-89.529999,43.68,-71.400002,1729475946794.0,0.0
-1.404587,-8.891729,-5.06082,-97.510002,35.279999,-68.389999,1729475946814.0,0.0
-1.631905,-9.731609,-5.948557,-24.85,0.7,-72.449997,1729475946832.0,0.0
-2.115255,-5.761917,-6.71426,55.439999,-4.34,-51.029999,1729475946853.0,0.0
-3.421736,-3.026921,-6.087341,81.550003,0.49,-14.84,1729475946880.0,0.0
-4.223332,-3.854837,-7.123433,46.619999,-10.78,18.549999,1729475946896.0,0.0
-3.4672,-6.269196,-8.831908,-12.6,-42.560001,33.32,1729475946914.0,0.0
-1.899901,-7.034898,-9.635897,-51.029999,-66.989998,37.73,1729475946933.0,0.0
-0.760918,-5.582455,-10.758131,-56.98,-71.68,32.549999,1729475946954.0,0.0
-0.789631,-3.294917,-12.287145,15.75,-63.98,34.09,1729475946974.0,0.0
-2.672783,-3.275774,-14.835501,143.220001,-5.32,43.68,1729475946995.0,0.0
-3.503092,-1.878366,-13.18206,192.639999,34.299999,31.360001,1729475947014.0,0.0
-4.053442,0.42353,-11.684153,142.309998,46.970001,33.670002,1729475947034.0,0.0
-3.534199,-0.356531,-9.341579,86.940002,41.299999,16.59,1729475947054.0,0.0
-1.337588,-1.59362,-10.459028,-42.560001,19.389999,-15.89,1729475947074.0,0.0
-0.689133,-2.885744,-11.94497,-36.330002,46.549999,-17.780001,1729475947094.0,0.0
0.155533,-3.428915,-9.765109,-15.47,69.580002,-29.4,1729475947115.0,0.0
0.196211,-6.144768,-4.476971,-1.75,75.040001,-22.82,1729475947134.0,0.0
0.586242,-8.650054,-4.548756,29.889999,36.75,-11.55,1729475947154.0,0.0
0.440279,-7.802995,-3.069991,9.52,24.639999,-34.860001,1729475947174.0,0.0
-1.418944,-9.96132,-3.656233,-0.21,11.83,-40.950001,1729475947194.0,0.0
-1.820938,-8.398808,-4.228118,-4.69,-7.77,-40.040001,1729475947214.0,0.0
-1.811367,-5.962914,-5.345565,-22.049999,-20.09,-24.85,1729475947243.0,0.0
-2.531606,-5.290531,-5.60399,-49.209999,-29.190001,-3.36,1729475947254.0,0.0
-2.727818,-5.402994,-5.730811,-72.239998,-44.450001,16.1,1729475947274.0,0.0
-2.514857,-6.498906,-7.223931,-107.169998,-60.619999,20.58,1729475947295.0,0.0
-2.443072,-7.357929,-11.54537,-154.070007,-78.330002,14.63,1729475947318.0,0.0
-1.540978,-5.623133,-13.8688,-130.130005,-105.419998,11.9,1729475947335.0,0.0
-2.309074,-2.756532,-16.847864,175.279999,-32.130001,55.369999,1729475947358.0,0.0
-3.105884,-1.469193,-14.275579,331.519989,12.32,83.019997,1729475947378.0,0.0
-3.426522,2.404787,-10.243673,246.190002,38.009998,95.199997,1729475947397.0,0.0
-3.103491,1.684547,-9.092726,116.690002,28.210001,81.340004,1729475947417.0,0.0
-2.646462,-2.239682,-9.975677,-16.66,23.450001,45.57,1729475947435.0,0.0
-1.555335,-5.577669,-10.466206,-63.07,19.25,-1.33,1729475947457.0,0.0
-1.081556,-5.826523,-10.834702,-37.099998,45.009998,-27.65,1729475947477.0,0.0
-0.937986,-2.921637,-9.815358,9.87,60.34,-57.610001,1729475947497.0,0.0
-0.729811,-0.909273,-8.623734,0.77,71.260002,-75.110001,1729475947515.0,0.0
-0.509671,-1.57687,-6.893722,-39.689999,72.449997,-73.709999,1729475947535.0,0.0
-0.382852,-4.508078,-4.797609,-75.040001,49.98,-58.939999,1729475947555.0,0.0
-0.882952,-6.60419,-4.534399,-114.590004,28.07,-55.09,1729475947576.0,0.0
-3.318845,-12.224932,-1.569692,-68.599998,-6.02,-35.91,1729475947600.0,0.0
-4.089334,-13.299308,-3.29731,15.68,-42.560001,-26.530001,1729475947616.0,0.0
-2.809174,-8.415558,-6.171089,57.540001,-21.700001,-19.25,1729475947635.0,0.0
-1.768296,-6.955935,-8.212167,32.689999,-24.290001,-0.14,1729475947655.0,0.0
-1.239482,-8.02792,-9.126225,-51.450001,-49.279999,14.14,1729475947676.0,0.0
-1.603191,-7.996813,-9.726824,-104.860001,-47.389999,17.92,1729475947697.0,0.0
-2.208575,-6.762117,-9.377472,-88.900002,-30.309999,8.61,1729475947719.0,0.0
-2.435893,-4.462614,-10.449455,-61.599998,-34.93,4.34,1729475947734.0,0.0
-2.347359,-2.65364,-11.636297,20.09,-47.880001,13.79,1729475947756.0,0.0
-2.067399,-2.033899,-13.091133,134.190002,-31.01,29.75,1729475947775.0,0.0
-2.289931,-0.655633,-11.021341,182.070007,-6.09,39.830002,1729475947797.0,0.0
-3.034099,0.648455,-11.196017,146.509995,19.389999,48.299999,1729475947815.0,0.0
-3.52702,-1.607977,-9.092726,102.129997,33.740002,43.68,1729475947834.0,0.0
-3.426522,-2.70389,-9.894321,2.59,32.830002,24.780001,1729475947855.0,0.0
-2.349752,-3.065206,-11.63869,-43.189999,21.700001,3.01,1729475947876.0,0.0
-0.172283,-4.235296,-11.947363,-33.040001,7.14,-18.41,1729475947896.0,0.0
1.782653,-4.149154,-12.543176,0.42,32.060001,-35.490002,1729475947984.0,0.0
1.770689,-4.115655,-8.793623,65.940002,84.0,-53.549999,1729475947988.0,0.0
-0.665205,-5.048856,-4.395615,114.099998,118.020004,-46.060001,1729475947990.0,0.0
-1.258625,-4.165904,-2.995814,92.470001,66.919998,-47.32,1729475947990.0,0.0
-1.438086,-6.391229,-1.205983,-14.21,11.97,-55.02,1729475947996.0,0.0
-2.842674,-10.992627,-3.232704,-73.290001,-17.5,-60.689999,1729475948026.0,0.0
-2.74696,-7.427321,-3.639483,-37.310001,-28.210001,-43.82,1729475948035.0,0.0
-3.818945,-3.802195,-4.811966,-95.269997,-17.99,-26.530001,1729475948056.0,0.0
-4.41715,-5.601598,-5.249853,-156.660004,-47.389999,4.83,1729475948076.0,0.0
-2.837888,-9.253045,-9.427721,-157.990005,-93.519997,24.15,1729475948095.0,0.0
-0.973879,-11.059627,-10.547562,-101.919998,-90.090004,26.530001,1729475948114.0,0.0
-0.600598,-7.57089,-10.480563,-76.370003,-68.389999,13.440001,1729475948135.0,0.0
-1.083949,-3.919443,-11.332408,-32.060001,-73.849998,15.75,1729475948153.0,0.0
-1.426122,-2.065006,-13.909478,54.529999,-61.32,27.23,1729475948175.0,0.0
-2.258825,-2.677568,-14.629718,176.399994,-20.299999,44.099998,1729475948195.0,0.0
-2.732604,-0.835095,-11.475977,200.619995,9.45,51.450001,1729475948214.0,0.0
-3.364309,0.09332,-9.552148,134.539993,20.58,62.439999,1729475948233.0,0.0
-2.734996,-1.775474,-10.246067,27.16,3.36,25.059999,1729475948254.0,0.0
-1.899901,-3.347559,-12.756138,-57.540001,-1.47,-9.31,1729475948274.0,0.0
-1.335195,-5.393422,-12.416357,-40.599998,30.309999,-39.34,1729475948295.0,0.0
-1.11027,-3.783052,-11.129018,-15.05,61.529999,-61.880001,1729475948315.0,0.0
-0.981057,-1.739582,-8.207381,23.59,64.400002,-78.610001,1729475948333.0,0.0
-0.634098,-0.665205,-7.601997,17.5,66.360001,-76.440002,1729475948353.0,0.0
-0.732204,-4.331009,-3.091527,-10.43,62.93,-57.049999,1729475948374.0,0.0
-3.620341,-9.327222,-1.366302,-72.940002,53.830002,-45.43,1729475948394.0,0.0
-3.359523,-13.103097,-1.718047,-25.41,-28.84,-31.15,1729475948414.0,0.0
-1.519442,-9.779467,-3.993621,10.71,-29.889999,-18.34,1729475948434.0,0.0
-2.124826,-6.465407,-4.706682,9.59,-21.210001,-7.42,1729475948454.0,0.0
-3.053242,-6.886543,-6.259624,-50.75,-30.59,18.34,1729475948475.0,0.0
-1.978864,-8.46102,-8.147561,-102.269997,-70.0,29.469999,1729475948495.0,0.0
-0.787239,-7.908278,-8.989835,-133.139999,-80.360001,25.41,1729475948514.0,0.0
-1.083949,-5.161318,-10.119246,-168.419998,-72.940002,10.78,1729475948534.0,0.0
-1.739582,-1.552942,-14.029119,-175.139999,-75.389999,8.12,1729475948554.0,0.0
-2.57707,1.624727,-17.001005,-57.189999,-43.049999,33.670002,1729475948574.0,0.0
-3.651447,-1.765903,-12.600604,98.07,13.51,68.040001,1729475948595.0,0.0
-3.460021,3.680161,-10.492528,0.63,37.939999,45.080002,1729475948614.0,0.0
-4.240082,-1.428515,-8.008778,5.95,28.98,59.57,1729475948633.0,0.0
-2.438286,-2.163112,-8.166703,-71.959999,-4.9,20.51,1729475948653.0,0.0
-0.165105,-3.105884,-12.899707,-71.68,-24.5,-1.19,1729475948674.0,0.0
-0.571885,-2.380858,-13.682159,-29.33,42.420002,-31.85,1729475948694.0,0.0
-0.748954,-2.043471,-11.880364,7.07,80.779999,-57.260002,1729475948717.0,0.0
-0.624527,-1.205983,-8.683553,12.53,91.840004,-65.590004,1729475948735.0,0.0
-0.351745,-0.81356,-6.357729,29.469999,73.010002,-58.66,1729475948753.0,0.0
-0.236889,-2.840281,-6.491727,45.5,55.299999,-44.66,1729475948774.0,0.0
-0.177069,-5.749953,-5.235496,55.02,37.099998,-27.860001,1729475948796.0,0.0
-1.835295,-7.032506,-5.237889,50.400002,24.15,-15.12,1729475948813.0,0.0
-3.39063,-6.029913,-5.541777,19.879999,18.200001,-9.31,1729475948833.0,0.0
-4.063013,-4.622933,-6.123233,-24.85,-6.09,8.68,1729475948853.0,0.0
-6.013163,-4.161119,-2.629712,-49.349998,-17.08,43.330002,1729475948874.0,0.0
-5.539384,-4.768896,-8.898908,-92.75,-41.369999,42.700001,1729475948894.0,0.0
-2.256432,-3.684947,-9.745967,-104.090004,-166.740005,48.02,1729475948916.0,0.0
0.122034,-3.35713,-15.675381,3.22,-180.740005,79.379997,1729475948933.0,0.0
1.320838,-1.78026,-15.270994,128.869995,-99.190002,73.220001,1729475948954.0,0.0
-0.935594,0.820738,-13.765909,141.820007,-12.67,76.300003,1729475948974.0,0.0
-3.314059,0.428315,-11.913863,98.419998,36.959999,74.480003,1729475948994.0,0.0
-3.37388,-3.665804,-11.045268,17.710001,30.870001,39.689999,1729475949014.0,0.0
-1.708475,-4.962714,-11.12184,-29.540001,-7.63,-12.39,1729475949034.0,0.0
-1.119841,-4.359723,-11.557333,11.13,31.43,-40.810001,1729475949053.0,0.0
-1.811367,-2.54357,-12.284752,67.129997,70.910004,-68.459999,1729475949073.0,0.0
-2.024328,-0.488136,-10.834702,84.349998,88.970001,-80.849998,1729475949094.0,0.0
-1.698904,-0.801596,-9.018548,103.25,80.080002,-78.120003,1729475949114.0,0.0
-0.799203,-2.404787,-6.171089,116.830002,69.510002,-59.290001,1729475949132.0,0.0
-0.646062,-4.606184,-1.902294,125.510002,49.0,-36.68,1729475949154.0,0.0
-2.993421,-7.350751,-1.081556,82.389999,23.66,-17.01,1729475949173.0,0.0
-5.45085,-10.207782,-2.287539,18.9,1.4,-12.25,1729475949194.0,0.0
-4.673182,-8.786445,-4.701896,-48.93,-31.710001,-16.030001,1729475949214.0,0.0
-3.136991,-6.429514,-5.484349,-105.349998,-41.369999,-5.39,1729475949233.0,0.0
-2.029114,-5.192425,-6.183054,-182.839996,-69.93,-0.98,1729475949255.0,0.0
-1.615155,-4.130012,-8.872586,-247.940002,-101.779999,3.29,1729475949274.0,0.0
-1.138984,-2.694318,-11.497513,-223.580002,-120.540001,10.78,1729475949294.0,0.0
-1.562513,-1.287339,-15.108281,-72.309998,-88.340004,39.549999,1729475949314.0,0.0
-2.215754,0.748954,-15.014962,74.199997,-56.700001,55.860001,1729475949334.0,0.0
-4.010371,0.399601,-11.014162,138.389999,-1.4,80.639999,1729475949353.0,0.0
-4.338188,-0.993021,-8.920443,36.470001,38.709999,51.450001,1729475949373.0,0.0
-3.708875,-3.436093,-10.126426,-48.439999,5.67,22.82,1729475949394.0,0.0
-1.998007,-4.642076,-12.595818,-75.389999,-17.85,-7.0,1729475949413.0,0.0
-0.521635,-3.359523,-13.564911,-25.690001,17.08,-25.41,1729475949434.0,0.0
-0.404387,-3.058028,-12.524034,55.650002,68.529999,-43.959999,1729475949453.0,0.0
-0.923629,-2.155933,-8.662018,56.490002,98.559998,-62.650002,1729475949473.0,0.0
-1.361516,-2.490928,-5.661418,37.59,100.239998,-72.169998,1729475949494.0,0.0
-1.679761,-4.029513,-5.094319,22.26,67.059998,-58.310001,1729475949514.0,0.0
-1.194018,-3.074777,-5.563312,-22.75,23.940001,-62.580002,1729475949533.0,0.0
-2.067399,-5.036892,-6.096912,-39.900002,21.700001,-44.380001,1729475949553.0,0.0
-3.026921,-7.238289,-6.630512,-12.39,8.89,-27.23,1729475949574.0,0.0
-3.345166,-6.771688,-6.668797,-0.14,-7.07,-15.61,1729475949594.0,0.0
-4.469792,-4.589434,-4.405186,-42.560001,-3.71,0.56,1729475949614.0,0.0
-4.783253,-3.452843,-6.142376,-101.5,-25.690001,10.36,1729475949634.0,0.0
-3.706482,-2.323431,-9.585647,-120.959999,-94.360001,31.5,1729475949653.0,0.0
-0.753739,-1.942972,-14.062619,-62.16,-147.910004,54.670002,1729475949673.0,0.0
0.26321,-2.086541,-12.777672,48.439999,-92.120003,65.379997,1729475949694.0,0.0
-1.505085,0.260818,-13.557733,57.119999,-18.41,51.380001,1729475949716.0,0.0
-3.4672,-0.736989,-11.34198,95.690002,22.75,61.740002,1729475949734.0,0.0
-3.354738,-0.038285,-10.277173,37.170002,11.83,34.02,1729475949753.0,0.0
-2.825923,-2.134398,-12.658032,-12.74,-8.12,15.26,1729475949773.0,0.0
-1.663012,-3.85723,-13.584054,-23.1,1.61,-19.25,1729475949794.0,0.0
-1.347159,-4.371687,-13.232309,22.82,51.170002,-42.91,1729475949814.0,0.0
-1.648655,-3.177669,-11.655439,90.370003,91.699997,-62.369999,1729475949832.0,0.0
-1.39023,-1.442872,-7.860423,135.380005,101.779999,-79.590004,1729475949853.0,0.0
-1.351945,-1.981257,-4.938786,156.660004,99.470001,-61.529999,1729475949873.0,0.0
-1.205983,-3.806981,-4.962714,132.300003,53.830002,-37.170002,1729475949894.0,0.0
-1.028914,-6.180661,-5.627919,72.590004,30.450001,-28.49,1729475949914.0,0.0
-2.608176,-9.970891,-5.364708,78.959999,21.07,-23.52,1729475949933.0,0.0
-1.292124,-8.085347,-5.300103,169.960007,-25.129999,-9.45,1729475949954.0,0.0
-1.454836,-4.759324,-2.76371,182.839996,9.45,3.01,1729475949974.0,0.0
-3.498307,-3.507878,-3.227918,27.860001,14.63,6.37,1729475949997.0,0.0
-4.843073,-8.283953,-5.855237,-120.68,-24.15,17.01,1729475950013.0,0.0
-1.765903,-8.207381,-7.700103,-229.529999,-100.660004,8.05,1729475950032.0,0.0
-0.777667,-5.130211,-9.547362,-230.440002,-103.879997,-0.42,1729475950053.0,0.0
-1.529014,-2.852244,-11.674582,-157.639999,-95.830002,10.22,1729475950073.0,0.0
-3.251846,-1.162912,-11.868401,-27.09,-43.119999,36.68,1729475950094.0,0.0
-4.165904,-1.552942,-12.729815,89.599998,-21.49,52.849998,1729475950113.0,0.0
