acc_x,acc_y,acc_z,gyr_x,gyr_y,gyr_z,timestamp,label
-2.720639,-9.166903,-1.215554,40.32,3.57,-13.16,1729474452070.0,0.0
-2.89053,-9.008978,-1.591227,-20.02,-0.14,-22.190001,1729474452076.0,0.0
-3.105884,-10.176675,-2.005185,-76.510002,-4.06,-28.280001,1729474452077.0,0.0
-2.837888,-11.145767,-2.612962,-98.840004,-8.12,-34.02,1729474452077.0,0.0
-2.304288,-10.872985,-2.311467,-87.709999,-5.11,-34.299999,1729474452089.0,0.0
-1.887937,-9.595219,-2.062613,-71.959999,2.45,-38.779999,1729474452109.0,0.0
-1.945365,-8.85105,-2.230111,-66.010002,11.34,-40.040001,1729474452130.0,0.0
-2.213361,-8.963513,-2.395216,-74.550003,12.6,-40.32,1729474452149.0,0.0
-2.495714,-8.793623,-2.883351,-60.27,10.5,-32.060001,1729474452169.0,0.0
-2.536392,-8.79123,-3.292524,-31.710001,13.16,-28.07,1729474452190.0,0.0
-2.493321,-8.279166,-3.381058,-18.620001,15.54,-27.16,1729474452209.0,0.0
-2.569891,-8.29113,-3.278167,-14.56,18.200001,-23.17,1729474452230.0,0.0
-2.648855,-8.243275,-3.125026,-25.059999,19.110001,-24.99,1729474452249.0,0.0
-2.744568,-8.618947,-3.024528,-43.119999,19.32,-28.559999,1729474452269.0,0.0
-2.352145,-8.760124,-3.041277,-63.139999,12.25,-31.710001,1729474452290.0,0.0
-1.828116,-9.35833,-3.175276,-61.040001,3.43,-29.540001,1729474452309.0,0.0
-1.495514,-9.602397,-3.596412,-57.400002,-0.35,-31.5,1729474452329.0,0.0
-1.631905,-8.784052,-3.799802,-56.0,3.64,-34.23,1729474452348.0,0.0
-2.232504,-9.142976,-3.838088,-63.630001,10.43,-32.759998,1729474452369.0,0.0
-2.361716,-8.901299,-4.072584,-105.489998,5.25,-38.849998,1729474452390.0,0.0
-2.062613,-8.073383,-4.742575,-130.550003,-4.62,-39.619999,1729474452408.0,0.0
-2.132005,-9.336794,-5.4341,-113.959999,-7.84,-32.830002,1729474452429.0,0.0
-2.086541,-9.966106,-5.62074,-84.629997,-7.63,-31.780001,1729474452456.0,0.0
-1.887937,-9.083155,-4.85743,-35.700001,-0.35,-30.1,1729474452470.0,0.0
-1.758725,-8.599805,-4.82393,-7.0,0.21,-31.290001,1729474452489.0,0.0
-1.596013,-8.030313,-5.436492,-45.779999,-5.67,-38.009998,1729474452509.0,0.0
-1.371087,-7.348359,-5.922236,-93.800003,-10.08,-42.07,1729474452529.0,0.0
-1.543371,-7.025328,-5.584848,-122.919998,-7.63,-39.759998,1729474452549.0,0.0
-1.825724,-7.391429,-5.996413,-134.680008,-8.61,-38.5,1729474452570.0,0.0
-1.552942,-7.513463,-7.06122,-122.849998,-15.05,-36.610001,1729474452591.0,0.0
-1.208375,-6.496514,-7.051648,-90.090004,-16.870001,-29.469999,1729474452610.0,0.0
-1.282553,-5.915058,-7.228717,-56.420002,-10.36,-19.389999,1729474452631.0,0.0
-1.395016,-5.87438,-7.353144,-36.470001,-9.1,-11.97,1729474452650.0,0.0
-1.253839,-5.352744,-7.204789,-26.880001,-9.8,-5.88,1729474452670.0,0.0
-1.51705,-5.123034,-7.293324,-33.740002,-7.91,-1.61,1729474452692.0,0.0
-1.737189,-5.111069,-7.441679,-56.209999,-3.71,-1.54,1729474452710.0,0.0
-1.519442,-5.290531,-8.403593,-63.77,-5.6,1.05,1729474452732.0,0.0
-1.337588,-5.742774,-8.350951,-51.52,-3.99,4.41,1729474452750.0,0.0
-1.806581,-5.99402,-7.532606,-36.049999,5.11,3.29,1729474452770.0,0.0
-1.978864,-5.297709,-7.702496,-22.190001,7.63,0.77,1729474452792.0,0.0
-1.572084,-4.584648,-7.903493,-16.1,-1.75,1.47,1729474452810.0,0.0
-1.442872,-4.804788,-8.11167,-24.290001,-0.91,5.18,1729474452830.0,0.0
-1.651048,-5.20439,-8.370094,-31.43,5.04,6.44,1729474452850.0,0.0
-1.962115,-5.539384,-8.159525,-20.440001,6.72,7.07,1729474452871.0,0.0
-2.136791,-5.096712,-7.853244,-6.93,5.74,5.46,1729474452892.0,0.0
-2.0004,-4.955536,-8.145168,-8.12,2.24,6.16,1729474452911.0,0.0
-1.648655,-5.264209,-7.948956,-22.4,0.63,5.81,1729474452932.0,0.0
-1.533799,-5.953342,-8.044669,-36.540001,0.63,3.15,1729474452950.0,0.0
-1.533799,-6.104091,-7.996813,-38.709999,-0.98,-1.05,1729474452972.0,0.0
-1.641476,-5.852845,-8.128418,-34.790001,-1.82,-4.62,1729474452993.0,0.0
-1.584049,-5.85763,-8.719445,-26.18,-3.71,-5.25,1729474453011.0,0.0
-1.363909,-5.568098,-9.226725,-10.64,-5.04,-3.57,1729474453031.0,0.0
-1.339981,-5.192425,-9.47797,-3.36,-1.75,-0.98,1729474453052.0,0.0
-1.160519,-5.582455,-9.274581,-6.51,2.17,1.4,1729474453071.0,0.0
-0.899701,-5.63749,-9.166903,-4.9,4.83,-0.63,1729474453093.0,0.0
-0.921237,-5.067998,-9.020942,6.02,7.0,-2.1,1729474453111.0,0.0
-1.148555,-4.701896,-8.707481,9.8,9.1,-2.1,1729474453131.0,0.0
-1.155733,-4.61097,-8.752945,11.13,6.58,-0.98,1729474453151.0,0.0
-1.162912,-4.661219,-8.580662,12.88,5.32,0.63,1729474453176.0,0.0
-1.325624,-4.871787,-8.487342,7.91,6.51,0.14,1729474453191.0,0.0
-1.335195,-4.800002,-8.547162,-2.94,4.69,-3.08,1729474453210.0,0.0
-1.146162,-4.68754,-8.525627,-10.64,2.94,-4.34,1729474453231.0,0.0
-1.122234,-4.871787,-8.657232,-7.63,2.52,-2.66,1729474453251.0,0.0
-1.117448,-4.84068,-8.432307,-1.05,3.36,-1.68,1729474453271.0,0.0
-1.311267,-4.795217,-8.480164,-0.98,2.66,-1.54,1729474453293.0,0.0
-1.392623,-4.902894,-8.671589,-8.54,1.05,-2.17,1729474453310.0,0.0
-1.217947,-5.082355,-8.910872,-13.37,-1.19,-2.73,1729474453331.0,0.0
-0.937986,-5.089533,-9.035298,-9.24,-1.75,-2.24,1729474453352.0,0.0
-0.741775,-5.024928,-9.032906,0.35,-0.7,-0.98,1729474453370.0,0.0
-0.803988,-4.938786,-8.85823,4.69,0.63,-0.84,1729474453391.0,0.0
-1.39023,-5.005785,-8.941978,3.08,2.1,-1.68,1729474453411.0,0.0
-1.557728,-4.989035,-9.162118,1.96,1.12,-2.03,1729474453431.0,0.0
-1.426122,-5.079963,-9.119047,0.56,1.12,-1.4,1729474453450.0,0.0
-1.521835,-5.367101,-8.82473,-2.1,3.22,-2.03,1729474453471.0,0.0
-1.665405,-5.355137,-8.496914,2.94,5.6,-2.31,1729474453491.0,0.0
-1.739582,-5.412565,-8.41795,12.32,4.76,-2.52,1729474453510.0,0.0
-2.050649,-5.4006,-8.652447,20.440001,5.11,-2.24,1729474453532.0,0.0
-2.199004,-5.328816,-8.563912,25.200001,6.02,-2.03,1729474453550.0,0.0
-2.143969,-5.276174,-8.324631,23.59,8.54,-3.92,1729474453571.0,0.0
-2.139183,-5.4006,-8.23131,23.1,8.12,-5.18,1729474453593.0,0.0
-2.129612,-5.618347,-8.097312,28.559999,10.15,-6.93,1729474453611.0,0.0
-1.962115,-5.469993,-8.154739,33.950001,8.19,-8.54,1729474453631.0,0.0
-1.993221,-5.563312,-8.595018,27.65,9.45,-10.36,1729474453651.0,0.0
-2.440679,-5.749953,-8.238488,19.879999,19.809999,-13.16,1729474453670.0,0.0
-2.801995,-5.876772,-8.020741,25.41,24.780001,-13.23,1729474453692.0,0.0
-2.612962,-5.584848,-7.57089,33.18,23.17,-12.25,1729474453711.0,0.0
-2.151148,-5.745167,-7.752745,32.27,12.46,-10.43,1729474453733.0,0.0
-1.883151,-6.104091,-8.176274,20.09,10.36,-12.88,1729474453751.0,0.0
-1.864009,-5.71406,-7.822137,9.52,11.06,-18.34,1729474453770.0,0.0
-1.569692,-5.541777,-7.704889,7.49,4.76,-18.200001,1729474453794.0,0.0
-1.423729,-5.692525,-8.092526,-3.78,-0.77,-17.43,1729474453810.0,0.0
-1.651048,-6.068198,-8.425128,-10.64,2.31,-15.54,1729474453831.0,0.0
-1.768296,-6.403193,-8.099705,-4.34,3.78,-12.11,1729474453851.0,0.0
-1.70369,-6.297909,-7.726424,4.76,0.56,-12.6,1729474453870.0,0.0
-1.56012,-5.816952,-7.539784,6.23,-5.67,-16.52,1729474453893.0,0.0
-1.74676,-5.541777,-7.771888,-1.19,-8.89,-19.950001,1729474453910.0,0.0
-1.828116,-5.371887,-8.142776,-9.8,-9.94,-20.93,1729474453931.0,0.0
-1.452443,-5.142176,-7.759924,-18.059999,-13.58,-17.290001,1729474453951.0,0.0
-0.803988,-5.752346,-7.508677,-17.08,-21.49,-11.55,1729474453970.0,0.0
-0.775275,-6.329016,-8.106883,-4.34,-24.01,-8.26,1729474453992.0,0.0
-1.371087,-6.106483,-8.216952,10.01,-18.83,-9.31,1729474454010.0,0.0
-1.557728,-5.460421,-7.834101,4.55,-20.51,-12.67,1729474454032.0,0.0
-0.911665,-5.302495,-7.879565,-18.620001,-40.950001,-15.75,1729474454051.0,0.0
-0.267996,-5.584848,-8.55434,-43.610001,-52.849998,-20.58,1729474454071.0,0.0
-0.492921,-5.891129,-8.961121,-53.060001,-52.080002,-25.9,1729474454091.0,0.0
-0.617348,-5.982057,-8.559127,-47.389999,-44.52,-32.900002,1729474454110.0,0.0
-0.535992,-5.876772,-8.059027,-44.240002,-42.139999,-36.959999,1729474454131.0,0.0
-0.344566,-5.69731,-7.668997,-31.85,-43.049999,-38.57,1729474454149.0,0.0
0.105284,-5.474778,-7.893922,-13.86,-47.32,-39.060001,1729474454171.0,0.0
0.882952,-5.132604,-8.298308,-12.39,-56.560001,-39.970001,1729474454194.0,0.0
1.18684,-4.972286,-8.566305,-28.84,-53.830002,-42.98,1729474454210.0,0.0
1.201197,-5.082355,-9.181261,-37.099998,-47.389999,-44.869999,1729474454232.0,0.0
1.069592,-4.630112,-9.186047,-33.040001,-38.150002,-41.650002,1729474454252.0,0.0
0.756132,-4.096512,-9.406186,-32.27,-30.309999,-34.580002,1729474454271.0,0.0
0.428315,-4.398008,-9.860823,-38.360001,-23.73,-25.200001,1729474454292.0,0.0
0.138784,-4.922036,-10.19821,-39.130001,-14.56,-16.940001,1729474454310.0,0.0
-0.09332,-5.180461,-10.296316,-24.01,-6.51,-9.87,1729474454331.0,0.0
-0.294317,-5.070391,-10.085747,1.19,1.54,-3.92,1729474454350.0,0.0
-0.29671,-4.852644,-9.700503,26.110001,6.51,0.63,1729474454371.0,0.0
-0.265603,-4.09412,-8.939585,34.16,10.85,3.08,1729474454391.0,0.0
-0.200997,-3.737589,-8.726624,12.46,12.25,2.24,1729474454410.0,0.0
0.055035,-4.914857,-8.563912,-38.080002,8.61,-2.38,1729474454431.0,0.0
0.177069,-5.45085,-8.810372,-40.110001,7.21,-8.19,1729474454450.0,0.0
0.078963,-5.113462,-9.123833,-11.06,7.28,-10.78,1729474454473.0,0.0
-0.212961,-4.046263,-8.831908,13.23,10.36,-11.55,1729474454499.0,0.0
-0.425922,-3.347559,-8.695518,-4.13,14.35,-12.74,1729474454510.0,0.0
-0.27996,-3.570091,-9.071191,-32.41,13.86,-10.57,1729474454530.0,0.0
0.61017,-3.579663,-9.65504,-43.75,8.47,-6.23,1729474454561.0,0.0
1.167697,-3.139383,-10.348958,-36.610001,10.5,1.19,1729474454580.0,0.0
0.746561,-2.895315,-10.772489,-22.68,22.889999,5.88,1729474454593.0,0.0
-0.07657,-3.160919,-11.042876,0.35,30.870001,10.5,1729474454610.0,0.0
-0.385244,-3.101098,-11.140982,26.950001,28.49,15.190001,1729474454630.0,0.0
-0.378066,-2.964707,-10.671989,35.77,26.809999,16.940001,1729474454650.0,0.0
-0.614955,-2.945565,-9.937392,28.280001,28.42,14.14,1729474454671.0,0.0
-0.875773,-3.302095,-9.468399,5.32,29.4,8.54,1729474454691.0,0.0
-0.674776,-3.814159,-9.415757,-20.860001,27.719999,1.05,1729474454710.0,0.0
0.023928,-3.996014,-9.138189,-28.139999,26.6,-2.52,1729474454741.0,0.0
0.387637,-3.883551,-9.298509,-3.78,26.040001,-5.39,1729474454751.0,0.0
0.574277,-3.541377,-9.229117,10.15,30.799999,-7.63,1729474454770.0,0.0
0.401994,-3.407379,-9.147761,9.94,31.780001,-8.68,1729474454794.0,0.0
-0.0335,-3.804588,-8.551948,-2.38,28.91,-11.34,1729474454810.0,0.0
-0.612563,-3.445665,-8.271988,-27.299999,24.92,-18.27,1729474454835.0,0.0
-0.945165,-4.342973,-9.379865,-42.77,7.07,-21.07,1729474454855.0,0.0
-0.229711,-4.979464,-9.08794,-30.1,-5.67,-25.76,1729474454887.0,0.0
-0.299103,-3.010171,-8.078169,-23.450001,-0.42,-29.610001,1729474454908.0,0.0
-1.086342,-4.316652,-8.863015,-27.370001,0.35,-31.99,1729474454911.0,0.0
0.100499,-3.979264,-9.635897,-12.95,-11.06,-34.580002,1729474454931.0,0.0
1.375873,-3.285345,-10.241282,7.84,-15.89,-29.190001,1729474454953.0,0.0
1.808974,-2.452643,-9.690931,6.3,-3.01,-24.43,1729474455027.0,0.0
1.320838,-1.344766,-8.975478,7.98,5.81,-11.48,1729474455028.0,0.0
0.114855,-0.425922,-8.88455,3.01,11.55,7.14,1729474455028.0,0.0
-0.217747,-2.696711,-9.186047,-26.460001,3.43,24.15,1729474455035.0,0.0
0.459422,-3.883551,-10.427922,-52.009998,-5.81,18.690001,1729474455051.0,0.0
0.119641,-4.517649,-11.12184,-37.450001,2.66,10.92,1729474455072.0,0.0
-1.026521,-4.041477,-9.355937,2.03,16.17,9.52,1729474455121.0,0.0
-1.349552,-3.510271,-9.047262,37.380001,13.02,17.710001,1729474455131.0,0.0
-0.241675,-3.294917,-8.159525,24.780001,4.13,25.34,1729474455133.0,0.0
1.026521,-4.931608,-8.913264,-19.809999,-6.16,27.65,1729474455152.0,0.0
0.921237,-6.276374,-9.533006,-19.6,0.84,21.139999,1729474455172.0,0.0
-0.047856,-5.838487,-9.454042,13.65,10.29,12.95,1729474455192.0,0.0
-0.820738,-4.503292,-9.547362,19.389999,12.04,1.05,1729474455215.0,0.0
-0.985843,-4.508078,-10.461421,8.4,6.65,-7.14,1729474455232.0,0.0
-0.234497,-5.020142,-9.410972,4.69,3.22,-9.59,1729474455252.0,0.0
0.581456,-4.711468,-8.743374,3.29,-0.98,-14.42,1729474455272.0,0.0
0.471386,-3.89073,-8.865408,9.59,0.49,-20.65,1729474455293.0,0.0
-0.468993,-2.048256,-9.769895,13.16,5.74,-24.92,1729474455312.0,0.0
-1.462015,-2.861816,-10.368099,12.6,6.23,-20.93,1729474455332.0,0.0
-0.562313,-3.696911,-10.040283,4.41,4.9,-26.18,1729474455352.0,0.0
0.09332,-2.184647,-8.987441,36.400002,6.02,-24.43,1729474455372.0,0.0
0.428315,-1.31366,-7.795816,39.27,6.44,-14.7,1729474455393.0,0.0
0.547956,0.535992,-7.800602,5.6,7.0,-0.35,1729474455412.0,0.0
-0.260818,-1.316052,-8.061419,-53.200001,6.93,17.360001,1729474455432.0,0.0
0.394816,-2.734996,-9.458827,-86.870003,-1.54,21.42,1729474455452.0,0.0
1.849652,-0.653241,-9.209974,-111.720001,-18.549999,27.23,1729474455472.0,0.0
1.90708,-2.782853,-9.611969,-152.180008,-12.81,31.92,1729474455493.0,0.0
1.512264,-5.422136,-10.667203,-92.540001,-9.45,36.189999,1729474455512.0,0.0
0.624527,-5.362316,-10.033106,41.02,-7.84,49.84,1729474455532.0,0.0
-1.146162,-3.34038,-8.193025,84.07,6.16,45.57,1729474455551.0,0.0
-3.321238,-3.826123,-8.453842,17.780001,6.3,31.219999,1729474455572.0,0.0
-2.397608,-8.733803,-10.667203,-67.340004,-8.05,-7.0,1729474455595.0,0.0
0.78006,-9.975677,-11.038091,-27.860001,-27.719999,-33.110001,1729474455612.0,0.0
2.050649,-5.769095,-11.514263,97.160004,-31.15,-43.119999,1729474455632.0,0.0
0.090927,-2.287539,-10.456635,146.369995,6.93,-46.27,1729474455651.0,0.0
-0.945165,-1.871187,-9.595219,79.800003,14.77,-40.810001,1729474455671.0,0.0
0.129212,-5.099105,-8.075776,0.35,5.67,-40.110001,1729474455692.0,0.0
0.861416,-2.550749,-8.047063,-8.54,-5.53,-44.799999,1729474455711.0,0.0
0.078963,1.222732,-8.169096,30.52,-3.92,-24.99,1729474455734.0,0.0
-0.323031,0.624527,-9.300901,24.15,-3.85,5.18,1729474455751.0,0.0
1.476372,-2.522035,-9.461221,-22.68,-19.389999,16.24,1729474455773.0,0.0
2.464607,-3.349952,-10.430314,-41.650002,-19.950001,13.51,1729474455793.0,0.0
1.804188,-2.758924,-11.327622,-5.25,-3.5,13.79,1729474455811.0,0.0
-0.275175,-3.572484,-10.660025,32.130001,16.59,26.950001,1729474455832.0,0.0
-1.201197,-2.87378,-10.119246,-1.89,21.84,23.870001,1729474455851.0,0.0
-1.828116,-4.536791,-7.745567,-35.84,19.040001,29.75,1729474455872.0,0.0
-1.172483,-6.709475,-9.444471,-23.870001,9.73,24.219999,1729474455892.0,0.0
-0.545564,-8.398808,-11.985649,27.23,0.49,15.75,1729474455911.0,0.0
-0.325424,-7.353144,-10.650455,75.040001,11.34,-0.21,1729474455933.0,0.0
-0.59342,-5.338387,-8.736196,97.790001,23.940001,-13.16,1729474455951.0,0.0
-0.11007,-4.534399,-6.862615,78.050003,7.42,-23.870001,1729474455971.0,0.0
-0.136391,-4.541577,-6.278766,40.32,2.24,-37.099998,1729474455993.0,0.0
-0.342174,-4.716253,-7.953743,1.33,-5.11,-51.52,1729474456012.0,0.0
0.741775,-1.909473,-8.334201,-9.1,-15.96,-49.91,1729474456031.0,0.0
1.287339,0.631705,-9.01137,-24.710001,-20.51,-35.560001,1729474456053.0,0.0
0.208176,1.65344,-7.941778,-18.9,-6.93,1.82,1729474456072.0,0.0
0.591027,-3.129812,-9.365508,-62.650002,-22.120001,17.639999,1729474456092.0,0.0
1.383051,-3.371487,-10.899307,-95.690002,-22.049999,12.18,1729474456111.0,0.0
0.55992,-3.055635,-10.636096,-43.330002,-16.379999,20.02,1729474456131.0,0.0
-0.954736,-4.522435,-10.317852,3.08,3.08,27.51,1729474456152.0,0.0
-0.691526,-3.330809,-10.061819,-0.63,1.75,26.67,1729474456172.0,0.0
0.011964,-3.998406,-11.16491,-26.460001,2.66,31.57,1729474456193.0,0.0
0.605384,-6.422336,-9.96132,-37.380001,8.61,30.030001,1729474456211.0,0.0
0.552742,-7.008578,-9.717253,-1.26,16.379999,22.049999,1729474456232.0,0.0
-0.055035,-6.532406,-10.413565,60.760002,17.85,16.24,1729474456251.0,0.0
-0.655633,-5.422136,-9.858429,85.470001,21.700001,7.7,1729474456272.0,0.0
-1.009771,-4.709075,-9.908678,56.77,22.82,-6.58,1729474456293.0,0.0
-0.346959,-4.890929,-8.973085,27.719999,18.76,-19.040001,1729474456310.0,0.0
0.20339,-5.087141,-7.578069,23.52,9.66,-25.83,1729474456332.0,0.0
-0.39003,-5.374279,-7.161718,11.41,10.92,-36.82,1729474456352.0,0.0
-0.224925,-3.586841,-8.523234,-7.77,-2.8,-50.119999,1729474456372.0,0.0
0.528814,-1.574477,-8.523234,-12.39,-7.21,-45.080002,1729474456392.0,0.0
0.799203,2.055435,-7.633104,-12.88,-8.89,-21.07,1729474456411.0,0.0
1.064806,-1.01695,-8.633304,-26.6,-15.47,11.41,1729474456431.0,0.0
1.45005,-2.924029,-9.79143,-71.400002,-19.040001,15.12,1729474456452.0,0.0
0.579063,-3.141776,-11.107484,-35.91,-11.97,24.290001,1729474456471.0,0.0
0.332602,-3.424129,-10.660025,-2.66,-4.76,30.24,1729474456491.0,0.0
0.416351,-3.701697,-10.145569,-22.469999,7.7,26.460001,1729474456511.0,0.0
-0.27996,-6.38405,-9.382257,-21.35,15.26,28.84,1729474456540.0,0.0
-0.196211,-7.551748,-9.217153,-16.1,11.55,13.09,1729474456550.0,0.0
-0.208176,-7.822137,-10.250853,8.4,3.64,-2.87,1729474456572.0,0.0
-0.205783,-7.439285,-9.860823,42.560001,4.97,-18.83,1729474456592.0,0.0
-0.413958,-5.644669,-9.937392,74.970001,7.91,-28.700001,1729474456613.0,0.0
-0.246461,-3.656233,-8.516055,73.43,10.01,-33.32,1729474456632.0,0.0
0.138784,-2.720639,-7.60439,25.690001,10.01,-36.889999,1729474456652.0,0.0
0.09332,-3.57727,-8.008778,-23.799999,2.1,-42.77,1729474456672.0,0.0
0.040678,-1.435694,-7.628319,-15.82,-2.8,-37.939999,1729474456693.0,0.0
0.947558,-0.641276,-8.635696,-14.56,-12.74,-22.469999,1729474456715.0,0.0
1.74676,-1.122234,-8.891729,-0.21,-17.99,1.12,1729474456735.0,0.0
1.007378,-2.301895,-9.341579,39.130001,-14.7,25.34,1729474456751.0,0.0
0.318245,-1.998007,-9.097511,21.35,-7.84,24.43,1729474456772.0,0.0
-0.023928,-2.641676,-8.79123,-15.33,-7.0,25.549999,1729474456793.0,0.0
0.562313,-3.981657,-9.611969,-24.15,-12.81,29.049999,1729474456812.0,0.0
0.100499,-5.572884,-9.667004,-7.77,-4.27,33.529999,1729474456833.0,0.0
-0.552742,-5.161318,-12.277573,2.24,10.15,32.060001,1729474456852.0,0.0
0.253639,-5.379066,-9.74836,17.08,8.89,33.880001,1729474456873.0,0.0
0.136391,-7.049256,-7.238289,28.0,14.07,30.17,1729474456893.0,0.0
-0.311067,-8.575876,-8.757731,32.619999,11.55,10.01,1729474456912.0,0.0
-0.605384,-8.965906,-9.410972,61.389999,-0.35,-7.77,1729474456933.0,0.0
-0.555135,-6.745367,-9.439686,70.0,3.36,-29.120001,1729474456952.0,0.0
-0.088534,-3.761517,-8.023134,61.670002,2.87,-37.869999,1729474456972.0,0.0
-0.485743,-3.61077,-7.65464,11.41,-6.09,-36.470001,1729474456993.0,0.0
-0.672383,-3.651447,-8.073383,-22.120001,-2.03,-37.380001,1729474457065.0,0.0
-0.16989,-2.550749,-7.601997,-16.379999,-11.76,-24.57,1729474457069.0,0.0
1.028914,-0.241675,-8.839087,-18.41,-23.73,-7.77,1729474457071.0,0.0
0.90688,-2.0004,-8.133204,-8.33,-24.219999,20.23,1729474457074.0,0.0
0.157926,-3.424129,-9.343972,-9.31,-16.030001,28.49,1729474457098.0,0.0
-0.488136,-3.354738,-9.095119,-25.9,-12.11,30.450001,1729474457114.0,0.0
0.375673,-4.158726,-10.908878,-59.709999,-16.17,28.700001,1729474457134.0,0.0
0.468993,-5.570491,-11.282159,-54.459999,-7.21,32.759998,1729474457153.0,0.0
-0.607777,-5.771489,-11.370694,-11.55,14.21,38.360001,1729474457173.0,0.0
-0.617348,-6.305088,-8.382057,7.63,19.460001,36.540001,1729474457194.0,0.0
0.045464,-7.757531,-8.068598,-2.8,7.35,25.059999,1729474457213.0,0.0
0.059821,-9.899107,-8.587841,6.02,3.71,3.57,1729474457234.0,0.0
-0.342174,-8.542377,-9.224331,32.830002,2.45,-22.469999,1729474457258.0,0.0
-1.229911,-4.905287,-9.829715,59.779999,2.66,-36.68,1729474457275.0,0.0
-0.806381,-3.132205,-8.55434,18.9,5.6,-42.349998,1729474457294.0,0.0
-0.40678,-3.991228,-7.925028,-11.06,-3.5,-34.23,1729474457313.0,0.0
-0.342174,-3.737589,-8.054241,-7.28,3.01,-30.380001,1729474457334.0,0.0
-0.684347,-2.608176,-7.365108,11.27,1.54,-18.969999,1729474457353.0,0.0
-0.210568,-0.160319,-7.992027,-0.42,-5.04,-6.16,1729474457374.0,0.0
0.533599,-1.404587,-8.52802,-12.53,-17.85,15.61,1729474457395.0,0.0
0.892523,-3.412165,-9.236296,-18.34,-18.549999,21.98,1729474457413.0,0.0
0.349352,-3.629912,-10.124033,-3.85,-12.6,24.85,1729474457433.0,0.0
-0.239282,-3.56052,-9.224331,-12.6,-4.9,22.889999,1729474457453.0,0.0
0.311067,-3.725625,-9.793823,-26.880001,-6.16,24.290001,1729474457473.0,0.0
-0.5001,-4.910072,-11.990433,-32.130001,8.4,29.75,1729474457494.0,0.0
-0.081356,-5.871986,-10.784451,-27.65,13.440001,30.52,1729474457513.0,0.0
-0.222532,-6.953543,-8.372486,-17.57,22.190001,28.07,1729474457533.0,0.0
-0.756132,-9.052048,-8.760124,2.17,18.549999,11.76,1729474457553.0,0.0
-0.942772,-9.628718,-9.346365,46.830002,9.73,-6.37,1729474457573.0,0.0
-0.449851,-6.577869,-8.506484,59.080002,4.41,-29.82,1729474457595.0,0.0
-1.024128,-5.481956,-8.200203,40.529999,4.55,-39.27,1729474457614.0,0.0
-1.174876,-2.916851,-7.243074,17.219999,9.17,-43.259998,1729474457633.0,0.0
-1.045663,-2.63689,-7.341179,1.33,-6.51,-29.960001,1729474457653.0,0.0
-0.760918,-2.658426,-7.585248,-20.93,-6.58,-21.280001,1729474457673.0,0.0
-0.339781,-3.06042,-8.298308,-26.950001,-10.92,-10.57,1729474457694.0,0.0
0.428315,-1.337588,-8.195417,-35.560001,-18.549999,-4.41,1729474457747.0,0.0
0.165105,-1.308874,-9.310472,-26.32,-19.110001,10.92,1729474457749.0,0.0
0.275175,-3.381058,-9.901501,-12.46,-15.26,23.24,1729474457764.0,0.0
0.947558,-3.29731,-10.356135,-22.960001,-17.219999,23.73,1729474457897.0,0.0
0.133998,-3.59402,-8.879765,-56.0,-4.97,22.610001,1729474457898.0,0.0
-1.246661,-4.139583,-12.567105,-55.790001,14.77,25.48,1729474457898.0,0.0
-0.162712,-4.981857,-11.394621,-21.91,6.16,35.560001,1729474457898.0,0.0
-0.358923,-5.288138,-9.217153,-4.34,23.1,41.93,1729474457899.0,0.0
-1.20359,-7.960921,-7.484749,-16.73,24.85,28.77,1729474457899.0,0.0
-1.055235,-10.15514,-9.568897,9.45,10.01,7.42,1729474457899.0,0.0
-0.189033,-7.76471,-9.049655,31.360001,1.54,-20.790001,1729474457912.0,0.0
-0.476172,-5.757132,-8.910872,41.02,-2.59,-36.189999,1729474457933.0,0.0
-1.213161,-5.264209,-8.79123,10.92,9.31,-53.060001,1729474457952.0,0.0
-0.892523,-3.531806,-7.676175,24.5,-0.77,-44.799999,1729474457974.0,0.0
-0.660419,-0.569492,-6.879365,26.32,-8.33,-32.759998,1729474457995.0,0.0
-0.808774,-1.182054,-7.939385,2.45,-10.22,-13.37,1729474458013.0,0.0
0.284746,-0.995414,-8.740981,-39.060001,-16.1,-5.67,1729474458034.0,0.0
0.859023,-2.488536,-9.875179,-28.210001,-20.93,14.14,1729474458052.0,0.0
1.189233,-3.146562,-10.100104,3.99,-17.85,18.129999,1729474458073.0,0.0
0.473779,-2.804388,-8.51127,18.200001,-10.99,23.450001,1729474458096.0,0.0
-0.184247,-2.464607,-9.695717,-22.469999,0.42,18.48,1729474458114.0,0.0
-0.354138,-3.955336,-11.514263,-46.970001,-4.97,26.32,1729474458133.0,0.0
-0.480957,-5.020142,-12.373285,-23.870001,11.13,35.420002,1729474458155.0,0.0
-0.234497,-5.47717,-9.533006,-10.36,20.370001,37.380001,1729474458173.0,0.0
-1.033699,-7.235896,-8.181061,13.86,24.43,34.16,1729474458194.0,0.0
-1.155733,-9.044869,-9.183653,20.440001,16.940001,11.2,1729474458213.0,0.0
-0.404387,-7.776673,-9.044869,16.24,7.63,-16.66,1729474458233.0,0.0
-0.045464,-5.749953,-8.327023,20.790001,0.63,-35.700001,1729474458252.0,0.0
-1.667797,-6.393622,-9.217153,32.970001,8.96,-42.349998,1729474458273.0,0.0
-1.205983,-3.905087,-7.721639,38.709999,5.95,-51.939999,1729474458293.0,0.0
-0.430708,-0.275175,-6.601797,38.080002,-8.54,-36.889999,1729474458312.0,0.0
-0.421137,-1.959722,-7.855636,13.37,-6.23,-15.05,1729474458333.0,0.0
-0.031107,-1.529014,-7.848458,-28.42,-1.61,-6.09,1729474458352.0,0.0
-0.212961,-1.787439,-8.853443,-25.200001,-9.38,14.77,1729474458373.0,0.0
0.447458,-3.019742,-9.102298,-15.47,-14.63,18.83,1729474458394.0,0.0
0.583849,-3.940979,-9.583255,0.63,-17.290001,23.66,1729474458412.0,0.0
0.021535,-2.959922,-9.140583,-26.389999,-6.72,13.16,1729474458433.0,0.0
-0.425922,-3.52702,-10.372886,-55.299999,-1.82,13.72,1729474458453.0,0.0
-0.39003,-4.864608,-11.877973,-38.639999,4.83,22.82,1729474458473.0,0.0
-0.557528,-6.12084,-10.028319,-11.06,15.75,31.219999,1729474458494.0,0.0
-0.51685,-7.226324,-8.082954,-2.94,18.76,25.549999,1729474458513.0,0.0
-0.660419,-9.052048,-8.975478,18.969999,11.2,10.5,1729474458533.0,0.0
-0.133998,-8.13799,-9.583255,29.82,4.13,-16.799999,1729474458552.0,0.0
0.167498,-6.551548,-9.600004,48.02,1.26,-30.450001,1729474458581.0,0.0
-0.665205,-5.881558,-9.506684,58.240002,12.25,-37.799999,1729474458594.0,0.0
-1.179662,-2.510071,-7.647461,36.82,18.48,-42.98,1729474458612.0,0.0
-1.040878,-2.45025,-7.125826,2.31,0.07,-29.190001,1729474458638.0,0.0
-0.926022,-2.273181,-7.444071,-14.14,-1.82,-22.049999,1729474458653.0,0.0
-0.337388,-1.430908,-7.633104,-41.650002,-9.94,-16.24,1729474458675.0,0.0
0.502493,-2.108077,-9.056834,-38.009998,-19.879999,-1.05,1729474458694.0,0.0
0.954736,-2.804388,-9.45165,-22.889999,-20.65,8.89,1729474458713.0,0.0
0.244068,-4.603791,-9.47797,-14.91,-12.32,15.68,1729474458738.0,0.0
-0.18664,-4.232903,-9.343972,-27.860001,-6.65,6.02,1729474458754.0,0.0
0.12682,-3.682554,-9.643075,-27.16,-8.26,10.85,1729474458773.0,0.0
-0.200997,-4.893322,-11.033305,-9.24,-2.94,21.0,1729474458805.0,0.0
-0.416351,-4.886144,-11.253445,-2.31,10.43,24.85,1729474458814.0,0.0
-0.09332,-5.556134,-8.88455,-17.15,16.59,24.92,1729474458835.0,0.0
-0.222532,-7.645068,-8.41795,-1.19,13.86,18.549999,1729474458854.0,0.0
-0.705883,-8.606983,-9.19801,40.740002,11.69,3.29,1729474458876.0,0.0
-1.014557,-5.379066,-9.568897,71.82,7.14,-16.1,1729474458895.0,0.0
-0.923629,-3.694518,-8.666803,44.73,6.72,-32.970001,1729474458914.0,0.0
-0.509671,-3.558127,-8.147561,6.65,0.21,-34.509998,1729474458935.0,0.0
-0.729811,-4.307081,-7.939385,-7.63,4.97,-33.25,1729474458954.0,0.0
-0.830309,-2.864209,-7.310073,-0.49,0.91,-30.940001,1729474458974.0,0.0
-0.555135,-1.045663,-7.826923,-4.97,-4.34,-19.110001,1729474458995.0,0.0
-0.100499,-1.217947,-7.91785,-8.47,-10.71,1.75,1729474459014.0,0.0
0.579063,-2.366502,-8.171489,-18.76,-14.91,15.4,1729474459034.0,0.0
0.87338,-3.821337,-9.24108,-27.440001,-19.879999,20.370001,1729474459057.0,0.0
1.055235,-3.778267,-9.683753,-22.049999,-20.51,20.790001,1729474459078.0,0.0
0.856631,-3.213561,-11.22473,-32.34,-6.23,21.35,1729474459098.0,0.0
0.074178,-4.754539,-11.751152,-40.599998,4.69,27.65,1729474459116.0,0.0
-0.20339,-5.003392,-11.729616,-12.46,17.01,33.040001,1729474459136.0,0.0
-0.129212,-5.259424,-8.788837,-11.2,23.450001,31.43,1729474459156.0,0.0
-1.361516,-8.185846,-8.52802,-9.52,25.620001,25.620001,1729474459178.0,0.0
-1.277767,-8.420342,-9.765109,18.76,14.28,-1.05,1729474459207.0,0.0
-0.5001,-6.118448,-8.662018,19.040001,10.01,-20.440001,1729474459215.0,0.0
-0.681954,-5.709275,-8.91805,7.77,8.05,-28.84,1729474459237.0,0.0
-1.009771,-6.362515,-9.348758,6.86,9.94,-40.110001,1729474459256.0,0.0
-0.588634,-4.721039,-7.56132,48.299999,4.55,-40.599998,1729474459275.0,0.0
-0.89013,-2.419144,-5.426922,91.419998,-1.96,-31.43,1729474459301.0,0.0
-0.691526,0.514457,-6.960721,49.490002,-9.1,-17.15,1729474459316.0,0.0
-0.31346,-1.976472,-8.35813,-7.91,-14.56,7.84,1729474459337.0,0.0
0.79681,-3.460021,-9.698111,-31.57,-16.450001,15.33,1729474459357.0,0.0
0.739382,-3.488736,-10.526026,10.71,-10.22,31.219999,1729474459375.0,0.0
0.162712,-5.166104,-10.621738,44.380001,3.43,34.720001,1729474459396.0,0.0
0.37328,-6.664011,-9.470792,59.990002,7.35,27.02,1729474459415.0,0.0
0.662812,-7.652246,-8.451449,97.790001,6.86,21.42,1729474459436.0,0.0
0.70349,-7.89153,-7.54457,160.860001,9.52,16.66,1729474459455.0,0.0
0.468993,-7.762317,-7.336394,242.130005,10.36,23.1,1729474459477.0,0.0
0.579063,-8.10449,-6.915257,337.119995,-3.15,39.900002,1729474459496.0,0.0
-0.133998,-9.219545,-8.353344,397.73999,-11.9,54.670002,1729474459515.0,0.0
-0.081356,-9.659825,-8.214561,480.480011,14.21,67.550003,1729474459537.0,0.0
-1.488336,-9.549755,-3.677768,557.47998,35.98,76.790001,1729474459555.0,0.0
-1.921437,-9.786645,-0.61017,574.840027,36.959999,56.420002,1729474459575.0,0.0
-1.787439,-10.169496,1.225125,556.01001,16.73,42.91,1729474459597.0,0.0
-0.911665,-8.398808,2.11047,495.950012,23.1,22.889999,1729474459614.0,0.0
-1.002593,-6.608976,4.12044,402.01001,26.950001,5.95,1729474459637.0,0.0
-1.663012,-6.702296,6.417551,285.320007,12.18,0.84,1729474459656.0,0.0
-2.11047,-7.262216,7.599605,181.789993,-4.55,-1.82,1729474459675.0,0.0
-1.971686,-7.812566,8.013563,118.720001,-11.48,-10.57,1729474459695.0,0.0
-1.665405,-7.73121,6.393622,75.389999,-17.360001,-20.51,1729474459715.0,0.0
-1.28016,-7.130611,3.969693,72.309998,-13.65,-18.969999,1729474459739.0,0.0
-1.914258,-6.396015,6.221339,116.550003,6.51,-4.2,1729474459755.0,0.0
0.212961,-5.62074,7.034898,66.5,-15.82,-14.35,1729474459775.0,0.0
-0.849452,-9.420543,5.635098,-97.160004,12.95,-13.23,1729474459797.0,0.0
-1.823331,-13.000205,4.405186,-39.34,23.940001,-46.34,1729474459818.0,0.0
-1.607977,-10.126426,5.331209,109.690002,52.57,-58.380001,1729474459837.0,0.0
-0.98345,-4.031906,6.474977,188.369995,51.170002,-52.080002,1729474459855.0,0.0
-0.646062,-1.062413,7.4345,105.629997,47.599998,-29.68,1729474459875.0,0.0
-1.514657,-2.490928,8.037491,43.189999,39.48,-28.0,1729474459898.0,0.0
-0.78006,-1.768296,7.795816,-15.4,29.960001,-27.719999,1729474459915.0,0.0
-1.708475,-2.467,7.893922,-9.38,25.690001,11.48,1729474459936.0,0.0
-2.768496,-4.632504,6.690332,-13.3,13.58,18.690001,1729474459955.0,0.0
-2.651247,-5.996413,6.898508,-0.7,8.96,30.52,1729474459975.0,0.0
-1.744368,-5.173282,9.29133,50.049999,14.42,42.98,1729474459996.0,0.0
-2.155933,-5.580062,10.91845,69.160004,10.5,48.860001,1729474460016.0,0.0
-3.909872,-6.929615,7.422535,6.51,-4.13,32.970001,1729474460036.0,0.0
-10.834702,-11.270195,4.15394,-21.07,-4.69,18.76,1729474460055.0,0.0
0.306281,-8.925228,4.905287,14.28,2.52,-34.860001,1729474460075.0,0.0
-0.507278,-7.209574,7.439285,77.349998,32.689999,-12.81,1729474460096.0,0.0
-1.67019,-3.632305,9.669396,84.559998,34.23,-21.91,1729474460114.0,0.0
-2.29711,-2.287539,8.492127,27.719999,16.799999,-10.08,1729474460136.0,0.0
-1.229911,-3.818945,7.795816,-32.48,1.4,6.65,1729474460154.0,0.0
-2.924029,-4.326223,8.693125,-57.75,2.31,12.95,1729474460174.0,0.0
-3.424129,-7.176075,7.618747,-68.389999,-15.54,8.26,1729474460196.0,0.0
-4.299902,-9.049655,6.89133,-49.91,-18.48,-2.52,1729474460215.0,0.0
-3.160919,-8.657232,6.297909,-11.27,-8.26,-15.33,1729474460235.0,0.0
-2.56032,-7.068398,8.226524,40.740002,2.8,-17.5,1729474460255.0,0.0
-2.306681,-4.639683,8.853443,49.84,7.63,-24.99,1729474460274.0,0.0
-2.201397,-5.359922,8.233703,3.43,2.94,-33.529999,1729474460296.0,0.0
-0.844666,-3.249453,8.551948,-36.189999,4.27,-32.970001,1729474460316.0,0.0
-1.299303,-3.251846,6.029913,-47.110001,-3.08,-19.67,1729474460335.0,0.0
-0.837488,-3.326023,6.470192,-41.369999,-2.52,-9.8,1729474460355.0,0.0
-0.997807,-3.754339,9.312866,15.54,1.89,18.83,1729474460376.0,0.0
-3.220739,-3.761517,9.47797,23.799999,-9.59,21.07,1729474460405.0,0.0
-2.222932,-3.304488,8.595018,3.5,-17.219999,37.099998,1729474460415.0,0.0
-1.423729,-3.701697,7.733603,-12.39,-20.02,44.380001,1729474460435.0,0.0
-2.888137,-5.656632,7.149754,-26.530001,-16.030001,42.0,1729474460454.0,0.0
-4.601398,-7.185646,7.456036,-25.34,-11.06,36.189999,1729474460474.0,0.0
-16.955542,-15.081962,5.058427,12.25,-4.41,29.190001,1729474460496.0,0.0
3.354738,-6.927221,8.836694,70.419998,-6.23,-27.93,1729474460514.0,0.0
1.363909,-6.257231,8.410772,50.82,3.15,-20.440001,1729474460536.0,0.0
0.428315,-2.871387,7.625926,-29.4,17.85,-2.59,1729474460555.0,0.0
-2.596212,-8.075776,6.123233,-108.43,12.88,13.440001,1729474460576.0,0.0
-3.680161,-11.282159,5.52742,-110.949997,-10.99,-60.830002,1729474460595.0,0.0
-2.675175,-6.204589,5.682954,44.380001,3.78,-35.490002,1729474460615.0,0.0
-2.993421,-3.177669,9.554541,126.699997,17.5,-4.48,1729474460635.0,0.0
-1.74676,-3.034099,9.315259,36.610001,4.2,-33.950001,1729474460654.0,0.0
-1.189233,-2.701497,9.054441,-61.25,-5.81,-22.540001,1729474460675.0,0.0
-1.359123,-4.369294,6.235696,-94.220001,-10.78,-11.41,1729474460696.0,0.0
-1.378266,-5.283352,6.541977,-65.519997,-6.72,-1.33,1729474460715.0,0.0
-2.431108,-5.611169,8.640482,1.19,-0.91,12.74,1729474460739.0,0.0
-3.790231,-3.785445,9.382257,38.220001,-7.28,14.63,1729474460754.0,0.0
-2.744568,-1.818545,8.743374,41.299999,-12.88,24.710001,1729474460774.0,0.0
-0.835095,-2.086541,7.738388,15.05,-14.56,36.82,1729474460796.0,0.0
-0.847059,-4.902894,6.951149,-32.060001,-14.77,40.040001,1729474460814.0,0.0
-4.316652,-7.183254,6.056234,-52.150002,-13.93,34.23,1729474460836.0,0.0
-0.947558,-7.73121,6.845865,25.76,-2.94,37.310001,1729474460855.0,0.0
-3.498307,-9.142976,8.69791,95.550003,7.84,15.47,1729474460875.0,0.0
0.806381,-6.01077,8.159525,49.560001,-13.02,-10.29,1729474460896.0,0.0
-0.471386,-7.168896,7.171289,-35.209999,4.9,-7.42,1729474460914.0,0.0
-0.358923,-5.345565,6.661618,-68.599998,15.47,-13.3,1729474460936.0,0.0
-3.519842,-9.437292,6.812366,-65.379997,10.57,8.54,1729474460954.0,0.0
-3.845266,-9.525827,6.738188,-38.43,-4.76,-61.110001,1729474460975.0,0.0
-2.957529,-8.13799,8.281559,19.32,-1.96,-24.08,1729474460995.0,0.0
-0.289532,-2.191825,6.862615,39.619999,3.64,-32.619999,1729474461014.0,0.0
-1.871187,-2.572284,7.578069,25.41,5.6,-22.610001,1729474461036.0,0.0
-1.612763,-3.046063,8.085347,-39.970001,3.08,-28.630001,1729474461054.0,0.0
-1.289732,-2.526821,8.35813,-43.470001,3.64,-0.35,1729474461074.0,0.0
-2.708675,-4.165904,7.477571,-37.73,-1.68,9.24,1729474461096.0,0.0
-3.555735,-6.632904,7.209574,-24.43,-4.9,15.54,1729474461114.0,0.0
-2.48375,-6.513263,7.939385,16.450001,0.35,15.47,1729474461135.0,0.0
-1.538585,-5.058427,7.996813,37.380001,6.3,16.59,1729474461154.0,0.0
-0.842274,-3.739982,7.477571,12.53,5.25,18.690001,1729474461174.0,0.0
-2.239682,-6.391229,6.003592,-10.57,1.05,29.889999,1729474461195.0,0.0
-3.546163,-5.615955,5.986843,-35.91,-7.0,34.369999,1729474461214.0,0.0
-6.618547,-10.667203,7.15454,18.48,-8.12,11.55,1729474461234.0,0.0
0.282353,-8.525627,8.724231,61.389999,7.07,19.950001,1729474461254.0,0.0
-0.452243,-7.944171,8.614161,3.43,19.389999,-4.83,1729474461275.0,0.0
-3.931407,-9.245867,7.298109,-53.200001,-3.99,-32.689999,1729474461295.0,0.0
-2.371287,-8.449057,7.106683,-38.849998,4.34,-1.75,1729474461314.0,0.0
-2.038685,-8.910872,7.566105,-7.91,-0.49,-53.970001,1729474461335.0,0.0
-3.163311,-8.626125,7.101898,24.92,-7.84,-45.290001,1729474461354.0,0.0
-1.770689,-3.29731,5.541777,68.879997,9.31,-18.27,1729474461374.0,0.0
-2.359323,-3.079563,7.623533,17.08,9.52,-59.290001,1729474461395.0,0.0
-1.134198,-2.347359,9.415757,-53.41,1.4,-33.459999,1729474461414.0,0.0
-0.634098,-2.155933,6.520442,-64.050003,-10.29,-8.19,1729474461435.0,0.0
-0.985843,-4.232903,6.321837,-58.799999,-11.55,9.87,1729474461454.0,0.0
-1.682154,-6.484549,7.936993,-18.41,-3.64,20.23,1729474461474.0,0.0
-3.665804,-6.692725,8.628519,11.69,-4.76,16.24,1729474461495.0,0.0
-1.787439,-4.034299,8.415558,24.219999,-2.52,21.139999,1729474461514.0,0.0
-0.476172,-3.584448,6.398407,-8.96,-2.59,24.43,1729474461535.0,0.0
-1.775474,-5.87438,6.73101,-12.32,1.61,41.299999,1729474461554.0,0.0
-4.704289,-5.704489,5.69731,-29.960001,4.13,27.860001,1729474461575.0,0.0
-3.61077,-10.916058,6.357729,41.580002,-8.54,5.6,1729474461595.0,0.0
-2.120041,-8.843873,9.018548,100.029999,21.07,23.73,1729474461613.0,0.0
0.12682,-7.472785,8.420342,31.99,6.79,-23.799999,1729474461635.0,0.0
0.363709,-7.432107,7.085148,-39.549999,16.450001,-19.040001,1729474461654.0,0.0
-0.416351,-6.568298,6.06102,-58.240002,18.969999,-10.15,1729474461674.0,0.0
-4.194618,-10.442278,6.192625,-47.880001,6.16,-45.220001,1729474461702.0,0.0
-2.885744,-10.626525,8.159525,10.99,7.63,-46.549999,1729474461714.0,0.0
0.241675,-3.534199,6.142376,59.57,12.95,-46.900002,1729474461739.0,0.0
-2.514857,-1.773082,7.874779,61.880001,12.88,-20.860001,1729474461755.0,0.0
-1.292124,0.251246,8.54477,-33.529999,3.99,-37.240002,1729474461775.0,0.0
-1.849652,-2.512464,6.695118,-78.330002,-7.84,5.11,1729474461796.0,0.0
-2.079363,-4.931608,6.814759,-68.459999,-8.68,12.18,1729474461815.0,0.0
-3.457629,-7.156933,7.91785,-20.860001,-4.2,24.780001,1729474461835.0,0.0
-2.770889,-5.668597,8.006385,24.219999,-3.64,23.379999,1729474461854.0,0.0
-0.677169,-4.252046,8.224132,26.110001,-1.47,30.24,1729474461875.0,0.0
-0.638884,-4.311867,7.609176,-0.07,-4.97,33.389999,1729474461897.0,0.0
-2.665605,-7.735995,6.166305,-14.21,-7.21,38.920002,1729474461915.0,0.0
-11.868401,-8.128418,4.098906,-35.77,-7.7,24.01,1729474461938.0,0.0
2.785245,-8.336594,6.367301,58.52,-19.530001,-20.51,1729474461956.0,0.0
-1.083949,-8.365308,7.518249,87.5,5.46,32.27,1729474461977.0,0.0
0.282353,-7.046863,8.571091,33.040001,21.35,-10.71,1729474461997.0,0.0
-1.619941,-6.994221,7.566105,-47.110001,18.34,-15.190001,1729474462081.0,0.0
-1.931008,-7.855636,6.008378,-91.699997,5.32,3.36,1729474462086.0,0.0
-3.349952,-12.624532,4.895715,-82.389999,-0.98,-49.07,1729474462086.0,0.0
-2.505285,-10.432706,3.503092,27.299999,6.86,-61.670002,1729474462086.0,0.0
-4.249653,-5.74756,8.094919,134.610001,31.5,-15.4,1729474462097.0,0.0
-2.778067,-1.773082,8.827123,72.379997,19.530001,-68.389999,1729474462115.0,0.0
-1.095913,-0.198604,10.147961,-24.5,5.95,-29.469999,1729474462135.0,0.0
-1.378266,-3.749553,5.266603,-109.970001,-22.049999,-4.34,1729474462158.0,0.0
-1.395016,-5.881558,5.771489,-69.860001,-15.96,15.05,1729474462177.0,0.0
-3.019742,-7.496714,7.752745,5.53,-6.72,19.879999,1729474462197.0,0.0
-3.026921,-5.163712,8.508877,38.990002,-3.36,19.18,1729474462216.0,0.0
-1.253839,-3.15374,8.614161,33.389999,-3.01,28.700001,1729474462237.0,0.0
-1.12702,-3.134598,6.975078,-12.04,-8.96,32.759998,1729474462256.0,0.0
-2.806781,-7.355537,5.347959,-32.830002,-11.41,46.549999,1729474462277.0,0.0
-18.082561,-12.349358,2.179861,-49.279999,-10.78,34.580002,1729474462299.0,0.0
6.9344,-7.360322,6.632904,62.790001,-17.219999,-10.71,1729474462316.0,0.0
-1.524228,-9.856036,7.733603,76.230003,25.690001,40.110001,1729474462336.0,0.0
-2.885744,-9.183653,8.362915,5.46,26.25,-36.189999,1729474462356.0,0.0
-0.411566,-6.068198,7.410572,-47.529999,4.69,-14.42,1729474462376.0,0.0
-1.414158,-10.82513,5.788238,-67.620003,1.54,-31.219999,1729474462399.0,0.0
-3.981657,-11.449656,5.407779,-3.99,-1.05,-70.419998,1729474462420.0,0.0
-1.122234,-4.996214,5.158926,79.239998,15.190001,-38.990002,1729474462437.0,0.0
-2.467,-1.540978,8.520842,50.959999,15.12,-66.220001,1729474462456.0,0.0
-2.141576,-2.029114,9.647861,-27.23,3.08,-21.0,1729474462477.0,0.0
-1.507478,-3.835695,6.02752,-90.790001,-16.17,-16.52,1729474462497.0,0.0
-0.811167,-5.309673,5.706882,-88.199997,-15.26,-1.12,1729474462517.0,0.0
-1.531406,-6.518049,7.491928,-8.75,-6.09,15.82,1729474462537.0,0.0
-3.15374,-5.429315,8.755339,38.779999,-5.11,15.54,1729474462558.0,0.0
-1.337588,-2.878566,9.23151,38.639999,-5.39,30.450001,1729474462576.0,0.0
-0.698704,-2.39043,7.709675,3.99,-13.51,38.080002,1729474462600.0,0.0
-1.485943,-5.584848,5.82413,-34.23,-13.37,46.27,1729474462615.0,0.0
-4.701896,-8.219346,6.666404,-43.82,-5.25,40.599998,1729474462639.0,0.0
-3.416951,-12.672389,6.065805,28.700001,-14.91,-2.03,1729474462657.0,0.0
-0.071785,-10.083356,7.456036,97.790001,11.06,29.4,1729474462676.0,0.0
-0.150748,-8.336594,8.82473,48.650002,21.210001,-18.549999,1729474462700.0,0.0
-0.038285,-4.685147,8.334201,-6.44,18.129999,-1.33,1729474462716.0,0.0
-2.565106,-9.442079,6.635297,-96.25,7.14,6.72,1729474462739.0,0.0
-3.311667,-11.239087,4.146761,-96.32,-13.440001,-79.029999,1729474462759.0,0.0
-2.864209,-6.364908,6.702296,46.830002,6.44,-15.75,1729474462776.0,0.0
-2.091327,-3.553342,7.822137,88.620003,14.0,-42.91,1729474462799.0,0.0
-1.079163,-1.375873,9.217153,8.75,7.21,-21.700001,1729474462818.0,0.0
-1.215554,-2.383251,7.367501,-65.169998,-7.7,-5.46,1729474462838.0,0.0
-1.923829,-5.032106,5.4006,-95.830002,-15.75,5.74,1729474462856.0,0.0
-2.612962,-7.252645,6.733403,-40.110001,-8.4,16.450001,1729474462876.0,0.0
-3.519842,-6.802795,8.025528,22.26,-3.92,15.89,1729474462897.0,0.0
-2.359323,-5.094319,7.898707,38.080002,-1.61,18.059999,1729474462918.0,0.0
-0.847059,-4.68754,7.200003,4.76,-4.9,21.139999,1729474462936.0,0.0
-0.658026,-4.663611,6.250053,-20.93,-6.02,26.460001,1729474462957.0,0.0
-2.395216,-7.15454,5.441278,-10.5,-2.24,35.98,1729474462977.0,0.0
-9.018548,-7.389036,5.785845,-6.65,-0.14,37.380001,1729474462999.0,0.0
4.847858,-6.305088,5.862415,47.529999,-16.799999,-18.129999,1729474463016.0,0.0
-2.667997,-8.810372,7.867601,68.110001,26.950001,54.599998,1729474463037.0,0.0
-1.261017,-7.721639,7.45125,-7.63,29.33,-14.21,1729474463056.0,0.0
-4.429115,-10.645668,6.183054,-60.689999,2.73,-21.700001,1729474463078.0,0.0
-1.325624,-8.705089,6.352944,-37.380001,6.93,-13.58,1729474463099.0,0.0
-2.603391,-8.683553,7.836494,26.389999,12.67,-31.780001,1729474463117.0,0.0
-3.694518,-9.970891,8.695518,25.549999,-4.13,-36.68,1729474463137.0,0.0
-0.629312,-4.948357,5.106283,28.559999,-5.74,-51.099998,1729474463156.0,0.0
-2.084148,-2.474179,6.652047,41.860001,5.74,-24.01,1729474463177.0,0.0
-1.064806,-1.191626,7.513463,-34.720001,1.61,-53.900002,1729474463200.0,0.0
-1.634298,-2.333002,6.798009,-57.889999,-4.2,-3.08,1729474463217.0,0.0
-2.488536,-4.283153,6.826723,-44.310001,-9.45,3.99,1729474463236.0,0.0
-2.725425,-6.802795,7.276574,-21.629999,-8.26,19.67,1729474463257.0,0.0
-2.897708,-7.750352,7.960921,2.45,-7.56,12.95,1729474463276.0,0.0
-1.931008,-6.742974,8.126025,27.09,-3.85,15.75,1729474463298.0,0.0
-0.823131,-4.627719,7.88435,20.93,-2.87,12.11,1729474463315.0,0.0
-0.653241,-3.113062,6.936793,6.09,-6.02,21.559999,1729474463336.0,0.0
-2.15354,-5.046463,5.800202,-1.12,-6.72,37.939999,1729474463356.0,0.0
-11.657832,-7.393822,4.21376,-29.33,-9.45,43.610001,1729474463378.0,0.0
8.659625,-5.852845,5.230711,31.219999,-40.670002,-12.25,1729474463399.0,0.0
-1.210768,-9.389436,8.482556,43.540001,32.619999,69.580002,1729474463416.0,0.0
-4.76411,-10.851451,7.281359,-16.52,15.190001,-35.279999,1729474463438.0,0.0
-1.493121,-10.052249,6.01077,-38.43,0.42,6.51,1729474463455.0,0.0
-1.268196,-9.480364,5.673382,-2.52,10.29,-68.809998,1729474463477.0,0.0
-3.598805,-10.408779,6.029913,31.780001,6.72,-42.490002,1729474463498.0,0.0
-1.603191,-4.972286,5.647062,64.190002,17.99,-48.23,1729474463515.0,0.0
-3.223132,-4.201797,7.609176,59.990002,19.18,-47.880001,1729474463537.0,0.0
-1.038485,-0.591027,8.614161,-23.309999,12.11,-56.209999,1729474463556.0,0.0
-1.557728,-1.818545,6.946364,-54.18,0.91,-10.29,1729474463576.0,0.0
-2.624927,-4.12044,5.632704,-80.220001,-9.87,-8.4,1729474463596.0,0.0
-1.976472,-5.47717,6.989435,-37.799999,-3.78,14.77,1729474463616.0,0.0
-2.883351,-6.38405,8.46102,14.14,-0.14,14.91,1729474463637.0,0.0
-2.522035,-5.907879,8.755339,19.110001,-2.94,19.18,1729474463656.0,0.0
-0.801596,-4.651647,7.420143,2.24,-2.59,22.75,1729474463676.0,0.0
-0.617348,-4.292724,5.915058,-17.290001,-1.54,28.280001,1729474463696.0,0.0
-1.540978,-4.706682,5.802595,-11.55,3.5,41.369999,1729474463717.0,0.0
-4.287938,-4.826324,7.147361,-23.17,4.69,43.189999,1729474463746.0,0.0
-11.006985,-15.45524,7.855636,8.75,-12.53,12.53,1729474463757.0,0.0
-3.888337,-11.251052,7.886744,52.5,0.21,38.080002,1729474463776.0,0.0
-0.12682,-9.095119,6.26441,-3.78,7.56,-36.400002,1729474463806.0,0.0
1.423729,-6.343372,6.513263,-20.860001,20.51,1.12,1729474463816.0,0.0
-2.830709,-10.660025,5.761917,-58.170002,6.93,-4.06,1729474463837.0,0.0
-4.204189,-10.975878,5.223531,-34.650002,0.21,-74.620003,1729474463857.0,0.0
-3.239882,-9.437292,6.723832,45.849998,13.440001,-37.240002,1729474463877.0,0.0
-1.631905,-6.029913,7.913064,71.400002,15.82,-67.480003,1729474463898.0,0.0
-2.493321,-3.778267,9.207582,41.299999,8.33,-45.709999,1729474463917.0,0.0
-0.741775,-0.602991,10.15514,-1.96,-4.69,-43.540001,1729474463938.0,0.0
-1.493121,-2.306681,5.630312,-62.439999,-21.210001,-24.99,1729474463956.0,0.0
-1.155733,-3.98405,6.070591,-91.699997,-26.25,-21.35,1729474463976.0,0.0
-2.249253,-5.754738,7.147361,-21.91,-17.01,13.58,1729474463996.0,0.0
-3.256632,-5.28096,6.800402,15.82,-12.32,7.21,1729474464017.0,0.0
-2.531606,-4.541577,7.463214,20.299999,-4.62,25.059999,1729474464036.0,0.0
-1.840081,-4.716253,8.025528,0.77,-8.54,29.82,1729474464056.0,0.0
-2.07697,-5.900701,6.582655,-25.41,-17.57,34.580002,1729474464077.0,0.0
-2.971886,-8.063812,5.9677,-35.490002,-20.790001,31.85,1729474464096.0,0.0
-2.476572,-9.982857,6.151947,-22.049999,-19.110001,26.530001,1729474464115.0,0.0
-1.816152,-9.932607,6.037091,17.92,-13.86,12.53,1729474464137.0,0.0
-2.069792,-8.776874,6.156733,29.540001,-8.05,-3.99,1729474464157.0,0.0
1.177269,-7.250252,6.470192,27.02,0.42,-4.27,1729474464175.0,0.0
-0.480957,-5.630312,7.32443,10.64,4.2,1.05,1729474464196.0,0.0
-1.710868,-6.312266,7.32443,-14.0,-0.42,1.05,1729474464216.0,0.0
-2.244468,-7.039684,7.317252,-29.610001,-9.73,-0.77,1729474464237.0,0.0
-2.194218,-7.805387,6.597012,-28.07,-20.02,8.96,1729474464256.0,0.0
-2.033899,-7.951349,6.178268,-5.53,-23.450001,18.620001,1729474464277.0,0.0
-4.445865,-7.420143,6.817152,26.25,-22.68,20.51,1729474464296.0,0.0
-2.964707,-6.915257,7.515855,15.61,-10.15,-16.59,1729474464318.0,0.0
-2.435893,-7.405786,6.975078,-16.73,-7.84,-23.309999,1729474464337.0,0.0
-2.349752,-7.695317,6.62094,-26.25,-9.38,-33.25,1729474464355.0,0.0
-1.883151,-6.888937,6.728617,-16.450001,-8.33,-30.52,1729474464376.0,0.0
-1.806581,-5.570491,7.190433,-5.39,-10.92,-22.4,1729474464398.0,0.0
-1.677369,-4.797609,7.365108,-8.4,-18.9,-16.1,1729474464416.0,0.0
-1.61037,-4.249653,7.302894,-18.34,-27.299999,-3.29,1729474464435.0,0.0
-2.325824,-3.45045,7.9011,-35.630001,-35.139999,6.79,1729474464459.0,0.0
-2.167897,-4.414758,8.719445,-29.4,-54.110001,43.82,1729474464476.0,0.0
-0.849452,-6.530013,8.530413,-50.540001,-63.420002,47.25,1729474464508.0,0.0
-0.251246,-9.21476,6.496514,-97.580002,-71.959999,38.009998,1729474464515.0,0.0
-0.294317,-11.308479,4.37408,-131.880005,-70.139999,23.17,1729474464536.0,0.0
-0.20339,-13.414164,3.515057,-123.199997,-52.360001,-3.36,1729474464556.0,0.0
0.634098,-14.158331,2.287539,-82.739998,-25.76,-39.130001,1729474464578.0,0.0
0.90688,-12.722638,2.679961,-28.42,1.61,-59.920002,1729474464596.0,0.0
1.01695,-10.660025,3.086741,24.43,23.309999,-65.239998,1729474464615.0,0.0
1.318445,-8.79123,3.158526,25.620001,36.119999,-76.160004,1729474464636.0,0.0
1.138984,-7.578069,3.29731,-17.01,40.32,-81.900002,1729474464655.0,0.0
0.473779,-6.575477,4.017549,-39.060001,46.34,-77.209999,1729474464675.0,0.0
-0.095713,-5.520242,4.409972,-31.15,47.32,-63.84,1729474464696.0,0.0
-0.114855,-4.759324,4.211368,-23.52,42.0,-46.41,1729474464714.0,0.0
-0.339781,-5.99402,4.424329,-29.4,31.360001,-26.950001,1729474464738.0,0.0
-0.672383,-8.056634,6.343372,-27.93,19.950001,-18.620001,1729474464755.0,0.0
-0.490529,-8.659625,7.448857,-19.74,6.3,-6.37,1729474464774.0,0.0
-0.239282,-9.913465,6.242875,-29.82,8.26,0.84,1729474464796.0,0.0
-1.550549,-11.387443,5.395815,-29.4,-4.76,-19.389999,1729474464816.0,0.0
-1.502693,-10.942378,4.31426,-9.52,-4.83,-27.09,1729474464835.0,0.0
-0.29671,-9.489935,3.795017,7.28,11.62,-38.5,1729474464855.0,0.0
0.337388,-7.958528,3.505485,1.47,18.200001,-43.470001,1729474464877.0,0.0
0.689133,-7.152147,3.627519,-0.98,27.719999,-45.150002,1729474464898.0,0.0
1.167697,-6.879365,4.986642,7.56,25.34,-38.639999,1729474464915.0,0.0
2.189433,-6.704689,5.465207,17.360001,18.969999,-28.700001,1729474464936.0,0.0
3.213561,-5.845665,6.183054,35.490002,14.77,-12.25,1729474464954.0,0.0
2.861816,-5.486742,6.80758,44.66,12.88,-0.56,1729474464976.0,0.0
1.002593,-6.321837,6.460621,10.5,8.33,5.53,1729474464997.0,0.0
-0.040678,-8.85823,5.35753,-36.330002,-3.71,8.05,1729474465014.0,0.0
0.531207,-10.442278,3.692125,-53.48,-11.27,2.52,1729474465036.0,0.0
1.51705,-8.422735,3.105884,-25.34,-1.82,2.87,1729474465056.0,0.0
2.433501,-4.833502,4.323831,21.98,11.13,17.92,1729474465076.0,0.0
2.167897,-4.089334,6.072984,12.25,13.79,34.790001,1729474465096.0,0.0
0.392423,-6.034698,7.015756,-50.400002,11.69,44.869999,1729474465115.0,0.0
-0.086142,-8.185846,4.682754,-91.07,-17.08,54.599998,1729474465134.0,0.0
0.342174,-8.930015,3.266203,-56.349998,-24.08,63.77,1729474465154.0,0.0
-0.681954,-10.420743,2.285146,-26.18,-8.75,68.25,1729474465175.0,0.0
-1.773082,-11.49512,2.282753,-33.459999,4.76,52.290001,1729474465195.0,0.0
-2.29711,-11.722438,2.225325,-44.029999,7.28,41.720001,1729474465214.0,0.0
-2.021935,-12.033505,2.285146,-2.31,10.78,34.580002,1729474465237.0,0.0
-2.036292,-11.073983,2.801995,34.720001,12.32,25.76,1729474465255.0,0.0
-3.455236,-10.91845,4.063013,54.040001,16.379999,18.9,1729474465275.0,0.0
-5.115855,-11.935399,4.079762,29.960001,5.46,-5.18,1729474465296.0,0.0
-3.598805,-11.729616,4.165904,4.2,-14.49,-30.799999,1729474465314.0,0.0
-0.930808,-9.4349,4.156333,16.66,-18.48,-35.209999,1729474465336.0,0.0
-0.368495,-8.54477,5.426922,49.420002,-11.27,-32.41,1729474465355.0,0.0
-0.236889,-8.736196,5.4676,57.75,-15.190001,-31.290001,1729474465374.0,0.0
-0.064606,-9.501899,5.228317,52.360001,-19.110001,-32.689999,1729474465396.0,0.0
-0.026321,-9.497113,4.843073,56.630001,-15.68,-36.959999,1729474465414.0,0.0
0.193819,-8.408379,5.20439,63.630001,-13.51,-36.049999,1729474465435.0,0.0
-1.572084,-9.600004,5.218746,44.939999,-12.88,-39.41,1729474465455.0,0.0
-1.57687,-8.55434,3.931407,-10.78,-18.27,-52.220001,1729474465476.0,0.0
-0.167498,-7.240681,4.369294,-22.33,-18.83,-51.240002,1729474465495.0,0.0
1.375873,-6.343372,3.371487,-36.959999,-28.139999,-57.82,1729474465514.0,0.0
2.239682,-6.13759,3.988836,-15.4,-23.17,-36.049999,1729474465536.0,0.0
2.651247,-5.462814,4.886144,7.35,-14.0,-18.34,1729474465554.0,0.0
4.65404,-4.618148,4.488935,-4.48,-19.389999,-0.63,1729474465575.0,0.0
6.204589,-5.4341,4.843073,-12.25,-18.059999,21.98,1729474465597.0,0.0
4.850252,-5.379066,4.323831,-13.23,-4.83,30.030001,1729474465614.0,0.0
3.053242,-4.381258,4.847858,11.13,13.79,44.170002,1729474465634.0,0.0
1.07677,-3.443272,6.15434,10.15,20.790001,63.139999,1729474465654.0,0.0
-0.79681,-7.250252,6.750153,-11.27,17.360001,78.120003,1729474465674.0,0.0
-2.105684,-12.27518,7.415358,-74.199997,1.75,62.299999,1729474465695.0,0.0
-2.431108,-10.593026,2.57707,-105.209999,-4.83,44.240002,1729474465714.0,0.0
-2.294717,-12.751352,2.423929,-37.380001,5.25,57.119999,1729474465737.0,0.0
-3.859623,-13.710874,2.895315,-36.400002,3.5,27.02,1729474465754.0,0.0
-5.185246,-13.203594,0.043071,-16.309999,18.200001,8.96,1729474465781.0,0.0
-4.342973,-13.39502,3.828516,34.23,23.66,-6.72,1729474465809.0,0.0
-1.062413,-11.796617,5.235496,36.470001,3.22,-34.790001,1729474465814.0,0.0
0.959522,-9.379865,5.364708,59.150002,3.99,-52.360001,1729474465837.0,0.0
0.083749,-8.901299,5.989235,64.959999,6.58,-59.080002,1729474465854.0,0.0
-1.124627,-11.026128,5.383851,0.98,-5.18,-76.019997,1729474465874.0,0.0
-0.354138,-10.475778,3.550949,-45.639999,-8.54,-89.949997,1729474465895.0,0.0
0.768096,-8.116454,3.862016,-15.75,-3.01,-87.709999,1729474465914.0,0.0
1.65344,-4.328616,2.536392,-24.710001,14.84,-87.709999,1729474465934.0,0.0
2.648855,-1.292124,4.259224,-27.370001,12.39,-66.150002,1729474465954.0,0.0
4.575077,0.502493,4.414758,14.63,4.9,-13.58,1729474465974.0,0.0
3.948158,-0.071785,5.785845,45.849998,7.63,33.389999,1729474465995.0,0.0
2.541178,-2.050649,7.479963,-2.52,5.74,49.209999,1729474466014.0,0.0
1.502693,-5.673382,6.161518,-69.300003,-18.41,72.309998,1729474466034.0,0.0
0.607777,-9.767502,6.85783,-115.080002,-36.68,79.029999,1729474466054.0,0.0
-0.011964,-13.500306,2.299503,-100.519997,-47.389999,75.25,1729474466075.0,0.0
0.861416,-11.68176,6.218946,8.33,-33.459999,72.519997,1729474466095.0,0.0
-1.265803,-12.143576,1.316052,73.57,-2.31,94.639999,1729474466114.0,0.0
-5.292924,-14.251652,2.096112,-2.59,25.76,36.470001,1729474466135.0,0.0
-5.056034,-14.471791,0.212961,-50.68,21.139999,7.84,1729474466154.0,0.0
-2.801995,-13.447663,1.17009,8.75,31.92,-8.68,1729474466175.0,0.0
-2.105684,-12.698709,4.031906,57.400002,30.799999,-29.540001,1729474466195.0,0.0
-1.184447,-10.987842,5.651847,70.980003,19.809999,-46.619999,1729474466214.0,0.0
0.581456,-9.233903,5.79063,68.599998,3.92,-50.330002,1729474466234.0,0.0
0.691526,-8.224132,3.345166,7.63,-1.68,-55.510002,1729474466255.0,0.0
-0.090927,-11.672189,4.249653,-22.540001,-6.3,-72.519997,1729474466274.0,0.0
-0.023928,-11.042876,2.880959,3.85,-2.94,-70.980003,1729474466295.0,0.0
1.153341,-7.424929,4.271189,86.940002,5.11,-69.650002,1729474466314.0,0.0
2.840281,-1.155733,5.489135,84.559998,11.34,-62.299999,1729474466334.0,0.0
5.070391,2.840281,6.250053,83.370003,2.94,-22.190001,1729474466354.0,0.0
4.419543,-0.193819,8.618947,51.099998,-1.12,27.440001,1729474466374.0,0.0
0.306281,-4.333402,7.566105,-54.670002,7.14,37.099998,1729474466395.0,0.0
-0.01675,-5.453243,4.122833,-89.809998,-15.89,50.610001,1729474466414.0,0.0
0.782453,-5.486742,2.861816,-57.260002,-16.940001,84.840004,1729474466434.0,0.0
-0.251246,-8.915657,3.89073,-27.719999,-8.19,91.910004,1729474466454.0,0.0
-2.17029,-13.531413,1.897508,-100.590004,-21.42,60.41,1729474466474.0,0.0
-3.493521,-19.010977,3.053242,-75.949997,-17.290001,39.41,1729474466500.0,0.0
-2.54357,-14.268401,-0.768096,-54.880001,0.28,2.24,1729474466514.0,0.0
-2.139183,-11.547763,0.875773,49.139999,21.139999,4.62,1729474466534.0,0.0
-2.792424,-10.951948,4.292724,79.940002,25.48,-19.879999,1729474466554.0,0.0
-2.203789,-10.413565,7.034898,74.059998,17.08,-29.889999,1729474466574.0,0.0
-0.705883,-9.164511,7.188039,62.93,1.4,-37.310001,1729474466594.0,0.0
0.179462,-8.240881,5.580062,24.710001,-9.17,-50.610001,1729474466613.0,0.0
0.136391,-10.164711,4.613362,-29.26,-15.61,-58.240002,1729474466634.0,0.0
0.775275,-9.401401,3.086741,-53.27,-8.68,-68.389999,1729474466653.0,0.0
1.270589,-7.542177,2.876173,-6.58,1.75,-61.25,1729474466674.0,0.0
1.485943,-5.678168,4.010371,0.77,10.78,-57.68,1729474466695.0,0.0
1.811367,-4.900501,4.859823,-2.94,9.94,-44.380001,1729474466714.0,0.0
3.022135,-3.220739,5.883951,26.950001,-2.24,-18.549999,1729474466737.0,0.0
3.905087,-2.629712,6.577869,47.459999,-9.73,14.84,1729474466754.0,0.0
3.081956,-2.885744,5.85763,11.55,-10.08,36.82,1729474466773.0,0.0
1.217947,-3.924229,3.672983,-30.309999,-6.09,57.75,1729474466805.0,0.0
-0.564706,-6.403193,3.402594,-51.029999,0.7,94.010002,1729474466813.0,0.0
-2.833102,-14.215759,6.618547,-62.860001,-13.09,88.900002,1729474466834.0,0.0
-2.459821,-15.460027,1.107877,-127.540001,-29.610001,50.75,1729474466854.0,0.0
-3.546163,-18.458235,0.265603,-95.340004,-18.969999,31.15,1729474466874.0,0.0
-3.010171,-14.237295,-2.409572,-41.02,12.6,0.14,1729474466896.0,0.0
-2.404787,-11.703296,0.217747,46.830002,33.18,-9.73,1729474466914.0,0.0
-2.289931,-11.796617,3.546163,70.840004,34.23,-28.35,1729474466934.0,0.0
-1.208375,-12.294323,7.367501,60.130001,21.629999,-46.41,1729474466954.0,0.0
0.574277,-10.310673,5.69731,43.889999,5.81,-62.23,1729474466974.0,0.0
1.040878,-9.700503,4.082155,23.73,-3.64,-68.879997,1729474466995.0,0.0
1.129412,-8.513663,3.012564,-9.87,-8.05,-81.620003,1729474467067.0,0.0
1.682154,-8.109276,3.196811,22.469999,-0.91,-72.309998,1729474467067.0,0.0
1.473979,-5.575277,4.316652,24.360001,11.76,-68.529999,1729474467068.0,0.0
1.942972,-2.318645,5.103891,18.9,12.39,-51.59,1729474467087.0,0.0
3.431308,-0.18664,4.773681,23.1,-0.84,-16.59,1729474467097.0,0.0
3.067599,-1.698904,5.343173,21.210001,1.82,23.799999,1729474467113.0,0.0
1.01695,-4.436293,5.793024,-7.35,10.01,46.34,1729474467134.0,0.0
1.308874,-5.213961,5.359922,-23.52,-7.42,86.309998,1729474467154.0,0.0
-0.224925,-8.82473,4.974678,-29.960001,-8.05,103.110001,1729474467174.0,0.0
-1.887937,-14.467006,6.094519,-78.540001,-25.549999,78.610001,1729474467196.0,0.0
-2.586641,-15.998412,0.18664,-135.800003,-24.780001,55.299999,1729474467213.0,0.0
-2.656033,-17.381464,-1.148555,-106.470001,-9.31,23.24,1729474467234.0,0.0
-2.76371,-15.38585,-2.311467,-33.810001,18.27,-0.7,1729474467253.0,0.0
-2.971886,-13.320844,0.445065,74.830002,41.16,-17.5,1729474467274.0,0.0
-2.455036,-12.043077,5.058427,116.900002,40.110001,-35.139999,1729474467294.0,0.0
-0.086142,-10.317852,7.616355,109.620003,21.42,-48.299999,1729474467314.0,0.0
1.136591,-8.173882,5.9677,49.77,5.53,-62.580002,1729474467336.0,0.0
0.79681,-8.99462,4.510471,-10.5,-1.89,-72.870003,1729474467353.0,0.0
1.038485,-9.336794,3.15374,-37.029999,-4.48,-74.690002,1729474467373.0,0.0
1.316052,-7.929814,3.665804,0.42,4.27,-69.93,1729474467394.0,0.0
1.478764,-4.943572,4.833502,10.99,13.72,-66.57,1729474467414.0,0.0
2.553142,-1.256232,5.508278,9.59,0.91,-43.959999,1729474467434.0,0.0
4.548756,-0.421137,4.007978,17.92,-12.18,0.07,1729474467453.0,0.0
0.665205,-4.110869,5.053641,3.01,2.59,46.759998,1729474467474.0,0.0
-0.215354,-7.111469,5.718846,-32.41,-0.63,55.23,1729474467494.0,0.0
0.22014,-8.987441,6.312266,-49.490002,-21.91,68.739998,1729474467513.0,0.0
-0.449851,-11.057234,4.74736,-36.400002,-30.030001,79.730003,1729474467534.0,0.0
-0.70349,-11.894722,1.959722,-31.360001,-27.93,55.860001,1729474467553.0,0.0
-0.837488,-11.047661,3.87398,3.08,-17.15,66.5,1729474467574.0,0.0
-2.014757,-13.576876,2.45025,18.549999,0.28,62.09,1729474467594.0,0.0
-3.646662,-13.631909,1.258625,-67.480003,-0.7,2.38,1729474467613.0,0.0
-3.349952,-13.756337,-0.650848,-27.23,17.85,13.93,1729474467634.0,0.0
-1.272982,-12.911672,2.402394,29.889999,25.48,-17.99,1729474467653.0,0.0
-0.969093,-12.24168,5.455636,48.720001,22.4,-23.52,1729474467674.0,0.0
-0.959522,-10.762917,5.833702,55.720001,15.82,-41.860001,1729474467697.0,0.0
-0.713061,-9.576077,5.091926,26.460001,5.18,-55.510002,1729474467758.0,0.0
0.926022,-9.870394,4.244867,-3.29,-5.04,-60.830002,1729474467760.0,0.0
1.177269,-9.064013,3.395415,-35.560001,1.61,-71.190002,1729474467762.0,0.0
1.964507,-4.811966,5.331209,34.02,5.04,-49.77,1729474467891.0,0.0
1.773082,-2.845066,6.238089,19.040001,-4.06,-19.950001,1729474467892.0,0.0
1.227518,-5.802595,5.69731,-15.33,-21.139999,1.33,1729474467892.0,0.0
1.464408,-7.865208,3.912265,-53.830002,-30.940001,10.43,1729474467893.0,0.0
2.120041,-6.290731,2.18704,-30.450001,-26.809999,31.01,1729474467893.0,0.0
1.842474,-4.938786,1.533799,26.18,-10.5,55.93,1729474467893.0,0.0
0.581456,-6.829116,2.696711,23.17,2.03,66.639999,1729474467912.0,0.0
-1.818545,-13.158132,6.144768,-32.900002,-7.49,66.709999,1729474467933.0,0.0
-1.734797,-14.986248,2.361716,-76.370003,-20.16,38.290001,1729474467952.0,0.0
-2.572284,-14.687144,0.437887,-65.870003,-10.57,21.280001,1729474467973.0,0.0
-1.277767,-12.335001,-1.004985,-23.450001,8.68,-3.85,1729474467996.0,0.0
-1.040878,-12.064612,1.672583,39.200001,19.530001,-6.3,1729474468016.0,0.0
-1.320838,-11.889936,5.290531,65.800003,25.34,-21.42,1729474468035.0,0.0
-0.808774,-11.198411,6.886543,64.540001,21.98,-34.580002,1729474468080.0,0.0
0.33021,-9.422935,4.158726,1.61,7.7,-56.209999,1729474468082.0,0.0
0.916451,-10.317852,3.141776,-34.369999,4.48,-61.599998,1729474468165.0,0.0
1.368695,-9.367901,2.510071,-26.110001,8.75,-62.790001,1729474468183.0,0.0
1.385444,-6.431907,4.651647,23.799999,19.530001,-53.060001,1729474468184.0,0.0
1.239482,-4.402793,5.606383,4.76,19.879999,-43.470001,1729474468185.0,0.0
1.674976,-3.816552,5.13739,-17.360001,-1.47,-27.440001,1729474468186.0,0.0
2.342573,-5.424529,4.290331,-16.1,-18.83,0.28,1729474468198.0,0.0
1.986043,-5.826523,3.924229,2.1,-15.4,19.809999,1729474468212.0,0.0
1.95015,-4.838287,3.728018,30.17,-11.13,46.900002,1729474468233.0,0.0
1.598405,-4.177868,3.517449,34.439999,-7.14,73.709999,1729474468251.0,0.0
0.363709,-7.472785,3.826123,-0.56,-3.43,87.709999,1729474468272.0,0.0
-1.330409,-13.13181,5.795416,-59.360001,-12.04,74.690002,1729474468295.0,0.0
-1.866402,-16.642082,2.718246,-98.769997,-28.0,50.189999,1729474468312.0,0.0
-1.76351,-16.144375,-0.253639,-74.059998,-8.33,23.379999,1729474468334.0,0.0
-1.531406,-12.993028,-1.758725,-16.309999,11.76,2.73,1729474468353.0,0.0
-2.014757,-12.878171,0.954736,45.639999,28.07,-9.8,1729474468373.0,0.0
-1.469193,-12.14836,4.254438,68.040001,26.67,-27.719999,1729474468396.0,0.0
-0.270389,-11.593226,5.989235,64.82,18.9,-45.150002,1729474468413.0,0.0
0.842274,-10.281959,4.211368,10.78,9.45,-63.77,1729474468433.0,0.0
1.677369,-9.102298,2.775674,-27.790001,4.34,-71.260002,1729474468452.0,0.0
1.868794,-8.322237,3.768696,-6.86,8.33,-66.150002,1729474468473.0,0.0
1.232304,-5.79063,5.233103,0.7,19.74,-61.950001,1729474468494.0,0.0
1.806581,-3.266203,4.948357,2.45,3.99,-46.060001,1729474468513.0,0.0
2.416751,-3.151347,3.4672,0.63,-8.4,-10.99,1729474468538.0,0.0
0.705883,-4.807181,3.589234,-0.07,-2.94,13.65,1729474468552.0,0.0
0.342174,-4.48415,4.290331,12.6,-2.59,28.49,1729474468573.0,0.0
0.421137,-4.914857,4.292724,20.93,-9.1,63.0,1729474468595.0,0.0
0.428315,-6.266802,5.139783,-6.37,-10.99,68.110001,1729474468612.0,0.0
-0.385244,-10.485349,6.142376,-40.599998,-25.48,85.75,1729474468633.0,0.0
-0.990629,-14.330614,3.290131,-64.82,-42.0,69.090004,1729474468653.0,0.0
-1.06002,-14.289936,-0.241675,-55.720001,-30.52,43.610001,1729474468673.0,0.0
-1.402194,-12.906885,-0.79681,-17.92,-12.11,34.369999,1729474468695.0,0.0
-1.978864,-14.041083,-0.79681,-4.41,10.5,7.49,1729474468714.0,0.0
-1.067199,-12.488142,0.16989,4.34,19.040001,-15.190001,1729474468736.0,0.0
0.023928,-12.646068,3.35713,42.77,25.549999,-16.73,1729474468752.0,0.0
0.918844,-11.562119,5.257031,54.599998,17.99,-36.400002,1729474468772.0,0.0
0.48335,-10.82513,5.587241,54.389999,7.49,-46.27,1729474468793.0,0.0
0.497707,-9.853643,3.476771,31.01,3.43,-62.299999,1729474468813.0,0.0
0.818345,-8.573483,2.402394,-15.4,3.08,-70.279999,1729474468833.0,0.0
1.229911,-7.353144,2.914458,15.26,8.89,-60.900002,1729474468852.0,0.0
1.617548,-4.797609,4.218546,34.299999,10.92,-51.73,1729474468874.0,0.0
2.033899,-2.426322,5.539384,38.009998,8.26,-28.0,1729474468894.0,0.0
1.732404,-4.197011,6.630512,34.720001,-3.08,-1.61,1729474468912.0,0.0
0.600598,-6.649654,5.989235,-26.950001,-13.16,7.98,1729474468933.0,0.0
0.746561,-7.448857,3.859623,-44.380001,-24.01,21.629999,1729474468952.0,0.0
1.627119,-6.13759,2.493321,-9.8,-21.07,39.27,1729474468972.0,0.0
1.603191,-5.771489,2.065006,15.54,-10.5,56.91,1729474468993.0,0.0
0.693919,-8.166703,2.897708,2.94,-6.16,69.019997,1729474469012.0,0.0
-1.146162,-12.03829,3.976871,-24.15,-8.68,70.769997,1729474469033.0,0.0
-2.098505,-14.502897,2.311467,-62.860001,-15.89,46.060001,1729474469052.0,0.0
-2.349752,-15.316458,0.51685,-79.239998,-13.93,18.969999,1729474469073.0,0.0
-0.717847,-13.584054,-0.638884,-37.170002,4.97,-2.73,1729474469093.0,0.0
-0.095713,-12.354142,1.854438,39.060001,17.99,-9.45,1729474469114.0,0.0
-0.660419,-11.234302,5.175675,74.760002,25.48,-21.98,1729474469132.0,0.0
-0.028714,-10.753345,6.080163,50.259998,8.19,-41.509998,1729474469151.0,0.0
0.725025,-10.731809,3.517449,-7.84,-0.14,-60.689999,1729474469172.0,0.0
1.184447,-11.01177,2.304288,-29.960001,2.8,-69.370003,1729474469193.0,0.0
1.469193,-9.178867,2.404787,3.99,15.33,-69.440002,1729474469211.0,0.0
1.311267,-7.515855,4.141976,41.860001,24.43,-63.700001,1729474469232.0,0.0
1.402194,-5.79063,4.998606,24.15,19.809999,-61.32,1729474469262.0,0.0
1.208375,-4.790431,5.04407,4.13,11.34,-47.459999,1729474469272.0,0.0
1.701297,-4.307081,4.393222,-14.0,-0.98,-30.870001,1729474469293.0,0.0
2.443072,-4.331009,3.302095,-12.81,-8.05,-6.16,1729474469312.0,0.0
2.414358,-3.905087,3.656233,12.18,-1.12,17.710001,1729474469332.0,0.0
2.179861,-2.947958,4.165904,33.459999,4.62,50.259998,1729474469351.0,0.0
1.579263,-4.331009,5.316852,27.860001,6.44,76.160004,1729474469372.0,0.0
0.397209,-7.405786,7.276574,-20.09,-4.76,90.440002,1729474469393.0,0.0
-0.39003,-11.392227,6.821937,-65.660004,-32.689999,87.849998,1729474469411.0,0.0
-0.270389,-14.337792,3.550949,-75.25,-45.709999,69.93,1729474469433.0,0.0
-0.052642,-14.991035,1.665405,-57.400002,-31.92,58.029999,1729474469451.0,0.0
-1.959722,-14.251652,-0.5001,-38.150002,-2.31,39.549999,1729474469472.0,0.0
-2.744568,-14.309079,-0.210568,-12.04,23.030001,-5.18,1729474469493.0,0.0
-1.782653,-13.45245,2.411965,47.740002,34.580002,-12.74,1729474469512.0,0.0
-0.277567,-11.557333,5.680561,74.269997,27.02,-31.99,1729474469532.0,0.0
-0.229711,-10.396815,5.781059,52.220001,14.0,-49.77,1729474469552.0,0.0
0.181855,-9.975677,4.146761,2.52,7.84,-65.309998,1729474469572.0,0.0
0.638884,-8.963513,2.907279,-34.299999,5.32,-71.82,1729474469594.0,0.0
1.51705,-7.585248,2.400001,-5.88,7.0,-66.779999,1729474469611.0,0.0
1.399801,-6.915257,4.146761,34.860001,16.379999,-53.27,1729474469631.0,0.0
0.66999,-5.661418,5.690133,17.360001,16.66,-48.09,1729474469651.0,0.0
0.366102,-4.821537,6.104091,-12.95,6.3,-34.93,1729474469672.0,0.0
0.696311,-5.625526,4.900501,-41.23,-15.89,-21.139999,1729474469692.0,0.0
1.275374,-7.147361,3.744767,-39.200001,-26.809999,-2.52,1729474469711.0,0.0
1.854438,-6.821937,3.065206,-20.440001,-21.49,14.14,1729474469735.0,0.0
2.431108,-5.438886,2.495714,-2.94,-16.940001,32.060001,1729474469752.0,0.0
2.395216,-5.034499,2.213361,0.77,-10.92,52.709999,1729474469772.0,0.0
1.787439,-6.915257,2.940779,-11.2,-4.41,69.510002,1729474469792.0,0.0
0.07657,-13.988441,5.639884,-41.790001,-14.98,69.790001,1729474469812.0,0.0
0.26321,-14.837894,2.098505,-64.120003,-38.290001,38.920002,1729474469833.0,0.0
0.011964,-13.64866,-0.356531,-52.779999,-21.07,21.77,1729474469851.0,0.0
0.066999,-11.62194,-1.177269,-42.139999,2.87,2.52,1729474469871.0,0.0
-1.40698,-11.8349,0.4666,-13.65,24.710001,-1.61,1729474469893.0,0.0
-2.120041,-11.746366,2.57707,10.78,26.530001,-14.56,1729474469911.0,0.0
-1.143769,-11.124231,4.070191,38.5,17.639999,-20.299999,1729474469932.0,0.0
-0.014357,-10.054641,3.646662,23.379999,7.91,-34.439999,1729474469952.0,0.0
0.459422,-9.382257,2.431108,-9.94,9.8,-44.099998,1729474469971.0,0.0
0.90688,-8.54477,1.56012,-27.09,8.61,-44.52,1729474469993.0,0.0
1.533799,-8.142776,2.311467,3.36,8.33,-31.57,1729474470011.0,0.0
1.284946,-7.936993,4.283153,23.52,13.86,-24.43,1729474470032.0,0.0
0.758525,-7.71446,4.622933,9.17,9.94,-23.940001,1729474470051.0,0.0
0.684347,-7.881958,4.323831,-16.1,-0.56,-17.57,1729474470071.0,0.0
0.911665,-8.456236,3.548556,-38.360001,-9.24,-12.11,1729474470092.0,0.0
1.07677,-9.339187,2.608176,-44.450001,-10.01,-6.86,1729474470110.0,0.0
1.356731,-9.473185,1.957329,-36.189999,-8.12,-3.01,1729474470131.0,0.0
1.356731,-8.767302,1.292124,-25.200001,-0.42,6.93,1729474470151.0,0.0
0.739382,-8.860621,0.78006,-35.91,9.66,7.49,1729474470171.0,0.0
0.540778,-9.389436,0.856631,-43.259998,10.15,6.65,1729474470195.0,0.0
0.619741,-9.784252,1.165305,-35.77,10.78,11.34,1729474470211.0,0.0
0.586242,-9.79143,1.457229,-26.74,12.11,10.92,1729474470231.0,0.0
0.526421,-9.863215,1.768296,-26.67,9.73,8.54,1729474470251.0,0.0
0.679562,-9.927821,1.883151,-37.869999,3.29,6.65,1729474470271.0,0.0
0.961915,-9.623933,1.572084,-48.790001,-2.94,5.11,1729474470292.0,0.0
0.892523,-9.35833,1.418944,-55.369999,-4.69,3.43,1729474470311.0,0.0
0.588634,-8.740981,1.37348,-68.459999,-6.79,2.45,1729474470332.0,0.0
0.162712,-8.300702,1.067199,-84.489998,-8.12,3.71,1729474470351.0,0.0
0.01675,-8.685946,0.430708,-97.650002,-21.700001,5.39,1729474470371.0,0.0
0.224925,-10.064213,-0.751346,-91.629997,-29.049999,11.62,1729474470392.0,0.0
0.602991,-10.652846,-1.289732,-63.279999,-27.370001,16.799999,1729474470411.0,0.0
0.514457,-9.863215,-0.806381,-16.52,-20.719999,20.65,1729474470433.0,0.0
0.404387,-9.710074,0.217747,35.349998,-16.940001,27.58,1729474470452.0,0.0
-0.177069,-9.159724,2.017149,49.77,-19.74,38.290001,1729474470471.0,0.0
-0.019143,-7.814958,1.598405,-40.599998,-32.689999,32.41,1729474470492.0,0.0
0.382852,-7.348359,-0.217747,-146.089996,-39.41,29.889999,1729474470511.0,0.0
0.62692,-9.499505,-2.416751,-241.710007,-43.68,19.460001,1729474470531.0,0.0
0.758525,-10.695917,-4.211368,-271.600006,-46.200001,10.36,1729474470551.0,0.0
0.655633,-11.949757,-4.421937,-213.639999,-36.400002,13.58,1729474470571.0,0.0
0.926022,-12.423534,-4.096512,-142.589996,-35.490002,5.46,1729474470591.0,0.0
1.105484,-11.743973,-4.658825,-85.68,-30.17,-2.17,1729474470611.0,0.0
1.014557,-10.523634,-5.056034,-50.470001,-19.6,-8.19,1729474470631.0,0.0
0.521635,-9.236296,-4.847858,-38.009998,-8.89,-7.84,1729474470651.0,0.0
-0.356531,-9.01137,-4.156333,-38.080002,3.01,-4.13,1729474470671.0,0.0
-0.825524,-9.095119,-3.65384,-37.450001,0.07,-3.22,1729474470692.0,0.0
-0.732204,-9.334401,-4.149154,-41.23,-6.72,-4.06,1729474470711.0,0.0
-0.430708,-9.030513,-3.641876,-50.259998,-9.73,-6.72,1729474470738.0,0.0
-0.430708,-8.204988,-3.919443,-72.169998,-10.15,-7.7,1729474470751.0,0.0
-0.495314,-8.188239,-5.568098,-66.639999,-18.129999,-3.15,1729474470771.0,0.0
-0.765703,-9.150154,-7.329216,-28.98,-14.42,5.81,1729474470792.0,0.0
-0.803988,-10.399208,-6.668797,-7.7,-5.18,1.4,1729474470811.0,0.0
-0.150748,-9.518648,-5.730811,11.55,2.52,-4.34,1729474470831.0,0.0
0.193819,-8.750552,-4.627719,12.18,4.76,-7.98,1729474470852.0,0.0
-0.045464,-7.865208,-4.713861,-1.75,11.62,-11.69,1729474470872.0,0.0
-0.22014,-7.817351,-4.685147,-0.7,6.37,-5.25,1729474470893.0,0.0
-0.145962,-7.99442,-4.644469,-3.29,6.44,-1.75,1729474470910.0,0.0
-0.399601,-9.140583,-4.625326,-10.08,6.51,-2.1,1729474470931.0,0.0
-0.581456,-9.887143,-4.311867,-9.1,2.31,-5.53,1729474470951.0,0.0
-0.476172,-9.652647,-4.570292,6.02,-3.92,-9.59,1729474470972.0,0.0
-0.200997,-8.784052,-4.924429,14.98,-4.06,-11.97,1729474470992.0,0.0
0.064606,-8.664411,-5.254639,14.84,-4.41,-9.94,1729474471010.0,0.0
0.105284,-8.927622,-5.185246,17.43,-1.19,-6.37,1729474471032.0,0.0
0.035892,-8.925228,-5.063213,24.5,3.08,-3.36,1729474471052.0,0.0
0.27996,-8.410772,-4.287938,27.09,4.34,-0.56,1729474471072.0,0.0
0.380459,-7.695317,-3.795017,15.96,3.01,0.77,1729474471092.0,0.0
0.452243,-7.45125,-4.429115,-5.53,-1.33,1.82,1729474471111.0,0.0
0.229711,-8.836694,-6.092126,-23.66,-4.55,5.6,1729474471131.0,0.0
-0.658026,-10.612168,-5.907879,-17.5,3.01,8.26,1729474471150.0,0.0
-1.162912,-9.647861,-4.520042,7.7,22.120001,2.24,1729474471171.0,0.0
-1.158126,-8.879765,-4.201797,9.8,18.41,-1.89,1729474471191.0,0.0
-0.72024,-8.863015,-4.412365,-6.09,11.83,-6.16,1729474471210.0,0.0
-0.083749,-8.920443,-4.771288,-20.299999,6.23,-8.68,1729474471231.0,0.0
0.490529,-8.645268,-5.082355,-19.879999,4.69,-8.4,1729474471250.0,0.0
0.765703,-8.003991,-4.859823,-16.24,5.74,-6.09,1729474471271.0,0.0
0.713061,-7.262216,-4.261617,-23.450001,7.84,-4.06,1729474471292.0,0.0
0.425922,-7.144968,-3.215954,-38.57,7.7,-0.7,1729474471310.0,0.0
0.40678,-7.377072,-2.364109,-50.959999,-1.96,3.57,1729474471331.0,0.0
0.248854,-8.037491,-2.85703,-47.18,-15.47,9.45,1729474471351.0,0.0
-0.454636,-8.145168,-3.864408,-31.85,-18.41,13.37,1729474471370.0,0.0
-0.837488,-6.876972,-5.300103,-34.790001,-13.440001,10.71,1729474471391.0,0.0
-0.239282,-7.556533,-6.367301,-56.209999,-28.139999,16.52,1729474471410.0,0.0
0.461815,-10.265208,-6.798009,-86.800003,-48.09,13.02,1729474471431.0,0.0
-0.318245,-10.394422,-7.073184,-96.739998,-31.639999,-8.12,1729474471451.0,0.0
-0.545564,-7.24786,-8.114061,-48.860001,-25.76,-17.290001,1729474471471.0,0.0
-0.705883,-6.381658,-7.068398,28.559999,-36.75,4.69,1729474471494.0,0.0
-1.90708,-7.372287,-9.169296,47.950001,-9.66,9.38,1729474471510.0,0.0
-2.897708,-8.281559,-11.959327,3.71,12.81,6.44,1729474471531.0,0.0
-2.548356,-7.618747,-8.429914,-29.33,39.619999,6.44,1729474471551.0,0.0
-0.777667,-7.999206,-6.836295,-28.139999,32.27,18.48,1729474471571.0,0.0
0.346959,-8.276773,-9.267403,22.960001,32.27,24.01,1729474471591.0,0.0
-0.055035,-5.898308,-4.510471,30.52,70.559998,17.5,1729474471610.0,0.0
-0.323031,-8.618947,-1.684547,4.9,62.439999,18.620001,1729474471631.0,0.0
1.471586,-5.304887,3.168097,-45.5,12.25,-0.28,1729474471651.0,0.0
1.57687,-11.377872,-1.550549,-33.110001,-33.18,12.18,1729474471670.0,0.0
-1.074377,-11.822936,-10.602598,-41.23,-38.990002,-24.43,1729474471691.0,0.0
-3.055635,-10.375278,-8.702696,-4.83,12.11,-28.98,1729474471710.0,0.0
-1.476372,-8.671589,-4.699504,52.360001,-17.710001,-14.84,1729474471734.0,0.0
0.641276,-8.422735,-5.687739,86.379997,-45.920002,-10.64,1729474471751.0,0.0
-0.435494,-4.845466,-5.723632,84.209999,-31.85,-17.15,1729474471771.0,0.0
-0.892523,-4.816752,-6.594619,21.98,-26.25,-15.12,1729474471791.0,0.0
-1.028914,-5.67099,-7.386643,-89.040001,-44.73,-10.08,1729474471810.0,0.0
-1.600798,-7.869993,-7.738388,-103.459999,-16.379999,8.47,1729474471831.0,0.0
-2.165504,-8.147561,-7.879565,-42.77,-5.74,10.01,1729474471850.0,0.0
-2.756532,-8.965906,-9.202796,30.799999,1.12,16.870001,1729474471870.0,0.0
-0.952343,-7.733603,-7.831708,44.240002,-1.61,6.86,1729474471893.0,0.0
0.459422,-6.65444,-9.619147,-3.78,-7.0,2.31,1729474471910.0,0.0
-0.107677,-7.65464,-10.305886,-39.619999,26.530001,0.28,1729474471930.0,0.0
-1.215554,-7.566105,-6.096912,-26.110001,67.900002,3.15,1729474471950.0,0.0
-1.160519,-8.901299,-1.241875,-2.03,52.290001,12.04,1729474471970.0,0.0
0.449851,-9.765109,-2.06022,28.280001,6.93,10.78,1729474471993.0,0.0
1.957329,-7.786245,0.047856,14.7,2.87,-7.42,1729474472079.0,0.0
1.600798,-8.042276,-3.964907,14.14,-24.15,3.57,1729474472080.0,0.0
-1.234696,-8.805587,-7.860423,1.82,-14.56,-4.13,1729474472085.0,0.0
-3.261417,-9.722038,-7.389036,-5.67,18.059999,-8.96,1729474472086.0,0.0
-1.643869,-10.102496,-4.68754,22.4,-26.950001,-9.73,1729474472091.0,0.0
0.777667,-8.49452,-5.233103,77.07,-58.450001,-9.03,1729474472111.0,0.0
-0.512064,-4.189832,-3.735196,65.870003,-38.920002,-21.35,1729474472130.0,0.0
-1.631905,-7.649854,-10.224532,-16.450001,-63.91,-22.26,1729474472150.0,0.0
-2.761317,-8.647661,-10.466206,-101.779999,-27.65,-14.35,1729474472170.0,0.0
-4.378866,-8.901299,-10.29153,-27.299999,20.23,-2.73,1729474472191.0,0.0
-3.996014,-8.276773,-10.339387,89.599998,36.189999,11.76,1729474472210.0,0.0
-0.811167,-5.761917,-7.161718,108.080002,28.07,16.309999,1729474472230.0,0.0
1.789831,-4.948357,-9.872787,35.139999,7.7,11.41,1729474472250.0,0.0
2.411965,-5.737988,-10.143176,-30.450001,38.990002,9.45,1729474472270.0,0.0
-0.023928,-5.924629,-6.850651,-37.310001,95.129997,15.33,1729474472293.0,0.0
-2.455036,-8.618947,2.639283,-4.97,101.779999,25.129999,1729474472310.0,0.0
-1.371087,-11.674582,0.90688,2.24,38.080002,14.0,1729474472330.0,0.0
2.012364,-9.320045,0.681954,-19.809999,-22.75,-7.91,1729474472350.0,0.0
2.880959,-8.700303,-3.378666,-0.42,-48.369999,-1.89,1729474472370.0,0.0
-0.748954,-8.915657,-7.563712,-10.92,-26.18,-12.88,1729474472391.0,0.0
-4.197011,-9.968499,-6.178268,-35.98,34.369999,-15.61,1729474472410.0,0.0
-3.479164,-10.947165,-5.391029,-6.51,-19.460001,-5.74,1729474472431.0,0.0
0.148355,-9.336794,-5.826523,60.830002,-52.849998,1.82,1729474472451.0,0.0
0.229711,-5.120641,-4.096512,66.919998,-39.759998,-7.91,1729474472470.0,0.0
-1.852045,-6.388836,-7.56132,7.77,-29.33,-11.55,1729474472491.0,0.0
-2.904887,-8.408379,-10.061819,-78.82,-21.77,-5.46,1729474472510.0,0.0
-3.704089,-8.688338,-11.985649,-29.610001,6.02,1.68,1729474472530.0,0.0
-2.959922,-7.776673,-10.205389,55.09,28.630001,12.88,1729474472550.0,0.0
-0.282353,-6.477371,-6.625726,85.400002,30.309999,23.379999,1729474472570.0,0.0
1.277767,-5.326423,-7.771888,46.060001,21.77,18.620001,1729474472591.0,0.0
1.241875,-4.089334,-7.623533,-23.17,50.259998,13.16,1729474472610.0,0.0
-0.5001,-6.582655,-3.919443,-72.379997,70.629997,22.960001,1729474472630.0,0.0
-1.198804,-10.595419,-0.244068,-90.790001,52.709999,15.82,1729474472650.0,0.0
0.552742,-8.925228,-0.39003,-76.650002,-17.99,-2.31,1729474472671.0,0.0
2.182254,-9.396614,-1.529014,-35.07,-49.420002,-2.8,1729474472691.0,0.0
-0.583849,-9.06162,-8.437093,-52.150002,-51.170002,-17.5,1729474472709.0,0.0
-3.701697,-9.762716,-7.676175,-84.840004,11.62,-29.26,1729474472738.0,0.0
-3.732803,-10.408779,-7.398607,-84.980003,-19.879999,-27.440001,1729474472750.0,0.0
-0.468993,-9.066404,-6.195018,-14.14,-55.02,-19.389999,1729474472770.0,0.0
-0.519243,-5.685347,-3.76391,55.510002,-48.580002,-16.030001,1729474472791.0,0.0
-1.902294,-4.106083,-6.936793,1.19,-26.880001,-26.110001,1729474472810.0,0.0
-2.787638,-5.266603,-12.41875,-100.379997,-45.990002,-16.59,1729474472830.0,0.0
-3.065206,-7.925028,-11.569297,-52.150002,3.64,10.99,1729474472851.0,0.0
-2.63689,-7.575676,-10.813165,70.419998,22.190001,24.219999,1729474472870.0,0.0
-1.378266,-5.04407,-6.195018,106.330002,32.970001,23.59,1729474472891.0,0.0
0.251246,-3.314059,-7.398607,17.5,7.77,9.8,1729474472912.0,0.0
0.847059,-4.682754,-10.231709,-70.279999,7.49,5.25,1729474472931.0,0.0
0.368495,-7.506285,-9.116654,-69.300003,40.599998,13.16,1729474472950.0,0.0
-0.40678,-9.626326,-2.598605,-21.700001,57.049999,19.950001,1729474472971.0,0.0
0.20339,-9.707682,-1.478764,6.16,27.719999,4.34,1729474472991.0,0.0
1.469193,-7.209574,-2.024328,-14.63,-14.98,-16.24,1729474473011.0,0.0
1.272982,-8.583055,-5.795416,-30.1,-37.170002,-12.53,1729474473032.0,0.0
-2.239682,-9.683753,-9.272188,-49.420002,-19.110001,-23.52,1729474473051.0,0.0
-4.567898,-10.392029,-8.035098,-20.51,26.6,-29.049999,1729474473071.0,0.0
-2.572284,-8.903693,-6.91765,41.720001,-25.34,-21.49,1729474473102.0,0.0
-0.880559,-6.132804,-6.037091,99.82,-48.02,-15.4,1729474473111.0,0.0
-1.241875,-3.196811,-7.463214,51.799999,-10.43,-26.389999,1729474473130.0,0.0
-2.0004,-4.503292,-9.719646,-26.18,-30.450001,-18.129999,1729474473151.0,0.0
-2.864209,-7.070791,-11.198411,-18.83,7.7,4.97,1729474473171.0,0.0
-2.770889,-5.678168,-10.604989,48.93,29.540001,13.09,1729474473191.0,0.0
-1.289732,-5.151747,-7.202396,89.739998,28.559999,22.75,1729474473212.0,0.0
0.495314,-4.993821,-6.84108,45.849998,9.38,18.83,1729474473231.0,0.0
0.122034,-5.867201,-8.640482,-8.19,20.23,11.34,1729474473250.0,0.0
-1.009771,-6.932007,-9.346365,-26.110001,46.759998,9.52,1729474473271.0,0.0
-1.069592,-7.858029,-5.426922,-10.85,52.5,16.379999,1729474473292.0,0.0
0.002393,-9.647861,-0.806381,12.39,36.189999,21.559999,1729474473311.0,0.0
1.655833,-7.922636,0.294317,-9.66,-11.34,-0.21,1729474473331.0,0.0
2.423929,-9.504292,-4.146761,-22.540001,-46.200001,-9.38,1729474473350.0,0.0
-0.914058,-9.882358,-10.645668,-33.25,-40.389999,-22.469999,1729474473370.0,0.0
-3.586841,-9.597611,-8.779266,-16.940001,28.84,-30.24,1729474473393.0,0.0
-3.251846,-9.080762,-6.470192,33.670002,-3.78,-16.870001,1729474473411.0,0.0
-0.727418,-8.355737,-5.737988,95.410004,-37.939999,-10.85,1729474473430.0,0.0
-0.784846,-5.223531,-4.12044,95.059998,-19.950001,-19.460001,1729474473450.0,0.0
-0.976272,-5.668597,-4.606184,34.509998,-40.32,-22.4,1729474473471.0,0.0
-1.380659,-6.60419,-7.520642,-47.18,-51.170002,-24.08,1729474473491.0,0.0
-2.098505,-7.396214,-8.652447,-71.050003,-34.439999,-18.76,1729474473511.0,0.0
-2.847459,-8.317451,-9.430114,-21.91,-21.07,-7.98,1729474473530.0,0.0
-2.842674,-7.893922,-10.937593,30.799999,-11.06,-5.81,1729474473550.0,0.0
-2.088934,-6.075377,-10.609775,56.279999,9.73,-2.38,1729474473570.0,0.0
-0.751346,-6.065805,-8.082954,51.310001,22.960001,9.24,1729474473591.0,0.0
0.418744,-7.336394,-8.69791,29.540001,20.719999,12.25,1729474473610.0,0.0
0.236889,-7.020542,-10.059426,10.5,44.099998,5.11,1729474473631.0,0.0
-0.545564,-5.402994,-9.473185,-0.35,72.029999,0.91,1729474473649.0,0.0
-0.602991,-4.771288,-7.448857,-1.54,74.480003,12.25,1729474473671.0,0.0
-0.916451,-6.695118,1.543371,-1.12,75.32,28.139999,1729474473693.0,0.0
-1.287339,-10.222138,2.754139,-28.210001,49.91,21.629999,1729474473709.0,0.0
0.131605,-10.217353,0.294317,-57.68,-16.379999,-2.52,1729474473733.0,0.0
-0.22014,-10.231709,-7.046863,-29.190001,-40.810001,-10.29,1729474473750.0,0.0
-1.768296,-9.652647,-9.375079,1.47,-14.7,-19.879999,1729474473770.0,0.0
-2.0004,-9.98525,-6.549156,5.6,2.8,-10.43,1729474473791.0,0.0
-1.12702,-10.001998,-5.589634,17.780001,-19.809999,-9.03,1729474473810.0,0.0
-1.40698,-5.76431,-6.022735,35.0,-5.46,-19.950001,1729474473831.0,0.0
-0.105284,-5.651847,-7.733603,10.29,-57.189999,-11.27,1729474473851.0,0.0
-1.007378,-5.95095,-9.786645,-10.36,-34.299999,-5.88,1729474473871.0,0.0
-2.371287,-6.149554,-11.413764,-29.26,9.87,-6.86,1729474473890.0,0.0
-2.299503,-7.121039,-10.58824,10.64,26.32,9.87,1729474473909.0,0.0
0.07657,-7.082755,-6.597012,52.709999,22.889999,20.299999,1729474473930.0,0.0
0.79681,-5.793024,-7.805387,31.710001,13.23,15.54,1729474473951.0,0.0
-0.148355,-5.182854,-8.640482,-33.599998,43.610001,2.59,1729474473970.0,0.0
-1.050449,-6.826723,-6.692725,-68.949997,56.700001,12.04,1729474473994.0,0.0
-0.914058,-9.547362,-0.4666,-48.299999,49.490002,21.98,1729474474010.0,0.0
0.299103,-8.157133,-0.89013,-28.42,1.54,8.12,1729474474030.0,0.0
1.574477,-7.750352,-2.136791,-37.59,-22.960001,-6.16,1729474474050.0,0.0
0.045464,-9.903893,-9.375079,-38.779999,-45.080002,-5.95,1729474474070.0,0.0
-2.033899,-8.987441,-9.159724,-30.309999,2.52,-21.77,1729474474095.0,0.0
-2.770889,-8.106883,-7.752745,-5.81,8.26,-14.0,1729474474110.0,0.0
-0.614955,-7.850852,-5.295317,9.38,-26.110001,-13.65,1729474474130.0,0.0
0.332602,-8.181061,-4.912465,34.23,-38.009998,-14.42,1729474474149.0,0.0
-1.136591,-5.625526,-6.489335,35.560001,-30.1,-33.599998,1729474474171.0,0.0
-1.287339,-5.407779,-10.253245,-58.73,-54.32,-27.790001,1729474474191.0,0.0
-1.981257,-5.721239,-11.370694,-76.230003,-17.15,-7.35,1729474474209.0,0.0
-3.254239,-7.176075,-12.224932,-9.87,17.15,15.12,1729474474231.0,0.0
-3.019742,-7.310073,-9.126225,66.43,39.27,27.58,1729474474251.0,0.0
-0.591027,-6.21416,-5.742774,67.900002,16.309999,22.610001,1729474474270.0,0.0
0.916451,-6.551548,-7.800602,10.01,16.309999,8.4,1729474474292.0,0.0
0.440279,-7.432107,-10.097712,-44.450001,24.01,-6.23,1729474474310.0,0.0
-0.799203,-8.078169,-9.025726,-30.1,55.369999,-3.99,1729474474330.0,0.0
-0.533599,-8.705089,-3.354738,5.6,60.900002,3.92,1729474474350.0,0.0
0.540778,-9.272188,-1.768296,36.470001,30.73,3.15,1729474474370.0,0.0
1.213161,-6.443871,-2.632105,3.08,6.86,-24.219999,1729474474400.0,0.0
1.064806,-5.06082,-4.701896,-38.43,-14.56,-28.35,1729474474410.0,0.0
-1.208375,-7.9346,-9.207582,-33.459999,-16.17,-13.51,1729474474430.0,0.0
-2.584249,-8.85823,-9.044869,-10.99,12.81,-15.05,1729474474451.0,0.0
-2.132005,-8.207381,-7.32443,30.17,1.47,-9.59,1729474474470.0,0.0
0.189033,-7.259824,-5.522634,41.439999,-28.07,-15.54,1729474474491.0,0.0
0.241675,-5.213961,-5.07757,8.47,-26.530001,-28.280001,1729474474509.0,0.0
-0.705883,-5.319244,-7.826923,-24.01,-29.33,-22.540001,1729474474531.0,0.0
-1.316052,-5.388636,-10.91845,-50.259998,-10.64,-2.1,1729474474549.0,0.0
-1.804188,-6.388836,-10.076177,-24.780001,12.18,24.99,1729474474570.0,0.0
-1.887937,-7.341179,-7.616355,5.95,24.92,31.219999,1729474474592.0,0.0
-0.741775,-7.477571,-6.04427,17.5,17.43,23.52,1729474474609.0,0.0
-0.165105,-7.379465,-9.492328,3.78,2.38,14.28,1729474474631.0,0.0
-0.083749,-5.733203,-8.930015,-25.969999,31.360001,6.93,1729474474650.0,0.0
-0.339781,-7.910671,-5.711668,-27.370001,39.130001,20.299999,1729474474670.0,0.0
0.351745,-9.040084,-5.417351,-13.09,23.1,14.07,1729474474690.0,0.0
0.378066,-7.848458,-5.374279,-11.41,13.440001,-4.34,1729474474710.0,0.0
0.40678,-6.087341,-4.898108,-30.870001,8.54,-18.27,1729474474733.0,0.0
1.143769,-6.089733,-4.469792,-33.810001,-11.9,-13.3,1729474474750.0,0.0
-0.315853,-8.142776,-8.738588,1.68,-18.9,-2.38,1729474474770.0,0.0
-1.952543,-7.066005,-8.116454,24.85,13.37,-7.42,1729474474790.0,0.0
-2.189433,-7.441679,-7.056434,26.6,0.56,-5.25,1729474474809.0,0.0
1.29691,-8.319844,-5.350351,17.15,-34.439999,-13.440001,1729474474831.0,0.0
1.414158,-6.726225,-5.661418,7.84,-52.920002,-27.790001,1729474474849.0,0.0
-0.954736,-4.912465,-8.669197,-43.540001,-19.18,-36.119999,1729474474870.0,0.0
-2.589034,-5.328816,-12.533605,-73.989998,-14.21,-23.1,1729474474890.0,0.0
-2.809174,-6.79083,-10.822738,-23.799999,2.38,7.0,1729474474909.0,0.0
-2.24686,-7.317252,-7.724032,52.57,17.639999,25.969999,1729474474931.0,0.0
-0.18664,-5.362316,-5.4006,48.09,1.89,21.98,1729474474949.0,0.0
0.531207,-5.702096,-7.858029,-2.38,-12.81,16.1,1729474474971.0,0.0
-0.684347,-7.575676,-11.380265,-28.559999,13.3,7.49,1729474474990.0,0.0
-1.947758,-6.652047,-9.695717,-1.47,48.369999,11.48,1729474475010.0,0.0
-1.629512,-7.178468,-6.238089,18.969999,42.560001,17.99,1729474475030.0,0.0
0.387637,-7.850852,-4.926822,-11.62,19.67,4.13,1729474475050.0,0.0
1.87358,-7.121039,-5.15414,-30.030001,3.57,-9.94,1729474475070.0,0.0
2.438286,-6.101698,-4.448257,-24.5,2.03,-14.98,1729474475090.0,0.0
1.335195,-7.551748,-5.424529,-13.16,-4.34,-3.29,1729474475111.0,0.0
-1.426122,-9.468399,-8.087741,-9.87,0.21,-7.91,1729474475130.0,0.0
-3.148954,-8.640482,-7.334002,-0.7,24.57,-20.860001,1729474475149.0,0.0
-0.174676,-7.525427,-5.513064,32.970001,-14.7,-17.57,1729474475170.0,0.0
1.694118,-6.963113,-6.489335,70.699997,-54.32,-16.309999,1729474475191.0,0.0
-0.689133,-4.608576,-7.783852,36.400002,-26.6,-27.299999,1729474475209.0,0.0
-2.837888,-4.096512,-10.492528,-19.74,-7.07,-27.51,1729474475229.0,0.0
-2.706282,-5.02732,-10.557133,-53.900002,-7.28,1.05,1729474475249.0,0.0
-1.519442,-6.168696,-9.075976,-19.950001,-4.55,21.35,1729474475271.0,0.0
-0.935594,-6.723832,-9.243474,40.599998,7.91,31.360001,1729474475302.0,0.0
0.007178,-5.79063,-7.695317,59.080002,15.89,26.18,1729474475309.0,0.0
0.358923,-6.496514,-8.817552,30.17,15.61,24.99,1729474475329.0,0.0
-0.143569,-7.133004,-9.700503,-13.37,33.950001,16.66,1729474475351.0,0.0
-0.617348,-7.099504,-6.65444,-38.5,54.599998,13.79,1729474475370.0,0.0
-0.40678,-9.049655,-4.87418,-29.4,40.529999,15.75,1729474475390.0,0.0
0.509671,-9.640682,-4.125226,4.27,15.47,7.21,1729474475409.0,0.0
0.535992,-7.295716,-4.766503,3.43,7.42,-12.74,1729474475430.0,0.0
-0.31346,-6.520442,-5.364708,-25.27,6.51,-19.25,1729474475449.0,0.0
-0.646062,-7.092326,-6.74776,-38.709999,-4.41,-15.54,1729474475471.0,0.0
-1.715654,-8.370094,-8.391629,0.63,-5.74,-3.99,1729474475492.0,0.0
-1.847259,-6.728617,-7.420143,31.08,10.01,-7.56,1729474475509.0,0.0
-0.583849,-6.094519,-6.838687,13.440001,-11.9,-7.0,1729474475529.0,0.0
0.258425,-6.431907,-7.020542,-5.39,-13.79,-7.98,1729474475549.0,0.0
0.337388,-6.738188,-7.097112,-9.03,-6.72,-5.39,1729474475571.0,0.0
-0.308674,-7.4345,-6.376873,-10.78,0.49,-2.8,1729474475590.0,0.0
-0.985843,-8.288737,-5.998806,-29.889999,2.24,-7.84,1729474475609.0,0.0
-1.064806,-8.745767,-6.147161,-52.290001,-6.86,-17.360001,1729474475630.0,0.0
-0.545564,-8.207381,-6.759724,-64.120003,-19.25,-27.02,1729474475650.0,0.0
-0.303888,-7.573284,-7.60439,-71.470001,-21.91,-31.360001,1729474475671.0,0.0
-0.294317,-7.159326,-8.475377,-88.900002,-15.33,-33.880001,1729474475690.0,0.0
-0.241675,-6.515656,-8.542377,-96.32,-7.14,-26.67,1729474475708.0,0.0
0.179462,-6.02752,-8.415558,-85.050003,-10.15,-17.710001,1729474475733.0,0.0
0.413958,-5.07757,-8.559127,-81.269997,-5.67,-11.97,1729474475749.0,0.0
0.342174,-5.489135,-8.41795,-47.110001,-2.73,-3.92,1729474475770.0,0.0
0.09332,-4.237689,-9.49472,-25.9,4.69,6.51,1729474475792.0,0.0
0.344566,-3.101098,-9.667004,-6.93,1.4,18.41,1729474475810.0,0.0
0.514457,-2.376073,-9.853643,-5.6,9.1,30.1,1729474475831.0,0.0
0.043071,-3.369094,-10.597812,-53.970001,23.030001,37.450001,1729474475849.0,0.0
0.043071,-4.584648,-10.841879,-62.16,25.200001,37.099998,1729474475869.0,0.0
0.514457,-4.445865,-10.528419,-30.73,24.639999,39.689999,1729474475890.0,0.0
0.775275,-4.180261,-10.353743,12.39,24.92,44.310001,1729474475909.0,0.0
0.662812,-3.400201,-9.578469,45.290001,34.439999,49.209999,1729474475930.0,0.0
0.229711,-2.512464,-9.164511,45.360001,44.450001,52.080002,1729474475949.0,0.0
-0.258425,-3.806981,-8.197811,35.420002,46.830002,57.400002,1729474475970.0,0.0
-0.196211,-4.4674,-6.726225,33.810001,38.5,62.860001,1729474475990.0,0.0
-0.086142,-5.04407,-7.63789,50.400002,25.969999,66.639999,1729474476008.0,0.0
-0.311067,-4.508078,-8.666803,37.869999,29.469999,57.049999,1729474476030.0,0.0
-1.052842,-4.972286,-8.288737,18.690001,39.130001,50.049999,1729474476051.0,0.0
-2.158326,-5.130211,-7.683353,-23.59,42.279999,36.330002,1729474476069.0,0.0
-2.584249,-7.587641,-9.466006,-48.02,25.83,16.1,1729474476093.0,0.0
-2.392823,-9.676575,-9.025726,-22.889999,15.05,-7.98,1729474476109.0,0.0
-1.378266,-8.415558,-10.837094,11.27,7.21,-41.02,1729474476129.0,0.0
0.244068,-5.309673,-9.690931,31.15,7.77,-66.849998,1729474476149.0,0.0
1.598405,-2.512464,-7.566105,48.369999,15.47,-67.340004,1729474476170.0,0.0
1.89033,-2.828316,-6.463014,37.099998,18.969999,-47.880001,1729474476190.0,0.0
1.708475,-4.539185,-6.02752,1.89,17.219999,-34.369999,1729474476209.0,0.0
1.385444,-6.802795,-7.479963,-8.4,6.65,-34.299999,1729474476231.0,0.0
0.701097,-7.537392,-8.047063,35.349998,7.63,-28.280001,1729474476249.0,0.0
-0.172283,-6.403193,-8.255238,63.279999,17.43,-32.549999,1729474476269.0,0.0
-0.342174,-5.417351,-7.537392,57.119999,20.23,-31.57,1729474476291.0,0.0
0.356531,-5.651847,-7.286145,27.719999,0.49,-22.540001,1729474476308.0,0.0
1.294517,-5.412565,-6.783652,3.64,-11.41,-14.56,1729474476329.0,0.0
1.009771,-5.812167,-5.989235,-11.9,-0.91,-3.29,1729474476348.0,0.0
-0.504886,-6.635297,-5.742774,-26.32,14.84,5.46,1729474476370.0,0.0
-1.859223,-7.776673,-6.675975,-26.67,9.45,10.92,1729474476390.0,0.0
-1.502693,-8.516055,-7.51107,-19.74,-17.08,16.1,1729474476408.0,0.0
0.248854,-7.197611,-7.719246,-11.76,-49.349998,22.68,1729474476429.0,0.0
1.572084,-5.175675,-8.166703,8.89,-58.240002,30.450001,1729474476449.0,0.0
1.622334,-3.199204,-9.915856,6.93,-35.630001,40.810001,1729474476469.0,0.0
0.792024,-3.058028,-9.755538,-0.91,-4.62,56.349998,1729474476489.0,0.0
0.306281,-3.76391,-9.595219,-2.73,5.46,73.639999,1729474476509.0,0.0
1.069592,-3.811767,-8.932407,12.46,-19.879999,87.919998,1729474476529.0,0.0
1.306481,-5.008178,-9.619147,-22.049999,-11.9,75.459999,1729474476549.0,0.0
1.249053,-7.13779,-9.822537,-26.809999,-0.77,56.84,1729474476569.0,0.0
1.004985,-6.630512,-9.442079,-17.5,8.05,36.610001,1729474476589.0,0.0
-0.244068,-6.029913,-8.695518,7.42,26.880001,18.76,1729474476608.0,0.0
-1.761117,-5.319244,-7.042077,11.9,41.860001,0.84,1729474476629.0,0.0
-2.610569,-5.766702,-8.176274,-22.26,30.309999,-18.48,1729474476649.0,0.0
-1.89033,-7.089933,-9.229117,-53.200001,3.36,-36.540001,1729474476670.0,0.0
-0.435494,-7.89153,-10.911271,-44.029999,-10.43,-50.470001,1729474476690.0,0.0
0.681954,-7.482357,-9.817751,-28.42,1.05,-67.199997,1729474476710.0,0.0
0.4666,-6.809973,-8.606983,-5.04,30.380001,-81.620003,1729474476731.0,0.0
-0.205783,-5.532206,-8.398808,26.67,39.48,-82.040001,1729474476749.0,0.0
0.062213,-4.175476,-6.855437,42.279999,25.48,-70.349998,1729474476769.0,0.0
1.004985,-2.715853,-8.46102,-1.4,8.54,-60.830002,1729474476789.0,0.0
1.272982,-4.476971,-8.391629,-19.32,5.25,-43.259998,1729474476808.0,0.0
1.064806,-6.788438,-6.465407,2.1,14.56,-30.870001,1729474476829.0,0.0
0.320638,-5.883951,-6.534799,31.290001,15.89,-26.809999,1729474476848.0,0.0
-0.035892,-3.735196,-7.049256,40.670002,9.52,-15.4,1729474476870.0,0.0
-0.227318,-3.799802,-7.678568,10.01,1.75,2.52,1729474476888.0,0.0
-0.48335,-5.678168,-7.144968,-33.670002,0.21,19.530001,1729474476908.0,0.0
-0.803988,-7.661818,-6.4678,-49.209999,-4.62,28.84,1729474476931.0,0.0
-0.839881,-8.597411,-6.733403,-41.650002,-14.56,27.51,1729474476948.0,0.0
-0.457029,-8.439486,-7.470392,-22.190001,-31.219999,21.35,1729474476970.0,0.0
-0.069392,-6.67119,-8.037491,-7.07,-42.0,20.299999,1729474476990.0,0.0
0.119641,-4.735396,-8.743374,-5.32,-37.799999,22.33,1729474477071.0,0.0
0.198604,-3.259024,-10.073784,-8.19,-33.110001,36.119999,1729474477071.0,0.0
0.557528,-3.215954,-10.466206,8.12,-36.189999,55.580002,1729474477071.0,0.0
1.241875,-2.660819,-10.58824,17.710001,-30.450001,70.840004,1729474477072.0,0.0
1.557728,-2.538785,-10.892128,48.02,-21.91,89.389999,1729474477098.0,0.0
1.261017,-3.292524,-8.69791,45.57,-3.78,97.510002,1729474477108.0,0.0
0.193819,-4.661219,-8.207381,-5.46,16.17,87.849998,1729474477128.0,0.0
-0.401994,-7.099504,-9.432507,-38.150002,10.92,66.989998,1729474477150.0,0.0
0.784846,-6.56112,-9.958927,-14.98,-8.4,47.389999,1729474477170.0,0.0
0.050249,-5.254639,-9.253045,22.610001,13.09,17.219999,1729474477190.0,0.0
-1.866402,-5.429315,-8.525627,-12.32,43.82,-10.08,1729474477209.0,0.0
-3.065206,-7.367501,-8.965906,-46.130001,40.110001,-36.259998,1729474477229.0,0.0
-2.108077,-7.568498,-9.501899,-60.27,17.99,-61.599998,1729474477249.0,0.0
-0.40678,-6.692725,-10.186246,-42.420002,4.97,-80.849998,1729474477268.0,0.0
-0.193819,-5.871986,-8.525627,-14.63,24.99,-92.889999,1729474477290.0,0.0
-1.26341,-4.362115,-7.379465,32.27,44.52,-81.269997,1729474477308.0,0.0
-0.787239,-2.751746,-7.920243,26.67,17.92,-72.870003,1729474477328.0,0.0
0.459422,-3.708875,-8.441878,-28.210001,5.11,-58.799999,1729474477350.0,0.0
1.129412,-5.735595,-8.020741,-50.189999,-2.59,-44.939999,1729474477370.0,0.0
1.002593,-7.762317,-6.800402,-11.34,7.49,-38.57,1729474477390.0,0.0
-0.136391,-7.288538,-6.809973,46.830002,11.76,-33.389999,1729474477410.0,0.0
-0.751346,-4.910072,-7.372287,75.040001,12.04,-31.5,1729474477429.0,0.0
-0.411566,-3.5007,-7.805387,51.59,-6.02,-12.53,1729474477449.0,0.0
0.557528,-3.651447,-7.88435,3.5,-20.299999,6.16,1729474477469.0,0.0
0.155533,-5.089533,-7.274181,-30.940001,-10.85,21.35,1729474477490.0,0.0
-1.823331,-6.661618,-6.38405,-31.219999,0.14,28.139999,1729474477510.0,0.0
-1.926222,-8.126025,-7.223931,-20.370001,-22.540001,29.540001,1729474477529.0,0.0
-0.428315,-8.044669,-7.829315,-22.469999,-59.360001,27.860001,1729474477549.0,0.0
0.425922,-5.812167,-8.623734,7.63,-63.630001,30.59,1729474477568.0,0.0
0.112463,-4.151547,-10.226924,45.43,-39.759998,37.380001,1729474477591.0,0.0
0.050249,-3.089134,-10.942378,59.010002,-35.490002,49.98,1729474477608.0,0.0
0.189033,-2.467,-11.590833,69.650002,-30.52,72.730003,1729474477629.0,0.0
0.801596,-2.864209,-10.789237,66.43,-21.07,86.660004,1729474477647.0,0.0
0.820738,-4.381258,-8.724231,30.17,-4.34,91.209999,1729474477667.0,0.0
0.437887,-6.642475,-8.925228,10.78,3.99,80.919998,1729474477691.0,0.0
-0.447458,-4.962714,-9.401401,18.059999,4.55,60.549999,1729474477810.0,0.0
-1.945365,-3.960121,-8.944371,35.98,17.57,40.599998,1729474477810.0,0.0
-3.371487,-5.053641,-9.473185,30.309999,39.200001,24.43,1729474477811.0,0.0
-3.4672,-7.630712,-8.382057,-18.059999,44.869999,-1.75,1729474477811.0,0.0
-2.120041,-7.575676,-9.274581,-64.190002,36.049999,-36.470001,1729474477811.0,0.0
-0.189033,-5.979663,-10.437491,-61.25,6.93,-92.260002,1729474477904.0,0.0
-0.478565,-6.489335,-7.80778,-59.990002,29.120001,-114.520004,1729474477905.0,0.0
-1.31366,-5.647062,-6.477371,-18.34,44.73,-107.660004,1729474477906.0,0.0
0.588634,-3.144169,-10.269995,-35.139999,14.42,-110.18,1729474477908.0,0.0
1.282553,-4.768896,-8.348558,-0.28,9.38,-70.559998,1729474477910.0,0.0
1.057628,-6.723832,-5.546563,26.18,25.27,-61.670002,1729474477927.0,0.0
0.193819,-7.592427,-3.988836,43.259998,25.83,-48.16,1729474477948.0,0.0
-0.346959,-6.233303,-4.577469,37.73,11.06,-40.670002,1729474477968.0,0.0
-0.540778,-4.838287,-6.814759,19.67,-10.36,-21.700001,1729474477988.0,0.0
-0.923629,-5.151747,-7.905886,-14.56,-18.549999,3.71,1729474478008.0,0.0
-1.682154,-7.080362,-6.678369,-22.4,-10.29,27.790001,1729474478028.0,0.0
-1.9669,-8.075776,-5.632704,-8.12,-17.639999,39.619999,1729474478048.0,0.0
-1.22034,-7.015756,-6.664011,-3.36,-44.170002,42.77,1729474478068.0,0.0
0.471386,-4.285545,-9.052048,-2.38,-74.970001,50.959999,1729474478088.0,0.0
1.694118,-2.790031,-11.839686,6.86,-79.590004,66.639999,1729474478108.0,0.0
1.808974,-2.691926,-13.58884,43.189999,-47.880001,86.660004,1729474478130.0,0.0
1.287339,-3.866802,-11.480762,89.040001,-9.94,104.019997,1729474478147.0,0.0
0.42353,-4.773681,-7.63789,43.400002,14.7,89.459999,1729474478168.0,0.0
-0.555135,-6.573084,-7.724032,-11.97,22.049999,57.959999,1729474478189.0,0.0
-0.260818,-6.623333,-9.044869,6.16,-4.06,32.759998,1729474478208.0,0.0
-0.339781,-4.977071,-11.10509,26.950001,-9.17,14.42,1729474478228.0,0.0
-1.289732,-4.778467,-11.382657,3.85,21.07,-11.13,1729474478248.0,0.0
-2.299503,-5.91745,-8.867801,-27.65,50.400002,-37.099998,1729474478268.0,0.0
-2.081756,-6.07777,-8.35813,-49.139999,39.830002,-62.23,1729474478290.0,0.0
-0.985843,-7.353144,-9.078369,-61.670002,17.01,-93.590004,1729474478309.0,0.0
-0.468993,-6.814759,-9.456435,-37.59,27.719999,-109.410004,1729474478329.0,0.0
-0.303888,-5.522634,-6.415157,4.76,33.880001,-112.910004,1729474478349.0,0.0
0.284746,-2.68714,-9.413363,-21.280001,25.41,-110.389999,1729474478369.0,0.0
-0.004786,-4.682754,-7.69771,-0.21,18.969999,-60.900002,1729474478389.0,0.0
0.179462,-7.68096,-4.989035,24.290001,18.83,-45.360001,1729474478408.0,0.0
-0.095713,-8.889337,-4.436293,48.09,11.9,-33.810001,1729474478429.0,0.0
-0.20339,-6.015556,-5.608776,60.970001,0.21,-27.790001,1729474478448.0,0.0
-0.081356,-3.775874,-8.037491,59.5,-16.450001,-8.96,1729474478467.0,0.0
-0.081356,-4.019942,-8.343772,14.14,-16.030001,15.05,1729474478491.0,0.0
-0.59342,-6.381658,-7.458428,-33.529999,2.17,32.130001,1729474478507.0,0.0
-0.251246,-7.724032,-7.171289,-48.369999,-13.23,31.43,1729474478530.0,0.0
0.258425,-7.482357,-7.255038,-37.380001,-24.85,27.09,1729474478549.0,0.0
0.39003,-8.015956,-8.092526,-25.200001,-30.73,19.32,1729474478567.0,0.0
0.370888,-8.372486,-8.740981,-9.59,-31.219999,10.22,1729474478590.0,0.0
0.265603,-6.996613,-9.678967,22.540001,-28.35,7.21,1729474478608.0,0.0
0.028714,-4.941179,-9.719646,57.470001,-22.049999,16.24,1729474478628.0,0.0
-0.191426,-3.452843,-10.277173,63.700001,-14.28,28.559999,1729474478648.0,0.0
-0.514457,-3.022135,-9.315259,64.470001,-4.55,50.68,1729474478669.0,0.0
-0.567099,-4.055835,-9.126225,81.129997,6.51,69.370003,1729474478689.0,0.0
-0.114855,-3.773481,-8.535198,74.690002,-1.54,75.389999,1729474478708.0,0.0
-0.074178,-3.89073,-7.905886,35.07,1.82,75.110001,1729474478730.0,0.0
-0.591027,-5.828916,-8.097312,-3.64,14.21,66.989998,1729474478749.0,0.0
-0.87338,-6.575477,-8.219346,-16.59,9.45,51.170002,1729474478767.0,0.0
-0.985843,-6.364908,-8.319844,-11.13,4.34,30.309999,1729474478789.0,0.0
-1.20359,-4.941179,-8.628519,-32.130001,8.26,0.07,1729474478808.0,0.0
-1.844866,-5.54417,-10.557133,-60.900002,15.190001,-29.120001,1729474478829.0,0.0
-1.548156,-5.766702,-10.13839,-80.779999,24.710001,-56.84,1729474478850.0,0.0
-0.445065,-5.489135,-9.753145,-67.830002,28.210001,-96.529999,1729474478867.0,0.0
0.059821,-5.587241,-9.844072,-57.260002,32.759998,-107.099998,1729474478890.0,0.0
-0.0335,-5.525027,-6.312266,-51.310001,46.549999,-101.989998,1729474478908.0,0.0
0.038285,-5.903094,-9.08794,-51.939999,33.599998,-93.449997,1729474478929.0,0.0
-0.055035,-6.431907,-5.678168,-51.939999,28.210001,-56.279999,1729474478948.0,0.0
0.009571,-6.656832,-4.675575,51.450001,16.73,-50.82,1729474478968.0,0.0
-0.198604,-6.144768,-4.436293,49.700001,5.46,-32.970001,1729474478990.0,0.0
-0.272782,-5.541777,-5.197211,30.1,-9.8,-14.56,1729474479007.0,0.0
-0.62692,-5.125426,-6.616155,-0.7,-19.040001,5.04,1729474479029.0,0.0
-1.258625,-6.704689,-6.89133,-36.259998,-17.360001,22.960001,1729474479047.0,0.0
-1.208375,-8.879765,-6.759724,-56.84,-30.030001,33.599998,1729474479067.0,0.0
-0.366102,-9.317651,-7.652246,-51.029999,-55.439999,33.040001,1729474479089.0,0.0
0.507278,-6.831509,-9.473185,-12.11,-66.709999,29.120001,1729474479107.0,0.0
0.454636,-4.04387,-10.561919,19.460001,-47.950001,34.02,1729474479130.0,0.0
0.112463,-3.866802,-11.241481,41.439999,-31.85,46.830002,1729474479147.0,0.0
0.72024,-1.651048,-11.679367,50.259998,-32.970001,61.529999,1729474479167.0,0.0
1.048056,-2.481357,-10.368099,69.440002,-18.41,82.669998,1729474479188.0,0.0
0.368495,-4.821537,-8.700303,-3.43,12.32,70.629997,1729474479209.0,0.0
-0.378066,-6.139983,-8.025528,-26.530001,18.129999,55.09,1729474479228.0,0.0
-0.198604,-6.494121,-8.327023,-6.3,2.24,33.25,1729474479247.0,0.0
-0.009571,-4.718646,-8.702696,10.01,-4.55,14.14,1729474479269.0,0.0
-0.859023,-4.173083,-9.719646,-5.25,9.03,-2.45,1729474479288.0,0.0
-1.904687,-4.67079,-10.090532,-38.5,22.960001,-20.790001,1729474479308.0,0.0
-2.103291,-5.111069,-10.829915,-41.580002,22.26,-35.139999,1729474479328.0,0.0
-1.423729,-5.206782,-11.995219,-21.91,17.5,-51.52,1729474479348.0,0.0
-0.552742,-5.525027,-10.420743,-8.05,35.700001,-72.239998,1729474479367.0,0.0
-0.090927,-5.039285,-8.609376,-3.5,45.150002,-91.139999,1729474479390.0,0.0
0.291924,-4.046263,-6.733403,-1.47,41.860001,-101.220001,1729474479408.0,0.0
0.492921,-2.510071,-8.532805,-45.779999,37.450001,-105.840004,1729474479427.0,0.0
-0.674776,-5.194818,-7.178468,-23.66,36.959999,-60.760002,1729474479447.0,0.0
-0.947558,-7.664211,-4.448257,26.32,26.389999,-42.84,1729474479469.0,0.0
-0.854238,-8.695518,-4.646862,67.410004,9.03,-33.040001,1729474479491.0,0.0
-0.057428,-6.975078,-6.932007,82.040001,-16.799999,-19.6,1729474479508.0,0.0
1.395016,-2.85703,-7.74796,66.43,-37.029999,6.93,1729474479527.0,0.0
0.047856,-3.823731,-6.73101,-46.200001,5.18,26.950001,1729474479549.0,0.0
-2.222932,-7.549356,-6.372087,-98.349998,23.73,42.07,1729474479568.0,0.0
-2.443072,-10.102496,-6.762117,-80.290001,-5.18,38.849998,1729474479590.0,0.0
-1.071985,-9.997212,-7.343572,-41.09,-52.849998,35.420002,1729474479607.0,0.0
0.535992,-7.712067,-7.776673,-6.3,-77.139999,27.51,1729474479627.0,0.0
0.55992,-5.955735,-8.379664,13.3,-61.459999,20.65,1729474479648.0,0.0
-0.325424,-3.495914,-10.449455,2.73,-33.529999,14.91,1729474479669.0,0.0
-0.693919,-2.199004,-11.47837,2.03,-32.27,33.18,1729474479690.0,0.0
0.339781,-0.892523,-13.105491,27.16,-42.0,61.110001,1729474479711.0,0.0
1.014557,-2.096112,-12.736995,59.639999,-32.060001,88.760002,1729474479729.0,0.0
0.945165,-3.074777,-10.794022,29.960001,3.92,86.519997,1729474479749.0,0.0
-0.334995,-4.843073,-9.068797,-9.17,35.700001,69.510002,1729474479767.0,0.0
-0.792024,-5.254639,-8.810372,-27.23,30.030001,43.540001,1729474479790.0,0.0
-0.602991,-5.45085,-9.190832,-25.48,10.5,19.389999,1729474479807.0,0.0
-0.921237,-5.046463,-10.207782,-42.139999,16.17,-12.81,1729474479827.0,0.0
-1.938186,-4.632504,-10.382458,-50.330002,38.080002,-40.670002,1729474479848.0,0.0
-1.734797,-3.316452,-10.25803,-49.77,36.959999,-67.480003,1729474479869.0,0.0
-0.851845,-3.582055,-11.160125,-49.560001,27.02,-76.440002,1729474479888.0,0.0
-0.705883,-5.371887,-10.928021,-43.889999,47.529999,-76.160004,1729474479908.0,0.0
-0.51685,-6.948757,-7.640282,-31.85,56.77,-77.419998,1729474479929.0,0.0
0.454636,-7.274181,-6.826723,18.48,40.389999,-76.650002,1729474479948.0,0.0
1.337588,-6.472585,-6.465407,62.02,23.73,-72.449997,1729474479968.0,0.0
1.459622,-4.579862,-7.391429,72.730003,17.43,-66.639999,1729474479989.0,0.0
0.227318,-4.481757,-7.144968,86.519997,24.360001,-36.82,1729474480006.0,0.0
-0.835095,-4.816752,-6.142376,100.449997,23.24,-11.2,1729474480028.0,0.0
-1.596013,-4.443472,-5.821737,110.459999,14.77,12.53,1729474480047.0,0.0
-1.708475,-4.677969,-6.333801,106.540001,-3.78,29.469999,1729474480067.0,0.0
-1.215554,-5.166104,-6.659225,65.379997,-23.940001,36.470001,1729474480088.0,0.0
-0.756132,-5.79781,-6.762117,4.2,-27.09,33.880001,1729474480107.0,0.0
-0.452243,-6.869793,-7.707282,-33.599998,-31.43,25.9,1729474480127.0,0.0
-0.0335,-7.958528,-8.786445,-23.940001,-38.360001,18.76,1729474480147.0,0.0
0.323031,-8.035098,-8.894121,13.51,-37.380001,10.5,1729474480166.0,0.0
0.31346,-6.675975,-9.473185,63.349998,-29.610001,3.43,1729474480188.0,0.0
0.198604,-5.850451,-9.623933,108.57,-23.24,0.63,1729474480208.0,0.0
0.253639,-5.730811,-9.372685,97.440002,-16.799999,2.31,1729474480229.0,0.0
0.179462,-6.443871,-8.91805,80.989998,-7.07,5.32,1729474480246.0,0.0
0.260818,-6.513263,-7.834101,67.410004,4.83,2.73,1729474480267.0,0.0
-0.052642,-6.812366,-6.704689,61.389999,16.940001,6.16,1729474480289.0,0.0
-0.095713,-8.02792,-6.721439,52.57,12.53,4.76,1729474480305.0,0.0
0.20339,-8.338986,-7.4345,40.389999,1.05,-3.43,1729474480327.0,0.0
0.454636,-8.039884,-7.436893,35.98,-0.56,-9.52,1729474480348.0,0.0
0.229711,-7.719246,-7.070791,51.66,7.49,-9.66,1729474480366.0,0.0
-0.07657,-7.496714,-6.238089,75.25,13.16,-9.03,1729474480389.0,0.0
-0.148355,-6.994221,-5.563312,71.68,12.6,-8.4,1729474480407.0,0.0
-0.509671,-7.537392,-5.62074,47.599998,9.1,-3.64,1729474480429.0,0.0
-0.844666,-7.805387,-6.386444,28.559999,11.62,-6.93,1729474480445.0,0.0
-0.744168,-8.049455,-7.446464,30.1,10.08,-3.64,1729474480469.0,0.0
-0.275175,-8.209774,-6.357729,37.170002,15.61,-0.77,1729474480488.0,0.0
-0.122034,-8.652447,-5.4676,41.720001,22.26,1.68,1729474480506.0,0.0
0.337388,-8.573483,-4.941179,49.630001,19.32,-0.21,1729474480529.0,0.0
0.638884,-8.044669,-4.845466,63.630001,11.55,-3.22,1729474480546.0,0.0
0.48335,-8.678767,-5.503492,75.459999,10.99,-1.26,1729474480567.0,0.0
0.162712,-6.372087,-3.452843,76.090004,13.23,-0.7,1729474480587.0,0.0
-1.926222,-8.066205,-2.569891,111.020004,16.870001,16.030001,1729474480607.0,0.0
-1.730011,-8.85105,-4.651647,132.300003,-7.42,16.66,1729474480627.0,0.0
-1.22034,-10.772489,-2.423929,192.710007,-16.24,33.040001,1729474480646.0,0.0
-0.504886,-10.540384,-1.744368,206.220001,-21.42,22.610001,1729474480669.0,0.0
-0.334995,-10.473385,-1.945365,197.190002,-24.08,18.34,1729474480688.0,0.0
0.366102,-10.643275,-2.519642,183.75,-24.01,18.200001,1729474480709.0,0.0
0.521635,-10.310673,-2.40718,175.070007,-15.61,16.17,1729474480729.0,0.0
-0.782453,-10.109675,-1.603191,182.559998,9.31,11.69,1729474480746.0,0.0
-1.672583,-9.980463,-1.064806,216.440002,17.57,20.51,1729474480767.0,0.0
-1.39023,-8.590233,0.736989,226.309998,19.74,24.710001,1729474480790.0,0.0
-1.342373,-8.355737,0.990629,175.490005,25.27,12.11,1729474480808.0,0.0
-1.227518,-9.927821,1.493121,132.160004,18.969999,4.76,1729474480827.0,0.0
-0.272782,-10.624132,2.569891,123.410004,14.56,7.14,1729474480846.0,0.0
-0.074178,-11.073983,4.354938,124.25,17.01,-8.61,1729474480868.0,0.0
-0.16989,-11.143374,3.914658,155.889999,-4.55,-18.129999,1729474480888.0,0.0
0.480957,-8.961121,4.615755,188.440002,-6.58,-17.15,1729474480907.0,0.0
0.282353,-7.075576,4.912465,189.770004,-4.76,-15.89,1729474480926.0,0.0
-0.815953,-6.285945,4.505685,176.050003,-4.27,-13.3,1729474480948.0,0.0
-2.002793,-4.924429,4.601398,171.360001,5.11,-2.52,1729474480967.0,0.0
-2.806781,-3.345166,5.704489,146.509995,18.129999,8.68,1729474480987.0,0.0
-2.756532,-2.790031,6.996613,63.490002,18.969999,17.08,1729474481007.0,0.0
-1.648655,-4.072584,7.91785,-50.189999,9.03,22.960001,1729474481026.0,0.0
-0.978664,-6.867401,7.446464,-148.75,-4.9,25.129999,1729474481047.0,0.0
-0.684347,-8.585447,6.348158,-194.110001,-13.16,25.129999,1729474481068.0,0.0
-0.837488,-9.24108,5.431707,-184.029999,-15.190001,27.93,1729474481088.0,0.0
-1.306481,-9.147761,4.567898,-161.350006,-16.799999,22.610001,1729474481106.0,0.0
-1.942972,-9.090333,4.847858,-167.300003,-20.299999,19.950001,1729474481127.0,0.0
-0.854238,-11.609976,3.175276,-157.850006,-37.59,7.63,1729474481147.0,0.0
-0.366102,-12.277573,1.804188,-112.489998,-38.779999,3.15,1729474481167.0,0.0
-0.464208,-10.595419,3.201597,-57.959999,-25.48,3.36,1729474481188.0,0.0
-1.485943,-8.913264,2.734996,-129.149994,-17.780001,-20.790001,1729474481206.0,0.0
-1.330409,-12.256038,-2.754139,-139.580002,-24.639999,-28.35,1729474481228.0,0.0
0.22014,-11.992826,-2.624927,-11.76,-10.99,-9.31,1729474481248.0,0.0
-0.129212,-8.77448,1.198804,128.729996,27.58,3.08,1729474481266.0,0.0
-2.443072,-7.759924,4.146761,143.5,40.529999,-2.1,1729474481287.0,0.0
-3.424129,-9.530612,3.491128,103.18,21.07,-3.64,1729474481306.0,0.0
-1.146162,-11.157731,2.256432,95.480003,-0.49,-8.4,1729474481327.0,0.0
-0.457029,-8.800802,2.641676,150.850006,15.4,-2.38,1729474481346.0,0.0
-1.371087,-6.139983,4.208975,199.5,30.799999,0.63,1729474481366.0,0.0
-1.990828,-5.694918,5.458029,173.600006,28.0,0.84,1729474481387.0,0.0
-1.741975,-7.788638,5.156533,107.660004,16.450001,-2.66,1729474481406.0,0.0
-1.316052,-9.267403,4.058227,58.380001,14.07,-9.17,1729474481427.0,0.0
-1.332802,-9.336794,5.199604,47.670002,22.469999,-9.03,1729474481447.0,0.0
-1.308874,-9.24108,6.463014,22.120001,18.83,-21.559999,1729474481465.0,0.0
-0.674776,-9.190832,7.456036,-0.49,4.83,-24.780001,1729474481488.0,0.0
0.567099,-8.372486,7.176075,21.91,-8.19,-20.790001,1729474481506.0,0.0
0.394816,-5.692525,6.635297,58.380001,-16.24,-14.35,1729474481528.0,0.0
-0.59342,-4.934,5.776274,64.68,-19.530001,-2.73,1729474481548.0,0.0
-1.871187,-4.728218,4.986642,28.84,-12.11,3.43,1729474481566.0,0.0
-3.127419,-5.132604,5.187639,-30.59,0.63,7.0,1729474481586.0,0.0
-2.988636,-5.63749,5.690133,-96.25,8.61,10.22,1729474481608.0,0.0
-2.354537,-6.257231,6.458229,-137.199997,11.41,18.83,1729474481628.0,0.0
-1.701297,-8.312666,6.075377,-152.25,-0.91,19.67,1729474481646.0,0.0
-0.89013,-9.470792,5.982057,-147.490005,-9.66,21.49,1729474481667.0,0.0
-0.09332,-9.994821,7.953743,-147.839996,-18.620001,23.66,1729474481687.0,0.0
-0.306281,-9.860823,7.101898,-180.110001,-35.630001,8.75,1729474481707.0,0.0
-1.591227,-10.126426,3.625126,-236.529999,-46.48,-13.72,1729474481729.0,0.0
-1.409373,-12.064612,-3.940979,-261.170013,-47.599998,-34.720001,1729474481747.0,0.0
0.832702,-13.311273,-6.108876,-152.180008,-29.960001,-23.73,1729474481766.0,0.0
1.237089,-10.013963,-1.129412,28.98,24.99,-1.19,1729474481789.0,0.0
-0.911665,-6.936793,3.225525,98.769997,51.310001,-1.89,1729474481805.0,0.0
-2.718246,-6.379266,4.680361,62.860001,35.490002,-0.35,1729474481827.0,0.0
-2.572284,-8.305488,3.510271,1.68,-3.29,2.59,1729474481846.0,0.0
-0.614955,-12.784851,0.370888,-0.35,-28.700001,2.94,1729474481865.0,0.0
-0.756132,-11.710474,1.088734,117.529999,0.77,5.39,1729474481886.0,0.0
-1.344766,-9.607183,2.579463,180.320007,18.48,3.29,1729474481907.0,0.0
-1.643869,-8.690732,3.048456,189.419998,20.719999,-0.56,1729474481928.0,0.0
-1.505085,-8.642875,2.926422,200.199997,21.77,-3.29,1729474481945.0,0.0
-1.505085,-6.702296,3.378666,194.880005,38.920002,-5.46,1729474481966.0,0.0
-2.237289,-7.15454,5.970093,152.180008,45.849998,-7.07,1729474481986.0,0.0
-2.155933,-9.176475,7.41775,57.400002,28.07,-24.290001,1729474482069.0,0.0
-0.629312,-10.490135,7.422535,13.37,8.89,-25.34,1729474482077.0,0.0
0.98345,-9.583255,7.597212,74.760002,8.89,-18.059999,1729474482079.0,0.0
1.146162,-6.798009,7.37468,145.740005,-4.97,-16.030001,1729474482079.0,0.0
0.485743,-4.893322,6.848258,143.360001,-11.48,-14.21,1729474482087.0,0.0
-0.535992,-4.512863,6.398407,90.300003,-13.440001,-7.77,1729474482105.0,0.0
-1.540978,-3.830909,6.080163,20.440001,-9.03,-4.27,1729474482125.0,0.0
-2.663212,-3.730411,6.125626,-50.330002,-0.14,-0.49,1729474482146.0,0.0
-2.89053,-4.328616,6.479764,-128.240005,3.85,4.76,1729474482166.0,0.0
-2.141576,-5.163712,5.414958,-189.0,2.45,14.28,1729474482186.0,0.0
-0.911665,-8.956335,5.335995,-183.960007,-1.33,28.91,1729474482205.0,0.0
-0.471386,-10.549955,5.431707,-130.410004,-7.56,29.26,1729474482226.0,0.0
-0.655633,-10.090532,6.080163,-106.610001,-9.1,23.66,1729474482245.0,0.0
-1.237089,-8.709875,7.168896,-111.300003,-15.12,19.32,1729474482266.0,0.0
-1.521835,-8.106883,6.549156,-153.789993,-28.210001,11.34,1729474482296.0,0.0
-1.820938,-9.504292,4.04387,-205.940002,-43.540001,-2.38,1729474482305.0,0.0
-1.935793,-12.892529,-2.127219,-199.710007,-49.07,-14.91,1729474482326.0,0.0
-0.789631,-14.189439,-4.943572,-81.269997,-29.540001,-13.3,1729474482346.0,0.0
-0.07657,-10.650455,-1.261017,77.910004,18.620001,-0.21,1729474482365.0,0.0
-0.885344,-7.798209,2.859423,125.860001,41.580002,-1.19,1729474482388.0,0.0
-1.85683,-7.573284,4.012764,78.260002,33.389999,-5.18,1729474482405.0,0.0
-1.339981,-8.915657,3.60359,22.049999,10.22,-3.5,1729474482426.0,0.0
-0.22014,-10.269995,2.768496,33.040001,-6.37,-5.6,1729474482445.0,0.0
-1.043271,-9.396614,2.981457,92.82,5.18,-0.56,1729474482465.0,0.0
-1.648655,-8.587841,3.330809,132.930008,10.78,-2.1,1729474482488.0,0.0
-1.689333,-9.152546,4.151547,143.850006,12.88,-2.1,1729474482507.0,0.0
-1.725225,-8.671589,4.642076,142.029999,16.52,-7.0,1729474482526.0,0.0
-2.323431,-7.171289,5.326423,108.5,29.190001,-8.33,1729474482545.0,0.0
-2.349752,-7.905886,5.352744,35.139999,24.5,-23.24,1729474482567.0,0.0
-1.158126,-9.98525,6.329016,-5.53,17.5,-24.360001,1729474482586.0,0.0
1.196411,-9.722038,7.546963,18.200001,10.08,-20.860001,1729474482605.0,0.0
1.911865,-6.625726,7.647461,91.699997,3.92,-9.66,1729474482626.0,0.0
0.753739,-4.0008,6.888937,124.739998,-4.48,-0.35,1729474482645.0,0.0
-1.304088,-3.354738,6.360123,85.959999,-7.21,8.61,1729474482666.0,0.0
-3.235096,-4.151547,5.644669,-5.88,-5.39,12.81,1729474482687.0,0.0
-3.974478,-6.005985,4.625326,-101.5,-1.05,11.9,1729474482705.0,0.0
-2.435893,-7.322037,4.015156,-133.350006,5.67,17.290001,1729474482728.0,0.0
-1.062413,-7.396214,4.850252,-91.139999,14.84,32.34,1729474482749.0,0.0
-0.461815,-6.683154,6.929615,-57.470001,14.07,41.720001,1729474482765.0,0.0
-1.055235,-6.740582,8.575876,-82.879997,-0.07,46.549999,1729474482786.0,0.0
-2.579463,-8.77448,7.262216,-151.059998,-24.5,38.150002,1729474482805.0,0.0
-2.529213,-12.220145,4.555934,-182.979996,-49.91,27.09,1729474482827.0,0.0
-2.605784,-12.531212,4.503292,-158.410004,-50.330002,15.26,1729474482845.0,0.0
-2.239682,-13.311273,-2.471786,-139.860001,-42.77,-10.99,1729474482868.0,0.0
-0.023928,-13.127025,-2.172683,-13.16,-15.190001,-14.07,1729474482885.0,0.0
-0.019143,-9.891929,1.921437,103.809998,21.700001,-7.91,1729474482905.0,0.0
-1.270589,-7.334002,3.096312,109.620003,29.889999,-17.08,1729474482928.0,0.0
-1.820938,-7.360322,3.192025,79.449997,20.51,-14.63,1729474482946.0,0.0
-1.179662,-8.800802,3.445665,64.540001,7.84,-10.5,1729474482967.0,0.0
-1.323231,-9.731609,3.98405,90.790001,6.3,-10.64,1729474482987.0,0.0
-1.65344,-9.698111,4.26401,135.100006,9.52,-10.57,1729474483004.0,0.0
-1.861616,-8.872586,4.73061,158.899994,11.62,-13.16,1729474483027.0,0.0
-2.79721,-6.597012,4.869394,170.240005,13.16,-19.110001,1729474483052.0,0.0
-3.471986,-6.477371,5.69731,158.619995,19.879999,-16.799999,1729474483068.0,0.0
-2.591427,-6.367301,5.740381,66.919998,19.879999,-33.950001,1729474483086.0,0.0
-1.052842,-7.874779,6.843473,14.07,19.18,-26.880001,1729474483106.0,0.0
0.27996,-8.709875,8.465806,14.77,11.06,-24.92,1729474483127.0,0.0
0.904487,-7.972885,8.161918,46.549999,-2.38,-22.190001,1729474483145.0,0.0
0.772882,-6.455836,6.922436,88.269997,-13.440001,-16.799999,1729474483167.0,0.0
-1.074377,-4.692325,6.101698,104.440002,-16.73,-10.36,1729474483187.0,0.0
-2.600998,-4.12044,5.575277,49.91,-8.4,-9.03,1729474483207.0,0.0
-3.381058,-3.924229,5.776274,-10.64,2.03,-4.83,1729474483226.0,0.0
-2.679961,-4.632504,5.666204,-70.209999,8.54,-1.26,1729474483247.0,0.0
-1.533799,-5.56092,5.465207,-92.610001,13.16,9.17,1729474483265.0,0.0
-0.926022,-5.728417,6.26441,-75.459999,19.110001,24.43,1729474483289.0,0.0
-0.741775,-5.62074,7.226324,-83.720001,20.23,32.830002,1729474483307.0,0.0
-1.129412,-6.556334,7.377072,-151.619995,10.57,30.24,1729474483327.0,0.0
-1.840081,-8.489735,6.338587,-210.139999,-7.14,24.57,1729474483349.0,0.0
-2.440679,-9.602397,6.673582,-187.110001,-21.0,31.5,1729474483367.0,0.0
-1.344766,-10.849058,6.156733,-146.930008,-35.349998,24.219999,1729474483388.0,0.0
-1.636691,-10.657632,4.283153,-154.070007,-40.25,5.67,1729474483407.0,0.0
-1.61037,-11.909079,0.16989,-164.5,-34.790001,-9.17,1729474483429.0,0.0
-0.535992,-14.165509,-1.397408,-98.559998,-19.32,-12.88,1729474483447.0,0.0
-0.830309,-10.181459,1.978864,25.620001,13.02,-9.45,1729474483469.0,0.0
-1.835295,-8.377272,4.211368,101.989998,26.67,-16.1,1729474483488.0,0.0
-2.029114,-8.55434,5.039285,83.790001,12.53,-17.15,1729474483508.0,0.0
-1.124627,-9.064013,4.027121,84.07,-5.53,-18.620001,1729474483528.0,0.0
-1.215554,-8.843873,2.825923,131.949997,-2.24,-13.16,1729474483547.0,0.0
-1.56012,-7.822137,3.505485,199.710007,7.7,-8.4,1729474483567.0,0.0
-2.555535,-5.943772,4.469792,228.199997,21.07,-5.67,1729474483588.0,0.0
-3.326023,-5.812167,5.551349,176.960007,31.43,-11.13,1729474483607.0,0.0
-2.691926,-6.278766,5.879165,68.18,28.35,-25.27,1729474483628.0,0.0
-1.512264,-7.776673,6.039484,27.58,30.59,-16.1,1729474483647.0,0.0
-0.567099,-9.279366,7.74796,27.09,23.799999,-20.16,1729474483667.0,0.0
0.892523,-8.288737,8.640482,61.389999,11.55,-15.26,1729474483687.0,0.0
1.20359,-5.740381,8.82473,136.779999,1.89,-0.14,1729474483711.0,0.0
-0.189033,-4.323831,7.568498,146.160004,-9.59,3.29,1729474483729.0,0.0
-2.459821,-4.608576,7.056434,85.82,-13.51,-3.85,1729474483748.0,0.0
-3.345166,-4.76411,5.802595,20.790001,-9.38,-6.09,1729474483772.0,0.0
-2.773281,-5.111069,5.410172,-7.63,7.49,-2.17,1729474483798.0,0.0
-1.5003,-5.740381,6.865008,-23.030001,17.710001,-2.8,1729474483806.0,0.0
-1.172483,-5.426922,7.771888,-24.780001,23.030001,6.65,1729474483827.0,0.0
-1.20359,-5.123034,7.659425,-48.860001,21.280001,9.1,1729474483848.0,0.0
-1.038485,-4.395615,7.958528,-100.940002,17.92,13.3,1729474483867.0,0.0
-1.17009,-4.472186,7.9011,-178.990005,14.84,17.85,1729474483887.0,0.0
-1.165305,-4.376472,6.903293,-276.98999,2.31,13.86,1729474483906.0,0.0
-2.675175,-4.536791,7.305287,-333.76001,-8.96,23.66,1729474483928.0,0.0
-3.517449,-8.001599,5.28096,-369.25,-26.950001,29.469999,1729474483948.0,0.0
-1.521835,-13.923835,0.413958,-382.339996,-52.360001,0.35,1729474483966.0,0.0
-0.385244,-17.07279,-2.775674,-262.290009,-42.700001,7.42,1729474483988.0,0.0
-0.655633,-12.870994,-0.808774,-104.370003,3.22,-1.47,1729474484006.0,0.0
-1.995614,-9.410972,0.739382,-58.240002,27.65,-15.68,1729474484026.0,0.0
-2.612962,-9.552148,0.174676,-69.790001,20.02,-19.32,1729474484046.0,0.0
-1.677369,-11.461621,0.057428,-35.700001,-1.75,-12.46,1729474484069.0,0.0
-0.701097,-11.660224,-0.09332,48.439999,-4.9,-7.63,1729474484087.0,0.0
-1.485943,-9.501899,1.636691,130.830002,9.66,-8.4,1729474484106.0,0.0
-2.672783,-8.566305,1.897508,159.600006,9.03,-6.86,1729474484127.0,0.0
-1.911865,-10.712667,1.658226,151.550003,-3.36,-11.2,1729474484146.0,0.0
-1.529014,-9.267403,2.909672,234.290009,8.26,-4.48,1729474484167.0,0.0
-2.785245,-5.927022,3.457629,294.140015,22.33,-3.15,1729474484200.0,0.0
-3.871587,-6.441479,4.754539,252.350006,28.210001,-8.33,1729474484206.0,0.0
-2.206182,-7.74796,4.835894,116.480003,18.27,-30.1,1729474484227.0,0.0
-1.191626,-9.119047,5.56092,47.040001,26.040001,-25.9,1729474484248.0,0.0
-0.344566,-9.305687,6.563512,32.060001,21.700001,-32.619999,1729474484266.0,0.0
0.729811,-7.606783,7.45125,69.790001,9.66,-23.24,1729474484288.0,0.0
0.770489,-5.632704,8.228917,130.130005,-3.5,-9.52,1729474484308.0,0.0
-0.150748,-3.996014,7.04447,147.419998,-14.35,-1.4,1729474484326.0,0.0
-1.830509,-4.37408,6.142376,98.699997,-16.1,2.94,1729474484346.0,0.0
-3.206382,-4.371687,5.388636,7.98,-9.73,1.33,1729474484368.0,0.0
-3.728018,-4.448257,5.481956,-73.849998,3.5,5.46,1729474484389.0,0.0
-2.778067,-5.096712,5.541777,-130.270004,13.440001,8.68,1729474484406.0,0.0
-1.526621,-5.460421,5.711668,-162.399994,19.530001,18.549999,1729474484428.0,0.0
-0.409173,-6.364908,5.71406,-206.850006,21.139999,24.43,1729474484446.0,0.0
-1.215554,-8.286345,6.281159,-273.48999,12.74,28.0,1729474484467.0,0.0
-2.538785,-9.147761,5.292924,-324.450012,-7.56,27.370001,1729474484487.0,0.0
-2.787638,-10.037891,3.59402,-349.790009,-31.5,12.46,1729474484506.0,0.0
-2.239682,-10.975878,0.902094,-367.5,-49.139999,-6.09,1729474484527.0,0.0
-1.40698,-12.966705,-5.271388,-325.079987,-57.610001,-21.280001,1729474484546.0,0.0
-0.504886,-14.368899,-7.200003,-187.25,-33.740002,-14.21,1729474484566.0,0.0
-0.550349,-11.88515,-4.364508,-34.299999,14.77,-4.13,1729474484590.0,0.0
-1.85683,-9.822537,-0.557528,56.139999,41.23,-3.92,1729474484608.0,0.0
-2.995814,-9.209974,0.827917,62.650002,34.93,-8.68,1729474484626.0,0.0
-2.26361,-10.480563,-1.292124,57.959999,0.91,-11.13,1729474484645.0,0.0
-0.741775,-11.447264,-1.710868,110.669998,-10.71,-5.32,1729474484667.0,0.0
-1.158126,-10.19821,-0.832702,195.020004,11.06,-3.64,1729474484688.0,0.0
-2.859423,-9.446864,0.579063,255.220001,24.710001,-6.37,1729474484706.0,0.0
-3.304488,-9.425328,2.129612,288.959991,16.24,-5.67,1729474484729.0,0.0
-2.266003,-9.583255,2.620141,322.980011,7.91,-7.28,1729474484747.0,0.0
-1.761117,-7.996813,4.031906,325.220001,15.33,-14.07,1729474484767.0,0.0
-1.667797,-7.520642,4.465007,293.160004,20.23,-21.559999,1729474484788.0,0.0
-1.51705,-7.185646,5.350351,213.919998,18.620001,-32.830002,1729474484807.0,0.0
-1.048056,-7.788638,5.927022,128.869995,16.030001,-33.529999,1729474484827.0,0.0
-0.79681,-7.104291,7.73121,115.220001,8.89,-34.720001,1729474484847.0,0.0
-0.234497,-5.505885,8.55434,142.169998,4.62,-23.030001,1729474484865.0,0.0
-0.055035,-3.558127,8.700303,127.330002,-2.52,-18.9,1729474484886.0,0.0
-0.693919,-3.172883,7.936993,71.75,-13.72,-9.1,1729474484906.0,0.0
-1.581656,-2.825923,6.989435,10.29,-16.52,-3.92,1729474484927.0,0.0
-2.313859,-3.050849,6.113662,-43.330002,-11.06,4.27,1729474484946.0,0.0
-2.292324,-3.766303,6.142376,-85.050003,-3.15,10.92,1729474484968.0,0.0
-1.56012,-4.792823,6.589834,-121.449997,3.36,19.6,1729474484989.0,0.0
-0.842274,-5.393422,6.656832,-166.600006,7.77,26.950001,1729474485007.0,0.0
-0.636491,-5.402994,5.79063,-224.770004,10.78,29.4,1729474485028.0,0.0
-0.933201,-6.551548,5.185246,-276.5,5.11,33.040001,1729474485046.0,0.0
-2.041078,-8.336594,4.261617,-292.25,-11.97,39.759998,1729474485066.0,0.0
-2.691926,-10.025927,3.996014,-256.269989,-21.84,42.0,1729474485095.0,0.0
-3.26381,-10.403993,2.749353,-235.690002,-19.74,31.92,1729474485108.0,0.0
-3.192025,-11.631511,2.861816,-240.380005,-24.360001,19.879999,1729474485127.0,0.0
-1.665405,-12.105289,-0.334995,-251.580002,-35.209999,1.89,1729474485147.0,0.0
