acc_x,acc_y,acc_z,gyr_x,gyr_y,gyr_z,timestamp,label
-8.609376,-3.464807,-6.049056,15.68,45.709999,-37.939999,1729471756860.0,0.0
-7.070791,-4.304688,-4.852644,7.42,36.540001,-28.98,1729471756861.0,0.0
-5.888737,-4.177868,-4.311867,17.360001,33.18,-23.379999,1729471756861.0,0.0
-5.539384,-3.570091,-4.364508,24.01,35.209999,-19.32,1729471756869.0,0.0
-5.496314,-2.9336,-4.469792,9.24,33.810001,-16.870001,1729471756892.0,0.0
-5.010571,-3.089134,-5.017749,-17.92,23.450001,-11.2,1729471756908.0,0.0
-4.472186,-3.955336,-5.680561,-48.16,12.6,-6.16,1729471756931.0,0.0
-4.414758,-4.855037,-6.948757,-70.910004,6.09,-0.35,1729471756949.0,0.0
-4.677969,-5.809773,-7.463214,-76.440002,-3.5,4.27,1729471756968.0,0.0
-5.175675,-6.350551,-7.793423,-62.299999,-5.88,5.88,1729471756990.0,0.0
-5.680561,-6.65444,-7.601997,-38.709999,-6.44,5.67,1729471757009.0,0.0
-5.845665,-6.197411,-7.221539,-17.99,-5.46,3.71,1729471757030.0,0.0
-5.85763,-5.946165,-6.805188,-4.2,-5.18,3.64,1729471757049.0,0.0
-5.726025,-5.793024,-6.635297,-3.08,-4.2,-0.63,1729471757068.0,0.0
-5.577669,-6.039484,-6.522834,-10.57,-2.1,-2.24,1729471757089.0,0.0
-5.058427,-6.376873,-6.558727,-14.77,-3.64,-2.38,1729471757109.0,0.0
-4.936393,-6.491727,-6.549156,-12.6,-2.03,-1.89,1729471757130.0,0.0
-4.723432,-6.269196,-6.355337,-5.88,-0.35,-3.5,1729471757149.0,0.0
-4.527221,-6.058627,-6.34098,0.56,-0.35,-5.32,1729471757169.0,0.0
-4.376472,-5.740381,-6.295516,4.41,1.19,-7.56,1729471757189.0,0.0
-4.261617,-5.45085,-6.34098,6.3,1.82,-8.89,1729471757209.0,0.0
-4.115655,-5.367101,-6.319445,6.37,2.24,-10.01,1729471757230.0,0.0
-4.115655,-5.312066,-6.573084,5.04,2.1,-10.22,1729471757248.0,0.0
-4.15394,-5.02732,-6.975078,5.6,-0.07,-8.54,1729471757268.0,0.0
-4.290331,-4.998606,-7.479963,1.68,-3.29,-7.14,1729471757290.0,0.0
-4.563113,-5.067998,-7.515855,-7.77,-4.48,-5.95,1729471757309.0,0.0
-4.938786,-5.331209,-7.618747,-8.12,-4.76,-4.27,1729471757330.0,0.0
-5.319244,-5.417351,-7.630712,-7.77,-3.78,-5.11,1729471757348.0,0.0
-5.491528,-5.462814,-7.513463,-8.61,-1.82,-7.14,1729471757368.0,0.0
-5.343173,-5.525027,-7.453642,-7.14,-0.91,-8.68,1729471757389.0,0.0
-5.209175,-5.649454,-7.530212,-2.31,-0.49,-8.75,1729471757410.0,0.0
-5.235496,-5.666204,-7.582855,1.54,-0.56,-9.1,1729471757430.0,0.0
-5.520242,-5.630312,-7.482357,4.48,-0.35,-7.49,1729471757449.0,0.0
-5.761917,-5.737988,-7.219146,6.37,-0.84,-6.16,1729471757470.0,0.0
-5.907879,-5.831308,-6.912865,5.11,0.49,-8.05,1729471757490.0,0.0
-6.049056,-5.795416,-6.979864,5.25,3.71,-11.76,1729471757508.0,0.0
-5.757132,-5.479564,-6.826723,5.67,7.98,-16.52,1729471757530.0,0.0
-5.120641,-5.237889,-6.494121,7.14,12.32,-20.65,1729471757548.0,0.0
-4.689932,-5.041678,-5.943772,15.26,17.15,-22.26,1729471757568.0,0.0
-4.453043,-4.565506,-6.065805,25.34,19.25,-21.280001,1729471757590.0,0.0
-4.225725,-4.022335,-6.331409,21.98,19.530001,-21.49,1729471757608.0,0.0
-3.756732,-3.76391,-6.422336,9.45,20.299999,-19.950001,1729471757630.0,0.0
-3.783052,-3.878766,-6.565905,-1.33,16.870001,-10.36,1729471757648.0,0.0
-3.897908,-3.909872,-6.910471,-8.05,13.3,-1.96,1729471757668.0,0.0
-3.716053,-4.371687,-7.168896,-11.41,8.89,6.51,1729471757689.0,0.0
-3.759124,-4.61097,-6.477371,-4.62,5.32,17.710001,1729471757709.0,0.0
-4.381258,-5.235496,-6.683154,7.42,0.21,29.960001,1729471757730.0,0.0
-4.625326,-6.379266,-7.176075,18.200001,-4.06,35.209999,1729471757748.0,0.0
-4.644469,-7.255038,-7.13779,45.990002,-3.99,38.150002,1729471757769.0,0.0
-5.158926,-6.874579,-6.965507,85.190002,1.26,40.810001,1729471757791.0,0.0
-5.613562,-6.58744,-4.09412,118.090004,10.43,41.860001,1729471757809.0,0.0
-10.576276,-5.20439,3.98405,93.239998,-31.99,51.240002,1729471757831.0,0.0
-8.810372,-7.085148,-4.869394,71.050003,-50.330002,14.42,1729471757848.0,0.0
-5.099105,-4.991428,-9.631111,-87.639999,-80.220001,-2.45,1729471757868.0,0.0
-4.941179,-7.889136,-13.607983,-111.300003,-50.959999,5.32,1729471757893.0,0.0
-5.479564,-10.695917,-16.646868,-38.080002,-12.74,-10.15,1729471757908.0,0.0
-5.596812,-8.542377,-16.039089,70.209999,31.710001,-15.54,1729471757932.0,0.0
-4.395615,-6.321837,-14.469398,177.169998,66.779999,-23.309999,1729471757949.0,0.0
-4.084548,-5.663811,-5.599205,209.300003,85.120003,-19.67,1729471757969.0,0.0
-3.9673,-7.314859,-3.433701,243.809998,103.459999,-24.85,1729471757988.0,0.0
-3.034099,-5.513064,1.253839,279.51001,92.400002,-4.48,1729471758015.0,0.0
-0.454636,-1.89033,3.9673,282.100006,54.599998,7.98,1729471758029.0,0.0
-1.787439,3.017349,13.761123,166.25,25.129999,33.599998,1729471758048.0,0.0
-7.743174,-2.443072,11.729616,-100.309998,-30.1,46.48,1729471758071.0,0.0
-9.092726,-5.931807,0.988236,-379.119995,-109.970001,6.58,1729471758088.0,0.0
-7.032506,-8.451449,-12.591033,-462.279999,-165.270004,-26.880001,1729471758109.0,0.0
-5.891129,-12.129218,-27.713673,-336.420013,-128.309998,-18.549999,1729471758130.0,0.0
-6.661618,-14.694324,-22.459034,-41.580002,1.47,-19.67,1729471758148.0,0.0
-8.02792,-11.92822,-14.809179,382.130005,71.330002,23.59,1729471758168.0,0.0
-6.501299,-2.096112,-11.578869,560.140015,81.129997,18.83,1729471758189.0,0.0
-5.292924,0.746561,-5.678168,465.429993,97.650002,1.68,1729471758209.0,0.0
-1.397408,3.491128,2.727818,245.210007,96.110001,-25.41,1729471758231.0,0.0
-2.275574,-1.356731,5.070391,111.090004,93.519997,18.48,1729471758449.0,0.0
-3.804588,-5.070391,5.565705,90.370003,51.450001,44.59,1729471758451.0,0.0
-2.833102,-8.051848,1.792224,172.059998,-7.77,66.010002,1729471758454.0,0.0
-4.17069,-5.63749,3.424129,181.020004,4.2,90.720001,1729471758456.0,0.0
-8.831908,-5.876772,4.15394,126.07,14.63,101.150002,1729471758459.0,0.0
-9.379865,-11.4018,1.600798,74.480003,-21.700001,80.709999,1729471758460.0,0.0
-6.161518,-12.617353,-0.248854,45.990002,-47.670002,48.860001,1729471758465.0,0.0
-5.316852,-11.449656,-8.047063,-45.779999,-29.610001,21.210001,1729471758465.0,0.0
-10.004392,-9.949356,-4.948357,-212.800003,12.6,-7.49,1729471758465.0,0.0
-11.75833,-6.520442,-5.960521,-263.130005,51.170002,-48.369999,1729471758465.0,0.0
-8.367701,-0.026321,-5.716454,-422.100006,14.14,-76.860001,1729471758469.0,0.0
-5.139783,-8.590233,-6.570691,-362.670013,-55.16,-75.040001,1729471758476.0,0.0
-5.776274,-12.643675,-3.361916,-333.200012,10.29,-91.840004,1729471758492.0,0.0
-9.116654,-1.61037,3.56052,-344.75,49.0,-96.18,1729471758511.0,0.0
-10.143176,0.311067,-2.876173,-402.570007,-34.299999,-98.699997,1729471758538.0,0.0
-6.702296,-6.989435,-8.590233,-469.769989,-58.799999,-111.650002,1729471758552.0,0.0
-4.115655,-6.520442,-9.193225,-401.309998,-32.970001,-111.720001,1729471758569.0,0.0
-5.656632,-9.056834,-10.803595,-188.930008,-11.97,-67.550003,1729471758590.0,0.0
-5.85763,-10.033106,-8.642875,-19.67,-2.38,-48.860001,1729471758609.0,0.0
-5.355137,-7.73121,-9.578469,205.240005,3.78,-25.969999,1729471758631.0,0.0
-6.082555,-5.486742,-10.468598,379.329987,19.040001,2.73,1729471758667.0,0.0
-6.429514,-4.864608,-8.709875,444.5,34.790001,10.22,1729471758686.0,0.0
-5.927022,-6.278766,-6.874579,437.220001,32.549999,8.4,1729471758697.0,0.0
-4.713861,-7.401,-4.981857,385.279999,27.860001,3.01,1729471758710.0,0.0
-3.251846,-7.362715,-2.804388,312.76001,22.68,-13.23,1729471758737.0,0.0
-2.646462,-7.484749,-1.679761,234.080002,19.809999,-15.75,1729471758750.0,0.0
-2.378466,-8.157133,-1.325624,161.910004,16.1,-24.290001,1729471758770.0,0.0
-2.244468,-8.798409,-1.122234,109.059998,9.73,-26.6,1729471758793.0,0.0
-1.89033,-8.941978,-0.839881,74.830002,-1.05,-23.1,1729471758812.0,0.0
-1.5003,-8.88455,-0.641276,55.93,-9.52,-20.93,1729471758834.0,0.0
-1.584049,-8.85105,-0.612563,45.57,-12.67,-17.780001,1729471758853.0,0.0
-1.98365,-8.640482,-0.665205,38.220001,-13.23,-17.360001,1729471758870.0,0.0
-2.311467,-7.814958,-0.660419,29.889999,-11.13,-14.77,1729471758894.0,0.0
-2.143969,-6.9679,-0.622134,10.57,-11.76,-10.71,1729471758911.0,0.0
-2.184647,-7.348359,-0.61017,-30.799999,-14.56,-0.49,1729471758933.0,0.0
-2.414358,-8.193025,-1.098306,-46.900002,-13.79,5.32,1729471758950.0,0.0
-2.928815,-8.937192,-1.710868,-52.5,-12.95,10.99,1729471758971.0,0.0
-3.448057,-9.159724,-2.108077,-46.48,-12.46,13.23,1729471758991.0,0.0
-3.869194,-8.965906,-2.196611,-39.549999,-11.27,14.91,1729471759011.0,0.0
-4.091727,-8.611769,-2.251646,-35.279999,-10.85,14.35,1729471759033.0,0.0
-4.216154,-8.882158,-2.191825,-36.68,-10.01,15.12,1729471759049.0,0.0
-4.630112,-9.705289,-2.438286,-40.880001,-8.12,13.23,1729471759070.0,0.0
-4.979464,-10.351351,-2.835495,-36.540001,-7.77,10.78,1729471759093.0,0.0
-5.034499,-10.25803,-3.005385,-19.460001,-7.0,7.63,1729471759110.0,0.0
-5.010571,-9.968499,-2.579463,2.45,-5.25,3.99,1729471759131.0,0.0
-4.936393,-9.432507,-2.35693,14.07,-1.89,-3.64,1729471759150.0,0.0
-4.752146,-9.052048,-2.352145,16.379999,1.61,-10.99,1729471759172.0,0.0
-4.106083,-8.324631,-2.330609,11.48,3.22,-18.129999,1729471759190.0,0.0
-3.534199,-8.102098,-2.242075,6.86,4.13,-17.15,1729471759210.0,0.0
-3.311667,-8.315059,-1.89033,2.52,6.86,-13.65,1729471759234.0,0.0
-3.555735,-8.819944,-1.691726,-3.85,9.73,-8.61,1729471759250.0,0.0
-3.754339,-8.891729,-1.562513,-17.219999,10.36,-2.87,1729471759270.0,0.0
-3.797409,-8.908479,-1.61037,-25.76,9.73,-1.54,1729471759291.0,0.0
-3.98405,-9.119047,-1.880759,-36.330002,10.85,-3.57,1729471759311.0,0.0
-4.400401,-9.516255,-2.225325,-44.240002,13.3,-6.23,1729471759334.0,0.0
-4.615755,-9.74836,-2.646462,-41.790001,13.09,-8.61,1729471759349.0,0.0
-4.589434,-9.521042,-2.79721,-27.860001,12.25,-9.45,1729471759369.0,0.0
-4.381258,-9.013763,-2.79721,-13.86,12.04,-10.29,1729471759390.0,0.0
-4.228118,-8.939585,-2.663212,-5.18,12.88,-10.29,1729471759410.0,0.0
-4.027121,-9.054441,-2.524428,1.4,13.02,-10.01,1729471759433.0,0.0
-4.015156,-8.997013,-2.340181,10.99,13.16,-8.26,1729471759449.0,0.0
-4.019942,-8.69791,-2.18704,14.84,12.25,-7.14,1729471759469.0,0.0
-3.952943,-8.525627,-2.172683,9.52,10.29,-5.95,1729471759491.0,0.0
-3.914658,-8.635696,-2.354537,-0.28,8.4,-5.39,1729471759510.0,0.0
-3.940979,-8.879765,-2.56032,-7.21,7.63,-4.2,1729471759531.0,0.0
-3.905087,-8.815158,-2.529213,-8.82,7.21,-3.29,1729471759549.0,0.0
-3.864408,-8.831908,-2.574677,-8.82,6.51,-2.38,1729471759572.0,0.0
-3.89073,-8.901299,-2.536392,-8.75,6.16,-3.08,1729471759591.0,0.0
-3.900301,-8.877372,-2.579463,-6.3,5.46,-3.78,1729471759610.0,0.0
-3.87398,-8.812766,-2.562713,-3.15,3.85,-3.99,1729471759631.0,0.0
-3.775874,-8.592626,-2.500499,-2.17,2.8,-3.92,1729471759650.0,0.0
-3.684947,-8.470592,-2.380858,-4.55,2.31,-3.57,1729471759669.0,0.0
-3.591627,-8.465806,-2.371287,-8.47,1.26,-3.29,1729471759691.0,0.0
-3.436093,-8.465806,-2.48375,-10.08,0.49,-2.87,1729471759709.0,0.0
-3.479164,-8.425128,-2.498107,-8.75,0.98,-1.68,1729471759733.0,0.0
-3.512664,-8.501699,-2.340181,-8.68,1.19,-0.49,1729471759750.0,0.0
-3.63709,-8.645268,-2.462214,-10.36,0.35,0.21,1729471759770.0,0.0
-3.742374,-8.740981,-2.514857,-11.27,-0.07,0.07,1729471759790.0,0.0
-3.85723,-8.764909,-2.600998,-10.36,-0.91,0.21,1729471759810.0,0.0
-3.881158,-8.676375,-2.67039,-10.08,-2.17,-0.42,1729471759832.0,0.0
-3.907479,-8.635696,-2.632105,-9.38,-3.08,-0.49,1729471759849.0,0.0
-3.835695,-8.65484,-2.708675,-8.12,-4.76,-0.49,1729471759870.0,0.0
-3.862016,-8.580662,-2.79721,-6.16,-5.11,0.14,1729471759893.0,0.0
-3.974478,-8.688338,-2.799603,-4.2,-5.18,1.33,1729471759909.0,0.0
-3.931407,-8.700303,-2.914458,-1.19,-6.51,2.8,1729471759932.0,0.0
-3.924229,-8.628519,-2.955136,-1.19,-6.86,2.94,1729471759949.0,0.0
-4.046263,-8.597411,-3.017349,-2.94,-5.88,2.17,1729471759970.0,0.0
-4.017549,-8.68116,-2.98385,-4.9,-6.02,1.96,1729471759991.0,0.0
-3.981657,-8.717053,-2.947958,-3.57,-7.0,1.12,1729471760010.0,0.0
-3.974478,-8.618947,-3.062813,-0.84,-7.35,0.07,1729471760033.0,0.0
-4.017549,-8.482556,-3.163311,1.12,-7.0,0.07,1729471760057.0,0.0
-4.010371,-8.49452,-3.108276,1.75,-7.28,0.56,1729471760069.0,0.0
-4.041477,-8.568698,-3.031706,0.84,-7.42,1.05,1729471760091.0,0.0
-4.091727,-8.561519,-2.947958,-0.98,-7.49,1.26,1729471760110.0,0.0
-4.012764,-8.595018,-2.900101,-4.2,-8.4,0.98,1729471760133.0,0.0
-4.0008,-8.676375,-2.864209,-6.44,-8.4,0.91,1729471760149.0,0.0
-3.996014,-8.673983,-2.902494,-6.51,-8.61,1.4,1729471760171.0,0.0
-4.034299,-8.695518,-2.957529,-5.32,-8.4,1.61,1729471760190.0,0.0
-4.091727,-8.626125,-2.85703,-5.6,-8.33,2.17,1729471760210.0,0.0
-4.146761,-8.638089,-2.85703,-6.65,-8.68,2.45,1729471760232.0,0.0
-4.130012,-8.664411,-2.861816,-8.75,-9.38,2.31,1729471760251.0,0.0
-4.070191,-8.597411,-2.828316,-10.08,-9.45,2.52,1729471760272.0,0.0
-3.981657,-8.54477,-2.871387,-11.34,-9.24,2.52,1729471760291.0,0.0
-3.957729,-8.638089,-2.935993,-10.43,-8.68,2.59,1729471760310.0,0.0
-3.991228,-8.561519,-3.048456,-9.03,-8.05,2.45,1729471760332.0,0.0
-4.084548,-8.525627,-3.101098,-8.82,-6.86,2.1,1729471760350.0,0.0
-4.144369,-8.489735,-3.158526,-8.75,-6.37,2.1,1729471760370.0,0.0
-4.149154,-8.4347,-3.177669,-9.8,-5.81,1.4,1729471760391.0,0.0
-4.218546,-8.403593,-3.239882,-10.92,-5.11,0.91,1729471760412.0,0.0
-4.220939,-8.377272,-3.294917,-11.13,-4.2,0.21,1729471760433.0,0.0
-4.201797,-8.4012,-3.259024,-9.8,-3.22,0.07,1729471760451.0,0.0
-4.185047,-8.468199,-3.29731,-7.56,-1.33,-0.35,1729471760472.0,0.0
-4.237689,-8.391629,-3.270989,-4.83,0.35,-0.42,1729471760493.0,0.0
-4.35733,-8.295916,-3.273381,-3.78,1.82,-0.7,1729471760512.0,0.0
-4.426722,-8.329416,-3.359523,-7.63,3.15,-0.91,1729471760533.0,0.0
-4.376472,-8.439486,-3.431308,-10.36,3.43,-1.75,1729471760552.0,0.0
-4.462614,-8.501699,-3.469593,-11.9,4.9,-2.38,1729471760571.0,0.0
-4.579862,-8.676375,-3.505485,-12.88,6.3,-2.59,1729471760594.0,0.0
-4.701896,-8.815158,-3.443272,-11.76,7.63,-2.94,1729471760612.0,0.0
-4.68754,-8.870193,-3.335595,-11.48,8.89,-3.99,1729471760633.0,0.0
-4.505685,-8.803195,-3.433701,-14.14,9.45,-6.72,1729471760651.0,0.0
-4.304688,-8.788837,-3.457629,-16.66,10.43,-9.87,1729471760673.0,0.0
-4.053442,-8.640482,-3.452843,-16.379999,12.74,-13.79,1729471760692.0,0.0
-3.924229,-8.506484,-3.751946,-10.5,14.28,-15.89,1729471760712.0,0.0
-3.74716,-8.413164,-4.003192,-2.73,16.030001,-16.799999,1729471760735.0,0.0
-3.534199,-8.224132,-4.096512,6.65,17.85,-16.940001,1729471760751.0,0.0
-3.488736,-8.166703,-3.9673,7.84,22.049999,-16.450001,1729471760776.0,0.0
-3.634698,-8.372486,-4.04387,-3.99,25.969999,-17.01,1729471760793.0,0.0
-3.498307,-8.458629,-4.383651,-14.63,27.719999,-18.48,1729471760813.0,0.0
-3.275774,-8.530413,-4.539185,-14.7,29.469999,-17.290001,1729471760834.0,0.0
-2.895315,-8.252845,-4.957928,-17.780001,31.5,-19.530001,1729471760851.0,0.0
-2.723032,-8.269595,-5.369494,-20.790001,37.240002,-20.02,1729471760873.0,0.0
-2.462214,-8.214561,-5.101498,-17.710001,39.48,-18.83,1729471760895.0,0.0
-2.340181,-8.173882,-4.718646,-20.02,40.110001,-19.040001,1729471760912.0,0.0
-2.344966,-8.482556,-4.644469,-31.5,41.93,-21.280001,1729471760932.0,0.0
-2.227718,-8.633304,-4.735396,-38.709999,40.599998,-22.33,1729471760954.0,0.0
-2.254039,-8.724231,-4.539185,-41.93,40.599998,-22.049999,1729471760972.0,0.0
-2.555535,-9.013763,-4.151547,-44.52,40.110001,-23.379999,1729471760992.0,0.0
-2.775674,-9.008978,-3.888337,-39.689999,35.490002,-24.01,1729471761012.0,0.0
-2.85703,-8.860621,-3.713661,-36.889999,28.630001,-26.18,1729471761032.0,0.0
-3.079563,-8.647661,-3.366701,-44.799999,22.049999,-28.49,1729471761050.0,0.0
-3.256632,-8.599805,-3.522235,-55.790001,12.32,-31.780001,1729471761074.0,0.0
-3.251846,-8.195417,-3.639483,-58.66,1.82,-31.219999,1729471761093.0,0.0
-3.122634,-7.707282,-3.960121,-60.830002,-7.84,-31.219999,1729471761113.0,0.0
-3.194418,-7.334002,-3.921836,-64.75,-14.98,-28.35,1729471761133.0,0.0
-3.54377,-7.704889,-5.166104,-72.239998,-24.92,-27.23,1729471761151.0,0.0
-5.974878,-5.625526,-2.091327,-103.040001,-25.48,-27.16,1729471761172.0,0.0
-6.999006,-7.779066,-8.62134,-93.590004,-41.09,-20.51,1729471761192.0,0.0
-5.436492,-7.740781,-9.243474,-38.920002,-50.75,-31.780001,1729471761213.0,0.0
-4.632504,-8.219346,-8.874979,6.51,-29.75,-23.870001,1729471761233.0,0.0
-3.854837,-7.470392,-8.812766,11.76,-18.9,-19.18,1729471761251.0,0.0
-2.304288,-8.425128,-8.202596,25.690001,-10.08,-25.83,1729471761272.0,0.0
-1.634298,-5.316852,-7.472785,56.77,6.58,-21.700001,1729471761293.0,0.0
-1.418944,-4.675575,-8.190632,18.34,16.73,-11.62,1729471761311.0,0.0
0.007178,-8.140383,-8.525627,-13.65,18.200001,-3.36,1729471761334.0,0.0
1.916651,-7.111469,-5.754738,13.93,26.880001,0.91,1729471761351.0,0.0
2.383251,-7.082755,-2.352145,34.650002,31.710001,8.33,1729471761373.0,0.0
1.074377,-6.080163,0.708275,-0.28,11.41,3.71,1729471761393.0,0.0
-4.048656,-5.855237,1.473979,-58.66,-15.61,-1.12,1729471761412.0,0.0
-3.041277,-7.37468,-3.924229,-137.479996,-70.629997,-31.290001,1729471761432.0,0.0
-0.354138,-5.800202,-8.066205,-165.970001,-101.080002,-36.400002,1729471761450.0,0.0
-3.270989,-6.360123,-9.140583,-145.949997,-77.629997,-26.110001,1729471761565.0,0.0
-7.4345,-5.441278,-12.306287,-63.91,-34.860001,-7.21,1729471761570.0,0.0
-7.23111,-4.06062,-15.026926,-38.849998,-11.27,12.11,1729471761574.0,0.0
-0.605384,-5.62074,-12.332609,-44.66,-7.42,18.690001,1729471761581.0,0.0
-1.794617,-5.912664,-10.437491,0.28,29.190001,30.73,1729471761585.0,0.0
-1.739582,-6.001199,-9.049655,38.639999,38.009998,34.790001,1729471761587.0,0.0
-0.921237,-6.843473,-6.750153,40.18,42.630001,36.68,1729471761592.0,0.0
-0.095713,-9.288938,-3.074777,42.91,36.959999,29.049999,1729471761663.0,0.0
0.916451,-6.795617,0.141177,35.77,8.12,8.47,1729471761671.0,0.0
-2.699104,-2.325824,0.543171,3.22,-15.33,2.94,1729471761672.0,0.0
-5.515456,-6.113662,-2.969493,-64.540001,-44.939999,-3.85,1729471761673.0,0.0
-3.598805,-4.73061,-7.73121,-108.989998,-75.599998,-16.52,1729471761690.0,0.0
-4.23051,-4.455436,-11.923435,-110.669998,-70.840004,-10.01,1729471761710.0,0.0
-6.532406,-5.819345,-14.376079,-75.110001,-36.82,1.4,1729471761732.0,0.0
-7.116255,-6.719046,-15.062819,-17.92,-4.76,5.11,1729471761749.0,0.0
-1.354338,-4.575077,-11.253445,4.13,7.07,-0.98,1729471761770.0,0.0
-0.514457,-5.556134,-9.851252,33.880001,20.299999,9.94,1729471761791.0,0.0
-1.916651,-5.773881,-10.095319,69.300003,38.57,17.780001,1729471761844.0,0.0
-1.414158,-7.956135,-9.042477,88.410004,45.150002,24.5,1729471761845.0,0.0
-0.911665,-9.786645,-2.550749,110.389999,47.529999,20.09,1729471761864.0,0.0
-0.739382,-6.309873,0.801596,107.379997,16.73,-2.24,1729471761870.0,0.0
-2.74696,-2.868994,1.299303,65.870003,-13.3,0.35,1729471761893.0,0.0
-6.479764,-4.991428,0.035892,1.68,-41.860001,6.58,1729471761911.0,0.0
-4.309474,-5.278566,-5.340781,-90.230003,-93.590004,-21.210001,1729471761932.0,0.0
-3.433701,-2.605784,-13.586447,-115.43,-103.389999,-26.040001,1729471761951.0,0.0
-7.049256,-5.338387,-13.548162,-95.690002,-59.779999,-6.58,1729471761971.0,0.0
-9.066404,-6.9344,-15.230316,-42.98,-20.09,-6.16,1729471761993.0,0.0
-5.656632,-6.15434,-13.35913,3.78,7.84,-9.8,1729471762011.0,0.0
-0.519243,-5.340781,-10.932807,26.389999,5.6,-5.81,1729471762035.0,0.0
-2.029114,-4.45065,-10.080962,94.5,38.5,8.96,1729471762051.0,0.0
-3.699304,-4.098906,-10.552348,116.270004,61.950001,35.490002,1729471762071.0,0.0
-2.184647,-9.152546,-4.706682,103.739998,67.620003,44.59,1729471762093.0,0.0
-0.571885,-10.655239,-1.196411,114.239998,57.610001,36.610001,1729471762110.0,0.0
0.346959,-7.850852,3.046063,111.510002,32.689999,19.110001,1729471762134.0,0.0
-1.603191,-4.859823,3.304488,42.07,2.17,7.84,1729471762153.0,0.0
-5.309673,-6.23091,1.562513,-50.189999,-24.99,9.45,1729471762171.0,0.0
-1.325624,-5.639884,-8.324631,-145.180008,-90.720001,-19.32,1729471762192.0,0.0
-3.24706,-5.685347,-13.859229,-220.430008,-92.82,-31.780001,1729471762212.0,0.0
-9.169296,-11.263017,-14.562718,-150.289993,-49.420002,-36.540001,1729471762232.0,0.0
-10.140782,-7.058826,-16.194624,4.76,-5.67,-30.1,1729471762251.0,0.0
-5.845665,-4.046263,-12.873385,76.019997,23.940001,-14.28,1729471762272.0,0.0
-1.981257,-3.503092,-12.052648,35.77,37.170002,-4.27,1729471762291.0,0.0
-2.514857,-5.429315,-9.987641,81.690002,60.830002,1.75,1729471762311.0,0.0
-3.720839,-3.723232,-8.956335,144.550003,74.129997,23.1,1729471762332.0,0.0
-3.172883,-7.097112,-3.270989,135.800003,80.639999,27.93,1729471762351.0,0.0
-1.622334,-9.473185,0.311067,134.399994,60.689999,21.98,1729471762371.0,0.0
0.019143,-7.57089,3.720839,129.080002,29.68,9.94,1729471762393.0,0.0
-1.488336,-3.306881,3.818945,59.010002,-1.19,0.42,1729471762411.0,0.0
-3.969693,-5.644669,0.248854,-69.230003,-35.98,2.1,1729471762431.0,0.0
-0.143569,-5.257031,-6.996613,-196.630005,-98.769997,-28.210001,1729471762455.0,0.0
-1.792224,-6.534799,-12.428321,-239.050003,-96.110001,-34.369999,1729471762470.0,0.0
-8.169096,-10.578669,-15.036497,-167.580002,-46.200001,-34.860001,1729471762504.0,0.0
-12.866207,-9.882358,-18.470198,19.809999,10.43,-20.860001,1729471762548.0,0.0
-4.156333,-2.275574,-11.22473,99.400002,35.77,-8.89,1729471762551.0,0.0
-0.291924,-5.259424,-10.784451,34.23,53.34,-12.67,1729471762687.0,0.0
-2.206182,-5.903094,-10.688738,100.730003,79.519997,-0.07,1729471762688.0,0.0
-3.919443,-3.639483,-8.599805,183.399994,98.279999,20.93,1729471762688.0,0.0
-2.517249,-5.046463,-3.996014,159.110001,94.360001,26.67,1729471762688.0,0.0
-1.179662,-9.209974,2.426322,164.779999,74.970001,27.02,1729471762690.0,0.0
-0.323031,-7.82453,3.570091,194.949997,45.360001,20.299999,1729471762692.0,0.0
-1.445265,-3.125026,2.742175,151.199997,20.719999,17.99,1729471762693.0,0.0
-3.876373,-6.687939,-1.579263,56.209999,1.61,33.32,1729471762693.0,0.0
-2.378466,-11.069198,-7.302894,112.489998,-26.809999,46.41,1729471762709.0,0.0
-3.314059,-11.727223,-7.925028,290.290009,-0.77,73.57,1729471762731.0,0.0
-4.886144,-7.429714,-4.981857,367.079987,35.490002,78.889999,1729471762750.0,0.0
-4.003192,-7.903493,-1.801795,296.23999,34.860001,69.790001,1729471762769.0,0.0
-2.598605,-10.928021,-0.574277,184.309998,30.380001,43.889999,1729471762790.0,0.0
-2.667997,-10.353743,0.722632,130.690002,30.73,28.700001,1729471762810.0,0.0
-3.005385,-8.693125,2.17029,113.610001,28.49,24.08,1729471762831.0,0.0
-2.758924,-8.080563,2.830709,71.050003,14.42,16.52,1729471762851.0,0.0
-3.089134,-11.475977,-0.806381,11.13,-0.7,4.83,1729471762870.0,0.0
-3.948158,-10.205389,-2.785245,-41.580002,4.62,-22.120001,1729471762893.0,0.0
-4.532006,-9.664611,-2.502892,-61.740002,14.91,-22.960001,1729471762911.0,0.0
-3.608376,-10.38485,0.756132,-77.629997,-5.11,-35.91,1729471762932.0,0.0
-3.065206,-12.023933,-0.258425,-74.340004,-18.549999,-44.869999,1729471762950.0,0.0
-2.787638,-9.918249,-0.945165,-80.360001,-14.49,-51.240002,1729471762974.0,0.0
-2.885744,-7.362715,-0.433101,-133.979996,-7.07,-50.400002,1729471762991.0,0.0
-3.613162,-6.960721,-2.210968,-205.029999,-2.8,-52.639999,1729471763009.0,0.0
-3.196811,-7.814958,-1.715654,-239.75,-10.36,-50.119999,1729471763033.0,0.0
-2.778067,-8.281559,-2.768496,-270.200012,-18.549999,-53.34,1729471763050.0,0.0
-3.065206,-6.757331,-3.4672,-298.619995,-8.4,-55.790001,1729471763069.0,0.0
-2.89053,-6.60419,-5.376673,-307.860016,-8.19,-45.220001,1729471763090.0,0.0
-2.67039,-6.348158,-5.938986,-352.380005,-12.6,-60.760002,1729471763110.0,0.0
-3.383451,-5.333601,-5.941379,-302.329987,1.19,-37.380001,1729471763132.0,0.0
-2.667997,-3.464807,-5.190032,-254.869995,-10.36,-28.77,1729471763150.0,0.0
-1.727618,-1.794617,-5.838487,-294.769989,-32.619999,-30.1,1729471763170.0,0.0
-0.892523,-8.84148,-10.030712,-257.529999,-47.529999,-16.870001,1729471763191.0,0.0
0.181855,-13.021741,-13.634303,-132.300003,-44.450001,-21.77,1729471763211.0,0.0
-0.591027,-9.853643,-10.415956,213.289993,-14.35,5.32,1729471763234.0,0.0
-2.244468,-5.046463,-7.317252,417.899994,-3.85,44.380001,1729471763251.0,0.0
-4.649254,-2.522035,-6.472585,495.179993,-13.86,59.639999,1729471763271.0,0.0
-5.962914,-5.608776,-7.625926,506.23999,-7.14,89.809998,1729471763291.0,0.0
-5.278566,-9.616754,-5.391029,556.780029,-12.74,114.239998,1729471763309.0,0.0
-4.651647,-9.097511,-4.031906,591.359985,12.74,76.440002,1729471763331.0,0.0
-6.034698,-5.548956,0.514457,490.420013,95.760002,46.200001,1729471763350.0,0.0
-7.403394,-6.474977,1.564906,353.290009,86.449997,39.130001,1729471763369.0,0.0
-7.331609,-9.633504,-1.56012,260.959991,34.23,32.060001,1729471763390.0,0.0
-5.845665,-8.472985,-1.335195,228.059998,16.940001,27.440001,1729471763411.0,0.0
-6.080163,-7.37468,1.232304,219.729996,34.23,20.16,1729471763433.0,0.0
-7.063612,-7.173682,3.919443,151.339996,29.26,8.61,1729471763450.0,0.0
-5.046463,-6.955935,1.074377,43.400002,2.03,-4.34,1729471763472.0,0.0
-3.175276,-9.824929,-0.349352,-42.07,0.91,-16.379999,1729471763490.0,0.0
-2.557927,-13.751552,1.643869,-55.510002,16.450001,-25.9,1729471763510.0,0.0
-3.723232,-13.232309,4.9675,-75.809998,41.790001,-39.27,1729471763533.0,0.0
-1.842474,-12.14836,6.905686,-109.410004,37.66,-77.209999,1729471763549.0,0.0
-0.040678,-8.997013,3.469593,-210.699997,-7.98,-95.760002,1729471763570.0,0.0
0.490529,-6.12084,-0.124427,-209.440002,-14.56,-80.43,1729471763590.0,0.0
-0.148355,-5.039285,2.488536,-176.399994,-11.83,-56.349998,1729471763609.0,0.0
-3.089134,-7.477571,4.9675,-161.839996,-10.36,-30.870001,1729471763633.0,0.0
-5.625526,-10.671989,4.192225,-174.509995,-14.84,-30.24,1729471763651.0,0.0
-5.187639,-8.449057,4.419543,-266.700012,-39.34,-50.400002,1729471763671.0,0.0
-3.381058,-3.591627,2.11047,-411.73999,-68.879997,-66.639999,1729471763691.0,0.0
-1.957329,-2.115255,-3.237489,-517.650024,-86.029999,-80.150002,1729471763711.0,0.0
-2.634498,-4.878965,-5.65424,-532.419983,-63.349998,-57.610001,1729471763732.0,0.0
-2.727818,-7.046863,-7.030113,-423.149994,-43.610001,-44.240002,1729471763750.0,0.0
-2.26361,-8.549555,-6.549156,-207.479996,-47.389999,-1.12,1729471763769.0,0.0
-0.421137,-9.695717,-9.865608,-7.63,-79.099998,23.52,1729471763791.0,0.0
0.303888,-8.638089,-11.531013,124.110001,-69.650002,37.380001,1729471763811.0,0.0
-1.462015,-6.486942,-7.424929,250.669998,-16.52,66.709999,1729471763832.0,0.0
-4.031906,-8.236095,-4.931608,356.929993,1.89,102.269997,1729471763849.0,0.0
-5.075177,-7.37468,-6.463014,335.299988,-28.559999,74.340004,1729471763869.0,0.0
-6.541977,-5.587241,-3.476771,177.309998,-26.880001,62.580002,1729471763893.0,0.0
-7.910671,-6.424729,-6.209375,42.0,-50.049999,37.73,1729471763909.0,0.0
-11.042876,-8.970692,-8.798409,-73.290001,-38.990002,36.470001,1729471763932.0,0.0
-11.375479,-11.665009,-9.662218,-151.339996,-9.8,-2.66,1729471763956.0,0.0
-7.668997,-12.768101,-9.473185,-62.02,12.11,-40.599998,1729471763970.0,0.0
-5.974878,-6.862615,-9.602397,130.830002,61.459999,-11.55,1729471763991.0,0.0
-3.931407,1.01695,-5.991628,146.720001,96.529999,-18.620001,1729471764011.0,0.0
-3.328416,-2.957529,-1.940579,-16.870001,115.220001,3.64,1729471764033.0,0.0
-0.42353,-10.04507,10.159925,-82.739998,91.840004,9.8,1729471764050.0,0.0
2.323431,-9.710074,12.473784,-14.91,36.330002,36.68,1729471764070.0,0.0
2.39043,-6.98465,8.549555,17.85,-33.740002,55.369999,1729471764090.0,0.0
-1.588834,-6.18784,2.76371,-113.400002,-79.730003,60.41,1729471764110.0,0.0
-4.84068,-9.01137,-4.034299,-239.330002,-132.020004,42.349998,1729471764131.0,0.0
-7.738388,-8.271988,-16.302301,-262.429993,-134.050003,5.04,1729471764150.0,0.0
-16.07259,-12.574283,-20.51606,-124.25,-48.860001,10.57,1729471764172.0,0.0
-13.770694,-10.171888,-17.989241,22.75,36.470001,-58.73,1729471764192.0,0.0
-2.926422,-3.127419,-13.253844,93.169998,35.630001,-73.150002,1729471764212.0,0.0
-1.253839,-3.495914,-10.456635,62.510002,119.629997,-48.93,1729471764233.0,0.0
-2.914458,-8.389235,-5.848059,81.690002,164.430008,-14.56,1729471764250.0,0.0
-1.74676,-5.223531,8.657232,116.970001,152.320007,1.82,1729471764272.0,0.0
0.79681,-5.910272,14.316258,103.529999,78.889999,1.4,1729471764290.0,0.0
1.146162,-2.773281,13.34238,43.540001,-7.56,14.7,1729471764322.0,0.0
-4.414758,-6.072984,7.006185,-68.529999,-81.900002,35.279999,1729471764333.0,0.0
-6.618547,-8.52802,-5.228317,-203.210007,-160.720001,9.94,1729471764350.0,0.0
-8.283953,-10.437491,-17.819349,-275.100006,-161.279999,-25.690001,1729471764372.0,0.0
-12.720245,-11.277373,-21.67658,-154.279999,-62.580002,-20.58,1729471764392.0,0.0
-16.893328,-9.138189,-24.674786,101.779999,57.260002,-14.63,1729471764411.0,0.0
-8.949157,-5.240282,-11.904292,198.029999,67.760002,-13.16,1729471764434.0,0.0
-1.694118,-2.620141,-10.638489,63.77,93.309998,-58.59,1729471764452.0,0.0
-0.674776,-4.211368,-2.907279,26.460001,142.589996,-10.71,1729471764472.0,0.0
0.827917,-6.374479,5.694918,183.960007,124.809998,30.030001,1729471764493.0,0.0
3.038885,-3.208775,10.975878,321.579987,64.470001,58.240002,1729471764512.0,0.0
0.744168,-2.005185,10.234102,361.829987,10.64,89.389999,1729471764535.0,0.0
-5.032106,-3.225525,8.078169,284.549988,-28.700001,111.790001,1729471764552.0,0.0
-6.436693,-7.307681,4.065405,214.199997,-81.620003,130.899994,1729471764572.0,0.0
-8.082954,-10.576276,1.318445,93.029999,-96.529999,106.050003,1729471764592.0,0.0
-8.815158,-11.77508,-6.02752,-14.98,-78.400002,90.650002,1729471764612.0,0.0
-7.04447,-15.017354,-8.446664,4.48,-67.550003,96.32,1729471764633.0,0.0
-5.862415,-18.288343,-9.743573,93.940002,-27.65,65.590004,1729471764651.0,0.0
-7.362715,-14.687144,-6.802795,147.559998,39.689999,26.809999,1729471764676.0,0.0
-8.370094,-9.075976,-3.034099,98.840004,63.490002,-9.38,1729471764693.0,0.0
-6.886543,-7.458428,2.452643,-20.23,37.380001,-40.32,1729471764713.0,0.0
-4.079762,-4.974678,-0.155533,-196.699997,0.28,-76.790001,1729471764733.0,0.0
-3.416951,-5.869594,0.16989,-273.48999,-7.56,-67.410004,1729471764752.0,0.0
-4.24726,-6.927221,-1.055235,-303.589996,-12.04,-66.360001,1729471764773.0,0.0
-4.910072,-7.334002,-1.28016,-320.390015,-23.52,-76.230003,1729471764794.0,0.0
-5.946165,-2.419144,-1.198804,-485.869995,-46.830002,-94.709999,1729471764812.0,0.0
-7.293324,-5.233103,-4.316652,-574.840027,-63.279999,-108.919998,1729471764836.0,0.0
-5.759524,-4.847858,-8.882158,-591.220032,-62.369999,-132.089996,1729471764851.0,0.0
-3.859623,-4.625326,-10.889735,-454.230011,-52.5,-98.980003,1729471764873.0,0.0
-2.342573,-4.115655,-10.911271,-301.630005,-21.210001,-71.68,1729471764895.0,0.0
-2.041078,-6.829116,-9.647861,-151.130005,-3.71,-26.6,1729471764913.0,0.0
-1.172483,-12.208181,-11.933006,23.799999,-2.31,1.47,1729471764933.0,0.0
0.040678,-10.578669,-12.88535,214.410004,19.040001,6.72,1729471764951.0,0.0
-1.844866,-7.015756,-9.018548,385.700012,56.630001,35.630001,1729471764973.0,0.0
-3.079563,-5.383851,-8.611769,530.73999,47.459999,60.27,1729471764994.0,0.0
-2.806781,-2.416751,-5.886343,674.380005,30.66,80.360001,1729471765011.0,0.0
-3.893122,-4.108476,-3.909872,764.679993,22.049999,126.699997,1729471765033.0,0.0
-3.907479,-3.010171,-1.308874,722.330017,24.15,90.860001,1729471765051.0,0.0
-8.262416,-2.699104,4.788038,585.76001,71.190002,101.150002,1729471765073.0,0.0
-11.894722,-3.768696,2.782853,372.190002,70.209999,96.739998,1729471765092.0,0.0
-7.479963,-5.101498,2.414358,181.509995,-14.63,76.510002,1729471765112.0,0.0
-4.776074,-10.657632,1.418944,128.380005,-39.41,64.610001,1729471765133.0,0.0
-9.492328,-11.825329,0.646062,248.080002,32.060001,79.730003,1729471765152.0,0.0
-8.427521,-10.126426,1.275374,246.75,38.290001,28.49,1729471765171.0,0.0
-7.999206,-10.315458,2.395216,172.759995,33.880001,6.65,1729471765192.0,0.0
-8.815158,-9.576077,3.917051,83.860001,30.66,-13.65,1729471765213.0,0.0
-8.350951,-9.200402,4.048656,-47.599998,11.41,-33.389999,1729471765234.0,0.0
-6.888937,-7.958528,3.517449,-182.139999,-11.27,-73.5,1729471765252.0,0.0
-6.125626,-6.874579,3.84048,-265.440002,-12.95,-89.25,1729471765273.0,0.0
-5.386244,-5.194818,3.639483,-336.980011,-22.960001,-104.090004,1729471765292.0,0.0
-4.359723,-5.922236,2.019542,-397.880005,-45.709999,-106.82,1729471765313.0,0.0
-3.962514,-6.728617,1.40698,-462.350006,-48.439999,-108.779999,1729471765333.0,0.0
-3.869194,-7.350751,-2.136791,-490.48999,-53.060001,-117.599998,1729471765352.0,0.0
-3.938586,-5.398208,-1.787439,-549.429993,-47.25,-128.169998,1729471765371.0,0.0
-4.165904,-3.239882,-4.776074,-649.599976,-42.98,-129.220001,1729471765393.0,0.0
-3.826123,-7.613962,-8.01117,-662.059998,-61.459999,-142.729996,1729471765411.0,0.0
-3.996014,-7.601997,-10.217353,-515.409973,-27.51,-119.559998,1729471765433.0,0.0
-4.366901,-6.65444,-9.779467,-280.559998,-1.54,-79.519997,1729471765451.0,0.0
-2.952743,-5.716454,-10.899307,-95.199997,6.3,-49.279999,1729471765471.0,0.0
-2.67039,-6.965507,-9.966106,43.889999,34.720001,-10.71,1729471765492.0,0.0
-2.931208,-6.046663,-7.15454,132.649994,51.59,10.78,1729471765513.0,0.0
-2.778067,-5.252246,-4.744967,248.220001,42.700001,36.68,1729471765532.0,0.0
-2.146362,-6.67119,-4.35733,364.839996,24.710001,53.830002,1729471765551.0,0.0
-1.122234,-6.809973,-4.697111,484.119995,12.81,69.090004,1729471765571.0,0.0
-0.746561,-5.398208,-4.61097,595.0,16.940001,96.529999,1729471765593.0,0.0
-0.059821,-6.757331,-2.912065,601.159973,38.220001,104.580002,1729471765611.0,0.0
-0.189033,-7.286145,-1.014557,517.789978,61.529999,94.360001,1729471765633.0,0.0
-1.469193,-6.888937,1.684547,466.899994,74.410004,103.040001,1729471765651.0,0.0
-2.837888,-5.852845,4.072584,412.440002,75.739998,96.599998,1729471765671.0,0.0
-6.07777,-5.237889,8.717053,330.470001,81.199997,93.449997,1729471765692.0,0.0
-9.724431,-4.847858,10.411172,131.389999,51.59,69.720001,1729471765711.0,0.0
-8.355737,-9.693325,5.996413,-46.060001,-7.21,49.84,1729471765733.0,0.0
-5.326423,-13.509877,0.177069,-73.220001,-29.190001,15.05,1729471765752.0,0.0
-6.647261,-13.909478,-1.569692,-38.849998,-1.75,6.09,1729471765771.0,0.0
-7.267002,-11.519048,-0.284746,-44.59,24.99,-26.040001,1729471765792.0,0.0
-5.922236,-10.191031,1.021735,-116.830002,26.25,-45.080002,1729471765815.0,0.0
-4.785645,-8.458629,0.868595,-275.940002,7.07,-80.150002,1729471765832.0,0.0
-4.21376,-8.470592,0.260818,-329.980011,-4.9,-82.949997,1729471765851.0,0.0
-4.04387,-8.080563,2.026721,-365.540009,-22.049999,-90.93,1729471765871.0,0.0
-4.37408,-7.659425,0.205783,-387.940002,-35.84,-90.580002,1729471765894.0,0.0
-3.63709,-4.625326,-0.150748,-429.940002,-43.119999,-99.400002,1729471765911.0,0.0
-3.586841,-4.599005,-1.050449,-468.299988,-52.5,-100.099998,1729471765932.0,0.0
-3.199204,-5.850451,-3.555735,-465.98999,-54.599998,-98.419998,1729471765951.0,0.0
-3.038885,-4.835894,-3.656233,-325.01001,-48.720001,-52.990002,1729471765971.0,0.0
-2.464607,-5.855237,-3.699304,-210.979996,-67.620003,-30.030001,1729471765998.0,0.0
-1.418944,-6.848258,-7.243074,-171.779999,-70.980003,-29.33,1729471766013.0,0.0
-0.071785,-7.099504,-12.449856,-79.660004,-60.970001,3.92,1729471766035.0,0.0
-1.22034,-12.940384,-10.908878,88.760002,-53.900002,58.59,1729471766052.0,0.0
-3.605984,-10.509278,-8.68116,218.75,-15.54,59.849998,1729471766073.0,0.0
-6.295516,-4.771288,-5.225924,352.170013,2.03,64.75,1729471766092.0,0.0
-11.784652,-4.876573,-3.895515,448.559998,-185.149994,128.520004,1729471766112.0,0.0
-4.316652,-9.300901,-6.285945,219.309998,-35.279999,11.48,1729471766133.0,0.0
-8.84148,-8.798409,-7.850852,151.339996,124.389999,9.38,1729471766155.0,0.0
-13.277774,-9.597611,-9.58804,158.130005,186.339996,12.46,1729471766172.0,0.0
-17.170895,-8.571091,-10.923235,143.990005,130.059998,-15.190001,1729471766193.0,0.0
-10.490135,-6.539584,-6.398407,71.400002,38.220001,-56.84,1729471766213.0,0.0
-5.036892,-5.76431,-5.106283,27.440001,75.599998,-75.110001,1729471766236.0,0.0
-3.270989,-3.134598,-3.744767,-60.130001,116.900002,-66.5,1729471766253.0,0.0
-2.079363,-7.597212,-4.934,-158.199997,131.600006,-44.029999,1729471766274.0,0.0
1.732404,-13.160524,3.68734,-151.479996,119.0,-32.41,1729471766294.0,0.0
3.955336,-13.41895,12.346965,5.46,82.809998,-7.07,1729471766313.0,0.0
2.129612,-4.941179,12.59821,93.309998,41.580002,5.18,1729471766335.0,0.0
-0.679562,-5.407779,9.408579,14.7,-28.630001,12.53,1729471766353.0,0.0
-1.87358,-7.946564,3.905087,-146.860001,-88.760002,11.06,1729471766374.0,0.0
-2.770889,-9.128618,-5.546563,-243.25,-136.5,-8.61,1729471766393.0,0.0
-4.438686,-9.329616,-15.196816,-249.759995,-133.070007,-23.17,1729471766414.0,0.0
-11.720046,-8.82473,-17.328821,-158.970001,-77.699997,-11.27,1729471766434.0,0.0
-14.778071,-6.06102,-22.473389,48.580002,49.91,-24.5,1729471766454.0,0.0
-9.186047,-4.922036,-14.151153,166.529999,56.560001,-7.07,1729471766474.0,0.0
-2.981457,-2.646462,-8.726624,81.129997,83.650002,-38.360001,1729471766495.0,0.0
-3.163311,-3.852444,-9.712467,-9.38,135.729996,-19.530001,1729471766513.0,0.0
-3.029313,-5.276174,-4.527221,19.040001,161.0,7.84,1729471766540.0,0.0
-2.210968,-7.322037,8.169096,105.559998,144.339996,39.34,1729471766553.0,0.0
-1.112662,-6.805188,14.282759,154.910004,92.540001,39.060001,1729471766575.0,0.0
-1.265803,-6.228518,12.756138,134.539993,14.49,49.420002,1729471766595.0,0.0
-4.541577,-6.989435,10.626525,28.84,-53.130001,45.43,1729471766614.0,0.0
-4.185047,-8.130811,1.634298,-110.25,-136.990005,23.030001,1729471766636.0,0.0
-3.663411,-12.782458,-13.730016,-238.070007,-190.960007,-23.030001,1729471766654.0,0.0
-3.364309,-11.767902,-21.312872,-263.549988,-147.770004,-52.220001,1729471766675.0,0.0
-10.602598,-13.119846,-18.159132,-66.5,-31.780001,-33.880001,1729471766694.0,0.0
-11.538191,-8.571091,-17.730816,147.350006,75.879997,-25.620001,1729471766719.0,0.0
-1.385444,-3.031706,-12.100503,158.970001,43.75,-43.470001,1729471766735.0,0.0
0.808774,-3.09392,-9.652647,26.74,124.459999,-37.310001,1729471766753.0,0.0
-1.756332,-4.835894,-3.304488,43.959999,173.320007,-3.64,1729471766773.0,0.0
-4.216154,-4.579862,10.748559,138.949997,146.229996,36.259998,1729471766868.0,0.0
-2.59382,-5.594419,15.541383,181.229996,60.970001,33.740002,1729471766868.0,0.0
-1.76351,-3.988836,12.01197,183.75,-16.379999,38.639999,1729471766868.0,0.0
-5.328816,-5.240282,9.573684,131.600006,-65.029999,61.810001,1729471766869.0,0.0
-5.639884,-11.251052,3.125026,30.940001,-134.399994,49.279999,1729471766875.0,0.0
-6.742974,-15.950556,-8.114061,-48.580002,-143.360001,24.710001,1729471766897.0,0.0
-5.749953,-11.356337,-12.696317,-73.919998,-89.18,15.190001,1729471766913.0,0.0
-4.797609,-7.65464,-12.095718,-8.4,-36.330002,41.369999,1729471766945.0,0.0
-6.479764,-9.509077,-10.413565,59.920002,31.219999,42.490002,1729471766954.0,0.0
-6.022735,-10.176675,-5.690133,140.699997,37.310001,42.84,1729471766973.0,0.0
-4.007978,-7.690532,-2.579463,158.410004,17.92,32.759998,1729471766994.0,0.0
-4.12044,-6.24766,-3.572484,49.0,19.74,11.9,1729471767014.0,0.0
-5.316852,-8.805587,-5.04407,-74.059998,9.03,0.84,1729471767035.0,0.0
-6.07777,-8.224132,-3.629912,-95.690002,13.37,-10.64,1729471767053.0,0.0
-5.213961,-7.750352,-2.679961,-38.779999,11.83,-17.99,1729471767074.0,0.0
-4.04387,-7.307681,-1.584049,-9.59,15.96,-14.42,1729471767094.0,0.0
-3.282953,-6.855437,-1.033699,-12.32,27.16,-9.94,1729471767114.0,0.0
-3.347559,-8.413164,1.359123,-68.529999,45.779999,-5.04,1729471767135.0,0.0
-0.981057,-9.080762,1.622334,-65.239998,30.59,7.21,1729471767154.0,0.0
-0.014357,-9.186047,3.641876,25.34,31.92,41.369999,1729471767173.0,0.0
-2.177469,-13.107882,3.163311,45.990002,12.81,37.380001,1729471767194.0,0.0
-4.457829,-11.856436,2.225325,64.120003,3.22,37.52,1729471767213.0,0.0
-3.883551,-9.626326,1.993221,75.110001,-33.740002,30.66,1729471767235.0,0.0
-3.735196,-7.216753,-1.052842,24.710001,-56.700001,17.780001,1729471767253.0,0.0
-7.06122,-7.982457,-4.07737,-81.129997,-59.639999,5.88,1729471767273.0,0.0
-8.865408,-8.784052,-8.673983,-164.919998,-64.050003,-23.940001,1729471767294.0,0.0
-8.039884,-10.593026,-12.370893,-124.389999,-73.5,-32.41,1729471767314.0,0.0
-6.809973,-10.322637,-13.947763,-22.82,-34.02,-55.790001,1729471767335.0,0.0
-7.724032,-7.334002,-9.827322,44.240002,40.389999,-57.470001,1729471767353.0,0.0
-7.580462,-5.568098,-0.885344,17.85,47.529999,-61.880001,1729471767374.0,0.0
-4.914857,-7.080362,-4.785645,-70.279999,39.41,-59.43,1729471767395.0,0.0
-2.459821,-9.190832,-7.963314,-27.58,57.540001,-34.790001,1729471767414.0,0.0
-0.155533,-8.82473,-2.136791,90.790001,85.050003,-2.87,1729471767435.0,0.0
-0.059821,-5.142176,4.039084,152.039993,101.919998,14.84,1729471767454.0,0.0
-1.294517,-5.946165,7.101898,119.559998,77.629997,25.34,1729471767474.0,0.0
-1.72044,-6.601797,6.89133,108.43,14.91,36.049999,1729471767495.0,0.0
-6.118448,-6.245267,8.970692,65.309998,-17.780001,35.349998,1729471767513.0,0.0
-7.482357,-6.704689,7.477571,-22.190001,-78.190002,33.18,1729471767536.0,0.0
-5.278566,-8.094919,-0.131605,-132.509995,-139.160004,10.15,1729471767553.0,0.0
-6.460621,-6.628119,-9.444471,-315.839996,-153.229996,-20.93,1729471767574.0,0.0
-5.355137,-8.157133,-15.584454,-384.860016,-127.260002,-33.950001,1729471767595.0,0.0
-7.171289,-12.55514,-14.670395,-234.290009,-57.400002,-17.639999,1729471767613.0,0.0
-11.337193,-13.014563,-13.713267,55.650002,42.700001,1.89,1729471767636.0,0.0
-9.262616,-6.850651,-10.296316,167.160004,54.040001,5.81,1729471767653.0,0.0
-4.936393,-3.574877,-9.552148,86.379997,62.720001,-17.57,1729471767675.0,0.0
-2.87378,-6.345766,-8.41795,-6.44,95.340004,-28.77,1729471767693.0,0.0
-1.124627,-8.980263,-4.929214,39.200001,120.470001,-6.86,1729471767713.0,0.0
-2.196611,-5.316852,9.29133,118.720001,132.300003,15.61,1729471767736.0,0.0
-2.490928,-6.463014,13.004992,69.580002,50.610001,10.5,1729471767754.0,0.0
-3.60359,-8.68116,11.186446,40.880001,-23.450001,14.7,1729471767773.0,0.0
-5.350351,-8.717053,8.595018,-13.09,-83.440002,10.43,1729471767794.0,0.0
-3.17049,-10.468598,-0.33021,-108.220001,-155.190002,-16.030001,1729471767813.0,0.0
-3.416951,-12.227324,-10.305886,-186.690002,-165.339996,-35.139999,1729471767834.0,0.0
-5.340781,-10.281959,-18.541983,-188.860001,-104.580002,-49.700001,1729471767854.0,0.0
-9.700503,-10.04507,-16.747364,-20.440001,-9.94,-14.0,1729471767873.0,0.0
-9.954143,-8.480164,-13.440485,157.080002,61.18,-4.2,1729471767898.0,0.0
-4.338188,-5.326423,-9.576077,171.289993,37.099998,0.35,1729471767914.0,0.0
-1.239482,-3.677768,-9.793823,33.25,69.93,-29.75,1729471767936.0,0.0
-2.227718,-5.350351,-9.025726,-66.709999,114.239998,-20.860001,1729471767955.0,0.0
-2.347359,-8.145168,-1.275374,-19.460001,124.669998,6.58,1729471767975.0,0.0
-1.864009,-8.279166,4.278367,54.950001,111.720001,10.15,1729471767995.0,0.0
-2.481357,-8.437093,11.619547,70.769997,70.279999,13.16,1729471768014.0,0.0
-5.462814,-8.788837,13.490734,61.459999,1.05,15.68,1729471768043.0,0.0
-6.271588,-7.88435,7.740781,-43.470001,-74.830002,-2.31,1729471768054.0,0.0
-2.744568,-6.786045,-4.177868,-127.330002,-187.389999,-13.09,1729471768073.0,0.0
-2.67039,-9.829715,-15.627523,-196.490005,-174.369995,-11.2,1729471768094.0,0.0
-5.539384,-12.086146,-15.795023,-150.570007,-87.989998,3.15,1729471768113.0,0.0
-12.244074,-12.985848,-17.66621,31.99,18.549999,31.85,1729471768136.0,0.0
-11.320443,-9.523434,-13.969299,158.339996,69.230003,14.14,1729471768154.0,0.0
-3.261417,-5.675776,-10.124033,135.589996,17.780001,-11.69,1729471768173.0,0.0
-0.332602,-6.259624,-10.863414,40.599998,75.669998,-36.889999,1729471768195.0,0.0
-1.883151,-10.260423,-7.762317,33.040001,128.240005,-27.299999,1729471768214.0,0.0
-2.096112,-5.532206,2.536392,179.199997,137.130005,-4.13,1729471768235.0,0.0
-3.017349,0.311067,9.731609,157.009995,133.350006,-7.42,1729471768256.0,0.0
-3.512664,-3.431308,13.201202,-43.119999,55.580002,-5.95,1729471768274.0,0.0
-3.811767,-9.437292,10.442278,-121.449997,-24.219999,1.96,1729471768295.0,0.0
-4.412365,-8.781659,7.652246,-98.980003,-81.620003,2.94,1729471768315.0,0.0
-2.550749,-7.24786,1.45005,-98.209999,-147.559998,1.33,1729471768336.0,0.0
-4.869394,-10.667203,-12.459428,-171.5,-176.399994,-15.33,1729471768355.0,0.0
-6.76451,-9.992428,-14.189439,-184.520004,-109.340004,-25.620001,1729471768375.0,0.0
-11.576476,-9.485149,-18.015562,-35.07,-15.05,0.49,1729471768395.0,0.0
-10.648061,-8.798409,-15.50549,125.650002,58.029999,8.61,1729471768415.0,0.0
-3.682554,-6.831509,-12.332609,183.75,34.580002,5.6,1729471768436.0,0.0
-0.87338,-2.89053,-9.982857,93.940002,92.470001,-19.25,1729471768456.0,0.0
-2.277967,-5.974878,-10.021141,19.110001,132.580002,-10.78,1729471768475.0,0.0
-1.940579,-5.405386,0.308674,48.860001,150.289993,2.1,1729471768495.0,0.0
-3.321238,-3.48395,6.4678,86.029999,144.479996,19.389999,1729471768516.0,0.0
-3.785445,-7.657032,13.320844,15.96,85.889999,10.85,1729471768539.0,0.0
-3.235096,-9.906286,11.531013,16.1,1.96,10.92,1729471768557.0,0.0
-4.316652,-7.843673,10.789237,-13.16,-74.830002,2.38,1729471768575.0,0.0
-4.644469,-9.597611,5.230711,-130.970001,-158.130005,-20.440001,1729471768596.0,0.0
-6.453443,-6.063413,-7.707282,-268.450012,-203.770004,-50.959999,1729471768616.0,0.0
-4.917251,-8.707481,-19.817356,-244.020004,-192.779999,-30.799999,1729471768638.0,0.0
-10.724631,-10.518847,-20.731415,-60.900002,-1.47,8.19,1729471768655.0,0.0
-11.497513,-9.731609,-17.285749,96.459999,73.220001,30.450001,1729471768675.0,0.0
-3.072384,-6.58744,-13.067204,130.059998,35.420002,17.01,1729471768697.0,0.0
0.222532,-3.570091,-9.516255,68.739998,95.059998,-3.71,1729471768715.0,0.0
-1.024128,-5.912664,-9.509077,16.66,138.740005,-3.08,1729471768737.0,0.0
-1.67019,-5.235496,3.366701,33.110001,155.399994,16.870001,1729471768760.0,0.0
-3.302095,-7.429714,12.535997,64.400002,116.760002,26.67,1729471768775.0,0.0
-2.634498,-8.310273,13.009777,71.68,22.960001,16.799999,1729471768796.0,0.0
-3.732803,-6.474977,11.753544,37.099998,-64.610001,5.74,1729471768816.0,0.0
-2.921637,-6.766902,1.612763,-105.07,-149.869995,-16.1,1729471768836.0,0.0
-2.888137,-11.442478,-10.995021,-232.259995,-187.740005,-46.060001,1729471768855.0,0.0
-3.988836,-11.20798,-20.987448,-236.040009,-128.380005,-60.41,1729471768875.0,0.0
-11.124231,-12.593425,-18.618553,-49.98,-6.3,-19.389999,1729471768898.0,0.0
-12.96192,-8.762517,-18.273987,156.869995,76.300003,-4.13,1729471768915.0,0.0
-3.538985,-5.484349,-12.114861,177.449997,38.150002,6.09,1729471768936.0,0.0
1.935793,-2.70389,-8.894121,60.34,83.160004,-23.379999,1729471768955.0,0.0
-1.261017,-4.811966,-8.487342,13.02,131.669998,-10.08,1729471768975.0,0.0
-3.196811,-2.734996,5.15414,90.860001,139.789993,32.900002,1729471768996.0,0.0
-3.266203,-5.331209,11.837293,73.5,91.840004,29.960001,1729471769015.0,0.0
-3.469593,-7.582855,12.502499,53.760002,19.389999,33.040001,1729471769036.0,0.0
-5.45085,-9.207582,11.107484,36.049999,-50.68,29.33,1729471769055.0,0.0
-5.091926,-8.652447,5.606383,-67.199997,-122.360001,5.67,1729471769076.0,0.0
-3.646662,-11.815758,-7.554141,-189.350006,-184.240005,-31.57,1729471769096.0,0.0
-1.323231,-9.379865,-15.239887,-247.729996,-184.660004,-57.189999,1729471769115.0,0.0
-5.316852,-9.367901,-15.457633,-135.660004,-114.239998,-30.66,1729471769137.0,0.0
-15.000606,-12.413965,-23.507088,-2.24,38.709999,-19.879999,1729471769155.0,0.0
-10.064213,-11.083554,-18.259628,116.270004,62.580002,-14.7,1729471769175.0,0.0
-0.267996,-2.364109,-11.509477,152.529999,41.720001,-10.29,1729471769196.0,0.0
1.823331,0.327817,-8.023134,83.860001,122.709999,-12.95,1729471769215.0,0.0
-2.567499,-4.632504,-5.422136,46.549999,157.149994,21.210001,1729471769236.0,0.0
-3.52702,-7.429714,7.767102,84.629997,141.119995,28.139999,1729471769255.0,0.0
-3.622734,-7.444071,12.485749,86.870003,73.150002,20.23,1729471769275.0,0.0
-1.89033,-6.687939,10.033106,75.949997,-20.09,6.37,1729471769296.0,0.0
-2.572284,-6.582655,3.749553,10.36,-83.090004,3.01,1729471769316.0,0.0
-0.739382,-9.042477,-5.166104,-152.180008,-158.970001,-21.700001,1729471769336.0,0.0
-3.15374,-11.198411,-11.004591,-118.860001,-125.790001,-12.18,1729471769354.0,0.0
-8.243275,-13.627125,-14.462219,4.76,-47.389999,17.01,1729471769375.0,0.0
-9.363115,-12.449856,-15.3691,175.770004,2.59,30.450001,1729471769395.0,0.0
-5.149354,-9.635897,-9.025726,279.860016,0.14,34.23,1729471769416.0,0.0
-0.552742,-6.008378,-5.974878,253.190002,14.7,19.460001,1729471769436.0,0.0
-1.402194,-5.819345,-2.526821,168.419998,49.209999,16.66,1729471769455.0,0.0
-5.103891,-7.372287,-2.024328,117.809998,62.299999,21.35,1729471769476.0,0.0
-5.551349,-7.13779,-1.277767,140.350006,37.73,23.1,1729471769495.0,0.0
-3.988836,-5.9342,0.715454,168.559998,23.379999,28.280001,1729471769516.0,0.0
-3.072384,-7.819745,1.756332,144.550003,12.18,28.0,1729471769536.0,0.0
-2.330609,-10.296316,2.28036,155.610001,-0.7,22.120001,1729471769555.0,0.0
-2.612962,-6.733403,4.26401,195.440002,-3.92,29.049999,1729471769574.0,0.0
-3.270989,-5.237889,5.000999,143.360001,-9.03,36.889999,1729471769595.0,0.0
-3.400201,-7.721639,4.130012,33.18,-26.6,36.049999,1729471769615.0,0.0
-4.45065,-12.79203,3.345166,-21.84,-34.93,33.529999,1729471769646.0,0.0
-5.182854,-15.390635,-0.366102,-12.11,-31.15,15.12,1729471769655.0,0.0
-5.448457,-14.031512,-1.813759,0.21,-1.05,-22.190001,1729471769674.0,0.0
-5.838487,-7.310073,0.150748,-85.050003,29.4,-40.950001,1729471769695.0,0.0
-5.943772,-5.304887,1.26341,-221.339996,31.780001,-41.509998,1729471769715.0,0.0
-3.859623,-7.255038,0.579063,-340.269989,-14.77,-71.959999,1729471769737.0,0.0
-3.354738,-10.035499,-0.784846,-403.899994,-36.330002,-75.25,1729471769755.0,0.0
-4.931608,-8.317451,-1.488336,-427.070007,-39.27,-90.93,1729471769775.0,0.0
-6.415157,-5.625526,-2.617748,-437.779999,-29.4,-100.029999,1729471769795.0,0.0
-5.692525,-5.733203,-6.041877,-469.559998,-48.16,-118.93,1729471769815.0,0.0
-3.862016,-6.903293,-7.836494,-475.019989,-41.790001,-131.460007,1729471769837.0,0.0
-3.570091,-4.996214,-8.255238,-332.5,-17.99,-90.090004,1729471769856.0,0.0
-2.787638,-3.565305,-7.405786,-215.25,-15.12,-76.580002,1729471769875.0,0.0
-2.39043,-3.388237,-5.678168,-202.369995,-3.5,-67.690002,1729471769899.0,0.0
-0.382852,-3.751946,-5.826523,-198.169998,-19.460001,-50.68,1729471769917.0,0.0
0.485743,-5.386244,-8.295916,-160.229996,-31.85,-31.15,1729471769936.0,0.0
-1.619941,-7.424929,-8.729016,-71.470001,-33.740002,-17.85,1729471769954.0,0.0
-1.581656,-7.996813,-11.298907,44.73,-42.420002,-14.28,1729471769976.0,0.0
-2.59382,-5.623133,-9.683753,154.419998,-38.220001,3.71,1729471769995.0,0.0
-4.106083,-6.338587,-9.047262,215.25,-17.290001,14.0,1729471770015.0,0.0
-3.605984,-6.793223,-8.738588,229.669998,-23.309999,19.879999,1729471770036.0,0.0
-2.969493,-7.695317,-8.673983,279.369995,-19.18,27.02,1729471770055.0,0.0
-4.220939,-8.315059,-9.906286,383.25,0.63,43.610001,1729471770081.0,0.0
-4.871787,-6.314659,-9.092726,511.559998,16.030001,70.279999,1729471770096.0,0.0
-5.039285,-5.525027,-6.288338,620.130005,26.530001,98.07,1729471770114.0,0.0
-5.836094,-3.160919,-0.193819,558.390015,67.269997,68.110001,1729471770137.0,0.0
-7.668997,-2.888137,2.230111,380.869995,83.440002,50.049999,1729471770156.0,0.0
-8.492127,-7.908278,1.363909,252.350006,45.220001,51.73,1729471770176.0,0.0
-6.941578,-11.700903,-0.160319,258.230011,-2.45,42.91,1729471770196.0,0.0
-5.201996,-9.408579,0.394816,369.040009,23.799999,28.98,1729471770215.0,0.0
-5.47717,-3.850052,1.311267,430.149994,56.91,18.129999,1729471770236.0,0.0
-4.833502,-2.806781,3.337988,330.890015,55.860001,20.58,1729471770255.0,0.0
-3.091527,-8.547162,5.860023,96.040001,40.18,-1.47,1729471770275.0,0.0
-1.59362,-13.81855,4.936393,-112.209999,21.35,-34.860001,1729471770296.0,0.0
-3.431308,-11.538191,2.718246,-249.130005,0.42,-52.150002,1729471770316.0,0.0
-5.254639,-8.221739,0.332602,-294.279999,20.23,-66.57,1729471770337.0,0.0
-5.374279,-8.73141,2.40718,-323.890015,25.34,-78.190002,1729471770354.0,0.0
-2.993421,-11.688939,2.964707,-335.230011,-18.48,-85.540001,1729471770376.0,0.0
-2.258825,-14.569898,2.589034,-360.709991,-40.599998,-107.870003,1729471770397.0,0.0
-3.68734,-10.389636,0.641276,-450.23999,-13.51,-139.509995,1729471770415.0,0.0
-4.558327,-6.216553,-2.282753,-478.100006,-1.82,-146.020004,1729471770439.0,0.0
-5.142176,-8.989835,-3.237489,-443.450012,-1.54,-131.880005,1729471770456.0,0.0
-4.498507,-6.611369,-3.074777,-434.0,11.76,-142.660004,1729471770475.0,0.0
-3.778267,-3.847659,-4.926822,-333.410004,-1.75,-96.110001,1729471770497.0,0.0
-0.600598,-3.929015,-8.157133,-203.210007,-25.34,-69.93,1729471770515.0,0.0
-0.339781,-1.971686,-7.9681,-126.629997,10.57,-31.219999,1729471770537.0,0.0
-2.715853,-5.228317,-8.848659,-40.18,40.740002,3.85,1729471770558.0,0.0
-2.074577,-9.970891,-10.447062,57.119999,28.139999,15.47,1729471770576.0,0.0
-0.299103,-8.762517,-8.571091,269.570007,27.23,25.76,1729471770597.0,0.0
-1.064806,-5.759524,-6.553941,393.890015,34.16,45.43,1729471770617.0,0.0
-1.85683,-4.208975,-3.694518,447.160004,41.650002,62.720001,1729471770639.0,0.0
-1.837688,-5.056034,-1.875973,428.470001,33.389999,71.400002,1729471770656.0,0.0
-1.672583,-6.936793,-0.492921,376.320007,33.25,70.07,1729471770677.0,0.0
-1.942972,-8.740981,-1.533799,376.179993,31.01,77.0,1729471770697.0,0.0
-1.115055,-6.216553,-0.167498,419.720001,26.809999,92.330002,1729471770727.0,0.0
-0.665205,-4.76411,1.773082,455.140015,36.889999,109.340004,1729471770738.0,0.0
-2.648855,-5.345565,5.020142,419.929993,55.580002,111.510002,1729471770756.0,0.0
-6.034698,-5.778666,8.02792,266.48999,62.650002,83.93,1729471770777.0,0.0
-6.111269,-8.35813,9.147761,99.959999,33.18,75.32,1729471770802.0,0.0
-3.969693,-10.983055,7.015756,-21.280001,5.53,50.540001,1729471770817.0,0.0
-3.388237,-12.559926,3.586841,-78.190002,-16.940001,34.509998,1729471770838.0,0.0
-3.759124,-13.478769,2.507678,-76.790001,-10.29,20.719999,1729471770857.0,0.0
-4.369294,-14.00519,3.328416,-68.040001,0.21,-5.04,1729471770877.0,0.0
-4.740182,-10.705488,4.197011,-92.260002,-0.63,-22.469999,1729471770901.0,0.0
-6.111269,-8.327023,5.721239,-126.349998,-2.94,-24.57,1729471770918.0,0.0
-5.67099,-11.753544,6.817152,-103.110001,-55.790001,-30.450001,1729471770938.0,0.0
-4.405186,-9.810574,6.594619,-10.43,-57.189999,-28.35,1729471770957.0,0.0
-3.022135,-2.622534,7.106683,22.26,-60.200001,-21.42,1729471770977.0,0.0
-3.749553,1.337588,3.63709,-103.389999,-46.060001,-19.18,1729471770997.0,0.0
-4.563113,-0.770489,-2.835495,-290.779999,-35.84,-19.25,1729471771016.0,0.0
-3.160919,-3.704089,-2.62732,-407.399994,-16.52,-16.73,1729471771038.0,0.0
-2.615355,-6.12084,-4.488935,-436.380005,-10.15,0.91,1729471771056.0,0.0
-3.684947,-7.771888,-7.664211,-380.450012,2.59,21.49,1729471771076.0,0.0
-3.845266,-6.305088,-12.043077,-296.170013,0.35,24.43,1729471771097.0,0.0
-3.907479,-4.979464,-12.181859,-281.329987,-1.89,29.610001,1729471771116.0,0.0
-4.788038,-8.482556,-8.623734,-332.220001,0.07,6.23,1729471771138.0,0.0
-3.730411,-8.212167,-8.293523,-349.440002,-3.99,-32.970001,1729471771157.0,0.0
-3.213561,-7.23111,-11.260624,-298.899994,-9.94,-38.920002,1729471771176.0,0.0
-3.18724,-5.352744,-8.882158,-257.390015,-4.62,-39.900002,1729471771197.0,0.0
-2.495714,-6.71426,-10.899307,-236.460007,2.24,-58.869999,1729471771218.0,0.0
-1.710868,-4.651647,-10.277173,-164.149994,13.440001,-33.18,1729471771237.0,0.0
-1.299303,-2.289931,-9.504292,-165.899994,21.77,-24.01,1729471771256.0,0.0
-2.194218,-5.855237,-10.116854,-198.100006,26.950001,-18.059999,1729471771276.0,0.0
-3.787838,-8.506484,-7.580462,-156.520004,27.299999,-17.85,1729471771296.0,0.0
-4.098906,-9.219545,-7.506285,-105.0,17.85,-13.16,1729471771316.0,0.0
-2.809174,-8.611769,-9.389436,-45.5,10.57,-31.780001,1729471771338.0,0.0
-2.462214,-5.036892,-9.973285,3.5,12.46,-29.33,1729471771355.0,0.0
-2.818745,-4.237689,-10.413565,17.15,21.98,-16.940001,1729471771378.0,0.0
-2.976671,-3.957729,-8.367701,19.67,31.639999,-3.64,1729471771397.0,0.0
-3.218346,-4.316652,-8.178668,49.98,32.060001,12.74,1729471771416.0,0.0
-3.402594,-5.826523,-10.205389,90.580002,32.060001,19.460001,1729471771444.0,0.0
-2.459821,-4.479364,-10.712667,119.559998,33.32,23.030001,1729471771456.0,0.0
-1.95015,-3.696911,-9.016156,112.980003,36.049999,28.0,1729471771476.0,0.0
-1.399801,-3.976871,-8.958728,56.77,36.470001,22.82,1729471771497.0,0.0
-1.514657,-5.096712,-6.872187,13.51,44.66,26.950001,1729471771516.0,0.0
-2.268396,-6.982256,-6.740582,52.290001,50.889999,49.0,1729471771537.0,0.0
-1.751546,-6.879365,-6.431907,177.169998,41.580002,79.660004,1729471771556.0,0.0
-2.380858,-5.242674,-5.158926,314.720001,41.369999,98.769997,1729471771576.0,0.0
-3.134598,-9.954143,-3.014957,315.630005,45.779999,85.68,1729471771597.0,0.0
-1.495514,-9.004191,-2.440679,165.619995,10.57,21.77,1729471771616.0,0.0
-0.215354,-7.288538,-3.397808,75.739998,-18.690001,-5.6,1729471771638.0,0.0
0.492921,-5.347959,-5.510671,13.86,-41.23,-21.0,1729471771656.0,0.0
0.492921,-2.409572,-6.180661,-37.869999,-52.009998,-26.460001,1729471771676.0,0.0
-1.591227,-2.033899,-8.630912,-84.349998,-48.369999,-15.33,1729471771697.0,0.0
-3.852444,-7.515855,-11.303694,-102.970001,-41.23,-14.98,1729471771717.0,0.0
-6.932007,-11.064411,-8.903693,-20.860001,-16.030001,-21.42,1729471771739.0,0.0
-9.626326,-7.666604,-9.480364,84.699997,-11.41,-29.26,1729471771757.0,0.0
-7.855636,-4.622933,-11.172089,80.57,-32.27,-33.740002,1729471771776.0,0.0
-4.005585,-5.871986,-10.19821,9.66,-10.29,-33.459999,1729471771864.0,0.0
-1.615155,-7.01097,-9.966106,17.01,22.469999,-16.73,1729471771865.0,0.0
-1.198804,-6.364908,-9.391829,98.489998,52.220001,14.77,1729471771865.0,0.0
-0.612563,-4.297509,-6.82433,152.320007,69.019997,32.619999,1729471771866.0,0.0
-0.844666,-4.768896,-5.367101,118.370003,73.849998,45.290001,1729471771881.0,0.0
-0.638884,-9.186047,-1.806581,130.479996,70.559998,49.07,1729471771911.0,0.0
-0.413958,-9.475577,1.050449,225.889999,49.98,57.119999,1729471771916.0,0.0
-0.655633,-8.853443,1.787439,360.290009,28.0,47.810001,1729471771937.0,0.0
-1.227518,-6.723832,2.404787,431.339996,-3.64,63.700001,1729471771956.0,0.0
-1.509871,-5.946165,4.34058,455.48999,-20.58,78.190002,1729471771976.0,0.0
-3.046063,-6.774081,4.955536,364.350006,-21.629999,75.809998,1729471771997.0,0.0
-4.943572,-7.74796,4.187439,187.949997,-14.0,57.260002,1729471772016.0,0.0
-5.919843,-10.942378,3.268596,50.119999,-18.83,64.050003,1729471772039.0,0.0
-4.125226,-13.686946,1.758725,-3.99,-28.35,47.670002,1729471772057.0,0.0
-3.158526,-14.785251,0.61017,-3.71,-20.93,26.25,1729471772077.0,0.0
-3.436093,-13.117454,0.153141,0.42,-8.61,0.14,1729471772097.0,0.0
-4.065405,-11.468799,-0.564706,-17.219999,4.06,-19.32,1729471772117.0,0.0
-4.864608,-9.68136,-1.505085,-93.379997,16.52,-40.110001,1729471772136.0,0.0
-5.759524,-9.123833,-0.059821,-204.610001,23.66,-55.580002,1729471772156.0,0.0
-4.393222,-9.975677,-0.122034,-275.799988,-8.68,-66.989998,1729471772176.0,0.0
-1.808974,-10.162319,-0.155533,-294.279999,-38.290001,-84.980003,1729471772196.0,0.0
-1.895115,-9.303294,-1.031307,-345.100006,-30.52,-97.019997,1729471772215.0,0.0
-3.146562,-6.503692,-2.438286,-376.73999,-10.08,-98.279999,1729471772238.0,0.0
-4.103691,-4.216154,-0.356531,-404.880005,-9.1,-86.800003,1729471772256.0,0.0
-4.888536,-4.465007,-3.723232,-596.75,-38.709999,-100.519997,1729471772276.0,0.0
-3.218346,-5.216353,-8.901299,-581.700012,-46.619999,-94.639999,1729471772297.0,0.0
-2.447858,-6.805188,-10.593026,-395.570007,-32.689999,-33.18,1729471772316.0,0.0
-0.55992,-6.915257,-13.294522,-207.619995,-24.780001,-17.780001,1729471772337.0,0.0
-0.70349,-5.185246,-13.509877,-91.769997,8.26,3.5,1729471772355.0,0.0
-2.055435,-4.273581,-10.987842,-41.93,33.810001,19.32,1729471772379.0,0.0
-2.344966,-6.046663,-11.23191,16.1,39.689999,20.370001,1729471772397.0,0.0
-1.332802,-5.907879,-11.753544,127.260002,34.09,19.32,1729471772417.0,0.0
-0.959522,-5.793024,-10.614561,266.350006,38.290001,25.200001,1729471772437.0,0.0
-1.488336,-7.393822,-9.676575,399.0,43.68,19.879999,1729471772463.0,0.0
-1.067199,-8.551948,-10.076177,596.26001,37.310001,27.860001,1729471772476.0,0.0
0.37328,-5.374279,-11.387443,889.140015,24.710001,70.699997,1729471772496.0,0.0
1.591227,1.325624,-5.06082,993.090027,69.580002,78.889999,1729471772530.0,0.0
0.600598,2.495714,2.019542,819.48999,101.849998,72.169998,1729471772537.0,0.0
-3.06042,-0.535992,6.608976,562.940002,92.330002,81.059998,1729471772838.0,0.0
-4.106083,-0.191426,11.107484,346.850006,80.080002,58.59,1729471772838.0,0.0
-8.571091,-3.56052,10.724631,77.07,41.02,52.290001,1729471772838.0,0.0
-3.550949,-10.255639,4.400401,-202.369995,-49.560001,32.689999,1729471772838.0,0.0
0.031107,-10.372886,1.919044,-163.729996,-35.98,21.91,1729471772839.0,0.0
-1.385444,-9.944571,2.136791,-116.830002,-26.6,37.450001,1729471772839.0,0.0
-3.510271,-9.860823,0.136391,-129.779999,-7.7,27.370001,1729471772839.0,0.0
-4.21376,-11.710474,-0.725025,-207.690002,-7.21,8.26,1729471772839.0,0.0
-2.871387,-12.370893,-2.435893,-266.630005,-18.690001,-12.18,1729471772839.0,0.0
-1.435694,-12.002398,-1.562513,-241.919998,-18.27,-21.280001,1729471772840.0,0.0
-2.012364,-11.251052,0.693919,-222.389999,-15.05,-35.560001,1729471772840.0,0.0
-2.935993,-10.609775,1.825724,-221.130005,-22.120001,-45.5,1729471772840.0,0.0
-2.801995,-8.863015,1.318445,-242.199997,-36.400002,-54.32,1729471772840.0,0.0
-2.270789,-5.656632,0.145962,-312.76001,-61.040001,-66.290001,1729471772840.0,0.0
-2.256432,-4.61097,-1.409373,-403.899994,-67.620003,-70.0,1729471772841.0,0.0
-2.572284,-5.831308,-3.732803,-486.01001,-60.27,-78.050003,1729471772855.0,0.0
-3.335595,-8.360522,-5.225924,-505.679993,-39.200001,-82.110001,1729471772874.0,0.0
-3.553342,-8.810372,-6.017949,-436.100006,-35.139999,-75.599998,1729471772907.0,0.0
-1.816152,-5.278566,-6.290731,-227.710007,-59.080002,-40.529999,1729471772915.0,0.0
-1.081556,-5.594419,-7.65464,-53.34,-71.330002,-7.28,1729471772937.0,0.0
-1.65344,-8.398808,-13.052847,-0.42,-51.450001,0.91,1729471772955.0,0.0
-1.447658,-10.260423,-13.598411,121.800003,-29.68,17.43,1729471772975.0,0.0
-2.155933,-8.925228,-9.01137,293.160004,-6.58,58.029999,1729471772996.0,0.0
-3.708875,-9.523434,-7.008578,461.019989,-5.81,57.82,1729471773015.0,0.0
-4.735396,-6.522834,-5.402994,512.26001,-2.59,35.77,1729471773039.0,0.0
-5.9677,-4.31426,-3.739982,458.709991,8.19,46.200001,1729471773056.0,0.0
-6.453443,-5.333601,-2.199004,342.720001,-2.87,46.34,1729471773077.0,0.0
-6.570691,-9.008978,-2.567499,219.100006,-16.030001,43.68,1729471773098.0,0.0
-7.039684,-11.01177,-4.945964,139.860001,-4.83,25.620001,1729471773117.0,0.0
-8.10449,-11.447264,-6.951149,78.540001,28.77,15.47,1729471773140.0,0.0
-7.250252,-10.463813,-5.120641,21.700001,53.48,-15.54,1729471773158.0,0.0
-5.996413,-8.788837,-2.175076,-6.09,80.43,-37.310001,1729471773178.0,0.0
-3.443272,-5.446064,-2.352145,-45.5,90.370003,-39.130001,1729471773301.0,0.0
-2.282753,-5.551349,-2.230111,-207.759995,108.849998,-35.700001,1729471773301.0,0.0
0.732204,-11.332408,3.110669,-206.710007,83.300003,-18.969999,1729471773302.0,0.0
2.376073,-13.311273,8.702696,-90.090004,56.560001,-8.4,1729471773302.0,0.0
0.51685,-6.132804,8.30788,5.04,28.0,9.87,1729471773302.0,0.0
-1.691726,-5.910272,5.584848,-31.780001,-15.68,10.85,1729471773302.0,0.0
-2.610569,-7.829315,1.552942,-154.839996,-66.5,8.19,1729471773317.0,0.0
-2.74696,-8.367701,-7.226324,-229.740005,-100.940002,3.71,1729471773340.0,0.0
-2.914458,-9.937392,-12.789637,-198.589996,-86.730003,10.36,1729471773356.0,0.0
-5.726025,-9.75793,-11.090734,-84.769997,-32.619999,10.43,1729471773395.0,0.0
-9.377472,-9.980463,-14.153545,46.619999,26.67,23.24,1729471773399.0,0.0
-7.80778,-8.468199,-10.956735,66.849998,44.66,8.82,1729471773417.0,0.0
-2.648855,-7.984849,-9.245867,31.360001,29.26,-6.93,1729471773446.0,0.0
-2.084148,-8.944371,-8.915657,33.389999,68.389999,-5.74,1729471773460.0,0.0
-2.096112,-8.903693,-7.874779,91.349998,95.129997,2.24,1729471773476.0,0.0
-0.081356,-7.980063,-2.830709,173.880005,98.419998,13.02,1729471773498.0,0.0
0.09332,-4.297509,4.74736,194.320007,110.040001,18.059999,1729471773517.0,0.0
-1.404587,-5.958128,11.069198,120.120003,71.190002,21.559999,1729471773538.0,0.0
-3.464807,-8.305488,8.214561,15.05,-16.379999,24.360001,1729471773556.0,0.0
-4.108476,-8.499306,5.685347,-50.119999,-66.989998,17.290001,1729471773576.0,0.0
-1.938186,-10.202995,-1.409373,-121.379997,-126.770004,0.63,1729471773596.0,0.0
-1.229911,-12.284752,-8.941978,-181.509995,-140.910004,-27.51,1729471773617.0,0.0
-3.132205,-10.973484,-10.798808,-162.119995,-107.449997,-26.950001,1729471773640.0,0.0
-7.015756,-10.037891,-10.351351,-52.849998,-53.060001,-12.95,1729471773656.0,0.0
-11.093125,-10.143176,-12.480963,77.419998,3.36,-3.22,1729471773677.0,0.0
-9.190832,-7.57089,-11.20798,146.930008,24.92,-7.28,1729471773698.0,0.0
-3.57727,-6.711867,-7.762317,101.57,7.0,-13.51,1729471773719.0,0.0
-1.935793,-7.393822,-7.649854,28.49,43.330002,-23.309999,1729471773743.0,0.0
-3.345166,-8.709875,-8.597411,38.639999,80.220001,-12.04,1729471773758.0,0.0
-2.754139,-6.848258,-5.819345,116.199997,96.809998,-2.94,1729471773783.0,0.0
-2.062613,-5.379066,2.316252,159.600006,94.989998,8.96,1729471773799.0,0.0
-3.125026,-4.426722,8.867801,111.93,81.340004,4.62,1729471773818.0,0.0
-3.158526,-5.680561,10.971091,26.25,24.57,5.74,1729471773842.0,0.0
-2.758924,-8.327023,6.702296,-30.1,-30.52,2.94,1729471773860.0,0.0
-2.462214,-9.217153,1.371087,-70.0,-62.510002,3.08,1729471773878.0,0.0
-2.134398,-12.313466,-5.35753,-136.289993,-98.0,-20.719999,1729471773900.0,0.0
-3.050849,-15.507884,-10.246067,-162.680008,-85.190002,-37.73,1729471773918.0,0.0
-4.821537,-14.05544,-8.458629,-138.529999,-45.639999,-54.32,1729471773938.0,0.0
-6.192625,-11.002198,-9.702895,-38.57,-16.799999,-54.740002,1729471773957.0,0.0
-6.132804,-8.796017,-8.712267,112.910004,22.120001,-57.400002,1729471773980.0,0.0
-4.106083,-7.058826,-6.85783,200.690002,39.549999,-34.09,1729471773998.0,0.0
-2.067399,-6.812366,-4.728218,175.770004,52.990002,-35.420002,1729471774018.0,0.0
-1.524228,-6.9344,-3.354738,103.459999,74.760002,-24.360001,1729471774039.0,0.0
-1.368695,-7.037291,-0.267996,87.290001,85.400002,-8.89,1729471774057.0,0.0
-0.937986,-7.472785,2.646462,127.330002,66.989998,3.92,1729471774077.0,0.0
-0.31346,-5.278566,4.596612,175.699997,53.41,13.16,1729471774099.0,0.0
-1.062413,-3.785445,5.63749,193.550003,36.470001,33.32,1729471774117.0,0.0
-3.158526,-3.136991,7.034898,192.850006,11.48,56.139999,1729471774140.0,0.0
-4.701896,-3.761517,8.054241,177.589996,-22.960001,88.550003,1729471774159.0,0.0
-5.783452,-8.329416,6.556334,124.18,-62.299999,98.209999,1729471774176.0,0.0
-6.73101,-14.356936,3.412165,46.549999,-99.68,79.239998,1729471774197.0,0.0
-7.759924,-14.289936,-3.766303,-62.299999,-88.410004,39.200001,1729471774217.0,0.0
-5.493921,-10.600205,-5.142176,-184.729996,-42.349998,5.6,1729471774239.0,0.0
-1.258625,-11.447264,-6.125626,-146.089996,-46.900002,-5.11,1729471774257.0,0.0
-1.316052,-13.567304,-4.847858,-46.549999,-15.33,6.02,1729471774278.0,0.0
-2.481357,-10.157533,-3.287738,61.32,23.799999,-6.37,1729471774297.0,0.0
-3.400201,-6.240481,-0.863809,62.02,40.880001,-7.56,1729471774317.0,0.0
-2.971886,-7.063612,-0.217747,-17.639999,23.799999,-24.219999,1729471774339.0,0.0
-1.665405,-9.765109,-1.129412,-104.93,6.23,-33.389999,1729471774356.0,0.0
-1.674976,-12.32543,-0.643669,-119.349998,-5.32,-30.450001,1729471774377.0,0.0
-2.277967,-14.335401,-0.667598,-79.870003,-2.52,-32.549999,1729471774398.0,0.0
-2.127219,-11.004591,0.648455,-23.24,-9.31,-45.220001,1729471774416.0,0.0
-3.495914,-8.4347,-0.619741,8.33,1.05,-41.439999,1729471774438.0,0.0
-4.232903,-8.79123,-2.615355,-12.67,3.71,-37.240002,1729471774457.0,0.0
-4.225725,-7.558927,2.455036,-15.12,9.17,-25.690001,1729471774478.0,0.0
-3.261417,-9.075976,0.571885,21.700001,13.3,-9.8,1729471774498.0,0.0
-2.088934,-8.609376,0.70349,27.299999,24.99,-23.52,1729471774517.0,0.0
0.212961,-9.458827,1.555335,23.379999,40.459999,-13.3,1729471774538.0,0.0
0.954736,-7.661818,3.797409,26.460001,52.009998,-4.34,1729471774558.0,0.0
0.066999,-5.539384,5.529813,42.07,51.799999,13.79,1729471774577.0,0.0
-2.017149,-5.864808,7.546963,7.28,35.490002,26.950001,1729471774597.0,0.0
-3.048456,-9.923036,6.565905,-74.480003,-13.79,21.98,1729471774617.0,0.0
-2.038685,-10.973484,4.194618,-115.989998,-61.389999,8.19,1729471774640.0,0.0
-2.464607,-8.10449,2.423929,-157.779999,-87.709999,4.55,1729471774657.0,0.0
-3.672983,-8.788837,-7.444071,-222.809998,-111.370003,3.36,1729471774676.0,0.0
-2.467,-10.944772,-12.15554,-204.820007,-116.199997,-16.870001,1729471774698.0,0.0
-2.974278,-16.02952,-9.32483,-2.1,-90.580002,14.14,1729471774716.0,0.0
-7.786245,-13.430914,-5.175675,192.850006,-28.42,-4.27,1729471774739.0,0.0
-9.700503,-8.068598,-5.178068,239.820007,-1.54,6.02,1729471774757.0,0.0
-5.565705,-6.929615,-2.603391,164.5,-8.75,-14.77,1729471774777.0,0.0
-2.904887,-9.671788,-2.78046,87.43,14.35,-24.710001,1729471774797.0,0.0
-4.625326,-9.772287,-2.813959,115.360001,60.549999,-20.09,1729471774818.0,0.0
-4.898108,-8.26481,-2.622534,184.309998,76.580002,-10.22,1729471774838.0,0.0
-2.718246,-8.240881,-0.557528,210.139999,83.860001,-17.15,1729471774856.0,0.0
-1.095913,-8.437093,1.753939,245.070007,91.0,-24.360001,1729471774877.0,0.0
-1.926222,-3.055635,8.039884,336.839996,84.139999,-4.69,1729471774903.0,0.0
-2.502892,-0.464208,8.9683,320.320007,62.790001,11.62,1729471774916.0,0.0
-2.395216,-2.586641,9.925428,218.119995,26.32,16.870001,1729471774939.0,0.0
-2.938386,-5.962914,9.932607,133.210007,6.51,21.35,1729471774956.0,0.0
-3.625126,-8.068598,8.714661,83.019997,-9.31,30.309999,1729471774976.0,0.0
-2.526821,-8.374879,7.164111,39.759998,-16.66,14.14,1729471775004.0,0.0
-1.586441,-8.702696,7.415358,23.030001,-16.52,7.35,1729471775016.0,0.0
-1.227518,-8.645268,8.090133,7.21,-16.450001,-0.77,1729471775038.0,0.0
-1.433301,-9.363115,6.486942,-18.200001,-25.549999,-0.28,1729471775058.0,0.0
-2.988636,-10.135997,3.122634,-72.870003,-25.129999,-6.3,1729471775077.0,0.0
-3.943372,-8.12124,1.174876,-142.380005,-12.53,-8.54,1729471775098.0,0.0
-5.47717,-8.216952,1.543371,-209.930008,3.29,-14.28,1729471775118.0,0.0
-2.998207,-8.707481,1.174876,-235.759995,-10.43,-30.59,1729471775139.0,0.0
-0.5001,-11.148161,2.012364,-159.039993,-29.82,-26.32,1729471775157.0,0.0
-1.536192,-9.954143,2.574677,-101.779999,-11.55,-16.1,1729471775178.0,0.0
-4.448257,-6.398407,4.074977,-143.990005,2.73,-13.86,1729471775198.0,0.0
-4.84068,-6.805188,2.404787,-226.449997,-20.23,-19.530001,1729471775218.0,0.0
-3.553342,-9.066404,0.198604,-285.040009,-35.630001,-34.720001,1729471775239.0,0.0
-2.56032,-10.581062,0.035892,-302.959991,-29.68,-43.189999,1729471775258.0,0.0
-2.739782,-7.568498,1.098306,-373.589996,-4.27,-57.540001,1729471775278.0,0.0
-4.311867,0.490529,-3.019742,-544.599976,-3.99,-81.199997,1729471775298.0,0.0
-6.855437,-5.520242,-5.632704,-743.470032,-32.200001,-100.940002,1729471775318.0,0.0
-4.445865,-9.394222,-11.16491,-789.669983,-41.299999,-129.009995,1729471775339.0,0.0
-0.990629,-10.688738,-11.320443,-506.730011,-54.389999,-91.209999,1729471775357.0,0.0
1.521835,-6.008378,-11.47837,-209.369995,-49.98,-60.27,1729471775378.0,0.0
-0.490529,-0.823131,-10.597812,-133.0,22.33,-47.040001,1729471775399.0,0.0
-4.331009,-1.414158,-8.736196,-180.110001,35.07,-18.83,1729471775420.0,0.0
-2.208575,-4.366901,-8.803195,-200.479996,-2.59,-14.49,1729471775439.0,0.0
0.638884,-8.154739,-10.803595,-152.949997,-16.24,-16.1,1729471775459.0,0.0
-0.861416,-4.486543,-9.530612,-13.3,6.23,-4.2,1729471775480.0,0.0
-0.433101,-3.192025,-9.351151,6.79,5.67,-7.42,1729471775502.0,0.0
-0.777667,-3.806981,-8.449057,-8.33,2.1,3.57,1729471775520.0,0.0
-0.875773,-4.218546,-9.437292,-3.78,-3.15,1.61,1729471775544.0,0.0
-1.18684,-3.158526,-9.750752,33.459999,-3.29,10.15,1729471775559.0,0.0
-1.265803,-2.459821,-9.422935,67.550003,1.19,22.68,1729471775579.0,0.0
-0.78006,-3.969693,-9.389436,74.129997,3.99,27.16,1729471775601.0,0.0
-0.440279,-4.754539,-9.755538,98.07,3.5,29.540001,1729471775619.0,0.0
-0.476172,-4.579862,-9.365508,130.830002,7.14,35.07,1729471775641.0,0.0
-0.856631,-5.134997,-8.781659,166.389999,10.92,37.170002,1729471775659.0,0.0
-1.177269,-6.592227,-7.877172,208.320007,13.440001,38.220001,1729471775679.0,0.0
-1.12702,-7.216753,-7.992027,258.089996,11.62,36.959999,1729471775699.0,0.0
-1.112662,-7.130611,-7.872386,307.720001,12.74,42.84,1729471775723.0,0.0
-0.870987,-7.283752,-7.173682,336.839996,16.1,47.389999,1729471775742.0,0.0
-0.782453,-6.685547,-6.029913,355.179993,19.950001,54.32,1729471775759.0,0.0
-0.624527,-6.874579,-4.993821,411.25,20.299999,73.989998,1729471775779.0,0.0
-0.265603,-6.06102,-3.378666,453.73999,25.200001,83.510002,1729471775799.0,0.0
-0.40678,-7.446464,-1.761117,425.73999,42.700001,89.529999,1729471775819.0,0.0
0.052642,-9.894321,-0.535992,448.350006,42.420002,95.690002,1729471775848.0,0.0
0.892523,-6.745367,1.414158,525.280029,53.060001,89.879997,1729471775859.0,0.0
-1.761117,-0.557528,5.120641,515.690002,88.340004,91.279999,1729471775879.0,0.0
-9.006584,0.533599,13.497912,241.710007,78.959999,112.840004,1729471775903.0,0.0
-8.910872,-9.456435,8.147561,-142.029999,-5.95,48.09,1729471775919.0,0.0
-2.600998,-13.667803,3.249453,-227.919998,-52.849998,26.389999,1729471775940.0,0.0
-1.524228,-11.55494,2.287539,-138.25,-28.91,36.259998,1729471775961.0,0.0
-5.012963,-11.332408,1.765903,-76.090004,-11.41,35.490002,1729471775979.0,0.0
-6.742974,-12.433105,0.837488,-121.590004,0.21,14.35,1729471775999.0,0.0
-4.323831,-10.669596,-0.380459,-197.539993,-8.33,-8.68,1729471776020.0,0.0
-1.806581,-8.013563,-1.423729,-236.740005,-16.940001,-22.4,1729471776041.0,0.0
-2.237289,-7.609176,0.591027,-249.479996,-8.33,-19.18,1729471776059.0,0.0
-4.17069,-7.097112,1.739582,-322.0,-4.76,-25.34,1729471776079.0,0.0
-5.146961,-6.826723,0.299103,-366.309998,-26.950001,-31.57,1729471776100.0,0.0
-5.252246,-6.178268,-1.718047,-366.380005,-51.310001,-38.779999,1729471776118.0,0.0
-4.642076,-8.578269,-4.890929,-356.019989,-67.900002,-35.420002,1729471776140.0,0.0
-3.512664,-10.784451,-7.405786,-188.440002,-77.07,-41.02,1729471776160.0,0.0
-2.778067,-12.153147,-7.719246,97.300003,-77.349998,-3.01,1729471776178.0,0.0
-2.70389,-14.672788,-10.561919,490.980011,-109.340004,58.310001,1729471776201.0,0.0
-4.843073,-5.223531,-2.380858,757.820007,-14.7,75.739998,1729471776219.0,0.0
-7.838887,5.56092,2.522035,760.549988,74.690002,148.119995,1729471776240.0,0.0
-9.109475,4.895715,5.197211,492.519989,37.799999,155.610001,1729471776260.0,0.0
-9.949356,-4.185047,3.940979,97.510002,49.279999,70.559998,1729471776279.0,0.0
-11.736795,-11.815758,-1.289732,-124.949997,22.120001,29.120001,1729471776299.0,0.0
-8.350951,-15.864414,-3.101098,13.58,-17.43,24.92,1729471776319.0,0.0
-7.846066,-11.521441,-1.679761,175.070007,59.010002,12.88,1729471776340.0,0.0
-7.771888,-8.877372,2.289931,189.419998,50.330002,-16.030001,1729471776358.0,0.0
-5.953342,-8.161918,6.348158,86.239998,17.780001,-47.599998,1729471776379.0,0.0
-4.728218,-9.628718,6.589834,-13.79,-1.26,-63.07,1729471776399.0,0.0
-3.852444,-9.573684,8.437093,-61.599998,-14.77,-71.400002,1729471776418.0,0.0
-2.622534,-5.639884,7.566105,-82.529999,-23.799999,-70.629997,1729471776444.0,0.0
-2.07697,-6.087341,5.039285,-86.169998,-37.310001,-46.41,1729471776461.0,0.0
-1.825724,-8.238488,1.9669,-152.529999,-32.970001,-52.639999,1729471776479.0,0.0
-3.455236,-12.916457,1.505085,-302.890015,7.77,-73.220001,1729471776499.0,0.0
-3.256632,-8.324631,1.246661,-369.950012,14.98,-91.349998,1729471776518.0,0.0
-3.895515,-9.099905,2.65364,-239.399994,6.51,-44.869999,1729471776541.0,0.0
-2.359323,-6.364908,0.72024,-200.690002,-27.860001,-58.52,1729471776561.0,0.0
-4.331009,-7.898707,0.732204,-216.440002,-11.34,-56.490002,1729471776578.0,0.0
-5.893522,-8.803195,-0.31346,-273.839996,11.55,-65.940002,1729471776599.0,0.0
-5.431707,-7.685746,-1.940579,-307.790009,-13.51,-76.230003,1729471776619.0,0.0
-4.065405,-5.008178,-3.668197,-335.369995,-37.029999,-68.669998,1729471776640.0,0.0
-3.553342,-4.809574,-6.869793,-298.619995,-29.4,-45.009998,1729471776658.0,0.0
-4.048656,-7.482357,-9.19801,-156.940002,-10.92,-13.79,1729471776680.0,0.0
-4.663611,-10.978271,-8.688338,38.360001,8.89,17.639999,1729471776699.0,0.0
-5.254639,-11.913863,-8.13799,244.020004,29.33,25.34,1729471776719.0,0.0
-5.804988,-9.686146,-6.754939,418.459991,46.27,30.309999,1729471776741.0,0.0
-6.295516,-7.482357,-4.369294,467.110016,57.119999,28.0,1729471776759.0,0.0
-6.496514,-8.102098,-2.833102,360.640015,63.77,10.08,1729471776779.0,0.0
-5.036892,-10.090532,-1.268196,215.040009,57.330002,-23.73,1729471776853.0,0.0
-3.337988,-9.516255,-0.435494,176.190002,59.220001,-37.380001,1729471776859.0,0.0
-4.709075,-7.401,2.397608,182.839996,61.18,-28.07,1729471776862.0,0.0
-4.101298,-4.072584,4.625326,166.740005,51.380001,-21.07,1729471776870.0,0.0
-3.239882,-4.053442,4.259224,164.570007,31.99,-6.44,1729471776879.0,0.0
-1.043271,-4.273581,4.185047,186.339996,23.940001,9.87,1729471776902.0,0.0
1.131805,-5.943772,3.538985,206.430008,33.18,23.870001,1729471776918.0,0.0
0.356531,-6.762117,7.101898,206.289993,56.91,30.799999,1729471776939.0,0.0
-3.519842,-8.733803,10.738988,151.199997,53.970001,30.59,1729471776959.0,0.0
-3.294917,-7.836494,10.152746,63.91,19.950001,18.690001,1729471776978.0,0.0
-2.916851,-7.094719,7.62114,-3.71,-2.66,23.799999,1729471776998.0,0.0
-2.620141,-7.367501,5.596812,-26.040001,-32.41,19.18,1729471777018.0,0.0
-3.108276,-4.881358,5.680561,-33.389999,-23.450001,37.029999,1729471777046.0,0.0
-2.371287,-3.163311,3.416951,-71.610001,-26.040001,46.060001,1729471777058.0,0.0
-2.423929,-4.072584,1.083949,-128.029999,-22.610001,61.25,1729471777080.0,0.0
-4.216154,-7.657032,0.346959,-161.979996,-8.61,82.809998,1729471777100.0,0.0
-6.393622,-8.748159,0.574277,-155.050003,-11.27,93.099998,1729471777119.0,0.0
-9.193225,-10.482956,-1.715654,-167.369995,-18.059999,91.629997,1729471777140.0,0.0
-11.181661,-16.804794,-9.107083,-168.210007,-32.200001,47.810001,1729471777160.0,0.0
-9.516255,-22.8706,-9.607183,-34.790001,-28.0,-6.16,1729471777179.0,0.0
-6.039484,-16.034306,-3.716053,140.139999,21.77,-51.310001,1729471777200.0,0.0
-5.094319,-6.991827,0.004786,236.180008,60.760002,-71.889999,1729471777220.0,0.0
-4.807181,-5.635098,4.362115,175.350006,67.970001,-93.940002,1729471777241.0,0.0
-3.158526,-6.597012,3.524628,3.01,21.629999,-105.0,1729471777261.0,0.0
-0.844666,-7.692925,2.926422,-66.919998,28.98,-108.989998,1729471777280.0,0.0
0.387637,-5.501099,6.020342,-17.92,57.959999,-80.849998,1729471777300.0,0.0
0.916451,-0.098106,6.721439,84.840004,60.900002,-45.849998,1729471777320.0,0.0
-1.225125,1.823331,10.863414,151.619995,52.5,20.58,1729471777342.0,0.0
-5.036892,2.59382,12.112469,125.650002,29.68,76.370003,1729471777358.0,0.0
-8.245667,-3.237489,10.269995,44.240002,-5.74,100.239998,1729471777382.0,0.0
-7.264609,-7.405786,3.828516,-29.68,-47.599998,83.510002,1729471777402.0,0.0
-6.26441,-8.664411,1.335195,-32.130001,-40.810001,105.559998,1729471777421.0,0.0
-8.949157,-8.827123,-1.158126,-104.93,-10.22,118.790001,1729471777446.0,0.0
-11.959327,-15.873986,-2.651247,-120.610001,-24.360001,82.669998,1729471777460.0,0.0
-10.9352,-24.107689,-5.570491,-52.43,-32.060001,10.08,1729471777481.0,0.0
-8.312666,-21.93261,-4.144369,49.349998,18.620001,-61.740002,1729471777503.0,0.0
-5.974878,-10.777272,0.081356,153.720001,58.380001,-93.239998,1729471777524.0,0.0
-4.48415,-4.792823,4.615755,172.199997,44.73,-110.18,1729471777544.0,0.0
-3.737589,-4.055835,3.20399,59.57,20.860001,-114.449997,1729471777561.0,0.0
-1.258625,-0.677169,4.457829,-24.360001,25.41,-114.730003,1729471777583.0,0.0
1.416551,0.971486,5.685347,-4.97,37.380001,-62.299999,1729471777603.0,0.0
1.734797,2.648855,9.901501,39.34,38.080002,-6.58,1729471777622.0,0.0
-3.09392,3.050849,11.849257,93.379997,34.509998,91.769997,1729471777643.0,0.0
-6.558727,-0.48335,9.320045,59.779999,7.14,130.619995,1729471777662.0,0.0
-5.702096,-4.912465,5.340781,-47.810001,-23.030001,123.480003,1729471777683.0,0.0
-5.9677,-5.546563,2.56032,-146.300003,-22.75,139.930008,1729471777702.0,0.0
-14.665611,-12.313466,-0.478565,-210.0,-18.27,154.979996,1729471777721.0,0.0
-16.156338,-20.506491,-7.250252,-198.520004,-68.879997,73.080002,1729471777742.0,0.0
-9.183653,-24.437897,-6.396015,-29.68,-47.950001,-42.07,1729471777766.0,0.0
-7.905886,-16.113268,-1.339981,123.970001,41.369999,-90.650002,1729471777782.0,0.0
-6.625726,-7.326823,1.148555,160.229996,42.07,-126.489998,1729471777802.0,0.0
-4.201797,-4.299902,4.228118,84.209999,1.4,-119.0,1729471777821.0,0.0
-1.17009,-4.223332,1.639083,-24.92,-14.98,-117.599998,1729471777842.0,0.0
-0.01675,-2.476572,4.553542,-20.23,22.4,-98.489998,1729471777862.0,0.0
0.01675,2.349752,8.185846,95.830002,48.439999,-29.889999,1729471777882.0,0.0
-1.56012,1.842474,11.916256,146.930008,40.25,31.219999,1729471777906.0,0.0
-5.249853,-2.065006,11.485549,76.93,18.27,62.439999,1729471777921.0,0.0
-7.666604,-3.565305,9.320045,-21.84,6.02,85.889999,1729471777943.0,0.0
-7.034898,-4.208975,6.69751,-137.410004,-16.870001,76.650002,1729471777961.0,0.0
-7.283752,-5.692525,1.536192,-230.229996,-39.549999,73.290001,1729471777980.0,0.0
-10.502099,-10.951948,-1.74676,-246.889999,-43.470001,70.980003,1729471778001.0,0.0
-12.964314,-17.891134,-4.091727,-161.910004,-57.049999,51.380001,1729471778021.0,0.0
-11.557333,-19.317257,-4.943572,-52.080002,-37.099998,-15.89,1729471778043.0,0.0
-8.537591,-14.256437,-2.98385,36.610001,4.2,-71.68,1729471778061.0,0.0
-6.156733,-9.370294,0.681954,110.18,9.45,-121.590004,1729471778081.0,0.0
-4.37408,-4.852644,4.780859,78.120003,-4.69,-118.230003,1729471778103.0,0.0
-2.163112,-6.003592,3.515057,16.309999,-21.139999,-118.090004,1729471778121.0,0.0
-0.421137,-8.693125,1.134198,15.75,-3.29,-118.440002,1729471778142.0,0.0
0.052642,-6.041877,2.005185,134.470001,36.049999,-94.779999,1729471778163.0,0.0
0.198604,-0.148355,2.431108,240.449997,62.16,-56.560001,1729471778182.0,0.0
0.758525,3.828516,5.711668,234.009995,66.5,-13.37,1729471778201.0,0.0
-1.289732,2.591427,9.592826,146.649994,71.75,34.369999,1729471778221.0,0.0
-5.67099,-1.538585,10.097712,49.139999,61.529999,67.550003,1729471778243.0,0.0
-7.99442,-4.981857,8.831908,-24.360001,27.23,70.840004,1729471778262.0,0.0
-8.133204,-6.269196,5.316852,-100.239998,-1.19,72.239998,1729471778281.0,0.0
-7.599605,-7.515855,2.732604,-122.290001,-29.610001,81.550003,1729471778302.0,0.0
-8.977871,-7.910671,2.122434,-132.440002,-36.75,85.68,1729471778320.0,0.0
-9.734003,-5.28096,-0.141177,-209.509995,-32.900002,70.980003,1729471778344.0,0.0
-8.35813,-7.537392,-2.943172,-265.299988,-53.830002,54.389999,1729471778360.0,0.0
-6.941578,-11.655439,-5.029713,-258.720001,-50.540001,4.06,1729471778381.0,0.0
-7.300502,-9.327222,-4.735396,-263.480011,-3.22,-43.610001,1729471778402.0,0.0
-5.230711,-6.436693,-3.620341,-365.890015,17.780001,-73.57,1729471778421.0,0.0
-2.364109,-6.628119,-3.790231,-484.959991,3.15,-84.559998,1729471778448.0,0.0
-0.119641,-8.676375,-3.101098,-578.27002,-1.96,-77.699997,1729471778462.0,0.0
0.732204,-11.988041,-5.022535,-542.289978,12.81,-62.720001,1729471778481.0,0.0
0.435494,-15.931413,-8.504091,-347.549988,-3.22,-35.209999,1729471778501.0,0.0
-0.327817,-14.416756,-3.751946,-95.620003,-2.38,-21.280001,1729471778521.0,0.0
-2.651247,-8.597411,-2.486143,58.170002,6.23,-19.040001,1729471778545.0,0.0
-4.278367,-6.168696,-3.696911,63.84,-11.13,-7.35,1729471778562.0,0.0
-4.512863,-7.712067,-4.84068,-12.88,-14.42,-12.95,1729471778581.0,0.0
-4.364508,-8.300702,-7.070791,-40.18,-15.96,-19.530001,1729471778601.0,0.0
-5.017749,-7.298109,-7.518249,-35.490002,-1.96,-19.18,1729471778621.0,0.0
-5.424529,-5.745167,-6.943972,-24.780001,5.32,-13.02,1729471778642.0,0.0
-5.156533,-5.489135,-7.32443,-30.24,8.05,-8.61,1729471778663.0,0.0
-4.82393,-4.634897,-6.257231,-66.150002,15.190001,-13.51,1729471778680.0,0.0
-5.144568,-4.26401,-6.486942,-112.770004,17.710001,-7.91,1729471778702.0,0.0
-5.912664,-5.089533,-7.566105,-166.740005,20.719999,-8.26,1729471778722.0,0.0
-4.945964,-6.582655,-10.298709,-168.350006,26.460001,-18.9,1729471778743.0,0.0
-3.632305,-5.285746,-6.912865,-134.960007,34.650002,-10.92,1729471778760.0,0.0
-3.019742,-8.640482,-7.755138,-48.509998,32.200001,18.549999,1729471778781.0,0.0
-2.07697,-6.831509,-8.659625,56.490002,37.029999,32.48,1729471778801.0,0.0
-1.505085,-5.611169,-6.309873,106.330002,49.139999,41.23,1729471778822.0,0.0
-0.200997,-5.912664,-5.627919,103.949997,44.939999,58.450001,1729471778843.0,0.0
-0.081356,-6.02752,-3.172883,80.360001,42.84,56.630001,1729471778860.0,0.0
-1.292124,-5.69731,-0.691526,59.220001,27.860001,57.400002,1729471778880.0,0.0
-4.45065,-5.525027,1.825724,-11.62,0.56,49.630001,1729471778905.0,0.0
-9.142976,-8.013563,1.562513,-96.879997,-39.27,31.710001,1729471778920.0,0.0
-6.211767,-9.793823,-7.678568,-177.520004,-93.309998,-24.01,1729471778942.0,0.0
-2.368894,-5.414958,-12.136396,-171.779999,-117.599998,-37.170002,1729471778961.0,0.0
-9.308081,-5.666204,-13.521841,-123.690002,-69.510002,-31.85,1729471778981.0,0.0
-8.269595,-6.039484,-14.093725,-95.900002,-38.290001,-59.990002,1729471779003.0,0.0
-2.98385,-1.342373,-11.894722,-56.84,-29.190001,-51.52,1729471779023.0,0.0
-4.529613,-3.59402,-10.411172,-56.279999,5.81,-31.219999,1729471779044.0,0.0
-2.277967,-5.015356,-9.516255,8.05,11.06,-13.02,1729471779061.0,0.0
-2.98385,-2.56032,-6.946364,74.480003,28.139999,13.09,1729471779087.0,0.0
-1.241875,-3.010171,-6.513263,31.219999,26.950001,2.1,1729471779103.0,0.0
-3.285345,-5.733203,-3.259024,9.94,22.120001,8.96,1729471779121.0,0.0
-8.374879,-3.912265,2.194218,-13.72,0.14,-4.41,1729471779144.0,0.0
-9.32483,-6.829116,-6.570691,-86.590004,-27.719999,-34.790001,1729471779161.0,0.0
-3.433701,-5.706882,-11.990433,-111.860001,-40.459999,-56.07,1729471779181.0,0.0
-4.039084,-4.740182,-11.018949,-102.900002,-16.309999,-53.27,1729471779202.0,0.0
-5.9677,-3.84048,-9.166903,-77.209999,-1.19,-45.639999,1729471779222.0,0.0
-3.85723,-2.433501,-10.301102,-46.689999,-4.62,-38.290001,1729471779242.0,0.0
-3.084348,-2.715853,-9.990034,-11.41,-1.33,-14.21,1729471779263.0,0.0
-2.486143,-3.400201,-10.526026,37.939999,-0.84,4.97,1729471779282.0,0.0
-2.586641,-2.610569,-10.078569,75.809998,7.21,23.17,1729471779303.0,0.0
-1.588834,-1.402194,-8.516055,81.830002,16.309999,28.91,1729471779323.0,0.0
-2.940779,-4.867002,-7.377072,14.84,29.26,21.629999,1729471779343.0,0.0
-2.481357,-2.478964,-5.886343,19.74,18.48,11.97,1729471779361.0,0.0
-6.30748,-5.340781,-3.582055,22.4,18.059999,9.87,1729471779383.0,0.0
-8.413164,-5.627919,1.411765,-40.670002,-6.3,-13.65,1729471779403.0,0.0
-5.632704,-3.713661,-11.045268,-92.120003,-31.15,-39.689999,1729471779421.0,0.0
-3.582055,-3.460021,-10.387242,-95.900002,-25.549999,-32.900002,1729471779445.0,0.0
-7.960921,-5.773881,-9.879964,-87.709999,-11.27,-25.200001,1729471779461.0,0.0
-4.106083,-3.672983,-9.779467,-21.280001,-21.98,-20.51,1729471779483.0,0.0
-2.847459,-2.48375,-9.784252,48.720001,-25.76,1.82,1729471779502.0,0.0
-4.577469,-3.620341,-11.05484,62.09,-13.3,20.790001,1729471779523.0,0.0
-2.914458,-4.572684,-11.676974,78.050003,4.41,28.77,1729471779543.0,0.0
-2.117648,-4.259224,-8.863015,77.980003,22.75,27.370001,1729471779564.0,0.0
-0.799203,-3.194418,-6.896115,53.060001,26.809999,15.89,1729471779584.0,0.0
-1.758725,-4.448257,-5.230711,45.639999,20.51,14.0,1729471779604.0,0.0
-5.429315,-5.029713,0.581456,2.66,9.24,4.69,1729471779623.0,0.0
-8.662018,-5.778666,-8.913264,-75.669998,-27.719999,-25.27,1729471779644.0,0.0
-0.701097,-2.514857,-13.62234,-140.139999,-52.150002,-61.529999,1729471779663.0,0.0
-8.597411,-5.493921,-12.311072,-135.869995,-9.03,-43.540001,1729471779683.0,0.0
-4.508078,-4.460221,-11.801401,-62.299999,-12.25,-42.279999,1729471779704.0,0.0
-2.48375,-1.287339,-10.530812,35.98,-13.02,-15.33,1729471779723.0,0.0
-3.814159,-3.852444,-11.942577,66.709999,-3.78,10.71,1729471779745.0,0.0
-3.139383,-2.366502,-11.088341,120.400002,7.28,35.700001,1729471779763.0,0.0
-2.589034,-3.754339,-9.611969,115.150002,28.0,39.27,1729471779783.0,0.0
-2.553142,-6.23091,-7.302894,54.599998,46.48,26.460001,1729471779808.0,0.0
-2.182254,-4.706682,-3.562913,62.860001,34.93,20.370001,1729471779823.0,0.0
-3.907479,-3.919443,-2.541178,65.590004,19.67,4.76,1729471779845.0,0.0
-5.936593,-4.907679,-0.332602,-7.56,1.82,-10.71,1729471779863.0,0.0
-8.013563,-4.381258,-1.265803,-80.919998,-35.07,-28.700001,1729471779884.0,0.0
-5.144568,-2.388037,-12.004791,-127.889999,-51.73,-56.0,1729471779906.0,0.0
-5.498707,-5.020142,-12.459428,-157.779999,-37.939999,-48.509998,1729471779924.0,0.0
-5.907879,-6.056234,-13.146168,-100.239998,-21.35,-44.939999,1729471779944.0,0.0
-3.838088,-0.557528,-10.966305,36.049999,-21.84,-20.51,1729471779964.0,0.0
-4.567898,-3.244668,-11.32523,73.57,-18.549999,14.14,1729471779983.0,0.0
-4.618148,-2.632105,-10.896914,126.770004,7.7,53.27,1729471780003.0,0.0
-3.314059,-5.369494,-8.633304,102.760002,26.880001,51.799999,1729471780024.0,0.0
-1.892723,-5.146961,-6.599405,55.580002,46.759998,31.57,1729471780045.0,0.0
-1.586441,-6.793223,-4.565506,46.060001,36.610001,23.66,1729471780062.0,0.0
-2.215754,-6.73101,-2.45025,42.0,24.01,-3.29,1729471780083.0,0.0
-5.146961,-4.929214,2.426322,9.59,0.49,-12.81,1729471780103.0,0.0
-7.946564,-2.658426,-5.76431,-62.02,-34.439999,-24.85,1729471780122.0,0.0
-6.4678,-1.069592,-15.864414,-166.740005,-32.970001,-47.25,1729471780146.0,0.0
-7.276574,-6.161518,-17.97967,-210.490005,4.9,-30.59,1729471780162.0,0.0
-5.426922,-5.498707,-11.825329,-70.840004,32.34,-19.389999,1729471780183.0,0.0
-2.778067,-0.643669,-9.535398,69.440002,29.82,-3.57,1729471780203.0,0.0
-3.742374,-1.895115,-10.360922,102.199997,38.360001,25.969999,1729471780224.0,0.0
-2.842674,-1.868794,-7.013363,133.630005,42.700001,53.48,1729471780247.0,0.0
-0.777667,-3.285345,-6.503692,83.160004,43.75,45.920002,1729471780262.0,0.0
-1.777867,-5.948557,-1.414158,55.439999,45.080002,52.5,1729471780283.0,0.0
-2.878566,-4.249653,1.433301,102.199997,6.93,53.760002,1729471780303.0,0.0
-10.317852,-7.415358,1.732404,26.809999,-30.030001,39.060001,1729471780324.0,0.0
-6.709475,-6.321837,-10.250853,-184.660004,-85.260002,-39.759998,1729471780345.0,0.0
-0.923629,-4.613362,-20.693129,-123.199997,-81.970001,-43.259998,1729471780362.0,0.0
-5.668597,-3.634698,-15.467206,-19.6,-20.370001,-14.84,1729471780383.0,0.0
-6.4678,-4.053442,-12.571891,-16.52,7.49,-20.09,1729471780404.0,0.0
-1.459622,-3.050849,-11.820543,23.870001,12.6,-13.16,1729471780422.0,0.0
-3.833302,-4.252046,-11.377872,85.050003,26.880001,13.93,1729471780446.0,0.0
-4.110869,-3.790231,-9.74836,124.879997,38.080002,23.940001,1729471780463.0,0.0
-3.586841,-1.777867,-5.651847,105.209999,45.150002,26.32,1729471780482.0,0.0
-3.215954,-7.357929,-3.201597,58.939999,46.689999,7.42,1729471780502.0,0.0
-3.723232,-4.979464,-1.562513,101.57,25.690001,9.52,1729471780523.0,0.0
-4.642076,-6.161518,-2.005185,61.810001,4.2,-10.64,1729471780543.0,0.0
-5.991628,-8.10449,-3.586841,7.77,-15.12,-32.830002,1729471780562.0,0.0
-5.649454,-8.73141,-8.662018,32.619999,-35.279999,-45.150002,1729471780583.0,0.0
-4.328616,-5.151747,-13.232309,62.09,-28.42,-49.91,1729471780603.0,0.0
-4.295116,-3.196811,-13.170096,67.410004,-1.82,-26.32,1729471780622.0,0.0
-5.718846,-3.993621,-8.55434,85.889999,28.07,-2.1,1729471780645.0,0.0
-6.202196,-5.630312,-8.693125,149.309998,42.77,14.49,1729471780662.0,0.0
-6.04427,-4.888536,-7.779066,222.460007,52.290001,31.710001,1729471780683.0,0.0
-5.666204,-4.132405,-6.374479,227.080002,56.139999,36.049999,1729471780704.0,0.0
-5.034499,-1.356731,-1.531406,197.399994,49.349998,40.740002,1729471780723.0,0.0
-4.472186,-5.182854,-0.18664,179.059998,29.75,58.029999,1729471780744.0,0.0
-2.842674,-9.406186,-0.55992,203.139999,9.03,59.920002,1729471780763.0,0.0
-2.249253,-11.028521,3.553342,276.779999,-2.94,66.709999,1729471780783.0,0.0
-3.244668,-10.571491,3.558127,248.220001,-21.559999,46.27,1729471780802.0,0.0
-3.572484,-8.185846,0.988236,185.779999,-43.75,39.830002,1729471780825.0,0.0
-2.754139,-5.694918,0.181855,96.25,-47.389999,38.360001,1729471780845.0,0.0
-4.051049,-7.472785,-0.9667,-29.960001,-38.779999,40.529999,1729471780863.0,0.0
-5.517848,-12.282358,-4.37408,-77.769997,-34.09,36.82,1729471780884.0,0.0
-5.096712,-14.524432,-5.709275,-31.15,-29.190001,23.17,1729471780906.0,0.0
-4.883751,-10.066606,-9.322437,29.120001,-1.26,-2.03,1729471780923.0,0.0
-5.362316,-7.073184,-5.197211,44.240002,29.4,-9.87,1729471780943.0,0.0
-4.022335,-7.221539,-5.307281,-36.259998,11.41,-32.549999,1729471780964.0,0.0
-4.125226,-8.953942,-3.227918,-83.93,16.73,-45.080002,1729471780982.0,0.0
-5.163712,-12.815958,-8.690732,-65.590004,15.33,-54.459999,1729471781004.0,0.0
-5.915058,-10.856236,-0.165105,85.540001,44.380001,-42.420002,1729471781024.0,0.0
-4.718646,-7.80778,-0.366102,96.879997,35.0,-44.59,1729471781043.0,0.0
-4.613362,-3.52702,3.548556,5.6,23.309999,-53.619999,1729471781063.0,0.0
-5.532206,-5.510671,2.22054,-34.439999,11.97,-31.360001,1729471781083.0,0.0
-4.110869,-7.74796,-0.698704,-49.98,0.28,-35.0,1729471781103.0,0.0
-2.055435,-8.666803,0.413958,11.06,-3.29,-13.440001,1729471781123.0,0.0
-1.734797,-6.465407,4.101298,55.02,-0.28,6.02,1729471781143.0,0.0
-3.24706,-7.386643,5.726025,50.540001,-14.14,30.17,1729471781162.0,0.0
-4.503292,-8.305488,5.003392,1.4,-42.0,31.99,1729471781184.0,0.0
-4.795217,-7.666604,-0.366102,-52.150002,-57.470001,30.1,1729471781204.0,0.0
-8.446664,-8.360522,-1.478764,-114.590004,-47.670002,28.139999,1729471781223.0,0.0
-8.269595,-12.894921,-6.936793,-117.529999,-49.700001,31.99,1729471781244.0,0.0
-4.989035,-11.184053,-6.661618,-65.800003,-52.150002,7.98,1729471781262.0,0.0
-4.876573,-8.595018,-5.113462,32.130001,-28.559999,16.940001,1729471781283.0,0.0
-7.092326,-8.008778,-4.867002,42.279999,-2.24,8.19,1729471781303.0,0.0
-6.678369,-9.635897,-8.240881,14.35,6.65,-11.27,1729471781322.0,0.0
-4.156333,-6.929615,-11.799009,55.510002,32.970001,-30.380001,1729471781346.0,0.0
-4.058227,-9.097511,-4.206582,21.629999,67.340004,-45.080002,1729471781362.0,0.0
-4.063013,-9.164511,-2.045863,-67.129997,58.380001,-68.949997,1729471781383.0,0.0
-3.759124,-10.162319,-1.502693,-64.330002,36.610001,-51.380001,1729471781402.0,0.0
-2.26361,-9.501899,-6.759724,-15.33,16.73,-53.48,1729471781429.0,0.0
-4.407579,-9.717253,-3.273381,67.690002,49.91,-33.459999,1729471781443.0,0.0
-3.895515,-7.195218,-1.316052,78.540001,55.580002,-38.709999,1729471781462.0,0.0
-3.52702,-6.876972,3.005385,37.310001,36.540001,-40.18,1729471781484.0,0.0
-4.955536,-8.365308,3.897908,-10.01,32.27,-24.780001,1729471781502.0,0.0
-4.26401,-8.090133,3.369094,-39.130001,14.98,-25.34,1729471781522.0,0.0
-2.15354,-6.673582,2.529213,-52.009998,0.91,-20.299999,1729471781543.0,0.0
-1.167697,-6.903293,2.06022,-46.060001,-1.33,-3.64,1729471781563.0,0.0
-1.464408,-8.238488,2.727818,-38.779999,-10.22,20.370001,1729471781582.0,0.0
-2.957529,-9.049655,2.569891,-27.16,-25.549999,33.110001,1729471781602.0,0.0
-4.704289,-8.568698,3.314059,-2.38,-42.700001,47.880001,1729471781624.0,0.0
-4.256832,-9.135797,0.122034,16.59,-73.43,56.279999,1729471781646.0,0.0
-5.065606,-8.989835,-5.094319,-76.370003,-98.209999,32.900002,1729471781662.0,0.0
-10.444671,-10.609775,-1.174876,-106.330002,-77.349998,34.09,1729471781684.0,0.0
-7.735995,-11.016556,-8.664411,-48.790001,-76.650002,21.77,1729471781703.0,0.0
-3.426522,-10.593026,-9.138189,12.95,-80.919998,14.84,1729471781724.0,0.0
-3.393023,-9.781858,-9.724431,44.099998,-29.469999,1.75,1729471781746.0,0.0
-6.142376,-9.652647,-12.342178,52.920002,18.969999,-9.24,1729471781765.0,0.0
-5.757132,-7.49432,-8.937192,87.080002,54.25,-16.030001,1729471781785.0,0.0
-2.464607,-5.52742,-8.520842,112.770004,36.959999,-22.4,1729471781859.0,0.0
-2.945565,-4.778467,-4.053442,81.620003,66.010002,-24.85,1729471781859.0,0.0
-4.613362,-7.846066,-2.658426,9.87,55.510002,-23.379999,1729471781859.0,0.0
-4.201797,-10.813165,-0.196211,-11.06,33.389999,-29.4,1729471781884.0,0.0
-2.316252,-7.60439,-2.419144,0.7,0.42,-33.529999,1729471781884.0,0.0
-2.864209,-7.546963,0.418744,30.66,-2.03,-12.88,1729471781907.0,0.0
-3.414558,-7.446464,1.423729,-20.58,-10.43,-30.1,1729471781924.0,0.0
-3.096312,-9.01137,-0.236889,-40.599998,-33.950001,-8.61,1729471781945.0,0.0
-1.607977,-10.82513,-2.136791,10.78,-31.360001,-9.87,1729471781966.0,0.0
-1.990828,-9.06162,-0.634098,54.670002,-0.84,2.66,1729471781985.0,0.0
-3.704089,-9.442079,0.275175,14.42,25.48,2.66,1729471782004.0,0.0
-4.701896,-10.009177,2.132005,-64.68,18.76,-6.93,1729471782026.0,0.0
-4.130012,-9.030513,2.598605,-108.5,-7.28,-13.72,1729471782046.0,0.0
-4.218546,-7.087541,-0.701097,-150.149994,-25.9,-8.54,1729471782065.0,0.0
-2.57707,-7.142576,-3.256632,-136.639999,-49.84,-1.61,1729471782085.0,0.0
-3.299703,-9.4349,-3.529413,-132.160004,-60.200001,6.23,1729471782105.0,0.0
-7.188039,-8.9348,-5.003392,-112.840004,-46.48,-6.16,1729471782123.0,0.0
-9.836893,-8.834301,-11.755937,-117.459999,-21.280001,-12.95,1729471782149.0,0.0
-9.413363,-8.238488,-12.88535,-103.040001,8.75,-17.15,1729471782165.0,0.0
-6.245267,-9.320045,-8.733803,18.200001,41.16,4.55,1729471782184.0,0.0
-4.572684,-10.339387,-7.63789,162.190002,85.400002,17.08,1729471782204.0,0.0
-5.326423,-2.502892,-4.651647,158.410004,125.440002,16.52,1729471782224.0,0.0
-3.955336,-7.996813,-4.517649,59.709999,112.629997,17.99,1729471782246.0,0.0
-1.344766,-11.8349,3.359523,72.590004,93.099998,27.58,1729471782264.0,0.0
1.607977,-4.235296,6.238089,427.070007,75.18,48.369999,1729471782283.0,0.0
-3.632305,0.088534,12.710674,287.48999,83.160004,55.16,1729471782305.0,0.0
-5.943772,-6.352944,7.645068,-22.26,5.32,40.950001,1729471782325.0,0.0
-4.338188,-12.009576,4.462614,-166.389999,-62.299999,22.120001,1729471782344.0,0.0
-2.567499,-9.597611,1.069592,-193.619995,-83.370003,1.96,1729471782362.0,0.0
-3.589234,-4.59422,-2.782853,-216.580002,-96.459999,3.22,1729471782384.0,0.0
-6.972685,-7.176075,-7.178468,-193.410004,-73.150002,25.41,1729471782405.0,0.0
-6.704689,-11.696117,-12.710674,-107.169998,-55.23,31.01,1729471782424.0,0.0
-5.309673,-11.724831,-15.799807,18.690001,-41.860001,19.110001,1729471782460.0,0.0
-5.359922,-6.314659,-13.153346,91.07,19.6,10.64,1729471782465.0,0.0
-6.381658,-5.548956,-8.035098,37.939999,50.82,-2.73,1729471782483.0,0.0
-5.364708,-6.216553,-7.338787,-89.459999,45.220001,-42.0,1729471782504.0,0.0
-5.517848,-11.765509,-2.333002,-167.020004,30.030001,-53.619999,1729471782526.0,0.0
-2.718246,-13.045669,-4.881358,-95.970001,10.85,-69.440002,1729471782565.0,0.0
-2.995814,-11.995219,-2.380858,16.309999,12.6,-56.490002,1729471782574.0,0.0
-4.943572,-11.420943,-3.239882,65.169998,38.290001,-66.360001,1729471782625.0,0.0
-5.364708,-11.227123,-5.139783,84.209999,31.08,-54.810001,1729471782625.0,0.0
-2.261217,-6.958328,-2.036292,158.830002,34.93,-50.049999,1729471782626.0,0.0
-2.663212,-3.696911,1.311267,221.690002,52.709999,-30.66,1729471782645.0,0.0
-4.079762,-1.947758,1.088734,161.0,65.099998,-17.85,1729471782662.0,0.0
-2.677568,-3.010171,-0.79681,40.459999,48.650002,-8.89,1729471782689.0,0.0
-1.674976,-5.120641,-2.158326,18.620001,48.93,24.5,1729471782707.0,0.0
-1.871187,-10.04507,-2.043471,110.18,55.23,49.139999,1729471782722.0,0.0
-2.916851,-9.518648,-1.411765,257.73999,59.43,66.639999,1729471782749.0,0.0
-4.663611,-5.831308,3.196811,365.75,58.59,80.919998,1729471782765.0,0.0
-6.113662,-4.400401,7.003791,289.380005,38.990002,82.32,1729471782782.0,0.0
-5.793024,-5.108676,6.594619,54.740002,-3.92,65.940002,1729471782803.0,0.0
-4.005585,-8.013563,0.892523,-181.300003,-38.5,36.540001,1729471782823.0,0.0
-3.029313,-13.153346,-3.806981,-246.330002,-56.490002,29.190001,1729471782844.0,0.0
-3.553342,-16.034306,-4.68754,-145.039993,-35.07,25.9,1729471782863.0,0.0
-4.960321,-14.368899,-2.019542,-3.99,-7.91,19.110001,1729471782883.0,0.0
-4.989035,-8.953942,1.057628,46.900002,3.57,7.21,1729471782906.0,0.0
-4.161119,-7.482357,0.677169,-26.530001,-2.59,-3.64,1729471782923.0,0.0
-4.67079,-10.207782,1.423729,-120.120003,-3.5,-17.08,1729471782948.0,0.0
-4.63729,-9.872787,1.143769,-99.330002,-10.36,-21.07,1729471782963.0,0.0
-4.448257,-8.886944,0.62692,-82.809998,-17.15,-24.5,1729471782983.0,0.0
-4.194618,-6.920043,-0.148355,-122.989998,-18.549999,-33.25,1729471783003.0,0.0
-4.046263,-9.705289,-0.878166,-173.110001,-21.91,-35.77,1729471783022.0,0.0
-3.713661,-9.963714,-1.5003,-165.410004,-24.01,-40.740002,1729471783044.0,0.0
-3.761517,-9.355937,-0.689133,-102.199997,-25.200001,-30.309999,1729471783062.0,0.0
-4.053442,-8.829515,-0.600598,-69.230003,-31.219999,-31.15,1729471783082.0,0.0
-4.584648,-8.398808,-1.76351,-80.5,-33.670002,-31.01,1729471783105.0,0.0
-4.388437,-8.360522,-3.122634,-107.660004,-36.119999,-34.369999,1729471783123.0,0.0
-3.512664,-8.745767,-5.740381,-91.910004,-33.880001,-31.290001,1729471783145.0,0.0
-2.701497,-8.248059,-8.484949,-18.549999,-18.690001,-21.42,1729471783163.0,0.0
-3.531806,-6.149554,-8.305488,89.669998,14.0,9.52,1729471783182.0,0.0
-5.146961,-8.054241,-5.367101,61.670002,27.09,8.61,1729471783203.0,0.0
-4.819145,-8.520842,-7.161718,20.58,23.1,-10.85,1729471783223.0,0.0
-4.905287,-9.695717,-5.781059,5.25,26.6,2.87,1729471783245.0,0.0
-3.414558,-10.540384,-6.305088,28.210001,7.77,-14.98,1729471783262.0,0.0
-2.778067,-9.506684,-5.766702,87.010002,12.74,-13.37,1729471783290.0,0.0
-4.010371,-7.879565,-2.821138,162.399994,43.189999,-10.64,1729471783304.0,0.0
-4.986642,-6.278766,-1.20359,120.610001,43.189999,-9.73,1729471783323.0,0.0
-4.254438,-6.211767,-0.287139,56.490002,31.08,-14.91,1729471783346.0,0.0
-2.426322,-7.599605,-1.691726,28.0,26.6,-21.0,1729471783363.0,0.0
-1.040878,-7.76471,-1.194018,20.790001,37.939999,-16.17,1729471783383.0,0.0
-1.823331,-8.516055,1.462015,41.02,40.25,5.74,1729471783404.0,0.0
-1.962115,-7.676175,1.081556,97.300003,37.939999,24.710001,1729471783422.0,0.0
-2.368894,-7.628319,3.65384,161.910004,32.830002,46.549999,1729471783444.0,0.0
-3.907479,-7.67139,4.706682,175.0,16.1,48.439999,1729471783469.0,0.0
-4.201797,-7.874779,3.883551,174.020004,1.82,58.73,1729471783483.0,0.0
-4.352544,-8.329416,3.828516,127.470001,-13.79,50.610001,1729471783504.0,0.0
-4.493721,-9.523434,2.801995,67.199997,-21.210001,50.189999,1729471783523.0,0.0
-3.917051,-9.903893,1.679761,30.52,-23.24,45.920002,1729471783547.0,0.0
-3.828516,-11.516656,-0.397209,-4.2,-18.83,35.279999,1729471783564.0,0.0
-4.333402,-11.387443,-1.0002,-30.309999,-12.32,21.07,1729471783584.0,0.0
-5.149354,-12.268002,-0.59342,-32.27,-4.13,11.69,1729471783603.0,0.0
-5.922236,-11.63869,0.777667,-38.779999,-7.56,-14.07,1729471783623.0,0.0
-5.883951,-10.241282,-0.172283,-75.25,-9.59,-32.549999,1729471783648.0,0.0
-3.862016,-9.98525,-1.909473,-109.129997,-17.639999,-52.990002,1729471783663.0,0.0
-2.87378,-8.80798,-2.069792,-124.809998,-14.56,-60.760002,1729471783684.0,0.0
-4.847858,-9.74836,-0.897308,-131.25,7.91,-53.619999,1729471783704.0,0.0
-5.431707,-8.13799,0.07657,-157.850006,17.290001,-65.519997,1729471783724.0,0.0
-4.022335,-6.273981,-0.674776,-205.589996,-18.129999,-64.610001,1729471783747.0,0.0
-2.821138,-6.094519,-2.634498,-259.839996,-35.560001,-62.860001,1729471783764.0,0.0
-2.866602,-6.355337,-2.943172,-315.910004,-21.77,-64.330002,1729471783783.0,0.0
-4.091727,-5.766702,-3.517449,-368.829987,-3.57,-67.620003,1729471783804.0,0.0
-5.627919,-9.24826,-5.754738,-401.519989,-4.69,-69.160004,1729471783824.0,0.0
-4.680361,-7.755138,-7.116255,-376.529999,-18.48,-79.379997,1729471783848.0,0.0
-3.529413,-6.63769,-8.496914,-263.619995,-23.1,-53.34,1729471783865.0,0.0
-3.081956,-4.924429,-8.815158,-214.410004,-0.49,-54.18,1729471783886.0,0.0
-3.084348,-6.116055,-9.913465,-186.970001,27.65,-33.25,1729471783908.0,0.0
-1.974079,-6.558727,-9.801002,-146.649994,25.549999,-21.139999,1729471783925.0,0.0
-2.124826,-5.642276,-8.970692,-83.019997,35.279999,-12.53,1729471783946.0,0.0
-1.540978,-6.628119,-10.147961,-11.34,31.57,-3.22,1729471783965.0,0.0
-0.650848,-6.501299,-10.571491,93.519997,31.08,5.53,1729471783997.0,0.0
-0.969093,-5.235496,-7.334002,193.830002,38.43,17.57,1729471784005.0,0.0
-0.385244,-5.694918,-6.080163,255.639999,28.559999,17.01,1729471784024.0,0.0
-0.648455,-5.728417,-4.828716,263.200012,24.639999,19.18,1729471784047.0,0.0
-0.851845,-7.267002,-5.201996,268.029999,17.99,25.34,1729471784065.0,0.0
-0.167498,-8.23131,-5.491528,320.600006,5.81,36.259998,1729471784085.0,0.0
0.842274,-8.396415,-5.960521,408.589996,3.08,50.400002,1729471784104.0,0.0
0.756132,-8.12124,-5.304887,481.880005,23.24,63.490002,1729471784127.0,0.0
0.241675,-7.209574,-3.505485,526.470032,43.889999,71.540001,1729471784147.0,0.0
-0.497707,-5.359922,-0.904487,560.77002,51.029999,87.57,1729471784164.0,0.0
-1.909473,-3.85723,3.005385,531.090027,60.619999,89.459999,1729471784189.0,0.0
-3.701697,-4.740182,5.534599,410.829987,59.080002,79.029999,1729471784205.0,0.0
-5.577669,-5.355137,9.279366,151.479996,52.360001,59.990002,1729471784225.0,0.0
-7.216753,-8.147561,7.066005,-83.440002,11.27,41.02,1729471784250.0,0.0
-6.041877,-12.050256,3.924229,-181.300003,-21.91,25.969999,1729471784267.0,0.0
-4.151547,-12.732209,1.926222,-172.690002,-29.049999,11.9,1729471784285.0,0.0
-4.101298,-12.796815,0.344566,-148.75,-17.43,0.28,1729471784305.0,0.0
-3.845266,-11.315658,-1.304088,-156.240005,-10.01,-19.040001,1729471784325.0,0.0
-3.098706,-8.982656,-2.663212,-183.610001,0.14,-32.200001,1729471784345.0,0.0
-3.940979,-8.032705,0.399601,-218.540009,12.32,-33.32,1729471784369.0,0.0
-4.922036,-9.111869,-0.083749,-280.630005,7.84,-39.900002,1729471784396.0,0.0
-4.527221,-10.212566,1.330409,-304.5,-17.15,-54.110001,1729471784405.0,0.0
-3.366701,-9.348758,-0.399601,-293.720001,-38.360001,-61.950001,1729471784425.0,0.0
-2.342573,-6.678369,-0.928415,-320.040009,-46.970001,-71.959999,1729471784446.0,0.0
-2.100898,-5.4676,-2.40718,-376.809998,-43.470001,-76.440002,1729471784465.0,0.0
-2.115255,-5.831308,-5.910272,-442.679993,-37.799999,-85.75,1729471784485.0,0.0
-2.478964,-5.448457,-6.52762,-466.410004,-32.27,-76.790001,1729471784504.0,0.0
-2.366502,-6.144768,-8.336594,-412.160004,-29.049999,-64.540001,1729471784525.0,0.0
-1.646262,-3.948158,-8.173882,-288.820007,-31.290001,-48.369999,1729471784546.0,0.0
-2.227718,-2.969493,-7.666604,-209.229996,-19.040001,-33.529999,1729471784564.0,0.0
-1.624727,-5.898308,-10.052249,-188.160004,-33.950001,-22.190001,1729471784585.0,0.0
-1.11027,-8.779266,-10.815558,-115.849998,-34.16,-8.19,1729471784605.0,0.0
-1.205983,-7.802995,-11.282159,20.51,-28.280001,-0.7,1729471784624.0,0.0
-1.758725,-5.737988,-11.485549,135.869995,-15.190001,4.69,1729471784645.0,0.0
-2.321038,-5.733203,-9.750752,199.779999,-3.92,16.309999,1729471784664.0,0.0
-2.620141,-7.530212,-9.028119,253.540009,-3.36,22.049999,1729471784685.0,0.0
-2.445465,-8.123632,-9.08794,319.480011,-0.49,20.299999,1729471784705.0,0.0
-2.502892,-7.034898,-8.571091,408.23999,8.33,26.530001,1729471784724.0,0.0
-3.404987,-7.240681,-9.403792,515.970032,21.210001,54.950001,1729471784748.0,0.0
-3.850052,-6.18784,-6.817152,618.169983,38.290001,85.889999,1729471784765.0,0.0
-4.661219,-4.407579,-2.416751,640.01001,72.800003,68.529999,1729471784785.0,0.0
-7.032506,-2.816352,3.014957,542.220032,94.639999,58.52,1729471784805.0,0.0
-8.408379,-4.457829,3.471986,430.149994,63.560001,65.239998,1729471784824.0,0.0
-6.312266,-6.707082,2.392823,338.380005,22.68,45.290001,1729471784846.0,0.0
-4.565506,-7.501499,2.849852,314.440002,27.02,32.130001,1729471784864.0,0.0
-4.797609,-8.453842,2.725425,314.860016,48.16,35.139999,1729471784885.0,0.0
-3.876373,-5.881558,5.316852,190.119995,59.43,12.32,1729471784909.0,0.0
-3.237489,-8.997013,9.879964,18.549999,33.670002,-1.82,1729471784924.0,0.0
-3.74716,-11.684153,5.558527,-161.139999,-1.4,-24.290001,1729471784946.0,0.0
-3.845266,-11.952149,3.168097,-215.180008,-8.96,-35.700001,1729471784964.0,0.0
-4.012764,-8.571091,3.062813,-238.630005,12.18,-53.060001,1729471784983.0,0.0
-4.448257,-8.097312,3.220739,-289.23999,13.37,-58.099998,1729471785005.0,0.0
-3.59402,-8.506484,3.175276,-375.480011,-6.72,-71.610001,1729471785024.0,0.0
-2.842674,-8.520842,1.674976,-444.429993,-29.4,-80.220001,1729471785046.0,0.0
-1.548156,-8.403593,-1.476372,-424.619995,-48.439999,-89.110001,1729471785064.0,0.0
-0.964308,-8.140383,-3.101098,-364.350006,-44.310001,-78.68,1729471785086.0,0.0
-1.07677,-6.762117,-4.465007,-368.410004,-26.950001,-78.400002,1729471785104.0,0.0
-1.694118,-7.896315,-6.046663,-401.869995,-10.43,-87.779999,1729471785124.0,0.0
-2.885744,-8.843873,-6.532406,-462.070007,1.89,-88.550003,1729471785146.0,0.0
-4.012764,-8.836694,-5.757132,-483.910004,-4.41,-105.419998,1729471785164.0,0.0
-2.565106,-4.924429,-6.943972,-383.25,-23.24,-92.260002,1729471785185.0,0.0
-2.723032,-3.74716,-5.422136,-253.330002,-17.219999,-50.540001,1729471785204.0,0.0
-3.706482,-5.704489,-9.221939,-146.300003,-8.61,-41.860001,1729471785225.0,0.0
-4.199404,-5.06082,-10.159925,14.14,-14.42,-10.99,1729471785245.0,0.0
-4.177868,-3.771089,-8.908479,30.17,-3.71,-0.14,1729471785264.0,0.0
-3.735196,-3.881158,-8.008778,-24.85,0.77,4.13,1729471785284.0,0.0
-2.275574,-5.575277,-9.272188,-56.77,-1.68,13.79,1729471785305.0,0.0
-1.859223,-5.828916,-10.114462,-24.08,3.85,23.1,1729471785325.0,0.0
-2.139183,-6.89133,-10.753345,37.59,12.53,23.59,1729471785347.0,0.0
-1.978864,-7.01097,-10.413565,107.590004,18.83,16.379999,1729471785364.0,0.0
-1.765903,-6.185446,-9.052048,187.949997,22.049999,20.790001,1729471785384.0,0.0
-1.658226,-5.802595,-7.881958,236.949997,22.540001,23.309999,1729471785404.0,0.0
-0.918844,-6.833901,-7.893922,288.890015,13.16,27.440001,1729471785424.0,0.0
-0.057428,-8.056634,-7.271788,397.459991,4.97,43.330002,1729471785447.0,0.0
0.425922,-9.410972,-6.053841,548.799988,11.13,67.620003,1729471785463.0,0.0
0.404387,-8.044669,-4.790431,653.099976,30.450001,64.959999,1729471785484.0,0.0
-0.5001,-5.300103,-2.043471,670.880005,50.959999,69.650002,1729471785512.0,0.0
-0.72024,-4.441079,1.531406,585.690002,51.170002,75.949997,1729471785524.0,0.0
-0.691526,-3.917051,4.599005,450.869995,54.459999,64.889999,1729471785545.0,0.0
-4.59422,-6.329016,6.987042,230.860001,50.470001,56.84,1729471785566.0,0.0
-4.694718,-7.467999,6.936793,141.610001,28.42,40.529999,1729471785585.0,0.0
-4.386044,-7.922636,7.238289,108.220001,15.89,39.759998,1729471785606.0,0.0
-4.460221,-7.700103,6.635297,94.57,6.02,43.330002,1729471785625.0,0.0
-4.098906,-7.843673,5.436492,57.75,1.26,37.099998,1729471785646.0,0.0
-3.744767,-9.224331,5.979663,29.68,-1.19,31.92,1729471785665.0,0.0
-4.189832,-8.207381,7.085148,10.71,0.7,24.5,1729471785686.0,0.0
-4.290331,-8.614161,7.216753,-27.93,-14.21,21.35,1729471785705.0,0.0
-4.065405,-8.496914,6.963113,-30.66,-28.98,18.129999,1729471785725.0,0.0
-4.943572,-8.008778,7.67139,-25.059999,-32.619999,20.65,1729471785746.0,0.0
-5.831308,-7.001399,5.919843,-100.940002,-34.299999,4.83,1729471785765.0,0.0
-5.436492,-3.165704,1.756332,-187.529999,-25.620001,3.64,1729471785786.0,0.0
-5.871986,-3.129812,-0.806381,-244.649994,5.46,18.620001,1729471785806.0,0.0
-5.65424,-2.529213,-0.399601,-332.290009,29.120001,1.4,1729471785826.0,0.0
-5.221139,-4.240082,-4.141976,-436.380005,17.639999,4.41,1729471785846.0,0.0
-4.551149,-9.281759,-6.690332,-451.360016,-1.82,9.38,1729471785866.0,0.0
-4.469792,-8.039884,-7.075576,-417.200012,3.78,-1.12,1729471785886.0,0.0
-4.756931,-5.391029,-7.475177,-391.929993,2.17,2.87,1729471785910.0,0.0
-3.902694,-5.249853,-9.669396,-423.149994,-12.25,-8.26,1729471785926.0,0.0
-3.005385,-8.79123,-11.688939,-467.25,-13.23,-27.440001,1729471785947.0,0.0
-2.143969,-11.083554,-10.755738,-391.299988,-9.45,-42.630001,1729471785965.0,0.0
-2.770889,-9.379865,-8.930015,-254.309998,0.35,-42.420002,1729471785987.0,0.0
-2.76371,-6.410372,-9.279366,-172.059998,2.17,-46.130001,1729471786007.0,0.0
-1.457229,-4.591826,-10.705488,-167.369995,4.9,-49.07,1729471786027.0,0.0
-2.59382,-4.07737,-8.078169,-178.990005,16.379999,-32.130001,1729471786058.0,0.0
-2.9336,-3.680161,-9.772287,-160.089996,27.860001,-27.719999,1729471786068.0,0.0
-3.976871,-4.737789,-9.351151,-144.130005,31.85,-11.62,1729471786086.0,0.0
-4.651647,-7.972885,-9.793823,-144.759995,36.049999,-20.51,1729471786107.0,0.0
-3.991228,-7.357929,-9.942179,-112.0,33.110001,-22.610001,1729471786126.0,0.0
-3.864408,-6.21416,-9.425328,-36.189999,38.709999,-31.710001,1729471786148.0,0.0
-4.266403,-4.027121,-8.707481,4.76,41.650002,-31.85,1729471786166.0,0.0
-3.972085,-4.438686,-8.506484,1.89,40.25,-25.41,1729471786186.0,0.0
-3.538985,-4.996214,-7.920243,-8.61,39.689999,-23.24,1729471786206.0,0.0
-3.943372,-4.625326,-6.623333,-6.72,37.59,-18.34,1729471786231.0,0.0
-3.567699,-4.156333,-6.608976,12.81,26.460001,-20.65,1729471786249.0,0.0
-2.488536,-4.453043,-8.389235,14.0,14.91,-16.940001,1729471786266.0,0.0
-2.734996,-5.826523,-9.911072,18.34,17.08,-15.26,1729471786286.0,0.0
-2.63689,-5.197211,-8.135597,49.84,18.9,-21.35,1729471786307.0,0.0
-2.644069,-5.096712,-8.73141,69.93,16.450001,-28.49,1729471786326.0,0.0
-1.268196,-2.883351,-10.794022,86.169998,12.46,-32.970001,1729471786350.0,0.0
0.172283,-1.914258,-10.581062,78.400002,10.99,-25.059999,1729471786365.0,0.0
0.579063,-2.268396,-11.779866,71.610001,17.99,-14.7,1729471786386.0,0.0
1.342373,-0.050249,-11.952149,119.840004,18.059999,4.48,1729471786407.0,0.0
0.547956,1.414158,-9.750752,158.410004,17.780001,27.02,1729471786426.0,0.0
-1.392623,-0.332602,-5.539384,133.139999,28.91,36.470001,1729471786447.0,0.0
-6.082555,-4.055835,0.674776,52.849998,25.41,42.77,1729471786466.0,0.0
-5.496314,-7.336394,-6.26441,71.540001,-25.41,46.549999,1729471786486.0,0.0
-3.036492,-4.350152,-7.759924,-56.77,-38.709999,30.1,1729471786506.0,0.0
-4.106083,-5.245068,-10.262815,-208.460007,-10.92,40.529999,1729471786526.0,0.0
-4.472186,-12.332609,-11.112268,-242.970001,7.21,6.37,1729471786558.0,0.0
-3.383451,-13.746766,-10.054641,-123.340004,-3.57,-8.19,1729471786568.0,0.0
-3.287738,-9.772287,-8.937192,55.720001,-11.97,-15.61,1729471786588.0,0.0
-3.23031,-6.525227,-8.49452,102.760002,-11.06,-30.870001,1729471786607.0,0.0
-1.751546,-5.02732,-9.750752,56.209999,-25.690001,-44.799999,1729471786626.0,0.0
-0.787239,-5.024928,-10.82513,-13.3,-23.73,-49.420002,1729471786648.0,0.0
-1.210768,-5.072784,-10.296316,-19.809999,6.58,-48.369999,1729471786666.0,0.0
-1.782653,-1.622334,-8.987441,38.150002,30.450001,-25.620001,1729471786686.0,0.0
-2.325824,-1.06002,-11.770294,101.010002,26.32,17.219999,1729471786707.0,0.0
-1.289732,-3.586841,-13.205987,111.650002,44.73,20.02,1729471786727.0,0.0
-0.248854,-5.625526,-10.942378,173.460007,60.830002,30.52,1729471786749.0,0.0
-0.815953,1.014557,-6.692725,215.460007,78.610001,46.689999,1729471786767.0,0.0
-3.639483,-2.56032,-6.317052,158.830002,82.18,53.900002,1729471786786.0,0.0
-2.490928,-7.834101,-6.281159,122.43,60.900002,46.48,1729471786863.0,0.0
-1.098306,-8.800802,-5.613562,197.539993,46.830002,51.029999,1729471786863.0,0.0
-2.043471,-8.831908,-1.009771,265.019989,52.57,49.98,1729471786867.0,0.0
-2.768496,-7.970492,-1.366302,259.140015,34.580002,36.049999,1729471786870.0,0.0
-2.143969,-9.623933,-1.770689,216.509995,9.59,30.59,1729471786886.0,0.0
-2.397608,-11.404193,-0.571885,168.070007,1.26,21.49,1729471786909.0,0.0
-3.206382,-11.021341,-0.358923,82.739998,2.73,-5.53,1729471786926.0,0.0
-2.287539,-10.849058,-0.713061,23.52,-20.65,-4.9,1729471786958.0,0.0
-0.339781,-11.799009,-0.557528,30.24,-33.950001,-16.940001,1729471786966.0,0.0
-1.383051,-10.25803,1.651048,45.920002,-28.07,-18.34,1729471786986.0,0.0
-1.677369,-8.118847,1.68694,49.630001,-44.029999,-14.49,1729471787007.0,0.0
-1.785046,-7.630712,0.935594,7.21,-65.449997,-7.42,1729471787025.0,0.0
-1.440479,-8.80798,-0.334995,-44.099998,-80.43,-13.58,1729471787049.0,0.0
-1.160519,-8.470592,-0.193819,-66.57,-89.529999,-8.89,1729471787067.0,0.0
-2.0004,-8.087741,-1.945365,-68.18,-88.269997,3.01,1729471787086.0,0.0
-3.428915,-8.829515,-5.465207,-62.93,-79.800003,9.87,1729471787106.0,0.0
-5.12782,-10.277173,-7.381857,-39.619999,-57.68,11.48,1729471787126.0,0.0
-6.568298,-10.717452,-9.21476,23.450001,-27.09,15.89,1729471787147.0,0.0
-6.250053,-8.941978,-7.281359,118.230003,1.26,15.26,1729471787166.0,0.0
-5.79781,-7.365108,-5.010571,141.119995,5.6,16.870001,1729471787186.0,0.0
-4.82393,-7.348359,-2.404787,124.389999,7.21,5.67,1729471787206.0,0.0
-3.371487,-6.168696,-1.825724,43.189999,-0.07,-2.24,1729471787226.0,0.0
-2.979064,-5.625526,-2.739782,-30.59,-2.94,7.63,1729471787257.0,0.0
-2.732604,-6.659225,-3.897908,-69.650002,-7.84,10.43,1729471787266.0,0.0
-1.921437,-5.84088,-2.565106,-83.93,-26.74,11.76,1729471787286.0,0.0
-1.909473,-5.4341,-2.615355,-130.690002,-20.93,17.08,1729471787307.0,0.0
-3.120241,-5.584848,-4.15394,-215.180008,-19.950001,17.85,1729471787326.0,0.0
-3.316452,-7.666604,-6.958328,-287.839996,-29.26,10.92,1729471787347.0,0.0
-2.371287,-6.975078,-7.989635,-265.230011,-24.85,7.49,1729471787365.0,0.0
-2.880959,-5.525027,-9.863215,-246.75,-7.77,18.83,1729471787387.0,0.0
-3.220739,-7.386643,-9.815358,-319.829987,9.1,-4.62,1729471787406.0,0.0
-2.617748,-9.853643,-10.028319,-268.940002,11.62,-12.25,1729471787430.0,0.0
-1.165305,-7.118648,-9.913465,-167.930008,13.37,-11.9,1729471787450.0,0.0
-1.696511,-4.960321,-8.152347,-132.720001,15.96,-5.88,1729471787466.0,0.0
-1.770689,-6.573084,-8.374879,-165.970001,9.24,-15.61,1729471787486.0,0.0
-1.555335,-6.982256,-8.415558,-167.720001,2.94,-14.28,1729471787506.0,0.0
-2.163112,-4.843073,-8.743374,-106.260002,7.0,-5.25,1729471787526.0,0.0
-3.665804,-1.715654,-8.087741,-66.080002,10.43,17.639999,1729471787554.0,0.0
-4.658825,-1.959722,-8.451449,-117.389999,12.53,16.73,1729471787566.0,0.0
-3.74716,-4.024727,-10.188639,-154.419998,6.23,22.049999,1729471787588.0,0.0
-3.471986,-4.910072,-9.671788,-147.839996,4.69,21.280001,1729471787607.0,0.0
-3.641876,-5.986843,-9.41815,-97.370003,-0.42,18.969999,1729471787626.0,0.0
-3.68734,-4.591826,-9.01137,-35.84,0.07,19.040001,1729471787649.0,0.0
-3.326023,-4.249653,-8.906086,-14.77,-1.19,19.040001,1729471787669.0,0.0
-3.141776,-4.012764,-8.480164,-5.88,-2.24,19.25,1729471787686.0,0.0
-3.438486,-3.881158,-9.073583,4.97,-2.52,22.190001,1729471787708.0,0.0
-3.395415,-4.87418,-9.925428,12.18,0.7,23.030001,1729471787727.0,0.0
-3.419343,-3.739982,-8.987441,33.25,3.22,22.960001,1729471787748.0,0.0
-3.503092,-3.754339,-8.896514,34.580002,4.2,17.780001,1729471787767.0,0.0
-2.550749,-5.24746,-9.839286,18.27,0.63,-3.64,1729471787787.0,0.0
-2.926422,-3.517449,-10.51167,25.690001,2.52,-13.440001,1729471787807.0,0.0
-3.314059,-2.725425,-10.894521,20.16,8.47,-24.85,1729471787828.0,0.0
-3.424129,-3.309274,-9.695717,20.16,14.0,-34.369999,1729471787849.0,0.0
-3.675375,-2.469393,-8.745767,35.84,15.4,-39.34,1729471787867.0,0.0
-3.201597,-2.007578,-9.650253,46.549999,10.85,-30.17,1729471787887.0,0.0
-2.634498,-1.885544,-9.470792,55.720001,13.02,-26.67,1729471787914.0,0.0
-2.589034,-3.95055,-11.028521,53.130001,16.66,-26.950001,1729471787928.0,0.0
-2.715853,-3.974478,-10.047462,71.75,27.860001,-21.139999,1729471787949.0,0.0
-2.95035,-3.148954,-9.128618,131.740005,28.139999,0.77,1729471787968.0,0.0
-2.845066,-2.584249,-7.80778,141.190002,26.67,0.07,1729471787987.0,0.0
-3.48395,-2.971886,-8.197811,131.389999,21.91,6.44,1729471788010.0,0.0
-3.627519,-6.029913,-9.466006,124.669998,22.82,3.15,1729471788029.0,0.0
-2.787638,-7.817351,-8.889337,169.050003,19.879999,6.86,1729471788050.0,0.0
-2.629712,-4.957928,-6.874579,268.940002,33.32,15.68,1729471788068.0,0.0
-2.017149,-2.785245,-6.439085,228.550003,30.73,19.18,1729471788088.0,0.0
-1.696511,-4.488935,-6.197411,140.490005,33.670002,29.469999,1729471788109.0,0.0
-1.215554,-8.559127,-6.640083,95.760002,38.360001,23.66,1729471788128.0,0.0
-1.29691,-9.908678,-7.695317,144.059998,44.099998,27.23,1729471788152.0,0.0
-1.505085,-7.463214,-5.113462,229.880005,57.049999,35.279999,1729471788169.0,0.0
-1.818545,-8.324631,-4.039084,252.0,59.150002,35.07,1729471788188.0,0.0
-1.974079,-9.875179,-1.552942,219.029999,53.34,21.77,1729471788219.0,0.0
-1.505085,-8.047063,-0.655633,197.119995,45.080002,15.33,1729471788230.0,0.0
-1.284946,-8.149954,0.337388,164.570007,36.470001,10.99,1729471788249.0,0.0
-1.639083,-8.587841,0.792024,133.350006,19.25,9.03,1729471788273.0,0.0
-1.411765,-7.503892,0.62692,121.029999,7.77,10.5,1729471788288.0,0.0
-1.497907,-7.580462,0.050249,112.0,-4.76,20.09,1729471788309.0,0.0
-1.727618,-9.169296,0.014357,115.639999,-14.42,27.58,1729471788328.0,0.0
-2.333002,-10.853845,-0.57667,118.650002,-18.41,29.4,1729471788350.0,0.0
-3.270989,-10.832308,-0.497707,92.050003,-14.63,14.14,1729471788367.0,0.0
-3.917051,-9.750752,0.473779,50.189999,-9.52,10.92,1729471788389.0,0.0
-3.117848,-10.691131,-1.088734,-14.28,-22.75,1.54,1729471788408.0,0.0
-3.007778,-9.769895,-1.722832,-15.82,-14.56,-0.35,1729471788428.0,0.0
-3.084348,-10.229317,-1.371087,-16.24,-7.56,-2.73,1729471788450.0,0.0
-3.177669,-11.102697,-0.897308,9.8,-14.56,-3.43,1729471788468.0,0.0
-3.553342,-11.081161,-0.619741,72.800003,-14.98,0.35,1729471788488.0,0.0
-3.981657,-10.614561,0.038285,124.809998,-12.46,0.98,1729471788509.0,0.0
-3.29731,-9.394222,-0.16989,146.160004,-12.32,-13.09,1729471788528.0,0.0
-4.369294,-8.042276,1.545763,121.099998,2.31,-3.57,1729471788550.0,0.0
