acc_x,acc_y,acc_z,gyr_x,gyr_y,gyr_z,timestamp,label
-2.677568,-11.868401,-5.056034,-117.040001,-32.200001,130.759995,1729414671835.0,0.0
-3.067599,-12.725031,-4.87418,-127.120003,-19.040001,120.959999,1729414671836.0,0.0
-3.256632,-11.79183,-4.845466,-125.160004,-17.43,111.650002,1729414671836.0,0.0
-2.806781,-11.736795,-5.776274,-123.129997,-22.120001,96.040001,1729414671836.0,0.0
-2.041078,-13.24906,-6.534799,-112.07,-15.68,69.650002,1729414671845.0,0.0
-2.182254,-16.386049,-6.618547,-67.620003,-5.11,50.82,1729414671866.0,0.0
-1.227518,-17.776279,-7.487142,-4.41,5.46,9.1,1729414671886.0,0.0
-1.28016,-11.710474,-5.802595,103.040001,7.98,-13.65,1729414671906.0,0.0
-1.507478,-7.970492,-3.742374,115.639999,16.450001,-7.63,1729414671926.0,0.0
-2.033899,-7.948956,-3.038885,50.540001,22.540001,-9.17,1729414671946.0,0.0
-2.340181,-7.84128,-3.550949,5.46,29.4,-15.4,1729414671966.0,0.0
-3.175276,-7.477571,-4.051049,2.73,27.58,-9.52,1729414671985.0,0.0
-4.086941,-6.927221,-4.31426,14.35,13.72,-11.69,1729414672006.0,0.0
-4.297509,-6.171089,-4.235296,-13.16,2.03,-13.09,1729414672026.0,0.0
-4.768896,-5.618347,-4.101298,-64.540001,1.05,-8.05,1729414672045.0,0.0
-5.613562,-5.623133,-4.563113,-114.449997,0.77,-3.29,1729414672066.0,0.0
-6.192625,-6.106483,-5.276174,-137.410004,-1.68,-1.61,1729414672085.0,0.0
-6.096912,-6.321837,-5.582455,-123.690002,-3.64,0.49,1729414672106.0,0.0
-6.082555,-6.379266,-5.484349,-80.849998,-0.14,4.9,1729414672126.0,0.0
-6.491727,-6.474977,-5.429315,-36.259998,3.29,7.7,1729414672145.0,0.0
-6.599405,-5.694918,-5.484349,-4.06,-1.82,5.88,1729414672166.0,0.0
-7.128219,-5.326423,-5.245068,-14.35,-2.38,5.11,1729414672186.0,0.0
-7.817351,-5.120641,-5.132604,-53.549999,2.03,3.15,1729414672205.0,0.0
-8.365308,-5.312066,-5.079963,-82.529999,-3.99,2.59,1729414672226.0,0.0
-8.599805,-5.405386,-5.52742,-96.809998,-10.85,-0.56,1729414672245.0,0.0
-8.542377,-4.895715,-5.991628,-103.599998,-14.63,-2.45,1729414672265.0,0.0
-8.504091,-4.488935,-6.757331,-99.68,-19.950001,0.14,1729414672285.0,0.0
-8.094919,-4.347759,-6.958328,-90.300003,-24.43,5.6,1729414672305.0,0.0
-7.755138,-4.139583,-6.360123,-83.93,-17.01,11.06,1729414672327.0,0.0
-7.611568,-5.417351,-6.549156,-22.540001,0.77,14.7,1729414672345.0,0.0
-7.532606,-7.252645,-6.941578,92.75,19.32,15.61,1729414672366.0,0.0
-6.843473,-10.614561,-8.930015,261.589996,36.610001,13.51,1729414672386.0,0.0
-6.9344,-7.666604,-7.338787,398.019989,51.799999,-12.74,1729414672407.0,0.0
-8.200203,-5.197211,-3.091527,527.169983,70.07,14.84,1729414672427.0,0.0
-7.80778,-3.311667,-1.823331,571.970032,66.989998,46.48,1729414672445.0,0.0
-6.300302,-6.709475,2.706282,513.309998,55.02,57.959999,1729414672467.0,0.0
-4.503292,-0.837488,7.49432,325.98999,42.279999,20.370001,1729414672486.0,0.0
-3.991228,-7.013363,6.149554,198.800003,15.26,30.1,1729414672506.0,0.0
-2.380858,-10.317852,2.304288,190.470001,-7.77,38.360001,1729414672525.0,0.0
-2.478964,-11.227123,1.710868,225.050003,-1.05,36.610001,1729414672545.0,0.0
-5.395815,-8.592626,3.711268,279.649994,21.629999,42.490002,1729414672569.0,0.0
-6.814759,-7.393822,3.175276,249.479996,12.95,39.619999,1729414672585.0,0.0
-4.962714,-7.357929,1.689333,196.559998,-2.45,24.99,1729414672606.0,0.0
-5.556134,-7.609176,2.031506,183.330002,7.98,32.970001,1729414672626.0,0.0
-6.12084,-5.532206,2.17029,160.720001,13.37,32.830002,1729414672644.0,0.0
-6.563512,-6.592227,2.165504,107.800003,4.27,29.960001,1729414672666.0,0.0
-6.793223,-6.089733,1.100698,22.75,-1.68,16.870001,1729414672686.0,0.0
-8.453842,-7.355537,2.254039,20.860001,-0.49,27.65,1729414672705.0,0.0
-7.800602,-7.250252,2.734996,28.280001,6.16,23.1,1729414672726.0,0.0
-8.956335,-6.379266,3.60359,11.69,10.5,22.610001,1729414672746.0,0.0
-9.219545,-4.73061,4.240082,-34.369999,1.89,11.62,1729414672765.0,0.0
-8.204988,-4.158726,2.87378,-88.550003,-14.91,-8.26,1729414672787.0,0.0
-7.874779,-4.811966,0.959522,-117.809998,-13.93,-24.219999,1729414672805.0,0.0
-8.54477,-3.486342,3.78066,-141.190002,-6.3,-21.49,1729414672828.0,0.0
-7.06122,-1.651048,1.777867,-169.960007,-17.780001,-8.75,1729414672845.0,0.0
-6.458229,0.519243,2.380858,-227.290009,-16.379999,12.53,1729414672867.0,0.0
-6.405586,0.531207,-0.684347,-335.440002,-27.58,22.889999,1729414672886.0,0.0
-7.113862,-1.701297,-3.148954,-401.519989,-38.150002,29.540001,1729414672905.0,0.0
-9.872787,-4.161119,-2.455036,-452.200012,-54.389999,41.790001,1729414672926.0,0.0
-9.698111,-2.840281,-4.981857,-461.299988,-77.139999,43.889999,1729414672945.0,0.0
-8.817552,-2.227718,-10.013963,-450.589996,-64.610001,62.299999,1729414672966.0,0.0
-9.738789,-4.986642,-12.780065,-447.369995,-35.84,60.760002,1729414672986.0,0.0
-4.168297,-9.29133,-11.846866,-546.909973,-19.879999,-2.66,1729414673005.0,0.0
-8.176274,-5.855237,-3.744767,-194.669998,11.27,61.880001,1729414673028.0,0.0
-10.284351,-2.711068,-5.371887,-263.619995,11.48,35.98,1729414673044.0,0.0
-8.008778,-7.685746,-4.735396,-270.480011,-12.95,27.23,1729414673066.0,0.0
-7.666604,-1.761117,-9.576077,-206.5,-11.97,28.139999,1729414673087.0,0.0
-10.064213,-2.498107,-11.954542,-169.889999,30.450001,31.99,1729414673105.0,0.0
-8.626125,-3.105884,-10.887343,-136.009995,58.029999,37.029999,1729414673126.0,0.0
-4.773681,-5.072784,-6.649654,-146.509995,48.580002,9.73,1729414673153.0,0.0
-6.003592,-3.797409,-9.58804,-115.709999,46.900002,24.780001,1729414673165.0,0.0
-8.214561,-4.649254,-12.335001,-118.440002,78.330002,16.450001,1729414673185.0,0.0
-10.942378,-6.534799,5.56092,-136.850006,89.949997,9.94,1729414673207.0,0.0
-8.094919,-10.621738,-5.919843,-157.430008,50.400002,-2.87,1729414673228.0,0.0
-6.419943,-12.114861,-13.016955,-42.490002,43.540001,-20.440001,1729414673245.0,0.0
-7.52782,-5.903094,-8.68116,117.809998,63.560001,-16.17,1729414673267.0,0.0
-7.140182,-2.691926,-6.379266,166.039993,78.190002,-18.129999,1729414673285.0,0.0
-5.690133,-0.375673,-6.388836,154.490005,76.019997,-5.74,1729414673306.0,0.0
-5.012963,0.107677,-8.147561,145.389999,62.580002,-2.17,1729414673326.0,0.0
-6.288338,0.315853,-7.496714,83.93,53.689999,-16.450001,1729414673346.0,0.0
-7.872386,-0.581456,-7.089933,5.95,54.810001,-29.960001,1729414673368.0,0.0
-8.047063,-2.230111,-7.267002,-57.959999,54.110001,-40.25,1729414673386.0,0.0
-8.274381,-4.412365,-6.570691,-84.209999,59.709999,-47.599998,1729414673405.0,0.0
-7.628319,-3.381058,-7.092326,-63.560001,60.34,-54.599998,1729414673428.0,0.0
-7.226324,-2.242075,-7.008578,-45.849998,56.209999,-50.540001,1729414673446.0,0.0
-6.506085,-3.129812,-7.826923,-48.299999,57.049999,-53.900002,1729414673467.0,0.0
-5.644669,-3.699304,-7.549356,-26.110001,55.510002,-61.18,1729414673485.0,0.0
-4.835894,-1.962115,-6.355337,23.59,41.93,-59.220001,1729414673507.0,0.0
-4.173083,-1.756332,-5.771489,49.98,22.190001,-52.150002,1729414673527.0,0.0
-2.368894,-1.122234,-5.647062,45.080002,5.6,-49.07,1729414673546.0,0.0
-0.758525,-1.938186,-4.814359,49.420002,-13.02,-23.870001,1729414673570.0,0.0
0.42353,-4.414758,-8.245667,112.209999,-38.920002,14.56,1729414673587.0,0.0
-0.311067,-8.638089,-11.198411,259.0,-58.869999,60.41,1729414673608.0,0.0
-1.933401,-9.305687,-13.811372,400.049988,-59.920002,72.730003,1729414673631.0,0.0
-4.448257,-7.295716,-13.730016,552.51001,-28.700001,88.620003,1729414673647.0,0.0
-8.786445,-5.345565,-7.829315,610.960022,29.75,106.470001,1729414673667.0,0.0
-13.155738,-4.07737,-1.887937,540.890015,43.75,106.470001,1729414673687.0,0.0
-12.41875,-6.74776,-0.870987,397.459991,24.219999,59.849998,1729414673707.0,0.0
-8.133204,-8.745767,-1.351945,240.240005,11.2,-13.79,1729414673732.0,0.0
-4.965107,-8.542377,-1.562513,148.050003,5.32,-44.869999,1729414673747.0,0.0
-3.629912,-7.834101,-1.261017,96.040001,5.04,-47.740002,1729414673767.0,0.0
-2.74696,-7.307681,-1.402194,32.830002,3.29,-47.389999,1729414673787.0,0.0
-2.529213,-7.805387,-1.380659,-25.969999,3.78,-38.920002,1729414673807.0,0.0
-3.208775,-8.11167,-1.485943,-62.09,7.07,-29.120001,1729414673830.0,0.0
-3.878766,-8.281559,-1.356731,-61.740002,11.34,-21.35,1729414673847.0,0.0
-4.309474,-8.061419,-1.371087,-38.009998,12.53,-16.73,1729414673872.0,0.0
-4.601398,-7.726424,-1.258625,-14.98,13.09,-12.6,1729414673887.0,0.0
-5.257031,-8.396415,-1.11027,-8.05,13.79,-8.33,1729414673908.0,0.0
-6.257231,-9.202796,-1.569692,-11.34,12.67,-12.6,1729414673930.0,0.0
-6.111269,-8.616554,-1.378266,-17.85,11.69,-18.83,1729414673947.0,0.0
-5.410172,-8.590233,-1.414158,-40.25,13.58,-27.02,1729414673968.0,0.0
-4.768896,-8.571091,-1.641476,-81.620003,15.12,-35.84,1729414673987.0,0.0
-4.409972,-8.422735,-2.163112,-126.209999,15.89,-40.880001,1729414674007.0,0.0
-3.940979,-8.532805,-3.172883,-164.430008,16.870001,-46.130001,1729414674028.0,0.0
-3.716053,-8.68116,-4.206582,-179.130005,21.35,-47.32,1729414674047.0,0.0
-3.661019,-8.482556,-5.381458,-179.550003,27.23,-48.790001,1729414674068.0,0.0
-3.54377,-7.728817,-6.386444,-181.369995,32.200001,-49.07,1729414674087.0,0.0
-3.424129,-8.38445,-7.180861,-170.589996,43.400002,-45.360001,1729414674108.0,0.0
-3.266203,-9.41815,-7.424929,-135.240005,58.59,-40.389999,1729414674128.0,0.0
-2.79721,-8.647661,-7.058826,-76.580002,62.439999,-40.110001,1729414674146.0,0.0
-2.354537,-6.965507,-6.522834,-47.529999,62.580002,-34.16,1729414674168.0,0.0
-1.727618,-5.970093,-6.407979,-71.400002,63.77,-31.43,1729414674187.0,0.0
-1.057628,-6.242875,-7.006185,-108.290001,69.370003,-27.93,1729414674208.0,0.0
-0.818345,-6.515656,-7.590034,-129.149994,73.43,-17.85,1729414674228.0,0.0
-0.713061,-6.656832,-8.195417,-129.149994,75.040001,-7.42,1729414674246.0,0.0
-1.045663,-6.912865,-8.477771,-115.5,75.459999,-0.84,1729414674267.0,0.0
-1.150948,-5.862415,-8.499306,-70.07,70.489998,6.02,1729414674287.0,0.0
-1.371087,-5.362316,-8.386844,-42.209999,66.360001,12.25,1729414674307.0,0.0
-1.710868,-5.833702,-8.01117,-33.110001,65.940002,13.65,1729414674338.0,0.0
-2.091327,-6.029913,-7.688138,-25.48,62.02,14.0,1729414674348.0,0.0
-2.512464,-5.886343,-7.616355,-12.46,52.779999,14.28,1729414674367.0,0.0
-2.804388,-5.458029,-7.508677,3.36,43.75,12.74,1729414674387.0,0.0
-3.086741,-4.532006,-6.922436,18.690001,36.049999,14.14,1729414674407.0,0.0
-3.433701,-5.063213,-6.769295,19.74,32.970001,14.77,1729414674428.0,0.0
-3.519842,-5.931807,-7.077969,9.8,29.610001,12.04,1729414674446.0,0.0
-3.881158,-5.661418,-7.135397,1.26,26.040001,8.26,1729414674468.0,0.0
-4.048656,-5.307281,-6.843473,-9.03,24.360001,5.67,1729414674487.0,0.0
-3.328416,-5.094319,-7.085148,-18.620001,17.780001,2.24,1729414674507.0,0.0
-2.847459,-5.166104,-7.319644,-24.43,15.61,3.22,1729414674528.0,0.0
-2.711068,-5.627919,-7.724032,-25.76,16.030001,5.04,1729414674548.0,0.0
-2.708675,-6.015556,-7.743174,-23.379999,18.34,3.43,1729414674569.0,0.0
-2.737389,-5.312066,-6.924829,-9.8,19.18,2.59,1729414674588.0,0.0
-2.26361,-4.307081,-6.838687,3.92,15.05,1.12,1729414674607.0,0.0
-1.835295,-5.391029,-6.460621,-0.35,9.8,3.78,1729414674627.0,0.0
-1.718047,-5.426922,-6.494121,-7.07,4.69,4.55,1729414674646.0,0.0
-1.878366,-5.446064,-7.063612,-4.69,0.07,7.0,1729414674667.0,0.0
-1.361516,-5.503492,-7.501499,0.42,-3.5,7.42,1729414674686.0,0.0
-1.241875,-5.536992,-7.465607,9.1,-5.81,11.34,1729414674707.0,0.0
-1.031307,-5.402994,-8.678767,5.18,-8.68,9.31,1729414674727.0,0.0
-1.117448,-5.85763,-9.226725,-16.940001,-7.56,6.65,1729414674746.0,0.0
-1.153341,-5.828916,-9.260223,-32.200001,-6.16,2.87,1729414674767.0,0.0
-1.146162,-5.905487,-9.236296,-33.810001,-4.13,-0.63,1729414674786.0,0.0
-1.086342,-5.85763,-9.549755,-18.76,-2.17,-4.27,1729414674808.0,0.0
-0.959522,-5.65424,-9.236296,7.0,-0.77,-5.25,1729414674829.0,0.0
-1.179662,-4.752146,-8.683553,15.61,2.8,-5.81,1729414674846.0,0.0
-1.086342,-4.627719,-8.69791,3.29,1.75,-4.34,1729414674867.0,0.0
-1.024128,-4.673182,-8.913264,-10.5,1.19,-3.43,1729414674887.0,0.0
-1.107877,-4.883751,-9.133404,-23.030001,3.15,-3.64,1729414674907.0,0.0
-1.057628,-5.005785,-9.176475,-22.120001,4.83,-4.2,1729414674929.0,0.0
-1.07677,-5.139783,-9.552148,-6.16,4.48,-2.94,1729414674947.0,0.0
-1.308874,-4.759324,-7.704889,5.39,5.46,-0.35,1729414674967.0,0.0
-1.323231,-3.608376,-7.21436,21.629999,-1.05,1.68,1729414674986.0,0.0
-1.74676,-4.115655,-7.877172,2.31,-0.14,5.74,1729414675007.0,0.0
-1.545763,-4.955536,-8.195417,-17.01,-2.73,4.62,1729414675029.0,0.0
-1.071985,-5.089533,-8.752945,-26.530001,-6.16,1.61,1729414675046.0,0.0
-0.765703,-5.113462,-9.150154,-24.219999,-7.21,1.54,1729414675067.0,0.0
-0.42353,-5.20439,-9.178867,-11.34,-8.47,2.17,1729414675086.0,0.0
-0.964308,-4.862216,-9.006584,-3.99,-5.67,2.24,1729414675107.0,0.0
-1.294517,-5.216353,-9.078369,-4.06,-3.08,2.73,1729414675128.0,0.0
-1.339981,-5.029713,-9.023334,1.96,-4.34,1.4,1729414675146.0,0.0
-1.39023,-4.756931,-8.583055,2.73,-4.69,1.47,1729414675166.0,0.0
-1.529014,-5.063213,-8.997013,-5.53,-3.43,0.49,1729414675194.0,0.0
-1.782653,-5.355137,-8.82473,-7.21,-1.4,-0.77,1729414675208.0,0.0
-1.655833,-4.673182,-9.028119,1.82,-3.64,-2.66,1729414675229.0,0.0
-1.85683,-4.85743,-8.848659,-4.34,0.42,-2.31,1729414675247.0,0.0
-1.837688,-4.855037,-8.764909,6.72,-0.98,-2.8,1729414675267.0,0.0
-2.218147,-4.711468,-8.688338,6.79,-0.98,-3.36,1729414675287.0,0.0
-2.349752,-5.032106,-8.618947,0.84,1.4,-4.27,1729414675307.0,0.0
-2.608176,-5.314459,-8.60459,-1.47,2.52,-6.51,1729414675328.0,0.0
-2.667997,-5.271388,-8.214561,2.03,3.57,-9.52,1729414675346.0,0.0
-2.536392,-4.948357,-8.60459,3.22,3.99,-12.67,1729414675368.0,0.0
-2.256432,-5.04407,-8.157133,4.41,2.31,-12.39,1729414675388.0,0.0
-2.682354,-4.692325,-8.197811,5.53,2.87,-15.12,1729414675408.0,0.0
-2.727818,-5.271388,-7.716853,-4.76,2.73,-18.549999,1729414675429.0,0.0
-2.959922,-4.792823,-7.391429,3.43,0.98,-22.82,1729414675446.0,0.0
-3.120241,-4.278367,-7.02772,3.36,-0.28,-26.110001,1729414675467.0,0.0
-2.95035,-4.163511,-7.405786,-4.48,-5.74,-28.07,1729414675488.0,0.0
-3.086741,-4.130012,-8.090133,-10.64,-7.07,-28.77,1729414675509.0,0.0
-3.273381,-4.259224,-7.893922,-5.95,-5.46,-28.559999,1729414675530.0,0.0
-2.550749,-4.400401,-7.310073,25.41,-12.67,-30.17,1729414675549.0,0.0
-2.158326,-3.641876,-7.470392,44.310001,-26.25,-28.700001,1729414675570.0,0.0
-1.710868,-3.354738,-8.932407,35.560001,-35.0,-27.51,1729414675588.0,0.0
-1.459622,-3.436093,-10.162319,-1.61,-34.720001,-23.940001,1729414675609.0,0.0
-1.816152,-4.06062,-9.523434,-29.75,-24.15,-17.92,1729414675629.0,0.0
-1.708475,-4.737789,-9.530612,-19.25,-21.42,-18.059999,1729414675649.0,0.0
-1.024128,-5.625526,-10.633704,18.549999,-25.48,-17.360001,1729414675669.0,0.0
-0.914058,-6.087341,-11.174481,58.66,-21.139999,-18.200001,1729414675688.0,0.0
-1.004985,-5.989235,-10.741381,106.68,-13.86,-18.620001,1729414675708.0,0.0
-0.76331,-5.118248,-9.415757,161.350006,-10.85,-10.92,1729414675740.0,0.0
-0.301496,-5.529813,-8.796017,205.380005,-7.98,4.2,1729414675748.0,0.0
0.045464,-5.398208,-9.705289,239.259995,-2.03,22.049999,1729414675770.0,0.0
0.114855,-7.015756,-6.486942,308.420013,16.379999,51.73,1729414675788.0,0.0
1.229911,-10.028319,-4.716253,406.839996,24.08,84.980003,1729414675808.0,0.0
1.292124,-6.348158,5.032106,455.0,31.780001,104.790001,1729414675830.0,0.0
-3.259024,-9.217153,10.054641,413.769989,7.84,107.449997,1729414675849.0,0.0
-2.854637,-11.459228,1.885544,335.929993,-22.190001,100.169998,1729414675868.0,0.0
0.784846,-10.844273,0.435494,254.800003,-15.47,63.560001,1729414675888.0,0.0
-1.639083,-8.688338,2.388037,294.630005,28.07,78.889999,1729414675913.0,0.0
-2.828316,-6.285945,1.507478,324.170013,35.98,80.989998,1729414675928.0,0.0
-2.067399,-4.888536,4.737789,308.980011,39.970001,101.360001,1729414675948.0,0.0
-2.469393,-8.982656,6.24766,226.100006,29.960001,102.410004,1729414675968.0,0.0
-2.871387,-10.217353,5.510671,130.830002,15.4,86.730003,1729414675988.0,0.0
-3.704089,-13.545769,3.249453,69.160004,-1.33,55.93,1729414676007.0,0.0
-4.838287,-10.025927,3.720839,70.980003,3.64,32.200001,1729414676028.0,0.0
-4.381258,-11.892329,7.860423,82.809998,6.09,9.24,1729414676047.0,0.0
-4.266403,-8.822337,9.602397,40.740002,-8.82,-1.68,1729414676068.0,0.0
-3.869194,-6.278766,6.01077,-72.099998,-35.84,-4.69,1729414676088.0,0.0
-2.847459,-3.878766,2.323431,-180.460007,-45.5,-3.57,1729414676108.0,0.0
-4.45065,-3.259024,-0.880559,-269.5,-17.219999,4.48,1729414676128.0,0.0
-7.984849,-8.757731,-0.023928,-298.269989,8.12,5.53,1729414676148.0,0.0
-8.260024,-6.092126,0.528814,-405.160004,-18.620001,-29.610001,1729414676168.0,0.0
-3.515057,-5.79063,-3.790231,-397.809998,-69.019997,-4.55,1729414676188.0,0.0
-3.962514,-1.607977,-3.656233,-365.610016,-86.730003,-2.59,1729414676209.0,0.0
-5.45085,3.957729,-13.18206,-349.929993,-41.580002,51.59,1729414676229.0,0.0
-6.829116,-2.885744,-19.271793,-457.309998,-3.36,48.93,1729414676248.0,0.0
-11.32523,-11.047661,-11.22473,-554.890015,45.43,26.18,1729414676268.0,0.0
-6.235696,-10.083356,-9.812965,-543.130005,17.57,-40.25,1729414676288.0,0.0
-7.896315,-14.510076,-2.957529,-335.019989,-10.64,-37.73,1729414676308.0,0.0
-6.338587,-4.895715,-3.835695,-207.759995,-18.34,-68.739998,1729414676330.0,0.0
-7.410572,8.102098,-20.401205,-104.300003,16.030001,8.12,1729414676347.0,0.0
-7.188039,-2.682354,-18.075382,-146.720001,95.269997,51.380001,1729414676368.0,0.0
-3.661019,-13.856836,-2.89053,-147.910004,93.590004,29.26,1729414676388.0,0.0
-3.15374,-8.647661,-5.910272,-114.870003,68.529999,-22.610001,1729414676408.0,0.0
-4.244867,-4.888536,-12.117253,-59.360001,55.790001,-43.330002,1729414676429.0,0.0
-3.237489,-6.171089,-5.106283,-83.230003,64.120003,-38.220001,1729414676448.0,0.0
-2.452643,-10.265208,-8.367701,-173.389999,63.139999,-52.290001,1729414676468.0,0.0
-3.041277,-11.078769,-15.093925,-70.629997,59.57,-62.860001,1729414676488.0,0.0
-3.125026,-10.408779,-12.715459,132.860001,73.080002,-55.439999,1729414676509.0,0.0
-1.375873,-4.790431,-14.155938,241.779999,69.090004,-52.290001,1729414676529.0,0.0
-0.61017,-4.369294,1.497907,304.429993,100.099998,-21.139999,1729414676548.0,0.0
1.081556,-2.447858,4.508078,185.009995,41.93,8.75,1729414676571.0,0.0
-1.031307,-2.663212,-6.932007,62.93,26.110001,-49.91,1729414676588.0,0.0
-5.072784,-2.758924,-9.054441,7.28,36.540001,-31.85,1729414676607.0,0.0
-3.445665,-8.755339,-8.657232,-36.049999,20.58,-46.900002,1729414676630.0,0.0
-0.449851,-8.188239,-6.30748,-40.740002,2.66,-55.93,1729414676647.0,0.0
-1.0002,-8.77448,-5.809773,8.19,-9.17,-59.709999,1729414676668.0,0.0
-1.445265,-7.721639,-2.907279,-3.36,-37.59,-87.360001,1729414676688.0,0.0
-1.361516,-0.937986,-12.06222,-24.57,-56.91,-94.150002,1729414676707.0,0.0
-4.733003,-5.290531,-11.760723,-32.900002,-31.780001,-57.400002,1729414676731.0,0.0
-0.619741,1.043271,-16.266409,56.349998,-29.190001,-65.800003,1729414676748.0,0.0
-2.739782,-1.548156,-7.733603,191.800003,19.32,19.32,1729414676854.0,0.0
-1.136591,-8.779266,-8.312666,167.789993,24.290001,-7.42,1729414676854.0,0.0
-1.847259,-16.113268,-8.365308,180.389999,22.4,21.98,1729414676855.0,0.0
-4.211368,-12.090932,-11.002198,387.309998,111.230003,32.830002,1729414676881.0,0.0
-3.046063,-6.82433,-7.9011,478.100006,164.850006,52.150002,1729414676882.0,0.0
-0.315853,-3.646662,6.185446,411.320007,175.0,37.450001,1729414676886.0,0.0
0.538385,-10.423136,5.678168,259.279999,89.739998,11.97,1729414676907.0,0.0
4.989035,-5.986843,6.872187,309.540009,79.309998,-1.89,1729414676930.0,0.0
2.971886,2.368894,7.006185,339.709991,94.080002,26.74,1729414676947.0,0.0
-0.897308,-4.266403,6.58744,191.940002,51.799999,42.349998,1729414676969.0,0.0
1.952543,-10.415956,4.907679,117.389999,-3.71,34.860001,1729414676988.0,0.0
1.701297,-14.122439,6.474977,162.889999,-1.19,42.209999,1729414677007.0,0.0
0.066999,-13.036098,5.907879,22.960001,-40.670002,29.68,1729414677029.0,0.0
1.734797,-13.969299,0.947558,-75.669998,-54.810001,4.69,1729414677048.0,0.0
-4.127619,-7.688138,1.584049,-217.350006,-70.769997,-44.59,1729414677068.0,0.0
-3.672983,-10.052249,-2.321038,-137.130005,-53.41,-14.98,1729414677087.0,0.0
-2.115255,-10.430314,-3.938586,-146.860001,-43.189999,-46.549999,1729414677107.0,0.0
-1.639083,-11.923435,-1.828116,-183.820007,-22.610001,-55.23,1729414677128.0,0.0
-1.844866,-11.825329,-2.837888,-248.080002,-10.36,-66.919998,1729414677148.0,0.0
-1.710868,-8.958728,1.036092,-299.950012,-16.799999,-77.139999,1729414677168.0,0.0
-1.770689,-7.980063,0.172283,-313.880005,-23.66,-80.290001,1729414677187.0,0.0
-0.677169,-10.576276,-3.61077,-386.190002,-67.059998,-97.510002,1729414677207.0,0.0
-3.842873,-9.030513,-3.768696,-558.039978,-2.66,-79.239998,1729414677228.0,0.0
-6.707082,-8.147561,-3.940979,-237.649994,-33.040001,-69.580002,1729414677251.0,0.0
-1.72044,0.193819,-11.124231,-227.779999,-89.949997,-82.25,1729414677267.0,0.0
1.095913,3.038885,-10.973484,-407.679993,-53.27,-65.309998,1729414677287.0,0.0
-3.007778,-3.4672,-13.036098,-449.75,11.34,-23.17,1729414677307.0,0.0
-3.749553,-6.9344,-11.641083,-379.540009,16.450001,-4.13,1729414677328.0,0.0
-1.040878,-5.041678,-11.394621,-226.240005,12.04,3.64,1729414677354.0,0.0
0.504886,-5.577669,-10.660025,-122.080002,20.440001,18.690001,1729414677367.0,0.0
2.258825,-6.242875,-10.724631,-97.019997,33.32,-0.77,1729414677387.0,0.0
1.194018,-5.115855,-9.044869,-57.049999,34.720001,-5.67,1729414677408.0,0.0
1.272982,-5.022535,-7.195218,4.55,24.99,-10.15,1729414677428.0,0.0
2.766103,-4.125226,-9.367901,67.059998,12.46,-10.36,1729414677447.0,0.0
2.849852,-1.787439,-10.179067,162.610001,6.3,12.46,1729414677469.0,0.0
1.091127,-3.369094,-10.82513,229.460007,10.01,27.370001,1729414677502.0,0.0
0.830309,-6.338587,-12.638889,242.830002,19.950001,8.61,1729414677583.0,0.0
1.741975,-5.053641,-9.592826,304.98999,30.17,-1.68,1729414677586.0,0.0
0.107677,-2.088934,-8.080563,385.140015,21.629999,18.27,1729414677588.0,0.0
1.117448,-4.512863,-5.034499,339.850006,22.75,13.440001,1729414677590.0,0.0
0.397209,-7.003791,-5.28096,292.179993,24.290001,21.700001,1729414677591.0,0.0
1.438086,-9.341579,-7.319644,286.019989,20.09,16.799999,1729414677606.0,0.0
1.337588,-7.618747,-4.838287,355.25,36.119999,26.040001,1729414677642.0,0.0
-0.021535,-7.403394,-1.521835,416.429993,59.709999,47.950001,1729414677663.0,0.0
-1.761117,-7.726424,-1.942972,427.350006,56.77,51.869999,1729414677666.0,0.0
-1.342373,-5.584848,-9.851252,633.849976,68.389999,82.739998,1729414677686.0,0.0
3.304488,-0.308674,5.888737,698.109985,188.720001,118.160004,1729414677707.0,0.0
2.467,-11.265409,16.53919,260.610016,141.889999,37.939999,1729414677726.0,0.0
-0.083749,-14.85225,17.125431,13.02,60.549999,18.549999,1729414677747.0,0.0
0.504886,-10.904092,8.066205,-144.830002,-3.78,-10.5,1729414677766.0,0.0
2.045863,-1.572084,-2.115255,-193.270004,-38.709999,-9.87,1729414677786.0,0.0
1.926222,-8.298308,-0.957129,-176.889999,-30.66,3.22,1729414677807.0,0.0
0.40678,-10.992627,2.167897,-58.029999,-43.75,16.66,1729414677827.0,0.0
-3.328416,-9.250652,2.065006,-45.360001,-49.279999,19.040001,1729414677846.0,0.0
-1.808974,-10.08814,-2.325824,-167.580002,-73.779999,-1.54,1729414677867.0,0.0
0.387637,-6.630512,-2.545963,-187.809998,-80.360001,-16.870001,1729414677887.0,0.0
-2.85703,-5.008178,-1.708475,-99.400002,-76.090004,17.85,1729414677906.0,0.0
-4.130012,-9.164511,-2.433501,-118.93,-77.279999,23.59,1729414677927.0,0.0
-4.316652,-10.686346,-5.639884,-113.82,-71.82,28.98,1729414677954.0,0.0
-4.359723,-10.727024,-5.941379,-115.989998,-36.400002,24.08,1729414677967.0,0.0
-1.196411,-14.306686,-4.388437,-82.25,9.87,13.72,1729414677986.0,0.0
-2.167897,-19.049261,-3.014957,-7.49,63.84,0.91,1729414678009.0,0.0
-2.402394,-11.657832,-5.178068,-7.42,98.419998,-11.41,1729414678030.0,0.0
0.591027,-2.057827,-7.283752,-29.75,132.860001,-13.51,1729414678047.0,0.0
3.641876,-6.975078,12.019149,26.530001,129.710007,16.450001,1729414678068.0,0.0
4.460221,-9.925428,14.426328,141.960007,72.590004,39.130001,1729414678086.0,0.0
2.285146,-9.901501,11.449656,132.930008,27.719999,1.82,1729414678108.0,0.0
-0.289532,-9.250652,7.384251,18.200001,-14.63,-24.57,1729414678128.0,0.0
1.758725,-8.298308,3.443272,-33.950001,-53.830002,-0.63,1729414678147.0,0.0
5.166104,-8.35813,-0.569492,-131.039993,-85.75,-20.299999,1729414678167.0,0.0
3.972085,-8.568698,-5.659025,-136.149994,-108.919998,-11.76,1729414678188.0,0.0
-5.556134,-11.413764,-10.691131,14.84,-93.800003,-0.63,1729414678207.0,0.0
-14.060226,-9.487542,-12.253645,26.32,-46.060001,15.61,1729414678228.0,0.0
-13.177275,-5.481956,-10.289137,-65.730003,9.38,16.52,1729414678249.0,0.0
-1.634298,-11.263017,0.452243,-68.529999,-20.51,-3.92,1729414678268.0,0.0
2.108077,-21.131016,-2.112862,-38.849998,3.92,0.07,1729414678287.0,0.0
-1.550549,-10.619347,-6.168696,-11.2,39.48,-33.950001,1729414678308.0,0.0
-4.405186,-3.120241,-6.094519,21.629999,86.940002,5.18,1729414678331.0,0.0
-0.370888,-3.278167,-1.801795,-21.84,94.150002,10.92,1729414678348.0,0.0
3.864408,-11.449656,3.37388,-4.34,58.450001,35.279999,1729414678371.0,0.0
3.629912,-8.769694,3.464807,31.08,24.08,33.32,1729414678389.0,0.0
-0.184247,-8.070991,3.081956,32.619999,28.630001,36.889999,1729414678409.0,0.0
-0.624527,-9.186047,1.330409,12.67,17.639999,42.630001,1729414678436.0,0.0
-0.074178,-12.220145,-0.543171,-30.450001,11.83,36.540001,1729414678449.0,0.0
-1.222732,-12.897314,-2.739782,-62.650002,16.1,33.459999,1729414678470.0,0.0
-0.287139,-11.152946,-1.086342,-55.16,3.71,23.1,1729414678489.0,0.0
0.981057,-9.71486,1.674976,50.330002,5.18,19.25,1729414678511.0,0.0
2.323431,-7.707282,4.412365,105.980003,9.03,23.59,1729414678531.0,0.0
0.926022,-6.738188,4.527221,132.789993,0.84,33.32,1729414678550.0,0.0
-0.748954,-2.40718,4.735396,175.210007,-8.96,52.43,1729414678571.0,0.0
1.359123,-3.823731,3.06042,213.990005,-25.27,106.540001,1729414678588.0,0.0
-0.715454,-8.707481,6.092126,192.570007,-44.380001,110.599998,1729414678609.0,0.0
-6.518049,-14.790037,3.479164,130.479996,-39.830002,110.809998,1729414678630.0,0.0
-7.185646,-14.605788,-2.694318,24.5,-50.68,66.43,1729414678651.0,0.0
-6.324231,-14.074582,-3.845266,-12.6,-17.780001,54.670002,1729414678673.0,0.0
-2.349752,-12.832708,-3.833302,31.85,-4.06,23.030001,1729414678688.0,0.0
-3.146562,-14.146368,1.320838,150.919998,25.9,25.969999,1729414678709.0,0.0
-5.91745,-11.13859,4.864608,237.580002,34.369999,21.91,1729414678729.0,0.0
-6.407979,-8.781659,8.030313,186.130005,7.91,5.32,1729414678748.0,0.0
-3.9673,-4.740182,7.049256,3.99,-32.060001,-9.24,1729414678770.0,0.0
-1.751546,0.696311,2.268396,-179.479996,-67.340004,4.97,1729414678789.0,0.0
-4.867002,-8.336594,2.07697,-256.899994,-37.450001,-0.77,1729414678809.0,0.0
-4.086941,0.696311,0.320638,-502.390015,-23.73,-6.23,1729414678832.0,0.0
-1.57687,-0.739382,-7.62114,-497.140015,-93.029999,41.09,1729414678850.0,0.0
2.141576,-1.514657,-14.833108,-430.080017,-69.860001,31.360001,1729414678868.0,0.0
-4.37408,3.259024,-15.984055,-508.899994,-10.92,98.980003,1729414678890.0,0.0
-9.509077,-10.734202,-6.953543,-521.5,36.400002,26.040001,1729414678910.0,0.0
-7.664211,-15.936199,-10.679168,-569.309998,-37.450001,20.860001,1729414678929.0,0.0
-1.277767,-0.799203,-14.811572,-322.980011,-70.910004,-17.360001,1729414678948.0,0.0
-10.052249,-0.157926,-4.04387,-235.199997,-4.48,14.98,1729414678969.0,0.0
-4.532006,-0.349352,-14.950355,-346.920013,-10.99,10.85,1729414678988.0,0.0
-5.60399,-7.274181,-16.546368,-226.449997,19.950001,35.700001,1729414679009.0,0.0
-4.945964,-4.498507,-3.335595,-106.68,18.969999,24.5,1729414679032.0,0.0
-5.804988,-2.9336,-11.377872,-106.68,6.65,18.200001,1729414679048.0,0.0
-5.577669,-7.405786,-9.96132,-137.410004,20.790001,-1.12,1729414679068.0,0.0
-5.24746,-5.958128,-4.445865,-80.360001,16.59,2.17,1729414679088.0,0.0
-5.065606,-6.21416,-10.82513,-48.650002,0.42,10.57,1729414679108.0,0.0
-2.282753,-10.334601,-11.050055,-28.0,0.28,-17.01,1729414679131.0,0.0
-4.220939,-8.695518,-12.270394,39.200001,5.74,-40.740002,1729414679149.0,0.0
-2.426322,-4.630112,-11.765509,146.509995,17.780001,-30.030001,1729414679168.0,0.0
-1.476372,-2.108077,-10.602598,154.419998,38.360001,-28.139999,1729414679188.0,0.0
-2.277967,-1.674976,-10.518847,208.039993,45.849998,-13.440001,1729414679209.0,0.0
-0.894916,-1.189233,-2.134398,209.300003,51.799999,-2.94,1729414679229.0,0.0
-0.81356,-0.253639,5.125426,127.959999,-2.03,4.83,1729414679248.0,0.0
-6.257231,-1.866402,-4.639683,-51.310001,19.25,-31.43,1729414679270.0,0.0
-4.199404,-4.529613,-13.433307,-112.279999,-21.0,-32.130001,1729414679288.0,0.0
0.270389,-9.530612,-12.236896,-89.879997,-29.610001,-41.439999,1729414679309.0,0.0
-2.368894,-8.855836,-4.68754,-47.040001,-3.36,-72.099998,1729414679330.0,0.0
-2.785245,-7.238289,-5.754738,-18.200001,-50.119999,-103.809998,1729414679348.0,0.0
1.727618,-5.278566,-15.050854,-63.700001,-82.809998,-135.100006,1729414679368.0,0.0
-1.5003,-4.266403,-13.49552,-43.470001,-36.610001,-124.040001,1729414679389.0,0.0
-10.724631,0.612563,-11.298907,121.870003,7.14,-65.379997,1729414679408.0,0.0
-13.344771,1.919044,-18.144773,405.369995,12.04,-28.91,1729414679431.0,0.0
-10.04507,3.050849,-10.179067,415.730011,13.86,-1.19,1729414679449.0,0.0
-4.290331,3.309274,-10.485349,217.0,19.67,-0.07,1729414679468.0,0.0
-5.821737,-10.710274,-11.633904,135.029999,46.970001,17.219999,1729414679488.0,0.0
-7.755138,-16.297516,-11.533404,187.949997,142.869995,25.48,1729414679509.0,0.0
-8.087741,-9.186047,-5.517848,289.450012,142.449997,17.710001,1729414679529.0,0.0
-5.084748,-6.642475,-5.962914,353.570007,137.970001,9.66,1729414679549.0,0.0
-1.031307,-11.399406,10.609775,301.769989,162.190002,0.91,1729414679577.0,0.0
5.326423,-2.957529,15.795023,250.529999,78.610001,1.05,1729414679588.0,0.0
0.356531,-4.941179,9.992428,136.710007,52.150002,-14.77,1729414679608.0,0.0
-7.149754,-5.429315,3.907479,-25.41,28.98,-16.309999,1729414679631.0,0.0
-0.339781,-9.75793,-3.067599,-5.53,-33.459999,1.26,1729414679648.0,0.0
8.382057,-13.205987,-3.335595,74.269997,-40.670002,-3.64,1729414679669.0,0.0
6.946364,-10.466206,0.579063,129.990005,-25.620001,9.8,1729414679688.0,0.0
-3.617948,-8.260024,3.278167,99.959999,-30.030001,27.370001,1729414679708.0,0.0
-8.633304,-6.74776,-3.299703,-66.639999,-62.369999,-6.09,1729414679730.0,0.0
-6.680761,-7.054041,-2.132005,-164.080002,-50.259998,-20.51,1729414679748.0,0.0
-3.103491,-11.688939,-2.270789,-153.020004,-55.93,-5.95,1729414679768.0,0.0
-2.084148,-11.62194,-4.589434,-134.119995,-34.650002,-15.68,1729414679788.0,0.0
-0.11007,-8.269595,-10.784451,-140.770004,-4.97,0.98,1729414679808.0,0.0
-0.260818,-11.54537,-14.581861,-70.419998,51.59,27.719999,1729414679829.0,0.0
-2.955136,-8.252845,-13.45245,109.129997,126.629997,43.330002,1729414679848.0,0.0
-2.141576,-9.980463,-5.455636,171.080002,100.870003,4.41,1729414679869.0,0.0
-1.399801,-7.776673,0.78006,217.350006,61.32,10.08,1729414679887.0,0.0
-1.081556,-4.721039,1.663012,165.479996,20.299999,-38.5,1729414679909.0,0.0
-3.498307,-8.197811,-0.825524,85.82,8.33,-32.34,1729414679931.0,0.0
-3.15374,-8.161918,-5.089533,53.34,6.3,-35.560001,1729414679949.0,0.0
-2.139183,-5.309673,-8.738588,82.949997,20.719999,-18.9,1729414679968.0,0.0
-2.696711,-3.795017,-4.608576,91.489998,52.360001,4.97,1729414679996.0,0.0
-2.414358,-6.369694,-2.24686,126.980003,67.410004,24.290001,1729414680008.0,0.0
-3.165704,-8.963513,0.416351,-10.85,61.459999,31.43,1729414680030.0,0.0
-4.510471,-12.751352,1.512264,-157.220001,48.580002,0.84,1729414680048.0,0.0
-5.264209,-14.407186,7.144968,-217.0,15.82,-25.690001,1729414680069.0,0.0
-3.103491,-14.804394,3.536592,-143.850006,-21.84,-27.860001,1729414680088.0,0.0
-0.87338,-11.629118,-2.012364,-48.23,-38.779999,-16.66,1729414680109.0,0.0
-0.227318,-7.578069,-2.136791,14.0,-17.92,-16.1,1729414680131.0,0.0
-3.976871,-9.79143,-0.878166,-19.32,8.96,-0.07,1729414680148.0,0.0
-3.416951,-11.358729,-1.942972,-63.91,-19.040001,-20.58,1729414680169.0,0.0
-0.789631,-11.078769,-2.828316,-47.950001,-39.689999,-34.509998,1729414680188.0,0.0
-0.698704,-8.161918,-4.268795,-20.790001,-28.98,-31.219999,1729414680208.0,0.0
-2.270789,-8.202596,-4.342973,-5.88,-16.73,-25.76,1729414680230.0,0.0
-2.591427,-9.523434,-6.821937,-40.459999,-6.09,-30.1,1729414680250.0,0.0
0.09332,-10.712667,2.979064,-40.18,-6.72,-24.43,1729414680270.0,0.0
0.440279,-9.769895,-2.254039,-35.0,-15.75,-24.290001,1729414680290.0,0.0
-3.452843,-8.889337,-3.270989,-38.779999,10.43,-21.700001,1729414680310.0,0.0
-3.646662,-10.947165,-5.965307,-45.920002,18.549999,-15.75,1729414680331.0,0.0
-0.421137,-9.803394,-4.723432,-42.07,12.46,-30.1,1729414680350.0,0.0
-0.124427,-9.284152,-5.326423,9.1,18.76,-25.76,1729414680370.0,0.0
-2.727818,-9.145369,-13.469198,14.56,23.309999,-36.889999,1729414680390.0,0.0
-4.228118,-7.573284,-13.062418,-14.35,55.09,-33.810001,1729414680412.0,0.0
5.682954,-0.605384,11.576476,-107.029999,27.93,-14.14,1729414680433.0,0.0
1.423729,-14.687144,3.084348,-125.300003,-9.87,31.08,1729414680449.0,0.0
0.452243,-18.941584,-7.200003,-72.519997,-37.170002,-66.150002,1729414680472.0,0.0
-4.024727,-10.217353,-1.457229,61.880001,24.57,-43.049999,1729414680490.0,0.0
-4.555934,-7.384251,-1.488336,135.869995,18.690001,-9.52,1729414680510.0,0.0
-1.722832,-8.748159,-3.957729,72.730003,11.83,-25.200001,1729414680531.0,0.0
2.56032,-7.9681,-3.945765,111.090004,13.72,-24.5,1729414680550.0,0.0
4.158726,-8.315059,-0.662812,154.979996,31.639999,-2.59,1729414680572.0,0.0
1.76351,-9.485149,2.852244,133.350006,42.91,-0.91,1729414680590.0,0.0
0.937986,-5.979663,3.091527,108.57,29.26,-16.030001,1729414680610.0,0.0
1.440479,-6.259624,4.328616,120.610001,6.3,19.460001,1729414680632.0,0.0
2.167897,-8.449057,2.517249,66.150002,-34.369999,27.02,1729414680650.0,0.0
0.937986,-11.686546,-0.701097,-45.709999,-55.369999,19.530001,1729414680670.0,0.0
1.591227,-9.413363,-1.878366,-210.839996,-69.440002,-5.6,1729414680689.0,0.0
3.823731,-2.617748,-1.404587,-286.440002,-96.32,-3.29,1729414680715.0,0.0
-7.269395,-5.06082,-12.251251,-311.850006,-106.540001,14.56,1729414680730.0,0.0
-9.533006,-3.737589,-9.360723,-377.579987,-109.340004,-29.26,1729414680749.0,0.0
-3.089134,-1.162912,-14.170296,-389.130005,-59.57,114.730003,1729414680770.0,0.0
-2.239682,-2.270789,-12.23211,-421.399994,-49.700001,-47.110001,1729414680789.0,0.0
-8.293523,-6.635297,-11.172089,-377.230011,-37.66,-70.209999,1729414680810.0,0.0
-13.51227,5.058427,-17.8696,-413.209991,-62.02,74.480003,1729414680832.0,0.0
-0.081356,-11.727223,-11.765509,-473.269989,-0.7,-20.51,1729414680849.0,0.0
-2.78046,-5.309673,-12.12204,-328.440002,4.62,-25.83,1729414680870.0,0.0
-2.974278,-7.582855,-8.238488,-136.990005,1.61,-9.31,1729414680890.0,0.0
3.091527,-6.84108,-8.484949,-85.610001,4.69,-28.91,1729414680909.0,0.0
0.014357,-7.606783,-7.879565,19.460001,-16.24,-6.16,1729414680930.0,0.0
2.974278,-6.601797,-7.599605,37.799999,-26.389999,-26.809999,1729414680949.0,0.0
2.892922,-9.293723,-9.489935,117.879997,-47.389999,-21.84,1729414680970.0,0.0
2.76371,-6.65444,-8.422735,238.910004,-53.970001,-42.349998,1729414680990.0,0.0
1.292124,-3.651447,-9.822537,365.119995,-77.419998,-22.33,1729414681010.0,0.0
0.39003,-3.976871,-12.035898,413.279999,-81.690002,-2.59,1729414681030.0,0.0
-0.476172,-5.685347,-13.160524,407.540009,-68.669998,10.01,1729414681050.0,0.0
-0.765703,-4.23051,-12.650853,423.779999,-56.560001,29.610001,1729414681070.0,0.0
-1.718047,-3.680161,-7.573284,490.279999,-20.93,69.790001,1729414681089.0,0.0
-1.564906,-3.945765,-3.562913,633.849976,-1.75,156.869995,1729414681109.0,0.0
-0.768096,-3.333202,-0.861416,623.840027,21.559999,140.419998,1729414681130.0,0.0
-3.969693,-4.517649,3.706482,429.380005,76.440002,153.440002,1729414681149.0,0.0
-9.777073,-12.279965,4.24726,161.910004,69.090004,141.119995,1729414681170.0,0.0
-9.846465,-20.654846,-2.737389,101.849998,-18.129999,78.959999,1729414681190.0,0.0
-4.65404,-12.464212,-1.87358,245.770004,12.88,70.07,1729414681209.0,0.0
-7.197611,-0.775275,3.919443,199.850006,69.510002,59.150002,1729414681231.0,0.0
-8.525627,0.342174,2.701497,-16.24,13.65,73.010002,1729414681249.0,0.0
-7.439285,-3.440879,-0.897308,-237.229996,-22.120001,52.150002,1729414681271.0,0.0
-6.668797,-8.956335,-3.754339,-339.570007,-37.52,25.76,1729414681289.0,0.0
-5.486742,-11.64826,-6.728617,-267.399994,-39.689999,14.7,1729414681310.0,0.0
-3.897908,-13.96212,-5.608776,-39.130001,-8.19,23.799999,1729414681330.0,0.0
-3.718446,-9.489935,0.504886,129.919998,35.209999,8.75,1729414681349.0,0.0
-5.331209,-2.06022,4.876573,127.190002,35.630001,4.69,1729414681371.0,0.0
-5.599205,-2.230111,4.082155,34.02,5.25,-2.03,1729414681389.0,0.0
-3.945765,-6.63769,1.081556,-26.040001,-21.0,2.31,1729414681412.0,0.0
-4.476971,-9.430114,0.526421,35.139999,-11.69,14.42,1729414681431.0,0.0
-7.467999,-7.444071,1.835295,143.360001,8.54,40.389999,1729414681449.0,0.0
-8.413164,-6.991827,3.302095,87.290001,0.84,9.24,1729414681469.0,0.0
-7.625926,-7.71446,-1.339981,1.96,-5.39,-10.36,1729414681489.0,0.0
-7.305287,-10.528419,-1.182054,8.68,-16.309999,-3.5,1729414681509.0,0.0
-8.985049,-7.042077,-1.72044,64.540001,1.89,17.290001,1729414681530.0,0.0
-11.688939,-8.135597,-3.847659,92.050003,18.690001,36.610001,1729414681549.0,0.0
-12.77528,-9.925428,-4.039084,30.870001,23.030001,-7.07,1729414681571.0,0.0
-13.514663,-10.628918,-2.26361,-11.76,32.34,-31.43,1729414681591.0,0.0
-10.813165,-8.173882,0.480957,-14.42,15.47,-56.490002,1729414681609.0,0.0
-7.9011,-4.87418,0.926022,-27.860001,9.24,-72.800003,1729414681631.0,0.0
-6.245267,-7.156933,-0.636491,-23.17,17.92,-70.699997,1729414681650.0,0.0
-5.831308,-7.042077,6.742974,33.25,49.420002,-60.27,1729414681669.0,0.0
-3.919443,-8.695518,7.836494,79.379997,45.920002,-45.920002,1729414681689.0,0.0
-1.801795,-4.376472,9.159724,115.989998,40.389999,-29.75,1729414681709.0,0.0
-1.4668,-1.964507,8.126025,117.110001,18.549999,8.19,1729414681730.0,0.0
-3.512664,-5.120641,5.032106,94.5,0.42,26.040001,1729414681748.0,0.0
-5.460421,-5.601598,2.89053,98.419998,4.2,47.529999,1729414681838.0,0.0
-4.756931,-8.274381,1.493121,119.419998,13.79,59.010002,1729414681844.0,0.0
-5.587241,-11.32523,2.201397,109.129997,13.23,53.619999,1729414681845.0,0.0
-5.386244,-8.977871,4.800002,133.699997,11.48,63.560001,1729414681846.0,0.0
-6.238089,-7.369894,4.63729,115.919998,6.02,65.169998,1729414681851.0,0.0
-7.156933,-6.24766,3.29731,41.790001,-13.58,59.290001,1729414681869.0,0.0
-9.037691,-6.453443,3.795017,-2.31,-12.32,54.110001,1729414681888.0,0.0
-9.425328,-7.085148,1.880759,-42.139999,-20.299999,36.68,1729414681909.0,0.0
-8.865408,-7.233503,2.026721,-55.790001,-26.74,6.93,1729414681931.0,0.0
-8.973085,-7.491928,2.95035,-56.139999,-22.4,-4.83,1729414681949.0,0.0
-8.295916,-4.599005,2.24686,-88.340004,-24.99,-11.2,1729414681970.0,0.0
-6.982256,-0.815953,2.54357,-152.949997,-24.710001,1.89,1729414681988.0,0.0
-6.082555,0.815953,1.134198,-239.259995,-23.24,14.91,1729414682009.0,0.0
-6.951149,0.916451,-1.844866,-347.829987,-27.23,26.880001,1729414682037.0,0.0
-8.788837,-3.122634,-2.622534,-434.700012,-34.509998,20.23,1729414682050.0,0.0
-8.152347,-2.782853,-4.895715,-493.01001,-58.799999,20.23,1729414682069.0,0.0
-8.480164,-1.87358,-5.536992,-453.110016,-59.920002,34.720001,1729414682090.0,0.0
-8.047063,-0.435494,-12.179466,-469.279999,-30.52,44.450001,1729414682110.0,0.0
-11.437693,-8.329416,-10.686346,-576.590027,3.43,23.73,1729414682131.0,0.0
-5.058427,-6.831509,-13.66541,-489.230011,4.13,-18.76,1729414682150.0,0.0
-8.219346,-1.033699,-11.10509,-314.579987,27.58,65.099998,1729414682170.0,0.0
-10.040283,-3.194418,-11.684153,-351.26001,53.619999,41.580002,1729414682189.0,0.0
-7.391429,-9.422935,-10.04507,-342.649994,54.670002,19.25,1729414682210.0,0.0
-7.867601,-5.948557,-6.838687,-257.040009,55.09,11.41,1729414682230.0,0.0
-8.523234,-11.140982,-3.76391,-292.459991,61.110001,1.26,1729414682249.0,0.0
-6.099305,-4.252046,-10.985448,-201.320007,29.75,4.13,1729414682270.0,0.0
-8.315059,-6.745367,-13.07199,-163.100006,65.660004,-4.55,1729414682290.0,0.0
-5.716454,-7.042077,-12.614961,-129.990005,76.019997,-13.51,1729414682310.0,0.0
-7.537392,-4.756931,-4.852644,-61.670002,93.449997,-27.860001,1729414682332.0,0.0
-5.589634,-8.77448,-8.008778,-11.34,71.260002,-10.99,1729414682349.0,0.0
-3.716053,-8.671589,-9.367901,79.870003,51.73,-40.18,1729414682371.0,0.0
-3.567699,-1.818545,-8.185846,192.850006,48.790001,-26.25,1729414682391.0,0.0
-2.991028,-2.371287,-5.213961,183.539993,44.310001,-1.54,1729414682411.0,0.0
-1.605584,-1.509871,-5.156533,159.460007,29.469999,4.13,1729414682433.0,0.0
-3.026921,-0.705883,-6.386444,121.730003,17.360001,8.26,1729414682452.0,0.0
-4.036692,-0.366102,-8.204988,61.950001,13.23,3.29,1729414682471.0,0.0
-4.359723,-1.847259,-10.250853,11.27,16.870001,5.39,1729414682490.0,0.0
-3.605984,-3.519842,-10.679168,-18.76,20.93,-8.05,1729414682511.0,0.0
-3.096312,-2.385644,-9.288938,-7.49,16.73,-10.08,1729414682532.0,0.0
-3.929015,-2.679961,-7.702496,-6.3,8.96,-12.18,1729414682552.0,0.0
-4.106083,-3.553342,-8.377272,-29.960001,0.77,-22.120001,1729414682574.0,0.0
-5.501099,-4.553542,-7.877172,-18.690001,-6.37,-28.07,1729414682591.0,0.0
-6.585048,-4.271189,-8.91805,28.0,-12.6,-33.529999,1729414682612.0,0.0
-6.111269,-1.887937,-9.047262,41.299999,-9.1,-44.450001,1729414682631.0,0.0
-6.063413,-3.900301,-8.863015,30.799999,-1.19,-47.740002,1729414682653.0,0.0
-7.030113,-2.538785,-9.372685,71.330002,6.72,-48.509998,1729414682671.0,0.0
-8.166703,-0.368495,-6.829116,174.720001,7.14,-27.09,1729414682692.0,0.0
-9.202796,-1.213161,-9.600004,322.420013,7.77,-10.43,1729414682711.0,0.0
-9.212367,-2.502892,-8.116454,427.0,30.940001,10.15,1729414682741.0,0.0
-9.568897,-2.012364,-4.632504,381.920013,49.139999,20.23,1729414682755.0,0.0
-9.29133,-3.239882,-3.596412,340.619995,57.119999,29.469999,1729414682772.0,0.0
-8.642875,-6.704689,-0.667598,283.570007,70.629997,39.200001,1729414682790.0,0.0
-6.702296,-10.080962,-4.096512,232.75,66.989998,26.6,1729414682812.0,0.0
-5.52742,-9.997212,1.215554,245.210007,64.68,13.93,1729414682831.0,0.0
-4.354938,-6.628119,-0.196211,304.709991,65.099998,17.08,1729414682851.0,0.0
-5.759524,-8.599805,-1.380659,280.980011,82.879997,34.369999,1729414682871.0,0.0
-4.058227,-7.704889,1.87358,234.430008,72.099998,6.23,1729414682890.0,0.0
-1.914258,-5.778666,1.488336,170.940002,52.43,3.22,1729414682912.0,0.0
-0.81356,-6.836295,6.513263,153.860001,45.43,5.39,1729414682932.0,0.0
0.68674,-6.98465,8.315059,158.899994,19.74,17.5,1729414682950.0,0.0
-1.299303,-4.39083,8.106883,169.399994,4.34,36.119999,1729414682971.0,0.0
-4.613362,-6.862615,6.352944,140.139999,-17.85,62.790001,1729414682990.0,0.0
-5.69731,-9.640682,3.199204,98.840004,-35.349998,59.010002,1729414683010.0,0.0
-6.460621,-10.24846,1.20359,72.870003,-31.710001,58.869999,1729414683031.0,0.0
-5.017749,-11.645866,0.760918,74.620003,-27.299999,60.549999,1729414683051.0,0.0
-6.317052,-11.150554,1.026521,78.610001,-13.37,44.170002,1729414683071.0,0.0
-7.209574,-9.796216,-0.815953,68.32,-10.36,34.650002,1729414683090.0,0.0
-6.924829,-7.377072,-1.316052,44.59,-5.95,20.440001,1729414683111.0,0.0
-6.585048,-6.642475,0.124427,25.129999,1.26,20.719999,1729414683131.0,0.0
-7.13779,-6.577869,0.205783,15.33,11.69,16.66,1729414683150.0,0.0
-6.568298,-5.505885,1.268196,8.33,17.57,13.09,1729414683171.0,0.0
-6.518049,-5.522634,3.146562,-25.200001,17.780001,18.059999,1729414683190.0,0.0
-6.9009,-6.439085,2.325824,-86.239998,6.09,14.35,1729414683210.0,0.0
-7.077969,-5.752346,1.28016,-131.600006,-0.49,6.58,1729414683231.0,0.0
-6.908078,-5.572884,2.134398,-159.740005,-1.89,4.41,1729414683250.0,0.0
-6.879365,-5.666204,1.37348,-192.360001,-1.68,0.21,1729414683271.0,0.0
-7.314859,-8.142776,0.818345,-191.660004,-1.82,0.98,1729414683290.0,0.0
-7.362715,-7.996813,0.880559,-199.710007,-2.8,-2.24,1729414683310.0,0.0
-6.539584,-8.085347,0.734596,-196.559998,-5.74,-7.35,1729414683331.0,0.0
-6.13759,-7.77428,-0.782453,-216.020004,-7.0,-10.29,1729414683351.0,0.0
-6.350551,-9.071191,-1.37348,-216.300003,-5.32,-5.88,1729414683370.0,0.0
-7.386643,-10.789237,-3.61077,-185.570007,-5.25,-8.61,1729414683390.0,0.0
-7.728817,-8.671589,-2.830709,-147.979996,2.17,-33.040001,1729414683411.0,0.0
-7.479963,-7.623533,-1.799403,-151.759995,3.78,-48.509998,1729414683432.0,0.0
-6.742974,-6.67119,-1.438086,-173.180008,-7.77,-43.959999,1729414683450.0,0.0
-5.388636,-8.523234,-3.333202,-138.389999,-10.15,-40.25,1729414683472.0,0.0
-5.737988,-7.489535,-3.531806,-90.790001,7.49,-30.309999,1729414683490.0,0.0
-7.310073,-4.845466,-3.168097,-81.970001,21.700001,-35.420002,1729414683510.0,0.0
-8.157133,-3.718446,-4.819145,-145.600006,19.950001,-49.91,1729414683531.0,0.0
-7.668997,-5.431707,-4.527221,-231.630005,25.48,-66.360001,1729414683550.0,0.0
-6.793223,-6.096912,-6.001199,-243.669998,36.68,-73.639999,1729414683573.0,0.0
-6.443871,-5.271388,-5.67099,-182.490005,31.43,-60.900002,1729414683591.0,0.0
-6.276374,-3.795017,-4.756931,-164.639999,31.43,-54.670002,1729414683610.0,0.0
-5.422136,-5.685347,-4.500899,-185.850006,31.290001,-48.369999,1729414683633.0,0.0
-4.780859,-8.185846,-6.02752,-181.860001,31.85,-48.720001,1729414683650.0,0.0
-4.977071,-7.424929,-5.168497,-144.970001,27.299999,-45.57,1729414683670.0,0.0
-3.759124,-6.740582,-7.042077,-116.760002,17.290001,-48.09,1729414683690.0,0.0
-4.118048,-3.754339,-4.54397,-109.620003,21.629999,-48.860001,1729414683710.0,0.0
-1.603191,-6.24766,-4.749753,-120.260002,1.96,-29.190001,1729414683730.0,0.0
-0.363709,-9.908678,-7.987241,-104.790001,-10.36,-35.279999,1729414683750.0,0.0
-2.651247,-7.281359,-7.396214,-36.959999,-14.21,-47.110001,1729414683771.0,0.0
-2.79721,0.177069,-7.345965,-32.200001,-18.76,-36.259998,1729414683790.0,0.0
-1.837688,1.629512,-8.176274,-107.590004,-27.16,-4.83,1729414683810.0,0.0
-3.256632,-3.103491,-10.284351,-177.169998,-14.63,14.0,1729414683831.0,0.0
-3.548556,-4.204189,-10.49492,-114.800003,-16.1,14.0,1729414683849.0,0.0
-3.192025,-4.378866,-10.226924,-28.84,-10.29,15.12,1729414683870.0,0.0
-3.180061,-1.830509,-9.274581,12.67,-10.85,8.68,1729414683890.0,0.0
-3.620341,-2.313859,-8.829515,-12.6,-9.87,6.58,1729414683910.0,0.0
-3.328416,-3.328416,-8.762517,-45.5,-7.14,3.22,1729414683931.0,0.0
-2.557927,-3.926622,-8.645268,-43.259998,-11.55,3.15,1729414683950.0,0.0
-2.553142,-2.096112,-8.585447,-6.72,-17.219999,0.91,1729414683970.0,0.0
-2.696711,-0.301496,-9.552148,-11.34,-17.639999,3.78,1729414683990.0,0.0
-3.072384,-1.282553,-9.906286,-21.98,-10.36,10.85,1729414684010.0,0.0
-2.835495,-1.265803,-10.083356,-11.13,-10.01,11.55,1729414684030.0,0.0
-1.89033,-2.340181,-10.9017,-18.969999,-1.47,10.85,1729414684049.0,0.0
-2.868994,-4.713861,-10.112068,-9.31,6.79,1.75,1729414684077.0,0.0
-5.268995,-5.125426,-6.613762,24.99,6.02,-13.65,1729414684090.0,0.0
-7.293324,-5.438886,-4.742575,111.440002,-8.82,-0.98,1729414684110.0,0.0
-6.305088,-3.151347,-6.070591,100.169998,-11.83,6.37,1729414684134.0,0.0
-4.429115,-2.713461,-8.908479,103.599998,-21.91,24.85,1729414684149.0,0.0
-3.828516,-2.885744,-10.655239,130.199997,-26.809999,38.57,1729414684173.0,0.0
-4.476971,-4.862216,-9.975677,142.380005,-24.85,32.27,1729414684190.0,0.0
-4.936393,-3.046063,-8.006385,100.519997,-31.219999,-3.36,1729414684210.0,0.0
-6.431907,-3.383451,-9.19801,19.389999,-26.18,-18.969999,1729414684231.0,0.0
-5.551349,-6.893722,-10.870593,14.42,-14.84,-22.26,1729414684250.0,0.0
-7.015756,-4.206582,-6.769295,56.490002,-10.08,-26.25,1729414684271.0,0.0
-9.154939,-2.400001,-11.854043,88.480003,44.869999,-26.32,1729414684290.0,0.0
-10.839487,-4.460221,-6.975078,208.320007,132.089996,38.5,1729414684313.0,0.0
-5.486742,-2.019542,-6.750153,287.140015,-25.969999,-50.959999,1729414684331.0,0.0
-5.503492,-3.89073,-9.662218,408.029999,-63.490002,-38.080002,1729414684351.0,0.0
-8.693125,-2.105684,-2.17029,268.100006,78.889999,13.51,1729414684374.0,0.0
-9.10469,-4.582255,0.064606,232.470001,50.330002,43.049999,1729414684391.0,0.0
-6.269196,-11.877973,0.713061,257.25,27.93,31.780001,1729414684412.0,0.0
-3.955336,-7.941778,-2.136791,202.720001,24.219999,6.72,1729414684433.0,0.0
-8.377272,-9.193225,-1.371087,211.680008,48.439999,26.67,1729414684452.0,0.0
-5.630312,-7.350751,-2.108077,190.399994,36.959999,5.25,1729414684472.0,0.0
-5.211568,-7.987241,-1.689333,170.169998,45.709999,9.73,1729414684492.0,0.0
-5.735595,-9.042477,-1.598405,167.789993,53.200001,5.95,1729414684512.0,0.0
-3.921836,-8.819944,1.086342,149.589996,41.720001,-2.17,1729414684533.0,0.0
-2.617748,-8.688338,2.921637,112.0,28.630001,-9.1,1729414684553.0,0.0
-2.136791,-8.236095,5.752346,99.050003,22.960001,-10.64,1729414684575.0,0.0
-0.303888,-6.63769,7.56132,128.660004,2.8,-5.32,1729414684593.0,0.0
-0.729811,-5.123034,8.082954,151.550003,-3.08,19.040001,1729414684614.0,0.0
-1.493121,-5.860023,3.945765,123.059998,-15.96,33.950001,1729414684633.0,0.0
-2.289931,-10.193424,2.476572,123.970001,-10.57,62.860001,1729414684652.0,0.0
-3.783052,-11.047661,0.942772,133.559998,-7.98,69.790001,1729414684675.0,0.0
-5.438886,-10.851451,2.443072,136.850006,-4.13,72.099998,1729414684695.0,0.0
-4.948357,-9.683753,1.842474,84.279999,-13.72,63.139999,1729414684713.0,0.0
-5.020142,-9.064013,-0.222532,23.24,-17.08,52.220001,1729414684735.0,0.0
-5.364708,-10.076177,-1.969293,-6.09,-8.12,52.220001,1729414684753.0,0.0
-7.082755,-11.282159,-2.512464,10.01,1.68,38.150002,1729414684774.0,0.0
-8.470592,-10.210175,-3.160919,41.790001,31.5,30.73,1729414684797.0,0.0
-8.126025,-8.02792,-2.421536,18.83,52.849998,16.24,1729414684814.0,0.0
-7.269395,-5.611169,1.722832,-72.730003,47.670002,-0.49,1729414684833.0,0.0
-7.869993,-5.807381,3.498307,-128.729996,13.02,3.85,1729414684853.0,0.0
-6.611369,-4.393222,-1.426122,-121.520004,-9.38,-2.24,1729414684872.0,0.0
-6.396015,-4.898108,-1.648655,-112.910004,-8.12,1.54,1729414684893.0,0.0
-7.207181,-6.02752,1.091127,-174.649994,10.92,-7.07,1729414684913.0,0.0
-7.049256,-7.704889,1.088734,-186.690002,5.11,-15.61,1729414684934.0,0.0
-6.15434,-8.305488,-0.507278,-138.880005,-0.84,-22.68,1729414684953.0,0.0
-5.283352,-7.692925,0.27996,-110.32,9.31,-23.59,1729414684973.0,0.0
-4.852644,-8.49452,0.129212,-114.730003,14.56,-13.58,1729414684992.0,0.0
-5.79063,-8.913264,-0.239282,-115.639999,21.98,-7.21,1729414685012.0,0.0
-6.250053,-8.425128,-0.234497,-114.520004,22.33,-8.12,1729414685035.0,0.0
-6.183054,-7.941778,-0.693919,-129.639999,12.32,-9.03,1729414685053.0,0.0
-6.396015,-8.484949,-1.521835,-140.979996,8.26,-11.9,1729414685075.0,0.0
-6.348158,-9.10469,-2.24686,-143.080002,6.93,-16.379999,1729414685092.0,0.0
-6.04427,-8.676375,-2.957529,-129.639999,2.31,-20.93,1729414685114.0,0.0
-6.273981,-8.181061,-2.672783,-129.149994,4.41,-21.629999,1729414685132.0,0.0
-6.474977,-7.073184,-2.696711,-134.399994,1.12,-25.129999,1729414685153.0,0.0
-6.489335,-7.616355,-2.445465,-148.75,-5.32,-28.49,1729414685174.0,0.0
-6.345766,-7.176075,-4.596612,-177.520004,-12.81,-35.91,1729414685192.0,0.0
-5.845665,-6.427122,-4.046263,-171.570007,-16.24,-33.389999,1729414685212.0,0.0
-5.84088,-5.608776,-4.584648,-168.699997,-17.85,-27.02,1729414685234.0,0.0
-6.218946,-5.85763,-4.771288,-182.139999,-19.950001,-25.34,1729414685252.0,0.0
-5.802595,-6.707082,-5.898308,-197.680008,-18.48,-29.190001,1729414685273.0,0.0
-5.381458,-6.955935,-6.209375,-176.330002,-12.95,-25.76,1729414685292.0,0.0
-5.273781,-6.329016,-5.864808,-146.160004,-11.27,-23.59,1729414685314.0,0.0
-5.383851,-6.396015,-6.484549,-148.470001,-9.66,-23.73,1729414685336.0,0.0
-5.529813,-4.723432,-6.419943,-135.589996,-6.09,-27.23,1729414685352.0,0.0
-5.659025,-4.807181,-6.422336,-129.360001,-4.83,-25.83,1729414685372.0,0.0
-6.15434,-4.84068,-7.640282,-147.910004,-0.98,-24.99,1729414685393.0,0.0
-6.429514,-4.132405,-7.24786,-153.930008,1.82,-32.619999,1729414685414.0,0.0
-7.008578,-4.13719,-6.982256,-136.220001,2.94,-36.610001,1729414685434.0,0.0
-7.204789,-3.919443,-6.278766,-156.309998,-2.52,-43.82,1729414685454.0,0.0
-7.984849,-0.653241,-5.589634,-191.800003,-8.4,-39.830002,1729414685472.0,0.0
-7.661818,-5.4676,-9.729217,-188.720001,2.38,-59.920002,1729414685494.0,0.0
-5.728417,-3.976871,-9.552148,-126.910004,8.05,-76.93,1729414685514.0,0.0
-6.07777,-5.663811,-8.910872,-41.299999,16.17,-72.590004,1729414685534.0,0.0
-5.347959,-4.201797,-7.848458,-4.69,23.59,-88.410004,1729414685552.0,0.0
-4.814359,-3.4672,-6.769295,25.620001,12.88,-81.900002,1729414685574.0,0.0
-3.74716,-3.558127,-7.860423,50.189999,12.88,-77.279999,1729414685592.0,0.0
-2.342573,-1.57687,-9.12144,128.240005,-10.78,-59.010002,1729414685612.0,0.0
-2.079363,0.20339,-8.91805,199.080002,-18.83,-27.860001,1729414685633.0,0.0
-2.739782,-1.741975,-9.217153,164.570007,-13.3,2.59,1729414685651.0,0.0
-2.203789,-3.371487,-8.788837,118.370003,0.77,23.450001,1729414685674.0,0.0
-2.117648,-5.565705,-8.427521,172.690002,-3.29,38.920002,1729414685693.0,0.0
-2.021935,-4.21376,-8.456236,207.270004,-7.98,36.610001,1729414685712.0,0.0
-3.151347,-2.132005,-6.798009,163.940002,-4.27,43.610001,1729414685734.0,0.0
-4.651647,-2.222932,-5.520242,66.57,5.67,48.860001,1729414685753.0,0.0
-5.393422,-4.517649,-6.410372,0.21,-1.68,57.75,1729414685774.0,0.0
-5.099105,-3.68734,-7.089933,-64.75,-15.26,51.73,1729414685793.0,0.0
-5.520242,-1.897508,-10.033106,-126.07,-16.24,56.91,1729414685815.0,0.0
-7.032506,-4.776074,-10.176675,-135.800003,-2.59,58.939999,1729414685835.0,0.0
-8.60459,-8.425128,-6.680761,-58.310001,-11.69,40.459999,1729414685852.0,0.0
-7.750352,-4.773681,-4.457829,-62.860001,-38.920002,10.92,1729414685873.0,0.0
-6.407979,-1.344766,-6.762117,-77.0,-51.799999,30.17,1729414685891.0,0.0
-6.132804,4.350152,-8.477771,-115.849998,-29.960001,42.77,1729414685912.0,0.0
-11.842079,-5.649454,-2.055435,-205.309998,-3.22,59.360001,1729414685933.0,0.0
-6.355337,-10.102496,-8.913264,-212.940002,-15.190001,12.11,1729414685951.0,0.0
-6.309873,0.81356,-7.243074,-116.690002,-43.119999,27.65,1729414685973.0,0.0
-8.463413,-9.229117,-9.698111,-218.540009,33.880001,16.030001,1729414685994.0,0.0
-3.515057,-9.564112,-7.288538,-122.5,7.14,-0.49,1729414686013.0,0.0
-7.164111,-1.529014,-7.286145,12.39,-1.33,4.34,1729414686034.0,0.0
-7.022934,-2.182254,-8.853443,-2.31,17.710001,3.36,1729414686051.0,0.0
-6.156733,-2.189433,-10.04507,14.56,18.690001,11.2,1729414686073.0,0.0
-5.903094,-0.636491,-10.822738,32.830002,24.57,7.77,1729414686091.0,0.0
-4.692325,1.004985,-9.092726,58.029999,32.759998,20.65,1729414686113.0,0.0
-3.036492,-2.533999,-7.62114,70.07,29.610001,19.110001,1729414686133.0,0.0
-4.165904,-2.502892,-7.798209,65.870003,24.639999,10.85,1729414686152.0,0.0
-4.776074,-0.870987,-8.444271,81.340004,21.35,16.309999,1729414686172.0,0.0
-4.912465,-3.108276,-8.032705,87.290001,25.27,26.67,1729414686192.0,0.0
-4.766503,-4.278367,-6.912865,96.529999,23.030001,24.219999,1729414686213.0,0.0
-4.206582,-4.053442,-6.441479,100.099998,16.73,15.96,1729414686235.0,0.0
-3.5007,-3.847659,-6.082555,97.720001,4.13,5.88,1729414686251.0,0.0
-5.106283,-2.072184,-6.673582,52.990002,1.75,-2.94,1729414686274.0,0.0
-6.161518,-2.964707,-9.437292,-2.45,12.46,-5.25,1729414686292.0,0.0
-5.379066,-2.309074,-10.509278,-4.41,20.51,-2.45,1729414686311.0,0.0
-5.443672,-3.78066,-10.387242,19.18,31.85,-5.11,1729414686335.0,0.0
-5.304887,-3.321238,-8.188239,28.42,31.360001,-18.549999,1729414686352.0,0.0
-4.204189,-3.627519,-6.754939,21.280001,20.23,-23.870001,1729414686373.0,0.0
-4.529613,-3.18724,-6.996613,20.719999,8.19,-20.51,1729414686391.0,0.0
-5.888737,-2.342573,-7.267002,19.6,1.05,-16.870001,1729414686412.0,0.0
-6.015556,-2.555535,-7.944171,9.38,-6.93,-15.54,1729414686432.0,0.0
-6.738188,-4.010371,-6.673582,15.05,-9.38,-15.47,1729414686452.0,0.0
-7.458428,-2.06022,-7.384251,61.25,-6.37,-8.47,1729414686473.0,0.0
-6.357729,-3.761517,-8.006385,77.07,-11.97,-27.58,1729414686492.0,0.0
-8.082954,-0.928415,-8.020741,160.089996,-13.86,-6.37,1729414686512.0,0.0
-7.278966,-2.696711,-9.131011,198.520004,-8.75,-16.379999,1729414686536.0,0.0
-7.738388,-4.862216,-7.922636,257.179993,12.88,-8.54,1729414686551.0,0.0
-7.369894,-3.199204,-7.996813,364.980011,23.59,-2.52,1729414686575.0,0.0
-7.171289,-1.921437,-4.972286,419.089996,19.040001,24.43,1729414686598.0,0.0
-5.864808,-1.837688,-2.85703,295.820007,24.43,26.25,1729414686614.0,0.0
-6.79083,-6.041877,-7.4345,240.729996,50.470001,36.119999,1729414686634.0,0.0
-7.432107,-9.475577,4.161119,279.160004,67.269997,57.75,1729414686653.0,0.0
-5.458029,-8.583055,1.485943,290.709991,25.549999,34.09,1729414686674.0,0.0
-6.053841,-9.664611,-1.366302,169.470001,32.619999,33.389999,1729414686691.0,0.0
-5.704489,-13.11506,-0.909273,136.779999,24.639999,1.19,1729414686714.0,0.0
-6.472585,-12.32543,-2.062613,202.649994,44.170002,-1.47,1729414686734.0,0.0
-5.749953,-9.085547,-0.691526,231.210007,52.360001,-19.809999,1729414686753.0,0.0
-5.52742,-7.489535,1.59362,152.809998,43.049999,-30.73,1729414686835.0,0.0
-4.201797,-8.705089,1.808974,84.349998,17.15,-44.240002,1729414686836.0,0.0
-3.512664,-7.889136,1.840081,90.860001,13.23,-37.380001,1729414686836.0,0.0
-3.189633,-6.867401,3.259024,86.590004,7.28,-44.380001,1729414686836.0,0.0
-2.904887,-4.919643,4.26401,82.529999,-0.91,-32.27,1729414686874.0,0.0
-2.600998,-1.832902,5.300103,81.970001,-10.5,-4.9,1729414686875.0,0.0
-3.314059,-2.055435,4.888536,65.660004,-18.27,19.460001,1729414686892.0,0.0
-4.453043,-6.185446,2.462214,21.07,-29.4,40.040001,1729414686912.0,0.0
-6.223732,-8.305488,3.091527,2.66,-26.110001,42.490002,1729414686933.0,0.0
-3.811767,-13.41895,-1.722832,-1.26,-25.690001,51.869999,1729414686953.0,0.0
-5.142176,-10.755738,-1.591227,23.030001,-14.35,41.369999,1729414686973.0,0.0
-6.829116,-8.106883,-0.765703,103.529999,-0.7,79.940002,1729414686992.0,0.0
-7.171289,-8.188239,-1.339981,80.919998,3.01,54.599998,1729414687014.0,0.0
-6.965507,-7.037291,-3.969693,-23.59,6.09,34.580002,1729414687033.0,0.0
-7.106683,-5.737988,-3.426522,-108.150002,16.66,45.43,1729414687059.0,0.0
-7.771888,-8.477771,-0.449851,-141.470001,13.58,28.42,1729414687082.0,0.0
-8.10449,-7.869993,-0.727418,-124.949997,4.06,10.22,1729414687093.0,0.0
-7.276574,-6.903293,-0.765703,-109.830002,2.8,7.7,1729414687113.0,0.0
-5.895915,-7.618747,-0.602991,-147.559998,-1.4,-13.86,1729414687134.0,0.0
-5.919843,-10.645668,-0.787239,-169.190002,5.46,-19.530001,1729414687154.0,0.0
-6.252446,-11.923435,-1.105484,-124.879997,19.18,-24.780001,1729414687239.0,0.0
-5.594419,-8.91805,0.332602,-65.169998,25.76,-33.25,1729414687240.0,0.0
-4.981857,-5.051248,0.806381,-45.080002,21.77,-29.960001,1729414687240.0,0.0
-5.60399,-5.419744,-0.325424,-88.340004,15.82,-27.370001,1729414687240.0,0.0
-6.431907,-8.370094,-2.376073,-268.940002,1.47,-39.34,1729414687253.0,0.0
-5.699703,-6.869793,-1.938186,-292.950012,-19.32,-46.27,1729414687274.0,0.0
-6.333801,-7.77428,-5.508278,-256.970001,-22.120001,-11.9,1729414687293.0,0.0
-6.606583,-8.240881,-2.328217,-125.440002,-16.73,-13.3,1729414687317.0,0.0
-7.41775,-5.462814,-2.237289,-134.050003,-5.46,-14.07,1729414687335.0,0.0
-7.690532,-2.892922,-5.005785,-217.630005,-11.34,-20.65,1729414687354.0,0.0
-8.970692,-4.333402,-3.692125,-366.660004,-5.11,-23.24,1729414687374.0,0.0
-5.766702,-5.582455,-5.845665,-363.369995,-20.93,-47.810001,1729414687394.0,0.0
-6.393622,-3.864408,-5.91745,-330.119995,-16.59,-31.92,1729414687413.0,0.0
-6.348158,-5.168497,-6.74776,-319.410004,-12.81,-54.670002,1729414687436.0,0.0
-9.966106,-2.084148,-9.284152,-280.769989,-15.61,-19.32,1729414687453.0,0.0
-6.448657,-5.328816,-7.872386,-272.440002,3.08,-19.32,1729414687475.0,0.0
-7.066005,-2.821138,-8.475377,-212.100006,12.46,-24.57,1729414687543.0,0.0
-6.953543,-2.306681,-8.178668,-168.210007,17.5,-11.48,1729414687560.0,0.0
-6.503692,-2.620141,-9.12144,-149.380005,30.52,-7.0,1729414687564.0,0.0
-5.453243,-2.878566,-9.583255,-118.650002,38.290001,-13.72,1729414687706.0,0.0
-4.965107,-4.204189,-6.989435,-72.590004,40.740002,-16.17,1729414687707.0,0.0
-6.022735,-2.574677,-7.250252,17.57,21.49,-28.210001,1729414687708.0,0.0
-3.074777,-5.613562,-7.850852,51.66,15.12,-15.12,1729414687710.0,0.0
-2.514857,-7.018148,-9.707682,147.070007,7.49,-18.83,1729414687713.0,0.0
-2.744568,-6.491727,-11.145767,238.979996,6.02,-20.299999,1729414687716.0,0.0
-2.651247,-4.003192,-9.942179,349.299988,21.629999,-3.36,1729414687718.0,0.0
-0.760918,-5.580062,-11.650653,498.890015,17.780001,31.85,1729414687719.0,0.0
0.746561,-5.795416,-10.928021,556.5,43.82,14.98,1729414687720.0,0.0
-2.586641,-4.783253,-7.24786,552.299988,91.07,26.32,1729414687735.0,0.0
-5.517848,-7.664211,-5.190032,464.869995,93.449997,35.490002,1729414687753.0,0.0
-4.472186,-6.446264,-5.072784,377.649994,72.590004,14.0,1729414687773.0,0.0
-3.101098,-5.034499,-4.09412,418.179993,58.73,28.49,1729414687793.0,0.0
-2.794817,-8.006385,-1.411765,506.380005,67.620003,54.32,1729414687813.0,0.0
-2.830709,-4.436293,-0.880559,484.330017,78.050003,50.889999,1729414687834.0,0.0
-4.158726,-0.210568,5.103891,477.470001,85.889999,79.169998,1729414687853.0,0.0
-7.111469,-3.158526,14.904892,352.519989,61.950001,85.75,1729414687874.0,0.0
-7.910671,-6.838687,9.341579,29.049999,-2.73,71.330002,1729414687893.0,0.0
-5.723632,-13.842479,-0.62692,-170.380005,-52.57,13.440001,1729414687914.0,0.0
-2.510071,-10.717452,-2.632105,-81.760002,-26.460001,13.93,1729414687933.0,0.0
-7.161718,-7.257431,1.581656,61.040001,-2.31,44.240002,1729414687952.0,0.0
-8.240881,-5.101498,2.146362,79.519997,-4.27,42.0,1729414687974.0,0.0
-5.821737,-3.814159,1.275374,10.99,-15.82,31.360001,1729414687992.0,0.0
-5.656632,-7.702496,-0.011964,-39.900002,-15.68,36.959999,1729414688013.0,0.0
-6.798009,-8.449057,-1.351945,-22.889999,-10.29,25.76,1729414688037.0,0.0
-7.795816,-9.824929,1.744368,68.669998,2.8,39.130001,1729414688053.0,0.0
-7.128219,-7.128219,3.158526,131.110001,12.25,29.610001,1729414688076.0,0.0
-7.403394,-4.479364,4.87418,72.590004,7.56,34.369999,1729414688095.0,0.0
-7.623533,-5.627919,3.505485,9.87,-14.63,25.9,1729414688113.0,0.0
-8.221739,-8.937192,3.842873,-11.69,-19.879999,21.139999,1729414688136.0,0.0
-7.144968,-7.755138,4.208975,-28.07,-24.639999,2.87,1729414688153.0,0.0
-7.948956,-7.628319,5.675776,-95.269997,-18.34,-4.76,1729414688175.0,0.0
-8.23131,-5.766702,5.623133,-224.0,-35.0,-35.84,1729414688192.0,0.0
-7.278966,-5.190032,2.940779,-311.429993,-50.189999,-65.940002,1729414688213.0,0.0
-5.35753,-4.103691,1.299303,-279.579987,-53.830002,-62.439999,1729414688233.0,0.0
-3.905087,-3.067599,-1.179662,-213.919998,-61.950001,-24.01,1729414688253.0,0.0
-5.67099,-1.634298,-0.521635,-188.440002,-50.400002,25.48,1729414688274.0,0.0
-7.322037,-1.574477,-2.519642,-238.559998,-54.880001,54.529999,1729414688292.0,0.0
-7.456036,-3.175276,-4.369294,-315.910004,-57.260002,46.48,1729414688315.0,0.0
-7.082755,-4.106083,-6.15434,-360.640015,-59.080002,37.59,1729414688333.0,0.0
-7.348359,-3.426522,-7.946564,-320.390015,-38.779999,66.290001,1729414688353.0,0.0
-6.331409,-1.351945,-9.899107,-309.049988,-18.549999,64.470001,1729414688373.0,0.0
-9.128618,-4.441079,-13.677374,-318.290009,6.93,82.599998,1729414688393.0,0.0
-5.852845,-5.07757,-12.25843,-409.779999,36.68,-14.63,1729414688412.0,0.0
-8.181061,-2.68714,-8.449057,-271.809998,38.5,57.470001,1729414688433.0,0.0
-7.848458,-0.526421,-10.600205,-342.160004,67.059998,17.43,1729414688453.0,0.0
-8.114061,-8.003991,-9.786645,-351.959991,67.199997,25.27,1729414688473.0,0.0
-7.367501,-5.596812,-10.863414,-252.0,64.610001,8.82,1729414688493.0,0.0
-9.554541,-7.465607,-7.032506,-191.169998,81.340004,8.96,1729414688515.0,0.0
-6.862615,-6.678369,-5.343173,-201.669998,63.420002,-3.43,1729414688539.0,0.0
-9.047262,-2.234896,-10.669596,-129.710007,52.5,10.15,1729414688554.0,0.0
-7.625926,-5.146961,-11.988041,-143.639999,63.91,-2.45,1729414688576.0,0.0
-7.862815,-4.295116,-8.484949,-56.349998,74.410004,1.96,1729414688593.0,0.0
-5.453243,-10.219746,-0.189033,-128.800003,71.470001,-6.65,1729414688613.0,0.0
-2.756532,-12.58864,-7.826923,-32.060001,33.810001,-24.15,1729414688646.0,0.0
-3.091527,-7.618747,-11.380265,122.919998,24.290001,-39.830002,1729414688656.0,0.0
-4.331009,-3.038885,-10.420743,248.570007,24.99,-9.38,1729414688673.0,0.0
-2.699104,-2.115255,-7.874779,276.429993,43.82,11.27,1729414688694.0,0.0
-3.113062,-0.019143,-2.354537,248.430008,33.670002,34.16,1729414688714.0,0.0
-4.431508,-0.789631,-6.197411,134.190002,24.43,18.83,1729414688736.0,0.0
-4.862216,-2.230111,-10.58824,52.709999,21.280001,6.79,1729414688755.0,0.0
-5.254639,-2.892922,-10.899307,53.619999,26.530001,7.21,1729414688775.0,0.0
-4.601398,-3.024528,-8.673983,62.369999,31.15,4.55,1729414688793.0,0.0
-3.45045,-2.445465,-7.805387,62.650002,25.549999,-4.97,1729414688814.0,0.0
-3.333202,-5.386244,-9.724431,71.330002,15.190001,-1.47,1729414688836.0,0.0
-1.701297,-5.608776,-6.647261,19.950001,3.78,-33.110001,1729414688854.0,0.0
-0.591027,-6.443871,-6.812366,-33.950001,-4.76,-48.580002,1729414688874.0,0.0
-4.158726,-3.022135,-8.032705,-10.15,-20.23,-28.280001,1729414688894.0,0.0
-5.254639,-2.622534,-8.185846,6.37,-21.700001,-25.27,1729414688914.0,0.0
-4.587041,-4.728218,-8.032705,96.739998,-24.780001,-15.82,1729414688937.0,0.0
-6.750153,-2.667997,-5.599205,193.970001,-38.150002,-11.27,1729414688953.0,0.0
-6.757331,-2.754139,-7.649854,254.869995,-54.18,-6.23,1729414688974.0,0.0
-7.159326,-7.290931,-9.97807,311.220001,-42.84,4.06,1729414688995.0,0.0
-8.049455,-7.872386,-10.365707,361.76001,-15.75,6.09,1729414689014.0,0.0
-9.032906,-5.943772,-3.364309,353.920013,1.12,11.97,1729414689036.0,0.0
-7.448857,-6.039484,-5.426922,217.699997,10.71,1.19,1729414689054.0,0.0
-6.18784,-9.293723,-4.199404,128.169998,49.0,5.39,1729414689075.0,0.0
-7.080362,-12.68196,-3.177669,168.910004,69.720001,15.89,1729414689095.0,0.0
-6.168696,-7.118648,-5.199604,236.669998,80.849998,5.39,1729414689117.0,0.0
-6.63769,-7.645068,-4.067799,260.540009,98.980003,14.98,1729414689136.0,0.0
-4.603791,-9.556933,-0.660419,241.850006,96.529999,-3.08,1729414689156.0,0.0
-2.012364,-4.211368,10.638489,196.279999,80.290001,-4.83,1729414689177.0,0.0
-0.490529,-4.208975,9.946963,68.040001,13.86,-2.73,1729414689195.0,0.0
-3.424129,-5.517848,3.909872,-31.5,-20.16,6.09,1729414689215.0,0.0
-4.800002,-7.980063,-1.679761,-65.590004,-30.799999,14.7,1729414689236.0,0.0
-2.792424,-10.358529,-1.639083,-56.98,-34.439999,27.370001,1729414689255.0,0.0
-1.354338,-11.315658,-0.880559,-30.380001,-34.23,26.809999,1729414689277.0,0.0
-3.371487,-9.710074,1.055235,29.190001,-35.98,28.0,1729414689296.0,0.0
-5.65424,-8.26481,-0.495314,48.720001,-42.07,27.65,1729414689315.0,0.0
-4.45065,-8.123632,-2.926422,-4.48,-53.689999,23.379999,1729414689337.0,0.0
-3.328416,-11.399406,-5.611169,-45.709999,-50.049999,14.28,1729414689360.0,0.0
-5.041678,-13.227524,-6.321837,-3.71,-22.049999,1.61,1729414689375.0,0.0
-6.199803,-6.965507,-2.924029,107.379997,4.48,12.88,1729414689396.0,0.0
-5.259424,-5.563312,-1.904687,169.119995,14.14,36.330002,1729414689415.0,0.0
-4.792823,-7.542177,0.87338,140.559998,17.219999,36.75,1729414689436.0,0.0
-7.223931,-9.643075,2.730211,107.940002,7.49,39.200001,1729414689456.0,0.0
-7.338787,-7.128219,-0.732204,109.830002,-3.43,36.189999,1729414689477.0,0.0
-6.924829,-5.891129,0.12682,111.93,-7.98,53.689999,1729414689495.0,0.0
-7.850852,-7.525427,1.581656,109.059998,2.31,44.240002,1729414689515.0,0.0
-8.920443,-8.910872,2.100898,106.400002,7.91,29.26,1729414689535.0,0.0
-8.047063,-8.764909,3.129812,107.029999,0.98,12.25,1729414689555.0,0.0
-7.223931,-7.798209,1.854438,134.050003,1.33,-1.26,1729414689577.0,0.0
-6.884151,-6.257231,2.62732,150.779999,16.24,-4.41,1729414689596.0,0.0
-6.352944,-6.034698,3.495914,113.120003,14.98,-9.59,1729414689615.0,0.0
-5.02732,-4.567898,4.206582,89.529999,19.74,-6.37,1729414689635.0,0.0
-5.661418,-6.147161,3.996014,74.480003,16.1,4.9,1729414689654.0,0.0
-5.627919,-5.331209,4.194618,72.309998,17.08,9.87,1729414689675.0,0.0
-5.936593,-5.429315,4.656433,48.09,14.49,14.35,1729414689695.0,0.0
-6.022735,-6.063413,3.778267,22.4,8.12,15.82,1729414689715.0,0.0
-6.096912,-5.465207,4.398008,20.299999,8.47,16.52,1729414689736.0,0.0
-6.652047,-5.465207,5.328816,13.09,2.52,16.940001,1729414689754.0,0.0
-6.65444,-5.503492,6.037091,0.63,-8.33,16.940001,1729414689777.0,0.0
-6.690332,-4.828716,5.864808,2.94,-18.76,21.629999,1729414689794.0,0.0
-7.365108,-6.508478,6.494121,-14.42,-31.43,19.67,1729414689816.0,0.0
-6.898508,-4.283153,6.159126,-62.580002,-43.82,8.61,1729414689837.0,0.0
-8.370094,-3.871587,2.091327,-152.880005,-54.110001,8.61,1729414689855.0,0.0
-9.226725,-7.403394,-1.974079,-175.419998,-56.560001,10.78,1729414689877.0,0.0
-8.671589,-10.41835,-4.606184,-105.629997,-31.290001,1.61,1729414689895.0,0.0
-7.860423,-9.056834,-2.440679,-7.28,-5.18,-23.309999,1729414689915.0,0.0
-8.88455,-6.79083,2.337788,54.25,18.9,-31.99,1729414689938.0,0.0
-9.382257,-6.037091,2.974278,11.2,8.47,-52.080002,1729414689954.0,0.0
-7.331609,-6.872187,2.478964,-42.630001,0.28,-68.32,1729414689975.0,0.0
-6.257231,-6.874579,1.605584,-66.57,-6.16,-67.059998,1729414689995.0,0.0
-6.759724,-5.781059,1.462015,-62.02,13.02,-65.730003,1729414690015.0,0.0
-7.819745,-8.047063,1.028914,-59.849998,26.040001,-64.330002,1729414690035.0,0.0
-5.139783,-9.135797,2.971886,-51.73,21.49,-77.699997,1729414690055.0,0.0
-2.11047,-6.400801,5.268995,-8.19,41.16,-62.860001,1729414690075.0,0.0
-1.160519,-5.017749,8.252845,42.139999,34.790001,-20.93,1729414690096.0,0.0
-1.258625,-7.104291,7.575676,45.57,13.3,-22.4,1729414690114.0,0.0
-1.473979,-6.680761,7.563712,102.410004,11.41,5.67,1729414690137.0,0.0
-2.24686,-5.864808,6.34098,142.100006,21.49,26.110001,1729414690154.0,0.0
-3.04367,-6.699903,5.584848,125.650002,22.889999,42.490002,1729414690176.0,0.0
-4.579862,-7.125826,5.541777,140.070007,30.309999,57.189999,1729414690195.0,0.0
-4.989035,-8.149954,5.455636,136.149994,27.860001,56.700001,1729414690215.0,0.0
-4.577469,-8.410772,2.945565,104.93,21.98,55.23,1729414690236.0,0.0
-5.888737,-8.293523,1.667797,82.669998,23.450001,56.98,1729414690254.0,0.0
-6.537192,-8.580662,1.20359,66.779999,27.09,42.349998,1729414690276.0,0.0
-6.503692,-6.876972,1.691726,81.690002,30.380001,37.939999,1729414690295.0,0.0
-7.611568,-6.85783,2.658426,58.66,31.15,34.720001,1729414690315.0,0.0
-8.300702,-6.372087,3.737589,-15.96,19.25,17.219999,1729414690335.0,0.0
-7.477571,-6.558727,3.876373,-89.949997,1.61,3.57,1729414690355.0,0.0
-7.226324,-6.850651,2.323431,-118.370003,-8.75,-9.31,1729414690375.0,0.0
-6.876972,-5.178068,3.318845,-118.860001,2.1,-16.1,1729414690395.0,0.0
-6.381658,-4.285545,3.74716,-154.979996,7.07,-20.65,1729414690414.0,0.0
-6.139983,-6.07777,2.316252,-202.789993,1.75,-24.99,1729414690437.0,0.0
-6.821937,-6.161518,0.976272,-213.220001,6.51,-21.77,1729414690455.0,0.0
-7.542177,-6.546762,1.710868,-216.369995,12.74,-23.940001,1729414690476.0,0.0
-7.554141,-6.039484,1.442872,-249.899994,0.98,-30.799999,1729414690495.0,0.0
-7.302894,-6.199803,0.045464,-280.350006,-5.67,-38.150002,1729414690515.0,0.0
-7.109076,-8.956335,-0.629312,-248.639999,-14.7,-27.790001,1729414690536.0,0.0
-6.295516,-9.406186,-0.275175,-196.559998,-12.39,-26.040001,1729414690555.0,0.0
-6.180661,-8.01117,0.172283,-140.630005,-1.05,-19.389999,1729414690577.0,0.0
-6.802795,-6.982256,-1.756332,-132.089996,6.3,-19.32,1729414690595.0,0.0
-6.80758,-8.693125,-2.538785,-158.830002,-6.23,-22.960001,1729414690615.0,0.0
-6.367301,-10.08814,-2.919244,-185.430008,-8.05,-30.66,1729414690636.0,0.0
-5.367101,-5.144568,-4.795217,-196.279999,-8.05,-42.91,1729414690655.0,0.0
-6.273981,-6.908078,-0.717847,-106.959999,-5.32,-16.940001,1729414690682.0,0.0
-6.635297,-7.393822,-1.237089,-70.840004,6.16,-14.0,1729414690694.0,0.0
-6.223732,-8.453842,-2.531606,-53.060001,-3.29,-17.43,1729414690717.0,0.0
-6.393622,-8.898908,-1.725225,-97.650002,-12.95,-31.92,1729414690736.0,0.0
-6.742974,-0.935594,-5.134997,-272.019989,-9.45,-56.98,1729414690756.0,0.0
-6.436693,1.098306,-9.824929,-483.839996,-46.130001,-65.099998,1729414690777.0,0.0
-4.85743,-1.428515,-9.772287,-611.72998,-22.960001,-58.869999,1729414690796.0,0.0
-6.865008,-16.110876,-9.523434,-529.409973,-9.94,-42.420002,1729414690816.0,0.0
-3.929015,-6.838687,-6.367301,-62.650002,-27.860001,-73.57,1729414690836.0,0.0
-10.049855,2.313859,-3.364309,88.620003,-10.99,-7.98,1729414690855.0,0.0
-8.224132,-2.536392,-7.058826,-127.959999,-13.65,20.299999,1729414690877.0,0.0
-7.377072,-3.345166,-9.320045,-293.299988,25.34,-3.85,1729414690896.0,0.0
-7.228717,-2.031506,-10.447062,-281.470001,28.139999,-5.88,1729414690916.0,0.0
-5.278566,-3.962514,-10.028319,-248.570007,37.66,-8.05,1729414690937.0,0.0
-4.419543,-2.299503,-8.860621,-139.020004,36.68,-11.41,1729414690957.0,0.0
-2.084148,-4.240082,-10.485349,-60.41,30.52,-24.01,1729414690976.0,0.0
-3.708875,-3.192025,-8.420342,12.6,24.01,-21.84,1729414690996.0,0.0
-4.063013,-4.522435,-9.322437,41.369999,16.799999,-23.450001,1729414691016.0,0.0
-2.261217,-4.369294,-8.965906,79.379997,12.18,-15.26,1729414691038.0,0.0
-1.880759,-4.807181,-8.898908,171.009995,2.17,2.45,1729414691055.0,0.0
-2.713461,-6.245267,-9.537791,253.960007,2.24,5.67,1729414691077.0,0.0
-2.057827,-5.761917,-10.590633,339.640015,6.79,3.15,1729414691096.0,0.0
-2.270789,-6.314659,-10.255639,413.0,19.879999,8.19,1729414691116.0,0.0
-1.684547,-3.708875,-7.872386,487.690002,42.630001,21.07,1729414691139.0,0.0
-2.828316,-4.448257,-5.003392,504.350006,57.889999,39.759998,1729414691157.0,0.0
-4.165904,-5.307281,-3.52702,476.420013,65.940002,43.400002,1729414691177.0,0.0
-4.630112,-6.530013,-3.127419,448.559998,54.950001,53.830002,1729414691197.0,0.0
-3.759124,-7.133004,-3.28056,405.160004,50.470001,49.560001,1729414691218.0,0.0
-2.926422,-6.240481,-2.273181,437.5,43.189999,70.349998,1729414691238.0,0.0
-2.787638,-4.321437,-4.733003,495.809998,64.260002,88.269997,1729414691257.0,0.0
-6.948757,-8.901299,9.789038,533.890015,89.32,112.699997,1729414691278.0,0.0
-10.571491,1.349552,11.444871,289.799988,94.639999,77.840004,1729414691297.0,0.0
-10.346564,-5.749953,4.232903,-53.130001,-0.77,62.299999,1729414691318.0,0.0
-3.254239,-7.862815,-2.455036,-190.820007,-44.52,1.89,1729414691337.0,0.0
-5.436492,-12.997812,3.201597,-155.680008,-20.93,48.09,1729414691356.0,0.0
-6.73101,-9.109475,-1.067199,-62.510002,-30.59,16.66,1729414691377.0,0.0
-8.090133,-7.106683,0.619741,22.4,-16.030001,62.720001,1729414691402.0,0.0
-5.261817,-10.135997,0.105284,-4.83,-33.459999,3.99,1729414691417.0,0.0
-6.819544,-9.674182,1.971686,-9.87,-17.290001,6.51,1729414691438.0,0.0
-6.776474,-9.95175,3.065206,-10.15,-15.54,-17.92,1729414691457.0,0.0
-6.089733,-6.759724,2.380858,-21.84,-31.5,-21.98,1729414691477.0,0.0
-6.108876,-6.053841,1.055235,-38.709999,-16.24,-14.7,1729414691497.0,0.0
-5.838487,-5.522634,2.304288,-131.809998,-28.91,-26.110001,1729414691517.0,0.0
-5.084748,-5.235496,0.921237,-163.449997,-34.720001,-10.22,1729414691538.0,0.0
-5.4006,-4.027121,0.215354,-180.460007,-27.370001,8.4,1729414691557.0,0.0
-5.938986,-1.708475,-0.174676,-247.520004,-30.309999,24.15,1729414691580.0,0.0
-6.668797,-1.67019,-2.050649,-299.880005,-33.740002,34.16,1729414691596.0,0.0
-8.073383,-1.241875,-2.65364,-345.519989,-45.43,42.279999,1729414691617.0,0.0
-9.540184,0.095713,-4.113262,-402.360016,-65.449997,57.889999,1729414691637.0,0.0
-11.018949,-0.622134,-6.996613,-478.519989,-54.880001,68.459999,1729414691657.0,0.0
-11.267801,-4.756931,-8.566305,-547.75,-53.27,49.98,1729414691677.0,0.0
-6.348158,-6.02752,-12.88535,-439.529999,-52.709999,37.799999,1729414691697.0,0.0
-8.051848,-4.302295,-9.705289,-306.880005,-14.14,53.760002,1729414691716.0,0.0
-8.635696,-6.881758,-11.909079,-313.320007,9.8,19.74,1729414691738.0,0.0
-6.520442,0.050249,-8.463413,-184.380005,-1.19,30.66,1729414691757.0,0.0
-8.62134,1.572084,-10.853845,-149.660004,37.380001,53.27,1729414691848.0,0.0
-8.437093,-4.058227,-13.655839,-197.610001,65.099998,29.33,1729414691851.0,0.0
-7.235896,-1.265803,-10.782058,-213.5,77.699997,21.84,1729414691855.0,0.0
-8.197811,-5.45085,-12.064612,-270.130005,114.870003,10.5,1729414691857.0,0.0
-7.080362,-7.515855,-3.225525,-258.929993,111.720001,5.46,1729414691864.0,0.0
-5.706882,-9.602397,2.744568,-193.830002,62.580002,-9.8,1729414691877.0,0.0
-6.817152,-7.058826,-7.506285,-72.449997,7.0,-11.41,1729414691896.0,0.0
-7.71446,-5.871986,-13.148561,0.07,20.299999,-17.85,1729414691917.0,0.0
-6.465407,-6.135197,-12.818351,79.169998,42.139999,-10.64,1729414691938.0,0.0
-5.051248,-6.046663,-11.916256,150.289993,65.660004,-18.059999,1729414691957.0,0.0
-3.976871,-2.088934,-9.329616,231.139999,73.290001,-2.1,1729414691977.0,0.0
-1.612763,0.22014,-6.429514,254.729996,52.009998,10.08,1729414691997.0,0.0
-1.009771,1.507478,-4.005585,191.800003,34.02,15.75,1729414692017.0,0.0
-3.036492,1.837688,-4.61097,102.269997,19.25,18.200001,1729414692038.0,0.0
-5.350351,-2.572284,-7.403394,19.74,11.69,18.549999,1729414692057.0,0.0
-5.79781,-4.536791,-10.403993,-0.84,3.78,1.47,1729414692076.0,0.0
-5.065606,-2.519642,-9.662218,35.560001,4.34,-12.88,1729414692096.0,0.0
-3.914658,-1.256232,-8.075776,29.120001,19.460001,-15.05,1729414692117.0,0.0
-4.309474,-2.455036,-7.628319,-13.51,26.18,-7.0,1729414692138.0,0.0
-5.268995,-2.976671,-9.812965,-35.07,21.98,-9.31,1729414692156.0,0.0
-4.831109,-3.936193,-10.023535,-18.9,17.5,-18.76,1729414692177.0,0.0
-5.079963,-2.847459,-7.668997,10.01,13.02,-24.01,1729414692196.0,0.0
-5.484349,-1.897508,-6.534799,17.639999,6.51,-26.950001,1729414692217.0,0.0
-6.108876,-0.490529,-6.262017,24.08,-9.17,-24.710001,1729414692238.0,0.0
-6.508478,-2.876173,-8.398808,9.17,-9.94,-18.200001,1729414692256.0,0.0
-6.778866,-1.088734,-8.700303,47.389999,-3.01,-5.11,1729414692277.0,0.0
-6.664011,-3.811767,-6.635297,57.68,3.64,-5.39,1729414692296.0,0.0
-6.147161,-4.206582,-6.71426,87.290001,-2.24,-15.4,1729414692316.0,0.0
-6.13759,-3.306881,-6.123233,110.599998,-14.35,-14.21,1729414692339.0,0.0
-6.211767,-3.9338,-7.467999,115.010002,-23.66,-12.67,1729414692356.0,0.0
-5.572884,-4.811966,-8.901299,157.850006,-29.26,-15.05,1729414692376.0,0.0
-5.733203,-5.541777,-9.832108,263.690002,-23.59,-6.86,1729414692397.0,0.0
-6.965507,-6.034698,-7.910671,374.5,-8.26,1.4,1729414692417.0,0.0
-7.673782,-5.52742,-6.4343,390.320007,5.74,6.44,1729414692438.0,0.0
-8.260024,-4.876573,-2.411965,269.570007,27.51,15.68,1729414692456.0,0.0
-7.269395,-6.175875,-5.905487,171.430008,21.559999,16.73,1729414692478.0,0.0
-7.343572,-8.13799,-6.285945,139.720001,47.459999,-2.38,1729414692496.0,0.0
-7.881958,-9.47797,-6.635297,171.360001,70.0,2.8,1729414692516.0,0.0
-6.54437,-8.872586,-6.314659,240.729996,83.510002,-0.7,1729414692538.0,0.0
-5.733203,-7.57089,-4.498507,260.540009,102.970001,-6.09,1729414692557.0,0.0
-4.058227,-7.759924,-0.208176,234.360001,111.510002,-12.46,1729414692578.0,0.0
-0.835095,-4.565506,9.559326,197.190002,87.150002,-13.86,1729414692596.0,0.0
1.753939,-2.325824,14.414362,154.630005,34.439999,4.83,1729414692616.0,0.0
1.663012,-4.48415,8.532805,73.709999,-6.58,13.16,1729414692636.0,0.0
-3.878766,-10.356135,1.799403,-27.58,-16.52,26.040001,1729414692656.0,0.0
-6.80758,-8.764909,-1.088734,-49.98,-20.02,11.62,1729414692676.0,0.0
-5.276174,-9.760324,-2.242075,34.16,-31.780001,50.049999,1729414692696.0,0.0
-2.579463,-9.332008,-3.110669,74.480003,-26.530001,37.450001,1729414692724.0,0.0
-4.17069,-9.789038,-3.512664,103.879997,-19.74,56.0,1729414692738.0,0.0
-7.073184,-9.23151,-2.840281,131.460007,-20.299999,53.060001,1729414692757.0,0.0
-9.707682,-10.207782,-2.981457,92.050003,-17.290001,33.040001,1729414692777.0,0.0
-9.798609,-9.375079,-3.876373,1.47,-18.9,-3.29,1729414692796.0,0.0
-6.786045,-8.583055,-1.904687,-43.540001,-11.48,-18.27,1729414692817.0,0.0
-4.876573,-8.745767,3.448057,-2.59,13.65,-24.85,1729414692839.0,0.0
-4.890929,-7.881958,5.958128,47.740002,27.51,-22.190001,1729414692856.0,0.0
-4.297509,-7.106683,4.867002,76.860001,22.4,-14.28,1729414692877.0,0.0
-2.218147,-4.881358,5.4676,96.739998,18.969999,4.41,1729414692897.0,0.0
-3.438486,-5.900701,4.45065,66.919998,26.040001,35.91,1729414692917.0,0.0
-4.989035,-8.633304,-0.653241,-28.630001,29.68,26.040001,1729414692939.0,0.0
-7.477571,-8.099705,-1.648655,-94.360001,38.639999,25.549999,1729414692957.0,0.0
-9.413363,-10.415956,-2.148755,-74.269997,36.119999,26.18,1729414692977.0,0.0
-6.254838,-8.523234,-1.89033,-47.810001,19.460001,-4.27,1729414692998.0,0.0
-4.62054,-6.831509,0.071785,-11.27,1.96,13.86,1729414693018.0,0.0
-6.178268,-6.168696,-0.155533,-17.290001,23.940001,10.85,1729414693039.0,0.0
-7.74796,-5.271388,-2.481357,-60.48,25.620001,-2.03,1729414693057.0,0.0
-6.9344,-7.405786,-1.397408,-123.970001,-7.07,-20.23,1729414693078.0,0.0
-6.199803,-7.133004,-1.026521,-139.720001,-12.18,-21.84,1729414693098.0,0.0
-6.104091,-6.82433,-0.026321,-143.430008,-10.57,-17.360001,1729414693117.0,0.0
-6.080163,-7.482357,-1.859223,-158.059998,-11.83,-22.469999,1729414693138.0,0.0
-6.192625,-8.788837,-2.163112,-157.149994,-1.19,-23.379999,1729414693158.0,0.0
-5.733203,-8.355737,-2.804388,-122.709999,3.08,-23.17,1729414693179.0,0.0
-5.659025,-7.188039,-0.729811,-83.019997,1.47,-16.1,1729414693199.0,0.0
-5.970093,-6.295516,-2.404787,-90.650002,3.15,-14.63,1729414693218.0,0.0
-5.972485,-6.872187,-1.761117,-123.410004,-6.51,-17.08,1729414693240.0,0.0
-5.699703,-7.802995,-2.053042,-145.740005,-12.53,-13.72,1729414693259.0,0.0
-5.749953,-8.403593,-4.17069,-139.300003,-16.450001,-11.69,1729414693280.0,0.0
-6.041877,-8.458629,-4.051049,-121.520004,-13.09,-12.25,1729414693298.0,0.0
-6.276374,-8.274381,-2.457429,-101.220001,-2.38,-12.6,1729414693319.0,0.0
-6.113662,-8.02792,-4.278367,-91.629997,-8.33,-17.219999,1729414693339.0,0.0
-6.005985,-7.15454,-4.886144,-84.349998,-1.61,-16.799999,1729414693359.0,0.0
-5.907879,-7.262216,-4.09412,-77.349998,-1.19,-17.290001,1729414693379.0,0.0
-5.754738,-7.211967,-4.082155,-74.760002,0.21,-17.85,1729414693398.0,0.0
-5.833702,-6.506085,-4.182654,-78.68,-8.4,-20.23,1729414693419.0,0.0
-5.716454,-6.443871,-5.706882,-103.599998,-7.0,-22.68,1729414693444.0,0.0
-5.070391,-6.769295,-5.972485,-101.849998,-7.91,-22.4,1729414693458.0,0.0
-5.268995,-6.9344,-5.613562,-83.860001,0.63,-19.110001,1729414693478.0,0.0
-5.635098,-5.438886,-5.32403,-75.389999,-2.73,-19.110001,1729414693498.0,0.0
-5.998806,-5.52742,-5.757132,-90.720001,-8.47,-22.120001,1729414693519.0,0.0
-5.680561,-6.23091,-6.199803,-116.129997,-5.6,-27.02,1729414693541.0,0.0
-4.98425,-7.405786,-7.190433,-109.970001,-2.94,-26.6,1729414693559.0,0.0
-4.563113,-6.530013,-6.994221,-96.040001,-1.82,-31.219999,1729414693582.0,0.0
-4.395615,-5.197211,-7.147361,-88.970001,2.45,-30.030001,1729414693600.0,0.0
-4.070191,-6.113662,-7.427321,-69.370003,8.4,-25.48,1729414693619.0,0.0
-4.41715,-5.828916,-7.338787,-43.330002,11.2,-20.65,1729414693639.0,0.0
-4.565506,-5.376673,-7.508677,-30.52,12.95,-20.440001,1729414693658.0,0.0
-4.756931,-4.888536,-8.073383,-25.690001,11.27,-17.08,1729414693680.0,0.0
-4.206582,-5.099105,-7.819745,-32.900002,6.37,-15.12,1729414693699.0,0.0
-5.036892,-4.122833,-7.329216,-26.530001,2.87,-12.39,1729414693718.0,0.0
-5.259424,-4.256832,-6.431907,-28.77,2.73,-12.04,1729414693740.0,0.0
-4.989035,-4.965107,-6.439085,-46.060001,-2.31,-9.59,1729414693758.0,0.0
-5.139783,-2.95035,-6.52762,-60.970001,-2.8,-5.95,1729414693778.0,0.0
-5.271388,-4.139583,-7.271788,-79.099998,3.08,-14.63,1729414693798.0,0.0
-4.838287,-4.833502,-6.687939,-96.18,2.87,-27.09,1729414693819.0,0.0
-4.565506,-4.663611,-6.817152,-92.050003,-4.34,-35.349998,1729414693842.0,0.0
-4.072584,-4.785645,-7.467999,-98.980003,-10.71,-39.900002,1729414693858.0,0.0
-3.754339,-4.345366,-7.63789,-98.629997,-14.35,-34.299999,1729414693878.0,0.0
-4.204189,-3.141776,-8.341379,-72.029999,-15.190001,-24.219999,1729414693898.0,0.0
-4.472186,-0.445065,-9.226725,-75.669998,-9.87,-16.309999,1729414693918.0,0.0
-5.201996,-1.476372,-11.038091,-102.620003,-4.41,-0.21,1729414693939.0,0.0
-5.417351,-3.586841,-10.236496,-96.809998,6.09,3.99,1729414693958.0,0.0
-5.809773,-1.629512,-7.910671,-10.01,0.28,12.88,1729414693979.0,0.0
-6.628119,1.019342,-5.536992,1.4,-3.43,16.66,1729414693998.0,0.0
-6.707082,-2.488536,-7.41775,-66.849998,-7.07,19.6,1729414694019.0,0.0
-6.309873,-4.039084,-9.937392,-115.220001,-18.76,0.84,1729414694039.0,0.0
-5.35753,-3.926622,-11.54537,-91.769997,-15.47,-13.72,1729414694058.0,0.0
-4.541577,-2.172683,-9.300901,-62.09,-9.24,-29.33,1729414694078.0,0.0
-6.534799,-1.462015,-8.207381,-43.959999,-9.38,-10.71,1729414694098.0,0.0
-4.237689,-5.828916,-8.429914,-93.169998,0.63,-23.940001,1729414694118.0,0.0
-4.862216,-4.529613,-10.047462,-76.440002,0.56,-34.93,1729414694139.0,0.0
-5.895915,-2.09372,-8.767302,-39.549999,4.27,-25.27,1729414694158.0,0.0
-5.472386,-1.131805,-8.77448,-21.91,13.23,-12.32,1729414694178.0,0.0
-5.175675,-1.153341,-8.389235,7.91,15.68,3.29,1729414694199.0,0.0
-4.74736,-1.964507,-8.882158,39.900002,17.290001,11.83,1729414694218.0,0.0
-5.120641,-2.007578,-8.169096,68.599998,13.51,11.27,1729414694239.0,0.0
-4.12044,-2.333002,-9.24108,80.919998,12.11,11.34,1729414694258.0,0.0
-4.17069,-3.407379,-8.79123,146.160004,6.44,15.75,1729414694278.0,0.0
-3.881158,-3.125026,-8.784052,199.850006,1.47,5.53,1729414694297.0,0.0
-4.826324,-3.208775,-8.95155,236.669998,-4.2,5.88,1729414694318.0,0.0
-3.584448,-2.818745,-9.509077,274.820007,-6.51,6.51,1729414694339.0,0.0
-2.550749,-2.600998,-8.341379,310.450012,-6.58,20.860001,1729414694357.0,0.0
-3.270989,-4.656433,-6.666404,338.100006,9.59,32.619999,1729414694378.0,0.0
-4.414758,-8.310273,-6.199803,312.200012,26.530001,16.870001,1729414694399.0,0.0
-4.529613,-7.932207,-8.159525,349.089996,26.809999,11.76,1729414694418.0,0.0
-4.601398,-6.98465,-7.121039,387.100006,25.27,31.710001,1729414694441.0,0.0
-4.536791,-6.98465,-4.809574,313.950012,46.34,19.67,1729414694458.0,0.0
-5.063213,-8.039884,-3.165704,270.200012,55.860001,7.91,1729414694478.0,0.0
-5.680561,-9.583255,-2.646462,299.73999,48.650002,17.360001,1729414694497.0,0.0
-5.331209,-8.712267,-1.22034,370.369995,40.459999,23.66,1729414694518.0,0.0
-4.469792,-5.601598,-1.215554,416.709991,43.470001,23.940001,1729414694538.0,0.0
-4.331009,-2.62732,2.900101,436.100006,58.029999,52.849998,1729414694557.0,0.0
-5.190032,-3.383451,6.18784,323.679993,55.580002,49.209999,1729414694580.0,0.0
-4.752146,-8.128418,5.072784,183.190002,27.65,32.48,1729414694597.0,0.0
-4.625326,-9.181261,3.282953,135.589996,13.58,23.66,1729414694619.0,0.0
-4.766503,-8.705089,2.895315,147.0,16.450001,24.219999,1729414694640.0,0.0
-5.680561,-7.685746,4.618148,149.520004,9.73,23.309999,1729414694657.0,0.0
-6.281159,-5.594419,4.771288,148.050003,-1.19,28.84,1729414694678.0,0.0
-5.709275,-6.029913,3.699304,36.68,-6.3,30.030001,1729414694698.0,0.0
-4.910072,-4.271189,2.433501,-35.349998,-8.05,38.57,1729414694718.0,0.0
-6.338587,-6.661618,2.818745,-95.480003,-9.94,37.59,1729414694739.0,0.0
-7.771888,-9.956534,3.242275,-105.209999,-28.139999,32.619999,1729414694758.0,0.0
-7.056434,-8.396415,3.156133,-73.919998,-27.16,22.540001,1729414694779.0,0.0
-6.329016,-6.632904,3.39063,-109.129997,-27.719999,14.14,1729414694798.0,0.0
-5.374279,-6.139983,2.096112,-201.809998,-26.809999,4.13,1729414694818.0,0.0
-6.403193,-8.212167,1.899901,-283.570007,-22.540001,-7.56,1729414694838.0,0.0
-6.302694,-7.625926,2.143969,-344.75,-20.16,-22.049999,1729414694857.0,0.0
-5.730811,-7.020542,0.437887,-362.809998,-17.710001,-21.210001,1729414694886.0,0.0
-5.788238,-7.501499,-0.624527,-361.690002,-18.41,-21.42,1729414694897.0,0.0
-5.175675,-5.754738,-2.194218,-350.279999,-15.61,-20.370001,1729414694918.0,0.0
-5.642276,-4.570292,-3.524628,-356.299988,-11.55,-11.34,1729414694940.0,0.0
-5.891129,-5.347959,-4.807181,-377.019989,-11.69,-10.99,1729414694957.0,0.0
-5.728417,-6.85783,-6.151947,-365.820007,-17.360001,-7.35,1729414694979.0,0.0
-5.460421,-7.042077,-7.881958,-310.450012,-21.77,-6.51,1729414694998.0,0.0
-5.659025,-5.723632,-7.243074,-228.059998,-20.719999,-3.43,1729414695019.0,0.0
-6.223732,-5.402994,-7.235896,-210.630005,-13.440001,4.41,1729414695049.0,0.0
-6.360123,-6.046663,-5.63749,-201.039993,-17.57,9.87,1729414695059.0,0.0
-5.484349,-6.381658,-6.259624,-140.630005,-19.18,14.91,1729414695081.0,0.0
-5.836094,-4.342973,-5.9677,-90.300003,-20.09,20.719999,1729414695100.0,0.0
-7.987241,-5.197211,-1.06002,-61.110001,-18.27,22.889999,1729414695120.0,0.0
-7.197611,-5.216353,-3.993621,-31.08,-43.889999,22.610001,1729414695140.0,0.0
-5.931807,-2.079363,-5.096712,-100.169998,-50.330002,19.110001,1729414695158.0,0.0
-7.329216,-3.28056,-6.197411,-107.660004,-43.540001,27.299999,1729414695180.0,0.0
-6.975078,-2.63689,-9.530612,-112.489998,-47.950001,25.48,1729414695199.0,0.0
-6.776474,-2.900101,-11.399406,-112.699997,-29.75,23.52,1729414695219.0,0.0
-5.931807,-3.326023,-12.031113,-78.470001,-10.22,14.07,1729414695242.0,0.0
-7.89153,0.538385,-10.530812,-18.059999,16.66,27.719999,1729414695259.0,0.0
-7.77428,-1.009771,-9.930215,-103.949997,56.490002,7.35,1729414695279.0,0.0
-8.453842,-3.053242,-4.706682,-137.899994,52.709999,24.219999,1729414695299.0,0.0
-5.4341,-5.65424,-4.673182,-74.410004,25.129999,-4.41,1729414695319.0,0.0
-7.133004,-4.098906,-6.321837,-34.16,15.33,6.23,1729414695342.0,0.0
-5.800202,-5.486742,-8.202596,-7.14,10.15,-0.84,1729414695361.0,0.0
-6.613762,-4.630112,-8.525627,23.73,13.23,1.4,1729414695379.0,0.0
-7.018148,-2.727818,-8.319844,55.369999,18.549999,-4.48,1729414695400.0,0.0
-7.348359,-2.739782,-9.128618,73.639999,26.460001,-5.88,1729414695420.0,0.0
-7.704889,-4.003192,-13.019348,89.949997,43.400002,-7.98,1729414695441.0,0.0
-8.176274,1.962115,-9.927821,128.940002,72.099998,4.55,1729414695460.0,0.0
-5.869594,1.399801,-3.596412,120.68,76.090004,11.62,1729414695481.0,0.0
-3.759124,-2.304288,-2.830709,45.779999,41.09,15.33,1729414695510.0,0.0
-3.713661,-2.18704,-5.931807,-27.51,26.880001,-14.56,1729414695522.0,0.0
-4.898108,-1.318445,-6.865008,-21.77,14.84,-6.51,1729414695541.0,0.0
-5.529813,-3.730411,-8.415558,-52.080002,15.75,-14.21,1729414695561.0,0.0
-5.970093,-4.792823,-7.989635,-64.75,18.549999,-23.450001,1729414695584.0,0.0
-6.070591,-3.067599,-7.046863,-40.810001,13.79,-26.460001,1729414695604.0,0.0
-5.534599,-3.929015,-7.65464,-46.900002,13.72,-28.700001,1729414695620.0,0.0
-5.498707,-4.206582,-8.042276,-40.25,11.2,-26.530001,1729414695641.0,0.0
-5.532206,-3.342773,-8.561519,-28.559999,9.17,-26.460001,1729414695660.0,0.0
-5.754738,-3.78066,-8.805587,-25.34,8.33,-26.6,1729414695681.0,0.0
-4.711468,-3.866802,-8.465806,-35.139999,10.36,-35.98,1729414695700.0,0.0
-3.979264,-2.924029,-8.444271,-30.870001,8.12,-29.610001,1729414695720.0,0.0
-3.761517,-2.237289,-8.355737,-10.78,5.18,-20.16,1729414695741.0,0.0
-3.931407,-2.825923,-8.520842,13.93,-4.62,-15.33,1729414695761.0,0.0
-3.677768,-3.158526,-8.901299,33.110001,-6.65,-18.76,1729414695780.0,0.0
-4.208975,-3.213561,-7.666604,49.07,-9.66,-19.460001,1729414695800.0,0.0
-4.558327,-4.41715,-7.077969,45.220001,-12.25,-26.74,1729414695820.0,0.0
-4.938786,-2.096112,-7.238289,73.709999,-22.26,-33.18,1729414695842.0,0.0
-5.115855,-4.807181,-9.054441,68.389999,-20.02,-18.969999,1729414695859.0,0.0
-5.369494,0.502493,-8.819944,48.299999,-14.14,-23.1,1729414695880.0,0.0
-5.953342,-1.945365,-9.245867,14.42,-2.24,-3.92,1729414695900.0,0.0
-5.563312,-3.347559,-8.391629,2.45,1.96,-14.42,1729414695920.0,0.0
-5.010571,-2.854637,-8.090133,33.040001,-2.45,-13.37,1729414695941.0,0.0
-5.111069,-3.739982,-8.01117,23.940001,-1.33,-19.6,1729414695960.0,0.0
-6.039484,-4.259224,-7.204789,20.370001,0.56,-22.610001,1729414695980.0,0.0
-5.852845,-3.759124,-6.317052,38.43,-2.52,-14.14,1729414695999.0,0.0
-5.938986,-3.976871,-6.809973,70.419998,-3.36,-5.67,1729414696020.0,0.0
-6.147161,-4.17069,-7.936993,112.349998,-1.96,2.38,1729414696040.0,0.0
-6.175875,-5.915058,-7.676175,171.009995,0.7,11.83,1729414696059.0,0.0
-5.941379,-6.819544,-6.948757,223.930008,5.81,14.98,1729414696081.0,0.0
-5.493921,-5.962914,-5.623133,262.5,7.21,15.54,1729414696099.0,0.0
-5.735595,-4.917251,-4.455436,252.279999,1.75,24.639999,1729414696120.0,0.0
-6.04427,-5.084748,-4.512863,184.589996,7.98,21.700001,1729414696141.0,0.0
-6.343372,-6.38405,-4.441079,123.340004,15.12,16.66,1729414696159.0,0.0
-5.938986,-7.783852,-4.783253,88.480003,15.4,11.34,1729414696181.0,0.0
-4.986642,-7.970492,-5.577669,78.400002,8.75,7.28,1729414696200.0,0.0
-4.345366,-6.630512,-6.092126,73.220001,10.92,3.99,1729414696220.0,0.0
-4.792823,-5.912664,-5.615955,55.23,19.040001,5.81,1729414696241.0,0.0
-5.328816,-5.879165,-5.04407,12.04,22.82,-0.56,1729414696261.0,0.0
-5.06082,-6.489335,-5.355137,-27.93,14.84,-9.38,1729414696282.0,0.0
-5.005785,-5.76431,-4.500899,-64.540001,2.24,-15.47,1729414696301.0,0.0
-5.120641,-4.82393,-3.936193,-77.419998,-1.61,-10.5,1729414696321.0,0.0
-5.402994,-4.316652,-4.890929,-105.07,-8.4,-2.66,1729414696340.0,0.0
-5.192425,-4.579862,-5.491528,-132.930008,-12.53,-3.22,1729414696360.0,0.0
-5.551349,-4.591826,-6.029913,-146.440002,-14.98,6.86,1729414696381.0,0.0
-5.565705,-5.211568,-6.78126,-136.430008,-22.33,14.63,1729414696399.0,0.0
-5.245068,-4.158726,-6.185446,-138.320007,-36.68,20.719999,1729414696419.0,0.0
-5.414958,-5.223531,-5.501099,-161.279999,-37.029999,27.93,1729414696441.0,0.0
-5.297709,-7.685746,-6.216553,-201.180008,-35.98,18.27,1729414696460.0,0.0
-6.190232,-5.565705,-7.54457,-175.139999,-34.860001,12.74,1729414696480.0,0.0
-7.427321,-4.275974,-8.920443,-138.809998,-30.17,11.06,1729414696500.0,0.0
-6.372087,-0.5001,-11.272588,-109.620003,-20.370001,13.23,1729414696519.0,0.0
-7.156933,-7.77428,-7.788638,-133.630005,10.22,25.620001,1729414696540.0,0.0
-4.634897,-8.372486,-5.565705,-123.410004,5.95,-16.940001,1729414696560.0,0.0
-6.709475,-1.794617,-5.405386,-90.019997,-7.42,-5.81,1729414696583.0,0.0
-6.965507,-5.639884,-8.090133,-123.340004,8.05,-13.51,1729414696600.0,0.0
-6.07777,-4.354938,-7.838887,-20.09,4.41,0.28,1729414696620.0,0.0
-6.068198,-3.376273,-7.932207,29.26,7.84,2.66,1729414696640.0,0.0
-5.659025,-1.540978,-7.616355,16.870001,8.47,-0.91,1729414696659.0,0.0
-6.283553,-0.318245,-6.597012,10.5,8.05,9.38,1729414696680.0,0.0
-6.058627,-2.639283,-6.948757,-18.76,5.88,15.96,1729414696699.0,0.0
-5.32403,-2.864209,-8.477771,-38.43,4.34,2.52,1729414696720.0,0.0
-6.71426,-2.986243,-9.140583,-13.72,10.64,6.44,1729414696740.0,0.0
-6.943972,-2.091327,-8.949157,31.99,25.200001,10.08,1729414696759.0,0.0
-6.13759,1.761117,-9.999605,77.980003,38.080002,20.02,1729414696830.0,0.0
-5.304887,-5.596812,-8.829515,38.080002,48.720001,17.290001,1729414696832.0,0.0
-4.682754,-4.500899,-8.642875,19.530001,52.709999,2.38,1729414696833.0,0.0
-3.804588,-1.861616,-8.815158,82.110001,41.720001,9.73,1729414696843.0,0.0
-3.208775,-4.381258,-7.752745,32.34,40.529999,3.29,1729414696872.0,0.0
-3.084348,-4.74736,-7.740781,-17.780001,34.93,-14.0,1729414696880.0,0.0
-4.134798,-3.574877,-8.10449,-4.97,29.68,-10.43,1729414696899.0,0.0
-5.20439,-3.117848,-7.13779,20.16,27.02,-2.94,1729414696927.0,0.0
-6.250053,-3.48395,-6.774081,34.369999,20.51,-1.68,1729414696941.0,0.0
-6.759724,-3.369094,-7.06122,11.2,15.61,-4.48,1729414696960.0,0.0
-5.733203,-3.220739,-6.9009,-16.799999,11.97,-10.22,1729414696980.0,0.0
-5.472386,-3.213561,-7.441679,-25.48,9.38,-11.55,1729414697000.0,0.0
-5.632704,-4.366901,-8.149954,-27.02,14.42,-16.24,1729414697020.0,0.0
-5.826523,-3.507878,-8.216952,-22.540001,13.3,-21.139999,1729414697042.0,0.0
-5.848059,-4.017549,-8.315059,-19.460001,13.86,-24.57,1729414697060.0,0.0
-5.065606,-4.704289,-8.456236,-23.379999,17.57,-36.259998,1729414697081.0,0.0
-3.232704,-2.462214,-9.188439,-23.870001,15.33,-36.400002,1729414697101.0,0.0
-2.548356,-2.136791,-8.386844,-24.780001,15.89,-22.68,1729414697120.0,0.0
-2.658426,-2.87378,-8.599805,-15.4,16.030001,-17.08,1729414697141.0,0.0
-2.806781,-3.048456,-8.281559,14.14,8.19,-16.379999,1729414697161.0,0.0
-3.012564,-4.082155,-7.657032,25.059999,3.92,-19.74,1729414697180.0,0.0
-3.050849,-4.13719,-7.180861,31.01,-1.75,-27.719999,1729414697201.0,0.0
-4.065405,-3.086741,-7.554141,29.26,-13.16,-27.790001,1729414697221.0,0.0
-4.046263,-5.07757,-8.779266,3.22,-18.34,-35.349998,1729414697242.0,0.0
-4.819145,-4.656433,-10.329816,22.540001,-14.0,-36.75,1729414697261.0,0.0
-5.915058,-1.189233,-10.061819,46.27,-5.25,-22.469999,1729414697281.0,0.0
-5.438886,-2.924029,-10.473385,26.389999,10.01,-17.01,1729414697301.0,0.0
-5.166104,-1.741975,-10.492528,46.619999,19.18,-9.03,1729414697322.0,0.0
-4.912465,-1.749153,-8.429914,72.029999,20.790001,3.08,1729414697343.0,0.0
-4.206582,-2.098505,-8.066205,74.480003,27.65,4.41,1729414697360.0,0.0
-4.615755,-1.749153,-8.673983,84.559998,25.969999,12.74,1729414697381.0,0.0
-4.474578,-3.570091,-6.888937,41.23,31.360001,12.18,1729414697401.0,0.0
-3.708875,-5.091926,-6.319445,21.07,26.880001,8.26,1729414697423.0,0.0
-3.730411,-4.086941,-5.754738,9.52,15.05,3.08,1729414697445.0,0.0
-3.641876,-3.962514,-6.144768,-24.85,7.0,-0.84,1729414697463.0,0.0
-3.091527,-5.010571,-6.757331,-55.650002,-1.61,-1.05,1729414697485.0,0.0
-2.847459,-7.685746,-7.987241,-84.840004,-2.94,-11.55,1729414697538.0,0.0
-2.959922,-5.675776,-7.281359,-51.66,-11.13,-8.61,1729414697563.0,0.0
-3.596412,-4.737789,-6.869793,33.110001,-17.290001,5.32,1729414697692.0,0.0
-4.271189,-2.921637,-6.199803,20.719999,-16.24,14.07,1729414697703.0,0.0
-4.59422,-3.414558,-7.085148,-31.710001,-24.57,28.42,1729414697704.0,0.0
-4.56072,-5.907879,-10.217353,-81.690002,-28.210001,21.84,1729414697705.0,0.0
-5.046463,-5.13739,-10.15514,-50.400002,-35.700001,12.6,1729414697706.0,0.0
-5.515456,-5.211568,-10.021141,50.400002,-34.650002,7.0,1729414697708.0,0.0
-5.228317,-2.124826,-8.030313,92.75,-21.98,12.18,1729414697710.0,0.0
-6.240481,-1.495514,-7.448857,72.099998,-19.040001,28.630001,1729414697711.0,0.0
-6.819544,-3.211168,-7.286145,16.17,-5.81,21.280001,1729414697712.0,0.0
-6.269196,-2.845066,-8.88455,17.15,-13.3,18.620001,1729414697723.0,0.0
-6.45105,-2.395216,-10.246067,3.01,-9.52,19.809999,1729414697742.0,0.0
-5.807381,-3.60359,-9.877571,-14.0,10.22,9.24,1729414697761.0,0.0
-5.60399,-3.086741,-7.554141,16.379999,23.309999,14.63,1729414697782.0,0.0
-6.240481,-1.730011,-6.563512,24.360001,26.809999,19.389999,1729414697800.0,0.0
-6.666404,-7.128219,-4.194618,-11.83,28.280001,4.76,1729414697825.0,0.0
-4.943572,-8.252845,-4.632504,58.170002,4.62,-4.97,1729414697843.0,0.0
-5.199604,-2.909672,-4.529613,89.110001,-35.560001,-5.81,1729414697861.0,0.0
-6.788438,-3.488736,-5.828916,-72.730003,-11.2,-1.82,1729414697882.0,0.0
-5.668597,-5.551349,-8.334201,-126.840004,-23.24,-3.08,1729414697901.0,0.0
-4.297509,-5.115855,-9.284152,-70.07,-30.309999,5.25,1729414697921.0,0.0
-4.146761,-3.749553,-9.006584,2.66,-18.34,12.6,1729414697944.0,0.0
-3.945765,-3.692125,-9.133404,23.52,-12.53,12.39,1729414697961.0,0.0
-3.249453,-5.271388,-9.174082,33.950001,-11.48,9.94,1729414697982.0,0.0
-2.833102,-5.716454,-7.056434,63.700001,-14.28,5.04,1729414698004.0,0.0
-3.900301,-4.955536,-6.939186,58.799999,-10.43,-2.73,1729414698024.0,0.0
-4.790431,-4.725825,-6.726225,49.420002,-13.09,-6.3,1729414698042.0,0.0
-5.546563,-5.656632,-7.049256,51.73,-23.17,-5.81,1729414698063.0,0.0
-5.558527,-5.910272,-10.021141,56.98,-18.129999,-17.15,1729414698082.0,0.0
-5.022535,-7.831708,-9.140583,114.660004,13.02,-23.17,1729414698101.0,0.0
-4.948357,-4.991428,-10.882557,194.669998,25.41,-0.14,1729414698122.0,0.0
-5.328816,-4.465007,-7.240681,284.76001,10.99,10.64,1729414698143.0,0.0
-5.4676,-4.661219,-6.762117,242.550003,21.139999,-5.74,1729414698164.0,0.0
-5.020142,-7.326823,-8.587841,192.430008,38.360001,-9.94,1729414698182.0,0.0
-4.297509,-7.515855,-8.334201,236.529999,33.529999,9.03,1729414698202.0,0.0
-4.948357,-5.718846,-4.132405,277.619995,59.290001,12.81,1729414698222.0,0.0
-6.082555,-4.254438,-2.845066,290.920013,70.349998,25.76,1729414698243.0,0.0
-5.773881,-5.47717,-1.536192,263.059998,38.849998,31.99,1729414698261.0,0.0
-4.895715,-6.168696,-0.552742,195.229996,27.65,22.960001,1729414698283.0,0.0
-5.194818,-5.56092,0.157926,152.600006,26.809999,27.790001,1729414698302.0,0.0
-5.54417,-5.809773,0.442672,123.059998,18.76,37.240002,1729414698322.0,0.0
-4.931608,-6.556334,-1.129412,105.349998,2.59,32.41,1729414698343.0,0.0
-5.070391,-10.602598,0.753739,133.839996,-3.08,32.830002,1729414698363.0,0.0
-5.982057,-9.97807,1.56012,140.0,9.66,14.49,1729414698382.0,0.0
-5.938986,-6.491727,1.081556,125.020004,10.5,14.28,1729414698402.0,0.0
-5.185246,-7.88435,1.543371,95.199997,-0.49,28.139999,1729414698422.0,0.0
-5.587241,-9.131011,0.976272,72.449997,-0.42,20.299999,1729414698443.0,0.0
-5.972485,-8.769694,1.509871,91.910004,0.42,27.860001,1729414698462.0,0.0
-5.63749,-6.649654,1.344766,112.910004,1.19,32.200001,1729414698482.0,0.0
-6.046663,-6.611369,1.57687,94.57,8.61,33.32,1729414698501.0,0.0
-8.056634,-9.863215,1.454836,50.189999,8.4,19.6,1729414698524.0,0.0
-6.276374,-9.135797,1.191626,70.279999,-13.37,21.42,1729414698543.0,0.0
-5.20439,-6.79083,3.026921,146.229996,-4.83,37.240002,1729414698561.0,0.0
-6.240481,-6.71426,4.268795,129.710007,7.0,37.59,1729414698584.0,0.0
-6.589834,-6.305088,2.98385,46.27,-0.21,18.76,1729414698602.0,0.0
-6.60419,-6.348158,2.079363,45.360001,-4.41,29.610001,1729414698622.0,0.0
-7.633104,-6.630512,2.124826,50.889999,-1.82,24.08,1729414698643.0,0.0
-7.932207,-6.221339,3.125026,38.360001,-5.18,12.67,1729414698663.0,0.0
-7.111469,-5.879165,3.050849,20.440001,-4.76,11.34,1729414698682.0,0.0
-7.71446,-7.63789,2.361716,-37.939999,-5.46,-3.43,1729414698701.0,0.0
-7.216753,-7.788638,2.254039,-71.050003,-18.129999,-20.16,1729414698724.0,0.0
-6.546762,-6.845865,3.235096,-50.259998,-15.190001,-19.32,1729414698742.0,0.0
-6.278766,-6.419943,4.132405,-59.080002,-18.200001,-23.870001,1729414698761.0,0.0
-6.283553,-6.819544,3.196811,-77.629997,-25.27,-16.309999,1729414698783.0,0.0
-6.908078,-5.503492,4.26401,-81.900002,-37.099998,-12.95,1729414698801.0,0.0
-6.412765,-7.073184,3.010171,-125.230003,-33.110001,-17.01,1729414698821.0,0.0
-6.305088,-7.171289,2.062613,-243.740005,-31.15,-46.060001,1729414698843.0,0.0
-6.728617,-5.484349,0.198604,-324.940002,-24.08,-41.369999,1729414698862.0,0.0
-6.54437,-4.465007,-0.122034,-385.910004,-20.440001,-37.799999,1729414698883.0,0.0
-5.977271,-2.835495,-1.414158,-414.540009,-29.68,-33.459999,1729414698901.0,0.0
-5.848059,-0.856631,-3.869194,-454.580017,-42.209999,-19.460001,1729414698922.0,0.0
-6.508478,-1.682154,-7.491928,-492.309998,-47.529999,-7.63,1729414698942.0,0.0
-6.046663,-7.755138,-13.210773,-476.630005,-43.259998,-16.379999,1729414698968.0,0.0
-3.414558,-19.649858,-7.046863,-240.589996,-33.950001,-33.459999,1729414698981.0,0.0
-4.395615,-7.429714,-0.392423,-29.960001,-36.330002,-3.29,1729414699001.0,0.0
-6.245267,-0.612563,-3.723232,28.77,-54.110001,10.01,1729414699023.0,0.0
-7.113862,-1.940579,-5.443672,-88.269997,-38.639999,12.81,1729414699042.0,0.0
-6.869793,-5.101498,-7.094719,-193.550003,-25.969999,12.74,1729414699061.0,0.0
-6.742974,-4.867002,-8.255238,-171.779999,-28.210001,15.89,1729414699082.0,0.0
-6.855437,-1.287339,-9.097511,-113.889999,-25.969999,15.61,1729414699101.0,0.0
-7.317252,0.196211,-10.229317,-103.25,-15.190001,30.799999,1729414699122.0,0.0
-6.460621,-4.04387,-8.657232,-133.279999,1.19,15.47,1729414699144.0,0.0
-5.962914,-4.95075,-6.049056,-135.800003,3.29,5.39,1729414699187.0,0.0
-6.262017,-3.725625,-7.580462,-124.040001,-4.34,9.59,1729414699187.0,0.0
-7.200003,-4.378866,-7.441679,-104.860001,4.2,9.66,1729414699203.0,0.0
-7.369894,-3.725625,-8.025528,-75.879997,4.69,17.57,1729414699222.0,0.0
-6.300302,-4.627719,-8.269595,-67.550003,8.26,6.72,1729414699244.0,0.0
-5.802595,-3.909872,-8.441878,-34.299999,8.47,2.59,1729414699264.0,0.0
-6.082555,-1.964507,-8.633304,-6.02,10.78,8.89,1729414699283.0,0.0
-6.484549,-3.9338,-8.786445,-7.56,20.58,18.690001,1729414699302.0,0.0
-6.388836,-3.531806,-7.975278,10.5,24.360001,27.65,1729414699323.0,0.0
-6.396015,-0.990629,-8.506484,21.139999,23.24,32.200001,1729414699345.0,0.0
-6.089733,-7.068398,-9.437292,-5.95,33.32,11.97,1729414699364.0,0.0
-6.534799,-4.158726,-8.827123,52.150002,32.34,7.0,1729414699387.0,0.0
-6.386444,-2.67039,-7.403394,87.150002,45.290001,2.66,1729414699405.0,0.0
-6.74776,-4.941179,-8.039884,65.379997,57.400002,3.29,1729414699426.0,0.0
-6.556334,0.957129,-6.092126,59.990002,61.810001,7.77,1729414699445.0,0.0
-4.024727,-4.752146,-6.290731,58.170002,54.25,1.05,1729414699463.0,0.0
-6.355337,-1.734797,-6.056234,43.189999,46.619999,-0.63,1729414699485.0,0.0
-6.025128,-0.985843,-5.580062,12.04,39.34,7.56,1729414699504.0,0.0
-4.642076,-4.266403,-7.515855,-46.48,37.52,-0.14,1729414699525.0,0.0
-5.721239,-5.041678,-7.982457,-62.93,36.610001,-16.450001,1729414699545.0,0.0
-5.020142,-3.56052,-8.262416,-42.209999,28.280001,-19.110001,1729414699564.0,0.0
-5.096712,-2.718246,-8.097312,-38.990002,27.09,-19.110001,1729414699587.0,0.0
-5.515456,-3.361916,-8.267202,-46.48,30.59,-19.040001,1729414699605.0,0.0
-5.039285,-3.448057,-8.102098,-40.950001,31.639999,-17.360001,1729414699628.0,0.0
-4.402793,-3.419343,-7.73121,-24.99,24.15,-15.47,1729414699644.0,0.0
-4.103691,-3.495914,-7.728817,-20.299999,14.56,-17.219999,1729414699664.0,0.0
-3.854837,-3.498307,-7.953743,-15.75,5.88,-17.780001,1729414699688.0,0.0
-3.998406,-3.665804,-8.530413,-1.12,-1.05,-17.85,1729414699704.0,0.0
-4.548756,-3.371487,-8.889337,3.64,-2.87,-21.98,1729414699724.0,0.0
-4.615755,-3.393023,-8.779266,5.11,-2.17,-22.26,1729414699746.0,0.0
-4.625326,-3.57727,-8.23131,10.01,-1.75,-21.559999,1729414699763.0,0.0
-4.725825,-3.359523,-7.695317,18.549999,-1.68,-20.51,1729414699785.0,0.0
-4.838287,-3.058028,-8.037491,22.33,-1.82,-18.200001,1729414699803.0,0.0
-4.979464,-4.800002,-8.551948,22.120001,1.19,-20.370001,1729414699824.0,0.0
-4.352544,-5.271388,-7.89153,51.66,-1.05,-29.75,1729414699844.0,0.0
-3.938586,-2.603391,-7.963314,75.040001,-4.83,-32.34,1729414699865.0,0.0
-3.981657,-3.639483,-7.745567,67.550003,0.07,-25.690001,1729414699885.0,0.0
-4.165904,-0.157926,-8.779266,55.93,-4.69,-19.879999,1729414699903.0,0.0
-3.993621,-3.0006,-9.332008,40.110001,2.1,-5.46,1729414699926.0,0.0
-4.689932,-0.42353,-8.647661,64.400002,1.61,6.44,1729414699946.0,0.0
-4.706682,-2.928815,-7.836494,41.650002,5.46,9.31,1729414699963.0,0.0
-4.12044,-5.4006,-7.582855,33.25,5.74,3.57,1729414699984.0,0.0
-4.235296,-3.232704,-7.058826,38.5,-0.7,0.28,1729414700003.0,0.0
-4.48415,-3.259024,-6.888937,-1.61,-2.59,0.84,1729414700025.0,0.0
-3.802195,-4.211368,-8.066205,-38.080002,-8.33,1.75,1729414700047.0,0.0
-4.017549,-5.008178,-8.279166,-50.610001,-5.04,2.66,1729414700063.0,0.0
-4.113262,-4.931608,-7.74796,-41.299999,-7.14,0.7,1729414700085.0,0.0
-3.572484,-4.73061,-7.73121,-34.580002,-14.84,1.68,1729414700104.0,0.0
-4.773681,-4.287938,-7.76471,-11.76,-11.48,6.86,1729414700124.0,0.0
-5.053641,-4.539185,-7.226324,10.64,-13.23,24.01,1729414700145.0,0.0
-5.213961,-4.563113,-7.255038,35.349998,-14.35,25.549999,1729414700164.0,0.0
-5.960521,-4.24726,-7.508677,67.340004,-14.42,28.49,1729414700183.0,0.0
-6.297909,-4.945964,-8.097312,80.5,-11.97,32.34,1729414700205.0,0.0
-5.938986,-5.412565,-7.752745,110.389999,-16.379999,34.369999,1729414700225.0,0.0
-6.116055,-5.333601,-7.4345,147.419998,-13.23,27.440001,1729414700244.0,0.0
-6.647261,-5.211568,-6.771688,163.940002,-10.01,22.960001,1729414700264.0,0.0
-6.881758,-5.151747,-5.977271,151.830002,-6.44,15.82,1729414700284.0,0.0
-6.836295,-4.847858,-5.67099,119.629997,-4.27,14.0,1729414700303.0,0.0
-7.097112,-5.362316,-4.936393,77.279999,-4.41,15.61,1729414700324.0,0.0
-6.89133,-5.525027,-5.008178,25.76,-4.55,3.43,1729414700345.0,0.0
-6.333801,-6.228518,-4.910072,-26.530001,-7.63,4.62,1729414700363.0,0.0
-5.996413,-6.221339,-5.828916,-16.030001,-9.73,12.53,1729414700383.0,0.0
-5.816952,-5.946165,-5.742774,7.07,-22.120001,7.42,1729414700403.0,0.0
-5.900701,-6.01077,-5.838487,13.72,-18.200001,9.45,1729414700425.0,0.0
-5.704489,-5.962914,-6.039484,9.59,-23.309999,4.34,1729414700446.0,0.0
-5.225924,-5.737988,-6.180661,-13.79,-23.870001,-0.35,1729414700469.0,0.0
-5.187639,-5.986843,-6.589834,-19.6,-25.620001,1.33,1729414700483.0,0.0
-5.245068,-5.735595,-6.096912,1.33,-22.469999,2.8,1729414700503.0,0.0
-5.611169,-4.852644,-5.749953,3.78,-19.530001,6.72,1729414700524.0,0.0
-5.62074,-5.111069,-6.053841,-7.0,-18.41,3.08,1729414700546.0,0.0
-5.261817,-5.481956,-6.273981,-16.799999,-21.559999,1.96,1729414700564.0,0.0
-4.725825,-6.302694,-5.276174,-15.05,-19.040001,0.28,1729414700586.0,0.0
-4.259224,-6.898508,-4.189832,-0.28,-15.75,2.87,1729414700604.0,0.0
-4.331009,-7.121039,-4.54397,30.52,-13.93,6.09,1729414700626.0,0.0
-4.953143,-6.999006,-6.453443,73.150002,-6.44,8.4,1729414700644.0,0.0
-5.264209,-8.078169,-7.190433,143.779999,13.65,-0.07,1729414700663.0,0.0
-5.362316,-5.888737,-5.651847,198.729996,22.049999,3.22,1729414700685.0,0.0
-6.9344,-3.634698,-4.096512,245.630005,32.549999,22.33,1729414700704.0,0.0
-7.128219,-3.428915,-7.161718,219.449997,21.84,28.139999,1729414700723.0,0.0
-5.484349,-7.046863,-6.017949,175.419998,11.48,25.27,1729414700744.0,0.0
-4.414758,-10.200603,-4.587041,155.259995,16.24,10.85,1729414700764.0,0.0
-5.216353,-7.489535,-3.584448,191.309998,35.209999,5.39,1729414700784.0,0.0
-7.740781,-5.52742,-0.961915,268.940002,48.860001,30.17,1729414700803.0,0.0
-7.936993,-7.580462,1.009771,298.899994,16.24,43.68,1729414700824.0,0.0
-7.204789,-4.61097,2.175076,232.399994,7.56,30.24,1729414700844.0,0.0
-8.382057,-6.094519,-0.533599,182.559998,18.9,25.83,1729414700864.0,0.0
-8.327023,-8.147561,0.519243,116.270004,25.690001,14.98,1729414700884.0,0.0
-6.58744,-9.159724,1.70369,206.919998,-1.19,4.34,1729414700902.0,0.0
-5.575277,-6.865008,1.490728,332.5,8.26,14.98,1729414700923.0,0.0
-7.381857,-1.868794,5.71406,310.309998,28.0,23.940001,1729414700944.0,0.0
-7.700103,-4.498507,3.57727,238.350006,5.18,40.950001,1729414700964.0,0.0
-7.618747,-6.412765,3.395415,160.160004,-6.72,21.210001,1729414700984.0,0.0
-8.315059,-5.577669,2.309074,169.960007,-4.13,36.959999,1729414701010.0,0.0
-8.413164,-5.855237,3.641876,180.949997,4.9,26.809999,1729414701023.0,0.0
-8.047063,-4.476971,3.591627,143.220001,5.53,16.59,1729414701046.0,0.0
-8.38445,-3.979264,4.106083,134.050003,3.92,21.139999,1729414701063.0,0.0
-8.472985,-6.113662,4.211368,96.739998,-6.51,4.48,1729414701085.0,0.0
-7.286145,-5.71406,2.811567,58.59,-2.17,-11.9,1729414701105.0,0.0
-8.166703,-4.386044,5.381458,9.94,4.69,-10.71,1729414701123.0,0.0
-8.322237,-8.092526,5.618347,-137.690002,-22.26,-25.83,1729414701146.0,0.0
-7.207181,-10.171888,5.383851,-199.430008,-42.0,-47.599998,1729414701165.0,0.0
-5.290531,-7.259824,1.529014,-227.009995,-35.77,-63.560001,1729414701186.0,0.0
-5.776274,-4.345366,3.385844,-274.75,-17.710001,-59.709999,1729414701203.0,0.0
-6.161518,-2.323431,2.18704,-376.950012,-26.18,-60.549999,1729414701223.0,0.0
-5.955735,-1.897508,0.133998,-450.730011,-44.450001,-58.939999,1729414701246.0,0.0
-5.498707,-3.651447,-3.641876,-458.779999,-52.779999,-48.790001,1729414701264.0,0.0
-5.245068,-2.766103,-2.194218,-414.399994,-64.470001,-32.970001,1729414701286.0,0.0
-5.682954,-3.57727,-0.512064,-392.630005,-66.57,-12.67,1729414701305.0,0.0
-6.407979,-1.404587,-8.79123,-438.130005,-60.689999,12.81,1729414701324.0,0.0
-6.778866,-5.35753,-7.721639,-509.809998,-60.27,-4.55,1729414701347.0,0.0
-5.687739,-9.078369,-11.933006,-370.160004,-39.41,26.67,1729414701365.0,0.0
-7.034898,-7.073184,-7.362715,-287.980011,-42.279999,46.34,1729414701386.0,0.0
-6.259624,-4.591826,-6.606583,-205.520004,-20.299999,25.27,1729414701405.0,0.0
-7.611568,7.963314,-10.506885,-208.600006,-16.940001,72.519997,1729414701426.0,0.0
-10.061819,-1.718047,-15.081962,-342.160004,41.860001,63.490002,1729414701445.0,0.0
-4.68754,-15.493526,-12.050256,-367.640015,54.810001,-14.91,1729414701465.0,0.0
-4.73061,-3.625126,-6.039484,-143.149994,16.24,14.14,1729414701487.0,0.0
-8.281559,-5.503492,-5.422136,-194.669998,43.119999,-2.87,1729414701505.0,0.0
-5.577669,-3.108276,-9.202796,-157.149994,28.210001,7.28,1729414701526.0,0.0
-9.284152,-8.085347,-10.339387,-152.389999,62.860001,17.15,1729414701547.0,0.0
-5.347959,-5.505885,-6.972685,-90.230003,39.130001,-6.23,1729414701566.0,0.0
-9.071191,-3.002992,-8.334201,-46.830002,55.790001,-5.39,1729414701587.0,0.0
-4.709075,-4.273581,-11.782259,28.98,57.610001,0.14,1729414701605.0,0.0
-4.486543,-5.276174,-9.671788,64.610001,56.630001,-1.19,1729414701624.0,0.0
-4.09412,-4.429115,-10.736595,81.410004,59.639999,-24.08,1729414701647.0,0.0
-4.398008,-2.782853,-8.767302,130.830002,57.610001,-14.0,1729414701665.0,0.0
-3.223132,0.471386,-7.690532,185.779999,50.189999,-5.88,1729414701685.0,0.0
-4.534399,-0.294317,-4.326223,191.100006,47.810001,6.37,1729414701706.0,0.0
-6.106483,-4.398008,-4.862216,73.220001,52.990002,-10.36,1729414701729.0,0.0
-4.783253,-3.45045,-5.833702,-15.75,38.150002,-27.299999,1729414701757.0,0.0
-4.09412,-2.976671,-8.336594,-16.870001,30.030001,-25.129999,1729414701836.0,0.0
-3.282953,-4.603791,-10.614561,-48.93,34.720001,-34.23,1729414701837.0,0.0
-0.902094,-4.59422,-11.399406,-54.670002,27.790001,-34.439999,1729414701837.0,0.0
-0.59342,-4.455436,-9.19801,-27.09,27.790001,-33.18,1729414701837.0,0.0
-1.859223,-3.639483,-8.11167,22.26,20.790001,-35.98,1729414701847.0,0.0
-2.622534,-4.17069,-9.482756,85.540001,3.22,-30.940001,1729414701864.0,0.0
-2.895315,-3.814159,-8.195417,112.840004,-10.08,-42.560001,1729414701885.0,0.0
-4.67079,-2.596212,-9.734003,151.899994,-9.87,-28.77,1729414701905.0,0.0
-5.982057,-1.820938,-10.351351,201.740005,-3.01,-14.42,1729414701925.0,0.0
-6.403193,-4.701896,-9.54497,295.26001,3.85,-5.32,1729414701945.0,0.0
-6.707082,-1.416551,-10.614561,413.48999,4.06,3.99,1729414701965.0,0.0
-8.618947,-1.775474,-6.750153,450.940002,10.29,33.740002,1729414701984.0,0.0
-8.346166,-3.826123,-4.022335,327.25,6.51,6.93,1729414702004.0,0.0
-8.499306,-4.979464,-2.445465,151.339996,14.63,6.93,1729414702025.0,0.0
-7.097112,-5.752346,-3.354738,17.99,11.55,-0.84,1729414702045.0,0.0
-6.202196,-7.097112,-5.9342,-21.91,23.59,9.87,1729414702064.0,0.0
-6.783652,-10.164711,-7.745567,144.130005,66.709999,25.34,1729414702085.0,0.0
-5.680561,-9.623933,-6.350551,324.450012,97.370003,38.709999,1729414702104.0,0.0
-4.680361,-6.290731,-0.366102,446.809998,122.709999,47.740002,1729414702124.0,0.0
-4.15394,-3.158526,11.085947,426.860016,125.160004,41.299999,1729414702145.0,0.0
0.191426,-2.632105,12.890135,284.269989,68.389999,31.99,1729414702164.0,0.0
3.524628,-3.081956,10.028319,124.389999,20.58,46.689999,1729414702185.0,0.0
-0.42353,-10.171888,5.326423,53.970001,20.58,69.300003,1729414702204.0,0.0
-4.144369,-12.842279,1.007378,76.160004,-8.54,70.279999,1729414702224.0,0.0
-4.04387,-12.452249,0.748954,169.119995,-7.07,86.239998,1729414702245.0,0.0
-3.689733,-12.660425,0.378066,204.539993,5.04,64.260002,1729414702264.0,0.0
-5.111069,-9.042477,2.40718,193.550003,10.15,65.940002,1729414702285.0,0.0
-7.582855,-12.064612,1.426122,105.209999,5.18,57.75,1729414702304.0,0.0
-6.833901,-14.455042,-0.973879,46.41,-16.030001,17.92,1729414702326.0,0.0
-5.60399,-9.01137,-0.746561,38.080002,-0.98,21.84,1729414702344.0,0.0
-6.135197,-5.74756,-0.011964,5.18,13.16,21.42,1729414702364.0,0.0
-7.343572,-6.199803,0.904487,-73.919998,13.65,8.47,1729414702386.0,0.0
-7.106683,-7.403394,-1.4668,-142.800003,0.84,-2.52,1729414702405.0,0.0
-7.326823,-7.666604,-0.978664,-159.039993,-1.33,-15.61,1729414702424.0,0.0
-7.101898,-6.707082,-0.239282,-201.460007,3.99,-27.790001,1729414702446.0,0.0
-6.015556,-7.975278,0.160319,-218.889999,-9.17,-42.07,1729414702465.0,0.0
-5.455636,-7.587641,0.571885,-212.869995,-6.72,-46.130001,1729414702486.0,0.0
-5.221139,-7.350751,-1.088734,-188.720001,1.61,-44.099998,1729414702504.0,0.0
-5.118248,-8.315059,-3.04367,-179.479996,6.86,-43.119999,1729414702525.0,0.0
-5.321638,-7.51107,-1.706082,-169.050003,17.290001,-39.549999,1729414702545.0,0.0
-5.936593,-7.365108,-1.129412,-131.25,15.47,-28.42,1729414702566.0,0.0
-5.673382,-6.955935,-1.65344,-120.75,-1.68,-25.83,1729414702587.0,0.0
-5.343173,-7.156933,-2.529213,-136.220001,-11.48,-18.690001,1729414702604.0,0.0
-5.190032,-8.173882,-3.113062,-147.910004,-11.76,-15.47,1729414702625.0,0.0
-5.225924,-7.889136,-3.249453,-139.089996,-13.440001,-14.49,1729414702646.0,0.0
-5.347959,-7.661818,-3.168097,-116.550003,-14.07,-11.2,1729414702665.0,0.0
-5.190032,-7.616355,-3.462414,-118.93,-11.9,-11.76,1729414702686.0,0.0
-4.895715,-7.690532,-4.601398,-135.589996,-12.81,-16.17,1729414702706.0,0.0
-4.754539,-8.135597,-4.584648,-143.289993,-6.44,-21.49,1729414702724.0,0.0
-5.139783,-6.85783,-5.726025,-145.389999,-8.12,-27.790001,1729414702746.0,0.0
-4.792823,-7.523034,-7.161718,-180.740005,-9.59,-36.330002,1729414702763.0,0.0
-4.424329,-7.463214,-5.551349,-192.990005,-5.25,-42.560001,1729414702785.0,0.0
-4.957928,-6.032306,-6.262017,-193.059998,-0.21,-43.189999,1729414702806.0,0.0
-4.579862,-6.652047,-8.178668,-163.309998,-1.89,-34.790001,1729414702824.0,0.0
-4.261617,-6.728617,-8.128418,-109.620003,7.07,-25.549999,1729414702846.0,0.0
-4.953143,-4.381258,-5.424529,-64.260002,6.86,-20.09,1729414702864.0,0.0
-5.462814,-2.68714,-4.718646,-98.419998,-8.19,-18.549999,1729414702884.0,0.0
-4.9675,-4.386044,-6.02752,-153.369995,-19.389999,-21.139999,1729414702903.0,0.0
-4.955536,-4.500899,-7.219146,-159.600006,-33.459999,-17.92,1729414702926.0,0.0
-5.369494,-2.043471,-8.989835,-112.279999,-43.330002,-9.38,1729414702944.0,0.0
-4.749753,-1.658226,-8.903693,-106.610001,-36.610001,-8.47,1729414702965.0,0.0
-4.723432,-3.830909,-9.095119,-102.900002,-21.35,-2.45,1729414702986.0,0.0
-4.331009,-4.23051,-10.042676,-54.670002,-19.809999,2.87,1729414703004.0,0.0
-4.237689,-4.572684,-10.660025,-10.43,-10.08,2.24,1729414703025.0,0.0
-4.541577,-4.618148,-11.339586,23.52,6.02,-0.7,1729414703047.0,0.0
-4.024727,-5.484349,-9.054441,63.77,26.74,-12.95,1729414703065.0,0.0
-2.352145,-5.371887,-4.749753,119.209999,18.059999,-3.71,1729414703085.0,0.0
-4.307081,-4.122833,-4.663611,214.479996,0.77,5.25,1729414703111.0,0.0
-3.771089,-3.751946,-5.946165,149.520004,-16.17,-10.99,1729414703125.0,0.0
-3.706482,-4.589434,-7.319644,180.740005,-31.57,6.93,1729414703146.0,0.0
-7.051648,-5.965307,-6.453443,247.029999,-8.89,17.15,1729414703164.0,0.0
-8.556733,-4.271189,-7.345965,204.820007,21.139999,0.77,1729414703184.0,0.0
-8.245667,-8.353344,-8.209774,183.610001,6.65,17.780001,1729414703205.0,0.0
-7.066005,-7.69771,-6.733403,142.309998,2.73,-11.55,1729414703224.0,0.0
-7.326823,-4.37408,-5.783452,111.860001,30.73,-13.86,1729414703247.0,0.0
-7.396214,-9.566505,-4.95075,117.669998,29.4,-9.94,1729414703264.0,0.0
-6.037091,-7.618747,-5.156533,66.989998,23.66,-33.740002,1729414703286.0,0.0
-6.068198,-4.199404,-6.185446,101.010002,25.549999,-13.09,1729414703305.0,0.0
-6.675975,-5.962914,-8.305488,121.099998,37.029999,-0.98,1729414703325.0,0.0
-5.769095,-8.927622,-3.974478,101.010002,59.080002,6.51,1729414703347.0,0.0
-5.883951,-6.896115,5.766702,140.699997,45.290001,20.02,1729414703365.0,0.0
-4.201797,-9.049655,-3.18724,113.889999,7.77,2.66,1729414703386.0,0.0
-2.689533,-9.690931,-2.108077,66.220001,9.94,-5.32,1729414703407.0,0.0
0.533599,-11.41137,-0.839881,78.050003,31.92,1.54,1729414703426.0,0.0
0.349352,-10.296316,3.806981,101.220001,37.380001,-0.21,1729414703448.0,0.0
-1.20359,-8.829515,6.23091,130.410004,20.370001,9.03,1729414703466.0,0.0
-1.12702,-7.477571,3.007778,121.449997,-3.5,-1.75,1729414703486.0,0.0
-3.256632,-7.109076,1.091127,85.190002,-3.99,8.75,1729414703506.0,0.0
-2.734996,-10.423136,-2.11047,53.900002,-12.39,16.52,1729414703527.0,0.0
-1.158126,-10.336994,-2.208575,16.799999,-18.34,21.700001,1729414703548.0,0.0
-1.885544,-11.63869,-0.425922,4.06,-24.15,23.030001,1729414703565.0,0.0
-2.962314,-11.042876,-1.48355,12.46,-38.150002,19.530001,1729414703589.0,0.0
-4.342973,-9.607183,-0.337388,21.42,-39.619999,17.85,1729414703606.0,0.0
-4.979464,-6.661618,-2.455036,-32.200001,-40.459999,19.6,1729414703627.0,0.0
-6.429514,-6.872187,-7.920243,-102.900002,-31.01,17.15,1729414703647.0,0.0
-8.626125,-6.379266,-12.760924,-131.529999,7.7,22.4,1729414703666.0,0.0
-7.262216,-11.63869,-6.78126,-54.040001,31.99,38.220001,1729414703687.0,0.0
-5.302495,-9.164511,0.969093,213.919998,29.190001,21.210001,1729414703707.0,0.0
-5.424529,-2.78046,5.065606,241.779999,35.209999,22.4,1729414703727.0,0.0
-5.398208,-3.615555,1.902294,86.029999,1.75,45.57,1729414703748.0,0.0
-5.496314,-8.752945,-1.155733,-105.629997,-5.32,26.67,1729414703766.0,0.0
-5.082355,-12.404392,-1.770689,-59.150002,-11.34,21.84,1729414703787.0,0.0
-5.493921,-8.501699,-0.179462,100.730003,2.59,44.59,1729414703806.0,0.0
-7.398607,-4.917251,1.990828,133.210007,10.08,49.84,1729414703830.0,0.0
-8.197811,-5.960521,1.318445,31.43,-5.32,46.48,1729414703846.0,0.0
-6.855437,-9.044869,-0.662812,-27.790001,-15.05,33.25,1729414703865.0,0.0
-6.611369,-8.195417,-0.39003,10.71,-9.59,31.08,1729414703887.0,0.0
-7.467999,-6.673582,0.227318,46.900002,-3.15,35.07,1729414703906.0,0.0
-7.200003,-7.228717,0.157926,30.030001,-5.81,25.76,1729414703927.0,0.0
