acc_x,acc_y,acc_z,gyr_x,gyr_y,gyr_z,timestamp,label
-8.846266,-4.261617,-3.84048,-192.570007,45.920002,4.27,1729415632920.0,0.0
-10.765309,-13.706088,-3.495914,-203.979996,41.299999,-11.9,1729415632921.0,0.0
-8.298308,-7.738388,1.473979,-145.740005,5.18,-18.549999,1729415632922.0,0.0
-7.152147,-7.381857,-1.758725,-146.789993,7.49,-33.459999,1729415632923.0,0.0
-11.145767,-10.179067,4.804788,-278.950012,-22.68,-24.5,1729415632951.0,0.0
-7.109076,1.39023,-6.649654,-459.410004,-18.620001,-126.489998,1729415632964.0,0.0
-7.80778,-6.24766,-1.038485,-470.959991,-61.950001,-56.630001,1729415632984.0,0.0
-7.176075,-1.182054,2.35693,-505.679993,-39.900002,-98.209999,1729415633004.0,0.0
-9.822537,-10.360922,-5.668597,-490.0,-39.41,-56.0,1729415633028.0,0.0
-8.865408,-11.461621,-3.266203,-272.299988,-22.68,-57.68,1729415633044.0,0.0
-9.84168,-3.65384,-0.794417,-162.259995,9.45,-43.330002,1729415633065.0,0.0
-9.24826,-2.002793,-5.79063,-418.390015,-15.4,-22.68,1729415633086.0,0.0
-9.410972,-7.743174,-5.958128,-420.910004,41.720001,-29.26,1729415633105.0,0.0
-4.809574,-7.006185,-11.523834,-362.529999,21.210001,-36.400002,1729415633127.0,0.0
-5.611169,-3.665804,-10.234102,-250.110001,33.880001,-16.17,1729415633145.0,0.0
-5.266603,-4.862216,-9.669396,-172.830002,38.709999,-8.54,1729415633164.0,0.0
-4.402793,-6.362515,-9.102298,-93.029999,46.830002,-10.64,1729415633184.0,0.0
-4.797609,-6.190232,-9.186047,-7.7,43.889999,-25.200001,1729415633206.0,0.0
-2.813959,-4.871787,-8.109276,82.669998,38.220001,-18.9,1729415633225.0,0.0
-2.739782,-7.515855,-9.853643,163.240005,46.34,-27.51,1729415633244.0,0.0
-3.481557,-7.726424,-9.308081,220.080002,54.529999,-38.220001,1729415633265.0,0.0
-2.165504,-5.168497,-8.310273,279.579987,54.810001,-34.509998,1729415633285.0,0.0
-1.172483,-3.309274,-6.534799,321.019989,44.799999,-20.23,1729415633305.0,0.0
-0.368495,-2.0004,-4.275974,321.019989,31.710001,0.21,1729415633325.0,0.0
1.462015,-1.945365,-5.04407,294.279999,8.82,21.42,1729415633344.0,0.0
3.038885,-7.771888,-7.759924,284.829987,-0.07,36.959999,1729415633364.0,0.0
3.641876,-11.227123,-9.425328,292.320007,9.52,30.799999,1729415633384.0,0.0
0.861416,-7.712067,-8.123632,511.070007,7.35,79.660004,1729415633405.0,0.0
0.66999,-5.032106,-7.173682,814.799988,-1.19,158.619995,1729415633425.0,0.0
-6.486942,-1.289732,-1.612763,817.530029,54.110001,165.130005,1729415633445.0,0.0
-12.641282,3.917051,7.74796,637.349976,86.379997,168.839996,1729415633464.0,0.0
-16.395622,1.306481,12.189038,257.529999,74.620003,114.590004,1729415633486.0,0.0
-11.736795,-7.21436,8.52802,-101.150002,31.639999,34.09,1729415633507.0,0.0
-9.829715,-12.212967,4.13719,-235.970001,3.5,-6.02,1729415633525.0,0.0
-7.264609,-11.63869,1.68694,-222.669998,-4.62,-24.219999,1729415633544.0,0.0
-6.056234,-10.332209,0.818345,-173.25,-0.42,-30.309999,1729415633565.0,0.0
-5.276174,-8.769694,0.430708,-118.230003,3.64,-29.120001,1729415633584.0,0.0
-4.974678,-8.25763,0.909273,-84.559998,12.6,-31.43,1729415633606.0,0.0
-5.130211,-8.571091,1.392623,-83.93,15.89,-37.799999,1729415633628.0,0.0
-5.541777,-8.941978,1.701297,-98.629997,18.200001,-44.170002,1729415633645.0,0.0
-5.721239,-9.157332,1.615155,-121.099998,19.25,-51.799999,1729415633665.0,0.0
-5.426922,-8.810372,1.414158,-147.910004,22.190001,-57.889999,1729415633686.0,0.0
-5.003392,-8.798409,0.715454,-175.770004,22.610001,-60.970001,1729415633705.0,0.0
-4.73061,-8.738588,-0.244068,-194.529999,24.85,-62.720001,1729415633725.0,0.0
-4.716253,-8.810372,-1.086342,-194.110001,28.07,-63.420002,1729415633745.0,0.0
-4.455436,-8.889337,-2.266003,-179.970001,29.960001,-63.84,1729415633764.0,0.0
-4.089334,-8.583055,-2.943172,-182.070007,31.710001,-65.730003,1729415633792.0,0.0
-3.996014,-8.575876,-3.768696,-195.369995,38.220001,-62.16,1729415633832.0,0.0
-3.869194,-8.834301,-4.465007,-207.410004,44.029999,-58.799999,1729415633835.0,0.0
-3.555735,-9.346365,-4.785645,-209.509995,49.630001,-54.670002,1729415633845.0,0.0
-3.254239,-9.200402,-5.271388,-194.180008,52.5,-51.240002,1729415633865.0,0.0
-2.720639,-8.769694,-6.24766,-155.680008,56.07,-46.41,1729415633884.0,0.0
-2.206182,-8.114061,-6.881758,-116.900002,60.900002,-40.670002,1729415633954.0,0.0
-1.861616,-7.862815,-7.350751,-92.330002,68.040001,-29.68,1729415633954.0,0.0
-1.897508,-7.683353,-7.408179,-79.800003,76.300003,-19.110001,1729415633955.0,0.0
-2.251646,-7.575676,-6.991827,-63.91,81.690002,-11.62,1729415633981.0,0.0
-2.557927,-6.819544,-6.71426,-46.689999,77.07,-8.54,1729415633983.0,0.0
-2.608176,-6.317052,-6.441479,-37.380001,71.82,-5.32,1729415634004.0,0.0
-2.708675,-6.448657,-6.482157,-32.27,68.529999,-4.06,1729415634025.0,0.0
-2.801995,-6.23091,-6.460621,-21.700001,62.16,-2.45,1729415634045.0,0.0
-3.151347,-5.860023,-6.226124,-7.35,52.709999,1.47,1729415634106.0,0.0
-3.455236,-5.716454,-5.647062,-2.38,45.220001,4.9,1729415634107.0,0.0
-3.716053,-5.69731,-5.35753,-3.99,39.689999,8.05,1729415634113.0,0.0
-3.871587,-5.508278,-5.486742,-6.3,21.84,9.03,1729415634123.0,0.0
-4.070191,-6.324231,-5.668597,-15.47,18.690001,5.32,1729415634143.0,0.0
-4.067799,-6.644868,-5.833702,-17.43,15.26,2.24,1729415634165.0,0.0
-3.787838,-6.049056,-5.941379,-12.18,10.57,0.42,1729415634183.0,0.0
-3.177669,-5.252246,-5.891129,-19.040001,6.3,-0.28,1729415634210.0,0.0
-3.022135,-5.879165,-5.795416,-35.98,8.4,1.96,1729415634224.0,0.0
-3.282953,-6.551548,-5.812167,-34.299999,7.21,4.48,1729415634244.0,0.0
-3.34038,-6.403193,-6.329016,-26.460001,3.22,3.57,1729415634265.0,0.0
-3.471986,-5.876772,-6.494121,-27.790001,3.22,1.05,1729415634284.0,0.0
-3.371487,-5.929415,-6.273981,-29.889999,4.13,-0.77,1729415634305.0,0.0
-3.165704,-6.163911,-6.410372,-29.33,3.78,-4.48,1729415634324.0,0.0
-2.684747,-6.271588,-6.924829,-24.219999,0.56,-4.06,1729415634344.0,0.0
-2.031506,-6.809973,-7.271788,-14.63,-1.75,-3.36,1729415634366.0,0.0
-2.072184,-6.080163,-6.9679,8.05,-8.33,-0.98,1729415634384.0,0.0
-2.316252,-5.9342,-6.9679,5.39,-11.06,-0.56,1729415634405.0,0.0
-2.419144,-6.439085,-7.628319,-13.93,-7.63,-1.68,1729415634425.0,0.0
-2.294717,-6.563512,-8.468199,-13.02,-5.53,-3.15,1729415634444.0,0.0
-1.758725,-6.771688,-8.877372,-0.14,-2.17,-8.05,1729415634466.0,0.0
-1.651048,-6.34098,-8.85823,14.21,-2.17,-8.33,1729415634484.0,0.0
-1.911865,-6.041877,-8.152347,22.4,3.22,-7.07,1729415634504.0,0.0
-2.053042,-5.828916,-7.752745,22.82,3.85,-6.37,1729415634526.0,0.0
-1.976472,-6.101698,-7.740781,11.62,6.09,-5.88,1729415634545.0,0.0
-1.866402,-6.367301,-7.573284,4.55,7.07,-5.11,1729415634566.0,0.0
-1.631905,-5.970093,-7.427321,2.45,3.15,-5.18,1729415634584.0,0.0
-1.615155,-6.053841,-7.41775,-5.74,2.59,-3.36,1729415634604.0,0.0
-1.847259,-6.4678,-7.549356,-8.89,2.94,-1.89,1729415634627.0,0.0
-1.921437,-6.482157,-7.819745,-9.1,1.26,-3.64,1729415634643.0,0.0
-1.933401,-6.223732,-7.80778,-8.61,1.61,-4.48,1729415634665.0,0.0
-1.866402,-5.960521,-7.735995,-6.93,0.77,-3.92,1729415634684.0,0.0
-2.084148,-6.053841,-7.628319,-5.95,2.03,-3.08,1729415634706.0,0.0
-2.249253,-5.469993,-6.953543,4.69,-1.12,0.63,1729415634726.0,0.0
-2.254039,-5.649454,-7.056434,0.49,-1.33,1.12,1729415634743.0,0.0
-2.309074,-5.958128,-7.338787,-4.97,-2.31,1.75,1729415634766.0,0.0
-2.014757,-5.79063,-7.642675,-18.969999,-4.9,0.42,1729415634784.0,0.0
-1.902294,-6.01077,-7.927422,-28.91,-4.34,0.56,1729415634804.0,0.0
-1.887937,-6.063413,-8.078169,-25.9,-3.78,0.07,1729415634828.0,0.0
-2.026721,-5.955735,-8.12124,-19.18,-3.15,-0.28,1729415634845.0,0.0
-2.084148,-5.958128,-8.039884,-18.200001,-1.89,-0.77,1729415634863.0,0.0
-2.09372,-5.910272,-8.10449,-18.059999,-1.47,-0.98,1729415634885.0,0.0
-2.194218,-5.836094,-8.102098,-18.48,-1.75,-1.19,1729415634905.0,0.0
-2.208575,-5.721239,-8.130811,-20.58,-2.1,-1.26,1729415634925.0,0.0
-2.306681,-5.9677,-8.353344,-20.790001,-1.05,-1.61,1729415634945.0,0.0
-2.282753,-6.015556,-8.319844,-13.86,0.21,-2.03,1729415634963.0,0.0
-2.333002,-5.843273,-8.343772,-6.23,0.7,-3.29,1729415634985.0,0.0
-2.495714,-5.479564,-8.13799,-4.55,2.52,-4.06,1729415635007.0,0.0
-2.632105,-5.594419,-8.094919,-10.29,4.48,-4.55,1729415635027.0,0.0
-2.053042,-5.900701,-8.432307,-17.360001,7.91,-8.68,1729415635045.0,0.0
-2.364109,-5.4676,-8.221739,-6.09,6.79,-6.79,1729415635064.0,0.0
-2.347359,-5.647062,-8.169096,-9.45,9.17,-9.94,1729415635085.0,0.0
-2.37368,-5.410172,-8.262416,-4.97,7.91,-11.48,1729415635104.0,0.0
-2.440679,-5.355137,-8.391629,-7.21,8.19,-13.79,1729415635124.0,0.0
-2.471786,-5.292924,-8.267202,-11.06,9.8,-14.49,1729415635143.0,0.0
-2.481357,-4.989035,-8.013563,-11.2,10.01,-14.7,1729415635164.0,0.0
-2.701497,-5.010571,-7.903493,-11.13,9.52,-13.93,1729415635185.0,0.0
-2.928815,-5.264209,-7.836494,-13.09,10.85,-15.190001,1729415635205.0,0.0
-3.215954,-5.063213,-7.633104,-9.66,10.22,-16.450001,1729415635226.0,0.0
-3.120241,-4.697111,-7.515855,-10.99,6.86,-17.85,1729415635243.0,0.0
-3.225525,-4.828716,-8.595018,-22.120001,4.9,-19.530001,1729415635265.0,0.0
-2.794817,-5.572884,-10.112068,-32.830002,11.55,-24.08,1729415635284.0,0.0
-2.739782,-5.594419,-9.638289,-7.91,18.48,-24.15,1729415635307.0,0.0
-3.031706,-6.053841,-9.281759,26.110001,26.040001,-27.370001,1729415635324.0,0.0
-3.196811,-6.204589,-9.652647,60.549999,34.720001,-33.18,1729415635343.0,0.0
-3.172883,-6.465407,-10.959127,126.07,42.0,-37.450001,1729415635366.0,0.0
-3.09392,-7.334002,-10.437491,187.880005,53.689999,-43.400002,1729415635383.0,0.0
-2.409572,-7.515855,-8.788837,235.899994,62.93,-46.549999,1729415635405.0,0.0
-1.442872,-6.821937,-6.659225,259.910004,63.630001,-44.099998,1729415635423.0,0.0
0.452243,-8.331808,-7.475177,275.519989,56.700001,-36.400002,1729415635444.0,0.0
1.172483,-8.683553,-6.999006,339.779999,48.93,-18.41,1729415635462.0,0.0
1.792224,-7.142576,-4.680361,411.880005,39.27,1.61,1729415635486.0,0.0
1.445265,-5.970093,-5.089533,466.200012,36.75,26.880001,1729415635505.0,0.0
-2.701497,-7.312466,2.931208,461.230011,29.68,40.810001,1729415635523.0,0.0
-1.182054,-5.491528,6.317052,369.110016,1.89,27.440001,1729415635543.0,0.0
1.014557,-3.251846,6.003592,212.800003,-6.86,49.0,1729415635565.0,0.0
2.469393,-4.242475,4.359723,42.07,-16.940001,55.860001,1729415635583.0,0.0
2.18704,-7.140182,4.534399,-24.639999,-28.700001,65.730003,1729415635605.0,0.0
2.507678,-6.496514,4.733003,-3.99,-41.09,77.980003,1729415635626.0,0.0
3.136991,-6.740582,4.61097,-32.200001,-52.360001,86.590004,1729415635643.0,0.0
0.818345,-7.936993,5.379066,-111.440002,-69.860001,84.559998,1729415635665.0,0.0
-1.361516,-8.066205,2.084148,-164.360001,-91.910004,78.540001,1729415635684.0,0.0
-0.258425,-7.889136,-1.758725,-201.949997,-102.059998,65.379997,1729415635704.0,0.0
0.177069,-9.882358,-2.467,-223.020004,-102.900002,59.150002,1729415635725.0,0.0
-2.175076,-7.843673,-2.89053,-257.390015,-104.230003,50.119999,1729415635744.0,0.0
-2.59382,-8.458629,-1.040878,-301.630005,-113.540001,50.400002,1729415635763.0,0.0
-3.59402,-11.47837,-8.159525,-313.600006,-117.32,28.42,1729415635783.0,0.0
-6.178268,-7.164111,-7.956135,-297.220001,-95.480003,12.46,1729415635804.0,0.0
-7.628319,-10.181459,-12.753745,-402.709991,-65.940002,0.49,1729415635825.0,0.0
-5.328816,-13.684553,-11.705689,-338.170013,-25.27,-3.15,1729415635845.0,0.0
-4.371687,-10.042676,-8.020741,-91.209999,-13.72,-17.01,1729415635864.0,0.0
-5.17089,-5.850451,-7.855636,-31.08,-1.82,-14.63,1729415635884.0,0.0
-4.409972,-7.724032,-9.863215,-103.18,29.469999,-7.14,1729415635904.0,0.0
-2.880959,-6.116055,-9.789038,-122.220001,45.43,-7.91,1729415635923.0,0.0
-1.433301,-8.886944,-9.96132,-135.449997,60.619999,-9.1,1729415635943.0,0.0
-0.581456,-9.08794,-2.818745,-69.160004,56.98,-12.11,1729415635963.0,0.0
-0.973879,-4.948357,-2.249253,13.65,20.16,-19.74,1729415635984.0,0.0
-0.301496,-5.972485,-2.974278,-65.940002,6.79,-34.93,1729415636005.0,0.0
-1.813759,-1.581656,-4.816752,-111.230003,-13.65,-17.08,1729415636027.0,0.0
-4.168297,-3.639483,-6.288338,-141.259995,-21.07,0.56,1729415636044.0,0.0
-0.935594,-7.202396,-8.398808,-122.709999,-29.68,4.83,1729415636064.0,0.0
1.174876,-6.898508,-8.896514,-101.709999,-38.779999,-2.24,1729415636083.0,0.0
1.490728,-5.91745,-8.79123,-95.199997,-44.799999,-11.69,1729415636104.0,0.0
-1.208375,-2.282753,-8.338986,-87.150002,-53.549999,-13.51,1729415636124.0,0.0
-4.005585,-3.591627,-9.092726,-95.199997,-42.77,16.379999,1729415636150.0,0.0
-3.924229,-3.739982,-10.817951,-69.300003,-29.26,32.27,1729415636164.0,0.0
-4.493721,-3.029313,-12.306287,-31.290001,-20.860001,48.509998,1729415636184.0,0.0
-4.577469,-6.092126,-11.028521,-29.33,-3.08,41.02,1729415636205.0,0.0
-3.136991,-5.553742,-9.812965,-19.25,-2.52,31.08,1729415636225.0,0.0
-3.869194,-3.871587,-9.801002,1.47,2.59,15.54,1729415636244.0,0.0
-3.943372,-2.380858,-9.662218,21.35,7.0,15.75,1729415636264.0,0.0
-3.811767,-4.223332,-9.396614,-4.48,17.780001,19.6,1729415636283.0,0.0
-3.194418,-6.932007,-8.84148,-23.030001,22.960001,7.28,1729415636305.0,0.0
-3.23031,-6.364908,-8.724231,7.14,17.5,-18.200001,1729415636325.0,0.0
-3.838088,-4.034299,-7.37468,48.02,13.09,-37.029999,1729415636345.0,0.0
-3.59402,-1.744368,-6.800402,37.380001,7.35,-45.779999,1729415636363.0,0.0
-3.127419,-0.981057,-8.262416,-19.879999,2.66,-41.509998,1729415636385.0,0.0
-2.56032,-2.48375,-8.903693,-72.029999,-1.68,-45.920002,1729415636405.0,0.0
-3.141776,-2.098505,-9.406186,-60.830002,-12.67,-49.279999,1729415636426.0,0.0
-3.440879,-0.892523,-10.305886,-22.33,-13.51,-35.77,1729415636444.0,0.0
-3.09392,-0.239282,-9.769895,-13.23,-7.63,-10.78,1729415636464.0,0.0
-3.273381,-0.880559,-11.16491,-6.65,6.37,20.299999,1729415636485.0,0.0
-3.148954,-1.007378,-12.052648,33.18,18.620001,41.580002,1729415636505.0,0.0
-2.651247,-1.438086,-11.047661,70.980003,31.360001,51.380001,1729415636526.0,0.0
-2.715853,-0.172283,-9.667004,98.769997,34.02,53.619999,1729415636547.0,0.0
-1.61037,-2.572284,-8.26481,55.93,41.16,56.91,1729415636565.0,0.0
-0.947558,-6.18784,-7.049256,5.67,47.110001,53.689999,1729415636585.0,0.0
-0.717847,-7.867601,-5.898308,21.42,35.349998,43.049999,1729415636617.0,0.0
-0.564706,-8.965906,-6.62094,12.74,22.68,24.219999,1729415636626.0,0.0
-0.538385,-7.499106,-6.089733,8.82,4.48,1.33,1729415636644.0,0.0
-0.705883,-4.996214,-7.542177,-8.54,-13.58,-11.27,1729415636666.0,0.0
-3.768696,-5.659025,-5.364708,-56.139999,-22.190001,-17.360001,1729415636687.0,0.0
-4.685147,-7.334002,-7.735995,-99.959999,-26.040001,-30.940001,1729415636706.0,0.0
-6.740582,-3.074777,-11.925828,-29.889999,-38.709999,-48.860001,1729415636727.0,0.0
-5.82413,-4.285545,-11.035697,-40.950001,-13.3,-58.869999,1729415636745.0,0.0
-6.498906,-0.729811,-10.255639,0.21,-12.53,-55.299999,1729415636766.0,0.0
-5.020142,0.79681,-11.353944,-0.63,-0.77,-41.720001,1729415636785.0,0.0
-4.31426,0.691526,-10.829915,3.08,10.43,-18.200001,1729415636806.0,0.0
-4.924429,-0.976272,-10.681561,18.129999,18.200001,-0.56,1729415636826.0,0.0
-4.165904,-0.952343,-9.75793,23.17,25.83,9.24,1729415636845.0,0.0
-2.876173,-0.928415,-10.377672,46.830002,32.41,14.49,1729415636870.0,0.0
-1.801795,-0.476172,-8.760124,75.879997,36.610001,32.200001,1729415636887.0,0.0
-0.535992,-1.215554,-8.26481,91.910004,40.389999,44.450001,1729415636906.0,0.0
0.729811,-2.40718,-8.049455,57.540001,41.369999,57.330002,1729415636926.0,0.0
1.65344,-7.652246,-7.484749,7.56,47.599998,57.400002,1729415636946.0,0.0
0.758525,-9.497113,-4.816752,30.1,32.830002,37.73,1729415636966.0,0.0
-0.318245,-10.380065,-4.9675,31.08,8.19,7.49,1729415636986.0,0.0
-0.334995,-6.898508,-5.716454,-13.58,-12.46,-23.030001,1729415637007.0,0.0
-0.246461,-5.223531,-8.374879,-31.85,-27.09,-26.25,1729415637028.0,0.0
-3.036492,-5.056034,-7.71446,-39.41,-26.25,-20.860001,1729415637045.0,0.0
-5.070391,-3.95055,-8.161918,-19.950001,-47.32,-25.690001,1729415637067.0,0.0
-6.472585,-4.304688,-8.784052,-20.93,-39.41,-33.040001,1729415637087.0,0.0
-8.020741,-3.790231,-12.162716,-47.110001,-37.380001,-44.170002,1729415637106.0,0.0
-7.51107,-3.182454,-12.136396,-40.389999,-10.43,-50.540001,1729415637126.0,0.0
-5.510671,0.569492,-11.222338,23.66,-2.31,-40.810001,1729415637146.0,0.0
-4.005585,1.617548,-9.750752,30.380001,10.22,-14.49,1729415637166.0,0.0
-4.232903,-0.753739,-9.722038,13.3,18.690001,7.77,1729415637186.0,0.0
-3.17049,-0.859023,-10.30828,-0.63,26.530001,23.73,1729415637209.0,0.0
-1.641476,-3.416951,-11.064411,17.92,36.470001,35.700001,1729415637226.0,0.0
-0.658026,-1.737189,-9.51147,87.849998,39.970001,42.209999,1729415637244.0,0.0
0.51685,-0.323031,-8.073383,86.590004,37.59,52.990002,1729415637265.0,0.0
1.414158,-5.008178,-8.082954,-12.18,51.450001,62.369999,1729415637286.0,0.0
0.971486,-9.49472,-6.908078,-14.42,48.02,55.510002,1729415637307.0,0.0
0.356531,-10.545169,-6.111269,26.530001,31.15,33.670002,1729415637325.0,0.0
-0.272782,-9.908678,-3.632305,23.870001,12.6,6.09,1729415637346.0,0.0
0.318245,-6.415157,-5.663811,7.14,-12.95,-9.03,1729415637366.0,0.0
-2.163112,-5.319244,-5.737988,-72.730003,-23.030001,-11.62,1729415637385.0,0.0
-3.294917,-7.51107,-9.382257,-101.290001,-37.52,-21.98,1729415637408.0,0.0
-4.56072,-5.82413,-11.428121,-22.4,-45.639999,-32.900002,1729415637426.0,0.0
-6.927221,-4.773681,-11.255837,18.34,-37.450001,-46.48,1729415637445.0,0.0
-7.477571,-4.079762,-11.062018,-5.11,-20.51,-59.849998,1729415637467.0,0.0
-6.025128,-2.330609,-10.772489,2.17,-4.13,-70.209999,1729415637486.0,0.0
-4.644469,-1.057628,-10.827522,23.379999,2.1,-61.389999,1729415637505.0,0.0
-3.881158,0.375673,-10.145569,21.98,8.54,-35.77,1729415637527.0,0.0
-3.672983,0.909273,-8.750552,-2.73,17.360001,-16.66,1729415637546.0,0.0
-3.055635,-1.68694,-10.595419,-10.5,24.92,13.51,1729415637564.0,0.0
-1.600798,-1.696511,-10.454242,28.35,33.670002,22.960001,1729415637585.0,0.0
-0.323031,-0.914058,-8.499306,53.970001,37.380001,36.959999,1729415637605.0,0.0
1.064806,-4.744967,-9.305687,56.630001,45.360001,46.27,1729415637626.0,0.0
0.81356,-5.532206,-7.716853,100.449997,47.110001,51.73,1729415637645.0,0.0
0.940379,-6.151947,-6.876972,73.709999,47.25,45.990002,1729415637664.0,0.0
0.272782,-9.470792,-3.172883,35.07,38.290001,38.290001,1729415637685.0,0.0
0.229711,-5.166104,-4.666004,2.1,18.620001,33.040001,1729415637708.0,0.0
-2.404787,-8.556733,-6.108876,-49.84,-3.22,32.759998,1729415637725.0,0.0
-4.345366,-8.133204,-8.245667,-106.260002,-29.610001,-3.99,1729415637744.0,0.0
-3.828516,-11.229517,-9.482756,-99.120003,-17.99,-33.810001,1729415637765.0,0.0
-5.000999,-5.891129,-9.597611,25.48,-32.759998,-56.139999,1729415637784.0,0.0
-4.479364,-3.945765,-9.016156,5.18,-28.49,-73.360001,1729415637806.0,0.0
-4.122833,-1.954936,-8.803195,-58.310001,-22.960001,-83.790001,1729415637826.0,0.0
-4.034299,-3.254239,-8.977871,-67.269997,-21.84,-76.160004,1729415637892.0,0.0
-4.522435,-1.052842,-10.226924,-12.25,-24.5,-61.459999,1729415637896.0,0.0
-3.314059,0.705883,-8.79123,21.42,-19.110001,-31.08,1729415637926.0,0.0
-2.184647,-0.200997,-10.640882,19.18,-7.49,-2.8,1729415637930.0,0.0
-0.933201,-0.696311,-11.918649,-4.9,1.05,22.540001,1729415637945.0,0.0
-0.193819,-2.033899,-10.485349,-1.05,10.64,32.27,1729415637964.0,0.0
-0.059821,-3.706482,-9.265009,61.25,28.559999,55.09,1729415637986.0,0.0
0.09332,-3.115455,-7.700103,71.540001,31.57,65.660004,1729415638007.0,0.0
-0.150748,-7.60439,-5.12782,16.1,40.599998,72.099998,1729415638028.0,0.0
-0.471386,-10.167104,-4.055835,8.05,25.83,58.799999,1729415638045.0,0.0
-0.064606,-8.295916,-8.030313,-1.61,-2.17,32.689999,1729415638065.0,0.0
-2.907279,-8.118847,-6.367301,-45.709999,-15.190001,16.17,1729415638084.0,0.0
-3.251846,-11.413764,-9.085547,-85.400002,-17.5,-7.63,1729415638106.0,0.0
-3.201597,-8.834301,-10.631311,-5.32,-24.639999,-38.43,1729415638126.0,0.0
-4.890929,-3.091527,-8.815158,37.099998,-32.34,-58.380001,1729415638145.0,0.0
-4.149154,-6.474977,-10.437491,-41.860001,-20.09,-74.480003,1729415638164.0,0.0
-4.883751,-2.505285,-11.124231,-46.900002,-17.780001,-87.849998,1729415638186.0,0.0
-4.328616,-1.737189,-9.980463,-24.290001,-8.61,-83.230003,1729415638206.0,0.0
-3.95055,-0.557528,-10.832308,8.47,-0.49,-66.57,1729415638225.0,0.0
-3.199204,1.536192,-9.731609,28.49,3.57,-26.389999,1729415638244.0,0.0
-2.455036,2.115255,-10.502099,2.8,20.440001,1.19,1729415638265.0,0.0
-1.146162,-0.428315,-11.784652,9.94,37.240002,32.27,1729415638284.0,0.0
-0.495314,-1.818545,-9.875179,71.120003,43.82,54.670002,1729415638307.0,0.0
-0.497707,-1.258625,-8.882158,98.349998,47.599998,63.209999,1729415638326.0,0.0
0.543171,-4.728218,-7.314859,36.610001,58.869999,65.029999,1729415638344.0,0.0
0.102891,-8.956335,-4.567898,25.200001,50.889999,61.880001,1729415638364.0,0.0
-0.179462,-10.485349,-2.656033,17.15,31.57,40.599998,1729415638386.0,0.0
0.42353,-6.752545,-5.680561,-12.81,-8.96,12.53,1729415638406.0,0.0
-1.892723,-8.056634,-6.719046,-69.510002,-16.52,2.87,1729415638425.0,0.0
-3.113062,-9.994821,-9.631111,-92.959999,-29.049999,-19.32,1729415638445.0,0.0
-3.058028,-6.865008,-9.657433,-6.79,-33.950001,-45.849998,1729415638465.0,0.0
-4.359723,-3.385844,-9.731609,19.74,-47.32,-60.27,1729415638486.0,0.0
-4.905287,-2.876173,-10.169496,-54.389999,-30.24,-74.340004,1729415638505.0,0.0
-5.168497,-3.158526,-11.423335,-51.029999,-23.799999,-69.860001,1729415638524.0,0.0
-5.02732,-0.602991,-11.748759,1.68,-16.309999,-56.77,1729415638560.0,0.0
-4.364508,0.741775,-11.253445,25.200001,-0.77,-24.08,1729415638563.0,0.0
-3.783052,-0.021535,-9.777073,20.51,15.75,2.1,1729415638662.0,0.0
-1.806581,-0.524028,-11.363515,19.67,26.950001,27.23,1729415638662.0,0.0
-0.591027,-0.241675,-9.980463,52.57,34.02,48.299999,1729415638662.0,0.0
0.665205,-4.048656,-8.037491,42.77,39.759998,56.420002,1729415638662.0,0.0
0.528814,-3.376273,-8.54477,59.5,37.450001,56.84,1729415638668.0,0.0
1.569692,-7.398607,-6.953543,9.38,45.080002,56.139999,1729415638683.0,0.0
1.103091,-8.482556,-6.802795,-17.85,38.57,44.939999,1729415638703.0,0.0
0.583849,-9.51147,-5.273781,-11.06,25.969999,29.889999,1729415638724.0,0.0
-0.174676,-8.030313,-5.185246,-8.96,-4.06,6.58,1729415638743.0,0.0
-2.615355,-6.699903,-4.503292,-51.450001,-18.34,-6.51,1729415638763.0,0.0
-2.311467,-9.719646,-9.269794,-97.090004,-27.93,-26.6,1729415638784.0,0.0
-2.778067,-6.041877,-9.839286,-16.24,-37.099998,-45.5,1729415638805.0,0.0
-5.429315,-2.926422,-8.331808,12.81,-45.360001,-52.639999,1729415638824.0,0.0
-5.800202,-4.37408,-10.626525,-51.66,-33.459999,-62.439999,1729415638846.0,0.0
-6.07777,-2.218147,-11.480762,-42.0,-25.129999,-63.77,1729415638863.0,0.0
-5.410172,-1.004985,-11.188839,-4.2,-10.15,-50.470001,1729415638883.0,0.0
-3.349952,-0.538385,-11.662617,18.27,4.97,-34.790001,1729415638903.0,0.0
-3.09392,1.150948,-9.956534,56.91,10.36,-4.83,1729415638924.0,0.0
-2.163112,1.57687,-8.867801,11.41,20.09,12.18,1729415638943.0,0.0
-0.844666,-1.217947,-10.930414,-24.99,28.77,28.35,1729415638964.0,0.0
0.27996,-3.462414,-9.102298,10.43,29.33,40.32,1729415638983.0,0.0
0.784846,-2.376073,-9.23151,71.190002,27.440001,45.220001,1729415639004.0,0.0
2.196611,-4.800002,-8.128418,39.759998,36.610001,52.639999,1729415639027.0,0.0
1.184447,-8.930015,-5.754738,19.809999,38.639999,53.830002,1729415639044.0,0.0
-0.358923,-10.41835,-5.02732,28.35,12.95,30.450001,1729415639064.0,0.0
0.107677,-7.274181,-5.079963,24.01,-9.17,16.309999,1729415639085.0,0.0
-0.083749,-5.491528,-5.871986,-2.52,-23.73,13.3,1729415639108.0,0.0
-3.665804,-6.960721,-4.82393,-63.560001,-38.43,9.24,1729415639124.0,0.0
-3.438486,-9.516255,-10.447062,-86.169998,-39.900002,-10.92,1729415639145.0,0.0
-5.503492,-4.742575,-11.033305,-6.44,-54.880001,-28.49,1729415639164.0,0.0
-6.448657,-5.010571,-10.533205,-27.02,-35.630001,-45.080002,1729415639185.0,0.0
-5.804988,-3.60359,-11.212767,-38.360001,-21.91,-59.779999,1729415639205.0,0.0
-5.304887,-0.514457,-10.437491,-18.129999,-14.56,-58.240002,1729415639223.0,0.0
-4.168297,-1.40698,-11.301301,-33.880001,-3.15,-49.490002,1729415639243.0,0.0
-3.294917,0.215354,-10.236496,-20.51,0.42,-31.43,1729415639266.0,0.0
-3.019742,0.59342,-8.68116,-19.18,9.8,-23.73,1729415639286.0,0.0
-0.370888,-1.021735,-10.430314,-27.299999,19.25,-3.57,1729415639304.0,0.0
0.215354,-1.933401,-9.736395,29.610001,23.799999,16.799999,1729415639324.0,0.0
1.385444,-3.993621,-8.279166,63.84,30.799999,35.560001,1729415639345.0,0.0
1.442872,-4.26401,-8.38445,62.23,30.309999,40.110001,1729415639364.0,0.0
0.440279,-9.317651,-6.003592,29.610001,29.33,39.130001,1729415639383.0,0.0
-0.239282,-7.707282,-6.226124,16.940001,3.92,9.87,1729415639403.0,0.0
0.27996,-5.536992,-7.724032,7.63,-5.6,6.79,1729415639424.0,0.0
-1.311267,-4.98425,-5.364708,-0.98,-10.01,14.98,1729415639444.0,0.0
-5.970093,-7.563712,-1.677369,-39.27,-32.41,14.42,1729415639463.0,0.0
-2.823531,-9.413363,-9.38465,-116.340004,-34.09,0.63,1729415639484.0,0.0
-6.051448,-4.096512,-10.755738,-38.290001,-49.349998,-25.200001,1729415639504.0,0.0
-5.852845,-3.84048,-11.152946,-31.43,-33.389999,-38.009998,1729415639524.0,0.0
-5.046463,-2.691926,-11.353944,-20.51,-22.960001,-49.84,1729415639543.0,0.0
-4.821537,0.33021,-9.62154,-19.18,-17.5,-48.720001,1729415639564.0,0.0
-4.003192,-0.885344,-11.13859,-26.6,-7.56,-34.790001,1729415639583.0,0.0
-3.172883,-0.260818,-9.801002,-14.84,0.84,-16.379999,1729415639604.0,0.0
-3.050849,-0.87338,-10.057034,0.35,6.3,3.29,1729415639628.0,0.0
-1.902294,-2.402394,-11.114661,-10.78,16.309999,24.219999,1729415639645.0,0.0
-0.370888,-2.285146,-11.160125,26.809999,28.84,35.279999,1729415639666.0,0.0
0.301496,-2.572284,-9.269794,91.559998,32.34,50.470001,1729415639683.0,0.0
0.87338,-3.443272,-8.664411,77.419998,36.259998,62.369999,1729415639703.0,0.0
-0.064606,-8.262416,-5.972485,28.210001,41.369999,59.639999,1729415639723.0,0.0
-1.083949,-11.143374,-6.178268,23.73,18.059999,31.01,1729415639743.0,0.0
-2.237289,-8.9683,-4.273581,19.950001,-0.42,4.83,1729415639763.0,0.0
-1.028914,-6.71426,-5.82413,-3.01,-15.33,-10.78,1729415639784.0,0.0
-2.074577,-4.680361,-6.068198,-31.290001,-31.710001,-16.379999,1729415639804.0,0.0
-3.378666,-4.800002,-8.4012,-72.379997,-45.709999,-24.15,1729415639823.0,0.0
-3.479164,-4.333402,-9.444471,-31.99,-48.580002,-30.380001,1729415639844.0,0.0
-5.639884,-2.624927,-9.054441,9.17,-54.110001,-37.869999,1729415639864.0,0.0
-6.163911,-3.749553,-11.700903,-49.420002,-38.990002,-47.880001,1729415639883.0,0.0
-6.300302,-1.241875,-12.918849,-27.51,-23.17,-58.59,1729415639904.0,0.0
-5.015356,0.619741,-11.887544,9.38,-3.43,-43.189999,1729415639926.0,0.0
-3.749553,0.512064,-11.480762,26.950001,11.97,-14.91,1729415639943.0,0.0
-2.9336,1.938186,-9.918249,24.92,23.1,12.32,1729415639962.0,0.0
-1.811367,-0.729811,-11.612368,0.91,36.75,43.119999,1729415639983.0,0.0
-0.162712,-3.45045,-10.717452,25.549999,51.869999,55.02,1729415640003.0,0.0
0.349352,-3.663411,-8.324631,81.550003,52.920002,58.73,1729415640026.0,0.0
0.59342,-3.876373,-7.448857,75.110001,50.610001,58.380001,1729415640043.0,0.0
-0.866202,-9.107083,-5.582455,7.42,49.139999,49.420002,1729415640064.0,0.0
-1.418944,-12.425928,-5.056034,-9.8,26.18,15.61,1729415640083.0,0.0
-1.402194,-7.575676,-4.079762,6.72,-3.43,-8.33,1729415640106.0,0.0
-1.311267,-6.589834,-4.752146,-17.43,-19.950001,-16.450001,1729415640124.0,0.0
-3.692125,-3.909872,-5.513064,-71.610001,-43.540001,-23.1,1729415640144.0,0.0
-2.790031,-9.585647,-8.798409,-81.550003,-34.650002,-24.219999,1729415640163.0,0.0
-4.917251,-4.405186,-10.315458,48.16,-54.32,-30.940001,1729415640183.0,0.0
-6.498906,-2.218147,-11.217552,9.17,-46.619999,-42.77,1729415640206.0,0.0
-6.463014,-2.371287,-12.287145,-57.189999,-24.43,-58.869999,1729415640224.0,0.0
-5.970093,-1.524228,-12.196217,-25.41,-5.88,-51.099998,1729415640242.0,0.0
-3.821337,-0.42353,-12.495319,27.790001,12.11,-37.240002,1729415640263.0,0.0
-3.68734,0.557528,-9.576077,60.970001,24.15,-11.55,1729415640283.0,0.0
-2.672783,1.591227,-9.700503,24.92,31.710001,17.15,1729415640305.0,0.0
-0.878166,-3.141776,-9.616754,-13.440001,52.220001,36.189999,1729415640323.0,0.0
0.045464,-5.252246,-8.145168,68.529999,48.790001,45.779999,1729415640343.0,0.0
0.732204,-2.737389,-7.549356,99.75,43.330002,47.670002,1729415640362.0,0.0
0.897308,-9.657433,-5.546563,18.41,54.459999,45.5,1729415640383.0,0.0
0.375673,-11.464014,-5.245068,0.77,39.689999,30.66,1729415640404.0,0.0
0.397209,-8.987441,-5.740381,4.9,8.61,-0.35,1729415640424.0,0.0
-0.370888,-5.766702,-5.307281,-5.67,-9.52,-11.13,1729415640442.0,0.0
-3.385844,-9.535398,-4.797609,-65.800003,-31.08,-16.24,1729415640463.0,0.0
-1.777867,-7.482357,-10.272388,-119.489998,-40.950001,-35.98,1729415640484.0,0.0
-4.539185,-5.675776,-9.96132,-16.1,-47.32,-52.080002,1729415640504.0,0.0
-6.285945,-4.09412,-9.489935,-12.46,-42.07,-59.010002,1729415640525.0,0.0
-6.163911,-3.866802,-11.693724,-52.990002,-24.99,-76.300003,1729415640545.0,0.0
-5.417351,-0.567099,-12.433105,-14.21,-12.53,-75.25,1729415640563.0,0.0
-4.084548,0.380459,-12.191431,16.030001,7.07,-52.57,1729415640583.0,0.0
-2.991028,0.696311,-11.633904,39.759998,23.379999,-24.08,1729415640606.0,0.0
-2.340181,2.065006,-9.499505,55.510002,32.689999,4.62,1729415640624.0,0.0
-1.385444,0.021535,-9.631111,23.799999,36.75,24.5,1729415640643.0,0.0
-0.217747,-2.368894,-10.564312,-12.32,47.110001,33.740002,1729415640664.0,0.0
0.748954,-5.259424,-7.865208,16.450001,48.509998,39.619999,1729415640683.0,0.0
0.844666,-4.067799,-8.389235,53.970001,47.25,44.939999,1729415640705.0,0.0
1.311267,-7.599605,-6.352944,25.76,55.02,49.139999,1729415640725.0,0.0
0.301496,-11.057234,-5.276174,-2.52,32.759998,37.939999,1729415640744.0,0.0
0.26321,-10.083356,-5.438886,0.42,10.78,10.22,1729415640764.0,0.0
-0.325424,-9.24108,-5.383851,18.41,-13.86,-8.26,1729415640783.0,0.0
-2.09372,-6.01077,-6.082555,-36.68,-30.17,-30.030001,1729415640805.0,0.0
-1.962115,-6.453443,-9.482756,-104.440002,-38.360001,-43.470001,1729415640825.0,0.0
-3.649055,-5.321638,-10.269995,-38.990002,-42.98,-51.869999,1729415640843.0,0.0
-5.553742,-2.840281,-9.731609,9.59,-44.52,-60.41,1729415640863.0,0.0
-5.69731,-3.649055,-11.755937,-55.650002,-21.35,-69.790001,1729415640883.0,0.0
-4.510471,-0.531207,-12.05504,-13.440001,-9.31,-71.400002,1729415640904.0,0.0
-2.756532,1.210768,-11.423335,38.57,1.54,-43.119999,1729415640923.0,0.0
-2.596212,3.684947,-9.968499,34.439999,8.33,-13.79,1729415640944.0,0.0
-1.165305,-0.39003,-12.480963,-9.94,30.450001,12.95,1729415640963.0,0.0
-0.62692,0.004786,-10.571491,37.380001,43.610001,36.049999,1729415640985.0,0.0
0.162712,-3.211168,-9.994821,57.610001,51.310001,54.18,1729415641008.0,0.0
0.504886,-4.723432,-8.456236,55.299999,54.040001,49.700001,1729415641026.0,0.0
1.490728,-9.097511,-5.283352,32.759998,52.709999,40.459999,1729415641042.0,0.0
0.648455,-8.812766,-4.402793,18.76,34.580002,24.01,1729415641062.0,0.0
-0.605384,-12.789637,-5.888737,39.830002,10.01,-9.87,1729415641083.0,0.0
0.057428,-9.413363,-4.981857,52.360001,-8.19,-30.450001,1729415641104.0,0.0
0.557528,-3.601198,-3.268596,-21.77,-23.17,-38.5,1729415641124.0,0.0
-1.457229,-2.301895,-8.571091,-60.200001,-38.639999,-24.92,1729415641145.0,0.0
-2.63689,-9.049655,-9.013763,-48.860001,-41.02,-14.07,1729415641163.0,0.0
-2.871387,-4.919643,-11.600404,1.68,-43.82,-29.120001,1729415641183.0,0.0
-3.680161,-1.725225,-9.97807,-11.2,-35.209999,-40.529999,1729415641204.0,0.0
-3.972085,-2.837888,-11.179268,-29.120001,-19.32,-39.549999,1729415641223.0,0.0
-3.139383,1.177269,-12.067005,10.64,-11.27,-23.379999,1729415641243.0,0.0
-1.935793,2.433501,-10.79163,-0.7,1.68,9.31,1729415641271.0,0.0
-2.026721,-1.619941,-10.214959,-21.91,16.24,36.189999,1729415641284.0,0.0
-2.033899,-0.399601,-11.315658,-25.27,18.76,46.549999,1729415641303.0,0.0
-0.425922,-2.787638,-12.839886,-26.880001,35.490002,58.029999,1729415641323.0,0.0
0.251246,-5.412565,-11.662617,2.73,54.32,63.700001,1729415641342.0,0.0
0.655633,-4.436293,-7.676175,56.98,63.209999,68.739998,1729415641363.0,0.0
-0.12682,-5.675776,-3.28056,40.389999,57.75,64.889999,1729415641382.0,0.0
0.89013,-11.997612,-5.446064,-26.040001,43.259998,50.75,1729415641403.0,0.0
1.064806,-8.980263,-6.252446,-13.65,7.63,14.7,1729415641423.0,0.0
-0.224925,-10.107283,-6.999006,-19.530001,-2.94,-3.43,1729415641443.0,0.0
-1.67019,-8.757731,-5.556134,14.91,-17.85,-23.24,1729415641462.0,0.0
-1.182054,-8.449057,-6.970293,56.279999,-34.580002,-37.029999,1729415641483.0,0.0
-2.043471,-5.802595,-9.499505,75.18,-47.110001,-47.110001,1729415641503.0,0.0
-3.254239,-3.826123,-9.281759,32.060001,-50.610001,-55.439999,1729415641523.0,0.0
-3.720839,-5.838487,-10.310673,-53.760002,-40.040001,-62.16,1729415641543.0,0.0
-4.019942,-3.59402,-11.246266,-33.110001,-33.459999,-73.080002,1729415641563.0,0.0
-3.168097,-0.964308,-11.062018,16.52,-25.969999,-63.560001,1729415641584.0,0.0
-2.541178,0.011964,-10.286745,32.060001,-14.63,-34.790001,1729415641604.0,0.0
-1.825724,0.926022,-10.660025,19.110001,1.89,-9.24,1729415641626.0,0.0
-0.794417,-0.363709,-11.562119,-1.75,19.67,21.77,1729415641642.0,0.0
-0.468993,-1.124627,-9.975677,1.82,32.130001,46.27,1729415641663.0,0.0
0.435494,-2.708675,-9.669396,28.91,36.610001,56.209999,1729415641684.0,0.0
0.29671,-3.960121,-9.760324,53.760002,44.170002,66.989998,1729415641705.0,0.0
0.301496,-5.340781,-6.101698,37.73,51.799999,71.889999,1729415641723.0,0.0
0.122034,-7.01097,-5.158926,1.75,47.040001,81.970001,1729415641743.0,0.0
-1.488336,-10.047462,-3.39063,-35.279999,20.51,70.699997,1729415641763.0,0.0
-2.325824,-9.004191,-7.582855,-98.840004,1.89,50.189999,1729415641783.0,0.0
-2.411965,-11.521441,-7.623533,-82.739998,-4.9,17.99,1729415641803.0,0.0
-2.163112,-9.911072,-7.762317,-20.23,-23.73,-14.84,1729415641823.0,0.0
-3.144169,-7.525427,-7.611568,-20.51,-34.369999,-48.16,1729415641842.0,0.0
-3.778267,-6.774081,-8.178668,-66.010002,-39.41,-74.900002,1729415641864.0,0.0
-3.632305,-6.74776,-9.583255,-105.279999,-37.310001,-96.669998,1729415641885.0,0.0
-3.192025,-8.190632,-11.868401,-39.41,-31.85,-105.279999,1729415641903.0,0.0
-3.680161,0.555135,-11.356337,47.459999,-40.810001,-97.230003,1729415641922.0,0.0
-2.017149,-1.9669,-11.877973,-10.85,-10.71,-76.160004,1729415641941.0,0.0
-1.237089,2.804388,-11.01177,33.18,-8.26,-35.0,1729415641962.0,0.0
-0.18664,0.844666,-12.081362,27.790001,8.89,2.1,1729415641984.0,0.0
0.839881,-0.081356,-12.815958,12.25,25.969999,30.66,1729415642003.0,0.0
0.5001,-1.938186,-10.437491,31.360001,34.720001,41.720001,1729415642026.0,0.0
-0.064606,-2.22054,-10.41835,77.349998,38.779999,48.509998,1729415642044.0,0.0
0.100499,-4.364508,-7.920243,49.98,50.610001,53.689999,1729415642062.0,0.0
-0.256032,-5.501099,-5.807381,29.4,46.549999,53.41,1729415642083.0,0.0
-0.909273,-8.429914,-4.783253,28.98,29.889999,55.860001,1729415642103.0,0.0
-1.598405,-7.384251,-5.130211,50.470001,8.05,53.689999,1729415642125.0,0.0
-1.055235,-5.685347,-6.293124,1.05,-1.75,48.720001,1729415642142.0,0.0
-2.038685,-6.553941,-6.345766,-69.019997,-6.02,40.459999,1729415642161.0,0.0
-3.378666,-10.303494,-6.565905,-89.879997,-15.75,20.299999,1729415642182.0,0.0
-1.325624,-8.255238,-8.846266,-18.9,-28.630001,-11.41,1729415642205.0,0.0
-1.548156,-5.240282,-9.442079,4.41,-37.939999,-37.73,1729415642224.0,0.0
-2.584249,-6.166305,-8.10449,-54.950001,-32.48,-58.380001,1729415642243.0,0.0
-3.342773,-8.362915,-10.179067,-99.190002,-29.68,-80.360001,1729415642263.0,0.0
-3.237489,-4.4674,-11.815758,-46.900002,-27.93,-95.480003,1729415642282.0,0.0
-2.641676,-2.931208,-9.863215,-1.4,-18.34,-91.840004,1729415642305.0,0.0
-2.395216,-2.790031,-12.016755,24.290001,-10.36,-83.860001,1729415642323.0,0.0
-1.694118,-0.849452,-12.24168,58.029999,-2.52,-67.480003,1729415642352.0,0.0
-1.540978,-0.794417,-11.583653,92.75,7.14,-40.810001,1729415642362.0,0.0
-1.002593,-1.969293,-11.117055,101.5,21.35,-17.5,1729415642382.0,0.0
-1.217947,-1.648655,-10.595419,129.149994,29.049999,0.07,1729415642403.0,0.0
-1.361516,-4.443472,-10.425529,120.889999,52.009998,14.28,1729415642423.0,0.0
-0.583849,-6.783652,-9.556933,153.580002,68.529999,25.200001,1729415642443.0,0.0
-0.457029,-8.724231,-9.982857,228.690002,85.120003,26.460001,1729415642462.0,0.0
-0.224925,-9.233903,-9.351151,337.329987,102.970001,23.73,1729415642482.0,0.0
-0.028714,-7.910671,-8.147561,474.73999,111.580002,35.420002,1729415642504.0,0.0
-0.129212,-5.991628,-4.845466,601.369995,104.93,55.580002,1729415642524.0,0.0
-0.291924,-2.459821,-0.378066,658.0,95.620003,60.48,1729415642543.0,0.0
-0.835095,-2.163112,3.101098,602.0,77.840004,60.34,1729415642562.0,0.0
-0.66999,-3.608376,6.695118,523.460022,62.580002,58.029999,1729415642584.0,0.0
0.61017,-10.705488,4.491328,500.640015,51.310001,40.529999,1729415642602.0,0.0
1.533799,-7.470392,5.45085,542.710022,67.480003,37.099998,1729415642623.0,0.0
-0.468993,-0.78006,9.946963,459.830017,97.720001,32.48,1729415642641.0,0.0
-3.460021,-2.615355,10.552348,227.710007,86.309998,8.4,1729415642663.0,0.0
-1.710868,-7.362715,8.547162,71.120003,69.230003,-18.83,1729415642683.0,0.0
-0.385244,-6.537192,7.444071,79.169998,66.709999,-17.219999,1729415642704.0,0.0
-1.385444,-4.07737,7.781459,124.18,67.690002,-1.89,1729415642724.0,0.0
-1.792224,-3.919443,8.209774,111.300003,59.849998,5.04,1729415642742.0,0.0
-3.101098,-4.9675,9.142976,79.940002,50.400002,8.19,1729415642763.0,0.0
-3.259024,-5.393422,8.738588,59.150002,40.880001,7.21,1729415642784.0,0.0
-3.146562,-5.194818,7.846066,55.09,34.02,7.49,1729415642805.0,0.0
-2.443072,-2.029114,7.094719,49.84,35.07,10.78,1729415642824.0,0.0
-4.003192,-2.730211,5.029713,-10.43,38.990002,9.31,1729415642899.0,0.0
-3.227918,-3.227918,2.962314,-6.58,45.360001,25.76,1729415642909.0,0.0
-4.206582,-1.454836,3.888337,31.219999,64.75,32.41,1729415642909.0,0.0
-4.622933,-1.048056,6.534799,43.330002,75.669998,44.869999,1729415642910.0,0.0
-4.759324,-0.842274,9.176475,43.610001,71.68,55.790001,1729415642923.0,0.0
-5.479564,-2.148755,10.415956,14.14,56.490002,67.970001,1729415642942.0,0.0
-5.998806,-4.345366,10.607382,-13.16,40.18,69.510002,1729415642962.0,0.0
-6.419943,-5.723632,7.080362,-29.33,32.060001,66.360001,1729415642982.0,0.0
-6.73101,-6.321837,5.4676,-20.93,28.84,52.150002,1729415643002.0,0.0
-6.553941,-6.611369,6.740582,8.12,32.689999,38.779999,1729415643025.0,0.0
-7.420143,-7.245467,8.382057,13.23,25.76,10.99,1729415643042.0,0.0
-6.300302,-6.874579,10.353743,1.61,18.76,10.43,1729415643062.0,0.0
-6.76451,-5.517848,8.102098,-6.02,0.84,0.98,1729415643082.0,0.0
-5.398208,-2.493321,6.106483,-0.28,6.58,-26.18,1729415643102.0,0.0
-6.575477,-2.194218,6.575477,10.29,10.71,-24.5,1729415643122.0,0.0
-5.943772,-3.488736,8.305488,24.43,4.76,-29.68,1729415643141.0,0.0
-6.367301,-3.74716,9.789038,41.509998,1.19,-31.360001,1729415643162.0,0.0
-5.915058,-4.182654,11.703296,25.059999,-12.25,-43.119999,1729415643182.0,0.0
-3.251846,0.526421,8.025528,13.440001,-12.11,-36.68,1729415643202.0,0.0
-3.84048,-4.539185,5.927022,-42.07,-20.93,-39.130001,1729415643222.0,0.0
-2.969493,-1.892723,5.079963,-7.77,-3.5,-31.5,1729415643241.0,0.0
-4.031906,1.205983,6.642475,24.57,8.26,-11.06,1729415643261.0,0.0
-4.381258,0.923629,6.927221,2.24,9.24,3.99,1729415643283.0,0.0
-5.388636,-3.038885,5.436492,-4.55,3.43,13.3,1729415643303.0,0.0
-5.271388,-3.67059,6.111269,29.33,12.95,16.379999,1729415643322.0,0.0
-5.623133,-2.679961,7.788638,51.799999,20.440001,14.7,1729415643342.0,0.0
-4.398008,-0.641276,8.889337,39.759998,24.219999,16.52,1729415643361.0,0.0
-3.723232,-2.256432,7.463214,10.22,17.57,24.290001,1729415643383.0,0.0
-3.661019,-1.990828,7.704889,15.96,18.83,32.41,1729415643403.0,0.0
-4.800002,-4.481757,8.51127,16.52,17.85,33.32,1729415643422.0,0.0
-7.267002,-8.671589,8.695518,6.51,9.66,21.280001,1729415643441.0,0.0
-6.324231,-5.893522,10.028319,15.61,6.58,3.43,1729415643462.0,0.0
-5.448457,-4.448257,8.903693,-19.809999,-0.77,-13.51,1729415643484.0,0.0
-5.084748,-2.902494,8.260024,-35.490002,-3.92,-16.379999,1729415643502.0,0.0
-5.943772,-3.601198,6.455836,-33.32,-10.57,-16.030001,1729415643523.0,0.0
-5.020142,0.382852,5.71406,-3.92,-1.89,-11.41,1729415643541.0,0.0
-7.951349,-4.771288,6.680761,2.73,-5.53,-12.18,1729415643563.0,0.0
-7.630712,-5.558527,8.018349,26.32,-1.61,-23.870001,1729415643583.0,0.0
-7.077969,-2.550749,8.315059,24.01,-3.22,-42.98,1729415643602.0,0.0
-5.970093,-4.146761,7.975278,5.39,-4.83,-48.93,1729415643625.0,0.0
-4.132405,-1.182054,8.635696,-3.5,-8.19,-50.189999,1729415643643.0,0.0
-2.938386,2.251646,7.838887,-16.59,-8.89,-29.889999,1729415643662.0,0.0
-2.124826,1.481157,5.804988,-38.220001,-7.49,-6.86,1729415643681.0,0.0
-4.053442,-1.804188,4.768896,-17.5,-2.66,12.39,1729415643704.0,0.0
-5.106283,-1.584049,6.508478,29.26,10.29,23.870001,1729415643723.0,0.0
-4.402793,-1.442872,7.886744,26.67,15.54,27.02,1729415643742.0,0.0
-3.87398,1.672583,7.623533,1.68,15.82,36.75,1729415643762.0,0.0
-5.723632,-3.59402,4.09412,-44.73,0.07,63.420002,1729415643783.0,0.0
-6.369694,-8.288737,6.817152,5.53,11.48,58.799999,1729415643803.0,0.0
-11.662617,-4.773681,8.590233,46.689999,19.74,41.439999,1729415643823.0,0.0
-3.711268,-8.322237,7.77428,-29.120001,7.77,-26.040001,1729415643842.0,0.0
-4.972286,-6.058627,8.420342,-9.73,4.48,-8.96,1729415643861.0,0.0
-5.139783,-2.234896,8.616554,3.57,6.79,-5.67,1729415643883.0,0.0
-5.793024,-2.067399,9.169296,-12.6,1.82,-5.67,1729415643903.0,0.0
-7.456036,-2.840281,9.760324,-26.110001,-4.97,2.31,1729415643923.0,0.0
-7.353144,-2.522035,8.427521,-36.959999,-16.66,-7.77,1729415643941.0,0.0
-6.735795,-1.196411,7.24786,-44.450001,-15.89,-14.56,1729415643961.0,0.0
-6.76451,-4.012764,6.489335,-32.200001,-20.440001,-13.93,1729415643981.0,0.0
-6.920043,-6.78126,6.611369,21.0,-22.82,-22.960001,1729415644002.0,0.0
-4.352544,-0.011964,9.205189,44.170002,-2.45,-25.27,1729415644027.0,0.0
-3.900301,0.107677,7.558927,-15.75,-10.64,-20.93,1729415644042.0,0.0
-5.412565,-0.174676,6.21416,-41.299999,-14.7,-0.84,1729415644061.0,0.0
-5.402994,-4.067799,4.941179,-44.029999,-15.96,10.57,1729415644081.0,0.0
-5.601598,-2.038685,6.585048,6.44,-6.02,17.01,1729415644104.0,0.0
-5.24746,-2.964707,6.381658,2.94,-3.5,15.12,1729415644122.0,0.0
-3.811767,-2.440679,6.762117,2.87,3.22,15.89,1729415644141.0,0.0
-4.275974,-1.808974,7.046863,7.7,9.59,23.799999,1729415644161.0,0.0
-3.926622,0.72024,7.82453,-6.37,8.82,29.26,1729415644183.0,0.0
-4.06062,-1.773082,7.68096,-30.24,3.15,53.130001,1729415644203.0,0.0
-4.599005,-8.709875,3.739982,-49.0,-10.08,35.91,1729415644221.0,0.0
-13.4022,-5.766702,7.398607,28.35,16.309999,39.900002,1729415644241.0,0.0
-2.457429,-10.585848,9.190832,-18.76,7.14,-16.379999,1729415644262.0,0.0
-6.719046,-8.377272,11.088341,-10.71,-5.81,-10.36,1729415644282.0,0.0
-5.982057,-5.793024,8.035098,-34.509998,-15.33,-24.99,1729415644302.0,0.0
-4.62054,0.490529,5.481956,-20.93,-6.65,-37.170002,1729415644322.0,0.0
-5.912664,0.648455,5.017749,-2.03,1.96,-21.0,1729415644341.0,0.0
-6.125626,-4.476971,7.712067,0.35,1.12,-19.6,1729415644362.0,0.0
-7.908278,-6.18784,9.667004,25.48,-9.17,-27.790001,1729415644382.0,0.0
-6.534799,-4.919643,10.427922,27.23,-12.46,-52.43,1729415644403.0,0.0
-4.558327,-4.56072,9.41815,3.99,-19.530001,-50.610001,1729415644422.0,0.0
-3.778267,-0.445065,6.585048,-3.99,-29.469999,-41.93,1729415644441.0,0.0
-3.23031,-0.009571,5.87438,-0.14,-23.66,-27.790001,1729415644460.0,0.0
-3.960121,0.914058,6.080163,5.88,-13.79,-11.27,1729415644482.0,0.0
-3.921836,-2.658426,5.338387,4.27,-5.18,0.56,1729415644501.0,0.0
-4.26401,-3.036492,6.819544,29.75,6.3,2.87,1729415644521.0,0.0
-4.378866,-1.447658,8.243275,48.860001,14.14,7.91,1729415644542.0,0.0
-3.316452,-1.495514,6.74776,25.690001,10.85,12.18,1729415644560.0,0.0
-4.902894,-1.488336,7.209574,17.85,14.35,25.48,1729415644582.0,0.0
-5.685347,-1.98365,7.415358,13.440001,11.76,32.41,1729415644609.0,0.0
-5.008178,-3.806981,8.078169,6.79,5.11,27.719999,1729415644622.0,0.0
-6.001199,-7.252645,7.76471,7.0,1.96,24.15,1729415644640.0,0.0
-7.781459,-8.666803,8.712267,11.97,1.05,13.16,1729415644664.0,0.0
-6.994221,-7.551748,9.927821,3.92,-12.67,-20.370001,1729415644682.0,0.0
-4.867002,-3.919443,9.348758,-3.01,-18.76,-30.73,1729415644703.0,0.0
-4.220939,-3.457629,6.987042,-21.139999,-25.059999,-38.5,1729415644722.0,0.0
-3.041277,-1.730011,9.133404,-8.4,-13.58,-34.439999,1729415644741.0,0.0
-8.427521,-6.994221,6.999006,-31.57,-35.139999,-25.48,1729415644762.0,0.0
-5.991628,-6.63769,9.317651,-7.7,-33.740002,-54.529999,1729415644784.0,0.0
-2.852244,-3.998406,11.813366,13.440001,-36.470001,-55.510002,1729415644802.0,0.0
-3.63709,0.265603,10.437491,-4.48,-47.25,-43.610001,1729415644823.0,0.0
-2.727818,1.325624,7.74796,-35.349998,-51.52,-30.450001,1729415644842.0,0.0
-2.904887,-0.866202,4.804788,-42.0,-44.73,-12.25,1729415644862.0,0.0
-4.41715,-3.378666,3.9673,-14.91,-30.940001,-17.290001,1729415644884.0,0.0
-3.254239,-2.127219,4.366901,31.360001,-7.21,-12.39,1729415644904.0,0.0
-2.447858,-0.959522,5.489135,45.360001,10.5,-5.67,1729415644924.0,0.0
-2.007578,-0.315853,6.965507,44.380001,23.799999,10.71,1729415644945.0,0.0
-3.723232,-1.777867,9.667004,23.17,24.57,34.509998,1729415644964.0,0.0
-5.213961,-4.419543,7.412964,-6.16,12.6,41.02,1729415644984.0,0.0
-4.127619,-8.350951,8.913264,16.73,12.67,42.0,1729415645003.0,0.0
-8.60459,-12.41875,8.970692,40.529999,2.87,13.02,1729415645027.0,0.0
-3.046063,-3.503092,13.222737,40.18,-8.33,-23.030001,1729415645045.0,0.0
-2.830709,-6.025128,10.528419,-51.59,-25.059999,-37.170002,1729415645063.0,0.0
-3.268596,-4.017549,7.678568,-17.92,-29.120001,-35.77,1729415645083.0,0.0
0.361316,0.937986,7.958528,23.870001,-16.17,-26.74,1729415645103.0,0.0
-3.349952,-2.167897,8.092526,14.07,-15.05,-2.1,1729415645124.0,0.0
-5.283352,-6.98465,9.073583,6.16,-16.17,-19.32,1729415645143.0,0.0
-4.455436,-6.89133,9.954143,19.950001,-24.01,-35.630001,1729415645163.0,0.0
-2.065006,-3.45045,9.846465,23.66,-27.860001,-49.700001,1729415645184.0,0.0
-1.529014,-0.440279,9.245867,3.36,-27.93,-40.389999,1729415645205.0,0.0
-0.725025,2.117648,5.881558,-26.74,-27.370001,-22.610001,1729415645224.0,0.0
-2.352145,1.464408,3.538985,-30.24,-7.28,-0.49,1729415645244.0,0.0
-3.550949,-1.615155,2.95035,-17.01,16.379999,1.61,1729415645263.0,0.0
-4.04387,0.42353,3.847659,21.280001,38.080002,11.9,1729415645283.0,0.0
-3.919443,0.5001,6.362515,22.120001,47.810001,28.84,1729415645303.0,0.0
-2.433501,1.969293,8.281559,-1.4,47.459999,54.389999,1729415645328.0,0.0
-1.935793,-2.108077,6.262017,-52.43,42.209999,64.82,1729415645343.0,0.0
-3.175276,-11.956935,8.099705,-20.860001,47.040001,86.449997,1729415645362.0,0.0
-6.855437,-9.066404,10.272388,67.690002,34.02,1.96,1729415645384.0,0.0
-3.940979,-0.325424,15.359529,85.260002,29.469999,15.190001,1729415645404.0,0.0
-3.132205,-3.63709,11.050055,-101.989998,2.87,-29.610001,1729415645423.0,0.0
-3.787838,-2.545963,9.166903,-50.330002,-2.52,-0.98,1729415645443.0,0.0
-3.943372,-0.78006,7.972885,12.81,7.0,2.38,1729415645462.0,0.0
-6.223732,-3.232704,7.733603,22.889999,8.19,6.3,1729415645485.0,0.0
-5.237889,-2.352145,9.741181,23.030001,6.02,1.61,1729415645504.0,0.0
-7.288538,-6.62094,10.303494,-2.17,-8.19,-9.31,1729415645525.0,0.0
-6.625726,-9.224331,8.901299,2.87,-23.59,-34.439999,1729415645543.0,0.0
-4.244867,-5.187639,10.147961,44.380001,-17.219999,-50.330002,1729415645562.0,0.0
-1.935793,-2.210968,9.700503,9.24,-16.66,-66.5,1729415645582.0,0.0
-3.438486,-1.959722,7.018148,-16.1,-22.049999,-58.59,1729415645604.0,0.0
-1.081556,3.548556,4.331009,-14.84,-4.55,-40.529999,1729415645624.0,0.0
-0.746561,3.505485,2.316252,-35.279999,10.01,-12.95,1729415645642.0,0.0
-2.639283,-0.902094,2.675175,-24.92,27.440001,8.89,1729415645664.0,0.0
-3.708875,-1.184447,4.85743,31.15,44.869999,21.98,1729415645684.0,0.0
-4.04387,-1.677369,8.549555,52.639999,52.849998,33.110001,1729415645705.0,0.0
-1.51705,1.538585,9.74836,8.96,47.599998,46.759998,1729415645725.0,0.0
-1.564906,-0.954736,9.193225,-48.860001,41.16,70.419998,1729415645742.0,0.0
-4.510471,-0.993021,5.388636,-56.279999,28.210001,79.800003,1729415645763.0,0.0
-7.704889,-13.165311,5.673382,-27.440001,28.98,62.299999,1729415645783.0,0.0
-19.724037,-7.025328,10.403993,92.260002,42.07,27.790001,1729415645803.0,0.0
-1.72044,-0.957129,16.031912,39.41,30.940001,-11.83,1729415645826.0,0.0
-6.683154,-8.382057,10.159925,-76.090004,-16.66,-8.05,1729415645842.0,0.0
-4.067799,0.081356,7.412964,-14.7,0.56,-13.37,1729415645863.0,0.0
-5.946165,0.957129,5.268995,4.55,8.33,3.57,1729415645883.0,0.0
-7.668997,-3.847659,7.391429,-1.82,5.18,2.73,1729415645914.0,0.0
-8.709875,-6.975078,9.97807,15.89,-7.28,-25.620001,1729415645923.0,0.0
-6.513263,-4.457829,11.394621,21.91,-18.9,-38.709999,1729415645942.0,0.0
-3.665804,-3.986443,9.064013,13.86,-23.73,-55.299999,1729415645963.0,0.0
-4.381258,-0.524028,8.11167,2.38,-20.09,-45.849998,1729415645984.0,0.0
-3.902694,-0.291924,5.065606,-11.27,-26.460001,-37.029999,1729415646004.0,0.0
-2.005185,3.079563,4.491328,3.01,-6.44,-18.48,1729415646026.0,0.0
-4.139583,-0.638884,4.498507,4.41,4.41,5.67,1729415646042.0,0.0
-5.292924,-1.875973,7.178468,41.650002,20.719999,24.780001,1729415646064.0,0.0
-6.135197,-5.24746,6.582655,39.34,22.75,24.290001,1729415646083.0,0.0
-2.541178,-0.691526,10.676775,45.360001,25.9,14.91,1729415646104.0,0.0
-2.098505,2.715853,10.968699,-3.5,26.18,36.330002,1729415646124.0,0.0
-2.876173,-1.435694,5.60399,-85.260002,10.08,51.240002,1729415646142.0,0.0
-6.108876,-6.12084,5.4341,-50.610001,3.01,61.389999,1729415646164.0,0.0
-6.565905,-9.609575,8.161918,12.88,15.26,46.27,1729415646183.0,0.0
-10.339387,-7.063612,8.238488,28.0,12.6,23.450001,1729415646205.0,0.0
-7.51107,-1.691726,12.031113,-11.27,1.47,-11.55,1729415646223.0,0.0
-4.898108,-3.57727,8.889337,-67.620003,-17.85,-20.719999,1729415646243.0,0.0
-4.694718,-3.424129,7.089933,-36.540001,-17.43,-16.73,1729415646264.0,0.0
-5.376673,-1.562513,7.989635,6.02,-8.4,-9.31,1729415646285.0,0.0
-6.802795,-4.85743,7.826923,-4.83,-11.55,-16.379999,1729415646303.0,0.0
-7.513463,-8.039884,7.003791,-4.9,-21.49,-35.139999,1729415646322.0,0.0
-6.67119,-6.489335,8.659625,21.559999,-22.610001,-49.98,1729415646343.0,0.0
-2.768496,-1.871187,8.221739,26.530001,-21.700001,-65.730003,1729415646363.0,0.0
-1.392623,1.246661,4.366901,-0.91,-19.950001,-48.16,1729415646384.0,0.0
0.0335,2.935993,4.505685,-19.67,8.33,-21.629999,1729415646403.0,0.0
-2.258825,1.311267,5.082355,-8.96,25.9,8.54,1729415646423.0,0.0
-4.558327,-0.547956,5.98445,-6.16,30.309999,26.809999,1729415646443.0,0.0
-5.661418,-2.273181,6.74776,-10.36,32.41,38.290001,1729415646464.0,0.0
-3.735196,0.698704,9.152546,-25.549999,33.389999,40.25,1729415646483.0,0.0
-3.464807,0.349352,7.322037,-35.0,29.190001,58.450001,1729415646505.0,0.0
-6.245267,-4.304688,5.271388,-44.939999,22.469999,71.68,1729415646523.0,0.0
-4.74736,-8.482556,6.630512,-11.76,40.25,61.110001,1729415646542.0,0.0
-13.986048,-16.58226,4.790431,41.790001,37.73,37.029999,1729415646563.0,0.0
-7.692925,0.069392,14.857035,101.360001,53.060001,-4.27,1729415646584.0,0.0
-6.953543,-5.9677,8.779266,-39.549999,5.74,-29.049999,1729415646602.0,0.0
-5.79781,-1.72044,8.209774,-18.549999,3.22,-20.93,1729415646622.0,0.0
-6.029913,-0.978664,6.563512,0.91,2.17,-14.84,1729415646648.0,0.0
-6.62094,-0.634098,6.680761,6.02,8.61,-11.13,1729415646663.0,0.0
-8.054241,-3.608376,8.477771,-13.93,0.98,-16.450001,1729415646684.0,0.0
-7.01097,-5.453243,9.585647,-6.58,-11.69,-29.120001,1729415646704.0,0.0
-6.254838,-2.160719,10.80838,24.01,-12.6,-43.330002,1729415646723.0,0.0
-3.572484,-0.849452,8.743374,-1.54,-19.110001,-46.27,1729415646741.0,0.0
-3.952943,-1.141376,6.017949,-24.99,-17.5,-34.790001,1729415646765.0,0.0
-3.766303,0.20339,4.563113,-9.52,-14.98,-22.68,1729415646783.0,0.0
-2.991028,2.488536,4.622933,9.31,2.17,1.05,1729415646807.0,0.0
-5.022535,-1.368695,4.130012,3.36,8.05,14.63,1729415646825.0,0.0
-5.106283,-2.108077,6.04427,34.02,24.710001,24.710001,1729415646843.0,0.0
-4.220939,-0.344566,8.877372,47.950001,33.32,30.52,1729415646862.0,0.0
-3.014957,1.76351,7.568498,11.06,30.66,46.759998,1729415646885.0,0.0
-6.407979,-3.04367,6.283553,-21.77,17.710001,68.040001,1729415646907.0,0.0
-4.244867,-6.099305,7.989635,-3.92,17.01,64.82,1729415646925.0,0.0
-7.712067,-13.043276,7.21436,15.54,8.75,46.759998,1729415646944.0,0.0
-13.174881,-5.668597,13.995619,71.470001,4.97,20.09,1729415646963.0,0.0
-5.414958,-5.525027,7.243074,-31.15,-14.56,-30.870001,1729415646984.0,0.0
-5.446064,-1.332802,3.699304,-27.23,-6.09,-21.210001,1729415647007.0,0.0
-6.707082,-0.074178,2.785245,3.43,8.54,-16.1,1729415647027.0,0.0
-9.131011,-4.776074,6.329016,13.37,14.14,-19.950001,1729415647044.0,0.0
-10.018748,-4.87418,9.336794,25.969999,-3.01,-41.02,1729415647064.0,0.0
-7.042077,-5.481956,9.51147,19.809999,-19.74,-64.050003,1729415647085.0,0.0
-3.830909,0.655633,10.188639,31.99,-11.83,-61.529999,1729415647104.0,0.0
-3.457629,-0.265603,7.948956,-28.35,-23.1,-60.41,1729415647126.0,0.0
-3.259024,0.150748,5.426922,-41.790001,-23.379999,-41.16,1729415647143.0,0.0
-2.62732,3.266203,3.799802,-23.030001,-8.47,-19.110001,1729415647163.0,0.0
-4.632504,-0.184247,3.218346,-6.79,-3.22,3.08,1729415647186.0,0.0
-4.917251,-0.827917,5.335995,41.09,17.219999,16.799999,1729415647206.0,0.0
-5.340781,-1.48355,7.032506,50.470001,27.860001,21.559999,1729415647225.0,0.0
-3.28056,0.550349,9.444471,42.07,37.59,29.33,1729415647243.0,0.0
-3.110669,-0.497707,6.798009,-0.28,29.960001,46.34,1729415647263.0,0.0
-6.601797,-3.708875,8.128418,10.64,17.99,55.299999,1729415647284.0,0.0
-5.962914,-9.640682,9.394222,2.94,19.25,44.310001,1729415647307.0,0.0
-10.222138,-12.086146,8.422735,-24.57,5.32,26.950001,1729415647324.0,0.0
-6.611369,-2.242075,9.872787,-15.61,-10.5,-15.75,1729415647343.0,0.0
-5.525027,-1.655833,4.802395,-48.720001,-13.02,-31.219999,1729415647367.0,0.0
-5.958128,-0.409173,4.515256,-21.35,1.26,-21.559999,1729415647383.0,0.0
-9.131011,-4.381258,6.049056,13.79,8.61,-17.219999,1729415647405.0,0.0
-10.547562,-7.625926,9.879964,39.060001,-10.5,-42.279999,1729415647425.0,0.0
-5.996413,-3.235096,9.942179,50.889999,-14.07,-63.279999,1729415647443.0,0.0
-5.17089,0.256032,10.722239,19.530001,-27.02,-70.0,1729415647464.0,0.0
-4.283153,-0.990629,8.513663,-30.940001,-27.440001,-58.029999,1729415647486.0,0.0
-2.589034,-0.935594,4.438686,-54.950001,-32.27,-51.59,1729415647506.0,0.0
-3.900301,3.239882,3.515057,-22.120001,-13.51,-23.450001,1729415647523.0,0.0
-4.039084,1.134198,2.184647,-13.37,-4.83,0.07,1729415647543.0,0.0
-5.034499,-0.102891,3.838088,31.43,13.16,21.77,1729415647565.0,0.0
-5.407779,1.165305,7.032506,66.080002,26.67,37.939999,1729415647584.0,0.0
-4.074977,1.485943,8.784052,42.630001,33.110001,51.380001,1729415647605.0,0.0
-3.826123,-1.007378,7.858029,-3.71,28.139999,63.279999,1729415647627.0,0.0
-8.039884,-8.80798,6.333801,4.41,11.9,69.580002,1729415647643.0,0.0
-5.414958,-4.158726,10.415956,23.940001,21.139999,31.639999,1729415647664.0,0.0
-8.867801,-9.822537,9.12144,-65.239998,-7.0,11.69,1729415647684.0,0.0
-5.962914,-3.311667,8.798409,-19.74,-5.74,-0.42,1729415647704.0,0.0
-4.881358,-0.973879,5.431707,-29.33,-2.03,-8.33,1729415647724.0,0.0
-6.171089,-1.239482,5.182854,-28.77,2.24,1.05,1729415647743.0,0.0
-7.886744,-2.744568,6.386444,3.01,7.49,5.6,1729415647764.0,0.0
-9.425328,-6.67119,7.893922,-2.03,3.29,-12.18,1729415647784.0,0.0
-10.066606,-8.860621,10.250853,17.360001,-17.15,-53.27,1729415647807.0,0.0
-4.697111,-1.639083,8.389235,46.200001,-13.93,-70.489998,1729415647825.0,0.0
-5.455636,2.59382,9.310472,26.950001,-23.59,-67.129997,1729415647893.0,0.0
-4.113262,0.674776,8.49452,-41.509998,-27.440001,-49.490002,1729415647894.0,0.0
-1.938186,-1.916651,2.74696,-73.989998,-35.07,-42.209999,1729415647894.0,0.0
-3.421736,2.761317,3.711268,1.75,-4.83,-13.16,1729415647911.0,0.0
-4.539185,0.602991,3.656233,8.96,6.09,5.95,1729415647924.0,0.0
-5.297709,-0.01675,5.340781,31.99,15.4,22.960001,1729415647943.0,0.0
-5.333601,-0.631705,7.537392,45.990002,23.450001,33.950001,1729415647963.0,0.0
-4.199404,0.72024,8.46102,37.450001,31.85,45.57,1729415647985.0,0.0
-5.371887,-1.674976,7.185646,-6.44,28.84,74.129997,1729415648004.0,0.0
-5.350351,-4.536791,10.028319,1.82,18.690001,67.269997,1729415648027.0,0.0
-7.594819,-9.506684,8.365308,-10.08,24.290001,61.599998,1729415648044.0,0.0
-9.341579,-8.733803,8.55434,-15.190001,2.03,33.950001,1729415648064.0,0.0
-8.669197,-5.608776,12.30868,10.22,-5.46,2.31,1729415648083.0,0.0
-4.534399,-1.940579,7.700103,-35.630001,-10.85,-20.51,1729415648104.0,0.0
-4.197011,-1.935793,3.859623,-56.490002,-9.73,-16.24,1729415648125.0,0.0
-6.427122,-2.158326,5.580062,7.77,4.27,0.91,1729415648143.0,0.0
-7.444071,-1.914258,6.479764,14.49,6.65,-1.54,1729415648164.0,0.0
-8.303094,-5.419744,7.221539,-12.95,-1.47,-23.450001,1729415648183.0,0.0
-8.044669,-7.740781,7.362715,15.05,-8.82,-50.330002,1729415648206.0,0.0
-5.632704,-2.002793,8.082954,50.75,-5.88,-69.510002,1729415648224.0,0.0
-5.187639,-1.143769,9.284152,39.970001,-6.37,-58.59,1729415648245.0,0.0
-4.596612,3.586841,9.688539,7.21,-10.36,-45.920002,1729415648263.0,0.0
-4.187439,-4.199404,3.76391,-74.410004,-26.18,-45.57,1729415648283.0,0.0
-3.175276,1.572084,4.926822,3.64,1.26,-23.66,1729415648305.0,0.0
-5.328816,0.885344,5.024928,17.43,14.07,-2.17,1729415648324.0,0.0
-5.252246,0.48335,6.474977,18.620001,18.129999,26.74,1729415648344.0,0.0
-4.206582,1.713261,8.233703,19.110001,21.49,38.43,1729415648363.0,0.0
-2.821138,1.658226,7.537392,3.71,27.09,54.810001,1729415648385.0,0.0
-7.831708,-5.580062,9.224331,-3.29,18.200001,63.279999,1729415648405.0,0.0
-4.304688,-5.726025,8.84148,-9.17,27.09,59.080002,1729415648425.0,0.0
-11.306087,-10.676775,8.831908,-21.98,-2.45,42.279999,1729415648444.0,0.0
-8.700303,-6.953543,12.937992,32.830002,-1.75,20.370001,1729415648463.0,0.0
-6.173482,-4.366901,8.114061,-29.049999,-14.28,-15.96,1729415648484.0,0.0
-6.003592,-2.63689,3.996014,-64.470001,-15.33,-23.870001,1729415648504.0,0.0
-6.297909,-2.337788,3.517449,-14.77,-2.38,-20.51,1729415648525.0,0.0
-7.661818,-0.394816,5.919843,26.74,8.26,-20.23,1729415648545.0,0.0
-10.009177,-5.139783,7.491928,3.57,-3.01,-31.290001,1729415648664.0,0.0
-8.989835,-7.695317,10.478169,9.59,-23.799999,-66.5,1729415648666.0,0.0
-3.254239,-0.346959,7.077969,28.35,-18.27,-82.809998,1729415648668.0,0.0
-4.23051,0.581456,9.267403,19.32,-16.17,-66.220001,1729415648679.0,0.0
-4.807181,1.308874,10.504492,-1.89,-20.440001,-49.630001,1729415648680.0,0.0
-3.103491,-0.411566,3.814159,-52.779999,-24.85,-52.220001,1729415648681.0,0.0
-3.479164,2.455036,4.67079,4.9,3.78,-23.24,1729415648697.0,0.0
-5.393422,-0.519243,4.041477,10.92,9.31,0.14,1729415648705.0,0.0
-6.12084,-1.514657,5.103891,26.67,15.47,11.76,1729415648722.0,0.0
-5.388636,-2.033899,6.238089,39.619999,20.440001,13.72,1729415648742.0,0.0
-4.402793,-0.157926,9.044869,41.650002,31.360001,20.93,1729415648762.0,0.0
-5.108676,-0.701097,9.360723,-1.47,26.040001,27.09,1729415648782.0,0.0
-3.76391,0.433101,7.322037,-38.779999,18.34,42.07,1729415648803.0,0.0
-4.536791,-4.912465,5.429315,-41.09,9.66,49.700001,1729415648823.0,0.0
-4.476971,-4.98425,8.525627,8.47,15.47,48.790001,1729415648842.0,0.0
-6.656832,-5.541777,7.860423,29.75,12.39,50.75,1729415648863.0,0.0
-8.982656,-2.742175,8.796017,22.75,7.63,46.900002,1729415648883.0,0.0
-7.499106,-0.145962,6.91765,-0.35,8.05,49.07,1729415648904.0,0.0
-7.712067,-1.605584,7.477571,-9.03,0.63,45.220001,1729415648924.0,0.0
-7.444071,3.084348,9.915856,21.07,7.14,53.549999,1729415648944.0,0.0
-8.372486,1.112662,9.013763,-59.010002,-0.63,65.099998,1729415648963.0,0.0
-8.468199,-2.715853,6.276374,-154.350006,-18.41,51.799999,1729415648984.0,0.0
-7.786245,-0.918844,4.9675,-143.5,-14.56,63.279999,1729415649005.0,0.0
-8.020741,3.053242,6.685547,-113.050003,-6.51,82.739998,1729415649027.0,0.0
-9.466006,-0.947558,6.429514,-161.070007,-18.690001,78.120003,1729415649047.0,0.0
-9.107083,-5.144568,7.156933,-209.720001,-31.15,60.27,1729415649066.0,0.0
-8.539984,-8.006385,7.039684,-240.869995,-42.139999,33.32,1729415649084.0,0.0
-7.329216,-9.52822,6.762117,-251.790009,-47.459999,8.12,1729415649107.0,0.0
-6.800402,-11.729616,4.821537,-259.700012,-57.119999,-19.879999,1729415649127.0,0.0
-5.273781,-13.083955,2.773281,-202.649994,-66.919998,-50.82,1729415649145.0,0.0
-4.713861,-11.313265,2.364109,-112.279999,-44.73,-68.25,1729415649165.0,0.0
-4.601398,-9.789038,2.392823,-65.169998,-29.610001,-90.790001,1729415649186.0,0.0
-3.938586,-9.812965,3.192025,-61.459999,-21.98,-110.32,1729415649208.0,0.0
-3.522235,-8.846266,3.806981,-55.16,-10.92,-120.889999,1729415649225.0,0.0
-2.986243,-8.102098,4.082155,-31.639999,-1.61,-115.290001,1729415649244.0,0.0
-2.632105,-6.398407,4.500899,13.3,6.58,-101.010002,1729415649267.0,0.0
-2.435893,-4.680361,5.417351,35.84,10.5,-87.010002,1729415649285.0,0.0
-1.945365,-4.307081,5.699703,37.380001,10.15,-74.690002,1729415649306.0,0.0
-1.39023,-2.98385,5.194818,42.0,7.28,-64.260002,1729415649325.0,0.0
-1.356731,-1.835295,5.091926,80.779999,8.33,-25.83,1729415649344.0,0.0
-0.732204,0.303888,5.781059,95.620003,18.83,5.95,1729415649365.0,0.0
-3.058028,-0.909273,8.575876,52.5,27.299999,30.380001,1729415649384.0,0.0
-4.773681,-2.57707,9.470792,-22.190001,18.48,35.84,1729415649410.0,0.0
-5.134997,-5.178068,6.860222,-51.170002,0.91,57.049999,1729415649425.0,0.0
-5.414958,-6.26441,3.878766,-72.519997,-3.29,59.920002,1729415649445.0,0.0
-6.293124,-10.628918,2.842674,-87.220001,3.36,49.77,1729415649465.0,0.0
-7.226324,-13.141381,2.533999,-48.860001,10.92,31.5,1729415649484.0,0.0
-8.02792,-11.949757,3.259024,27.51,15.47,7.42,1729415649505.0,0.0
-7.278966,-9.530612,4.570292,60.760002,15.54,-17.08,1729415649525.0,0.0
-6.80758,-8.133204,5.130211,24.92,10.78,-35.700001,1729415649544.0,0.0
-6.56112,-7.288538,4.297509,-14.77,11.34,-53.830002,1729415649565.0,0.0
-3.481557,-9.020942,2.675175,-25.549999,10.78,-65.239998,1729415649587.0,0.0
-3.062813,-2.818745,5.419744,36.259998,25.200001,-56.84,1729415649608.0,0.0
1.155733,-0.665205,9.377472,73.010002,14.14,-31.85,1729415649627.0,0.0
0.713061,0.902094,14.127225,112.0,-6.3,8.75,1729415649648.0,0.0
-4.400401,0.081356,11.693724,39.200001,-5.18,42.420002,1729415649664.0,0.0
-3.596412,-2.239682,8.623734,-83.300003,-9.87,32.48,1729415649684.0,0.0
-2.493321,-2.845066,6.297909,-138.529999,-5.88,36.259998,1729415649706.0,0.0
-3.211168,-8.650054,5.304887,-119.139999,17.219999,42.07,1729415649724.0,0.0
-4.431508,-10.822738,4.539185,-32.619999,30.52,51.939999,1729415649744.0,0.0
-3.058028,-7.350751,1.76351,28.07,37.029999,53.900002,1729415649765.0,0.0
-1.76351,-5.95095,3.294917,84.489998,32.27,55.650002,1729415649785.0,0.0
-4.058227,-2.409572,7.302894,143.149994,19.530001,83.860001,1729415649807.0,0.0
-7.49432,-2.206182,7.977671,88.340004,4.06,98.279999,1729415649826.0,0.0
-9.174082,-8.657232,4.577469,-47.529999,-9.03,84.209999,1729415649844.0,0.0
-10.566705,-11.334801,2.423929,-98.769997,-21.98,79.590004,1729415649865.0,0.0
-11.148161,-11.825329,0.581456,-95.620003,-16.450001,39.970001,1729415649884.0,0.0
-9.111869,-11.241481,0.756132,-77.419998,-3.78,3.01,1729415649907.0,0.0
-10.348958,-11.069198,4.814359,-32.41,-0.28,-51.939999,1729415649926.0,0.0
-8.015956,-7.271788,0.265603,-37.099998,7.0,-79.169998,1729415649945.0,0.0
-2.801995,-2.244468,9.667004,-55.09,4.27,-101.220001,1729415649964.0,0.0
-0.172283,4.101298,5.283352,-107.940002,-4.62,-60.900002,1729415649984.0,0.0
2.359323,-1.57687,9.128618,-115.360001,2.66,-24.99,1729415650006.0,0.0
-1.249053,-6.826723,11.330014,-74.620003,5.67,12.04,1729415650027.0,0.0
-3.979264,-8.238488,7.936993,-31.360001,4.9,10.01,1729415650044.0,0.0
-3.739982,-6.470192,5.929415,-1.4,13.79,16.1,1729415650065.0,0.0
-3.354738,-5.871986,4.369294,28.700001,22.4,21.629999,1729415650086.0,0.0
-3.385844,-6.020342,2.773281,81.620003,15.05,34.369999,1729415650106.0,0.0
-6.063413,-7.800602,5.046463,156.240005,10.92,61.670002,1729415650125.0,0.0
-8.482556,-6.549156,5.391029,139.789993,-2.45,63.84,1729415650144.0,0.0
-10.004392,-7.161718,2.840281,47.389999,-10.78,56.420002,1729415650165.0,0.0
-10.758131,-13.892728,2.859423,-9.94,-22.960001,21.139999,1729415650185.0,0.0
-9.695717,-10.463813,1.311267,-32.689999,-17.92,4.76,1729415650206.0,0.0
-8.590233,-10.959127,3.211168,-29.82,-15.190001,-28.98,1729415650225.0,0.0
-7.817351,-10.482956,4.445865,1.05,-8.47,-63.279999,1729415650245.0,0.0
-6.412765,-6.927221,5.776274,-6.3,1.47,-102.760002,1729415650264.0,0.0
-5.393422,-3.309274,8.126025,-30.66,-13.58,-93.029999,1729415650285.0,0.0
-1.696511,1.744368,4.086941,-78.050003,-20.299999,-75.32,1729415650306.0,0.0
1.351945,-4.252046,8.013563,-58.939999,-21.559999,-57.470001,1729415650325.0,0.0
1.756332,1.947758,10.370493,11.97,-16.1,-0.42,1729415650344.0,0.0
-1.26341,-4.07737,11.203196,-13.58,-11.83,30.24,1729415650364.0,0.0
-2.67039,-6.702296,6.898508,-27.790001,-9.59,44.52,1729415650385.0,0.0
-1.057628,-2.79721,5.161318,35.0,-1.33,59.709999,1729415650405.0,0.0
-3.175276,-6.405586,3.460021,76.93,11.13,80.57,1729415650424.0,0.0
-6.809973,-9.327222,5.252246,115.849998,19.460001,89.25,1729415650443.0,0.0
-7.989635,-6.092126,4.218546,103.32,12.6,70.209999,1729415650466.0,0.0
-9.133404,-4.67079,3.735196,51.380001,11.55,66.220001,1729415650486.0,0.0
-10.679168,-10.097712,2.591427,-19.32,-1.75,39.48,1729415650507.0,0.0
-11.016556,-12.174682,0.09332,-71.330002,-2.03,23.52,1729415650525.0,0.0
-9.597611,-9.868,0.514457,-77.769997,4.62,-1.89,1729415650544.0,0.0
-7.834101,-12.052648,2.828316,-70.699997,0.42,-23.1,1729415650564.0,0.0
-8.860621,-10.334601,3.050849,-29.68,6.58,-58.170002,1729415650586.0,0.0
-7.484749,-9.126225,5.106283,20.09,17.360001,-104.090004,1729415650607.0,0.0
-6.396015,-2.316252,9.21476,-12.25,3.29,-127.82,1729415650626.0,0.0
-2.28036,0.459422,5.886343,-26.32,5.88,-101.290001,1729415650644.0,0.0
0.275175,-3.213561,10.700702,8.75,-0.98,-87.150002,1729415650665.0,0.0
-2.388037,0.835095,10.521241,32.689999,-21.0,-34.299999,1729415650685.0,0.0
-0.050249,-1.531406,7.60439,-45.220001,-30.59,-15.33,1729415650706.0,0.0
-0.502493,-5.529813,5.895915,-77.209999,-24.5,7.77,1729415650734.0,0.0
-0.435494,-5.352744,3.127419,-40.389999,-0.42,32.060001,1729415650746.0,0.0
-1.167697,-6.21416,2.120041,-5.46,22.469999,51.310001,1729415650765.0,0.0
-1.931008,-8.11167,1.713261,31.780001,33.810001,67.059998,1729415650786.0,0.0
-3.601198,-8.492127,6.400801,120.889999,27.51,82.599998,1729415650805.0,0.0
-5.838487,-7.267002,9.351151,129.009995,5.32,80.779999,1729415650826.0,0.0
-7.874779,-4.04387,6.175875,97.300003,-9.73,87.989998,1729415650845.0,0.0
-9.901501,-9.918249,4.409972,1.47,0.63,83.019997,1729415650865.0,0.0
-11.705689,-13.22513,0.26321,-77.0,-7.84,33.950001,1729415650886.0,0.0
-10.817951,-8.922836,2.533999,37.029999,-4.06,4.69,1729415650907.0,0.0
-8.583055,-10.564312,3.26381,0.91,-12.04,-20.719999,1729415650926.0,0.0
-6.479764,-10.298709,5.103891,14.0,-1.75,-48.790001,1729415650946.0,0.0
-9.042477,-7.45125,4.85743,-16.030001,13.93,-59.779999,1729415650965.0,0.0
-6.862615,-2.79721,10.329816,-115.779999,1.4,-90.019997,1729415650987.0,0.0
-3.711268,0.803988,3.555735,-175.210007,-27.65,-66.43,1729415651006.0,0.0
0.662812,-4.82393,4.369294,-150.710007,-17.15,-54.459999,1729415651030.0,0.0
-3.443272,-5.139783,8.12124,-60.34,10.22,-31.710001,1729415651045.0,0.0
-0.337388,0.586242,9.731609,0.21,-8.05,-5.25,1729415651067.0,0.0
-0.964308,-4.26401,7.63789,-64.959999,-2.87,15.190001,1729415651086.0,0.0
-1.990828,-7.118648,5.848059,-42.98,14.56,28.49,1729415651106.0,0.0
-0.732204,-3.445665,5.778666,55.790001,24.15,43.540001,1729415651128.0,0.0
-2.835495,-6.470192,3.778267,92.82,25.969999,64.330002,1729415651146.0,0.0
-6.159126,-7.484749,3.584448,146.649994,20.23,74.690002,1729415651167.0,0.0
-7.640282,-6.001199,2.969493,108.989998,4.2,49.07,1729415651186.0,0.0
-9.789038,-10.052249,12.88535,74.199997,3.29,70.139999,1729415651208.0,0.0
-8.578269,-9.020942,-0.39003,-30.870001,-16.66,25.48,1729415651226.0,0.0
-10.080962,-11.179268,-0.409173,-30.799999,-3.01,34.16,1729415651247.0,0.0
-8.695518,-11.002198,-0.981057,-29.960001,13.440001,-1.4,1729415651266.0,0.0
-7.398607,-11.397014,2.433501,10.71,17.360001,-7.56,1729415651288.0,0.0
-7.503892,-8.755339,4.73061,46.549999,22.540001,-30.870001,1729415651310.0,0.0
-8.202596,-7.164111,4.462614,21.210001,19.389999,-60.689999,1729415651327.0,0.0
-6.766902,-4.82393,6.372087,-12.81,17.290001,-86.029999,1729415651346.0,0.0
-4.752146,0.457029,9.712467,-38.009998,-7.91,-87.220001,1729415651367.0,0.0
-1.765903,1.911865,6.336195,-71.330002,-3.78,-70.840004,1729415651387.0,0.0
-1.119841,-6.259624,8.805587,-43.68,5.18,-54.32,1729415651410.0,0.0
-1.387837,-0.485743,10.796415,62.439999,-8.26,-14.07,1729415651427.0,0.0
-3.538985,-3.335595,8.444271,-0.84,-5.18,2.45,1729415651451.0,0.0
-3.515057,-6.135197,3.677768,1.89,9.03,24.08,1729415651466.0,0.0
-3.555735,-3.20399,1.600798,90.440002,27.65,39.689999,1729415651487.0,0.0
-5.685347,-6.874579,8.456236,133.490005,19.67,72.660004,1729415651509.0,0.0
-8.49452,-6.884151,8.685946,64.260002,-7.28,77.139999,1729415651527.0,0.0
-8.939585,-4.883751,7.135397,-23.1,-21.91,79.519997,1729415651548.0,0.0
-7.484749,-8.989835,-1.770689,-131.949997,-32.759998,47.670002,1729415651567.0,0.0
-8.611769,-10.858629,-0.744168,-111.020004,-21.559999,69.510002,1729415651586.0,0.0
-8.941978,-12.043077,-1.215554,-79.379997,3.01,27.860001,1729415651607.0,0.0
-8.475377,-10.920842,-0.677169,-53.760002,19.32,19.67,1729415651629.0,0.0
-6.719046,-13.251451,2.22054,-6.09,22.610001,1.26,1729415651646.0,0.0
-8.13799,-10.576276,5.446064,75.599998,35.560001,-45.290001,1729415651666.0,0.0
-10.616954,-4.907679,3.766303,75.599998,31.290001,-65.660004,1729415651687.0,0.0
-7.700103,-5.211568,8.243275,7.98,22.68,-95.900002,1729415651711.0,0.0
-4.62054,2.974278,11.095518,-111.020004,-12.6,-93.239998,1729415651727.0,0.0
-1.509871,2.493321,5.974878,-133.839996,-13.02,-49.98,1729415651747.0,0.0
-3.041277,-10.277173,8.963513,-97.580002,-2.24,-41.650002,1729415651766.0,0.0
-3.426522,-2.902494,8.365308,55.720001,-8.75,-15.12,1729415651787.0,0.0
-3.761517,-1.758725,7.913064,35.349998,-11.27,-11.48,1729415651808.0,0.0
-5.843273,-3.400201,5.515456,-48.299999,-11.76,-1.75,1729415651827.0,0.0
-2.995814,-4.878965,3.385844,-33.389999,-5.11,9.38,1729415651846.0,0.0
-3.287738,-6.491727,1.507478,16.940001,5.81,33.25,1729415651867.0,0.0
-4.761717,-4.73061,2.612962,69.019997,5.74,59.849998,1729415651887.0,0.0
-6.821937,-5.781059,5.455636,51.869999,-8.33,56.91,1729415651909.0,0.0
-7.343572,-8.487342,0.394816,-5.32,-18.059999,52.779999,1729415651927.0,0.0
-8.999406,-14.622539,4.220939,0.7,-21.629999,55.93,1729415651945.0,0.0
-8.260024,-11.636297,0.811167,-28.49,-24.780001,14.49,1729415651968.0,0.0
-8.166703,-10.492528,-1.490728,-38.080002,-10.85,11.9,1729415651988.0,0.0
-7.176075,-13.710874,0.911665,2.24,-2.73,-17.15,1729415652007.0,0.0
-7.429714,-11.770294,4.086941,84.629997,10.99,-31.360001,1729415652030.0,0.0
-9.090333,-8.403593,6.491727,103.809998,17.99,-66.57,1729415652047.0,0.0
-6.958328,-3.414558,5.52742,90.019997,14.14,-85.260002,1729415652066.0,0.0
-5.496314,2.615355,11.868401,-37.029999,-3.43,-102.059998,1729415652086.0,0.0
-2.804388,-1.787439,5.187639,-89.669998,-5.04,-64.120003,1729415652107.0,0.0
-1.531406,-5.960521,8.405986,-14.63,-4.55,-57.610001,1729415652127.0,0.0
-4.910072,-4.051049,10.100104,48.860001,-7.98,-40.740002,1729415652148.0,0.0
-3.089134,-1.555335,4.898108,6.58,-7.14,-27.02,1729415652168.0,0.0
-3.56052,-4.587041,5.338387,-59.639999,-13.23,-14.0,1729415652188.0,0.0
-2.019542,-3.304488,3.620341,-22.75,-1.33,6.51,1729415652207.0,0.0
-1.069592,-0.985843,4.663611,23.450001,13.72,46.060001,1729415652227.0,0.0
-4.65404,-9.425328,6.436693,28.35,17.5,68.389999,1729415652247.0,0.0
-6.776474,-8.743374,6.853044,110.599998,7.77,95.830002,1729415652266.0,0.0
-6.494121,-11.097912,4.835894,48.299999,-6.02,49.279999,1729415652287.0,0.0
-7.427321,-11.090734,-0.988236,-32.41,-5.81,38.57,1729415652307.0,0.0
-6.89133,-11.203196,-1.028914,8.68,2.31,25.27,1729415652327.0,0.0
-8.592626,-10.662418,0.217747,26.67,10.43,14.28,1729415652347.0,0.0
-9.638289,-11.734402,4.45065,45.360001,11.55,-0.35,1729415652366.0,0.0
-7.84128,-9.4349,7.649854,66.080002,1.61,-26.32,1729415652386.0,0.0
-8.611769,-5.649454,4.938786,9.94,-2.52,-49.560001,1729415652408.0,0.0
-8.492127,-4.048656,7.207181,-44.66,7.63,-71.540001,1729415652427.0,0.0
-5.326423,-0.239282,7.716853,-124.739998,7.63,-91.980003,1729415652447.0,0.0
-3.562913,-4.031906,5.749953,-110.18,-1.89,-70.419998,1729415652467.0,0.0
-2.323431,-7.144968,7.661818,-53.619999,5.81,-56.700001,1729415652486.0,0.0
-1.988436,-2.344966,6.915257,-2.52,6.58,-43.119999,1729415652507.0,0.0
-0.930808,-1.433301,8.599805,-8.82,6.93,-9.66,1729415652527.0,0.0
-4.098906,-4.972286,7.391429,-46.549999,-3.08,15.12,1729415652547.0,0.0
-2.266003,-4.429115,4.419543,-32.34,-12.6,27.93,1729415652566.0,0.0
-1.969293,-4.084548,4.486543,26.6,-4.48,50.68,1729415652586.0,0.0
-5.123034,-7.04447,5.288138,59.290001,-0.77,66.919998,1729415652608.0,0.0
-6.515656,-6.539584,4.06062,103.949997,-5.81,85.400002,1729415652626.0,0.0
-7.530212,-11.81815,6.482157,70.419998,-8.68,51.099998,1729415652646.0,0.0
-7.869993,-10.523634,1.598405,5.39,-12.88,48.93,1729415652667.0,0.0
-6.448657,-10.15514,-0.308674,-2.59,-8.96,25.059999,1729415652686.0,0.0
-6.795617,-8.49452,1.239482,17.92,-0.91,20.65,1729415652708.0,0.0
-8.092526,-8.245667,2.778067,1.4,2.66,17.780001,1729415652726.0,0.0
-8.128418,-9.889536,5.032106,2.52,-5.81,1.89,1729415652746.0,0.0
-6.625726,-7.156933,4.529613,-7.14,-7.21,-22.4,1729415652767.0,0.0
-7.905886,-9.626326,3.900301,-49.139999,7.21,-27.719999,1729415652786.0,0.0
-9.332008,-10.932807,2.658426,-79.379997,34.860001,-70.699997,1729415652808.0,0.0
-7.652246,-9.221939,6.556334,-45.849998,48.580002,-91.349998,1729415652828.0,0.0
-1.344766,1.354338,7.228717,-25.76,26.32,-65.800003,1729415652899.0,0.0
-2.801995,-4.685147,7.77428,-71.120003,12.32,-35.279999,1729415652908.0,0.0
-3.108276,-5.285746,8.678767,-25.27,9.59,-18.34,1729415652909.0,0.0
-2.830709,-1.959722,7.987241,11.83,-2.87,3.92,1729415652910.0,0.0
-4.232903,-3.498307,6.728617,-30.66,2.8,17.43,1729415652927.0,0.0
-5.309673,-7.190433,6.15434,-51.66,3.92,23.24,1729415652946.0,0.0
-5.223531,-8.288737,4.441079,-39.200001,-8.19,23.309999,1729415652966.0,0.0
-2.95035,-6.812366,3.871587,15.47,-12.11,26.74,1729415652986.0,0.0
-2.421536,-4.577469,4.697111,92.540001,10.78,46.619999,1729415653007.0,0.0
-3.742374,-3.462414,5.115855,141.190002,10.5,66.709999,1729415653029.0,0.0
-6.9344,-7.288538,9.379865,160.860001,-3.29,85.75,1729415653046.0,0.0
-8.724231,-4.4674,9.238688,70.279999,-31.710001,66.010002,1729415653066.0,0.0
-6.793223,-10.083356,4.125226,-31.57,-35.490002,54.740002,1729415653086.0,0.0
-7.819745,-10.325029,1.727618,-52.709999,-17.85,54.110001,1729415653106.0,0.0
-9.403792,-10.597812,-0.299103,-62.02,-6.16,41.860001,1729415653126.0,0.0
-10.04507,-12.607781,-1.31366,-29.26,-4.06,9.38,1729415653145.0,0.0
-8.480164,-9.60479,-1.316052,27.23,2.24,-14.35,1729415653166.0,0.0
-6.439085,-10.693524,3.438486,86.449997,13.86,-38.360001,1729415653193.0,0.0
-8.195417,-5.816952,5.230711,82.669998,15.33,-59.920002,1729415653206.0,0.0
-7.401,-3.835695,3.223132,-2.1,21.42,-75.739998,1729415653227.0,0.0
-4.981857,-6.171089,3.773481,-50.540001,22.889999,-78.959999,1729415653246.0,0.0
-3.517449,1.435694,9.442079,-63.560001,10.85,-80.080002,1729415653266.0,0.0
-1.734797,1.40698,8.855836,-63.0,-7.14,-37.799999,1729415653286.0,0.0
-3.701697,-5.84088,9.217153,-123.690002,4.48,-23.52,1729415653318.0,0.0
-4.699504,-6.309873,8.130811,-107.379997,14.91,-27.370001,1729415653327.0,0.0
-4.589434,-3.014957,8.664411,-63.91,8.4,-4.34,1729415653346.0,0.0
-5.230711,-5.292924,6.819544,-109.760002,-8.05,9.87,1729415653367.0,0.0
-4.445865,-10.171888,1.974079,-96.879997,4.9,22.82,1729415653388.0,0.0
-4.192225,-9.24826,0.713061,46.48,20.93,34.23,1729415653409.0,0.0
-4.141976,-6.235696,2.498107,134.330002,22.26,37.170002,1729415653427.0,0.0
-5.644669,-7.944171,6.991827,163.660004,8.26,54.950001,1729415653447.0,0.0
-5.941379,-5.962914,2.148755,55.299999,-25.41,31.219999,1729415653468.0,0.0
-5.62074,-5.769095,0.26321,-76.93,-36.049999,46.970001,1729415653488.0,0.0
-7.453642,-13.251451,1.237089,-49.91,-30.73,44.66,1729415653509.0,0.0
-8.482556,-10.205389,1.847259,-25.549999,-27.02,22.120001,1729415653528.0,0.0
-8.685946,-7.365108,2.65364,24.57,-17.780001,18.41,1729415653547.0,0.0
-7.999206,-9.686146,2.634498,-4.27,-6.44,-0.21,1729415653567.0,0.0
-8.733803,-11.217552,3.220739,-25.200001,10.43,-6.72,1729415653587.0,0.0
-9.731609,-8.451449,4.331009,14.49,25.690001,-57.82,1729415653608.0,0.0
-9.731609,-8.980263,4.35733,46.200001,35.420002,-79.449997,1729415653628.0,0.0
-7.501499,-4.491328,10.212566,-76.93,41.23,-127.330002,1729415653647.0,0.0
-1.162912,-3.259024,4.012764,-140.350006,18.34,-95.760002,1729415653668.0,0.0
-1.600798,-8.882158,5.541777,-53.48,32.27,-70.489998,1729415653688.0,0.0
-4.17069,-3.993621,8.410772,40.110001,11.9,-41.09,1729415653709.0,0.0
-1.237089,-3.842873,8.800802,0.56,3.5,-21.91,1729415653730.0,0.0
-1.998007,-2.811567,6.862615,-5.32,-8.47,6.09,1729415653748.0,0.0
-3.584448,-5.010571,5.740381,30.24,-20.58,32.830002,1729415653769.0,0.0
-4.187439,-0.294317,5.216353,87.5,-23.66,57.119999,1729415653789.0,0.0
-4.792823,-3.194418,4.441079,83.019997,-23.17,79.099998,1729415653809.0,0.0
-6.668797,-1.935793,0.449851,85.120003,-25.27,89.739998,1729415653829.0,0.0
-8.295916,-10.255639,4.54397,97.019997,-32.619999,87.080002,1729415653848.0,0.0
-8.772088,-7.429714,1.852045,-37.450001,-35.139999,47.950001,1729415653868.0,0.0
-9.616754,-13.043276,2.787638,-23.73,-26.809999,57.400002,1729415653889.0,0.0
-7.721639,-9.109475,1.153341,-45.150002,-26.040001,19.809999,1729415653913.0,0.0
-8.453842,-11.643474,-0.18664,-70.279999,-13.37,30.030001,1729415653930.0,0.0
-7.688138,-13.81855,-0.801596,-63.490002,4.55,0.49,1729415653948.0,0.0
-6.85783,-8.575876,1.76351,-26.040001,17.01,-13.23,1729415653968.0,0.0
-6.412765,-6.721439,2.897708,-42.490002,19.950001,-23.309999,1729415653988.0,0.0
-7.202396,-7.683353,0.581456,-113.330002,33.740002,-40.950001,1729415654012.0,0.0
-6.106483,-13.244273,2.584249,-35.139999,54.950001,-67.480003,1729415654034.0,0.0
-7.743174,-4.182654,6.142376,13.23,58.099998,-66.080002,1729415654048.0,0.0
-0.591027,-0.725025,7.008578,1.82,33.110001,-61.389999,1729415654099.0,0.0
-3.23031,-2.423929,12.083755,28.559999,18.129999,-27.58,1729415654101.0,0.0
-4.4339,-4.158726,9.066404,-10.22,0.49,7.21,1729415654108.0,0.0
-5.922236,-4.632504,6.788438,-29.4,-1.05,15.47,1729415654128.0,0.0
-4.917251,-5.335995,3.457629,-24.639999,0.21,20.440001,1729415654187.0,0.0
-4.486543,-1.933401,2.256432,5.81,-6.79,26.25,1729415654188.0,0.0
-4.54397,-4.010371,1.371087,47.880001,10.01,38.220001,1729415654224.0,0.0
-6.565905,-14.280365,6.551548,88.059998,14.77,52.009998,1729415654285.0,0.0
-6.321837,-5.596812,7.886744,123.340004,12.04,58.52,1729415654286.0,0.0
-6.58744,-11.009377,3.778267,16.1,-8.61,25.129999,1729415654287.0,0.0
-4.936393,-5.623133,0.595813,-21.559999,-17.5,55.369999,1729415654288.0,0.0
-8.913264,-11.420943,3.972085,-43.259998,-20.790001,36.82,1729415654308.0,0.0
-8.860621,-13.749159,0.684347,-2.52,-10.92,83.860001,1729415654328.0,0.0
-9.578469,-11.112268,0.050249,-53.619999,-22.610001,12.6,1729415654347.0,0.0
-9.042477,-12.236896,0.894916,-5.18,-12.25,9.8,1729415654368.0,0.0
-9.162118,-12.169895,1.428515,-5.95,4.27,-25.27,1729415654388.0,0.0
-9.427721,-4.869394,3.400201,74.970001,26.110001,-84.419998,1729415654410.0,0.0
-6.74776,-5.067998,1.067199,23.799999,27.93,-83.440002,1729415654429.0,0.0
-5.273781,-9.078369,3.766303,-47.740002,31.99,-101.290001,1729415654448.0,0.0
-4.101298,2.876173,7.77428,-13.37,12.6,-72.730003,1729415654467.0,0.0
-0.011964,-0.538385,8.216952,28.49,-3.01,-57.260002,1729415654488.0,0.0
-3.096312,-1.938186,8.563912,13.72,-11.06,-14.0,1729415654509.0,0.0
-4.421937,-3.113062,5.927022,-8.05,-7.49,0.63,1729415654528.0,0.0
-6.867401,-3.823731,4.534399,-31.99,-7.28,12.53,1729415654547.0,0.0
-6.594619,-3.48395,2.321038,-48.23,-14.91,13.86,1729415654568.0,0.0
-5.130211,-4.424329,1.682154,-36.330002,1.12,17.780001,1729415654588.0,0.0
-4.886144,-5.898308,2.782853,19.25,25.690001,36.889999,1729415654609.0,0.0
-4.785645,-3.89073,4.61097,101.849998,33.040001,58.869999,1729415654629.0,0.0
-5.455636,-7.503892,9.049655,116.059998,18.200001,40.529999,1729415654647.0,0.0
-6.735795,-3.158526,5.371887,77.139999,-7.42,65.029999,1729415654667.0,0.0
-5.273781,-3.036492,5.197211,5.25,-8.12,51.029999,1729415654689.0,0.0
-6.518049,-6.704689,0.916451,-85.120003,-12.32,32.970001,1729415654711.0,0.0
-8.571091,-7.84128,3.069991,-26.950001,-16.1,70.699997,1729415654728.0,0.0
-8.671589,-12.990634,3.620341,-3.64,-26.74,28.559999,1729415654748.0,0.0
-9.640682,-8.800802,2.230111,2.94,-11.97,16.309999,1729415654770.0,0.0
-8.640482,-11.255837,0.349352,-24.85,5.74,-16.52,1729415654788.0,0.0
-6.812366,-8.370094,1.505085,57.330002,5.25,-29.75,1729415654809.0,0.0
-8.300702,-5.338387,4.998606,120.330002,7.63,-37.59,1729415654828.0,0.0
-7.458428,-3.419343,5.685347,47.810001,-0.21,-49.420002,1729415654847.0,0.0
-6.664011,-5.300103,2.847459,-52.849998,3.08,-58.939999,1729415654868.0,0.0
-5.986843,-6.053841,-0.035892,-54.529999,11.06,-49.560001,1729415654888.0,0.0
-5.15414,-7.65464,3.225525,-9.87,14.91,-73.779999,1729415654909.0,0.0
-5.690133,-1.024128,7.848458,-4.55,4.06,-48.23,1729415654929.0,0.0
-2.404787,1.397408,7.932207,-14.91,-20.23,-28.42,1729415654947.0,0.0
-3.761517,-3.742374,8.85105,-81.830002,-24.92,-17.57,1729415654968.0,0.0
-6.092126,-7.57089,4.402793,-126.0,-23.030001,-7.42,1729415654988.0,0.0
-5.788238,-7.877172,2.754139,-80.220001,-16.52,-6.72,1729415655009.0,0.0
-6.34098,-7.726424,2.876173,-29.33,-3.22,-8.89,1729415655030.0,0.0
-7.276574,-7.020542,3.182454,3.92,2.8,-12.81,1729415655049.0,0.0
-6.608976,-7.616355,3.366701,-7.14,-0.28,-19.67,1729415655068.0,0.0
-5.553742,-9.142976,3.053242,-17.57,-1.96,-26.6,1729415655088.0,0.0
-5.955735,-9.341579,2.361716,3.78,-0.98,-38.220001,1729415655109.0,0.0
-5.989235,-6.530013,2.344966,28.0,-2.73,-46.130001,1729415655128.0,0.0
-5.565705,-3.625126,2.225325,25.27,-14.14,-45.779999,1729415655147.0,0.0
-4.651647,-2.801995,2.531606,9.1,-5.95,-42.98,1729415655168.0,0.0
-5.187639,-2.596212,3.493521,-10.92,-2.1,-27.51,1729415655187.0,0.0
-5.838487,-4.381258,3.790231,-56.349998,-0.7,-18.690001,1729415655209.0,0.0
-6.250053,-7.353144,3.345166,-98.699997,-13.93,-16.73,1729415655236.0,0.0
-6.496514,-10.054641,5.134997,-84.980003,-37.799999,-9.87,1729415655247.0,0.0
-6.295516,-5.888737,7.944171,-83.580002,-50.75,-4.06,1729415655267.0,0.0
-6.06102,-4.622933,7.008578,-163.729996,-73.709999,3.15,1729415655290.0,0.0
-5.371887,-7.41775,3.811767,-281.399994,-100.379997,-3.5,1729415655309.0,0.0
-4.768896,-9.968499,1.67019,-329.279999,-109.900002,-11.34,1729415655329.0,0.0
-4.015156,-10.738988,-0.440279,-318.5,-106.470001,-23.66,1729415655349.0,0.0
-3.081956,-10.51167,-1.043271,-282.519989,-93.379997,-32.830002,1729415655368.0,0.0
-1.998007,-9.925428,-2.364109,-233.449997,-74.059998,-37.59,1729415655389.0,0.0
-1.339981,-9.762716,-3.988836,-187.880005,-44.380001,-34.439999,1729415655411.0,0.0
-0.641276,-10.767702,-6.795617,-162.75,-22.33,-25.27,1729415655429.0,0.0
-0.521635,-10.509278,-7.757531,-99.470001,6.93,-13.65,1729415655449.0,0.0
-1.584049,-9.410972,-6.161518,-3.22,31.99,-2.24,1729415655469.0,0.0
-2.364109,-9.595219,-5.584848,31.57,50.75,-1.68,1729415655489.0,0.0
-2.801995,-11.691331,-6.092126,21.49,69.860001,-10.99,1729415655511.0,0.0
-3.917051,-11.437693,-6.817152,56.91,76.019997,-14.98,1729415655530.0,0.0
-5.053641,-11.461621,-0.39003,138.949997,65.449997,-20.65,1729415655548.0,0.0
-3.56052,-7.140182,2.718246,137.830002,43.959999,-23.52,1729415655569.0,0.0
-2.340181,-10.423136,-0.847059,58.310001,31.780001,-40.529999,1729415655589.0,0.0
-2.165504,-9.245867,-0.533599,51.73,32.200001,-38.709999,1729415655609.0,0.0
-2.026721,-4.902894,0.725025,72.169998,35.700001,-15.54,1729415655631.0,0.0
-3.9338,-3.806981,6.056234,78.75,31.43,5.81,1729415655649.0,0.0
-5.240282,-5.886343,6.199803,42.07,5.67,10.29,1729415655668.0,0.0
-2.35693,-9.004191,2.854637,-7.98,-12.25,0.77,1729415655689.0,0.0
-3.455236,-9.336794,0.497707,-89.809998,-15.05,-5.95,1729415655712.0,0.0
-4.084548,-8.666803,-1.237089,-116.970001,-27.58,5.04,1729415655731.0,0.0
-2.452643,-10.628918,-5.838487,-131.460007,-34.439999,-2.8,1729415655750.0,0.0
-4.68754,-9.556933,-7.401,-51.52,-18.41,-9.03,1729415655770.0,0.0
-5.158926,-7.453642,-8.690732,-5.67,-2.38,2.17,1729415655790.0,0.0
-5.405386,-8.094919,-9.195618,-35.630001,20.16,3.22,1729415655813.0,0.0
-4.82393,-9.772287,-5.733203,-45.290001,30.1,1.75,1729415655831.0,0.0
-4.39083,-10.612168,-4.096512,-14.0,34.580002,1.19,1729415655850.0,0.0
-4.326223,-8.965906,-1.268196,-7.21,51.799999,-12.74,1729415655870.0,0.0
-3.9673,-10.968699,-5.206782,-7.14,58.310001,-2.52,1729415655890.0,0.0
-3.476771,-12.734602,-1.167697,62.790001,83.160004,-3.85,1729415655912.0,0.0
-0.086142,-4.426722,6.553941,120.400002,54.670002,4.97,1729415655931.0,0.0
2.06022,-5.757132,8.276773,130.199997,36.959999,25.83,1729415655955.0,0.0
-1.512264,-8.023134,9.195618,41.299999,35.209999,23.450001,1729415655970.0,0.0
-4.85743,-13.883157,3.749553,-7.63,5.6,19.18,1729415655990.0,0.0
-3.292524,-13.141381,1.418944,-57.610001,-25.200001,-4.55,1729415656012.0,0.0
-0.148355,-8.84148,-1.988436,-50.540001,-44.450001,-6.65,1729415656034.0,0.0
-1.239482,-7.640282,-2.892922,-84.279999,-50.400002,5.04,1729415656052.0,0.0
-4.548756,-4.977071,-1.916651,-122.5,-55.650002,3.92,1729415656070.0,0.0
-7.728817,-5.099105,-3.26381,-72.029999,-74.340004,24.99,1729415656091.0,0.0
-5.867201,-11.306087,-9.4349,-18.9,-83.790001,-5.53,1729415656111.0,0.0
-6.379266,-6.271588,-7.542177,60.200001,-63.349998,-0.98,1729415656131.0,0.0
-6.427122,-6.151947,-7.817351,55.860001,-45.5,19.809999,1729415656150.0,0.0
-6.106483,-11.531013,-8.523234,-40.950001,2.73,7.35,1729415656170.0,0.0
-4.926822,-14.388042,-6.484549,-45.360001,23.799999,0.84,1729415656191.0,0.0
-5.273781,-11.52862,-1.462015,53.060001,35.700001,-11.83,1729415656213.0,0.0
-5.201996,-6.553941,-2.421536,19.530001,38.709999,-12.32,1729415656231.0,0.0
-4.242475,-9.717253,-2.495714,-63.77,60.549999,-22.190001,1729415656250.0,0.0
-2.689533,-11.3683,-4.23051,6.16,55.720001,-14.14,1729415656271.0,0.0
-1.928615,-9.274581,0.696311,95.480003,68.879997,-13.23,1729415656290.0,0.0
1.392623,-3.058028,4.871787,73.919998,44.73,-6.02,1729415656312.0,0.0
1.852045,-5.271388,6.06102,47.529999,32.970001,22.469999,1729415656330.0,0.0
-1.18684,-9.454042,5.182854,8.05,2.24,42.91,1729415656349.0,0.0
-4.04387,-10.817951,2.467,-20.719999,-7.42,38.43,1729415656370.0,0.0
-4.87418,-12.301501,-0.839881,-54.389999,-21.700001,30.450001,1729415656390.0,0.0
-4.524827,-9.042477,-1.835295,-34.369999,-34.580002,25.76,1729415656411.0,0.0
-4.103691,-10.013963,-2.057827,0.28,-50.540001,35.349998,1729415656431.0,0.0
-3.893122,-2.612962,0.880559,6.09,-69.580002,34.369999,1729415656449.0,0.0
-6.393622,-6.56112,-2.409572,-9.52,-91.559998,56.279999,1729415656470.0,0.0
-7.616355,-11.119448,-8.719445,-33.459999,-69.230003,12.6,1729415656492.0,0.0
-8.652447,-8.25763,-12.023933,-31.5,-39.200001,35.700001,1729415656512.0,0.0
-8.925228,-11.662617,-10.954341,-50.189999,12.74,15.33,1729415656531.0,0.0
-6.817152,-12.378072,-6.171089,4.34,22.26,-4.27,1729415656551.0,0.0
-5.022535,-7.460821,1.837688,73.290001,20.93,-4.2,1729415656571.0,0.0
-3.323631,-6.005985,-3.256632,1.61,27.299999,-10.08,1729415656591.0,0.0
-3.864408,-9.942179,-3.409772,-97.510002,60.48,-12.67,1729415656610.0,0.0
-4.711468,-15.373885,-4.689932,7.42,60.760002,3.22,1729415656630.0,0.0
-5.532206,-8.925228,2.529213,116.340004,72.379997,-28.98,1729415656649.0,0.0
0.634098,-5.587241,5.206782,88.269997,21.559999,-6.44,1729415656670.0,0.0
-1.579263,-10.365707,4.065405,-5.04,13.3,-16.17,1729415656690.0,0.0
-4.319045,-10.255639,4.45065,7.07,-1.75,-24.710001,1729415656713.0,0.0
-4.383651,-8.410772,4.163511,-4.83,-22.75,-15.68,1729415656730.0,0.0
-2.804388,-9.839286,2.203789,-58.59,-43.470001,-16.59,1729415656750.0,0.0
-3.146562,-7.905886,0.993021,-79.660004,-47.880001,-11.9,1729415656769.0,0.0
-4.65404,-7.484749,-1.045663,-113.610001,-62.299999,-8.54,1729415656790.0,0.0
-6.159126,-5.986843,-4.965107,-126.770004,-62.580002,-3.29,1729415656811.0,0.0
-7.092326,-8.662018,-13.222737,-93.309998,-39.34,-15.61,1729415656830.0,0.0
-5.125426,-7.932207,-12.859028,-0.49,-6.09,-8.47,1729415656850.0,0.0
-4.512863,-7.140182,-8.745767,69.790001,15.12,-5.81,1729415656870.0,0.0
-5.194818,-5.618347,-3.503092,97.580002,18.129999,-3.29,1729415656890.0,0.0
-5.364708,-5.379066,-1.605584,73.150002,0.35,-3.36,1729415656911.0,0.0
-4.948357,-10.315458,-3.675375,28.280001,7.56,4.13,1729415656930.0,0.0
-4.326223,-13.490734,-1.689333,22.33,24.57,-9.45,1729415656951.0,0.0
-6.290731,-11.607583,-1.880759,64.610001,38.009998,-5.39,1729415656970.0,0.0
-6.039484,-9.377472,-4.776074,-33.670002,59.43,-32.970001,1729415656990.0,0.0
-1.533799,-12.904492,-2.019542,-76.019997,69.93,-33.670002,1729415657011.0,0.0
-2.610569,-7.73121,0.303888,128.100006,53.900002,-38.709999,1729415657036.0,0.0
-2.469393,-7.240681,6.798009,120.75,50.189999,-6.79,1729415657049.0,0.0
-1.548156,-7.977671,8.408379,24.57,31.290001,-13.65,1729415657070.0,0.0
-2.562713,-8.197811,5.460421,-14.49,3.43,-7.14,1729415657090.0,0.0
-2.62732,-8.803195,2.103291,-29.120001,-19.25,0.7,1729415657111.0,0.0
-2.385644,-10.092925,0.375673,-46.619999,-36.959999,-0.21,1729415657130.0,0.0
-3.402594,-8.877372,0.770489,-55.580002,-51.59,2.03,1729415657149.0,0.0
-2.423929,-8.745767,0.275175,-139.300003,-82.739998,0.42,1729415657169.0,0.0
-3.921836,-4.371687,-6.991827,-218.610001,-88.760002,-14.14,1729415657189.0,0.0
-7.905886,-8.38445,-7.566105,-86.940002,-86.940002,21.77,1729415657211.0,0.0
-5.005785,-12.780065,-13.701303,-40.599998,-55.16,-24.780001,1729415657230.0,0.0
-6.087341,-7.211967,-10.392029,-24.57,-33.110001,-11.2,1729415657249.0,0.0
-5.821737,-6.809973,-10.877771,-12.46,10.15,5.18,1729415657276.0,0.0
-4.85743,-10.482956,-4.151547,42.91,20.719999,-0.56,1729415657290.0,0.0
-4.35733,-11.837293,-0.729811,90.510002,23.17,-7.42,1729415657313.0,0.0
-4.039084,-8.11167,-3.354738,97.650002,27.299999,-15.4,1729415657331.0,0.0
-5.666204,-8.997013,-3.419343,33.25,62.299999,-14.28,1729415657350.0,0.0
-4.503292,-9.805787,-4.723432,-5.11,79.449997,-29.610001,1729415657370.0,0.0
-0.636491,-5.15414,-0.552742,38.290001,61.040001,-4.34,1729415657391.0,0.0
0.265603,-4.649254,3.778267,115.709999,39.970001,9.17,1729415657412.0,0.0
-1.665405,-9.274581,6.948757,98.279999,36.049999,26.18,1729415657431.0,0.0
-3.07717,-10.655239,7.207181,19.530001,11.62,13.02,1729415657450.0,0.0
-4.780859,-10.013963,2.859423,-64.260002,-4.2,3.85,1729415657470.0,0.0
-1.933401,-8.779266,-1.083949,-62.790001,-26.809999,2.24,1729415657490.0,0.0
-1.502693,-10.480563,-2.782853,-40.529999,-35.209999,10.08,1729415657512.0,0.0
-3.211168,-8.729016,-2.943172,-36.470001,-35.700001,12.53,1729415657531.0,0.0
-3.37388,-9.008978,-1.529014,-10.22,-51.869999,27.65,1729415657551.0,0.0
-4.886144,-2.481357,1.933401,30.870001,-73.779999,42.630001,1729415657571.0,0.0
-6.508478,-9.489935,-7.551748,24.5,-70.629997,43.189999,1729415657591.0,0.0
-5.225924,-8.958728,-7.168896,2.73,-40.110001,34.02,1729415657611.0,0.0
-8.470592,-10.348958,-7.858029,-27.58,-22.610001,60.549999,1729415657632.0,0.0
-9.585647,-12.430713,-8.733803,-44.939999,5.53,13.93,1729415657650.0,0.0
-7.446464,-11.832507,-4.328616,4.69,10.15,-13.58,1729415657670.0,0.0
-5.788238,-9.090333,-0.002393,70.139999,27.58,-21.700001,1729415657691.0,0.0
-5.503492,-7.475177,-0.492921,38.639999,40.740002,-29.26,1729415657712.0,0.0
-4.37408,-7.013363,-0.394816,-66.290001,55.720001,-35.209999,1729415657732.0,0.0
-2.053042,-10.844273,-4.63729,-33.810001,51.029999,-17.5,1729415657752.0,0.0
-5.058427,-10.545169,-5.501099,49.349998,72.169998,-25.129999,1729415657774.0,0.0
-2.342573,-8.042276,-1.543371,96.949997,71.610001,-6.51,1729415657794.0,0.0
1.328017,-5.410172,6.422336,113.470001,43.470001,-8.47,1729415657816.0,0.0
0.052642,-8.930015,7.57089,67.900002,18.969999,5.18,1729415657898.0,0.0
-4.73061,-10.334601,5.891129,7.63,4.06,-2.66,1729415657900.0,0.0
-5.493921,-8.939585,1.89033,-43.049999,-12.81,-11.97,1729415657902.0,0.0
-3.177669,-9.205189,-2.859423,-61.599998,-24.08,-11.06,1729415657904.0,0.0
-3.273381,-9.23151,-3.278167,-36.470001,-18.059999,-4.76,1729415657915.0,0.0
-4.194618,-6.920043,-0.665205,5.95,-29.33,8.75,1729415657940.0,0.0
-2.210968,-0.107677,-0.602991,-33.810001,-63.490002,17.5,1729415657955.0,0.0
-2.794817,-11.229517,-6.661618,-56.560001,-70.489998,21.98,1729415657972.0,0.0
-8.133204,-9.224331,-7.293324,-3.08,-39.759998,5.53,1729415657997.0,0.0
-11.286944,-8.693125,-9.38465,-44.869999,-7.0,23.66,1729415658014.0,0.0
-8.908479,-11.85165,-6.611369,-85.75,22.889999,-8.96,1729415658034.0,0.0
-4.350152,-10.626525,-1.964507,18.83,19.6,-23.870001,1729415658055.0,0.0
-4.421937,-7.893922,-1.342373,80.639999,36.119999,-24.92,1729415658072.0,0.0
-4.354938,-7.647461,-0.935594,-22.4,53.549999,-37.869999,1729415658093.0,0.0
-0.916451,-10.975878,-5.414958,-38.220001,41.650002,-24.99,1729415658113.0,0.0
-5.302495,-9.643075,-5.216353,33.18,83.510002,-26.18,1729415658132.0,0.0
-2.945565,-7.769495,0.256032,77.139999,73.010002,-13.51,1729415658152.0,0.0
1.799403,-8.166703,5.443672,103.739998,16.1,-10.99,1729415658172.0,0.0
-1.215554,-8.532805,5.395815,27.299999,11.69,-23.66,1729415658192.0,0.0
-5.635098,-8.958728,3.629912,-4.55,4.97,-11.41,1729415658213.0,0.0
-6.209375,-8.470592,1.529014,-39.970001,-12.18,-21.210001,1729415658232.0,0.0
-4.211368,-8.848659,-1.395016,-44.099998,-21.77,-14.98,1729415658253.0,0.0
-2.770889,-7.762317,-1.552942,-36.119999,-19.18,-2.73,1729415658272.0,0.0
-1.119841,-11.356337,-2.991028,-43.330002,-29.120001,0.56,1729415658293.0,0.0
-1.737189,-6.771688,-0.459422,-6.86,-42.490002,1.96,1729415658312.0,0.0
-2.68714,-1.799403,-2.289931,1.19,-66.010002,30.030001,1729415658334.0,0.0
-3.996014,-9.523434,-9.726824,-60.48,-56.84,8.96,1729415658351.0,0.0
-4.12044,-8.327023,-7.568498,-24.08,-35.139999,4.83,1729415658372.0,0.0
-6.687939,-7.716853,-6.783652,22.049999,-19.32,32.549999,1729415658393.0,0.0
-7.927422,-11.574083,-6.118448,24.57,4.13,13.51,1729415658414.0,0.0
-6.250053,-12.490535,-1.533799,31.639999,4.41,1.89,1729415658433.0,0.0
-5.046463,-11.157731,2.096112,36.82,10.01,-9.52,1729415658453.0,0.0
-5.335995,-10.202995,-1.342373,13.51,32.060001,-19.389999,1729415658472.0,0.0
-5.771489,-10.755738,-2.330609,20.790001,60.130001,-28.42,1729415658491.0,0.0
-2.203789,-10.159925,-7.056434,38.5,53.830002,-24.92,1729415658512.0,0.0
-3.699304,-12.251251,-6.484549,72.449997,76.090004,-28.77,1729415658535.0,0.0
0.878166,-4.733003,6.943972,84.629997,84.419998,-40.459999,1729415658582.0,0.0
-1.418944,-8.298308,7.49432,62.09,17.01,-28.139999,1729415658673.0,0.0
-3.955336,-7.355537,6.336195,58.939999,-7.0,-9.17,1729415658673.0,0.0
-2.615355,-8.496914,2.182254,-34.650002,-29.190001,-17.360001,1729415658673.0,0.0
-1.079163,-9.430114,-0.512064,-57.400002,-39.759998,-6.79,1729415658674.0,0.0
-2.017149,-10.157533,-0.260818,-32.200001,-33.880001,12.11,1729415658675.0,0.0
-2.842674,-11.313265,-1.081556,-32.689999,-45.080002,1.19,1729415658691.0,0.0
-3.314059,-1.237089,1.476372,-8.68,-64.120003,40.389999,1729415658711.0,0.0
-4.457829,-6.18784,-5.4676,-88.340004,-79.449997,22.540001,1729415658730.0,0.0
-6.068198,-10.262815,-8.925228,-128.940002,-56.560001,12.74,1729415658750.0,0.0
-7.4345,-8.84148,-10.930414,-92.400002,-32.200001,20.51,1729415658770.0,0.0
-8.489735,-13.471591,-10.643275,-0.56,0.42,9.73,1729415658790.0,0.0
-6.300302,-12.756138,-2.74696,71.400002,7.91,-12.25,1729415658812.0,0.0
-3.931407,-7.520642,1.227518,70.349998,5.95,-4.06,1729415658832.0,0.0
-3.220739,-7.62114,-1.792224,21.280001,21.77,-24.92,1729415658850.0,0.0
-4.656433,-10.380065,-2.586641,-38.290001,55.510002,-23.17,1729415658870.0,0.0
-2.581856,-12.265609,-7.259824,16.52,61.880001,-16.52,1729415658890.0,0.0
-4.668397,-8.999406,-5.245068,72.309998,92.470001,-23.870001,1729415658912.0,0.0
0.937986,-5.702096,7.879565,89.739998,61.740002,-3.36,1729415658931.0,0.0
0.911665,-9.784252,5.197211,13.02,24.219999,-16.870001,1729415658950.0,0.0
-2.648855,-8.752945,7.63789,-5.32,23.17,-14.98,1729415658970.0,0.0
-2.242075,-8.642875,2.895315,-2.87,1.61,-7.49,1729415658991.0,0.0
-2.15354,-9.064013,0.799203,-0.56,1.47,-1.61,1729415659011.0,0.0
-2.622534,-8.415558,0.758525,33.810001,2.52,20.93,1729415659034.0,0.0
-3.06042,-8.472985,1.739582,39.549999,-7.0,33.740002,1729415659050.0,0.0
-2.421536,-11.679367,-1.701297,-19.74,-35.279999,17.360001,1729415659071.0,0.0
-3.524628,-6.357729,-0.303888,-37.73,-52.220001,11.34,1729415659090.0,0.0
-3.462414,-9.054441,-1.641476,-49.490002,-79.029999,31.85,1729415659112.0,0.0
-4.685147,-11.406586,-6.709475,-77.139999,-69.720001,-4.34,1729415659134.0,0.0
-7.683353,-8.283953,-10.724631,-41.439999,-36.259998,21.139999,1729415659153.0,0.0
-8.02792,-12.272788,-9.396614,-19.460001,0.49,0.77,1729415659170.0,0.0
-5.737988,-10.140782,-1.61037,32.34,10.85,-1.4,1729415659192.0,0.0
-4.474578,-7.513463,-1.007378,28.98,10.29,-2.17,1729415659212.0,0.0
-4.828716,-9.824929,-5.613562,-21.91,43.540001,-28.84,1729415659231.0,0.0
-3.223132,-12.007183,-6.776474,14.28,70.419998,-12.39,1729415659251.0,0.0
-3.682554,-8.743374,0.150748,118.440002,98.699997,-13.3,1729415659270.0,0.0
-0.574277,-2.084148,9.918249,147.910004,52.5,5.25,1729415659291.0,0.0
-0.236889,-8.432307,8.226524,37.73,25.48,-7.35,1729415659321.0,0.0
-2.677568,-9.351151,4.811966,-24.08,10.5,-9.24,1729415659333.0,0.0
-5.783452,-10.356135,3.397808,33.18,18.620001,6.23,1729415659352.0,0.0
-3.737589,-9.667004,1.684547,44.66,17.710001,-2.1,1729415659373.0,0.0
-1.256232,-8.492127,2.48375,37.450001,8.19,6.72,1729415659392.0,0.0
-1.555335,-7.551748,2.658426,-6.44,5.6,17.5,1729415659411.0,0.0
-2.904887,-11.176874,1.95015,-51.029999,-14.98,13.86,1729415659432.0,0.0
-4.701896,-7.879565,3.244668,-117.879997,-47.810001,-7.49,1729415659451.0,0.0
-6.297909,-5.28096,-0.928415,-171.149994,-76.370003,16.59,1729415659472.0,0.0
-4.974678,-9.975677,-13.320844,-207.059998,-76.300003,-19.460001,1729415659492.0,0.0
-4.173083,-15.483955,-13.031311,-65.730003,-23.379999,-24.360001,1729415659512.0,0.0
-3.730411,-9.4349,-6.958328,102.059998,5.32,-7.77,1729415659534.0,0.0
-3.402594,-5.268995,-1.328017,105.07,15.33,2.24,1729415659554.0,0.0
-3.04367,-10.133603,-3.031706,14.21,3.15,-4.2,1729415659573.0,0.0
-3.871587,-14.993427,-4.299902,-2.45,2.31,-22.4,1729415659593.0,0.0
-4.663611,-11.68176,-3.359523,59.990002,31.85,-30.309999,1729415659614.0,0.0
-3.041277,-10.430314,-4.601398,20.93,61.459999,-33.32,1729415659636.0,0.0
-0.973879,-6.489335,4.814359,74.690002,56.91,-18.41,1729415659652.0,0.0
-1.122234,-5.075177,9.573684,155.190002,3.22,-1.12,1729415659673.0,0.0
-2.376073,-8.886944,4.046263,-12.67,7.98,-17.43,1729415659693.0,0.0
-3.165704,-7.829315,4.237689,-31.85,17.360001,-7.28,1729415659714.0,0.0
-1.825724,-5.781059,4.005585,-34.09,9.03,7.84,1729415659734.0,0.0
-3.282953,-9.939785,1.107877,-67.410004,4.9,16.52,1729415659753.0,0.0
-4.474578,-10.224532,1.215554,-91.0,-7.91,15.190001,1729415659773.0,0.0
-3.850052,-9.542577,-1.189233,-123.620003,-30.52,8.61,1729415659794.0,0.0
-5.546563,-7.788638,-2.423929,-115.080002,-49.77,4.9,1729415659814.0,0.0
-5.259424,-9.698111,-8.51127,-71.190002,-58.170002,12.04,1729415659833.0,0.0
-3.349952,-9.786645,-12.057433,-22.33,-36.889999,-6.51,1729415659854.0,0.0
-4.591826,-8.063812,-8.336594,95.340004,-6.37,1.96,1729415659875.0,0.0
-3.156133,-8.274381,-4.206582,35.91,0.28,-9.87,1729415659893.0,0.0
-2.854637,-10.470992,-1.866402,-3.01,-1.19,-16.870001,1729415659915.0,0.0
-3.632305,-12.339786,-3.981657,16.66,10.85,-19.74,1729415659934.0,0.0
-4.697111,-11.497513,-3.503092,24.92,50.82,-28.139999,1729415659953.0,0.0
-3.232704,-9.879964,2.816352,43.610001,75.459999,-23.66,1729415659973.0,0.0
-0.011964,-11.327622,2.440679,93.169998,23.799999,1.89,1729415659993.0,0.0
-3.026921,-6.948757,5.252246,148.470001,35.07,-15.190001,1729415660015.0,0.0
-1.758725,-6.9344,6.211767,48.16,23.17,-1.82,1729415660039.0,0.0
-0.409173,-9.844072,3.601198,-56.77,17.15,-9.38,1729415660054.0,0.0
-2.943172,-8.925228,4.053442,-23.309999,5.6,-0.42,1729415660073.0,0.0
-5.039285,-9.793823,2.782853,-13.51,-8.75,0.56,1729415660095.0,0.0
-3.996014,-10.277173,1.442872,-59.290001,-27.02,-15.61,1729415660114.0,0.0
-3.428915,-7.429714,-2.301895,-104.370003,-36.119999,-18.620001,1729415660133.0,0.0
-2.270789,-8.075776,-5.149354,-130.759995,-52.990002,-8.4,1729415660153.0,0.0
-3.160919,-6.855437,-5.067998,-77.559998,-53.970001,-7.91,1729415660172.0,0.0
-6.13759,-7.65464,-9.375079,34.93,-57.68,22.120001,1729415660195.0,0.0
-4.383651,-11.68176,-13.447663,-23.940001,-30.380001,-17.43,1729415660214.0,0.0
-3.136991,-8.106883,-6.80758,18.34,3.5,0.98,1729415660238.0,0.0
-2.935993,-11.820543,1.225125,30.52,15.4,17.92,1729415660253.0,0.0
-4.563113,-13.88555,2.397608,49.420002,19.389999,1.96,1729415660274.0,0.0
-4.680361,-10.035499,-3.696911,53.34,50.330002,-19.950001,1729415660293.0,0.0
-1.698904,-9.267403,1.01695,72.309998,88.269997,-14.28,1729415660315.0,0.0
1.526621,-10.664811,5.479564,236.529999,23.940001,21.49,1729415660334.0,0.0
-1.928615,-9.442079,5.520242,262.149994,52.990002,2.8,1729415660352.0,0.0
-1.524228,-7.499106,5.828916,130.479996,39.060001,-6.58,1729415660372.0,0.0
1.11027,-8.91805,5.254639,46.759998,21.98,-2.94,1729415660392.0,0.0
-0.930808,-6.915257,4.445865,101.220001,13.440001,10.85,1729415660424.0,0.0
-4.505685,-7.391429,3.09392,112.559998,10.71,27.719999,1729415660434.0,0.0
-4.201797,-7.77428,3.314059,24.85,-0.77,18.690001,1729415660454.0,0.0
-3.694518,-8.956335,2.237289,-89.040001,-17.290001,11.13,1729415660472.0,0.0
-3.014957,-13.294522,5.383851,-149.240005,-43.259998,3.78,1729415660494.0,0.0
-6.709475,-4.15394,0.409173,-157.639999,-87.360001,3.29,1729415660515.0,0.0
-2.689533,-12.77528,-12.260822,-167.440002,-99.889999,-17.219999,1729415660535.0,0.0
-1.986043,-10.195816,-10.277173,3.43,-36.75,-10.64,1729415660552.0,0.0
-5.422136,-6.472585,-4.589434,19.67,10.78,-4.2,1729415660575.0,0.0
-4.12044,-8.437093,-1.318445,-74.970001,4.48,-10.43,1729415660602.0,0.0
-4.015156,-10.447062,-1.083949,-73.639999,-4.55,-18.48,1729415660614.0,0.0
-4.630112,-11.806188,-1.557728,-88.340004,9.1,-24.57,1729415660651.0,0.0
-4.347759,-12.033505,-0.069392,-34.02,37.450001,-27.790001,1729415660657.0,0.0
-4.960321,-13.548162,-5.276174,67.059998,67.760002,-27.790001,1729415660674.0,0.0
-3.09392,-9.159724,-4.548756,100.660004,112.279999,-38.150002,1729415660693.0,0.0
-0.947558,-5.601598,13.897513,119.209999,79.309998,-7.77,1729415660713.0,0.0
4.197011,-7.200003,5.943772,46.549999,18.41,-32.41,1729415660736.0,0.0
0.928415,-5.474778,7.377072,-39.34,7.28,-11.2,1729415660753.0,0.0
-2.586641,-10.569098,4.555934,-32.34,-2.31,0.14,1729415660773.0,0.0
-3.328416,-10.124033,3.053242,35.630001,-1.26,3.57,1729415660795.0,0.0
-1.454836,-10.432706,1.45005,31.85,-11.27,8.12,1729415660814.0,0.0
-1.792224,-9.044869,1.823331,0.84,-17.639999,9.59,1729415660833.0,0.0
-1.859223,-11.322837,4.462614,-52.150002,-44.869999,5.95,1729415660852.0,0.0
-5.036892,-2.766103,-1.162912,-73.080002,-78.190002,-5.11,1729415660875.0,0.0
-1.65344,-10.461421,-7.872386,-94.989998,-94.709999,-7.77,1729415660895.0,0.0
-5.333601,-10.095319,-11.468799,-50.330002,-50.049999,5.18,1729415660916.0,0.0
-4.843073,-7.068398,-6.192625,21.139999,-18.620001,28.35,1729415660934.0,0.0
-3.749553,-8.815158,-6.199803,14.14,-13.37,13.79,1729415660952.0,0.0
-4.838287,-8.953942,-4.943572,4.41,4.41,6.58,1729415660972.0,0.0
-4.321437,-9.396614,0.634098,0.35,6.3,7.91,1729415660993.0,0.0
-6.080163,-10.805987,3.962514,-30.52,-6.44,3.64,1729415661014.0,0.0
-5.120641,-11.282159,-0.715454,-96.529999,-2.38,-7.42,1729415661036.0,0.0
-3.718446,-11.284552,-2.481357,-98.0,26.040001,-27.65,1729415661054.0,0.0
-5.209175,-13.024135,-2.277967,-26.110001,60.619999,-14.14,1729415661074.0,0.0
-2.091327,-11.351551,-3.675375,19.460001,55.510002,-18.83,1729415661092.0,0.0
0.241675,-10.889735,-3.622734,22.960001,38.360001,-24.710001,1729415661115.0,0.0
-3.041277,-8.157133,-2.572284,-9.24,67.970001,-30.799999,1729415661133.0,0.0
-0.382852,-5.532206,4.685147,-21.98,49.0,-20.370001,1729415661154.0,0.0
0.287139,-9.040084,0.232104,-34.509998,24.639999,-24.99,1729415661173.0,0.0
-5.316852,-9.355937,0.744168,-78.120003,44.799999,-24.5,1729415661194.0,0.0
-3.024528,-8.310273,0.141177,-81.129997,31.5,-13.440001,1729415661213.0,0.0
-3.349952,-10.284351,-0.222532,-109.270004,20.860001,-23.309999,1729415661235.0,0.0
-3.268596,-9.296116,1.105484,-82.110001,7.63,-27.51,1729415661254.0,0.0
-2.301895,-9.312866,1.78026,-69.790001,-8.19,-33.18,1729415661274.0,0.0
-0.854238,-9.29133,0.543171,-94.709999,-25.620001,-35.91,1729415661294.0,0.0
0.519243,-10.774881,-1.26341,-117.110001,-35.139999,-34.509998,1729415661314.0,0.0
1.347159,-11.837293,-2.940779,-117.529999,-39.970001,-31.85,1729415661333.0,0.0
1.062413,-10.573883,-3.917051,-98.769997,-37.939999,-26.530001,1729415661353.0,0.0
0.440279,-9.74836,-4.15394,-102.970001,-31.780001,-16.940001,1729415661372.0,0.0
0.177069,-9.915856,-4.345366,-146.089996,-29.82,-9.73,1729415661392.0,0.0
-0.069392,-9.229117,-4.04387,-161.490005,-33.459999,-4.69,1729415661413.0,0.0
-0.760918,-6.278766,-4.185047,-153.300003,-40.599998,5.88,1729415661434.0,0.0
-1.904687,-5.726025,-5.972485,-162.610001,-35.07,20.790001,1729415661453.0,0.0
-2.426322,-9.016156,-9.920642,-130.059998,-16.309999,27.65,1729415661474.0,0.0
-1.612763,-8.693125,-11.241481,-60.830002,2.59,34.16,1729415661492.0,0.0
-1.72044,-5.773881,-10.159925,0.91,16.52,54.25,1729415661515.0,0.0
-1.521835,-5.943772,-10.021141,14.49,34.509998,67.129997,1729415661534.0,0.0
-2.172683,-7.068398,-9.444471,24.01,49.349998,68.110001,1729415661552.0,0.0
-1.969293,-6.412765,-9.243474,44.73,48.720001,65.590004,1729415661572.0,0.0
-2.014757,-5.781059,-8.458629,67.199997,49.420002,63.91,1729415661593.0,0.0
-2.282753,-4.622933,-7.515855,87.360001,45.639999,66.150002,1729415661612.0,0.0
-2.569891,-5.285746,-7.025328,73.010002,50.259998,65.870003,1729415661633.0,0.0
-2.782853,-5.754738,-6.439085,52.5,50.470001,62.23,1729415661665.0,0.0
-2.868994,-6.465407,-5.924629,41.860001,49.560001,57.75,1729415661672.0,0.0
-2.785245,-5.87438,-5.929415,42.07,43.470001,53.130001,1729415661694.0,0.0
-3.055635,-5.082355,-6.312266,38.57,39.200001,50.82,1729415661715.0,0.0
-3.189633,-5.144568,-7.302894,21.0,40.529999,53.130001,1729415661733.0,0.0
-3.28056,-5.166104,-8.788837,10.08,48.16,51.240002,1729415661752.0,0.0
-3.775874,-4.462614,-9.906286,15.89,55.580002,54.880001,1729415661772.0,0.0
-4.17069,-4.414758,-9.056834,4.83,74.410004,48.23,1729415661792.0,0.0
-4.412365,-4.371687,-6.594619,-7.35,79.660004,44.59,1729415661813.0,0.0
-4.833502,-8.822337,-3.314059,-46.41,81.269997,24.219999,1729415661833.0,0.0
-4.134798,-11.047661,-1.086342,-71.889999,63.490002,-10.99,1729415661853.0,0.0
-1.986043,-8.300702,-6.728617,-5.11,28.139999,-36.82,1729415661878.0,0.0
-1.167697,-4.426722,-5.587241,12.25,11.76,-67.970001,1729415661892.0,0.0
-1.842474,-3.924229,-6.34098,-61.529999,9.59,-76.300003,1729415661912.0,0.0
-0.248854,-8.056634,-9.262616,-96.879997,12.11,-98.489998,1729415661933.0,0.0
1.22034,-8.197811,-4.95075,-30.59,-0.28,-114.800003,1729415661952.0,0.0
-2.455036,-5.721239,-4.079762,-22.190001,-9.8,-120.050003,1729415661977.0,0.0
-0.117248,-2.660819,-7.267002,-35.0,-19.74,-107.169998,1729415661993.0,0.0
0.655633,-6.398407,-5.221139,-49.07,-32.27,-83.93,1729415662013.0,0.0
-3.105884,-11.303694,-5.182854,-88.269997,-31.290001,-74.410004,1729415662034.0,0.0
-1.981257,-10.516455,-4.924429,-11.55,-44.869999,-72.519997,1729415662051.0,0.0
-1.56012,-7.458428,-5.178068,58.52,-54.18,-50.119999,1729415662072.0,0.0
-1.777867,-7.310073,-7.178468,46.759998,-42.700001,-18.83,1729415662092.0,0.0
-1.899901,-8.831908,-5.297709,38.5,-32.200001,9.94,1729415662115.0,0.0
-3.462414,-11.035697,-3.598805,37.59,-24.360001,31.57,1729415662134.0,0.0
-4.208975,-12.313466,-3.615555,27.51,-19.18,46.41,1729415662151.0,0.0
-2.490928,-10.028319,-3.479164,33.740002,-28.0,53.619999,1729415662172.0,0.0
-2.888137,-9.686146,-4.778467,18.9,-29.75,69.300003,1729415662193.0,0.0
-1.411765,-12.882957,-10.779665,-35.0,-30.73,68.599998,1729415662213.0,0.0
3.546163,-13.875979,-18.745371,-27.93,-10.15,76.019997,1729415662235.0,0.0
2.15354,-3.974478,-12.129218,161.910004,1.47,96.669998,1729415662253.0,0.0
-0.538385,6.63769,-9.836893,227.919998,9.73,154.839996,1729415662272.0,0.0
-0.866202,-3.215954,-5.867201,14.98,61.32,149.589996,1729415662293.0,0.0
-3.134598,-10.399208,-2.038685,-109.900002,59.920002,124.459999,1729415662314.0,0.0
-3.223132,-6.98465,-3.909872,-26.25,4.48,97.370003,1729415662333.0,0.0
-3.306881,-6.020342,-6.458229,-17.08,-14.84,63.209999,1729415662351.0,0.0
-4.596612,-8.176274,-6.116055,-35.490002,-13.23,20.719999,1729415662377.0,0.0
-4.845466,-5.4341,-6.618547,-10.15,-26.880001,-19.18,1729415662392.0,0.0
-4.299902,-3.907479,-6.79083,-18.549999,-30.17,-52.5,1729415662413.0,0.0
-3.948158,-4.225725,-5.237889,-25.83,-30.870001,-79.239998,1729415662433.0,0.0
-3.270989,-4.103691,-7.178468,-36.049999,-39.27,-94.360001,1729415662452.0,0.0
-3.400201,-4.838287,-9.183653,-61.950001,-37.240002,-111.370003,1729415662473.0,0.0
-3.689733,-4.237689,-9.607183,-43.259998,-33.950001,-121.730003,1729415662493.0,0.0
-2.517249,-3.699304,-7.290931,-19.18,-39.900002,-117.669998,1729415662512.0,0.0
-0.612563,-1.598405,-4.347759,-39.48,-48.93,-105.840004,1729415662532.0,0.0
-3.926622,-5.489135,-9.300901,-136.220001,-54.25,-88.129997,1729415662553.0,0.0
-3.306881,-3.584448,-8.73141,-108.709999,-52.220001,-68.949997,1729415662574.0,0.0
-2.055435,-6.829116,-5.17089,-113.260002,-58.380001,-19.25,1729415662593.0,0.0
-4.185047,-14.218152,-9.178867,-175.630005,-32.27,-32.830002,1729415662613.0,0.0
-4.144369,-13.435699,-9.975677,-60.48,-47.18,-52.43,1729415662634.0,0.0
-3.371487,-8.190632,-8.472985,52.150002,-46.830002,-46.34,1729415662652.0,0.0
-3.072384,-8.965906,-7.118648,67.129997,-27.370001,-25.969999,1729415662674.0,0.0
-2.981457,-9.518648,-6.549156,41.790001,-13.09,-8.12,1729415662693.0,0.0
-3.163311,-10.530812,-6.52762,57.049999,-5.74,8.33,1729415662712.0,0.0
-3.845266,-10.078569,-4.685147,53.200001,5.04,19.18,1729415662733.0,0.0
-3.682554,-9.674182,-4.656433,45.779999,0.07,28.42,1729415662752.0,0.0
-3.438486,-7.688138,-4.457829,35.700001,-7.91,35.420002,1729415662771.0,0.0
-4.383651,-9.279366,-5.867201,22.469999,-4.9,56.490002,1729415662793.0,0.0
-4.031906,-11.729616,-11.892329,42.84,-0.84,59.639999,1729415662822.0,0.0
0.014357,-12.600604,-16.407585,114.660004,18.83,58.59,1729415662904.0,0.0
-0.217747,-6.326623,-10.212566,265.860016,39.970001,72.519997,1729415662908.0,0.0
-2.902494,2.378466,-7.819745,301.070007,35.420002,111.510002,1729415662913.0,0.0
-1.426122,-5.623133,-7.77428,127.400002,56.490002,119.910004,1729415662915.0,0.0
-5.252246,-6.211767,-2.371287,24.219999,60.34,113.470001,1729415662915.0,0.0
-4.761717,-6.728617,-4.04387,59.150002,32.549999,94.639999,1729415662932.0,0.0
-3.739982,-8.626125,-7.858029,81.970001,21.42,68.669998,1729415662951.0,0.0
-3.54377,-4.512863,-6.628119,136.710007,15.68,59.43,1729415662971.0,0.0
-4.979464,-2.912065,-4.555934,102.760002,21.700001,50.82,1729415662991.0,0.0
-8.044669,-1.70369,0.507278,8.54,12.88,49.279999,1729415663012.0,0.0
-7.936993,-4.65404,-1.978864,-55.369999,-3.15,9.38,1729415663035.0,0.0
-6.905686,-6.118448,-3.345166,-74.830002,-20.09,-34.439999,1729415663051.0,0.0
-5.426922,-5.067998,-1.801795,-95.480003,-43.259998,-70.769997,1729415663071.0,0.0
-4.481757,-2.766103,-6.774081,-189.630005,-51.73,-94.43,1729415663091.0,0.0
-3.625126,-4.414758,-12.763316,-274.399994,-44.240002,-137.130005,1729415663112.0,0.0
-2.455036,-4.493721,-11.727223,-247.800003,-37.869999,-164.779999,1729415663132.0,0.0
-0.179462,-2.313859,-11.92822,-209.509995,-37.380001,-170.240005,1729415663151.0,0.0
-0.184247,-2.127219,-9.296116,-208.039993,-30.030001,-152.669998,1729415663171.0,0.0
-3.876373,-7.068398,-0.875773,-234.220001,-43.049999,-136.430008,1729415663191.0,0.0
-5.063213,-6.750153,-8.281559,-183.190002,-59.709999,-138.529999,1729415663212.0,0.0
-4.737789,-9.470792,-7.814958,-26.040001,-60.619999,-82.739998,1729415663232.0,0.0
-2.737389,-9.422935,-7.314859,-28.630001,-59.5,-63.560001,1729415663251.0,0.0
-3.445665,-9.896714,-9.387043,31.01,-45.709999,-53.619999,1729415663271.0,0.0
-3.4672,-9.133404,-7.767102,97.440002,-35.77,-20.93,1729415663291.0,0.0
-2.790031,-9.489935,-6.553941,115.080002,-10.85,7.56,1729415663312.0,0.0
-2.928815,-13.050454,-5.489135,86.519997,25.549999,28.84,1729415663333.0,0.0
-3.57727,-15.553347,-4.551149,100.590004,45.57,33.040001,1729415663351.0,0.0
-3.562913,-10.325029,-1.574477,167.789993,34.720001,26.530001,1729415663372.0,0.0
-3.792624,-5.79781,-0.607777,212.100006,21.280001,52.57,1729415663391.0,0.0
-4.072584,-4.591826,-5.257031,125.790001,22.540001,81.059998,1729415663412.0,0.0
-3.388237,-9.030513,-9.396614,38.920002,38.57,94.919998,1729415663432.0,0.0
-1.287339,-11.279767,-13.686946,96.040001,59.779999,111.230003,1729415663451.0,0.0
-4.127619,-5.072784,-8.29113,226.449997,59.779999,147.419998,1729415663470.0,0.0
-3.278167,-0.260818,-4.63729,179.899994,41.509998,145.880005,1729415663492.0,0.0
-2.773281,-7.367501,-4.208975,15.68,54.810001,108.150002,1729415663512.0,0.0
-4.187439,-12.559926,-6.470192,-7.21,36.330002,66.639999,1729415663532.0,0.0
-4.036692,-8.025528,-8.12124,83.300003,7.56,45.709999,1729415663551.0,0.0
-5.465207,-5.481956,-3.041277,82.32,28.280001,28.84,1729415663571.0,0.0
-6.025128,-2.914458,-3.962514,100.870003,22.33,45.150002,1729415663592.0,0.0
-5.577669,-7.51107,-7.109076,75.32,33.040001,40.25,1729415663611.0,0.0
-5.307281,-8.360522,-6.982256,107.379997,31.290001,34.650002,1729415663632.0,0.0
-6.12084,-4.113262,-3.409772,125.650002,25.969999,23.73,1729415663650.0,0.0
-8.748159,-1.330409,0.294317,44.170002,13.37,5.53,1729415663670.0,0.0
-9.401401,-3.349952,-2.151148,-60.830002,-2.8,-27.790001,1729415663698.0,0.0
-8.84148,-3.177669,-3.172883,-131.110001,-24.710001,-64.959999,1729415663712.0,0.0
-5.716454,-3.096312,-5.486742,-213.710007,-31.639999,-117.459999,1729415663733.0,0.0
-3.498307,-4.139583,-8.535198,-290.360016,-30.17,-154.419998,1729415663751.0,0.0
-0.811167,-5.166104,-13.718053,-342.649994,-24.219999,-183.75,1729415663772.0,0.0
1.167697,-4.488935,-16.354942,-319.619995,-4.9,-185.990005,1729415663795.0,0.0
0.210568,-4.98425,-6.843473,-177.940002,2.52,-172.759995,1729415663814.0,0.0
-1.397408,-2.37368,0.78006,-147.559998,-30.309999,-154.910004,1729415663833.0,0.0
-4.587041,-7.867601,-4.740182,-138.110001,-52.639999,-138.880005,1729415663851.0,0.0
-3.314059,-9.839286,-5.898308,-114.239998,-59.43,-126.489998,1729415663872.0,0.0
-2.481357,-9.851252,-8.745767,38.990002,-63.700001,-67.129997,1729415663891.0,0.0
-2.634498,-7.700103,-8.35813,94.849998,-56.420002,-37.66,1729415663914.0,0.0
-2.127219,-6.910471,-6.336195,80.919998,-39.200001,-1.75,1729415663932.0,0.0
-1.854438,-9.98525,-7.116255,32.130001,-3.01,24.15,1729415663952.0,0.0
-2.301895,-10.279566,-3.85723,27.51,15.61,46.48,1729415663975.0,0.0
-2.512464,-11.219944,-4.850252,24.360001,23.59,54.810001,1729415663994.0,0.0
-3.251846,-11.595619,-4.797609,23.24,25.9,48.790001,1729415664015.0,0.0
-4.809574,-10.284351,-3.412165,9.31,22.26,45.639999,1729415664035.0,0.0
-4.034299,-9.609575,-5.350351,-33.110001,16.1,42.630001,1729415664052.0,0.0
-3.996014,-9.401401,-8.114061,-51.73,14.7,50.400002,1729415664075.0,0.0
-3.335595,-10.832308,-10.638489,11.69,26.25,64.120003,1729415664096.0,0.0
-3.09392,-7.379465,-11.31805,154.979996,26.880001,78.120003,1729415664116.0,0.0
-0.622134,-4.285545,-12.902101,230.089996,45.5,95.690002,1729415664134.0,0.0
-5.261817,1.773082,-4.699504,247.520004,53.830002,133.770004,1729415664155.0,0.0
-2.502892,-4.331009,-5.812167,102.410004,54.110001,148.399994,1729415664174.0,0.0
-4.359723,-8.652447,-9.329616,72.940002,52.150002,132.720001,1729415664193.0,0.0
-3.067599,-9.497113,-10.037891,130.199997,37.099998,117.949997,1729415664215.0,0.0
-4.115655,-5.919843,-8.236095,188.930008,35.84,93.309998,1729415664235.0,0.0
-4.869394,-3.596412,-5.163712,186.550003,34.650002,83.93,1729415664254.0,0.0
-5.453243,-7.977671,-5.070391,125.440002,43.470001,66.5,1729415664274.0,0.0
-5.907879,-7.676175,-4.754539,105.840004,39.619999,40.25,1729415664296.0,0.0
-7.771888,-1.70369,1.98365,101.010002,10.5,24.43,1729415664314.0,0.0
-7.941778,-2.866602,0.710668,8.89,-12.81,-3.92,1729415664333.0,0.0
-8.102098,-5.618347,-2.359323,-91.279999,-30.870001,-49.560001,1729415664354.0,0.0
-7.757531,-5.647062,-2.68714,-161.910004,-48.860001,-94.220001,1729415664373.0,0.0
-6.281159,-5.582455,-5.118248,-235.970001,-54.740002,-148.190002,1729415664394.0,0.0
-3.462414,-3.878766,-11.298907,-283.360016,-51.240002,-193.479996,1729415664418.0,0.0
-1.615155,-3.038885,-11.794223,-276.5,-36.68,-202.720001,1729415664433.0,0.0
2.098505,-2.11047,-15.270994,-282.799988,-21.77,-196.279999,1729415664454.0,0.0
-1.701297,-2.079363,-4.508078,-156.380005,-39.619999,-157.289993,1729415664475.0,0.0
-3.830909,-4.063013,-7.752745,-186.550003,-53.41,-132.789993,1729415664493.0,0.0
-4.754539,-2.100898,-9.497113,-142.660004,-62.439999,-90.300003,1729415664515.0,0.0
-4.096512,-9.260223,-5.010571,-136.5,-43.189999,-64.050003,1729415664536.0,0.0
-3.955336,-12.552748,-6.058627,-62.650002,-38.360001,-47.25,1729415664552.0,0.0
-4.228118,-10.554741,-6.06102,68.669998,-43.82,-35.98,1729415664574.0,0.0
-3.261417,-7.506285,-6.565905,98.349998,-31.99,-13.65,1729415664593.0,0.0
-3.352344,-9.001799,-6.111269,61.670002,-4.69,18.129999,1729415664613.0,0.0
-2.651247,-11.892329,-7.020542,54.810001,19.460001,40.040001,1729415664635.0,0.0
-1.828116,-12.16511,-6.4678,85.610001,22.049999,55.02,1729415664653.0,0.0
-2.254039,-11.650653,-5.556134,112.699997,31.43,57.189999,1729415664672.0,0.0
-3.462414,-8.99462,-4.055835,110.32,37.52,63.07,1729415664693.0,0.0
-4.548756,-6.759724,-3.273381,102.129997,32.48,74.760002,1729415664714.0,0.0
-4.852644,-8.116454,-5.74756,54.740002,29.68,92.540001,1729415664733.0,0.0
-3.68734,-13.490734,-10.997414,59.150002,39.200001,93.519997,1729415664752.0,0.0
-1.462015,-13.995619,-15.014962,179.410004,51.66,90.090004,1729415664773.0,0.0
-1.679761,-4.292724,-8.346166,352.589996,59.290001,101.010002,1729415664792.0,0.0
-1.323231,0.361316,-7.826923,355.670013,74.970001,130.899994,1729415664813.0,0.0
-2.940779,-6.484549,-6.515656,108.639999,105.139999,124.040001,1729415664834.0,0.0
-5.529813,-7.156933,-2.347359,79.449997,71.120003,111.93,1729415664852.0,0.0
-5.998806,-8.159525,-2.541178,73.639999,42.139999,62.93,1729415664872.0,0.0
-5.338387,-5.95095,-1.217947,75.389999,11.2,26.530001,1729415664893.0,0.0
-6.309873,-3.098706,-0.952343,13.79,-10.57,-0.14,1729415664914.0,0.0
-7.422535,-3.07717,-3.041277,-84.0,-18.76,-23.309999,1729415664933.0,0.0
-7.45125,-4.058227,-6.02752,-139.580002,-25.9,-46.619999,1729415664953.0,0.0
-6.678369,-3.464807,-6.630512,-147.490005,-27.51,-75.110001,1729415664972.0,0.0
-6.257231,-2.596212,-5.979663,-159.809998,-27.02,-94.919998,1729415664992.0,0.0
-3.641876,-5.517848,-8.513663,-242.479996,-23.799999,-117.389999,1729415665014.0,0.0
-1.995614,-8.879765,-10.834702,-271.25,-13.09,-140.350006,1729415665036.0,0.0
-2.129612,-5.134997,-13.177275,-114.520004,-15.4,-187.880005,1729415665052.0,0.0
-6.680761,-1.40698,-0.598206,-70.349998,-43.82,-143.289993,1729415665073.0,0.0
-3.759124,-2.900101,-11.246266,-166.039993,-28.210001,-149.729996,1729415665094.0,0.0
-1.368695,-1.852045,-9.798609,-143.5,-23.24,-115.779999,1729415665114.0,0.0
-0.320638,-6.326623,-7.869993,-125.93,-16.52,-66.57,1729415665135.0,0.0
-2.376073,-13.976478,-3.04367,-162.889999,-11.48,-66.989998,1729415665152.0,0.0
-3.342773,-14.098512,-6.860222,-69.790001,-27.719999,-72.379997,1729415665173.0,0.0
-2.629712,-10.145569,-5.754738,59.779999,-37.029999,-53.549999,1729415665194.0,0.0
-2.28036,-8.02792,-4.907679,81.410004,-25.620001,-21.559999,1729415665216.0,0.0
-3.605984,-8.623734,-4.67079,44.029999,2.03,-1.47,1729415665233.0,0.0
-4.084548,-10.760524,-5.000999,37.52,21.0,26.950001,1729415665254.0,0.0
-2.742175,-11.033305,-5.367101,57.189999,24.360001,46.970001,1729415665273.0,0.0
-1.641476,-10.741381,-5.807381,68.669998,27.16,59.010002,1729415665294.0,0.0
-2.275574,-9.157332,-5.663811,73.779999,33.810001,70.489998,1729415665314.0,0.0
-2.823531,-6.592227,-6.850651,77.07,30.73,82.32,1729415665335.0,0.0
-2.376073,-5.481956,-8.886944,50.049999,30.380001,101.57,1729415665352.0,0.0
-1.143769,-10.590633,-12.801601,32.130001,50.049999,113.889999,1729415665372.0,0.0
-1.691726,-14.036297,-15.651453,147.979996,73.57,114.169998,1729415665392.0,0.0
