acc_x,acc_y,acc_z,gyr_x,gyr_y,gyr_z,timestamp,label
-4.733003,-5.893522,-9.071191,14.84,36.400002,3.85,1729424737898.0,0.0
-4.383651,-6.798009,-9.75793,42.98,51.380001,5.32,1729424737900.0,0.0
-3.665804,-6.60419,-9.875179,84.769997,53.619999,10.22,1729424737901.0,0.0
-3.046063,-6.168696,-9.092726,134.680008,45.990002,18.549999,1729424737910.0,0.0
-2.469393,-6.951149,-9.399008,167.509995,53.060001,15.26,1729424737927.0,0.0
-1.684547,-7.482357,-9.171689,181.440002,59.779999,15.12,1729424737948.0,0.0
-0.713061,-7.106683,-7.972885,172.899994,62.510002,15.96,1729424737966.0,0.0
-0.07657,-6.460621,-7.219146,141.820007,75.809998,10.29,1729424737986.0,0.0
0.01675,-5.446064,-5.151747,122.43,92.260002,14.98,1729424738010.0,0.0
-0.375673,-5.831308,-1.651048,115.43,96.879997,30.940001,1729424738027.0,0.0
0.086142,-7.690532,-0.545564,83.720001,77.0,27.93,1729424738047.0,0.0
1.337588,-8.673983,-0.20339,30.52,46.689999,19.460001,1729424738066.0,0.0
1.17009,-9.138189,3.28056,15.4,34.790001,14.91,1729424738086.0,0.0
-0.744168,-7.106683,3.828516,51.869999,24.219999,15.96,1729424738106.0,0.0
-1.875973,-5.003392,3.668197,58.029999,-34.09,29.82,1729424738127.0,0.0
-2.744568,-3.866802,-0.72024,24.15,-87.290001,28.49,1729424738147.0,0.0
-4.797609,-12.526425,-6.73101,-6.93,-98.07,30.24,1729424738166.0,0.0
-5.381458,-16.486549,-19.451256,-143.570007,-51.380001,-11.27,1729424738187.0,0.0
-7.800602,-11.152946,-13.399807,-109.970001,122.43,-14.21,1729424738206.0,0.0
-10.202995,-10.339387,-7.403394,51.380001,168.559998,28.84,1729424738227.0,0.0
-5.785845,-9.219545,-10.638489,160.509995,43.049999,25.690001,1729424738247.0,0.0
-0.452243,-7.267002,-7.089933,172.550003,35.279999,-0.84,1729424738266.0,0.0
1.993221,-3.024528,-1.70369,123.059998,105.699997,22.120001,1729424738286.0,0.0
1.478764,-0.325424,8.73141,95.199997,137.339996,31.639999,1729424738306.0,0.0
0.739382,-0.914058,6.498906,63.700001,73.919998,47.110001,1729424738327.0,0.0
-1.758725,-3.912265,7.087541,53.830002,-21.91,61.32,1729424738347.0,0.0
-3.517449,-6.171089,8.79123,-17.92,-40.110001,74.410004,1729424738366.0,0.0
-2.555535,-9.611969,-0.294317,-79.449997,-155.539993,75.389999,1729424738386.0,0.0
-1.634298,-14.569898,-17.079967,-145.809998,-219.240005,25.83,1729424738405.0,0.0
-2.57707,-14.42872,-25.354349,-225.680008,-90.370003,-20.790001,1729424738427.0,0.0
-8.238488,-11.140982,-13.036098,-177.800003,161.350006,-4.13,1729424738447.0,0.0
-13.844872,-17.338394,-14.591432,31.780001,208.529999,13.16,1729424738465.0,0.0
-8.714661,-11.64826,-11.126624,139.020004,83.300003,-2.87,1729424738487.0,0.0
-3.9338,-5.199604,-0.660419,191.589996,60.549999,4.83,1729424738506.0,0.0
-3.407379,4.017549,10.272388,173.039993,85.610001,16.940001,1729424738528.0,0.0
-3.567699,2.947958,11.454442,95.900002,-29.75,28.630001,1729424738546.0,0.0
-3.59402,-2.76371,8.410772,-61.040001,-82.18,44.869999,1729424738565.0,0.0
0.038285,-11.133803,-6.324231,-190.680008,-222.460007,39.200001,1729424738585.0,0.0
5.592027,-10.459028,-23.447269,-295.890015,-281.049988,-15.12,1729424738606.0,0.0
0.579063,-12.559926,-30.123245,-272.790009,-66.43,-0.07,1729424738627.0,0.0
-9.600004,-11.009377,-16.881365,-185.149994,245.210007,6.86,1729424738650.0,0.0
-22.889742,-15.134604,-15.66581,28.0,339.149994,5.95,1729424738666.0,0.0
-11.3683,-7.042077,-0.976272,197.75,68.879997,32.41,1729424738685.0,0.0
-0.715454,0.713061,14.914464,271.880005,-87.709999,29.26,1729424738706.0,0.0
2.840281,0.861416,7.487142,217.490005,-87.290001,5.25,1729424738729.0,0.0
-0.622134,1.533799,8.133204,-4.27,-85.889999,-14.49,1729424738746.0,0.0
-4.613362,-5.340781,-2.624927,-150.639999,-100.449997,43.75,1729424738957.0,0.0
-1.964507,-11.52862,-15.227923,-227.009995,-174.789993,3.08,1729424738957.0,0.0
-3.48395,-16.122839,-27.768709,-242.550003,-51.52,-5.04,1729424738958.0,0.0
-8.932407,-14.261222,-15.546168,-162.539993,177.800003,0.28,1729424738958.0,0.0
-7.769495,-12.854243,-15.567703,17.01,149.589996,13.02,1729424738958.0,0.0
-1.380659,-4.197011,-4.905287,168.350006,10.08,-14.98,1729424738958.0,0.0
-0.507278,3.328416,12.495319,224.210007,101.220001,13.16,1729424738958.0,0.0
-2.471786,5.04407,12.837494,180.110001,43.119999,38.779999,1729424738959.0,0.0
-4.072584,-3.471986,5.910272,42.84,-57.400002,11.48,1729424738959.0,0.0
-4.589434,-6.699903,0.090927,-147.559998,-48.439999,13.16,1729424738959.0,0.0
-1.897508,-13.03849,-7.396214,-190.820007,-145.389999,14.56,1729424738970.0,0.0
-0.193819,-14.093725,-15.275781,-249.130005,-167.300003,-39.130001,1729424738987.0,0.0
-2.897708,-8.063812,-22.028324,-225.889999,-29.33,-66.779999,1729424739030.0,0.0
-10.205389,-12.715459,-7.704889,-73.010002,144.479996,-16.309999,1729424739057.0,0.0
-2.354537,-10.91845,-11.327622,144.690002,130.970001,60.900002,1729424739066.0,0.0
2.289931,-5.871986,-9.372685,157.289993,-30.870001,18.83,1729424739086.0,0.0
-0.31346,-3.498307,-0.177069,174.440002,20.02,-1.54,1729424739105.0,0.0
-6.312266,-4.371687,9.741181,91.489998,189.419998,15.61,1729424739127.0,0.0
-7.9011,-7.80778,0.722632,67.059998,94.360001,14.56,1729424739147.0,0.0
-3.63709,-5.371887,5.326423,79.660004,-70.419998,9.73,1729424739170.0,0.0
1.174876,-5.666204,3.524628,44.73,-173.039993,28.49,1729424739204.0,0.0
4.649254,-7.980063,-5.520242,-22.68,-238.139999,5.25,1729424739209.0,0.0
1.998007,-12.01197,-16.194624,-141.190002,-165.270004,-10.64,1729424739228.0,0.0
-3.136991,-13.107882,-20.827129,-230.720001,15.47,-48.93,1729424739248.0,0.0
-12.071791,-9.822537,-11.052447,-208.669998,228.130005,-57.610001,1729424739270.0,0.0
-19.697716,-16.632511,-14.498112,16.17,246.610001,-1.05,1729424739289.0,0.0
-7.71446,-15.244674,-15.56531,269.779999,-9.17,6.86,1729424739307.0,0.0
0.519243,-7.776673,-6.314659,374.709991,-72.660004,-12.25,1729424739332.0,0.0
3.488736,1.088734,7.932207,383.25,69.860001,-30.450001,1729424739348.0,0.0
-1.222732,6.991827,12.090932,349.230011,125.440002,-0.42,1729424739368.0,0.0
-4.833502,9.111869,10.593026,198.940002,-10.29,37.59,1729424739388.0,0.0
-5.596812,-0.401994,8.128418,40.740002,-86.940002,75.669998,1729424739408.0,0.0
-3.9338,-16.017555,-1.225125,-55.23,-148.050003,62.439999,1729424739428.0,0.0
-0.272782,-20.81995,-14.127225,-202.020004,-237.300003,0.91,1729424739449.0,0.0
0.959522,-15.275781,-12.760924,-181.440002,-153.089996,-21.35,1729424739467.0,0.0
-4.065405,-13.344771,1.107877,-27.860001,191.240005,-22.75,1729424739489.0,0.0
-10.080962,-11.210374,-2.038685,105.0,185.779999,-23.52,1729424739507.0,0.0
-9.372685,-13.004992,-4.577469,191.169998,50.189999,-39.41,1729424739661.0,0.0
-4.216154,-10.217353,-2.435893,131.529999,-42.560001,-75.110001,1729424739662.0,0.0
-0.995414,-7.879565,-1.490728,68.529999,-7.56,-73.290001,1729424739663.0,0.0
-0.823131,-6.336195,2.266003,-2.17,37.380001,-66.5,1729424739663.0,0.0
-2.624927,-7.264609,5.922236,-86.449997,64.889999,-75.529999,1729424739663.0,0.0
-3.912265,-8.35813,2.371287,-168.139999,28.139999,-77.489998,1729424739663.0,0.0
-3.804588,-10.437491,-0.256032,-221.899994,-42.139999,-83.93,1729424739664.0,0.0
-1.497907,-8.724231,0.155533,-275.940002,-79.029999,-107.520004,1729424739668.0,0.0
1.332802,-5.661418,-2.333002,-286.649994,-119.279999,-111.020004,1729424739713.0,0.0
4.945964,-0.418744,-10.021141,-302.190002,-162.330002,-122.919998,1729424739714.0,0.0
5.182854,-1.021735,-7.843673,-303.589996,-116.830002,-100.239998,1729424739728.0,0.0
-0.205783,-8.271988,-7.944171,-289.450012,6.51,-90.370003,1729424739748.0,0.0
-3.326023,-6.197411,-9.116654,-245.279999,35.91,-112.699997,1729424739767.0,0.0
-4.910072,-4.828716,-6.594619,-165.759995,4.69,-63.84,1729424739786.0,0.0
-1.493121,-6.754939,-11.667403,-110.599998,-51.029999,-37.52,1729424739806.0,0.0
-1.026521,-10.334601,-8.020741,-28.84,-6.44,8.68,1729424739827.0,0.0
-2.053042,-9.631111,-8.52802,38.150002,56.279999,40.810001,1729424739847.0,0.0
-2.557927,-9.363115,-5.211568,165.339996,46.830002,62.09,1729424739866.0,0.0
-1.744368,-9.523434,0.026321,192.430008,25.549999,61.670002,1729424739888.0,0.0
1.040878,-9.915856,-0.658026,192.289993,-23.870001,47.25,1729424739905.0,0.0
2.072184,-10.485349,-1.335195,270.970001,-55.580002,35.77,1729424739929.0,0.0
0.727418,-7.54457,-5.07757,339.709991,-38.220001,49.490002,1729424739949.0,0.0
0.930808,-5.513064,-12.169895,441.769989,-52.849998,97.580002,1729424739968.0,0.0
3.184847,-18.185452,-11.722438,628.25,-145.110001,100.379997,1729424739989.0,0.0
5.386244,-8.896514,-11.41855,521.98999,-71.889999,23.1,1729424740006.0,0.0
-0.701097,-7.118648,-2.440679,543.690002,138.740005,72.940002,1729424740028.0,0.0
-7.140182,-10.911271,2.488536,328.089996,216.720001,66.010002,1729424740048.0,0.0
-12.351749,-5.553742,13.531413,19.6,177.309998,-51.52,1729424740067.0,0.0
-11.660224,-10.413565,2.557927,3.85,64.610001,-31.639999,1729424740087.0,0.0
-6.183054,-13.363914,0.267996,10.36,-54.110001,-15.05,1729424740107.0,0.0
-0.332602,-10.444671,2.335395,65.379997,-53.900002,-39.759998,1729424740127.0,0.0
0.107677,-5.723632,7.188039,140.839996,19.040001,-31.43,1729424740149.0,0.0
-1.043271,-0.256032,9.58804,85.959999,61.25,-5.74,1729424740167.0,0.0
-1.165305,1.375873,8.068598,1.47,-0.49,27.58,1729424740186.0,0.0
-0.318245,-2.35693,7.408179,-146.020004,-52.43,45.639999,1729424740206.0,0.0
0.775275,-8.73141,0.557528,-276.709991,-87.989998,52.990002,1729424740228.0,0.0
1.167697,-14.22533,-1.189233,-333.76001,-116.690002,45.43,1729424740249.0,0.0
-0.057428,-13.237095,-3.98405,-398.299988,-50.82,12.74,1729424740267.0,0.0
-3.565305,-11.866007,-7.860423,-347.619995,23.24,-21.84,1729424740287.0,0.0
-7.178468,-15.488741,-8.324631,-177.029999,91.419998,-30.380001,1729424740307.0,0.0
-7.800602,-16.091732,-4.658825,-12.67,100.379997,-21.210001,1729424740328.0,0.0
-5.233103,-13.227524,-7.788638,80.919998,30.940001,-19.6,1729424740350.0,0.0
-1.277767,-10.585848,-6.075377,102.480003,8.89,-39.900002,1729424740367.0,0.0
0.4666,-7.121039,2.24686,42.420002,70.769997,-42.349998,1729424740386.0,0.0
-0.605384,-2.555535,9.803394,-11.06,108.5,-32.689999,1729424740407.0,0.0
-2.646462,-1.715654,8.894121,-9.1,53.41,-5.53,1729424740428.0,0.0
-3.864408,-4.701896,4.790431,0.91,-34.299999,5.04,1729424740449.0,0.0
-2.991028,-5.575277,5.393422,-21.559999,-69.230003,21.280001,1729424740468.0,0.0
0.346959,-11.440084,2.151148,83.720001,-170.449997,61.32,1729424740487.0,0.0
1.502693,-14.751752,-3.732803,148.399994,-184.660004,43.259998,1729424740507.0,0.0
-0.184247,-16.165909,-9.044869,229.320007,-111.370003,36.889999,1729424740530.0,0.0
-3.5007,-15.601204,-6.608976,243.880005,4.76,44.450001,1729424740548.0,0.0
-5.721239,-16.864614,1.069592,204.75,77.0,14.91,1729424740567.0,0.0
-4.859823,-9.650253,4.089334,114.870003,59.360001,-33.25,1729424740588.0,0.0
-3.326023,-8.714661,2.292324,108.849998,15.61,-18.9,1729424740606.0,0.0
-1.706082,-9.556933,2.234896,19.460001,17.219999,-59.849998,1729424740628.0,0.0
-0.835095,-8.35813,4.82393,-83.510002,46.48,-83.790001,1729424740651.0,0.0
-1.5003,-4.955536,9.875179,-153.440002,52.009998,-69.300003,1729424740666.0,0.0
-4.022335,-1.588834,11.569297,-232.610001,25.76,-58.099998,1729424740686.0,0.0
-7.982457,-4.378866,7.999206,-276.98999,-17.15,-50.68,1729424740707.0,0.0
-8.492127,-4.98425,5.580062,-324.730011,-59.080002,-58.869999,1729424740728.0,0.0
-5.003392,-5.659025,-2.778067,-293.51001,-149.940002,-41.02,1729424740747.0,0.0
1.557728,-8.432307,-8.001599,-264.459991,-294.630005,-41.299999,1729424740767.0,0.0
6.599405,-8.669197,-11.619547,-327.110016,-257.670013,-39.130001,1729424740786.0,0.0
0.351745,-10.96152,-9.485149,-307.579987,-1.82,-30.450001,1729424740807.0,0.0
-8.95155,-6.999006,-8.551948,-232.889999,163.869995,-21.210001,1729424740828.0,0.0
-7.707282,-6.123233,-8.719445,-194.949997,50.68,23.52,1729424740847.0,0.0
-1.115055,-11.155338,-12.351749,-115.709999,-39.130001,19.530001,1729424740866.0,0.0
4.393222,-11.277373,-10.674382,-77.980003,-6.51,21.0,1729424740899.0,0.0
4.072584,-9.810574,-3.017349,-45.290001,98.910004,28.280001,1729424740906.0,0.0
-0.014357,-9.95175,2.612962,-60.060001,129.919998,12.88,1729424740929.0,0.0
-1.976472,-9.422935,4.0008,-101.849998,76.790001,-17.15,1729424740948.0,0.0
-2.486143,-7.283752,-0.143569,-89.529999,4.97,-32.900002,1729424740966.0,0.0
-2.904887,-3.424129,-1.414158,-74.690002,-27.09,-40.32,1729424740986.0,0.0
-0.770489,-2.012364,-5.04407,-90.370003,-70.699997,-26.110001,1729424741007.0,0.0
2.835495,-2.974278,-13.103097,-130.690002,-103.599998,-14.91,1729424741028.0,0.0
2.708675,-7.410572,-14.373686,-152.529999,-56.84,-7.14,1729424741048.0,0.0
-2.361716,-8.207381,-14.888142,-136.990005,47.810001,9.73,1729424741066.0,0.0
-6.063413,-10.08814,-12.01197,-70.139999,103.949997,11.55,1729424741086.0,0.0
-2.995814,-8.252845,-12.796815,-4.62,50.400002,29.75,1729424741107.0,0.0
1.385444,-7.439285,-11.093125,101.010002,3.01,39.27,1729424741127.0,0.0
-0.545564,-7.683353,-6.762117,105.0,75.879997,7.56,1729424741150.0,0.0
-2.273181,-10.849058,-3.689733,62.860001,104.019997,-19.32,1729424741166.0,0.0
-1.423729,-8.173882,-1.837688,61.599998,52.57,-48.720001,1729424741187.0,0.0
-0.433101,-3.694518,-5.558527,97.93,1.47,-54.25,1729424741206.0,0.0
-1.682154,-0.540778,-3.565305,115.360001,3.43,-42.560001,1729424741228.0,0.0
-2.998207,-2.342573,-2.761317,79.660004,-1.61,-17.780001,1729424741247.0,0.0
0.708275,-6.228518,-7.092326,-22.33,-82.040001,-31.219999,1729424741266.0,0.0
4.728218,-7.317252,-11.475977,-93.730003,-103.32,-42.77,1729424741286.0,0.0
3.062813,-5.608776,-8.489735,-67.760002,-22.960001,-27.790001,1729424741307.0,0.0
-2.531606,-5.613562,-9.834501,27.440001,60.619999,3.92,1729424741327.0,0.0
-4.596612,-6.245267,-9.226725,28.139999,82.25,21.49,1729424741346.0,0.0
-1.301696,-5.032106,-11.925828,1.4,23.17,60.27,1729424741366.0,0.0
2.510071,-8.721838,-11.420943,62.16,-5.95,63.560001,1729424741386.0,0.0
2.919244,-8.707481,-8.891729,35.630001,70.209999,52.080002,1729424741406.0,0.0
0.160319,-9.236296,-3.531806,4.06,116.550003,45.220001,1729424741428.0,0.0
-1.39023,-9.793823,-0.37328,-21.559999,95.620003,11.48,1729424741448.0,0.0
-0.705883,-9.468399,-1.679761,-56.560001,27.23,-17.85,1729424741466.0,0.0
1.445265,-7.666604,-5.737988,-60.060001,-22.26,-46.200001,1729424741487.0,0.0
1.205983,-6.029913,-4.599005,-9.66,-42.560001,-58.380001,1729424741506.0,0.0
2.273181,-5.180461,-5.955735,-60.130001,-72.099998,-66.779999,1729424741528.0,0.0
4.017549,-1.488336,-8.532805,-121.099998,-78.190002,-66.919998,1729424741548.0,0.0
3.426522,-0.624527,-11.559726,-86.309998,-50.189999,-30.870001,1729424741566.0,0.0
1.555335,-2.706282,-12.457035,-10.99,-9.8,11.41,1729424741586.0,0.0
-0.746561,-4.462614,-12.952348,7.84,39.27,45.5,1729424741606.0,0.0
-0.768096,-6.226124,-11.267801,-23.379999,54.25,48.860001,1729424741628.0,0.0
0.404387,-8.642875,-11.023734,-13.93,34.02,56.84,1729424741651.0,0.0
1.028914,-10.023535,-10.305886,29.68,44.029999,34.790001,1729424741667.0,0.0
0.12682,-10.542776,-8.059027,51.380001,61.529999,13.440001,1729424741686.0,0.0
-0.756132,-10.29153,-3.232704,41.09,53.48,-10.57,1729424741706.0,0.0
-0.734596,-9.21476,-2.600998,16.59,19.809999,-42.630001,1729424741727.0,0.0
0.277567,-7.642675,-4.469792,-6.79,-20.58,-70.489998,1729424741748.0,0.0
0.392423,-4.589434,-6.276374,7.84,-36.330002,-82.529999,1729424741766.0,0.0
0.227318,-0.942772,-5.979663,12.95,-35.630001,-68.739998,1729424741786.0,0.0
2.158326,-1.430908,-6.738188,-6.44,-61.25,-41.16,1729424741805.0,0.0
6.515656,-1.785046,-10.545169,-40.810001,-74.690002,-18.27,1729424741827.0,0.0
3.550949,-3.596412,-10.959127,-55.650002,4.55,27.719999,1729424741850.0,0.0
0.136391,-2.359323,-9.49472,-21.210001,38.220001,52.360001,1729424741866.0,0.0
-1.837688,-4.960321,-9.966106,5.46,45.43,65.169998,1729424741886.0,0.0
-0.246461,-6.063413,-11.516656,-33.670002,31.639999,59.150002,1729424741907.0,0.0
1.299303,-9.281759,-12.351749,4.69,20.299999,58.869999,1729424741926.0,0.0
0.9667,-10.368099,-10.226924,11.34,51.73,29.889999,1729424741946.0,0.0
-0.976272,-11.590833,-5.328816,11.27,66.989998,9.94,1729424741966.0,0.0
-1.083949,-11.31805,-3.57727,7.91,38.080002,-30.66,1729424741986.0,0.0
-0.380459,-10.128819,-3.641876,7.7,-6.51,-65.309998,1729424742005.0,0.0
0.488136,-8.360522,-5.635098,12.25,-36.259998,-94.779999,1729424742027.0,0.0
0.61017,-4.204189,-6.084948,30.24,-44.73,-103.669998,1729424742047.0,0.0
1.371087,0.342174,-5.910272,12.95,-54.040001,-80.57,1729424742065.0,0.0
3.795017,-0.370888,-8.221739,-24.15,-71.959999,-47.670002,1729424742086.0,0.0
5.922236,-1.366302,-11.133803,-45.360001,-59.849998,-11.34,1729424742105.0,0.0
4.465007,-3.909872,-11.176874,-22.889999,-12.95,18.059999,1729424742127.0,0.0
-1.165305,-1.78026,-10.758131,22.960001,35.91,55.02,1729424742148.0,0.0
-1.359123,-4.969893,-11.263017,56.209999,54.110001,63.91,1729424742166.0,0.0
0.772882,-7.63789,-11.045268,-10.36,25.41,71.400002,1729424742185.0,0.0
2.100898,-10.753345,-10.255639,17.360001,30.450001,50.610001,1729424742207.0,0.0
0.605384,-10.664811,-7.551748,9.31,63.07,21.07,1729424742227.0,0.0
-1.229911,-11.155338,-3.524628,4.62,59.709999,-1.75,1729424742246.0,0.0
-1.87358,-10.870593,-2.184647,15.12,23.17,-33.18,1729424742266.0,0.0
-0.744168,-9.497113,-4.9675,12.67,-22.68,-65.449997,1729424742285.0,0.0
0.320638,-5.615955,-6.386444,33.389999,-45.360001,-78.889999,1729424742305.0,0.0
0.727418,-1.844866,-5.285746,39.27,-45.290001,-66.849998,1729424742327.0,0.0
2.634498,-2.29711,-8.171489,0.77,-62.09,-44.939999,1729424742346.0,0.0
6.202196,-0.232104,-9.690931,-43.889999,-68.459999,-22.68,1729424742366.0,0.0
5.635098,-3.802195,-12.126825,-36.68,-24.57,17.780001,1729424742386.0,0.0
3.960121,-1.931008,-9.925428,-17.01,14.77,31.92,1729424742405.0,0.0
-0.050249,-1.801795,-8.420342,34.299999,47.599998,71.889999,1729424742426.0,0.0
-1.545763,-5.321638,-9.566505,-3.92,58.380001,61.25,1729424742448.0,0.0
0.031107,-8.322237,-12.083755,-60.41,41.860001,56.349998,1729424742466.0,0.0
1.519442,-10.96152,-10.798808,-8.89,30.24,48.439999,1729424742486.0,0.0
-0.165105,-11.413764,-5.312066,32.060001,62.93,14.49,1729424742506.0,0.0
-1.497907,-10.023535,-3.778267,27.58,43.75,-16.379999,1729424742526.0,0.0
-1.246661,-9.640682,-2.237289,38.360001,-2.24,-47.950001,1729424742547.0,0.0
-0.653241,-7.592427,-5.496314,20.440001,-31.57,-70.489998,1729424742565.0,0.0
0.521635,-5.151747,-7.020542,9.66,-50.75,-85.120003,1729424742585.0,0.0
1.105484,-2.761317,-6.915257,4.48,-44.939999,-68.25,1729424742605.0,0.0
2.400001,-3.383451,-7.176075,-22.68,-56.91,-55.299999,1729424742627.0,0.0
4.21376,-3.790231,-7.977671,-62.510002,-57.959999,-41.720001,1729424742650.0,0.0
5.438886,-5.12782,-11.01177,-54.950001,-44.029999,-36.540001,1729424742665.0,0.0
5.266603,-2.215754,-10.025927,29.120001,-26.040001,-10.01,1729424742686.0,0.0
2.22054,-1.725225,-10.820344,119.559998,12.46,33.670002,1729424742705.0,0.0
-0.239282,-3.591627,-8.362915,123.830002,51.310001,53.549999,1729424742727.0,0.0
-1.146162,-5.309673,-9.767502,46.200001,63.700001,62.790001,1729424742747.0,0.0
0.224925,-6.642475,-9.382257,12.95,37.59,65.800003,1729424742765.0,0.0
0.605384,-9.623933,-8.470592,20.860001,44.939999,57.889999,1729424742786.0,0.0
0.162712,-11.475977,-7.769495,42.279999,58.099998,45.220001,1729424742805.0,0.0
0.088534,-11.868401,-4.024727,62.09,46.970001,24.639999,1729424742826.0,0.0
0.323031,-10.29153,-2.029114,92.120003,0.98,-21.0,1729424742902.0,0.0
1.923829,-7.13779,-7.549356,61.880001,-33.670002,-51.380001,1729424742933.0,0.0
2.995814,-2.009971,-7.84128,33.32,-48.720001,-67.340004,1729424742937.0,0.0
1.773082,-4.646862,-3.804588,-5.81,-39.34,-70.0,1729424742943.0,0.0
2.548356,-10.021141,-6.52762,-49.91,-12.6,-37.380001,1729424742947.0,0.0
3.52702,-6.932007,-8.336594,-107.239998,-22.4,-55.790001,1729424742965.0,0.0
2.821138,-6.290731,-7.76471,-28.139999,-1.68,-41.23,1729424742986.0,0.0
2.70389,-4.969893,-7.88435,-41.509998,10.57,-45.009998,1729424743005.0,0.0
2.756532,-5.608776,-7.054041,-20.790001,8.19,-22.540001,1729424743026.0,0.0
3.996014,-6.774081,-9.08794,7.56,-2.59,-19.74,1729424743046.0,0.0
3.067599,-6.553941,-6.618547,20.440001,20.09,-10.43,1729424743066.0,0.0
0.861416,-7.532606,-6.092126,-1.61,33.950001,-11.48,1729424743085.0,0.0
0.624527,-8.437093,-8.760124,-17.15,18.549999,-17.57,1729424743105.0,0.0
1.672583,-7.939385,-7.89153,-8.4,5.25,-17.85,1729424743126.0,0.0
2.981457,-6.783652,-9.741181,4.41,12.32,-13.79,1729424743146.0,0.0
4.354938,-4.216154,-7.645068,7.35,24.57,-8.61,1729424743166.0,0.0
4.266403,-2.37368,-5.443672,11.2,42.84,14.84,1729424743185.0,0.0
3.28056,-1.806581,-4.460221,-26.6,50.259998,33.740002,1729424743206.0,0.0
3.0006,-2.014757,-4.529613,-48.439999,35.98,52.290001,1729424743230.0,0.0
3.522235,-2.364109,-4.335794,-48.790001,16.379999,70.489998,1729424743246.0,0.0
3.383451,-4.338188,-3.443272,-46.830002,1.47,84.840004,1729424743265.0,0.0
3.110669,-6.484549,-1.103091,-45.5,-20.93,79.169998,1729424743285.0,0.0
0.741775,-12.926028,-11.289338,-29.610001,-45.779999,63.0,1729424743306.0,0.0
2.677568,-19.010977,-12.27518,25.200001,-84.07,-8.47,1729424743326.0,0.0
2.175076,-9.052048,-5.699703,7.56,-39.48,-28.559999,1729424743346.0,0.0
-0.581456,-4.290331,-5.563312,34.23,-34.790001,-10.15,1729424743365.0,0.0
-1.019342,-3.306881,-9.523434,15.96,-73.639999,2.24,1729424743405.0,0.0
-1.509871,-3.866802,-13.002598,17.290001,-47.670002,13.440001,1729424743407.0,0.0
-3.428915,-3.364309,-13.947763,58.310001,35.84,46.34,1729424743426.0,0.0
-5.659025,-4.917251,-12.179466,108.639999,112.559998,94.919998,1729424743450.0,0.0
-5.115855,-7.192825,-8.492127,102.269997,106.959999,115.989998,1729424743465.0,0.0
-1.737189,-9.939785,-5.235496,20.860001,69.090004,105.209999,1729424743485.0,0.0
1.433301,-10.289137,2.596212,-48.93,64.610001,71.540001,1729424743505.0,0.0
1.866402,-12.696317,5.455636,-73.639999,44.170002,43.259998,1729424743526.0,0.0
3.675375,-13.610376,2.864209,-4.34,-49.279999,-10.57,1729424743560.0,0.0
5.771489,-13.263416,-5.036892,73.919998,-139.509995,-63.630001,1729424743565.0,0.0
7.52782,-7.712067,-11.949757,140.0,-173.529999,-97.370003,1729424743590.0,0.0
5.419744,-1.086342,-12.571891,110.529999,-121.169998,-60.760002,1729424743674.0,0.0
1.179662,0.531207,-9.016156,-55.93,-63.349998,-29.33,1729424743676.0,0.0
-0.497707,0.488136,-14.048263,-200.130005,-26.809999,-1.4,1729424743678.0,0.0
-3.699304,-3.864408,-16.811972,-145.110001,49.07,68.110001,1729424743679.0,0.0
-6.245267,-9.631111,-12.926028,19.530001,139.509995,70.840004,1729424743684.0,0.0
-6.618547,-9.432507,-10.272388,150.779999,104.790001,108.989998,1729424743704.0,0.0
-2.490928,-7.135397,-4.869394,171.779999,26.6,92.470001,1729424743732.0,0.0
-0.222532,-6.252446,0.990629,102.620003,53.619999,66.989998,1729424743745.0,0.0
0.136391,-9.942179,2.57707,-0.56,49.630001,40.040001,1729424743765.0,0.0
1.179662,-11.940186,3.696911,-58.66,-8.47,-3.99,1729424743784.0,0.0
1.454836,-11.976077,1.627119,-46.970001,-68.18,-47.670002,1729424743804.0,0.0
1.493121,-9.827322,-4.13719,-11.62,-120.889999,-80.779999,1729424743825.0,0.0
3.029313,-3.108276,-11.279767,34.16,-163.449997,-87.57,1729424743845.0,0.0
0.823131,0.990629,-10.403993,-56.77,-94.779999,-28.700001,1729424743864.0,0.0
-3.462414,-2.988636,-16.625332,-155.399994,-0.14,8.4,1729424743884.0,0.0
-4.639683,-7.401,-18.400805,-91.349998,55.369999,48.23,1729424743904.0,0.0
-5.28096,-9.303294,-14.691931,43.889999,109.760002,91.910004,1729424743927.0,0.0
-3.148954,-6.24766,-10.887343,147.0,74.970001,108.639999,1729424743946.0,0.0
-0.301496,-5.405386,-2.143969,119.07,67.480003,88.760002,1729424743964.0,0.0
-0.760918,-7.903493,4.223332,4.97,101.849998,68.739998,1729424743984.0,0.0
-0.981057,-10.459028,5.386244,-71.540001,49.98,29.82,1729424744004.0,0.0
0.533599,-13.191631,0.638884,-68.879997,-49.84,-27.09,1729424744028.0,0.0
2.438286,-12.545568,-2.301895,-55.860001,-117.25,-93.730003,1729424744045.0,0.0
2.928815,-7.348359,-6.283553,-33.599998,-136.639999,-116.760002,1729424744066.0,0.0
2.792424,-2.268396,-10.559525,-14.98,-150.990005,-93.449997,1729424744084.0,0.0
1.423729,1.007378,-9.724431,-108.5,-111.580002,-47.950001,1729424744104.0,0.0
-1.062413,-1.67019,-16.211372,-241.149994,-46.34,-27.860001,1729424744125.0,0.0
-3.682554,-6.769295,-18.21895,-202.860001,23.1,24.360001,1729424744145.0,0.0
-5.855237,-10.250853,-17.295322,-14.91,92.610001,63.91,1729424744165.0,0.0
-3.081956,-3.668197,-12.787244,207.970001,88.970001,109.410004,1729424744185.0,0.0
-0.246461,-1.067199,-4.67079,166.669998,86.449997,96.809998,1729424744205.0,0.0
-1.074377,-7.467999,3.744767,53.48,118.440002,81.900002,1729424744226.0,0.0
-0.224925,-11.940186,4.931608,-60.619999,68.739998,33.810001,1729424744252.0,0.0
0.978664,-12.954741,0.674776,-71.889999,-18.620001,-14.91,1729424744264.0,0.0
0.899701,-13.907085,-4.063013,-53.41,-75.389999,-80.360001,1729424744284.0,0.0
0.856631,-11.212767,-4.723432,-21.35,-106.540001,-129.080002,1729424744304.0,0.0
0.334995,-5.501099,-6.924829,28.630001,-131.949997,-123.550003,1729424744325.0,0.0
0.040678,-0.736989,-7.482357,-7.49,-146.369995,-104.93,1729424744346.0,0.0
-2.012364,0.51685,-12.119646,-145.740005,-101.5,-74.199997,1729424744365.0,0.0
-3.419343,-2.711068,-19.731216,-208.809998,-19.460001,-30.24,1729424744384.0,0.0
-5.343173,-8.190632,-19.728823,-49.700001,55.860001,43.610001,1729424744404.0,0.0
-5.592027,-7.345965,-16.591831,136.779999,105.910004,95.129997,1729424744433.0,0.0
-2.567499,-3.608376,-11.399406,226.449997,75.949997,122.150002,1729424744446.0,0.0
0.777667,-1.95015,-5.864808,170.660004,95.620003,98.419998,1729424744468.0,0.0
0.820738,-5.855237,0.882952,79.800003,118.020004,85.400002,1729424744485.0,0.0
0.480957,-10.399208,3.821337,-28.98,85.68,42.279999,1729424744507.0,0.0
1.385444,-10.954341,-0.914058,-76.93,-31.08,-31.43,1729424744527.0,0.0
0.57667,-10.497313,-2.457429,-44.099998,-77.910004,-68.110001,1729424744547.0,0.0
0.01675,-7.54457,-5.79781,-23.799999,-110.669998,-101.919998,1729424744565.0,0.0
-0.583849,-3.816552,-9.631111,-22.889999,-123.340004,-100.169998,1729424744583.0,0.0
-2.074577,2.397608,-10.234102,-96.25,-64.260002,-64.260002,1729424744606.0,0.0
-5.955735,-1.725225,-14.440684,-119.0,17.85,22.68,1729424744636.0,0.0
-6.460621,-7.707282,-15.608383,2.17,65.169998,65.379997,1729424744650.0,0.0
-4.814359,-6.778866,-16.015162,144.759995,67.410004,118.370003,1729424744666.0,0.0
-2.155933,-3.462414,-10.595419,200.199997,69.300003,128.729996,1729424744686.0,0.0
-1.806581,-3.871587,-4.756931,139.789993,109.129997,116.199997,1729424744704.0,0.0
-1.634298,-7.762317,1.911865,63.349998,104.860001,97.93,1729424744725.0,0.0
-0.246461,-13.483556,2.708675,-12.04,37.52,41.23,1729424744745.0,0.0
2.026721,-12.296716,-1.880759,-21.280001,-36.049999,-21.49,1729424744764.0,0.0
1.330409,-10.581062,-2.469393,-5.32,-68.739998,-62.23,1729424744784.0,0.0
0.361316,-6.379266,-4.486543,-16.59,-95.830002,-104.650002,1729424744804.0,0.0
0.167498,-2.945565,-8.082954,-49.560001,-131.320007,-105.139999,1729424744828.0,0.0
0.174676,-1.318445,-13.514663,-154.699997,-120.75,-93.870003,1729424744846.0,0.0
-1.567299,-4.567898,-16.015162,-199.009995,-11.2,-22.120001,1729424744866.0,0.0
-3.318845,-9.19801,-15.096318,-14.35,42.490002,25.059999,1729424744884.0,0.0
-4.197011,-6.951149,-14.981462,171.430008,87.220001,57.82,1729424744911.0,0.0
-3.335595,-2.773281,-11.959327,226.940002,80.43,81.620003,1729424744925.0,0.0
-1.933401,-2.074577,-7.259824,161.279999,93.800003,77.629997,1729424744945.0,0.0
-1.698904,-4.56072,-1.938186,66.779999,112.770004,65.800003,1729424744964.0,0.0
-0.81356,-7.51107,2.371287,-8.05,81.830002,50.049999,1729424744984.0,0.0
-0.136391,-12.24168,2.048256,-87.43,33.880001,12.32,1729424745003.0,0.0
0.562313,-12.157932,-2.18704,-108.57,-22.540001,-42.630001,1729424745025.0,0.0
0.459422,-12.208181,-3.15374,-50.959999,-72.099998,-73.220001,1729424745044.0,0.0
0.571885,-9.686146,-5.268995,-1.4,-105.349998,-104.230003,1729424745065.0,0.0
0.244068,-6.491727,-8.743374,12.88,-122.43,-109.550003,1729424745086.0,0.0
-0.167498,-2.656033,-10.829915,-56.98,-95.129997,-101.849998,1729424745104.0,0.0
-2.368894,-3.04367,-13.53859,-117.459999,-29.610001,-57.189999,1729424745125.0,0.0
-3.720839,-4.833502,-13.847265,-112.209999,20.02,-14.63,1729424745145.0,0.0
-4.335794,-6.45105,-12.349358,-23.030001,53.48,23.450001,1729424745163.0,0.0
-4.249653,-4.551149,-8.980263,82.669998,73.919998,61.880001,1729424745184.0,0.0
-3.37388,-4.220939,-6.522834,146.369995,63.84,82.879997,1729424745204.0,0.0
-1.990828,-6.175875,-4.127619,67.830002,71.260002,57.75,1729424745226.0,0.0
-0.717847,-8.389235,-2.333002,-4.9,61.529999,39.549999,1729424745245.0,0.0
0.782453,-8.91805,-0.775275,-9.52,31.219999,26.040001,1729424745264.0,0.0
2.675175,-9.820145,-2.433501,20.65,-23.1,0.14,1729424745284.0,0.0
3.503092,-9.932607,-3.448057,12.39,-58.170002,-48.509998,1729424745303.0,0.0
2.45025,-9.523434,-6.321837,1.05,-63.279999,-69.860001,1729424745325.0,0.0
2.476572,-6.814759,-9.52822,4.69,-84.0,-78.959999,1729424745344.0,0.0
1.813759,-3.969693,-11.4353,-29.75,-68.32,-69.090004,1729424745365.0,0.0
-0.311067,-2.524428,-10.667203,-82.25,-22.4,-35.98,1729424745387.0,0.0
-2.038685,-7.302894,-10.729417,-90.790001,9.73,-3.85,1729424745405.0,0.0
-2.400001,-8.693125,-9.458827,-67.760002,25.620001,-4.2,1729424745425.0,0.0
-3.814159,-6.003592,-9.710074,20.51,53.48,33.389999,1729424745445.0,0.0
-4.07737,-5.395815,-8.903693,89.809998,47.740002,58.240002,1729424745464.0,0.0
-2.311467,-4.395615,-6.972685,81.620003,42.630001,51.380001,1729424745484.0,0.0
-1.478764,-6.242875,-4.350152,69.510002,46.27,56.84,1729424745504.0,0.0
-0.727418,-8.303094,-0.385244,54.110001,35.420002,46.759998,1729424745525.0,0.0
-0.378066,-9.32483,-1.596013,-6.02,-5.18,4.13,1729424745544.0,0.0
0.363709,-9.537791,-4.661219,-16.1,-46.689999,-22.68,1729424745564.0,0.0
0.9667,-7.02772,-4.926822,-24.360001,-67.199997,-42.349998,1729424745583.0,0.0
-0.27996,-5.525027,-5.539384,-36.540001,-73.080002,-37.52,1729424745603.0,0.0
-0.514457,-5.302495,-11.566904,-77.07,-94.57,-46.759998,1729424745626.0,0.0
-0.267996,-7.657032,-13.663017,-106.889999,-73.150002,-39.830002,1729424745650.0,0.0
-1.112662,-5.132604,-11.921042,-119.629997,-23.52,-19.110001,1729424745664.0,0.0
-3.5007,-4.108476,-10.246067,-94.779999,26.950001,14.84,1729424745685.0,0.0
-3.936193,-8.200203,-12.866207,-24.01,45.360001,35.700001,1729424745704.0,0.0
-2.510071,-8.161918,-11.24866,91.699997,36.82,33.110001,1729424745725.0,0.0
-1.916651,-3.524628,-6.448657,161.210007,62.369999,43.259998,1729424745753.0,0.0
-1.533799,-3.553342,-1.830509,153.720001,45.220001,54.740002,1729424745763.0,0.0
0.356531,-5.563312,-1.753939,55.369999,16.73,39.200001,1729424745785.0,0.0
1.734797,-7.314859,-3.385844,-22.82,-8.89,27.370001,1729424745804.0,0.0
1.452443,-7.097112,-5.615955,-58.73,-16.940001,17.5,1729424745825.0,0.0
-0.476172,-10.114462,-7.101898,-70.980003,-22.889999,-0.28,1729424745845.0,0.0
-0.837488,-9.583255,-6.759724,-51.380001,-48.860001,-32.27,1729424745865.0,0.0
-1.734797,-6.484549,-8.128418,-17.780001,-63.209999,-37.799999,1729424745884.0,0.0
-3.393023,-5.62074,-9.68136,-42.139999,-62.439999,-49.279999,1729424745904.0,0.0
-3.493521,-4.570292,-12.086146,-127.540001,-40.810001,-73.779999,1729424745926.0,0.0
-3.48395,-4.565506,-13.363914,-144.550003,-11.55,-51.450001,1729424745946.0,0.0
-2.897708,-6.656832,-15.08914,-48.860001,34.790001,-18.969999,1729424745965.0,0.0
-2.974278,-6.149554,-12.969098,83.860001,69.720001,16.309999,1729424745985.0,0.0
-2.830709,-3.278167,-9.576077,141.75,92.400002,38.009998,1729424746004.0,0.0
-2.490928,-2.464607,-2.474179,113.330002,102.620003,48.790001,1729424746026.0,0.0
-1.502693,-7.475177,1.591227,16.24,81.550003,44.240002,1729424746046.0,0.0
1.071985,-9.489935,-0.76331,-71.330002,34.02,18.059999,1729424746065.0,0.0
2.148755,-11.909079,-4.929214,-41.09,-13.23,-2.8,1729424746085.0,0.0
2.002793,-13.048061,-5.730811,-24.57,-36.119999,-62.09,1729424746106.0,0.0
2.026721,-9.265009,-4.701896,4.13,-59.43,-89.599998,1729424746127.0,0.0
1.878366,-5.749953,-6.630512,12.32,-112.559998,-101.080002,1729424746146.0,0.0
0.378066,-2.952743,-9.47797,-52.080002,-91.699997,-111.720001,1729424746166.0,0.0
-2.656033,-3.474378,-10.200603,-106.75,-48.02,-82.32,1729424746185.0,0.0
-3.349952,-2.344966,-14.75893,-153.509995,-7.77,-51.799999,1729424746205.0,0.0
-4.048656,-3.859623,-14.99582,-70.910004,36.259998,6.44,1729424746227.0,0.0
-5.209175,-5.766702,-13.990833,80.57,84.699997,55.369999,1729424746246.0,0.0
-4.517649,-3.926622,-10.143176,192.850006,76.230003,82.879997,1729424746265.0,0.0
-2.641676,-1.540978,-6.058627,195.789993,68.879997,90.580002,1729424746287.0,0.0
-1.036092,-2.916851,-2.404787,143.009995,70.769997,95.900002,1729424746306.0,0.0
0.071785,-6.338587,1.299303,65.029999,55.650002,89.32,1729424746328.0,0.0
2.005185,-11.169697,-1.770689,-9.59,15.4,48.650002,1729424746348.0,0.0
3.254239,-11.966506,-5.048856,-7.77,-25.549999,3.92,1729424746366.0,0.0
2.40718,-9.21476,-3.9673,28.700001,-43.049999,-28.77,1729424746386.0,0.0
1.071985,-9.164511,-6.817152,16.66,-79.660004,-60.34,1729424746407.0,0.0
1.009771,-4.307081,-11.715261,-50.119999,-121.870003,-102.410004,1729424746428.0,0.0
-1.198804,-0.655633,-13.835299,-187.389999,-44.52,-65.590004,1729424746450.0,0.0
-2.433501,0.090927,-14.277972,-205.100006,25.83,-18.690001,1729424746471.0,0.0
-4.931608,-7.197611,-14.668003,-43.959999,80.43,51.240002,1729424746487.0,0.0
-4.668397,-9.025726,-10.971091,133.979996,100.239998,68.529999,1729424746508.0,0.0
-3.349952,-4.515256,-8.805587,242.899994,66.010002,108.639999,1729424746532.0,0.0
-1.59362,-1.191626,-1.646262,194.669998,79.029999,106.050003,1729424746547.0,0.0
-1.663012,-5.534599,2.124826,79.449997,86.590004,92.610001,1729424746568.0,0.0
-0.071785,-11.069198,1.612763,-17.290001,34.439999,51.450001,1729424746588.0,0.0
1.51705,-13.186846,-1.359123,-42.91,-20.65,5.53,1729424746608.0,0.0
1.124627,-12.069397,-1.775474,-21.700001,-51.380001,-38.849998,1729424746628.0,0.0
0.232104,-9.547362,-2.610569,-6.16,-85.050003,-67.410004,1729424746651.0,0.0
0.619741,-6.094519,-8.193025,1.05,-132.020004,-83.790001,1729424746666.0,0.0
0.167498,-4.615755,-8.142776,-41.16,-126.699997,-75.529999,1729424746686.0,0.0
-1.770689,-4.847858,-13.69891,-111.370003,-73.220001,-57.260002,1729424746707.0,0.0
-2.309074,-5.4341,-15.601204,-81.410004,-21.42,-17.01,1729424746727.0,0.0
-4.65404,-9.652647,-15.026926,22.120001,59.360001,50.470001,1729424746747.0,0.0
-4.914857,-7.140182,-11.892329,143.990005,112.07,83.440002,1729424746767.0,0.0
-3.256632,-5.328816,-7.446464,238.559998,91.980003,90.720001,1729424746786.0,0.0
-1.485943,-3.924229,0.394816,176.050003,97.93,66.57,1729424746806.0,0.0
-0.605384,-3.486342,4.505685,89.599998,90.510002,66.639999,1729424746830.0,0.0
0.607777,-7.350751,3.773481,26.809999,34.09,62.09,1729424746848.0,0.0
2.057827,-11.241481,0.301496,-44.029999,-28.35,15.12,1729424746865.0,0.0
1.770689,-10.875379,-2.261217,-73.849998,-59.709999,-30.940001,1729424746887.0,0.0
-0.12682,-8.80798,-5.046463,-80.080002,-82.949997,-52.639999,1729424746906.0,0.0
-0.318245,-6.812366,-9.41815,-98.910004,-124.949997,-74.480003,1729424746927.0,0.0
-0.366102,-4.546363,-10.320245,-162.820007,-124.809998,-77.419998,1729424746949.0,0.0
-2.112862,-3.443272,-13.351951,-248.919998,-51.240002,-52.5,1729424746966.0,0.0
-4.359723,-7.9346,-17.130217,-212.029999,18.48,0.07,1729424746986.0,0.0
-5.47717,-11.47119,-17.228323,-8.05,95.690002,33.18,1729424747007.0,0.0
-5.62074,-7.159326,-15.043676,227.290009,108.43,85.400002,1729424747027.0,0.0
-3.739982,-2.840281,-8.047063,281.540009,97.370003,95.970001,1729424747048.0,0.0
-2.045863,-0.863809,0.689133,196.770004,122.919998,86.800003,1729424747066.0,0.0
-2.036292,-6.080163,6.448657,119.0,98.139999,92.190002,1729424747086.0,0.0
2.005185,-12.476178,2.079363,10.15,-11.55,0.49,1729424747106.0,0.0
1.074377,-11.751152,-1.249053,13.3,-43.470001,-37.52,1729424747127.0,0.0
-0.404387,-10.167104,-0.5001,-10.01,-66.989998,-68.110001,1729424747149.0,0.0
-0.258425,-6.664011,-6.376873,-27.51,-119.559998,-82.669998,1729424747166.0,0.0
0.830309,-3.98405,-13.904692,-63.98,-154.0,-78.470001,1729424747187.0,0.0
0.232104,-4.331009,-8.468199,-158.899994,-91.419998,-63.77,1729424747207.0,0.0
-1.416551,-4.125226,-14.467006,-299.880005,-7.42,-43.68,1729424747228.0,0.0
-3.290131,-8.343772,-14.919249,-248.570007,53.619999,16.870001,1729424747250.0,0.0
-4.742575,-11.485549,-14.443078,-14.0,94.779999,53.41,1729424747266.0,0.0
-4.532006,-7.257431,-13.799409,229.110001,98.769997,85.260002,1729424747286.0,0.0
-2.85703,-2.244468,-7.956135,312.339996,82.739998,95.059998,1729424747307.0,0.0
-1.682154,0.380459,1.316052,208.669998,97.93,83.860001,1729424747328.0,0.0
-1.4668,-5.118248,7.207181,22.540001,88.410004,66.010002,1729424747349.0,0.0
-0.533599,-13.416556,4.082155,-134.680008,27.370001,8.96,1729424747366.0,0.0
1.06002,-13.268202,-3.306881,-131.949997,-47.040001,-50.68,1729424747389.0,0.0
0.634098,-12.270394,-4.783253,-74.970001,-80.849998,-90.370003,1729424747406.0,0.0
-0.442672,-9.600004,-4.656433,-46.48,-89.949997,-116.199997,1729424747429.0,0.0
-1.033699,-5.553742,-8.769694,-36.540001,-146.229996,-112.770004,1729424747447.0,0.0
-0.260818,-2.411965,-13.600803,-120.959999,-130.339996,-106.050003,1729424747466.0,0.0
-2.232504,-2.495714,-10.406385,-207.270004,-39.970001,-55.510002,1729424747486.0,0.0
-3.314059,-5.98445,-14.902499,-196.419998,38.57,-4.41,1729424747506.0,0.0
-5.319244,-8.762517,-14.696717,-13.02,74.340004,64.120003,1729424747527.0,0.0
-4.716253,-6.049056,-13.42852,176.050003,76.720001,85.400002,1729424747549.0,0.0
-2.711068,-2.87378,-8.437093,235.550003,67.340004,102.830002,1729424747566.0,0.0
-1.225125,-3.306881,-3.266203,178.430008,81.269997,89.110001,1729424747586.0,0.0
-0.205783,-5.182854,0.775275,82.389999,77.489998,66.779999,1729424747606.0,0.0
0.794417,-9.020942,1.024128,-7.35,37.029999,37.939999,1729424747628.0,0.0
1.605584,-11.4018,-1.464408,-70.279999,-6.65,-10.92,1729424747649.0,0.0
0.923629,-10.569098,-3.199204,-68.459999,-39.549999,-45.220001,1729424747666.0,0.0
0.083749,-9.623933,-4.957928,-50.470001,-69.93,-72.449997,1729424747685.0,0.0
-0.320638,-7.408179,-6.766902,-53.48,-92.400002,-87.360001,1729424747706.0,0.0
-0.531207,-6.67119,-10.633704,-82.879997,-89.459999,-87.010002,1729424747728.0,0.0
-0.614955,-5.070391,-13.146168,-114.660004,-54.599998,-75.529999,1729424747748.0,0.0
-3.215954,-8.327023,-9.848858,-90.160004,7.0,-32.200001,1729424747766.0,0.0
-2.333002,-6.853044,-12.13161,16.870001,21.91,-2.59,1729424747793.0,0.0
-2.275574,-5.54417,-9.109475,121.379997,28.35,38.5,1729424747805.0,0.0
-1.847259,-4.118048,-6.128019,152.880005,41.23,45.709999,1729424747826.0,0.0
-1.557728,-4.476971,-3.948158,116.270004,35.490002,47.950001,1729424747898.0,0.0
-0.61017,-5.833702,-3.512664,44.73,17.43,41.650002,1729424747902.0,0.0
0.404387,-7.412964,-5.056034,-9.45,-0.21,32.970001,1729424747903.0,0.0
1.036092,-9.10469,-6.738188,-21.700001,-10.29,11.55,1729424747907.0,0.0
0.198604,-10.018748,-7.927422,-36.470001,-2.1,-14.14,1729424747927.0,0.0
-0.031107,-8.432307,-7.563712,-26.530001,-1.19,-27.65,1729424747948.0,0.0
0.023928,-7.21436,-7.152147,-2.52,-12.81,-24.85,1729424747966.0,0.0
0.081356,-6.836295,-7.575676,-15.82,-13.23,-37.240002,1729424747986.0,0.0
-1.268196,-6.680761,-7.367501,-43.049999,4.9,-38.920002,1729424748005.0,0.0
-1.184447,-7.539784,-9.343972,-48.720001,8.33,-38.57,1729424748028.0,0.0
-0.607777,-6.082555,-9.209974,-38.009998,9.45,-32.200001,1729424748047.0,0.0
-0.820738,-5.271388,-7.211967,-16.030001,16.17,-10.71,1729424748067.0,0.0
-0.681954,-5.230711,-6.202196,-5.95,16.379999,11.83,1729424748087.0,0.0
-0.851845,-8.008778,-7.62114,-12.25,17.99,14.0,1729424748107.0,0.0
-0.581456,-9.650253,-8.271988,-17.15,25.27,2.66,1729424748128.0,0.0
0.066999,-7.771888,-6.924829,17.290001,25.41,5.53,1729424748148.0,0.0
0.356531,-6.372087,-5.98445,57.470001,16.799999,12.6,1729424748167.0,0.0
-0.0335,-6.515656,-5.422136,35.07,13.86,4.69,1729424748187.0,0.0
-0.641276,-7.992027,-5.864808,-17.15,12.11,-7.42,1729424748207.0,0.0
-0.071785,-8.499306,-7.250252,-32.48,-0.63,-17.43,1729424748228.0,0.0
0.526421,-7.295716,-7.365108,-12.11,-6.44,-17.99,1729424748247.0,0.0
-0.270389,-5.24746,-5.515456,0.49,-1.4,-11.34,1729424748267.0,0.0
-1.021735,-5.692525,-5.230711,-15.82,-8.26,-6.86,1729424748287.0,0.0
-0.722632,-7.886744,-6.9009,-43.259998,-21.559999,-13.02,1729424748308.0,0.0
-0.416351,-9.504292,-8.11167,-40.18,-21.559999,-22.82,1729424748329.0,0.0
-0.725025,-6.788438,-6.06102,-9.59,-14.91,-24.639999,1729424748349.0,0.0
-0.550349,-6.068198,-5.391029,26.809999,-24.01,-24.360001,1729424748368.0,0.0
-0.928415,-5.905487,-6.118448,3.99,-27.719999,-27.299999,1729424748388.0,0.0
-1.332802,-7.087541,-8.35813,-6.72,-37.099998,-28.07,1729424748410.0,0.0
0.095713,-5.974878,-12.452249,-9.45,-38.220001,-35.560001,1729424748429.0,0.0
0.179462,-4.405186,-14.213367,12.46,-10.43,-11.06,1729424748450.0,0.0
-1.196411,-3.036492,-11.755937,16.17,37.799999,27.09,1729424748469.0,0.0
-1.569692,-3.993621,-9.265009,14.21,56.420002,52.849998,1729424748490.0,0.0
-1.143769,-5.225924,-6.369694,25.200001,61.810001,69.510002,1729424748512.0,0.0
-1.136591,-6.45105,-6.530013,63.07,68.25,75.25,1729424748530.0,0.0
-1.914258,-7.077969,-5.108676,73.360001,76.510002,74.760002,1729424748548.0,0.0
-1.617548,-8.630912,-3.412165,31.57,69.860001,53.48,1729424748571.0,0.0
-0.267996,-10.272388,-2.555535,7.07,40.529999,29.26,1729424748590.0,0.0
0.579063,-10.210175,-2.919244,10.64,11.34,2.66,1729424748608.0,0.0
-0.370888,-9.918249,-2.648855,17.85,-10.36,-24.780001,1729424748629.0,0.0
-0.859023,-10.140782,-3.337988,-6.93,-34.860001,-56.77,1729424748652.0,0.0
-0.535992,-9.607183,-6.364908,-13.16,-59.920002,-74.199997,1729424748669.0,0.0
1.591227,-5.852845,-8.475377,3.64,-77.07,-69.300003,1729424748689.0,0.0
1.071985,-3.701697,-8.013563,-16.52,-49.07,-32.759998,1729424748709.0,0.0
-0.514457,-4.855037,-8.463413,-49.490002,-18.690001,-11.41,1729424748729.0,0.0
-1.229911,-7.532606,-10.638489,-59.290001,-8.4,1.54,1729424748751.0,0.0
-1.428515,-7.147361,-10.564312,-40.110001,8.4,11.2,1729424748769.0,0.0
-1.935793,-5.938986,-10.375278,16.379999,29.190001,39.830002,1729424748790.0,0.0
-1.31366,-5.572884,-9.801002,67.760002,30.870001,54.599998,1729424748808.0,0.0
-0.399601,-6.326623,-9.10469,72.660004,40.529999,52.220001,1729424748830.0,0.0
0.043071,-6.12084,-6.71426,68.040001,53.619999,47.880001,1729424748848.0,0.0
-0.751346,-6.252446,-3.56052,70.349998,57.540001,49.279999,1729424748868.0,0.0
0.392423,-8.446664,-3.921836,47.389999,32.27,23.52,1729424748887.0,0.0
1.660619,-8.592626,-3.838088,20.299999,2.66,6.02,1729424748908.0,0.0
1.426122,-7.795816,-2.947958,-7.7,-8.96,-12.53,1729424748930.0,0.0
-0.131605,-6.848258,-3.414558,-37.52,-20.440001,-20.58,1729424748950.0,0.0
-0.521635,-8.60459,-6.245267,-70.07,-44.73,-30.940001,1729424748970.0,0.0
0.215354,-9.846465,-9.224331,-74.269997,-57.959999,-46.759998,1729424748988.0,0.0
0.16989,-7.853244,-8.233703,-52.779999,-42.0,-46.41,1729424749010.0,0.0
-1.244268,-5.556134,-6.793223,-36.400002,-23.799999,-29.75,1729424749029.0,0.0
-1.347159,-7.439285,-8.425128,-47.950001,-17.639999,-13.09,1729424749049.0,0.0
-1.241875,-8.977871,-8.872586,-15.05,-10.01,-8.19,1729424749070.0,0.0
-1.071985,-8.001599,-10.377672,49.630001,3.22,-1.19,1729424749088.0,0.0
-0.820738,-5.91745,-9.597611,76.580002,18.200001,9.38,1729424749109.0,0.0
-1.330409,-4.345366,-7.188039,59.639999,35.209999,28.77,1729424749130.0,0.0
-1.323231,-3.696911,-5.261817,17.710001,32.200001,38.709999,1729424749150.0,0.0
-0.569492,-4.505685,-4.864608,-8.96,20.440001,50.82,1729424749169.0,0.0
-0.0335,-7.412964,-6.185446,-24.360001,8.68,45.920002,1729424749187.0,0.0
-0.354138,-10.576276,-8.042276,-50.189999,14.7,22.610001,1729424749209.0,0.0
-0.18664,-8.9348,-6.965507,-29.4,13.51,10.5,1729424749231.0,0.0
0.064606,-8.575876,-5.735595,33.599998,3.08,11.13,1729424749250.0,0.0
0.519243,-8.530413,-5.513064,39.830002,-7.14,-10.43,1729424749268.0,0.0
-0.454636,-7.745567,-6.470192,7.49,-6.02,-24.01,1729424749288.0,0.0
-0.61017,-7.099504,-7.396214,-9.66,-13.93,-29.75,1729424749308.0,0.0
-0.155533,-6.843473,-9.001799,-21.629999,-15.54,-32.27,1729424749330.0,0.0
-0.16989,-5.67099,-8.135597,-19.67,-3.36,-21.91,1729424749350.0,0.0
-1.660619,-4.448257,-5.371887,-22.540001,18.9,-0.14,1729424749367.0,0.0
-2.050649,-6.54437,-5.501099,-55.16,13.3,10.01,1729424749390.0,0.0
-1.605584,-9.79143,-7.793423,-77.07,2.03,2.73,1729424749408.0,0.0
-0.739382,-11.045268,-9.616754,-42.490002,4.27,-8.19,1729424749429.0,0.0
-0.222532,-8.729016,-7.080362,36.259998,14.07,-4.2,1729424749448.0,0.0
-0.253639,-7.520642,-4.936393,84.139999,19.110001,-7.14,1729424749468.0,0.0
-0.579063,-6.589834,-4.890929,57.260002,8.61,-16.030001,1729424749490.0,0.0
-0.595813,-7.403394,-6.228518,26.809999,-5.95,-15.47,1729424749509.0,0.0
-0.260818,-7.965706,-8.346166,11.48,-7.77,-28.0,1729424749529.0,0.0
-0.303888,-6.996613,-8.382057,18.83,1.68,-32.759998,1729424749549.0,0.0
-1.229911,-4.663611,-5.228317,21.49,9.1,-19.32,1729424749569.0,0.0
-1.730011,-4.869394,-4.108476,-13.65,-5.6,-10.22,1729424749590.0,0.0
-1.01695,-7.446464,-5.728417,-52.290001,-25.129999,-13.65,1729424749608.0,0.0
-0.179462,-9.540184,-8.405986,-50.259998,-31.15,-23.24,1729424749629.0,0.0
0.29671,-8.537591,-8.305488,-19.040001,-21.07,-28.49,1729424749652.0,0.0
0.27996,-6.795617,-6.216553,16.73,-11.62,-19.25,1729424749667.0,0.0
0.825524,-6.175875,-6.329016,24.57,-16.1,-16.870001,1729424749687.0,0.0
0.325424,-6.704689,-6.396015,22.960001,-15.82,-6.79,1729424749709.0,0.0
0.777667,-5.9342,-9.38465,37.59,-17.780001,1.12,1729424749730.0,0.0
0.619741,-6.223732,-11.184053,45.080002,2.1,13.02,1729424749749.0,0.0
-1.115055,-4.977071,-7.908278,29.68,42.139999,30.1,1729424749769.0,0.0
-2.26361,-4.45065,-5.850451,4.06,49.209999,48.790001,1729424749789.0,0.0
-1.825724,-6.197411,-4.778467,-19.040001,27.860001,60.48,1729424749809.0,0.0
-0.519243,-10.006784,-7.673782,-11.06,9.94,49.07,1729424749835.0,0.0
-0.42353,-10.748559,-7.793423,-3.57,18.76,29.82,1729424749848.0,0.0
-0.985843,-8.49452,-5.845665,18.620001,30.24,14.98,1729424749870.0,0.0
-0.715454,-8.420342,-5.146961,38.639999,10.36,-0.14,1729424749889.0,0.0
0.442672,-8.666803,-4.989035,28.139999,-11.2,-20.65,1729424749910.0,0.0
0.509671,-8.549555,-5.479564,13.3,-15.12,-31.99,1729424749929.0,0.0
-0.224925,-8.070991,-5.730811,8.82,-20.65,-43.189999,1729424749949.0,0.0
-0.777667,-8.061419,-7.606783,-13.23,-20.370001,-50.889999,1729424749969.0,0.0
-0.248854,-6.819544,-8.566305,-21.07,-20.23,-53.060001,1729424749989.0,0.0
-1.646262,-4.910072,-5.178068,-24.08,-9.17,-27.790001,1729424750009.0,0.0
-1.624727,-7.365108,-4.797609,-69.230003,-23.17,-29.33,1729424750029.0,0.0
-0.540778,-9.523434,-6.9344,-75.32,-36.610001,-32.27,1729424750050.0,0.0
0.358923,-9.310472,-7.992027,-44.240002,-37.099998,-34.439999,1729424750070.0,0.0
0.311067,-7.030113,-6.745367,-9.94,-21.98,-26.25,1729424750089.0,0.0
0.89013,-6.606583,-7.65464,8.19,-22.4,-22.049999,1729424750109.0,0.0
1.672583,-6.427122,-8.441878,24.85,-19.18,-11.41,1729424750131.0,0.0
1.328017,-5.998806,-8.207381,33.25,6.23,3.22,1729424750151.0,0.0
0.014357,-7.128219,-9.032906,59.220001,25.76,15.96,1729424750170.0,0.0
-0.119641,-5.278566,-9.042477,81.340004,37.380001,24.780001,1729424750190.0,0.0
-0.928415,-3.943372,-6.82433,86.169998,47.32,49.490002,1729424750209.0,0.0
-1.713261,-5.9342,-5.711668,45.779999,47.880001,57.049999,1729424750229.0,0.0
-2.273181,-7.755138,-5.331209,-18.969999,49.77,42.560001,1729424750250.0,0.0
-1.880759,-7.063612,-4.12044,-37.029999,35.0,42.630001,1729424750269.0,0.0
-1.086342,-8.181061,-5.094319,-26.25,9.17,44.099998,1729424750290.0,0.0
-0.066999,-9.994821,-5.972485,-26.6,-0.21,23.870001,1729424750309.0,0.0
0.641276,-10.887343,-7.652246,28.84,-1.33,9.03,1729424750332.0,0.0
0.693919,-8.9683,-6.946364,58.380001,-3.64,-7.84,1729424750350.0,0.0
-0.040678,-7.341179,-7.542177,44.310001,13.3,-12.88,1729424750371.0,0.0
-0.31346,-7.259824,-6.67119,11.06,7.91,-17.710001,1729424750389.0,0.0
-0.172283,-8.178668,-6.283553,-27.440001,9.8,-28.49,1729424750409.0,0.0
-0.894916,-7.996813,-5.338387,-47.389999,11.13,-36.75,1729424750433.0,0.0
-1.794617,-6.635297,-4.596612,-44.380001,7.77,-39.619999,1729424750452.0,0.0
-0.76331,-5.340781,-5.101498,-34.369999,-20.93,-26.74,1729424750471.0,0.0
0.672383,-7.834101,-7.633104,-39.060001,-38.920002,-14.63,1729424750490.0,0.0
1.39023,-8.429914,-7.963314,-37.240002,-20.440001,-16.799999,1729424750511.0,0.0
0.76331,-7.243074,-7.037291,2.24,7.98,0.21,1729424750531.0,0.0
1.105484,-7.733603,-7.429714,28.630001,4.27,9.94,1729424750554.0,0.0
1.495514,-8.343772,-8.480164,41.369999,-0.84,8.05,1729424750569.0,0.0
0.354138,-8.142776,-7.432107,59.920002,22.960001,10.99,1729424750590.0,0.0
-1.258625,-7.159326,-5.417351,52.709999,41.02,4.13,1729424750612.0,0.0
-1.813759,-8.126025,-5.469993,-3.64,19.32,-13.86,1729424750631.0,0.0
-1.909473,-6.453443,-4.13719,-20.790001,7.56,-15.26,1729424750655.0,0.0
-1.87358,-5.587241,-3.912265,-31.57,-5.46,-6.44,1729424750670.0,0.0
-0.945165,-6.860222,-4.914857,-42.279999,-33.880001,-6.16,1729424750690.0,0.0
-0.064606,-9.547362,-8.039884,-51.73,-31.08,-19.879999,1729424750709.0,0.0
0.232104,-8.212167,-7.360322,-23.24,-20.65,-17.92,1729424750732.0,0.0
0.334995,-7.082755,-6.652047,22.68,-14.21,-2.66,1729424750750.0,0.0
1.56012,-8.159525,-7.599605,42.560001,-30.799999,-1.26,1729424750769.0,0.0
1.959722,-8.283953,-7.865208,50.119999,-26.460001,-5.18,1729424750791.0,0.0
0.550349,-8.374879,-7.082755,56.77,0.42,-9.03,1729424750809.0,0.0
-0.591027,-7.408179,-6.675975,28.91,15.68,-18.059999,1729424750833.0,0.0
-1.603191,-6.525227,-5.876772,-13.440001,14.49,-17.219999,1729424750850.0,0.0
-2.179861,-6.558727,-5.056034,-36.75,7.07,-14.84,1729424750869.0,0.0
-1.596013,-6.989435,-4.187439,-47.880001,-13.86,-7.77,1729424750891.0,0.0
0.531207,-7.987241,-6.321837,-39.549999,-38.150002,-4.34,1729424750911.0,0.0
0.918844,-8.583055,-7.578069,-27.370001,-28.210001,0.35,1729424750933.0,0.0
0.145962,-7.099504,-7.022934,-0.56,-0.14,3.15,1729424750950.0,0.0
0.870987,-7.62114,-7.068398,45.779999,-5.53,22.960001,1729424750971.0,0.0
1.57687,-9.377472,-8.396415,58.869999,-14.21,15.82,1729424750990.0,0.0
0.646062,-9.611969,-8.334201,76.580002,6.02,8.4,1729424751009.0,0.0
-0.591027,-8.853443,-6.987042,71.400002,27.370001,-7.56,1729424751032.0,0.0
-1.65344,-7.63789,-5.706882,14.56,28.49,-19.74,1729424751050.0,0.0
-2.495714,-6.546762,-4.914857,-44.240002,18.48,-25.059999,1729424751071.0,0.0
-2.141576,-5.611169,-3.771089,-69.160004,3.85,-22.889999,1729424751092.0,0.0
-0.875773,-7.305287,-4.945964,-73.57,-26.530001,-16.73,1729424751111.0,0.0
0.631705,-8.118847,-7.235896,-57.400002,-46.48,-25.129999,1729424751130.0,0.0
0.471386,-8.221739,-6.592227,-27.299999,-20.51,-20.719999,1729424751151.0,0.0
0.004786,-6.908078,-6.412765,6.86,-3.43,-7.49,1729424751169.0,0.0
0.837488,-7.331609,-7.099504,42.91,-17.780001,6.09,1729424751190.0,0.0
1.730011,-8.30788,-8.367701,64.330002,-26.74,9.52,1729424751210.0,0.0
0.985843,-8.090133,-9.207582,71.050003,-1.61,5.81,1729424751231.0,0.0
-0.133998,-8.109276,-7.910671,52.290001,24.5,0.63,1729424751252.0,0.0
-0.964308,-7.676175,-6.484549,9.38,32.900002,-5.18,1729424751271.0,0.0
-2.067399,-6.675975,-5.254639,-35.0,27.09,-4.27,1729424751290.0,0.0
-1.926222,-6.12084,-4.453043,-63.77,15.89,-1.12,1729424751310.0,0.0
-0.344566,-6.458229,-5.702096,-41.580002,-9.52,11.83,1729424751332.0,0.0
0.653241,-7.228717,-7.200003,-25.41,-12.04,17.360001,1729424751350.0,0.0
0.18664,-8.353344,-6.946364,-15.47,14.63,19.6,1729424751371.0,0.0
0.196211,-8.745767,-6.869793,14.49,20.23,23.940001,1729424751389.0,0.0
1.29691,-9.21476,-7.070791,47.110001,5.32,21.07,1729424751411.0,0.0
0.959522,-7.829315,-7.424929,60.27,16.24,15.54,1729424751430.0,0.0
0.320638,-8.346166,-5.881558,64.260002,25.34,11.2,1729424751450.0,0.0
-0.253639,-8.853443,-6.089733,25.9,28.280001,-7.28,1729424751471.0,0.0
-0.547956,-7.9011,-4.551149,-22.120001,19.110001,-21.559999,1729424751489.0,0.0
-1.215554,-6.649654,-3.385844,-60.970001,10.15,-25.76,1729424751509.0,0.0
-0.803988,-7.092326,-5.292924,-95.690002,-9.52,-26.040001,1729424751531.0,0.0
0.282353,-8.729016,-8.743374,-108.639999,-25.34,-29.049999,1729424751551.0,0.0
0.591027,-10.413565,-10.083356,-84.209999,-4.69,-31.710001,1729424751570.0,0.0
0.22014,-9.042477,-8.394022,-21.559999,20.93,-21.700001,1729424751590.0,0.0
0.425922,-7.810174,-6.331409,48.580002,22.540001,-5.53,1729424751609.0,0.0
1.009771,-6.343372,-5.577669,66.010002,13.79,-0.35,1729424751631.0,0.0
0.122034,-6.173482,-6.221339,34.02,22.82,3.99,1729424751653.0,0.0
-0.258425,-7.290931,-7.063612,32.830002,19.32,6.16,1729424751670.0,0.0
-0.399601,-6.675975,-6.374479,35.91,19.950001,1.82,1729424751690.0,0.0
-1.043271,-5.867201,-4.706682,15.61,19.18,4.48,1729424751709.0,0.0
-1.962115,-6.092126,-3.481557,-33.32,12.11,3.22,1729424751731.0,0.0
-1.20359,-6.958328,-4.476971,-54.529999,-14.77,5.67,1729424751752.0,0.0
0.334995,-8.68116,-7.345965,-35.77,-35.139999,0.77,1729424751769.0,0.0
1.081556,-8.523234,-8.260024,-4.13,-22.960001,-7.63,1729424751791.0,0.0
0.689133,-7.204789,-7.02772,36.259998,-3.22,-1.47,1729424751809.0,0.0
0.854238,-6.302694,-6.163911,54.110001,-6.37,4.9,1729424751832.0,0.0
1.361516,-7.104291,-6.455836,33.389999,-13.02,3.99,1729424751849.0,0.0
1.261017,-8.623734,-8.02792,8.75,-8.68,-1.89,1729424751876.0,0.0
0.689133,-9.071191,-7.858029,8.96,-0.49,-14.07,1729424751890.0,0.0
-0.212961,-7.460821,-7.101898,12.39,15.82,-18.9,1729424751909.0,0.0
-1.40698,-5.673382,-5.010571,3.29,14.42,-8.26,1729424751931.0,0.0
-2.29711,-7.79103,-3.361916,-34.93,7.84,-5.39,1729424751950.0,0.0
-0.940379,-9.377472,-5.118248,-69.860001,-28.91,-11.83,1729424751969.0,0.0
0.440279,-10.205389,-7.767102,-49.07,-36.610001,-16.450001,1729424751990.0,0.0
0.940379,-9.394222,-8.178668,-6.16,-20.23,-16.450001,1729424752010.0,0.0
1.129412,-7.984849,-6.71426,39.200001,-7.42,-5.74,1729424752041.0,0.0
2.100898,-7.640282,-5.977271,64.330002,-15.82,3.36,1729424752052.0,0.0
2.59382,-8.209774,-6.752545,68.669998,-21.84,1.82,1729424752070.0,0.0
1.931008,-8.683553,-6.376873,85.75,-10.57,-6.09,1729424752090.0,0.0
0.725025,-7.960921,-6.479764,84.980003,6.51,-11.69,1729424752113.0,0.0
-0.533599,-6.429514,-5.639884,44.099998,12.18,-13.23,1729424752131.0,0.0
-1.818545,-6.786045,-5.290531,-23.450001,11.06,-11.97,1729424752151.0,0.0
-1.57687,-8.525627,-3.790231,-71.050003,-6.16,-14.35,1729424752171.0,0.0
-0.323031,-9.54497,-4.642076,-81.550003,-37.450001,-15.89,1729424752192.0,0.0
0.777667,-9.824929,-5.639884,-64.260002,-47.740002,-26.950001,1729424752212.0,0.0
-0.028714,-8.386844,-5.960521,-38.43,-29.75,-30.940001,1729424752232.0,0.0
0.050249,-6.754939,-6.211767,17.710001,-24.15,-17.360001,1729424752253.0,0.0
1.368695,-6.793223,-7.453642,48.93,-37.450001,-4.83,1729424752271.0,0.0
1.639083,-8.037491,-9.229117,67.760002,-28.280001,-0.28,1729424752291.0,0.0
1.150948,-7.788638,-8.295916,78.050003,1.96,1.89,1729424752311.0,0.0
-0.375673,-6.02752,-7.580462,54.25,34.860001,4.48,1729424752333.0,0.0
-2.091327,-6.130411,-5.515456,-5.95,40.810001,9.1,1729424752353.0,0.0
-2.54357,-8.477771,-5.958128,-82.110001,29.68,-5.53,1729424752371.0,0.0
-1.304088,-7.915457,-4.721039,-104.370003,7.0,-10.36,1729424752390.0,0.0
0.009571,-7.65464,-5.979663,-62.93,-17.99,1.26,1729424752412.0,0.0
0.995414,-7.405786,-7.130611,-32.200001,-18.200001,-5.32,1729424752432.0,0.0
0.425922,-7.489535,-6.9344,-42.07,8.68,-6.16,1729424752451.0,0.0
0.052642,-7.508677,-6.601797,-33.110001,16.73,-1.75,1729424752471.0,0.0
0.971486,-8.018349,-6.486942,6.37,2.59,3.99,1729424752490.0,0.0
1.165305,-7.298109,-6.652047,41.790001,0.63,1.26,1729424752512.0,0.0
0.021535,-6.372087,-6.608976,72.730003,8.82,9.31,1729424752534.0,0.0
-0.172283,-6.65444,-6.809973,53.060001,10.5,8.61,1729424752551.0,0.0
-0.48335,-7.125826,-6.470192,-2.45,21.0,-0.28,1729424752571.0,0.0
-1.540978,-7.944171,-5.065606,-52.220001,26.530001,6.44,1729424752594.0,0.0
-1.607977,-6.549156,-3.830909,-54.950001,13.72,7.28,1729424752610.0,0.0
-0.547956,-7.034898,-5.034499,-41.790001,-13.79,18.34,1729424752631.0,0.0
0.598206,-8.575876,-7.207181,-42.490002,-21.49,20.93,1729424752655.0,0.0
0.954736,-9.707682,-8.480164,-35.139999,-4.2,14.7,1729424752671.0,0.0
1.473979,-9.320045,-8.377272,12.67,1.47,20.299999,1729424752691.0,0.0
1.861616,-8.439486,-8.236095,56.07,0.42,18.969999,1729424752712.0,0.0
1.07677,-7.458428,-7.628319,65.309998,17.290001,18.48,1729424752732.0,0.0
0.37328,-6.326623,-7.161718,50.470001,24.43,16.17,1729424752751.0,0.0
-0.287139,-6.156733,-5.730811,19.32,27.65,14.14,1729424752772.0,0.0
-1.667797,-7.752745,-5.510671,-39.27,31.360001,6.44,1729424752790.0,0.0
-1.837688,-7.601997,-4.802395,-82.110001,23.59,-7.28,1729424752811.0,0.0
-0.57667,-6.872187,-5.623133,-69.370003,-6.02,8.47,1729424752833.0,0.0
0.710668,-6.898508,-6.936793,-52.990002,-21.629999,12.32,1729424752898.0,0.0
0.200997,-9.535398,-7.74796,-44.170002,-1.54,6.58,1729424752898.0,0.0
-0.174676,-9.633504,-7.80778,-25.34,8.68,0.49,1729424752898.0,0.0
1.339981,-8.736196,-8.413164,52.360001,-7.35,5.32,1729424752910.0,0.0
1.009771,-6.941578,-7.750352,67.269997,4.97,2.17,1729424752945.0,0.0
0.193819,-6.053841,-7.99442,63.630001,20.93,6.72,1729424752952.0,0.0
0.205783,-5.572884,-7.087541,56.700001,19.25,9.03,1729424752971.0,0.0
0.361316,-5.355137,-5.618347,34.23,25.549999,11.97,1729424752991.0,0.0
-1.117448,-6.278766,-4.41715,-4.27,30.799999,11.34,1729424753011.0,0.0
-1.529014,-6.039484,-4.462614,-31.85,17.5,8.4,1729424753031.0,0.0
-0.081356,-5.319244,-6.204589,-32.619999,-10.43,22.120001,1729424753052.0,0.0
0.136391,-7.477571,-7.848458,-51.450001,-6.58,27.09,1729424753072.0,0.0
-0.571885,-9.576077,-8.980263,-56.0,10.85,17.5,1729424753092.0,0.0
-0.9667,-9.568897,-8.317451,-13.09,12.67,15.47,1729424753110.0,0.0
-0.808774,-8.523234,-5.819345,32.200001,7.42,11.41,1729424753131.0,0.0
-0.9667,-7.57089,-4.431508,43.82,4.41,6.44,1729424753151.0,0.0
-1.414158,-7.508677,-5.087141,31.290001,-2.45,0.28,1729424753170.0,0.0
-1.78026,-8.171489,-6.113662,11.97,-7.21,-7.63,1729424753190.0,0.0
-1.347159,-8.891729,-8.243275,-0.7,-9.38,-20.790001,1729424753210.0,0.0
-0.760918,-8.090133,-8.068598,11.06,-5.32,-24.5,1729424753232.0,0.0
-1.244268,-5.257031,-4.704289,9.8,5.81,-9.24,1729424753251.0,0.0
-1.545763,-5.833702,-4.476971,-30.52,-2.59,-3.64,1729424753271.0,0.0
-0.476172,-7.91785,-6.494121,-53.760002,-19.74,-3.85,1729424753290.0,0.0
0.79681,-9.533006,-8.989835,-36.75,-21.210001,-11.69,1729424753312.0,0.0
1.208375,-8.02792,-8.116454,-0.42,-5.39,-9.59,1729424753333.0,0.0
0.605384,-6.702296,-6.051448,38.5,7.56,-0.35,1729424753351.0,0.0
0.397209,-6.726225,-5.663811,42.139999,2.52,-1.33,1729424753372.0,0.0
0.397209,-7.140182,-5.606383,28.559999,-3.99,-0.77,1729424753393.0,0.0
-0.224925,-8.226524,-6.608976,25.48,-6.23,-2.52,1729424753410.0,0.0
-0.454636,-8.647661,-7.281359,20.440001,-8.47,-17.01,1729424753432.0,0.0
-0.59342,-8.463413,-7.776673,25.83,-4.76,-19.32,1729424753451.0,0.0
-0.820738,-6.690332,-6.532406,30.1,-1.12,-15.75,1729424753470.0,0.0
-1.840081,-6.07777,-4.508078,7.56,1.82,-7.49,1729424753490.0,0.0
-2.249253,-7.23111,-4.089334,-36.610001,-5.32,-11.13,1729424753510.0,0.0
-1.78026,-8.953942,-5.587241,-67.900002,-19.25,-12.53,1729424753532.0,0.0
-0.071785,-10.016356,-7.927422,-45.150002,-33.810001,-20.58,1729424753552.0,0.0
0.863809,-6.908078,-5.848059,-4.06,-24.290001,-17.15,1729424753650.0,0.0
0.648455,-6.874579,-5.343173,32.200001,-13.440001,-0.84,1729424753650.0,0.0
1.29691,-7.781459,-5.694918,13.79,-23.17,-5.32,1729424753650.0,0.0
1.155733,-8.628519,-6.608976,9.31,-25.690001,-8.61,1729424753653.0,0.0
0.782453,-8.305488,-7.135397,24.15,-24.01,-16.17,1729424753653.0,0.0
-0.31346,-6.613762,-6.116055,24.780001,-10.85,-15.05,1729424753669.0,0.0
-1.095913,-4.773681,-6.240481,1.05,-12.18,-7.28,1729424753689.0,0.0
-2.385644,-6.388836,-5.749953,-37.240002,-7.7,0.91,1729424753709.0,0.0
-1.993221,-8.73141,-5.343173,-66.989998,-21.700001,-5.18,1729424753739.0,0.0
-0.392423,-9.798609,-6.202196,-55.580002,-47.880001,-11.62,1729424753755.0,0.0
0.339781,-8.52802,-7.733603,-25.48,-40.459999,-13.37,1729424753769.0,0.0
-0.167498,-6.575477,-7.475177,4.34,-23.799999,-1.05,1729424753790.0,0.0
-0.356531,-6.075377,-7.578069,5.18,-13.93,11.34,1729424753810.0,0.0
0.591027,-7.113862,-8.29113,0.49,-16.59,17.99,1729424753831.0,0.0
0.792024,-8.757731,-9.083155,10.01,-7.14,17.43,1729424753851.0,0.0
-0.339781,-8.159525,-8.250452,42.139999,19.530001,16.799999,1729424753869.0,0.0
-1.677369,-6.391229,-7.013363,73.57,32.34,22.960001,1729424753889.0,0.0
-2.160719,-4.266403,-4.34058,68.32,24.710001,32.830002,1729424753910.0,0.0
-2.065006,-5.297709,-4.316652,14.84,-3.36,37.099998,1729424753930.0,0.0
-2.333002,-8.008778,-4.931608,-15.33,1.68,25.620001,1729424753951.0,0.0
-2.337788,-10.164711,-5.687739,4.69,-1.47,21.42,1729424753971.0,0.0
-1.787439,-11.552547,-6.101698,72.870003,-13.93,21.49,1729424753990.0,0.0
-1.052842,-11.320443,-6.757331,156.729996,-18.620001,25.059999,1729424754009.0,0.0
-0.59342,-11.265409,-6.745367,229.880005,-15.12,24.5,1729424754031.0,0.0
-0.363709,-11.483156,-6.429514,291.619995,-7.28,20.93,1729424754051.0,0.0
-0.445065,-11.243874,-4.924429,364.769989,-0.7,16.940001,1729424754070.0,0.0
-1.055235,-10.049855,-3.479164,440.649994,7.77,20.23,1729424754090.0,0.0
-1.682154,-6.573084,-1.947758,500.640015,6.79,31.710001,1729424754112.0,0.0
-2.112862,-3.742374,0.473779,509.110016,-0.56,57.189999,1729424754131.0,0.0
-2.021935,-2.380858,3.505485,368.899994,-5.04,64.470001,1729424754151.0,0.0
-2.545963,-5.508278,4.398008,161.210007,16.870001,45.150002,1729424754170.0,0.0
-3.76391,-9.288938,2.639283,-9.38,43.400002,13.23,1729424754189.0,0.0
-5.056034,-12.784851,2.380858,-57.959999,56.209999,0.84,1729424754209.0,0.0
-5.489135,-14.177474,1.864009,-19.74,42.139999,0.84,1729424754232.0,0.0
-2.799603,-11.688939,2.048256,83.580002,16.52,-3.22,1729424754250.0,0.0
-2.088934,-9.133404,3.35713,207.479996,38.150002,-7.7,1729424754272.0,0.0
-2.835495,-7.085148,5.927022,209.789993,63.07,-14.28,1729424754290.0,0.0
-3.95055,-5.572884,7.953743,174.229996,58.73,-20.16,1729424754309.0,0.0
-3.615555,-3.773481,8.772088,129.430008,23.309999,-18.690001,1729424754330.0,0.0
-2.383251,-2.062613,7.867601,91.279999,-13.37,-2.73,1729424754350.0,0.0
-1.311267,-1.258625,6.9679,49.91,-32.830002,21.210001,1729424754369.0,0.0
-0.78006,-1.454836,6.489335,-28.49,-33.040001,38.290001,1729424754390.0,0.0
-1.301696,-3.460021,5.166104,-116.550003,-24.15,49.0,1729424754409.0,0.0
-2.120041,-7.389036,3.117848,-152.949997,-17.219999,56.560001,1729424754438.0,0.0
-3.943372,-14.244473,2.586641,-115.57,-11.27,53.060001,1729424754452.0,0.0
-5.651847,-19.209579,1.165305,-69.93,16.17,12.11,1729424754469.0,0.0
-7.250252,-19.527826,2.112862,-13.93,52.080002,-23.73,1729424754490.0,0.0
-6.520442,-15.007784,2.383251,61.389999,63.560001,-48.299999,1729424754509.0,0.0
-5.123034,-10.91845,3.287738,125.230003,50.119999,-63.91,1729424754531.0,0.0
-3.629912,-7.977671,4.577469,121.940002,47.18,-92.400002,1729424754550.0,0.0
-2.732604,-4.491328,5.257031,101.709999,47.670002,-92.68,1729424754569.0,0.0
-0.741775,2.725425,8.829515,122.220001,29.4,-41.439999,1729424754589.0,0.0
1.28016,5.965307,10.509278,102.760002,-17.01,-1.75,1729424754609.0,0.0
1.270589,5.982057,9.736395,8.68,-22.469999,40.18,1729424754632.0,0.0
-1.129412,2.392823,6.733403,-105.629997,-5.81,80.080002,1729424754657.0,0.0
-3.177669,-0.961915,3.168097,-191.940002,5.81,97.300003,1729424754809.0,0.0
-5.185246,-5.769095,0.801596,-211.050003,0.7,107.099998,1729424754810.0,0.0
-9.353544,-15.919449,2.021935,-198.940002,1.75,84.559998,1729424754810.0,0.0
-11.700903,-23.368305,-2.567499,-200.690002,5.46,4.83,1729424754810.0,0.0
-10.760524,-23.944977,-1.411765,-99.75,-4.97,-17.710001,1729424754810.0,0.0
-6.422336,-18.372093,0.782453,49.630001,-6.02,-36.889999,1729424754811.0,0.0
-3.744767,-13.004992,1.600798,134.050003,10.78,-73.080002,1729424754811.0,0.0
-3.024528,-9.382257,1.536192,168.630005,35.91,-95.129997,1729424754816.0,0.0
-2.928815,-7.233503,2.254039,157.360001,51.66,-110.669998,1729424754830.0,0.0
-3.002992,-2.85703,3.869194,142.380005,56.630001,-104.580002,1729424754853.0,0.0
-2.184647,2.620141,4.725825,165.830002,41.650002,-69.230003,1729424754869.0,0.0
0.356531,7.082755,8.657232,172.270004,-3.99,-26.530001,1729424754892.0,0.0
3.59402,3.424129,11.227123,127.190002,-21.42,-1.05,1729424754909.0,0.0
0.988236,0.354138,9.772287,-47.32,-3.22,69.370003,1729424754929.0,0.0
-2.182254,-1.902294,8.721838,-73.849998,3.71,105.279999,1729424754956.0,0.0
-4.335794,-3.735196,7.630712,-92.540001,-14.7,127.82,1729424754969.0,0.0
-6.118448,-7.180861,3.369094,-163.729996,-41.02,129.080002,1729424754989.0,0.0
-9.372685,-18.436699,0.392423,-209.020004,-37.66,73.57,1729424755008.0,0.0
-12.449856,-29.34079,-1.20359,-203.070007,-16.17,-24.08,1729424755029.0,0.0
-9.918249,-24.32304,-0.89013,-56.490002,-2.45,-54.810001,1729424755052.0,0.0
-6.262017,-14.646468,1.741975,130.130005,25.549999,-59.920002,1729424755071.0,0.0
-4.06062,-9.138189,1.818545,216.369995,48.299999,-105.840004,1729424755091.0,0.0
-2.725425,-6.276374,2.014757,247.729996,58.869999,-123.270004,1729424755172.0,0.0
-1.935793,-1.007378,3.328416,241.430008,53.130001,-109.550003,1729424755173.0,0.0
-0.636491,5.199604,5.589634,255.850006,32.27,-64.82,1729424755173.0,0.0
1.715654,9.798609,11.253445,244.860001,6.16,-29.68,1729424755173.0,0.0
2.926422,11.674582,12.385249,125.790001,6.72,3.64,1729424755189.0,0.0
0.545564,6.041877,10.822738,-1.89,-15.26,87.290001,1729424755209.0,0.0
-3.177669,-0.452243,7.149754,-138.669998,-24.85,135.449997,1729424755230.0,0.0
-6.034698,-5.704489,5.886343,-195.440002,-33.459999,144.550003,1729424755250.0,0.0
-11.626726,-15.318851,2.155933,-231.699997,-35.279999,107.239998,1729424755287.0,0.0
-15.093925,-29.42454,0.366102,-139.860001,-59.709999,8.19,1729424755293.0,0.0
-9.188439,-23.732014,2.699104,19.530001,-38.360001,-38.290001,1729424755311.0,0.0
-5.422136,-13.684553,4.228118,190.259995,32.34,-42.98,1729424755333.0,0.0
-4.400401,-8.020741,5.292924,237.860001,62.02,-114.029999,1729424755352.0,0.0
-3.058028,-4.321437,3.5007,234.5,51.240002,-124.879997,1729424755371.0,0.0
-1.493121,2.18704,4.34058,205.100006,38.360001,-107.449997,1729424755395.0,0.0
0.794417,11.062018,8.590233,180.740005,32.48,-73.57,1729424755410.0,0.0
4.005585,13.94537,13.557733,142.100006,21.77,-40.18,1729424755432.0,0.0
3.333202,12.270394,12.488142,-0.28,18.200001,41.650002,1729424755456.0,0.0
-0.026321,7.295716,9.968499,-134.539993,6.09,124.879997,1729424755471.0,0.0
-2.591427,2.218147,5.575277,-237.160004,0.07,152.039993,1729424755491.0,0.0
-5.680561,-5.536992,2.76371,-280.630005,-10.36,157.639999,1729424755510.0,0.0
-15.41217,-26.380871,3.830909,-193.339996,-44.099998,50.610001,1729424755535.0,0.0
-12.677175,-23.992832,2.900101,-84.279999,-31.15,4.55,1729424755552.0,0.0
-8.305488,-17.826529,4.864608,62.02,9.59,-19.530001,1729424755572.0,0.0
-5.405386,-11.279767,4.106083,122.150002,22.75,-90.790001,1729424755591.0,0.0
-4.287938,-8.147561,3.790231,170.169998,37.029999,-112.910004,1729424755612.0,0.0
-4.220939,-4.914857,4.642076,156.380005,52.920002,-133.210007,1729424755632.0,0.0
-3.795017,-1.505085,4.876573,134.330002,56.77,-129.639999,1729424755656.0,0.0
-2.143969,3.249453,4.972286,122.43,38.290001,-114.590004,1729424755673.0,0.0
0.174676,9.343972,7.89153,131.039993,16.799999,-74.269997,1729424755691.0,0.0
2.615355,11.466407,11.397014,98.559998,2.03,-18.48,1729424755713.0,0.0
2.565106,8.310273,12.679568,-13.3,-0.7,38.639999,1729424755732.0,0.0
0.153141,3.900301,9.858429,-111.790001,-13.16,105.699997,1729424755751.0,0.0
-2.378466,-1.019342,7.781459,-149.169998,-23.66,152.669998,1729424755772.0,0.0
-4.754539,-7.412964,5.216353,-185.360001,-31.43,154.279999,1729424755791.0,0.0
-8.99462,-15.773487,5.099105,-212.940002,-29.610001,101.989998,1729424755811.0,0.0
-11.353944,-24.966711,2.656033,-168.770004,-22.75,15.33,1729424755832.0,0.0
-8.693125,-17.73321,6.350551,-51.240002,5.74,-57.400002,1729424755852.0,0.0
-6.800402,-8.99462,6.051448,90.019997,32.970001,-73.360001,1729424755871.0,0.0
-4.706682,-8.327023,4.819145,141.119995,25.48,-123.970001,1729424755893.0,0.0
-3.266203,-6.78126,3.85723,137.479996,19.040001,-141.680008,1729424755911.0,0.0
-1.964507,-2.419144,4.493721,151.690002,24.290001,-135.380005,1729424755934.0,0.0
-0.473779,2.744568,6.037091,161.699997,26.530001,-115.57,1729424755953.0,0.0
1.251446,6.78126,10.882557,115.709999,21.210001,-93.239998,1729424755972.0,0.0
1.18684,9.820145,13.519447,-10.01,16.17,-51.310001,1729424755992.0,0.0
-0.457029,8.915657,12.373285,-111.370003,-11.34,28.07,1729424756010.0,0.0
-2.313859,2.270789,10.671989,-175.419998,-44.099998,74.550003,1729424756033.0,0.0
-3.220739,-3.113062,7.628319,-239.889999,-65.730003,75.879997,1729424756053.0,0.0
-3.524628,-7.558927,5.699703,-293.299988,-84.840004,72.099998,1729424756072.0,0.0
-3.84048,-8.793623,4.048656,-379.959991,-92.050003,65.449997,1729424756090.0,0.0
-4.615755,-8.166703,2.9671,-495.880005,-84.139999,51.240002,1729424756111.0,0.0
-5.776274,-10.839487,-1.239482,-583.030029,-59.849998,-1.82,1729424756134.0,0.0
-5.632704,-14.603395,-7.848458,-566.859985,-40.040001,-68.32,1729424756152.0,0.0
-5.041678,-17.125431,-7.633104,-411.880005,-8.33,-80.5,1729424756171.0,0.0
-4.567898,-12.736995,-4.295116,-196.210007,43.610001,-45.849998,1729424756192.0,0.0
-3.388237,-9.08794,-2.019542,22.540001,62.860001,-28.0,1729424756211.0,0.0
-2.005185,-5.168497,0.37328,21.629999,40.110001,-25.34,1729424756233.0,0.0
-0.428315,-4.256832,3.376273,-35.420002,22.4,-11.34,1729424756253.0,0.0
1.095913,-7.063612,2.823531,-111.860001,15.12,-3.15,1729424756271.0,0.0
2.021935,-9.097511,3.684947,-168.070007,7.35,-5.95,1729424756291.0,0.0
1.222732,-9.449257,3.818945,-187.25,4.97,-0.21,1729424756320.0,0.0
0.200997,-9.19801,2.222932,-184.940002,-27.23,-5.46,1729424756335.0,0.0
0.129212,-7.972885,-0.105284,-191.729996,-74.970001,-15.68,1729424756351.0,0.0
-0.351745,-7.307681,-4.807181,-208.809998,-108.290001,-17.57,1729424756372.0,0.0
-1.885544,-7.345965,-8.169096,-238.910004,-119.07,-22.049999,1729424756390.0,0.0
-3.266203,-6.865008,-17.670996,-307.160004,-52.150002,-49.07,1729424756410.0,0.0
-5.175675,-9.559326,-18.417555,-276.220001,35.91,-11.34,1729424756432.0,0.0
-5.584848,-12.610175,-15.416957,-84.139999,75.739998,17.219999,1729424756452.0,0.0
-3.696911,-9.525827,-10.217353,95.550003,70.279999,29.75,1729424756471.0,0.0
-1.789831,-3.847659,-6.769295,165.970001,62.369999,26.18,1729424756492.0,0.0
-1.899901,-1.476372,-1.708475,71.82,116.690002,36.540001,1729424756513.0,0.0
-1.639083,-7.305287,-0.681954,41.580002,95.129997,41.23,1729424756537.0,0.0
1.253839,-13.442878,2.476572,18.969999,35.630001,6.93,1729424756554.0,0.0
2.57707,-12.736995,1.875973,-25.690001,2.24,-30.450001,1729424756573.0,0.0
1.433301,-9.918249,0.851845,-10.29,-39.549999,-42.139999,1729424756592.0,0.0
0.323031,-9.62154,-2.151148,-17.219999,-84.07,-53.760002,1729424756611.0,0.0
0.071785,-9.391829,-4.606184,-25.129999,-107.099998,-67.620003,1729424756633.0,0.0
-0.835095,-7.82453,-5.108676,-38.360001,-111.790001,-70.489998,1729424756656.0,0.0
-2.222932,-6.501299,-8.736196,-71.610001,-107.099998,-68.040001,1729424756672.0,0.0
-3.424129,-3.15374,-10.49492,-106.330002,-77.419998,-38.009998,1729424756693.0,0.0
-5.438886,-4.579862,-13.229917,-124.110001,-10.64,3.22,1729424756713.0,0.0
-6.661618,-7.4345,-13.500306,-118.580002,54.459999,24.99,1729424756733.0,0.0
-5.599205,-8.616554,-11.80858,-33.110001,73.080002,50.119999,1729424756753.0,0.0
-2.519642,-8.305488,-8.348558,61.670002,51.310001,55.93,1729424756772.0,0.0
-0.311067,-5.316852,-6.15434,89.949997,85.330002,45.990002,1729424756794.0,0.0
-0.622134,-5.474778,-2.108077,74.620003,90.93,47.32,1729424756813.0,0.0
0.887737,-6.838687,1.237089,55.580002,50.540001,39.130001,1729424756833.0,0.0
3.146562,-9.934999,0.684347,32.970001,1.47,19.879999,1729424756853.0,0.0
3.940979,-11.270195,-1.428515,4.9,-30.1,-17.08,1729424756873.0,0.0
2.438286,-9.710074,-3.4672,-1.68,-52.360001,-35.560001,1729424756893.0,0.0
0.856631,-8.030313,-5.082355,-20.51,-71.82,-43.049999,1729424756913.0,0.0
-0.557528,-6.685547,-5.436492,-71.400002,-84.489998,-45.57,1729424756934.0,0.0
-1.832902,-5.611169,-8.987441,-126.419998,-89.18,-48.720001,1729424756953.0,0.0
-2.995814,-5.379066,-12.904492,-134.259995,-72.099998,-36.259998,1729424756974.0,0.0
-4.63729,-4.864608,-13.875979,-117.389999,-21.139999,-14.07,1729424756993.0,0.0
-6.23091,-5.99402,-12.935599,-55.299999,33.25,21.0,1729424757012.0,0.0
-4.95075,-7.460821,-11.306087,34.790001,42.700001,43.68,1729424757040.0,0.0
-1.954936,-9.29133,-11.107484,98.559998,39.48,42.139999,1729424757054.0,0.0
-0.921237,-7.702496,-8.62134,98.07,78.540001,23.73,1729424757073.0,0.0
-2.050649,-6.52762,-4.051049,84.629997,102.199997,17.639999,1729424757093.0,0.0
0.184247,-6.750153,2.359323,39.130001,76.510002,6.93,1729424757113.0,0.0
2.979064,-9.004191,2.658426,0.56,-10.99,-8.61,1729424757133.0,0.0
3.397808,-10.339387,-0.098106,-20.719999,-50.75,-40.529999,1729424757153.0,0.0
0.832702,-9.209974,-2.675175,-33.040001,-73.010002,-53.41,1729424757173.0,0.0
-1.143769,-7.305287,-2.952743,-40.599998,-95.340004,-55.09,1729424757192.0,0.0
-2.411965,-7.233503,-5.398208,-57.540001,-120.190002,-52.360001,1729424757213.0,0.0
-3.493521,-6.419943,-10.875379,-78.330002,-124.040001,-56.630001,1729424757233.0,0.0
-5.687739,-5.008178,-13.380664,-111.580002,-75.110001,-47.18,1729424757253.0,0.0
-6.922436,-4.735396,-14.861821,-114.449997,-23.799999,-15.47,1729424757273.0,0.0
-5.618347,-3.711268,-12.856635,-69.720001,4.62,8.82,1729424757292.0,0.0
-2.928815,-4.192225,-12.500106,5.6,26.460001,29.4,1729424757313.0,0.0
-1.617548,-6.410372,-10.82513,69.230003,56.560001,33.25,1729424757333.0,0.0
-1.07677,-7.51107,-9.829715,96.879997,76.93,27.58,1729424757353.0,0.0
-0.62692,-6.888937,-6.448657,85.610001,81.059998,14.42,1729424757372.0,0.0
0.236889,-4.828716,-1.430908,30.24,65.730003,-0.77,1729424757393.0,0.0
1.684547,-6.74776,0.239282,-12.95,24.01,-4.06,1729424757412.0,0.0
2.311467,-8.001599,0.413958,-49.98,-15.61,-30.870001,1729424757433.0,0.0
0.696311,-8.054241,-2.852244,-64.75,-49.279999,-51.310001,1729424757454.0,0.0
0.148355,-6.98465,-7.506285,-63.279999,-97.650002,-62.510002,1729424757473.0,0.0
-0.823131,-4.883751,-11.715261,-93.169998,-86.800003,-57.540001,1729424757492.0,0.0
-2.457429,-4.412365,-14.048263,-125.160004,-50.189999,-34.790001,1729424757513.0,0.0
-3.806981,-3.725625,-15.108281,-116.970001,-3.01,-7.07,1729424757534.0,0.0
-4.180261,-4.577469,-13.150953,-46.830002,34.509998,21.98,1729424757554.0,0.0
-2.790031,-6.386444,-11.576476,52.5,43.68,41.650002,1729424757573.0,0.0
-1.028914,-7.15454,-11.507084,110.529999,54.110001,34.860001,1729424757593.0,0.0
-0.334995,-7.350751,-9.521042,114.449997,75.669998,20.16,1729424757612.0,0.0
-0.598206,-5.551349,-4.567898,66.290001,89.18,9.52,1729424757634.0,0.0
0.995414,-6.419943,-1.158126,34.790001,55.790001,10.36,1729424757656.0,0.0
2.945565,-7.908278,0.071785,13.23,14.0,-3.64,1729424757672.0,0.0
2.344966,-9.040084,-1.215554,7.77,-19.32,-23.73,1729424757693.0,0.0
0.51685,-7.56132,-2.371287,1.12,-44.450001,-37.73,1729424757712.0,0.0
-0.378066,-5.513064,-5.307281,-6.16,-74.830002,-36.470001,1729424757734.0,0.0
-1.194018,-4.003192,-8.695518,-38.009998,-84.419998,-27.93,1729424757753.0,0.0
-3.160919,-5.125426,-11.152946,-80.43,-65.169998,-16.030001,1729424757774.0,0.0
-6.070591,-4.663611,-14.818751,-106.260002,-31.219999,-12.18,1729424757793.0,0.0
-4.381258,-4.034299,-13.493127,-31.780001,11.06,9.38,1729424757812.0,0.0
-2.462214,-4.919643,-12.000006,44.170002,28.98,23.1,1729424757906.0,0.0
-0.574277,-6.54437,-10.899307,77.840004,44.099998,20.370001,1729424757907.0,0.0
0.48335,-7.810174,-9.889536,62.510002,63.630001,8.19,1729424757907.0,0.0
0.452243,-5.491528,-5.245068,48.580002,69.580002,5.32,1729424757907.0,0.0
1.136591,-5.407779,-1.78026,29.82,47.389999,10.15,1729424757913.0,0.0
2.282753,-7.424929,-0.899701,0.21,10.5,2.24,1729424757944.0,0.0
1.710868,-8.267202,-1.198804,-18.969999,-18.27,-10.08,1729424757953.0,0.0
0.191426,-6.874579,-2.333002,-24.01,-46.34,-19.18,1729424757972.0,0.0
-0.454636,-4.797609,-5.07757,-24.01,-74.340004,-16.52,1729424757992.0,0.0
-1.418944,-4.553542,-9.607183,-40.670002,-85.190002,-7.0,1729424758011.0,0.0
-3.438486,-5.278566,-14.086546,-84.629997,-59.150002,-4.2,1729424758033.0,0.0
-4.881358,-4.689932,-14.943177,-112.209999,-13.72,6.02,1729424758053.0,0.0
-4.752146,-4.326223,-13.150953,-72.800003,15.05,19.389999,1729424758072.0,0.0
-2.48375,-5.757132,-11.983256,15.75,21.700001,29.26,1729424758092.0,0.0
-0.282353,-7.846066,-12.796815,72.029999,33.32,18.76,1729424758112.0,0.0
-0.303888,-5.582455,-8.16431,85.330002,64.400002,-2.24,1729424758134.0,0.0
-0.547956,-5.685347,-3.778267,75.529999,68.669998,5.18,1729424758153.0,0.0
0.760918,-5.465207,-0.782453,22.68,42.84,-3.92,1729424758173.0,0.0
1.531406,-6.762117,0.200997,-8.12,5.53,-0.91,1729424758192.0,0.0
0.875773,-8.195417,-2.225325,-19.809999,-26.18,-10.92,1729424758212.0,0.0
-0.11007,-7.724032,-4.859823,-21.91,-48.580002,-22.889999,1729424758233.0,0.0
-0.844666,-5.661418,-6.872187,-21.559999,-61.810001,-19.950001,1729424758253.0,0.0
-1.935793,-4.290331,-10.272388,-35.349998,-56.91,-4.13,1729424758272.0,0.0
-3.672983,-4.074977,-14.057834,-68.809998,-27.860001,10.08,1729424758293.0,0.0
-4.613362,-5.541777,-15.268601,-82.529999,12.81,18.27,1729424758312.0,0.0
-3.189633,-5.120641,-14.024333,-32.689999,27.65,26.18,1729424758333.0,0.0
-0.811167,-6.649654,-12.337393,53.48,24.360001,32.549999,1729424758360.0,0.0
0.272782,-6.216553,-10.861022,72.800003,53.060001,12.25,1729424758373.0,0.0
-0.351745,-5.146961,-7.668997,70.349998,73.57,3.01,1729424758392.0,0.0
-0.052642,-3.005385,-3.144169,61.880001,64.260002,9.1,1729424758413.0,0.0
1.694118,-4.283153,-0.732204,40.389999,23.799999,14.63,1729424758433.0,0.0
2.021935,-9.217153,-2.266003,-2.31,-21.07,-1.4,1729424758453.0,0.0
0.521635,-8.54477,-3.814159,-5.67,-39.200001,-23.799999,1729424758473.0,0.0
-0.265603,-6.932007,-5.587241,-1.47,-63.0,-28.139999,1729424758493.0,0.0
-0.449851,-4.82393,-8.030313,-30.52,-73.290001,-24.99,1729424758513.0,0.0
-1.339981,-3.761517,-11.066804,-69.160004,-62.16,-12.95,1729424758534.0,0.0
-2.584249,-3.893122,-14.313866,-97.019997,-38.43,-4.34,1729424758555.0,0.0
-3.895515,-3.704089,-14.677574,-90.650002,0.77,4.9,1729424758573.0,0.0
-4.409972,-4.773681,-14.301902,-27.16,27.299999,29.049999,1729424758593.0,0.0
-2.900101,-7.996813,-12.282358,56.77,32.41,36.82,1729424758614.0,0.0
-1.22034,-7.89153,-10.822738,87.080002,52.360001,20.299999,1729424758637.0,0.0
-1.071985,-4.943572,-7.367501,95.059998,71.190002,11.9,1729424758659.0,0.0
-1.045663,-3.589234,-3.184847,73.43,65.730003,17.15,1729424758673.0,0.0
0.27996,-4.158726,0.411566,24.08,33.950001,19.32,1729424758694.0,0.0
0.775275,-10.305886,-0.160319,-11.2,-6.3,12.18,1729424758714.0,0.0
0.564706,-10.920842,-2.033899,-29.120001,-36.959999,-25.620001,1729424758735.0,0.0
-0.571885,-5.168497,-4.177868,11.41,-74.059998,-18.9,1729424758754.0,0.0
-0.083749,-5.642276,-8.092526,5.6,-98.489998,-16.24,1729424758774.0,0.0
-0.380459,-5.891129,-14.136796,-14.49,-88.550003,-14.28,1729424758793.0,0.0
-2.555535,-4.010371,-16.213766,-48.650002,-35.139999,-8.12,1729424758814.0,0.0
-5.082355,-2.876173,-15.816557,-71.610001,24.99,14.21,1729424758836.0,0.0
-5.374279,-3.945765,-13.679767,-40.32,52.709999,36.82,1729424758855.0,0.0
-2.799603,-8.836694,-12.179466,47.18,36.189999,49.98,1729424758874.0,0.0
-0.083749,-10.478169,-10.114462,86.660004,49.700001,18.059999,1729424758895.0,0.0
-1.081556,-6.374479,-7.195218,94.360001,89.25,1.33,1729424758915.0,0.0
-2.816352,-4.608576,-3.629912,68.669998,91.07,2.87,1729424758937.0,0.0
-1.557728,-4.534399,0.145962,30.309999,55.09,5.74,1729424758958.0,0.0
1.021735,-5.766702,1.363909,12.25,9.1,10.99,1729424758975.0,0.0
2.07697,-8.472985,-0.916451,10.92,-28.700001,3.99,1729424758994.0,0.0
0.277567,-9.963714,-2.400001,8.12,-45.779999,-16.379999,1729424759015.0,0.0
-1.038485,-6.376873,-3.907479,12.18,-67.129997,-21.98,1729424759036.0,0.0
-0.713061,-4.651647,-9.169296,-13.79,-110.879997,-16.59,1729424759056.0,0.0
-2.493321,-4.031906,-13.993226,-60.549999,-86.519997,-11.69,1729424759079.0,0.0
-5.369494,-3.206382,-16.345371,-116.480003,-22.82,-5.95,1729424759094.0,0.0
-6.848258,-3.912265,-16.654045,-85.330002,21.49,17.290001,1729424759114.0,0.0
-4.972286,-6.448657,-14.526826,9.94,36.959999,44.240002,1729424759137.0,0.0
-1.397408,-9.688539,-12.693924,81.900002,32.130001,38.5,1729424759155.0,0.0
0.337388,-6.573084,-10.861022,88.059998,72.379997,9.1,1729424759174.0,0.0
-1.26341,-2.773281,-5.249853,78.82,104.300003,17.85,1729424759195.0,0.0
-0.827917,-3.639483,-1.131805,40.529999,80.57,21.280001,1729424759215.0,0.0
1.29691,-6.695118,0.602991,10.85,32.689999,19.32,1729424759235.0,0.0
2.550749,-8.882158,0.119641,10.85,-3.78,8.47,1729424759256.0,0.0
1.0002,-10.896914,-1.691726,-3.15,-23.1,-9.59,1729424759274.0,0.0
-0.844666,-9.365508,-2.306681,-1.96,-45.779999,-36.259998,1729424759295.0,0.0
-1.684547,-6.503692,-3.639483,1.4,-74.410004,-35.560001,1729424759315.0,0.0
-0.789631,-6.065805,-7.542177,-22.82,-113.120003,-36.470001,1729424759335.0,0.0
-2.254039,-4.402793,-14.581861,-71.260002,-101.849998,-40.599998,1729424759355.0,0.0
-5.513064,-3.031706,-16.070196,-133.559998,-38.57,-15.47,1729424759375.0,0.0
-7.534998,-5.149354,-15.41935,-80.57,48.720001,13.65,1729424759395.0,0.0
-6.017949,-7.453642,-12.748959,43.610001,54.740002,42.349998,1729424759414.0,0.0
-2.397608,-8.094919,-10.447062,141.330002,36.259998,45.920002,1729424759446.0,0.0
-1.416551,-6.867401,-8.626125,145.600006,72.379997,20.93,1729424759458.0,0.0
-2.35693,-4.48415,-6.589834,100.449997,97.090004,11.69,1729424759474.0,0.0
-2.196611,-4.067799,-4.993821,37.310001,86.239998,13.37,1729424759494.0,0.0
-0.78006,-5.302495,-2.85703,-9.59,65.099998,18.76,1729424759514.0,0.0
1.481157,-5.749953,-2.522035,-11.9,44.869999,24.92,1729424759536.0,0.0
3.359523,-5.98445,-1.438086,0.63,13.65,36.400002,1729424759555.0,0.0
2.54357,-12.835101,-2.730211,-0.77,1.61,20.51,1729424759574.0,0.0
1.574477,-12.445071,-4.144369,14.84,-25.9,-14.49,1729424759594.0,0.0
0.535992,-8.035098,-3.448057,52.990002,-45.990002,-25.48,1729424759615.0,0.0
-0.129212,-5.910272,-4.098906,23.66,-68.110001,-25.9,1729424759635.0,0.0
-0.26321,-7.022934,-6.082555,-29.33,-83.860001,-33.110001,1729424759658.0,0.0
-1.184447,-7.302894,-8.181061,-70.0,-79.940002,-42.490002,1729424759674.0,0.0
-2.206182,-5.319244,-12.461821,-77.910004,-64.470001,-41.790001,1729424759694.0,0.0
-5.187639,-5.630312,-14.77568,-78.959999,10.08,-16.66,1729424759714.0,0.0
-6.518049,-6.07777,-12.535997,-33.670002,59.849998,17.99,1729424759736.0,0.0
-4.795217,-5.929415,-10.320245,45.220001,48.860001,52.360001,1729424759755.0,0.0
-2.328217,-5.417351,-8.810372,86.169998,45.990002,51.799999,1729424759784.0,0.0
-2.122434,-4.941179,-5.800202,91.139999,76.300003,50.68,1729424759797.0,0.0
-2.54357,-5.649454,-2.045863,84.980003,79.379997,51.170002,1729424759814.0,0.0
-1.426122,-6.754939,1.318445,59.010002,43.82,47.810001,1729424759835.0,0.0
0.849452,-10.358529,0.555135,20.719999,-10.99,33.740002,1729424759855.0,0.0
2.720639,-12.119646,-2.644069,-5.74,-47.810001,-7.0,1729424759874.0,0.0
1.495514,-10.226924,-3.194418,-4.2,-57.189999,-32.830002,1729424759894.0,0.0
0.055035,-7.563712,-3.608376,1.19,-77.139999,-41.299999,1729424759914.0,0.0
-0.375673,-4.912465,-7.223931,-26.32,-108.010002,-43.259998,1729424759935.0,0.0
-1.852045,-3.438486,-9.95175,-72.239998,-93.940002,-33.040001,1729424759956.0,0.0
-5.075177,-5.123034,-13.53859,-102.269997,-38.779999,-20.860001,1729424759974.0,0.0
-7.54457,-6.218946,-14.811572,-80.43,27.65,-3.85,1729424759994.0,0.0
-8.391629,-8.496914,-14.524432,31.710001,56.700001,38.080002,1729424760013.0,0.0
-4.522435,-5.862415,-10.856236,118.580002,37.380001,52.43,1729424760036.0,0.0
-1.272982,-4.41715,-6.460621,98.769997,73.360001,41.09,1729424760056.0,0.0
-1.270589,-3.969693,-4.039084,40.599998,94.849998,37.029999,1729424760078.0,0.0
-0.918844,-5.103891,-0.492921,16.24,71.889999,47.25,1729424760095.0,0.0
1.131805,-7.9346,0.794417,-11.13,19.460001,38.920002,1729424760117.0,0.0
2.268396,-10.573883,-2.017149,-39.130001,-21.35,13.440001,1729424760136.0,0.0
1.177269,-11.56451,-4.62054,-36.82,-35.91,-18.969999,1729424760156.0,0.0
-0.504886,-10.356135,-5.493921,-36.610001,-40.040001,-51.66,1729424760174.0,0.0
-1.741975,-8.894121,-5.395815,-38.360001,-59.43,-67.129997,1729424760193.0,0.0
-1.942972,-6.252446,-7.779066,-52.639999,-85.610001,-73.080002,1729424760214.0,0.0
-1.962115,-4.395615,-8.633304,-77.139999,-89.669998,-70.629997,1729424760235.0,0.0
-3.924229,-1.641476,-9.911072,-148.259995,-56.84,-54.810001,1729424760254.0,0.0
-6.278766,-4.651647,-11.093125,-197.470001,-4.76,-27.65,1729424760274.0,0.0
-6.592227,-8.939585,-13.749159,-118.090004,29.469999,1.47,1729424760294.0,0.0
-5.312066,-7.412964,-13.770694,65.239998,44.59,37.59,1729424760314.0,0.0
-3.09392,-3.364309,-12.074183,182.070007,46.619999,64.82,1729424760336.0,0.0
-1.684547,-3.005385,-9.45165,152.180008,73.919998,63.630001,1729424760355.0,0.0
-1.45005,-6.774081,-2.143969,77.769997,100.029999,61.040001,1729424760374.0,0.0
-0.37328,-8.037491,1.691726,-0.49,66.57,50.75,1729424760400.0,0.0
1.433301,-12.078968,-0.241675,-22.4,7.7,24.5,1729424760413.0,0.0
1.928615,-12.679568,-3.591627,-19.809999,-26.32,-19.110001,1729424760437.0,0.0
0.277567,-11.009377,-4.773681,10.08,-36.119999,-49.07,1729424760455.0,0.0
-0.684347,-7.398607,-5.962914,24.5,-57.189999,-59.5,1729424760474.0,0.0
-0.346959,-4.287938,-7.999206,-0.49,-90.650002,-50.119999,1729424760494.0,0.0
-0.878166,-3.062813,-10.023535,-59.709999,-78.330002,-39.200001,1729424760515.0,0.0
-3.299703,-3.835695,-10.535598,-84.0,-27.860001,-18.9,1729424760535.0,0.0
-5.54417,-5.881558,-12.220145,-63.98,19.110001,1.82,1729424760556.0,0.0
-6.415157,-6.975078,-13.679767,38.150002,46.549999,25.620001,1729424760575.0,0.0
-4.249653,-4.567898,-12.77528,125.720001,36.540001,55.580002,1729424760594.0,0.0
-1.495514,-3.512664,-10.408779,109.340004,51.099998,51.029999,1729424760615.0,0.0
-1.452443,-5.314459,-8.145168,56.139999,94.5,41.93,1729424760637.0,0.0
-2.234896,-7.338787,-4.029513,25.129999,109.129997,36.82,1729424760658.0,0.0
-1.533799,-8.9348,1.799403,-9.03,85.330002,28.77,1729424760675.0,0.0
0.251246,-10.638489,0.866202,-18.969999,2.38,12.67,1729424760695.0,0.0
0.638884,-10.164711,-2.074577,14.77,-33.599998,-9.31,1729424760716.0,0.0
-0.854238,-9.109475,-2.641676,33.18,-51.240002,-27.58,1729424760736.0,0.0
-1.182054,-6.096912,-4.713861,31.710001,-78.610001,-27.65,1729424760756.0,0.0
-0.679562,-4.742575,-8.532805,16.73,-108.290001,-18.129999,1729424760775.0,0.0
-1.837688,-3.641876,-11.200804,-26.25,-83.93,-4.62,1729424760795.0,0.0
-4.4674,-3.943372,-11.57169,-70.07,-28.139999,19.110001,1729424760815.0,0.0
-5.491528,-6.991827,-14.464613,-61.670002,12.25,38.57,1729424760836.0,0.0
-4.809574,-8.788837,-15.244674,32.689999,39.130001,52.150002,1729424760856.0,0.0
-2.720639,-6.649654,-13.780266,113.889999,54.18,59.220001,1729424760875.0,0.0
-1.57687,-5.838487,-10.339387,115.779999,89.599998,50.540001,1729424760896.0,0.0
-2.608176,-6.206983,-4.816752,79.449997,133.210007,42.560001,1729424760916.0,0.0
-3.388237,-6.953543,2.160719,33.950001,122.709999,36.959999,1729424760939.0,0.0
-0.985843,-10.547562,2.318645,-22.4,59.220001,24.290001,1729424760957.0,0.0
0.31346,-9.803394,-0.89013,-21.07,-16.309999,-9.66,1729424760976.0,0.0
-1.438086,-9.631111,-1.636691,7.42,-35.77,-24.99,1729424760997.0,0.0
-2.031506,-7.724032,-2.158326,3.85,-66.43,-39.759998,1729424761016.0,0.0
-1.67019,-6.463014,-5.936593,3.78,-106.330002,-37.52,1729424761037.0,0.0
-2.22054,-4.85743,-9.181261,-31.290001,-104.300003,-38.290001,1729424761058.0,0.0
-4.756931,-4.182654,-11.8349,-94.709999,-47.740002,-25.27,1729424761076.0,0.0
-5.905487,-7.597212,-14.677574,-111.720001,-2.8,-3.22,1729424761096.0,0.0
-4.431508,-8.927622,-15.66581,-30.030001,21.77,7.91,1729424761121.0,0.0
-2.538785,-6.960721,-14.277972,66.709999,39.41,26.110001,1729424761137.0,0.0
-1.414158,-6.216553,-11.617154,82.25,75.459999,20.23,1729424761157.0,0.0
-2.251646,-6.805188,-6.809973,53.619999,118.510002,15.47,1729424761177.0,0.0
-2.849852,-6.362515,-0.332602,31.780001,118.230003,11.62,1729424761196.0,0.0
-1.883151,-6.520442,3.737589,4.83,71.68,9.8,1729424761216.0,0.0
-0.409173,-9.109475,2.553142,-25.83,15.05,-1.47,1729424761238.0,0.0
-0.459422,-10.425529,-1.253839,-26.880001,-18.059999,-22.75,1729424761257.0,0.0
-1.308874,-9.79143,-3.574877,-3.22,-39.900002,-41.369999,1729424761276.0,0.0
-2.014757,-7.865208,-4.268795,6.65,-55.510002,-49.490002,1729424761297.0,0.0
-1.531406,-7.015756,-8.446664,-15.12,-86.099998,-43.400002,1729424761316.0,0.0
-1.617548,-5.785845,-9.908678,-62.510002,-68.040001,-35.209999,1729424761337.0,0.0
-2.840281,-4.630112,-11.686546,-90.650002,-34.509998,-19.530001,1729424761357.0,0.0
-3.404987,-5.039285,-14.323436,-81.410004,-2.8,-4.2,1729424761376.0,0.0
-2.586641,-5.836094,-14.467006,-8.54,24.15,13.02,1729424761395.0,0.0
-0.985843,-5.513064,-13.39502,91.0,39.689999,32.830002,1729424761416.0,0.0
-0.586242,-4.118048,-10.660025,110.040001,71.470001,40.670002,1729424761436.0,0.0
-1.22034,-3.026921,-6.948757,78.610001,104.090004,44.869999,1729424761457.0,0.0
-1.708475,-3.400201,-2.021935,42.139999,102.410004,52.150002,1729424761476.0,0.0
-1.356731,-7.477571,2.634498,-13.72,80.43,50.82,1729424761496.0,0.0
-1.818545,-13.552947,0.947558,-97.93,49.07,15.68,1729424761516.0,0.0
-1.715654,-12.619746,-1.007378,-57.119999,3.22,-2.31,1729424761538.0,0.0
-1.978864,-11.566904,-1.916651,9.59,-34.439999,-27.51,1729424761556.0,0.0
-2.59382,-10.112068,-4.211368,50.959999,-65.239998,-47.32,1729424761575.0,0.0
-2.545963,-8.599805,-6.391229,55.299999,-92.330002,-59.220001,1729424761596.0,0.0
-2.608176,-5.998806,-8.300702,17.92,-93.800003,-63.349998,1729424761616.0,0.0
-3.369094,-3.639483,-10.521241,-50.540001,-76.230003,-57.260002,1729424761637.0,0.0
-3.115455,-4.792823,-12.722638,-140.139999,-38.709999,-22.540001,1729424761660.0,0.0
-2.172683,-5.498707,-14.043476,-105.629997,-8.96,-3.78,1729424761675.0,0.0
-1.607977,-4.936393,-13.897513,15.05,24.92,19.25,1729424761695.0,0.0
-1.122234,-4.036692,-12.021541,120.68,45.920002,41.02,1729424761716.0,0.0
-1.18684,-3.433701,-8.85105,113.330002,77.980003,48.650002,1729424761736.0,0.0
-1.4668,-4.711468,-4.216154,69.650002,93.169998,52.639999,1729424761757.0,0.0
-0.72024,-7.037291,0.040678,19.32,80.290001,53.27,1729424761776.0,0.0
-0.519243,-13.785051,1.452443,-45.990002,51.73,30.799999,1729424761795.0,0.0
-1.249053,-13.696517,-1.287339,-71.400002,23.52,-12.04,1729424761815.0,0.0
-2.0004,-11.593226,-1.868794,-5.53,-17.08,-28.98,1729424761837.0,0.0
-1.909473,-10.423136,-2.701497,41.790001,-56.279999,-53.970001,1729424761858.0,0.0
-2.251646,-8.645268,-3.955336,49.91,-82.529999,-66.080002,1729424761875.0,0.0
-2.665605,-6.932007,-6.06102,32.619999,-101.849998,-74.760002,1729424761896.0,0.0
-3.096312,-4.934,-8.315059,-26.67,-102.059998,-83.230003,1729424761916.0,0.0
-3.54377,-3.038885,-9.745967,-109.760002,-80.5,-72.590004,1729424761936.0,0.0
-3.244668,-3.78066,-11.330014,-158.690002,-64.120003,-39.549999,1729424761959.0,0.0
-1.658226,-5.766702,-14.323436,-122.919998,-40.18,-10.36,1729424761976.0,0.0
-2.366502,-4.802395,-13.354343,58.380001,37.170002,31.780001,1729424761995.0,0.0
-2.897708,-3.893122,-10.96152,131.389999,61.670002,58.310001,1729424762015.0,0.0
-2.342573,-5.199604,-8.365308,101.43,75.18,60.34,1729424762036.0,0.0
-1.715654,-7.147361,-5.611169,59.709999,85.120003,57.470001,1729424762056.0,0.0
-1.143769,-7.360322,-0.904487,51.310001,75.809998,52.920002,1729424762075.0,0.0
-0.490529,-7.704889,0.59342,46.970001,46.549999,39.130001,1729424762095.0,0.0
-0.088534,-9.812965,-0.086142,25.83,6.16,16.450001,1729424762115.0,0.0
-0.495314,-11.430513,-2.108077,-4.34,-18.129999,-16.030001,1729424762137.0,0.0
-0.875773,-11.353944,-4.601398,-12.88,-47.810001,-47.040001,1729424762158.0,0.0
-0.842274,-9.736395,-6.003592,-32.34,-72.379997,-71.68,1729424762175.0,0.0
-1.026521,-7.326823,-8.41795,-81.760002,-84.419998,-89.18,1729424762196.0,0.0
-1.507478,-4.986642,-10.475778,-161.770004,-69.300003,-96.25,1729424762216.0,0.0
-1.217947,-2.603391,-11.703296,-180.669998,-51.170002,-77.629997,1729424762236.0,0.0
-1.988436,-1.794617,-12.205789,-135.729996,-11.27,-37.099998,1729424762257.0,0.0
-3.486342,-3.823731,-11.428121,-19.6,25.620001,6.23,1729424762275.0,0.0
-3.409772,-4.211368,-11.330014,95.410004,43.119999,41.439999,1729424762295.0,0.0
-1.725225,-4.249653,-8.937192,120.190002,44.029999,64.75,1729424762315.0,0.0
-1.998007,-6.903293,-6.15434,34.720001,79.870003,61.670002,1729424762336.0,0.0
-1.603191,-9.303294,-2.493321,10.08,73.5,52.080002,1729424762356.0,0.0
-0.241675,-11.016556,-0.940379,19.040001,34.790001,27.58,1729424762376.0,0.0
0.397209,-11.672189,-0.540778,25.200001,-0.49,-6.86,1729424762396.0,0.0
-0.112463,-11.609976,-1.730011,18.549999,-30.52,-41.509998,1729424762415.0,0.0
-0.851845,-10.69831,-3.524628,-1.89,-58.310001,-73.220001,1729424762444.0,0.0
-0.825524,-8.212167,-7.051648,-24.290001,-82.529999,-98.559998,1729424762457.0,0.0
-1.201197,-4.867002,-8.49452,-58.869999,-85.610001,-101.080002,1729424762475.0,0.0
-1.533799,-2.914458,-11.07159,-96.879997,-74.970001,-89.739998,1729424762499.0,0.0
-1.663012,-2.598605,-12.59821,-110.32,-49.77,-55.09,1729424762516.0,0.0
-2.11047,-2.122434,-12.397215,-91.419998,-4.27,-13.93,1729424762536.0,0.0
-3.055635,-3.627519,-12.416357,-1.12,33.880001,37.170002,1729424762557.0,0.0
-2.244468,-3.756732,-11.753544,93.590004,41.16,66.220001,1729424762575.0,0.0
-1.105484,-4.283153,-10.073784,119.980003,48.16,79.730003,1729424762596.0,0.0
-1.509871,-6.766902,-5.766702,72.449997,80.919998,67.830002,1729424762616.0,0.0
-1.51705,-9.896714,-1.952543,0.84,81.760002,43.889999,1729424762637.0,0.0
-0.040678,-10.865808,-0.495314,17.219999,34.93,24.99,1729424762660.0,0.0
0.830309,-11.77508,0.172283,33.810001,-10.01,-12.6,1729424762677.0,0.0
-0.078963,-11.057234,-1.320838,21.77,-37.66,-50.189999,1729424762698.0,0.0
-1.227518,-9.085547,-3.06042,-0.42,-63.560001,-74.059998,1729424762716.0,0.0
-1.756332,-7.238289,-6.15434,-27.860001,-89.949997,-86.449997,1729424762740.0,0.0
-1.481157,-5.577669,-10.526026,-60.41,-102.480003,-90.580002,1729424762757.0,0.0
-1.59362,-3.321238,-12.169895,-91.349998,-81.340004,-77.910004,1729424762777.0,0.0
-2.634498,-1.20359,-11.576476,-114.169998,-38.220001,-43.68,1729424762797.0,0.0
-3.366701,-2.541178,-13.57209,-88.620003,3.01,0.7,1729424762816.0,0.0
-2.754139,-2.758924,-14.72543,10.78,27.02,45.150002,1729424762901.0,0.0
-1.119841,-2.699104,-12.715459,119.770004,40.389999,75.739998,1729424762903.0,0.0
-0.119641,-4.046263,-10.25803,123.900002,59.639999,83.510002,1729424762904.0,0.0
-0.710668,-4.898108,-7.740781,69.440002,95.690002,74.690002,1729424762904.0,0.0
-1.674976,-8.312666,-2.581856,-8.26,100.449997,64.330002,1729424762929.0,0.0
-0.256032,-11.487941,-1.325624,-18.9,60.27,45.150002,1729424762939.0,0.0
1.0002,-12.983455,-0.715454,21.210001,15.12,15.190001,1729424762958.0,0.0
-0.07657,-12.928421,-0.61017,44.59,-11.13,-25.200001,1729424762979.0,0.0
-1.849652,-10.997414,-1.002593,19.74,-37.73,-60.48,1729424762999.0,0.0
-2.584249,-9.049655,-2.998207,-26.530001,-75.809998,-79.660004,1729424763018.0,0.0
-2.433501,-6.321837,-5.962914,-70.699997,-104.300003,-94.57,1729424763039.0,0.0
-2.081756,-3.98405,-11.935399,-87.709999,-105.840004,-91.840004,1729424763058.0,0.0
-2.057827,-2.854637,-15.168103,-80.709999,-71.540001,-62.790001,1729424763079.0,0.0
-2.275574,-2.612962,-15.639489,-59.849998,-14.49,-14.77,1729424763099.0,0.0
-1.727618,-2.26361,-16.321442,9.94,26.389999,37.450001,1729424763118.0,0.0
-0.782453,-2.328217,-13.974084,91.07,55.720001,76.370003,1729424763139.0,0.0
0.028714,-3.256632,-10.765309,111.300003,84.419998,78.260002,1729424763162.0,0.0
-0.736989,-4.252046,-6.632904,64.959999,114.169998,72.660004,1729424763178.0,0.0
-1.505085,-7.01097,-3.639483,0.14,127.82,62.93,1729424763198.0,0.0
-0.827917,-9.549755,-1.519442,8.19,92.610001,59.709999,1729424763218.0,0.0
0.105284,-12.344571,1.514657,47.25,46.48,36.119999,1729424763238.0,0.0
-1.519442,-13.014563,0.961915,34.16,-0.56,-24.5,1729424763258.0,0.0
-2.447858,-11.942577,-0.693919,2.59,-44.66,-63.700001,1729424763279.0,0.0
-2.89053,-9.863215,-2.266003,-29.33,-82.599998,-87.779999,1729424763298.0,0.0
-3.194418,-7.319644,-4.979464,-63.0,-103.809998,-105.279999,1729424763317.0,0.0
-3.249453,-4.335794,-7.408179,-82.809998,-113.540001,-107.379997,1729424763341.0,0.0
-2.414358,-2.043471,-12.835101,-84.279999,-104.510002,-85.610001,1729424763359.0,0.0
-1.562513,-2.325824,-16.041483,-46.200001,-78.610001,-35.560001,1729424763393.0,0.0
-0.433101,-1.481157,-16.900507,-3.08,-28.77,6.16,1729424763401.0,0.0
0.028714,-1.849652,-16.634903,42.279999,24.43,56.349998,1729424763417.0,0.0
0.366102,-4.955536,-14.354543,64.120003,63.279999,72.519997,1729424763439.0,0.0
0.349352,-6.139983,-9.631111,64.540001,95.970001,59.5,1729424763458.0,0.0
-0.758525,-5.297709,-5.79063,37.939999,121.800003,55.23,1729424763480.0,0.0
-1.490728,-6.515656,-2.057827,16.1,115.989998,56.139999,1729424763497.0,0.0
-0.693919,-9.437292,0.634098,26.18,73.360001,49.98,1729424763518.0,0.0
-0.045464,-11.557333,1.368695,39.41,27.65,22.960001,1729424763538.0,0.0
-1.174876,-13.24906,-0.0335,27.93,-3.64,-15.12,1729424763570.0,0.0
-2.07697,-12.141183,-3.48395,7.91,-39.900002,-57.540001,1729424763607.0,0.0
-2.15354,-8.147561,-6.817152,-0.84,-84.07,-91.840004,1729424763611.0,0.0
-1.942972,-3.986443,-8.896514,-35.77,-82.110001,-83.93,1729424763751.0,0.0
-1.375873,-2.617748,-10.985448,-57.889999,-67.970001,-46.759998,1729424763751.0,0.0
-0.155533,-3.065206,-13.540984,-47.389999,-51.380001,-12.74,1729424763752.0,0.0
-0.050249,-2.419144,-13.971692,-19.32,2.38,23.450001,1729424763752.0,0.0
-1.215554,-3.639483,-11.959327,18.48,51.240002,62.23,1729424763752.0,0.0
-1.940579,-5.754738,-8.38445,28.559999,69.230003,68.739998,1729424763752.0,0.0
-2.368894,-6.570691,-6.570691,22.4,73.360001,63.07,1729424763752.0,0.0
-2.218147,-6.197411,-5.536992,7.14,67.129997,54.810001,1729424763757.0,0.0
-1.395016,-8.157133,-5.134997,-0.07,46.830002,45.220001,1729424763776.0,0.0
-0.229711,-11.909079,-3.495914,9.45,25.200001,19.460001,1729424763796.0,0.0
0.507278,-12.873385,-2.203789,25.27,3.71,-13.09,1729424763817.0,0.0
0.579063,-10.499706,-2.591427,41.650002,-21.42,-46.41,1729424763838.0,0.0
0.459422,-7.477571,-5.034499,31.710001,-42.490002,-62.09,1729424763856.0,0.0
0.09332,-5.312066,-6.719046,-5.6,-46.060001,-59.080002,1729424763876.0,0.0
-0.215354,-5.108676,-9.209974,-40.599998,-40.950001,-42.91,1729424763904.0,0.0
-0.26321,-3.814159,-10.987842,-69.300003,-27.02,-27.790001,1729424763918.0,0.0
-0.734596,-6.295516,-10.999805,-45.009998,8.19,13.93,1729424763938.0,0.0
-0.562313,-7.716853,-9.580862,-16.799999,20.719999,21.280001,1729424763958.0,0.0
-0.746561,-7.357929,-7.49432,13.16,29.960001,23.870001,1729424763976.0,0.0
-1.09352,-6.458229,-6.089733,21.139999,29.610001,14.84,1729424763997.0,0.0
-1.129412,-7.905886,-5.082355,8.12,22.75,2.52,1729424764016.0,0.0
-0.488136,-9.676575,-4.656433,14.21,5.67,-11.27,1729424764038.0,0.0
0.246461,-8.865408,-4.012764,38.290001,-10.92,-24.780001,1729424764060.0,0.0
0.208176,-6.539584,-3.936193,47.880001,-18.549999,-28.35,1729424764079.0,0.0
0.600598,-6.156733,-4.364508,31.43,-36.259998,-28.84,1729424764097.0,0.0
0.689133,-6.403193,-6.71426,2.66,-50.400002,-29.33,1729424764117.0,0.0
-0.37328,-6.71426,-7.57089,-30.870001,-38.990002,-32.200001,1729424764138.0,0.0
-1.758725,-8.38445,-7.865208,-59.360001,-22.469999,-30.1,1729424764158.0,0.0
-1.249053,-7.211967,-9.12144,-62.720001,-31.01,-23.870001,1729424764177.0,0.0
-0.985843,-6.470192,-9.262616,-43.189999,-26.040001,-5.25,1729424764197.0,0.0
-1.545763,-6.128019,-9.346365,-31.99,-9.87,-1.54,1729424764217.0,0.0
-1.842474,-6.817152,-9.119047,-7.77,5.74,0.42,1729424764238.0,0.0
0.150748,-7.676175,-8.965906,51.029999,-7.56,-0.63,1729424764259.0,0.0
0.066999,-6.037091,-6.228518,70.910004,12.11,-3.5,1729424764277.0,0.0
-0.598206,-5.379066,-6.290731,68.879997,18.129999,-2.59,1729424764298.0,0.0
0.521635,-4.017549,-5.678168,33.32,-2.73,-3.92,1729424764316.0,0.0
0.832702,-4.508078,-4.893322,2.17,-14.84,0.77,1729424764338.0,0.0
-0.646062,-6.250053,-4.847858,-38.779999,0.98,-2.1,1729424764358.0,0.0
-1.205983,-8.066205,-5.79063,-64.82,-8.12,-8.26,1729424764379.0,0.0
0.145962,-8.283953,-7.499106,-56.279999,-35.0,-11.97,1729424764397.0,0.0
0.332602,-7.99442,-8.592626,-37.310001,-32.200001,-11.76,1729424764417.0,0.0
-0.777667,-7.396214,-9.21476,-30.59,-9.1,-16.030001,1729424764438.0,0.0
-0.739382,-7.429714,-9.650253,-15.61,-7.14,-13.72,1729424764459.0,0.0
0.689133,-8.726624,-9.77468,2.66,-16.379999,-16.030001,1729424764477.0,0.0
0.870987,-8.537591,-8.659625,23.17,0.49,-21.35,1729424764498.0,0.0
-0.648455,-7.286145,-7.929814,45.360001,25.620001,-22.049999,1729424764517.0,0.0
-1.607977,-4.890929,-5.651847,39.41,31.219999,-20.16,1729424764540.0,0.0
-1.804188,-5.005785,-4.735396,22.4,8.12,-8.12,1729424764559.0,0.0
-1.550549,-7.109076,-5.067998,-17.219999,-3.29,-17.15,1729424764576.0,0.0
-0.457029,-8.623734,-6.058627,-15.05,-21.42,-17.360001,1729424764607.0,0.0
0.339781,-7.513463,-7.018148,14.07,-31.92,-18.34,1729424764618.0,0.0
0.260818,-7.953743,-7.862815,55.369999,-26.74,-17.710001,1729424764637.0,0.0
0.019143,-8.671589,-7.838887,114.730003,-19.809999,-15.190001,1729424764660.0,0.0
0.105284,-9.602397,-7.15454,200.479996,-22.469999,-12.25,1729424764676.0,0.0
0.069392,-10.609775,-7.283752,295.049988,-21.700001,-11.69,1729424764696.0,0.0
-0.514457,-10.978271,-7.611568,398.019989,-13.72,-3.29,1729424764718.0,0.0
-1.158126,-9.298509,-5.630312,475.649994,2.94,11.76,1729424764739.0,0.0
-1.694118,-8.405986,-3.507878,516.880005,19.530001,33.459999,1729424764758.0,0.0
-1.418944,-8.779266,-2.682354,493.709991,16.799999,33.670002,1729424764778.0,0.0
0.107677,-8.465806,-0.583849,410.829987,9.38,18.969999,1729424764796.0,0.0
1.024128,-8.221739,2.002793,342.369995,20.93,8.54,1729424764816.0,0.0
1.07677,-8.035098,3.567699,313.25,35.91,-0.49,1729424764839.0,0.0
0.638884,-7.992027,3.823731,316.119995,36.049999,0.14,1729424764858.0,0.0
0.435494,-7.700103,3.412165,314.51001,33.950001,3.5,1729424764876.0,0.0
0.33021,-7.130611,1.87358,320.390015,39.060001,-0.35,1729424764906.0,0.0
-2.502892,-2.007578,12.009576,292.25,49.77,-5.39,1729424764917.0,0.0
-4.26401,1.055235,13.081561,161.070007,62.650002,-9.1,1729424764942.0,0.0
-4.606184,2.545963,11.660224,54.950001,20.58,7.84,1729424764960.0,0.0
-2.148755,2.565106,8.693125,15.26,-40.18,34.509998,1729424764977.0,0.0
0.70349,0.844666,7.611568,4.27,-58.170002,47.950001,1729424764997.0,0.0
1.045663,-2.057827,7.752745,-28.84,-28.210001,66.150002,1729424765016.0,0.0
-1.299303,-5.448457,7.819745,-45.920002,7.84,78.120003,1729424765037.0,0.0
-3.814159,-7.80778,7.69771,-37.59,24.92,84.0,1729424765059.0,0.0
-5.458029,-9.877571,7.066005,-30.940001,18.83,90.580002,1729424765078.0,0.0
-5.352744,-11.952149,5.405386,-39.689999,7.28,61.18,1729424765098.0,0.0
-5.20439,-15.582061,4.240082,-32.549999,21.700001,5.88,1729424765118.0,0.0
-5.307281,-15.424134,4.890929,-3.22,49.07,-45.709999,1729424765140.0,0.0
-4.613362,-10.057034,6.221339,72.870003,61.529999,-68.18,1729424765160.0,0.0
-4.711468,-6.015556,7.116255,131.880005,68.809998,-70.629997,1729424765178.0,0.0
-4.04387,-5.343173,7.970492,133.979996,62.650002,-88.970001,1729424765198.0,0.0
-3.314059,-3.694518,8.075776,91.07,41.369999,-104.510002,1729424765219.0,0.0
-2.26361,0.043071,7.872386,99.82,32.060001,-86.029999,1729424765244.0,0.0
-0.59342,3.605984,8.073383,126.0,11.27,-51.869999,1729424765262.0,0.0
1.129412,6.716653,9.159724,104.720001,-5.18,-17.92,1729424765281.0,0.0
1.292124,6.850651,10.435099,46.900002,-3.5,30.17,1729424765300.0,0.0
-0.55992,2.931208,10.91845,-37.59,2.59,83.580002,1729424765318.0,0.0
-2.68714,-1.591227,8.616554,-126.840004,-8.33,113.610001,1729424765340.0,0.0
-3.775874,-6.321837,7.563712,-188.930008,-34.16,116.199997,1729424765360.0,0.0
-4.546363,-10.600205,5.515456,-223.860001,-49.0,98.489998,1729424765378.0,0.0
-5.130211,-15.151353,4.761717,-206.850006,-49.349998,63.420002,1729424765397.0,0.0
-5.726025,-18.807585,5.012963,-143.430008,-22.469999,6.23,1729424765418.0,0.0
-6.13759,-16.405191,5.424529,-62.23,8.89,-46.619999,1729424765441.0,0.0
-5.496314,-9.54497,6.223732,26.110001,18.48,-63.630001,1729424765459.0,0.0
-4.606184,-6.312266,5.505885,63.98,17.85,-69.090004,1729424765478.0,0.0
-3.163311,-6.419943,5.192425,46.130001,13.58,-97.440002,1729424765500.0,0.0
-2.196611,-5.431707,6.594619,-6.3,13.16,-113.190002,1729424765520.0,0.0
-1.119841,-1.100698,9.001799,-53.760002,18.34,-96.949997,1729424765542.0,0.0
-0.457029,0.803988,10.348958,-97.720001,-1.19,-70.07,1729424765559.0,0.0
0.454636,1.306481,10.214959,-159.460007,-25.9,-47.670002,1729424765578.0,0.0
0.614955,-0.114855,9.257831,-247.589996,-44.66,-24.290001,1729424765598.0,0.0
0.055035,-2.799603,8.456236,-343.700012,-55.439999,-3.71,1729424765622.0,0.0
-1.021735,-5.503492,7.034898,-445.899994,-67.690002,3.71,1729424765639.0,0.0
-1.998007,-6.939186,3.235096,-555.869995,-88.900002,-9.66,1729424765662.0,0.0
-1.775474,-7.609176,-1.868794,-632.380005,-118.370003,-41.580002,1729424765680.0,0.0
-0.282353,-7.738388,-9.391829,-657.299988,-136.289993,-70.559998,1729424765699.0,0.0
1.627119,-10.403993,-13.493127,-615.159973,-120.260002,-83.720001,1729424765719.0,0.0
1.777867,-11.018949,-11.700903,-503.929993,-40.18,-54.810001,1729424765739.0,0.0
-0.349352,-9.530612,-12.01197,-254.380005,48.580002,-16.17,1729424765758.0,0.0
-1.85683,-8.118847,-11.169697,-33.880001,76.580002,18.549999,1729424765779.0,0.0
-1.383051,-6.623333,-7.779066,55.720001,54.32,42.91,1729424765800.0,0.0
0.323031,-5.046463,-5.111069,55.510002,34.16,53.830002,1729424765819.0,0.0
0.993021,-7.525427,-3.376273,-5.67,40.110001,47.529999,1729424765838.0,0.0
0.952343,-11.107484,-2.201397,-62.23,42.420002,19.32,1729424765860.0,0.0
0.591027,-12.703495,-1.447658,-22.540001,1.96,-15.12,1729424765881.0,0.0
0.78006,-11.882757,-3.074777,-1.54,-38.779999,-45.709999,1729424765900.0,0.0
0.782453,-10.064213,-5.163712,-1.26,-64.190002,-60.200001,1729424765920.0,0.0
0.535992,-8.99462,-6.888937,-26.389999,-64.120003,-70.559998,1729424765939.0,0.0
-0.387637,-7.128219,-6.867401,-63.490002,-43.330002,-71.610001,1729424765960.0,0.0
-1.40698,-6.357729,-8.539984,-76.790001,-17.360001,-54.459999,1729424765979.0,0.0
-1.725225,-6.178268,-9.731609,-65.660004,-2.52,-32.759998,1729424765997.0,0.0
-1.476372,-5.374279,-10.066606,-26.25,15.68,-2.94,1729424766016.0,0.0
-1.368695,-4.948357,-9.38465,16.379999,31.710001,35.279999,1729424766041.0,0.0
-0.485743,-4.883751,-8.772088,43.119999,27.02,54.599998,1729424766061.0,0.0
0.636491,-4.331009,-7.415358,41.860001,24.360001,64.400002,1729424766080.0,0.0
1.033699,-4.388437,-6.728617,23.59,32.27,71.68,1729424766098.0,0.0
0.926022,-5.82413,-6.597012,-1.19,36.610001,71.959999,1729424766118.0,0.0
1.043271,-7.601997,-6.54437,-11.69,34.93,66.220001,1729424766141.0,0.0
1.261017,-8.817552,-5.955735,-0.35,26.040001,55.790001,1729424766158.0,0.0
1.09352,-10.025927,-4.4674,14.21,19.6,35.84,1729424766177.0,0.0
0.447458,-11.913863,-3.541377,17.780001,11.13,7.56,1729424766200.0,0.0
-0.880559,-10.939985,-4.474578,3.71,-13.51,-40.740002,1729424766218.0,0.0
-1.663012,-8.982656,-6.204589,-21.98,-22.4,-60.130001,1729424766241.0,0.0
-2.098505,-7.566105,-7.338787,-48.23,-21.0,-68.459999,1729424766260.0,0.0
-2.072184,-6.78126,-7.424929,-56.279999,-17.92,-67.340004,1729424766280.0,0.0
-1.591227,-6.072984,-6.946364,-37.099998,-22.960001,-55.299999,1729424766297.0,0.0
-0.399601,-4.941179,-7.80778,-5.32,-36.119999,-39.900002,1729424766318.0,0.0
0.253639,-4.096512,-8.896514,12.74,-33.389999,-15.47,1729424766341.0,0.0
0.155533,-3.562913,-10.011569,9.94,-13.58,11.13,1729424766358.0,0.0
0.191426,-3.940979,-9.585647,-15.33,9.59,31.780001,1729424766382.0,0.0
0.334995,-6.142376,-8.760124,-27.790001,21.139999,45.920002,1729424766397.0,0.0
0.562313,-7.843673,-7.913064,-10.78,25.969999,44.52,1729424766417.0,0.0
0.497707,-6.989435,-7.508677,3.99,35.91,38.009998,1729424766441.0,0.0
-0.239282,-6.257231,-6.30748,0.91,47.110001,32.830002,1729424766459.0,0.0
-0.677169,-7.831708,-5.271388,-7.14,42.209999,22.26,1729424766479.0,0.0
-0.492921,-10.004392,-4.134798,6.3,25.76,7.91,1729424766498.0,0.0
-0.519243,-9.662218,-2.368894,24.57,8.26,-12.32,1729424766519.0,0.0
-0.861416,-9.310472,-3.716053,34.650002,-17.01,-27.23,1729424766540.0,0.0
-0.332602,-8.68116,-5.536992,-1.89,-53.900002,-55.650002,1729424766560.0,0.0
-0.404387,-7.097112,-7.152147,-21.98,-55.299999,-53.130001,1729424766581.0,0.0
0.210568,-6.082555,-8.532805,-41.860001,-60.970001,-49.560001,1729424766598.0,0.0
0.863809,-4.725825,-8.9348,-50.049999,-55.93,-36.889999,1729424766617.0,0.0
1.062413,-3.809374,-8.310273,-38.5,-45.57,-11.48,1729424766639.0,0.0
0.66999,-4.240082,-8.245667,-24.43,-33.670002,11.83,1729424766661.0,0.0
-0.019143,-4.510471,-8.123632,-23.799999,-16.59,28.559999,1729424766678.0,0.0
-0.334995,-5.328816,-9.150154,-14.56,-6.37,42.279999,1729424766698.0,0.0
-0.401994,-6.029913,-9.128618,-9.66,0.49,45.150002,1729424766717.0,0.0
-0.758525,-7.319644,-8.518449,-16.73,13.16,40.670002,1729424766739.0,0.0
-1.229911,-9.064013,-8.602197,-22.049999,20.02,29.540001,1729424766758.0,0.0
-0.952343,-9.224331,-7.085148,5.88,15.47,15.12,1729424766778.0,0.0
-1.172483,-8.542377,-5.536992,45.779999,9.59,8.75,1729424766797.0,0.0
-1.56012,-7.652246,-4.321437,49.98,-4.97,-2.73,1729424766819.0,0.0
-2.222932,-8.592626,-4.287938,21.98,-15.26,-11.76,1729424766840.0,0.0
-1.462015,-9.669396,-6.202196,4.2,-35.139999,-27.299999,1729424766859.0,0.0
-0.78006,-6.939186,-8.279166,4.48,-46.060001,-41.580002,1729424766878.0,0.0
-1.277767,-4.907679,-8.614161,-7.84,-30.17,-32.41,1729424766899.0,0.0
-0.342174,-3.244668,-8.999406,-19.530001,-37.380001,-16.66,1729424766918.0,0.0
0.059821,-3.826123,-9.382257,-23.799999,-32.830002,6.3,1729424766946.0,0.0
-0.026321,-4.474578,-9.475577,-42.490002,-12.25,15.26,1729424766960.0,0.0
-0.710668,-5.642276,-10.554741,-54.389999,13.3,25.620001,1729424766979.0,0.0
-1.229911,-6.484549,-10.604989,-26.389999,32.34,34.16,1729424767000.0,0.0
-1.155733,-6.623333,-10.047462,6.93,43.259998,33.18,1729424767017.0,0.0
-1.009771,-6.745367,-9.056834,29.190001,50.889999,28.35,1729424767040.0,0.0
-0.98345,-6.817152,-7.779066,34.02,54.740002,17.219999,1729424767060.0,0.0
-1.284946,-6.204589,-5.178068,37.59,57.82,14.63,1729424767079.0,0.0
-1.383051,-6.333801,-2.964707,47.880001,38.5,16.59,1729424767099.0,0.0
-1.469193,-7.802995,-2.402394,17.639999,12.18,1.68,1729424767120.0,0.0
-1.828116,-10.097712,-3.852444,-33.810001,-6.93,-22.190001,1729424767140.0,0.0
-1.57687,-11.38505,-6.563512,-33.32,-26.18,-42.209999,1729424767159.0,0.0
-1.512264,-8.635696,-6.759724,-0.84,-41.09,-62.369999,1729424767180.0,0.0
-1.730011,-5.405386,-6.532406,21.35,-46.900002,-56.98,1729424767200.0,0.0
-1.038485,-3.328416,-7.164111,-10.36,-53.900002,-46.060001,1729424767221.0,0.0
-0.339781,-3.582055,-6.577869,-43.470001,-60.549999,-28.700001,1729424767239.0,0.0
0.634098,-4.132405,-9.626326,-68.18,-62.790001,-19.67,1729424767259.0,0.0
0.727418,-3.945765,-11.442478,-55.299999,-40.670002,4.9,1729424767278.0,0.0
0.088534,-4.639683,-11.526227,-14.91,-13.16,26.040001,1729424767299.0,0.0
-0.210568,-4.62054,-11.906685,16.799999,7.49,39.41,1729424767318.0,0.0
-0.653241,-6.963113,-10.971091,36.75,22.610001,45.709999,1729424767339.0,0.0
0.071785,-6.680761,-11.241481,43.330002,38.150002,32.619999,1729424767361.0,0.0
-0.638884,-4.800002,-8.863015,45.290001,56.700001,37.939999,1729424767379.0,0.0
-1.689333,-6.661618,-5.812167,35.209999,64.68,35.420002,1729424767399.0,0.0
-2.096112,-7.721639,-3.507878,29.049999,52.990002,27.93,1729424767420.0,0.0
-2.955136,-9.994821,-2.069792,-8.26,31.57,10.01,1729424767441.0,0.0
-3.383451,-12.126825,-4.694718,-50.119999,7.56,-16.309999,1729424767460.0,0.0
-2.885744,-11.712867,-5.601598,0.98,-30.030001,-45.43,1729424767482.0,0.0
-2.364109,-10.030712,-6.98465,49.91,-42.279999,-58.029999,1729424767501.0,0.0
-1.813759,-6.563512,-7.345965,76.790001,-47.32,-60.200001,1729424767519.0,0.0
-0.911665,-3.627519,-8.523234,57.82,-43.259998,-46.060001,1729424767542.0,0.0
0.629312,-2.782853,-8.9683,0.28,-41.580002,-24.57,1729424767571.0,0.0
1.478764,-3.084348,-9.671788,-52.990002,-24.85,-0.07,1729424767579.0,0.0
1.564906,-3.914658,-10.456635,-69.090004,-5.25,15.47,1729424767601.0,0.0
1.239482,-4.244867,-9.789038,-51.170002,12.18,29.4,1729424767619.0,0.0
0.770489,-4.443472,-8.530413,-6.44,24.08,41.580002,1729424767644.0,0.0
0.361316,-4.759324,-8.9348,43.259998,28.49,48.09,1729424767667.0,0.0
-0.358923,-5.369494,-8.647661,58.450001,37.799999,53.760002,1729424767681.0,0.0
-1.371087,-6.522834,-6.632904,35.349998,53.060001,50.119999,1729424767699.0,0.0
-2.478964,-9.229117,-4.424329,4.55,54.040001,37.59,1729424767719.0,0.0
-3.625126,-11.655439,-2.132005,-37.170002,39.27,11.2,1729424767743.0,0.0
-4.364508,-12.397215,-2.667997,-52.57,5.67,-14.98,1729424767761.0,0.0
-4.168297,-12.559926,-3.701697,-38.5,-24.85,-44.240002,1729424767779.0,0.0
-3.716053,-10.765309,-5.213961,5.95,-45.150002,-64.050003,1729424767799.0,0.0
-3.620341,-8.329416,-6.283553,68.18,-58.869999,-75.809998,1729424767820.0,0.0
-3.254239,-6.065805,-6.831509,68.809998,-63.349998,-70.840004,1729424767895.0,0.0
-1.835295,-3.962514,-7.197611,25.620001,-69.510002,-59.990002,1729424767900.0,0.0
0.167498,-2.084148,-8.776874,-32.060001,-79.379997,-38.150002,1729424767900.0,0.0
1.741975,-1.569692,-11.406586,-58.799999,-68.18,-11.62,1729424767901.0,0.0
1.378266,-1.981257,-12.567105,-59.5,-30.73,16.309999,1729424767919.0,0.0
0.600598,-3.318845,-11.873186,-35.0,-0.42,29.889999,1729424767940.0,0.0
-0.315853,-3.67059,-11.169697,-2.66,28.77,40.880001,1729424767960.0,0.0
-1.196411,-4.402793,-9.690931,38.57,43.470001,51.869999,1729424767979.0,0.0
-1.320838,-4.39083,-9.77468,36.259998,47.950001,53.41,1729424767999.0,0.0
-1.730011,-4.780859,-8.810372,23.24,60.970001,51.66,1729424768019.0,0.0
-2.455036,-6.223732,-6.719046,17.43,69.790001,52.57,1729424768040.0,0.0
-3.122634,-8.671589,-4.644469,13.09,65.169998,47.18,1729424768060.0,0.0
-3.761517,-12.246466,-4.04387,-16.17,51.170002,22.469999,1729424768079.0,0.0
-4.582255,-13.58166,-4.244867,-64.75,44.310001,-9.8,1729424768099.0,0.0
-4.914857,-12.926028,-4.977071,-45.779999,25.969999,-30.309999,1729424768119.0,0.0
-3.95055,-10.889735,-6.005985,4.76,2.8,-50.540001,1729424768150.0,0.0
-3.117848,-9.016156,-7.068398,69.650002,-15.68,-66.849998,1729424768160.0,0.0
-2.258825,-5.240282,-6.360123,69.93,-13.23,-64.400002,1729424768179.0,0.0
-0.351745,-2.641676,-7.156933,40.459999,-23.309999,-45.009998,1729424768199.0,0.0
3.208775,-1.550549,-8.688338,-1.89,-48.93,-22.049999,1729424768219.0,0.0
6.929615,-2.526821,-7.345965,-38.779999,-50.470001,-3.92,1729424768240.0,0.0
5.850451,-5.486742,-8.709875,-70.840004,-15.82,2.45,1729424768260.0,0.0
3.321238,-6.642475,-9.035298,-64.120003,8.82,8.68,1729424768279.0,0.0
2.316252,-5.584848,-8.999406,-28.07,12.18,16.450001,1729424768299.0,0.0
1.741975,-5.395815,-9.016156,9.1,14.91,24.780001,1729424768319.0,0.0
0.31346,-6.204589,-8.365308,24.5,29.75,30.66,1729424768341.0,0.0
-2.048256,-7.223931,-6.955935,15.33,47.599998,29.68,1729424768359.0,0.0
-4.728218,-8.176274,-5.551349,-8.26,51.380001,25.969999,1729424768379.0,0.0
-6.58744,-10.04507,-5.271388,-37.310001,34.02,13.16,1729424768398.0,0.0
-6.314659,-11.358729,-5.383851,-46.200001,2.1,-6.23,1729424768420.0,0.0
-5.166104,-11.219944,-5.592027,-17.360001,-21.42,-21.280001,1729424768442.0,0.0
-4.082155,-9.336794,-6.520442,31.92,-33.810001,-35.420002,1729424768459.0,0.0
-3.182454,-6.932007,-6.683154,64.330002,-35.490002,-41.509998,1729424768480.0,0.0
-1.701297,-5.496314,-7.597212,67.340004,-46.619999,-40.810001,1729424768501.0,0.0
1.050449,-4.754539,-8.647661,56.700001,-67.410004,-31.219999,1729424768519.0,0.0
4.271189,-3.852444,-8.932407,13.440001,-71.260002,-23.73,1729424768542.0,0.0
4.733003,-3.531806,-8.882158,-38.779999,-37.450001,-9.24,1729424768560.0,0.0
3.110669,-4.208975,-9.413363,-81.690002,-4.9,-1.47,1729424768580.0,0.0
2.342573,-5.094319,-9.669396,-79.449997,-1.26,7.63,1729424768599.0,0.0
1.710868,-5.98445,-9.403792,-51.59,9.03,10.15,1729424768618.0,0.0
0.428315,-5.814559,-8.977871,6.44,23.030001,21.629999,1729424768640.0,0.0
-1.165305,-5.785845,-9.262616,50.82,34.509998,34.580002,1729424768662.0,0.0
-2.610569,-6.276374,-9.004191,48.16,46.549999,36.119999,1729424768680.0,0.0
-3.728018,-6.295516,-7.501499,31.639999,53.689999,32.689999,1729424768698.0,0.0
-4.682754,-7.015756,-6.106483,8.4,54.810001,30.24,1729424768719.0,0.0
-5.424529,-8.683553,-4.589434,-23.24,46.900002,18.34,1729424768742.0,0.0
-5.479564,-10.049855,-4.019942,-39.41,25.76,2.24,1729424768760.0,0.0
-4.278367,-10.042676,-4.366901,-34.93,-1.54,-15.96,1729424768778.0,0.0
-3.364309,-9.372685,-5.24746,-9.45,-15.47,-29.610001,1729424768800.0,0.0
-1.72044,-7.226324,-6.721439,21.559999,-28.139999,-36.049999,1729424768820.0,0.0
0.229711,-6.661618,-8.609376,47.740002,-53.48,-31.15,1729424768840.0,0.0
2.380858,-5.692525,-9.032906,39.27,-51.099998,-28.35,1729424768861.0,0.0
3.184847,-3.59402,-8.322237,9.45,-26.32,-17.99,1729424768880.0,0.0
2.672783,-2.651247,-8.99462,-34.509998,-7.63,-2.1,1729424768899.0,0.0
2.471786,-3.869194,-8.740981,-63.0,-1.68,11.06,1729424768919.0,0.0
2.498107,-4.828716,-9.075976,-47.810001,1.05,20.02,1729424768941.0,0.0
1.351945,-5.391029,-8.666803,-20.51,15.96,26.32,1729424768960.0,0.0
-0.174676,-5.568098,-9.174082,8.54,26.950001,34.580002,1729424768985.0,0.0
-1.067199,-6.163911,-9.221939,16.799999,30.030001,38.009998,1729424769000.0,0.0
-2.155933,-7.470392,-8.173882,-6.23,42.209999,33.32,1729424769019.0,0.0
-3.462414,-9.288938,-6.491727,-35.560001,52.57,18.059999,1729424769041.0,0.0
-4.84068,-9.111869,-4.945964,-49.630001,48.509998,0.77,1729424769060.0,0.0
-5.867201,-9.547362,-4.740182,-33.670002,28.49,-10.15,1729424769078.0,0.0
-5.178068,-9.753145,-4.981857,-18.690001,1.47,-27.09,1729424769099.0,0.0
-3.9338,-9.370294,-4.876573,-1.75,-21.0,-37.099998,1729424769118.0,0.0
-3.56052,-8.391629,-4.673182,14.28,-29.469999,-43.82,1729424769141.0,0.0
-2.335395,-7.030113,-7.920243,18.76,-48.790001,-48.09,1729424769161.0,0.0
-0.294317,-7.192825,-10.449455,43.470001,-62.09,-40.389999,1729424769179.0,0.0
1.986043,-5.381458,-10.516455,57.330002,-53.619999,-37.799999,1729424769198.0,0.0
2.969493,-3.316452,-9.123833,38.080002,-32.060001,-26.880001,1729424769220.0,0.0
2.74696,-2.632105,-9.202796,-20.299999,-12.6,-18.48,1729424769240.0,0.0
2.656033,-3.644269,-9.513863,-51.240002,-6.51,-7.56,1729424769259.0,0.0
2.70389,-4.34058,-9.24826,-46.830002,-2.73,-7.14,1729424769280.0,0.0
1.476372,-5.166104,-9.020942,-25.83,16.030001,-0.35,1729424769298.0,0.0
0.459422,-5.245068,-9.518648,5.74,18.200001,10.08,1729424769318.0,0.0
-0.978664,-6.190232,-9.49472,19.460001,29.049999,20.02,1729424769342.0,0.0
-1.615155,-7.587641,-8.420342,15.89,38.290001,17.57,1729424769361.0,0.0
-2.445465,-7.982457,-7.092326,10.43,47.25,10.99,1729424769380.0,0.0
-3.493521,-8.769694,-6.072984,-0.28,47.32,2.1,1729424769398.0,0.0
-4.311867,-9.01137,-5.436492,-11.2,39.41,-13.37,1729424769419.0,0.0
-4.816752,-8.961121,-5.257031,-9.59,21.0,-25.76,1729424769440.0,0.0
-3.974478,-8.84148,-4.838287,-6.16,-3.15,-36.75,1729424769460.0,0.0
-2.711068,-7.834101,-6.106483,0.77,-21.700001,-45.849998,1729424769480.0,0.0
-0.562313,-6.936793,-6.805188,26.950001,-42.630001,-53.27,1729424769498.0,0.0
0.76331,-5.962914,-7.834101,28.35,-44.939999,-52.920002,1729424769520.0,0.0
2.15354,-4.158726,-7.65464,11.55,-48.23,-45.57,1729424769541.0,0.0
2.823531,-3.771089,-8.015956,-16.17,-42.139999,-32.130001,1729424769559.0,0.0
2.682354,-3.165704,-7.843673,-41.02,-28.35,-24.99,1729424769579.0,0.0
2.562713,-3.213561,-8.757731,-26.460001,-25.059999,-4.76,1729424769599.0,0.0
2.904887,-3.165704,-8.712267,-6.65,-21.139999,5.88,1729424769619.0,0.0
1.954936,-5.17089,-10.059426,14.07,-12.11,26.67,1729424769641.0,0.0
-0.09332,-7.125826,-10.41835,-21.700001,19.6,26.74,1729424769661.0,0.0
-1.129412,-7.60439,-10.789237,-39.130001,28.35,27.58,1729424769678.0,0.0
-1.689333,-7.704889,-9.927821,-20.860001,29.75,30.940001,1729424769703.0,0.0
-2.739782,-8.616554,-9.284152,7.56,40.599998,30.450001,1729424769718.0,0.0
-3.823731,-9.209974,-7.15454,40.389999,47.599998,25.969999,1729424769742.0,0.0
