acc_x,acc_y,acc_z,gyr_x,gyr_y,gyr_z,timestamp,label
1.347159,-3.766303,-7.69771,131.25,65.379997,68.949997,1729430925766.0,0.0
2.675175,-5.17089,-6.472585,95.550003,49.0,88.620003,1729430925767.0,0.0
2.15354,-6.259624,-4.283153,30.380001,67.340004,97.510002,1729430925767.0,0.0
-2.045863,-8.4012,-3.871587,-59.990002,67.199997,96.18,1729430925772.0,0.0
-3.900301,-8.898908,-9.049655,-172.410004,3.99,62.369999,1729430925792.0,0.0
-4.754539,-7.82453,-10.829915,-220.639999,1.54,37.450001,1729430925812.0,0.0
-3.436093,-7.9681,-11.598011,-184.869995,11.48,7.84,1729430925832.0,0.0
-1.485943,-8.047063,-11.803794,-52.639999,37.52,-12.18,1729430925855.0,0.0
0.174676,-7.180861,-11.566904,71.190002,51.029999,-25.48,1729430925872.0,0.0
1.158126,-6.254838,-10.911271,131.600006,56.0,-37.170002,1729430925892.0,0.0
1.713261,-5.9677,-10.04507,141.610001,57.400002,-40.670002,1729430925911.0,0.0
1.892723,-5.694918,-8.932407,121.800003,61.18,-40.599998,1729430925932.0,0.0
1.682154,-5.082355,-7.984849,96.599998,65.239998,-38.920002,1729430925954.0,0.0
1.205983,-4.575077,-7.094719,67.480003,65.800003,-37.52,1729430925973.0,0.0
0.378066,-4.474578,-7.49432,33.880001,60.549999,-33.810001,1729430925993.0,0.0
0.323031,-4.953143,-8.539984,15.61,43.049999,-30.59,1729430926012.0,0.0
0.284746,-5.041678,-9.351151,3.22,35.84,-26.110001,1729430926032.0,0.0
0.18664,-5.132604,-8.99462,-0.14,41.93,-26.530001,1729430926057.0,0.0
0.196211,-4.965107,-7.965706,7.0,46.689999,-27.58,1729430926074.0,0.0
0.009571,-5.240282,-7.15454,14.56,45.990002,-27.440001,1729430926091.0,0.0
0.29671,-5.606383,-6.668797,14.21,37.170002,-27.09,1729430926111.0,0.0
0.696311,-7.278966,-7.74796,36.049999,6.44,-22.540001,1729430926132.0,0.0
1.103091,-7.025328,-6.477371,64.330002,2.87,-23.450001,1729430926153.0,0.0
0.507278,-5.24746,-4.871787,93.169998,17.710001,-27.02,1729430926172.0,0.0
-1.086342,-4.481757,-5.429315,63.98,17.219999,-28.210001,1729430926192.0,0.0
-1.832902,-5.541777,-5.647062,-11.83,-3.08,-15.33,1729430926212.0,0.0
-1.39023,-6.441479,-7.334002,-79.660004,-38.57,-10.5,1729430926231.0,0.0
-0.78006,-6.094519,-8.133204,-88.269997,-46.619999,-8.47,1729430926254.0,0.0
-0.289532,-6.661618,-7.735995,-31.92,-35.139999,-6.65,1729430926273.0,0.0
-0.20339,-7.063612,-7.606783,33.18,-28.139999,-5.46,1729430926292.0,0.0
-0.677169,-6.537192,-7.271788,49.349998,-12.39,-12.39,1729430926313.0,0.0
-1.39023,-6.314659,-6.250053,-0.77,8.33,-14.56,1729430926331.0,0.0
-1.172483,-6.498906,-5.982057,-56.91,0.21,-10.01,1729430926353.0,0.0
-0.375673,-6.776474,-6.742974,-56.98,-18.129999,-6.93,1729430926373.0,0.0
-0.399601,-6.833901,-7.278966,-11.62,-17.08,-6.93,1729430926393.0,0.0
-0.581456,-5.56092,-8.556733,14.56,-10.43,-9.8,1729430926411.0,0.0
-0.497707,-4.541577,-8.116454,-7.21,-6.65,-10.57,1729430926433.0,0.0
-0.744168,-6.147161,-9.054441,-40.25,-13.58,-6.79,1729430926453.0,0.0
-0.595813,-5.706882,-8.829515,-42.84,-7.56,-9.52,1729430926472.0,0.0
-0.557528,-5.498707,-8.46102,-30.450001,5.18,-8.75,1729430926493.0,0.0
-0.48335,-6.053841,-8.508877,-17.43,2.38,-4.27,1729430926512.0,0.0
-0.40678,-6.345766,-8.202596,-5.74,5.04,-0.98,1729430926531.0,0.0
-0.16989,-6.192625,-7.925028,5.11,9.03,-0.91,1729430926554.0,0.0
-0.550349,-8.260024,-6.876972,12.95,-2.8,-4.34,1729430926572.0,0.0
-0.777667,-7.336394,-7.274181,15.82,-7.35,-15.33,1729430926592.0,0.0
-1.081556,-5.484349,-7.113862,-10.64,-3.29,-18.129999,1729430926612.0,0.0
-0.830309,-5.651847,-8.367701,-49.91,-12.39,-13.440001,1729430926632.0,0.0
-0.021535,-6.099305,-9.229117,-35.98,-22.610001,-7.98,1729430926655.0,0.0
0.038285,-5.199604,-8.9348,-1.82,-7.35,-6.58,1729430926672.0,0.0
-0.215354,-4.914857,-8.410772,9.45,3.08,-1.96,1729430926692.0,0.0
-0.0335,-5.577669,-8.039884,5.95,-1.4,2.59,1729430926711.0,0.0
0.004786,-6.281159,-7.898707,4.34,-4.27,2.24,1729430926733.0,0.0
0.035892,-5.948557,-7.834101,-1.26,-4.34,-3.08,1729430926754.0,0.0
0.370888,-5.54417,-8.719445,-9.73,-9.59,-6.37,1729430926772.0,0.0
-0.055035,-5.587241,-8.549555,-11.41,-7.35,-5.95,1729430926791.0,0.0
-0.784846,-5.592027,-8.202596,-12.25,0.63,-7.21,1729430926811.0,0.0
-0.794417,-5.347959,-7.932207,-14.56,-2.31,-7.21,1729430926832.0,0.0
-0.404387,-5.685347,-7.611568,-18.690001,-7.0,-3.64,1729430926862.0,0.0
-0.691526,-6.163911,-7.51107,-22.68,-5.95,-2.59,1729430926871.0,0.0
-0.847059,-5.608776,-7.513463,-32.549999,-6.86,-4.48,1729430926891.0,0.0
-0.591027,-5.206782,-8.516055,-45.920002,-17.710001,-2.45,1729430926913.0,0.0
-0.739382,-5.422136,-9.389436,-45.709999,-20.440001,1.19,1729430926932.0,0.0
-0.904487,-5.288138,-9.394222,-37.029999,-12.25,2.38,1729430926957.0,0.0
-1.098306,-5.453243,-8.853443,-22.190001,-7.56,3.85,1729430926972.0,0.0
-1.237089,-5.335995,-9.066404,-9.03,-8.96,3.22,1729430926992.0,0.0
-1.385444,-4.850252,-9.171689,-12.74,-8.26,0.63,1729430927013.0,0.0
-1.308874,-4.838287,-9.128618,-26.809999,-6.3,-0.14,1729430927032.0,0.0
-1.043271,-5.398208,-8.930015,-32.549999,-9.73,1.47,1729430927057.0,0.0
-1.294517,-5.54417,-9.394222,-28.210001,-8.33,-0.49,1729430927073.0,0.0
-1.074377,-5.173282,-9.300901,-14.84,-5.46,-4.06,1729430927094.0,0.0
-1.229911,-4.828716,-9.186047,0.14,-0.91,-5.88,1729430927112.0,0.0
-1.660619,-4.644469,-9.044869,-3.57,4.9,-9.52,1729430927132.0,0.0
-0.868595,-4.412365,-8.810372,-15.05,-0.21,-11.69,1729430927154.0,0.0
-0.641276,-4.618148,-9.186047,-11.06,-3.57,-8.19,1729430927173.0,0.0
-0.98345,-3.634698,-9.068797,-1.54,8.54,-9.38,1729430927193.0,0.0
-1.229911,-3.158526,-9.209974,-2.87,14.35,-4.76,1729430927213.0,0.0
-0.681954,-2.964707,-9.592826,-15.61,6.58,-0.84,1729430927233.0,0.0
-0.071785,-3.440879,-10.061819,-23.52,3.29,1.96,1729430927254.0,0.0
-0.284746,-3.964907,-10.037891,-14.98,9.87,3.08,1729430927273.0,0.0
-1.057628,-3.981657,-9.530612,6.44,22.120001,1.75,1729430927293.0,0.0
-1.179662,-3.907479,-9.06162,15.190001,24.290001,0.14,1729430927312.0,0.0
-0.837488,-3.869194,-8.872586,1.82,15.12,-0.91,1729430927332.0,0.0
-0.715454,-4.194618,-9.461221,-8.68,10.01,-2.38,1729430927354.0,0.0
-0.715454,-3.9673,-9.073583,-15.4,12.88,-3.5,1729430927374.0,0.0
-0.100499,-4.675575,-9.212367,-18.48,6.72,-3.85,1729430927394.0,0.0
0.521635,-5.474778,-7.496714,-9.1,3.5,-2.52,1729430927414.0,0.0
-0.090927,-4.957928,-1.627119,8.47,-10.29,-10.01,1729430927434.0,0.0
-1.586441,-5.029713,-6.616155,-26.110001,-45.639999,-26.530001,1729430927456.0,0.0
-0.476172,-4.280759,-9.573684,-39.970001,-64.470001,-24.780001,1729430927473.0,0.0
-0.045464,-2.632105,-9.578469,-7.42,-59.639999,-10.78,1729430927493.0,0.0
0.222532,-1.107877,-9.138189,32.689999,-48.23,1.26,1729430927514.0,0.0
-0.045464,-1.074377,-8.013563,30.799999,-54.670002,22.82,1729430927534.0,0.0
-0.957129,-4.414758,-8.456236,-15.96,-57.330002,32.900002,1729430927555.0,0.0
-0.995414,-5.927022,-9.059227,-63.420002,-57.68,24.780001,1729430927579.0,0.0
0.138784,-4.68754,-9.329616,-28.49,-58.029999,14.21,1729430927594.0,0.0
-0.318245,-2.727818,-9.901501,15.96,-54.389999,6.58,1729430927613.0,0.0
-1.31366,-2.57707,-10.502099,-0.77,-51.310001,5.32,1729430927634.0,0.0
-1.086342,-4.079762,-10.403993,-33.670002,-45.57,3.99,1729430927655.0,0.0
-0.815953,-3.5007,-11.193624,-30.52,-39.41,-0.91,1729430927674.0,0.0
-1.318445,-2.526821,-10.966305,-3.01,-31.85,-0.56,1729430927694.0,0.0
-1.926222,-4.039084,-10.327423,0.28,-21.49,11.27,1729430927714.0,0.0
-1.395016,-4.146761,-9.908678,-20.09,-16.1,10.08,1729430927733.0,0.0
-0.736989,-3.5007,-9.970891,-4.27,-13.51,9.45,1729430927756.0,0.0
-1.160519,-3.321238,-10.542776,2.03,-9.24,7.77,1729430927773.0,0.0
-1.605584,-4.024727,-10.246067,-9.45,-3.64,5.46,1729430927794.0,0.0
-1.823331,-3.716053,-9.894321,2.17,3.78,1.4,1729430927814.0,0.0
-1.409373,-2.859423,-9.559326,13.09,8.82,-2.52,1729430927833.0,0.0
-1.617548,-3.029313,-10.234102,6.3,10.64,-3.85,1729430927855.0,0.0
-1.751546,-4.563113,-10.281959,6.51,14.14,-5.81,1729430927874.0,0.0
-1.564906,-4.141976,-8.171489,12.88,20.58,-12.11,1729430927893.0,0.0
-1.399801,-4.103691,-7.013363,38.220001,18.620001,-19.460001,1729430927913.0,0.0
-0.89013,-4.546363,-8.018349,26.460001,7.14,-24.219999,1729430927934.0,0.0
-0.562313,-5.412565,-9.19801,9.87,7.14,-32.830002,1729430927955.0,0.0
-0.70349,-4.431508,-8.097312,41.860001,1.61,-35.420002,1729430927974.0,0.0
-1.184447,-3.18724,-7.60439,60.34,2.73,-37.170002,1729430927994.0,0.0
-1.29691,-2.232504,-8.322237,42.0,-6.51,-31.290001,1729430928013.0,0.0
-1.543371,-2.158326,-8.197811,7.42,-14.49,-19.6,1729430928033.0,0.0
-1.277767,-1.495514,-8.796017,0.42,-22.75,-11.48,1729430928060.0,0.0
-0.952343,0.612563,-9.075976,-57.82,-26.18,-3.29,1729430928073.0,0.0
-0.224925,-2.481357,-12.289536,-103.18,-39.200001,20.299999,1729430928093.0,0.0
-1.887937,-4.161119,-10.980663,-29.75,-25.48,38.920002,1729430928113.0,0.0
-6.309873,-0.681954,-4.917251,49.630001,3.85,54.529999,1729430928133.0,0.0
-5.931807,-1.0002,-13.502698,-113.68,-16.030001,52.920002,1729430928155.0,0.0
-2.825923,-4.584648,-12.184253,-131.180008,-9.8,51.799999,1729430928174.0,0.0
-5.161318,-5.15414,-11.533404,-17.01,11.97,60.970001,1729430928194.0,0.0
-4.551149,-5.249853,-8.609376,-17.360001,17.57,34.580002,1729430928213.0,0.0
-3.45045,-6.38405,-10.13839,-92.82,9.73,6.93,1729430928234.0,0.0
-2.359323,-7.267002,-10.583455,-43.189999,12.95,-17.639999,1729430928256.0,0.0
-2.191825,-6.063413,-8.855836,23.379999,18.48,-31.85,1729430928273.0,0.0
-2.103291,-6.295516,-7.881958,11.27,17.85,-53.200001,1729430928293.0,0.0
-1.222732,-5.687739,-8.685946,26.809999,9.24,-57.470001,1729430928316.0,0.0
-0.217747,-1.885544,-9.135797,61.670002,6.58,-52.150002,1729430928332.0,0.0
-0.830309,-2.072184,-7.276574,87.989998,4.83,-34.650002,1729430928355.0,0.0
-0.722632,-3.069991,-7.345965,52.290001,-7.63,-28.700001,1729430928373.0,0.0
-0.478565,-2.567499,-8.480164,19.879999,-17.08,-34.23,1729430928393.0,0.0
-0.153141,0.533599,-8.530413,40.670002,-21.700001,-29.26,1729430928414.0,0.0
-1.344766,2.562713,-7.128219,18.34,-26.67,-14.49,1729430928433.0,0.0
-1.622334,-0.246461,-11.600404,-66.290001,-43.330002,0.35,1729430928455.0,0.0
-2.251646,-2.620141,-14.076975,-83.580002,-38.290001,11.48,1729430928474.0,0.0
-4.132405,-2.988636,-10.475778,28.280001,-17.5,21.98,1729430928493.0,0.0
-6.728617,-2.495714,-9.975677,32.619999,2.66,29.190001,1729430928514.0,0.0
-5.335995,-5.922236,-11.763116,-83.860001,-0.14,18.48,1729430928534.0,0.0
-2.947958,-5.484349,-11.172089,-54.950001,5.95,13.51,1729430928554.0,0.0
-3.871587,-4.424329,-10.226924,46.41,23.24,15.33,1729430928573.0,0.0
-4.302295,-5.87438,-10.260423,18.83,25.83,10.01,1729430928594.0,0.0
-2.672783,-6.585048,-10.317852,13.23,30.940001,-6.51,1729430928614.0,0.0
-1.785046,-4.299902,-8.566305,51.66,34.790001,-14.56,1729430928633.0,0.0
-2.194218,-5.101498,-7.106683,43.68,27.440001,-22.610001,1729430928654.0,0.0
-1.538585,-6.491727,-9.463614,66.709999,13.86,-33.950001,1729430928673.0,0.0
-0.839881,-1.629512,-8.9683,116.620003,18.549999,-40.670002,1729430928694.0,0.0
-0.636491,-3.022135,-8.341379,60.48,16.940001,-36.959999,1729430928714.0,0.0
-0.129212,-0.818345,-8.793623,66.150002,13.86,-21.700001,1729430928733.0,0.0
-0.681954,1.442872,-7.920243,86.800003,20.02,1.54,1729430928754.0,0.0
0.320638,-0.291924,-7.389036,96.879997,6.3,22.049999,1729430928773.0,0.0
-0.074178,-2.866602,-5.783452,65.730003,-0.84,30.450001,1729430928793.0,0.0
-2.507678,-3.634698,-3.201597,-23.450001,-15.05,32.34,1729430928813.0,0.0
-2.208575,-6.9009,-9.279366,-97.93,-48.16,24.15,1729430928833.0,0.0
-2.813959,-4.84068,-12.528819,-142.029999,-36.540001,29.889999,1729430928854.0,0.0
-5.297709,-4.685147,-10.217353,-74.830002,-3.01,22.889999,1729430928875.0,0.0
-4.759324,-4.407579,-11.81815,-130.759995,3.29,18.9,1729430928900.0,0.0
-2.194218,-7.408179,-9.090333,-105.629997,-2.8,17.219999,1729430928913.0,0.0
-4.161119,-6.513263,-9.320045,-21.559999,20.09,19.6,1729430928934.0,0.0
-4.206582,-4.898108,-8.532805,15.61,20.860001,7.56,1729430928957.0,0.0
-3.385844,-6.06102,-10.353743,7.07,20.370001,2.38,1729430928974.0,0.0
-2.301895,-6.111269,-10.920842,35.0,27.370001,-7.63,1729430928993.0,0.0
-2.730211,-4.359723,-5.24746,77.349998,34.23,-10.78,1729430929014.0,0.0
-2.514857,-7.520642,-7.432107,35.630001,11.69,-22.68,1729430929033.0,0.0
-1.351945,-4.761717,-7.932207,112.770004,13.37,-28.210001,1729430929058.0,0.0
-1.928615,-4.275974,-6.460621,111.230003,12.39,-21.210001,1729430929074.0,0.0
-0.937986,-1.160519,-8.126025,37.66,3.85,-24.08,1729430929093.0,0.0
-0.586242,1.232304,-8.123632,20.790001,2.52,5.6,1729430929113.0,0.0
0.954736,-1.177269,-7.826923,45.150002,-9.03,25.620001,1729430929134.0,0.0
0.086142,-2.328217,-3.929015,53.41,-17.639999,27.790001,1729430929156.0,0.0
-1.246661,-2.79721,-5.742774,2.8,-35.07,29.33,1729430929174.0,0.0
-2.364109,-5.051248,-11.31805,-116.410004,-57.470001,28.700001,1729430929193.0,0.0
-3.945765,-6.76451,-12.653246,-136.710007,-45.080002,34.720001,1729430929214.0,0.0
-7.204789,-4.398008,-10.281959,-106.050003,-5.88,12.67,1729430929235.0,0.0
-3.936193,-5.508278,-14.060226,-181.509995,-9.45,16.66,1729430929260.0,0.0
-2.500499,-6.948757,-10.509278,-69.790001,5.25,11.97,1729430929275.0,0.0
-4.398008,-6.206983,-6.297909,64.75,25.200001,10.78,1729430929295.0,0.0
-3.369094,-6.099305,-7.867601,6.37,14.21,-0.63,1729430929315.0,0.0
-2.761317,-5.089533,-10.717452,-11.62,12.46,-9.73,1729430929334.0,0.0
-2.416751,-5.79781,-10.176675,39.830002,19.25,-14.49,1729430929356.0,0.0
-2.555535,-3.189633,-7.745567,76.090004,26.25,-14.98,1729430929376.0,0.0
-3.381058,-4.67079,-4.31426,32.34,12.74,-18.549999,1729430929394.0,0.0
-2.486143,-6.329016,-8.499306,57.75,-0.63,-19.74,1729430929416.0,0.0
-1.502693,-2.589034,-8.9348,117.529999,2.87,-20.860001,1729430929435.0,0.0
-2.725425,1.519442,-7.01097,73.779999,7.7,-6.79,1729430929456.0,0.0
-2.70389,0.019143,-7.398607,-33.529999,-6.37,10.78,1729430929475.0,0.0
0.42353,-3.476771,-8.499306,-36.470001,-19.950001,18.76,1729430929495.0,0.0
1.974079,-4.37408,-10.358529,-31.780001,-42.209999,20.370001,1729430929515.0,0.0
0.772882,-2.146362,-11.251052,-18.9,-31.5,16.59,1729430929536.0,0.0
-6.78126,-5.209175,-8.248059,-20.58,-12.95,27.09,1729430929587.0,0.0
-4.098906,-8.003991,-11.148161,-108.919998,-20.09,28.630001,1729430929594.0,0.0
-5.328816,-4.744967,-9.449257,-10.78,-7.84,18.9,1729430929620.0,0.0
-5.304887,-5.419744,-9.195618,50.82,7.7,18.27,1729430929634.0,0.0
-3.68734,-6.726225,-10.284351,-2.1,14.77,10.78,1729430929657.0,0.0
-2.538785,-6.946364,-10.30828,28.139999,22.82,-2.59,1729430929675.0,0.0
-1.56012,-5.003392,-7.975278,72.800003,28.630001,-13.23,1729430929694.0,0.0
-1.785046,-5.134997,-6.238089,49.279999,22.889999,-20.51,1729430929715.0,0.0
-2.222932,-7.058826,-7.37468,40.18,15.54,-30.73,1729430929736.0,0.0
-2.067399,-5.292924,-6.955935,90.860001,16.379999,-35.279999,1729430929758.0,0.0
-1.904687,-2.242075,-7.357929,67.550003,13.09,-39.27,1729430929777.0,0.0
-0.9667,-3.151347,-8.638089,10.36,3.71,-40.880001,1729430929795.0,0.0
-1.744368,2.24686,-8.181061,-13.65,6.02,-14.07,1729430929814.0,0.0
0.090927,-1.189233,-8.982656,22.960001,-3.36,-0.56,1729430929834.0,0.0
-0.792024,-1.574477,-7.259824,30.030001,-5.39,21.35,1729430929857.0,0.0
-1.136591,-1.069592,-6.577869,39.200001,-15.82,29.540001,1729430929874.0,0.0
-2.723032,-2.141576,-7.652246,-10.92,-27.23,42.84,1729430929894.0,0.0
-4.235296,-6.017949,-12.320643,-150.990005,-30.59,38.849998,1729430929914.0,0.0
-5.895915,-8.477771,-10.593026,-108.220001,-10.43,39.130001,1729430929934.0,0.0
-5.601598,-5.271388,-11.643474,-53.970001,15.4,21.280001,1729430929957.0,0.0
-3.146562,-7.585248,-9.193225,-83.580002,23.24,6.65,1729430929975.0,0.0
-3.926622,-7.456036,-7.573284,17.290001,33.32,5.67,1729430929994.0,0.0
-4.409972,-6.932007,-6.989435,10.15,29.889999,-7.28,1729430930014.0,0.0
-3.163311,-5.91745,-9.918249,-29.120001,24.360001,-21.280001,1729430930035.0,0.0
-2.471786,-6.30748,-10.461421,5.25,31.85,-25.76,1729430930059.0,0.0
-1.292124,-4.151547,-8.480164,58.52,37.450001,-26.809999,1729430930074.0,0.0
-1.942972,-5.094319,-5.462814,48.580002,30.940001,-26.880001,1729430930095.0,0.0
-1.840081,-5.948557,-6.436693,26.040001,12.18,-36.470001,1729430930115.0,0.0
-1.007378,-2.859423,-7.865208,74.760002,4.13,-42.700001,1729430930134.0,0.0
-1.828116,-3.314059,-7.76471,40.32,-0.07,-35.349998,1729430930158.0,0.0
-1.691726,0.368495,-9.288938,-52.639999,-3.15,-27.65,1729430930177.0,0.0
-0.727418,-2.103291,-10.100104,-4.76,-5.81,-14.77,1729430930194.0,0.0
-0.710668,-0.710668,-8.236095,45.920002,-0.42,4.83,1729430930214.0,0.0
-1.87358,-2.773281,-5.295317,37.310001,-6.37,3.92,1729430930234.0,0.0
-1.098306,-3.302095,-6.24766,26.74,-24.639999,15.190001,1729430930256.0,0.0
-3.0006,-5.529813,-11.877973,-34.790001,-38.220001,21.559999,1729430930275.0,0.0
-3.488736,-4.898108,-12.736995,-131.110001,-31.85,24.08,1729430930294.0,0.0
-6.635297,-3.804588,-10.956735,-44.240002,2.66,17.85,1729430930314.0,0.0
-3.945765,-5.800202,-13.469198,-101.57,6.44,9.45,1729430930334.0,0.0
-2.206182,-7.106683,-7.068398,-32.549999,15.4,0.49,1729430930356.0,0.0
-4.278367,-5.209175,-6.606583,23.24,23.66,-3.5,1729430930375.0,0.0
-3.620341,-4.493721,-9.111869,-21.07,11.06,-15.89,1729430930395.0,0.0
-2.426322,-5.895915,-10.628918,-35.0,13.09,-20.23,1729430930414.0,0.0
-1.26341,-4.639683,-9.879964,19.6,20.02,-22.4,1729430930434.0,0.0
-1.323231,-2.823531,-7.034898,59.920002,25.27,-22.960001,1729430930457.0,0.0
-1.457229,-5.331209,-6.951149,12.88,8.54,-24.290001,1729430930476.0,0.0
-0.851845,-5.960521,-7.482357,49.139999,-0.28,-28.210001,1729430930494.0,0.0
-0.404387,-0.351745,-8.391629,61.25,-5.88,-32.689999,1729430930514.0,0.0
-0.856631,-2.708675,-9.346365,0.14,-8.61,-23.17,1729430930534.0,0.0
-0.26321,-1.548156,-9.24108,15.47,-8.4,-14.35,1729430930556.0,0.0
-0.643669,0.803988,-7.702496,26.040001,-4.97,7.14,1729430930575.0,0.0
-0.100499,-1.866402,-6.283553,28.700001,-19.18,18.76,1729430930594.0,0.0
-0.071785,-2.476572,-6.58744,-2.8,-30.59,15.61,1729430930614.0,0.0
-0.844666,-4.359723,-14.330614,-112.980003,-51.310001,13.51,1729430930634.0,0.0
-4.024727,-4.481757,-11.332408,-26.530001,-20.860001,20.93,1729430930656.0,0.0
-6.147161,-3.620341,-11.612368,-17.15,0.98,14.84,1729430930675.0,0.0
-3.45045,-5.659025,-12.538391,-93.029999,10.57,15.12,1729430930694.0,0.0
-3.859623,-2.074577,-10.887343,-34.09,28.559999,14.7,1729430930770.0,0.0
-4.175476,-3.055635,-9.640682,17.710001,40.32,27.93,1729430930771.0,0.0
-4.682754,-5.594419,-6.329016,-1.47,35.349998,30.59,1729430930772.0,0.0
-3.761517,-5.962914,-8.346166,-14.21,29.540001,11.83,1729430930776.0,0.0
-2.828316,-4.429115,-9.320045,-21.629999,25.690001,-4.27,1729430930809.0,0.0
-2.423929,-6.343372,-10.542776,26.110001,27.719999,-13.37,1729430930815.0,0.0
-1.454836,-7.068398,-9.040084,61.950001,30.450001,-24.92,1729430930834.0,0.0
-0.988236,-2.289931,-7.515855,38.43,29.540001,-32.48,1729430930855.0,0.0
-1.148555,-1.591227,-6.166305,-10.01,14.77,-22.26,1729430930875.0,0.0
-1.31366,-4.733003,-7.401,11.83,-0.77,-11.76,1729430930894.0,0.0
-0.751346,-4.974678,-7.322037,86.800003,-5.39,-11.55,1729430930914.0,0.0
-0.839881,-2.615355,-7.472785,37.869999,-9.66,-21.42,1729430930935.0,0.0
0.256032,-3.589234,-9.030513,-19.67,-19.879999,-19.6,1729430930957.0,0.0
-0.337388,1.579263,-7.956135,9.59,-22.889999,-13.58,1729430930975.0,0.0
-0.655633,-1.698904,-8.343772,6.65,-30.59,6.79,1729430930994.0,0.0
-0.653241,-1.938186,-8.740981,-21.84,-39.060001,7.84,1729430931014.0,0.0
-1.663012,-2.85703,-12.619746,-37.52,-36.75,15.190001,1729430931034.0,0.0
-2.813959,-3.754339,-13.998013,-15.68,-25.129999,22.82,1729430931063.0,0.0
-5.106283,-4.682754,-10.911271,31.92,1.96,23.799999,1729430931074.0,0.0
-5.06082,-6.216553,-10.310673,-46.549999,8.82,10.78,1729430931093.0,0.0
-2.773281,-5.458029,-11.4353,-76.510002,17.710001,0.21,1729430931122.0,0.0
-2.801995,-4.350152,-9.145369,22.4,23.73,3.71,1729430931137.0,0.0
-4.189832,-4.005585,-7.094719,43.049999,29.610001,5.18,1729430931155.0,0.0
-3.78066,-5.240282,-7.802995,-24.5,20.860001,-0.07,1729430931174.0,0.0
-3.771089,-6.431907,-11.062018,-24.01,24.219999,-7.7,1729430931194.0,0.0
-2.158326,-5.20439,-9.377472,46.549999,29.190001,-15.05,1729430931214.0,0.0
-2.400001,-3.227918,-7.458428,49.490002,32.830002,-21.139999,1729430931235.0,0.0
-2.136791,-5.960521,-6.463014,-9.87,14.63,-25.549999,1729430931255.0,0.0
-1.122234,-7.233503,-7.759924,52.360001,2.66,-25.76,1729430931274.0,0.0
-1.493121,-3.675375,-8.061419,88.970001,2.87,-30.380001,1729430931294.0,0.0
-0.528814,-2.232504,-8.784052,-5.46,-8.96,-26.67,1729430931314.0,0.0
-0.392423,0.428315,-8.690732,16.1,-9.1,-5.25,1729430931333.0,0.0
0.01675,-0.693919,-7.73121,40.880001,-11.41,16.379999,1729430931356.0,0.0
0.61017,-1.268196,-6.254838,60.549999,-21.0,21.629999,1729430931374.0,0.0
-0.299103,-1.579263,-6.331409,17.85,-31.15,23.030001,1729430931393.0,0.0
-0.937986,-2.467,-8.997013,-69.440002,-47.18,23.870001,1729430931420.0,0.0
-1.320838,-6.199803,-14.108082,-133.279999,-46.759998,27.370001,1729430931511.0,0.0
-3.242275,-4.407579,-10.973484,-28.77,-12.74,31.780001,1729430931514.0,0.0
-5.821737,-2.742175,-11.846866,-35.0,14.63,13.58,1729430931516.0,0.0
-2.488536,-7.223931,-10.734202,-98.559998,8.47,9.24,1729430931517.0,0.0
-2.813959,-4.520042,-9.566505,-38.220001,23.450001,3.85,1729430931604.0,0.0
-4.409972,-4.790431,-7.929814,4.48,28.559999,0.28,1729430931605.0,0.0
-4.096512,-6.326623,-9.822537,-28.700001,21.35,-1.75,1729430931605.0,0.0
-3.345166,-5.563312,-10.066606,-19.6,24.5,-15.75,1729430931605.0,0.0
-2.699104,-7.144968,-10.863414,41.93,30.380001,-23.24,1729430931605.0,0.0
-1.696511,-4.338188,-8.819944,76.510002,34.02,-26.110001,1729430931614.0,0.0
-2.072184,-5.938986,-6.929615,0.77,26.32,-22.960001,1729430931633.0,0.0
-0.892523,-7.006185,-8.85105,45.709999,5.11,-25.48,1729430931656.0,0.0
-0.624527,-3.35713,-9.126225,83.370003,8.61,-31.08,1729430931673.0,0.0
-0.57667,-1.978864,-7.255038,40.740002,2.66,-27.93,1729430931694.0,0.0
0.122034,-1.270589,-7.525427,34.02,-5.46,-22.33,1729430931713.0,0.0
0.215354,-0.409173,-8.070991,34.299999,-13.37,-1.82,1729430931732.0,0.0
1.337588,-0.289532,-7.89153,51.029999,-27.440001,10.43,1729430931755.0,0.0
-0.839881,-2.065006,-4.34058,31.01,-29.610001,14.49,1729430931773.0,0.0
-1.366302,-1.861616,-7.54457,1.54,-45.290001,24.780001,1729430931792.0,0.0
-2.548356,-3.608376,-11.973685,-80.709999,-56.0,21.91,1729430931812.0,0.0
-3.668197,-5.556134,-13.186846,-90.160004,-36.959999,32.130001,1729430931833.0,0.0
-6.13759,-4.122833,-10.889735,-50.119999,-4.69,22.049999,1729430931856.0,0.0
-3.57727,-4.74736,-13.34238,-105.840004,5.11,16.870001,1729430931873.0,0.0
-2.222932,-4.974678,-9.509077,-36.470001,21.629999,15.82,1729430931892.0,0.0
-3.924229,-4.496114,-7.590034,33.389999,37.52,20.23,1729430931912.0,0.0
-4.098906,-5.455636,-6.352944,-14.91,26.040001,11.41,1729430931932.0,0.0
-3.213561,-6.02752,-10.593026,-53.200001,22.33,-3.57,1729430931956.0,0.0
-2.498107,-6.281159,-10.403993,38.920002,30.030001,-14.07,1729430931973.0,0.0
-1.940579,-4.881358,-8.269595,77.629997,34.16,-20.23,1729430931992.0,0.0
-2.261217,-3.285345,-4.893322,27.09,26.460001,-22.75,1729430932013.0,0.0
-1.59362,-5.941379,-7.252645,-18.620001,3.57,-24.639999,1729430932032.0,0.0
-0.59342,-5.613562,-8.334201,49.560001,-0.49,-23.030001,1729430932058.0,0.0
-0.842274,-2.945565,-7.958528,55.93,0.21,-24.780001,1729430932073.0,0.0
-0.064606,-2.739782,-7.530212,36.540001,-10.22,-21.629999,1729430932092.0,0.0
0.447458,0.488136,-8.085347,8.61,-16.24,-12.39,1729430932112.0,0.0
0.981057,0.009571,-8.236095,-2.24,-31.219999,10.29,1729430932133.0,0.0
-0.461815,-1.777867,-5.905487,22.610001,-42.279999,20.370001,1729430932155.0,0.0
-1.830509,-2.103291,-10.018748,11.34,-51.66,23.1,1729430932173.0,0.0
-3.15374,-3.661019,-13.261024,-83.300003,-49.490002,26.530001,1729430932193.0,0.0
-4.017549,-4.352544,-12.483356,-44.799999,-31.99,32.41,1729430932212.0,0.0
-6.491727,-4.125226,-12.727424,-23.24,-1.75,26.950001,1729430932232.0,0.0
-3.677768,-4.630112,-13.509877,-105.209999,8.75,17.15,1729430932254.0,0.0
-1.883151,-3.692125,-11.514263,-27.02,22.469999,25.48,1729430932276.0,0.0
-4.651647,-3.61077,-6.386444,71.540001,46.200001,37.73,1729430932293.0,0.0
-3.711268,-5.352744,-6.833901,-31.85,32.970001,28.49,1729430932313.0,0.0
-3.127419,-7.190433,-11.078769,-56.139999,32.619999,12.11,1729430932334.0,0.0
-2.029114,-6.71426,-10.004392,32.549999,39.619999,-2.45,1729430932357.0,0.0
-1.933401,-5.709275,-8.169096,82.529999,44.52,-14.07,1729430932374.0,0.0
-1.993221,-3.629912,-6.015556,14.0,34.93,-21.84,1729430932393.0,0.0
-1.76351,-5.82413,-7.444071,-3.92,16.17,-23.52,1729430932414.0,0.0
-1.868794,-5.740381,-8.922836,39.619999,15.05,-24.85,1729430932433.0,0.0
-1.354338,-4.981857,-8.583055,61.25,13.09,-29.33,1729430932454.0,0.0
-0.502493,-3.85723,-6.929615,110.809998,10.22,-24.780001,1729430932475.0,0.0
-0.081356,-1.895115,-6.910471,103.25,1.96,-23.1,1729430932495.0,0.0
-0.265603,0.646062,-6.903293,17.43,-12.6,-13.93,1729430932513.0,0.0
0.595813,-1.641476,-7.67139,-6.02,-32.619999,13.65,1729430932534.0,0.0
0.842274,-3.069991,-9.856036,24.15,-40.25,18.620001,1729430932557.0,0.0
-3.081956,-2.301895,-7.262216,18.059999,-31.360001,34.509998,1729430932574.0,0.0
-2.165504,-2.663212,-10.506885,-15.47,-41.509998,29.68,1729430932593.0,0.0
-3.713661,-4.965107,-13.385449,-114.800003,-33.389999,32.060001,1729430932613.0,0.0
-4.488935,-4.697111,-9.150154,-76.440002,-14.56,33.040001,1729430932632.0,0.0
-4.12044,-4.881358,-11.47119,-102.129997,14.7,15.26,1729430932657.0,0.0
-1.495514,-7.02772,-10.492528,-84.980003,15.190001,8.61,1729430932675.0,0.0
-2.301895,-4.268795,-7.393822,32.900002,27.440001,10.57,1729430932693.0,0.0
-3.876373,-4.546363,-7.159326,27.93,30.24,6.79,1729430932713.0,0.0
-3.294917,-6.805188,-9.444471,-62.23,20.23,-2.17,1729430932734.0,0.0
-2.847459,-7.159326,-9.710074,-36.82,21.77,-15.68,1729430932754.0,0.0
-2.63689,-5.752346,-9.224331,35.98,26.880001,-27.719999,1729430932773.0,0.0
-2.591427,-2.921637,-7.21436,38.150002,27.860001,-31.219999,1729430932794.0,0.0
-2.663212,-5.151747,-6.025128,-8.47,11.27,-29.190001,1729430932813.0,0.0
-2.218147,-5.630312,-6.9679,18.76,1.54,-30.73,1729430932834.0,0.0
-1.45005,-4.555934,-8.470592,49.84,-5.04,-35.07,1729430932856.0,0.0
-1.091127,-3.517449,-8.243275,30.870001,-6.86,-35.279999,1729430932873.0,0.0
0.09332,-2.730211,-7.185646,56.139999,-14.49,-30.24,1729430932892.0,0.0
0.119641,3.103491,-8.214561,20.440001,-19.6,-17.780001,1729430932913.0,0.0
0.803988,-0.72024,-8.025528,-11.48,-37.939999,9.52,1729430932933.0,0.0
-0.904487,-1.299303,-6.869793,3.36,-43.119999,23.309999,1729430932954.0,0.0
-1.89033,-2.529213,-12.425928,-73.57,-54.599998,31.08,1729430932974.0,0.0
-3.172883,-5.565705,-13.34238,-88.830002,-39.41,38.080002,1729430932994.0,0.0
-6.364908,-4.134798,-9.700503,-41.439999,-7.63,27.370001,1729430933016.0,0.0
-3.122634,-4.713861,-16.515261,-122.57,4.06,18.129999,1729430933034.0,0.0
-2.249253,-5.548956,-10.849058,-31.57,20.299999,11.41,1729430933059.0,0.0
-4.280759,-4.036692,-10.289137,40.670002,47.110001,22.26,1729430933073.0,0.0
-4.570292,-5.161318,-6.07777,-3.78,45.220001,7.28,1729430933092.0,0.0
-3.85723,-6.360123,-7.977671,-36.889999,34.23,-3.01,1729430933114.0,0.0
-3.218346,-5.922236,-9.815358,-24.57,30.59,-14.07,1729430933133.0,0.0
-2.971886,-7.365108,-10.372886,34.23,34.580002,-23.309999,1729430933157.0,0.0
-2.222932,-5.982057,-8.772088,80.290001,37.939999,-31.01,1729430933174.0,0.0
-1.509871,-2.155933,-8.092526,50.400002,35.490002,-33.32,1729430933192.0,0.0
-1.607977,-3.5007,-5.769095,-6.79,20.09,-24.710001,1729430933213.0,0.0
-1.603191,-6.376873,-7.283752,-4.13,6.44,-23.030001,1729430933233.0,0.0
-0.346959,-5.883951,-7.496714,88.199997,-1.47,-26.32,1729430933254.0,0.0
-0.662812,1.131805,-6.357729,89.18,-0.21,-29.33,1729430933273.0,0.0
1.328017,2.533999,-7.743174,27.719999,-23.379999,-23.24,1729430933293.0,0.0
1.361516,-2.055435,-7.436893,-13.3,-50.400002,10.85,1729430933313.0,0.0
-0.789631,-1.727618,-8.501699,9.52,-50.400002,19.6,1729430933332.0,0.0
-2.218147,-3.744767,-11.693724,-32.759998,-53.130001,19.25,1729430933354.0,0.0
-3.998406,-6.577869,-11.241481,-35.07,-38.43,27.370001,1729430933373.0,0.0
-5.769095,-5.659025,-10.344172,4.27,-14.21,18.48,1729430933393.0,0.0
-4.165904,-5.015356,-12.937992,-41.02,-1.05,15.89,1729430933413.0,0.0
-3.136991,-6.025128,-11.492726,-18.27,13.16,11.97,1729430933434.0,0.0
-3.665804,-4.108476,-9.142976,33.18,29.75,15.47,1729430933454.0,0.0
-3.460021,-4.962714,-7.881958,29.540001,28.700001,17.290001,1729430933473.0,0.0
-3.536592,-5.996413,-8.353344,6.16,32.619999,11.76,1729430933492.0,0.0
-2.28036,-5.910272,-9.863215,-17.219999,35.700001,2.24,1729430933514.0,0.0
-1.282553,-3.98405,-11.081161,-1.75,38.920002,-7.07,1729430933533.0,0.0
-3.244668,-5.362316,-4.900501,42.630001,36.259998,-4.69,1729430933556.0,0.0
-2.249253,-6.458229,-6.668797,98.699997,19.530001,-13.79,1729430933573.0,0.0
-1.651048,-1.995614,-6.573084,64.68,11.48,-21.280001,1729430933592.0,0.0
-0.811167,-1.864009,-7.343572,-12.32,-0.91,-12.39,1729430933612.0,0.0
0.677169,-0.760918,-9.765109,22.75,-12.88,2.38,1729430933632.0,0.0
-0.16989,2.471786,-7.601997,75.669998,-2.52,29.610001,1729430933653.0,0.0
-0.667598,1.734797,-6.278766,8.96,-19.18,49.91,1729430933673.0,0.0
-1.667797,-3.316452,-5.673382,-69.230003,-37.170002,63.490002,1729430933692.0,0.0
-1.519442,-7.018148,-6.58744,-122.919998,-61.040001,59.57,1729430933711.0,0.0
-5.54417,-11.217552,-13.88555,-97.510002,-47.110001,34.02,1729430933732.0,0.0
-9.387043,-12.181859,-16.074982,-106.050003,-4.9,-11.69,1729430933754.0,0.0
-1.885544,-8.69791,-11.724831,-35.98,-12.6,-34.790001,1729430933772.0,0.0
-1.459622,-5.438886,-9.623933,40.599998,14.84,-28.0,1729430933792.0,0.0
-3.713661,-2.268396,-8.106883,-11.55,37.170002,-25.620001,1729430933812.0,0.0
-4.26401,-2.414358,-8.523234,-32.060001,21.139999,-7.21,1729430933832.0,0.0
-5.525027,-5.125426,-9.781858,48.93,25.27,0.42,1729430933853.0,0.0
-3.601198,-6.941578,-11.229517,119.840004,25.129999,-14.0,1729430933872.0,0.0
-3.419343,-4.577469,-6.338587,122.639999,42.490002,-23.030001,1729430933891.0,0.0
-2.62732,-5.737988,-10.782058,83.300003,40.110001,-25.27,1729430933911.0,0.0
-2.376073,-4.618148,-6.496514,115.57,42.77,-15.89,1729430933933.0,0.0
-2.005185,-5.379066,-7.226324,179.619995,33.32,-6.51,1729430933953.0,0.0
-1.37348,-4.587041,-5.922236,143.009995,32.549999,-1.12,1729430933974.0,0.0
0.210568,-5.003392,-6.879365,59.220001,1.12,2.94,1729430933992.0,0.0
1.591227,-4.402793,-6.860222,38.150002,-16.1,10.85,1729430934013.0,0.0
2.041078,-4.479364,-7.24786,11.97,-33.25,17.85,1729430934034.0,0.0
2.127219,-4.907679,-6.723832,-25.9,-42.630001,25.41,1729430934057.0,0.0
1.153341,-5.419744,-6.668797,-76.93,-28.35,28.0,1729430934073.0,0.0
-0.361316,-6.685547,-7.752745,-121.590004,-26.25,23.450001,1729430934092.0,0.0
-1.67019,-7.700103,-9.513863,-91.139999,-35.84,23.66,1729430934112.0,0.0
-2.210968,-6.245267,-11.521441,8.75,-27.370001,16.450001,1729430934132.0,0.0
-2.079363,-5.910272,-11.408978,61.040001,-2.1,16.870001,1729430934154.0,0.0
-1.914258,-6.171089,-10.906486,40.459999,6.37,22.190001,1729430934174.0,0.0
-1.995614,-5.596812,-10.415956,59.709999,20.58,20.860001,1729430934192.0,0.0
-2.045863,-2.947958,-10.688738,86.309998,39.060001,28.210001,1729430934212.0,0.0
-3.09392,-3.605984,-3.818945,177.589996,45.849998,54.459999,1729430934234.0,0.0
-3.675375,-2.495714,-4.668397,167.300003,46.060001,36.400002,1729430934255.0,0.0
-4.606184,-1.469193,-6.15434,10.85,32.900002,20.440001,1729430934273.0,0.0
-4.199404,-4.788038,-12.315859,-105.419998,9.73,14.91,1729430934292.0,0.0
-2.897708,-9.473185,-7.556533,109.550003,19.040001,1.54,1729430934313.0,0.0
-1.785046,-7.597212,-2.95035,232.119995,36.68,-22.610001,1729430934332.0,0.0
-1.9669,-4.740182,-5.852845,232.540009,54.18,-39.619999,1729430934355.0,0.0
-3.45045,-9.343972,-3.917051,196.910004,39.200001,-27.16,1729430934372.0,0.0
-5.812167,-14.347364,3.948158,199.639999,6.37,-15.96,1729430934393.0,0.0
-1.691726,-12.806387,-6.417551,196.839996,-67.340004,-41.02,1729430934414.0,0.0
-1.90708,-9.650253,-4.132405,171.289993,-73.5,-32.34,1729430934432.0,0.0
-2.273181,-6.659225,-2.904887,78.260002,23.24,-14.77,1729430934454.0,0.0
-3.388237,-8.003991,-1.071985,-39.48,60.130001,5.18,1729430934472.0,0.0
-2.864209,-9.193225,-1.457229,-133.910004,23.17,11.62,1729430934493.0,0.0
-1.555335,-7.62114,-1.612763,-212.169998,8.26,0.07,1729430934512.0,0.0
-1.732404,-4.409972,-0.229711,-318.779999,10.43,18.969999,1729430934533.0,0.0
-2.639283,-2.194218,-4.192225,-398.230011,-15.47,41.93,1729430934555.0,0.0
-2.438286,-3.76391,-9.939785,-346.779999,-54.459999,57.330002,1729430934572.0,0.0
-3.117848,-8.449057,-12.318252,-191.589996,-71.610001,87.709999,1729430934592.0,0.0
-2.770889,-7.630712,-10.380065,-43.82,-62.650002,89.18,1729430934613.0,0.0
-2.402394,-5.912664,-10.667203,54.110001,-12.6,78.470001,1729430934632.0,0.0
-2.766103,-6.987042,-8.499306,68.529999,19.530001,52.709999,1729430934655.0,0.0
-2.251646,-8.628519,-8.472985,58.799999,-1.75,27.93,1729430934672.0,0.0
-1.813759,-8.484949,-12.057433,86.309998,-23.450001,-3.5,1729430934693.0,0.0
-0.911665,-7.872386,-15.629916,185.080002,-0.77,-43.959999,1729430934714.0,0.0
-0.416351,-6.915257,-4.606184,290.360016,40.18,-65.099998,1729430934733.0,0.0
-1.205983,-3.550949,-1.600798,309.540009,49.420002,-76.860001,1729430934754.0,0.0
-1.931008,-8.271988,-9.437292,283.98999,31.92,-63.98,1729430934773.0,0.0
-2.239682,-6.379266,0.617348,249.690002,-0.28,-45.920002,1729430934793.0,0.0
-2.476572,-9.49472,4.630112,201.389999,-17.15,-42.98,1729430934812.0,0.0
-6.266802,-9.848858,0.579063,77.910004,-14.98,-39.689999,1729430934833.0,0.0
-7.578069,-7.814958,-0.904487,-23.73,14.56,-25.34,1729430934856.0,0.0
-4.462614,-7.779066,-3.184847,-73.360001,-22.190001,-14.07,1729430934872.0,0.0
-2.749353,-7.52782,-2.414358,-104.720001,-53.130001,-4.9,1729430934893.0,0.0
-2.277967,-6.029913,-2.847459,-183.610001,-17.01,4.69,1729430934912.0,0.0
-2.868994,-1.347159,-2.880959,-350.209991,15.26,14.21,1729430934933.0,0.0
-2.289931,0.485743,-8.666803,-437.429993,16.24,49.490002,1729430934954.0,0.0
-2.323431,-11.270195,-9.21476,-328.720001,-72.519997,79.800003,1729430934972.0,0.0
-2.730211,-11.593226,-8.745767,-172.550003,-73.5,86.660004,1729430934992.0,0.0
-2.443072,-9.561719,-10.301102,-63.560001,-3.29,52.080002,1729430935012.0,0.0
-2.70389,-7.848458,-10.564312,60.27,5.32,33.950001,1729430935032.0,0.0
-3.215954,-5.142176,-9.645468,63.98,7.42,34.790001,1729430935059.0,0.0
-2.751746,-7.810174,-9.422935,39.689999,1.54,10.36,1729430935073.0,0.0
-2.493321,-8.877372,-8.30788,-10.08,-18.76,-8.12,1729430935091.0,0.0
-2.014757,-9.12144,-13.505091,23.17,-13.09,-43.889999,1729430935112.0,0.0
-1.825724,-8.638089,-14.596218,148.259995,31.290001,-72.239998,1729430935132.0,0.0
-2.155933,-7.185646,-3.912265,306.880005,95.269997,-85.330002,1729430935156.0,0.0
-2.091327,-1.249053,-5.98445,354.410004,103.739998,-82.389999,1729430935172.0,0.0
-3.591627,-5.656632,-6.910471,371.48999,28.42,-38.360001,1729430935192.0,0.0
-2.617748,-4.587041,2.081756,318.709991,-8.82,-47.950001,1729430935212.0,0.0
-6.163911,-6.958328,6.206983,213.570007,28.280001,-24.85,1729430935233.0,0.0
-7.200003,-5.211568,-4.546363,74.059998,43.119999,-16.940001,1729430935254.0,0.0
-5.230711,-8.99462,-2.043471,47.040001,-24.01,-13.440001,1729430935272.0,0.0
-3.273381,-8.865408,-4.881358,1.19,-47.529999,7.35,1729430935292.0,0.0
-2.847459,-10.585848,-2.995814,-45.849998,-16.450001,2.94,1729430935312.0,0.0
-1.758725,-8.889337,-0.72024,-156.380005,64.75,-16.1,1729430935331.0,0.0
-1.136591,-3.460021,2.510071,-336.980011,40.18,-6.3,1729430935354.0,0.0
-1.272982,0.693919,0.904487,-460.179993,-37.52,16.450001,1729430935373.0,0.0
-1.529014,-1.648655,-6.07777,-469.0,-91.279999,55.09,1729430935392.0,0.0
-1.954936,-7.936993,-14.601004,-357.980011,-87.919998,61.25,1729430935412.0,0.0
-2.09372,-11.227123,-15.091532,-196.630005,-104.510002,66.709999,1729430935434.0,0.0
-2.096112,-8.212167,-12.335001,-88.480003,-30.52,67.059998,1729430935453.0,0.0
-2.632105,-9.521042,-7.948956,8.4,6.37,32.130001,1729430935473.0,0.0
-3.275774,-9.391829,-7.652246,-3.71,5.81,6.16,1729430935492.0,0.0
-3.366701,-10.399208,-11.004591,-0.7,-15.33,-22.33,1729430935512.0,0.0
-2.98385,-9.078369,-10.351351,47.670002,-20.58,-38.709999,1729430935531.0,0.0
-3.213561,-6.951149,-13.234701,149.100006,9.38,-52.290001,1729430935554.0,0.0
-3.924229,-5.029713,-10.336994,258.790009,55.23,-59.290001,1729430935573.0,0.0
-4.175476,-5.728417,-6.750153,343.559998,97.93,-51.799999,1729430935592.0,0.0
-2.256432,-6.549156,-6.838687,393.820007,83.510002,-35.84,1729430935613.0,0.0
-1.871187,-4.426722,-1.804188,456.26001,83.510002,10.22,1729430935632.0,0.0
-2.268396,-4.199404,0.98345,306.73999,-31.57,-27.299999,1729430935656.0,0.0
-4.474578,-3.098706,1.567299,34.23,33.880001,-19.950001,1729430935672.0,0.0
-5.142176,-8.537591,-2.732604,-115.150002,71.330002,-2.59,1729430935691.0,0.0
-4.268795,-12.538391,-3.440879,-91.349998,-17.5,-12.32,1729430935767.0,0.0
-1.828116,-12.533605,-2.524428,-25.41,-74.900002,-2.45,1729430935773.0,0.0
-0.801596,-11.021341,-0.789631,-4.13,-38.290001,-1.47,1729430935776.0,0.0
-0.433101,-4.591826,-1.634298,-129.220001,-1.05,-17.5,1729430935783.0,0.0
-0.758525,1.088734,3.558127,-295.049988,16.870001,10.85,1729430935791.0,0.0
-1.457229,0.299103,-4.027121,-381.640015,-24.01,41.790001,1729430935811.0,0.0
-2.54357,-7.546963,-9.609575,-324.940002,-45.849998,49.209999,1729430935832.0,0.0
-5.804988,-8.458629,-9.32483,-274.75,-29.33,52.709999,1729430935853.0,0.0
-6.240481,-10.315458,-10.880164,-178.850006,-16.17,51.380001,1729430935872.0,0.0
-4.256832,-9.571291,-10.686346,-108.709999,-58.939999,37.240002,1729430935892.0,0.0
-2.419144,-10.037891,-9.123833,-94.57,-86.029999,27.299999,1729430935912.0,0.0
-0.801596,-8.891729,-12.01197,-47.670002,-78.470001,-5.39,1729430935931.0,0.0
-1.572084,-7.056434,-10.80838,14.98,-20.65,-13.86,1729430935953.0,0.0
-4.158726,-4.596612,-11.574083,62.299999,65.590004,-40.529999,1729430935972.0,0.0
-5.800202,-5.690133,-8.047063,140.350006,110.459999,-49.91,1729430935993.0,0.0
-5.302495,-6.195018,-8.226524,150.779999,76.650002,-44.170002,1729430936011.0,0.0
-1.899901,-7.855636,-5.828916,186.830002,17.5,-47.25,1729430936032.0,0.0
-0.488136,-6.372087,-3.9338,206.220001,-23.17,-25.969999,1729430936056.0,0.0
-0.902094,-6.297909,-2.828316,195.020004,-38.43,-36.330002,1729430936072.0,0.0
-2.852244,-6.953543,-3.792624,119.0,24.92,-51.52,1729430936092.0,0.0
-5.407779,-8.920443,-1.103091,106.050003,102.760002,-33.110001,1729430936111.0,0.0
-5.572884,-10.966305,-2.864209,157.009995,29.4,-1.82,1729430936131.0,0.0
-2.600998,-7.673782,-2.85703,125.720001,-76.160004,-23.59,1729430936153.0,0.0
-2.258825,-4.922036,-3.735196,16.309999,-35.91,5.18,1729430936172.0,0.0
-2.548356,-6.719046,-0.811167,-119.349998,16.66,4.76,1729430936191.0,0.0
-3.60359,-5.888737,1.481157,-281.26001,48.720001,3.92,1729430936212.0,0.0
-2.979064,-0.564706,-3.68734,-394.309998,-10.43,16.59,1729430936231.0,0.0
-2.227718,-1.07677,-8.975478,-377.720001,-93.519997,73.709999,1729430936253.0,0.0
-2.155933,-7.549356,-12.782458,-217.630005,-112.279999,91.209999,1729430936272.0,0.0
-2.952743,-10.992627,-9.119047,-95.760002,-78.610001,104.720001,1729430936291.0,0.0
-3.244668,-9.738789,-10.794022,-63.139999,10.92,71.470001,1729430936311.0,0.0
-3.912265,-7.54457,-8.126025,68.809998,22.4,37.450001,1729430936332.0,0.0
-4.019942,-7.738388,-7.310073,67.620003,4.9,11.97,1729430936352.0,0.0
-3.314059,-9.200402,-11.260624,15.47,-19.389999,-31.01,1729430936372.0,0.0
-2.581856,-11.375479,-14.907285,58.170002,-28.630001,-71.610001,1729430936393.0,0.0
-0.861416,-8.568698,-14.670395,175.699997,-4.2,-93.519997,1729430936412.0,0.0
-0.124427,-5.582455,-4.936393,353.570007,50.049999,-83.440002,1729430936431.0,0.0
-1.062413,-1.421337,-5.192425,416.5,61.670002,-76.510002,1729430936453.0,0.0
-1.801795,-2.909672,0.512064,392.0,65.239998,-56.98,1729430936471.0,0.0
-4.24726,-6.250053,3.034099,193.059998,51.66,-24.639999,1729430936492.0,0.0
-10.100104,-8.477771,5.460421,-33.529999,-2.24,-32.200001,1729430936511.0,0.0
-8.01117,-5.912664,-6.460621,-134.960007,-30.66,-9.31,1729430936531.0,0.0
-3.924229,-7.068398,-5.812167,-86.660004,-42.490002,-8.61,1729430936556.0,0.0
-2.926422,-9.968499,-5.108676,-55.790001,-27.860001,12.81,1729430936572.0,0.0
-3.744767,-9.60479,-1.445265,-144.199997,22.469999,14.56,1729430936591.0,0.0
-3.754339,-0.586242,0.291924,-331.519989,48.16,-0.84,1729430936611.0,0.0
-2.072184,1.789831,-9.166903,-429.869995,-26.18,40.040001,1729430936632.0,0.0
-1.859223,-10.109675,-9.602397,-235.479996,-93.800003,83.790001,1729430936654.0,0.0
-1.646262,-10.296316,-7.640282,-162.610001,-74.970001,83.019997,1729430936672.0,0.0
-1.804188,-9.169296,-12.473784,-51.240002,-24.780001,69.300003,1729430936691.0,0.0
-2.74696,-8.379664,-11.394621,85.190002,17.710001,43.330002,1729430936711.0,0.0
-4.13719,-8.001599,-7.52782,106.889999,58.029999,23.66,1729430936732.0,0.0
-4.536791,-9.432507,-9.877571,63.98,37.380001,-20.719999,1729430936753.0,0.0
-3.668197,-9.68136,-15.426528,73.919998,-11.76,-46.970001,1729430936771.0,0.0
-1.29691,-11.547763,-7.846066,197.259995,-5.11,-76.300003,1729430936791.0,0.0
0.019143,-7.348359,-1.792224,255.919998,44.310001,-86.449997,1729430936819.0,0.0
-0.22014,-4.457829,-5.4341,299.670013,31.92,-86.870003,1729430936831.0,0.0
-1.875973,-4.809574,-6.977471,325.290009,7.21,-55.720001,1729430936853.0,0.0
-2.993421,-5.304887,1.117448,298.480011,-2.52,-25.27,1729430936873.0,0.0
-4.426722,-7.223931,1.524228,186.199997,-16.66,-7.42,1729430936891.0,0.0
-5.924629,-7.13779,-1.354338,12.18,-1.96,-38.290001,1729430936912.0,0.0
-7.23111,-7.415358,-0.954736,-120.889999,9.87,-13.72,1729430936932.0,0.0
-4.486543,-8.271988,-2.914458,-169.820007,-47.599998,-27.23,1729430936957.0,0.0
-3.862016,-9.772287,-2.201397,-184.380005,-20.51,-2.24,1729430936972.0,0.0
-3.617948,-3.536592,-2.026721,-250.669998,14.28,-13.16,1729430936992.0,0.0
-3.550949,3.215954,-4.476971,-373.589996,-6.72,31.92,1729430937011.0,0.0
-3.144169,-2.237289,-9.516255,-337.049988,-70.0,87.220001,1729430937032.0,0.0
-2.143969,-6.845865,-14.77568,-207.199997,-94.43,98.349998,1729430937057.0,0.0
-2.306681,-8.506484,-13.596018,-83.160004,-80.360001,131.389999,1729430937072.0,0.0
-1.701297,-7.970492,-9.19801,20.23,8.4,99.610001,1729430937092.0,0.0
-3.306881,-7.441679,-6.999006,48.509998,45.639999,77.769997,1729430937112.0,0.0
-3.617948,-8.463413,-7.479963,36.189999,40.740002,40.740002,1729430937131.0,0.0
-3.299703,-9.966106,-6.936793,7.14,-11.48,5.46,1729430937155.0,0.0
-2.835495,-10.633704,-8.769694,11.2,-36.82,-31.57,1729430937172.0,0.0
-2.273181,-8.752945,-13.304093,73.5,-22.120001,-76.300003,1729430937193.0,0.0
-1.909473,-6.096912,-11.339586,192.779999,27.02,-87.220001,1729430937214.0,0.0
-1.911865,-3.129812,-0.014357,272.929993,53.830002,-79.099998,1729430937234.0,0.0
-3.570091,-2.931208,-1.751546,161.979996,58.73,-53.689999,1729430937256.0,0.0
-4.630112,-3.302095,-7.865208,48.790001,7.56,-26.880001,1729430937273.0,0.0
-7.49432,-5.965307,-2.175076,-35.91,-0.42,5.32,1729430937293.0,0.0
-8.317451,-8.62134,-4.364508,-96.879997,26.25,-18.34,1729430937314.0,0.0
-7.489535,-10.91845,-4.811966,-74.760002,1.26,14.42,1729430937333.0,0.0
-3.371487,-9.138189,-7.022934,-27.58,-43.400002,18.76,1729430937356.0,0.0
-1.849652,-4.704289,-3.718446,-25.620001,-65.940002,40.950001,1729430937374.0,0.0
-0.571885,0.502493,-3.771089,-135.240005,-68.669998,48.439999,1729430937394.0,0.0
-1.68694,-3.921836,-8.810372,-213.430008,-45.009998,67.620003,1729430937414.0,0.0
-1.842474,-9.377472,-12.811172,-197.75,-15.96,31.780001,1729430937433.0,0.0
-3.26381,-11.222338,-8.415558,-100.169998,10.85,38.290001,1729430937455.0,0.0
-3.515057,-9.88475,-7.982457,-16.799999,11.55,1.33,1729430937473.0,0.0
-3.912265,-8.743374,-9.336794,3.85,-8.19,-33.950001,1729430937493.0,0.0
-3.196811,-8.408379,-15.598811,16.1,-15.82,-68.879997,1729430937513.0,0.0
-1.942972,-10.212566,-10.430314,108.220001,-15.82,-85.330002,1729430937538.0,0.0
-1.744368,-6.733403,-5.307281,198.800003,60.27,-87.639999,1729430937554.0,0.0
-3.129812,-5.254639,-6.295516,261.869995,85.82,-47.040001,1729430937573.0,0.0
-3.165704,-5.446064,0.524028,295.329987,48.720001,-40.880001,1729430937594.0,0.0
-6.558727,-6.400801,0.629312,178.220001,24.01,-22.120001,1729430937613.0,0.0
-7.984849,-6.831509,-0.413958,13.23,17.5,-31.92,1729430937634.0,0.0
-5.594419,-7.15454,-1.887937,-102.970001,-21.139999,-14.98,1729430937656.0,0.0
-3.828516,-9.470792,0.227318,-113.470001,-60.200001,-1.26,1729430937673.0,0.0
-4.539185,-6.695118,-0.088534,-118.93,-42.349998,18.129999,1729430937694.0,0.0
-3.168097,2.569891,-8.77448,-197.399994,-16.66,30.450001,1729430937713.0,0.0
-2.586641,3.079563,-13.773087,-227.360001,-39.130001,90.720001,1729430937733.0,0.0
-2.388037,-6.21416,-15.005391,-155.75,-54.25,123.970001,1729430937754.0,0.0
-2.069792,-11.150554,-5.938986,-84.980003,-15.47,127.959999,1729430937773.0,0.0
-2.682354,-10.463813,-7.673782,-90.370003,21.0,91.559998,1729430937794.0,0.0
-3.058028,-11.722438,-7.216753,-3.78,28.700001,39.130001,1729430937813.0,0.0
-3.464807,-11.650653,-6.022735,2.59,6.37,-2.94,1729430937833.0,0.0
-2.993421,-10.387242,-9.537791,-1.61,-18.690001,-50.959999,1729430937856.0,0.0
-2.416751,-8.848659,-19.719254,83.019997,-27.860001,-93.870003,1729430937873.0,0.0
-1.22034,-9.786645,-8.056634,262.290009,23.030001,-102.410004,1729430937894.0,0.0
-2.605784,-4.352544,-3.771089,363.230011,92.400002,-73.080002,1729430937912.0,0.0
-1.691726,-1.447658,-3.522235,273.559998,66.779999,-65.099998,1729430937932.0,0.0
-4.680361,-7.54457,3.270989,104.370003,-6.23,-27.51,1729430937956.0,0.0
-7.293324,-7.685746,-1.241875,-94.989998,17.01,-42.700001,1729430937973.0,0.0
-7.183254,-7.276574,-3.677768,-131.460007,24.360001,-22.469999,1729430937993.0,0.0
-5.245068,-7.166504,-3.105884,-54.810001,-46.759998,14.63,1729430938013.0,0.0
-3.802195,-10.810772,-3.426522,36.82,-27.65,9.03,1729430938032.0,0.0
-4.479364,-9.209974,0.380459,-32.34,19.25,1.05,1729430938058.0,0.0
-2.825923,1.612763,-3.213561,-221.899994,-7.84,9.94,1729430938073.0,0.0
-1.813759,2.349752,-8.391629,-270.899994,-71.75,82.32,1729430938094.0,0.0
-1.320838,-3.926622,-12.157932,-216.229996,-76.230003,98.209999,1729430938112.0,0.0
-2.105684,-10.274779,-11.598011,-152.669998,-40.32,113.400002,1729430938134.0,0.0
-2.711068,-11.52862,-8.547162,-111.580002,5.74,86.940002,1729430938165.0,0.0
-3.376273,-12.191431,-6.867401,-15.75,24.43,47.32,1729430938173.0,0.0
-4.156333,-10.152746,-7.80778,42.98,9.1,12.32,1729430938193.0,0.0
-4.426722,-8.913264,-7.307681,32.130001,-9.94,-23.940001,1729430938212.0,0.0
-2.964707,-7.329216,-11.57169,-15.82,-14.77,-58.450001,1729430938232.0,0.0
-2.316252,-6.23091,-11.511869,-17.780001,-1.68,-77.07,1729430938257.0,0.0
-1.385444,-5.285746,-8.688338,28.91,12.04,-73.779999,1729430938273.0,0.0
-1.251446,-4.304688,-7.106683,86.169998,30.1,-61.18,1729430938293.0,0.0
-2.419144,-5.625526,-5.472386,128.940002,59.639999,-55.93,1729430938313.0,0.0
-2.629712,-6.446264,-7.71446,73.150002,85.540001,-57.470001,1729430938332.0,0.0
-3.59402,-8.740981,-4.524827,-0.28,64.82,-45.5,1729430938355.0,0.0
-3.929015,-9.982857,-1.493121,-36.889999,37.310001,-54.110001,1729430938373.0,0.0
-5.572884,-8.709875,-1.842474,-31.639999,24.99,-40.040001,1729430938393.0,0.0
-6.625726,-8.01117,0.055035,36.610001,16.450001,-8.47,1729430938412.0,0.0
-6.929615,-8.068598,0.713061,105.209999,-24.08,33.599998,1729430938433.0,0.0
-5.769095,-6.652047,-1.356731,163.800003,-44.240002,63.349998,1729430938464.0,0.0
-4.673182,-4.244867,-4.4339,167.300003,-28.91,77.07,1729430938472.0,0.0
-4.017549,-3.108276,-6.754939,99.470001,-8.4,105.489998,1729430938493.0,0.0
-2.98385,-5.235496,-10.839487,38.150002,-10.36,130.270004,1729430938512.0,0.0
-1.122234,-9.468399,-15.254245,39.689999,-51.52,129.430008,1729430938533.0,0.0
0.416351,-11.880364,-13.75873,79.309998,-55.650002,121.379997,1729430938554.0,0.0
-0.416351,-7.537392,-3.816552,111.160004,32.619999,91.07,1729430938572.0,0.0
-3.448057,-5.063213,0.332602,54.670002,108.849998,11.9,1729430938592.0,0.0
-7.412964,-5.158926,-1.794617,-65.379997,73.010002,-36.119999,1729430938614.0,0.0
-6.845865,-8.38445,-3.005385,-194.039993,-32.830002,-57.610001,1729430938633.0,0.0
-4.280759,-8.51127,-6.707082,-286.160004,-85.400002,-84.07,1729430938654.0,0.0
-2.316252,-7.982457,-10.224532,-295.470001,-75.040001,-118.090004,1729430938672.0,0.0
-0.892523,-6.869793,-12.313466,-254.589996,-44.52,-125.860001,1729430938692.0,0.0
-0.244068,-9.4349,-6.017949,-157.080002,-22.469999,-92.120003,1729430938713.0,0.0
0.902094,-9.901501,-13.825729,-55.93,-5.39,-86.660004,1729430938732.0,0.0
-1.29691,-6.941578,-10.214959,-9.66,26.809999,-78.889999,1729430938753.0,0.0
-4.680361,-9.523434,-3.227918,-20.23,138.740005,-86.519997,1729430938772.0,0.0
-9.506684,-6.927221,-0.344566,-67.760002,142.589996,-77.629997,1729430938793.0,0.0
-7.951349,-9.777073,0.047856,-10.57,-18.129999,-9.73,1729430938812.0,0.0
-4.790431,-9.305687,-0.569492,46.970001,-64.75,3.78,1729430938833.0,0.0
-7.415358,-5.608776,-2.196611,102.690002,-10.85,2.8,1729430938861.0,0.0
-7.49432,-3.256632,-4.134798,131.809998,0.56,35.84,1729430938872.0,0.0
-3.218346,-1.18684,-14.512468,59.5,-48.23,105.769997,1729430938894.0,0.0
-0.823131,-4.309474,-13.53859,107.940002,-103.25,136.990005,1729430938914.0,0.0
0.131605,-5.039285,-8.870193,112.419998,-59.990002,164.5,1729430938933.0,0.0
-0.378066,-7.082755,-6.888937,78.120003,22.889999,121.870003,1729430938956.0,0.0
-2.514857,-8.874979,-5.312066,34.09,89.949997,87.360001,1729430938973.0,0.0
-4.45065,-9.559326,-4.553542,-14.35,89.040001,41.02,1729430938994.0,0.0
-5.460421,-11.078769,-5.785845,-64.82,26.460001,-8.05,1729430939014.0,0.0
-3.684947,-10.861022,-8.85105,-107.169998,-55.790001,-63.279999,1729430939034.0,0.0
-2.055435,-9.171689,-11.559726,-77.629997,-58.66,-110.529999,1729430939058.0,0.0
-0.89013,-6.661618,-8.216952,-77.629997,-19.879999,-129.5,1729430939074.0,0.0
-1.040878,-4.37408,-7.049256,38.990002,25.9,-118.93,1729430939094.0,0.0
-0.473779,-6.092126,-6.63769,14.14,41.369999,-116.620003,1729430939113.0,0.0
-2.842674,-6.546762,-5.333601,-125.160004,30.24,-85.610001,1729430939144.0,0.0
-6.582655,-7.008578,-3.148954,-247.800003,61.389999,-98.0,1729430939156.0,0.0
-8.183454,-7.781459,-3.567699,-215.880005,69.370003,-49.77,1729430939174.0,0.0
-5.618347,-8.542377,-0.090927,30.24,-69.650002,22.960001,1729430939194.0,0.0
-5.723632,-5.115855,-1.730011,60.34,-48.369999,15.75,1729430939214.0,0.0
-4.431508,-4.675575,-10.305886,-1.75,-6.51,31.08,1729430939234.0,0.0
-3.579663,-5.869594,-12.562319,-17.219999,-38.639999,49.490002,1729430939258.0,0.0
-2.244468,-5.319244,-11.114661,71.68,-85.330002,94.290001,1729430939275.0,0.0
-0.674776,-5.333601,-12.004791,163.869995,-62.650002,106.68,1729430939293.0,0.0
-1.39023,-3.842873,-7.207181,162.119995,-11.62,101.989998,1729430939314.0,0.0
-2.713461,-5.534599,-7.02772,89.599998,53.830002,65.379997,1729430939334.0,0.0
-4.735396,-7.398607,-6.865008,-0.91,67.059998,31.5,1729430939357.0,0.0
-3.766303,-8.214561,-7.329216,-53.689999,-3.92,1.26,1729430939375.0,0.0
-1.641476,-9.262616,-8.073383,-101.220001,-62.860001,-34.720001,1729430939395.0,0.0
-0.275175,-9.750752,-10.183852,-98.980003,-37.869999,-85.610001,1729430939416.0,0.0
-0.629312,-8.274381,-8.456236,-43.959999,15.33,-109.830002,1729430939434.0,0.0
-2.033899,-5.577669,-7.769495,3.5,63.560001,-117.459999,1729430939457.0,0.0
-2.68714,-3.790231,-8.709875,-19.389999,58.029999,-106.330002,1729430939475.0,0.0
-2.581856,-5.635098,-6.156733,-118.580002,0.28,-50.330002,1729430939494.0,0.0
-4.39083,-7.618747,-4.354938,-73.5,21.84,-27.16,1729430939515.0,0.0
-7.348359,-7.089933,-4.194618,-4.97,30.73,-10.99,1729430939534.0,0.0
-9.710074,-4.737789,0.399601,77.07,2.94,28.77,1729430939557.0,0.0
-8.425128,-4.019942,-4.893322,87.849998,-25.059999,56.279999,1729430939579.0,0.0
-4.675575,-5.596812,-9.296116,13.02,-8.68,60.48,1729430939594.0,0.0
-3.120241,-4.883751,-10.990234,-11.97,-20.09,79.800003,1729430939614.0,0.0
-2.065006,-5.419744,-11.004591,54.040001,-43.959999,94.220001,1729430939636.0,0.0
-0.887737,-5.417351,-10.284351,93.099998,-35.209999,92.400002,1729430939656.0,0.0
-0.899701,-6.321837,-7.692925,73.709999,0.42,73.5,1729430939674.0,0.0
-1.150948,-7.233503,-5.776274,27.23,28.630001,44.240002,1729430939695.0,0.0
-2.029114,-8.446664,-3.309274,-13.58,23.17,25.620001,1729430939714.0,0.0
-2.151148,-9.308081,-4.54397,-44.310001,-10.01,25.620001,1729430939736.0,0.0
-2.196611,-9.755538,-7.149754,-53.760002,-29.33,-32.060001,1729430939756.0,0.0
-2.971886,-8.949157,-8.999406,-50.119999,-17.99,-64.610001,1729430939774.0,0.0
-3.608376,-6.702296,-9.693325,-33.25,12.67,-82.879997,1729430939794.0,0.0
-2.859423,-5.321638,-9.138189,-12.04,19.67,-88.550003,1729430939815.0,0.0
-2.567499,-6.101698,-6.331409,12.46,4.83,-63.91,1729430939834.0,0.0
-2.624927,-3.811767,-6.616155,25.48,12.6,-47.18,1729430939856.0,0.0
-5.642276,-2.134398,-3.981657,50.610001,33.18,-14.35,1729430939875.0,0.0
-9.722038,-3.381058,-2.54357,22.469999,34.09,4.06,1729430939894.0,0.0
-8.707481,-4.443472,-6.91765,-17.360001,21.49,26.880001,1729430939914.0,0.0
-4.474578,-5.029713,-8.329416,-22.889999,-6.09,32.34,1729430939934.0,0.0
-2.337788,-6.381658,-9.169296,-7.49,-50.189999,49.0,1729430939957.0,0.0
-1.844866,-6.592227,-9.51147,14.14,-34.299999,47.950001,1729430939975.0,0.0
-1.024128,-7.101898,-8.355737,-10.5,-15.47,25.41,1729430939994.0,0.0
-0.969093,-8.946764,-7.089933,-67.620003,-18.200001,4.55,1729430940014.0,0.0
-0.581456,-11.937792,-7.616355,-91.07,-14.63,-31.15,1729430940034.0,0.0
-0.72024,-8.846266,-8.831908,-63.07,2.38,-47.459999,1729430940062.0,0.0
-1.213161,-7.688138,-9.997212,50.82,27.790001,-57.119999,1729430940074.0,0.0
-2.330609,-4.945964,-5.958128,83.860001,44.099998,-43.259998,1729430940094.0,0.0
-5.730811,-3.455236,-3.869194,45.57,64.959999,-22.4,1729430940114.0,0.0
-9.798609,-4.934,-2.148755,-14.21,37.380001,-0.7,1729430940134.0,0.0
-6.941578,-4.579862,-9.123833,-45.290001,-10.64,32.27,1729430940156.0,0.0
-3.85723,-3.964907,-8.865408,50.68,-4.06,39.549999,1729430940175.0,0.0
-2.529213,-3.383451,-7.472785,87.849998,-11.83,50.189999,1729430940195.0,0.0
-1.505085,-3.548556,-6.788438,27.16,-11.76,40.950001,1729430940214.0,0.0
-1.024128,-5.941379,-7.032506,-59.639999,-26.040001,30.52,1729430940234.0,0.0
-0.471386,-9.667004,-7.554141,-104.440002,-40.880001,9.38,1729430940256.0,0.0
0.100499,-10.581062,-8.982656,-112.980003,-49.700001,-14.56,1729430940274.0,0.0
-0.086142,-9.573684,-10.557133,-62.02,-33.389999,-34.580002,1729430940296.0,0.0
-1.277767,-8.38445,-8.293523,18.549999,22.960001,-47.529999,1729430940315.0,0.0
-3.366701,-6.039484,-7.4345,31.85,64.75,-54.740002,1729430940334.0,0.0
-6.178268,-5.548956,-7.085148,33.459999,88.059998,-42.0,1729430940356.0,0.0
-7.977671,-4.735396,-6.252446,21.98,46.619999,-24.92,1729430940374.0,0.0
-6.649654,-3.9673,-5.144568,7.21,-28.210001,7.07,1729430940394.0,0.0
-5.230711,-3.639483,-5.534599,16.66,-38.57,24.360001,1729430940414.0,0.0
-4.575077,-3.464807,-7.625926,28.559999,-10.22,23.030001,1729430940434.0,0.0
-4.182654,-4.381258,-8.331808,13.37,2.66,19.74,1729430940457.0,0.0
-2.26361,-5.67099,-8.769694,-8.4,-18.059999,18.27,1729430940477.0,0.0
-1.533799,-6.393622,-8.757731,-17.92,-41.720001,9.87,1729430940493.0,0.0
-1.091127,-6.896115,-8.702696,-20.65,-36.82,-0.35,1729430940514.0,0.0
-1.349552,-7.173682,-8.176274,-13.79,-6.93,-12.32,1729430940535.0,0.0
-2.177469,-6.924829,-7.592427,4.2,22.68,-23.17,1729430940556.0,0.0
-3.010171,-6.405586,-6.666404,25.9,34.16,-25.48,1729430940575.0,0.0
-3.775874,-5.948557,-6.266802,24.57,26.6,-22.049999,1729430940594.0,0.0
-4.125226,-5.922236,-6.786045,12.81,8.75,-17.710001,1729430940614.0,0.0
-3.862016,-6.4678,-7.226324,18.200001,-6.09,-12.39,1729430940635.0,0.0
-3.596412,-6.216553,-7.202396,26.880001,-7.21,-10.5,1729430940656.0,0.0
-3.529413,-5.800202,-7.013363,23.030001,-2.94,-9.31,1729430940674.0,0.0
-3.816552,-5.718846,-6.424729,14.77,1.89,-8.75,1729430940694.0,0.0
-3.701697,-6.530013,-6.419943,25.41,4.55,-11.62,1729430940769.0,0.0
-3.644269,-6.180661,-6.80758,30.17,1.4,-13.09,1729430940771.0,0.0
-3.608376,-5.936593,-6.994221,14.21,-3.36,-12.6,1729430940773.0,0.0
-3.337988,-6.412765,-6.455836,-4.9,-7.84,-12.53,1729430940780.0,0.0
-3.050849,-6.403193,-6.721439,-14.35,-13.79,-11.48,1729430940804.0,0.0
-3.122634,-6.912865,-7.881958,-17.43,-17.219999,-8.96,1729430940814.0,0.0
-3.294917,-7.188039,-7.341179,-16.52,-9.52,-11.76,1729430940834.0,0.0
-3.359523,-7.159326,-6.494121,-11.06,-3.71,-14.84,1729430940855.0,0.0
-3.326023,-6.941578,-6.345766,-6.86,-6.23,-17.780001,1729430940874.0,0.0
-3.163311,-6.60419,-6.865008,-8.12,-13.37,-16.870001,1729430940901.0,0.0
-3.022135,-6.67119,-7.779066,-16.59,-14.84,-17.15,1729430940915.0,0.0
-3.024528,-6.345766,-7.695317,-31.639999,-7.21,-16.940001,1729430940934.0,0.0
-3.067599,-6.326623,-6.786045,-31.15,0.77,-11.76,1729430940957.0,0.0
-2.947958,-6.522834,-6.65444,-16.309999,-1.89,-7.35,1729430940976.0,0.0
-2.825923,-6.175875,-6.570691,-14.49,-6.44,-4.06,1729430940994.0,0.0
-2.639283,-5.871986,-7.063612,-31.780001,-10.15,-3.78,1729430941019.0,0.0
-2.411965,-6.156733,-7.666604,-45.220001,-18.41,-4.97,1729430941036.0,0.0
-2.234896,-6.144768,-7.640282,-43.889999,-17.57,-10.43,1729430941065.0,0.0
-2.833102,-7.21436,-8.451449,-36.259998,-9.24,-17.99,1729430941077.0,0.0
-3.117848,-5.536992,-7.63789,2.31,0.91,-19.18,1729430941172.0,0.0
-3.515057,-4.012764,-7.91785,12.32,4.2,-17.710001,1729430941172.0,0.0
-3.160919,-6.041877,-8.446664,-57.260002,-6.23,-21.42,1729430941176.0,0.0
-2.644069,-7.238289,-8.425128,-50.610001,-8.68,-18.690001,1729430941177.0,0.0
-2.526821,-6.082555,-7.704889,0.28,6.44,-24.08,1729430941177.0,0.0
-3.352344,-5.359922,-7.563712,3.71,16.1,-28.210001,1729430941234.0,0.0
-3.622734,-6.276374,-7.60439,-21.280001,8.96,-27.16,1729430941234.0,0.0
-2.864209,-6.259624,-7.264609,-22.049999,0.42,-24.57,1729430941238.0,0.0
-2.658426,-5.515456,-7.188039,4.34,5.53,-23.799999,1729430941256.0,0.0
-3.156133,-5.47717,-7.077969,12.39,7.63,-22.190001,1729430941274.0,0.0
-3.089134,-5.295317,-7.068398,-4.9,1.82,-17.08,1729430941293.0,0.0
-2.639283,-5.647062,-7.558927,-19.32,-4.76,-12.88,1729430941315.0,0.0
-2.586641,-5.816952,-7.989635,-18.76,-2.87,-10.36,1729430941335.0,0.0
-2.708675,-5.513064,-8.087741,-4.41,0.28,-8.47,1729430941359.0,0.0
-2.840281,-4.957928,-7.972885,1.19,1.68,-6.16,1729430941377.0,0.0
-2.677568,-5.209175,-8.147561,-4.76,0.42,-4.48,1729430941396.0,0.0
-2.404787,-5.201996,-8.054241,-6.58,0.42,-2.45,1729430941417.0,0.0
-2.706282,-5.35753,-7.724032,7.0,3.15,-1.26,1729430941538.0,0.0
-3.012564,-5.709275,-7.721639,0.84,3.64,-2.73,1729430941546.0,0.0
-3.038885,-5.563312,-7.300502,-9.45,1.33,-4.27,1729430941548.0,0.0
-2.868994,-5.87438,-7.379465,-12.67,-1.75,-5.11,1729430941550.0,0.0
-2.715853,-5.788238,-7.65464,-10.85,-3.43,-6.23,1729430941551.0,0.0
-2.689533,-5.723632,-7.762317,-9.38,-4.76,-5.46,1729430941561.0,0.0
-2.624927,-5.881558,-8.037491,-16.66,-5.32,-7.14,1729430941562.0,0.0
-2.723032,-5.843273,-7.702496,-21.42,-4.69,-7.84,1729430941580.0,0.0
-2.835495,-5.848059,-7.575676,-22.960001,-4.69,-8.82,1729430941595.0,0.0
-2.868994,-5.864808,-7.910671,-19.809999,-5.25,-8.61,1729430941619.0,0.0
-2.876173,-5.843273,-8.238488,-6.79,-5.39,-7.63,1729430941634.0,0.0
-3.010171,-5.474778,-8.748159,-0.49,-3.64,-7.07,1729430941656.0,0.0
-3.220739,-5.297709,-8.446664,-11.41,1.47,-6.65,1729430941675.0,0.0
-3.254239,-5.895915,-8.721838,-18.969999,4.06,-4.83,1729430941694.0,0.0
-3.024528,-5.558527,-8.362915,-16.1,7.42,-6.79,1729430941714.0,0.0
-2.900101,-5.290531,-8.082954,-2.66,11.41,-7.84,1729430941735.0,0.0
-2.914458,-5.029713,-7.377072,10.5,7.84,-5.46,1729430941757.0,0.0
-2.660819,-4.572684,-8.020741,5.25,3.78,-3.92,1729430941774.0,0.0
-2.591427,-4.419543,-8.733803,-2.59,3.22,-0.56,1729430941795.0,0.0
-2.40718,-4.13719,-8.614161,-3.92,4.83,3.85,1729430941814.0,0.0
-2.242075,-3.739982,-7.953743,-6.72,4.97,8.54,1729430941834.0,0.0
-2.218147,-4.749753,-8.408379,-18.83,4.41,9.24,1729430941856.0,0.0
-2.495714,-5.56092,-8.456236,-34.650002,5.88,6.37,1729430941874.0,0.0
-2.24686,-5.862415,-8.422735,-37.170002,6.09,-0.98,1729430941894.0,0.0
-2.294717,-6.314659,-8.477771,-17.780001,6.16,-7.28,1729430941914.0,0.0
-2.244468,-6.312266,-8.504091,7.98,7.63,-16.940001,1729430941934.0,0.0
-2.397608,-5.596812,-7.097112,15.89,5.46,-23.309999,1729430941955.0,0.0
-3.132205,-4.82393,-6.905686,4.13,0.56,-28.0,1729430941975.0,0.0
-3.426522,-5.283352,-7.13779,-9.31,-5.18,-28.700001,1729430941994.0,0.0
-2.912065,-5.225924,-7.422535,-6.51,-11.9,-22.610001,1729430942014.0,0.0
-2.40718,-4.273581,-8.082954,8.61,-13.65,-15.33,1729430942034.0,0.0
-1.636691,-3.615555,-8.159525,17.92,-17.08,-6.09,1729430942058.0,0.0
-1.227518,-3.95055,-9.250652,9.03,-20.440001,2.38,1729430942074.0,0.0
-3.125026,-4.472186,-7.874779,-17.99,-13.58,8.61,1729430942095.0,0.0
-3.694518,-4.577469,-7.594819,-45.009998,-14.49,1.82,1729430942114.0,0.0
-3.180061,-5.79781,-9.102298,-107.800003,-22.82,-0.98,1729430942134.0,0.0
-2.242075,-6.565905,-11.353944,-113.470001,-21.91,-9.45,1729430942156.0,0.0
-1.988436,-5.438886,-12.674782,-24.43,-7.56,-7.84,1729430942175.0,0.0
-2.598605,-4.661219,-10.624132,78.470001,14.28,-2.24,1729430942194.0,0.0
-2.775674,-3.986443,-5.977271,86.169998,25.48,-3.08,1729430942214.0,0.0
-3.086741,-4.926822,-7.77428,29.26,13.86,-7.77,1729430942235.0,0.0
-3.352344,-4.768896,-7.042077,-35.98,12.74,-11.76,1729430942257.0,0.0
-2.725425,-5.123034,-8.327023,-26.530001,2.52,-12.81,1729430942275.0,0.0
-2.885744,-4.003192,-8.853443,24.99,8.54,-6.51,1729430942295.0,0.0
-1.674976,-3.598805,-8.087741,57.400002,6.72,-7.0,1729430942316.0,0.0
-0.87338,-3.646662,-7.195218,38.779999,0.91,-3.36,1729430942336.0,0.0
-0.346959,-3.646662,-7.223931,20.93,-8.96,1.05,1729430942357.0,0.0
-1.136591,-3.663411,-7.767102,-8.82,-12.11,5.95,1729430942376.0,0.0
-3.797409,-5.120641,-7.62114,-59.779999,-12.95,10.57,1729430942395.0,0.0
-3.546163,-6.113662,-10.444671,-129.850006,-19.389999,10.57,1729430942414.0,0.0
-2.864209,-6.331409,-11.320443,-106.75,-10.92,-6.09,1729430942435.0,0.0
-2.787638,-5.345565,-11.490334,18.059999,5.18,-1.26,1729430942457.0,0.0
-3.07717,-4.06062,-8.848659,91.910004,21.49,1.54,1729430942477.0,0.0
-3.201597,-4.168297,-5.740381,68.18,20.23,-0.98,1729430942495.0,0.0
-3.479164,-4.625326,-7.369894,19.460001,13.37,-4.76,1729430942515.0,0.0
-3.115455,-4.852644,-7.728817,-13.65,3.99,-3.15,1729430942534.0,0.0
-3.5007,-4.488935,-8.202596,2.1,6.3,-2.59,1729430942557.0,0.0
-2.730211,-3.723232,-8.178668,45.779999,5.25,-1.05,1729430942576.0,0.0
-1.349552,-3.407379,-7.664211,62.23,1.05,1.19,1729430942595.0,0.0
-0.9667,-2.67039,-7.913064,30.380001,-6.3,2.38,1729430942615.0,0.0
-0.490529,-3.385844,-8.666803,3.78,-15.4,9.8,1729430942643.0,0.0
-2.103291,-4.091727,-8.602197,-38.150002,-14.42,14.21,1729430942658.0,0.0
-4.07737,-5.627919,-8.77448,-71.330002,-12.74,14.63,1729430942675.0,0.0
-4.295116,-6.893722,-8.930015,-109.760002,-17.360001,3.92,1729430942695.0,0.0
-3.256632,-6.881758,-10.609775,-105.629997,-18.48,-4.27,1729430942714.0,0.0
-2.976671,-5.843273,-11.655439,-3.22,-8.68,-1.75,1729430942734.0,0.0
-3.677768,-4.144369,-7.365108,97.790001,11.97,1.05,1729430942757.0,0.0
-3.359523,-4.792823,-7.456036,43.959999,8.68,-4.34,1729430942777.0,0.0
-3.065206,-4.912465,-7.74796,-8.82,4.76,-9.8,1729430942796.0,0.0
-2.646462,-4.790431,-8.733803,-2.38,2.8,-11.69,1729430942816.0,0.0
-2.11047,-4.371687,-8.312666,39.200001,7.28,-8.89,1729430942837.0,0.0
-1.957329,-2.909672,-7.683353,70.840004,7.7,-7.42,1729430942859.0,0.0
-1.804188,-3.273381,-6.553941,59.43,3.78,-8.96,1729430942878.0,0.0
-1.339981,-3.103491,-6.173482,25.200001,-9.66,-4.34,1729430942894.0,0.0
-0.777667,-2.785245,-7.345965,10.99,-22.190001,4.69,1729430942916.0,0.0
-2.603391,-3.460021,-6.319445,-13.37,-23.59,14.21,1729430942942.0,0.0
-4.316652,-4.642076,-8.568698,-60.130001,-28.07,13.16,1729430942959.0,0.0
-4.261617,-5.551349,-9.341579,-117.669998,-33.810001,12.74,1729430942977.0,0.0
-3.555735,-5.953342,-9.954143,-88.900002,-29.82,7.42,1729430942996.0,0.0
-3.732803,-5.125426,-10.537991,21.210001,-16.379999,10.15,1729430943015.0,0.0
-4.398008,-4.773681,-10.262815,85.959999,-0.07,9.73,1729430943035.0,0.0
-4.486543,-3.828516,-6.929615,62.580002,9.59,4.41,1729430943060.0,0.0
-3.998406,-4.936393,-8.10449,15.05,7.0,-3.5,1729430943076.0,0.0
-2.364109,-4.642076,-9.336794,-33.880001,3.92,-4.41,1729430943095.0,0.0
-2.991028,-4.498507,-7.628319,34.439999,12.32,9.24,1729430943115.0,0.0
-3.122634,-4.141976,-5.56092,84.0,14.91,4.06,1729430943135.0,0.0
-2.524428,-4.058227,-5.300103,46.830002,3.01,3.92,1729430943157.0,0.0
-1.241875,-3.366701,-6.664011,10.71,-15.12,6.65,1729430943176.0,0.0
-0.679562,-2.713461,-8.142776,8.54,-25.129999,15.82,1729430943196.0,0.0
-3.302095,-3.349952,-7.798209,-18.76,-24.85,28.07,1729430943216.0,0.0
-4.627719,-4.534399,-9.638289,-64.959999,-27.860001,23.17,1729430943236.0,0.0
-4.843073,-5.678168,-10.736595,-125.650002,-29.190001,21.559999,1729430943260.0,0.0
-4.517649,-6.608976,-11.179268,-90.860001,-19.110001,12.53,1729430943278.0,0.0
-4.845466,-5.398208,-11.069198,17.360001,1.19,12.18,1729430943297.0,0.0
-5.046463,-4.835894,-9.425328,72.379997,17.08,9.38,1729430943316.0,0.0
-4.386044,-4.228118,-6.778866,46.900002,17.290001,3.64,1729430943336.0,0.0
-4.419543,-4.797609,-6.817152,2.31,11.97,-5.04,1729430943362.0,0.0
-4.156333,-5.132604,-7.365108,-11.62,3.01,-3.43,1729430943378.0,0.0
-4.158726,-4.804788,-6.309873,20.16,3.5,0.84,1729430943397.0,0.0
-4.39083,-4.37408,-5.063213,67.550003,0.84,4.27,1729430943418.0,0.0
-3.909872,-4.476971,-4.029513,65.800003,-8.82,4.34,1729430943438.0,0.0
-2.490928,-4.328616,-5.663811,28.210001,-31.85,7.07,1729430943461.0,0.0
-2.892922,-4.752146,-7.822137,-10.22,-43.68,7.42,1729430943478.0,0.0
-5.185246,-4.455436,-8.961121,-60.200001,-45.990002,9.87,1729430943497.0,0.0
-5.448457,-6.056234,-11.229517,-87.360001,-45.220001,5.04,1729430943517.0,0.0
-4.886144,-6.970293,-11.140982,-73.779999,-34.02,2.31,1729430943537.0,0.0
-4.945964,-5.91745,-10.126426,-12.74,-13.65,-8.68,1729430943558.0,0.0
-5.304887,-5.034499,-10.109675,28.559999,1.19,-13.02,1729430943576.0,0.0
-4.98425,-5.4676,-9.202796,40.740002,11.41,-15.33,1729430943598.0,0.0
-4.510471,-4.565506,-6.678369,38.360001,18.969999,-21.700001,1729430943616.0,0.0
-4.802395,-4.902894,-5.656632,39.060001,12.88,-19.950001,1729430943643.0,0.0
-4.567898,-4.771288,-6.812366,16.17,13.02,-24.08,1729430943663.0,0.0
-3.737589,-4.065405,-6.941578,-1.68,5.39,-21.700001,1729430943676.0,0.0
-3.625126,-3.905087,-6.192625,37.099998,3.22,-11.13,1729430943696.0,0.0
-3.306881,-3.761517,-5.895915,40.529999,-1.82,-9.03,1729430943716.0,0.0
-2.883351,-4.441079,-6.575477,15.96,-13.3,-7.7,1729430943736.0,0.0
-2.175076,-4.369294,-7.310073,16.799999,-22.75,-3.36,1729430943758.0,0.0
-2.402394,-3.821337,-7.805387,27.860001,-29.33,2.31,1729430943776.0,0.0
-5.163712,-3.871587,-7.465607,-3.43,-25.129999,8.19,1729430943795.0,0.0
-5.17089,-4.216154,-9.135797,-59.360001,-28.559999,0.56,1729430943816.0,0.0
-4.773681,-5.536992,-10.755738,-140.139999,-26.6,2.17,1729430943836.0,0.0
-3.795017,-7.276574,-11.322837,-102.129997,-12.32,-2.8,1729430943858.0,0.0
-3.921836,-5.9677,-9.533006,22.26,10.5,-2.31,1729430943876.0,0.0
-4.845466,-4.342973,-8.324631,77.699997,24.85,-7.7,1729430943896.0,0.0
-4.744967,-4.474578,-5.338387,44.66,23.030001,-10.71,1729430943915.0,0.0
-4.898108,-5.230711,-7.21436,5.6,12.6,-15.05,1729430943935.0,0.0
-5.072784,-5.795416,-8.501699,-13.93,21.629999,-17.08,1729430943959.0,0.0
-3.677768,-5.201996,-8.073383,-11.55,17.01,-14.7,1729430943976.0,0.0
-4.287938,-3.45045,-6.821937,33.389999,23.24,-0.91,1729430943996.0,0.0
-4.228118,-2.847459,-4.603791,67.129997,18.129999,8.4,1729430944016.0,0.0
-3.486342,-4.704289,-4.733003,20.51,1.82,9.66,1729430944036.0,0.0
-2.634498,-5.505885,-5.211568,1.19,-16.73,9.03,1729430944061.0,0.0
-1.842474,-3.845266,-7.171289,17.99,-33.529999,9.94,1729430944079.0,0.0
-2.9671,-3.574877,-10.016356,-7.56,-34.509998,13.58,1729430944100.0,0.0
-6.254838,-5.350351,-9.186047,-94.849998,-27.16,14.7,1729430944116.0,0.0
-5.694918,-6.920043,-10.595419,-126.209999,-23.309999,6.51,1729430944137.0,0.0
-4.759324,-7.477571,-10.188639,-99.889999,-14.91,5.95,1729430944160.0,0.0
-4.577469,-6.845865,-9.824929,-21.98,5.32,-0.7,1729430944177.0,0.0
-4.733003,-5.190032,-9.334401,34.720001,16.379999,-1.89,1729430944197.0,0.0
-4.922036,-5.225924,-8.578269,56.700001,23.24,0.56,1729430944216.0,0.0
-4.783253,-4.579862,-6.051448,66.5,26.67,-2.45,1729430944236.0,0.0
-5.283352,-4.462614,-5.778666,67.199997,19.389999,2.87,1729430944261.0,0.0
-5.491528,-4.39083,-6.144768,38.220001,19.6,-2.8,1729430944278.0,0.0
-4.646862,-4.699504,-6.910471,7.56,13.79,-3.15,1729430944296.0,0.0
-4.378866,-3.333202,-6.226124,31.43,12.32,6.23,1729430944317.0,0.0
-3.254239,-3.400201,-5.235496,80.919998,15.05,6.93,1729430944336.0,0.0
-2.151148,-3.242275,-5.563312,58.029999,2.8,16.309999,1729430944358.0,0.0
-1.928615,-3.979264,-7.178468,11.83,-14.14,23.030001,1729430944377.0,0.0
-3.60359,-4.508078,-7.235896,-22.960001,-22.960001,26.67,1729430944396.0,0.0
-5.60399,-5.06082,-8.142776,-48.509998,-24.43,26.18,1729430944417.0,0.0
-6.099305,-5.319244,-9.805787,-119.419998,-25.059999,13.37,1729430944437.0,0.0
-5.123034,-7.396214,-11.88515,-148.330002,-19.32,9.38,1729430944459.0,0.0
-4.378866,-7.800602,-11.617154,-43.610001,-0.56,5.67,1729430944476.0,0.0
-5.123034,-5.785845,-9.683753,72.940002,28.630001,3.22,1729430944496.0,0.0
-5.355137,-4.570292,-6.817152,80.43,37.029999,-0.98,1729430944516.0,0.0
-4.85743,-4.084548,-4.912465,35.98,26.25,1.05,1729430944536.0,0.0
-5.381458,-4.709075,-5.814559,15.96,21.210001,-2.94,1729430944561.0,0.0
-5.455636,-5.115855,-6.518049,-1.33,17.5,3.08,1729430944577.0,0.0
-4.965107,-5.051248,-6.771688,7.28,14.56,1.54,1729430944596.0,0.0
-4.522435,-4.41715,-5.910272,38.990002,16.799999,5.53,1729430944617.0,0.0
-3.433701,-4.287938,-5.446064,50.959999,9.66,3.99,1729430944637.0,0.0
-2.447858,-4.34058,-6.494121,23.030001,-3.15,3.01,1729430944659.0,0.0
-3.196811,-4.989035,-7.142576,-2.8,-15.68,3.01,1729430944677.0,0.0
-5.814559,-4.972286,-6.635297,-41.23,-21.0,1.54,1729430944696.0,0.0
-6.022735,-5.075177,-9.286544,-97.720001,-27.51,-9.87,1729430944716.0,0.0
-5.163712,-6.752545,-11.272588,-131.949997,-24.43,-11.06,1729430944736.0,0.0
-4.54397,-6.831509,-10.583455,-58.099998,-4.48,-11.9,1729430944758.0,0.0
-5.003392,-4.864608,-10.068997,45.150002,17.360001,-6.02,1729430944778.0,0.0
-5.111069,-3.945765,-8.690732,79.730003,29.190001,-3.36,1729430944797.0,0.0
-4.666004,-4.469792,-6.329016,57.260002,32.549999,-4.62,1729430944816.0,0.0
-4.130012,-3.206382,-4.785645,17.639999,23.870001,-3.15,1729430944836.0,0.0
-4.558327,-3.59402,-5.481956,7.07,15.68,-6.3,1729430944859.0,0.0
-4.606184,-4.029513,-6.970293,3.08,10.43,-6.3,1729430944876.0,0.0
-4.498507,-4.352544,-7.21436,15.12,10.15,2.31,1729430944896.0,0.0
-3.912265,-4.335794,-6.927221,28.84,13.58,-1.19,1729430944916.0,0.0
-3.014957,-4.331009,-7.01097,19.25,7.42,-3.22,1729430944936.0,0.0
-2.816352,-4.311867,-6.594619,1.47,-4.9,-2.59,1729430944958.0,0.0
-4.383651,-4.316652,-5.659025,-24.01,-16.940001,-5.11,1729430944976.0,0.0
-4.570292,-4.862216,-8.767302,-66.989998,-26.460001,-7.91,1729430944996.0,0.0
-4.438686,-6.537192,-11.729616,-120.400002,-27.719999,-10.08,1729430945016.0,0.0
-4.335794,-6.192625,-10.200603,-47.599998,-0.91,-8.54,1729430945036.0,0.0
-4.768896,-4.855037,-9.650253,25.48,14.91,-5.46,1729430945061.0,0.0
-4.838287,-4.673182,-9.444471,36.540001,24.780001,-6.02,1729430945076.0,0.0
-4.445865,-4.905287,-7.743174,27.23,30.1,-8.4,1729430945096.0,0.0
-4.12044,-3.945765,-5.424529,20.370001,28.630001,-12.6,1729430945117.0,0.0
-4.498507,-4.582255,-6.185446,10.71,17.85,-12.39,1729430945135.0,0.0
-4.785645,-4.299902,-6.759724,5.88,13.23,-11.83,1729430945160.0,0.0
-4.898108,-4.307081,-6.9679,10.85,11.76,-11.97,1729430945176.0,0.0
-4.180261,-4.498507,-6.568298,13.3,10.5,-12.6,1729430945196.0,0.0
-2.919244,-4.331009,-6.070591,14.35,1.54,-13.93,1729430945216.0,0.0
-3.005385,-4.515256,-5.063213,7.21,-12.53,-9.1,1729430945236.0,0.0
-4.398008,-4.498507,-5.178068,-6.37,-26.880001,-8.47,1729430945257.0,0.0
-4.443472,-4.051049,-8.606983,-51.450001,-38.360001,-12.67,1729430945276.0,0.0
-4.158726,-4.625326,-12.026326,-118.580002,-39.900002,-7.28,1729430945296.0,0.0
-3.84048,-6.020342,-12.349358,-87.989998,-23.17,-6.02,1729430945316.0,0.0
-3.625126,-4.656433,-10.966305,7.35,2.1,-4.55,1729430945335.0,0.0
-4.055835,-4.252046,-11.038091,55.23,24.15,1.26,1729430945357.0,0.0
-3.979264,-4.974678,-8.80798,55.09,38.43,0.42,1729430945376.0,0.0
-3.696911,-3.002992,-4.644469,42.77,38.009998,-1.05,1729430945396.0,0.0
-4.362115,-4.182654,-4.780859,29.33,24.43,-4.34,1729430945416.0,0.0
-5.166104,-4.048656,-5.711668,-1.61,16.1,-1.26,1729430945436.0,0.0
-4.630112,-4.486543,-7.111469,4.41,5.25,0.35,1729430945460.0,0.0
-3.735196,-4.914857,-7.532606,14.7,7.14,0.77,1729430945476.0,0.0
-2.85703,-4.429115,-6.458229,19.67,0.56,3.43,1729430945496.0,0.0
-3.431308,-4.292724,-5.62074,19.460001,-8.68,5.53,1729430945516.0,0.0
-3.663411,-4.644469,-6.537192,-2.1,-20.58,6.79,1729430945535.0,0.0
-3.598805,-4.735396,-9.142976,-53.760002,-31.85,5.53,1729430945558.0,0.0
-3.823731,-5.443672,-11.849257,-93.169998,-26.809999,2.87,1729430945576.0,0.0
-3.737589,-6.159126,-11.267801,-65.800003,-11.48,3.71,1729430945596.0,0.0
-3.795017,-4.881358,-10.899307,6.02,7.84,2.73,1729430945616.0,0.0
-4.058227,-4.321437,-10.083356,62.439999,21.629999,6.65,1729430945636.0,0.0
-4.376472,-4.721039,-8.645268,55.790001,32.27,6.58,1729430945657.0,0.0
-4.182654,-5.228317,-8.279166,32.41,33.599998,3.01,1729430945676.0,0.0
-4.67079,-5.836094,-8.618947,54.810001,37.939999,2.45,1729430945696.0,0.0
-5.067998,-6.065805,-8.221739,93.239998,48.369999,-2.45,1729430945769.0,0.0
-4.833502,-5.395815,-7.738388,103.669998,51.170002,-7.42,1729430945769.0,0.0
-4.280759,-5.982057,-8.585447,100.800003,46.759998,-3.78,1729430945770.0,0.0
-3.842873,-6.329016,-8.896514,147.490005,46.970001,5.88,1729430945784.0,0.0
-3.448057,-6.262017,-8.609376,250.110001,53.760002,18.690001,1729430945795.0,0.0
-3.275774,-6.845865,-8.279166,346.709991,60.549999,30.73,1729430945816.0,0.0
-3.268596,-6.072984,-6.577869,409.220001,55.93,39.130001,1729430945836.0,0.0
-3.050849,-6.431907,-4.347759,467.809998,34.439999,50.119999,1729430945858.0,0.0
-1.514657,-6.21416,-3.601198,512.609985,16.59,35.77,1729430945876.0,0.0
-1.17009,-5.898308,-2.629712,516.25,40.880001,19.6,1729430945895.0,0.0
-3.481557,-7.133004,1.658226,466.970001,82.32,18.83,1729430945916.0,0.0
-5.419744,-8.458629,4.445865,345.170013,85.190002,5.32,1729430945936.0,0.0
-5.24746,-8.678767,3.381058,153.509995,53.900002,-25.48,1729430945957.0,0.0
-5.333601,-8.26481,10.432706,79.099998,-29.960001,12.04,1729430945976.0,0.0
-2.909672,-8.941978,6.640083,13.72,-56.84,-12.67,1729430945996.0,0.0
-3.072384,-9.250652,-0.579063,-62.23,19.74,-58.799999,1729430946015.0,0.0
-1.998007,-8.425128,1.122234,41.580002,-34.650002,-9.24,1729430946035.0,0.0
-0.040678,-5.532206,1.718047,122.43,-1.05,-5.81,1729430946061.0,0.0
-1.392623,-3.443272,3.536592,157.009995,30.940001,13.02,1729430946076.0,0.0
-2.768496,-4.012764,6.082555,127.82,14.0,39.34,1729430946095.0,0.0
-2.821138,-5.008178,5.635098,21.139999,-4.83,46.619999,1729430946116.0,0.0
-3.479164,-6.032306,3.814159,-32.619999,-22.540001,64.540001,1729430946135.0,0.0
-4.45065,-9.918249,4.070191,4.83,-26.460001,61.950001,1729430946157.0,0.0
-7.233503,-12.413965,6.013163,-4.97,-17.43,47.459999,1729430946176.0,0.0
-8.338986,-10.578669,4.091727,-77.489998,-12.46,46.549999,1729430946195.0,0.0
-6.675975,-12.033505,2.182254,-102.690002,-23.309999,11.41,1729430946216.0,0.0
-5.352744,-13.919049,-0.696311,-81.410004,-24.639999,-13.79,1729430946235.0,0.0
-4.180261,-12.715459,-1.526621,-15.12,4.76,-23.17,1729430946257.0,0.0
-4.240082,-11.133803,-0.26321,20.02,29.26,-33.040001,1729430946276.0,0.0
-4.110869,-9.853643,0.614955,-10.57,28.700001,-51.240002,1729430946295.0,0.0
-2.897708,-9.348758,0.136391,-64.75,23.309999,-68.32,1729430946315.0,0.0
-2.019542,-8.169096,-0.799203,-104.160004,25.27,-76.510002,1729430946335.0,0.0
-0.662812,-4.481757,4.409972,-39.830002,-2.17,-28.35,1729430946358.0,0.0
0.217747,-0.885344,5.029713,99.889999,-1.47,-16.379999,1729430946375.0,0.0
-2.660819,-0.301496,7.15454,88.269997,31.92,21.629999,1729430946395.0,0.0
-4.271189,-1.045663,6.18784,-32.830002,-2.8,55.369999,1729430946415.0,0.0
-3.507878,-5.032106,2.854637,-156.309998,-58.66,72.449997,1729430946435.0,0.0
-5.115855,-11.688939,2.354537,-109.199997,-65.169998,98.0,1729430946459.0,0.0
-5.757132,-13.78266,1.217947,75.040001,-45.920002,79.449997,1729430946476.0,0.0
-8.29113,-8.776874,3.213561,125.160004,23.940001,89.459999,1729430946495.0,0.0
-10.061819,-9.092726,0.480957,10.64,43.330002,77.349998,1729430946515.0,0.0
-9.284152,-14.325829,-2.634498,-78.82,27.370001,4.83,1729430946535.0,0.0
-7.056434,-17.91267,-2.201397,-46.060001,-11.62,-41.860001,1729430946558.0,0.0
-3.053242,-14.330614,0.614955,47.040001,1.05,-35.91,1729430946576.0,0.0
-2.378466,-10.772489,1.844866,51.59,41.299999,-64.260002,1729430946595.0,0.0
-3.237489,-11.25823,0.98345,-1.68,39.34,-96.669998,1729430946615.0,0.0
-2.321038,-10.595419,0.847059,-39.619999,18.690001,-104.860001,1729430946636.0,0.0
-0.880559,-6.175875,3.354738,-9.8,2.38,-89.529999,1729430946660.0,0.0
1.071985,2.486143,7.348359,132.789993,-20.65,-39.970001,1729430946676.0,0.0
-0.835095,4.122833,8.836694,194.110001,39.689999,18.48,1729430946695.0,0.0
-3.919443,3.60359,9.848858,3.85,32.34,74.900002,1729430946715.0,0.0
-6.288338,-1.277767,5.998806,-249.619995,-42.279999,104.720001,1729430946735.0,0.0
-7.125826,-9.209974,-0.861416,-338.799988,-100.730003,106.260002,1729430946760.0,0.0
-8.090133,-19.944178,-3.515057,-186.830002,-108.57,62.510002,1729430946775.0,0.0
-9.487542,-16.816757,-5.194818,-1.82,-32.549999,67.970001,1729430946796.0,0.0
-9.286544,-11.813366,-2.349752,158.130005,20.65,52.009998,1729430946817.0,0.0
-8.736196,-11.085947,-0.122034,150.919998,60.27,-8.26,1729430946836.0,0.0
-6.805188,-12.351749,1.447658,22.82,32.830002,-59.849998,1729430946857.0,0.0
-3.127419,-12.557532,2.517249,-17.92,-34.439999,-60.130001,1729430946875.0,0.0
-2.136791,-11.480762,1.820938,-27.58,24.43,-76.370003,1729430946896.0,0.0
-2.622534,-10.908878,-2.342573,-69.580002,60.27,-113.260002,1729430946915.0,0.0
-3.20399,-10.660025,-2.785245,-79.309998,42.560001,-102.340004,1729430946935.0,0.0
-0.535992,-5.233103,6.204589,85.82,-34.860001,-67.340004,1729430946958.0,0.0
1.744368,3.007778,6.903293,238.910004,14.84,-11.27,1729430946976.0,0.0
-1.083949,4.106083,7.984849,178.570007,70.0,-3.43,1729430946994.0,0.0
-4.613362,-1.428515,3.048456,-52.220001,14.84,61.599998,1729430947015.0,0.0
-4.780859,-9.23151,-0.129212,-235.690002,-69.860001,85.260002,1729430947035.0,0.0
-5.410172,-15.96252,3.905087,-29.120001,-84.0,74.129997,1729430947062.0,0.0
-8.714661,-13.349558,3.428915,127.120003,-2.8,80.989998,1729430947075.0,0.0
-9.779467,-9.643075,1.134198,110.739998,21.98,77.419998,1729430947094.0,0.0
-8.274381,-10.746166,-0.430708,24.5,0.35,23.17,1729430947115.0,0.0
-7.286145,-13.739587,-0.114855,-12.04,19.040001,-16.379999,1729430947136.0,0.0
-5.525027,-13.75873,1.643869,5.18,13.09,-44.380001,1729430947156.0,0.0
-2.490928,-11.408978,3.436093,68.18,10.64,-44.799999,1729430947175.0,0.0
-2.54357,-9.762716,3.220739,58.240002,44.59,-65.029999,1729430947196.0,0.0
-3.45045,-11.160125,1.782653,-47.25,41.580002,-86.940002,1729430947214.0,0.0
-2.335395,-11.964113,-1.521835,-136.220001,19.950001,-107.029999,1729430947234.0,0.0
-2.057827,-11.004591,0.090927,-57.889999,7.7,-97.860001,1729430947256.0,0.0
0.26321,-1.241875,7.566105,170.100006,-16.799999,-56.84,1729430947276.0,0.0
0.021535,4.902894,7.920243,252.279999,40.389999,-12.46,1729430947294.0,0.0
-2.76371,3.787838,8.611769,98.980003,43.75,6.44,1729430947315.0,0.0
-5.271388,-0.122034,5.613562,-161.699997,-12.81,51.66,1729430947334.0,0.0
-4.575077,-10.018748,-0.107677,-298.619995,-69.230003,73.989998,1729430947356.0,0.0
-5.32403,-16.622938,1.316052,-38.709999,-78.959999,64.400002,1729430947376.0,0.0
-7.769495,-15.493526,2.505285,129.850006,-15.26,67.620003,1729430947394.0,0.0
-9.341579,-12.490535,0.318245,79.169998,10.71,52.360001,1729430947416.0,0.0
-7.13779,-12.160326,-1.531406,13.09,-17.92,4.34,1729430947435.0,0.0
-5.821737,-12.16511,-1.009771,32.970001,18.549999,-26.32,1729430947456.0,0.0
-5.180461,-11.976077,1.847259,71.75,37.310001,-47.950001,1729430947475.0,0.0
-3.558127,-11.109876,2.718246,56.0,40.18,-65.870003,1729430947495.0,0.0
-2.194218,-10.121639,1.567299,-8.47,46.130001,-87.57,1729430947514.0,0.0
-1.921437,-9.997212,1.481157,-54.459999,36.610001,-96.389999,1729430947534.0,0.0
-0.366102,-5.498707,5.362316,21.559999,-19.18,-64.120003,1729430947557.0,0.0
1.227518,1.383051,6.494121,136.570007,13.65,-17.01,1729430947575.0,0.0
-0.835095,3.055635,6.98465,120.68,37.099998,-1.47,1729430947594.0,0.0
-4.151547,-0.820738,5.737988,-27.860001,7.7,47.459999,1729430947615.0,0.0
-4.742575,-5.340781,2.880959,-184.940002,-30.1,60.900002,1729430947635.0,0.0
-4.790431,-12.332609,4.541577,-103.879997,-78.540001,73.290001,1729430947656.0,0.0
-7.008578,-14.452648,4.295116,43.259998,-39.200001,71.610001,1729430947675.0,0.0
-8.628519,-14.02194,2.440679,-8.96,-8.68,41.23,1729430947695.0,0.0
-7.920243,-14.366508,-2.648855,-136.009995,-19.389999,0.42,1729430947714.0,0.0
-5.278566,-15.010178,-3.048456,-34.16,-15.12,-30.17,1729430947735.0,0.0
-4.579862,-11.10509,0.019143,147.0,57.330002,-49.0,1729430947756.0,0.0
-5.776274,-7.788638,3.586841,135.940002,94.5,-76.300003,1729430947775.0,0.0
-4.414758,-6.211767,3.007778,0.07,47.389999,-81.199997,1729430947796.0,0.0
-0.289532,-5.182854,5.570491,3.15,-31.780001,-61.529999,1729430947814.0,0.0
1.722832,0.141177,5.13739,105.0,17.780001,-25.27,1729430947835.0,0.0
0.337388,2.574677,6.443871,140.979996,45.990002,9.03,1729430947856.0,0.0
-3.292524,0.722632,6.845865,27.16,23.309999,63.490002,1729430947875.0,0.0
-4.225725,-3.888337,2.366502,-154.139999,-18.969999,66.989998,1729430947894.0,0.0
-6.271588,-11.63869,3.290131,-147.0,-78.120003,78.889999,1729430947915.0,0.0
-5.089533,-13.732409,4.553542,18.620001,-82.809998,72.800003,1729430947934.0,0.0
-8.13799,-12.162716,4.24726,115.360001,6.51,61.040001,1729430947956.0,0.0
-9.899107,-11.339586,3.407379,64.75,17.85,45.360001,1729430947982.0,0.0
-9.154939,-10.987842,0.760918,-35.0,15.33,-0.91,1729430947994.0,0.0
-7.879565,-12.483356,2.100898,-28.84,13.09,-32.200001,1729430948016.0,0.0
-3.541377,-10.301102,5.302495,93.309998,20.02,-53.060001,1729430948034.0,0.0
-2.837888,-8.372486,6.242875,52.920002,41.439999,-74.620003,1729430948060.0,0.0
-2.349752,-7.111469,1.864009,-123.480003,52.990002,-90.300003,1729430948076.0,0.0
-1.734797,-8.068598,-1.909473,-255.850006,18.620001,-91.139999,1729430948095.0,0.0
0.588634,-8.843873,2.981457,-87.919998,-73.43,-51.310001,1729430948115.0,0.0
2.26361,-0.014357,3.852444,191.660004,6.58,-2.03,1729430948134.0,0.0
-1.816152,4.125226,6.702296,268.100006,81.830002,11.27,1729430948159.0,0.0
-5.261817,2.512464,7.054041,80.849998,41.369999,79.730003,1729430948176.0,0.0
-5.666204,-4.438686,4.82393,-161.979996,-41.93,76.019997,1729430948195.0,0.0
-8.047063,-14.861821,5.436492,-162.259995,-101.080002,91.910004,1729430948215.0,0.0
-8.059027,-17.962919,5.453243,8.33,-75.809998,50.889999,1729430948235.0,0.0
-8.977871,-13.043276,1.136591,123.129997,14.07,43.610001,1729430948258.0,0.0
-7.953743,-8.465806,-0.485743,119.629997,29.26,17.710001,1729430948276.0,0.0
-8.470592,-9.839286,4.919643,12.53,49.420002,-10.64,1729430948295.0,0.0
-5.374279,-12.806387,2.352145,-64.050003,-3.36,-61.110001,1729430948315.0,0.0
-2.158326,-9.379865,5.314459,20.299999,1.54,-42.630001,1729430948334.0,0.0
-2.531606,-7.989635,4.539185,9.45,44.66,-72.309998,1729430948357.0,0.0
-2.404787,-9.425328,2.06022,-88.199997,20.370001,-77.489998,1729430948378.0,0.0
-1.421337,-10.021141,0.42353,-163.309998,-3.85,-86.449997,1729430948396.0,0.0
-0.095713,-9.683753,2.333002,-37.380001,-22.469999,-53.900002,1729430948416.0,0.0
-0.224925,-3.811767,4.393222,129.779999,21.77,-60.619999,1729430948436.0,0.0
-1.964507,1.789831,6.805188,178.570007,24.5,-18.27,1729430948460.0,0.0
-2.244468,2.261217,8.23131,104.019997,13.51,46.41,1729430948476.0,0.0
-3.912265,-1.600798,6.223732,-73.010002,0.56,44.52,1729430948496.0,0.0
-4.912465,-6.01077,2.782853,-162.399994,-53.27,76.580002,1729430948517.0,0.0
-5.783452,-11.428121,5.020142,-55.02,-57.889999,82.25,1729430948536.0,0.0
-8.329416,-12.811172,5.259424,44.869999,-27.09,71.75,1729430948560.0,0.0
-10.030712,-12.425928,5.355137,10.08,-5.53,49.349998,1729430948577.0,0.0
-8.487342,-12.382857,0.040678,-77.489998,-17.92,4.2,1729430948596.0,0.0
-5.893522,-13.316057,0.485743,-54.950001,-3.78,-25.129999,1729430948616.0,0.0
-4.443472,-11.75833,1.765903,25.34,33.810001,-52.779999,1729430948637.0,0.0
-2.921637,-10.411172,2.48375,20.58,38.5,-66.709999,1729430948658.0,0.0
-1.804188,-9.296116,1.103091,-32.130001,42.279999,-81.620003,1729430948676.0,0.0
-1.380659,-9.114261,1.526621,-54.670002,26.530001,-82.110001,1729430948700.0,0.0
-0.275175,-6.707082,3.404987,6.44,1.82,-66.290001,1729430948716.0,0.0
0.337388,-2.208575,5.343173,109.270004,5.11,-45.849998,1729430948737.0,0.0
-0.617348,1.954936,5.632704,157.850006,17.360001,-1.54,1729430948760.0,0.0
-1.818545,1.306481,6.762117,94.639999,18.129999,39.27,1729430948776.0,0.0
-4.548756,-2.115255,5.778666,-69.370003,-7.14,62.650002,1729430948796.0,0.0
-5.869594,-8.664411,5.190032,-119.139999,-64.959999,81.269997,1729430948817.0,0.0
-5.65424,-13.892728,4.084548,-9.87,-67.900002,73.989998,1729430948836.0,0.0
-7.125826,-12.660425,5.761917,105.629997,-10.15,70.840004,1729430948858.0,0.0
-9.480364,-11.492726,5.268995,28.0,17.01,46.619999,1729430948877.0,0.0
-9.133404,-11.949757,1.418944,-125.93,2.17,7.84,1729430948896.0,0.0
-7.159326,-13.658232,-1.225125,-147.350006,-9.87,-29.82,1729430948917.0,0.0
-4.168297,-13.878372,0.552742,-38.150002,7.56,-48.720001,1729430948936.0,0.0
-2.244468,-9.889536,4.328616,55.510002,37.450001,-63.700001,1729430948958.0,0.0
-1.691726,-7.9011,2.474179,-31.5,50.75,-94.43,1729430948977.0,0.0
-0.698704,-7.932207,2.124826,-86.029999,14.07,-80.639999,1729430948996.0,0.0
0.705883,-6.080163,3.656233,4.62,-20.93,-52.43,1729430949016.0,0.0
0.430708,-0.122034,4.804788,149.729996,11.97,-25.200001,1729430949039.0,0.0
-2.203789,2.0004,6.489335,163.869995,39.970001,6.44,1729430949060.0,0.0
-4.630112,0.325424,6.960721,27.299999,19.040001,50.330002,1729430949076.0,0.0
-4.23051,-4.182654,4.259224,-137.690002,-37.450001,60.549999,1729430949096.0,0.0
-4.242475,-9.401401,2.340181,-163.800003,-64.190002,79.660004,1729430949118.0,0.0
-5.970093,-13.222737,4.938786,-64.470001,-44.099998,84.840004,1729430949137.0,0.0
-7.893922,-12.279965,3.902694,-29.75,-17.01,67.900002,1729430949158.0,0.0
-8.506484,-14.086546,1.725225,-66.709999,-19.32,34.369999,1729430949176.0,0.0
-6.63769,-14.493326,-1.552942,-60.549999,-19.809999,1.26,1729430949195.0,0.0
-5.161318,-12.870994,-0.899701,10.92,14.0,-23.870001,1729430949216.0,0.0
-4.673182,-11.454442,0.705883,66.919998,36.68,-45.990002,1729430949236.0,0.0
-3.192025,-9.540184,1.945365,70.209999,44.240002,-60.689999,1729430949260.0,0.0
-1.65344,-7.927422,1.265803,11.34,44.52,-67.970001,1729430949278.0,0.0
-1.457229,-7.281359,3.041277,-46.689999,28.49,-51.310001,1729430949298.0,0.0
-0.138784,-2.940779,4.575077,57.260002,-3.99,-27.790001,1729430949316.0,0.0
-0.545564,0.270389,5.596812,117.040001,22.049999,-1.61,1729430949335.0,0.0
-3.321238,-1.287339,7.238289,79.309998,23.73,28.210001,1729430949359.0,0.0
-5.675776,-4.029513,6.159126,-60.130001,-5.53,49.560001,1729430949376.0,0.0
-4.706682,-7.743174,3.005385,-146.300003,-60.27,56.490002,1729430949396.0,0.0
-5.063213,-12.576675,2.813959,-73.57,-67.970001,65.660004,1729430949416.0,0.0
-6.269196,-14.287544,4.242475,71.959999,-36.82,50.470001,1729430949435.0,0.0
-8.128418,-12.081362,5.398208,104.019997,8.75,36.259998,1729430949457.0,0.0
-7.91785,-11.538191,2.416751,10.85,2.24,12.67,1729430949476.0,0.0
-5.201996,-13.03849,-0.311067,-23.17,-21.49,-17.08,1729430949495.0,0.0
-3.232704,-11.626726,0.227318,44.939999,13.79,-21.49,1729430949516.0,0.0
-3.395415,-8.764909,2.191825,97.510002,45.43,-41.09,1729430949536.0,0.0
-4.307081,-8.901299,3.512664,86.309998,40.950001,-56.139999,1729430949557.0,0.0
-2.89053,-9.131011,3.627519,31.639999,19.74,-71.75,1729430949576.0,0.0
-1.861616,-9.745967,2.380858,-21.700001,15.54,-79.660004,1729430949596.0,0.0
-1.689333,-8.606983,3.014957,-26.18,10.92,-76.300003,1729430949615.0,0.0
-1.215554,-2.029114,6.123233,76.370003,-0.63,-32.41,1729430949635.0,0.0
-2.208575,1.959722,7.491928,115.849998,20.23,5.04,1729430949658.0,0.0
-3.893122,1.51705,8.269595,44.099998,27.440001,36.119999,1729430949676.0,0.0
-5.340781,-2.672783,7.070791,-109.410004,-9.24,51.799999,1729430949696.0,0.0
-4.405186,-7.733603,3.802195,-195.720001,-59.990002,62.720001,1729430949716.0,0.0
-4.398008,-12.129218,1.251446,-136.149994,-55.02,72.940002,1729430949735.0,0.0
-5.240282,-12.796815,3.440879,23.799999,-26.32,80.360001,1729430949757.0,0.0
-7.075576,-11.162518,4.027121,85.330002,10.36,60.200001,1729430949777.0,0.0
-7.831708,-10.707881,2.701497,30.870001,15.26,40.389999,1729430949795.0,0.0
-7.140182,-10.430314,2.18704,-49.560001,10.85,15.96,1729430949816.0,0.0
-4.522435,-12.03829,0.557528,-59.57,-9.38,-19.32,1729430949836.0,0.0
-1.562513,-10.578669,1.832902,13.16,7.14,-15.05,1729430949857.0,0.0
-0.672383,-6.975078,2.825923,64.82,47.880001,-14.77,1729430949876.0,0.0
-2.289931,-4.541577,3.605984,13.16,82.459999,-10.85,1729430949896.0,0.0
-4.165904,-4.228118,5.855237,-108.5,44.799999,8.89,1729430949915.0,0.0
-3.854837,-5.812167,4.924429,-219.660004,-27.51,18.549999,1729430949935.0,0.0
-3.089134,-7.960921,3.160919,-217.210007,-52.009998,38.5,1729430949957.0,0.0
-4.692325,-7.171289,2.861816,-80.57,-30.380001,44.310001,1729430949976.0,0.0
-6.192625,-7.314859,3.122634,-32.970001,-29.82,42.700001,1729430949995.0,0.0
-7.501499,-9.396614,4.54397,-0.77,-41.23,56.84,1729430950022.0,0.0
-7.685746,-10.549955,1.100698,98.0,-46.689999,55.93,1729430950035.0,0.0
-6.376873,-9.243474,3.180061,216.300003,-31.08,31.219999,1729430950063.0,0.0
-7.106683,-6.575477,1.452443,276.920013,-11.27,29.049999,1729430950080.0,0.0
-5.869594,-6.242875,4.273581,267.329987,35.07,8.61,1729430950096.0,0.0
-5.07757,-7.156933,4.56072,171.919998,16.52,22.4,1729430950118.0,0.0
-4.266403,-8.77448,4.09412,124.529999,-17.15,18.83,1729430950136.0,0.0
-3.26381,-11.243874,4.752146,178.009995,-25.9,1.33,1729430950158.0,0.0
-3.491128,-12.473784,4.295116,249.550003,3.71,-22.75,1729430950177.0,0.0
-5.254639,-10.346564,4.934,281.890015,24.43,-41.650002,1729430950196.0,0.0
-4.960321,-6.479764,7.082755,280.839996,20.65,-35.279999,1729430950216.0,0.0
-4.41715,-4.962714,7.070791,279.51001,4.13,-55.09,1729430950236.0,0.0
-3.926622,1.299303,7.424929,284.76001,18.34,-50.119999,1729430950260.0,0.0
-7.537392,-2.148755,9.166903,207.339996,-6.72,-44.380001,1729430950276.0,0.0
-6.017949,-5.221139,6.496514,133.210007,-30.030001,-46.759998,1729430950297.0,0.0
-4.074977,-3.74716,5.843273,144.270004,-11.9,-45.5,1729430950318.0,0.0
-4.675575,-2.696711,9.279366,148.050003,-2.52,-54.950001,1729430950336.0,0.0
-6.324231,0.708275,9.420543,82.459999,-26.880001,-54.810001,1729430950360.0,0.0
-5.242674,5.795416,1.868794,182.0,-29.469999,24.92,1729430950378.0,0.0
-7.920243,2.500499,6.309873,219.729996,49.560001,-15.75,1729430950398.0,0.0
-3.570091,0.739382,3.546163,-38.709999,-14.35,2.73,1729430950418.0,0.0
-3.546163,1.282553,5.553742,-121.379997,32.41,12.74,1729430950439.0,0.0
-5.642276,-0.234497,8.585447,-203.419998,45.360001,40.950001,1729430950463.0,0.0
-5.929415,-1.952543,7.590034,-331.519989,32.200001,51.939999,1729430950478.0,0.0
-4.881358,-3.07717,7.252645,-437.98999,22.540001,65.730003,1729430950499.0,0.0
-4.938786,-4.601398,7.57089,-548.799988,18.9,72.169998,1729430950519.0,0.0
-5.730811,-5.489135,4.634897,-665.77002,24.5,67.830002,1729430950540.0,0.0
-6.12084,-7.700103,1.404587,-803.809998,-0.49,10.92,1729430950560.0,0.0
-5.702096,-9.719646,-4.12044,-798.630005,-24.290001,-8.12,1729430950579.0,0.0
-4.642076,-9.628718,-6.479764,-746.130005,2.52,-50.049999,1729430950598.0,0.0
-5.692525,-12.449856,-9.056834,-607.530029,61.040001,-54.389999,1729430950618.0,0.0
-6.482157,-12.457035,-7.45125,-427.279999,58.310001,-46.619999,1729430950637.0,0.0
-4.479364,-9.870394,-2.924029,-248.639999,5.81,-22.26,1729430950659.0,0.0
-3.661019,-7.668997,-1.471586,-109.690002,20.719999,-12.46,1729430950678.0,0.0
-5.120641,-8.784052,-2.902494,61.459999,21.98,-12.95,1729430950700.0,0.0
-5.965307,-10.49492,-3.919443,358.470001,3.64,5.74,1729430950772.0,0.0
-7.221539,-3.007778,-1.816152,682.710022,-5.25,30.799999,1729430950774.0,0.0
-8.992228,-10.229317,-6.343372,941.780029,-60.830002,91.699997,1729430950793.0,0.0
-7.133004,-10.456635,-4.862216,978.950012,-39.549999,-23.17,1729430950804.0,0.0
-5.534599,-8.635696,4.895715,851.130005,36.330002,-42.98,1729430950806.0,0.0
-2.141576,-5.982057,10.298709,544.25,15.82,-82.459999,1729430950818.0,0.0
-1.969293,-2.385644,6.338587,374.429993,-40.950001,-56.700001,1729430950839.0,0.0
-1.902294,2.043471,5.465207,362.809998,-0.84,-52.150002,1729430950872.0,0.0
-4.177868,4.429115,7.508677,292.529999,37.799999,-20.93,1729430950879.0,0.0
-5.197211,1.004985,6.82433,-37.240002,-2.8,28.35,1729430951116.0,0.0
-5.974878,-1.160519,6.02752,-262.290009,-6.3,49.07,1729430951119.0,0.0
-5.534599,-2.878566,6.046663,-422.029999,-6.23,57.959999,1729430951120.0,0.0
-5.113462,-3.428915,5.804988,-554.890015,7.42,63.420002,1729430951133.0,0.0
-6.678369,-6.422336,2.79721,-681.799988,-3.36,34.720001,1729430951133.0,0.0
-6.867401,-8.772088,-1.674976,-758.099976,-44.099998,0.42,1729430951133.0,0.0
-5.661418,-10.41835,-5.168497,-726.179993,-32.830002,-10.92,1729430951134.0,0.0
-4.445865,-9.815358,-6.106483,-643.859985,11.69,-48.439999,1729430951134.0,0.0
-5.601598,-9.657433,-6.570691,-512.960022,41.299999,-51.66,1729430951143.0,0.0
-6.855437,-7.054041,-4.185047,-362.809998,38.080002,-29.82,1729430951144.0,0.0
-5.257031,-7.893922,-4.56072,-184.589996,-1.26,-0.28,1729430951234.0,0.0
-5.005785,-11.24866,-3.675375,21.84,21.700001,10.08,1729430951235.0,0.0
-5.498707,-12.078968,-0.954736,310.589996,26.950001,15.47,1729430951238.0,0.0
-5.95095,-9.073583,-1.359123,591.5,-2.8,35.349998,1729430951239.0,0.0
-3.663411,-10.638489,-3.905087,800.309998,-34.650002,39.41,1729430951242.0,0.0
-2.605784,-7.846066,3.517449,794.01001,-13.51,-59.920002,1729430951244.0,0.0
-4.072584,-10.475778,7.489535,680.330017,14.77,-46.41,1729430951245.0,0.0
-3.962514,-5.845665,6.513263,502.809998,16.59,-79.940002,1729430951246.0,0.0
-3.275774,0.674776,5.012963,410.200012,15.190001,-43.470001,1729430951312.0,0.0
-3.443272,3.948158,4.922036,337.049988,39.060001,-30.59,1729430951313.0,0.0
-4.926822,3.799802,6.793223,167.229996,46.619999,-6.44,1729430951313.0,0.0
-6.431907,1.304088,7.436893,-111.230003,26.040001,22.26,1729430951322.0,0.0
-5.706882,0.598206,6.685547,-379.890015,4.13,54.599998,1729430951482.0,0.0
-5.166104,-1.117448,6.04427,-574.909973,6.09,80.080002,1729430951483.0,0.0
-6.685547,-6.132804,5.515456,-714.140015,-11.55,60.200001,1729430951483.0,0.0
-6.754939,-8.930015,-0.751346,-815.98999,-62.650002,3.64,1729430951484.0,0.0
-5.852845,-11.629118,-5.905487,-766.01001,-47.810001,-6.02,1729430951484.0,0.0
-4.091727,-9.083155,-8.377272,-657.789978,-4.41,-43.82,1729430951484.0,0.0
-4.888536,-9.229117,-8.391629,-500.640015,11.69,-36.68,1729430951484.0,0.0
-4.804788,-8.204988,-6.754939,-288.470001,27.51,-14.98,1729430951484.0,0.0
-4.579862,-10.482956,-4.321437,-72.099998,18.969999,17.290001,1729430951639.0,0.0
-4.31426,-11.136196,-1.048056,178.080002,20.719999,21.559999,1729430951640.0,0.0
-4.677969,-8.571091,1.859223,443.450012,16.17,19.389999,1729430951641.0,0.0
-5.982057,-6.415157,-0.614955,654.570007,-15.61,58.939999,1729430951643.0,0.0
-4.898108,-7.398607,-3.158526,777.210022,-40.459999,42.139999,1729430951649.0,0.0
-3.828516,-8.310273,0.600598,760.47998,-1.82,-37.59,1729430951650.0,0.0
-6.999006,-8.561519,6.396015,636.580017,40.32,-16.450001,1729430951650.0,0.0
-4.661219,-6.317052,6.953543,459.619995,21.91,-35.0,1729430951653.0,0.0
-4.321437,-4.771288,6.896115,330.119995,12.18,-39.060001,1729430951665.0,0.0
-4.211368,-1.806581,7.118648,256.410004,5.46,-23.450001,1729430951679.0,0.0
-3.641876,0.088534,8.599805,170.240005,27.23,-14.98,1729430951704.0,0.0
-6.175875,-0.165105,8.52802,-81.620003,38.709999,-9.59,1729430951726.0,0.0
-6.556334,-0.026321,8.276773,-403.829987,15.89,19.040001,1729430951738.0,0.0
-5.319244,-0.117248,6.513263,-647.289978,1.12,39.689999,1729430951776.0,0.0
-5.048856,-3.302095,2.861816,-802.409973,-29.610001,13.23,1729430951778.0,0.0
-5.328816,-8.853443,-4.634897,-840.77002,-70.769997,-10.15,1729430951798.0,0.0
-4.661219,-9.219545,-9.001799,-747.109985,-24.43,-46.060001,1729430951819.0,0.0
-5.601598,-9.489935,-11.358729,-573.580017,33.670002,-39.060001,1729430951838.0,0.0
-5.850451,-8.30788,-10.877771,-389.829987,32.48,-24.57,1729430951859.0,0.0
-4.565506,-8.592626,-6.18784,-204.680008,7.77,0.07,1729430951879.0,0.0
-3.505485,-8.109276,-4.500899,-41.580002,22.120001,11.48,1729430951898.0,0.0
-5.498707,-9.994821,-3.235096,195.440002,33.110001,20.51,1729430951918.0,0.0
-5.546563,-7.647461,-1.335195,474.459991,12.6,20.58,1729430951939.0,0.0
-6.379266,-4.859823,-0.689133,728.630005,-12.46,66.919998,1729430951959.0,0.0
-4.09412,-6.293124,-2.603391,885.220032,-58.450001,57.889999,1729430951978.0,0.0
-1.861616,-8.662018,-0.954736,841.119995,-35.98,-11.97,1729430951998.0,0.0
-7.030113,-12.004791,6.096912,657.369995,43.119999,-14.84,1729430952018.0,0.0
-6.659225,-8.202596,5.804988,442.26001,13.72,-30.1,1729430952038.0,0.0
-4.811966,-3.778267,6.872187,329.910004,5.81,-19.32,1729430952069.0,0.0
-3.5007,-0.569492,7.700103,286.299988,9.31,-23.73,1729430952078.0,0.0
-4.029513,1.438086,8.930015,186.619995,36.189999,-18.27,1729430952099.0,0.0
-6.711867,0.370888,8.207381,-80.919998,37.73,-8.47,1729430952118.0,0.0
-5.644669,-0.344566,6.750153,-381.850006,2.8,17.15,1729430952138.0,0.0
-5.144568,-2.165504,6.065805,-722.890015,-11.41,32.27,1729430952159.0,0.0
-5.773881,-3.744767,2.354537,-912.099976,-55.02,-5.32,1729430952179.0,0.0
-4.811966,-5.472386,-6.618547,-942.059998,-101.220001,-10.64,1729430952198.0,0.0
-4.926822,-6.82433,-8.829515,-841.049988,-58.799999,-28.210001,1729430952218.0,0.0
-6.486942,-8.573483,-15.694524,-629.859985,24.290001,-25.129999,1729430952240.0,0.0
-6.532406,-9.379865,-14.825929,-319.970001,25.34,-5.6,1729430952259.0,0.0
-4.575077,-9.262616,-9.994821,41.580002,5.6,46.34,1729430952280.0,0.0
-5.312066,-8.470592,-6.293124,324.799988,53.34,34.580002,1729430952298.0,0.0
-6.903293,-7.185646,1.107877,545.929993,68.809998,34.299999,1729430952319.0,0.0
-5.132604,-5.4676,1.849652,688.380005,-6.72,63.91,1729430952339.0,0.0
-2.9336,-6.235696,-2.24686,741.440002,-38.57,38.849998,1729430952361.0,0.0
-7.197611,-11.97847,2.055435,718.619995,4.48,-16.450001,1729430952457.0,0.0
-4.285545,-6.142376,6.56112,652.26001,-4.41,-51.099998,1729430952457.0,0.0
-3.412165,1.031307,8.085347,587.299988,-9.31,-33.810001,1729430952457.0,0.0
-4.953143,1.9669,7.432107,499.940002,45.5,-48.09,1729430952463.0,0.0
-5.611169,0.349352,7.79103,206.850006,18.34,-18.200001,1729430952529.0,0.0
-7.049256,-0.16989,7.695317,-169.399994,27.719999,4.13,1729430952531.0,0.0
-5.438886,0.382852,7.601997,-427.48999,6.09,40.880001,1729430952533.0,0.0
-4.862216,-5.4341,5.094319,-620.130005,5.39,55.23,1729430952858.0,0.0
-5.111069,-9.389436,0.282353,-778.049988,-21.84,26.809999,1729430952860.0,0.0
-4.553542,-8.006385,-5.120641,-858.549988,-67.690002,5.95,1729430952861.0,0.0
-5.759524,-6.568298,-10.516455,-853.369995,-71.050003,-29.26,1729430952861.0,0.0
-6.735795,-6.142376,-12.629318,-736.539978,-23.73,-41.369999,1729430952863.0,0.0
-7.240681,-6.223732,-11.291731,-569.799988,29.610001,-38.57,1729430952864.0,0.0
-5.642276,-8.042276,-5.534599,-365.049988,4.13,-13.16,1729430952868.0,0.0
-5.237889,-7.939385,-4.326223,-111.650002,1.12,33.040001,1729430952869.0,0.0
-5.536992,-9.030513,-6.142376,65.730003,27.370001,26.18,1729430952871.0,0.0
-5.237889,-8.60459,-2.545963,242.899994,42.139999,19.389999,1729430952872.0,0.0
-5.185246,-3.072384,0.275175,420.070007,32.200001,23.309999,1729430952873.0,0.0
-5.785845,-8.77448,-1.512264,539.559998,-4.55,33.740002,1729430952874.0,0.0
-5.343173,-11.196017,-3.292524,673.679993,-31.639999,64.540001,1729430952877.0,0.0
-5.331209,-9.437292,4.096512,764.960022,-27.440001,7.56,1729430952880.0,0.0
-5.601598,-3.349952,6.429514,768.320007,-9.31,-47.389999,1729430952881.0,0.0
-5.125426,1.801795,7.357929,633.01001,40.740002,-30.309999,1729430952885.0,0.0
-5.182854,0.870987,9.303294,446.950012,48.509998,-31.15,1729430952885.0,0.0
-6.094519,0.215354,8.209774,194.320007,34.439999,-12.25,1729430952899.0,0.0
-5.481956,1.875973,7.130611,-174.369995,28.700001,-17.219999,1729430952918.0,0.0
-4.182654,2.79721,2.17029,-471.029999,-0.42,28.77,1729430952937.0,0.0
-4.438686,-3.677768,-1.112662,-798.419983,-40.529999,23.940001,1729430952961.0,0.0
-5.493921,-10.226924,-3.448057,-860.789978,-76.720001,9.87,1729430952979.0,0.0
-5.702096,-10.205389,-6.111269,-806.400024,-61.18,-29.82,1729430952998.0,0.0
-7.188039,-10.851451,-12.988241,-600.880005,-6.86,-29.540001,1729430953018.0,0.0
-7.259824,-9.446864,-10.939985,-374.850006,-10.92,-19.32,1729430953038.0,0.0
-6.302694,-8.408379,-7.57089,-176.889999,-12.11,-5.39,1729430953068.0,0.0
-6.678369,-8.779266,-6.647261,-0.49,40.950001,11.06,1729430953082.0,0.0
-6.443871,-8.16431,-5.517848,132.300003,49.0,4.83,1729430953105.0,0.0
-6.597012,-9.322437,0.495314,290.850006,42.91,9.1,1729430953118.0,0.0
-5.608776,-6.058627,0.354138,418.809998,6.37,10.78,1729430953140.0,0.0
-4.890929,-11.660224,-2.792424,703.780029,-49.420002,32.970001,1729430953170.0,0.0
-4.096512,-13.136597,-7.618747,867.440002,-50.189999,-27.23,1729430953287.0,0.0
-6.025128,-9.339187,0.667598,895.650024,23.309999,-62.09,1729430953288.0,0.0
-6.317052,-5.264209,5.221139,766.640015,47.459999,-59.990002,1729430953288.0,0.0
-4.711468,1.344766,6.125626,552.51001,39.900002,-71.68,1729430953289.0,0.0
-4.929214,4.41715,5.094319,376.670013,19.67,-24.639999,1729430953289.0,0.0
-4.630112,2.742175,6.987042,190.539993,26.950001,-25.48,1729430953289.0,0.0
-6.460621,1.749153,7.80778,-106.330002,33.740002,-13.3,1729430953299.0,0.0
-6.02752,2.964707,10.260423,-420.140015,13.51,29.82,1729430953319.0,0.0
-5.709275,0.495314,8.853443,-683.830017,-3.57,65.099998,1729430953339.0,0.0
-5.328816,-4.881358,4.182654,-878.98999,-52.5,36.400002,1729430953390.0,0.0
-5.216353,-8.044669,-1.667797,-977.690002,-99.610001,10.71,1729430953391.0,0.0
-4.919643,-7.757531,-5.551349,-946.330017,-75.949997,-26.040001,1729430953397.0,0.0
-6.369694,-6.661618,-12.526425,-785.190002,-2.8,-52.43,1729430953418.0,0.0
-7.786245,-6.853044,-14.926428,-542.220032,36.119999,-31.99,1729430953440.0,0.0
-5.989235,-6.719046,-11.846866,-266.350006,0.7,6.79,1729430953461.0,0.0
-5.388636,-8.724231,-6.82433,-2.03,29.610001,33.950001,1729430953479.0,0.0
-6.199803,-9.879964,-1.627119,318.850006,73.220001,18.83,1729430953500.0,0.0
-4.197011,-4.761717,3.086741,499.170013,7.07,11.13,1729430953518.0,0.0
-5.051248,-6.757331,0.215354,653.72998,-37.099998,59.57,1729430953539.0,0.0
-4.95075,-9.88475,-5.053641,792.119995,-43.400002,4.83,1729430953560.0,0.0
-5.584848,-11.356337,-4.342973,880.460022,-17.290001,-35.560001,1729430953578.0,0.0
-6.793223,-8.472985,4.570292,811.440002,39.060001,-33.25,1729430953598.0,0.0
-5.831308,-2.35693,7.4345,590.72998,50.119999,-50.119999,1729430953619.0,0.0
-4.910072,2.840281,7.185646,387.940002,26.880001,-29.68,1729430953640.0,0.0
-4.668397,2.921637,9.195618,164.779999,37.170002,-16.24,1729430953660.0,0.0
-6.740582,2.354537,9.269794,-186.970001,39.549999,-15.4,1729430953680.0,0.0
-5.898308,2.0004,8.346166,-492.940002,-4.48,30.17,1729430953698.0,0.0
-4.759324,-0.447458,5.4676,-716.23999,-26.110001,35.139999,1729430953718.0,0.0
-4.768896,-5.139783,1.272982,-878.570007,-65.169998,9.1,1729430953739.0,0.0
-4.878965,-9.559326,-4.955536,-920.5,-97.720001,-2.8,1729430953760.0,0.0
-4.953143,-8.834301,-8.362915,-849.72998,-52.639999,-50.610001,1729430953782.0,0.0
-6.982256,-8.30788,-13.49552,-643.929993,31.780001,-46.689999,1729430953798.0,0.0
-6.195018,-6.76451,-11.129018,-327.670013,0.07,-19.040001,1729430953818.0,0.0
-4.613362,-7.329216,-7.197611,-91.489998,8.75,21.98,1729430953840.0,0.0
-5.453243,-8.142776,-4.910072,140.0,45.150002,20.860001,1729430953861.0,0.0
-6.156733,-8.575876,-2.155933,367.290009,50.049999,18.83,1729430953879.0,0.0
-4.749753,-4.23051,0.87338,522.549988,9.1,21.98,1729430953898.0,0.0
-5.443672,-6.522834,2.309074,680.470032,-35.630001,77.209999,1729430953918.0,0.0
-4.438686,-9.535398,-3.696911,801.01001,-58.799999,23.66,1729430953939.0,0.0
-5.395815,-12.143576,-3.84048,846.299988,-11.06,-13.3,1729430953962.0,0.0
-7.759924,-11.172089,3.196811,778.400024,14.28,-24.57,1729430953978.0,0.0
-5.460421,-3.0006,7.575676,612.220032,38.849998,-30.66,1729430953998.0,0.0
-5.209175,2.617748,8.415558,404.459991,52.290001,-33.040001,1729430954018.0,0.0
-4.718646,3.347559,8.35813,157.149994,11.27,-7.42,1729430954038.0,0.0
-4.845466,3.0006,8.690732,-128.660004,11.55,-2.8,1729430954069.0,0.0
-5.871986,1.423729,7.903493,-406.980011,13.72,30.309999,1729430954079.0,0.0
-6.611369,-0.064606,5.032106,-646.52002,10.5,35.490002,1729430954105.0,0.0
-6.185446,-3.235096,2.021935,-823.549988,-33.25,24.85,1729430954119.0,0.0
-5.802595,-7.319644,-5.146961,-923.51001,-73.779999,9.17,1729430954138.0,0.0
-5.742774,-11.198411,-10.499706,-794.220032,-16.309999,-44.310001,1729430954161.0,0.0
-7.319644,-10.499706,-14.586647,-553.48999,22.82,-42.630001,1729430954178.0,0.0
-5.836094,-10.34178,-13.447663,-285.670013,-16.73,-22.540001,1729430954198.0,0.0
-4.005585,-9.868,-10.636096,-13.58,25.620001,1.75,1729430954217.0,0.0
-5.182854,-8.126025,-5.47717,270.130005,59.150002,15.68,1729430954237.0,0.0
-6.02752,-4.299902,-3.823731,511.070007,63.98,15.68,1729430954260.0,0.0
-6.197411,-3.790231,2.141576,674.450012,38.290001,36.330002,1729430954278.0,0.0
-3.708875,-3.395415,3.436093,686.700012,-53.900002,39.900002,1729430954297.0,0.0
-3.878766,-9.018548,-3.29731,662.549988,-38.849998,-28.49,1729430954317.0,0.0
-9.059227,-12.870994,-3.448057,732.47998,4.55,-63.209999,1729430954336.0,0.0
-5.575277,-2.699104,3.146562,767.549988,30.1,-55.02,1729430954359.0,0.0
-5.151747,2.129612,8.963513,637.48999,93.660004,-64.610001,1729430954378.0,0.0
-6.21416,2.801995,10.420743,369.320007,25.620001,-42.279999,1729430954397.0,0.0
-3.845266,0.708275,10.332209,135.660004,-5.04,-16.66,1729430954416.0,0.0
-5.048856,1.387837,10.344172,-106.190002,12.88,-8.82,1729430954436.0,0.0
-5.151747,2.440679,9.75793,-379.119995,-3.92,28.77,1729430954458.0,0.0
-4.321437,-0.107677,6.886543,-589.820007,-8.47,56.279999,1729430954477.0,0.0
-5.402994,-3.34038,4.462614,-807.659973,-26.110001,38.150002,1729430954497.0,0.0
-6.630512,-5.099105,-3.084348,-857.01001,-61.389999,16.450001,1729430954517.0,0.0
-6.367301,-8.243275,-11.289338,-738.780029,-39.48,-4.76,1729430954538.0,0.0
-8.597411,-15.024533,-14.976677,-417.269989,21.35,-12.74,1729430954561.0,0.0
-6.407979,-17.498713,-9.401401,175.979996,-41.299999,-3.5,1729430954579.0,0.0
-5.661418,-7.573284,-0.208176,580.859985,27.370001,9.73,1729430954600.0,0.0
-6.594619,-6.075377,7.73121,763.349976,2.59,3.92,1729430954618.0,0.0
-5.24746,-5.398208,6.855437,666.26001,-30.66,-49.560001,1729430954638.0,0.0
-6.257231,-11.420943,0.021535,532.0,-33.740002,-83.230003,1729430954660.0,0.0
-4.173083,-6.254838,1.502693,514.150024,0.56,-69.860001,1729430954681.0,0.0
-3.476771,0.954736,5.422136,546.419983,60.34,-54.040001,1729430954704.0,0.0
-4.273581,0.662812,6.573084,474.670013,43.259998,-68.879997,1729430954910.0,0.0
-5.733203,-0.265603,6.62094,328.160004,32.130001,-42.91,1729430954912.0,0.0
-6.113662,1.040878,7.482357,185.710007,31.710001,-26.67,1729430954913.0,0.0
-5.785845,1.519442,8.822337,0.98,18.41,-3.99,1729430954915.0,0.0
-5.948557,1.926222,8.484949,-225.119995,-0.63,19.110001,1729430954917.0,0.0
-4.41715,-0.356531,8.102098,-409.850006,-16.1,42.349998,1729430954918.0,0.0
-4.74736,-2.95035,8.12124,-634.340027,-8.33,61.18,1729430954918.0,0.0
-4.039084,-5.067998,7.030113,-759.849976,-23.66,58.380001,1729430954918.0,0.0
-4.369294,-5.106283,0.861416,-839.650024,-43.259998,30.380001,1729430954919.0,0.0
-6.034698,-10.985448,-5.69731,-767.690002,-50.470001,9.73,1729430954919.0,0.0
-6.848258,-11.523834,-10.616954,-611.799988,-17.01,-32.41,1729430954919.0,0.0
-7.482357,-18.958334,-10.762917,-174.860001,-13.72,-24.780001,1729430954937.0,0.0
-4.98425,-10.837094,-3.596412,235.690002,24.290001,-25.83,1729430954959.0,0.0
-6.472585,-4.194618,4.31426,439.459991,40.459999,-14.28,1729430954979.0,0.0
-6.69751,-4.321437,5.816952,494.269989,-24.290001,4.62,1729430955004.0,0.0
-5.309673,-6.022735,-0.684347,519.049988,-34.720001,-50.330002,1729430955018.0,0.0
-6.582655,-6.869793,-2.017149,574.070007,18.200001,-42.91,1729430955038.0,0.0
-3.921836,-5.761917,1.847259,600.950012,22.960001,-37.799999,1729430955062.0,0.0
-4.110869,-4.95075,5.020142,552.929993,59.290001,-62.16,1729430955079.0,0.0
-4.878965,-2.067399,8.008778,428.049988,59.779999,-53.549999,1729430955106.0,0.0
-5.522634,-0.394816,8.930015,252.979996,35.700001,-33.880001,1729430955118.0,0.0
-4.524827,1.146162,9.126225,119.279999,18.9,-12.04,1729430955140.0,0.0
-5.498707,1.828116,9.844072,-170.800003,11.97,8.68,1729430955160.0,0.0
-5.644669,1.366302,9.779467,-432.529999,0.28,37.869999,1729430955180.0,0.0
-4.608576,-1.028914,9.597611,-645.539978,-11.2,55.650002,1729430955199.0,0.0
-3.627519,-2.900101,5.678168,-793.450012,-24.08,54.740002,1729430955218.0,0.0
-4.333402,-5.596812,0.792024,-852.25,-43.189999,26.950001,1729430955238.0,0.0
-6.04427,-10.08814,-2.914458,-805.909973,-49.279999,7.7,1729430955259.0,0.0
-6.125626,-7.300502,-12.088539,-708.190002,-7.7,-39.970001,1729430955340.0,0.0
-7.427321,-11.81815,-15.409778,-435.399994,36.68,-25.620001,1729430955355.0,0.0
-6.204589,-14.266008,-14.371292,-33.950001,4.2,-12.74,1729430955364.0,0.0
-4.515256,-8.633304,-5.149354,389.829987,36.119999,24.01,1729430955365.0,0.0
-7.422535,-4.208975,6.628119,685.789978,45.57,21.280001,1729430955366.0,0.0
-5.850451,-3.694518,5.757132,725.970032,-56.84,20.860001,1729430955377.0,0.0
-2.782853,-3.596412,-2.361716,644.97998,-37.799999,-54.810001,1729430955397.0,0.0
-5.962914,-9.468399,0.504886,600.390015,17.290001,-49.91,1729430955420.0,0.0
-4.761717,-9.439686,2.708675,559.789978,-5.39,-47.25,1729430955439.0,0.0
-3.546163,-2.744568,6.446264,510.160004,67.760002,-57.049999,1729430955459.0,0.0
-4.811966,3.285345,9.736395,398.790009,58.52,-33.880001,1729430955480.0,0.0
-6.039484,4.254438,10.849058,36.470001,45.779999,-9.59,1729430955498.0,0.0
-6.398407,1.629512,7.846066,-294.209991,-3.92,23.799999,1729430955519.0,0.0
-5.627919,2.103291,7.037291,-523.599976,-7.42,61.880001,1729430955537.0,0.0
-4.649254,-1.677369,6.123233,-665.630005,-20.860001,62.93,1729430955562.0,0.0
-5.046463,-6.218946,2.682354,-762.929993,-44.029999,38.920002,1729430955578.0,0.0
-5.436492,-10.755738,-4.024727,-745.780029,-44.799999,20.790001,1729430955602.0,0.0
-5.79063,-11.01177,-7.271788,-651.909973,-8.4,-15.47,1729430955617.0,0.0
-6.15434,-13.354343,-13.294522,-444.01001,0.63,-26.67,1729430955637.0,0.0
-6.197411,-17.21636,-10.092925,-69.580002,-5.39,-17.92,1729430955659.0,0.0
-5.142176,-11.614761,-3.414558,283.920013,22.120001,-13.440001,1729430955680.0,0.0
-6.939186,-3.902694,6.757331,498.330017,38.43,-9.73,1729430955728.0,0.0
-6.446264,-2.431108,5.848059,537.950012,-38.360001,19.950001,1729430955728.0,0.0
-5.694918,-5.539384,2.986243,525.97998,-35.349998,-58.52,1729430955901.0,0.0
-7.755138,-7.867601,0.756132,537.599976,-19.040001,-55.16,1729430955902.0,0.0
-5.871986,-6.76451,3.24706,569.309998,-8.68,-41.439999,1729430955902.0,0.0
-3.969693,-5.455636,6.309873,560.070007,27.65,-72.519997,1729430955903.0,0.0
-3.57727,-1.840081,6.769295,486.220001,38.639999,-75.459999,1729430955903.0,0.0
-3.869194,-0.555135,6.446264,337.890015,24.43,-59.43,1729430955903.0,0.0
-3.854837,2.868994,6.309873,271.25,23.73,-41.23,1729430955908.0,0.0
-5.513064,5.309673,7.685746,160.580002,22.889999,-13.86,1729430955909.0,0.0
-4.941179,-0.337388,7.879565,5.88,-1.05,3.85,1729430955910.0,0.0
-4.280759,-0.935594,9.851252,-125.230003,11.69,19.32,1729430955916.0,0.0
-6.111269,-1.055235,10.451849,-304.079987,11.83,35.279999,1729430955936.0,0.0
-6.305088,-1.454836,9.114261,-527.869995,1.54,49.420002,1729430955964.0,0.0
-6.099305,-3.058028,8.80798,-695.450012,-11.55,68.459999,1729430956009.0,0.0
-3.945765,-5.362316,6.173482,-773.429993,-24.219999,51.380001,1729430956011.0,0.0
-3.321238,-5.67099,1.368695,-837.690002,-21.210001,6.23,1729430956018.0,0.0
-3.850052,-8.23131,-4.756931,-812.280029,-15.4,-7.77,1729430956037.0,0.0
-4.019942,-6.345766,-7.518249,-768.039978,7.49,-52.779999,1729430956067.0,0.0
-6.618547,-5.465207,-9.293723,-607.460022,23.52,-32.759998,1729430956078.0,0.0
-6.829116,-8.236095,-9.793823,-333.899994,14.07,-7.84,1729430956100.0,0.0
-4.723432,-12.016755,-6.52762,-23.52,18.34,-1.47,1729430956119.0,0.0
-3.536592,-11.291731,-2.421536,230.649994,16.73,-7.84,1729430956138.0,0.0
-5.288138,-7.367501,0.48335,384.649994,13.86,-10.43,1729430956159.0,0.0
-5.606383,-10.387242,0.641276,660.169983,-67.059998,30.940001,1729430956178.0,0.0
-4.063013,-9.4349,-3.053242,827.75,-82.32,-24.92,1729430956197.0,0.0
-4.900501,-2.885744,-1.734797,959.140015,-7.14,-58.380001,1729430956216.0,0.0
-6.250053,0.253639,5.781059,946.960022,67.129997,-30.799999,1729430956237.0,0.0
-3.735196,0.655633,11.136196,724.01001,88.830002,-94.57,1729430956259.0,0.0
-6.233303,-3.871587,9.51147,416.290009,47.670002,-71.400002,1729430956278.0,0.0
-5.362316,-4.800002,6.297909,217.979996,-1.75,-43.610001,1729430956297.0,0.0
-3.507878,1.0002,5.635098,163.449997,17.99,-46.34,1729430956324.0,0.0
-6.068198,7.518249,8.073383,34.720001,64.190002,0.63,1729430956493.0,0.0
-5.328816,4.072584,8.269595,-214.759995,-0.49,15.47,1729430956495.0,0.0
-6.116055,-0.961915,8.805587,-375.410004,-37.939999,49.0,1729430956499.0,0.0
-5.948557,-3.859623,8.437093,-431.339996,-47.529999,67.129997,1729430956501.0,0.0
-6.606583,-5.513064,7.910671,-470.119995,-31.85,58.52,1729430956502.0,0.0
-6.982256,-7.633104,5.848059,-483.559998,-50.68,34.93,1729430956503.0,0.0
-5.383851,-10.25803,4.589434,-407.820007,-49.490002,23.940001,1729430956511.0,0.0
-4.491328,-11.45205,3.756732,-285.809998,-12.88,-11.2,1729430956512.0,0.0
-4.522435,-11.473583,0.914058,-53.34,25.83,-58.450001,1729430956513.0,0.0
-4.297509,-10.604989,0.014357,91.769997,46.200001,-66.849998,1729430956539.0,0.0
-3.649055,-8.587841,2.89053,195.440002,22.82,-61.880001,1729430956540.0,0.0
-2.56032,-6.149554,5.046463,239.190002,12.25,-57.330002,1729430956558.0,0.0
-2.519642,-3.936193,5.67099,217.979996,36.959999,-57.260002,1729430956577.0,0.0
-2.9671,-3.792624,5.721239,152.110001,28.210001,-59.150002,1729430956608.0,0.0
-2.935993,-3.412165,5.860023,78.260002,-4.13,-46.900002,1729430956647.0,0.0
-3.940979,1.11027,6.843473,54.25,5.18,-1.96,1729430956651.0,0.0
-5.62074,4.058227,11.559726,54.25,28.77,54.32,1729430956661.0,0.0
-4.125226,0.935594,7.915457,-184.869995,10.71,34.509998,1729430956681.0,0.0
-3.495914,-4.441079,6.829116,-321.860016,-41.650002,37.52,1729430956702.0,0.0
-4.393222,-8.039884,5.615955,-352.100006,-54.740002,63.630001,1729430956723.0,0.0
-5.173282,-11.186446,1.404587,-249.550003,1.61,48.650002,1729430956740.0,0.0
-6.041877,-9.602397,0.385244,-152.809998,61.950001,38.57,1729430956772.0,0.0
-6.74776,-11.085947,-3.199204,-104.790001,65.449997,25.200001,1729430956784.0,0.0
-6.65444,-13.875979,-3.739982,-53.060001,48.790001,-19.6,1729430956802.0,0.0
-6.71426,-14.22533,-1.773082,33.32,17.01,-22.26,1729430956828.0,0.0
-4.73061,-10.255639,0.148355,202.089996,6.58,-18.83,1729430956954.0,0.0
-4.644469,-5.364708,2.304288,360.850006,14.35,12.39,1729430956954.0,0.0
-4.941179,-1.567299,6.683154,407.470001,-19.389999,23.870001,1729430956954.0,0.0
-4.694718,-0.224925,10.049855,308.769989,-52.080002,18.690001,1729430956955.0,0.0
-5.075177,-3.52702,10.473385,120.75,-76.93,-5.25,1729430956955.0,0.0
-5.338387,-11.679367,5.594419,37.170002,-145.460007,-48.720001,1729430956955.0,0.0
0.045464,-11.614761,7.489535,175.839996,-126.980003,-49.98,1729430956962.0,0.0
-0.251246,-4.280759,9.853643,352.309998,-4.34,-32.41,1729430956978.0,0.0
-3.658626,-0.404387,8.228917,339.220001,21.559999,-42.279999,1729430956998.0,0.0
-5.213961,-2.605784,6.759724,192.360001,20.23,-56.560001,1729430957073.0,0.0
-6.678369,-2.914458,6.144768,6.86,4.69,-28.98,1729430957075.0,0.0
-8.738588,-0.083749,7.630712,-116.059998,-2.17,-0.28,1729430957079.0,0.0
-5.927022,-1.698904,8.717053,-173.669998,-6.16,27.719999,1729430957082.0,0.0
0.933201,-1.521835,7.381857,-236.320007,4.27,-11.69,1729430957099.0,0.0
2.335395,-1.17009,2.24686,-343.559998,80.639999,26.880001,1729430957118.0,0.0
-1.765903,0.035892,4.445865,-423.640015,89.949997,53.619999,1729430957138.0,0.0
-5.345565,-6.204589,3.208775,-413.839996,1.89,62.860001,1729430957166.0,0.0
-5.410172,-12.768101,2.146362,-345.380005,-13.02,-24.15,1729430957179.0,0.0
-6.750153,-15.448064,1.249053,-249.690002,33.040001,-20.790001,1729430957206.0,0.0
-7.556533,-13.651052,0.545564,-107.800003,20.51,5.95,1729430957219.0,0.0
-6.742974,-11.20798,-0.191426,44.73,0.77,1.82,1729430957238.0,0.0
-5.771489,-11.279767,1.234696,215.389999,-12.6,-26.67,1729430957263.0,0.0
-4.936393,-7.798209,4.259224,360.640015,-21.42,-8.47,1729430957280.0,0.0
-3.57727,-2.306681,7.008578,397.670013,-12.95,27.23,1729430957299.0,0.0
-2.699104,0.607777,9.456435,306.73999,-12.18,34.439999,1729430957318.0,0.0
-3.582055,-6.309873,9.454042,151.339996,-26.460001,-28.07,1729430957338.0,0.0
-4.76411,-11.538191,5.304887,70.349998,-91.489998,-48.790001,1729430957359.0,0.0
0.282353,-8.559127,6.71426,207.199997,-77.279999,-25.620001,1729430957379.0,0.0
-2.024328,-3.321238,5.891129,305.899994,29.960001,-13.79,1729430957398.0,0.0
-8.013563,-2.043471,6.867401,230.020004,46.48,-37.939999,1729430957419.0,0.0
-7.281359,-0.820738,7.877172,-11.62,14.07,-1.82,1729430957438.0,0.0
-8.056634,-0.370888,9.193225,-151.339996,27.02,8.05,1729430957460.0,0.0
-7.45125,-3.038885,9.367901,-248.430008,6.23,11.06,1729430957497.0,0.0
-0.172283,-4.223332,4.512863,-289.589996,3.57,-5.39,1729430957502.0,0.0
2.529213,-2.514857,4.905287,-329.420013,64.330002,8.19,1729430957519.0,0.0
-0.509671,0.614955,7.77428,-385.910004,73.5,91.559998,1729430957539.0,0.0
-3.510271,-7.99442,3.816552,-405.089996,-4.34,29.33,1729430957560.0,0.0
-7.092326,-14.476578,0.98345,-332.01001,-7.21,-29.75,1729430957578.0,0.0
-7.149754,-16.735401,2.883351,-139.720001,-7.98,-35.07,1729430957599.0,0.0
-6.625726,-10.631311,1.993221,19.530001,-1.33,14.91,1729430957618.0,0.0
-6.975078,-3.706482,-1.849652,133.490005,41.16,15.05,1729430957640.0,0.0
-6.597012,-5.4676,2.203789,160.440002,53.900002,-20.299999,1729430957659.0,0.0
-5.690133,-9.138189,1.962115,34.02,-13.02,-16.940001,1729430957679.0,0.0
-3.991228,-11.923435,1.820938,99.75,-64.120003,-34.580002,1729430957699.0,0.0
-3.180061,-9.949356,3.376273,286.369995,-58.450001,-31.01,1729430957718.0,0.0
-2.400001,-1.689333,6.503692,448.48999,-15.75,-5.11,1729430957740.0,0.0
-4.273581,0.519243,11.203196,421.399994,41.23,38.57,1729430957762.0,0.0
-4.898108,-6.750153,9.638289,57.189999,-17.43,-47.459999,1729430957778.0,0.0
-3.634698,-12.03829,7.585248,-49.98,-144.830002,-10.57,1729430957798.0,0.0
0.981057,-7.513463,6.441479,79.519997,-35.84,-13.72,1729430957820.0,0.0
-4.716253,-5.166104,6.886543,197.330002,36.400002,-37.380001,1729430957840.0,0.0
-8.348558,-1.438086,7.889136,147.979996,34.860001,-25.969999,1729430957860.0,0.0
-8.898908,1.361516,8.9348,26.389999,33.389999,-4.62,1729430957880.0,0.0
-7.207181,0.480957,10.561919,-127.120003,5.25,18.969999,1729430957898.0,0.0
-0.514457,-0.425922,3.61077,-292.950012,10.08,13.16,1729430957920.0,0.0
0.854238,0.318245,2.538785,-400.679993,63.139999,34.93,1729430957941.0,0.0
-1.397408,-2.270789,3.976871,-446.320007,53.619999,80.010002,1729430957959.0,0.0
-4.855037,-11.363515,2.359323,-439.459991,11.48,24.85,1729430957979.0,0.0
-7.740781,-20.336601,-1.892723,-350.630005,13.93,-43.959999,1729430957998.0,0.0
