acc_x,acc_y,acc_z,gyr_x,gyr_y,gyr_z,timestamp,label
-10.564312,-6.123233,-11.949757,-15.61,-75.389999,17.08,1729415282507.0,0.0
-15.541383,-3.689733,-17.661423,-42.490002,-14.63,28.07,1729415282507.0,0.0
-11.79183,-10.229317,-14.550755,-12.39,34.790001,9.1,1729415282513.0,0.0
-4.206582,-11.60519,-7.980063,62.23,19.110001,-4.97,1729415282514.0,0.0
-5.173282,-4.613362,-7.881958,107.239998,94.849998,-9.17,1729415282527.0,0.0
-5.20439,-5.864808,-3.455236,76.93,125.580002,-5.04,1729415282547.0,0.0
-2.380858,-8.944371,3.359523,17.99,103.529999,-9.59,1729415282568.0,0.0
0.354138,-9.166903,4.831109,-2.87,53.689999,-1.68,1729415282587.0,0.0
1.801795,-7.898707,7.628319,14.21,9.66,1.47,1729415282608.0,0.0
0.047856,-7.238289,1.648655,-12.32,-42.84,-2.17,1729415282628.0,0.0
-4.218546,-7.245467,-3.864408,-81.900002,-37.66,-1.82,1729415282647.0,0.0
-1.430908,-11.004591,-7.176075,-43.189999,-108.57,6.3,1729415282668.0,0.0
-4.051049,-10.767702,-8.69791,32.27,-84.209999,6.93,1729415282688.0,0.0
-10.595419,-6.652047,-6.470192,-8.89,-36.610001,-2.45,1729415282708.0,0.0
-13.919049,-5.218746,-13.60559,-83.230003,-24.710001,-10.5,1729415282727.0,0.0
-8.587841,-8.54477,-16.383656,-16.1,2.94,-14.14,1729415282748.0,0.0
-2.225325,-9.865608,-6.374479,95.129997,17.57,-8.33,1729415282768.0,0.0
-4.35733,-5.79063,-6.362515,130.479996,84.840004,-14.49,1729415282787.0,0.0
-7.415358,-4.943572,-4.575077,65.169998,105.279999,-14.77,1729415282808.0,0.0
-3.768696,-8.133204,-1.579263,-6.58,76.440002,-22.26,1729415282827.0,0.0
-0.540778,-8.147561,0.849452,1.61,51.799999,-6.93,1729415282847.0,0.0
-0.409173,-8.626125,5.041678,37.240002,37.799999,1.68,1729415282870.0,0.0
0.545564,-7.467999,2.266003,17.360001,-10.99,-5.81,1729415282887.0,0.0
-2.287539,-7.331609,0.789631,-35.279999,-43.119999,-6.44,1729415282907.0,0.0
-3.634698,-7.963314,-2.048256,-63.630001,-61.32,-7.63,1729415282927.0,0.0
-1.22034,-9.772287,-6.034698,-3.36,-98.349998,8.47,1729415282947.0,0.0
-0.930808,-8.496914,-6.362515,38.360001,-92.68,14.84,1729415282967.0,0.0
-9.078369,-5.788238,-4.414758,-1.26,-40.32,15.190001,1729415282988.0,0.0
-10.657632,-5.529813,-11.306087,-148.610001,-65.379997,-5.6,1729415283008.0,0.0
-9.083155,-4.4674,-15.503098,-154.910004,-40.25,-21.77,1729415283028.0,0.0
-5.491528,-9.499505,-12.002398,-38.360001,2.59,4.55,1729415283048.0,0.0
-3.438486,-9.267403,-3.754339,48.860001,41.790001,3.01,1729415283067.0,0.0
-7.786245,-5.575277,-3.622734,31.219999,87.150002,-14.35,1729415283088.0,0.0
-7.666604,-5.742774,-7.781459,-49.91,73.849998,-20.16,1729415283111.0,0.0
-3.632305,-7.499106,-6.71426,-92.120003,60.760002,-21.559999,1729415283128.0,0.0
-1.344766,-8.587841,-0.856631,-48.02,66.010002,-5.11,1729415283147.0,0.0
-1.940579,-10.657632,1.574477,4.97,67.059998,0.35,1729415283169.0,0.0
-0.29671,-11.562119,2.663212,42.700001,29.540001,-3.22,1729415283188.0,0.0
1.083949,-7.91785,0.954736,48.720001,-10.29,-6.37,1729415283208.0,0.0
-0.902094,-8.250452,-2.892922,33.459999,-37.869999,0.56,1729415283226.0,0.0
-2.589034,-12.569498,-5.666204,-29.26,-42.77,-16.66,1729415283246.0,0.0
-1.122234,-14.244473,-7.788638,-32.27,-64.190002,-40.18,1729415283268.0,0.0
-0.433101,-11.54537,-6.128019,66.779999,-61.880001,-18.83,1729415283287.0,0.0
-2.773281,-5.54417,-2.084148,135.800003,-47.459999,-7.35,1729415283308.0,0.0
-4.522435,-7.094719,-7.290931,181.300003,-59.57,23.66,1729415283327.0,0.0
-5.407779,-5.151747,-8.54477,181.509995,-27.16,28.42,1729415283347.0,0.0
-8.91805,-4.639683,-7.606783,143.990005,15.12,65.449997,1729415283367.0,0.0
-11.636297,-8.602197,-9.346365,66.010002,22.960001,53.970001,1729415283388.0,0.0
-10.602598,-11.028521,-9.911072,41.299999,32.549999,-6.65,1729415283408.0,0.0
-7.9681,-8.422735,-7.056434,107.800003,54.810001,-16.030001,1729415283427.0,0.0
-6.474977,-5.036892,-3.68734,110.669998,83.090004,-31.99,1729415283447.0,0.0
-3.938586,-5.343173,-2.120041,-1.33,87.639999,-56.700001,1729415283470.0,0.0
-0.595813,-9.308081,3.108276,-28.91,76.090004,-55.23,1729415283487.0,0.0
1.447658,-6.740582,7.312466,20.860001,59.709999,-33.18,1729415283507.0,0.0
2.266003,-3.376273,8.082954,64.050003,23.309999,5.11,1729415283527.0,0.0
-0.019143,-5.319244,5.706882,12.88,-17.639999,24.43,1729415283547.0,0.0
-2.15354,-7.846066,3.565305,-46.759998,-41.439999,35.84,1729415283568.0,0.0
-2.438286,-6.525227,0.172283,-62.510002,-65.379997,45.5,1729415283595.0,0.0
-3.787838,-7.496714,-3.735196,-70.699997,-77.349998,55.09,1729415283607.0,0.0
-6.556334,-8.542377,-6.15434,-47.110001,-74.760002,77.209999,1729415283628.0,0.0
-10.092925,-10.810772,-5.405386,21.91,-60.549999,88.550003,1729415283647.0,0.0
-12.976277,-9.657433,-9.456435,-51.029999,-2.73,35.209999,1729415283668.0,0.0
-13.24188,-10.899307,-10.126426,-99.470001,20.790001,-4.06,1729415283688.0,0.0
-8.910872,-8.740981,-8.480164,-123.129997,10.29,-46.48,1729415283708.0,0.0
-5.534599,-4.599005,-6.245267,-138.25,26.110001,-69.93,1729415283728.0,0.0
-3.909872,-4.826324,-5.180461,-142.380005,41.09,-67.690002,1729415283748.0,0.0
-2.553142,-6.76451,-4.785645,-189.419998,42.490002,-55.23,1729415283770.0,0.0
-0.399601,-9.408579,-3.28056,-209.229996,31.99,-49.98,1729415283787.0,0.0
0.842274,-7.305287,-3.766303,-195.369995,23.799999,-40.599998,1729415283807.0,0.0
-0.289532,-6.855437,-2.055435,-220.710007,15.82,-32.41,1729415283827.0,0.0
-0.222532,-8.575876,-4.737789,-302.540009,-7.0,-48.93,1729415283847.0,0.0
-1.26341,-16.098909,-3.182454,-284.970001,-43.68,-50.75,1729415283868.0,0.0
-1.641476,-13.899906,-4.07737,-138.880005,-62.650002,-53.41,1729415283887.0,0.0
-4.292724,-5.441278,-3.201597,-69.019997,-45.5,-38.779999,1729415283907.0,0.0
-4.216154,-0.452243,-5.828916,-127.050003,-71.050003,-32.830002,1729415283927.0,0.0
-3.689733,-4.058227,-10.530812,-206.360001,-89.809998,-40.110001,1729415283947.0,0.0
-5.268995,-4.261617,-12.363714,-215.180008,-74.129997,-40.040001,1729415283968.0,0.0
-6.649654,-1.962115,-12.485749,-128.800003,-59.990002,-29.049999,1729415283986.0,0.0
-10.741381,0.476172,-10.516455,-34.580002,-9.1,1.68,1729415284008.0,0.0
-10.561919,-0.208176,-7.101898,-28.210001,10.01,20.370001,1729415284028.0,0.0
-7.393822,-2.330609,-6.975078,-27.790001,11.48,20.299999,1729415284048.0,0.0
-7.058826,-3.381058,-7.721639,10.15,35.700001,15.75,1729415284068.0,0.0
-7.82453,-3.562913,-8.683553,79.169998,57.75,30.52,1729415284086.0,0.0
-6.403193,-3.993621,-8.831908,134.820007,61.529999,61.32,1729415284110.0,0.0
-7.264609,-6.549156,-8.106883,141.75,80.57,62.93,1729415284127.0,0.0
-6.300302,-6.218946,-4.723432,144.759995,77.419998,58.099998,1729415284147.0,0.0
-4.752146,-8.035098,-3.067599,143.220001,62.510002,45.5,1729415284168.0,0.0
-2.656033,-10.298709,-4.41715,167.930008,22.610001,9.31,1729415284187.0,0.0
-1.978864,-10.15514,-6.71426,215.949997,-1.12,-16.030001,1729415284208.0,0.0
-2.098505,-7.992027,-8.709875,290.220001,-8.19,-9.8,1729415284227.0,0.0
-1.67019,-7.130611,-8.477771,354.059998,-32.619999,8.75,1729415284248.0,0.0
-1.064806,-6.034698,-6.372087,366.100006,-35.560001,14.7,1729415284268.0,0.0
-1.124627,-5.907879,-3.957729,353.149994,-41.720001,19.879999,1729415284286.0,0.0
-2.208575,-6.180661,-2.282753,269.149994,-40.389999,9.66,1729415284311.0,0.0
-4.338188,-10.514063,-1.536192,150.639999,-51.799999,-8.12,1729415284326.0,0.0
-3.570091,-11.483156,-3.625126,73.57,-77.419998,-15.54,1729415284348.0,0.0
-1.820938,-8.707481,-3.9673,116.970001,-66.57,0.7,1729415284369.0,0.0
-0.926022,-4.09412,-2.914458,133.419998,-29.4,11.13,1729415284386.0,0.0
-1.98365,-5.986843,-0.361316,154.979996,-10.85,53.27,1729415284407.0,0.0
-3.333202,-11.377872,-0.078963,208.25,-3.78,82.669998,1729415284427.0,0.0
-4.311867,-8.042276,-1.459622,269.640015,3.99,124.949997,1729415284447.0,0.0
-6.063413,-4.359723,6.482157,219.940002,29.33,133.139999,1729415284467.0,0.0
-10.983055,8.279166,-16.960327,-95.480003,-2.24,77.559998,1729415284488.0,0.0
-5.558527,-8.537591,-4.689932,-103.529999,-51.59,88.550003,1729415284507.0,0.0
-13.349558,-16.546368,1.579263,-17.780001,24.360001,77.209999,1729415284527.0,0.0
-12.12204,-15.19203,-0.265603,43.889999,0.35,-41.02,1729415284548.0,0.0
-7.432107,-9.513863,0.378066,127.190002,1.4,-50.049999,1729415284568.0,0.0
-5.647062,-7.57089,-0.433101,60.689999,9.17,-69.230003,1729415284586.0,0.0
-4.235296,-7.369894,0.241675,-8.4,16.52,-80.639999,1729415284607.0,0.0
-3.665804,-7.353144,0.287139,-25.48,28.139999,-70.279999,1729415284626.0,0.0
-3.364309,-6.680761,0.409173,4.34,37.240002,-41.09,1729415284646.0,0.0
-3.311667,-6.809973,3.23031,33.599998,35.77,-28.77,1729415284670.0,0.0
-3.067599,-6.486942,4.429115,49.209999,2.59,-23.309999,1729415284686.0,0.0
-3.101098,-5.125426,3.400201,37.240002,-7.91,-4.06,1729415284706.0,0.0
-3.479164,-5.900701,1.964507,6.72,0.7,10.5,1729415284727.0,0.0
-4.582255,-7.130611,2.167897,-13.79,9.87,31.99,1729415284747.0,0.0
-6.273981,-10.375278,2.885744,40.950001,5.95,56.0,1729415284767.0,0.0
-7.365108,-10.798808,4.108476,110.040001,8.4,82.110001,1729415284787.0,0.0
-8.886944,-10.449455,8.693125,88.129997,18.9,77.910004,1729415284807.0,0.0
-8.41795,8.085347,-18.125631,-113.610001,-40.670002,25.48,1729415284826.0,0.0
-5.54417,-1.17009,0.20339,-12.67,-7.0,33.740002,1729415284848.0,0.0
-13.019348,-16.776079,3.76391,-9.03,8.05,43.400002,1729415284868.0,0.0
-11.490334,-14.079369,1.584049,8.19,-18.34,-82.529999,1729415284887.0,0.0
-6.908078,-10.58824,2.507678,83.650002,-25.059999,-85.610001,1729415284907.0,0.0
-5.812167,-8.157133,2.376073,31.639999,-18.83,-108.220001,1729415284925.0,0.0
-4.472186,-6.994221,2.993421,-23.66,-16.309999,-112.980003,1729415284946.0,0.0
-3.180061,-6.814759,2.065006,-51.380001,-15.89,-102.900002,1729415284969.0,0.0
-2.447858,-6.04427,0.021535,-32.27,-10.5,-80.220001,1729415284986.0,0.0
-2.038685,-6.173482,1.674976,3.64,-2.8,-57.82,1729415285006.0,0.0
-1.160519,-4.771288,2.098505,40.670002,1.12,-26.18,1729415285026.0,0.0
-1.251446,-5.173282,4.271189,54.599998,-5.74,0.35,1729415285046.0,0.0
-2.103291,-5.699703,3.888337,39.27,-15.26,18.969999,1729415285068.0,0.0
-2.514857,-7.259824,1.189233,4.83,5.46,27.51,1729415285086.0,0.0
-1.701297,-10.834702,1.603191,37.240002,4.48,75.879997,1729415285110.0,0.0
-4.852644,-9.303294,4.268795,87.57,38.220001,80.709999,1729415285125.0,0.0
-12.954741,-2.141576,-1.421337,3.57,-4.41,44.450001,1729415285148.0,0.0
3.24706,-7.858029,-6.273981,5.39,-34.16,84.279999,1729415285167.0,0.0
-13.021741,-2.517249,4.98425,-26.67,78.68,105.349998,1729415285187.0,0.0
-12.593425,-13.804193,2.486143,-145.740005,29.68,-11.55,1729415285207.0,0.0
-6.60419,-13.194024,-0.68674,-175.139999,8.19,-78.120003,1729415285227.0,0.0
-4.031906,-11.674582,-0.705883,-127.190002,22.75,-80.360001,1729415285246.0,0.0
-2.959922,-10.487741,-0.325424,-131.389999,37.869999,-86.590004,1729415285269.0,0.0
-2.452643,-9.868,0.425922,-143.850006,45.080002,-76.720001,1729415285286.0,0.0
-2.586641,-9.815358,-0.004786,-162.820007,52.220001,-74.199997,1729415285306.0,0.0
-2.395216,-9.903893,-1.347159,-168.630005,52.920002,-71.75,1729415285326.0,0.0
-1.773082,-9.731609,-2.648855,-165.199997,52.57,-68.949997,1729415285346.0,0.0
-1.844866,-10.265208,-3.244668,-160.720001,57.68,-67.830002,1729415285367.0,0.0
-2.079363,-11.040483,-3.663411,-146.509995,63.420002,-65.029999,1729415285387.0,0.0
-2.057827,-11.370694,-4.0008,-123.690002,65.379997,-61.599998,1729415285407.0,0.0
-1.816152,-11.057234,-4.070191,-101.010002,65.379997,-56.349998,1729415285426.0,0.0
-1.823331,-10.602598,-4.108476,-81.760002,69.790001,-52.150002,1729415285446.0,0.0
-1.981257,-10.188639,-4.134798,-62.02,74.340004,-47.880001,1729415285467.0,0.0
-1.928615,-9.518648,-4.287938,-46.619999,73.919998,-44.450001,1729415285486.0,0.0
-1.471586,-8.650054,-4.527221,-45.709999,70.769997,-41.790001,1729415285508.0,0.0
-1.416551,-7.700103,-4.773681,-59.849998,70.980003,-39.130001,1729415285527.0,0.0
-1.854438,-8.01117,-4.733003,-72.239998,75.459999,-33.459999,1729415285546.0,0.0
-2.09372,-8.4347,-5.010571,-86.730003,71.540001,-32.549999,1729415285568.0,0.0
-1.514657,-8.293523,-5.379066,-90.230003,58.799999,-32.060001,1729415285585.0,0.0
-1.227518,-7.836494,-5.67099,-82.669998,52.009998,-26.25,1729415285606.0,0.0
-1.428515,-7.530212,-5.898308,-69.019997,51.869999,-18.620001,1729415285633.0,0.0
-1.567299,-7.929814,-5.596812,-50.889999,46.619999,-10.57,1729415285647.0,0.0
-1.462015,-8.193025,-5.15414,-25.34,36.470001,-3.15,1729415285677.0,0.0
-2.050649,-6.905686,-5.101498,11.06,26.74,5.95,1729415285687.0,0.0
-2.321038,-6.238089,-5.386244,6.93,19.32,8.82,1729415285707.0,0.0
-2.155933,-6.716653,-5.316852,-8.05,8.47,13.09,1729415285727.0,0.0
-2.416751,-7.15454,-5.051248,-18.969999,4.97,14.63,1729415285747.0,0.0
-3.053242,-6.886543,-5.058427,-19.110001,3.71,15.33,1729415285767.0,0.0
-2.952743,-6.455836,-5.405386,-18.969999,-5.81,14.0,1729415285785.0,0.0
-2.699104,-6.556334,-5.493921,-22.889999,-11.41,14.21,1729415285808.0,0.0
-3.07717,-6.821937,-5.556134,-29.120001,-8.54,12.67,1729415285827.0,0.0
-3.156133,-6.190232,-6.266802,-39.619999,-10.01,7.98,1729415285846.0,0.0
-2.792424,-6.295516,-6.084948,-47.740002,-14.07,8.47,1729415285867.0,0.0
-2.701497,-7.381857,-6.252446,-52.360001,-7.77,4.27,1729415285885.0,0.0
-2.665605,-8.152347,-6.728617,-34.509998,0.35,-1.33,1729415285907.0,0.0
-2.447858,-7.274181,-7.073184,-19.530001,5.11,-4.2,1729415285926.0,0.0
-1.823331,-6.939186,-7.042077,-20.790001,4.69,-5.04,1729415285946.0,0.0
-1.48355,-7.523034,-6.774081,-22.049999,5.88,-2.59,1729415285967.0,0.0
-1.789831,-7.712067,-6.372087,-23.66,10.08,-3.43,1729415285986.0,0.0
-1.586441,-7.197611,-6.427122,-20.09,7.56,-8.4,1729415286006.0,0.0
-1.138984,-6.98465,-7.080362,-16.52,-5.88,-10.78,1729415286025.0,0.0
-1.368695,-7.688138,-7.427321,-18.41,-1.05,-10.99,1729415286046.0,0.0
-1.591227,-8.394022,-7.922636,-15.54,4.55,-15.89,1729415286067.0,0.0
-1.40698,-7.235896,-7.525427,9.8,9.59,-15.96,1729415286085.0,0.0
-1.201197,-5.785845,-6.991827,19.6,10.36,-11.13,1729415286110.0,0.0
-1.414158,-6.364908,-6.367301,7.21,9.03,-6.65,1729415286125.0,0.0
-1.507478,-6.879365,-6.513263,-7.28,5.32,-10.36,1729415286146.0,0.0
-1.160519,-6.84108,-7.398607,-6.02,-2.24,-14.14,1729415286167.0,0.0
-0.629312,-6.410372,-7.920243,4.69,-4.48,-11.55,1729415286185.0,0.0
-0.248854,-6.245267,-8.13799,35.349998,-4.27,-3.57,1729415286207.0,0.0
-0.684347,-6.429514,-6.281159,54.18,5.88,3.43,1729415286225.0,0.0
-1.737189,-7.264609,-5.974878,41.02,13.51,1.54,1729415286246.0,0.0
-1.438086,-6.91765,-6.943972,-8.05,2.31,-4.27,1729415286266.0,0.0
-1.007378,-7.60439,-7.999206,-33.32,-0.7,-9.03,1729415286286.0,0.0
-1.040878,-8.394022,-8.159525,-11.9,8.61,-12.04,1729415286307.0,0.0
-0.973879,-6.876972,-6.506085,22.120001,18.690001,-9.1,1729415286325.0,0.0
-0.650848,-5.541777,-5.898308,26.32,13.58,-1.96,1729415286350.0,0.0
-0.509671,-6.563512,-6.831509,-15.190001,-2.17,-2.1,1729415286367.0,0.0
-0.57667,-7.573284,-6.836295,-23.66,-2.45,-2.66,1729415286385.0,0.0
-0.854238,-7.446464,-6.573084,-11.13,-2.03,-2.66,1729415286406.0,0.0
-0.971486,-7.293324,-6.656832,3.64,-2.31,-1.12,1729415286425.0,0.0
-0.815953,-6.869793,-7.616355,-11.9,-2.8,-2.59,1729415286447.0,0.0
-0.736989,-7.738388,-8.066205,-24.99,-1.33,-3.36,1729415286468.0,0.0
-0.693919,-7.915457,-8.367701,-13.79,3.85,-3.64,1729415286486.0,0.0
-0.859023,-6.305088,-6.324231,15.82,6.37,3.43,1729415286505.0,0.0
-1.146162,-5.929415,-6.233303,24.5,2.59,5.6,1729415286526.0,0.0
-1.177269,-6.396015,-6.805188,-14.28,-1.26,2.38,1729415286545.0,0.0
-1.026521,-7.314859,-7.348359,-36.400002,-3.29,-1.33,1729415286567.0,0.0
-0.866202,-7.525427,-7.721639,-36.610001,-2.8,-3.36,1729415286585.0,0.0
-0.904487,-7.118648,-7.805387,-30.799999,-0.42,-4.9,1729415286606.0,0.0
-0.772882,-7.063612,-7.659425,-20.93,0.49,-4.13,1729415286625.0,0.0
-0.681954,-6.896115,-7.345965,-11.55,1.61,-3.99,1729415286645.0,0.0
-0.928415,-6.704689,-7.219146,-8.82,1.96,-3.57,1729415286667.0,0.0
-0.727418,-6.551548,-7.709675,-19.809999,-1.12,-5.39,1729415286685.0,0.0
-0.658026,-6.817152,-7.503892,-19.389999,-2.1,-4.97,1729415286706.0,0.0
-0.658026,-6.520442,-7.185646,-6.93,-0.84,-3.5,1729415286725.0,0.0
-0.66999,-6.539584,-7.080362,-3.36,-0.84,-1.82,1729415286746.0,0.0
-0.909273,-7.195218,-7.470392,-14.14,-2.03,-3.5,1729415286767.0,0.0
-0.897308,-7.422535,-7.836494,-20.02,-1.68,-6.3,1729415286785.0,0.0
-0.61017,-7.018148,-7.826923,-8.33,-1.68,-4.48,1729415286806.0,0.0
-0.854238,-6.69751,-7.872386,-2.31,1.68,-2.59,1729415286826.0,0.0
-1.148555,-7.453642,-8.79123,-4.27,5.53,-7.21,1729415286847.0,0.0
-0.777667,-6.89133,-7.903493,4.34,9.03,-9.73,1729415286866.0,0.0
-1.019342,-6.54437,-7.89153,36.82,14.49,-6.72,1729415286885.0,0.0
-1.01695,-4.902894,-7.197611,22.610001,15.26,-6.65,1729415286908.0,0.0
-0.607777,-5.379066,-7.209574,9.73,9.73,-4.34,1729415286925.0,0.0
-0.600598,-5.577669,-6.848258,3.08,7.98,-1.12,1729415286945.0,0.0
-0.830309,-5.807381,-6.819544,4.48,5.6,0.56,1729415286968.0,0.0
-0.646062,-6.142376,-7.13779,2.59,-1.26,1.05,1729415286985.0,0.0
-0.727418,-6.649654,-7.546963,1.68,-2.24,1.54,1729415287006.0,0.0
-0.521635,-7.080362,-7.678568,11.2,-2.45,2.87,1729415287027.0,0.0
-0.409173,-6.683154,-7.372287,8.19,-0.56,3.08,1729415287045.0,0.0
-0.581456,-6.69751,-7.233503,-6.86,-2.1,-0.56,1729415287067.0,0.0
-0.528814,-6.867401,-7.204789,-7.35,-7.7,0.91,1729415287085.0,0.0
-0.442672,-6.975078,-7.520642,-7.28,-6.3,-2.59,1729415287108.0,0.0
-0.746561,-6.994221,-7.645068,2.52,-2.03,1.82,1729415287127.0,0.0
-0.741775,-6.24766,-6.941578,7.49,-3.64,4.2,1729415287146.0,0.0
-0.705883,-6.494121,-6.850651,1.12,-6.09,2.52,1729415287166.0,0.0
-0.926022,-6.896115,-7.149754,-9.87,-7.49,2.59,1729415287186.0,0.0
-0.942772,-7.085148,-7.568498,-11.9,-9.45,1.4,1729415287206.0,0.0
-1.153341,-6.982256,-8.068598,-10.92,-7.49,0.07,1729415287224.0,0.0
-1.160519,-7.089933,-8.025528,-9.45,-4.83,0.14,1729415287247.0,0.0
-0.902094,-7.106683,-7.802995,-6.16,-3.08,-0.49,1729415287267.0,0.0
-0.945165,-7.130611,-7.551748,-3.36,0.14,-1.33,1729415287287.0,0.0
-1.088734,-6.922436,-7.489535,-4.76,1.75,-2.38,1729415287306.0,0.0
-0.98345,-6.80758,-7.334002,-7.91,0.28,-2.87,1729415287325.0,0.0
-1.153341,-7.427321,-7.386643,-15.26,0.56,-3.85,1729415287347.0,0.0
-0.646062,-7.221539,-7.039684,-22.469999,0.63,-9.03,1729415287366.0,0.0
-1.294517,-7.022934,-7.62114,-6.93,2.66,-3.22,1729415287385.0,0.0
-1.672583,-6.73101,-7.814958,-21.91,3.01,-10.08,1729415287405.0,0.0
-1.65344,-6.699903,-8.102098,-26.74,1.96,-10.57,1729415287425.0,0.0
-1.605584,-6.393622,-8.255238,-22.82,2.03,-12.67,1729415287495.0,0.0
-1.495514,-5.816952,-8.176274,-12.11,4.2,-13.58,1729415287496.0,0.0
-1.270589,-5.871986,-7.972885,-1.19,3.57,-13.58,1729415287496.0,0.0
-1.246661,-6.101698,-7.645068,2.8,4.27,-13.86,1729415287505.0,0.0
-1.421337,-6.754939,-7.63789,4.97,4.48,-15.89,1729415287535.0,0.0
-1.275374,-7.149754,-7.984849,2.59,2.59,-19.879999,1729415287546.0,0.0
-1.294517,-6.537192,-7.685746,6.16,3.5,-19.25,1729415287568.0,0.0
-0.945165,-6.262017,-7.539784,7.07,1.61,-19.18,1729415287586.0,0.0
-0.684347,-6.439085,-7.41775,6.02,-0.14,-19.110001,1729415287606.0,0.0
-1.033699,-6.740582,-7.657032,-0.35,1.89,-22.889999,1729415287627.0,0.0
-1.423729,-6.836295,-7.862815,-8.47,5.25,-28.35,1729415287644.0,0.0
-1.368695,-6.515656,-7.922636,-7.77,8.26,-33.040001,1729415287666.0,0.0
-1.258625,-6.285945,-7.68096,-6.09,11.9,-37.66,1729415287685.0,0.0
-1.339981,-6.628119,-7.393822,-1.12,19.110001,-41.369999,1729415287705.0,0.0
-1.462015,-6.991827,-7.204789,12.04,21.77,-43.68,1729415287725.0,0.0
-1.227518,-6.465407,-7.420143,29.75,18.48,-46.970001,1729415287745.0,0.0
-0.401994,-5.417351,-7.716853,42.420002,5.67,-46.830002,1729415287766.0,0.0
-0.270389,-4.56072,-7.056434,33.459999,3.43,-42.349998,1729415287785.0,0.0
-0.583849,-4.41715,-6.218946,12.11,3.71,-37.73,1729415287805.0,0.0
-0.715454,-4.955536,-6.068198,3.43,2.66,-33.32,1729415287825.0,0.0
-0.105284,-5.312066,-6.455836,21.35,-2.52,-28.91,1729415287846.0,0.0
0.72024,-4.754539,-6.908078,31.57,-9.87,-22.049999,1729415287866.0,0.0
1.012164,-4.567898,-6.69751,16.17,-11.83,-12.95,1729415287884.0,0.0
0.457029,-4.852644,-6.068198,-2.24,-11.69,-3.01,1729415287905.0,0.0
0.452243,-5.04407,-6.597012,-11.27,-17.780001,-0.63,1729415287924.0,0.0
1.105484,-5.242674,-8.197811,-27.370001,-32.27,0.77,1729415287945.0,0.0
1.22034,-5.608776,-8.927622,-56.279999,-31.99,2.38,1729415287966.0,0.0
0.691526,-5.953342,-8.60459,-74.970001,-25.48,6.16,1729415287985.0,0.0
0.430708,-6.625726,-8.183454,-58.310001,-23.379999,11.2,1729415288005.0,0.0
0.602991,-7.106683,-8.276773,-12.46,-25.41,12.74,1729415288025.0,0.0
0.315853,-7.006185,-7.944171,52.639999,-23.450001,16.1,1729415288045.0,0.0
-0.311067,-7.063612,-7.01097,71.959999,-21.210001,19.25,1729415288065.0,0.0
-0.421137,-7.238289,-6.848258,81.480003,-26.460001,19.460001,1729415288085.0,0.0
-0.239282,-8.102098,-7.587641,109.690002,-35.0,24.290001,1729415288108.0,0.0
-0.327817,-9.178867,-7.410572,145.949997,-31.290001,28.84,1729415288125.0,0.0
-0.930808,-9.537791,-6.396015,134.75,-14.35,23.17,1729415288158.0,0.0
-0.861416,-8.585447,-6.922436,101.639999,-9.94,19.32,1729415288236.0,0.0
0.512064,-10.679168,-7.24786,100.309998,-20.440001,17.43,1729415288238.0,0.0
1.052842,-11.241481,-8.238488,157.850006,-6.72,22.540001,1729415288239.0,0.0
1.031307,-8.310273,-7.482357,216.020004,18.969999,32.060001,1729415288241.0,0.0
0.579063,-7.925028,-3.491128,199.639999,46.619999,35.490002,1729415288244.0,0.0
-0.421137,-10.612168,-1.952543,141.399994,44.52,25.83,1729415288266.0,0.0
-0.562313,-13.265808,-3.196811,141.119995,23.17,17.219999,1729415288283.0,0.0
0.825524,-10.899307,-3.512664,171.149994,11.69,10.85,1729415288304.0,0.0
1.196411,-7.91785,-0.792024,180.180008,23.52,7.7,1729415288329.0,0.0
-0.612563,-9.731609,0.277567,167.369995,23.1,10.29,1729415288343.0,0.0
-0.725025,-10.200603,0.133998,174.720001,16.030001,10.64,1729415288363.0,0.0
-0.459422,-7.657032,1.445265,203.559998,8.26,14.98,1729415288383.0,0.0
-0.11007,-5.252246,2.842674,170.169998,1.47,22.4,1729415288403.0,0.0
0.574277,-7.408179,2.359323,110.529999,-20.860001,24.219999,1729415288423.0,0.0
0.172283,-10.425529,1.902294,90.440002,-32.130001,30.450001,1729415288444.0,0.0
-1.459622,-11.021341,3.495914,96.25,-29.75,28.42,1729415288463.0,0.0
-3.096312,-8.965906,2.991028,25.549999,-30.030001,15.12,1729415288483.0,0.0
-1.816152,-7.877172,0.311067,-63.77,-48.650002,15.12,1729415288504.0,0.0
-1.201197,-9.142976,-1.481157,-61.040001,-55.23,24.85,1729415288524.0,0.0
-2.550749,-9.609575,-1.986043,28.139999,-46.060001,41.16,1729415288544.0,0.0
-3.304488,-7.776673,-0.770489,117.949997,-29.75,54.18,1729415288570.0,0.0
-4.402793,-7.314859,-1.215554,98.0,-12.11,55.650002,1729415288584.0,0.0
-4.539185,-10.128819,-3.036492,7.28,-2.66,46.619999,1729415288605.0,0.0
-3.062813,-14.012369,-1.514657,-49.84,12.11,21.559999,1729415288628.0,0.0
-2.431108,-15.187245,0.234497,11.62,16.940001,8.05,1729415288645.0,0.0
-3.601198,-9.454042,1.368695,107.520004,31.360001,8.61,1729415288665.0,0.0
-3.644269,-7.592427,0.344566,82.459999,35.279999,-1.12,1729415288684.0,0.0
-3.440879,-9.403792,-0.677169,-25.27,56.84,-21.35,1729415288704.0,0.0
-2.821138,-10.415956,-0.196211,-54.670002,68.669998,-29.540001,1729415288727.0,0.0
-0.648455,-9.346365,1.129412,-19.950001,75.459999,-26.6,1729415288745.0,0.0
1.524228,-8.233703,5.039285,18.549999,79.730003,-19.67,1729415288765.0,0.0
2.222932,-8.149954,10.305886,49.98,67.620003,-5.88,1729415288784.0,0.0
0.141177,-7.441679,10.229317,67.269997,37.170002,15.4,1729415288804.0,0.0
-1.861616,-6.687939,6.71426,5.6,10.29,14.7,1729415288825.0,0.0
-0.378066,-6.74776,3.529413,-50.400002,-7.35,17.219999,1729415288844.0,0.0
-1.837688,-10.317852,3.376273,-41.23,-11.13,28.42,1729415288867.0,0.0
-4.4674,-10.875379,3.474378,-0.35,-20.23,33.529999,1729415288884.0,0.0
-5.4341,-8.831908,3.361916,33.740002,-31.5,38.639999,1729415288904.0,0.0
-5.218746,-7.068398,1.954936,10.92,-44.240002,39.130001,1729415288925.0,0.0
-6.118448,-7.673782,-0.787239,-36.049999,-54.389999,46.549999,1729415288944.0,0.0
-7.829315,-10.052249,-1.485943,-45.920002,-53.48,47.389999,1729415288966.0,0.0
-8.169096,-10.686346,-2.021935,-20.860001,-36.889999,35.279999,1729415288986.0,0.0
-5.910272,-12.031113,-2.301895,-16.799999,-22.540001,18.620001,1729415289005.0,0.0
-5.084748,-15.187245,-1.87358,-12.46,-5.32,-2.66,1729415289025.0,0.0
-4.21376,-11.090734,-0.660419,42.98,22.75,-29.4,1729415289044.0,0.0
-2.813959,-9.492328,0.215354,24.92,35.139999,-43.75,1729415289065.0,0.0
-1.981257,-10.234102,0.622134,-19.110001,40.110001,-51.59,1729415289086.0,0.0
-1.347159,-9.88475,2.68714,-33.810001,48.720001,-55.16,1729415289106.0,0.0
0.349352,-9.413363,4.56072,-7.63,48.650002,-54.32,1729415289123.0,0.0
1.100698,-8.250452,7.389036,33.810001,47.110001,-49.0,1729415289144.0,0.0
-0.014357,-6.695118,9.154939,42.98,28.77,-38.779999,1729415289165.0,0.0
-0.334995,-4.735396,7.958528,40.880001,4.06,-18.690001,1729415289184.0,0.0
-1.928615,-5.493921,6.958328,16.030001,-16.59,-0.56,1729415289206.0,0.0
-3.29731,-6.374479,4.24726,-12.74,-34.439999,16.17,1729415289223.0,0.0
-3.68734,-7.611568,2.002793,-0.84,-39.27,33.670002,1729415289245.0,0.0
-4.601398,-7.312466,1.359123,15.33,-33.599998,44.59,1729415289267.0,0.0
-5.632704,-7.030113,0.337388,5.95,-33.810001,52.5,1729415289284.0,0.0
-6.625726,-9.016156,-0.435494,-6.23,-39.830002,54.18,1729415289304.0,0.0
-6.762117,-11.251052,-0.473779,9.45,-42.349998,49.07,1729415289323.0,0.0
-7.204789,-11.609976,-0.480957,17.219999,-31.290001,33.740002,1729415289344.0,0.0
-4.943572,-14.337792,-2.213361,-3.78,-25.969999,10.36,1729415289364.0,0.0
-3.634698,-14.294723,-1.213161,2.59,-0.49,-25.34,1729415289383.0,0.0
-3.067599,-11.590833,-0.074178,28.630001,20.299999,-40.389999,1729415289404.0,0.0
-1.536192,-10.217353,0.782453,16.940001,32.060001,-55.02,1729415289423.0,0.0
-0.370888,-8.894121,2.368894,-1.68,43.330002,-61.040001,1729415289443.0,0.0
0.457029,-7.063612,4.515256,-6.16,52.150002,-56.279999,1729415289467.0,0.0
1.344766,-6.943972,7.551748,25.129999,52.080002,-41.860001,1729415289483.0,0.0
-0.021535,-6.403193,10.322637,47.950001,38.779999,-32.060001,1729415289504.0,0.0
-0.557528,-4.223332,9.724431,39.060001,11.97,-13.65,1729415289524.0,0.0
-0.926022,-3.35713,8.324631,-0.77,-7.35,11.2,1729415289545.0,0.0
-2.579463,-5.592027,4.666004,-60.760002,-28.35,26.6,1729415289565.0,0.0
-4.197011,-8.276773,2.455036,-63.420002,-39.689999,43.75,1729415289583.0,0.0
-5.668597,-8.171489,1.215554,-15.82,-37.310001,57.260002,1729415289603.0,0.0
-6.465407,-7.745567,0.40678,12.39,-35.279999,65.029999,1729415289626.0,0.0
-7.075576,-9.674182,-0.827917,7.84,-36.470001,61.529999,1729415289644.0,0.0
-7.642675,-12.794422,-1.586441,5.25,-30.380001,44.170002,1729415289665.0,0.0
-7.652246,-13.371094,-2.435893,-8.19,-19.950001,19.040001,1729415289683.0,0.0
-4.316652,-12.935599,-2.24686,-16.940001,-9.8,-5.95,1729415289704.0,0.0
-3.177669,-12.897314,-1.426122,-27.370001,11.76,-40.389999,1729415289723.0,0.0
-2.584249,-10.872985,-0.256032,-15.05,30.940001,-51.73,1729415289744.0,0.0
-0.978664,-10.150353,1.732404,-24.360001,39.759998,-62.09,1729415289764.0,0.0
-0.105284,-8.882158,4.338188,-25.059999,47.529999,-61.740002,1729415289783.0,0.0
1.019342,-7.60439,5.998806,-7.91,45.080002,-54.810001,1729415289803.0,0.0
1.299303,-7.226324,8.525627,31.43,42.209999,-42.07,1729415289823.0,0.0
-0.303888,-6.656832,9.276974,46.130001,26.6,-31.360001,1729415289843.0,0.0
-0.433101,-4.85743,8.240881,43.189999,6.58,-12.95,1729415289864.0,0.0
-1.524228,-4.486543,7.274181,19.18,-8.26,9.1,1729415289883.0,0.0
-3.445665,-6.699903,4.321437,-19.460001,-27.58,25.27,1729415289903.0,0.0
-4.761717,-8.066205,2.421536,-17.01,-35.91,37.59,1729415289922.0,0.0
-5.594419,-7.60439,1.351945,-0.98,-35.630001,45.990002,1729415289943.0,0.0
-5.486742,-7.470392,-0.040678,0.7,-40.599998,49.209999,1729415289965.0,0.0
-6.046663,-9.047262,-1.201197,-0.14,-42.279999,50.959999,1729415289983.0,0.0
-6.666404,-11.289338,-1.782653,10.99,-37.240002,43.189999,1729415290005.0,0.0
-6.541977,-12.303895,-1.26341,-1.26,-25.48,26.110001,1729415290024.0,0.0
-4.993821,-12.748959,-1.615155,-22.120001,-17.85,3.36,1729415290045.0,0.0
-3.335595,-12.468999,-0.949951,-7.42,4.34,-27.860001,1729415290065.0,0.0
-2.261217,-11.24866,-0.165105,8.75,23.940001,-42.630001,1729415290085.0,0.0
-1.562513,-9.576077,1.253839,5.81,39.200001,-47.529999,1729415290108.0,0.0
0.055035,-7.587641,3.036492,-15.26,48.09,-49.98,1729415290125.0,0.0
1.612763,-6.965507,5.742774,-20.790001,52.150002,-43.68,1729415290144.0,0.0
1.019342,-7.405786,8.829515,3.36,48.439999,-31.92,1729415290164.0,0.0
-0.708275,-7.216753,9.186047,23.52,29.82,-17.99,1729415290184.0,0.0
-0.22014,-4.878965,7.592427,25.620001,8.12,-1.68,1729415290205.0,0.0
-1.038485,-3.816552,6.750153,7.35,-3.71,22.960001,1729415290224.0,0.0
-3.675375,-5.486742,4.4339,-28.0,-20.93,45.5,1729415290245.0,0.0
-5.276174,-7.470392,2.467,-32.619999,-34.860001,61.599998,1729415290265.0,0.0
-5.95095,-8.003991,0.820738,-12.67,-43.189999,71.400002,1729415290282.0,0.0
-6.635297,-7.365108,-0.143569,5.67,-42.84,79.029999,1729415290306.0,0.0
-7.850852,-9.29133,-0.236889,2.52,-36.82,78.959999,1729415290324.0,0.0
-8.52802,-12.557532,-1.196411,-34.790001,-31.290001,56.84,1729415290343.0,0.0
-7.116255,-14.277972,-2.811567,-44.029999,-21.629999,31.92,1729415290364.0,0.0
-3.617948,-13.607983,-2.742175,1.75,12.6,-5.74,1729415290383.0,0.0
-2.536392,-12.660425,-0.859023,15.33,33.670002,-23.66,1729415290404.0,0.0
-1.864009,-11.413764,1.387837,0.56,46.619999,-40.950001,1729415290423.0,0.0
-1.258625,-9.049655,4.256832,-13.16,49.0,-49.91,1729415290443.0,0.0
-0.634098,-7.362715,4.756931,-10.29,46.759998,-46.41,1729415290465.0,0.0
0.751346,-6.199803,6.254838,-13.23,48.23,-44.869999,1729415290484.0,0.0
-0.265603,-6.52762,8.456236,18.34,46.689999,-25.200001,1729415290506.0,0.0
-2.866602,-5.754738,9.174082,25.34,30.1,-15.47,1729415290523.0,0.0
-2.988636,-4.39083,7.695317,3.43,6.09,9.24,1729415290544.0,0.0
-3.244668,-5.484349,4.876573,-33.950001,-20.790001,33.110001,1729415290564.0,0.0
-4.232903,-7.503892,1.155733,-46.34,-36.82,44.450001,1729415290583.0,0.0
-5.546563,-8.030313,-0.236889,-18.969999,-35.490002,61.670002,1729415290603.0,0.0
-6.453443,-7.424929,-1.658226,18.41,-32.900002,73.5,1729415290626.0,0.0
-7.834101,-9.008978,-1.978864,33.670002,-29.26,72.730003,1729415290643.0,0.0
-9.336794,-11.507084,-2.129612,37.240002,-26.32,59.010002,1729415290666.0,0.0
-8.630912,-12.143576,-3.177669,19.950001,-18.620001,34.580002,1729415290683.0,0.0
-7.4345,-12.181859,-2.699104,-27.93,-7.84,-5.6,1729415290703.0,0.0
-4.103691,-12.337393,-2.787638,-44.59,11.69,-40.880001,1729415290723.0,0.0
-3.04367,-10.760524,-0.619741,-14.49,39.759998,-52.639999,1729415290744.0,0.0
-2.404787,-9.006584,1.909473,-25.83,56.700001,-56.490002,1729415290764.0,0.0
-0.717847,-6.915257,4.699504,-31.710001,58.799999,-52.5,1729415290783.0,0.0
0.775275,-4.548756,6.943972,-17.360001,55.790001,-39.619999,1729415290804.0,0.0
1.813759,-5.402994,8.508877,18.690001,38.43,-11.27,1729415290823.0,0.0
-1.191626,-5.883951,9.678967,50.610001,18.9,8.75,1729415290846.0,0.0
-3.998406,-4.84068,7.9681,24.85,-3.43,26.040001,1729415290864.0,0.0
-2.909672,-5.268995,6.769295,-34.720001,-27.719999,41.23,1729415290883.0,0.0
-2.589034,-7.781459,3.464807,-64.470001,-46.130001,50.189999,1729415290904.0,0.0
-4.275974,-8.106883,1.442872,-36.82,-42.700001,70.980003,1729415290923.0,0.0
-5.860023,-7.996813,1.241875,-2.87,-41.09,90.650002,1729415290943.0,0.0
-7.623533,-8.695518,-0.847059,-0.14,-44.170002,95.830002,1729415290965.0,0.0
-8.102098,-8.922836,-1.232304,-34.509998,-41.23,83.650002,1729415290984.0,0.0
-8.987441,-9.147761,-3.136991,-109.340004,-39.619999,82.809998,1729415291003.0,0.0
-9.719646,-8.200203,-4.524827,-245.839996,-16.450001,38.709999,1729415291025.0,0.0
-9.023334,-8.348558,-7.776673,-400.470001,-14.84,-17.219999,1729415291044.0,0.0
-7.025328,-9.669396,-9.29133,-425.950012,-16.450001,-57.75,1729415291066.0,0.0
-5.627919,-9.23151,-9.990034,-375.690002,17.92,-61.810001,1729415291085.0,0.0
-5.111069,-7.62114,-7.829315,-340.76001,51.59,-65.169998,1729415291106.0,0.0
-5.816952,-6.281159,-3.524628,-334.25,69.93,-62.720001,1729415291124.0,0.0
-6.156733,-5.517848,-4.127619,-348.179993,52.150002,-56.0,1729415291143.0,0.0
-3.292524,-4.900501,-6.350551,-302.820007,19.389999,-48.02,1729415291165.0,0.0
-0.638884,-5.493921,-6.707082,-222.600006,14.35,-10.71,1729415291184.0,0.0
-2.266003,-6.541977,-5.419744,-193.899994,42.700001,11.34,1729415291203.0,0.0
-3.95055,-6.113662,-6.166305,-186.970001,29.33,27.440001,1729415291223.0,0.0
-2.227718,-6.501299,-6.989435,-171.779999,-1.61,22.889999,1729415291243.0,0.0
-1.208375,-5.632704,-7.893922,-135.800003,-16.66,25.34,1729415291265.0,0.0
-1.643869,-6.257231,-7.314859,-102.760002,-18.41,28.84,1729415291282.0,0.0
-2.172683,-9.315259,-5.943772,-87.150002,-26.32,19.809999,1729415291304.0,0.0
-1.148555,-9.360723,-5.931807,-62.860001,-45.849998,-0.07,1729415291324.0,0.0
-1.344766,-6.929615,-8.504091,-36.75,-58.59,-23.52,1729415291343.0,0.0
-2.919244,-6.147161,-10.214959,-39.619999,-61.040001,-41.790001,1729415291364.0,0.0
-4.185047,-4.455436,-9.174082,-29.540001,-57.119999,-53.689999,1729415291384.0,0.0
-5.369494,-1.239482,-10.425529,7.49,-52.849998,-53.200001,1729415291404.0,0.0
-8.128418,1.572084,-11.796617,1.61,-36.68,-43.330002,1729415291422.0,0.0
-11.60519,3.869194,-11.198411,-13.86,0.91,-27.790001,1729415291444.0,0.0
-10.829915,5.187639,-9.736395,-14.98,13.02,-6.79,1729415291465.0,0.0
-8.49452,4.711468,-9.334401,-31.01,19.950001,9.66,1729415291483.0,0.0
-7.76471,0.811167,-10.073784,-86.379997,29.190001,18.549999,1729415291504.0,0.0
-6.826723,0.210568,-10.001998,-88.340004,36.959999,17.01,1729415291525.0,0.0
-6.953543,0.397209,-8.140383,-59.360001,58.029999,31.92,1729415291544.0,0.0
-5.804988,-2.014757,-8.46102,-51.869999,54.459999,46.41,1729415291564.0,0.0
-3.050849,-6.89133,-7.771888,-48.23,40.040001,44.450001,1729415291584.0,0.0
0.023928,-10.837094,-7.223931,-10.5,21.139999,41.720001,1729415291605.0,0.0
0.772882,-9.927821,-5.907879,38.639999,18.76,20.299999,1729415291622.0,0.0
-0.327817,-10.506885,-4.555934,50.049999,3.08,1.96,1729415291642.0,0.0
-0.823131,-8.575876,-4.694718,45.5,-25.76,-30.1,1729415291663.0,0.0
-2.545963,-4.644469,-7.886744,51.52,-40.880001,-44.029999,1729415291683.0,0.0
-4.302295,-3.125026,-11.399406,68.18,-41.02,-39.689999,1729415291704.0,0.0
-3.871587,-4.500899,-9.533006,59.360001,-44.380001,-44.240002,1729415291723.0,0.0
-4.290331,-3.220739,-9.781858,33.810001,-44.380001,-59.220001,1729415291745.0,0.0
-5.491528,0.368495,-9.54497,28.35,-33.950001,-61.880001,1729415291764.0,0.0
-6.642475,0.607777,-10.222138,17.290001,-28.559999,-59.220001,1729415291784.0,0.0
-9.221939,2.146362,-10.727024,6.02,-28.559999,-43.959999,1729415291804.0,0.0
-10.396815,5.048856,-11.734402,33.25,22.610001,-19.6,1729415291823.0,0.0
-9.06162,6.532406,-9.856036,51.73,31.780001,24.01,1729415291842.0,0.0
-6.898508,2.105684,-9.686146,-30.73,26.67,29.120001,1729415291864.0,0.0
-6.685547,-1.485943,-10.047462,-84.0,31.92,28.91,1729415291884.0,0.0
-6.309873,-1.392623,-9.724431,-66.080002,49.420002,33.670002,1729415291905.0,0.0
-5.498707,-1.395016,-6.848258,-21.35,53.970001,56.700001,1729415291925.0,0.0
-3.955336,-5.197211,-7.848458,-56.77,51.52,56.630001,1729415291942.0,0.0
-2.423929,-12.870994,-5.065606,-44.73,34.860001,59.360001,1729415291965.0,0.0
1.533799,-13.493127,-5.405386,-27.719999,2.52,21.84,1729415291984.0,0.0
1.804188,-11.203196,-5.211568,26.110001,-9.66,-7.56,1729415292004.0,0.0
-0.619741,-8.370094,-6.283553,63.349998,-17.57,-24.92,1729415292023.0,0.0
-3.742374,-4.914857,-9.784252,75.25,-28.84,-31.92,1729415292042.0,0.0
-3.818945,-4.4339,-8.963513,76.230003,-35.279999,-35.420002,1729415292063.0,0.0
-3.888337,-3.041277,-8.805587,60.48,-46.830002,-43.540001,1729415292084.0,0.0
-4.187439,-2.694318,-8.860621,42.420002,-53.48,-52.920002,1729415292107.0,0.0
-5.479564,0.308674,-10.073784,20.719999,-43.889999,-48.93,1729415292122.0,0.0
-7.245467,1.344766,-11.167303,14.28,-32.970001,-42.279999,1729415292142.0,0.0
-10.109675,3.196811,-12.12204,-8.68,-32.970001,-34.02,1729415292165.0,0.0
-10.444671,5.936593,-12.23211,15.4,17.99,-9.45,1729415292183.0,0.0
-8.035098,4.651647,-8.9348,5.46,21.84,15.47,1729415292204.0,0.0
-5.630312,2.299503,-10.035499,-72.660004,24.5,16.379999,1729415292221.0,0.0
-6.826723,-0.311067,-10.466206,-95.550003,48.580002,39.41,1729415292242.0,0.0
-6.333801,-2.292324,-8.652447,-77.629997,54.040001,54.389999,1729415292264.0,0.0
-4.141976,-3.89073,-8.188239,-75.32,47.670002,54.880001,1729415292284.0,0.0
-3.038885,-9.10469,-6.994221,-56.84,43.540001,71.120003,1729415292304.0,0.0
-0.267996,-13.354343,-5.228317,-63.490002,26.460001,43.119999,1729415292322.0,0.0
1.344766,-13.507483,-4.493721,-9.1,1.4,19.110001,1729415292344.0,0.0
-0.413958,-10.169496,-3.876373,19.74,-4.76,-19.6,1729415292364.0,0.0
-2.431108,-6.551548,-5.335995,46.41,-25.690001,-32.619999,1729415292384.0,0.0
-3.52702,-5.163712,-10.442278,44.450001,-46.689999,-44.450001,1729415292403.0,0.0
-3.275774,-2.033899,-9.820145,10.01,-46.34,-56.630001,1729415292423.0,0.0
-3.409772,0.253639,-10.794022,-37.029999,-52.290001,-71.75,1729415292511.0,0.0
-5.903094,1.919044,-12.16511,-75.18,-32.060001,-80.849998,1729415292516.0,0.0
-9.008978,4.06062,-11.246266,-76.93,-7.77,-63.700001,1729415292519.0,0.0
-10.616954,5.166104,-10.794022,-59.779999,15.61,-36.049999,1729415292525.0,0.0
-8.276773,5.132604,-10.581062,-51.52,20.370001,1.82,1729415292525.0,0.0
-6.565905,0.801596,-9.918249,-75.040001,27.02,28.98,1729415292543.0,0.0
-5.331209,0.464208,-8.508877,-61.389999,29.469999,40.389999,1729415292573.0,0.0
-6.039484,-1.634298,-7.84128,-23.59,41.509998,49.279999,1729415292582.0,0.0
-4.835894,-4.493721,-7.688138,-16.17,27.51,50.119999,1729415292603.0,0.0
-2.964707,-9.375079,-7.298109,-15.89,12.18,38.150002,1729415292625.0,0.0
-1.476372,-9.377472,-7.365108,19.460001,6.65,21.559999,1729415292643.0,0.0
-1.318445,-8.91805,-6.355337,54.389999,3.71,6.37,1729415292663.0,0.0
-0.665205,-7.228717,-5.871986,66.220001,-15.12,-12.25,1729415292682.0,0.0
-2.09372,-6.175875,-7.02772,71.959999,-28.139999,-19.460001,1729415292703.0,0.0
-4.089334,-4.029513,-11.906685,65.590004,-30.450001,-30.450001,1729415292722.0,0.0
-3.519842,-3.816552,-9.901501,88.620003,-32.34,-34.650002,1729415292742.0,0.0
-3.364309,-4.266403,-8.760124,81.410004,-33.880001,-49.84,1729415292766.0,0.0
-3.952943,-3.663411,-9.372685,80.290001,-29.049999,-60.48,1729415292782.0,0.0
-4.622933,-2.672783,-8.599805,118.020004,-19.809999,-61.529999,1729415292802.0,0.0
-5.972485,-1.232304,-11.188839,161.139999,-7.63,-40.25,1729415292828.0,0.0
-6.872187,0.217747,-12.760924,179.199997,6.02,-19.18,1729415292842.0,0.0
-7.331609,1.624727,-13.234701,204.050003,24.5,4.41,1729415292864.0,0.0
-7.738388,1.457229,-12.320643,218.330002,48.93,29.68,1729415292882.0,0.0
-6.711867,0.09332,-11.162518,189.419998,56.349998,28.42,1729415292902.0,0.0
-5.62074,-2.392823,-7.001399,128.589996,58.59,24.85,1729415292923.0,0.0
-5.742774,-4.649254,-5.300103,55.93,71.889999,23.24,1729415292942.0,0.0
-6.171089,-7.590034,-7.51107,36.189999,60.34,16.52,1729415292962.0,0.0
-7.147361,-12.617353,4.185047,40.18,67.199997,21.91,1729415292982.0,0.0
-3.749553,-6.391229,-8.810372,65.029999,8.75,-7.28,1729415293004.0,0.0
-1.660619,-6.580262,-8.331808,62.650002,37.939999,26.530001,1729415293022.0,0.0
-2.005185,-8.738588,-7.73121,83.720001,72.660004,32.27,1729415293043.0,0.0
-3.416951,-9.530612,-3.381058,90.370003,91.349998,23.870001,1729415293063.0,0.0
-1.323231,-8.949157,-1.423729,87.290001,48.509998,15.89,1729415293083.0,0.0
0.107677,-8.422735,-0.162712,73.010002,36.959999,-0.77,1729415293105.0,0.0
0.181855,-9.501899,-1.107877,35.91,21.629999,-12.53,1729415293122.0,0.0
-0.760918,-9.169296,-1.672583,21.49,5.95,-19.530001,1729415293142.0,0.0
-1.986043,-6.903293,-1.378266,10.22,-9.38,-16.450001,1729415293163.0,0.0
-0.935594,-7.118648,-3.101098,-45.639999,-37.799999,-27.58,1729415293182.0,0.0
-1.392623,-12.820745,-6.74776,-57.330002,-51.029999,-41.509998,1729415293203.0,0.0
-3.68734,-8.566305,-5.371887,-26.18,-30.799999,-47.110001,1729415293222.0,0.0
-4.177868,-5.771489,-5.326423,-26.25,-33.880001,-51.52,1729415293242.0,0.0
-3.878766,-5.553742,-7.666604,-114.940002,-45.57,-67.199997,1729415293264.0,0.0
-5.242674,-5.316852,-8.276773,-166.389999,-32.41,-65.099998,1729415293282.0,0.0
-6.719046,-3.270989,-9.351151,-183.190002,-20.93,-61.25,1729415293304.0,0.0
-7.267002,-1.081556,-9.092726,-197.610001,-22.120001,-48.299999,1729415293322.0,0.0
-7.118648,0.404387,-8.365308,-233.449997,-25.200001,-40.18,1729415293342.0,0.0
-7.056434,-1.12702,-9.899107,-274.890015,-20.719999,-36.330002,1729415293363.0,0.0
-5.520242,-1.988436,-11.222338,-303.869995,-17.5,-36.75,1729415293383.0,0.0
-4.369294,-2.902494,-9.734003,-304.98999,-5.6,-29.610001,1729415293404.0,0.0
-3.9673,-1.287339,-9.49472,-200.830002,-3.43,-4.41,1729415293423.0,0.0
-2.897708,-1.969293,-9.987641,-143.779999,-5.32,18.76,1729415293442.0,0.0
-0.136391,-5.192425,-10.238889,-90.510002,-9.03,28.84,1729415293462.0,0.0
1.730011,-7.688138,-8.80798,-50.049999,-8.82,25.549999,1729415293484.0,0.0
2.084148,-8.860621,-7.606783,-29.610001,-15.190001,6.09,1729415293503.0,0.0
1.904687,-6.455836,-7.836494,-18.549999,-26.6,-17.780001,1729415293522.0,0.0
1.320838,-3.067599,-9.288938,-16.17,-33.529999,-31.710001,1729415293546.0,0.0
0.267996,-2.335395,-10.028319,-20.23,-35.91,-35.84,1729415293565.0,0.0
-2.567499,-0.691526,-10.607382,-17.85,-38.779999,-40.18,1729415293582.0,0.0
-6.477371,1.167697,-11.25823,2.38,-33.32,-34.369999,1729415293604.0,0.0
-9.643075,2.517249,-11.394621,2.24,-17.99,-22.82,1729415293621.0,0.0
-8.190632,3.144169,-10.284351,5.6,-1.75,-0.28,1729415293641.0,0.0
-6.558727,3.254239,-10.301102,15.190001,29.960001,10.01,1729415293667.0,0.0
-10.255639,-0.217747,-9.997212,6.23,64.68,1.68,1729415293682.0,0.0
-6.9344,2.012364,-9.461221,3.99,36.259998,28.0,1729415293703.0,0.0
-4.871787,0.538385,-9.533006,-8.47,28.98,37.170002,1729415293721.0,0.0
-0.519243,-3.625126,-7.735995,-18.620001,28.42,42.349998,1729415293742.0,0.0
2.787638,-8.283953,-7.743174,-1.33,7.56,36.82,1729415293763.0,0.0
4.24726,-8.640482,-8.30788,30.59,1.19,14.21,1729415293782.0,0.0
2.289931,-6.156733,-9.346365,42.139999,-1.75,-8.61,1729415293803.0,0.0
-0.447458,-3.574877,-9.609575,5.53,-8.68,-26.880001,1729415293821.0,0.0
-1.182054,-2.471786,-10.289137,-38.5,-17.360001,-34.650002,1729415293843.0,0.0
-1.062413,-1.691726,-10.91845,-13.3,-22.4,-30.450001,1729415293863.0,0.0
-5.04407,-1.61037,-9.710074,22.540001,-6.02,-33.599998,1729415293882.0,0.0
-8.054241,0.746561,-8.422735,35.560001,-4.76,-25.9,1729415293902.0,0.0
-9.401401,3.60359,-8.946764,21.280001,-7.91,-21.629999,1729415293921.0,0.0
-8.961121,5.125426,-9.719646,-7.35,-7.14,-9.94,1729415293941.0,0.0
-7.092326,4.718646,-10.822738,-30.52,7.91,3.5,1729415293963.0,0.0
-6.407979,0.217747,-11.131411,-20.58,33.110001,5.11,1729415293982.0,0.0
-5.771489,2.081756,-9.628718,4.97,30.59,26.25,1729415294002.0,0.0
-2.289931,-0.260818,-9.525827,-17.360001,14.98,32.759998,1729415294022.0,0.0
0.011964,-4.366901,-7.886744,-46.549999,13.23,33.529999,1729415294041.0,0.0
3.184847,-8.920443,-8.080563,-38.080002,1.96,25.76,1729415294064.0,0.0
2.785245,-8.269595,-9.870394,31.780001,-0.56,-10.36,1729415294082.0,0.0
-0.375673,-4.587041,-9.219545,32.759998,3.01,-28.77,1729415294104.0,0.0
-0.370888,-1.452443,-8.9683,-25.41,-12.81,-34.93,1729415294121.0,0.0
0.772882,-2.117648,-9.647861,-28.210001,-24.15,-32.130001,1729415294144.0,0.0
-2.624927,-1.902294,-10.442278,-1.47,-16.799999,-34.299999,1729415294163.0,0.0
-7.420143,0.059821,-9.853643,25.48,-11.76,-32.130001,1729415294181.0,0.0
-9.159724,3.680161,-10.152746,34.299999,-13.440001,-22.33,1729415294202.0,0.0
-8.683553,4.862216,-10.150353,18.129999,-1.4,-1.47,1729415294220.0,0.0
-7.161718,3.945765,-9.482756,9.03,25.41,11.62,1729415294243.0,0.0
-8.173882,-0.349352,-9.52822,2.73,47.110001,5.04,1729415294262.0,0.0
-6.240481,0.756132,-9.279366,14.07,29.889999,20.65,1729415294281.0,0.0
-3.572484,-1.100698,-8.973085,2.87,19.389999,26.950001,1729415294302.0,0.0
-2.172683,-2.100898,-7.9011,-2.17,14.56,28.77,1729415294321.0,0.0
0.090927,-4.256832,-7.996813,-3.64,0.28,27.23,1729415294342.0,0.0
2.318645,-6.723832,-8.52802,-5.88,-7.07,19.460001,1729415294362.0,0.0
3.29731,-7.640282,-9.542577,9.73,-13.02,7.0,1729415294381.0,0.0
0.464208,-3.811767,-9.561719,26.950001,-15.12,-5.32,1729415294402.0,0.0
-0.789631,-2.411965,-9.865608,-10.15,-27.16,-20.09,1729415294421.0,0.0
0.256032,-4.132405,-8.676375,5.53,-36.75,-22.68,1729415294443.0,0.0
-3.493521,-3.328416,-8.611769,40.599998,-35.700001,-33.389999,1729415294461.0,0.0
-8.116454,-0.200997,-9.619147,68.529999,-43.049999,-37.73,1729415294480.0,0.0
-6.831509,1.359123,-10.746166,93.519997,-48.509998,-12.81,1729415294504.0,0.0
-6.429514,2.801995,-11.499906,131.669998,-12.53,15.33,1729415294521.0,0.0
-7.24786,1.129412,-10.959127,164.149994,37.240002,34.369999,1729415294542.0,0.0
-9.444471,-3.888337,-10.980663,195.789993,64.260002,24.780001,1729415294572.0,0.0
-7.216753,-4.407579,-10.097712,254.800003,35.490002,39.27,1729415294581.0,0.0
-4.962714,-4.338188,-10.356135,315.0,21.559999,38.920002,1729415294601.0,0.0
-4.354938,-4.21376,-8.109276,304.290009,35.0,28.280001,1729415294621.0,0.0
-2.222932,-4.508078,-4.843073,253.610001,24.219999,31.780001,1729415294641.0,0.0
0.284746,-6.91765,-4.23051,194.460007,16.73,35.700001,1729415294662.0,0.0
3.04367,-9.209974,-4.826324,175.630005,10.99,35.630001,1729415294681.0,0.0
2.809174,-11.356337,-3.050849,199.5,31.290001,38.57,1729415294702.0,0.0
0.028714,-11.07159,-1.433301,215.389999,38.920002,25.690001,1729415294722.0,0.0
0.143569,-7.601997,-0.428315,193.690002,5.6,17.43,1729415294742.0,0.0
-2.9671,-8.688338,2.727818,167.160004,-30.799999,27.58,1729415294762.0,0.0
-6.362515,-4.989035,-3.125026,92.540001,-34.720001,17.85,1729415294782.0,0.0
-6.802795,-4.180261,-4.469792,8.4,-51.869999,45.920002,1729415294803.0,0.0
-7.695317,-7.398607,-8.652447,-31.219999,-46.41,46.200001,1729415294821.0,0.0
-9.765109,-11.665009,-11.519048,37.799999,-18.48,42.91,1729415294841.0,0.0
-10.504492,-8.834301,-9.238688,122.919998,24.15,21.629999,1729415294871.0,0.0
-7.836494,-7.613962,-7.226324,119.489998,24.5,1.89,1729415294882.0,0.0
-5.130211,-10.437491,-7.166504,76.019997,25.27,-31.01,1729415294902.0,0.0
-4.867002,-10.468598,-5.087141,62.650002,53.48,-37.310001,1729415294922.0,0.0
-3.835695,-9.741181,-1.952543,60.130001,68.809998,-50.119999,1729415294941.0,0.0
-1.737189,-8.987441,2.237289,59.290001,63.209999,-46.34,1729415294962.0,0.0
0.619741,-7.408179,6.592227,64.959999,49.560001,-34.650002,1729415294982.0,0.0
1.301696,-6.245267,6.958328,91.0,25.620001,-9.87,1729415295003.0,0.0
-0.445065,-5.111069,5.539384,49.0,12.18,2.45,1729415295023.0,0.0
-0.119641,-6.159126,2.206182,-44.799999,-12.11,15.33,1729415295042.0,0.0
-1.392623,-7.566105,-0.76331,-108.360001,-65.940002,33.389999,1729415295063.0,0.0
-4.206582,-8.061419,-4.010371,-71.889999,-70.629997,45.360001,1729415295081.0,0.0
-7.168896,-9.341579,-7.881958,-22.4,-56.630001,54.25,1729415295106.0,0.0
-10.475778,-10.923235,-10.284351,27.299999,-25.76,57.049999,1729415295121.0,0.0
-12.466606,-11.277373,-11.174481,34.790001,14.77,29.049999,1729415295142.0,0.0
-9.925428,-10.380065,-9.377472,10.64,5.11,-7.63,1729415295165.0,0.0
-5.118248,-10.578669,-5.9342,9.52,-6.86,-35.490002,1729415295183.0,0.0
-4.342973,-10.305886,-5.003392,30.59,35.209999,-47.32,1729415295204.0,0.0
-5.726025,-8.755339,-3.522235,23.66,86.660004,-59.220001,1729415295221.0,0.0
-4.24726,-10.202995,-0.51685,26.74,82.040001,-52.709999,1729415295242.0,0.0
0.124427,-8.88455,5.84088,42.98,55.369999,-46.830002,1729415295262.0,0.0
1.773082,-5.630312,11.430513,82.879997,43.82,-17.57,1729415295281.0,0.0
-0.038285,-3.371487,9.171689,60.619999,23.940001,-1.75,1729415295304.0,0.0
-1.414158,-4.412365,5.534599,-38.779999,-4.62,21.0,1729415295321.0,0.0
-0.66999,-6.273981,0.832702,-135.029999,-36.959999,30.450001,1729415295345.0,0.0
-1.320838,-9.662218,-4.350152,-146.440002,-69.860001,35.420002,1729415295364.0,0.0
-6.017949,-11.887544,-3.589234,-63.630001,-76.230003,39.200001,1729415295381.0,0.0
-8.860621,-8.214561,-7.781459,30.66,-59.43,38.5,1729415295403.0,0.0
-11.894722,-8.62134,-10.633704,2.38,-23.799999,31.710001,1729415295421.0,0.0
-11.844472,-9.815358,-11.837293,-41.09,-11.76,2.45,1729415295442.0,0.0
-6.520442,-10.710274,-7.908278,-12.95,-22.26,-28.98,1729415295464.0,0.0
-3.519842,-8.394022,-5.510671,41.23,9.03,-25.41,1729415295482.0,0.0
-5.036892,-8.561519,-4.342973,58.52,61.810001,-28.0,1729415295502.0,0.0
-5.922236,-9.286544,-3.515057,8.05,87.290001,-35.279999,1729415295522.0,0.0
-3.510271,-12.282358,-0.571885,11.13,72.519997,-44.799999,1729415295544.0,0.0
1.284946,-8.702696,6.78126,55.23,41.369999,-23.59,1729415295563.0,0.0
1.538585,-4.453043,10.648061,107.099998,43.68,-6.65,1729415295585.0,0.0
-2.48375,-4.776074,7.458428,72.590004,28.700001,7.21,1729415295602.0,0.0
-1.823331,-5.039285,2.287539,-46.27,-5.6,13.440001,1729415295621.0,0.0
0.267996,-7.243074,-0.990629,-91.559998,-43.259998,33.529999,1729415295642.0,0.0
-1.141376,-10.157533,-3.562913,-84.349998,-57.049999,44.380001,1729415295662.0,0.0
-4.479364,-10.980663,-2.768496,-29.33,-59.920002,52.43,1729415295683.0,0.0
-8.243275,-8.551948,-7.164111,-24.710001,-62.650002,37.170002,1729415295702.0,0.0
-11.052447,-8.719445,-12.882957,-21.91,-47.670002,21.91,1729415295722.0,0.0
-9.676575,-9.79143,-10.336994,29.26,1.05,6.3,1729415295742.0,0.0
-6.752545,-10.423136,-2.998207,34.650002,13.65,-19.389999,1729415295763.0,0.0
-7.77428,-9.353544,-4.776074,56.490002,43.610001,-19.460001,1729415295781.0,0.0
-7.769495,-8.80798,-4.438686,30.450001,76.230003,-40.810001,1729415295804.0,0.0
-3.708875,-7.814958,-2.675175,18.41,66.5,-38.639999,1729415295823.0,0.0
-1.071985,-6.30748,2.859423,36.400002,80.150002,-22.26,1729415295841.0,0.0
-0.555135,-7.329216,10.356135,82.669998,79.309998,3.78,1729415295863.0,0.0
0.653241,-6.594619,11.040483,89.389999,29.26,21.139999,1729415295881.0,0.0
0.768096,-6.223732,5.974878,28.0,-22.190001,23.52,1729415295901.0,0.0
-0.540778,-9.504292,1.954936,-37.170002,-55.790001,25.620001,1729415295921.0,0.0
-0.476172,-12.145968,0.870987,-23.24,-88.199997,27.02,1729415295945.0,0.0
-3.534199,-8.879765,0.875773,3.5,-91.629997,30.380001,1729415295964.0,0.0
-6.496514,-9.035298,-0.98345,-24.01,-108.080002,53.830002,1729415295981.0,0.0
-9.111869,-7.403394,-3.536592,-53.41,-92.610001,52.849998,1729415296003.0,0.0
-10.351351,-6.15434,-5.924629,-131.389999,-61.740002,35.560001,1729415296022.0,0.0
-10.066606,-5.072784,-10.839487,-278.040009,-43.119999,6.02,1729415296041.0,0.0
-10.035499,-3.969693,-10.411172,-432.600006,-5.18,-45.709999,1729415296062.0,0.0
-8.635696,-3.105884,-10.07139,-434.980011,12.53,-61.110001,1729415296082.0,0.0
-6.096912,-1.490728,-10.420743,-378.279999,24.5,-54.880001,1729415296104.0,0.0
-5.369494,-0.665205,-12.031113,-363.440002,48.23,-29.26,1729415296121.0,0.0
-5.498707,-1.710868,-13.550553,-362.529999,69.230003,-10.43,1729415296141.0,0.0
-3.617948,-7.008578,-9.513863,-278.25,52.080002,11.62,1729415296163.0,0.0
-3.206382,-4.553542,-4.443472,-194.880005,53.970001,31.57,1729415296181.0,0.0
-4.225725,-6.24766,-5.469993,-173.880005,32.48,44.310001,1729415296202.0,0.0
-1.835295,-11.332408,-8.243275,-190.680008,-2.45,21.35,1729415296220.0,0.0
-0.744168,-11.930614,-8.001599,-100.940002,-2.1,17.57,1729415296242.0,0.0
-1.29691,-10.016356,-5.936593,-44.170002,0.56,4.06,1729415296262.0,0.0
-0.885344,-9.777073,-5.996413,-32.830002,-22.960001,-17.43,1729415296281.0,0.0
-0.464208,-9.202796,-7.453642,-8.19,-42.77,-28.35,1729415296302.0,0.0
-1.275374,-6.733403,-9.781858,28.35,-42.91,-38.009998,1729415296320.0,0.0
-1.895115,-4.754539,-10.289137,53.48,-42.07,-42.91,1729415296341.0,0.0
-2.517249,-3.15374,-10.837094,49.420002,-38.779999,-51.59,1729415296363.0,0.0
-4.134798,-1.019342,-9.822537,25.48,-38.150002,-55.580002,1729415296381.0,0.0
-8.348558,-0.18664,-10.645668,13.02,-26.25,-47.880001,1729415296401.0,0.0
-11.442478,3.682554,-11.490334,20.370001,5.95,-22.469999,1729415296421.0,0.0
-11.60519,5.929415,-11.243874,81.550003,21.35,19.110001,1729415296441.0,0.0
-9.332008,4.022335,-8.159525,60.27,28.700001,44.029999,1729415296462.0,0.0
-6.448657,-0.27996,-9.06162,-8.05,17.85,36.189999,1729415296482.0,0.0
-7.209574,-1.531406,-8.4012,-29.120001,36.82,31.43,1729415296502.0,0.0
-7.051648,-0.375673,-7.726424,27.790001,51.73,42.139999,1729415296521.0,0.0
-5.776274,1.859223,-7.69771,44.869999,47.950001,65.029999,1729415296541.0,0.0
-4.922036,-2.184647,-6.211767,-10.5,49.279999,73.010002,1729415296561.0,0.0
-1.569692,-9.047262,-7.484749,-84.419998,26.110001,58.869999,1729415296581.0,0.0
1.598405,-17.254644,-7.23111,-59.57,-4.27,35.84,1729415296602.0,0.0
1.79701,-14.117653,-6.226124,4.27,-2.94,-8.19,1729415296622.0,0.0
-1.840081,-9.789038,-5.426922,120.050003,7.7,-8.75,1729415296641.0,0.0
-3.026921,-5.347959,-9.193225,187.880005,-16.309999,-2.94,1729415296663.0,0.0
-2.885744,-4.022335,-12.277573,186.759995,-31.639999,2.1,1729415296680.0,0.0
-2.395216,-4.134798,-11.691331,110.18,-24.43,-14.07,1729415296702.0,0.0
-4.242475,-4.656433,-4.206582,67.480003,-22.68,-29.889999,1729415296721.0,0.0
-5.627919,-4.316652,-8.772088,170.029999,-13.3,-40.950001,1729415296741.0,0.0
-5.161318,-2.352145,-9.745967,167.930008,-23.799999,-31.99,1729415296763.0,0.0
-6.955935,-3.06042,-10.51167,89.949997,1.26,-33.25,1729415296781.0,0.0
-10.133603,-6.195018,-9.224331,97.090004,72.730003,-11.9,1729415296802.0,0.0
-9.74836,-0.624527,-10.612168,184.100006,29.75,-2.31,1729415296820.0,0.0
-4.989035,-0.937986,-7.578069,209.580002,-26.040001,-7.77,1729415296841.0,0.0
-3.646662,-1.579263,-4.828716,128.520004,34.23,1.68,1729415296862.0,0.0
-6.874579,-6.235696,-4.07737,29.26,64.120003,7.63,1729415296880.0,0.0
-8.298308,-9.377472,-7.743174,-7.21,66.290001,-0.91,1729415296908.0,0.0
-5.134997,-7.743174,-6.001199,68.110001,32.27,-4.48,1729415296920.0,0.0
-2.464607,-3.570091,-8.331808,103.32,44.59,13.65,1729415296943.0,0.0
-3.259024,-4.893322,-4.455436,57.75,66.709999,13.440001,1729415296964.0,0.0
-3.629912,-9.245867,-4.532006,-15.89,73.43,14.91,1729415296982.0,0.0
-1.916651,-12.894921,-1.864009,-1.19,48.299999,6.44,1729415297001.0,0.0
-0.37328,-11.822936,0.710668,60.689999,28.77,-2.94,1729415297021.0,0.0
0.117248,-10.313066,-0.208176,71.540001,10.36,-16.24,1729415297042.0,0.0
-0.978664,-8.070991,-0.772882,40.740002,-12.04,-18.27,1729415297063.0,0.0
-1.244268,-7.508677,-1.344766,9.31,-30.66,-20.58,1729415297081.0,0.0
-1.265803,-10.293922,-4.130012,-27.16,-45.990002,-24.639999,1729415297104.0,0.0
-1.835295,-8.413164,-4.821537,-71.260002,-47.529999,-39.48,1729415297122.0,0.0
-3.704089,-6.343372,-4.699504,-82.25,-37.029999,-29.82,1729415297144.0,0.0
-4.302295,-4.443472,-8.073383,-128.380005,-45.57,-43.330002,1729415297162.0,0.0
-6.039484,-4.488935,-8.863015,-160.160004,-25.27,-37.869999,1729415297181.0,0.0
-8.190632,-3.455236,-8.736196,-200.059998,-14.84,-38.5,1729415297204.0,0.0
-8.449057,-1.177269,-9.856036,-246.610001,-22.960001,-43.75,1729415297222.0,0.0
-6.534799,-1.969293,-9.674182,-283.290009,-37.869999,-51.170002,1729415297242.0,0.0
-4.838287,-3.278167,-10.231709,-301.630005,-30.940001,-59.290001,1729415297265.0,0.0
-4.017549,-3.881158,-9.934999,-290.570007,-7.07,-56.77,1729415297282.0,0.0
-4.768896,-2.656033,-10.585848,-265.579987,11.13,-40.110001,1729415297304.0,0.0
-3.515057,-1.665405,-10.078569,-233.100006,4.48,-29.26,1729415297322.0,0.0
-3.072384,-2.660819,-9.193225,-181.720001,2.1,-16.450001,1729415297343.0,0.0
-2.610569,-3.079563,-8.413164,-107.309998,1.82,0.91,1729415297363.0,0.0
-1.871187,-2.945565,-9.183653,-82.669998,-5.32,3.01,1729415297382.0,0.0
-0.715454,-4.297509,-9.609575,-71.120003,-7.35,-2.17,1729415297403.0,0.0
0.555135,-6.79083,-9.497113,-55.650002,-11.62,-2.52,1729415297423.0,0.0
1.28016,-7.080362,-9.068797,-28.07,-16.73,-6.65,1729415297492.0,0.0
0.342174,-4.201797,-8.776874,-7.35,-17.08,-15.89,1729415297494.0,0.0
-1.368695,-1.524228,-10.028319,-2.31,-16.59,-19.040001,1729415297497.0,0.0
-2.009971,-1.387837,-11.449656,3.01,-15.47,-18.34,1729415297522.0,0.0
-2.493321,-1.354338,-11.60519,32.900002,-8.89,-20.23,1729415297524.0,0.0
-5.252246,-0.349352,-10.420743,56.420002,5.25,-19.809999,1729415297544.0,0.0
-7.06122,0.062213,-9.623933,72.730003,14.28,-6.44,1729415297564.0,0.0
-6.407979,-1.442872,-9.482756,99.75,21.49,11.69,1729415297583.0,0.0
-5.424529,-3.814159,-9.425328,147.419998,32.41,13.93,1729415297604.0,0.0
-5.144568,-3.742374,-9.336794,224.770004,45.5,15.82,1729415297638.0,0.0
-4.09412,-1.715654,-7.496714,295.26001,47.110001,20.23,1729415297643.0,0.0
-1.885544,-2.057827,-7.779066,314.929993,14.07,26.950001,1729415297665.0,0.0
-1.256232,-4.852644,-8.01117,210.350006,10.29,14.56,1729415297683.0,0.0
-1.141376,-6.838687,-7.877172,152.110001,-5.39,16.73,1729415297703.0,0.0
-1.105484,-8.176274,-7.128219,156.660004,-10.5,22.469999,1729415297724.0,0.0
-1.445265,-8.800802,-5.206782,182.210007,-4.76,31.01,1729415297743.0,0.0
-1.830509,-8.439486,-4.335794,191.800003,-1.89,38.080002,1729415297764.0,0.0
-2.756532,-8.190632,-3.952943,202.649994,4.48,41.09,1729415297782.0,0.0
-3.814159,-8.300702,-5.548956,208.25,13.16,34.93,1729415297803.0,0.0
-3.938586,-7.013363,-5.278566,215.25,10.36,29.33,1729415297823.0,0.0
-3.402594,-7.06122,-3.505485,204.190002,-1.61,26.18,1729415297854.0,0.0
-4.13719,-8.956335,-2.529213,177.940002,-7.63,19.879999,1729415297864.0,0.0
-4.704289,-8.523234,-3.809374,166.740005,-11.83,19.74,1729415297882.0,0.0
-5.314459,-7.168896,-5.048856,144.270004,-7.0,23.66,1729415297903.0,0.0
-7.408179,-8.642875,-3.9673,110.949997,5.18,34.720001,1729415297923.0,0.0
-7.290931,-8.566305,-3.936193,53.34,8.19,15.12,1729415297943.0,0.0
-6.223732,-7.771888,-3.649055,33.110001,-4.06,30.940001,1729415297963.0,0.0
-5.015356,-9.664611,-2.888137,22.82,4.55,13.51,1729415297983.0,0.0
-5.314459,-8.738588,-2.318645,33.599998,32.830002,7.42,1729415298013.0,0.0
-5.20439,-8.243275,-1.469193,26.460001,37.66,2.03,1729415298022.0,0.0
-4.65404,-9.4349,-2.26361,-14.91,33.810001,-13.58,1729415298059.0,0.0
-4.21376,-10.805987,-2.208575,-18.200001,34.09,-17.85,1729415298077.0,0.0
-2.507678,-11.196017,-1.356731,5.81,34.16,-23.379999,1729415298090.0,0.0
-1.167697,-9.51147,1.825724,37.029999,37.310001,-26.18,1729415298106.0,0.0
-1.131805,-9.085547,2.139183,1.75,32.41,-34.23,1729415298226.0,0.0
-0.997807,-9.10469,0.842274,-59.709999,13.86,-44.029999,1729415298227.0,0.0
-2.141576,-7.034898,2.603391,-108.989998,6.02,-39.060001,1729415298229.0,0.0
-2.998207,-8.41795,-0.591027,-180.949997,-13.23,-44.939999,1729415298231.0,0.0
-2.213361,-9.987641,-3.495914,-222.460007,-29.68,-53.619999,1729415298232.0,0.0
-1.488336,-8.946764,-4.06062,-213.710007,-28.630001,-46.759998,1729415298234.0,0.0
-1.65344,-6.702296,-4.845466,-212.869995,-15.96,-45.290001,1729415298365.0,0.0
-2.172683,-6.211767,-3.905087,-230.300003,-12.6,-48.580002,1729415298366.0,0.0
-4.917251,-6.515656,-5.510671,-261.450012,-13.16,-48.93,1729415298367.0,0.0
-5.302495,-5.465207,-6.838687,-248.850006,-36.75,-47.040001,1729415298368.0,0.0
-6.02752,-1.06002,-8.953942,-225.889999,-46.549999,-31.360001,1729415298369.0,0.0
-5.469993,-0.952343,-8.566305,-277.76001,-44.799999,-21.700001,1729415298370.0,0.0
-3.790231,-3.677768,-9.186047,-303.660004,-43.400002,-26.809999,1729415298370.0,0.0
-3.881158,-4.699504,-11.126624,-258.160004,-34.509998,-23.940001,1729415298381.0,0.0
-5.623133,-3.235096,-11.380265,-172.619995,-8.47,-5.46,1729415298402.0,0.0
-5.199604,-0.904487,-9.107083,-120.470001,-3.99,11.62,1729415298422.0,0.0
-4.998606,-2.416751,-9.683753,-130.270004,-5.74,16.030001,1729415298441.0,0.0
-3.419343,-6.072984,-10.8682,-100.029999,-7.14,9.73,1729415298463.0,0.0
-2.598605,-5.828916,-13.58166,29.960001,3.22,24.08,1729415298481.0,0.0
-1.351945,-7.066005,-12.394822,168.350006,31.710001,27.16,1729415298502.0,0.0
0.165105,-8.664411,-9.183653,301.070007,42.420002,39.970001,1729415298521.0,0.0
1.883151,-10.377672,-7.32443,397.600006,34.580002,30.450001,1729415298541.0,0.0
1.916651,-7.709675,-7.585248,474.600006,24.08,28.07,1729415298563.0,0.0
0.382852,-5.058427,-6.233303,524.859985,32.619999,35.630001,1729415298581.0,0.0
-0.861416,-4.316652,-3.964907,486.779999,32.130001,39.830002,1729415298603.0,0.0
-1.952543,-5.347959,0.150748,334.600006,22.540001,32.900002,1729415298627.0,0.0
-3.538985,-5.448457,8.901299,161.979996,-1.47,27.51,1729415298645.0,0.0
-10.210175,-4.572684,-4.23051,106.400002,-34.720001,11.41,1729415298663.0,0.0
-3.972085,-8.173882,-4.254438,-36.959999,-98.209999,21.559999,1729415298681.0,0.0
-1.134198,-6.819544,-4.587041,8.89,-75.529999,48.23,1729415298702.0,0.0
-5.757132,-8.597411,-6.178268,72.519997,-33.32,55.510002,1729415298722.0,0.0
-9.736395,-9.932607,-7.877172,72.449997,-14.28,52.290001,1729415298744.0,0.0
-10.753345,-10.593026,-11.779866,16.309999,-14.28,22.33,1729415298767.0,0.0
-7.932207,-9.552148,-9.308081,-14.42,0.98,-13.86,1729415298782.0,0.0
-3.381058,-8.611769,-7.606783,7.28,1.26,-17.219999,1729415298802.0,0.0
-3.795017,-9.107083,-6.427122,19.040001,55.93,-30.24,1729415298822.0,0.0
-6.484549,-10.025927,-4.063013,19.110001,93.519997,-30.450001,1729415298842.0,0.0
-5.723632,-10.13839,-4.168297,28.0,92.260002,-40.529999,1729415298864.0,0.0
-2.258825,-10.851451,-3.818945,68.040001,87.779999,-42.490002,1729415298882.0,0.0
-1.024128,-10.432706,1.710868,122.150002,104.93,-44.240002,1729415298902.0,0.0
-0.595813,-7.372287,7.427321,140.139999,96.879997,-39.27,1729415298921.0,0.0
0.449851,-4.04387,8.999406,94.220001,46.830002,-31.290001,1729415298949.0,0.0
0.394816,-3.897908,7.424929,49.349998,0.63,-9.66,1729415298965.0,0.0
-0.172283,-6.240481,4.335794,16.52,-25.83,5.88,1729415298983.0,0.0
-2.158326,-9.676575,2.545963,12.39,-50.470001,20.440001,1729415299003.0,0.0
-4.534399,-8.185846,0.191426,14.84,-53.689999,23.450001,1729415299022.0,0.0
-4.673182,-6.67119,-1.454836,7.98,-62.23,35.490002,1729415299042.0,0.0
-4.938786,-7.463214,-3.972085,15.05,-67.129997,50.259998,1729415299068.0,0.0
-6.151947,-9.332008,-5.728417,29.540001,-65.449997,54.110001,1729415299084.0,0.0
-7.020542,-10.518847,-3.809374,44.240002,-56.209999,51.450001,1729415299107.0,0.0
-7.810174,-8.903693,-3.304488,-30.17,-42.84,47.110001,1729415299124.0,0.0
-7.793423,-7.049256,-4.960321,-165.479996,-37.939999,31.710001,1729415299143.0,0.0
-6.486942,-4.063013,-6.202196,-315.630005,-40.599998,-1.75,1729415299167.0,0.0
-5.343173,-5.166104,-7.62114,-421.679993,-42.560001,-24.01,1729415299184.0,0.0
-5.371887,-5.982057,-8.635696,-472.01001,-20.09,-34.650002,1729415299205.0,0.0
-4.902894,-8.226524,-11.612368,-453.110016,4.2,-33.32,1729415299223.0,0.0
-3.117848,-6.879365,-11.143374,-411.600006,19.950001,-30.380001,1729415299245.0,0.0
-2.502892,-4.68754,-10.076177,-324.869995,34.860001,-6.65,1729415299265.0,0.0
-4.031906,-8.446664,-6.908078,-230.580002,43.959999,17.5,1729415299283.0,0.0
-4.24726,-5.977271,-5.814559,-139.860001,24.15,31.780001,1729415299303.0,0.0
-3.122634,-5.381458,-7.054041,-131.460007,-1.61,26.32,1729415299323.0,0.0
-2.639283,-6.034698,-9.119047,-137.550003,-2.31,23.52,1729415299343.0,0.0
-3.522235,-7.999206,-8.006385,-96.32,7.84,31.57,1729415299366.0,0.0
-2.622534,-7.963314,-7.755138,-47.040001,0.21,24.57,1729415299383.0,0.0
-1.808974,-7.56132,-6.594619,-16.799999,-7.35,17.57,1729415299407.0,0.0
-1.548156,-7.503892,-6.364908,-18.620001,-19.74,5.67,1729415299426.0,0.0
-1.756332,-8.657232,-6.963113,-12.6,-34.299999,-7.28,1729415299445.0,0.0
-2.079363,-8.427521,-7.89153,15.68,-42.84,-24.639999,1729415299465.0,0.0
-2.699104,-6.376873,-8.963513,44.73,-44.73,-36.540001,1729415299485.0,0.0
-3.452843,-5.213961,-9.516255,52.639999,-42.77,-42.0,1729415299506.0,0.0
-4.151547,-4.754539,-9.786645,47.880001,-36.119999,-49.490002,1729415299526.0,0.0
-4.352544,-3.337988,-10.234102,33.880001,-34.439999,-58.799999,1729415299545.0,0.0
-5.402994,0.150748,-11.196017,30.030001,-23.24,-54.670002,1729415299566.0,0.0
-8.262416,1.691726,-10.882557,31.290001,9.73,-35.560001,1729415299585.0,0.0
-8.757731,3.974478,-10.724631,38.150002,20.299999,-16.66,1729415299605.0,0.0
-8.097312,2.600998,-9.092726,59.080002,27.370001,8.54,1729415299624.0,0.0
-6.092126,-0.696311,-9.576077,26.32,21.139999,6.72,1729415299646.0,0.0
-5.108676,-0.602991,-8.662018,9.87,33.32,17.219999,1729415299670.0,0.0
-6.520442,-1.272982,-9.01137,18.129999,53.619999,44.240002,1729415299685.0,0.0
-6.235696,-3.127419,-9.243474,37.310001,61.950001,56.07,1729415299704.0,0.0
-5.570491,-4.666004,-8.915657,48.93,71.190002,75.32,1729415299724.0,0.0
-4.886144,-10.023535,-2.830709,66.709999,76.160004,67.760002,1729415299744.0,0.0
-3.333202,-7.886744,-2.158326,-4.83,58.73,39.130001,1729415299765.0,0.0
-0.136391,-10.439885,-7.221539,-43.75,-11.2,15.68,1729415299785.0,0.0
0.234497,-14.67518,-9.020942,-62.439999,0.35,-15.26,1729415299804.0,0.0
-0.969093,-12.110075,-8.77448,12.67,21.0,-35.209999,1729415299824.0,0.0
-3.515057,-6.477371,-7.733603,70.980003,33.599998,-33.18,1729415299844.0,0.0
-3.751946,-5.924629,-10.250853,69.650002,19.110001,-46.130001,1729415299864.0,0.0
-1.713261,-6.037091,-9.410972,37.170002,15.89,-53.689999,1729415299884.0,0.0
-2.411965,-6.465407,-6.312266,49.77,18.83,-46.619999,1729415299905.0,0.0
-2.751746,-8.178668,-6.771688,137.270004,9.24,-48.790001,1729415299923.0,0.0
-1.124627,-7.869993,-11.016556,235.199997,-5.32,-45.990002,1729415299945.0,0.0
-0.399601,-3.921836,-8.82473,334.110016,9.66,-8.26,1729415299968.0,0.0
-1.531406,0.16989,-7.04447,369.320007,30.309999,32.48,1729415299984.0,0.0
-2.531606,-2.029114,-3.864408,336.279999,20.440001,53.48,1729415300004.0,0.0
-4.905287,-5.723632,-2.87378,262.98999,18.200001,50.259998,1729415300025.0,0.0
-6.113662,-8.475377,-8.475377,191.940002,-4.55,23.379999,1729415300044.0,0.0
-5.245068,-12.667603,-10.537991,186.339996,-10.5,10.43,1729415300066.0,0.0
-5.723632,-9.932607,-9.097511,189.630005,25.76,21.0,1729415300084.0,0.0
-6.869793,-9.075976,-5.745167,213.919998,67.690002,17.99,1729415300107.0,0.0
-6.486942,-8.516055,-1.509871,167.300003,68.879997,-0.35,1729415300125.0,0.0
-3.361916,-4.235296,-0.39003,103.599998,40.18,-5.88,1729415300145.0,0.0
-1.284946,-3.902694,4.182654,73.43,41.09,-4.9,1729415300166.0,0.0
-2.486143,-5.489135,7.501499,22.889999,51.73,10.29,1729415300184.0,0.0
-2.065006,-6.364908,9.190832,-26.040001,31.99,26.74,1729415300205.0,0.0
0.069392,-7.525427,8.499306,-39.34,2.8,28.139999,1729415300224.0,0.0
0.61017,-8.037491,3.074777,-38.009998,-26.25,37.799999,1729415300244.0,0.0
-0.629312,-7.118648,0.071785,-7.0,-58.380001,73.779999,1729415300266.0,0.0
-4.800002,-8.099705,-2.864209,-14.7,-53.48,102.760002,1729415300284.0,0.0
-10.817951,-12.574283,-8.913264,-28.84,-35.98,119.559998,1729415300305.0,0.0
-14.97907,-20.477777,-11.32523,23.940001,-2.94,79.660004,1729415300324.0,0.0
-11.437693,-16.828722,-11.064411,85.959999,14.0,9.38,1729415300346.0,0.0
-9.712467,-8.896514,-6.991827,89.25,59.709999,-50.610001,1729415300365.0,0.0
-9.456435,-7.439285,-4.45065,15.4,90.090004,-88.199997,1729415300384.0,0.0
-5.491528,-8.908479,-2.313859,-64.959999,77.699997,-124.949997,1729415300407.0,0.0
-1.689333,-5.551349,5.647062,-32.27,76.790001,-112.349998,1729415300425.0,0.0
2.383251,-0.31346,10.676775,28.91,63.490002,-65.239998,1729415300445.0,0.0
6.199803,0.887737,11.133803,48.299999,12.39,-17.710001,1729415300466.0,0.0
3.290131,-3.885944,7.109076,-38.849998,-27.790001,27.860001,1729415300484.0,0.0
-0.844666,-7.89153,2.715853,-124.669998,-46.619999,58.73,1729415300507.0,0.0
-2.39043,-9.018548,-1.684547,-123.480003,-71.120003,78.190002,1729415300525.0,0.0
-5.481956,-11.995219,-7.41775,-44.939999,-76.370003,92.400002,1729415300544.0,0.0
-14.524432,-18.276379,-9.49472,28.07,-24.57,97.93,1729415300567.0,0.0
-12.279965,-13.232309,-9.793823,40.389999,4.9,11.41,1729415300584.0,0.0
-10.796415,-11.059627,-6.692725,48.369999,41.16,-58.59,1729415300604.0,0.0
-10.08814,-7.9681,-3.359523,56.279999,74.550003,-95.550003,1729415300625.0,0.0
-5.62074,-3.952943,0.909273,18.969999,61.25,-105.840004,1729415300645.0,0.0
-0.165105,-3.737589,4.041477,-14.42,42.77,-94.919998,1729415300665.0,0.0
2.069792,-5.091926,6.259624,-8.54,39.900002,-71.82,1729415300685.0,0.0
3.668197,-4.457829,8.114061,31.360001,24.01,-20.370001,1729415300706.0,0.0
5.022535,-4.161119,6.783652,3.36,-16.59,13.58,1729415300724.0,0.0
2.600998,-7.276574,2.081756,-73.150002,-51.869999,52.639999,1729415300745.0,0.0
-0.976272,-7.640282,-1.210768,-92.190002,-63.0,81.900002,1729415300765.0,0.0
-3.558127,-9.305687,-3.608376,-12.95,-80.43,105.980003,1729415300786.0,0.0
-10.231709,-11.612368,-4.98425,46.759998,-61.880001,126.0,1729415300805.0,0.0
-16.567905,-15.81895,-7.719246,30.24,-28.210001,92.889999,1729415300826.0,0.0
-15.244674,-13.974084,-12.260822,-12.18,-3.92,25.549999,1729415300843.0,0.0
-12.902101,-13.646267,-9.35833,32.759998,36.68,-42.98,1729415300865.0,0.0
-12.758532,-12.356536,-6.484549,48.439999,76.510002,-104.370003,1729415300884.0,0.0
-7.80778,-8.178668,-2.242075,15.05,75.25,-131.949997,1729415300904.0,0.0
1.624727,-5.079963,3.550949,17.360001,50.82,-126.910004,1729415300924.0,0.0
3.878766,-1.756332,8.099705,35.349998,60.760002,-91.0,1729415300944.0,0.0
6.360123,-0.045464,11.645866,69.370003,41.860001,-27.58,1729415300966.0,0.0
4.512863,-1.911865,11.356337,35.07,4.27,21.210001,1729415300986.0,0.0
0.200997,-5.587241,6.532406,-53.830002,-39.27,61.25,1729415301005.0,0.0
-0.827917,-6.975078,0.79681,-90.650002,-86.519997,80.57,1729415301026.0,0.0
-3.598805,-8.16431,-3.926622,-55.16,-109.480003,105.840004,1729415301044.0,0.0
-10.250853,-11.660224,-4.584648,-7.91,-90.580002,133.350006,1729415301066.0,0.0
-16.950754,-18.295523,-8.185846,-23.940001,-66.220001,102.970001,1729415301084.0,0.0
-17.309679,-21.013769,-15.917056,-48.790001,-27.370001,24.290001,1729415301108.0,0.0
-12.97867,-16.290337,-12.861421,37.029999,23.24,-57.260002,1729415301123.0,0.0
-10.191031,-8.039884,-6.908078,127.190002,79.519997,-104.019997,1729415301145.0,0.0
-7.393822,-3.574877,-1.40698,124.879997,89.32,-126.770004,1729415301167.0,0.0
-3.084348,-2.644069,0.12682,47.040001,69.370003,-122.080002,1729415301186.0,0.0
0.468993,-0.5001,3.804588,-17.5,62.510002,-100.099998,1729415301205.0,0.0
3.457629,-1.095913,6.149554,-29.049999,59.150002,-57.68,1729415301223.0,0.0
2.63689,-5.178068,6.13759,-35.630001,35.07,-28.280001,1729415301244.0,0.0
2.225325,-10.246067,3.768696,21.42,-25.9,10.64,1729415301264.0,0.0
0.844666,-9.729217,1.837688,65.029999,-43.189999,26.460001,1729415301283.0,0.0
-1.505085,-8.449057,4.280759,109.480003,-43.400002,75.389999,1729415301304.0,0.0
-4.512863,-9.298509,2.675175,8.61,-57.82,84.279999,1729415301323.0,0.0
-6.551548,-11.475977,-1.251446,-143.430008,-74.059998,71.610001,1729415301344.0,0.0
-5.979663,-15.967306,-5.132604,-181.020004,-92.190002,52.080002,1729415301367.0,0.0
-7.508677,-15.002998,-2.586641,-52.220001,-57.959999,39.619999,1729415301383.0,0.0
-6.446264,-5.87438,-3.754339,82.32,-39.549999,38.290001,1729415301406.0,0.0
-6.254838,-8.992228,-0.567099,147.910004,-24.43,45.849998,1729415301424.0,0.0
-7.360322,-10.892128,-1.804188,114.309998,-15.61,18.200001,1729415301443.0,0.0
-7.805387,-10.504492,-2.98385,181.089996,-10.01,46.34,1729415301468.0,0.0
-8.252845,-13.105491,0.260818,220.149994,6.16,36.189999,1729415301484.0,0.0
-8.240881,-12.815958,2.239682,213.919998,6.09,23.870001,1729415301505.0,0.0
-5.895915,-11.96172,-0.488136,308.700012,13.440001,-17.08,1729415301524.0,0.0
-5.242674,-12.260822,-1.191626,359.170013,37.59,-56.420002,1729415301546.0,0.0
-6.831509,-10.420743,1.957329,360.709991,49.560001,-83.510002,1729415301565.0,0.0
-4.802395,3.998406,7.65464,303.029999,53.689999,-90.510002,1729415301584.0,0.0
-3.775874,1.45005,7.262216,116.970001,16.1,-55.860001,1729415301604.0,0.0
-4.139583,-8.26481,4.649254,24.710001,-5.18,-78.540001,1729415301623.0,0.0
-3.491128,-9.128618,4.488935,88.620003,17.15,-79.309998,1729415301644.0,0.0
-0.954736,-2.629712,7.133004,172.550003,43.119999,-72.870003,1729415301666.0,0.0
0.363709,1.828116,8.329416,129.289993,49.700001,-53.200001,1729415301688.0,0.0
0.12682,0.631705,7.164111,67.340004,40.389999,-25.76,1729415301890.0,0.0
-2.754139,-2.244468,6.821937,62.720001,39.060001,20.440001,1729415301936.0,0.0
-3.809374,-5.230711,4.709075,54.25,39.619999,38.57,1729415301936.0,0.0
-4.007978,-6.577869,3.795017,62.580002,45.150002,43.889999,1729415301936.0,0.0
-4.208975,-7.743174,7.293324,108.150002,51.66,51.799999,1729415301937.0,0.0
-9.245867,-10.9352,8.726624,120.540001,39.34,48.16,1729415301937.0,0.0
-12.007183,-13.861622,1.438086,100.449997,18.48,7.91,1729415301937.0,0.0
-8.743374,-4.728218,5.87438,117.669998,25.76,-44.029999,1729415301937.0,0.0
-6.139983,-2.100898,7.726424,84.769997,23.799999,-36.400002,1729415301937.0,0.0
-6.161518,-4.024727,7.580462,46.200001,12.32,-47.599998,1729415301939.0,0.0
-4.218546,-7.60439,7.094719,25.76,-1.54,-82.459999,1729415301939.0,0.0
-0.806381,-3.400201,5.850451,20.299999,-0.7,-95.690002,1729415301939.0,0.0
-0.717847,3.811767,7.142576,36.330002,20.16,-66.080002,1729415301945.0,0.0
-1.272982,4.101298,6.391229,-1.12,14.98,-21.35,1729415301967.0,0.0
-4.34058,1.509871,5.32403,-27.65,8.54,21.49,1729415301998.0,0.0
-5.778666,-1.129412,5.28096,-10.92,7.98,55.720001,1729415302013.0,0.0
-5.599205,-4.015156,7.121039,17.710001,9.17,61.110001,1729415302023.0,0.0
-6.79083,-6.85783,9.131011,30.52,8.54,74.970001,1729415302043.0,0.0
-11.327622,-11.05484,10.092925,23.799999,-1.33,53.830002,1729415302064.0,0.0
-12.96192,-13.141381,8.212167,5.6,-22.610001,14.7,1729415302084.0,0.0
-8.183454,-7.800602,5.666204,5.6,-30.66,-49.209999,1729415302107.0,0.0
-4.558327,-2.364109,5.216353,6.37,-14.35,-77.489998,1729415302199.0,0.0
-2.758924,-1.31366,5.972485,-18.76,6.3,-76.510002,1729415302200.0,0.0
-3.278167,-2.981457,6.975078,-47.459999,16.870001,-76.230003,1729415302214.0,0.0
-1.909473,-1.74676,7.523034,-45.220001,10.64,-62.580002,1729415302220.0,0.0
-1.493121,0.256032,7.334002,-28.139999,5.67,-33.670002,1729415302220.0,0.0
0.854238,4.441079,7.843673,-28.139999,0.7,23.799999,1729415302231.0,0.0
-3.63709,1.122234,6.573084,-52.290001,-2.66,71.959999,1729415302244.0,0.0
-6.223732,-0.253639,5.206782,-56.349998,-1.19,105.769997,1729415302273.0,0.0
-6.644868,-6.111269,8.930015,-59.010002,-12.46,109.900002,1729415302288.0,0.0
-10.375278,-9.154939,9.023334,-66.43,-23.66,99.82,1729415302310.0,0.0
-10.691131,-8.008778,8.537591,-66.360001,-32.34,80.849998,1729415302325.0,0.0
-9.889536,-12.622139,7.73121,-110.529999,-55.439999,35.98,1729415302346.0,0.0
-7.188039,-9.999605,6.238089,-126.559998,-58.799999,0.42,1729415302367.0,0.0
-5.898308,-6.257231,6.324231,-125.300003,-60.48,2.87,1729415302386.0,0.0
-6.075377,-5.04407,5.692525,-182.910004,-60.27,-20.719999,1729415302407.0,0.0
-5.513064,-4.977071,2.837888,-251.790009,-66.360001,-38.709999,1729415302427.0,0.0
-4.783253,-7.106683,-0.294317,-291.480011,-61.950001,-50.75,1729415302512.0,0.0
-0.815953,-9.994821,4.436293,-286.929993,-61.880001,-77.0,1729415302513.0,0.0
-0.571885,-7.030113,4.701896,-262.779999,-42.420002,-61.599998,1729415302516.0,0.0
-1.76351,-0.981057,2.56032,-215.600006,-24.08,-56.279999,1729415302519.0,0.0
-3.005385,-0.830309,0.528814,-269.079987,-21.77,-28.98,1729415302525.0,0.0
-2.782853,-1.457229,-0.701097,-404.670013,-52.080002,-14.56,1729415302549.0,0.0
-2.562713,-7.692925,-2.218147,-442.820007,-60.760002,0.42,1729415302567.0,0.0
-2.517249,-16.441084,-4.189832,-317.100006,-64.889999,14.49,1729415302585.0,0.0
-5.448457,-15.730415,-0.184247,-214.759995,-67.410004,27.719999,1729415302606.0,0.0
-6.185446,-10.176675,-3.847659,-195.649994,-73.290001,8.19,1729415302625.0,0.0
-4.074977,-4.929214,-5.726025,-238.839996,-86.590004,4.83,1729415302645.0,0.0
-5.180461,-14.632111,-9.710074,-209.860001,-45.920002,2.66,1729415302666.0,0.0
-6.171089,-16.855042,-12.421142,-127.959999,12.46,-12.53,1729415302686.0,0.0
-7.140182,-11.923435,-7.003791,58.869999,70.07,-10.64,1729415302706.0,0.0
-5.125426,-8.638089,-5.192425,83.860001,82.32,-14.98,1729415302726.0,0.0
-1.588834,-9.229117,-4.532006,66.919998,81.900002,-33.25,1729415302745.0,0.0
1.18684,-10.590633,-0.650848,83.300003,83.090004,-19.040001,1729415302766.0,0.0
1.562513,-8.176274,8.68116,146.440002,90.650002,-3.57,1729415302865.0,0.0
0.55992,-4.290331,11.018949,199.289993,49.91,18.41,1729415302865.0,0.0
-1.957329,-2.59382,12.629318,143.639999,-1.47,36.610001,1729415302865.0,0.0
-1.942972,-4.316652,5.24746,3.99,-70.209999,42.139999,1729415302866.0,0.0
-3.029313,-4.850252,-4.931608,-168.070007,-141.889999,44.939999,1729415302866.0,0.0
-7.867601,-11.483156,-12.847065,-158.619995,-132.649994,55.09,1729415302890.0,0.0
-10.41835,-18.005989,-18.977476,-46.549999,-76.580002,37.029999,1729415302906.0,0.0
-11.289338,-15.022141,-13.85205,105.699997,-14.84,41.02,1729415302924.0,0.0
-9.745967,-9.96132,-10.41835,124.669998,25.27,-3.29,1729415302946.0,0.0
-6.376873,-7.805387,-6.45105,76.300003,34.439999,-37.310001,1729415302976.0,0.0
-3.787838,-8.109276,-5.295317,78.120003,36.68,-43.119999,1729415303041.0,0.0
-3.804588,-7.518249,-3.773481,39.759998,78.75,-59.990002,1729415303042.0,0.0
-4.022335,-8.094919,-0.351745,8.47,101.989998,-53.130001,1729415303042.0,0.0
-1.48355,-8.975478,3.720839,12.18,90.090004,-40.599998,1729415303049.0,0.0
-0.320638,-8.128418,10.049855,55.510002,76.230003,-17.219999,1729415303070.0,0.0
0.01675,-4.630112,11.095518,112.349998,35.349998,3.08,1729415303088.0,0.0
-0.985843,-3.909872,7.62114,61.599998,-8.05,17.92,1729415303108.0,0.0
-2.447858,-6.132804,3.503092,-77.489998,-42.349998,16.1,1729415303126.0,0.0
-1.545763,-9.731609,0.557528,-148.119995,-91.419998,23.799999,1729415303144.0,0.0
-3.797409,-12.217752,-2.160719,-102.410004,-108.220001,25.41,1729415303165.0,0.0
-8.350951,-8.365308,-9.085547,-29.049999,-94.849998,37.170002,1729415303184.0,0.0
-9.633504,-10.875379,-12.449856,-31.360001,-31.219999,23.73,1729415303206.0,0.0
-9.332008,-14.703895,-12.770494,-9.1,9.87,5.25,1729415303224.0,0.0
-5.821737,-11.69851,-7.99442,78.75,35.98,-20.16,1729415303246.0,0.0
-5.094319,-8.032705,-5.716454,118.580002,62.23,-30.59,1729415303266.0,0.0
-4.0008,-7.539784,-2.792424,44.310001,83.090004,-51.450001,1729415303285.0,0.0
-1.694118,-9.982857,2.222932,-10.43,74.690002,-48.439999,1729415303306.0,0.0
0.557528,-9.272188,7.707282,13.09,73.220001,-44.450001,1729415303325.0,0.0
0.248854,-5.166104,12.849458,72.870003,46.689999,-18.83,1729415303344.0,0.0
-1.550549,-3.172883,8.965906,44.380001,-2.24,-0.21,1729415303365.0,0.0
-2.359323,-2.85703,4.400401,-108.010002,-42.07,0.14,1729415303385.0,0.0
-0.969093,-6.175875,-0.241675,-193.970001,-93.029999,16.379999,1729415303405.0,0.0
-2.512464,-12.189038,-5.252246,-142.800003,-119.559998,22.26,1729415303425.0,0.0
-7.013363,-15.20878,-10.533205,-7.14,-86.029999,28.84,1729415303447.0,0.0
-11.349157,-11.875579,-14.014762,67.269997,-6.44,24.99,1729415303466.0,0.0
-11.665009,-9.521042,-12.167502,73.150002,20.860001,14.21,1729415303485.0,0.0
-6.642475,-8.827123,-6.084948,71.190002,4.2,-18.549999,1729415303507.0,0.0
-4.522435,-6.197411,-3.787838,76.230003,55.720001,-27.16,1729415303525.0,0.0
-5.082355,-5.606383,-1.663012,16.52,89.809998,-31.5,1729415303546.0,0.0
-2.143969,-8.671589,5.369494,-32.970001,75.879997,-24.01,1729415303566.0,0.0
1.067199,-10.559525,11.363515,44.029999,48.650002,5.88,1729415303586.0,0.0
0.736989,-5.965307,9.887143,91.349998,27.65,15.61,1729415303605.0,0.0
-1.579263,-3.907479,6.403193,6.58,2.38,26.530001,1729415303628.0,0.0
-0.435494,-7.743174,2.98385,-93.800003,-41.09,33.599998,1729415303645.0,0.0
-0.421137,-14.00519,-0.141177,-121.169998,-86.870003,29.190001,1729415303665.0,0.0
-3.431308,-13.51227,-3.476771,-20.719999,-94.080002,31.01,1729415303685.0,0.0
-7.401,-8.240881,-7.022934,28.559999,-70.209999,42.98,1729415303707.0,0.0
-10.49492,-10.018748,-9.561719,21.210001,-33.950001,40.670002,1729415303725.0,0.0
-10.205389,-12.823137,-12.547962,31.57,-10.57,14.98,1729415303747.0,0.0
-7.633104,-11.712867,-7.467999,86.870003,17.01,-8.26,1729415303766.0,0.0
-7.245467,-8.181061,-5.257031,103.459999,42.209999,-27.58,1729415303786.0,0.0
-6.139983,-6.60419,-2.325824,51.59,58.380001,-49.630001,1729415303807.0,0.0
-3.59402,-7.109076,-0.768096,1.33,45.57,-48.93,1729415303825.0,0.0
-0.055035,-6.589834,5.288138,0.91,42.77,-41.439999,1729415303844.0,0.0
0.22014,-6.118448,8.556733,33.389999,43.68,-9.45,1729415303866.0,0.0
0.102891,-7.668997,6.656832,-13.16,15.54,-1.33,1729415303886.0,0.0
-1.045663,-9.937392,2.600998,-69.580002,-10.85,4.06,1729415303906.0,0.0
-2.239682,-11.140982,-0.210568,-68.25,-21.77,2.66,1729415303927.0,0.0
-3.955336,-12.452249,-1.395016,-23.24,-17.219999,4.48,1729415303945.0,0.0
-5.508278,-11.497513,-2.098505,-11.27,-3.57,-7.07,1729415303967.0,0.0
-5.733203,-8.88455,-3.328416,-7.07,0.49,-8.82,1729415303986.0,0.0
-4.843073,-7.243074,-3.696911,-7.63,-0.49,-14.07,1729415304006.0,0.0
-4.211368,-6.190232,-2.354537,-35.349998,-1.47,-15.89,1729415304025.0,0.0
-3.924229,-7.23111,-0.550349,-81.269997,-8.96,-19.460001,1729415304045.0,0.0
-3.998406,-9.317651,-0.205783,-124.809998,-21.91,-22.26,1729415304067.0,0.0
-3.833302,-9.678967,-3.617948,-132.020004,-32.549999,-20.93,1729415304085.0,0.0
-3.651447,-8.853443,-3.943372,-114.309998,-25.969999,-20.58,1729415304108.0,0.0
-3.847659,-8.224132,-2.904887,-102.410004,-12.46,-12.32,1729415304124.0,0.0
-3.919443,-8.922836,-3.335595,-112.559998,-8.54,-12.81,1729415304145.0,0.0
-4.015156,-9.006584,-3.644269,-130.130005,-6.23,-15.75,1729415304168.0,0.0
-4.07737,-7.520642,-3.799802,-130.550003,-5.95,-16.52,1729415304184.0,0.0
-3.402594,-7.118648,-4.244867,-142.449997,-19.32,-20.51,1729415304206.0,0.0
-2.945565,-7.616355,-4.998606,-167.020004,-23.1,-20.299999,1729415304224.0,0.0
-3.122634,-8.11167,-6.008378,-175.699997,-23.17,-25.9,1729415304245.0,0.0
-3.54377,-8.267202,-6.276374,-162.820007,-11.69,-26.880001,1729415304267.0,0.0
-3.424129,-8.195417,-6.407979,-138.389999,-16.66,-25.9,1729415304285.0,0.0
-3.0006,-6.955935,-6.704689,-131.460007,-19.530001,-26.950001,1729415304305.0,0.0
-3.316452,-6.348158,-6.458229,-141.470001,-10.5,-26.18,1729415304325.0,0.0
-3.378666,-6.293124,-6.809973,-138.110001,-9.17,-24.5,1729415304346.0,0.0
-3.282953,-6.149554,-7.188039,-128.240005,-12.67,-22.82,1729415304367.0,0.0
-3.546163,-4.924429,-7.735995,-146.720001,-8.54,-22.33,1729415304386.0,0.0
-3.811767,-4.912465,-8.616554,-143.990005,-10.36,-24.92,1729415304405.0,0.0
-4.130012,-4.249653,-9.226725,-155.960007,-9.45,-28.35,1729415304424.0,0.0
-3.704089,-4.701896,-10.473385,-160.509995,-9.03,-32.48,1729415304446.0,0.0
-2.768496,-4.323831,-9.008978,-140.419998,-7.56,-31.710001,1729415304475.0,0.0
-3.661019,-2.830709,-7.709675,-132.229996,-0.21,-31.08,1729415304484.0,0.0
-4.122833,-1.744368,-9.410972,-157.149994,-6.02,-32.34,1729415304509.0,0.0
-3.696911,-2.397608,-10.626525,-144.339996,-9.38,-25.549999,1729415304525.0,0.0
-3.259024,-3.019742,-9.923036,-117.110001,-0.77,-19.110001,1729415304544.0,0.0
-0.356531,-4.347759,-8.185846,-81.550003,-10.57,-10.01,1729415304567.0,0.0
1.210768,-5.759524,-7.929814,-49.0,-22.26,-7.35,1729415304585.0,0.0
0.514457,-4.366901,-7.948956,-31.99,-21.98,-11.2,1729415304606.0,0.0
-0.653241,-3.089134,-9.351151,-30.870001,-25.83,-19.530001,1729415304639.0,0.0
-1.756332,-3.493521,-10.028319,-41.720001,-23.66,-27.23,1729415304646.0,0.0
-2.964707,-2.414358,-10.351351,-37.310001,-21.280001,-33.459999,1729415304666.0,0.0
-5.314459,-2.26361,-10.057034,-18.9,-13.58,-27.65,1729415304686.0,0.0
-6.453443,-1.261017,-9.188439,5.95,-6.02,-17.710001,1729415304706.0,0.0
-7.24786,1.607977,-10.214959,25.969999,2.03,0.42,1729415304726.0,0.0
-6.240481,0.748954,-10.023535,19.950001,11.83,11.41,1729415304747.0,0.0
-3.943372,-0.48335,-9.133404,18.969999,23.17,14.28,1729415304768.0,0.0
-4.955536,-1.395016,-10.147961,15.4,45.150002,7.49,1729415304784.0,0.0
-5.355137,-1.033699,-10.061819,9.31,37.869999,14.7,1729415304806.0,0.0
-2.828316,-1.818545,-9.449257,16.870001,25.76,26.809999,1729415304827.0,0.0
-3.608376,-1.727618,-8.087741,31.15,29.82,27.860001,1729415304847.0,0.0
-2.361716,-3.158526,-8.762517,22.469999,19.950001,26.880001,1729415304867.0,0.0
-2.818745,-4.409972,-8.338986,15.96,19.6,30.309999,1729415304887.0,0.0
-0.839881,-6.132804,-7.865208,20.790001,10.71,28.559999,1729415304907.0,0.0
1.081556,-7.223931,-7.781459,35.279999,4.34,19.25,1729415304926.0,0.0
0.478565,-6.640083,-8.116454,47.32,-3.5,4.97,1729415304947.0,0.0
-0.990629,-4.56072,-8.590233,44.310001,-13.37,-3.36,1729415304977.0,0.0
-1.892723,-2.141576,-9.741181,26.67,-22.33,-8.82,1729415304987.0,0.0
-0.777667,-1.107877,-10.578669,31.92,-28.630001,-12.53,1729415305007.0,0.0
-1.674976,-2.880959,-9.750752,50.259998,-23.17,-16.799999,1729415305026.0,0.0
-4.618148,-2.957529,-8.77448,65.099998,-16.52,-22.889999,1729415305047.0,0.0
-7.307681,-0.471386,-7.106683,68.599998,-17.290001,-16.66,1729415305068.0,0.0
-7.896315,0.442672,-7.84128,60.060001,-32.970001,-4.76,1729415305086.0,0.0
-7.125826,0.167498,-9.571291,42.700001,-30.59,2.38,1729415305110.0,0.0
-3.921836,-1.174876,-11.088341,71.400002,5.88,24.639999,1729415305127.0,0.0
-6.338587,-4.309474,-10.784451,85.68,44.240002,15.61,1729415305147.0,0.0
-4.783253,-4.567898,-9.96132,135.309998,29.469999,38.080002,1729415305168.0,0.0
-3.395415,-6.269196,-9.365508,168.279999,29.469999,27.09,1729415305190.0,0.0
-3.996014,-6.132804,-7.965706,208.110001,40.599998,32.549999,1729415305207.0,0.0
-3.242275,-4.254438,-5.290531,222.389999,31.15,36.470001,1729415305226.0,0.0
-0.849452,-5.730811,-4.804788,192.220001,17.639999,47.25,1729415305247.0,0.0
1.167697,-8.611769,-3.936193,133.0,15.4,45.150002,1729415305267.0,0.0
0.839881,-12.193825,-3.797409,121.309998,20.440001,38.639999,1729415305286.0,0.0
0.287139,-11.483156,-3.828516,121.870003,9.03,24.92,1729415305308.0,0.0
-1.287339,-8.9683,-3.488736,105.699997,-1.75,11.97,1729415305326.0,0.0
-2.309074,-8.085347,-4.761717,75.18,-19.460001,-0.42,1729415305347.0,0.0
-1.895115,-9.071191,-7.128219,86.590004,-35.349998,2.45,1729415305367.0,0.0
-1.861616,-9.585647,-8.073383,127.190002,-23.24,6.93,1729415305387.0,0.0
-3.330809,-9.209974,-7.080362,173.25,4.62,8.89,1729415305406.0,0.0
-5.149354,-6.424729,-4.24726,182.070007,17.15,8.61,1729415305428.0,0.0
-7.759924,-5.460421,-4.252046,171.919998,1.19,20.51,1729415305446.0,0.0
-9.119047,-7.063612,-7.37468,156.729996,-8.05,16.24,1729415305467.0,0.0
-8.729016,-6.656832,-6.783652,141.190002,10.92,8.19,1729415305487.0,0.0
-6.800402,-7.135397,-5.067998,113.050003,11.62,-1.26,1729415305507.0,0.0
-5.962914,-9.444471,-4.218546,85.82,18.83,-18.34,1729415305525.0,0.0
-5.938986,-9.52822,-3.948158,118.510002,33.599998,-15.47,1729415305547.0,0.0
-5.584848,-7.015756,-2.79721,150.080002,53.900002,-12.74,1729415305568.0,0.0
-3.538985,-7.121039,-0.547956,108.43,52.709999,-7.84,1729415305586.0,0.0
-0.411566,-9.65504,1.174876,48.93,38.639999,-3.57,1729415305608.0,0.0
0.114855,-10.908878,5.84088,80.709999,37.029999,14.07,1729415305626.0,0.0
-0.471386,-8.650054,7.68096,115.220001,18.059999,10.22,1729415305645.0,0.0
0.117248,-8.133204,5.745167,77.910004,-11.55,1.68,1729415305670.0,0.0
-1.272982,-8.877372,4.362115,32.34,-25.34,5.95,1729415305686.0,0.0
-2.438286,-9.109475,3.407379,25.200001,-34.860001,11.76,1729415305707.0,0.0
-2.651247,-9.640682,3.385844,51.59,-43.330002,18.27,1729415305726.0,0.0
-3.818945,-9.159724,2.991028,59.5,-43.889999,19.25,1729415305747.0,0.0
-4.07737,-9.090333,1.505085,33.670002,-50.68,17.639999,1729415305768.0,0.0
-3.847659,-6.707082,0.301496,12.32,-58.170002,31.219999,1729415305787.0,0.0
-5.809773,-6.73101,-0.119641,31.219999,-49.98,57.470001,1729415305806.0,0.0
-6.647261,-6.960721,-1.165305,25.620001,-41.439999,53.830002,1729415305826.0,0.0
-6.702296,-7.432107,-0.976272,4.06,-41.02,69.440002,1729415305848.0,0.0
-7.4345,-7.295716,-2.701497,-30.799999,-32.619999,74.550003,1729415305866.0,0.0
-8.283953,-7.360322,-1.804188,-93.870003,-21.210001,60.48,1729415305886.0,0.0
-8.317451,-6.721439,-2.770889,-215.389999,-9.03,28.35,1729415305907.0,0.0
-7.922636,-6.955935,-5.201996,-382.549988,-2.17,-20.860001,1729415305926.0,0.0
-6.73101,-7.62114,-7.989635,-504.070007,-14.21,-55.299999,1729415305946.0,0.0
-5.221139,-9.006584,-9.717253,-505.610016,-18.200001,-59.779999,1729415305978.0,0.0
-4.149154,-8.99462,-11.186446,-440.019989,9.03,-51.799999,1729415305986.0,0.0
-3.316452,-9.001799,-10.949556,-343.420013,46.970001,-51.450001,1729415306006.0,0.0
-4.0008,-8.611769,-8.149954,-268.100006,79.800003,-37.099998,1729415306026.0,0.0
-5.142176,-6.812366,-4.59422,-232.820007,87.919998,-40.670002,1729415306046.0,0.0
-4.977071,-4.515256,-5.012963,-215.809998,56.91,-21.35,1729415306067.0,0.0
-2.337788,-5.142176,-7.448857,-206.430008,33.459999,-6.02,1729415306087.0,0.0
-2.95035,-5.379066,-7.829315,-183.399994,50.400002,3.5,1729415306109.0,0.0
-3.866802,-3.974478,-7.812566,-142.029999,48.369999,26.32,1729415306126.0,0.0
-3.20399,-5.508278,-8.645268,-107.590004,33.529999,34.299999,1729415306148.0,0.0
-3.225525,-5.039285,-8.563912,-43.470001,36.189999,37.029999,1729415306166.0,0.0
-3.163311,-3.885944,-7.57089,-24.99,35.420002,30.1,1729415306186.0,0.0
-2.254039,-3.907479,-7.642675,-49.77,21.49,25.48,1729415306207.0,0.0
-1.986043,-5.577669,-8.075776,-59.920002,13.02,21.629999,1729415306225.0,0.0
-1.976472,-6.999006,-7.695317,-42.07,9.66,17.290001,1729415306247.0,0.0
-1.777867,-6.817152,-7.372287,-16.17,1.26,9.87,1729415306270.0,0.0
-1.880759,-7.700103,-7.357929,-6.44,-7.0,0.77,1729415306285.0,0.0
-1.627119,-7.496714,-7.101898,-9.59,-17.290001,-13.79,1729415306306.0,0.0
-1.667797,-7.085148,-7.039684,-3.99,-27.51,-26.25,1729415306327.0,0.0
-2.017149,-6.821937,-7.752745,8.89,-36.68,-39.060001,1729415306347.0,0.0
-2.242075,-5.62074,-8.714661,27.65,-42.91,-47.740002,1729415306366.0,0.0
-2.632105,-4.216154,-9.480364,34.23,-43.82,-50.959999,1729415306386.0,0.0
-2.9671,-3.275774,-9.109475,19.879999,-45.779999,-54.110001,1729415306407.0,0.0
-3.503092,-2.794817,-8.023134,6.02,-50.049999,-54.32,1729415306427.0,0.0
-4.23051,-1.4668,-9.899107,6.23,-48.720001,-51.450001,1729415306446.0,0.0
-5.67099,0.753739,-11.32523,6.02,-45.150002,-50.610001,1729415306466.0,0.0
-8.039884,2.038685,-11.47119,0.28,-12.46,-28.630001,1729415306485.0,0.0
-9.585647,3.476771,-10.660025,-3.01,3.36,-3.92,1729415306515.0,0.0
-8.645268,3.404987,-9.01137,-4.69,4.34,23.799999,1729415306527.0,0.0
-6.001199,1.794617,-8.870193,-35.490002,-4.9,30.450001,1729415306546.0,0.0
-5.776274,0.658026,-9.894321,-55.93,8.4,39.970001,1729415306580.0,0.0
-6.374479,-0.574277,-9.631111,-57.75,24.639999,51.73,1729415306586.0,0.0
-5.503492,-2.744568,-9.413363,-51.240002,22.68,60.970001,1729415306608.0,0.0
-4.476971,-2.433501,-9.135797,-46.060001,26.530001,60.830002,1729415306627.0,0.0
-4.022335,-5.62074,-8.269595,-32.970001,24.780001,64.610001,1729415306646.0,0.0
-2.612962,-8.173882,-8.097312,-35.420002,17.08,48.509998,1729415306669.0,0.0
-0.473779,-9.834501,-8.16431,-17.639999,4.2,32.830002,1729415306687.0,0.0
0.256032,-9.729217,-7.597212,11.62,4.48,10.99,1729415306706.0,0.0
-0.39003,-8.489735,-6.802795,30.52,0.49,-7.49,1729415306727.0,0.0
-2.76371,-5.900701,-7.54457,42.630001,-9.45,-18.200001,1729415306748.0,0.0
-3.955336,-4.68754,-9.186047,56.490002,-21.07,-24.08,1729415306768.0,0.0
-3.948158,-4.070191,-9.571291,63.490002,-24.639999,-24.01,1729415306787.0,0.0
-3.579663,-4.31426,-9.958927,63.139999,-24.360001,-23.799999,1729415306808.0,0.0
-3.89073,-3.737589,-8.73141,49.700001,-16.379999,-31.01,1729415306828.0,0.0
-4.445865,-3.469593,-8.781659,53.060001,-17.08,-32.200001,1729415306848.0,0.0
-4.139583,-2.65364,-8.51127,50.049999,-22.540001,-38.360001,1729415306870.0,0.0
-4.326223,-2.289931,-8.750552,56.91,-19.950001,-31.780001,1729415306887.0,0.0
-5.182854,-2.163112,-8.73141,48.16,-16.1,-26.950001,1729415306907.0,0.0
-5.441278,-2.206182,-10.504492,40.670002,-13.440001,-27.65,1729415306927.0,0.0
-4.998606,-1.706082,-11.004591,50.68,-9.66,-15.61,1729415306948.0,0.0
-5.02732,0.095713,-10.310673,63.560001,3.85,-6.72,1729415306973.0,0.0
-5.606383,1.141376,-9.353544,63.77,18.41,8.68,1729415306989.0,0.0
-5.666204,0.229711,-10.731809,40.880001,23.66,19.040001,1729415307008.0,0.0
-5.606383,-2.85703,-10.004392,27.23,36.68,27.370001,1729415307031.0,0.0
-5.582455,-4.424329,-7.341179,40.670002,59.43,35.490002,1729415307049.0,0.0
-5.431707,-4.225725,-6.125626,37.029999,59.360001,27.370001,1729415307071.0,0.0
-5.919843,-4.63729,-3.976871,9.1,56.91,30.1,1729415307088.0,0.0
-4.881358,-5.410172,-7.216753,-20.299999,42.209999,22.960001,1729415307113.0,0.0
-3.464807,-7.307681,-8.549555,-33.740002,31.99,22.610001,1729415307128.0,0.0
-2.897708,-8.702696,-7.683353,-28.700001,43.119999,20.299999,1729415307148.0,0.0
-2.914458,-7.958528,-7.405786,-0.42,41.509998,17.85,1729415307171.0,0.0
-2.234896,-7.537392,-7.635497,7.49,34.860001,9.52,1729415307188.0,0.0
-1.052842,-8.501699,-7.786245,24.290001,22.33,3.29,1729415307209.0,0.0
-1.294517,-8.233703,-7.305287,48.299999,26.950001,-1.4,1729415307231.0,0.0
-2.333002,-6.419943,-5.627919,66.080002,29.120001,-4.06,1729415307248.0,0.0
-2.459821,-6.345766,-6.278766,66.010002,15.61,-8.75,1729415307269.0,0.0
-1.787439,-7.300502,-6.977471,73.360001,0.84,-15.54,1729415307288.0,0.0
-1.646262,-7.410572,-8.626125,104.580002,-9.31,-21.91,1729415307308.0,0.0
-2.019542,-5.484349,-8.128418,112.139999,-4.9,-25.41,1729415307328.0,0.0
-2.289931,-4.24726,-6.116055,83.370003,-5.25,-28.77,1729415307348.0,0.0
-2.907279,-5.807381,-6.123233,42.0,-10.15,-27.65,1729415307369.0,0.0
-2.524428,-6.759724,-7.288538,29.610001,-24.08,-22.68,1729415307387.0,0.0
-2.414358,-4.773681,-6.58744,68.879997,-25.27,-14.07,1729415307408.0,0.0
-3.658626,-3.148954,-6.482157,95.690002,-18.200001,3.64,1729415307427.0,0.0
-4.766503,-2.782853,-6.498906,75.879997,-19.25,11.27,1729415307497.0,0.0
-5.546563,-5.118248,-7.489535,32.41,-23.799999,6.16,1729415307498.0,0.0
-5.099105,-7.24786,-7.668997,40.810001,-30.450001,1.75,1729415307498.0,0.0
-4.335794,-5.996413,-7.24786,92.75,-27.93,7.56,1729415307508.0,0.0
-4.855037,-5.130211,-8.470592,128.800003,-11.97,21.35,1729415307533.0,0.0
-5.532206,-8.197811,-8.49452,122.639999,7.98,25.76,1729415307548.0,0.0
-5.979663,-11.657832,-8.11167,117.809998,25.620001,18.9,1729415307569.0,0.0
-5.371887,-10.332209,-7.4345,153.089996,33.880001,8.4,1729415307588.0,0.0
-3.826123,-7.925028,-7.704889,205.029999,47.32,4.27,1729415307608.0,0.0
-3.570091,-7.288538,-4.733003,201.460007,78.610001,5.81,1729415307632.0,0.0
-3.309274,-7.501499,-2.866602,145.949997,87.220001,4.27,1729415307648.0,0.0
-2.711068,-8.030313,-1.471586,80.919998,79.590004,2.52,1729415307668.0,0.0
-1.385444,-10.25803,1.430908,56.560001,63.77,-3.29,1729415307688.0,0.0
-0.105284,-10.29153,4.055835,88.410004,43.959999,-2.87,1729415307708.0,0.0
-1.471586,-7.805387,3.756732,84.279999,17.639999,-4.62,1729415307739.0,0.0
-1.150948,-7.41775,2.701497,35.630001,-9.8,-0.49,1729415307748.0,0.0
-0.552742,-8.346166,1.665405,-8.47,-40.740002,2.87,1729415307770.0,0.0
-2.574677,-8.927622,0.37328,-58.099998,-56.98,1.33,1729415307788.0,0.0
-4.649254,-9.209974,-2.900101,-91.489998,-69.860001,5.18,1729415307808.0,0.0
-5.144568,-7.030113,-7.164111,-55.790001,-68.389999,13.86,1729415307828.0,0.0
-7.140182,-6.850651,-10.171888,21.42,-27.09,39.619999,1729415307848.0,0.0
-7.908278,-10.224532,-10.076177,33.810001,7.84,32.48,1729415307868.0,0.0
-6.719046,-12.662818,-7.546963,28.280001,16.309999,12.04,1729415307888.0,0.0
-5.584848,-10.707881,-6.78126,59.150002,22.82,-9.38,1729415307908.0,0.0
-5.472386,-7.534998,-6.089733,50.75,45.709999,-29.26,1729415307928.0,0.0
-3.510271,-7.482357,-4.704289,26.950001,53.549999,-34.299999,1729415307948.0,0.0
-2.165504,-8.530413,-1.777867,3.92,63.420002,-29.049999,1729415307969.0,0.0
-1.205983,-8.458629,3.282953,16.940001,68.389999,-19.67,1729415307987.0,0.0
-1.550549,-7.860423,8.152347,29.33,53.130001,-3.71,1729415308008.0,0.0
-0.68674,-7.310073,6.927221,-0.98,15.54,-1.54,1729415308027.0,0.0
-2.502892,-8.001599,2.608176,-79.730003,-16.24,-3.01,1729415308048.0,0.0
-1.239482,-8.910872,-0.193819,-127.050003,-62.860001,0.56,1729415308068.0,0.0
-0.260818,-9.944571,-1.753939,-60.549999,-85.82,9.52,1729415308088.0,0.0
-3.756732,-9.19801,-0.51685,12.67,-81.059998,22.889999,1729415308111.0,0.0
-6.802795,-7.094719,-4.386044,10.08,-83.860001,25.27,1729415308128.0,0.0
-8.16431,-7.113862,-9.183653,-69.790001,-82.879997,21.210001,1729415308186.0,0.0
-7.305287,-10.195816,-11.337193,-115.639999,-71.959999,4.62,1729415308187.0,0.0
-7.329216,-11.806188,-12.401999,-54.110001,-20.65,-5.39,1729415308322.0,0.0
-6.479764,-9.724431,-8.685946,13.09,31.43,-19.67,1729415308325.0,0.0
-4.685147,-8.353344,-7.305287,31.5,38.43,-20.719999,1729415308327.0,0.0
-3.871587,-6.60419,-6.185446,1.75,58.59,-26.32,1729415308327.0,0.0
-3.254239,-5.778666,-4.031906,-46.41,69.510002,-22.889999,1729415308328.0,0.0
-2.476572,-8.271988,-1.727618,-78.82,65.519997,-17.5,1729415308328.0,0.0
-1.928615,-9.753145,-2.392823,-70.07,60.34,-11.83,1729415308328.0,0.0
-3.598805,-11.612368,-0.425922,-20.440001,69.510002,-9.66,1729415308328.0,0.0
-4.328616,-11.801401,-0.490529,6.37,53.200001,-20.93,1729415308349.0,0.0
-1.418944,-9.980463,-0.909273,13.23,24.92,-27.790001,1729415308367.0,0.0
3.074777,-10.614561,-1.318445,-14.14,4.97,-29.049999,1729415308386.0,0.0
1.722832,-10.999805,0.588634,-9.66,2.24,-28.559999,1729415308407.0,0.0
0.847059,-8.338986,1.725225,28.630001,-14.0,-26.040001,1729415308427.0,0.0
-1.634298,-6.809973,3.383451,6.3,-33.459999,-24.01,1729415308446.0,0.0
-4.443472,-5.998806,-0.224925,-101.849998,-61.810001,-35.630001,1729415308468.0,0.0
-5.565705,-7.908278,-4.577469,-164.639999,-87.779999,-34.580002,1729415308487.0,0.0
-5.065606,-6.491727,-8.322237,-111.020004,-89.669998,-15.33,1729415308506.0,0.0
-5.501099,-7.685746,-12.184253,36.82,-61.740002,21.139999,1729415308526.0,0.0
-8.530413,-7.532606,-12.244074,84.279999,5.67,20.370001,1729415308554.0,0.0
-10.116854,-6.628119,-10.332209,70.07,46.34,26.110001,1729415308569.0,0.0
-5.261817,-6.89133,-9.473185,39.27,18.48,11.13,1729415308587.0,0.0
-1.940579,-7.147361,-9.073583,22.540001,30.309999,0.42,1729415308609.0,0.0
-2.395216,-7.781459,-7.566105,19.530001,72.099998,0.84,1729415308628.0,0.0
-2.22054,-8.724231,-3.321238,18.9,90.090004,2.31,1729415308648.0,0.0
-2.124826,-9.75793,2.321038,24.15,82.459999,9.59,1729415308671.0,0.0
-1.007378,-9.970891,4.35733,50.82,46.619999,12.18,1729415308687.0,0.0
0.476172,-7.826923,4.141976,60.48,11.06,5.25,1729415308707.0,0.0
0.078963,-7.140182,2.431108,-10.36,-35.91,5.88,1729415308727.0,0.0
-0.619741,-7.874779,-0.851845,-88.550003,-68.389999,5.39,1729415308747.0,0.0
-3.163311,-10.313066,-3.058028,-119.209999,-82.459999,-2.24,1729415308772.0,0.0
-5.79781,-11.74158,-8.221739,-74.410004,-81.269997,-6.72,1729415308788.0,0.0
-6.238089,-9.698111,-11.22473,-15.26,-66.290001,0.56,1729415308807.0,0.0
-6.735795,-8.056634,-11.059627,17.08,-31.710001,7.49,1729415308827.0,0.0
-6.594619,-6.922436,-12.32543,20.65,5.46,1.47,1729415308848.0,0.0
-3.998406,-9.178867,-10.193424,16.309999,16.870001,-9.87,1729415308868.0,0.0
-3.084348,-9.466006,-8.939585,29.68,39.830002,-19.18,1729415308888.0,0.0
-3.787838,-8.271988,-7.762317,66.709999,67.620003,-21.559999,1729415308908.0,0.0
-2.65364,-7.030113,-5.903094,80.43,72.519997,-21.07,1729415308929.0,0.0
-1.39023,-6.786045,-0.040678,52.150002,76.510002,-12.18,1729415308948.0,0.0
-1.409373,-8.212167,3.811767,14.49,67.059998,1.33,1729415308969.0,0.0
-2.615355,-10.224532,5.659025,0.91,46.549999,-8.12,1729415308991.0,0.0
-0.930808,-6.18784,2.751746,9.1,3.71,-4.76,1729415309012.0,0.0
-0.947558,-5.881558,1.182054,-39.48,-32.060001,6.09,1729415309029.0,0.0
-0.981057,-6.06102,-1.926222,-114.449997,-55.23,10.22,1729415309050.0,0.0
-0.815953,-7.709675,-5.910272,-150.009995,-83.160004,18.059999,1729415309072.0,0.0
-2.06022,-12.189038,-8.059027,-82.110001,-85.889999,20.09,1729415309089.0,0.0
-4.646862,-9.987641,-7.60439,11.55,-68.459999,19.530001,1729415309112.0,0.0
-7.465607,-6.601797,-6.262017,20.440001,-55.369999,11.55,1729415309133.0,0.0
-8.037491,-6.092126,-11.789437,-46.34,-56.700001,-3.43,1729415309151.0,0.0
-5.556134,-6.477371,-15.158531,-96.25,-49.07,-13.51,1729415309172.0,0.0
-4.189832,-9.552148,-11.160125,-45.57,4.76,-5.25,1729415309189.0,0.0
-5.575277,-8.939585,-7.243074,32.549999,58.73,0.14,1729415309211.0,0.0
-7.264609,-7.219146,-7.264609,61.32,93.099998,-4.27,1729415309228.0,0.0
-4.036692,-6.920043,-6.032306,38.709999,73.220001,-7.98,1729415309249.0,0.0
-0.366102,-8.099705,-0.89013,23.24,65.590004,0.63,1729415309276.0,0.0
-0.468993,-10.616954,4.606184,9.52,57.959999,2.94,1729415309290.0,0.0
-1.603191,-9.652647,3.163311,7.77,12.25,-10.5,1729415309312.0,0.0
-1.78026,-7.822137,0.327817,-9.87,-21.91,-11.62,1729415309331.0,0.0
-1.792224,-8.240881,-2.194218,-53.48,-41.299999,-15.89,1729415309353.0,0.0
-1.138984,-7.448857,-4.45065,-80.150002,-59.990002,-10.71,1729415309372.0,0.0
-0.741775,-6.422336,-5.381458,-82.389999,-72.309998,-1.12,1729415309391.0,0.0
-2.352145,-7.228717,-5.094319,-81.970001,-66.919998,4.55,1729415309411.0,0.0
-3.964907,-8.207381,-5.644669,-43.259998,-78.75,1.61,1729415309430.0,0.0
-5.458029,-8.252845,-8.396415,-6.79,-78.050003,5.53,1729415309451.0,0.0
-6.802795,-6.355337,-9.927821,-47.32,-56.490002,-1.12,1729415309475.0,0.0
-7.006185,-5.278566,-11.181661,-107.870003,-31.639999,-2.66,1729415309491.0,0.0
-5.871986,-8.157133,-11.420943,-88.550003,-14.98,2.31,1729415309512.0,0.0
-4.45065,-12.708281,-9.580862,14.0,13.65,-6.65,1729415309529.0,0.0
-4.055835,-10.497313,-8.082954,125.160004,45.920002,-21.629999,1729415309551.0,0.0
-5.039285,-7.113862,-6.195018,164.570007,68.739998,-25.41,1729415309572.0,0.0
-4.266403,-6.106483,-6.319445,116.340004,61.950001,-28.35,1729415309591.0,0.0
-2.600998,-6.977471,-5.965307,62.02,55.720001,-19.879999,1729415309611.0,0.0
-1.74676,-8.310273,-3.787838,103.669998,74.830002,1.89,1729415309632.0,0.0
-2.452643,-7.539784,-1.323231,141.259995,79.519997,5.88,1729415309650.0,0.0
-2.744568,-6.774081,-0.732204,121.169998,57.189999,-2.8,1729415309701.0,0.0
-2.462214,-6.740582,-1.081556,60.27,26.950001,-12.04,1729415309704.0,0.0
-1.959722,-7.362715,-1.667797,-19.67,5.53,-24.01,1729415309713.0,0.0
-2.15354,-7.776673,-1.98365,-78.190002,-10.57,-29.82,1729415309729.0,0.0
-2.349752,-7.573284,-2.17029,-94.5,-20.65,-31.99,1729415309750.0,0.0
-2.141576,-6.879365,-2.758924,-114.309998,-29.26,-29.190001,1729415309773.0,0.0
-1.722832,-8.575876,-4.141976,-150.360001,-35.700001,-33.810001,1729415309789.0,0.0
-1.636691,-8.209774,-4.843073,-184.100006,-37.939999,-39.130001,1729415309811.0,0.0
-1.56012,-6.173482,-5.438886,-208.389999,-44.66,-37.52,1729415309829.0,0.0
-1.5003,-4.527221,-7.087541,-260.610016,-48.650002,-42.490002,1729415309850.0,0.0
-1.868794,-5.099105,-8.334201,-293.790009,-49.630001,-43.75,1729415309870.0,0.0
-2.892922,-5.740381,-9.272188,-252.419998,-47.389999,-34.369999,1729415309889.0,0.0
-5.395815,-4.285545,-10.19821,-181.440002,-35.84,-23.52,1729415309910.0,0.0
-7.709675,-1.706082,-10.090532,-180.389999,-16.799999,-18.200001,1729415309929.0,0.0
-4.895715,-2.385644,-10.552348,-201.180008,-25.41,-7.91,1729415309950.0,0.0
-4.407579,-2.22054,-10.564312,-202.229996,-11.69,-5.88,1729415309973.0,0.0
-3.9338,-1.497907,-10.777272,-162.470001,-6.79,4.41,1729415309990.0,0.0
-2.945565,-2.112862,-10.212566,-125.090004,-3.08,12.04,1729415310010.0,0.0
-2.344966,-3.012564,-10.133603,-93.660004,-0.63,19.950001,1729415310029.0,0.0
-1.095913,-5.422136,-9.497113,-63.490002,0.07,22.190001,1729415310050.0,0.0
0.48335,-7.618747,-9.535398,-41.23,-0.91,17.15,1729415310070.0,0.0
1.875973,-9.219545,-9.458827,-15.75,-5.53,5.67,1729415310089.0,0.0
2.069792,-7.405786,-9.425328,16.17,-4.76,-10.36,1729415310114.0,0.0
1.021735,-4.792823,-9.595219,34.299999,-1.05,-22.75,1729415310129.0,0.0
-0.368495,-3.251846,-9.856036,42.77,-7.42,-25.83,1729415310150.0,0.0
-2.799603,-2.163112,-10.478169,54.880001,-8.26,-26.25,1729415310172.0,0.0
-4.709075,-1.579263,-10.025927,81.480003,-6.3,-18.200001,1729415310189.0,0.0
-5.185246,-1.995614,-10.200603,111.230003,-7.07,-13.51,1729415310210.0,0.0
-4.249653,-1.732404,-10.777272,157.570007,-3.01,-8.19,1729415310229.0,0.0
-4.378866,-1.026521,-11.160125,207.830002,17.99,5.74,1729415310251.0,0.0
-4.972286,-2.155933,-10.25803,247.100006,40.040001,16.379999,1729415310271.0,0.0
-4.661219,-2.919244,-8.092526,260.399994,44.59,23.59,1729415310289.0,0.0
-3.775874,-2.852244,-6.951149,275.100006,30.940001,36.119999,1729415310310.0,0.0
-3.677768,-4.656433,-6.465407,272.649994,27.09,41.16,1729415310329.0,0.0
-3.273381,-7.54457,-7.802995,263.200012,16.309999,39.060001,1729415310350.0,0.0
-2.596212,-7.745567,-6.678369,262.360016,16.940001,40.110001,1729415310370.0,0.0
-2.273181,-7.21436,-5.20439,254.869995,30.309999,44.099998,1729415310389.0,0.0
-2.364109,-7.183254,-3.273381,204.399994,30.799999,46.689999,1729415310410.0,0.0
-2.294717,-8.757731,-1.942972,148.259995,26.809999,42.490002,1729415310430.0,0.0
-2.74696,-11.32523,0.057428,120.330002,27.370001,31.08,1729415310449.0,0.0
-2.35693,-11.779866,0.772882,127.400002,20.860001,20.370001,1729415310471.0,0.0
-1.055235,-9.090333,1.342373,146.300003,6.44,23.66,1729415310489.0,0.0
-0.753739,-5.630312,3.61077,128.940002,-3.15,22.610001,1729415310510.0,0.0
-2.931208,-4.65404,4.792823,36.889999,-22.469999,33.25,1729415310530.0,0.0
-4.567898,-9.611969,-0.200997,-61.529999,-67.410004,21.91,1729415310549.0,0.0
-4.39083,-9.652647,-4.744967,-69.720001,-77.769997,25.059999,1729415310571.0,0.0
-4.716253,-9.142976,-6.001199,-25.200001,-62.790001,35.07,1729415310590.0,0.0
-6.498906,-8.310273,-5.35753,-3.15,-48.16,48.93,1729415310609.0,0.0
-7.946564,-9.803394,-8.743374,18.620001,-35.420002,39.970001,1729415310639.0,0.0
-6.592227,-9.79143,-8.039884,16.940001,-5.53,16.73,1729415310651.0,0.0
-5.410172,-10.037891,-5.955735,-13.86,15.12,-4.62,1729415310670.0,0.0
-5.508278,-10.353743,-4.711468,-14.14,34.02,-16.24,1729415310690.0,0.0
-5.496314,-10.269995,-4.158726,-3.29,46.41,-28.98,1729415310710.0,0.0
-4.347759,-9.4349,-3.416951,7.77,56.630001,-37.869999,1729415310729.0,0.0
-3.105884,-9.640682,-2.175076,12.04,65.870003,-36.82,1729415310749.0,0.0
-2.127219,-10.427922,-0.878166,20.09,72.029999,-35.91,1729415310770.0,0.0
-1.804188,-10.664811,1.624727,43.330002,75.809998,-37.170002,1729415310789.0,0.0
-1.533799,-9.844072,4.376472,71.260002,62.02,-35.84,1729415310811.0,0.0
-0.547956,-7.67139,4.426722,72.660004,29.75,-30.799999,1729415310829.0,0.0
-0.42353,-6.075377,3.823731,37.59,1.61,-25.34,1729415310849.0,0.0
-1.411765,-6.427122,2.038685,-19.74,-18.690001,-18.27,1729415310870.0,0.0
-2.18704,-7.67139,0.210568,-57.189999,-39.41,-12.81,1729415310889.0,0.0
-3.213561,-8.226524,-1.124627,-49.98,-50.049999,-3.85,1729415310909.0,0.0
-3.76391,-7.532606,-2.053042,-35.560001,-52.5,5.46,1729415310929.0,0.0
-4.869394,-6.872187,-3.924229,-29.960001,-55.02,16.1,1729415310950.0,0.0
-6.458229,-7.125826,-5.235496,-9.52,-52.43,38.360001,1729415310970.0,0.0
-6.668797,-8.470592,-6.441479,40.740002,-41.509998,39.619999,1729415310991.0,0.0
-5.898308,-8.901299,-6.075377,47.880001,-32.34,33.389999,1729415311010.0,0.0
-5.266603,-9.152546,-4.907679,30.73,-21.210001,30.870001,1729415311029.0,0.0
-5.326423,-9.765109,-3.503092,-7.63,-11.76,27.65,1729415311049.0,0.0
-5.268995,-11.351551,-3.89073,-34.650002,-8.82,17.780001,1729415311070.0,0.0
-4.831109,-11.983256,-3.830909,-42.77,-1.47,4.27,1729415311089.0,0.0
-4.405186,-12.244074,-2.828316,-30.66,17.15,-10.5,1729415311113.0,0.0
-4.756931,-13.447663,-2.208575,-3.01,36.959999,-24.85,1729415311130.0,0.0
-4.878965,-11.803794,-2.067399,38.009998,51.52,-37.380001,1729415311149.0,0.0
-3.192025,-8.645268,-0.801596,57.260002,54.25,-44.170002,1729415311170.0,0.0
-1.232304,-7.465607,1.004985,42.91,56.420002,-44.240002,1729415311189.0,0.0
-0.847059,-8.736196,2.59382,45.57,59.360001,-39.34,1729415311209.0,0.0
-1.545763,-8.458629,4.919643,95.550003,53.900002,-28.559999,1729415311228.0,0.0
-1.462015,-5.187639,5.513064,136.5,26.950001,-14.84,1729415311250.0,0.0
-0.710668,-3.608376,4.673182,124.18,-5.74,4.83,1729415311270.0,0.0
-1.107877,-5.501099,2.045863,52.779999,-34.16,17.290001,1729415311290.0,0.0
-3.4672,-8.953942,-2.179861,-42.0,-59.779999,35.98,1729415311312.0,0.0
-5.673382,-12.01197,-4.778467,-24.08,-58.170002,59.43,1729415311329.0,0.0
-7.111469,-13.591233,-6.202196,-11.9,-43.75,52.779999,1729415311349.0,0.0
-8.197811,-12.01197,-6.692725,-31.92,-33.18,53.130001,1729415311371.0,0.0
-7.470392,-7.996813,-6.754939,-71.470001,-23.450001,15.68,1729415311389.0,0.0
-5.745167,-6.757331,-5.948557,-111.93,-23.940001,-20.440001,1729415311409.0,0.0
-4.493721,-9.499505,-4.579862,-165.270004,-19.809999,-42.700001,1729415311429.0,0.0
-4.409972,-11.863614,-4.74736,-189.699997,4.06,-58.029999,1729415311449.0,0.0
-4.481757,-11.002198,-2.522035,-131.039993,19.32,-53.48,1729415311470.0,0.0
-4.551149,-7.123433,-1.799403,-106.190002,35.700001,-52.990002,1729415311489.0,0.0
-3.988836,-5.838487,-0.62692,-154.910004,38.849998,-48.02,1729415311509.0,0.0
-2.562713,-8.154739,-0.538385,-205.520004,27.93,-36.959999,1729415311528.0,0.0
-0.976272,-9.84168,-1.59362,-190.960007,16.030001,-30.73,1729415311549.0,0.0
-0.607777,-9.877571,-1.146162,-133.490005,10.57,-17.15,1729415311571.0,0.0
-1.167697,-10.664811,-1.445265,-67.550003,-2.17,-14.0,1729415311589.0,0.0
-1.765903,-10.035499,-2.54357,-8.54,-13.86,-12.53,1729415311609.0,0.0
-2.845066,-8.451449,-2.359323,28.84,-12.25,-3.5,1729415311628.0,0.0
-3.591627,-6.431907,-3.036492,-12.81,-24.5,3.64,1729415311650.0,0.0
-3.034099,-7.097112,-5.663811,-85.540001,-40.32,-12.95,1729415311670.0,0.0
-3.15374,-7.69771,-7.030113,-141.680008,-38.080002,-16.030001,1729415311688.0,0.0
-3.598805,-7.267002,-6.905686,-152.460007,-33.25,-10.99,1729415311709.0,0.0
-3.452843,-6.953543,-7.255038,-135.589996,-35.209999,-13.72,1729415311729.0,0.0
-2.89053,-6.939186,-7.623533,-110.739998,-40.670002,-14.28,1729415311749.0,0.0
-2.550749,-6.606583,-7.613962,-88.129997,-36.75,-11.06,1729415311771.0,0.0
-2.67039,-6.290731,-7.424929,-70.349998,-27.51,-4.34,1729415311789.0,0.0
-3.058028,-6.300302,-7.532606,-59.920002,-22.889999,1.89,1729415311809.0,0.0
-3.349952,-6.175875,-7.661818,-60.830002,-18.9,2.94,1729415311828.0,0.0
-3.735196,-6.357729,-7.848458,-59.010002,-15.96,2.1,1729415311849.0,0.0
-3.960121,-6.628119,-7.898707,-46.900002,-13.23,-0.07,1729415311870.0,0.0
-4.039084,-6.805188,-7.702496,-25.129999,-11.55,-1.4,1729415311889.0,0.0
-3.986443,-6.680761,-7.475177,-3.43,-8.89,-2.66,1729415311909.0,0.0
-3.976871,-6.381658,-7.166504,10.99,-4.9,-2.87,1729415311928.0,0.0
-4.0008,-6.034698,-7.080362,15.33,-1.26,-2.31,1729415311949.0,0.0
-3.988836,-5.831308,-6.80758,9.87,-0.28,-2.1,1729415311970.0,0.0
-3.986443,-5.702096,-6.750153,-3.5,0.7,-3.08,1729415311989.0,0.0
-3.761517,-5.436492,-6.865008,-9.73,-2.52,-3.5,1729415312009.0,0.0
-3.34038,-5.233103,-6.848258,-16.66,-4.9,-3.29,1729415312028.0,0.0
-2.962314,-5.338387,-6.874579,-21.91,-5.04,-1.89,1729415312049.0,0.0
-2.761317,-5.536992,-6.987042,-21.91,-5.46,-0.84,1729415312069.0,0.0
-2.813959,-5.680561,-7.159326,-16.870001,-5.53,0.77,1729415312089.0,0.0
-2.971886,-5.709275,-7.57089,-10.43,-7.91,2.03,1729415312111.0,0.0
-3.223132,-5.752346,-7.819745,-7.42,-9.03,3.08,1729415312128.0,0.0
-3.52702,-5.996413,-7.759924,-9.45,-7.91,3.64,1729415312149.0,0.0
-3.735196,-6.312266,-7.659425,-12.67,-6.93,2.66,1729415312170.0,0.0
-3.936193,-6.541977,-7.609176,-11.83,-4.55,2.24,1729415312188.0,0.0
-4.017549,-6.407979,-7.647461,-8.68,-2.8,0.84,1729415312209.0,0.0
-3.955336,-6.405586,-7.65464,-3.78,-2.17,1.19,1729415312228.0,0.0
-3.728018,-6.417551,-7.465607,-0.21,-1.26,0.77,1729415312248.0,0.0
-3.854837,-6.427122,-7.161718,3.29,1.96,0.77,1729415312270.0,0.0
-3.862016,-6.209375,-7.001399,7.49,1.4,-1.05,1729415312288.0,0.0
-3.48395,-5.843273,-6.951149,8.75,-1.4,-1.4,1729415312309.0,0.0
-3.359523,-5.838487,-6.951149,3.08,-3.78,-0.77,1729415312329.0,0.0
-3.536592,-5.836094,-6.965507,-0.28,-3.22,-1.05,1729415312348.0,0.0
-3.596412,-5.62074,-6.975078,-0.21,-4.76,-1.12,1729415312369.0,0.0
-3.579663,-5.493921,-7.152147,0.49,-8.75,-0.56,1729415312388.0,0.0
-3.629912,-5.347959,-7.149754,-5.88,-9.59,-0.42,1729415312409.0,0.0
-3.785445,-5.465207,-7.085148,-15.12,-7.98,0.21,1729415312428.0,0.0
-3.828516,-5.608776,-7.21436,-17.5,-8.68,1.05,1729415312505.0,0.0
-3.658626,-5.458029,-7.4345,-12.67,-10.57,3.43,1729415312505.0,0.0
-3.627519,-5.15414,-7.523034,-8.68,-10.92,6.79,1729415312511.0,0.0
-3.806981,-5.249853,-7.310073,-9.1,-9.17,9.66,1729415312511.0,0.0
-3.909872,-5.276174,-7.307681,-10.78,-9.24,9.73,1729415312528.0,0.0
-4.051049,-5.599205,-7.755138,-12.67,-10.22,8.61,1729415312548.0,0.0
-4.232903,-5.601598,-7.953743,-19.809999,-7.49,5.88,1729415312569.0,0.0
-4.259224,-5.632704,-7.898707,-24.08,-5.67,4.55,1729415312588.0,0.0
-4.161119,-5.682954,-7.735995,-24.43,-4.9,1.89,1729415312609.0,0.0
-4.299902,-5.661418,-7.719246,-19.32,-2.1,0.56,1729415312628.0,0.0
-4.331009,-5.525027,-7.580462,-12.67,-0.14,-0.77,1729415312648.0,0.0
-4.381258,-5.572884,-7.479963,-8.26,2.17,-1.75,1729415312671.0,0.0
-4.517649,-5.443672,-7.393822,-8.05,4.27,-3.57,1729415312688.0,0.0
-4.546363,-5.120641,-7.484749,-7.28,3.43,-4.06,1729415312708.0,0.0
-4.498507,-5.005785,-7.429714,-10.43,2.24,-3.36,1729415312728.0,0.0
-4.508078,-5.067998,-7.238289,-13.51,2.94,-2.73,1729415312749.0,0.0
-4.575077,-5.187639,-7.192825,-10.64,3.5,-1.89,1729415312772.0,0.0
-4.603791,-5.04407,-7.37468,-4.83,3.01,-1.68,1729415312788.0,0.0
-4.539185,-4.819145,-7.487142,-0.14,2.31,0.49,1729415312816.0,0.0
-4.443472,-4.895715,-7.432107,-3.36,2.38,-0.07,1729415312827.0,0.0
-4.618148,-5.111069,-7.13779,-9.17,4.27,-2.59,1729415312849.0,0.0
-4.871787,-5.123034,-7.135397,-10.85,3.85,-6.16,1729415312870.0,0.0
-4.945964,-5.111069,-7.271788,-10.64,0.98,-6.44,1729415312888.0,0.0
-4.759324,-5.020142,-7.412964,-13.16,-2.45,-6.23,1729415312909.0,0.0
-4.476971,-4.931608,-7.475177,-13.02,-5.25,-5.32,1729415312928.0,0.0
-4.345366,-4.847858,-7.415358,-11.9,-4.97,-5.25,1729415312948.0,0.0
-4.316652,-4.898108,-7.470392,-8.47,-5.53,-4.69,1729415312972.0,0.0
-4.395615,-4.532006,-7.958528,-1.68,-6.72,-1.96,1729415312990.0,0.0
-4.407579,-4.359723,-8.252845,-4.62,-8.05,0.42,1729415313009.0,0.0
-4.498507,-4.61097,-7.855636,-12.81,-6.72,1.54,1729415313028.0,0.0
-4.520042,-4.783253,-8.003991,-18.690001,-6.72,-0.91,1729415313048.0,0.0
-4.481757,-4.333402,-8.061419,-29.68,-3.64,-4.41,1729415313070.0,0.0
-4.362115,-4.426722,-8.025528,-40.18,-0.98,-6.65,1729415313089.0,0.0
-4.457829,-4.15394,-7.953743,-57.330002,2.38,-6.09,1729415313115.0,0.0
-4.752146,-4.297509,-8.329416,-76.93,5.67,-8.12,1729415313129.0,0.0
-4.634897,-5.096712,-8.827123,-77.419998,4.2,-8.05,1729415313149.0,0.0
-4.197011,-5.192425,-9.178867,-50.889999,5.53,-8.54,1729415313171.0,0.0
-3.89073,-4.711468,-8.776874,-12.74,14.14,-9.38,1729415313190.0,0.0
-3.76391,-4.144369,-8.590233,23.309999,20.440001,-7.56,1729415313210.0,0.0
-3.809374,-3.716053,-7.9346,45.009998,23.17,-6.58,1729415313229.0,0.0
-3.656233,-4.067799,-7.616355,36.259998,22.469999,-11.27,1729415313249.0,0.0
-2.866602,-4.496114,-7.216753,16.379999,16.1,-11.97,1729415313270.0,0.0
-2.665605,-4.898108,-7.104291,38.709999,7.0,-7.84,1729415313290.0,0.0
-3.091527,-4.486543,-7.793423,90.93,3.71,-0.91,1729415313311.0,0.0
-3.945765,-3.924229,-8.489735,121.169998,5.04,10.78,1729415313330.0,0.0
-5.058427,-3.084348,-8.063812,110.809998,11.48,17.99,1729415313360.0,0.0
-6.680761,-3.278167,-6.491727,80.779999,20.65,23.17,1729415313381.0,0.0
-8.159525,-7.424929,-6.642475,51.939999,17.639999,13.09,1729415313390.0,0.0
-7.13779,-7.893922,-7.360322,73.57,3.57,6.09,1729415313410.0,0.0
-4.797609,-7.226324,-8.049455,132.440002,-2.66,8.75,1729415313429.0,0.0
-4.41715,-5.541777,-6.798009,147.419998,24.780001,22.4,1729415313450.0,0.0
-5.12782,-4.651647,-7.590034,145.320007,45.150002,32.759998,1729415313472.0,0.0
-5.371887,-5.651847,-6.707082,111.370003,50.470001,31.710001,1729415313490.0,0.0
-4.4674,-7.274181,-7.910671,68.25,52.57,14.56,1729415313511.0,0.0
-2.562713,-9.722038,-6.704689,94.290001,46.41,19.389999,1729415313536.0,0.0
-0.772882,-9.946963,0.189033,139.089996,50.049999,13.09,1729415313552.0,0.0
-0.490529,-8.865408,0.387637,162.050003,24.290001,12.04,1729415313573.0,0.0
-0.957129,-9.870394,-1.540978,129.779999,-0.28,2.52,1729415313591.0,0.0
-2.555535,-11.152946,-2.95035,126.419998,-6.16,-4.06,1729415313611.0,0.0
-2.471786,-9.176475,-2.778067,177.520004,-14.14,-1.61,1729415313630.0,0.0
-2.29711,-5.501099,-1.56012,222.529999,-20.790001,8.54,1729415313651.0,0.0
-3.582055,-4.027121,-0.035892,189.559998,-27.860001,20.58,1729415313671.0,0.0
-4.826324,-4.893322,-1.782653,114.800003,-46.34,29.82,1729415313690.0,0.0
-4.706682,-6.309873,-3.553342,49.0,-70.699997,39.27,1729415313712.0,0.0
-5.718846,-6.410372,-6.479764,10.15,-74.830002,49.91,1729415313730.0,0.0
-7.9346,-8.142776,-8.260024,-20.440001,-51.099998,51.380001,1729415313752.0,0.0
-8.595018,-11.550155,-7.853244,-61.18,-26.67,34.299999,1729415313772.0,0.0
-7.104291,-12.265609,-6.266802,-40.040001,-7.77,22.540001,1729415313790.0,0.0
-6.183054,-11.284552,-5.419744,11.83,16.52,13.86,1729415313813.0,0.0
-6.762117,-9.60479,-5.304887,34.509998,44.52,-2.03,1729415313831.0,0.0
-5.192425,-8.709875,-4.036692,32.27,59.360001,-12.81,1729415313852.0,0.0
-3.677768,-9.690931,-1.335195,24.290001,68.949997,-20.370001,1729415313871.0,0.0
-2.79721,-11.059627,3.259024,45.150002,70.980003,-33.32,1729415313891.0,0.0
-1.505085,-9.437292,6.07777,67.410004,42.490002,-30.450001,1729415313911.0,0.0
0.083749,-5.783452,6.305088,81.059998,6.23,-11.55,1729415313931.0,0.0
-0.705883,-3.249453,5.668597,50.119999,-13.51,2.8,1729415313952.0,0.0
-2.825923,-6.211767,3.081956,-43.959999,-39.200001,10.43,1729415313972.0,0.0
-4.280759,-10.765309,-1.095913,-84.769997,-65.099998,14.14,1729415313991.0,0.0
-4.807181,-11.473583,-4.302295,-18.48,-69.510002,16.870001,1729415314013.0,0.0
-5.754738,-8.846266,-5.012963,66.360001,-46.060001,28.98,1729415314030.0,0.0
-7.609176,-9.975677,-7.82453,76.790001,-23.799999,28.559999,1729415314050.0,0.0
-9.430114,-12.189038,-9.425328,47.740002,7.35,5.18,1729415314072.0,0.0
-9.549755,-10.796415,-7.133004,55.650002,26.040001,-11.27,1729415314090.0,0.0
-6.652047,-6.922436,-3.471986,73.709999,10.92,-26.809999,1729415314115.0,0.0
-4.828716,-5.335995,-1.0002,39.900002,16.309999,-41.650002,1729415314132.0,0.0
-4.010371,-6.989435,0.007178,-23.1,23.940001,-53.900002,1729415314150.0,0.0
-2.459821,-10.085747,2.342573,-32.48,32.41,-48.439999,1729415314171.0,0.0
-1.557728,-9.300901,4.876573,12.53,35.07,-25.059999,1729415314192.0,0.0
-1.435694,-7.987241,4.232903,52.849998,22.889999,-9.24,1729415314212.0,0.0
-1.916651,-7.80778,0.993021,29.68,6.72,8.19,1729415314230.0,0.0
-2.54357,-8.855836,-0.976272,3.15,0.49,13.72,1729415314251.0,0.0
-3.57727,-8.860621,-2.086541,-2.1,4.62,16.52,1729415314271.0,0.0
-4.539185,-9.080762,-1.957329,-5.95,12.95,16.030001,1729415314290.0,0.0
-4.962714,-9.226725,-1.902294,-23.73,11.83,6.93,1729415314311.0,0.0
-4.926822,-8.468199,-1.986043,-34.23,6.16,1.96,1729415314330.0,0.0
-5.331209,-7.293324,-0.72024,-56.91,3.22,2.45,1729415314351.0,0.0
-5.812167,-6.819544,0.038285,-118.230003,-8.12,0.21,1729415314372.0,0.0
-4.85743,-7.424929,-2.062613,-184.869995,-37.66,-13.02,1729415314390.0,0.0
-4.582255,-8.812766,-3.529413,-223.300003,-38.709999,-14.77,1729415314411.0,0.0
-4.898108,-9.425328,-4.089334,-205.029999,-29.75,-18.27,1729415314431.0,0.0
-5.484349,-8.255238,-4.773681,-176.399994,-21.91,-14.84,1729415314451.0,0.0
-6.209375,-7.197611,-4.689932,-170.729996,-12.74,-13.72,1729415314472.0,0.0
-6.484549,-7.219146,-5.000999,-187.110001,-12.39,-17.639999,1729415314491.0,0.0
-5.572884,-7.664211,-5.292924,-216.860001,-20.790001,-32.060001,1729415314512.0,0.0
-4.240082,-8.02792,-5.781059,-217.630005,-26.110001,-37.59,1729415314530.0,0.0
-3.957729,-7.080362,-5.69731,-202.089996,-20.65,-37.380001,1729415314551.0,0.0
-4.319045,-6.941578,-6.477371,-187.389999,-9.45,-36.049999,1729415314573.0,0.0
-3.9673,-7.128219,-6.960721,-167.720001,-11.62,-32.830002,1729415314590.0,0.0
-3.395415,-6.979864,-7.338787,-135.729996,-14.35,-29.049999,1729415314611.0,0.0
-3.735196,-5.941379,-7.037291,-108.919998,-7.35,-24.710001,1729415314636.0,0.0
-4.579862,-4.783253,-7.185646,-114.029999,0.42,-21.49,1729415314650.0,0.0
-4.469792,-3.546163,-7.786245,-154.279999,-4.41,-21.91,1729415314672.0,0.0
-3.711268,-4.326223,-9.19801,-172.339996,-13.65,-21.91,1729415314690.0,0.0
-3.347559,-5.223531,-9.516255,-162.259995,-13.23,-26.530001,1729415314710.0,0.0
-3.634698,-4.328616,-8.73141,-141.75,-4.41,-30.24,1729415314730.0,0.0
