acc_x,acc_y,acc_z,gyr_x,gyr_y,gyr_z,timestamp,label
-2.065006,-1.509871,-10.293922,3.22,-31.01,1.68,1729419552191.0,0.0
-2.139183,-2.376073,-9.724431,-46.200001,-11.06,-3.01,1729419552196.0,0.0
-1.902294,-3.708875,-9.803394,-57.75,-5.67,-9.52,1729419552198.0,0.0
-1.718047,-3.285345,-8.886944,-31.85,-10.29,-5.81,1729419552198.0,0.0
-1.921437,-2.634498,-9.296116,-13.72,-11.13,-1.96,1729419552205.0,0.0
-1.964507,-2.782853,-10.633704,-9.66,-8.75,-1.26,1729419552225.0,0.0
-2.012364,-2.682354,-10.631311,-7.98,-0.07,2.94,1729419552245.0,0.0
-2.273181,-2.565106,-9.906286,-1.26,10.64,5.39,1729419552266.0,0.0
-3.062813,-3.031706,-7.238289,-0.14,12.6,12.32,1729419552285.0,0.0
-4.283153,-3.672983,-8.075776,-5.46,6.65,12.53,1729419552304.0,0.0
-4.280759,-4.465007,-9.367901,-3.64,-10.15,1.54,1729419552325.0,0.0
-3.59402,-3.876373,-9.408579,-3.71,-14.28,-3.85,1729419552345.0,0.0
-3.053242,-3.601198,-9.901501,-12.53,-20.58,-6.16,1729419552365.0,0.0
-2.376073,-4.61097,-9.853643,-22.26,-17.5,-14.35,1729419552385.0,0.0
-1.569692,-3.704089,-10.128819,1.68,-16.24,-21.91,1729419552405.0,0.0
-1.615155,-2.06022,-9.609575,50.68,-8.68,-16.52,1729419552425.0,0.0
-1.98365,-0.993021,-9.090333,63.349998,-6.93,-13.440001,1729419552447.0,0.0
-2.89053,-1.861616,-8.587841,26.389999,1.68,-8.96,1729419552465.0,0.0
-2.624927,-3.050849,-9.49472,8.61,0.77,-10.57,1729419552484.0,0.0
-2.335395,-2.694318,-9.499505,20.860001,-4.9,-8.19,1729419552508.0,0.0
-2.778067,-2.179861,-8.568698,28.98,-1.75,-2.17,1729419552525.0,0.0
-2.955136,-2.749353,-8.193025,19.530001,-3.78,-1.05,1729419552545.0,0.0
-2.866602,-2.761317,-8.518449,12.81,-4.48,6.79,1729419552565.0,0.0
-3.282953,-2.957529,-8.652447,12.67,-7.77,17.08,1729419552584.0,0.0
-3.957729,-3.634698,-7.712067,-5.53,6.72,18.690001,1729419552605.0,0.0
-4.354938,-5.402994,-7.802995,-13.09,-1.61,16.870001,1729419552625.0,0.0
-4.338188,-5.9677,-7.829315,-25.34,-14.7,7.49,1729419552644.0,0.0
-3.617948,-5.539384,-8.391629,-44.170002,-31.360001,-7.84,1729419552664.0,0.0
-2.799603,-5.022535,-9.444471,-43.889999,-42.209999,-16.52,1729419552686.0,0.0
-2.663212,-4.400401,-9.803394,-2.8,-36.119999,-16.309999,1729419552705.0,0.0
-3.369094,-2.904887,-8.752945,38.57,-20.370001,-10.92,1729419552725.0,0.0
-3.912265,-1.962115,-8.525627,36.959999,-16.870001,-8.61,1729419552745.0,0.0
-3.814159,-2.548356,-8.870193,14.07,-19.32,-4.62,1729419552764.0,0.0
-2.691926,-3.507878,-9.485149,3.57,-24.780001,-2.31,1729419552786.0,0.0
-2.541178,-3.072384,-8.886944,31.360001,-11.69,-0.42,1729419552806.0,0.0
-3.354738,-2.419144,-8.463413,48.16,3.5,1.12,1729419552825.0,0.0
-3.555735,-2.699104,-7.814958,40.529999,-5.18,7.98,1729419552846.0,0.0
-3.251846,-3.239882,-7.264609,23.17,-11.69,11.06,1729419552864.0,0.0
-3.443272,-3.335595,-7.551748,4.48,-18.34,12.11,1729419552884.0,0.0
-4.015156,-3.771089,-7.886744,-14.7,-15.12,11.69,1729419552907.0,0.0
-4.321437,-5.149354,-7.228717,-31.360001,-15.61,7.98,1729419552925.0,0.0
-4.359723,-5.876772,-5.821737,-46.48,-17.219999,-4.41,1729419552945.0,0.0
-3.957729,-5.548956,-7.216753,-49.490002,-34.16,-18.9,1729419552965.0,0.0
-3.620341,-4.788038,-8.315059,-27.790001,-42.279999,-20.370001,1729419552985.0,0.0
-3.644269,-4.189832,-8.212167,10.64,-35.209999,-15.12,1729419553006.0,0.0
-4.539185,-3.644269,-7.944171,34.509998,-20.65,-9.59,1729419553024.0,0.0
-4.800002,-3.072384,-8.092526,42.490002,-20.51,-4.48,1729419553046.0,0.0
-4.472186,-2.65364,-8.49452,45.849998,-27.23,5.04,1729419553064.0,0.0
-3.902694,-2.117648,-7.812566,48.23,-24.710001,9.66,1729419553084.0,0.0
-3.716053,-2.59382,-7.534998,44.099998,-13.86,18.059999,1729419553106.0,0.0
-5.118248,-3.285345,-7.65464,48.23,-9.45,25.83,1729419553124.0,0.0
-5.601598,-4.055835,-8.130811,23.940001,-1.54,21.42,1729419553147.0,0.0
-5.099105,-4.185047,-7.865208,-11.97,-10.22,14.49,1729419553166.0,0.0
-4.421937,-4.299902,-7.405786,-16.73,-17.08,10.78,1729419553186.0,0.0
-4.522435,-5.015356,-6.896115,-17.43,-15.33,4.83,1729419553204.0,0.0
-5.218746,-5.422136,-6.575477,-50.75,-6.3,-8.61,1729419553225.0,0.0
-5.213961,-6.056234,-7.410572,-80.290001,-11.06,-25.76,1729419553247.0,0.0
-4.412365,-5.886343,-8.901299,-72.449997,-28.42,-32.130001,1729419553265.0,0.0
-4.101298,-5.426922,-9.710074,-37.66,-28.77,-31.290001,1729419553286.0,0.0
-4.244867,-4.498507,-8.386844,11.41,-8.4,-24.92,1729419553304.0,0.0
-4.706682,-2.924029,-7.647461,50.330002,1.82,-16.870001,1729419553325.0,0.0
-5.240282,-1.57687,-7.779066,68.529999,-1.82,-3.22,1729419553348.0,0.0
-5.850451,-2.476572,-7.465607,44.310001,-0.84,2.87,1729419553364.0,0.0
-5.946165,-3.067599,-8.109276,3.57,6.93,-4.2,1729419553385.0,0.0
-5.680561,-3.349952,-8.551948,-12.32,-2.17,-2.66,1729419553405.0,0.0
-5.264209,-3.266203,-9.018548,-4.83,-4.9,-2.73,1729419553425.0,0.0
-5.539384,-3.366701,-8.645268,8.12,4.06,2.1,1729419553444.0,0.0
-5.919843,-3.960121,-8.513663,3.71,10.85,6.86,1729419553464.0,0.0
-5.98445,-3.804588,-8.389235,-20.09,5.32,8.82,1729419553483.0,0.0
-6.171089,-5.261817,-8.733803,-11.2,3.5,10.85,1729419553508.0,0.0
-6.106483,-5.460421,-7.594819,-26.110001,7.91,6.65,1729419553525.0,0.0
-6.331409,-5.860023,-6.518049,-56.490002,5.46,-3.01,1729419553547.0,0.0
-5.752346,-6.262017,-8.29113,-75.809998,-6.86,-18.27,1729419553563.0,0.0
-4.881358,-6.183054,-9.267403,-58.310001,-13.72,-21.77,1729419553584.0,0.0
-4.460221,-5.225924,-9.427721,-21.49,-6.02,-22.190001,1729419553604.0,0.0
-5.017749,-3.871587,-8.343772,30.309999,13.58,-16.030001,1729419553626.0,0.0
-5.285746,-2.330609,-7.60439,56.420002,17.08,-9.52,1729419553645.0,0.0
-4.766503,-1.485943,-7.075576,54.880001,0.77,6.51,1729419553664.0,0.0
-4.321437,-2.471786,-7.810174,30.870001,-6.44,16.309999,1729419553683.0,0.0
-4.677969,-3.39063,-8.039884,-1.26,11.55,12.18,1729419553706.0,0.0
-5.185246,-3.515057,-7.496714,-2.87,21.629999,6.3,1729419553724.0,0.0
-5.539384,-3.706482,-7.171289,23.17,10.64,7.07,1729419553745.0,0.0
-5.644669,-2.603391,-6.625726,29.889999,5.6,5.74,1729419553764.0,0.0
-5.35753,-3.29731,-7.444071,-0.77,-3.5,4.48,1729419553784.0,0.0
-5.326423,-4.622933,-7.724032,-51.869999,2.24,-2.52,1729419553804.0,0.0
-6.348158,-4.814359,-7.171289,-44.59,3.99,-5.04,1729419553826.0,0.0
-6.628119,-4.821537,-8.140383,-43.119999,-5.81,-11.62,1729419553847.0,0.0
-5.520242,-5.448457,-9.413363,-55.790001,-20.719999,-11.55,1729419553863.0,0.0
-4.201797,-5.795416,-9.150154,-45.849998,-17.5,-13.3,1729419553885.0,0.0
-4.177868,-4.929214,-8.886944,-4.27,1.96,-13.440001,1729419553906.0,0.0
-4.800002,-3.366701,-7.286145,43.049999,12.67,-7.28,1729419553925.0,0.0
-4.754539,-2.87378,-7.661818,49.700001,5.88,-3.92,1729419553946.0,0.0
-4.278367,-2.87378,-7.209574,39.549999,-7.28,2.94,1729419553964.0,0.0
-4.141976,-2.842674,-7.467999,30.59,-4.69,0.91,1729419553983.0,0.0
-4.74736,-2.847459,-7.305287,22.4,7.84,1.19,1729419554006.0,0.0
-4.955536,-3.342773,-7.69771,14.35,7.84,-0.98,1729419554025.0,0.0
-4.756931,-3.627519,-8.070991,16.940001,4.9,1.54,1729419554047.0,0.0
-4.527221,-3.558127,-8.848659,31.43,0.63,0.28,1729419554064.0,0.0
-4.819145,-3.182454,-7.822137,26.25,9.8,-1.19,1729419554084.0,0.0
-5.455636,-2.95035,-8.425128,16.450001,14.84,-2.87,1729419554104.0,0.0
-5.718846,-3.634698,-8.154739,-2.38,6.16,3.43,1729419554124.0,0.0
-5.647062,-4.969893,-7.49432,-37.170002,4.55,-0.63,1729419554145.0,0.0
-5.52742,-5.379066,-7.389036,-53.41,2.45,-8.05,1729419554163.0,0.0
-5.216353,-5.589634,-7.503892,-61.880001,-6.09,-18.48,1729419554186.0,0.0
-4.651647,-5.551349,-8.578269,-50.610001,-8.54,-24.15,1729419554205.0,0.0
-4.244867,-5.230711,-8.638089,-20.02,-5.6,-20.16,1729419554224.0,0.0
-4.070191,-4.244867,-8.224132,20.93,-1.4,-15.96,1729419554244.0,0.0
-4.319045,-2.813959,-7.759924,48.93,3.64,-7.35,1729419554264.0,0.0
-4.737789,-2.493321,-7.695317,50.610001,8.54,-1.68,1729419554283.0,0.0
-4.48415,-2.727818,-7.336394,34.580002,7.28,1.82,1729419554304.0,0.0
-4.266403,-3.239882,-7.71446,23.24,2.17,6.79,1729419554323.0,0.0
-4.599005,-3.591627,-7.910671,16.24,7.07,4.34,1729419554344.0,0.0
-4.945964,-3.558127,-7.537392,11.48,12.46,-1.12,1729419554365.0,0.0
-5.003392,-3.519842,-7.783852,21.84,9.03,2.38,1729419554385.0,0.0
-4.804788,-3.139383,-7.948956,34.439999,-2.03,4.76,1729419554406.0,0.0
-5.046463,-2.957529,-7.501499,19.530001,2.31,5.04,1729419554424.0,0.0
-5.438886,-3.706482,-7.37468,-15.75,4.27,1.47,1729419554445.0,0.0
-5.144568,-5.072784,-7.432107,-31.360001,2.38,0.63,1729419554464.0,0.0
-4.694718,-5.070391,-7.896315,-26.18,-4.9,-0.42,1729419554483.0,0.0
-5.058427,-5.06082,-7.733603,-19.460001,-7.14,-0.49,1729419554507.0,0.0
-5.192425,-5.173282,-7.79103,-29.33,-1.26,-7.28,1729419554523.0,0.0
-4.795217,-5.489135,-8.051848,-32.34,-7.49,-8.75,1729419554546.0,0.0
-4.13719,-5.24746,-8.611769,-20.58,-9.94,-9.73,1729419554565.0,0.0
-3.986443,-4.902894,-8.740981,6.09,1.33,-8.33,1729419554585.0,0.0
-4.364508,-3.854837,-8.640482,35.77,10.43,-6.37,1729419554607.0,0.0
-4.522435,-2.964707,-7.886744,46.060001,10.43,-1.54,1729419554624.0,0.0
-4.414758,-2.849852,-6.814759,36.189999,5.32,4.2,1729419554645.0,0.0
-4.517649,-3.507878,-6.922436,25.620001,2.38,4.83,1729419554665.0,0.0
-4.893322,-3.76391,-7.513463,18.41,3.22,3.15,1729419554685.0,0.0
-5.225924,-3.85723,-7.575676,8.96,3.64,-0.35,1729419554703.0,0.0
-5.290531,-4.13719,-7.484749,0.21,3.92,-3.01,1729419554723.0,0.0
-5.051248,-4.15394,-7.487142,8.75,3.08,-1.68,1729419554746.0,0.0
-5.118248,-3.555735,-7.305287,22.33,0.56,1.75,1729419554763.0,0.0
-5.249853,-3.278167,-7.472785,17.219999,-3.99,3.22,1729419554785.0,0.0
-5.099105,-4.378866,-7.982457,-21.77,-4.34,2.38,1729419554803.0,0.0
-5.211568,-5.20439,-7.24786,-63.07,-2.03,-3.08,1729419554823.0,0.0
-5.4006,-5.54417,-7.869993,-53.200001,-5.53,-10.29,1729419554847.0,0.0
-5.039285,-5.601598,-8.157133,-38.990002,-13.09,-9.66,1729419554864.0,0.0
-4.223332,-5.391029,-8.827123,-31.639999,-15.12,-12.32,1729419554884.0,0.0
-4.113262,-5.407779,-8.750552,-0.21,-1.54,-9.73,1729419554904.0,0.0
-4.448257,-4.240082,-8.267202,39.549999,9.45,-7.42,1729419554925.0,0.0
-4.74736,-3.223132,-7.989635,58.099998,9.66,-2.17,1729419554946.0,0.0
-4.333402,-2.684747,-7.152147,42.77,1.61,1.26,1729419554965.0,0.0
-4.180261,-3.376273,-7.094719,19.809999,-1.68,3.08,1729419554985.0,0.0
-4.627719,-4.003192,-7.556533,10.71,4.83,-0.28,1729419555003.0,0.0
-5.032106,-3.95055,-7.838887,2.24,6.44,-4.76,1729419555026.0,0.0
-4.888536,-3.9338,-8.142776,8.33,4.69,-3.57,1729419555045.0,0.0
-4.788038,-3.802195,-7.724032,21.629999,1.75,0.84,1729419555065.0,0.0
-5.094319,-3.469593,-7.176075,20.09,7.21,0.49,1729419555083.0,0.0
-5.513064,-3.608376,-7.216753,11.06,6.51,1.4,1729419555105.0,0.0
-5.161318,-4.019942,-7.728817,3.99,0.98,4.9,1729419555124.0,0.0
-4.926822,-4.393222,-7.52782,-4.2,-8.82,8.19,1729419555146.0,0.0
-5.146961,-5.264209,-7.668997,-29.610001,3.5,-0.21,1729419555164.0,0.0
-5.493921,-5.575277,-7.140182,-39.200001,2.31,-3.92,1729419555183.0,0.0
-5.111069,-5.76431,-7.750352,-37.240002,-9.31,-10.08,1729419555205.0,0.0
-4.56072,-5.63749,-8.276773,-38.360001,-13.72,-10.64,1729419555225.0,0.0
-4.307081,-5.702096,-8.817552,-23.59,-4.83,-14.91,1729419555246.0,0.0
-4.424329,-5.144568,-9.075976,9.87,5.39,-11.76,1729419555265.0,0.0
-4.563113,-4.022335,-8.4012,43.82,9.03,-6.79,1729419555283.0,0.0
-4.371687,-3.081956,-7.743174,49.420002,9.73,-2.94,1729419555304.0,0.0
-4.354938,-2.888137,-6.836295,38.009998,7.7,0.42,1729419555324.0,0.0
-4.718646,-3.385844,-6.979864,28.91,5.53,2.73,1729419555346.0,0.0
-4.869394,-3.862016,-7.111469,5.25,4.83,2.73,1729419555362.0,0.0
-4.211368,-4.474578,-7.599605,-12.04,-0.56,-3.57,1729419555385.0,0.0
-4.309474,-4.510471,-7.640282,9.03,0.84,-0.7,1729419555404.0,0.0
-4.910072,-3.835695,-6.989435,27.440001,9.45,-2.38,1729419555424.0,0.0
-5.417351,-3.799802,-6.786045,22.82,5.67,-1.89,1729419555444.0,0.0
-5.331209,-3.570091,-7.147361,4.97,-0.56,-1.96,1729419555463.0,0.0
-5.501099,-4.232903,-7.635497,-6.86,-10.43,4.06,1729419555483.0,0.0
-5.584848,-4.644469,-7.982457,-25.76,-2.66,1.75,1729419555507.0,0.0
-5.522634,-5.228317,-7.580462,-42.279999,-2.17,0.28,1729419555525.0,0.0
-5.206782,-5.711668,-7.645068,-44.099998,-6.09,-4.41,1729419555546.0,0.0
-4.689932,-5.723632,-8.214561,-47.25,-11.76,-9.66,1729419555563.0,0.0
-4.132405,-5.99402,-8.645268,-40.740002,-6.65,-14.7,1729419555583.0,0.0
-3.938586,-5.757132,-8.843873,-5.95,1.82,-13.23,1729419555604.0,0.0
-4.201797,-4.443472,-8.595018,39.619999,10.36,-7.77,1729419555626.0,0.0
-4.362115,-3.235096,-7.89153,51.52,12.67,-4.2,1729419555644.0,0.0
-3.952943,-2.888137,-7.278966,36.259998,11.2,1.05,1729419555663.0,0.0
-4.151547,-3.787838,-6.565905,34.09,9.52,9.45,1729419555684.0,0.0
-4.924429,-4.359723,-6.903293,43.82,13.16,6.79,1729419555702.0,0.0
-5.685347,-4.4674,-8.051848,34.439999,18.83,2.1,1729419555724.0,0.0
-5.723632,-4.694718,-7.750352,41.299999,19.879999,5.95,1729419555743.0,0.0
-5.520242,-5.218746,-7.676175,69.300003,19.530001,8.19,1729419555763.0,0.0
-5.458029,-5.761917,-7.592427,77.699997,26.460001,3.36,1729419555783.0,0.0
-5.594419,-6.67119,-7.977671,57.82,38.360001,-3.78,1729419555804.0,0.0
-5.455636,-8.671589,-8.463413,47.25,46.34,-22.120001,1729419555822.0,0.0
-5.168497,-8.839087,-8.865408,89.529999,62.23,-29.33,1729419555853.0,0.0
-5.032106,-8.396415,-8.295916,168.770004,64.889999,-31.219999,1729419555864.0,0.0
-4.895715,-7.109076,-7.032506,238.630005,61.110001,-25.969999,1729419555882.0,0.0
-4.474578,-6.635297,-5.453243,275.519989,54.459999,-25.27,1729419555904.0,0.0
-3.598805,-7.015756,-5.615955,278.040009,44.52,-27.790001,1729419555924.0,0.0
-2.457429,-8.236095,-5.65424,277.970001,33.110001,-26.460001,1729419555946.0,0.0
-1.213161,-8.666803,-5.07757,265.089996,36.540001,-32.759998,1729419555963.0,0.0
-0.866202,-8.446664,-4.369294,244.089996,46.549999,-33.880001,1729419555982.0,0.0
-0.710668,-7.73121,-3.287738,229.600006,70.699997,-33.950001,1729419556006.0,0.0
-0.748954,-8.29113,-3.460021,227.919998,83.019997,-28.35,1729419556023.0,0.0
-1.134198,-7.874779,-1.785046,218.610001,92.889999,-30.030001,1729419556046.0,0.0
-1.770689,-7.913064,-1.464408,219.940002,108.080002,-28.210001,1729419556063.0,0.0
-2.639283,-8.429914,0.421137,213.850006,102.410004,-27.51,1729419556083.0,0.0
-2.376073,-6.364908,-0.636491,201.740005,88.410004,-24.219999,1729419556104.0,0.0
-2.536392,-5.659025,0.210568,192.570007,86.169998,-5.46,1729419556122.0,0.0
-4.366901,-6.680761,4.429115,133.630005,69.580002,8.19,1729419556143.0,0.0
-4.130012,-6.101698,1.605584,-22.469999,28.0,12.95,1729419556163.0,0.0
-4.266403,-10.79163,-0.260818,-59.709999,-0.98,14.14,1729419556183.0,0.0
-2.811567,-15.294923,-2.230111,-20.65,-34.02,-0.28,1729419556205.0,0.0
-1.098306,-10.107283,-0.643669,77.07,42.98,6.72,1729419556223.0,0.0
-2.507678,-6.259624,3.39063,69.440002,77.209999,9.66,1729419556243.0,0.0
-4.326223,-7.886744,4.06062,-38.080002,21.49,-1.47,1729419556262.0,0.0
-2.555535,-11.746366,1.861616,-49.0,-36.189999,-6.93,1729419556282.0,0.0
-1.155733,-9.803394,1.974079,25.83,5.53,3.29,1729419556305.0,0.0
-2.536392,-7.49432,3.086741,37.799999,34.509998,7.63,1729419556323.0,0.0
-3.481557,-8.020741,3.127419,-17.360001,21.629999,7.98,1729419556346.0,0.0
-2.062613,-10.037891,2.931208,-11.13,0.7,8.12,1729419556364.0,0.0
-0.825524,-8.956335,3.125026,60.27,19.67,18.620001,1729419556383.0,0.0
-0.801596,-7.769495,2.993421,85.260002,30.870001,29.75,1729419556403.0,0.0
-0.87338,-8.008778,1.887937,56.560001,5.32,41.860001,1729419556423.0,0.0
-1.459622,-7.982457,3.235096,43.82,2.31,55.650002,1729419556443.0,0.0
-5.091926,-8.456236,4.752146,1.54,9.94,56.349998,1729419556462.0,0.0
-6.142376,-10.872985,0.038285,-70.840004,-25.129999,32.759998,1729419556482.0,0.0
-3.615555,-11.040483,-0.614955,-61.670002,-32.41,9.52,1729419556506.0,0.0
-5.242674,-10.908878,0.899701,-36.189999,5.32,-0.98,1729419556524.0,0.0
-6.515656,-10.595419,0.885344,-46.48,6.79,-21.280001,1729419556546.0,0.0
-4.555934,-11.373087,0.555135,-35.91,-16.379999,-30.380001,1729419556563.0,0.0
-3.046063,-10.506885,0.794417,-11.97,-8.19,-34.439999,1729419556584.0,0.0
-3.806981,-8.456236,0.909273,6.51,13.93,-38.43,1729419556603.0,0.0
-4.783253,-9.413363,0.131605,2.45,24.43,-37.59,1729419556622.0,0.0
-3.704089,-10.301102,0.366102,-5.81,12.46,-43.889999,1729419556645.0,0.0
-2.39043,-8.68116,1.579263,34.02,20.51,-35.0,1729419556663.0,0.0
-2.940779,-7.001399,3.54377,51.450001,29.610001,-27.93,1729419556682.0,0.0
-3.019742,-6.903293,3.68734,2.52,15.47,-27.299999,1729419556703.0,0.0
-1.416551,-8.216952,2.526821,-45.220001,-18.27,-26.809999,1729419556723.0,0.0
-0.502493,-10.004392,1.868794,-49.630001,-22.540001,-23.73,1729419556745.0,0.0
-0.555135,-9.525827,1.521835,-35.420002,-15.33,-23.17,1729419556762.0,0.0
-1.246661,-8.645268,2.586641,-21.559999,-17.92,-13.86,1729419556782.0,0.0
-1.208375,-7.446464,1.366302,-29.82,-30.309999,-7.7,1729419556803.0,0.0
-1.253839,-7.523034,2.318645,-44.799999,-27.299999,11.55,1729419556823.0,0.0
-2.478964,-9.868,0.095713,-88.410004,-34.790001,12.04,1729419556843.0,0.0
-2.679961,-11.370694,-0.437887,-33.529999,-31.710001,14.77,1729419556865.0,0.0
-2.500499,-8.819944,-0.028714,25.200001,-4.97,21.210001,1729419556881.0,0.0
-2.931208,-7.781459,0.490529,36.75,1.61,28.630001,1729419556904.0,0.0
-3.175276,-7.874779,-0.622134,21.280001,0.98,36.330002,1729419556924.0,0.0
-6.613762,-11.80858,2.976671,-21.280001,17.5,34.369999,1729419556953.0,0.0
-7.133004,-13.031311,-1.138984,-98.0,-19.6,-6.86,1729419556962.0,0.0
-2.529213,-12.842279,-2.301895,-10.15,-33.389999,-11.27,1729419556982.0,0.0
-1.667797,-9.188439,0.119641,95.690002,25.83,-4.69,1729419557004.0,0.0
-4.285545,-6.776474,0.105284,111.090004,57.889999,-2.03,1729419557023.0,0.0
-5.465207,-7.9011,0.100499,76.300003,46.970001,8.61,1729419557044.0,0.0
-4.697111,-10.485349,2.660819,12.11,26.530001,-4.13,1729419557062.0,0.0
-2.569891,-10.681561,0.909273,-22.540001,9.1,-16.66,1729419557082.0,0.0
-1.28016,-10.006784,2.737389,1.89,14.28,-20.16,1729419557104.0,0.0
-0.949951,-9.267403,2.962314,22.049999,16.450001,-22.26,1729419557183.0,0.0
-1.124627,-8.425128,3.127419,13.51,4.62,-18.059999,1729419557186.0,0.0
-1.519442,-8.236095,2.344966,-31.57,-25.690001,-13.72,1729419557187.0,0.0
-1.143769,-8.52802,1.990828,-31.710001,-29.190001,-4.13,1729419557187.0,0.0
-1.423729,-7.927422,1.998007,-26.74,-22.75,4.2,1729419557216.0,0.0
-2.273181,-8.855836,0.78006,-19.460001,-19.809999,12.46,1729419557221.0,0.0
-2.531606,-9.614362,-0.057428,5.04,-18.76,17.780001,1729419557244.0,0.0
-2.926422,-9.171689,0.598206,35.630001,0.42,24.92,1729419557264.0,0.0
-3.756732,-8.420342,0.131605,40.670002,12.18,27.23,1729419557282.0,0.0
-5.766702,-10.884951,1.208375,21.77,18.969999,28.98,1729419557302.0,0.0
-5.489135,-11.887544,-0.038285,-27.299999,2.03,6.44,1729419557323.0,0.0
-3.476771,-10.832308,-0.22014,8.61,0.49,5.18,1729419557342.0,0.0
-3.232704,-7.4345,-1.392623,73.150002,31.15,5.04,1729419557363.0,0.0
-4.838287,-7.051648,0.674776,99.400002,62.580002,19.040001,1729419557383.0,0.0
-6.656832,-9.107083,4.173083,15.68,39.970001,7.77,1729419557402.0,0.0
-4.613362,-11.162518,1.878366,-73.010002,-5.25,-14.35,1729419557424.0,0.0
-1.562513,-11.602797,0.244068,-63.91,-11.69,-24.15,1729419557443.0,0.0
-1.048056,-10.648061,2.651247,-8.61,14.35,-28.210001,1729419557462.0,0.0
-2.646462,-8.750552,3.651447,25.27,18.620001,-25.549999,1729419557481.0,0.0
-2.299503,-8.157133,3.270989,-43.75,-18.41,-32.130001,1729419557506.0,0.0
-1.292124,-8.793623,2.218147,-70.139999,-42.209999,-27.23,1729419557523.0,0.0
-1.115055,-8.465806,2.031506,-50.82,-36.82,-18.48,1729419557543.0,0.0
-1.868794,-7.436893,1.359123,-34.860001,-24.780001,-8.26,1729419557562.0,0.0
-2.151148,-7.838887,1.612763,-37.029999,-31.290001,0.91,1729419557583.0,0.0
-1.993221,-9.023334,-0.057428,-38.5,-34.369999,9.17,1729419557604.0,0.0
-2.108077,-9.41815,-0.535992,-1.68,-16.379999,19.809999,1729419557635.0,0.0
-2.940779,-9.01137,-1.227518,42.349998,10.5,30.24,1729419557643.0,0.0
-3.974478,-8.126025,-0.602991,61.389999,26.530001,36.470001,1729419557663.0,0.0
-6.941578,-11.021341,3.924229,34.369999,32.759998,35.98,1729419557681.0,0.0
-6.692725,-11.964113,-0.78006,-73.709999,-10.78,-0.91,1729419557702.0,0.0
-2.656033,-11.789437,-2.699104,-28.0,-31.219999,-4.76,1729419557722.0,0.0
-2.287539,-9.030513,-1.272982,86.169998,35.209999,7.63,1729419557742.0,0.0
-6.108876,-9.102298,2.194218,101.639999,75.949997,0.98,1729419557761.0,0.0
-6.742974,-10.030712,1.141376,8.19,32.830002,-16.24,1729419557782.0,0.0
-2.921637,-10.968699,1.335195,-54.880001,-8.61,-36.049999,1729419557804.0,0.0
-0.09332,-9.480364,3.24706,-27.299999,-8.4,-40.389999,1729419557823.0,0.0
-1.725225,-7.776673,3.797409,45.150002,23.309999,-30.799999,1729419557844.0,0.0
-2.37368,-7.525427,3.194418,0.77,-1.05,-26.809999,1729419557862.0,0.0
-1.603191,-8.492127,2.115255,-54.810001,-32.689999,-24.99,1729419557935.0,0.0
-0.918844,-9.379865,1.256232,-52.709999,-39.130001,-20.16,1729419557935.0,0.0
-0.823131,-8.114061,0.765703,-12.81,-22.82,-8.82,1729419557935.0,0.0
-1.564906,-7.24786,1.555335,14.91,-7.7,8.89,1729419558046.0,0.0
-2.581856,-7.592427,0.504886,-2.66,-9.52,18.690001,1729419558046.0,0.0
-3.438486,-9.219545,-0.074178,-12.6,-14.42,23.309999,1729419558046.0,0.0
-3.371487,-9.650253,-0.303888,-2.38,-10.99,28.210001,1729419558046.0,0.0
-3.622734,-8.415558,0.129212,12.81,-2.03,31.710001,1729419558047.0,0.0
-6.075377,-10.427922,1.512264,6.51,10.5,31.92,1729419558047.0,0.0
-5.936593,-11.569297,-1.272982,-59.080002,-10.01,3.01,1729419558061.0,0.0
-3.06042,-12.263215,-1.598405,-46.48,-27.16,-3.64,1729419558080.0,0.0
-1.820938,-10.286745,-1.134198,14.91,9.52,-4.06,1729419558103.0,0.0
-4.089334,-9.743573,1.988436,39.900002,46.759998,-9.66,1729419558120.0,0.0
-5.24746,-10.121639,1.689333,-11.06,29.68,-24.780001,1729419558141.0,0.0
-1.993221,-10.581062,0.674776,-65.099998,-1.26,-35.560001,1729419558160.0,0.0
-0.636491,-10.162319,1.806581,-30.380001,-4.2,-37.59,1729419558180.0,0.0
-0.964308,-8.066205,2.579463,32.830002,16.17,-27.65,1729419558201.0,0.0
-1.581656,-7.003791,2.656033,32.689999,14.21,-19.040001,1729419558220.0,0.0
-1.462015,-7.719246,2.103291,-14.56,-15.47,-13.37,1729419558242.0,0.0
-1.107877,-8.788837,0.732204,-46.689999,-32.900002,-7.28,1729419558260.0,0.0
-1.079163,-9.35833,0.464208,-25.76,-28.84,2.17,1729419558280.0,0.0
-1.660619,-8.915657,0.495314,10.64,-15.82,12.04,1729419558300.0,0.0
-2.239682,-7.960921,-0.212961,33.950001,-2.8,22.540001,1729419558321.0,0.0
-3.158526,-8.25763,-0.394816,31.43,7.84,33.110001,1729419558341.0,0.0
-3.988836,-9.174082,-0.39003,17.15,11.48,34.790001,1729419558360.0,0.0
-5.072784,-10.301102,0.89013,25.200001,13.79,35.77,1729419558380.0,0.0
-6.623333,-12.954741,0.849452,-7.77,12.6,18.83,1729419558401.0,0.0
-4.575077,-11.748759,-0.70349,-40.459999,-11.76,-7.77,1729419558421.0,0.0
-2.227718,-10.674382,-1.387837,18.620001,-3.99,-0.7,1729419558442.0,0.0
-2.904887,-8.334201,-1.428515,71.75,35.139999,-2.45,1729419558461.0,0.0
-5.496314,-8.444271,1.667797,81.900002,62.09,0.14,1729419558480.0,0.0
-4.223332,-10.083356,1.840081,-7.49,33.810001,-14.7,1729419558504.0,0.0
-1.56012,-10.169496,1.694118,-19.950001,-0.07,-18.690001,1729419558520.0,0.0
-0.945165,-9.310472,2.567499,7.35,10.22,-22.68,1729419558541.0,0.0
-1.519442,-8.4347,2.708675,26.25,13.51,-16.52,1729419558560.0,0.0
-2.009971,-7.889136,3.17049,5.6,-2.24,-11.76,1729419558580.0,0.0
-1.828116,-8.482556,2.524428,-24.99,-22.4,-7.21,1729419558601.0,0.0
-1.706082,-8.88455,1.775474,-46.759998,-37.66,-4.55,1729419558622.0,0.0
-1.698904,-8.678767,1.665405,-46.41,-39.27,1.89,1729419558643.0,0.0
-2.072184,-8.970692,0.911665,-39.689999,-39.060001,8.26,1729419558660.0,0.0
-2.323431,-9.145369,-0.722632,-26.950001,-30.309999,13.86,1729419558680.0,0.0
-2.957529,-8.965906,-1.07677,-9.31,-11.41,20.790001,1729419558701.0,0.0
-3.646662,-8.669197,-2.201397,13.86,12.74,28.700001,1729419558721.0,0.0
-6.049056,-10.183852,3.426522,23.940001,25.9,35.98,1729419558742.0,0.0
-6.65444,-11.813366,-0.26321,-69.440002,1.96,6.58,1729419558760.0,0.0
-4.130012,-12.820745,-1.799403,-105.910004,-38.57,-19.25,1729419558780.0,0.0
-1.938186,-11.755937,-2.519642,-24.99,-22.26,-15.190001,1729419558802.0,0.0
-3.76391,-8.645268,-2.048256,68.25,33.25,-20.370001,1729419558822.0,0.0
-4.761717,-7.740781,0.430708,82.739998,54.880001,-14.56,1729419558843.0,0.0
-4.106083,-8.348558,2.108077,21.35,26.880001,-22.4,1729419558861.0,0.0
-2.079363,-9.516255,2.694318,-13.79,-1.33,-28.559999,1729419558880.0,0.0
-0.380459,-9.016156,2.574677,0.07,-2.73,-22.26,1729419558901.0,0.0
-0.665205,-8.348558,2.469393,3.78,3.36,-18.34,1729419558922.0,0.0
-1.643869,-8.571091,2.112862,-13.79,-2.87,-13.09,1729419558941.0,0.0
-1.835295,-8.853443,2.036292,-19.879999,-16.379999,-7.77,1729419558961.0,0.0
-1.672583,-8.221739,1.347159,-6.16,-17.57,1.68,1729419558981.0,0.0
-2.155933,-8.69791,1.378266,3.43,-18.83,11.55,1729419559001.0,0.0
-2.691926,-9.195618,0.856631,13.09,-24.43,19.110001,1729419559022.0,0.0
-2.909672,-8.752945,0.138784,31.5,-14.91,26.74,1729419559044.0,0.0
-3.787838,-8.29113,0.526421,35.84,-3.5,32.900002,1729419559060.0,0.0
-6.489335,-11.081161,0.057428,-3.5,6.37,30.24,1729419559080.0,0.0
-6.350551,-12.808779,-2.615355,-52.150002,-14.98,-1.47,1729419559102.0,0.0
-3.318845,-13.923835,-1.79701,31.290001,-16.030001,-7.14,1729419559120.0,0.0
-2.610569,-10.372886,-0.29671,119.0,36.75,-16.1,1729419559141.0,0.0
-4.627719,-7.62114,3.129812,143.639999,61.599998,-19.6,1729419559161.0,0.0
-4.295116,-9.064013,1.540978,42.0,19.110001,-23.450001,1729419559180.0,0.0
-2.273181,-11.954542,1.524228,19.110001,-0.56,-37.939999,1729419559202.0,0.0
-1.184447,-9.669396,3.04367,57.82,21.629999,-39.48,1729419559223.0,0.0
-0.854238,-6.647261,4.469792,107.099998,29.190001,-30.380001,1729419559243.0,0.0
-0.581456,-5.649454,4.431508,72.730003,12.04,-21.280001,1729419559260.0,0.0
-0.586242,-7.601997,3.89073,13.65,-13.65,-11.55,1729419559280.0,0.0
-0.978664,-8.535198,3.15374,-8.82,-21.280001,-1.96,1729419559302.0,0.0
-1.641476,-8.135597,3.342773,10.71,-12.32,9.03,1729419559320.0,0.0
-2.081756,-7.094719,3.208775,10.92,-5.39,18.9,1729419559342.0,0.0
-2.402394,-5.443672,1.198804,-22.889999,-0.98,28.84,1729419559360.0,0.0
-3.282953,-7.164111,0.524028,-27.790001,1.33,48.93,1729419559380.0,0.0
-4.460221,-8.786445,0.346959,-12.39,7.91,63.07,1729419559401.0,0.0
-7.06122,-10.126426,3.804588,-1.05,34.720001,63.560001,1729419559420.0,0.0
-8.451449,-12.385249,2.562713,-93.519997,3.15,26.32,1729419559442.0,0.0
-3.328416,-13.521841,0.445065,-86.379997,-37.66,3.85,1729419559461.0,0.0
-1.225125,-8.595018,0.514457,44.099998,13.72,12.32,1729419559480.0,0.0
-5.79781,-7.635497,4.15394,88.059998,57.889999,11.9,1729419559504.0,0.0
-4.118048,-9.135797,4.223332,-35.91,-6.65,-0.42,1729419559521.0,0.0
-2.053042,-10.078569,3.151347,-78.82,-24.360001,-9.52,1729419559541.0,0.0
-2.330609,-8.315059,2.270789,-98.349998,-9.31,-6.16,1729419559560.0,0.0
-3.199204,-6.685547,1.56012,-152.180008,2.03,1.96,1729419559581.0,0.0
-3.732803,-6.735795,1.485943,-241.779999,-13.93,4.34,1729419559600.0,0.0
-3.862016,-7.992027,0.98345,-322.279999,-43.610001,-1.05,1729419559625.0,0.0
-3.448057,-8.599805,-1.012164,-362.390015,-55.299999,-5.74,1729419559645.0,0.0
-3.629912,-8.68116,-2.737389,-393.119995,-40.110001,-9.24,1729419559661.0,0.0
-3.634698,-7.578069,-4.218546,-409.640015,-28.700001,-24.57,1729419559680.0,0.0
-3.61077,-7.271788,-5.886343,-397.110016,-18.27,-28.07,1729419559701.0,0.0
-3.282953,-7.305287,-6.783652,-367.850006,-18.9,-31.99,1729419559721.0,0.0
-2.615355,-7.728817,-8.255238,-301.209991,-30.59,-38.220001,1729419559741.0,0.0
-2.842674,-8.597411,-8.30788,-216.089996,-39.830002,-22.75,1729419559760.0,0.0
-2.751746,-6.625726,-8.915657,-136.080002,-35.91,-17.290001,1729419559779.0,0.0
-3.318845,-5.85763,-8.595018,-65.379997,-51.450001,-3.36,1729419559802.0,0.0
-3.103491,-5.943772,-9.420543,-53.48,-32.689999,5.88,1729419559821.0,0.0
-3.108276,-6.936793,-9.793823,-51.170002,14.07,4.34,1729419559845.0,0.0
-3.206382,-7.042077,-9.224331,-22.4,28.49,-1.68,1729419559861.0,0.0
-3.022135,-5.692525,-8.848659,-9.59,34.509998,-3.57,1729419559879.0,0.0
-2.888137,-5.04407,-7.24786,22.610001,38.5,3.22,1729419559901.0,0.0
-2.926422,-3.986443,-6.410372,50.68,35.279999,17.01,1729419559920.0,0.0
-3.122634,-4.036692,-7.45125,43.889999,24.710001,25.129999,1729419559945.0,0.0
-2.828316,-5.532206,-7.925028,2.38,14.84,20.51,1729419559960.0,0.0
-2.56032,-7.838887,-8.315059,-33.25,8.89,9.87,1729419559982.0,0.0
-2.459821,-7.992027,-9.315259,-15.75,23.940001,-4.2,1729419560001.0,0.0
-2.964707,-6.159126,-7.68096,36.889999,35.490002,-7.42,1729419560020.0,0.0
-3.347559,-4.515256,-6.750153,44.73,34.650002,-13.23,1729419560042.0,0.0
-3.337988,-4.843073,-6.013163,12.81,18.76,-14.91,1729419560060.0,0.0
-2.986243,-7.003791,-7.771888,-5.88,1.19,-18.129999,1729419560079.0,0.0
-2.691926,-7.281359,-10.298709,35.630001,3.15,-21.77,1729419560100.0,0.0
-3.617948,-6.506085,-10.875379,110.529999,40.529999,-15.190001,1729419560120.0,0.0
-4.240082,-5.63749,-4.608576,133.210007,74.830002,-26.67,1729419560140.0,0.0
-4.259224,-4.319045,-2.691926,112.349998,72.940002,-29.33,1729419560159.0,0.0
-3.440879,-6.017949,-4.632504,108.989998,-13.37,-11.62,1729419560179.0,0.0
-2.947958,-5.623133,-5.266603,115.709999,-14.98,2.94,1729419560199.0,0.0
-3.823731,-6.515656,-5.359922,94.010002,-2.8,17.710001,1729419560219.0,0.0
-4.577469,-7.391429,-5.723632,32.619999,36.610001,14.56,1729419560240.0,0.0
-3.964907,-6.91765,-6.417551,8.96,48.439999,19.67,1729419560259.0,0.0
-3.101098,-6.309873,-5.4341,20.02,-9.59,50.470001,1729419560279.0,0.0
-1.552942,-6.034698,-3.771089,-39.619999,-67.480003,51.310001,1729419560300.0,0.0
0.045464,-8.193025,-5.79063,-121.379997,-73.5,34.16,1729419560329.0,0.0
0.031107,-7.585248,-6.850651,-140.070007,-55.580002,22.26,1729419560341.0,0.0
-1.052842,-6.240481,-7.288538,-80.639999,5.53,29.4,1729419560359.0,0.0
-3.086741,-6.798009,-6.927221,-70.489998,18.690001,35.98,1729419560379.0,0.0
-3.371487,-8.068598,-7.573284,-105.139999,-2.52,18.48,1729419560400.0,0.0
-2.785245,-10.246067,-9.997212,-76.370003,-49.07,13.93,1729419560419.0,0.0
-1.825724,-8.865408,-9.279366,-31.710001,-72.309998,2.94,1729419560439.0,0.0
-2.189433,-8.360522,-8.195417,-3.57,-23.940001,-23.1,1729419560458.0,0.0
-3.759124,-7.13779,-7.948956,4.83,33.459999,-49.279999,1729419560479.0,0.0
-5.115855,-6.338587,-7.310073,34.860001,53.41,-48.650002,1729419560502.0,0.0
-4.639683,-3.649055,-5.948557,65.449997,24.01,-25.059999,1729419560519.0,0.0
-4.378866,-4.194618,-5.156533,80.150002,-1.26,-8.82,1729419560541.0,0.0
-3.821337,-5.273781,-6.89133,73.010002,5.25,-9.87,1729419560559.0,0.0
-3.737589,-7.046863,-6.953543,87.010002,25.200001,-2.59,1729419560579.0,0.0
-3.567699,-8.288737,-7.525427,129.639999,29.4,0.14,1729419560600.0,0.0
-3.771089,-7.01097,-6.276374,175.210007,31.5,13.65,1729419560619.0,0.0
-3.931407,-6.034698,-4.26401,161.839996,36.68,23.379999,1729419560640.0,0.0
-3.531806,-7.362715,-4.82393,74.129997,19.18,13.3,1729419560660.0,0.0
-2.835495,-8.051848,-5.300103,-16.17,-0.28,9.38,1729419560679.0,0.0
-2.067399,-8.508877,-4.278367,-61.32,-14.21,5.88,1729419560700.0,0.0
-1.643869,-8.240881,-2.258825,-88.830002,-18.41,4.48,1729419560720.0,0.0
-1.832902,-6.853044,-3.046063,-111.510002,-21.35,-10.08,1729419560740.0,0.0
-2.493321,-6.020342,-5.067998,-137.410004,-25.76,-12.74,1729419560761.0,0.0
-2.988636,-5.869594,-5.807381,-160.860001,-36.959999,-8.33,1729419560780.0,0.0
-3.017349,-7.290931,-7.259824,-177.309998,-59.150002,-7.63,1729419560800.0,0.0
-2.54357,-7.377072,-8.037491,-158.479996,-66.919998,-9.1,1729419560820.0,0.0
-3.316452,-8.279166,-8.001599,-107.099998,-45.360001,-2.24,1729419560841.0,0.0
-3.852444,-7.446464,-8.953942,-49.139999,-11.41,-11.55,1729419560860.0,0.0
-4.113262,-7.405786,-9.824929,0.56,-19.110001,-12.18,1729419560878.0,0.0
-3.026921,-6.675975,-9.973285,30.73,-28.139999,-15.54,1729419560901.0,0.0
-2.610569,-6.652047,-10.624132,63.560001,-12.25,-15.05,1729419560920.0,0.0
-3.15374,-7.262216,-10.628918,108.639999,32.41,-22.26,1729419560941.0,0.0
-3.790231,-7.963314,-7.240681,155.820007,89.529999,-34.02,1729419560960.0,0.0
-3.792624,-6.139983,-3.929015,202.930008,111.440002,-33.599998,1729419560979.0,0.0
-4.62054,-4.792823,-3.235096,235.759995,63.700001,-12.11,1729419561000.0,0.0
-5.525027,-3.548556,-2.734996,189.559998,17.639999,0.98,1729419561020.0,0.0
-5.379066,-4.802395,-2.991028,103.809998,28.91,8.68,1729419561041.0,0.0
-4.850252,-6.350551,-5.228317,22.4,18.969999,14.0,1729419561059.0,0.0
-4.036692,-7.144968,-6.331409,-14.98,-13.23,25.129999,1729419561079.0,0.0
-2.880959,-8.77448,-5.041678,-57.049999,-37.380001,29.960001,1729419561100.0,0.0
-1.596013,-8.690732,-4.500899,-99.400002,-52.290001,8.61,1729419561119.0,0.0
-0.976272,-8.599805,-4.981857,-92.82,-56.139999,3.08,1729419561141.0,0.0
-1.11027,-6.941578,-5.62074,-77.139999,-31.85,7.63,1729419561159.0,0.0
-1.990828,-6.67119,-5.895915,-57.75,2.38,14.07,1729419561179.0,0.0
-2.658426,-7.329216,-5.771489,-106.190002,4.83,17.5,1729419561200.0,0.0
-2.926422,-8.877372,-6.324231,-110.879997,-1.33,8.82,1729419561219.0,0.0
-3.239882,-8.035098,-5.814559,-70.0,-18.48,7.42,1729419561248.0,0.0
-3.57727,-7.750352,-6.783652,-18.76,-17.99,7.63,1729419561266.0,0.0
-4.122833,-8.219346,-7.219146,-20.02,-40.040001,2.52,1729419561282.0,0.0
-4.058227,-8.315059,-9.310472,-27.93,-33.880001,-9.38,1729419561300.0,0.0
-4.027121,-7.444071,-8.561519,-10.5,-18.9,-17.99,1729419561321.0,0.0
-4.089334,-6.072984,-7.128219,8.26,10.36,-21.139999,1729419561340.0,0.0
-4.510471,-5.201996,-6.058627,15.89,18.9,-16.24,1729419561361.0,0.0
-5.041678,-5.417351,-3.694518,1.75,16.17,-12.6,1729419561380.0,0.0
-4.622933,-6.556334,-7.123433,-9.94,11.27,-14.14,1729419561399.0,0.0
-3.773481,-6.709475,-10.284351,19.74,-14.14,-13.65,1729419561420.0,0.0
-2.711068,-7.429714,-10.284351,86.379997,-8.61,-14.35,1729419561440.0,0.0
-1.998007,-7.420143,-5.661418,137.059998,14.91,-18.27,1729419561459.0,0.0
-1.85683,-6.185446,-1.892723,158.410004,52.5,-22.26,1729419561479.0,0.0
-2.914458,-6.939186,-3.783052,133.979996,50.889999,-22.049999,1729419561504.0,0.0
-3.9673,-7.491928,-4.87418,119.349998,28.210001,2.1,1729419561519.0,0.0
-4.740182,-6.553941,-3.641876,118.650002,34.860001,27.370001,1729419561540.0,0.0
-4.905287,-7.223931,-3.476771,74.620003,31.85,20.02,1729419561560.0,0.0
-5.295317,-6.929615,-4.287938,-29.889999,15.68,12.74,1729419561579.0,0.0
-4.304688,-7.657032,-3.897908,-117.32,3.78,7.35,1729419561601.0,0.0
-2.907279,-7.293324,-3.424129,-155.330002,-38.5,11.27,1729419561620.0,0.0
-2.199004,-6.242875,-4.546363,-149.660004,-83.860001,13.72,1729419561643.0,0.0
-2.129612,-5.302495,-6.601797,-132.369995,-87.010002,21.49,1729419561659.0,0.0
-2.531606,-6.302694,-7.264609,-128.449997,-60.34,31.01,1729419561679.0,0.0
-2.816352,-7.37468,-6.049056,-170.660004,-28.700001,20.51,1729419561701.0,0.0
-3.440879,-8.508877,-6.89133,-158.270004,-10.71,8.47,1729419561719.0,0.0
-4.204189,-7.735995,-7.958528,-85.889999,-33.32,12.67,1729419561740.0,0.0
-3.974478,-7.420143,-7.702496,-33.389999,-49.490002,22.190001,1729419561758.0,0.0
-3.0006,-7.582855,-8.4347,-45.360001,-68.669998,11.69,1729419561779.0,0.0
-2.95035,-8.650054,-9.578469,-46.900002,-44.52,-5.6,1729419561807.0,0.0
-3.529413,-6.63769,-6.606583,-20.93,7.56,-26.389999,1729419561819.0,0.0
-5.525027,-4.713861,-6.750153,16.450001,25.969999,-20.51,1729419561843.0,0.0
-5.316852,-5.778666,-8.078169,6.23,-0.91,-13.3,1729419561860.0,0.0
-4.084548,-6.563512,-6.991827,-19.809999,-5.39,-21.49,1729419561880.0,0.0
-3.376273,-7.477571,-8.133204,19.25,8.68,-25.83,1729419561900.0,0.0
-3.859623,-6.915257,-7.252645,81.410004,25.41,-20.09,1729419561920.0,0.0
-4.914857,-4.728218,-5.871986,95.900002,52.990002,-24.710001,1729419561941.0,0.0
-5.704489,-5.986843,-6.326623,84.629997,53.34,-27.860001,1729419561960.0,0.0
-5.501099,-8.147561,-5.462814,36.119999,30.309999,-35.490002,1729419561982.0,0.0
-4.426722,-6.360123,-5.728417,87.709999,27.719999,-25.9,1729419562000.0,0.0
-5.168497,-5.015356,-6.039484,166.110001,1.12,11.34,1729419562020.0,0.0
-5.52742,-3.61077,-4.843073,126.139999,-8.89,15.54,1729419562052.0,0.0
-5.386244,-3.275774,-4.67079,-6.51,15.05,19.67,1729419562061.0,0.0
-4.804788,-5.419744,-4.352544,-116.970001,7.21,21.49,1729419562080.0,0.0
-3.5007,-6.783652,-5.651847,-153.440002,-37.310001,23.17,1729419562101.0,0.0
-3.038885,-8.88455,-8.662018,-117.879997,-73.57,31.360001,1729419562193.0,0.0
-2.900101,-8.626125,-7.810174,-53.200001,-40.32,20.65,1729419562203.0,0.0
-3.031706,-7.23111,-6.089733,-45.5,-4.34,8.47,1729419562204.0,0.0
-3.737589,-7.075576,-7.908278,-37.450001,-1.47,0.07,1729419562204.0,0.0
-3.972085,-6.594619,-6.855437,-47.459999,-17.57,-1.82,1729419562205.0,0.0
-3.469593,-6.721439,-7.326823,-63.139999,-16.52,-5.74,1729419562221.0,0.0
-3.122634,-7.018148,-7.013363,-57.400002,-22.610001,-6.51,1729419562241.0,0.0
-3.058028,-6.405586,-6.563512,-33.670002,-15.4,-8.33,1729419562262.0,0.0
-4.331009,-6.128019,-7.429714,-5.6,2.31,-6.79,1729419562282.0,0.0
-5.15414,-5.099105,-6.872187,9.8,15.89,-9.52,1729419562304.0,0.0
-5.312066,-5.383851,-7.082755,7.77,5.46,2.17,1729419562322.0,0.0
-4.426722,-6.606583,-7.769495,-0.49,-15.61,2.73,1729419562343.0,0.0
-3.878766,-7.688138,-9.994821,17.780001,-12.11,-2.24,1729419562362.0,0.0
-4.177868,-7.740781,-8.666803,50.540001,11.34,-19.530001,1729419562382.0,0.0
-4.041477,-5.529813,-7.872386,92.190002,47.950001,-34.23,1729419562403.0,0.0
-5.352744,-2.208575,-3.134598,127.400002,43.68,-16.59,1729419562422.0,0.0
-6.565905,-4.072584,-4.783253,37.029999,23.1,-7.14,1729419562443.0,0.0
-6.84108,-4.9675,-6.977471,-53.970001,27.370001,-21.07,1729419562463.0,0.0
-6.407979,-6.573084,-5.898308,-74.129997,25.969999,-5.74,1729419562482.0,0.0
-4.694718,-5.67099,-6.381658,-47.25,-11.62,15.75,1729419562505.0,0.0
-3.89073,-7.147361,-6.721439,2.45,-38.009998,40.040001,1729419562526.0,0.0
-3.35713,-5.125426,-7.429714,-12.25,-28.210001,34.439999,1729419562542.0,0.0
-4.249653,-8.310273,-7.515855,3.36,9.31,28.630001,1729419562562.0,0.0
-4.603791,-6.826723,-7.238289,-22.190001,27.790001,0.35,1729419562582.0,0.0
-4.548756,-8.499306,-7.652246,22.049999,24.639999,10.5,1729419562602.0,0.0
-2.976671,-7.281359,-7.101898,6.44,-37.170002,6.65,1729419562621.0,0.0
-2.026721,-7.597212,-6.965507,11.9,-22.82,1.12,1729419562643.0,0.0
-2.476572,-6.372087,-6.008378,16.52,5.39,-10.5,1729419562661.0,0.0
-3.440879,-6.039484,-5.460421,18.549999,41.369999,-12.67,1729419562681.0,0.0
-4.570292,-7.082755,-6.281159,15.68,24.43,-8.82,1729419562703.0,0.0
-4.498507,-6.563512,-6.427122,15.12,2.66,-4.62,1729419562724.0,0.0
-4.223332,-6.549156,-6.757331,39.970001,-2.38,4.06,1729419562742.0,0.0
-3.917051,-4.864608,-6.508478,45.43,-6.58,-1.33,1729419562763.0,0.0
-4.168297,-5.759524,-6.575477,24.99,0.77,-5.88,1729419562781.0,0.0
-4.218546,-7.350751,-6.305088,-9.59,5.88,-21.91,1729419562802.0,0.0
-4.323831,-7.716853,-6.721439,-2.24,22.469999,-33.529999,1729419562823.0,0.0
-4.644469,-7.652246,-9.286544,56.490002,35.84,-31.01,1729419562844.0,0.0
-4.216154,-8.568698,-9.480364,124.459999,37.099998,-20.51,1729419562862.0,0.0
-3.830909,-7.606783,-4.424329,160.930008,36.610001,-12.81,1729419562882.0,0.0
-3.615555,-5.479564,-2.37368,182.559998,51.240002,-11.69,1729419562902.0,0.0
-4.646862,-5.663811,-4.302295,168.139999,45.080002,-5.39,1729419562921.0,0.0
-5.577669,-5.084748,-4.113262,80.43,30.799999,0.84,1729419562943.0,0.0
-4.778467,-5.982057,-2.801995,-13.16,39.689999,2.94,1729419562962.0,0.0
-4.151547,-6.54437,-3.661019,-103.18,-10.08,3.78,1729419562981.0,0.0
-3.136991,-5.943772,-5.099105,-134.470001,-50.75,-3.36,1729419563004.0,0.0
-3.034099,-6.173482,-5.661418,-127.889999,-59.290001,6.72,1729419563022.0,0.0
-3.424129,-5.520242,-5.931807,-143.919998,-37.66,7.14,1729419563042.0,0.0
-3.761517,-7.814958,-6.283553,-138.529999,-11.9,14.49,1729419563062.0,0.0
-3.35713,-7.999206,-6.173482,-161.279999,-49.91,9.38,1729419563082.0,0.0
-2.883351,-7.491928,-7.692925,-127.260002,-56.560001,6.72,1729419563102.0,0.0
-3.728018,-6.905686,-6.463014,-42.139999,-21.0,14.42,1729419563123.0,0.0
-4.086941,-7.905886,-7.802995,-58.799999,-24.219999,4.2,1729419563143.0,0.0
-3.938586,-8.628519,-8.346166,-65.309998,-23.59,-9.1,1729419563162.0,0.0
-3.931407,-7.613962,-8.803195,-9.66,-6.44,-17.43,1729419563181.0,0.0
-3.689733,-6.195018,-8.898908,43.470001,-9.45,-18.41,1729419563203.0,0.0
-3.424129,-4.512863,-6.003592,40.529999,-8.19,-19.950001,1729419563223.0,0.0
-4.268795,-4.409972,-6.541977,29.68,23.66,-22.68,1729419563243.0,0.0
-5.551349,-5.321638,-7.267002,15.96,41.16,-25.27,1729419563261.0,0.0
-5.374279,-8.090133,-7.001399,2.1,34.02,-24.639999,1729419563281.0,0.0
-4.132405,-8.496914,-6.063413,24.639999,10.22,-24.639999,1729419563303.0,0.0
-4.35733,-8.178668,-6.716653,107.660004,16.24,-13.86,1729419563323.0,0.0
-4.979464,-5.158926,-7.41775,178.009995,37.869999,-10.36,1729419563344.0,0.0
-5.730811,-2.438286,-6.71426,187.25,52.639999,16.24,1729419563362.0,0.0
-6.163911,-2.624927,-3.208775,83.300003,13.58,31.43,1729419563381.0,0.0
-4.338188,-4.512863,-4.139583,-114.730003,-21.84,13.23,1729419563404.0,0.0
-2.713461,-9.085547,-7.616355,-200.199997,-38.639999,-2.94,1729419563423.0,0.0
-2.368894,-6.309873,-8.312666,-115.360001,-27.58,2.73,1729419563445.0,0.0
-3.318845,-7.403394,-7.41775,-23.59,-18.969999,17.360001,1729419563462.0,0.0
-3.199204,-6.407979,-7.23111,-69.650002,-25.969999,-7.21,1729419563481.0,0.0
-2.847459,-6.415157,-7.496714,-93.029999,0.63,-14.0,1729419563506.0,0.0
-2.854637,-5.828916,-7.23111,-88.269997,-12.6,-7.91,1729419563521.0,0.0
-3.452843,-7.257431,-7.606783,-75.599998,-5.32,-3.01,1729419563542.0,0.0
-4.017549,-7.805387,-8.477771,-79.379997,1.61,-16.59,1729419563561.0,0.0
-3.895515,-7.424929,-8.583055,-44.52,12.6,-26.530001,1729419563581.0,0.0
-3.759124,-6.386444,-7.04447,16.24,8.26,-17.780001,1729419563604.0,0.0
-3.854837,-3.567699,-5.410172,26.530001,10.5,-15.05,1729419563621.0,0.0
-4.883751,-3.704089,-6.458229,10.01,16.52,-16.17,1729419563644.0,0.0
-5.190032,-5.391029,-7.52782,-17.780001,17.290001,-15.47,1729419563662.0,0.0
-4.74736,-6.549156,-7.336394,-1.47,11.41,-2.8,1729419563680.0,0.0
-3.921836,-6.745367,-8.908479,52.990002,-5.39,7.21,1729419563702.0,0.0
-3.383451,-6.180661,-10.274779,107.800003,-3.08,6.37,1729419563723.0,0.0
-3.835695,-5.197211,-7.281359,131.669998,35.07,3.71,1729419563742.0,0.0
-4.476971,-5.481956,-5.106283,119.0,68.599998,-7.91,1729419563760.0,0.0
-4.335794,-4.307081,-6.465407,136.710007,43.540001,7.21,1729419563782.0,0.0
-4.754539,-4.960321,-6.819544,143.850006,19.879999,33.040001,1729419563802.0,0.0
-3.613162,-5.374279,-6.762117,100.730003,1.61,22.610001,1729419563821.0,0.0
-3.412165,-6.805188,-5.62074,51.380001,7.56,30.17,1729419563851.0,0.0
-3.275774,-7.54457,-3.783052,-30.1,17.43,14.98,1729419563863.0,0.0
-3.259024,-8.843873,-3.168097,-86.870003,10.15,-3.01,1729419563880.0,0.0
-3.326023,-9.183653,-4.895715,-107.870003,-16.73,-16.52,1729419563903.0,0.0
-3.431308,-7.79103,-6.60419,-94.220001,-40.529999,-21.559999,1729419563921.0,0.0
-3.419343,-7.896315,-8.65484,-76.370003,-37.380001,-15.33,1729419563944.0,0.0
-2.541178,-7.188039,-7.82453,-43.330002,-23.379999,-14.14,1729419563962.0,0.0
-2.904887,-6.826723,-7.235896,13.65,0.28,1.05,1729419563981.0,0.0
-3.885944,-6.072984,-7.286145,46.27,23.1,0.42,1729419564003.0,0.0
-4.68754,-6.364908,-7.317252,45.709999,32.41,-0.98,1729419564022.0,0.0
-4.218546,-6.029913,-6.412765,32.34,15.05,-4.27,1729419564043.0,0.0
-3.361916,-6.424729,-5.723632,42.84,-4.62,1.05,1729419564062.0,0.0
-2.991028,-5.099105,-5.489135,46.060001,0.28,-3.08,1729419564083.0,0.0
-3.531806,-6.022735,-6.324231,47.810001,11.69,-1.68,1729419564103.0,0.0
-3.936193,-6.427122,-5.048856,21.84,17.01,-4.41,1729419564123.0,0.0
-4.173083,-7.377072,-5.017749,-2.59,15.05,-4.62,1729419564143.0,0.0
-3.9673,-7.733603,-6.673582,10.29,-5.32,-9.1,1729419564161.0,0.0
-4.273581,-8.032705,-6.67119,50.330002,-16.030001,-2.31,1729419564183.0,0.0
-4.986642,-6.431907,-6.171089,42.560001,2.66,-3.64,1729419564204.0,0.0
-4.4674,-6.350551,-7.499106,0.21,7.28,-15.82,1729419564225.0,0.0
-3.775874,-5.431707,-4.527221,-69.300003,-22.68,6.72,1729419564256.0,0.0
-2.677568,-7.178468,-4.701896,-92.050003,-21.49,7.28,1729419564265.0,0.0
-2.651247,-7.41775,-6.690332,-74.340004,-23.450001,7.21,1729419564283.0,0.0
-3.584448,-6.518049,-8.630912,-25.129999,-8.96,18.129999,1729419564304.0,0.0
-4.070191,-6.912865,-6.592227,-14.21,5.46,17.15,1729419564325.0,0.0
-3.646662,-8.468199,-6.13759,-78.470001,-5.25,-1.19,1729419564345.0,0.0
-2.435893,-9.178867,-7.613962,-96.32,-23.1,-22.190001,1729419564363.0,0.0
-3.215954,-7.635497,-7.06122,27.16,10.01,-7.28,1729419564385.0,0.0
-4.292724,-5.611169,-6.872187,73.290001,36.540001,-2.03,1729419564404.0,0.0
-5.704489,-4.61097,-5.036892,59.779999,58.170002,4.27,1729419564425.0,0.0
-5.759524,-5.625526,-6.977471,24.15,30.450001,4.06,1729419564445.0,0.0
-3.835695,-6.60419,-7.188039,-46.48,-33.040001,0.35,1729419564465.0,0.0
-1.256232,-7.590034,-8.561519,-44.240002,-57.400002,-12.88,1729419564484.0,0.0
-1.395016,-6.769295,-7.21436,6.51,-38.290001,0.35,1729419564506.0,0.0
-2.294717,-6.171089,-3.881158,41.509998,37.029999,-12.46,1729419564523.0,0.0
-4.063013,-4.668397,-3.086741,21.139999,58.799999,-18.200001,1729419564545.0,0.0
-5.52742,-3.835695,-5.546563,3.99,29.120001,-9.1,1729419564567.0,0.0
-5.977271,-4.335794,-8.23131,0.91,11.13,10.29,1729419564583.0,0.0
-5.414958,-5.991628,-7.489535,-29.889999,-11.69,15.68,1729419564604.0,0.0
-3.663411,-7.271788,-7.585248,-61.459999,-37.240002,5.04,1729419564625.0,0.0
-2.416751,-7.862815,-8.080563,-62.23,-57.889999,-0.35,1729419564643.0,0.0
-1.557728,-6.826723,-8.181061,-59.779999,-48.09,-7.98,1729419564665.0,0.0
-1.596013,-6.76451,-7.762317,-52.849998,-13.51,-9.8,1729419564688.0,0.0
-3.017349,-8.559127,-8.896514,-72.379997,13.09,-27.23,1729419564703.0,0.0
-3.57727,-8.489735,-7.314859,-66.360001,42.560001,-36.259998,1729419564722.0,0.0
-3.766303,-7.688138,-6.376873,-8.82,34.299999,-31.99,1729419564745.0,0.0
-3.692125,-6.362515,-6.54437,49.84,5.46,-16.24,1729419564765.0,0.0
-3.716053,-6.333801,-7.365108,79.519997,6.51,-1.54,1729419564782.0,0.0
-3.893122,-6.530013,-7.185646,93.519997,33.880001,2.52,1729419564805.0,0.0
-4.536791,-5.639884,-6.568298,125.93,57.959999,6.02,1729419564824.0,0.0
-5.084748,-5.680561,-5.955735,159.389999,52.220001,13.86,1729419564855.0,0.0
-5.182854,-5.273781,-4.673182,145.529999,29.190001,21.77,1729419564863.0,0.0
-4.553542,-5.472386,-4.4339,96.529999,5.32,17.85,1729419564883.0,0.0
-3.955336,-6.817152,-5.704489,27.93,-10.5,10.15,1729419564905.0,0.0
-3.400201,-8.566305,-7.508677,-18.76,-13.16,-2.59,1729419564923.0,0.0
-2.938386,-9.583255,-6.680761,-15.26,-2.59,-11.06,1729419564943.0,0.0
-2.629712,-9.016156,-5.35753,23.450001,10.08,-13.79,1729419564964.0,0.0
-2.392823,-7.448857,-5.632704,68.389999,3.15,-12.25,1729419564983.0,0.0
-2.782853,-6.656832,-5.836094,55.299999,-11.55,-9.87,1729419565004.0,0.0
-2.730211,-6.288338,-7.642675,-40.18,-6.09,-20.65,1729419565025.0,0.0
-2.392823,-7.779066,-6.996613,-135.800003,18.9,-14.91,1729419565046.0,0.0
-2.143969,-9.674182,-2.505285,-61.670002,30.59,4.41,1729419565063.0,0.0
-2.773281,-4.859823,-0.605384,0.56,24.5,6.44,1729419565084.0,0.0
-4.376472,-3.838088,-5.376673,14.77,10.78,28.0,1729419565103.0,0.0
-4.579862,-6.34098,-6.963113,-40.040001,-15.54,33.110001,1729419565123.0,0.0
-2.723032,-7.896315,-5.012963,-77.0,-35.209999,31.290001,1729419565143.0,0.0
-2.129612,-8.032705,-6.23091,-29.4,-67.480003,33.110001,1729419565165.0,0.0
-2.78046,-7.369894,-6.680761,19.950001,-52.920002,33.529999,1729419565184.0,0.0
-3.352344,-6.470192,-7.54457,28.630001,-0.7,25.76,1729419565203.0,0.0
-4.685147,-5.716454,-5.838487,10.5,5.32,24.5,1729419565223.0,0.0
-4.697111,-7.233503,-8.106883,-32.900002,-9.38,17.219999,1729419565243.0,0.0
-3.850052,-8.941978,-9.497113,-56.07,-60.060001,7.84,1729419565264.0,0.0
-3.065206,-8.389235,-9.583255,-23.799999,-50.68,-1.12,1729419565283.0,0.0
-3.749553,-7.176075,-7.508677,-6.3,-2.38,-16.870001,1729419565304.0,0.0
-4.673182,-4.941179,-6.625726,-35.84,48.93,-39.34,1729419565323.0,0.0
-5.479564,-4.898108,-5.453243,-49.209999,45.920002,-31.290001,1729419565345.0,0.0
-4.575077,-6.041877,-6.982256,-42.209999,2.59,-11.48,1729419565364.0,0.0
-3.737589,-6.331409,-7.52782,-0.49,-19.809999,1.4,1729419565394.0,0.0
-3.002992,-5.149354,-6.668797,24.5,-0.49,-6.02,1729419565405.0,0.0
-3.06042,-4.886144,-6.30748,33.810001,6.02,-7.35,1729419565424.0,0.0
-3.778267,-5.266603,-6.498906,34.860001,17.639999,-7.28,1729419565444.0,0.0
-5.096712,-5.314459,-4.744967,22.75,40.740002,-3.29,1729419565464.0,0.0
-5.711668,-6.238089,-4.898108,19.879999,41.23,0.7,1729419565484.0,0.0
-5.45085,-7.453642,-5.328816,40.810001,14.91,13.23,1729419565507.0,0.0
-4.261617,-8.879765,-6.276374,86.309998,-14.0,23.309999,1729419565523.0,0.0
-3.572484,-9.343972,-6.644868,130.410004,-35.490002,27.370001,1729419565544.0,0.0
-3.110669,-9.674182,-5.84088,172.550003,-30.870001,19.74,1729419565562.0,0.0
-2.979064,-8.346166,-6.915257,190.330002,-21.91,12.67,1729419565585.0,0.0
-3.062813,-7.317252,-5.529813,186.690002,-1.61,14.7,1729419565605.0,0.0
-2.931208,-7.676175,-5.838487,171.779999,27.09,19.74,1729419565623.0,0.0
-3.012564,-9.221939,-5.352744,188.930008,21.42,21.629999,1729419565646.0,0.0
-3.665804,-9.889536,-2.883351,245.070007,19.110001,30.870001,1729419565662.0,0.0
-3.565305,-10.430314,-3.632305,346.779999,8.75,37.310001,1729419565684.0,0.0
-3.180061,-9.585647,-0.863809,395.640015,29.4,31.92,1729419565704.0,0.0
-3.806981,-9.442079,0.038285,350.0,58.59,8.47,1729419565722.0,0.0
-4.39083,-8.769694,0.68674,296.450012,48.650002,-17.57,1729419565745.0,0.0
-4.359723,-8.516055,0.392423,291.619995,36.959999,-20.65,1729419565763.0,0.0
-4.84068,-8.626125,3.122634,308.48999,50.610001,-10.5,1729419565782.0,0.0
-5.498707,-7.379465,5.096712,270.899994,57.119999,-18.969999,1729419565804.0,0.0
-5.745167,-6.479764,6.668797,185.710007,41.93,-34.790001,1729419565823.0,0.0
-5.479564,-5.503492,5.618347,87.57,20.299999,-36.470001,1729419565844.0,0.0
-4.907679,-5.087141,3.555735,30.030001,3.5,-32.900002,1729419565862.0,0.0
-5.106283,-4.711468,3.06042,26.809999,5.18,-20.790001,1729419565888.0,0.0
-5.991628,-8.185846,3.60359,65.309998,12.67,-10.64,1729419565902.0,0.0
-5.448457,-9.099905,5.587241,80.290001,17.85,-32.759998,1729419565923.0,0.0
-4.704289,-7.197611,6.448657,62.23,17.15,-32.900002,1729419565946.0,0.0
-4.041477,-6.345766,6.051448,18.9,4.2,-33.459999,1729419565964.0,0.0
-3.598805,-7.216753,4.917251,-23.940001,-17.01,-38.920002,1729419565985.0,0.0
-3.208775,-7.709675,4.39083,-1.47,-16.24,-32.060001,1729419566003.0,0.0
-3.739982,-4.405186,5.410172,47.040001,4.83,-18.41,1729419566024.0,0.0
-4.448257,-3.931407,5.4006,28.210001,7.63,0.77,1729419566044.0,0.0
-4.445865,-6.51087,4.867002,-14.28,-0.77,2.31,1729419566064.0,0.0
-3.938586,-8.267202,4.596612,-18.41,-5.95,-1.75,1729419566082.0,0.0
-4.285545,-8.30788,4.735396,18.41,2.52,0.7,1729419566104.0,0.0
-4.35733,-7.401,4.953143,34.09,11.97,-0.42,1729419566123.0,0.0
-4.82393,-7.633104,5.240282,14.49,5.67,-5.53,1729419566143.0,0.0
-4.740182,-8.212167,5.517848,2.1,0.84,-15.33,1729419566162.0,0.0
-4.206582,-6.936793,5.462814,6.3,3.85,-16.73,1729419566183.0,0.0
-3.756732,-5.594419,5.410172,5.67,9.1,-11.48,1729419566205.0,0.0
-3.883551,-4.321437,5.139783,-20.93,7.91,-5.25,1729419566226.0,0.0
-3.665804,-6.52762,5.213961,-26.74,-2.1,9.94,1729419566244.0,0.0
-3.239882,-8.226524,5.003392,-12.25,-1.47,5.11,1729419566263.0,0.0
-3.177669,-9.497113,6.80758,28.630001,2.52,7.98,1729419566283.0,0.0
-3.739982,-8.133204,6.577869,39.549999,7.28,0.98,1729419566305.0,0.0
-4.031906,-7.477571,4.589434,-10.71,-3.01,-10.43,1729419566323.0,0.0
-4.041477,-9.10469,2.998207,-9.73,-2.31,-18.969999,1729419566346.0,0.0
-3.878766,-9.738789,3.574877,34.509998,13.37,-22.889999,1729419566366.0,0.0
-3.76391,-6.996613,6.065805,80.57,34.02,-26.18,1729419566384.0,0.0
-4.713861,-3.979264,7.688138,59.57,30.450001,-21.0,1729419566405.0,0.0
-3.895515,-1.701297,6.908078,-4.9,9.94,-10.15,1729419566424.0,0.0
-2.612962,-2.617748,4.936393,-70.980003,-13.3,11.48,1729419566446.0,0.0
-3.9673,-6.197411,4.051049,-83.650002,-14.21,23.870001,1729419566465.0,0.0
-5.158926,-7.542177,4.65404,-34.299999,-5.25,28.210001,1729419566483.0,0.0
-4.855037,-6.675975,5.639884,8.26,6.65,36.75,1729419566508.0,0.0
-4.326223,-6.707082,5.297709,-17.01,1.19,33.599998,1729419566524.0,0.0
-4.838287,-8.157133,4.677969,-65.169998,-7.98,25.129999,1729419566546.0,0.0
-5.07757,-9.832108,4.031906,-62.09,-9.38,21.280001,1729419566564.0,0.0
-5.046463,-11.504691,3.598805,-28.49,-5.81,10.71,1729419566584.0,0.0
-4.800002,-10.234102,5.185246,8.47,2.03,-9.31,1729419566608.0,0.0
-4.402793,-8.092526,5.761917,30.52,9.52,-18.059999,1729419566625.0,0.0
-4.634897,-6.800402,5.187639,14.35,4.48,-26.6,1729419566644.0,0.0
-3.940979,-8.133204,4.290331,-8.19,-8.05,-23.450001,1729419566663.0,0.0
-3.716053,-7.819745,3.821337,6.93,2.31,-29.610001,1729419566685.0,0.0
-5.321638,-8.673983,4.816752,35.0,16.450001,-40.040001,1729419566707.0,0.0
-5.462814,-7.463214,5.592027,30.940001,11.2,-49.07,1729419566726.0,0.0
-3.318845,-4.878965,6.742974,22.33,3.64,-40.599998,1729419566744.0,0.0
-2.177469,-3.976871,7.913064,13.440001,1.05,-22.610001,1729419566764.0,0.0
-2.550749,-3.292524,7.15454,-22.889999,-8.96,-13.58,1729419566785.0,0.0
-2.761317,-3.95055,5.070391,-43.610001,-15.75,12.04,1729419566805.0,0.0
-3.689733,-6.345766,4.338188,-42.420002,-15.47,29.68,1729419566824.0,0.0
-4.630112,-7.125826,4.493721,-18.48,-8.05,29.120001,1729419566846.0,0.0
-4.09412,-5.651847,4.682754,16.73,7.21,35.91,1729419566863.0,0.0
-4.072584,-5.594419,4.613362,11.48,9.94,44.099998,1729419566884.0,0.0
-4.845466,-8.310273,3.936193,-25.9,1.4,44.240002,1729419566905.0,0.0
-6.008378,-11.169697,4.216154,-29.120001,-1.19,33.810001,1729419566926.0,0.0
-5.491528,-11.473583,5.166104,6.23,2.03,20.16,1729419566944.0,0.0
-5.187639,-10.509278,6.099305,31.43,1.68,2.73,1729419566965.0,0.0
-4.235296,-9.131011,6.04427,23.940001,-4.27,-14.14,1729419566983.0,0.0
-4.742575,-8.513663,3.9338,2.94,-12.39,-33.670002,1729419567004.0,0.0
-4.084548,-6.577869,2.907279,12.53,-6.37,-39.200001,1729419567024.0,0.0
-3.395415,-7.456036,4.039084,45.43,9.73,-36.889999,1729419567087.0,0.0
-4.139583,-7.948956,5.931807,53.48,11.55,-45.639999,1729419567089.0,0.0
-3.125026,-5.352744,7.075576,56.84,9.8,-34.439999,1729419567090.0,0.0
-2.45025,-3.845266,7.398607,24.290001,1.12,-19.040001,1729419567103.0,0.0
-2.196611,-3.151347,5.584848,-39.34,-11.27,-9.59,1729419567276.0,0.0
-2.562713,-3.649055,4.965107,-57.260002,-10.92,12.74,1729419567276.0,0.0
-4.34058,-5.20439,5.278566,-35.07,-3.85,34.02,1729419567276.0,0.0
-5.496314,-5.283352,4.505685,-20.93,-3.99,40.25,1729419567276.0,0.0
-5.125426,-5.649454,4.663611,-15.89,-1.47,52.57,1729419567277.0,0.0
-4.82393,-6.087341,4.431508,-21.139999,-1.47,53.130001,1729419567277.0,0.0
-5.754738,-8.444271,4.022335,-27.93,-0.35,53.34,1729419567277.0,0.0
-6.539584,-11.679367,4.151547,-29.33,-8.26,37.029999,1729419567289.0,0.0
-6.195018,-12.373285,3.63709,-17.710001,-7.0,9.1,1729419567291.0,0.0
-4.869394,-11.57169,4.833502,4.41,-1.4,-20.65,1729419567303.0,0.0
-2.988636,-8.281559,5.352744,37.869999,10.85,-34.860001,1729419567323.0,0.0
-3.079563,-5.728417,5.460421,47.529999,21.42,-34.23,1729419567344.0,0.0
-3.438486,-5.187639,4.955536,22.82,18.41,-31.780001,1729419567364.0,0.0
-4.254438,-6.865008,4.941179,0.77,7.7,-33.670002,1729419567384.0,0.0
-4.141976,-6.570691,6.273981,22.540001,3.43,-27.440001,1729419567404.0,0.0
-3.184847,-4.596612,7.125826,36.259998,3.78,-14.35,1729419567423.0,0.0
-2.409572,-2.895315,6.833901,7.49,-1.89,-3.71,1729419567446.0,0.0
-3.141776,-3.785445,6.015556,-31.57,-7.63,19.530001,1729419567464.0,0.0
-4.632504,-6.139983,4.398008,-62.650002,-14.35,31.01,1729419567485.0,0.0
-5.084748,-6.707082,3.632305,-49.139999,-10.01,37.939999,1729419567507.0,0.0
-4.706682,-6.139983,3.850052,-16.379999,6.86,47.810001,1729419567523.0,0.0
-5.321638,-5.446064,3.45045,-16.66,12.88,53.830002,1729419567544.0,0.0
-6.991827,-8.822337,3.852444,-34.93,9.17,55.93,1729419567566.0,0.0
-7.795816,-12.447463,4.347759,-45.920002,-1.4,32.200001,1729419567583.0,0.0
-6.501299,-13.42852,4.144369,-28.559999,-12.04,-9.87,1729419567604.0,0.0
-4.17069,-10.552348,5.35753,23.59,6.37,-30.799999,1729419567648.0,0.0
-3.507878,-8.350951,6.482157,47.740002,16.59,-35.279999,1729419567648.0,0.0
-4.182654,-6.927221,4.003192,7.49,6.37,-45.639999,1729419567663.0,0.0
-4.225725,-7.980063,4.010371,17.5,1.19,-53.549999,1729419567683.0,0.0
-4.192225,-7.223931,5.965307,63.560001,11.55,-61.740002,1729419567703.0,0.0
-3.48395,-4.63729,7.71446,80.360001,10.43,-48.860001,1729419567723.0,0.0
-2.359323,-3.242275,7.121039,27.16,-3.99,-29.889999,1729419567744.0,0.0
-1.548156,-3.287738,5.134997,-53.27,-20.370001,-18.129999,1729419567763.0,0.0
-1.904687,-3.419343,4.39083,-56.91,-13.93,6.72,1729419567783.0,0.0
-4.378866,-4.500899,5.000999,-8.12,2.24,37.939999,1729419567805.0,0.0
-5.752346,-5.003392,4.110869,-8.89,3.36,47.110001,1729419567823.0,0.0
-5.07757,-5.883951,4.630112,-22.82,0.28,54.810001,1729419567844.0,0.0
-4.943572,-7.846066,4.630112,-14.84,8.26,62.02,1729419567863.0,0.0
-6.721439,-8.209774,3.538985,-27.719999,6.37,53.970001,1729419567882.0,0.0
-8.037491,-9.822537,3.287738,-33.110001,1.33,41.369999,1729419567904.0,0.0
-7.171289,-10.758131,4.443472,-29.75,-6.86,8.12,1729419567933.0,0.0
-5.455636,-11.765509,5.465207,11.83,-3.85,-11.83,1729419567955.0,0.0
-4.07737,-10.183852,6.752545,29.82,0.7,-32.060001,1729419568023.0,0.0
-3.517449,-6.788438,4.508078,14.14,1.19,-38.290001,1729419568024.0,0.0
-3.771089,-5.577669,3.644269,3.64,4.97,-28.84,1729419568024.0,0.0
-4.878965,-8.480164,4.646862,21.700001,-0.98,-28.700001,1729419568024.0,0.0
-3.969693,-8.889337,6.317052,47.389999,2.17,-31.57,1729419568044.0,0.0
-3.517449,-6.309873,6.869793,48.23,5.04,-31.780001,1729419568063.0,0.0
-3.531806,-4.074977,5.948557,12.81,-1.19,-26.110001,1729419568082.0,0.0
-3.07717,-3.852444,4.168297,-37.939999,-13.09,-15.12,1729419568107.0,0.0
-2.9671,-3.895515,3.448057,-43.959999,-12.04,3.5,1729419568125.0,0.0
-4.694718,-4.378866,4.292724,-2.03,4.69,27.02,1729419568145.0,0.0
-5.608776,-4.816752,5.288138,6.09,10.22,38.220001,1729419568164.0,0.0
-5.024928,-5.642276,4.436293,-18.76,6.37,47.32,1729419568183.0,0.0
-4.465007,-5.850451,3.804588,-54.040001,2.94,49.07,1729419568208.0,0.0
-6.417551,-9.870394,3.586841,-50.400002,4.27,57.75,1729419568224.0,0.0
-7.240681,-11.468799,4.029513,-48.93,-3.01,33.25,1729419568244.0,0.0
-6.594619,-11.377872,4.414758,-42.349998,-8.54,5.74,1729419568263.0,0.0
-4.26401,-11.157731,5.938986,-13.51,-5.67,-21.42,1729419568285.0,0.0
-3.448057,-7.929814,6.388836,16.799999,6.16,-31.710001,1729419568304.0,0.0
-4.06062,-5.924629,6.053841,39.619999,8.26,-24.219999,1729419568325.0,0.0
-4.476971,-6.833901,4.156333,23.52,3.29,-20.440001,1729419568346.0,0.0
-5.010571,-9.001799,3.330809,12.67,-0.28,-37.450001,1729419568364.0,0.0
-4.541577,-10.363315,4.886144,48.439999,11.27,-47.110001,1729419568384.0,0.0
-3.771089,-7.334002,6.338587,66.220001,17.219999,-52.709999,1729419568405.0,0.0
-2.792424,-3.254239,6.285945,46.130001,10.57,-42.560001,1729419568424.0,0.0
-2.146362,-1.275374,6.104091,-6.37,-3.85,-15.05,1729419568444.0,0.0
-2.876173,-2.684747,4.261617,-52.290001,-13.72,9.52,1729419568464.0,0.0
-5.271388,-5.565705,3.629912,-46.970001,-10.15,26.880001,1729419568484.0,0.0
-6.204589,-6.388836,4.220939,-5.53,1.75,35.91,1729419568507.0,0.0
-5.087141,-6.204589,4.728218,13.16,9.94,44.170002,1729419568525.0,0.0
-5.053641,-6.972685,4.704289,-14.49,5.39,42.630001,1729419568544.0,0.0
-6.905686,-9.600004,3.115455,-36.259998,-1.68,37.869999,1729419568563.0,0.0
-6.477371,-10.858629,4.4339,-32.830002,-1.61,22.049999,1729419568584.0,0.0
-5.85763,-11.964113,6.039484,9.66,0.56,-10.15,1729419568604.0,0.0
-4.735396,-10.561919,6.546762,20.65,3.5,-37.939999,1729419568627.0,0.0
-3.084348,-7.106683,5.307281,17.01,5.18,-44.939999,1729419568648.0,0.0
-3.026921,-5.115855,3.902694,10.99,9.38,-34.860001,1729419568664.0,0.0
-3.814159,-6.999006,4.512863,5.18,6.93,-28.210001,1729419568683.0,0.0
-3.859623,-8.867801,5.187639,26.6,5.39,-35.0,1729419568704.0,0.0
-3.938586,-7.771888,6.427122,48.23,7.56,-38.009998,1729419568723.0,0.0
-3.524628,-5.292924,6.553941,33.880001,0.98,-35.349998,1729419568744.0,0.0
-2.612962,-3.39063,5.749953,-1.75,-7.63,-21.98,1729419568764.0,0.0
-2.28036,-3.184847,4.721039,-35.420002,-13.3,-1.61,1729419568783.0,0.0
-3.89073,-5.13739,4.34058,-35.349998,-7.77,20.23,1729419568804.0,0.0
-6.068198,-6.496514,4.481757,-14.0,-1.54,28.07,1729419568824.0,0.0
-5.836094,-6.357729,4.735396,4.9,3.78,32.900002,1729419568846.0,0.0
-4.802395,-5.594419,4.457829,3.01,8.61,39.060001,1729419568864.0,0.0
-5.024928,-6.099305,4.175476,-18.83,8.26,42.07,1729419568884.0,0.0
-6.955935,-9.315259,4.273581,-32.619999,-0.7,42.700001,1729419568905.0,0.0
-6.757331,-11.710474,4.065405,-38.43,-9.1,26.110001,1729419568924.0,0.0
-5.398208,-11.736795,4.613362,-16.73,-16.17,-18.76,1729419568946.0,0.0
-3.893122,-10.133603,5.850451,28.84,1.26,-34.790001,1729419568964.0,0.0
-3.852444,-8.329416,6.405586,42.700001,7.84,-40.950001,1729419568985.0,0.0
-4.395615,-6.039484,4.931608,13.02,0.28,-42.84,1729419569005.0,0.0
-3.464807,-5.998806,3.266203,-5.39,-5.67,-37.73,1729419569026.0,0.0
-2.667997,-8.142776,3.586841,14.7,3.5,-38.150002,1729419569045.0,0.0
-3.273381,-8.640482,5.592027,60.900002,21.0,-40.459999,1729419569066.0,0.0
-3.706482,-6.269196,6.728617,74.550003,22.889999,-36.189999,1729419569084.0,0.0
-2.794817,-3.481557,6.551548,37.240002,8.61,-22.68,1729419569105.0,0.0
-2.155933,-2.148755,6.412765,-18.129999,-5.6,-1.89,1729419569125.0,0.0
-3.330809,-3.462414,5.599205,-47.950001,-10.71,17.57,1729419569147.0,0.0
-5.565705,-5.608776,3.986443,-49.560001,-12.53,32.48,1729419569164.0,0.0
-5.850451,-6.271588,4.122833,-22.049999,-8.82,41.860001,1729419569185.0,0.0
-5.304887,-6.072984,5.520242,-0.14,2.94,53.830002,1729419569205.0,0.0
-5.539384,-5.347959,4.919643,-26.67,1.19,51.099998,1729419569224.0,0.0
-6.932007,-8.508877,2.861816,-64.82,-10.5,47.25,1729419569247.0,0.0
-6.403193,-14.096118,3.290131,-76.860001,-17.15,26.040001,1729419569265.0,0.0
-4.663611,-12.997812,5.419744,20.299999,-2.45,-6.79,1729419569284.0,0.0
-4.606184,-10.786844,6.719046,47.32,7.07,-31.360001,1729419569305.0,0.0
-3.354738,-7.439285,4.469792,-4.41,-8.82,-55.09,1729419569325.0,0.0
-2.447858,-6.128019,4.161119,-0.35,-4.97,-45.080002,1729419569344.0,0.0
-3.218346,-5.766702,4.151547,26.25,4.83,-27.719999,1729419569364.0,0.0
-4.04387,-7.668997,4.833502,32.48,4.83,-30.030001,1729419569384.0,0.0
-3.493521,-8.719445,4.130012,30.52,8.54,-37.170002,1729419569404.0,0.0
-3.06042,-7.56132,4.070191,36.049999,14.7,-36.259998,1729419569424.0,0.0
-3.129812,-6.065805,5.704489,44.869999,19.25,-27.58,1729419569449.0,0.0
-3.098706,-3.818945,6.9679,33.040001,14.49,-21.280001,1729419569464.0,0.0
-2.878566,-3.433701,6.360123,1.4,0.98,-5.39,1729419569484.0,0.0
-3.909872,-5.455636,4.625326,-38.150002,-8.19,6.51,1729419569507.0,0.0
-4.943572,-7.04447,4.118048,-33.529999,-5.46,15.26,1729419569525.0,0.0
-4.426722,-6.34098,4.68754,9.59,11.62,24.92,1729419569547.0,0.0
-4.139583,-4.821537,4.941179,22.33,15.33,32.970001,1729419569565.0,0.0
-4.443472,-5.347959,4.376472,-8.4,6.37,41.299999,1729419569584.0,0.0
-6.070591,-9.293723,4.326223,-30.799999,0.77,46.689999,1729419569607.0,0.0
-5.663811,-11.736795,5.814559,-11.13,-3.22,29.960001,1729419569626.0,0.0
-5.190032,-11.243874,5.47717,14.63,2.17,3.99,1729419569650.0,0.0
-5.130211,-9.004191,5.982057,24.85,5.32,-17.01,1729419569665.0,0.0
-4.926822,-6.965507,6.206983,16.870001,1.4,-27.440001,1729419569684.0,0.0
-4.900501,-6.15434,4.998606,-0.49,-4.41,-27.860001,1729419569705.0,0.0
-4.041477,-7.274181,2.739782,-26.530001,-10.99,-34.02,1729419569724.0,0.0
-3.943372,-8.255238,3.125026,-1.4,-0.63,-35.139999,1729419569745.0,0.0
-4.151547,-6.9009,5.568098,58.52,17.290001,-27.51,1729419569763.0,0.0
-3.787838,-4.412365,6.573084,58.52,17.08,-19.25,1729419569784.0,0.0
-2.309074,-3.768696,6.424729,-4.55,-0.14,-6.58,1729419569804.0,0.0
-2.07697,-4.797609,5.594419,-53.060001,-9.24,7.56,1729419569824.0,0.0
-3.158526,-5.82413,5.496314,-44.240002,-5.95,24.710001,1729419569846.0,0.0
-4.426722,-6.54437,4.795217,-21.700001,-0.21,35.84,1729419569865.0,0.0
-4.972286,-5.970093,4.079762,-19.530001,3.64,36.889999,1729419569887.0,0.0
-4.847858,-5.182854,4.218546,-15.33,10.99,48.16,1729419569904.0,0.0
-6.783652,-6.599405,4.627719,-28.91,9.8,55.299999,1729419569925.0,0.0
-7.489535,-8.377272,4.091727,-60.200001,-10.57,48.09,1729419569948.0,0.0
-7.006185,-12.770494,4.067799,-49.139999,-18.27,26.25,1729419569965.0,0.0
-5.587241,-13.674981,5.099105,-5.11,-13.93,-11.41,1729419569985.0,0.0
-4.766503,-11.880364,6.484549,56.279999,4.83,-30.309999,1729419570006.0,0.0
-3.929015,-8.070991,6.491727,55.23,6.16,-47.880001,1729419570024.0,0.0
-3.34038,-6.276374,4.462614,20.790001,-3.64,-48.299999,1729419570044.0,0.0
-3.658626,-7.475177,3.39063,23.1,-5.04,-42.630001,1729419570064.0,0.0
-4.280759,-8.650054,4.634897,70.07,10.71,-43.049999,1729419570084.0,0.0
-4.465007,-7.369894,5.647062,93.169998,22.049999,-46.48,1729419570103.0,0.0
-3.850052,-5.864808,5.536992,55.439999,13.16,-51.799999,1729419570124.0,0.0
-3.29731,-4.024727,5.635098,6.44,4.62,-40.599998,1729419570144.0,0.0
-3.081956,-3.163311,5.618347,-13.51,-0.77,-24.08,1729419570163.0,0.0
-3.538985,-3.388237,5.431707,-17.15,-3.64,-1.26,1729419570183.0,0.0
-4.383651,-4.359723,4.517649,-19.530001,-3.92,14.42,1729419570203.0,0.0
-4.48415,-6.046663,4.589434,-12.81,-0.35,25.9,1729419570223.0,0.0
-4.821537,-6.465407,5.056034,0.42,8.4,33.389999,1729419570243.0,0.0
-4.843073,-5.532206,4.977071,2.94,11.13,34.93,1729419570263.0,0.0
-4.85743,-6.34098,3.809374,-39.549999,-0.56,41.02,1729419570282.0,0.0
-6.26441,-8.623734,4.496114,-47.32,-3.5,41.580002,1729419570303.0,0.0
-6.63769,-11.650653,5.711668,-20.58,-6.86,28.35,1729419570323.0,0.0
-6.60419,-13.442878,5.443672,-16.450001,-16.73,-11.55,1729419570343.0,0.0
-3.811767,-10.380065,4.541577,-10.08,-13.23,-49.0,1729419570362.0,0.0
-3.148954,-6.254838,4.811966,38.920002,14.21,-36.959999,1729419570384.0,0.0
-3.797409,-4.697111,4.996214,38.779999,17.710001,-32.34,1729419570403.0,0.0
-4.17069,-6.537192,4.381258,10.01,6.86,-29.049999,1729419570422.0,0.0
-3.864408,-7.436893,4.704289,16.59,7.14,-30.799999,1729419570444.0,0.0
-3.23031,-5.630312,5.79781,42.98,14.07,-19.879999,1729419570463.0,0.0
-3.022135,-4.512863,6.623333,31.360001,11.13,-9.1,1729419570482.0,0.0
-3.433701,-3.438486,6.573084,-15.4,0.07,-1.68,1729419570506.0,0.0
-3.491128,-4.041477,5.211568,-46.549999,-8.54,17.85,1729419570522.0,0.0
-4.419543,-6.422336,3.680161,-57.400002,-13.440001,26.460001,1729419570543.0,0.0
-5.563312,-7.144968,4.563113,-26.950001,-4.48,35.84,1729419570563.0,0.0
-5.264209,-5.630312,5.402994,3.43,8.61,45.360001,1729419570582.0,0.0
-6.116055,-5.548956,4.776074,-16.73,12.04,47.389999,1729419570603.0,0.0
-6.975078,-9.734003,3.598805,-69.93,-11.34,40.32,1729419570624.0,0.0
-6.300302,-15.134604,4.395615,-35.0,-22.469999,12.39,1729419570643.0,0.0
-4.821537,-13.607983,5.757132,40.32,-2.24,-23.1,1729419570665.0,0.0
-4.285545,-9.190832,6.802795,92.400002,17.5,-41.16,1729419570685.0,0.0
-4.108476,-5.649454,5.412565,53.48,6.93,-52.150002,1729419570705.0,0.0
-3.806981,-6.45105,3.596412,3.5,-8.75,-45.220001,1729419570725.0,0.0
-4.098906,-8.855836,3.905087,16.940001,-3.71,-40.529999,1729419570746.0,0.0
-4.132405,-8.169096,4.790431,59.849998,15.89,-45.220001,1729419570765.0,0.0
-3.278167,-5.62074,6.132804,60.689999,21.77,-45.080002,1729419570784.0,0.0
-2.711068,-3.395415,6.58744,19.74,12.6,-36.889999,1729419570804.0,0.0
-2.364109,-2.079363,5.831308,-19.67,0.77,-17.5,1729419570825.0,0.0
-3.192025,-2.806781,5.237889,-46.619999,-8.47,9.94,1729419570846.0,0.0
-4.618148,-5.032106,5.005785,-52.009998,-13.37,26.040001,1729419570863.0,0.0
-5.163712,-5.850451,5.807381,-23.799999,-6.51,39.689999,1729419570882.0,0.0
-5.838487,-6.345766,5.814559,-1.12,4.06,48.439999,1729419570904.0,0.0
-6.656832,-6.518049,2.921637,-28.98,-3.08,38.080002,1729419570926.0,0.0
-6.07777,-9.956534,2.943172,-42.630001,-7.28,33.32,1729419570945.0,0.0
-5.960521,-12.59821,4.259224,-4.27,-3.36,11.27,1729419570964.0,0.0
-6.216553,-12.696317,5.922236,28.559999,1.26,-14.7,1729419570984.0,0.0
-3.524628,-8.346166,5.460421,31.710001,4.34,-40.389999,1729419571004.0,0.0
-2.323431,-6.352944,4.900501,32.34,10.78,-38.920002,1729419571025.0,0.0
-3.529413,-6.656832,5.101498,17.780001,9.1,-32.619999,1729419571046.0,0.0
-4.699504,-8.197811,5.651847,22.68,3.5,-30.17,1729419571063.0,0.0
-3.759124,-7.738388,5.558527,25.549999,-1.61,-41.509998,1729419571083.0,0.0
-2.701497,-5.62074,6.238089,27.58,-0.56,-35.490002,1729419571106.0,0.0
-3.007778,-3.830909,6.565905,10.57,-2.1,-26.530001,1729419571125.0,0.0
-2.938386,-2.380858,6.228518,-23.379999,-7.7,-12.39,1729419571145.0,0.0
-3.354738,-2.720639,4.9675,-42.84,-11.83,13.86,1729419571163.0,0.0
-5.15414,-5.290531,3.905087,-43.189999,-10.92,26.32,1729419571184.0,0.0
-5.623133,-6.372087,4.773681,-18.129999,-6.72,36.75,1729419571204.0,0.0
-4.76411,-4.472186,5.800202,7.49,7.77,52.360001,1729419571224.0,0.0
-4.924429,-3.366701,6.032306,-8.33,10.43,64.75,1729419571245.0,0.0
-6.276374,-7.453642,3.749553,-58.099998,-7.07,69.370003,1729419571263.0,0.0
-7.465607,-14.029119,2.734996,-70.279999,-17.780001,28.84,1729419571285.0,0.0
-6.175875,-12.23211,3.512664,-4.9,-4.69,9.8,1729419571305.0,0.0
-5.302495,-8.827123,5.568098,18.059999,9.94,-11.41,1729419571325.0,0.0
-3.964907,-5.539384,4.979464,-29.190001,-2.45,-25.690001,1729419571346.0,0.0
-3.39063,-4.912465,4.61097,-63.209999,-16.59,-15.89,1729419571364.0,0.0
-3.749553,-5.682954,4.565506,-67.199997,-20.16,-1.47,1729419571385.0,0.0
-4.486543,-6.118448,4.651647,-67.059998,-15.33,7.56,1729419571406.0,0.0
-4.706682,-6.85783,4.426722,-90.720001,-13.72,11.97,1729419571424.0,0.0
-4.149154,-7.453642,3.833302,-125.230003,-17.92,12.18,1729419571446.0,0.0
-4.24726,-7.362715,3.67059,-140.490005,-10.99,15.05,1729419571463.0,0.0
-4.721039,-7.56132,3.684947,-152.529999,-7.21,17.85,1729419571485.0,0.0
-5.046463,-7.77428,3.65384,-183.470001,-11.41,17.219999,1729419571507.0,0.0
-5.034499,-7.709675,2.469393,-226.520004,-23.870001,9.38,1729419571524.0,0.0
-4.749753,-6.690332,1.521835,-273.769989,-27.65,7.56,1729419571545.0,0.0
-5.029713,-6.429514,1.371087,-335.720001,-29.33,15.26,1729419571564.0,0.0
-5.297709,-6.606583,-2.084148,-406.630005,-36.400002,15.26,1729419571585.0,0.0
-5.639884,-8.525627,-4.711468,-421.610016,-39.41,-7.35,1729419571605.0,0.0
-4.809574,-10.430314,-6.290731,-324.450012,-36.330002,-20.51,1729419571623.0,0.0
-4.225725,-9.312866,-5.589634,-253.190002,-19.6,-27.02,1729419571647.0,0.0
-4.031906,-7.79103,-5.982057,-220.850006,-4.69,-40.529999,1729419571664.0,0.0
-3.929015,-7.111469,-7.216753,-219.240005,-10.43,-41.860001,1729419571683.0,0.0
-2.754139,-7.015756,-9.422935,-207.550003,-20.23,-38.009998,1729419571705.0,0.0
-2.919244,-7.771888,-8.099705,-142.240005,-8.26,-16.799999,1729419571725.0,0.0
-3.570091,-7.317252,-6.283553,-90.93,7.42,-12.81,1729419571744.0,0.0
-4.299902,-5.496314,-6.668797,-93.309998,8.05,-11.55,1729419571764.0,0.0
-3.739982,-5.996413,-7.628319,-114.590004,-1.26,-13.37,1729419571782.0,0.0
-3.306881,-6.149554,-8.054241,-125.230003,2.1,-14.07,1729419571803.0,0.0
-3.364309,-7.580462,-8.702696,-81.970001,13.16,-9.8,1729419571824.0,0.0
-3.914658,-7.551748,-6.599405,-16.379999,30.17,-5.11,1729419571845.0,0.0
-4.740182,-6.740582,-5.139783,35.700001,30.030001,-0.7,1729419571863.0,0.0
-4.618148,-6.728617,-6.482157,40.459999,9.73,-1.47,1729419571885.0,0.0
-4.096512,-7.302894,-7.795816,17.99,11.2,-9.73,1729419571904.0,0.0
-4.012764,-7.57089,-6.740582,40.110001,31.99,-11.27,1729419571923.0,0.0
-4.252046,-6.355337,-5.178068,95.760002,34.650002,-2.66,1729419571946.0,0.0
-4.338188,-5.534599,-5.252246,131.529999,13.02,5.95,1729419571964.0,0.0
-4.158726,-5.862415,-6.319445,90.650002,0.77,4.41,1729419571982.0,0.0
-3.227918,-6.379266,-7.558927,52.779999,6.93,-0.42,1729419572006.0,0.0
-3.361916,-8.233703,-6.149554,66.5,19.809999,2.38,1729419572023.0,0.0
-3.969693,-10.037891,-3.646662,123.900002,26.460001,-3.08,1729419572045.0,0.0
-4.055835,-9.195618,-4.106083,229.460007,-1.47,3.36,1729419572063.0,0.0
-3.579663,-6.798009,-6.116055,300.299988,-6.58,17.219999,1729419572084.0,0.0
-3.912265,-6.685547,-6.518049,329.350006,5.39,24.780001,1729419572103.0,0.0
-3.785445,-9.183653,-4.943572,346.429993,13.72,22.049999,1729419572199.0,0.0
-3.56052,-9.920642,-1.65344,332.290009,23.24,15.75,1729419572200.0,0.0
-3.223132,-7.496714,0.535992,292.040009,27.16,3.43,1729419572200.0,0.0
-3.505485,-5.623133,1.354338,197.539993,30.309999,4.48,1729419572201.0,0.0
-4.493721,-3.943372,1.78026,43.610001,18.48,3.92,1729419572204.0,0.0
-5.130211,-4.646862,0.89013,-87.5,0.98,16.1,1729419572223.0,0.0
-4.867002,-6.678369,0.459422,-196.419998,-17.43,25.83,1729419572244.0,0.0
-4.575077,-7.678568,-0.184247,-307.790009,-30.59,13.79,1729419572263.0,0.0
-3.804588,-9.667004,-6.159126,-395.01001,-46.41,-4.76,1729419572282.0,0.0
-3.428915,-11.57169,-7.836494,-359.100006,-47.670002,-15.4,1729419572304.0,0.0
-3.141776,-11.112268,-7.412964,-280.980011,-17.99,-22.049999,1729419572324.0,0.0
-3.359523,-7.862815,-6.876972,-217.350006,8.12,-28.84,1729419572344.0,0.0
-4.235296,-5.402994,-6.745367,-151.619995,18.129999,-11.34,1729419572363.0,0.0
-4.835894,-5.139783,-5.848059,-134.050003,2.8,5.88,1729419572383.0,0.0
-5.089533,-4.98425,-4.792823,-171.220001,-14.35,2.73,1729419572404.0,0.0
-5.223531,-7.377072,-5.87438,-191.240005,-11.83,-0.63,1729419572423.0,0.0
-4.24726,-8.784052,-8.956335,-148.820007,-14.14,-0.84,1729419572444.0,0.0
-3.180061,-9.260223,-10.202995,-45.57,-11.62,-1.54,1729419572463.0,0.0
-3.919443,-8.946764,-8.987441,72.309998,29.120001,-2.1,1729419572483.0,0.0
-5.62074,-7.379465,-5.20439,164.5,54.25,-2.45,1729419572506.0,0.0
-5.261817,-6.391229,-4.579862,217.419998,30.52,-6.37,1729419572523.0,0.0
-3.436093,-5.347959,-5.596812,203.210007,1.75,-4.69,1729419572544.0,0.0
-2.213361,-4.584648,-4.680361,174.580002,-5.81,1.82,1729419572562.0,0.0
-2.931208,-7.834101,-4.704289,169.399994,0.84,11.41,1729419572582.0,0.0
-4.333402,-8.274381,-3.129812,190.539993,8.05,11.69,1729419572604.0,0.0
-5.649454,-8.752945,-5.242674,250.740005,4.48,21.98,1729419572625.0,0.0
-4.589434,-8.669197,-3.352344,275.660004,-8.68,17.639999,1729419572644.0,0.0
-3.431308,-9.004191,-2.720639,266.559998,-15.75,6.86,1729419572663.0,0.0
-3.998406,-9.68136,-0.995414,255.779999,4.34,6.72,1729419572682.0,0.0
-4.024727,-9.789038,-1.117448,245.910004,7.56,-4.76,1729419572704.0,0.0
-4.364508,-8.595018,0.289532,201.25,17.57,0.77,1729419572725.0,0.0
-4.65404,-7.056434,0.256032,124.110001,23.870001,0.07,1729419572744.0,0.0
-4.802395,-6.71426,0.07657,31.15,14.84,10.15,1729419572763.0,0.0
-4.161119,-7.089933,1.17009,-66.43,5.32,15.05,1729419572784.0,0.0
-4.118048,-7.546963,2.304288,-200.339996,-6.02,5.04,1729419572803.0,0.0
-5.058427,-5.678168,0.382852,-355.880005,-13.3,-12.95,1729419572824.0,0.0
-5.166104,-6.565905,-5.108676,-447.299988,-36.889999,-29.469999,1729419572843.0,0.0
-3.864408,-9.310472,-7.74796,-425.73999,-50.75,-29.610001,1729419572862.0,0.0
-2.883351,-10.358529,-7.420143,-306.73999,-24.710001,-18.620001,1729419572883.0,0.0
-3.759124,-8.673983,-6.206983,-209.720001,19.6,-12.46,1729419572905.0,0.0
-5.008178,-6.728617,-5.111069,-163.029999,25.27,-8.33,1729419572924.0,0.0
-4.941179,-6.295516,-4.266403,-174.930008,-10.43,-6.3,1729419572943.0,0.0
-2.533999,-6.26441,-6.565905,-147.139999,-25.34,-0.42,1729419572963.0,0.0
-3.651447,-7.463214,-6.331409,-78.050003,-5.04,15.82,1729419572983.0,0.0
-5.113462,-9.300901,-5.675776,-15.05,12.25,9.59,1729419573004.0,0.0
-5.185246,-7.920243,-5.295317,45.290001,8.05,0.21,1729419573023.0,0.0
-4.031906,-6.096912,-5.563312,75.389999,-14.28,-0.28,1729419573044.0,0.0
-3.278167,-6.151947,-4.395615,70.139999,-10.85,-0.42,1729419573064.0,0.0
-4.354938,-7.111469,-3.225525,63.209999,-3.64,2.66,1729419573082.0,0.0
-5.268995,-8.77448,-6.30748,57.330002,-2.59,-5.81,1729419573103.0,0.0
-5.809773,-8.729016,-7.389036,123.970001,10.99,-0.7,1729419573124.0,0.0
-5.345565,-9.260223,-7.489535,239.540009,2.1,22.190001,1729419573145.0,0.0
-3.510271,-8.508877,-6.235696,302.679993,-6.37,20.58,1729419573162.0,0.0
-3.06042,-7.305287,-4.474578,297.360016,5.46,8.33,1729419573184.0,0.0
-3.914658,-9.942179,-4.130012,280.630005,24.99,5.32,1729419573203.0,0.0
-4.359723,-13.564911,-2.885744,276.360016,12.67,-8.19,1729419573223.0,0.0
-4.086941,-10.693524,-3.048456,307.089996,18.34,-35.209999,1729419573243.0,0.0
-4.457829,-10.360922,-2.062613,407.540009,41.23,-27.65,1729419573264.0,0.0
-4.721039,-10.801201,1.663012,429.940002,40.040001,-46.759998,1729419573284.0,0.0
-4.386044,-2.773281,2.959922,365.820007,41.720001,-27.02,1729419573304.0,0.0
-3.955336,-0.212961,4.359723,232.330002,31.01,-11.41,1729419573324.0,0.0
-4.12044,-0.614955,4.469792,30.52,5.32,9.66,1729419573343.0,0.0
-4.168297,-3.416951,2.359323,-137.410004,-2.45,32.830002,1729419573363.0,0.0
-5.376673,-6.991827,1.574477,-261.660004,-1.75,47.740002,1729419573383.0,0.0
-5.831308,-11.942577,0.392423,-292.040009,-24.710001,32.830002,1729419573404.0,0.0
-4.843073,-12.074183,0.356531,-243.25,-19.950001,28.91,1729419573422.0,0.0
-4.431508,-9.24108,0.619741,-206.220001,7.28,19.040001,1729419573444.0,0.0
-5.022535,-7.427321,0.071785,-228.199997,6.02,-0.77,1729419573462.0,0.0
-5.606383,-7.590034,-2.359323,-271.809998,0.28,-2.17,1729419573482.0,0.0
-4.926822,-7.573284,-3.091527,-330.329987,-13.58,-11.34,1729419573506.0,0.0
-4.122833,-7.456036,-4.333402,-390.809998,-17.01,-22.82,1729419573522.0,0.0
-4.634897,-7.475177,-5.479564,-436.799988,-13.02,-27.09,1729419573543.0,0.0
-4.242475,-5.556134,-6.369694,-417.829987,-19.879999,-36.68,1729419573563.0,0.0
-4.232903,-6.283553,-6.817152,-355.179993,-18.9,-18.549999,1729419573581.0,0.0
-3.996014,-7.202396,-7.628319,-282.730011,-29.049999,-12.46,1729419573604.0,0.0
-3.926622,-10.545169,-7.068398,-190.119995,-18.059999,-4.06,1729419573622.0,0.0
-3.062813,-10.392029,-9.24826,-49.91,-10.36,-15.54,1729419573643.0,0.0
-3.0006,-8.882158,-10.803595,87.360001,15.54,-15.61,1729419573664.0,0.0
-4.290331,-8.018349,-9.997212,225.259995,45.779999,-2.87,1729419573683.0,0.0
-4.98425,-7.487142,-4.613362,296.450012,65.309998,-0.77,1729419573703.0,0.0
-4.393222,-5.020142,-0.878166,334.459991,33.810001,4.06,1729419573722.0,0.0
-4.177868,-7.049256,-6.539584,320.670013,0.77,20.58,1729419573751.0,0.0
-4.704289,-9.236296,-4.838287,331.309998,15.33,-0.21,1729419573763.0,0.0
-5.034499,-10.234102,-4.979464,384.860016,27.58,3.71,1729419573783.0,0.0
-4.388437,-9.717253,-2.335395,417.76001,27.65,-0.28,1729419573804.0,0.0
-3.708875,-9.54497,-1.445265,417.339996,21.210001,-21.700001,1729419573824.0,0.0
-3.601198,-8.437093,-0.514457,391.720001,31.01,-28.42,1729419573846.0,0.0
-3.558127,-6.216553,1.462015,364.559998,36.189999,-26.880001,1729419573866.0,0.0
-4.182654,-3.366701,3.366701,301.420013,46.27,-6.58,1729419573882.0,0.0
-5.115855,-2.084148,4.096512,153.160004,41.369999,9.73,1729419573903.0,0.0
-4.388437,-3.596412,2.682354,-33.389999,21.91,26.950001,1729419573924.0,0.0
-4.177868,-4.424329,2.600998,-245.490005,5.53,44.869999,1729419573943.0,0.0
-7.01097,-7.391429,4.086941,-363.649994,7.14,47.110001,1729419573962.0,0.0
-6.927221,-8.946764,-0.880559,-485.589996,-36.330002,3.29,1729419573983.0,0.0
-4.919643,-8.779266,-3.476771,-523.109985,-66.5,-19.460001,1729419574005.0,0.0
-4.039084,-9.523434,-7.695317,-502.110016,-53.27,-16.52,1729419574025.0,0.0
-3.06042,-7.79103,-8.717053,-462.839996,-48.09,-33.880001,1729419574046.0,0.0
-3.586841,-7.628319,-7.762317,-393.540009,-18.48,-19.950001,1729419574062.0,0.0
-4.532006,-7.274181,-9.071191,-324.23999,3.29,-16.030001,1729419574082.0,0.0
-5.04407,-8.879765,-7.970492,-232.540009,-6.58,-12.6,1729419574103.0,0.0
-4.158726,-10.186246,-7.855636,-131.529999,-5.39,-9.45,1729419574125.0,0.0
-3.081956,-10.121639,-6.534799,-16.66,-0.56,-7.07,1729419574146.0,0.0
-2.904887,-7.192825,-4.680361,81.620003,7.77,-3.29,1729419574164.0,0.0
-4.347759,-8.003991,-5.245068,184.800003,22.049999,12.11,1729419574184.0,0.0
-4.658825,-7.147361,-5.032106,206.149994,36.82,-1.05,1729419574206.0,0.0
-2.854637,-8.298308,-6.123233,203.350006,-4.55,-1.12,1729419574226.0,0.0
-2.825923,-8.176274,-3.194418,239.680008,4.69,-3.43,1729419574245.0,0.0
-4.886144,-7.707282,-5.008178,301.0,19.809999,15.26,1729419574264.0,0.0
-5.711668,-7.042077,-5.828916,331.380005,25.620001,10.85,1729419574284.0,0.0
-5.448457,-9.542577,-2.694318,336.070007,23.940001,11.06,1729419574305.0,0.0
-3.711268,-10.631311,-1.048056,330.820007,5.39,0.21,1729419574325.0,0.0
-3.113062,-9.504292,-1.368695,308.980011,17.85,-10.92,1729419574347.0,0.0
-4.082155,-8.248059,0.248854,251.790009,33.459999,-18.200001,1729419574364.0,0.0
-4.831109,-6.675975,1.339981,164.639999,29.469999,-11.34,1729419574385.0,0.0
-4.587041,-4.965107,2.266003,71.470001,11.41,3.57,1729419574407.0,0.0
-4.821537,-5.498707,3.074777,-39.900002,-0.35,19.389999,1729419574424.0,0.0
-4.63729,-4.496114,2.26361,-189.210007,-4.62,7.77,1729419574448.0,0.0
-5.326423,-3.751946,1.59362,-372.890015,-14.84,5.46,1729419574468.0,0.0
-5.513064,-4.520042,-2.979064,-550.059998,-39.970001,-10.85,1729419574484.0,0.0
-5.185246,-6.874579,-9.06162,-644.630005,-59.010002,-30.450001,1729419574507.0,0.0
-3.278167,-15.32603,-11.351551,-493.149994,-79.730003,-38.920002,1729419574524.0,0.0
-3.455236,-11.844472,-6.080163,-193.339996,-25.41,-38.920002,1729419574547.0,0.0
-5.529813,-5.048856,-2.467,-71.470001,79.730003,-27.440001,1729419574564.0,0.0
-5.836094,-1.849652,-5.300103,-157.5,-10.5,-20.58,1729419574585.0,0.0
-3.440879,-6.156733,-8.181061,-244.160004,-40.950001,-7.56,1729419574604.0,0.0
-2.067399,-9.099905,-6.869793,-209.020004,-16.59,-8.68,1729419574626.0,0.0
-3.460021,-9.140583,-6.833901,-55.16,16.309999,2.87,1729419574647.0,0.0
-4.532006,-7.357929,-5.510671,78.120003,19.950001,0.21,1729419574665.0,0.0
-3.998406,-5.986843,-5.9342,163.169998,4.27,1.19,1729419574686.0,0.0
-3.926622,-6.199803,-7.130611,219.800003,-9.66,13.65,1729419574704.0,0.0
-4.929214,-8.532805,-6.836295,236.320007,11.34,5.04,1729419574725.0,0.0
-5.369494,-8.49452,-5.201996,270.200012,21.84,-3.71,1729419574744.0,0.0
-5.4006,-8.350951,-6.393622,317.799988,24.639999,14.49,1729419574764.0,0.0
-4.527221,-6.977471,-4.900501,319.970001,14.07,13.37,1729419574785.0,0.0
-4.197011,-7.168896,-2.754139,290.01001,12.53,10.22,1729419574804.0,0.0
-3.811767,-8.736196,-1.428515,258.019989,10.36,1.82,1729419574824.0,0.0
-2.947958,-10.265208,-0.78006,260.679993,0.98,-7.0,1729419574844.0,0.0
-2.59382,-10.750952,-0.40678,294.070007,5.25,-9.73,1729419574864.0,0.0
-3.938586,-7.269395,1.840081,290.779999,30.1,-4.62,1729419574885.0,0.0
-3.900301,-6.257231,3.148954,149.449997,13.37,2.24,1729419574905.0,0.0
-4.201797,-5.91745,3.108276,6.93,-5.95,6.86,1729419574924.0,0.0
-4.898108,-5.773881,2.787638,-146.789993,-11.97,7.63,1729419574946.0,0.0
-4.989035,-4.596612,1.854438,-322.279999,-22.960001,-0.21,1729419574964.0,0.0
-5.309673,-5.448457,-0.772882,-466.76001,-30.59,-9.73,1729419574983.0,0.0
-4.938786,-6.819544,-5.130211,-594.22998,-39.060001,-30.450001,1729419575006.0,0.0
-3.661019,-6.455836,-9.111869,-635.109985,-51.73,-50.540001,1729419575023.0,0.0
-3.402594,-6.065805,-8.925228,-539.97998,-35.139999,-33.670002,1729419575044.0,0.0
-4.993821,-7.625926,-8.030313,-393.26001,-9.38,-13.58,1729419575064.0,0.0
-4.814359,-9.506684,-9.638289,-251.580002,-14.56,-13.79,1729419575085.0,0.0
-3.048456,-9.32483,-8.365308,-86.940002,-23.59,-3.36,1729419575105.0,0.0
-2.426322,-7.798209,-7.467999,40.810001,-23.379999,10.92,1729419575124.0,0.0
-3.199204,-6.333801,-8.075776,71.82,-6.44,6.02,1729419575146.0,0.0
-4.352544,-7.386643,-8.480164,95.480003,28.42,2.59,1729419575165.0,0.0
-4.996214,-7.745567,-7.702496,162.820007,42.630001,5.95,1729419575184.0,0.0
-5.156533,-7.314859,-5.053641,246.889999,34.299999,9.52,1729419575205.0,0.0
-4.290331,-6.333801,-3.661019,282.380005,12.32,3.08,1729419575224.0,0.0
-4.101298,-7.046863,-5.087141,259.839996,5.95,8.12,1729419575247.0,0.0
-4.285545,-6.977471,-4.015156,227.779999,26.809999,7.28,1729419575265.0,0.0
-4.618148,-8.458629,-4.266403,241.710007,28.210001,8.05,1729419575285.0,0.0
-4.945964,-8.860621,-3.316452,279.720001,21.280001,14.91,1729419575304.0,0.0
-4.024727,-7.953743,-0.851845,317.589996,12.11,11.41,1729419575323.0,0.0
-2.849852,-7.838887,0.155533,328.440002,5.81,3.01,1729419575345.0,0.0
-2.464607,-6.994221,0.768096,298.339996,14.49,8.82,1729419575365.0,0.0
-3.402594,-7.860423,2.0004,199.430008,24.57,23.799999,1729419575385.0,0.0
-4.395615,-7.219146,2.194218,40.670002,10.29,18.27,1729419575405.0,0.0
-4.536791,-5.893522,2.206182,-82.040001,-12.18,17.92,1729419575424.0,0.0
-4.912465,-6.396015,1.820938,-176.539993,-21.98,32.060001,1729419575446.0,0.0
-5.814559,-8.633304,-0.964308,-335.51001,-22.049999,12.74,1729419575464.0,0.0
-5.460421,-9.911072,-6.273981,-511.209991,-35.349998,-38.290001,1729419575485.0,0.0
-4.366901,-11.380265,-9.037691,-531.159973,-40.810001,-55.93,1729419575507.0,0.0
-2.428715,-8.901299,-8.420342,-392.559998,-22.68,-43.610001,1729419575525.0,0.0
-2.986243,-5.757132,-4.290331,-247.100006,17.92,-9.8,1729419575545.0,0.0
-5.455636,-5.635098,-2.572284,-185.080002,9.38,-10.08,1729419575565.0,0.0
-4.642076,-7.348359,-4.488935,-192.080002,-24.219999,-11.76,1729419575583.0,0.0
-2.59382,-8.738588,-5.532206,-134.259995,-38.920002,-6.3,1729419575606.0,0.0
-2.569891,-9.303294,-7.503892,-15.26,-33.110001,9.52,1729419575627.0,0.0
-3.881158,-8.214561,-6.226124,69.580002,-11.69,8.75,1729419575644.0,0.0
-4.61097,-6.999006,-3.61077,103.949997,-7.98,7.21,1729419575664.0,0.0
-4.67079,-6.769295,-3.883551,81.059998,-23.940001,7.21,1729419575683.0,0.0
-5.630312,-7.889136,-4.106083,55.93,-16.24,-2.31,1729419575705.0,0.0
-7.932207,-8.717053,-4.220939,57.330002,7.91,-9.24,1729419575725.0,0.0
-7.200003,-10.207782,-7.881958,170.800003,-10.36,-2.52,1729419575745.0,0.0
-4.283153,-9.812965,-10.327423,297.290009,-35.420002,21.07,1729419575763.0,0.0
-2.452643,-9.848858,-11.006985,372.75,-14.7,33.599998,1729419575790.0,0.0
-3.029313,-8.748159,-7.317252,358.820007,52.220001,10.57,1729419575804.0,0.0
-5.402994,-6.491727,-2.971886,265.369995,105.139999,-17.15,1729419575826.0,0.0
-5.869594,-8.640482,-1.665405,187.320007,50.540001,-27.790001,1729419575848.0,0.0
-3.486342,-9.322437,-0.81356,153.509995,-3.78,-28.91,1729419575864.0,0.0
-3.103491,-6.678369,1.268196,160.229996,24.85,-22.4,1729419575884.0,0.0
-3.943372,-4.972286,2.234896,149.169998,26.530001,-5.81,1729419575905.0,0.0
-4.079762,-5.218746,2.964707,88.830002,8.75,10.99,1729419575924.0,0.0
-5.032106,-5.103891,2.112862,-51.240002,12.6,13.440001,1729419575947.0,0.0
-5.838487,-4.555934,-0.617348,-230.160004,17.710001,0.98,1729419575965.0,0.0
-5.730811,-6.331409,-3.78066,-392.070007,-3.15,-11.48,1729419575985.0,0.0
-4.768896,-10.327423,-6.190232,-451.640015,-42.0,-26.040001,1729419576006.0,0.0
-3.156133,-14.304294,-5.496314,-354.130005,-68.389999,-24.99,1729419576026.0,0.0
-2.536392,-11.282159,-5.221139,-188.649994,-24.780001,-14.56,1729419576047.0,0.0
-3.852444,-6.448657,-2.868994,-87.010002,31.08,-13.93,1729419576064.0,0.0
-6.049056,-5.072784,-1.727618,-88.620003,33.810001,-6.37,1729419576085.0,0.0
-5.941379,-5.525027,-3.988836,-155.539993,-14.63,-10.64,1729419576105.0,0.0
-4.12044,-7.838887,-7.491928,-181.509995,-34.720001,-4.9,1729419576124.0,0.0
-3.909872,-12.966705,-9.054441,-80.290001,-16.66,2.94,1729419576147.0,0.0
-4.505685,-9.226725,-5.496314,252.139999,13.79,22.75,1729419576166.0,0.0
-5.063213,-5.977271,-2.943172,381.429993,47.32,39.549999,1729419576186.0,0.0
-5.618347,-6.017949,-4.158726,286.51001,35.420002,23.1,1729419576207.0,0.0
-5.278566,-7.02772,-3.440879,117.32,25.690001,-6.23,1729419576225.0,0.0
-4.493721,-9.930215,-4.108476,37.450001,20.51,-18.9,1729419576246.0,0.0
-3.184847,-11.306087,-2.895315,69.300003,-2.87,-24.99,1729419576266.0,0.0
-2.318645,-10.403993,-0.964308,163.309998,6.65,-20.299999,1729419576286.0,0.0
-2.648855,-7.582855,0.452243,210.0,18.549999,-22.120001,1729419576306.0,0.0
-3.491128,-5.639884,0.830309,173.529999,14.56,-18.27,1729419576326.0,0.0
-4.089334,-5.13739,0.153141,94.220001,-0.28,-7.98,1729419576346.0,0.0
-4.539185,-7.046863,0.234497,-20.93,-12.67,7.28,1729419576366.0,0.0
-3.823731,-8.468199,-0.433101,-128.029999,-40.950001,7.77,1729419576387.0,0.0
-3.084348,-9.753145,-1.375873,-140.770004,-48.93,19.32,1729419576406.0,0.0
-3.493521,-9.217153,-2.234896,-122.5,-40.040001,21.0,1729419576426.0,0.0
-5.501099,-10.717452,-3.907479,-167.649994,-18.059999,3.85,1729419576446.0,0.0
-6.530013,-13.009777,-7.676175,-216.649994,-8.89,-30.309999,1729419576465.0,0.0
-3.069991,-11.038091,-5.577669,-106.470001,-25.200001,-31.92,1729419576486.0,0.0
-2.366502,-6.065805,-2.062613,149.660004,24.01,11.27,1729419576512.0,0.0
-3.275774,-3.541377,-0.631705,177.449997,36.889999,20.860001,1729419576526.0,0.0
-6.082555,-5.922236,-2.694318,71.68,39.200001,19.389999,1729419576550.0,0.0
-7.482357,-9.415757,-3.850052,-16.17,16.73,-10.36,1729419576565.0,0.0
-6.302694,-12.540783,-2.029114,48.23,-12.67,-11.76,1729419576585.0,0.0
-4.926822,-12.899707,0.784846,165.059998,2.24,-6.23,1729419576607.0,0.0
-6.573084,-10.552348,0.729811,191.309998,31.85,-39.689999,1729419576626.0,0.0
-8.386844,-9.19801,0.172283,155.889999,40.810001,-58.52,1729419576645.0,0.0
-7.142576,-7.393822,0.653241,108.220001,15.4,-59.779999,1729419576665.0,0.0
-4.503292,-6.240481,-0.29671,57.889999,-14.14,-52.080002,1729419576685.0,0.0
-2.395216,-6.628119,-0.636491,16.52,-24.710001,-42.349998,1729419576707.0,0.0
-1.454836,-9.166903,-0.81356,27.370001,-31.219999,-25.83,1729419576725.0,0.0
-1.629512,-10.581062,0.059821,78.610001,-18.129999,-22.190001,1729419576748.0,0.0
-1.883151,-8.987441,0.002393,114.379997,6.16,-28.77,1729419576764.0,0.0
-1.119841,-8.305488,-0.691526,114.660004,16.450001,-25.41,1729419576786.0,0.0
-0.48335,-8.800802,0.002393,55.93,22.33,-23.24,1729419576806.0,0.0
0.413958,-10.351351,-1.162912,-0.56,19.809999,-32.34,1729419576826.0,0.0
0.531207,-10.243673,-1.67019,10.85,31.5,-29.120001,1729419576848.0,0.0
-0.098106,-8.999406,-1.942972,49.84,50.330002,-21.280001,1729419576865.0,0.0
-1.086342,-8.898908,-1.014557,73.779999,75.18,-17.43,1729419576885.0,0.0
-1.65344,-8.877372,0.200997,64.82,80.43,-13.16,1729419576905.0,0.0
-1.868794,-8.776874,1.5003,32.549999,85.889999,-10.64,1729419576927.0,0.0
-3.35713,-10.671989,3.134598,-13.23,75.739998,-15.75,1729419576945.0,0.0
-3.381058,-9.501899,2.359323,-2.59,43.119999,-33.32,1729419576965.0,0.0
-3.976871,-7.412964,3.632305,67.480003,47.040001,10.22,1729419576986.0,0.0
-4.694718,-7.491928,5.163712,85.190002,52.990002,32.830002,1729419577005.0,0.0
-3.24706,-6.405586,4.031906,10.15,27.58,14.42,1729419577026.0,0.0
-3.510271,-7.795816,6.128019,-52.43,-20.65,24.360001,1729419577046.0,0.0
-3.172883,-9.075976,3.78066,-26.880001,-49.0,33.040001,1729419577064.0,0.0
-3.735196,-6.396015,2.036292,18.48,28.84,32.759998,1729419577086.0,0.0
-5.20439,-5.869594,4.307081,48.93,42.98,64.190002,1729419577106.0,0.0
-5.099105,-6.173482,4.498507,16.870001,10.85,65.029999,1729419577182.0,0.0
-5.300103,-8.671589,5.04407,-36.189999,15.05,71.959999,1729419577186.0,0.0
-4.342973,-5.931807,0.909273,-186.550003,-10.08,60.830002,1729419577189.0,0.0
-4.378866,-7.874779,-2.641676,-258.089996,-33.950001,67.199997,1729419577191.0,0.0
-5.048856,-9.860823,-5.223531,-279.230011,-54.110001,49.84,1729419577206.0,0.0
-6.250053,-11.260624,-4.945964,-217.070007,-36.75,41.860001,1729419577226.0,0.0
-6.948757,-12.399607,-7.125826,-127.540001,-23.73,28.210001,1729419577246.0,0.0
-7.329216,-13.46202,-8.831908,-35.490002,-10.71,-21.84,1729419577266.0,0.0
-7.223931,-12.727424,-7.025328,85.050003,12.53,-62.23,1729419577285.0,0.0
-6.491727,-11.114661,-4.919643,227.990005,33.950001,-43.119999,1729419577305.0,0.0
-5.498707,-7.02772,-1.012164,318.779999,55.790001,-22.610001,1729419577326.0,0.0
-4.912465,-4.859823,2.95035,316.610016,54.529999,-18.9,1729419577346.0,0.0
-4.144369,-6.606583,3.778267,223.440002,4.27,-36.610001,1729419577366.0,0.0
-2.916851,-11.375479,2.464607,134.75,-35.209999,-61.880001,1729419577385.0,0.0
-1.368695,-11.846866,3.335595,167.649994,-19.6,-74.340004,1729419577405.0,0.0
-2.050649,-8.149954,4.386044,290.220001,52.990002,-47.25,1729419577424.0,0.0
-2.684747,-3.9673,6.321837,343.769989,77.629997,-33.810001,1729419577445.0,0.0
-3.213561,1.318445,5.871986,244.229996,67.760002,-20.58,1729419577465.0,0.0
-5.06082,0.713061,6.733403,96.949997,33.110001,14.07,1729419577486.0,0.0
-5.666204,-4.307081,5.402994,-134.050003,-10.36,33.740002,1729419577507.0,0.0
-6.111269,-9.315259,6.087341,-205.029999,-34.650002,32.27,1729419577526.0,0.0
-5.340781,-10.523634,3.474378,-244.300003,-42.0,9.45,1729419577548.0,0.0
-4.476971,-8.927622,1.883151,-224.279999,-10.01,10.43,1729419577564.0,0.0
-3.792624,-9.925428,2.292324,-173.180008,-9.24,19.18,1729419577586.0,0.0
-2.445465,-10.064213,0.129212,-131.110001,-20.58,9.31,1729419577605.0,0.0
-2.526821,-10.894521,2.682354,-65.449997,-11.48,14.35,1729419577639.0,0.0
-4.235296,-6.022735,5.632704,-77.139999,5.6,28.77,1729419577645.0,0.0
-6.204589,-4.177868,4.646862,-136.009995,-7.21,31.92,1729419577665.0,0.0
-4.773681,-7.123433,-3.5007,-226.169998,-37.099998,-4.2,1729419577699.0,0.0
-5.927022,-13.39502,-4.572684,-212.660004,-63.490002,-20.370001,1729419577705.0,0.0
-5.111069,-15.909878,-3.732803,-79.239998,-84.139999,-49.98,1729419577727.0,0.0
-3.818945,-11.31805,-3.290131,47.810001,-21.84,-35.84,1729419577745.0,0.0
-3.634698,-9.990034,-2.988636,148.399994,37.66,-20.93,1729419577764.0,0.0
-3.641876,-9.119047,-0.837488,185.570007,28.77,-44.240002,1729419577786.0,0.0
-4.146761,-8.889337,-0.42353,197.889999,20.93,-41.02,1729419577804.0,0.0
-3.139383,-10.894521,2.962314,234.080002,5.11,-39.130001,1729419577905.0,0.0
-1.713261,-6.886543,4.555934,303.660004,32.34,-45.009998,1729419577912.0,0.0
-3.464807,-4.639683,6.788438,336.700012,74.830002,-14.0,1729419577919.0,0.0
-4.21376,-0.684347,7.633104,233.240005,64.75,-26.74,1729419577923.0,0.0
-5.364708,1.770689,5.936593,92.330002,37.450001,-9.03,1729419577925.0,0.0
-6.037091,-3.081956,6.757331,-3.5,15.47,28.91,1729419578036.0,0.0
-4.192225,-6.518049,6.314659,-86.449997,-2.17,22.33,1729419578037.0,0.0
-3.481557,-7.788638,4.37408,-114.029999,8.47,28.91,1729419578037.0,0.0
-5.065606,-9.430114,4.929214,-126.419998,6.72,31.15,1729419578037.0,0.0
-4.41715,-8.41795,3.869194,-147.559998,-0.84,13.16,1729419578037.0,0.0
-4.271189,-7.381857,4.551149,-141.960007,7.56,29.049999,1729419578037.0,0.0
-4.151547,-6.563512,4.316652,-161.419998,-1.33,31.57,1729419578045.0,0.0
-4.606184,-9.640682,4.768896,-209.789993,-15.05,26.6,1729419578064.0,0.0
-4.144369,-13.050454,-1.383051,-268.100006,-57.470001,-6.79,1729419578083.0,0.0
-3.56052,-13.155738,-0.260818,-212.449997,-81.059998,-41.860001,1729419578104.0,0.0
-3.550949,-8.248059,1.237089,-76.370003,-40.110001,-5.11,1729419578125.0,0.0
-4.783253,-4.632504,1.272982,20.23,15.26,22.190001,1729419578145.0,0.0
-5.06082,-9.466006,-0.212961,-5.46,1.33,-7.7,1729419578163.0,0.0
-4.960321,-13.423735,-1.253839,-96.739998,-60.830002,-37.099998,1729419578183.0,0.0
-4.017549,-14.715858,-3.797409,-19.32,-52.220001,-68.32,1729419578204.0,0.0
-3.436093,-14.531611,-1.904687,130.410004,-13.09,-72.169998,1729419578224.0,0.0
-1.014557,-10.009177,-0.849452,321.160004,17.780001,-60.549999,1729419578245.0,0.0
-2.39043,-5.730811,5.108676,428.329987,84.910004,-16.799999,1729419578263.0,0.0
-3.134598,-2.778067,8.709875,353.709991,71.540001,-15.33,1729419578283.0,0.0
-1.366302,-2.148755,6.613762,149.029999,5.11,-31.219999,1729419578307.0,0.0
-1.258625,-4.867002,2.864209,-8.12,-18.969999,-11.2,1729419578323.0,0.0
-3.924229,-6.60419,3.498307,-17.710001,4.48,-7.63,1729419578345.0,0.0
-6.235696,-4.709075,4.821537,85.470001,45.639999,0.56,1729419578364.0,0.0
-6.005985,-2.713461,6.455836,113.050003,62.16,44.240002,1729419578383.0,0.0
-4.185047,-4.220939,8.049455,12.53,38.009998,44.240002,1729419578404.0,0.0
-4.273581,-6.465407,5.580062,-122.010002,-4.06,26.950001,1729419578423.0,0.0
-5.02732,-8.389235,4.012764,-148.470001,-0.84,27.370001,1729419578446.0,0.0
-5.340781,-9.822537,5.156533,-120.82,-0.7,44.869999,1729419578465.0,0.0
-4.146761,-9.205189,3.998406,-142.380005,17.85,38.990002,1729419578483.0,0.0
-2.105684,-7.238289,1.612763,-244.300003,19.530001,21.42,1729419578507.0,0.0
-2.641676,-6.065805,0.205783,-268.730011,-11.13,29.33,1729419578523.0,0.0
-5.271388,-9.564112,-1.375873,-232.190002,-1.54,32.970001,1729419578550.0,0.0
-8.360522,-15.828522,0.267996,-157.360001,-51.450001,-15.68,1729419578563.0,0.0
-6.324231,-13.222737,-0.29671,-49.630001,-64.540001,-50.049999,1729419578586.0,0.0
-5.194818,-10.734202,0.248854,73.709999,17.219999,-8.47,1729419578604.0,0.0
-4.141976,-10.054641,-0.162712,95.900002,8.26,-24.43,1729419578625.0,0.0
-4.465007,-10.669596,1.79701,76.440002,-20.65,-50.330002,1729419578645.0,0.0
-4.070191,-13.213166,0.27996,120.260002,-42.139999,-60.549999,1729419578663.0,0.0
-4.26401,-11.763116,4.173083,195.860001,-13.86,-72.940002,1729419578683.0,0.0
-2.833102,-7.472785,2.598605,287.839996,19.25,-64.75,1729419578707.0,0.0
-2.871387,-5.63749,3.771089,340.76001,41.650002,-47.529999,1729419578723.0,0.0
-2.648855,-6.003592,6.920043,298.829987,20.299999,-48.23,1729419578744.0,0.0
-1.524228,-3.89073,5.99402,166.949997,16.379999,-56.209999,1729419578769.0,0.0
-2.897708,-1.052842,3.52702,67.269997,10.29,-39.41,1729419578787.0,0.0
-4.601398,-2.565106,4.792823,39.060001,5.81,-11.69,1729419578804.0,0.0
-2.924029,-5.383851,6.190232,27.860001,13.23,5.39,1729419578824.0,0.0
-3.04367,-6.242875,6.666404,-11.76,19.32,21.559999,1729419578844.0,0.0
-3.661019,-7.786245,6.963113,-24.710001,14.84,19.74,1729419578864.0,0.0
-3.151347,-6.850651,5.735595,-27.23,15.4,23.030001,1729419578883.0,0.0
-3.479164,-6.147161,6.563512,-26.67,17.360001,41.509998,1729419578904.0,0.0
-3.651447,-5.017749,5.053641,-45.360001,6.44,35.98,1729419578924.0,0.0
-3.900301,-5.288138,5.056034,-28.49,21.139999,53.760002,1729419578944.0,0.0
-5.972485,-7.77428,7.721639,-66.010002,27.65,63.0,1729419578964.0,0.0
-4.649254,-7.269395,2.885744,-204.75,8.05,25.48,1729419578983.0,0.0
-3.201597,-7.941778,-1.256232,-322.910004,17.57,11.2,1729419579005.0,0.0
-2.730211,-7.04447,-1.040878,-343.279999,-9.17,15.47,1729419579024.0,0.0
-4.541577,-7.190433,1.737189,-229.740005,0.07,48.23,1729419579044.0,0.0
-7.896315,-12.387643,2.54357,-181.369995,15.61,55.02,1729419579065.0,0.0
-7.776673,-12.801601,-0.289532,-259.839996,-25.059999,-28.630001,1729419579085.0,0.0
-4.644469,-13.655839,-0.945165,-181.229996,-63.420002,-61.950001,1729419579104.0,0.0
-3.273381,-14.036297,-2.069792,-41.23,-37.099998,-27.65,1729419579124.0,0.0
-2.885744,-13.29213,-0.887737,112.07,6.09,-41.299999,1729419579146.0,0.0
-3.783052,-8.566305,1.251446,198.940002,33.670002,-50.189999,1729419579163.0,0.0
-3.381058,-6.427122,2.756532,201.180008,35.349998,-45.57,1729419579183.0,0.0
-2.684747,-7.257431,1.837688,151.619995,-2.03,-40.950001,1729419579204.0,0.0
-1.342373,-8.652447,2.629712,114.379997,-22.68,-51.099998,1729419579223.0,0.0
-0.617348,-5.737988,3.381058,135.869995,6.86,-34.720001,1729419579244.0,0.0
-3.141776,-3.627519,3.902694,170.660004,55.720001,3.29,1729419579264.0,0.0
-5.649454,-2.589034,4.280759,134.539993,45.360001,8.75,1729419579283.0,0.0
-6.12084,-4.989035,5.673382,82.110001,12.67,21.42,1729419579304.0,0.0
-4.82393,-6.565905,7.465607,33.599998,11.55,35.0,1729419579324.0,0.0
-5.321638,-5.661418,8.224132,-16.799999,21.280001,42.349998,1729419579346.0,0.0
-6.687939,-5.546563,6.125626,-107.449997,14.91,28.77,1729419579363.0,0.0
-4.414758,-6.898508,2.517249,-213.080002,4.55,14.42,1729419579383.0,0.0
-3.419343,-9.760324,2.718246,-284.690002,-18.48,23.309999,1729419579404.0,0.0
-1.87358,-11.708081,0.507278,-294.420013,-65.590004,6.3,1729419579423.0,0.0
-1.756332,-10.648061,-1.435694,-263.059998,-38.43,2.1,1729419579446.0,0.0
-3.053242,-9.410972,-2.469393,-181.509995,-11.2,7.35,1729419579465.0,0.0
-5.331209,-10.583455,-2.129612,-102.830002,4.55,0.28,1729419579484.0,0.0
-6.601797,-13.24188,-3.565305,-27.51,4.55,-21.280001,1729419579507.0,0.0
-5.15414,-12.124433,-2.859423,110.18,4.2,-34.439999,1729419579523.0,0.0
-4.316652,-9.79143,-1.356731,169.680008,3.36,-19.040001,1729419579546.0,0.0
-4.630112,-8.410772,2.366502,195.440002,-11.41,-31.639999,1729419579564.0,0.0
-4.156333,-6.675975,5.149354,185.779999,-5.04,-40.880001,1729419579583.0,0.0
-3.680161,-8.685946,7.819745,136.710007,3.43,-34.02,1729419579605.0,0.0
-1.131805,-8.616554,4.754539,83.230003,-34.650002,-48.509998,1729419579628.0,0.0
-1.68694,-4.742575,3.098706,95.690002,2.59,-28.0,1729419579647.0,0.0
-5.233103,-4.192225,5.709275,126.910004,37.170002,3.43,1729419579663.0,0.0
-5.355137,-4.9675,5.781059,81.830002,5.6,3.43,1729419579683.0,0.0
-2.907279,-7.886744,2.98385,13.65,-37.170002,17.639999,1729419579704.0,0.0
-0.117248,-13.002598,3.378666,2.8,-51.450001,19.389999,1729419579723.0,0.0
0.617348,-10.253245,3.347559,24.780001,-13.58,3.71,1729419579746.0,0.0
-4.158726,-8.874979,5.290531,106.260002,44.73,32.549999,1729419579763.0,0.0
-5.328816,-4.515256,6.491727,74.480003,38.220001,29.120001,1729419579785.0,0.0
-5.778666,-2.70389,5.07757,21.91,32.970001,33.529999,1729419579806.0,0.0
-5.905487,-6.771688,0.464208,-48.93,34.439999,44.380001,1729419579824.0,0.0
-3.108276,-9.858429,0.79681,-143.850006,15.12,27.09,1729419579847.0,0.0
-1.588834,-9.937392,-1.51705,-59.010002,34.09,19.18,1729419579871.0,0.0
-5.352744,-10.573883,4.386044,29.889999,69.019997,39.830002,1729419579883.0,0.0
-8.386844,-8.767302,5.759524,14.77,41.650002,16.17,1729419579904.0,0.0
-8.46102,-8.372486,5.891129,-42.98,-16.66,-9.31,1729419579925.0,0.0
-5.807381,-8.920443,4.74736,-96.739998,-73.639999,-22.26,1729419579944.0,0.0
-3.885944,-8.822337,4.371687,-90.230003,-86.449997,-26.110001,1729419579963.0,0.0
-4.718646,-8.673983,4.405186,-54.18,-62.23,-12.67,1729419579983.0,0.0
-5.589634,-8.018349,3.254239,-44.380001,-60.200001,-9.87,1729419580004.0,0.0
-5.000999,-7.858029,3.163311,-65.169998,-77.139999,-4.06,1729419580023.0,0.0
-3.65384,-7.219146,1.581656,-108.360001,-81.410004,-2.24,1729419580045.0,0.0
-2.9336,-8.52802,0.598206,-116.059998,-76.090004,-15.82,1729419580064.0,0.0
-2.24686,-10.219746,-1.019342,-96.32,-58.59,-16.870001,1729419580084.0,0.0
-1.37348,-10.877771,-1.493121,-56.77,-31.01,-18.690001,1729419580104.0,0.0
-0.825524,-10.992627,-1.237089,1.54,6.37,-7.49,1729419580125.0,0.0
-1.282553,-8.767302,3.799802,44.939999,24.92,-5.39,1729419580145.0,0.0
-1.998007,-8.429914,2.416751,-0.42,34.650002,-17.5,1729419580164.0,0.0
-1.158126,-9.12144,0.18664,-80.080002,14.84,-40.459999,1729419580184.0,0.0
-0.612563,-10.430314,0.447458,-87.080002,16.1,-34.09,1729419580204.0,0.0
-1.624727,-9.827322,0.375673,-30.799999,51.380001,-23.940001,1729419580224.0,0.0
-3.474378,-10.164711,2.182254,16.52,62.720001,-23.870001,1729419580245.0,0.0
-3.701697,-8.9348,2.074577,28.559999,49.0,-22.960001,1729419580263.0,0.0
-4.046263,-10.076177,1.904687,28.49,51.029999,-14.35,1729419580286.0,0.0
-4.331009,-8.322237,4.819145,28.280001,40.670002,-16.1,1729419580305.0,0.0
-5.338387,-6.159126,7.795816,15.33,34.580002,-1.19,1729419580325.0,0.0
-4.843073,-6.800402,4.426722,-46.130001,0.14,-4.2,1729419580347.0,0.0
-2.603391,-9.317651,0.595813,-89.32,-46.48,-24.15,1729419580365.0,0.0
-1.194018,-10.693524,0.39003,-37.939999,-46.130001,-11.27,1729419580384.0,0.0
-1.514657,-7.91785,0.464208,55.16,3.57,11.41,1729419580406.0,0.0
-2.897708,-6.783652,2.330609,61.25,24.360001,23.309999,1729419580425.0,0.0
-2.880959,-7.896315,2.105684,-44.66,3.5,25.200001,1729419580447.0,0.0
-3.455236,-9.784252,0.844666,-112.699997,-2.38,24.57,1729419580465.0,0.0
-4.67079,-11.653046,-0.930808,-163.169998,-5.25,8.26,1729419580484.0,0.0
-4.943572,-13.213166,-1.938186,-149.800003,-25.129999,-12.46,1729419580507.0,0.0
-5.04407,-13.124631,-1.160519,-80.989998,-12.53,-18.83,1729419580526.0,0.0
-5.326423,-9.128618,-1.473979,-31.5,22.960001,-36.119999,1729419580546.0,0.0
-5.472386,-8.312666,-0.294317,19.18,24.290001,-39.200001,1729419580563.0,0.0
-5.460421,-8.365308,0.07657,15.190001,8.26,-42.98,1729419580589.0,0.0
-4.206582,-7.412964,0.550349,1.61,-1.75,-39.41,1729419580604.0,0.0
-2.718246,-6.999006,1.543371,0.21,-5.11,-26.32,1729419580624.0,0.0
-2.285146,-6.206983,2.469393,-15.05,2.66,-14.63,1729419580645.0,0.0
-1.727618,-5.855237,2.323431,-33.25,4.27,-0.77,1729419580664.0,0.0
-1.043271,-8.463413,0.976272,-47.880001,-11.13,14.35,1729419580685.0,0.0
-1.0002,-8.908479,-0.571885,-49.630001,-6.86,17.99,1729419580707.0,0.0
-0.949951,-8.374879,0.12682,-0.14,3.29,37.73,1729419580725.0,0.0
-1.069592,-8.185846,0.988236,32.27,-4.41,60.200001,1729419580745.0,0.0
-2.732604,-10.896914,0.545564,39.900002,-19.110001,67.199997,1729419580764.0,0.0
-4.132405,-12.217752,-0.485743,53.130001,-22.4,55.790001,1729419580784.0,0.0
-4.957928,-10.829915,-0.684347,55.439999,-16.52,45.43,1729419580805.0,0.0
-5.469993,-11.047661,-2.502892,18.27,-9.45,35.349998,1729419580828.0,0.0
-6.092126,-12.24168,-3.907479,-71.400002,-6.44,7.63,1729419580845.0,0.0
-5.570491,-13.220345,-4.65404,-118.090004,2.17,-22.469999,1729419580865.0,0.0
-5.199604,-14.158331,-4.321437,-93.309998,16.030001,-38.080002,1729419580886.0,0.0
-5.931807,-12.387643,-4.893322,-76.510002,43.330002,-66.360001,1729419580906.0,0.0
-6.283553,-9.025726,-5.721239,-78.68,59.57,-98.840004,1729419580926.0,0.0
-2.299503,-11.215159,-2.282753,46.130001,10.64,-100.940002,1729419580946.0,0.0
1.74676,-7.63789,6.156733,197.820007,37.52,-67.830002,1729419580965.0,0.0
-1.919044,-3.732803,8.262416,207.550003,72.099998,-34.09,1729419580986.0,0.0
-2.840281,0.413958,5.898308,100.590004,20.58,-46.130001,1729419581006.0,0.0
-1.325624,-1.079163,4.532006,4.76,-8.75,3.22,1729419581025.0,0.0
-0.442672,-5.295317,3.665804,-62.580002,-30.799999,38.990002,1729419581045.0,0.0
-2.148755,-9.597611,1.438086,-63.420002,-25.969999,57.260002,1729419581065.0,0.0
-4.512863,-13.366307,-0.61017,-40.740002,-22.75,59.639999,1729419581085.0,0.0
-4.295116,-12.471392,-3.141776,-12.81,-30.450001,35.91,1729419581106.0,0.0
-3.431308,-10.765309,-1.9669,71.959999,-5.67,36.889999,1729419581124.0,0.0
-3.553342,-9.772287,-0.964308,63.279999,3.99,29.33,1729419581145.0,0.0
-3.881158,-9.635897,-0.933201,26.389999,2.52,16.309999,1729419581165.0,0.0
-4.031906,-10.980663,-0.942772,3.57,0.35,13.23,1729419581186.0,0.0
-4.534399,-12.366108,-0.729811,-19.950001,-2.45,-0.63,1729419581206.0,0.0
-4.855037,-13.103097,-2.019542,-57.330002,6.16,-31.01,1729419581225.0,0.0
-3.907479,-11.8349,-2.15354,-64.889999,10.85,-59.849998,1729419581248.0,0.0
-3.038885,-9.403792,-0.650848,-26.67,25.059999,-56.420002,1729419581264.0,0.0
-2.021935,-7.733603,0.26321,7.14,24.43,-60.41,1729419581286.0,0.0
-1.048056,-7.365108,3.199204,16.59,7.63,-50.889999,1729419581306.0,0.0
-0.200997,-6.912865,4.237689,28.35,-4.13,-30.870001,1729419581324.0,0.0
-0.662812,-5.469993,3.883551,28.559999,-3.15,-7.35,1729419581346.0,0.0
-1.710868,-4.13719,3.273381,-3.57,2.17,11.27,1729419581365.0,0.0
-2.603391,-6.218946,1.68694,-45.920002,-8.82,38.990002,1729419581386.0,0.0
-3.309274,-9.80818,0.861416,-75.25,-22.610001,49.0,1729419581406.0,0.0
-3.299703,-10.731809,-0.904487,-29.610001,-20.860001,48.439999,1729419581424.0,0.0
-3.385844,-9.23151,-0.368495,59.5,-2.45,64.75,1729419581445.0,0.0
-4.118048,-7.908278,0.765703,112.980003,3.08,70.209999,1729419581464.0,0.0
-4.929214,-8.114061,2.07697,80.290001,-9.59,71.330002,1729419581486.0,0.0
-5.582455,-10.344172,0.579063,20.790001,-25.200001,64.050003,1729419581507.0,0.0
-5.474778,-10.650455,-1.622334,-45.849998,-35.560001,39.549999,1729419581526.0,0.0
-5.458029,-10.628918,-2.586641,-76.790001,-26.18,29.960001,1729419581547.0,0.0
-6.218946,-11.408978,-2.914458,-119.629997,-10.15,14.77,1729419581564.0,0.0
-6.991827,-14.175081,-5.058427,-150.220001,-10.43,-24.639999,1729419581585.0,0.0
-5.54417,-14.524432,-5.871986,-100.309998,-6.51,-61.18,1729419581605.0,0.0
-3.976871,-11.849257,-2.782853,-11.06,35.420002,-66.639999,1729419581627.0,0.0
-1.95015,-8.836694,1.0002,28.630001,29.610001,-74.830002,1729419581647.0,0.0
1.071985,-9.293723,4.297509,66.360001,-8.89,-57.75,1729419581664.0,0.0
0.945165,-9.267403,3.948158,24.780001,5.81,-61.810001,1729419581685.0,0.0
-2.239682,-8.805587,1.909473,-4.48,15.61,-61.110001,1729419581704.0,0.0
-3.929015,-7.640282,-1.378266,-8.61,24.43,-51.799999,1729419581726.0,0.0
-3.323631,-4.888536,-0.064606,13.86,31.99,-31.43,1729419581747.0,0.0
-2.433501,-5.347959,3.165704,37.869999,28.84,4.76,1729419581764.0,0.0
-3.182454,-7.759924,2.222932,10.36,20.09,17.5,1729419581784.0,0.0
-4.694718,-8.745767,0.583849,-8.12,17.5,24.15,1729419581804.0,0.0
-4.287938,-7.73121,0.167498,-6.51,0.35,28.210001,1729419581825.0,0.0
-3.17049,-6.855437,0.200997,6.58,-11.2,38.150002,1729419581848.0,0.0
-3.323631,-7.853244,0.799203,25.059999,-17.43,47.810001,1729419581864.0,0.0
-4.481757,-10.583455,0.342174,28.35,-20.65,52.150002,1729419581884.0,0.0
-4.969893,-12.339786,-1.098306,-3.43,-25.9,40.18,1729419581906.0,0.0
-4.663611,-13.160524,-3.407379,-62.720001,-25.41,18.200001,1729419581925.0,0.0
-3.945765,-12.220145,-4.443472,-92.889999,-21.42,-5.46,1729419581946.0,0.0
-3.565305,-12.457035,-5.017749,-50.400002,-0.7,-12.88,1729419581974.0,0.0
-4.850252,-12.866207,-3.495914,-16.73,26.25,-28.210001,1729419581984.0,0.0
-6.037091,-10.691131,-2.641676,-33.459999,43.119999,-59.639999,1729419582007.0,0.0
-5.431707,-8.559127,-2.804388,-41.790001,36.75,-74.970001,1729419582026.0,0.0
-2.914458,-8.729016,-1.095913,-18.059999,7.21,-70.980003,1729419582045.0,0.0
-1.131805,-9.690931,2.409572,14.28,7.0,-64.260002,1729419582065.0,0.0
-0.452243,-8.006385,2.864209,44.59,21.07,-50.75,1729419582084.0,0.0
-0.806381,-4.936393,4.575077,42.209999,31.92,-35.07,1729419582104.0,0.0
-0.758525,-4.194618,4.666004,9.94,13.72,8.12,1729419582197.0,0.0
-1.473979,-7.109076,1.368695,-27.51,-11.97,38.080002,1729419582198.0,0.0
-2.230111,-9.035298,-0.882952,-36.75,-5.6,42.07,1729419582199.0,0.0
-2.352145,-10.564312,-0.392423,19.879999,-6.79,58.66,1729419582201.0,0.0
-2.0004,-9.966106,0.387637,66.360001,-15.4,66.709999,1729419582209.0,0.0
-3.002992,-10.140782,0.650848,79.099998,-17.99,67.690002,1729419582224.0,0.0
-4.144369,-11.085947,-0.533599,56.630001,-21.77,62.299999,1729419582245.0,0.0
-5.075177,-12.610175,-3.326023,4.55,-25.9,45.150002,1729419582265.0,0.0
-5.941379,-13.974084,-4.582255,-30.17,-17.639999,15.96,1729419582283.0,0.0
-6.113662,-12.894921,-4.165904,-17.15,0.35,-7.14,1729419582304.0,0.0
-5.888737,-11.760723,-2.519642,11.34,19.809999,-24.92,1729419582325.0,0.0
-5.871986,-10.222138,-1.105484,-7.91,30.59,-56.91,1729419582345.0,0.0
-5.024928,-7.958528,-1.825724,-25.27,30.030001,-75.040001,1729419582363.0,0.0
-3.811767,-6.470192,-1.497907,-29.68,27.790001,-71.260002,1729419582384.0,0.0
-2.069792,-7.314859,0.51685,-25.200001,16.940001,-63.84,1729419582405.0,0.0
-0.574277,-6.958328,4.639683,-20.02,17.43,-46.759998,1729419582424.0,0.0
0.653241,-6.096912,4.800002,-1.82,9.17,-19.530001,1729419582446.0,0.0
-0.325424,-8.405986,2.840281,-1.61,-15.05,26.18,1729419582464.0,0.0
-1.986043,-9.676575,0.921237,0.84,-10.15,31.92,1729419582483.0,0.0
-2.660819,-9.437292,0.468993,31.290001,-7.91,41.580002,1729419582507.0,0.0
-2.053042,-9.224331,-0.811167,61.25,-18.059999,52.150002,1729419582523.0,0.0
-2.050649,-9.566505,-1.11027,77.07,-19.25,59.43,1729419582545.0,0.0
-3.677768,-10.023535,-1.282553,72.940002,-11.48,67.690002,1729419582564.0,0.0
-5.927022,-12.921242,-2.139183,23.66,-0.14,51.450001,1729419582583.0,0.0
-6.903293,-13.057633,-3.627519,-51.52,0.28,-0.42,1729419582604.0,0.0
-6.238089,-13.021741,-3.869194,-35.91,6.93,-21.84,1729419582626.0,0.0
-5.668597,-11.547763,-2.402394,13.65,29.75,-28.42,1729419582646.0,0.0
-6.144768,-8.73141,-0.79681,10.36,55.23,-54.040001,1729419582664.0,0.0
-5.268995,-6.460621,0.425922,1.26,38.709999,-63.0,1729419582685.0,0.0
-2.880959,-7.439285,0.162712,-6.37,10.08,-51.52,1729419582704.0,0.0
-1.447658,-8.145168,3.974478,-23.59,0.28,-51.029999,1729419582725.0,0.0
-0.693919,-6.479764,5.209175,10.99,7.7,-34.860001,1729419582745.0,0.0
-0.698704,-3.948158,4.259224,35.98,10.57,2.38,1729419582763.0,0.0
-1.916651,-6.226124,2.624927,2.45,-2.24,35.209999,1729419582785.0,0.0
-3.802195,-10.817951,0.114855,-97.860001,-21.42,47.459999,1729419582805.0,0.0
-3.519842,-12.177074,-2.622534,-73.150002,-40.459999,42.07,1729419582823.0,0.0
-2.340181,-11.31805,-1.883151,37.240002,-27.23,67.480003,1729419582846.0,0.0
-3.239882,-10.085747,-0.698704,107.730003,-6.58,71.400002,1729419582864.0,0.0
-5.608776,-9.824929,-0.318245,93.169998,6.09,61.599998,1729419582885.0,0.0
-7.121039,-11.392227,-0.842274,14.42,4.41,38.220001,1729419582905.0,0.0
-6.628119,-12.835101,-2.467,-61.18,-17.290001,-3.5,1729419582925.0,0.0
-5.125426,-13.203594,-3.862016,-55.580002,-15.33,-40.110001,1729419582944.0,0.0
-4.529613,-11.045268,-2.409572,1.54,19.110001,-55.720001,1729419582964.0,0.0
-5.438886,-9.162118,-0.447458,18.76,51.450001,-64.470001,1729419582985.0,0.0
-5.194818,-7.623533,0.062213,-14.7,36.68,-79.660004,1729419583005.0,0.0
-2.959922,-8.056634,0.234497,-38.57,-1.89,-78.610001,1729419583023.0,0.0
-0.849452,-8.489735,1.799403,-28.84,-6.37,-67.199997,1729419583046.0,0.0
0.586242,-7.37468,3.404987,25.059999,9.73,-49.07,1729419583063.0,0.0
-0.0335,-5.13739,4.235296,50.68,21.07,-18.76,1729419583084.0,0.0
-0.622134,-3.972085,3.414558,21.07,13.02,5.74,1729419583104.0,0.0
-2.294717,-7.987241,0.847059,-43.68,-6.51,45.709999,1729419583124.0,0.0
-3.156133,-10.016356,-1.416551,-96.529999,-25.549999,44.799999,1729419583144.0,0.0
-3.388237,-11.32523,-1.993221,-52.080002,-32.689999,55.02,1729419583165.0,0.0
-2.904887,-10.58824,-1.837688,20.370001,-34.93,60.549999,1729419583185.0,0.0
-3.574877,-9.233903,-0.801596,76.440002,-22.82,67.480003,1729419583203.0,0.0
-4.905287,-8.906086,-0.12682,76.440002,-16.24,63.139999,1729419583223.0,0.0
-5.881558,-9.736395,-0.782453,25.969999,-15.61,48.02,1729419583245.0,0.0
-6.283553,-10.578669,-1.414158,-32.130001,-18.83,29.68,1729419583265.0,0.0
-6.02752,-11.724831,-1.787439,-43.049999,-17.15,13.65,1729419583284.0,0.0
-5.493921,-12.27518,-2.467,-17.219999,-7.14,-4.97,1729419583304.0,0.0
-5.314459,-11.308479,-1.694118,8.54,10.78,-19.040001,1729419583324.0,0.0
-5.371887,-10.121639,-1.713261,-2.52,28.91,-40.670002,1729419583356.0,0.0
-5.639884,-9.449257,-1.61037,-41.580002,30.799999,-65.379997,1729419583365.0,0.0
-4.524827,-7.793423,-1.636691,-49.77,14.21,-77.07,1729419583383.0,0.0
-2.455036,-8.472985,-0.866202,-16.66,6.79,-64.120003,1729419583405.0,0.0
-1.744368,-8.614161,1.619941,-8.54,10.15,-58.099998,1729419583425.0,0.0
-1.90708,-8.444271,2.648855,4.13,17.5,-44.939999,1729419583444.0,0.0
-1.909473,-7.264609,1.524228,-20.440001,2.45,-20.719999,1729419583464.0,0.0
-1.631905,-8.032705,0.476172,-51.73,0.28,-11.34,1729419583482.0,0.0
-2.163112,-9.659825,0.428315,-38.849998,5.6,1.33,1729419583506.0,0.0
-2.656033,-9.908678,0.4666,4.13,9.59,10.43,1729419583523.0,0.0
-2.708675,-8.293523,0.866202,39.689999,14.21,19.530001,1729419583544.0,0.0
-2.598605,-7.539784,1.174876,43.959999,6.79,28.98,1729419583563.0,0.0
-3.096312,-8.269595,1.225125,26.880001,-3.78,34.09,1729419583583.0,0.0
-3.211168,-8.537591,-0.217747,31.219999,-9.94,37.869999,1729419583604.0,0.0
-2.756532,-8.982656,-0.531207,69.93,-17.780001,52.639999,1729419583623.0,0.0
-3.041277,-9.927821,-0.433101,92.68,-20.790001,58.240002,1729419583646.0,0.0
-4.618148,-10.569098,0.863809,78.400002,-18.549999,52.290001,1729419583663.0,0.0
-5.919843,-12.624532,-0.803988,24.85,-18.549999,35.77,1729419583683.0,0.0
-5.687739,-12.102897,-3.029313,-42.0,-20.790001,0.91,1729419583705.0,0.0
-4.974678,-12.100503,-4.673182,-45.779999,-10.57,-13.86,1729419583724.0,0.0
-5.132604,-12.99542,-4.541577,-7.35,10.15,-27.790001,1729419583745.0,0.0
-6.281159,-12.251251,-3.661019,3.22,40.950001,-55.580002,1729419583763.0,0.0
-5.627919,-7.805387,-1.301696,-7.84,55.16,-81.900002,1729419583784.0,0.0
-3.907479,-6.015556,-0.26321,-34.720001,28.210001,-77.349998,1729419583804.0,0.0
-1.658226,-8.216952,5.589634,-30.1,-3.22,-71.889999,1729419583824.0,0.0
0.215354,-8.178668,4.74736,-2.03,-3.78,-56.139999,1729419583844.0,0.0
-0.713061,-5.328816,4.421937,42.420002,16.309999,-33.599998,1729419583863.0,0.0
-1.512264,-1.883151,3.661019,48.09,17.639999,-3.71,1729419583885.0,0.0
-1.366302,-3.175276,3.900301,26.040001,-8.96,51.799999,1729419583904.0,0.0
-1.952543,-7.802995,2.136791,-34.790001,-29.26,86.309998,1729419583924.0,0.0
-3.146562,-11.964113,-0.385244,-52.360001,-40.110001,77.629997,1729419583946.0,0.0
-3.737589,-13.485948,-1.395016,34.580002,-37.799999,82.18,1729419583963.0,0.0
-4.524827,-11.332408,-0.964308,103.809998,-8.75,84.699997,1729419583983.0,0.0
-6.106483,-11.492726,-1.756332,83.93,-0.14,71.82,1729419584005.0,0.0
-7.783852,-13.840086,-2.155933,-16.309999,-2.59,27.440001,1729419584024.0,0.0
-7.250252,-13.631909,-4.354938,-79.239998,-15.4,-27.02,1729419584044.0,0.0
-5.290531,-12.253645,-4.508078,-30.59,3.15,-51.240002,1729419584063.0,0.0
-5.134997,-10.226924,-1.61037,23.309999,41.369999,-59.150002,1729419584084.0,0.0
-5.546563,-7.207181,0.277567,-8.82,56.490002,-78.470001,1729419584104.0,0.0
-2.175076,-6.546762,0.830309,-44.52,20.58,-73.57,1729419584125.0,0.0
0.471386,-9.102298,4.608576,-46.970001,-21.42,-53.34,1729419584143.0,0.0
1.210768,-8.221739,4.156333,16.52,-0.91,-38.57,1729419584164.0,0.0
-1.354338,-5.099105,3.352344,51.869999,28.559999,-4.48,1729419584185.0,0.0
-2.823531,-3.292524,2.301895,13.02,24.360001,18.620001,1729419584205.0,0.0
-3.081956,-6.518049,1.832902,-56.209999,-4.62,49.91,1729419584225.0,0.0
-3.323631,-11.609976,0.418744,-99.610001,-29.120001,51.869999,1729419584244.0,0.0
-2.871387,-11.739187,-1.507478,-41.860001,-32.060001,50.540001,1729419584263.0,0.0
-3.76391,-10.339387,-0.928415,42.560001,0.07,68.669998,1729419584282.0,0.0
-4.577469,-9.336794,-0.40678,65.660004,-5.32,62.650002,1729419584303.0,0.0
-5.240282,-9.607183,0.392423,46.689999,-20.860001,55.510002,1729419584322.0,0.0
-5.168497,-9.504292,0.021535,30.799999,-33.32,46.619999,1729419584344.0,0.0
-5.173282,-10.057034,-0.643669,11.06,-28.210001,32.970001,1729419584365.0,0.0
-5.76431,-10.444671,-1.811367,-30.52,-18.48,9.87,1729419584382.0,0.0
-5.635098,-10.849058,-2.462214,-56.349998,-13.02,-12.18,1729419584405.0,0.0
-4.546363,-10.547562,-1.823331,-25.27,-6.44,-12.53,1729419584423.0,0.0
-5.288138,-11.767902,-1.256232,-1.19,17.360001,-18.969999,1729419584443.0,0.0
-6.862615,-10.205389,-2.926422,-53.619999,42.07,-66.919998,1729419584462.0,0.0
-5.742774,-8.341379,-1.751546,-50.470001,39.549999,-75.18,1729419584483.0,0.0
-3.381058,-8.626125,-1.28016,-1.61,29.960001,-48.790001,1729419584507.0,0.0
-2.002793,-8.865408,0.66999,28.280001,26.6,-46.41,1729419584523.0,0.0
-1.878366,-8.817552,2.316252,48.650002,36.259998,-46.759998,1729419584544.0,0.0
-2.206182,-6.946364,2.194218,39.200001,39.41,-40.459999,1729419584564.0,0.0
-1.916651,-5.513064,2.127219,16.59,27.51,-29.75,1729419584584.0,0.0
-1.100698,-6.252446,2.249253,10.43,2.73,0.7,1729419584604.0,0.0
-1.069592,-7.274181,2.474179,19.879999,-1.68,22.75,1729419584624.0,0.0
-2.333002,-7.872386,2.459821,26.18,3.36,38.009998,1729419584646.0,0.0
-3.165704,-8.315059,2.380858,23.799999,-6.3,48.299999,1729419584664.0,0.0
-3.725625,-10.681561,0.866202,-0.56,-29.469999,58.310001,1729419584683.0,0.0
-4.189832,-13.194024,-1.201197,-18.129999,-53.830002,43.400002,1729419584703.0,0.0
-4.931608,-13.75873,-2.321038,1.54,-39.34,29.75,1729419584723.0,0.0
-5.228317,-13.07199,-4.204189,12.6,-7.42,3.01,1729419584745.0,0.0
-5.496314,-12.480963,-3.227918,11.48,17.08,-25.9,1729419584763.0,0.0
-6.245267,-11.877973,-2.438286,7.84,33.599998,-46.34,1729419584782.0,0.0
-6.228518,-8.973085,-1.892723,-12.53,34.369999,-93.029999,1729419584803.0,0.0
-3.833302,-7.063612,-0.981057,38.360001,14.49,-81.690002,1729419584824.0,0.0
-1.765903,-6.494121,0.954736,60.900002,11.83,-70.910004,1729419584845.0,0.0
-0.311067,-3.919443,3.9338,53.970001,18.34,-56.420002,1729419584864.0,0.0
-0.019143,-3.125026,5.972485,44.73,19.879999,-7.84,1729419584882.0,0.0
-0.734596,-3.981657,4.582255,-18.48,-5.11,21.280001,1729419584903.0,0.0
-2.545963,-5.919843,2.481357,-84.629997,-10.5,38.43,1729419584925.0,0.0
-3.608376,-9.140583,0.715454,-92.190002,-23.52,55.439999,1729419584943.0,0.0
-3.407379,-11.782259,-0.772882,-57.959999,-42.139999,61.32,1729419584964.0,0.0
-2.756532,-11.23191,-0.775275,23.73,-35.77,70.629997,1729419584982.0,0.0
