acc_x,acc_y,acc_z,gyr_x,gyr_y,gyr_z,timestamp,label
0.849452,-7.106683,-7.872386,67.900002,76.230003,-35.420002,1729430710709.0,0.0
1.68694,-6.716653,-8.23131,73.360001,68.879997,-43.330002,1729430710713.0,0.0
2.129612,-6.628119,-8.255238,65.870003,71.050003,-48.509998,1729430710714.0,0.0
1.978864,-6.206983,-7.475177,57.049999,82.389999,-50.049999,1729430710722.0,0.0
1.674976,-5.977271,-6.305088,57.959999,83.580002,-50.82,1729430710723.0,0.0
1.217947,-5.515456,-5.099105,45.290001,79.309998,-49.98,1729430710742.0,0.0
0.885344,-5.036892,-4.98425,20.51,66.290001,-48.439999,1729430710763.0,0.0
0.835095,-5.13739,-6.489335,-18.48,46.130001,-44.52,1729430710782.0,0.0
0.993021,-5.173282,-6.809973,-62.510002,33.880001,-36.119999,1729430710802.0,0.0
0.413958,-5.998806,-6.218946,-78.82,36.189999,-28.0,1729430710825.0,0.0
0.062213,-5.919843,-5.879165,-51.450001,32.830002,-27.65,1729430710842.0,0.0
0.102891,-5.517848,-5.702096,-6.65,16.379999,-25.129999,1729430710862.0,0.0
-0.088534,-5.374279,-5.161318,17.01,2.52,-15.75,1729430710882.0,0.0
-0.72024,-6.104091,-6.855437,22.889999,-11.83,-10.99,1729430710902.0,0.0
-2.048256,-6.343372,-7.068398,-7.7,-14.42,-13.79,1729430710928.0,0.0
-2.392823,-7.149754,-6.556334,-33.32,-14.35,-13.02,1729430710942.0,0.0
-1.978864,-7.532606,-6.45105,-35.700001,-29.4,-8.54,1729430710962.0,0.0
-1.76351,-6.716653,-6.573084,-25.200001,-25.059999,-7.49,1729430710982.0,0.0
-1.658226,-6.415157,-7.360322,-16.309999,-22.26,-7.07,1729430711002.0,0.0
-1.426122,-6.745367,-7.470392,-16.66,-29.960001,-2.03,1729430711022.0,0.0
-0.78006,-6.812366,-7.116255,-11.34,-29.049999,-2.94,1729430711042.0,0.0
-0.205783,-6.362515,-7.159326,2.52,-31.01,-3.22,1729430711073.0,0.0
-0.275175,-5.960521,-7.944171,-0.56,-32.130001,-2.24,1729430711082.0,0.0
-0.409173,-5.453243,-8.365308,-38.43,-26.460001,-2.8,1729430711103.0,0.0
-0.136391,-6.108876,-8.542377,-72.309998,-25.620001,-2.87,1729430711122.0,0.0
0.112463,-6.707082,-8.616554,-66.290001,-24.99,-3.36,1729430711142.0,0.0
-0.222532,-7.195218,-8.274381,-26.74,-18.620001,-7.63,1729430711162.0,0.0
-1.129412,-7.262216,-7.420143,-0.49,-11.41,-13.65,1729430711182.0,0.0
-1.172483,-6.759724,-7.326823,-2.1,-12.25,-19.25,1729430711201.0,0.0
-0.672383,-5.733203,-8.288737,-15.47,-20.02,-17.360001,1729430711224.0,0.0
-0.502493,-5.491528,-9.454042,-7.98,-20.93,-12.46,1729430711242.0,0.0
-0.428315,-4.699504,-8.872586,11.76,-11.48,-5.81,1729430711263.0,0.0
-0.361316,-5.039285,-8.599805,-0.14,-6.72,-1.61,1729430711283.0,0.0
-0.318245,-6.128019,-8.319844,-8.82,-11.13,3.15,1729430711303.0,0.0
-0.179462,-6.508478,-7.568498,-11.97,-9.59,-1.75,1729430711324.0,0.0
-0.136391,-5.982057,-7.240681,-15.190001,-10.22,-6.58,1729430711342.0,0.0
-0.064606,-5.522634,-7.89153,-16.52,-14.84,-7.42,1729430711367.0,0.0
-0.177069,-5.314459,-8.623734,-17.5,-16.52,-4.62,1729430711383.0,0.0
-0.416351,-5.252246,-8.650054,-22.610001,-11.76,-2.17,1729430711401.0,0.0
-0.655633,-5.728417,-8.779266,-19.67,-8.4,-0.42,1729430711423.0,0.0
-0.665205,-5.855237,-8.118847,-1.47,-6.02,-0.42,1729430711442.0,0.0
-0.916451,-5.647062,-7.556533,14.28,-5.04,-3.29,1729430711463.0,0.0
-1.301696,-5.615955,-7.381857,11.27,-6.16,-4.13,1729430711484.0,0.0
-1.801795,-5.694918,-7.661818,3.36,-9.73,-4.69,1729430711503.0,0.0
-2.105684,-5.67099,-8.157133,5.04,-16.52,-3.01,1729430711522.0,0.0
-2.323431,-5.802595,-7.9681,-1.12,-16.870001,-1.75,1729430711543.0,0.0
-2.404787,-6.082555,-7.987241,-10.36,-16.24,-1.54,1729430711563.0,0.0
-2.691926,-6.324231,-8.013563,-10.85,-17.5,-1.4,1729430711583.0,0.0
-2.988636,-6.171089,-7.793423,-6.23,-12.25,-5.18,1729430711602.0,0.0
-3.127419,-5.577669,-8.267202,-0.07,-11.97,-9.17,1729430711623.0,0.0
-2.684747,-4.677969,-8.68116,3.01,-16.24,-9.45,1729430711642.0,0.0
-2.388037,-4.180261,-8.659625,-14.28,-15.61,-8.19,1729430711662.0,0.0
-2.589034,-3.9673,-8.848659,-51.66,-9.66,-8.96,1729430711681.0,0.0
-2.237289,-4.048656,-8.609376,-81.269997,-3.71,-4.2,1729430711702.0,0.0
-1.744368,-5.462814,-10.504492,-68.879997,-3.01,3.29,1729430711731.0,0.0
-1.57687,-4.481757,-11.100305,-24.08,5.32,4.62,1729430711743.0,0.0
-2.086541,-3.830909,-9.827322,-0.77,17.639999,7.63,1729430711762.0,0.0
-2.213361,-3.644269,-9.968499,-0.56,21.98,8.33,1729430711782.0,0.0
-2.072184,-3.218346,-10.066606,5.39,24.639999,11.34,1729430711802.0,0.0
-1.770689,-2.189433,-8.362915,-8.33,21.35,12.81,1729430711824.0,0.0
-2.423929,-5.812167,1.969293,-90.93,16.450001,11.2,1729430711842.0,0.0
-2.419144,-7.915457,-7.202396,-127.470001,-46.619999,6.86,1729430711862.0,0.0
-1.79701,-7.211967,-10.346564,5.32,-48.23,-18.129999,1729430711882.0,0.0
-0.748954,-5.338387,-11.107484,9.66,-41.650002,-20.23,1729430711902.0,0.0
1.191626,-4.718646,-9.166903,-8.96,-27.440001,-36.330002,1729430711923.0,0.0
1.646262,-7.456036,-8.097312,22.82,-35.420002,-35.490002,1729430711943.0,0.0
1.919044,-6.563512,-8.590233,48.09,-30.66,-55.580002,1729430711963.0,0.0
3.046063,-2.007578,-6.242875,90.230003,-40.529999,-58.799999,1729430711982.0,0.0
2.557927,-0.684347,-6.501299,63.84,-48.790001,-50.470001,1729430712004.0,0.0
0.155533,1.682154,-9.169296,-19.879999,-42.91,-32.27,1729430712027.0,0.0
0.952343,0.241675,-6.903293,-33.880001,-47.32,-4.76,1729430712043.0,0.0
2.088934,-0.229711,-5.76431,-39.830002,-68.809998,11.9,1729430712064.0,0.0
0.904487,-2.830709,-12.648461,-84.419998,-80.849998,24.5,1729430712084.0,0.0
-1.689333,-5.639884,-12.909278,-185.710007,-56.98,31.360001,1729430712104.0,0.0
-5.781059,-7.489535,-6.79083,-75.599998,-28.139999,36.400002,1729430712125.0,0.0
-4.960321,-5.187639,-14.931213,-40.389999,-32.830002,36.75,1729430712144.0,0.0
-2.732604,-6.783652,-13.58166,-45.639999,-20.719999,20.370001,1729430712163.0,0.0
-3.754339,-6.848258,-9.659825,-1.96,3.08,12.74,1729430712184.0,0.0
-2.388037,-7.781459,-11.691331,13.51,5.74,-16.870001,1729430712206.0,0.0
-0.746561,-8.106883,-7.65464,25.620001,9.66,-30.309999,1729430712224.0,0.0
-0.820738,-2.684747,-4.039084,72.590004,0.56,-37.029999,1729430712244.0,0.0
-0.854238,-5.015356,-6.905686,59.920002,-23.030001,-45.220001,1729430712264.0,0.0
-0.413958,-3.041277,-8.700303,34.369999,-32.41,-45.43,1729430712283.0,0.0
-0.545564,-1.012164,-9.870394,-12.39,-28.700001,-40.880001,1729430712304.0,0.0
0.244068,1.375873,-10.286745,-12.25,-22.75,-23.450001,1729430712334.0,0.0
0.129212,2.770889,-7.755138,46.130001,-26.809999,19.32,1729430712343.0,0.0
-0.229711,0.684347,-11.700903,-8.75,-35.560001,37.799999,1729430712366.0,0.0
-1.758725,-3.323631,-14.854643,-88.620003,-22.75,49.77,1729430712383.0,0.0
-5.426922,-1.801795,-9.482756,2.66,-0.84,66.150002,1729430712404.0,0.0
-7.41775,-2.218147,-10.009177,-11.69,7.49,62.299999,1729430712424.0,0.0
-5.13739,-7.243074,-12.722638,-70.629997,23.870001,49.420002,1729430712447.0,0.0
-6.376873,-6.668797,-9.267403,0.77,28.0,44.029999,1729430712463.0,0.0
-5.106283,-7.317252,-10.552348,15.61,31.99,17.99,1729430712483.0,0.0
-4.146761,-6.922436,-8.130811,-6.09,35.420002,-3.01,1729430712505.0,0.0
-2.376073,-5.785845,-6.041877,62.23,32.759998,-25.690001,1729430712524.0,0.0
-2.088934,-2.830709,-5.922236,81.129997,1.96,-21.0,1729430712544.0,0.0
-1.813759,-4.503292,-8.001599,38.080002,-0.49,-35.77,1729430712565.0,0.0
-0.476172,-0.756132,-9.815358,26.67,-12.18,-28.07,1729430712582.0,0.0
-0.071785,1.09352,-8.513663,31.08,-5.25,-10.64,1729430712604.0,0.0
0.153141,1.725225,-7.987241,29.68,-7.49,15.89,1729430712625.0,0.0
-1.694118,3.249453,-5.458029,-7.7,-16.24,35.209999,1729430712643.0,0.0
-0.72024,-1.014557,-12.203396,-78.82,-38.290001,45.150002,1729430712663.0,0.0
-2.141576,-3.816552,-13.052847,-118.860001,-26.18,45.779999,1729430712684.0,0.0
-6.087341,-3.744767,-9.351151,-12.46,1.54,55.93,1729430712703.0,0.0
-7.097112,-4.938786,-9.872787,-49.209999,6.51,51.099998,1729430712724.0,0.0
-5.563312,-7.314859,-11.018949,-39.200001,20.02,28.91,1729430712809.0,0.0
-5.900701,-6.80758,-11.310873,5.6,20.16,25.27,1729430712810.0,0.0
-5.099105,-6.379266,-9.394222,13.23,30.450001,4.27,1729430712811.0,0.0
-4.09412,-8.015956,-8.142776,12.95,27.299999,-6.37,1729430712814.0,0.0
-3.491128,-5.441278,-5.685347,80.080002,19.32,-21.91,1729430712826.0,0.0
-2.136791,-5.891129,-9.209974,78.68,1.89,-28.630001,1729430712843.0,0.0
-0.806381,-2.790031,-8.965906,42.91,0.63,-38.779999,1729430712864.0,0.0
-0.004786,0.349352,-8.068598,78.540001,5.95,-26.32,1729430712883.0,0.0
0.339781,2.95035,-7.475177,87.57,4.83,-1.54,1729430712904.0,0.0
-0.069392,3.448057,-5.733203,27.860001,-5.25,15.68,1729430712925.0,0.0
-1.998007,2.871387,-5.809773,-27.440001,-30.73,45.009998,1729430712943.0,0.0
0.122034,-3.125026,-15.931413,-125.720001,-46.619999,40.950001,1729430712963.0,0.0
-3.182454,-3.838088,-14.644074,-112.349998,-23.24,49.349998,1729430712983.0,0.0
-7.850852,-1.892723,-10.231709,-54.810001,4.48,44.099998,1729430713003.0,0.0
-5.642276,-7.106683,-13.050454,-80.220001,13.58,34.369999,1729430713025.0,0.0
-6.168696,-7.042077,-9.611969,-12.53,27.16,24.01,1729430713043.0,0.0
-5.417351,-7.415358,-10.944772,-12.53,28.49,3.5,1729430713063.0,0.0
-4.386044,-6.62094,-9.45165,2.1,30.59,-13.93,1729430713083.0,0.0
-4.125226,-8.367701,-9.166903,43.540001,34.16,-27.23,1729430713104.0,0.0
-3.84048,-3.270989,-3.972085,92.470001,23.450001,-38.849998,1729430713124.0,0.0
-3.45045,-6.963113,-7.587641,88.690002,0.49,-38.849998,1729430713143.0,0.0
-2.486143,-4.481757,-8.662018,54.389999,4.9,-57.049999,1729430713164.0,0.0
-0.674776,-0.212961,-8.248059,59.990002,-4.13,-42.07,1729430713182.0,0.0
-0.038285,3.433701,-7.913064,5.67,-1.96,-18.83,1729430713203.0,0.0
1.012164,2.256432,-7.111469,47.32,-15.96,21.07,1729430713224.0,0.0
0.260818,-1.603191,-8.355737,4.97,-32.759998,29.610001,1729430713244.0,0.0
-0.76331,-1.988436,-14.744574,-98.629997,-31.360001,27.51,1729430713264.0,0.0
-5.15414,-5.95095,-12.942777,-109.760002,-8.19,40.110001,1729430713284.0,0.0
-7.673782,-4.082155,-9.635897,-67.620003,2.38,19.879999,1729430713303.0,0.0
-4.888536,-7.149754,-12.576675,-84.279999,13.58,14.7,1729430713334.0,0.0
-6.02752,-7.726424,-10.461421,-7.21,24.99,10.15,1729430713343.0,0.0
-5.051248,-6.814759,-9.24826,38.709999,27.299999,-5.32,1729430713366.0,0.0
-3.790231,-6.580262,-10.004392,25.34,33.810001,-23.309999,1729430713383.0,0.0
-3.421736,-5.565705,-6.12084,44.029999,33.670002,-31.99,1729430713403.0,0.0
-3.584448,-3.342773,-3.208775,86.660004,12.95,-37.59,1729430713424.0,0.0
-3.053242,-5.821737,-7.869993,73.080002,-2.59,-43.470001,1729430713444.0,0.0
-2.287539,-2.57707,-7.752745,62.580002,-7.84,-40.599998,1729430713463.0,0.0
-1.344766,0.090927,-8.927622,34.650002,-6.58,-29.190001,1729430713482.0,0.0
-0.445065,2.318645,-7.9346,25.83,-2.66,-8.61,1729430713502.0,0.0
1.768296,1.514657,-7.073184,30.52,-17.710001,27.58,1729430713524.0,0.0
1.596013,-1.227518,-13.574483,-74.550003,-40.599998,36.330002,1729430713543.0,0.0
-2.440679,-3.285345,-12.655639,-114.239998,-19.809999,38.779999,1729430713564.0,0.0
-7.73121,-4.804788,-10.528419,-96.459999,1.47,33.599998,1729430713584.0,0.0
-6.125626,-7.597212,-11.557333,-102.690002,8.47,36.330002,1729430713602.0,0.0
-5.915058,-7.781459,-9.942179,-22.190001,23.66,26.25,1729430713623.0,0.0
-6.065805,-7.322037,-8.398808,23.309999,22.4,9.03,1729430713643.0,0.0
-4.479364,-7.195218,-11.255837,8.61,25.27,-6.44,1729430713663.0,0.0
-3.622734,-7.467999,-9.322437,33.740002,32.689999,-20.719999,1729430713682.0,0.0
-3.201597,-3.921836,-3.622734,82.669998,29.049999,-27.860001,1729430713703.0,0.0
-2.959922,-5.898308,-5.864808,54.599998,0.21,-22.049999,1729430713725.0,0.0
-2.754139,-4.828716,-8.157133,73.779999,4.76,-36.889999,1729430713743.0,0.0
-1.682154,-0.803988,-7.987241,78.82,-8.47,-20.23,1729430713770.0,0.0
-0.315853,-1.442872,-9.164511,22.610001,-0.98,-16.450001,1729430713782.0,0.0
1.167697,2.825923,-6.125626,39.060001,-9.73,-3.57,1729430713804.0,0.0
1.550549,1.631905,-6.774081,2.03,-28.700001,20.65,1729430713825.0,0.0
-0.940379,-6.025128,-12.894921,-102.550003,-43.959999,20.58,1729430713843.0,0.0
-4.890929,-5.793024,-11.619547,-80.080002,-9.94,26.74,1729430713863.0,0.0
-6.132804,-3.058028,-11.92822,-93.870003,1.26,16.309999,1729430713883.0,0.0
-4.788038,-5.905487,-10.260423,-36.82,11.69,20.860001,1729430713904.0,0.0
-6.171089,-6.142376,-8.803195,12.67,15.96,24.85,1729430713925.0,0.0
-5.513064,-6.092126,-11.349157,-2.38,19.32,10.57,1729430713944.0,0.0
-4.266403,-7.369894,-10.815558,13.58,30.380001,-2.66,1729430713973.0,0.0
-3.299703,-6.474977,-7.171289,80.010002,34.860001,-14.07,1729430713984.0,0.0
-2.849852,-3.091527,-4.902894,54.110001,17.780001,-24.01,1729430714004.0,0.0
-3.24706,-6.333801,-7.427321,56.279999,8.54,-38.220001,1729430714025.0,0.0
-2.471786,-4.220939,-7.843673,65.379997,-2.31,-36.330002,1729430714044.0,0.0
-1.366302,-1.368695,-8.097312,17.5,1.19,-37.450001,1729430714064.0,0.0
0.071785,-0.397209,-6.994221,63.84,-4.55,-12.74,1729430714083.0,0.0
1.323231,2.98385,-7.702496,50.189999,-12.25,-1.96,1729430714103.0,0.0
-0.244068,0.421137,-4.469792,3.01,-31.08,34.860001,1729430714126.0,0.0
-1.117448,-3.189633,-12.332609,-110.32,-47.040001,31.92,1729430714145.0,0.0
-2.770889,-7.135397,-14.670395,-147.839996,-32.41,42.209999,1729430714165.0,0.0
-7.932207,-4.398008,-10.810772,-69.510002,7.49,37.799999,1729430714185.0,0.0
-5.991628,-5.69731,-10.205389,-97.440002,9.59,17.360001,1729430714204.0,0.0
-5.417351,-7.625926,-8.788837,-45.080002,19.389999,9.66,1729430714226.0,0.0
-6.106483,-6.30748,-8.874979,9.31,16.1,4.06,1729430714246.0,0.0
-4.45065,-7.200003,-9.801002,-16.379999,14.49,-8.4,1729430714265.0,0.0
-4.118048,-8.035098,-9.982857,36.049999,22.75,-21.42,1729430714284.0,0.0
-3.282953,-4.493721,-5.601598,83.090004,20.299999,-31.85,1729430714305.0,0.0
-2.801995,-2.385644,-4.953143,22.190001,1.12,-26.880001,1729430714325.0,0.0
-3.285345,-7.302894,-8.709875,31.5,-6.23,-31.92,1729430714346.0,0.0
-2.421536,-3.510271,-7.970492,105.489998,-13.93,-31.5,1729430714369.0,0.0
-1.459622,-2.165504,-8.920443,-2.66,-11.2,-33.880001,1729430714384.0,0.0
0.251246,-0.138784,-10.191031,13.23,-9.03,-30.17,1729430714404.0,0.0
0.418744,4.512863,-9.425328,43.610001,-5.53,4.48,1729430714426.0,0.0
0.165105,-0.265603,-5.099105,48.09,-14.56,16.940001,1729430714446.0,0.0
-1.174876,-1.899901,-12.59821,-84.279999,-30.59,20.299999,1729430714464.0,0.0
-3.732803,-7.094719,-12.837494,-112.910004,-20.09,29.120001,1729430714490.0,0.0
-7.9681,-5.864808,-10.80838,-59.920002,6.02,26.460001,1729430714506.0,0.0
-4.807181,-4.541577,-11.492726,-98.980003,15.89,4.97,1729430714526.0,0.0
-5.496314,-6.498906,-9.056834,-10.36,23.940001,13.02,1729430714545.0,0.0
-6.357729,-6.58744,-7.735995,11.34,21.280001,11.55,1729430714564.0,0.0
-4.886144,-7.250252,-9.315259,-11.62,22.120001,-7.56,1729430714584.0,0.0
-3.522235,-7.034898,-9.616754,32.759998,23.59,-17.43,1729430714604.0,0.0
-3.656233,-2.194218,-5.070391,80.290001,22.889999,-25.76,1729430714626.0,0.0
-3.055635,-6.58744,-5.046463,25.620001,0.35,-22.190001,1729430714644.0,0.0
-3.414558,-6.628119,-7.063612,67.620003,-3.99,-33.810001,1729430714665.0,0.0
-2.007578,-2.37368,-9.29133,53.48,-16.030001,-41.02,1729430714684.0,0.0
-0.674776,-2.562713,-8.29113,0.7,-8.19,-30.17,1729430714704.0,0.0
-0.875773,1.086342,-8.422735,38.920002,-3.57,-19.32,1729430714727.0,0.0
0.430708,1.036092,-7.456036,45.779999,-8.75,11.9,1729430714744.0,0.0
2.423929,-0.421137,-7.482357,61.880001,-22.120001,14.21,1729430714764.0,0.0
-2.330609,-2.29711,-8.12124,-38.779999,-26.74,23.59,1729430714784.0,0.0
-3.337988,-3.900301,-12.607781,-86.800003,-34.439999,23.379999,1729430714804.0,0.0
-5.659025,-7.001399,-12.677175,-117.110001,-8.12,30.450001,1729430714827.0,0.0
-7.992027,-5.20439,-9.657433,-49.0,8.75,21.91,1729430714845.0,0.0
-5.015356,-6.376873,-10.234102,-82.809998,17.710001,-0.14,1729430714865.0,0.0
-4.479364,-6.525227,-9.607183,-11.41,21.139999,2.66,1729430714884.0,0.0
-5.17089,-5.587241,-9.769895,19.460001,26.530001,-0.14,1729430714904.0,0.0
-3.038885,-5.639884,-9.564112,13.440001,34.439999,-9.1,1729430714925.0,0.0
-4.115655,-3.017349,-5.929415,28.0,28.139999,-8.33,1729430714944.0,0.0
-3.59402,-7.54457,-7.590034,27.790001,17.15,-19.110001,1729430714965.0,0.0
-3.218346,-4.704289,-7.063612,99.68,11.27,-27.16,1729430714984.0,0.0
-2.287539,-3.9338,-8.786445,23.17,6.02,-34.650002,1729430715004.0,0.0
-1.177269,-4.266403,-8.063812,-4.48,10.08,-29.960001,1729430715026.0,0.0
-0.866202,-1.232304,-7.422535,78.889999,4.41,-22.889999,1729430715044.0,0.0
-0.648455,2.624927,-6.766902,27.719999,0.63,-2.03,1729430715065.0,0.0
2.024328,0.294317,-7.501499,26.809999,-19.67,14.0,1729430715084.0,0.0
-0.693919,-0.179462,-6.486942,13.37,-33.25,29.469999,1729430715103.0,0.0
-2.301895,-1.579263,-14.615361,-134.889999,-41.16,27.23,1729430715124.0,0.0
-4.23051,-4.283153,-13.730016,-137.759995,-27.440001,35.139999,1729430715146.0,0.0
-7.482357,-4.019942,-12.933208,-54.25,0.63,40.950001,1729430715164.0,0.0
-4.591826,-4.04387,-12.01197,-87.709999,21.42,27.23,1729430715184.0,0.0
-6.285945,-5.022535,-8.786445,-18.690001,27.790001,28.07,1729430715204.0,0.0
-5.869594,-6.185446,-7.879565,8.61,26.18,17.57,1729430715225.0,0.0
-4.491328,-6.013163,-8.54477,-20.51,25.27,-0.14,1729430715244.0,0.0
-4.283153,-7.716853,-9.755538,8.54,26.110001,-9.38,1729430715265.0,0.0
-3.105884,-7.113862,-7.52782,79.379997,28.210001,-27.09,1729430715285.0,0.0
-2.907279,-0.196211,-4.883751,68.739998,19.25,-28.98,1729430715304.0,0.0
-2.845066,-5.60399,-5.087141,8.89,-2.66,-19.74,1729430715327.0,0.0
-3.084348,-6.999006,-7.41775,32.34,-6.93,-27.370001,1729430715344.0,0.0
-1.488336,-3.428915,-8.4012,35.700001,-16.870001,-40.529999,1729430715369.0,0.0
-1.112662,-1.404587,-6.9679,19.32,-13.79,-32.619999,1729430715384.0,0.0
0.461815,2.069792,-8.618947,26.67,-22.68,-33.040001,1729430715405.0,0.0
1.11027,0.667598,-7.015756,-0.28,-40.32,0.07,1729430715425.0,0.0
-1.708475,-1.655833,-13.265808,-27.860001,-45.849998,-0.7,1729430715444.0,0.0
-3.761517,-4.275974,-12.660425,-79.590004,-29.75,15.26,1729430715464.0,0.0
-7.185646,-2.273181,-8.965906,-21.700001,-10.57,23.940001,1729430715484.0,0.0
-5.300103,-4.579862,-14.629718,-86.730003,1.26,20.23,1729430715504.0,0.0
-3.778267,-3.416951,-12.933208,-33.740002,22.75,23.309999,1729430715525.0,0.0
-5.761917,-3.069991,-9.257831,68.459999,40.32,37.450001,1729430715544.0,0.0
-4.740182,-5.71406,-6.515656,3.57,39.41,24.219999,1729430715566.0,0.0
-3.632305,-7.362715,-12.229716,-8.82,40.599998,5.53,1729430715584.0,0.0
-2.656033,-6.415157,-9.099905,61.810001,45.779999,-12.67,1729430715604.0,0.0
-2.971886,-2.641676,-4.125226,75.25,41.580002,-26.32,1729430715626.0,0.0
-3.479164,-6.752545,-4.048656,18.059999,13.86,-27.860001,1729430715697.0,0.0
-3.471986,-5.338387,-6.386444,49.349998,1.19,-39.759998,1729430715699.0,0.0
-1.916651,-3.062813,-9.145369,18.34,-8.89,-47.950001,1729430715717.0,0.0
-0.557528,-2.610569,-7.429714,30.52,-9.8,-31.780001,1729430715727.0,0.0
0.540778,4.275974,-7.130611,45.43,-12.46,-20.51,1729430715732.0,0.0
1.464408,1.555335,-8.01117,34.369999,-31.15,16.73,1729430715744.0,0.0
-1.222732,0.064606,-7.221539,-7.49,-38.43,33.18,1729430715764.0,0.0
-2.514857,-2.306681,-15.730415,-98.419998,-45.849998,40.459999,1729430715784.0,0.0
-4.859823,-3.129812,-12.878171,-73.57,-16.1,39.48,1729430715804.0,0.0
-5.800202,-4.046263,-14.337792,-71.400002,-0.84,35.630001,1729430715824.0,0.0
-3.194418,-4.852644,-13.37827,-67.970001,27.02,19.25,1729430715844.0,0.0
-5.029713,-3.862016,-10.269995,39.41,37.869999,24.219999,1729430715865.0,0.0
-4.436293,-6.640083,-6.649654,0.28,38.080002,11.2,1729430715883.0,0.0
-3.649055,-7.657032,-10.406385,-24.5,36.119999,-5.74,1729430715904.0,0.0
-3.290131,-6.391229,-9.466006,44.380001,39.200001,-20.93,1729430715925.0,0.0
-3.311667,-3.096312,-5.218746,75.18,36.470001,-29.469999,1729430715945.0,0.0
-3.491128,-6.087341,-3.730411,18.83,11.83,-26.809999,1729430715964.0,0.0
-3.474378,-5.986843,-5.769095,32.689999,2.03,-42.139999,1729430715984.0,0.0
-1.816152,-3.493521,-9.035298,45.779999,-15.33,-46.200001,1729430716004.0,0.0
-0.961915,-2.165504,-7.664211,28.98,-17.15,-36.959999,1729430716027.0,0.0
-0.272782,3.665804,-7.458428,24.5,-20.719999,-29.33,1729430716044.0,0.0
1.162912,1.002593,-9.492328,30.1,-40.599998,-4.48,1729430716064.0,0.0
-1.225125,-0.141177,-7.255038,22.4,-41.790001,14.77,1729430716084.0,0.0
-3.756732,-1.091127,-9.698111,2.66,-46.970001,28.630001,1729430716104.0,0.0
-3.696911,-2.993421,-16.608582,-132.089996,-26.32,35.490002,1729430716124.0,0.0
-5.304887,-2.641676,-13.229917,-30.309999,1.19,38.080002,1729430716144.0,0.0
-4.65404,-4.453043,-11.667403,-40.810001,16.24,31.780001,1729430716164.0,0.0
-3.134598,-6.025128,-11.631511,-42.07,30.66,24.08,1729430716184.0,0.0
-4.441079,-5.419744,-9.832108,43.82,41.16,21.0,1729430716203.0,0.0
-3.818945,-6.563512,-9.946963,-8.33,47.18,4.76,1729430716225.0,0.0
-2.378466,-5.534599,-7.795816,-0.77,49.490002,-11.9,1729430716244.0,0.0
-3.582055,-4.792823,-4.493721,47.810001,33.950001,-17.15,1729430716264.0,0.0
-3.35713,-7.910671,-6.711867,42.91,21.139999,-30.52,1729430716284.0,0.0
-2.120041,-3.591627,-6.795617,81.199997,6.58,-40.18,1729430716303.0,0.0
-1.284946,-1.737189,-7.822137,14.14,-0.63,-45.639999,1729430716324.0,0.0
0.119641,-3.48395,-8.061419,35.560001,-8.19,-30.380001,1729430716355.0,0.0
-0.27996,2.038685,-7.79103,61.18,-9.24,-18.9,1729430716367.0,0.0
0.004786,0.784846,-8.204988,55.02,-20.299999,5.32,1729430716469.0,0.0
-0.399601,-1.024128,-7.948956,50.470001,-28.280001,17.85,1729430716471.0,0.0
-3.213561,-2.562713,-6.151947,36.959999,-38.009998,25.969999,1729430716472.0,0.0
-4.780859,-3.639483,-12.277573,-27.860001,-47.32,23.66,1729430716476.0,0.0
-5.709275,-3.771089,-11.234302,-106.540001,-24.57,30.59,1729430716477.0,0.0
-6.345766,-4.048656,-12.926028,-84.699997,-24.57,35.560001,1729430716482.0,0.0
-4.704289,-6.814759,-11.306087,-89.18,25.200001,31.290001,1729430716505.0,0.0
-4.256832,-6.477371,-10.169496,4.34,36.189999,21.49,1729430716532.0,0.0
-4.041477,-3.443272,-10.858629,34.09,39.130001,5.67,1729430716542.0,0.0
-2.435893,-6.867401,-10.112068,-6.86,49.84,-4.76,1729430716563.0,0.0
-3.964907,-3.988836,-4.62054,53.34,51.310001,-6.86,1729430716583.0,0.0
-3.998406,-6.893722,-5.410172,60.760002,25.27,-12.32,1729430716602.0,0.0
-3.010171,-8.243275,-9.468399,108.639999,22.960001,-25.620001,1729430716623.0,0.0
-2.842674,-6.250053,-9.466006,111.860001,19.67,-25.34,1729430716643.0,0.0
-1.837688,-5.869594,-6.644868,128.869995,22.82,-29.960001,1729430716664.0,0.0
-1.72044,-2.553142,-6.56112,195.160004,19.25,-5.53,1729430716683.0,0.0
-1.138984,-6.013163,-7.424929,258.369995,13.51,10.57,1729430716702.0,0.0
-1.062413,-5.886343,-8.281559,328.860016,13.23,27.65,1729430716723.0,0.0
-0.634098,-6.276374,-7.487142,442.820007,7.07,42.349998,1729430716742.0,0.0
-0.595813,-8.056634,-7.728817,534.380005,-14.7,59.709999,1729430716763.0,0.0
0.189033,-10.059426,-6.374479,565.530029,-37.170002,33.880001,1729430716782.0,0.0
-0.043071,-10.602598,-3.885944,582.330017,5.04,13.93,1729430716802.0,0.0
-1.624727,-10.19821,-0.902094,558.669983,40.459999,5.6,1729430716823.0,0.0
-2.371287,-10.090532,1.48355,526.539978,17.92,-10.5,1729430716842.0,0.0
-1.416551,-9.767502,3.63709,488.670013,-13.93,-29.049999,1729430716863.0,0.0
-0.930808,-8.992228,4.101298,457.589996,2.24,-52.290001,1729430716883.0,0.0
-1.940579,-6.802795,5.240282,424.339996,34.299999,-72.940002,1729430716902.0,0.0
-3.665804,-3.656233,8.025528,341.73999,35.77,-73.849998,1729430716923.0,0.0
-4.819145,-2.964707,9.482756,229.669998,14.56,-55.369999,1729430716943.0,0.0
-4.362115,-3.081956,9.054441,140.839996,-1.12,-57.400002,1729430716963.0,0.0
-4.041477,-2.945565,8.520842,111.090004,0.49,-54.740002,1729430716982.0,0.0
-4.055835,-1.65344,9.489935,105.139999,1.47,-48.299999,1729430717003.0,0.0
-3.632305,-0.397209,8.396415,87.360001,2.8,-25.83,1729430717024.0,0.0
-4.268795,1.85683,5.891129,50.959999,11.41,-4.48,1729430717043.0,0.0
-4.898108,0.12682,6.144768,9.03,15.190001,6.72,1729430717064.0,0.0
-4.297509,-2.880959,5.213961,2.52,6.51,1.47,1729430717082.0,0.0
-2.337788,-1.87358,5.922236,58.59,27.16,0.7,1729430717103.0,0.0
-1.17009,-0.162712,8.88455,64.470001,44.380001,14.14,1729430717123.0,0.0
-1.674976,-1.306481,10.894521,37.869999,45.639999,29.4,1729430717143.0,0.0
-1.962115,-1.816152,11.215159,17.360001,26.74,33.110001,1729430717166.0,0.0
-3.680161,-3.278167,8.504091,-10.85,18.690001,40.599998,1729430717184.0,0.0
-3.931407,-6.769295,8.16431,-37.799999,1.82,46.619999,1729430717202.0,0.0
-4.333402,-10.403993,9.734003,8.33,-0.07,16.940001,1729430717226.0,0.0
-5.168497,-8.590233,12.289536,88.690002,5.88,-16.73,1729430717243.0,0.0
-4.06062,-4.890929,12.875778,84.209999,-0.14,-25.690001,1729430717263.0,0.0
-3.893122,-7.094719,10.444671,-8.33,-36.82,-47.18,1729430717282.0,0.0
-3.615555,-6.290731,8.312666,-20.790001,-37.59,-64.050003,1729430717303.0,0.0
-2.835495,-1.617548,7.685746,23.17,-18.690001,-80.080002,1729430717324.0,0.0
-4.333402,1.734797,9.827322,8.82,-7.63,-48.790001,1729430717346.0,0.0
-1.677369,2.175076,7.599605,-46.970001,-29.4,-56.349998,1729430717370.0,0.0
-0.928415,2.624927,6.317052,-40.670002,-14.91,-24.99,1729430717382.0,0.0
-1.289732,2.909672,6.549156,-6.02,4.76,1.33,1729430717404.0,0.0
-2.414358,0.650848,7.578069,4.62,8.4,7.14,1729430717424.0,0.0
-1.18684,1.828116,6.398407,9.24,18.969999,21.35,1729430717443.0,0.0
0.071785,0.78006,5.828916,-4.27,44.939999,51.59,1729430717462.0,0.0
-2.490928,-3.929015,8.336594,-14.56,56.07,56.700001,1729430717482.0,0.0
-5.419744,-8.176274,9.047262,4.34,40.810001,38.920002,1729430717502.0,0.0
-7.795816,-12.583855,15.56531,86.800003,40.110001,31.57,1729430717526.0,0.0
-5.989235,-7.037291,15.543776,83.019997,26.809999,-20.719999,1729430717543.0,0.0
-4.948357,-3.457629,12.768101,42.490002,-2.03,1.82,1729430717563.0,0.0
-5.053641,-5.458029,10.092925,-8.19,-27.23,-38.990002,1729430717582.0,0.0
-4.673182,-5.668597,7.429714,-28.630001,-45.709999,-58.799999,1729430717603.0,0.0
-1.143769,1.22034,7.228717,31.360001,-3.5,-47.25,1729430717627.0,0.0
-2.292324,3.079563,8.331808,12.25,-5.32,-38.360001,1729430717642.0,0.0
-1.184447,1.107877,6.257231,-69.370003,-37.52,-32.200001,1729430717663.0,0.0
0.512064,0.136391,5.769095,-51.939999,-8.4,-1.89,1729430717682.0,0.0
-0.294317,1.854438,6.216553,-5.04,12.32,2.73,1729430717702.0,0.0
-3.404987,-0.083749,7.453642,0.56,6.65,12.53,1729430717723.0,0.0
-3.376273,1.07677,7.262216,7.35,16.73,33.740002,1729430717742.0,0.0
-2.59382,0.72024,9.243474,22.120001,23.870001,43.68,1729430717763.0,0.0
-5.111069,-6.623333,10.743774,28.98,5.39,35.91,1729430717782.0,0.0
-7.116255,-10.906486,14.830715,57.889999,-8.89,10.01,1729430717802.0,0.0
-6.520442,-7.549356,9.68136,42.0,-11.69,-34.299999,1729430717823.0,0.0
-1.521835,-2.112862,8.539984,37.73,-26.880001,-29.960001,1729430717844.0,0.0
-3.438486,-2.115255,10.813165,71.889999,-12.81,-29.82,1729430717863.0,0.0
-3.342773,-2.79721,10.004392,25.9,-33.529999,-61.25,1729430717882.0,0.0
-0.897308,-0.334995,8.980263,-19.040001,-20.16,-29.469999,1729430717903.0,0.0
-2.471786,-0.557528,8.630912,-43.400002,-27.440001,-35.279999,1729430717924.0,0.0
-0.48335,1.316052,6.159126,-48.650002,-29.120001,-33.950001,1729430717942.0,0.0
-0.346959,1.825724,6.199803,-22.75,-10.36,-3.08,1729430717964.0,0.0
-1.191626,2.184647,6.541977,-24.15,4.55,12.39,1729430717984.0,0.0
-2.416751,0.708275,7.63789,-24.99,4.27,17.639999,1729430718002.0,0.0
-1.579263,1.808974,5.929415,-14.84,25.41,40.040001,1729430718023.0,0.0
-0.547956,2.519642,5.113462,-2.87,45.5,56.279999,1729430718042.0,0.0
-4.053442,-3.223132,4.491328,-5.46,52.849998,69.720001,1729430718062.0,0.0
-7.21436,-8.77448,15.716059,48.16,40.529999,40.32,1729430718083.0,0.0
-9.645468,-8.523234,15.177674,97.93,61.040001,3.78,1729430718102.0,0.0
-4.41715,-4.522435,11.882757,14.14,-10.22,-6.44,1729430718126.0,0.0
-3.725625,-3.440879,12.497713,36.610001,-15.26,-21.35,1729430718143.0,0.0
-3.742374,-3.596412,10.604989,4.48,-35.0,-50.82,1729430718162.0,0.0
-0.849452,0.540778,7.877172,-11.76,-34.860001,-43.189999,1729430718182.0,0.0
-1.488336,1.445265,9.442079,-27.65,-19.040001,-23.870001,1729430718202.0,0.0
-0.89013,0.722632,6.336195,-70.699997,-47.950001,-40.110001,1729430718223.0,0.0
0.028714,1.079163,4.721039,-65.519997,-23.73,-5.46,1729430718243.0,0.0
-0.239282,2.227718,3.862016,-54.599998,-2.8,10.22,1729430718263.0,0.0
-2.493321,-0.957129,5.816952,-48.790001,1.68,18.059999,1729430718284.0,0.0
-2.086541,0.581456,4.642076,-19.74,21.280001,22.540001,1729430718302.0,0.0
-0.789631,3.397808,4.704289,26.110001,58.240002,56.420002,1729430718326.0,0.0
-4.173083,-2.079363,9.269794,25.200001,67.340004,83.090004,1729430718342.0,0.0
-6.180661,-6.539584,11.229517,37.240002,35.0,29.469999,1729430718366.0,0.0
-9.870394,-9.688539,17.91267,119.07,44.869999,14.28,1729430718383.0,0.0
-7.633104,-8.781659,15.203994,21.98,0.07,-26.040001,1729430718403.0,0.0
-2.179861,-4.141976,10.224532,-22.889999,-22.120001,2.1,1729430718426.0,0.0
-3.464807,-2.277967,12.476178,43.610001,-20.719999,-43.959999,1729430718442.0,0.0
-1.864009,-2.277967,9.183653,-19.389999,-43.959999,-50.330002,1729430718461.0,0.0
-1.533799,-0.131605,9.726824,-54.810001,-34.790001,-30.24,1729430718481.0,0.0
-1.471586,-0.607777,6.745367,-63.91,-52.849998,-40.040001,1729430718501.0,0.0
-1.019342,0.562313,5.730811,-44.029999,-31.43,-22.049999,1729430718524.0,0.0
-1.146162,2.416751,4.24726,-39.27,-15.68,-4.34,1729430718541.0,0.0
-2.562713,-0.342174,5.328816,-44.52,-5.46,9.31,1729430718562.0,0.0
-2.096112,-0.136391,3.799802,-30.66,8.96,8.96,1729430718581.0,0.0
-0.404387,2.151148,4.622933,30.59,47.880001,36.259998,1729430718602.0,0.0
-2.151148,1.820938,8.49452,44.869999,71.68,65.029999,1729430718623.0,0.0
-4.828716,-2.165504,6.568298,21.91,72.309998,49.560001,1729430718641.0,0.0
-6.396015,-5.838487,15.337994,82.25,55.720001,49.07,1729430718661.0,0.0
-8.030313,-10.131211,16.022341,9.59,46.060001,-0.91,1729430718682.0,0.0
-5.505885,-9.257831,10.231709,-45.43,-3.36,9.94,1729430718701.0,0.0
-3.893122,-4.216154,11.705689,43.75,10.01,-3.5,1729430718723.0,0.0
-5.673382,-3.541377,12.452249,46.34,-10.08,-47.459999,1729430718742.0,0.0
-3.842873,-3.548556,11.420943,-11.97,-37.170002,-46.970001,1729430718762.0,0.0
-2.002793,0.588634,7.793423,-16.379999,-36.82,-46.27,1729430718783.0,0.0
-1.931008,1.715654,7.590034,-31.92,-31.92,-30.380001,1729430718803.0,0.0
-1.378266,1.244268,5.438886,-57.610001,-34.720001,-19.530001,1729430718824.0,0.0
-0.949951,0.727418,5.106283,-40.459999,-10.85,-3.43,1729430718842.0,0.0
-2.328217,0.055035,6.017949,-19.74,-0.07,8.33,1729430718862.0,0.0
-2.079363,1.332802,4.338188,-2.1,17.92,21.700001,1729430718883.0,0.0
-1.730011,1.710868,5.611169,21.210001,46.759998,44.380001,1729430718902.0,0.0
-3.957729,-1.083949,4.723432,24.219999,56.630001,41.299999,1729430718930.0,0.0
-7.219146,-5.592027,14.849857,84.139999,54.18,46.200001,1729430718944.0,0.0
-10.669596,-9.262616,16.393229,66.43,43.959999,-16.030001,1729430718964.0,0.0
-6.025128,-9.84168,12.77528,-3.71,-18.76,-20.23,1729430718983.0,0.0
-2.096112,-4.548756,11.925828,34.02,-13.02,-25.48,1729430719002.0,0.0
-4.04387,-2.536392,12.641282,54.810001,-22.82,-56.77,1729430719024.0,0.0
-3.448057,-2.081756,11.239087,3.08,-44.59,-59.5,1729430719043.0,0.0
-0.918844,1.325624,7.783852,-28.630001,-44.380001,-50.82,1729430719064.0,0.0
-1.921437,0.622134,8.860621,-47.599998,-42.209999,-34.720001,1729430719083.0,0.0
-1.012164,0.818345,4.847858,-56.84,-51.73,-26.950001,1729430719103.0,0.0
-1.165305,3.105884,3.012564,-44.240002,-9.45,2.31,1729430719123.0,0.0
-3.294917,0.107677,5.161318,-41.93,-0.84,11.55,1729430719143.0,0.0
-2.378466,1.636691,3.716053,-17.08,21.84,24.639999,1729430719165.0,0.0
-1.337588,3.629912,4.185047,27.440001,58.310001,54.110001,1729430719183.0,0.0
-3.665804,-1.088734,5.376673,27.02,65.029999,72.239998,1729430719203.0,0.0
-6.905686,-7.171289,15.448064,45.639999,43.259998,35.07,1729430719225.0,0.0
-10.837094,-8.757731,16.788044,103.389999,66.080002,22.540001,1729430719244.0,0.0
-6.321837,-8.453842,14.22533,12.18,-2.94,-11.13,1729430719264.0,0.0
-2.249253,-5.369494,11.303694,1.26,-12.46,-0.63,1729430719284.0,0.0
-4.555934,-4.130012,12.863814,46.549999,-12.11,-31.43,1729430719307.0,0.0
-4.070191,-3.144169,11.669796,-2.8,-37.799999,-53.34,1729430719325.0,0.0
-1.854438,-0.40678,8.472985,-32.549999,-45.709999,-45.009998,1729430719345.0,0.0
-1.337588,0.851845,7.862815,-42.420002,-35.279999,-30.66,1729430719369.0,0.0
-2.036292,0.827917,5.65424,-44.240002,-46.200001,-35.420002,1729430719384.0,0.0
-1.287339,1.842474,4.744967,-38.849998,-23.870001,-6.86,1729430719405.0,0.0
-1.641476,0.859023,5.278566,-39.970001,-6.72,8.54,1729430719425.0,0.0
-2.811567,-0.526421,5.326423,-37.029999,-0.21,12.39,1729430719445.0,0.0
-1.39023,1.074377,4.041477,-12.04,27.299999,29.469999,1729430719464.0,0.0
-0.591027,2.849852,4.752146,17.780001,54.459999,51.380001,1729430719484.0,0.0
-2.715853,-0.674776,4.244867,23.66,65.239998,71.540001,1729430719504.0,0.0
-5.702096,-5.185246,15.443277,47.880001,50.889999,37.66,1729430719526.0,0.0
-11.74158,-7.788638,15.354744,79.309998,72.660004,42.84,1729430719544.0,0.0
-7.929814,-10.456635,14.715858,5.11,-9.17,-5.95,1729430719564.0,0.0
-3.572484,-6.774081,13.033704,20.790001,-15.75,-3.64,1729430719585.0,0.0
-4.709075,-4.132405,13.96212,48.720001,-20.299999,-30.59,1729430719604.0,0.0
-3.531806,-2.682354,11.720046,-14.21,-51.240002,-59.709999,1729430719625.0,0.0
-2.364109,-0.509671,8.408379,-37.52,-61.459999,-45.849998,1729430719650.0,0.0
-1.318445,0.892523,7.286145,-41.650002,-43.189999,-34.93,1729430719664.0,0.0
-2.029114,0.447458,5.453243,-50.259998,-47.529999,-27.790001,1729430719684.0,0.0
-0.878166,2.691926,3.625126,-53.41,-28.49,-15.61,1729430719704.0,0.0
-2.091327,1.258625,5.065606,-66.150002,1.33,15.26,1729430719725.0,0.0
-3.053242,0.614955,4.883751,-70.0,14.49,28.280001,1729430719744.0,0.0
-1.710868,1.792224,3.242275,-71.260002,39.060001,47.389999,1729430719764.0,0.0
-1.981257,-1.469193,5.099105,-54.18,56.560001,81.129997,1729430719784.0,0.0
-4.783253,-3.084348,7.022934,1.96,62.02,68.949997,1729430719804.0,0.0
-11.050055,-12.074183,18.685551,125.93,47.040001,50.049999,1729430719825.0,0.0
-8.941978,-13.469198,17.508284,80.919998,2.38,-30.030001,1729430719844.0,0.0
-3.945765,-6.139983,12.488142,15.190001,-15.82,3.78,1729430719865.0,0.0
-3.976871,-4.163511,11.612368,20.51,-16.59,-12.11,1729430719884.0,0.0
-4.723432,-3.017349,9.432507,8.89,-39.27,-61.599998,1729430719903.0,0.0
-2.761317,0.445065,6.056234,-5.25,-29.75,-41.16,1729430719925.0,0.0
-1.438086,-0.160319,7.094719,-21.84,-8.4,-26.389999,1729430719944.0,0.0
-1.088734,0.038285,5.769095,-30.73,-23.450001,-34.439999,1729430719965.0,0.0
-1.021735,1.215554,5.931807,-2.8,7.84,-9.1,1729430719984.0,0.0
-1.213161,1.217947,6.338587,-8.68,10.29,-8.68,1729430720004.0,0.0
-2.995814,-1.100698,7.41775,-17.219999,10.43,5.88,1729430720024.0,0.0
-1.552942,1.318445,5.410172,-17.57,28.280001,22.120001,1729430720044.0,0.0
-2.536392,0.29671,5.424529,-31.57,48.299999,56.630001,1729430720064.0,0.0
-4.969893,-1.799403,9.798609,-6.79,44.869999,66.849998,1729430720083.0,0.0
-11.997612,-8.760124,14.110476,61.32,64.959999,56.349998,1729430720103.0,0.0
-7.755138,-12.129218,14.074582,-3.15,-5.18,-16.379999,1729430720124.0,0.0
-4.811966,-8.403593,10.703095,4.2,-10.85,-2.31,1729430720144.0,0.0
-3.948158,-2.787638,9.399008,67.620003,17.219999,-18.690001,1729430720164.0,0.0
-5.228317,-3.996014,9.98525,19.74,-15.190001,-57.889999,1729430720184.0,0.0
-3.486342,-5.032106,7.862815,-34.09,-30.66,-55.369999,1729430720203.0,0.0
-1.069592,-1.548156,7.726424,-3.22,-5.04,-52.009998,1729430720225.0,0.0
-0.940379,0.392423,8.662018,-2.87,-11.13,-47.740002,1729430720245.0,0.0
-1.196411,0.531207,7.546963,-29.120001,-21.139999,-40.529999,1729430720264.0,0.0
-0.337388,0.734596,6.257231,-40.740002,-21.77,-26.460001,1729430720284.0,0.0
-1.395016,-0.038285,7.056434,-18.620001,-9.03,-3.5,1729430720304.0,0.0
-2.775674,0.267996,5.209175,-12.81,-8.47,3.92,1729430720325.0,0.0
-0.696311,3.220739,4.486543,-3.92,9.73,36.259998,1729430720343.0,0.0
-3.512664,-0.679562,9.023334,28.98,33.599998,65.099998,1729430720369.0,0.0
-7.06122,-5.288138,14.031512,23.030001,20.02,34.790001,1729430720383.0,0.0
-10.973484,-10.566705,16.421942,69.019997,8.96,4.76,1729430720403.0,0.0
-7.563712,-9.68136,11.849257,18.969999,-26.18,-2.87,1729430720425.0,0.0
-2.301895,-4.883751,8.367701,2.66,-24.01,-16.030001,1729430720444.0,0.0
-4.661219,-5.079963,10.839487,31.15,-22.75,-35.209999,1729430720463.0,0.0
-4.290331,-4.553542,9.592826,-5.04,-38.5,-68.529999,1729430720485.0,0.0
-2.108077,-2.201397,8.238488,-29.26,-28.700001,-49.139999,1729430720504.0,0.0
-2.59382,-1.481157,8.075776,-45.009998,-26.460001,-40.740002,1729430720526.0,0.0
-1.258625,-0.160319,5.575277,-58.59,-36.68,-50.049999,1729430720545.0,0.0
-0.859023,2.579463,3.854837,-36.119999,-16.450001,-13.51,1729430720564.0,0.0
-3.507878,1.268196,6.300302,-6.02,0.14,7.14,1729430720583.0,0.0
-2.852244,1.811367,5.04407,-10.57,4.9,10.85,1729430720604.0,0.0
-1.45005,1.708475,6.695118,8.05,26.809999,42.279999,1729430720626.0,0.0
-4.065405,-1.543371,12.595818,32.48,31.15,57.540001,1729430720709.0,0.0
-5.79063,-4.553542,11.444871,24.92,7.28,20.299999,1729430720711.0,0.0
-5.592027,-7.587641,16.338192,71.959999,-3.22,43.540001,1729430720712.0,0.0
-5.266603,-7.63789,13.196418,24.08,-31.360001,-23.379999,1729430720713.0,0.0
-1.552942,-5.163712,8.764909,23.24,-33.459999,-23.870001,1729430720725.0,0.0
-4.98425,-4.713861,10.978271,59.010002,-29.610001,-29.469999,1729430720744.0,0.0
-3.534199,-2.251646,9.29133,11.62,-42.700001,-62.580002,1729430720764.0,0.0
-1.014557,0.744168,8.135597,-41.23,-27.58,-30.799999,1729430720784.0,0.0
-0.806381,-1.567299,6.025128,-73.150002,-38.709999,-29.82,1729430720803.0,0.0
0.026321,-0.545564,4.299902,-68.459999,-21.07,-25.620001,1729430720826.0,0.0
-0.954736,2.179861,4.551149,-20.09,2.52,-3.01,1729430720843.0,0.0
-3.079563,1.347159,6.915257,17.290001,13.3,6.37,1729430720864.0,0.0
-1.737189,2.639283,4.790431,3.5,26.809999,27.02,1729430720883.0,0.0
-0.851845,3.665804,6.142376,6.58,48.16,64.190002,1729430720903.0,0.0
-3.998406,-1.277767,6.034698,7.0,47.599998,45.709999,1729430720924.0,0.0
-6.190232,-4.309474,17.094324,45.290001,42.209999,58.310001,1729430720944.0,0.0
-8.80798,-9.363115,14.586647,26.18,39.549999,7.0,1729430720971.0,0.0
-4.546363,-11.41855,11.542977,-48.509998,-16.030001,-15.75,1729430720983.0,0.0
-1.706082,-6.015556,10.327423,12.88,-7.0,-3.85,1729430721003.0,0.0
-3.668197,-3.519842,11.760723,59.639999,-6.79,-23.030001,1729430721027.0,0.0
-2.385644,-3.955336,10.348958,59.639999,-37.170002,-45.57,1729430721044.0,0.0
-1.165305,-1.007378,7.987241,-19.6,-43.259998,-39.619999,1729430721064.0,0.0
-0.098106,0.236889,6.635297,-35.279999,-37.73,-24.639999,1729430721084.0,0.0
-0.131605,1.318445,4.917251,-32.970001,-34.650002,-5.67,1729430721103.0,0.0
-0.792024,1.062413,5.886343,-23.030001,-17.360001,1.19,1729430721124.0,0.0
-2.340181,0.038285,6.869793,-23.52,-14.77,11.48,1729430721144.0,0.0
-1.885544,1.342373,4.436293,-11.9,9.45,34.16,1729430721164.0,0.0
-1.679761,-0.985843,4.019942,-1.75,29.75,46.200001,1729430721184.0,0.0
-2.340181,0.437887,2.957529,36.400002,69.300003,60.619999,1729430721204.0,0.0
-7.15454,-2.9336,14.100904,102.690002,72.940002,73.220001,1729430721227.0,0.0
-9.245867,-9.133404,19.168903,23.799999,32.200001,5.32,1729430721244.0,0.0
-5.611169,-12.619746,15.66581,-33.18,-20.93,-5.74,1729430721265.0,0.0
-1.06002,-7.73121,11.629118,14.84,-14.14,-7.7,1729430721284.0,0.0
-3.627519,-4.331009,11.844472,62.580002,-10.85,-26.74,1729430721304.0,0.0
-3.835695,-3.129812,9.97807,17.710001,-29.75,-62.02,1729430721327.0,0.0
-2.639283,-1.09352,8.310273,-7.98,-35.0,-48.580002,1729430721346.0,0.0
-0.153141,-0.004786,7.274181,-42.560001,-30.52,-46.48,1729430721368.0,0.0
-0.808774,0.449851,6.34098,-50.259998,-30.799999,-24.639999,1729430721386.0,0.0
-0.949951,2.048256,4.965107,-42.630001,-8.54,-19.879999,1729430721405.0,0.0
-3.06042,-0.210568,5.9677,-46.830002,-1.26,9.59,1729430721427.0,0.0
-1.988436,-0.16989,4.280759,-38.709999,11.34,15.47,1729430721446.0,0.0
-1.115055,1.064806,4.713861,8.12,47.18,44.240002,1729430721465.0,0.0
-2.632105,1.284946,3.622734,44.450001,69.230003,44.240002,1729430721485.0,0.0
-5.836094,-1.51705,13.91187,110.040001,74.199997,57.260002,1729430721506.0,0.0
-9.470792,-7.030113,16.297516,74.690002,54.670002,-3.57,1729430721526.0,0.0
-4.608576,-12.8686,16.173088,-18.129999,-12.81,-35.420002,1729430721546.0,0.0
-1.567299,-7.207181,13.610376,24.710001,-8.89,-13.65,1729430721567.0,0.0
-3.852444,-3.192025,13.808979,67.269997,-13.58,-35.139999,1729430721585.0,0.0
-3.59402,-2.009971,11.083554,2.59,-48.93,-62.510002,1729430721605.0,0.0
-1.239482,1.095913,6.582655,-28.77,-54.110001,-44.099998,1729430721627.0,0.0
-1.859223,-1.184447,8.082954,-58.099998,-58.73,-37.450001,1729430721647.0,0.0
-0.105284,0.464208,5.017749,-48.580002,-51.52,-49.139999,1729430721666.0,0.0
-0.413958,1.79701,4.407579,-3.08,-18.41,-1.05,1729430721690.0,0.0
-1.308874,0.787239,5.209175,-15.54,-2.87,7.14,1729430721705.0,0.0
-1.665405,-0.859023,3.146562,-38.990002,5.11,10.92,1729430721727.0,0.0
-0.026321,1.730011,2.742175,4.69,47.18,37.66,1729430721747.0,0.0
-1.543371,0.291924,7.829315,48.580002,83.019997,59.5,1729430721766.0,0.0
-5.489135,-0.411566,7.377072,48.860001,80.849998,50.259998,1729430721785.0,0.0
-9.147761,-5.410172,18.594624,125.510002,63.279999,50.75,1729430721806.0,0.0
-9.054441,-7.549356,19.776678,80.360001,33.18,-7.28,1729430721827.0,0.0
-3.541377,-7.278966,14.256437,-29.4,-24.15,-11.27,1729430721845.0,0.0
-2.206182,-4.56072,12.000006,-23.450001,-30.940001,0.7,1729430721866.0,0.0
-3.625126,-2.699104,12.136396,12.67,-34.580002,-42.84,1729430721885.0,0.0
-2.514857,-1.978864,9.226725,-25.549999,-51.939999,-55.580002,1729430721905.0,0.0
-0.808774,0.337388,6.582655,-44.380001,-41.02,-34.439999,1729430721928.0,0.0
-0.978664,0.713061,6.228518,-45.080002,-40.25,-28.98,1729430721946.0,0.0
0.047856,3.04367,3.517449,-47.32,-25.969999,-27.370001,1729430721966.0,0.0
-2.567499,-0.325424,5.460421,-22.75,4.27,15.190001,1729430721985.0,0.0
-2.658426,-0.696311,4.462614,-19.110001,20.02,16.1,1729430722005.0,0.0
-1.196411,0.138784,5.699703,9.52,53.689999,46.48,1729430722026.0,0.0
-2.756532,-0.677169,4.498507,30.870001,70.279999,41.299999,1729430722046.0,0.0
-5.525027,-3.579663,13.28495,91.209999,68.529999,52.5,1729430722065.0,0.0
-8.595018,-5.039285,16.625332,87.639999,57.610001,8.12,1729430722085.0,0.0
-6.640083,-9.162118,14.854643,-10.99,6.37,-11.06,1729430722106.0,0.0
-1.964507,-5.730811,11.629118,-30.799999,-15.82,-12.74,1729430722126.0,0.0
-3.778267,-2.218147,12.06222,29.469999,-3.36,-21.98,1729430722145.0,0.0
-4.768896,-2.438286,10.628918,3.71,-23.379999,-49.420002,1729430722166.0,0.0
-2.801995,-1.505085,6.958328,-27.440001,-42.630001,-49.420002,1729430722185.0,0.0
-2.292324,-0.160319,7.176075,-12.67,-21.49,-38.43,1729430722205.0,0.0
-2.474179,0.667598,7.063612,-4.2,-22.75,-38.990002,1729430722228.0,0.0
-1.052842,1.540978,5.831308,-4.76,-14.35,-28.139999,1729430722245.0,0.0
-0.624527,1.698904,5.058427,-15.47,0.98,4.48,1729430722265.0,0.0
-0.624527,0.083749,5.702096,-24.219999,6.72,9.59,1729430722285.0,0.0
-1.057628,-0.772882,4.443472,-17.780001,24.780001,29.120001,1729430722305.0,0.0
-0.844666,-1.012164,4.838287,-1.12,55.510002,36.330002,1729430722326.0,0.0
-2.916851,0.832702,7.178468,35.279999,77.840004,58.799999,1729430722346.0,0.0
-9.298509,-4.156333,16.579868,105.07,68.529999,65.800003,1729430722369.0,0.0
-10.727024,-4.682754,17.19961,74.269997,32.549999,7.98,1729430722385.0,0.0
-6.501299,-4.409972,12.01197,-31.01,-11.69,5.67,1729430722405.0,0.0
-4.206582,-3.426522,10.951948,-55.299999,-25.549999,17.219999,1729430722426.0,0.0
-5.218746,-1.409373,11.973685,-2.31,-14.0,-17.639999,1729430722446.0,0.0
-5.812167,-1.840081,11.507084,-22.120001,-27.299999,-25.059999,1729430722465.0,0.0
-4.290331,-1.543371,10.238889,-61.810001,-45.920002,-14.77,1729430722487.0,0.0
-3.895515,-0.818345,10.253245,-54.32,-55.299999,-12.67,1729430722505.0,0.0
-2.622534,-0.200997,9.552148,-36.610001,-58.029999,1.54,1729430722526.0,0.0
-3.445665,-1.122234,8.106883,-55.23,-63.07,-2.1,1729430722545.0,0.0
-3.778267,-3.589234,6.812366,-80.989998,-72.379997,15.4,1729430722565.0,0.0
-0.847059,-1.691726,4.852644,-65.800003,-66.639999,7.0,1729430722585.0,0.0
-0.947558,0.61017,5.647062,13.79,-33.389999,39.970001,1729430722604.0,0.0
-1.237089,2.318645,7.501499,39.34,-19.18,32.689999,1729430722626.0,0.0
-0.545564,-1.064806,11.01177,3.85,-39.619999,51.450001,1729430722646.0,0.0
1.019342,-3.108276,9.650253,-71.68,-42.349998,55.09,1729430722665.0,0.0
1.564906,-4.333402,7.590034,-107.449997,-49.0,58.52,1729430722684.0,0.0
1.103091,-4.838287,7.331609,-138.180008,-37.310001,57.959999,1729430722705.0,0.0
0.579063,-5.98445,6.886543,-196.279999,-32.200001,45.639999,1729430722726.0,0.0
0.531207,-5.807381,6.829116,-248.639999,-21.0,40.25,1729430722745.0,0.0
0.933201,-4.957928,3.981657,-261.799988,-4.76,35.84,1729430722766.0,0.0
1.22034,-3.445665,1.5003,-262.290009,25.76,38.709999,1729430722785.0,0.0
-0.007178,-1.538585,1.172483,-258.019989,63.560001,47.25,1729430722804.0,0.0
-2.368894,-2.009971,2.400001,-221.830002,84.840004,75.949997,1729430722827.0,0.0
-5.393422,-2.368894,1.849652,-202.369995,86.800003,97.019997,1729430722844.0,0.0
-7.829315,-11.676974,14.818751,-85.190002,-27.02,78.120003,1729430722865.0,0.0
-3.4672,-5.369494,11.956935,9.59,-4.41,159.669998,1729430722885.0,0.0
-4.37408,-3.811767,5.819345,-73.290001,29.4,77.279999,1729430722904.0,0.0
-7.173682,-8.123632,3.282953,-205.660004,-53.41,129.990005,1729430722926.0,0.0
-6.12084,-10.310673,1.351945,-263.619995,-49.0,117.32,1729430722945.0,0.0
-8.664411,-12.770494,0.61017,-231.070007,-18.83,110.18,1729430722965.0,0.0
-11.803794,-15.689737,-1.430908,-167.300003,24.5,10.78,1729430722985.0,0.0
-10.683953,-15.13221,-3.641876,-126.770004,43.259998,-29.610001,1729430723012.0,0.0
-7.84128,-14.646468,-2.648855,-41.860001,49.630001,-62.860001,1729430723026.0,0.0
-5.948557,-12.05504,-1.258625,28.84,83.300003,-88.550003,1729430723046.0,0.0
-4.601398,-10.078569,3.436093,88.690002,92.68,-102.550003,1729430723066.0,0.0
-2.007578,-4.632504,8.334201,110.879997,57.889999,-85.540001,1729430723085.0,0.0
0.504886,1.962115,14.538791,63.420002,42.490002,-55.09,1729430723106.0,0.0
2.256432,3.273381,11.038091,0.49,5.88,-12.25,1729430723126.0,0.0
-0.543171,-4.110869,8.590233,-75.529999,-37.310001,11.62,1729430723147.0,0.0
-2.158326,-5.728417,4.811966,-134.75,-65.519997,34.09,1729430723165.0,0.0
-2.007578,-7.080362,-0.18664,-100.519997,-79.449997,68.529999,1729430723186.0,0.0
-2.89053,-10.181459,-2.713461,-18.200001,-59.990002,75.809998,1729430723206.0,0.0
-6.503692,-10.174281,-2.007578,34.369999,-10.15,67.830002,1729430723227.0,0.0
-8.496914,-14.421541,-4.345366,92.400002,26.110001,60.48,1729430723246.0,0.0
-11.277373,-17.757137,-3.156133,123.199997,67.410004,9.59,1729430723266.0,0.0
-11.796617,-13.375877,2.947958,105.349998,56.98,-26.809999,1729430723286.0,0.0
-8.25763,-9.731609,5.424529,72.029999,9.45,-43.330002,1729430723306.0,0.0
-5.314459,-8.360522,3.438486,0.07,21.210001,-91.629997,1729430723327.0,0.0
-4.0008,-5.740381,1.418944,-34.23,44.310001,-88.760002,1729430723346.0,0.0
-1.744368,-2.679961,6.838687,-26.389999,12.88,-49.560001,1729430723370.0,0.0
0.631705,-2.275574,6.618547,-6.16,5.32,-20.790001,1729430723386.0,0.0
1.792224,-1.378266,6.400801,-12.11,15.61,-14.84,1729430723407.0,0.0
0.200997,-2.801995,8.370094,-42.84,-13.65,43.610001,1729430723429.0,0.0
-0.990629,-3.998406,4.465007,-74.480003,-42.98,65.730003,1729430723448.0,0.0
-0.39003,-5.312066,1.464408,-16.24,-55.369999,92.260002,1729430723467.0,0.0
-2.385644,-7.915457,0.641276,38.220001,-42.77,108.010002,1729430723488.0,0.0
-6.113662,-9.171689,1.383051,25.129999,-29.469999,105.629997,1729430723506.0,0.0
-9.848858,-14.529219,-4.206582,-39.130001,-18.76,91.0,1729430723528.0,0.0
-12.01197,-18.484554,-4.936393,-100.800003,33.950001,14.63,1729430723548.0,0.0
-10.116854,-15.598811,-3.553342,-33.670002,56.420002,-37.029999,1729430723568.0,0.0
-7.128219,-12.502499,1.98365,44.59,39.549999,-60.549999,1729430723588.0,0.0
-5.9677,-11.186446,1.971686,27.23,117.32,-106.120003,1729430723608.0,0.0
-5.74756,-4.709075,3.694518,16.030001,155.119995,-111.720001,1729430723628.0,0.0
-2.639283,-4.945964,7.106683,70.349998,93.870003,-61.110001,1729430723647.0,0.0
-0.830309,-1.663012,8.958728,158.059998,83.650002,-71.68,1729430723670.0,0.0
-0.440279,2.266003,8.020741,189.419998,43.259998,-41.509998,1729430723687.0,0.0
-0.598206,2.694318,7.192825,78.470001,-2.24,4.62,1729430723707.0,0.0
-0.971486,-3.206382,3.632305,-66.150002,-54.459999,51.450001,1729430723733.0,0.0
-1.330409,-7.267002,2.522035,-131.529999,-92.82,61.740002,1729430723748.0,0.0
-3.56052,-10.576276,-1.509871,-97.300003,-100.449997,93.169998,1729430723768.0,0.0
-8.379664,-10.186246,-1.476372,-95.410004,-65.239998,62.650002,1729430723787.0,0.0
-12.538391,-17.113466,-6.238089,-130.759995,-14.91,45.639999,1729430723806.0,0.0
-14.170296,-18.884157,-7.633104,-145.180008,57.610001,-14.63,1729430723828.0,0.0
-12.586248,-17.328821,-0.79681,-42.139999,27.719999,-34.860001,1729430723847.0,0.0
-8.449057,-11.91147,4.512863,73.639999,1.4,-70.139999,1729430723867.0,0.0
-5.493921,-6.128019,2.761317,50.259998,77.699997,-110.739998,1729430723888.0,0.0
-1.272982,-3.117848,7.235896,30.799999,31.780001,-49.77,1729430723907.0,0.0
0.957129,-2.072184,7.88435,79.099998,22.4,-37.380001,1729430723927.0,0.0
-0.39003,-1.091127,9.645468,99.540001,22.190001,-6.16,1729430723948.0,0.0
-1.871187,-1.445265,6.635297,-5.11,-41.16,39.060001,1729430723968.0,0.0
-0.832702,-6.683154,3.105884,-61.32,-72.169998,68.529999,1729430723986.0,0.0
-0.267996,-7.676175,0.401994,-67.830002,-77.07,80.989998,1729430724006.0,0.0
-3.35713,-9.499505,-2.354537,-31.290001,-60.830002,97.650002,1729430724028.0,0.0
-8.80798,-11.913863,-1.428515,-22.33,-32.200001,86.379997,1729430724048.0,0.0
-12.088539,-16.78565,-3.383451,-65.590004,-8.33,46.689999,1729430724067.0,0.0
-12.665211,-17.163717,-6.30748,-118.93,31.639999,-8.26,1729430724086.0,0.0
-11.01177,-15.74238,-3.285345,-60.48,38.849998,-44.939999,1729430724106.0,0.0
-7.939385,-12.03829,-0.112463,10.64,32.41,-87.290001,1729430724127.0,0.0
-5.335995,-9.817751,0.909273,19.110001,64.610001,-111.790001,1729430724147.0,0.0
-4.486543,-1.330409,0.708275,-41.720001,83.019997,-116.550003,1729430724167.0,0.0
-0.18664,-2.299503,4.151547,13.79,23.1,-64.540001,1729430724186.0,0.0
3.388237,-0.275175,7.204789,69.790001,23.24,-54.459999,1729430724208.0,0.0
1.021735,-2.189433,9.102298,103.599998,-7.91,3.43,1729430724227.0,0.0
-0.435494,-4.481757,4.761717,-8.12,-65.940002,47.740002,1729430724247.0,0.0
-0.095713,-9.870394,2.581856,-20.93,-88.129997,62.580002,1729430724267.0,0.0
-2.792424,-8.999406,-0.600598,-26.6,-81.410004,90.160004,1729430724286.0,0.0
-7.989635,-12.959527,-3.474378,-58.450001,-45.009998,74.760002,1729430724306.0,0.0
-13.545769,-16.898113,-5.74756,-156.589996,18.27,26.32,1729430724329.0,0.0
-14.861821,-19.448862,-10.368099,-157.570007,74.410004,-22.82,1729430724346.0,0.0
-11.210374,-17.111074,-4.474578,-10.57,38.920002,-59.290001,1729430724372.0,0.0
-7.001399,-11.755937,0.882952,95.900002,32.27,-97.650002,1729430724387.0,0.0
-4.058227,-7.57089,0.698704,56.77,61.25,-119.139999,1729430724407.0,0.0
-3.704089,0.050249,-0.260818,-32.689999,89.529999,-117.389999,1729430724428.0,0.0
0.078963,-3.586841,2.924029,30.17,40.040001,-69.93,1729430724447.0,0.0
4.910072,-1.256232,6.675975,112.559998,37.310001,-56.77,1729430724467.0,0.0
3.739982,0.256032,14.294723,144.759995,22.26,2.03,1729430724487.0,0.0
-0.052642,-0.775275,9.736395,-22.75,-40.459999,44.52,1729430724506.0,0.0
0.222532,-7.389036,1.87358,-137.899994,-101.709999,71.610001,1729430724527.0,0.0
-0.937986,-8.355737,-4.512863,-147.839996,-108.43,71.610001,1729430724547.0,0.0
-8.709875,-15.670596,-8.762517,-87.639999,-72.519997,93.099998,1729430724567.0,0.0
-14.794822,-20.111675,-11.636297,-128.029999,76.370003,13.16,1729430724586.0,0.0
-16.448263,-20.717058,-9.949356,-75.809998,65.239998,-44.73,1729430724606.0,0.0
-9.561719,-16.321442,-1.282553,84.559998,12.74,-50.82,1729430724629.0,0.0
-4.759324,-10.743774,2.115255,113.82,34.369999,-110.459999,1729430724648.0,0.0
-2.835495,-6.297909,-1.39023,26.460001,64.120003,-110.949997,1729430724667.0,0.0
-4.261617,1.476372,1.06002,-45.150002,88.830002,-94.57,1729430724686.0,0.0
0.9667,-6.771688,1.519442,20.09,30.940001,-73.150002,1729430724706.0,0.0
3.067599,-4.089334,6.707082,71.190002,28.98,-36.610001,1729430724737.0,0.0
3.201597,-2.136791,8.487342,151.759995,-6.65,-10.29,1729430724747.0,0.0
1.844866,1.091127,10.272388,94.709999,-33.110001,27.860001,1729430724766.0,0.0
0.265603,-0.978664,6.675975,-45.43,-77.840004,74.480003,1729430724786.0,0.0
-2.249253,-6.757331,2.055435,-130.970001,-123.199997,114.940002,1729430724806.0,0.0
-5.833702,-12.567105,-6.034698,-138.740005,-110.739998,110.949997,1729430724828.0,0.0
-8.513663,-15.36192,-9.623933,-189.279999,-27.23,71.400002,1729430724846.0,0.0
-12.626925,-19.245474,-14.22533,-259.48999,47.740002,37.240002,1729430724868.0,0.0
-11.002198,-20.501705,-13.931013,-139.300003,44.170002,-17.99,1729430724886.0,0.0
-5.666204,-14.045869,-1.148555,218.680008,47.040001,-52.290001,1729430724906.0,0.0
-3.005385,-5.371887,2.24686,167.020004,40.040001,-86.379997,1729430724927.0,0.0
0.009571,1.868794,1.258625,26.530001,44.52,-63.349998,1729430724946.0,0.0
2.871387,-0.746561,7.348359,3.22,42.77,-46.48,1729430724967.0,0.0
2.682354,-2.974278,8.492127,4.97,9.17,12.32,1729430724987.0,0.0
0.035892,-2.411965,6.766902,13.86,-22.82,37.799999,1729430725006.0,0.0
-1.237089,-4.017549,1.902294,-22.190001,-47.529999,65.239998,1729430725027.0,0.0
-1.282553,-7.211967,-0.961915,-49.84,-73.709999,86.239998,1729430725053.0,0.0
-4.23051,-7.886744,-4.345366,-93.309998,-78.959999,98.139999,1729430725066.0,0.0
-9.202796,-16.888542,-11.3683,-135.240005,-30.17,73.989998,1729430725086.0,0.0
-13.493127,-23.095526,-14.294723,-145.460007,82.389999,-6.86,1729430725108.0,0.0
-12.354142,-21.056837,-9.786645,10.01,29.120001,-21.77,1729430725130.0,0.0
-6.752545,-12.902101,1.921437,247.940002,9.52,-22.610001,1729430725147.0,0.0
-1.741975,-8.987441,5.953342,261.100006,-22.4,-84.209999,1729430725169.0,0.0
-0.29671,-3.799802,0.430708,74.830002,34.650002,-92.889999,1729430725186.0,0.0
1.701297,-2.914458,2.737389,-41.860001,39.27,-59.709999,1729430725207.0,0.0
4.37408,-4.663611,8.525627,56.700001,-37.73,6.16,1729430725229.0,0.0
0.059821,-5.962914,6.836295,96.669998,-14.77,30.17,1729430725248.0,0.0
-1.751546,-3.976871,4.34058,51.450001,-28.700001,33.740002,1729430725268.0,0.0
-2.608176,-4.788038,-0.533599,-41.720001,-68.18,61.529999,1729430725287.0,0.0
-5.395815,-8.99462,-4.520042,-107.099998,-61.529999,84.0,1729430725308.0,0.0
-7.200003,-17.001005,-12.222539,-156.589996,-2.59,25.549999,1729430725328.0,0.0
-13.591233,-21.241085,-9.619147,-166.389999,91.840004,-11.83,1729430725349.0,0.0
-11.600404,-18.532412,-8.216952,-59.150002,44.52,-22.120001,1729430725371.0,0.0
-5.484349,-14.258829,-1.071985,129.990005,28.700001,-44.380001,1729430725387.0,0.0
-3.728018,-9.482756,1.318445,148.259995,35.700001,-74.269997,1729430725409.0,0.0
-2.65364,-4.07737,-0.607777,74.340004,54.18,-83.790001,1729430725429.0,0.0
-2.486143,-0.346959,4.173083,23.379999,57.610001,-39.830002,1729430725448.0,0.0
2.270789,-3.17049,5.271388,23.870001,2.38,-35.139999,1729430725468.0,0.0
0.787239,-4.56072,7.872386,21.139999,16.59,3.01,1729430725488.0,0.0
0.825524,-4.024727,6.821937,9.8,-15.54,4.69,1729430725507.0,0.0
-0.662812,-7.439285,3.036492,-42.98,-63.91,53.900002,1729430725532.0,0.0
-1.552942,-8.075776,0.808774,-31.85,-69.720001,65.309998,1729430725551.0,0.0
-3.716053,-7.070791,-2.639283,-16.309999,-66.57,81.970001,1729430725569.0,0.0
-8.776874,-12.753745,-4.589434,-33.25,-47.18,84.910004,1729430725591.0,0.0
-10.96152,-17.781065,-9.303294,-79.590004,21.700001,22.540001,1729430725611.0,0.0
-13.220345,-19.570896,-6.477371,-49.0,30.66,-2.73,1729430725632.0,0.0
-8.650054,-15.309279,-4.766503,26.74,16.870001,-29.469999,1729430725694.0,0.0
-5.536992,-12.878171,-2.969493,61.110001,40.740002,-83.580002,1729430725694.0,0.0
-4.845466,-11.80858,-1.622334,24.780001,71.470001,-88.970001,1729430725694.0,0.0
-3.041277,-5.991628,-1.56012,-4.76,70.769997,-98.699997,1729430725724.0,0.0
-2.294717,-1.634298,5.580062,20.23,47.32,-42.420002,1729430725730.0,0.0
5.108676,0.26321,6.305088,59.010002,8.47,-57.400002,1729430725749.0,0.0
4.821537,-1.509871,11.126624,95.410004,26.32,5.18,1729430725773.0,0.0
0.543171,-1.304088,10.124033,36.75,-21.77,38.009998,1729430725789.0,0.0
-0.311067,-2.974278,3.407379,-75.739998,-72.940002,68.18,1729430725808.0,0.0
-2.665605,-10.234102,-1.875973,-56.630001,-103.599998,101.150002,1729430725829.0,0.0
-6.52762,-12.672389,-6.52762,-76.440002,-60.689999,85.470001,1729430725848.0,0.0
-12.782458,-19.424934,-13.332808,-128.240005,24.290001,47.040001,1729430725869.0,0.0
-15.500705,-22.552353,-11.279767,-100.870003,49.279999,-13.86,1729430725889.0,0.0
-8.860621,-16.098909,-6.707082,46.689999,13.51,-28.49,1729430725908.0,0.0
-4.429115,-13.237095,-1.452443,189.139999,34.650002,-56.07,1729430725929.0,0.0
-2.971886,-8.152347,1.959722,113.540001,48.369999,-85.68,1729430725950.0,0.0
-1.423729,-3.744767,-1.452443,18.48,61.880001,-83.090004,1729430725969.0,0.0
-2.306681,-0.48335,4.37408,-6.58,82.669998,-42.490002,1729430725989.0,0.0
3.014957,-0.842274,6.403193,29.75,24.15,-33.950001,1729430726010.0,0.0
2.737389,-4.378866,10.332209,40.880001,13.02,18.41,1729430726030.0,0.0
-0.708275,-3.268596,8.410772,0.21,-22.82,25.83,1729430726050.0,0.0
-0.993021,-4.393222,3.625126,-61.529999,-71.75,56.560001,1729430726071.0,0.0
-1.304088,-6.71426,0.79681,-72.029999,-100.379997,73.080002,1729430726089.0,0.0
-3.668197,-8.032705,-3.115455,-73.849998,-93.309998,92.75,1729430726115.0,0.0
-8.578269,-13.433307,-5.522634,-108.150002,-59.5,82.459999,1729430726129.0,0.0
-13.72523,-20.578274,-11.035697,-148.259995,14.42,36.75,1729430726154.0,0.0
-11.492726,-18.601803,-9.425328,-25.200001,14.56,-26.6,1729430726178.0,0.0
-6.745367,-14.730216,-3.101098,117.18,45.849998,-41.16,1729430726189.0,0.0
-3.4672,-9.427721,-2.78046,105.0,42.209999,-91.07,1729430726208.0,0.0
-2.665605,-8.204988,0.473779,51.170002,63.630001,-78.120003,1729430726229.0,0.0
-0.789631,0.122034,-0.040678,7.91,72.309998,-79.870003,1729430726249.0,0.0
-0.189033,-1.655833,4.271189,72.590004,51.240002,-13.79,1729430726268.0,0.0
1.564906,-0.856631,11.954542,100.309998,35.279999,-14.91,1729430726289.0,0.0
0.150748,-4.737789,9.422935,43.610001,-10.22,28.49,1729430726309.0,0.0
-1.978864,-6.455836,5.290531,-58.450001,-56.91,30.17,1729430726329.0,0.0
-1.495514,-6.12084,1.459622,-109.970001,-85.260002,53.41,1729430726348.0,0.0
-2.538785,-7.913064,-2.014757,-109.550003,-100.800003,76.650002,1729430726451.0,0.0
-6.195018,-12.918849,-6.982256,-129.360001,-68.459999,68.739998,1729430726452.0,0.0
-11.653046,-16.697117,-8.671589,-132.020004,15.12,29.120001,1729430726453.0,0.0
-13.4022,-20.288744,-10.925629,-76.510002,30.59,-4.76,1729430726454.0,0.0
-9.176475,-16.024733,-7.23111,19.74,27.65,-28.35,1729430726457.0,0.0
-4.254438,-13.686946,-3.584448,140.770004,36.470001,-49.98,1729430726467.0,0.0
-1.179662,0.002393,0.715454,121.029999,53.900002,-70.07,1729430726518.0,0.0
-0.234497,-2.337788,2.667997,49.490002,62.510002,-61.459999,1729430726529.0,0.0
1.509871,-1.371087,8.298308,60.130001,60.41,-16.1,1729430726548.0,0.0
1.332802,-5.91745,8.006385,67.550003,38.43,-4.62,1729430726568.0,0.0
-1.356731,-7.846066,5.132604,42.84,-6.23,43.400002,1729430726587.0,0.0
-2.438286,-6.9009,2.041078,-22.049999,-35.349998,33.459999,1729430726608.0,0.0
-2.713461,-6.326623,-1.079163,-71.190002,-90.160004,67.410004,1729430726630.0,0.0
-4.326223,-8.109276,-3.503092,-78.120003,-82.599998,79.309998,1729430726647.0,0.0
-7.211967,-11.875579,-5.627919,-110.040001,-47.110001,61.459999,1729430726667.0,0.0
-10.688738,-15.98884,-7.712067,-107.379997,-2.66,45.009998,1729430726686.0,0.0
-12.210573,-19.094725,-8.736196,-62.23,13.79,0.07,1729430726706.0,0.0
-9.506684,-13.677374,-5.886343,8.26,44.099998,-26.950001,1729430726728.0,0.0
-5.024928,-12.514462,-3.002992,86.870003,36.540001,-46.689999,1729430726747.0,0.0
-3.558127,-8.85823,-2.801995,35.560001,68.18,-67.410004,1729430726767.0,0.0
-2.679961,-10.15514,-3.175276,13.09,81.550003,-77.07,1729430726788.0,0.0
-2.404787,-0.143569,-4.869394,-35.349998,97.510002,-66.57,1729430726808.0,0.0
1.129412,-3.443272,4.364508,131.460007,51.380001,-41.650002,1729430726827.0,0.0
1.241875,-2.206182,8.410772,194.740005,37.029999,13.3,1729430726847.0,0.0
0.586242,-2.926422,9.77468,112.910004,4.62,13.93,1729430726866.0,0.0
-1.837688,-5.761917,6.302694,-52.57,-55.650002,47.950001,1729430726886.0,0.0
-1.339981,-7.762317,1.777867,-114.660004,-89.599998,59.150002,1729430726906.0,0.0
-2.54357,-7.719246,-1.651048,-104.510002,-81.340004,75.040001,1729430726927.0,0.0
-5.546563,-8.614161,-4.26401,-96.110001,-65.940002,79.379997,1729430726946.0,0.0
-9.255438,-10.870593,-5.221139,-100.449997,-38.080002,69.720001,1729430726968.0,0.0
-10.547562,-13.732409,-7.343572,-46.619999,-17.08,64.050003,1729430726986.0,0.0
-10.487741,-14.280365,-3.072384,31.290001,-33.740002,28.42,1729430727007.0,0.0
-8.910872,-10.298709,0.428315,40.18,-44.170002,-7.7,1729430727027.0,0.0
-5.833702,-7.034898,1.311267,3.92,-46.830002,-23.799999,1729430727047.0,0.0
-3.979264,-7.613962,1.095913,-51.799999,-33.389999,-37.869999,1729430727067.0,0.0
-4.273581,-7.752745,-0.782453,-133.910004,-22.68,-50.259998,1729430727086.0,0.0
-3.596412,-8.595018,-2.876173,-178.850006,-28.630001,-42.630001,1729430727107.0,0.0
-2.301895,-8.16431,-4.039084,-181.440002,-33.599998,-27.370001,1729430727130.0,0.0
-0.866202,-8.152347,-4.051049,-134.960007,-37.73,-10.5,1729430727150.0,0.0
-2.06022,-7.810174,-4.752146,-81.550003,-5.18,0.77,1729430727169.0,0.0
-3.929015,-6.338587,-7.001399,-96.949997,9.1,2.45,1729430727187.0,0.0
-4.130012,-8.568698,-10.269995,-103.599998,17.99,3.99,1729430727208.0,0.0
-5.257031,-10.631311,-12.933208,-128.029999,53.200001,2.45,1729430727227.0,0.0
-7.685746,-12.55514,-6.431907,-108.919998,78.050003,3.64,1729430727247.0,0.0
-8.446664,-12.614961,1.9669,15.89,74.340004,3.36,1729430727267.0,0.0
-8.69791,-5.190032,0.150748,-54.670002,93.379997,-60.41,1729430727289.0,0.0
-7.111469,-5.685347,-6.453443,-233.729996,68.529999,-41.720001,1729430727308.0,0.0
-1.59362,-7.862815,-12.150753,-268.519989,42.209999,-19.67,1729430727330.0,0.0
0.76331,-14.155938,-10.963913,-56.77,80.220001,6.37,1729430727347.0,0.0
0.636491,-5.773881,-0.327817,76.650002,121.520004,8.75,1729430727371.0,0.0
-1.301696,-3.294917,5.469993,91.699997,99.260002,1.96,1729430727397.0,0.0
-0.095713,-7.597212,5.895915,35.630001,14.63,10.78,1729430727408.0,0.0
-1.509871,-8.123632,1.897508,18.129999,-37.73,3.36,1729430727428.0,0.0
-1.878366,-7.030113,0.174676,17.85,-71.330002,-3.78,1729430727451.0,0.0
-1.158126,-7.310073,-1.61037,-3.22,-119.559998,2.24,1729430727469.0,0.0
-4.835894,-7.757531,-10.210175,-41.23,-139.720001,-15.54,1729430727487.0,0.0
-10.432706,-6.78126,-11.361122,-11.83,-119.629997,-6.93,1729430727507.0,0.0
-12.394822,-7.219146,-22.808386,-54.459999,-12.67,-13.23,1729430727528.0,0.0
-9.573684,-4.512863,-15.136996,-47.670002,25.9,20.02,1729430727547.0,0.0
-3.421736,-8.750552,-9.399008,57.82,28.700001,28.91,1729430727570.0,0.0
-3.553342,-7.465607,-6.970293,72.029999,72.800003,2.17,1729430727587.0,0.0
-4.101298,-5.666204,-3.766303,24.15,96.879997,-8.12,1729430727608.0,0.0
-1.514657,-3.627519,-5.534599,-33.950001,69.720001,-9.31,1729430727630.0,0.0
2.208575,-12.078968,-5.379066,-20.93,59.220001,10.08,1729430727647.0,0.0
1.622334,-5.860023,0.923629,-9.38,72.449997,-1.75,1729430727669.0,0.0
-1.586441,-6.422336,6.149554,20.93,58.099998,-10.15,1729430727687.0,0.0
-5.132604,-8.587841,4.386044,-5.18,-17.710001,-15.54,1729430727707.0,0.0
-4.500899,-8.513663,-1.418944,15.54,-59.709999,-17.360001,1729430727728.0,0.0
-2.545963,-10.186246,-2.146362,37.939999,-89.18,-13.09,1729430727748.0,0.0
-0.181855,-8.25763,-4.84068,62.720001,-125.650002,-1.82,1729430727767.0,0.0
-3.972085,-7.334002,-10.116854,79.590004,-124.25,-6.3,1729430727787.0,0.0
-8.95155,-2.557927,-19.477577,-76.790001,-16.379999,-15.96,1729430727807.0,0.0
-9.454042,-8.25763,-14.158331,-165.970001,6.23,16.309999,1729430727828.0,0.0
-5.74756,-8.367701,-5.453243,34.720001,35.84,28.91,1729430727847.0,0.0
-4.570292,-6.104091,-8.221739,89.739998,66.080002,7.0,1729430727868.0,0.0
-5.828916,-6.369694,-4.65404,14.98,98.629997,-12.74,1729430727887.0,0.0
-2.273181,-5.235496,-7.582855,6.58,70.139999,4.06,1729430727907.0,0.0
0.856631,-10.083356,-3.905087,-7.0,84.840004,3.64,1729430727930.0,0.0
1.926222,-6.26441,2.440679,-13.58,76.300003,21.700001,1729430727947.0,0.0
-0.667598,-8.047063,7.087541,31.15,48.439999,9.59,1729430727967.0,0.0
-4.21376,-8.762517,4.912465,51.170002,-9.59,2.73,1729430727989.0,0.0
-5.659025,-7.135397,4.175476,33.529999,-61.529999,-7.91,1729430728007.0,0.0
-2.24686,-9.056834,-2.904887,8.89,-107.309998,3.92,1729430728030.0,0.0
-1.526621,-6.707082,-6.113662,-6.23,-136.360001,-4.62,1729430728047.0,0.0
-5.76431,-8.726624,-16.721045,-17.85,-121.870003,-9.94,1729430728067.0,0.0
-11.272588,-7.910671,-22.41357,-150.919998,20.719999,-10.43,1729430728087.0,0.0
-10.528419,-6.309873,-15.596417,-155.399994,33.459999,9.87,1729430728107.0,0.0
-5.163712,-7.721639,-7.250252,35.91,43.259998,22.889999,1729430728130.0,0.0
-5.355137,-8.65484,-3.072384,56.560001,79.940002,0.35,1729430728147.0,0.0
-2.904887,-5.788238,-8.630912,11.69,81.620003,-27.93,1729430728168.0,0.0
0.567099,-8.956335,-4.551149,-12.67,81.269997,-5.6,1729430728187.0,0.0
3.354738,-2.311467,4.146761,31.5,67.199997,12.88,1729430728207.0,0.0
0.287139,-7.216753,8.769694,75.459999,47.529999,16.59,1729430728228.0,0.0
-4.67079,-7.960921,7.223931,35.700001,-33.110001,3.5,1729430728247.0,0.0
-5.120641,-5.9677,2.589034,-6.23,-91.559998,0.21,1729430728267.0,0.0
-2.928815,-10.925629,-4.103691,-26.950001,-136.710007,6.65,1729430728287.0,0.0
-1.813759,-7.82453,-11.035697,-25.969999,-159.880005,-8.82,1729430728307.0,0.0
-6.73101,-7.762317,-21.604794,-31.710001,-121.660004,-25.27,1729430728327.0,0.0
-11.882757,-7.750352,-20.111675,-101.57,43.259998,-3.57,1729430728347.0,0.0
-12.050256,-7.795816,-10.616954,-56.0,39.900002,6.23,1729430728369.0,0.0
-4.76411,-8.331808,-9.209974,57.330002,59.010002,7.35,1729430728386.0,0.0
-2.909672,-9.183653,-5.996413,58.939999,66.779999,-5.6,1729430728406.0,0.0
-2.955136,-7.042077,-4.386044,28.210001,85.470001,-30.73,1729430728426.0,0.0
-1.095913,-2.629712,-9.750752,32.060001,92.82,-35.349998,1729430728446.0,0.0
2.306681,-7.156933,-1.162912,28.559999,73.779999,-0.35,1729430728466.0,0.0
2.596212,-2.725425,7.092326,50.82,68.389999,19.18,1729430728485.0,0.0
-3.428915,-6.486942,8.094919,36.959999,-10.92,7.63,1729430728505.0,0.0
-6.297909,-7.166504,4.893322,-34.650002,-75.669998,-0.98,1729430728527.0,0.0
-2.823531,-9.600004,-3.809374,-80.639999,-128.449997,-3.15,1729430728546.0,0.0
-1.607977,-7.389036,-7.752745,-54.25,-154.070007,-15.96,1729430728566.0,0.0
-5.209175,-11.63869,-18.941584,-10.43,-139.300003,-16.379999,1729430728586.0,0.0
-10.38485,-4.67079,-22.894527,-128.940002,13.440001,-13.86,1729430728605.0,0.0
-10.38485,-7.898707,-18.778872,-66.220001,37.73,14.21,1729430728626.0,0.0
-6.355337,-6.9009,-8.484949,75.110001,50.889999,25.620001,1729430728646.0,0.0
-2.433501,-4.539185,-8.379664,53.900002,61.670002,5.74,1729430728667.0,0.0
-4.13719,-8.609376,-2.907279,-25.83,86.309998,-14.35,1729430728686.0,0.0
-1.940579,-4.639683,-7.063612,-7.42,80.080002,-16.66,1729430728707.0,0.0
1.619941,-10.82513,-6.228518,20.65,79.519997,-1.82,1729430728728.0,0.0
3.206382,-0.526421,4.23051,-2.1,80.080002,9.17,1729430728748.0,0.0
-1.194018,-9.19801,8.803195,9.66,42.700001,12.46,1729430728768.0,0.0
-5.101498,-8.628519,4.723432,-11.97,-27.860001,-5.6,1729430728786.0,0.0
-4.024727,-6.008378,-0.303888,-10.5,-78.610001,-7.7,1729430728807.0,0.0
-2.009971,-6.226124,-4.989035,-42.700001,-118.090004,-2.24,1729430728828.0,0.0
-4.223332,-13.610376,-18.927227,-17.780001,-138.180008,2.59,1729430728848.0,0.0
-9.123833,-5.532206,-26.072195,-100.590004,-8.89,-37.73,1729430728867.0,0.0
-10.542776,-5.673382,-17.828922,-67.480003,75.040001,-1.96,1729430728887.0,0.0
-5.350351,-3.550949,-5.130211,32.970001,33.459999,32.689999,1729430728906.0,0.0
-1.773082,-6.69751,-3.885944,43.610001,41.580002,16.450001,1729430728928.0,0.0
-4.134798,-5.630312,-6.34098,-5.95,72.099998,-18.200001,1729430728947.0,0.0
-2.902494,-4.493721,-8.937192,-42.91,62.02,-4.83,1729430728967.0,0.0
1.751546,-8.458629,-5.568098,-38.150002,44.73,21.280001,1729430728987.0,0.0
2.038685,-3.694518,-0.969093,-26.460001,58.029999,20.299999,1729430729007.0,0.0
-1.804188,-9.60479,3.639483,9.52,33.459999,21.629999,1729430729030.0,0.0
-6.068198,-7.393822,2.445465,74.199997,-14.56,14.0,1729430729076.0,0.0
-3.270989,-8.95155,-4.711468,-11.27,-97.440002,-2.31,1729430729123.0,0.0
-1.931008,-9.676575,-7.932207,-7.21,-120.75,-17.85,1729430729128.0,0.0
-3.266203,-13.363914,-19.558933,10.08,-123.129997,-24.780001,1729430729136.0,0.0
-10.181459,-6.30748,-13.981262,-38.290001,-1.96,-41.790001,1729430729195.0,0.0
-8.781659,-5.410172,-10.140782,-28.98,63.0,-26.25,1729430729195.0,0.0
-3.048456,-7.075576,-7.015756,59.150002,32.27,-3.29,1729430729196.0,0.0
-3.196811,-8.197811,-4.017549,75.669998,49.349998,-15.26,1729430729251.0,0.0
-2.866602,-5.309673,-9.284152,40.599998,64.75,-27.09,1729430729261.0,0.0
-0.880559,-2.254039,-7.094719,-3.71,69.510002,-16.59,1729430729261.0,0.0
2.261217,-4.371687,-1.830509,26.32,56.77,14.35,1729430729266.0,0.0
0.545564,-5.039285,5.788238,14.98,58.170002,22.75,1729430729285.0,0.0
-2.447858,-8.197811,4.886144,45.709999,2.87,9.31,1729430729306.0,0.0
-4.989035,-7.125826,1.651048,41.860001,-47.950001,0.91,1729430729328.0,0.0
-4.003192,-8.075776,-3.586841,-26.25,-84.840004,4.2,1729430729346.0,0.0
-3.091527,-7.960921,-4.407579,-52.290001,-117.25,-10.85,1729430729376.0,0.0
-3.127419,-11.490334,-20.159531,-19.389999,-128.800003,0.21,1729430729387.0,0.0
-8.149954,-5.17089,-22.832314,-70.980003,-19.6,-25.34,1729430729406.0,0.0
-9.432507,-5.161318,-15.713666,-43.470001,75.949997,3.29,1729430729434.0,0.0
-5.410172,-5.649454,-4.603791,25.48,27.790001,34.23,1729430729447.0,0.0
-2.354537,-11.519048,-2.364109,59.849998,28.35,25.129999,1729430729466.0,0.0
-3.625126,-7.305287,-4.991428,32.27,54.599998,-20.51,1729430729487.0,0.0
-0.425922,-4.280759,-10.30828,-79.029999,48.580002,-8.33,1729430729506.0,0.0
2.605784,-4.890929,-4.960321,-47.529999,38.57,19.110001,1729430729529.0,0.0
0.425922,-9.396614,-0.055035,0.14,60.27,28.280001,1729430729549.0,0.0
-3.795017,-10.432706,5.644669,53.689999,20.790001,10.22,1729430729567.0,0.0
-5.733203,-7.980063,1.744368,79.309998,-31.5,-5.88,1729430729586.0,0.0
-3.404987,-6.577869,-2.397608,-2.1,-71.470001,-9.73,1729430729607.0,0.0
-2.333002,-10.758131,-3.768696,-38.849998,-107.730003,-10.99,1729430729627.0,0.0
-0.351745,-5.788238,-10.985448,-10.22,-126.209999,-19.879999,1729430729647.0,0.0
-6.132804,-5.254639,-19.568504,-3.01,-96.389999,-25.690001,1729430729669.0,0.0
-9.518648,-3.926622,-20.920448,-75.389999,56.420002,-8.61,1729430729686.0,0.0
-6.711867,-8.068598,-13.409377,-12.18,30.380001,41.369999,1729430729706.0,0.0
-3.900301,-6.910471,2.610569,110.25,42.0,41.16,1729430729727.0,0.0
-4.881358,-10.619347,-0.837488,147.699997,50.75,-5.25,1729430729746.0,0.0
-4.558327,-5.809773,-7.173682,44.59,52.220001,-38.709999,1729430729766.0,0.0
-1.572084,-3.364309,-13.837693,-63.490002,36.889999,-26.18,1729430729786.0,0.0
1.141376,-6.594619,-5.735595,-90.510002,56.490002,3.64,1729430729806.0,0.0
-0.323031,-9.281759,5.424529,-12.04,61.670002,28.98,1729430729829.0,0.0
-5.333601,-9.549755,5.242674,48.650002,12.46,-7.63,1729430729847.0,0.0
-5.63749,-8.197811,0.375673,52.150002,-40.25,-15.190001,1729430729867.0,0.0
-2.711068,-10.040283,-3.663411,15.96,-71.260002,-12.95,1729430729886.0,0.0
-0.878166,-5.79781,-2.667997,-4.97,-98.629997,-26.6,1729430729906.0,0.0
-0.468993,-9.250652,-12.265609,49.98,-122.989998,12.46,1729430729927.0,0.0
-7.161718,-0.930808,-20.439491,-79.099998,-45.709999,-36.400002,1729430729946.0,0.0
-9.80818,-7.4345,-21.57608,-101.709999,77.419998,2.87,1729430729967.0,0.0
-7.178468,-7.41775,-6.958328,-21.139999,25.48,34.790001,1729430729988.0,0.0
-2.876173,-8.295916,-3.969693,82.879997,30.24,33.389999,1729430730006.0,0.0
-4.539185,-7.829315,-3.629912,70.489998,72.940002,-24.219999,1729430730028.0,0.0
-3.378666,-6.678369,-9.281759,18.059999,65.800003,-20.09,1729430730046.0,0.0
-0.052642,-6.45105,-11.198411,-83.160004,74.199997,-11.83,1729430730066.0,0.0
1.785046,-4.098906,2.029114,-28.42,73.919998,38.779999,1729430730091.0,0.0
0.277567,-7.834101,4.682754,70.0,72.870003,29.469999,1729430730106.0,0.0
-5.63749,-8.386844,8.616554,28.700001,20.51,17.219999,1729430730126.0,0.0
-5.850451,-8.903693,2.699104,2.24,-56.98,3.01,1729430730147.0,0.0
-1.785046,-12.217752,-4.709075,-25.83,-89.389999,-7.07,1729430730167.0,0.0
1.208375,-0.842274,-9.657433,-48.93,-132.789993,7.0,1729430730187.0,0.0
-4.242475,-12.617353,-20.348562,-13.72,-142.240005,-15.4,1729430730206.0,0.0
-9.310472,-10.135997,-23.39702,-143.080002,45.009998,-28.139999,1729430730227.0,0.0
-10.24846,-8.592626,-12.356536,-79.239998,68.669998,-8.96,1729430730246.0,0.0
-4.742575,-7.592427,-5.268995,58.59,37.66,15.96,1729430730267.0,0.0
-4.254438,-8.68116,-3.797409,123.199997,61.810001,-13.3,1729430730286.0,0.0
-2.998207,-6.558727,-8.29113,105.0,80.919998,-26.880001,1729430730306.0,0.0
-0.564706,-2.892922,-11.806188,-5.6,85.82,-25.059999,1729430730327.0,0.0
1.476372,-3.562913,2.498107,-27.299999,67.129997,16.379999,1729430730346.0,0.0
2.639283,-5.754738,2.402394,68.459999,48.16,27.93,1729430730371.0,0.0
-3.184847,-7.762317,8.382057,86.099998,28.280001,5.39,1729430730386.0,0.0
-8.55434,-8.595018,7.405786,34.02,-44.240002,1.19,1729430730406.0,0.0
-4.096512,-10.389636,-1.469193,-28.07,-105.139999,-21.84,1729430730427.0,0.0
-0.875773,-3.007778,-2.495714,-77.139999,-141.820007,-26.6,1729430730446.0,0.0
-2.672783,-13.634303,-17.012968,-35.209999,-181.580002,-1.82,1729430730466.0,0.0
-5.943772,-4.345366,-23.219952,-158.550003,-60.41,-45.5,1729430730485.0,0.0
-8.975478,-7.262216,-15.199209,-104.93,53.060001,12.11,1729430730506.0,0.0
-5.431707,-7.02772,-5.903094,164.220001,58.240002,28.630001,1729430730527.0,0.0
-3.974478,-6.482157,-4.776074,172.130005,63.209999,8.89,1729430730546.0,0.0
-4.582255,-4.733003,-2.333002,23.379999,87.080002,-11.62,1729430730566.0,0.0
-1.014557,-4.532006,-10.645668,-18.620001,53.200001,-4.62,1729430730585.0,0.0
0.605384,-9.064013,-3.665804,-63.630001,85.75,15.61,1729430730605.0,0.0
1.495514,-4.725825,5.582455,-16.24,69.370003,48.23,1729430730628.0,0.0
-1.033699,-8.499306,8.415558,71.610001,37.939999,20.719999,1729430730703.0,0.0
-5.474778,-7.116255,6.453443,65.730003,-22.82,12.04,1729430730713.0,0.0
-4.926822,-6.898508,0.772882,2.31,-82.18,7.63,1729430730715.0,0.0
-2.895315,-9.798609,-0.323031,-92.400002,-122.360001,-19.18,1729430730718.0,0.0
-0.87338,-9.475577,-14.569898,-130.199997,-170.520004,12.67,1729430730729.0,0.0
-4.362115,-5.254639,-24.413969,-173.949997,-140.0,-41.580002,1729430730746.0,0.0
-7.886744,-9.207582,-25.777878,-168.630005,49.349998,0.63,1729430730766.0,0.0
-7.9681,-6.9009,-15.373885,-23.73,77.629997,20.65,1729430730785.0,0.0
-4.579862,-7.264609,-3.718446,179.899994,72.309998,34.439999,1729430730806.0,0.0
-5.424529,-6.597012,0.014357,184.449997,81.970001,-6.79,1729430730828.0,0.0
-1.926222,-2.26361,-10.241282,96.18,65.449997,-23.17,1729430730846.0,0.0
-0.430708,-7.099504,-3.017349,-16.17,70.279999,3.08,1729430730866.0,0.0
1.588834,-6.084948,2.18704,15.05,40.040001,38.779999,1729430730885.0,0.0
0.148355,-7.551748,5.307281,121.870003,38.080002,16.1,1729430730905.0,0.0
-5.919843,-5.328816,6.826723,109.059998,0.35,19.530001,1729430730927.0,0.0
-6.111269,-8.051848,3.177669,109.059998,-72.730003,0.63,1729430730945.0,0.0
-2.888137,-15.048461,-3.708875,-57.330002,-108.150002,4.48,1729430730966.0,0.0
-0.521635,-9.88475,-5.190032,-50.540001,-149.240005,-4.13,1729430730987.0,0.0
-3.098706,-12.473784,-11.119448,2.03,-152.669998,-12.18,1729430731005.0,0.0
-9.815358,-2.378466,-15.163318,-199.149994,4.34,-17.5,1729430731028.0,0.0
-8.903693,-7.066005,-19.523039,-218.050003,12.25,-14.07,1729430731046.0,0.0
-5.438886,-10.638489,-12.882957,-20.790001,1.61,36.470001,1729430731066.0,0.0
-3.0006,-8.446664,-8.848659,207.550003,48.93,25.83,1729430731086.0,0.0
-3.730411,-4.62054,-2.902494,226.240005,105.559998,-17.290001,1729430731106.0,0.0
-4.307081,-6.293124,-4.051049,45.920002,88.340004,-20.65,1729430731126.0,0.0
-1.641476,-5.754738,-7.348359,-146.440002,72.379997,-35.490002,1729430731145.0,0.0
2.26361,-8.561519,-0.459422,-154.0,43.330002,2.52,1729430731166.0,0.0
0.258425,-9.157332,1.435694,121.099998,43.540001,2.52,1729430731185.0,0.0
-5.881558,-4.737789,9.437292,174.649994,24.5,-14.07,1729430731205.0,0.0
-6.951149,-8.68116,2.160719,24.710001,-57.540001,-11.55,1729430731227.0,0.0
-4.24726,-10.365707,0.066999,-89.110001,-99.330002,-33.110001,1729430731246.0,0.0
-0.492921,-10.339387,-12.703495,-33.040001,-140.350006,-1.89,1729430731266.0,0.0
-4.67079,-3.211168,-16.247265,-76.300003,-101.849998,-35.630001,1729430731286.0,0.0
-7.616355,-4.529613,-20.372492,-185.639999,47.599998,-2.73,1729430731305.0,0.0
-6.446264,-7.556533,-14.935998,-129.430008,7.91,33.389999,1729430731326.0,0.0
-3.101098,-9.355937,-7.130611,81.340004,28.139999,50.049999,1729430731346.0,0.0
-4.352544,-7.274181,-4.098906,182.139999,79.870003,14.56,1729430731369.0,0.0
-5.245068,-5.391029,-3.881158,108.989998,85.75,-5.18,1729430731386.0,0.0
-1.646262,-5.003392,-10.652846,-11.9,58.310001,-9.31,1729430731412.0,0.0
0.710668,-6.783652,-2.696711,-67.900002,47.740002,19.389999,1729430731426.0,0.0
1.344766,-6.932007,-0.232104,22.75,46.060001,37.170002,1729430731447.0,0.0
-0.624527,-7.355537,3.629912,147.559998,42.139999,28.84,1729430731465.0,0.0
-7.142576,-6.862615,5.709275,159.600006,3.5,33.950001,1729430731486.0,0.0
-5.142176,-10.9017,-0.251246,70.769997,-46.48,17.710001,1729430731505.0,0.0
-2.012364,-9.693325,-0.957129,39.619999,-118.160004,-4.69,1729430731527.0,0.0
-1.698904,-12.701102,-11.691331,61.740002,-130.479996,-1.19,1729430731545.0,0.0
-6.034698,-3.026921,-14.672788,-101.43,-34.860001,-16.799999,1729430731565.0,0.0
-7.04447,-8.551948,-18.987047,-237.229996,20.860001,-4.69,1729430731585.0,0.0
-5.525027,-11.631511,-14.220546,-161.559998,0.14,23.379999,1729430731605.0,0.0
-2.574677,-10.030712,-6.958328,60.060001,28.49,18.76,1729430731626.0,0.0
-3.512664,-7.015756,-0.830309,171.149994,83.860001,-9.87,1729430731646.0,0.0
-4.462614,-5.352744,-6.685547,68.389999,87.989998,-31.99,1729430731666.0,0.0
-1.588834,-6.599405,-5.266603,-56.139999,63.700001,-32.970001,1729430731686.0,0.0
0.236889,-5.659025,-1.969293,-114.449997,34.439999,2.66,1729430731705.0,0.0
0.0335,-8.11167,-0.928415,-66.220001,45.43,-9.45,1729430731726.0,0.0
-4.864608,-8.561519,4.350152,-10.43,36.889999,-19.74,1729430731745.0,0.0
-7.470392,-9.516255,4.965107,22.610001,-24.639999,-17.780001,1729430731766.0,0.0
-3.87398,-12.708281,0.133998,49.139999,-75.25,-31.43,1729430731786.0,0.0
-0.902094,-8.772088,-0.497707,49.139999,-104.090004,-34.509998,1729430731805.0,0.0
-1.165305,-6.15434,-9.946963,9.38,-133.0,-41.720001,1729430731826.0,0.0
-4.108476,-5.821737,-19.826929,-149.240005,-48.720001,0.56,1729430731845.0,0.0
-3.811767,-8.798409,-18.783657,-113.75,10.36,30.66,1729430731865.0,0.0
-3.096312,-8.985049,-7.022934,43.75,48.02,38.080002,1729430731886.0,0.0
-5.005785,-5.898308,-2.904887,136.430008,100.449997,16.450001,1729430731905.0,0.0
-6.197411,-4.06062,-2.758924,69.090004,85.82,-3.29,1729430731926.0,0.0
-2.646462,-6.321837,-10.447062,-36.259998,54.32,-5.81,1729430731946.0,0.0
0.069392,-6.269196,-4.73061,-89.949997,63.209999,8.26,1729430731966.0,0.0
0.921237,-6.556334,-1.596013,-57.82,51.380001,23.73,1729430731985.0,0.0
-1.320838,-9.343972,3.964907,-10.64,61.599998,-2.31,1729430732005.0,0.0
-4.859823,-9.492328,2.969493,41.16,12.74,-5.18,1729430732027.0,0.0
-3.931407,-7.673782,2.143969,62.439999,-37.380001,-18.34,1729430732046.0,0.0
-2.28036,-10.770095,-3.462414,16.799999,-71.050003,-21.91,1729430732066.0,0.0
-1.256232,-8.001599,-1.78026,-33.599998,-97.230003,-25.83,1729430732085.0,0.0
-2.565106,-10.054641,-12.335001,-23.309999,-119.419998,2.38,1729430732105.0,0.0
-6.67119,-5.642276,-19.707287,-108.779999,-25.83,-22.190001,1729430732130.0,0.0
-8.367701,-7.156933,-17.405392,-137.899994,52.990002,10.36,1729430732146.0,0.0
-5.532206,-6.798009,-4.125226,-11.13,14.56,39.619999,1729430732165.0,0.0
-4.85743,-9.585647,-3.017349,67.550003,52.639999,13.93,1729430732185.0,0.0
-5.309673,-8.965906,-6.273981,2.94,57.610001,-13.79,1729430732204.0,0.0
-3.275774,-5.831308,-10.593026,-85.540001,47.950001,-26.25,1729430732226.0,0.0
-0.837488,-5.793024,-3.493521,-107.520004,44.66,3.01,1729430732245.0,0.0
-0.72024,-7.762317,-3.227918,-61.25,31.780001,0.63,1729430732265.0,0.0
-2.299503,-10.334601,-4.39083,23.030001,44.380001,-17.57,1729430732284.0,0.0
-2.124826,-7.412964,-3.63709,80.43,20.02,-18.83,1729430732306.0,0.0
-1.933401,-4.893322,-2.019542,32.759998,2.73,-19.6,1729430732327.0,0.0
-2.569891,-6.707082,-1.883151,-48.23,-16.450001,-18.34,1729430732345.0,0.0
-2.813959,-8.154739,-3.412165,-94.150002,-38.360001,-24.43,1729430732369.0,0.0
-2.526821,-7.89153,-5.474778,-118.93,-53.970001,-38.43,1729430732384.0,0.0
-2.443072,-6.989435,-5.690133,-150.289993,-66.779999,-44.52,1729430732404.0,0.0
-1.883151,-5.781059,-6.101698,-157.5,-80.150002,-43.75,1729430732427.0,0.0
-1.959722,-4.73061,-8.063812,-128.240005,-92.330002,-37.240002,1729430732445.0,0.0
-2.699104,-4.299902,-10.348958,-73.639999,-78.959999,-36.75,1729430732464.0,0.0
-3.912265,-4.890929,-11.320443,-29.82,-68.669998,-25.969999,1729430732485.0,0.0
-3.046063,-1.770689,-10.786844,12.11,-55.02,-2.31,1729430732504.0,0.0
-2.629712,-0.775275,-12.23211,96.949997,-28.280001,39.549999,1729430732527.0,0.0
-1.715654,1.411765,-11.361122,123.340004,-1.89,66.849998,1729430732545.0,0.0
-2.335395,-2.840281,-10.650455,64.959999,16.450001,81.340004,1729430732565.0,0.0
-3.239882,-8.65484,-11.854043,46.619999,30.380001,75.32,1729430732584.0,0.0
-3.675375,-9.994821,-13.670196,143.570007,56.139999,59.779999,1729430732606.0,0.0
-2.818745,-12.01197,-5.168497,290.709991,62.439999,34.299999,1729430732625.0,0.0
-5.168497,-7.858029,0.26321,284.480011,49.91,4.55,1729430732655.0,0.0
-3.952943,-10.746166,-3.074777,270.619995,30.73,-40.740002,1729430732666.0,0.0
-2.210968,-8.178668,-5.606383,266.630005,-14.98,-48.509998,1729430732684.0,0.0
-2.35693,-7.295716,-4.740182,319.269989,-44.52,-24.85,1729430732706.0,0.0
-1.976472,-6.168696,-2.658426,302.959991,-18.059999,-25.48,1729430732726.0,0.0
-3.586841,-6.460621,-0.09332,170.520004,41.369999,-32.060001,1729430732744.0,0.0
-7.649854,-7.63789,5.010571,-39.200001,70.349998,-26.530001,1729430732765.0,0.0
-9.293723,-8.386844,5.223531,-222.600006,-11.55,-24.99,1729430732785.0,0.0
-6.915257,-6.439085,1.328017,-319.339996,-64.82,-22.4,1729430732804.0,0.0
-3.012564,-1.813759,-0.09332,-365.679993,-32.689999,-32.130001,1729430732827.0,0.0
-1.806581,1.854438,-10.662418,-451.360016,-49.560001,11.9,1729430732845.0,0.0
-2.514857,-4.130012,-13.564911,-339.079987,-80.010002,77.07,1729430732864.0,0.0
-3.184847,-10.887343,-11.499906,-147.419998,-47.040001,95.410004,1729430732884.0,0.0
-2.981457,-10.329816,-11.143374,-56.139999,-33.880001,88.059998,1729430732904.0,0.0
-2.641676,-10.9352,-12.746566,72.169998,-32.619999,49.84,1729430732926.0,0.0
-2.883351,-9.669396,-12.851851,164.360001,12.18,20.719999,1729430732944.0,0.0
-4.26401,-8.77448,-11.97847,222.25,31.57,2.03,1729430732965.0,0.0
-4.723432,-7.54457,-10.269995,233.520004,24.290001,-20.860001,1729430732986.0,0.0
-4.802395,-8.169096,-10.872985,267.959991,21.49,-27.299999,1729430733004.0,0.0
-3.739982,-8.343772,-6.494121,330.610016,9.45,-49.630001,1729430733026.0,0.0
-4.132405,-4.256832,3.816552,379.75,18.969999,-26.809999,1729430733045.0,0.0
-2.660819,-4.804788,0.452243,381.01001,0.56,-52.150002,1729430733065.0,0.0
-3.04367,-2.935993,-0.071785,196.910004,27.440001,-63.139999,1729430733084.0,0.0
-5.809773,-5.393422,-0.495314,-47.389999,47.110001,-27.440001,1729430733104.0,0.0
-5.276174,-8.769694,-2.538785,-158.199997,18.690001,-15.26,1729430733125.0,0.0
-5.285746,-12.890135,0.990629,-63.630001,-12.53,7.84,1729430733145.0,0.0
-1.4668,-14.715858,-1.674976,32.41,-37.66,-24.360001,1729430733165.0,0.0
-2.39043,-3.182454,-3.371487,9.31,48.299999,-4.2,1729430733184.0,0.0
-3.9673,0.083749,1.813759,-117.529999,42.279999,1.12,1729430733204.0,0.0
-4.642076,-2.098505,0.059821,-329.910004,-23.799999,15.75,1729430733225.0,0.0
-2.70389,-4.800002,-5.146961,-454.369995,-58.310001,29.120001,1729430733245.0,0.0
-2.924029,-5.517848,-9.506684,-433.649994,-47.880001,57.189999,1729430733266.0,0.0
-4.558327,-7.389036,-10.348958,-309.890015,-39.48,53.200001,1729430733284.0,0.0
-5.410172,-8.80798,-10.916058,-202.020004,-19.18,72.870003,1729430733304.0,0.0
-3.964907,-9.272188,-12.997812,-112.559998,-34.16,61.880001,1729430733325.0,0.0
-3.168097,-10.571491,-13.387842,-49.139999,-26.67,44.869999,1729430733345.0,0.0
-3.220739,-9.875179,-9.059227,18.27,-3.99,5.6,1729430733368.0,0.0
-3.713661,-7.838887,-7.353144,71.68,12.32,-25.48,1729430733385.0,0.0
-4.012764,-6.106483,-9.501899,88.760002,34.439999,-59.779999,1729430733404.0,0.0
-4.642076,-7.257431,-15.610775,145.039993,65.169998,-82.040001,1729430733427.0,0.0
-6.357729,-7.020542,-5.67099,275.869995,100.029999,-99.889999,1729430733452.0,0.0
-4.21376,-6.989435,-5.144568,336.839996,73.919998,-80.010002,1729430733465.0,0.0
-0.880559,-5.819345,-8.193025,395.5,4.06,-73.43,1729430733485.0,0.0
-3.235096,-4.776074,1.098306,477.610016,-15.190001,-8.26,1729430733505.0,0.0
-5.826523,-2.431108,3.330809,380.940002,18.620001,-6.51,1729430733525.0,0.0
-5.635098,-4.366901,1.89033,151.970001,41.23,-20.860001,1729430733545.0,0.0
-4.577469,-8.405986,0.224925,-70.489998,14.98,-18.83,1729430733564.0,0.0
-2.909672,-10.009177,-1.85683,-190.259995,-14.21,-12.04,1729430733584.0,0.0
-1.201197,-10.164711,0.545564,-261.869995,-1.19,-15.05,1729430733604.0,0.0
-1.698904,-6.089733,1.875973,-355.880005,16.379999,0.07,1729430733625.0,0.0
-1.244268,-0.081356,-1.435694,-434.0,-20.299999,17.01,1729430733644.0,0.0
-2.344966,0.600598,-5.709275,-444.640015,-47.880001,64.120003,1729430733664.0,0.0
-4.132405,-6.104091,-11.124231,-390.110016,-25.059999,76.510002,1729430733684.0,0.0
-4.682754,-8.870193,-13.873586,-311.640015,-10.22,65.099998,1729430733704.0,0.0
-4.316652,-11.877973,-12.263215,-153.649994,-35.630001,77.629997,1729430733727.0,0.0
-3.337988,-9.994821,-8.745767,-28.630001,-38.57,62.580002,1729430733745.0,0.0
-3.239882,-9.040084,-8.4012,48.790001,-20.790001,35.630001,1729430733764.0,0.0
-3.538985,-7.63789,-9.068797,79.449997,6.65,-2.59,1729430733785.0,0.0
-3.87398,-8.915657,-10.195816,93.940002,4.2,-23.870001,1729430733804.0,0.0
-3.225525,-9.226725,-12.780065,124.25,4.83,-52.57,1729430733825.0,0.0
-3.005385,-7.99442,-14.462219,245.0,27.23,-80.57,1729430733845.0,0.0
-6.278766,-4.924429,0.863809,531.650024,82.879997,-40.459999,1729430733865.0,0.0
-2.971886,-2.902494,-7.030113,510.720001,17.360001,-56.279999,1729430733884.0,0.0
-1.304088,-3.369094,-0.768096,479.850006,-41.369999,-48.369999,1729430733903.0,0.0
-2.057827,-3.194418,0.471386,361.619995,-44.029999,3.99,1729430733926.0,0.0
-3.371487,-5.302495,2.318645,177.309998,-3.29,-25.690001,1729430733944.0,0.0
-6.070591,-7.216753,4.058227,-4.41,45.009998,4.13,1729430733966.0,0.0
-4.766503,-9.62154,-0.028714,-83.230003,3.36,-21.49,1729430733984.0,0.0
-3.395415,-12.000006,-2.467,-69.440002,-40.18,-15.68,1729430734004.0,0.0
-2.084148,-12.490535,-0.236889,-63.139999,-7.28,-20.790001,1729430734035.0,0.0
-2.565106,-8.379664,-0.246461,-201.110001,69.93,-24.08,1729430734044.0,0.0
-4.859823,-6.716653,5.953342,-393.890015,73.919998,-28.559999,1729430734064.0,0.0
-2.888137,-0.638884,3.014957,-568.960022,-55.720001,-39.689999,1729430734083.0,0.0
-1.411765,1.732404,-4.359723,-594.22998,-110.389999,31.92,1729430734104.0,0.0
-1.923829,-2.452643,-13.677374,-475.720001,-66.43,51.450001,1729430734124.0,0.0
-3.254239,-8.379664,-17.383856,-343.140015,-33.810001,65.519997,1729430734144.0,0.0
-4.130012,-11.751152,-9.937392,-182.559998,-17.08,77.910004,1729430734170.0,0.0
-3.586841,-10.650455,-8.997013,-50.259998,-29.120001,61.110001,1729430734183.0,0.0
-3.136991,-8.10449,-8.961121,106.540001,-5.53,9.59,1729430734205.0,0.0
-3.29731,-6.455836,-9.506684,138.25,-5.46,-9.94,1729430734225.0,0.0
-3.412165,-6.843473,-11.925828,151.339996,-3.15,-30.73,1729430734244.0,0.0
-3.9673,-8.652447,-17.790636,224.490005,19.18,-50.959999,1729430734264.0,0.0
-4.019942,-10.557133,-13.619946,408.940002,63.560001,-77.139999,1729430734284.0,0.0
-6.331409,-5.65424,-0.485743,557.340027,103.949997,-26.25,1729430734303.0,0.0
-3.342773,-3.907479,-3.37388,642.530029,21.210001,-18.059999,1729430734325.0,0.0
-2.103291,-2.818745,-1.421337,563.5,-52.080002,-11.97,1729430734344.0,0.0
-1.007378,-3.976871,-2.622534,359.660004,-45.43,-18.34,1729430734367.0,0.0
-1.78026,-5.520242,4.13719,151.479996,-7.07,3.36,1729430734384.0,0.0
-2.656033,-6.474977,4.771288,-18.76,5.67,-2.24,1729430734404.0,0.0
-3.460021,-9.444471,2.87378,-71.82,-17.01,-8.75,1729430734435.0,0.0
-3.388237,-12.244074,2.801995,-37.52,-35.07,-12.04,1729430734444.0,0.0
-2.837888,-12.335001,0.361316,-9.38,-13.02,-20.51,1729430734463.0,0.0
-3.06042,-11.253445,0.684347,-48.23,29.190001,-19.32,1729430734484.0,0.0
-3.031706,-9.250652,1.210768,-209.789993,46.200001,-31.5,1729430734504.0,0.0
-3.323631,-7.623533,3.160919,-464.589996,10.08,-45.220001,1729430734527.0,0.0
-2.622534,-5.123034,1.586441,-532.97998,-49.77,-28.07,1729430734544.0,0.0
-1.808974,-2.550749,-3.28056,-490.0,-51.240002,-12.11,1729430734564.0,0.0
-1.79701,-4.034299,-8.429914,-385.0,-28.98,1.75,1729430734585.0,0.0
-3.471986,-8.159525,-12.000006,-287.559998,-44.799999,16.030001,1729430734603.0,0.0
-3.735196,-9.008978,-12.473784,-205.029999,-46.27,16.309999,1729430734625.0,0.0
-3.538985,-6.783652,-9.243474,-96.18,-15.89,22.82,1729430734644.0,0.0
-2.22054,-8.590233,-7.848458,-14.28,-2.45,-1.05,1729430734664.0,0.0
-1.529014,-7.508677,-7.74796,-13.79,-29.540001,-8.68,1729430734683.0,0.0
-1.928615,-5.694918,-7.82453,11.97,-23.309999,-8.96,1729430734704.0,0.0
-2.679961,-2.684747,-5.350351,28.210001,26.18,-5.04,1729430734725.0,0.0
-3.165704,-0.366102,-4.969893,24.780001,26.18,18.48,1729430734743.0,0.0
-3.558127,0.811167,-8.221739,-10.01,-20.299999,72.730003,1729430734765.0,0.0
-3.945765,-5.211568,-8.377272,-6.79,-20.23,82.949997,1729430734784.0,0.0
-3.156133,-8.953942,-8.894121,2.45,2.66,61.950001,1729430734804.0,0.0
-3.359523,-9.257831,-8.733803,26.25,-19.32,52.639999,1729430734826.0,0.0
-3.952943,-6.147161,-12.339786,38.779999,-14.63,24.639999,1729430734844.0,0.0
-5.615955,-7.252645,-11.901899,8.05,29.82,-28.139999,1729430734864.0,0.0
-5.146961,-7.412964,-12.337393,-1.47,33.32,-58.029999,1729430734883.0,0.0
-4.101298,-7.556533,-11.447264,44.799999,31.290001,-70.489998,1729430734904.0,0.0
-0.995414,-7.896315,-4.400401,107.379997,31.01,-97.160004,1729430734925.0,0.0
0.751346,-3.275774,-5.816952,170.800003,24.639999,-64.330002,1729430734944.0,0.0
2.835495,-7.958528,-1.447658,241.360001,-1.68,-67.830002,1729430734964.0,0.0
-1.564906,-9.540184,-4.692325,69.370003,22.120001,-70.699997,1729430734983.0,0.0
-6.479764,-8.693125,-0.150748,2.38,98.699997,-59.5,1729430735003.0,0.0
-6.125626,-9.001799,-2.943172,84.489998,67.199997,-27.51,1729430735024.0,0.0
-2.292324,-7.51107,-1.969293,158.199997,-64.959999,1.89,1729430735044.0,0.0
-2.148755,-7.23111,-3.400201,129.850006,-57.68,12.18,1729430735064.0,0.0
-4.352544,-7.661818,0.234497,-33.32,14.14,5.32,1729430735083.0,0.0
-5.4341,-2.519642,-0.368495,-286.089996,47.670002,15.4,1729430735103.0,0.0
-1.629512,0.270389,-6.269196,-355.110016,-60.619999,52.639999,1729430735124.0,0.0
-1.17009,-2.471786,-11.696117,-252.0,-124.809998,119.349998,1729430735143.0,0.0
-1.342373,-6.185446,-15.924235,-108.010002,-80.639999,123.199997,1729430735163.0,0.0
-3.180061,-8.525627,-9.631111,-35.349998,27.58,125.650002,1729430735183.0,0.0
-4.742575,-9.712467,-7.499106,38.849998,35.490002,75.809998,1729430735203.0,0.0
-3.728018,-9.109475,-8.226524,73.290001,-15.68,55.439999,1729430735224.0,0.0
-3.041277,-8.879765,-9.312866,87.639999,-33.599998,8.75,1729430735245.0,0.0
-3.632305,-9.564112,-13.71566,64.120003,-6.51,-54.670002,1729430735263.0,0.0
-3.797409,-9.415757,-16.541582,113.470001,27.299999,-110.669998,1729430735283.0,0.0
-2.538785,-5.608776,-6.860222,240.029999,38.290001,-115.989998,1729430735304.0,0.0
-2.400001,-3.900301,1.830509,333.899994,29.82,-80.57,1729430735326.0,0.0
-0.59342,-2.548356,-8.784052,240.869995,-16.379999,-96.529999,1729430735343.0,0.0
-1.969293,-4.938786,-2.275574,165.199997,6.79,-53.48,1729430735367.0,0.0
-4.924429,-7.209574,3.632305,69.93,53.48,-24.290001,1729430735383.0,0.0
-4.811966,-10.456635,-0.528814,73.290001,-1.19,-20.51,1729430735403.0,0.0
-3.292524,-8.334201,-7.489535,89.599998,-53.41,-17.57,1729430735426.0,0.0
-3.048456,-8.537591,-4.309474,141.820007,-29.049999,-1.89,1729430735444.0,0.0
-3.395415,-9.765109,-2.806781,64.120003,34.509998,-10.22,1729430735463.0,0.0
-5.175675,-9.370294,2.318645,-134.399994,78.120003,-24.360001,1729430735490.0,0.0
-5.046463,-3.766303,3.957729,-386.26001,16.24,-28.07,1729430735503.0,0.0
-0.346959,-0.358923,-5.084748,-472.429993,-77.910004,46.619999,1729430735526.0,0.0
-0.717847,-5.304887,-10.660025,-365.329987,-81.410004,74.340004,1729430735544.0,0.0
-2.270789,-7.250252,-13.878372,-234.850006,-62.93,112.419998,1729430735564.0,0.0
-2.658426,-7.649854,-12.394822,-69.440002,2.38,109.970001,1729430735583.0,0.0
-3.699304,-8.439486,-9.513863,7.35,22.75,90.300003,1729430735604.0,0.0
-3.201597,-9.099905,-9.078369,42.84,-15.89,66.5,1729430735624.0,0.0
-2.976671,-7.984849,-7.513463,83.300003,-27.58,32.619999,1729430735746.0,0.0
-3.720839,-6.963113,-8.271988,95.620003,-13.37,-11.62,1729430735746.0,0.0
-4.342973,-7.439285,-11.298907,48.93,-4.83,-53.900002,1729430735746.0,0.0
-3.811767,-8.635696,-18.340984,53.060001,5.18,-88.970001,1729430735747.0,0.0
-2.321038,-9.745967,-10.715059,200.759995,23.1,-105.489998,1729430735747.0,0.0
-1.246661,-2.538785,-3.309274,324.309998,47.110001,-82.110001,1729430735747.0,0.0
-1.007378,-2.129612,-4.756931,385.700012,35.630001,-67.690002,1729430735766.0,0.0
-1.418944,-4.809574,0.435494,296.730011,19.389999,-57.68,1729430735785.0,0.0
-3.29731,-7.077969,1.141376,48.16,20.370001,-26.530001,1729430735805.0,0.0
-4.82393,-8.973085,-1.507478,-14.42,-10.22,-19.18,1729430735826.0,0.0
-6.290731,-9.676575,-1.931008,14.42,-13.440001,-9.94,1729430735845.0,0.0
-4.108476,-10.992627,-3.883551,31.780001,7.84,-23.450001,1729430735875.0,0.0
-4.532006,-10.411172,0.035892,-63.07,20.51,-27.65,1729430735885.0,0.0
-4.914857,-0.648455,3.95055,-354.269989,5.6,-39.48,1729430735905.0,0.0
-2.112862,4.843073,-5.192425,-591.849976,-51.869999,34.860001,1729430735926.0,0.0
0.160319,-3.125026,-9.422935,-442.119995,-95.550003,66.010002,1729430735945.0,0.0
-2.120041,-9.523434,-9.49472,-223.020004,-101.779999,106.959999,1729430735966.0,0.0
-2.132005,-5.730811,-16.376478,-124.949997,-19.6,92.68,1729430735984.0,0.0
-1.765903,-9.506684,-13.167704,-4.41,7.35,75.739998,1729430736004.0,0.0
-2.533999,-8.650054,-7.133004,15.54,-15.4,61.32,1729430736028.0,0.0
-3.361916,-8.243275,-7.049256,49.700001,-8.68,10.57,1729430736045.0,0.0
-4.13719,-7.922636,-10.727024,48.720001,1.68,-28.210001,1729430736075.0,0.0
-4.17069,-7.960921,-15.41935,34.02,-4.48,-64.470001,1729430736085.0,0.0
-4.101298,-10.947165,-20.051853,119.0,15.75,-89.809998,1729430736107.0,0.0
-1.201197,-2.471786,-5.649454,267.049988,49.98,-119.0,1729430736125.0,0.0
-0.832702,-2.648855,-3.960121,455.630005,44.099998,-60.760002,1729430736145.0,0.0
0.145962,-0.210568,-2.837888,364.559998,12.39,-67.550003,1729430736167.0,0.0
-1.007378,-5.709275,2.055435,232.960007,25.41,-38.709999,1729430736184.0,0.0
-3.428915,-8.350951,-0.835095,83.440002,20.02,-21.77,1729430736208.0,0.0
-4.838287,-7.953743,-2.136791,22.049999,-15.190001,-13.65,1729430736225.0,0.0
-6.092126,-9.355937,1.086342,57.75,-32.34,8.82,1729430736244.0,0.0
-5.276174,-10.272388,-3.098706,60.130001,-14.07,-12.39,1729430736266.0,0.0
-4.388437,-11.169697,-0.550349,-40.670002,24.219999,-34.16,1729430736284.0,0.0
-4.974678,-5.010571,4.689932,-313.459991,28.42,-39.060001,1729430736306.0,0.0
-1.579263,5.522634,-0.031107,-588.419983,-55.860001,-11.83,1729430736327.0,0.0
1.165305,4.304688,-12.370893,-558.109985,-113.68,62.16,1729430736347.0,0.0
-1.56012,-6.987042,-15.483955,-269.220001,-107.730003,110.040001,1729430736511.0,0.0
-3.079563,-9.458827,-12.725031,-144.270004,-29.190001,92.470001,1729430736512.0,0.0
-2.512464,-11.633904,-11.980864,-97.580002,44.170002,55.439999,1729430736512.0,0.0
-1.785046,-10.743774,-8.803195,31.57,-33.110001,26.880001,1729430736512.0,0.0
-1.962115,-6.106483,-8.664411,104.370003,-35.77,13.23,1729430736512.0,0.0
-3.469593,-6.463014,-15.936199,102.620003,-1.4,-28.559999,1729430736513.0,0.0
-4.398008,-11.830115,-18.563519,151.199997,60.200001,-69.510002,1729430736513.0,0.0
-3.414558,-7.752745,-5.974878,242.199997,64.260002,-69.720001,1729430736513.0,0.0
-1.777867,-4.244867,-4.113262,327.880005,55.580002,-42.630001,1729430736525.0,0.0
-0.488136,-1.911865,-3.78066,364.0,-9.1,-35.07,1729430736544.0,0.0
0.37328,-6.197411,-3.20399,384.579987,-11.83,-29.68,1729430736564.0,0.0
-1.409373,-6.367301,1.648655,328.299988,19.879999,0.42,1729430736583.0,0.0
-4.713861,-6.585048,0.133998,210.910004,50.330002,5.6,1729430736603.0,0.0
-5.285746,-8.212167,0.693919,83.580002,26.32,4.41,1729430736624.0,0.0
-4.421937,-9.822537,-0.129212,-21.559999,-31.92,-2.66,1729430736643.0,0.0
-3.972085,-10.870593,-0.339781,-105.139999,-28.630001,-14.91,1729430736663.0,0.0
-4.582255,-10.942378,0.636491,-206.009995,23.59,-21.35,1729430736683.0,0.0
-4.981857,-3.084348,3.144169,-385.48999,7.35,-47.110001,1729430736703.0,0.0
-1.663012,10.281959,-4.486543,-618.099976,-74.129997,-2.52,1729430736723.0,0.0
-0.332602,4.326223,-15.751952,-573.929993,-112.279999,75.32,1729430736744.0,0.0
-2.574677,-9.068797,-19.786251,-315.070007,-72.029999,103.529999,1729430736763.0,0.0
-4.240082,-13.916656,-9.305687,-196.630005,31.639999,88.480003,1729430736783.0,0.0
-2.15354,-10.671989,-8.38445,31.85,-14.21,30.52,1729430736803.0,0.0
-1.241875,-6.4343,-7.932207,130.899994,-57.68,28.91,1729430736823.0,0.0
-0.921237,-4.67079,-8.530413,112.840004,-39.060001,-7.21,1729430736844.0,0.0
-2.072184,-6.496514,-12.799208,54.950001,4.34,-34.16,1729430736863.0,0.0
-2.876173,-9.489935,-14.146368,79.449997,41.650002,-56.77,1729430736882.0,0.0
-2.74696,-8.54477,-7.999206,160.509995,35.139999,-48.369999,1729430736903.0,0.0
-1.249053,-4.816752,-6.530013,217.770004,19.32,-52.290001,1729430736923.0,0.0
-0.937986,-3.323631,-9.827322,251.300003,6.58,-29.33,1729430736943.0,0.0
-1.318445,-7.805387,-3.172883,334.110016,0.56,-14.42,1729430736965.0,0.0
-1.799403,-9.004191,1.06002,434.980011,39.200001,-14.77,1729430736985.0,0.0
-3.919443,-9.439686,-2.656033,461.299988,50.189999,-8.47,1729430737004.0,0.0
-7.989635,-8.140383,0.583849,309.820007,65.519997,-0.7,1729430737025.0,0.0
-8.061419,-6.9344,3.771089,73.360001,16.59,-4.83,1729430737043.0,0.0
-4.31426,-7.06122,-0.502493,-141.259995,-70.349998,-30.030001,1729430737065.0,0.0
-2.301895,-9.317651,-0.76331,-280.910004,-46.619999,-40.670002,1729430737083.0,0.0
-3.39063,-6.221339,2.866602,-421.540009,1.68,-15.61,1729430737104.0,0.0
-0.320638,11.081161,-8.35813,-590.940002,-19.950001,-7.49,1729430737124.0,0.0
-2.610569,4.541577,-18.561125,-454.230011,-90.93,134.119995,1729430737144.0,0.0
-2.29711,-16.268801,-11.653046,-94.150002,-30.940001,79.169998,1729430737164.0,0.0
-5.290531,-11.198411,-10.475778,-232.820007,55.16,89.809998,1729430737183.0,0.0
-2.512464,-14.323436,-8.322237,-0.91,-3.57,21.210001,1729430737203.0,0.0
-2.108077,-8.245667,-7.267002,126.419998,-48.299999,26.25,1729430737224.0,0.0
-1.481157,-5.149354,-7.960921,140.279999,-41.580002,-14.28,1729430737244.0,0.0
-2.45025,-6.233303,-10.9017,90.230003,-12.95,-37.310001,1729430737263.0,0.0
-2.79721,-9.638289,-14.610575,80.080002,14.42,-62.439999,1729430737283.0,0.0
-2.533999,-10.112068,-11.940186,179.899994,10.92,-58.380001,1729430737303.0,0.0
-1.01695,-5.268995,-7.814958,337.540009,20.299999,-44.869999,1729430737324.0,0.0
-1.06002,-4.893322,-2.182254,486.5,23.940001,-19.530001,1729430737347.0,0.0
-0.457029,-5.352744,-2.500499,422.730011,19.950001,-33.599998,1729430737368.0,0.0
-2.440679,-3.622734,-2.189433,172.479996,23.24,-27.58,1729430737384.0,0.0
-5.869594,-5.496314,-0.818345,-25.549999,63.209999,2.24,1729430737404.0,0.0
-9.49472,-10.581062,3.177669,-51.170002,36.259998,24.15,1729430737427.0,0.0
-5.668597,-10.557133,-3.574877,-44.66,-37.939999,-14.63,1729430737444.0,0.0
-3.534199,-10.841879,-2.885744,-6.51,-17.290001,-17.5,1729430737464.0,0.0
-5.237889,-5.680561,1.581656,-199.009995,40.040001,-16.799999,1729430737483.0,0.0
-1.969293,6.661618,-1.524228,-477.610016,-20.93,-3.71,1729430737506.0,0.0
-0.684347,7.195218,-13.49552,-562.940002,-87.989998,87.919998,1729430737536.0,0.0
-2.048256,-5.986843,-17.903099,-409.01001,-54.810001,92.470001,1729430737544.0,0.0
-3.158526,-18.144773,-7.999206,-223.580002,-5.39,72.379997,1729430737565.0,0.0
-3.342773,-12.79203,-10.305886,-181.720001,21.629999,48.369999,1729430737583.0,0.0
-2.184647,-10.80838,-9.822537,56.07,-27.02,17.92,1729430737603.0,0.0
-1.292124,-7.575676,-8.748159,110.040001,-31.01,-14.63,1729430737626.0,0.0
-1.737189,-6.209375,-9.150154,89.949997,-12.53,-47.950001,1729430737645.0,0.0
-2.478964,-6.355337,-15.617953,70.699997,13.93,-76.510002,1729430737665.0,0.0
-2.756532,-8.944371,-14.05544,158.270004,46.830002,-87.919998,1729430737683.0,0.0
-2.811567,-5.929415,-5.618347,268.940002,73.5,-82.669998,1729430737704.0,0.0
-2.785245,-5.462814,-2.584249,363.230011,80.220001,-72.660004,1729430737724.0,0.0
-1.986043,-4.295116,-7.965706,381.290009,31.219999,-32.130001,1729430737744.0,0.0
-2.871387,-6.56112,-1.270589,429.170013,-32.200001,16.24,1729430737764.0,0.0
-3.917051,-5.458029,0.131605,324.730011,-25.41,-15.96,1729430737784.0,0.0
-8.446664,-6.819544,0.705883,101.849998,52.779999,-11.69,1729430737804.0,0.0
-5.314459,-7.800602,-1.225125,-150.360001,-31.92,-25.27,1729430737826.0,0.0
-3.809374,-10.975878,3.081956,-219.309998,-73.5,-20.299999,1729430737843.0,0.0
-1.213161,-0.303888,-2.321038,-391.649994,-27.58,-21.139999,1729430737864.0,0.0
0.363709,10.765309,-9.422935,-543.549988,-64.540001,65.449997,1729430737890.0,0.0
-2.790031,-0.277567,-18.924833,-345.170013,-79.169998,134.119995,1729430737904.0,0.0
-3.177669,-14.991035,-5.546563,-106.400002,3.36,91.629997,1729430737926.0,0.0
-4.601398,-11.157731,-10.19821,-226.869995,50.75,81.129997,1729430737946.0,0.0
-2.031506,-12.363714,-9.786645,-30.799999,-39.27,40.950001,1729430737965.0,0.0
-1.564906,-8.458629,-8.709875,71.190002,-65.169998,20.09,1729430737984.0,0.0
-1.871187,-7.128219,-9.406186,54.670002,-19.74,-36.540001,1729430738004.0,0.0
-3.397808,-7.889136,-16.907684,29.889999,36.259998,-76.230003,1729430738026.0,0.0
-3.378666,-12.196217,-16.304693,163.169998,61.950001,-100.519997,1729430738044.0,0.0
-3.45045,-5.635098,-5.685347,319.200012,78.260002,-77.07,1729430738065.0,0.0
-3.311667,-5.781059,-3.292524,488.040009,76.650002,-39.34,1729430738084.0,0.0
-0.866202,-3.711268,0.16989,318.149994,-0.42,-39.830002,1729430738104.0,0.0
-1.682154,-5.970093,-2.672783,17.219999,4.34,-47.32,1729430738128.0,0.0
-4.835894,-7.551748,-1.718047,-166.949997,39.34,-14.28,1729430738147.0,0.0
-4.931608,-10.255639,-0.208176,-100.309998,15.75,-1.82,1729430738166.0,0.0
-5.371887,-10.990234,2.347359,-12.88,-25.200001,-6.23,1729430738184.0,0.0
-4.869394,-7.922636,-0.055035,-97.860001,-9.38,-36.119999,1729430738204.0,0.0
-3.019742,5.099105,-3.242275,-381.290009,-10.01,-18.27,1729430738229.0,0.0
-0.775275,5.082355,-10.557133,-450.100006,-72.449997,74.269997,1729430738246.0,0.0
-1.081556,-5.503492,-13.550553,-269.920013,-84.559998,81.410004,1729430738267.0,0.0
-1.916651,-11.63869,-11.787045,-177.380005,-41.580002,94.639999,1729430738285.0,0.0
-0.832702,-11.23191,-10.085747,-117.18,-9.73,65.309998,1729430738306.0,0.0
-1.282553,-9.518648,-8.271988,31.780001,-31.01,37.240002,1729430738328.0,0.0
-2.203789,-6.675975,-9.013763,72.379997,-3.71,5.53,1729430738345.0,0.0
-3.347559,-6.726225,-11.703296,26.040001,21.139999,-32.130001,1729430738369.0,0.0
-4.07737,-9.387043,-18.355343,-11.97,18.83,-53.41,1729430738385.0,0.0
-2.48375,-11.117055,-13.442878,209.440002,32.830002,-69.090004,1729430738404.0,0.0
-2.112862,-7.721639,-4.316652,360.5,73.989998,-66.849998,1729430738427.0,0.0
-3.160919,-6.022735,1.454836,414.540009,88.620003,-74.059998,1729430738445.0,0.0
-1.921437,-4.749753,-5.54417,333.619995,47.740002,-59.639999,1729430738464.0,0.0
-0.655633,-4.802395,-3.328416,222.110001,-39.900002,-40.880001,1729430738485.0,0.0
-1.852045,-5.371887,-2.282753,145.110001,-12.04,-21.700001,1729430738504.0,0.0
-4.156333,-5.608776,1.167697,108.220001,54.880001,-17.639999,1729430738525.0,0.0
-5.525027,-7.197611,2.409572,52.639999,49.77,-3.78,1729430738545.0,0.0
-5.28096,-8.616554,3.692125,-65.379997,-13.3,-10.22,1729430738565.0,0.0
-3.522235,-4.601398,2.79721,-274.75,-37.380001,-26.460001,1729430738584.0,0.0
-1.062413,8.102098,-5.362316,-554.470032,-72.800003,1.26,1729430738609.0,0.0
-1.272982,5.67099,-16.871792,-544.039978,-113.889999,96.32,1729430738625.0,0.0
-2.165504,-8.992228,-17.044075,-252.139999,-71.120003,120.260002,1729430738644.0,0.0
-3.976871,-13.383057,-10.609775,-230.720001,35.279999,102.129997,1729430738666.0,0.0
-2.76371,-14.957534,-10.502099,-126.840004,1.61,45.150002,1729430738685.0,0.0
-1.39023,-10.38485,-8.776874,43.400002,-60.060001,39.34,1729430738705.0,0.0
-1.007378,-6.647261,-11.365908,119.419998,-62.510002,-2.8,1729430738727.0,0.0
-2.232504,-8.46102,-17.304893,74.900002,13.02,-60.830002,1729430738745.0,0.0
-1.940579,-10.942378,-14.347364,186.970001,53.27,-84.769997,1729430738766.0,0.0
-2.021935,-5.804988,-4.134798,333.619995,75.459999,-61.25,1729430738785.0,0.0
-1.464408,-5.895915,0.193819,490.700012,60.27,-43.540001,1729430738806.0,0.0
-0.811167,-3.806981,-1.543371,477.330017,-5.53,-22.610001,1729430738826.0,0.0
-2.098505,-3.589234,-1.189233,290.98999,-17.08,-20.790001,1729430738845.0,0.0
-5.264209,-5.929415,-0.464208,84.629997,11.83,-5.39,1729430738866.0,0.0
-4.725825,-8.618947,-2.749353,14.35,-19.389999,9.38,1729430738885.0,0.0
-4.13719,-11.370694,-1.359123,14.63,-48.02,10.99,1729430738905.0,0.0
-4.208975,-12.294323,0.179462,-38.290001,8.33,-16.24,1729430738927.0,0.0
-5.168497,-6.496514,-1.081556,-200.410004,61.670002,-24.780001,1729430738946.0,0.0
-3.842873,-1.813759,1.129412,-346.149994,-16.870001,3.29,1729430738967.0,0.0
-0.368495,3.795017,-3.725625,-428.119995,-72.099998,39.41,1729430738988.0,0.0
-2.112862,0.413958,-10.827522,-393.820007,-53.900002,114.520004,1729430739005.0,0.0
-3.132205,-6.939186,-15.153747,-289.309998,-22.889999,94.5,1729430739032.0,0.0
-3.479164,-12.983455,-10.171888,-208.110001,-11.13,100.730003,1729430739046.0,0.0
-2.117648,-11.722438,-10.648061,-126.419998,-53.689999,63.420002,1729430739066.0,0.0
-1.402194,-10.444671,-9.640682,16.17,-57.82,10.85,1729430739086.0,0.0
-2.254039,-9.597611,-9.652647,27.299999,-20.299999,-32.830002,1729430739104.0,0.0
-3.091527,-9.229117,-13.887943,38.360001,13.23,-77.139999,1729430739126.0,0.0
-3.323631,-8.178668,-15.550954,164.220001,43.119999,-81.550003,1729430739146.0,0.0
-4.055835,-6.209375,-7.724032,355.320007,73.360001,-56.91,1729430739166.0,0.0
-5.98445,-5.4676,0.323031,467.73999,71.68,-50.75,1729430739185.0,0.0
-2.321038,-5.312066,-2.981457,405.089996,3.36,-33.880001,1729430739205.0,0.0
0.021535,-5.06082,-2.823531,241.220001,-39.900002,-26.18,1729430739226.0,0.0
-3.76391,-5.733203,-2.804388,138.740005,-4.34,-12.6,1729430739249.0,0.0
-6.742974,-6.865008,-1.481157,123.199997,42.139999,3.01,1729430739266.0,0.0
-5.642276,-9.894321,0.212961,52.709999,11.48,-7.21,1729430739285.0,0.0
-4.814359,-8.752945,2.761317,-122.290001,-0.28,-34.650002,1729430739306.0,0.0
-5.682954,-2.993421,0.926022,-372.470001,13.37,-27.299999,1729430739328.0,0.0
-2.09372,3.270989,-6.812366,-506.23999,-35.420002,4.83,1729430739345.0,0.0
-1.646262,-0.634098,-12.760924,-412.929993,-46.41,78.470001,1729430739369.0,0.0
-2.979064,-9.119047,-9.525827,-233.449997,-34.860001,89.529999,1729430739386.0,0.0
-3.007778,-10.109675,-10.360922,-190.259995,-0.84,71.400002,1729430739405.0,0.0
-2.029114,-10.537991,-8.635696,-89.18,-44.170002,44.450001,1729430739426.0,0.0
-1.567299,-9.492328,-9.399008,-35.630001,-45.150002,23.52,1729430739446.0,0.0
-1.981257,-9.650253,-9.281759,-3.29,-14.21,-14.35,1729430739464.0,0.0
-3.15374,-8.989835,-12.423534,17.639999,16.52,-43.330002,1729430739485.0,0.0
-4.007978,-9.312866,-20.173887,112.07,36.189999,-65.099998,1729430739505.0,0.0
-3.694518,-9.320045,-8.449057,281.959991,73.150002,-65.590004,1729430739526.0,0.0
-4.749753,-5.663811,0.105284,442.75,100.379997,-27.93,1729430739545.0,0.0
-2.218147,-3.431308,-3.596412,492.23999,15.47,-18.76,1729430739566.0,0.0
-0.086142,-2.531606,-3.254239,409.290009,-23.73,-21.280001,1729430739584.0,0.0
-2.428715,-3.227918,-0.722632,251.509995,34.580002,-2.52,1729430739604.0,0.0
-5.98445,-5.781059,-1.354338,118.720001,53.549999,20.65,1729430739626.0,0.0
-4.666004,-8.614161,-2.562713,61.599998,-12.6,17.360001,1729430739645.0,0.0
-3.299703,-11.971292,-1.538585,17.57,-31.710001,3.43,1729430739665.0,0.0
-4.029513,-10.875379,-0.071785,-54.389999,20.02,-11.97,1729430739685.0,0.0
-4.144369,-7.068398,0.502493,-190.680008,39.830002,-23.24,1729430739705.0,0.0
-1.976472,-0.100499,-1.409373,-342.369995,-7.49,-28.0,1729430739728.0,0.0
-3.105884,4.448257,-8.49452,-493.080017,-40.25,66.150002,1729430739745.0,0.0
-4.421937,-5.927022,-8.432307,-329.700012,-18.969999,76.650002,1729430739765.0,0.0
-4.067799,-8.626125,-13.682159,-263.480011,-1.47,56.349998,1729430739784.0,0.0
-3.096312,-10.470992,-12.169895,-192.220001,-48.23,77.349998,1729430739806.0,0.0
-1.938186,-11.94497,-9.135797,-69.93,-59.709999,50.119999,1729430739826.0,0.0
-2.493321,-9.162118,-8.480164,-4.69,-10.57,14.28,1729430739845.0,0.0
-4.065405,-7.482357,-7.939385,42.84,29.82,-28.280001,1729430739865.0,0.0
-4.606184,-6.987042,-9.456435,20.16,7.7,-38.080002,1729430739884.0,0.0
-3.629912,-7.616355,-16.108482,2.94,-24.219999,-47.740002,1729430739904.0,0.0
-2.931208,-11.440084,-15.21596,125.580002,11.13,-68.110001,1729430739934.0,0.0
-2.799603,-6.386444,-4.898108,258.720001,75.599998,-67.900002,1729430739945.0,0.0
-2.266003,-6.197411,-5.101498,370.720001,87.849998,-63.279999,1729430739965.0,0.0
-0.899701,-4.847858,-5.051248,385.0,29.190001,-39.970001,1729430739986.0,0.0
-0.583849,-5.458029,-0.949951,353.290009,-10.08,-13.58,1729430740004.0,0.0
-3.290131,-5.211568,-1.222732,261.309998,17.43,-17.639999,1729430740026.0,0.0
-5.209175,-7.068398,-1.208375,179.830002,32.130001,2.38,1729430740046.0,0.0
-3.45045,-7.992027,-0.318245,63.139999,-38.5,-4.41,1729430740066.0,0.0
-4.177868,-10.064213,-0.708275,-49.209999,-15.4,-2.1,1729430740085.0,0.0
-5.388636,-8.46102,-0.358923,-185.009995,25.48,-20.58,1729430740106.0,0.0
-4.402793,0.282353,1.806581,-353.149994,12.53,-19.950001,1729430740128.0,0.0
-2.335395,6.537192,-4.278367,-467.950012,-37.939999,36.470001,1729430740146.0,0.0
-2.720639,-1.18684,-10.650455,-417.339996,-55.439999,90.300003,1729430740166.0,0.0
-3.517449,-7.905886,-20.755344,-325.360016,-33.599998,74.269997,1729430740185.0,0.0
-3.78066,-15.414563,-9.430114,-146.860001,-28.0,77.769997,1729430740207.0,0.0
-2.421536,-10.387242,-9.312866,-82.32,-17.92,45.080002,1729430740228.0,0.0
-2.285146,-9.083155,-8.262416,57.119999,-19.6,11.06,1729430740246.0,0.0
-2.591427,-6.71426,-6.721439,53.41,1.19,-19.950001,1729430740266.0,0.0
-3.220739,-6.58744,-7.367501,11.62,4.27,-37.099998,1729430740286.0,0.0
-3.273381,-7.456036,-9.016156,-18.200001,-7.84,-46.970001,1729430740306.0,0.0
-3.120241,-7.69771,-9.925428,11.34,-9.52,-46.549999,1729430740326.0,0.0
-3.519842,-6.915257,-4.807181,127.82,10.29,-40.810001,1729430740349.0,0.0
-4.177868,-6.400801,-2.840281,194.880005,23.030001,-36.889999,1729430740370.0,0.0
-2.586641,-5.850451,-5.867201,189.490005,-13.86,-43.889999,1729430740386.0,0.0
-2.122434,-6.838687,-8.087741,148.470001,-55.16,-18.34,1729430740407.0,0.0
-2.344966,-7.302894,-4.74736,150.779999,-52.360001,-3.57,1729430740428.0,0.0
-3.103491,-7.922636,-4.35733,198.589996,-18.9,-1.12,1729430740447.0,0.0
-4.369294,-8.439486,-6.159126,270.829987,-8.89,13.440001,1729430740468.0,0.0
-4.725825,-10.667203,-5.484349,382.829987,-31.15,54.18,1729430740486.0,0.0
-3.249453,-10.112068,-3.579663,469.070007,-32.689999,38.990002,1729430740508.0,0.0
-4.063013,-6.915257,1.495514,436.309998,10.36,27.65,1729430740529.0,0.0
-6.805188,-4.914857,4.776074,230.860001,41.299999,33.950001,1729430740548.0,0.0
-6.939186,-8.446664,2.447858,5.18,5.04,5.74,1729430740567.0,0.0
-4.59422,-11.559726,-1.328017,-92.330002,-45.080002,-15.4,1729430740587.0,0.0
-2.691926,-11.641083,-1.785046,-34.439999,-31.15,-17.08,1729430740608.0,0.0
-3.486342,-9.662218,-0.753739,85.68,23.17,-7.7,1729430740629.0,0.0
-4.926822,-8.492127,0.574277,126.910004,49.560001,-8.05,1729430740715.0,0.0
-3.361916,-8.556733,2.321038,107.239998,-5.46,-5.81,1729430740718.0,0.0
-1.519442,-8.403593,2.947958,113.610001,-3.71,-10.78,1729430740720.0,0.0
-1.043271,-8.114061,3.125026,114.099998,22.540001,-17.219999,1729430740722.0,0.0
-1.287339,-7.49432,3.529413,77.559998,18.48,-5.95,1729430740729.0,0.0
-1.904687,-6.45105,5.178068,5.25,5.53,11.34,1729430740747.0,0.0
-2.572284,-8.444271,3.151347,-55.16,-14.14,13.02,1729430740767.0,0.0
-1.954936,-10.229317,2.488536,-34.509998,-38.849998,3.29,1729430740786.0,0.0
-0.641276,-7.805387,0.107677,43.330002,-33.670002,18.41,1729430740806.0,0.0
-4.216154,-5.876772,8.659625,112.840004,4.83,23.940001,1729430740828.0,0.0
-6.415157,-9.147761,7.341179,112.139999,-71.75,15.190001,1729430740846.0,0.0
-11.291731,-14.545969,-1.26341,298.480011,-99.82,-5.04,1729430740867.0,0.0
-2.993421,-9.052048,1.962115,594.299988,12.88,-39.689999,1729430740887.0,0.0
-1.868794,-4.290331,7.984849,573.299988,74.620003,-39.549999,1729430740906.0,0.0
-5.197211,-7.45125,9.896714,362.320007,32.900002,-62.369999,1729430740930.0,0.0
-4.101298,-10.152746,7.850852,194.389999,-20.51,-41.02,1729430740947.0,0.0
-1.691726,-7.003791,5.711668,167.089996,1.47,-49.77,1729430740967.0,0.0
-3.381058,-0.839881,5.230711,183.190002,35.560001,-57.470001,1729430740987.0,0.0
-3.957729,3.23031,5.513064,97.510002,29.540001,-17.360001,1729430741007.0,0.0
-5.228317,3.184847,6.465407,-2.73,40.529999,19.389999,1729430741028.0,0.0
-6.453443,1.270589,9.47797,-206.639999,50.189999,22.75,1729430741047.0,0.0
-5.316852,0.66999,10.231709,-435.26001,25.76,48.09,1729430741067.0,0.0
-5.644669,-2.397608,10.219746,-638.890015,27.790001,69.090004,1729430741086.0,0.0
-6.508478,-6.020342,7.077969,-859.669983,4.9,26.6,1729430741108.0,0.0
-5.28096,-6.546762,-1.78026,-1022.0,-63.420002,-9.17,1729430741128.0,0.0
-3.055635,-8.597411,-7.695317,-992.950012,-105.349998,-25.9,1729430741147.0,0.0
-2.720639,-6.381658,-10.135997,-822.849976,-43.049999,-19.67,1729430741167.0,0.0
-3.517449,-6.15434,-10.693524,-561.679993,38.990002,-13.16,1729430741187.0,0.0
-4.307081,-6.585048,-17.178074,-276.01001,37.66,-6.23,1729430741206.0,0.0
-5.623133,-11.212767,-11.562119,61.599998,35.420002,37.310001,1729430741228.0,0.0
-4.972286,-10.810772,-3.95055,409.850006,32.060001,41.860001,1729430741246.0,0.0
-6.041877,-5.261817,0.753739,686.210022,14.42,57.82,1729430741267.0,0.0
-5.091926,-4.584648,0.057428,781.27002,-50.259998,54.599998,1729430741286.0,0.0
-3.821337,-7.932207,-0.339781,740.320007,-27.51,-15.54,1729430741307.0,0.0
-5.87438,-9.942179,2.854637,682.640015,12.11,-18.200001,1729430741328.0,0.0
-2.330609,-5.749953,6.778866,651.070007,1.61,-29.75,1729430741346.0,0.0
-3.864408,-4.890929,8.965906,561.539978,45.5,-70.419998,1729430741371.0,0.0
-2.768496,-3.342773,8.085347,459.899994,9.38,-62.790001,1729430741386.0,0.0
-2.947958,-1.806581,9.186047,378.910004,24.43,-54.810001,1729430741406.0,0.0
-4.890929,-2.665605,9.107083,268.029999,-4.83,-29.610001,1729430741428.0,0.0
-4.445865,-1.770689,7.307681,189.910004,-14.28,-15.47,1729430741446.0,0.0
-4.275974,2.591427,6.80758,81.340004,19.74,-8.33,1729430741466.0,0.0
-5.563312,-0.26321,8.078169,-174.789993,16.450001,-14.28,1729430741487.0,0.0
-5.199604,-0.294317,8.037491,-464.519989,-11.34,-5.88,1729430741506.0,0.0
-3.778267,-0.023928,9.312866,-639.799988,-10.64,41.790001,1729430741527.0,0.0
-3.663411,-2.397608,11.117055,-763.070007,1.12,52.080002,1729430741548.0,0.0
-5.187639,-1.672583,7.152147,-939.400024,-12.32,9.8,1729430741566.0,0.0
-4.548756,-3.493521,-1.600798,-1024.940063,-87.919998,-19.74,1729430741586.0,0.0
-2.251646,-3.29731,-9.480364,-946.470032,-109.550003,-31.219999,1729430741616.0,0.0
-3.658626,-3.103491,-12.260822,-781.619995,-24.219999,-14.91,1729430741627.0,0.0
-6.60419,-9.408579,-18.374485,-572.320007,34.580002,-28.98,1729430741650.0,0.0
-4.996214,-13.835299,-13.24906,-242.270004,32.549999,35.07,1729430741667.0,0.0
-3.713661,-11.801401,-6.18784,334.110016,1.89,49.98,1729430741686.0,0.0
-4.697111,-6.326623,0.050249,664.299988,9.31,29.4,1729430741706.0,0.0
-6.616155,-8.506484,5.168497,884.23999,-46.549999,43.75,1729430741727.0,0.0
-4.534399,-10.545169,-6.52762,907.130005,-94.360001,-32.130001,1729430741746.0,0.0
-7.386643,-11.88515,-3.278167,947.52002,-8.75,-66.5,1729430741766.0,0.0
-2.041078,-7.188039,6.599405,910.910034,-12.25,-42.209999,1729430741786.0,0.0
-1.294517,-4.398008,13.854443,664.090027,86.169998,-102.970001,1729430741806.0,0.0
-2.333002,-3.799802,9.049655,346.570007,1.47,-122.220001,1729430741827.0,0.0
-2.957529,-1.505085,4.053442,201.25,-17.15,-64.540001,1729430741846.0,0.0
-2.536392,4.788038,4.058227,193.970001,24.710001,-52.920002,1729430742106.0,0.0
-3.893122,1.993221,7.484749,78.75,39.34,-17.5,1729430742106.0,0.0
-5.180461,-0.208176,6.778866,-161.839996,35.84,11.9,1729430742106.0,0.0
-4.850252,-2.254039,7.073184,-436.869995,21.84,49.84,1729430742106.0,0.0
-5.618347,-6.156733,6.056234,-693.909973,33.950001,69.93,1729430742107.0,0.0
-5.058427,-7.484749,-0.351745,-919.450012,-0.7,35.490002,1729430742107.0,0.0
-3.988836,-7.869993,-11.877973,-1059.380005,-91.910004,-0.21,1729430742107.0,0.0
-4.031906,-7.317252,-14.981462,-974.470032,-103.18,-50.82,1729430742108.0,0.0
-4.972286,-8.733803,-14.624931,-741.789978,27.16,-64.68,1729430742109.0,0.0
-2.701497,-10.313066,-13.095919,-447.649994,65.449997,-69.160004,1729430742109.0,0.0
-1.5003,-11.688939,-8.547162,-175.979996,0.42,-39.41,1729430742109.0,0.0
-2.921637,-10.296316,-1.294517,88.760002,17.710001,0.28,1729430742109.0,0.0
-6.309873,-5.592027,4.68754,745.01001,8.82,20.719999,1729430742210.0,0.0
-4.333402,-8.362915,-2.163112,898.590027,-66.779999,30.73,1729430742211.0,0.0
-0.217747,-5.431707,-8.319844,855.119995,-30.870001,-56.0,1729430742212.0,0.0
-3.768696,-6.039484,-0.050249,744.380005,80.709999,-12.04,1729430742213.0,0.0
-7.200003,-7.310073,3.754339,598.849976,30.52,-4.83,1729430742214.0,0.0
-2.845066,-8.200203,6.848258,483.910004,22.610001,-40.670002,1729430742228.0,0.0
-2.498107,-8.267202,5.793024,442.470001,54.459999,-93.169998,1729430742247.0,0.0
-4.888536,-2.380858,7.391429,416.640015,79.169998,-88.900002,1729430742277.0,0.0
-4.354938,3.139383,8.193025,239.960007,45.220001,-37.450001,1729430742287.0,0.0
-3.349952,1.564906,7.326823,64.400002,16.1,-13.3,1729430742306.0,0.0
-2.823531,-0.074178,7.996813,-68.459999,11.2,20.02,1729430742327.0,0.0
-3.617948,-0.638884,9.355937,-214.830002,14.21,45.849998,1729430742352.0,0.0
-3.311667,0.074178,10.095319,-430.640015,16.59,81.550003,1729430742369.0,0.0
-5.063213,0.291924,9.348758,-722.049988,32.619999,81.760002,1729430742388.0,0.0
-5.793024,-3.689733,6.951149,-951.51001,-33.599998,47.389999,1729430742406.0,0.0
-4.500899,-5.876772,-1.208375,-1079.119995,-122.57,-0.77,1729430742440.0,0.0
-3.194418,-8.382057,-10.179067,-1014.22998,-132.020004,-31.01,1729430742447.0,0.0
-2.526821,-7.23111,-13.533805,-803.320007,-33.529999,-50.82,1729430742467.0,0.0
-4.725825,-9.195618,-20.738594,-464.799988,83.440002,-24.15,1729430742503.0,0.0
-6.453443,-11.868401,-2.512464,-40.110001,77.419998,-5.53,1729430742568.0,0.0
-7.267002,-5.795416,6.072984,345.380005,41.509998,27.790001,1729430742571.0,0.0
