acc_x,acc_y,acc_z,gyr_x,gyr_y,gyr_z,timestamp,label
1.567299,-6.508478,-0.990629,-203.630005,-26.040001,-80.639999,1729473156776.0,0.0
1.497907,-6.443871,-0.748954,-212.309998,-19.18,-70.840004,1729473156781.0,0.0
1.213161,-5.673382,-1.014557,-224.630005,-19.67,-66.43,1729473156781.0,0.0
0.880559,-4.381258,-1.481157,-240.729996,-24.780001,-56.279999,1729473156782.0,0.0
0.765703,-1.363909,-1.399801,-264.459991,-37.939999,-34.93,1729473156782.0,0.0
1.277767,1.612763,-1.363909,-277.059998,-65.239998,-0.14,1729473156786.0,0.0
1.555335,2.067399,-3.189633,-300.160004,-95.760002,49.490002,1729473156806.0,0.0
-1.083949,-10.202995,-15.656239,-322.420013,-116.340004,77.980003,1729473156827.0,0.0
-0.33021,-20.135603,-19.764715,-54.18,-112.980003,45.009998,1729473156847.0,0.0
-0.136391,-20.621346,-22.679173,525.97998,-54.389999,134.259995,1729473156871.0,0.0
-3.256632,-5.71406,-26.194231,1141.209961,-4.2,241.5,1729473156891.0,0.0
-8.590233,3.024528,-15.627523,1383.969971,146.789993,187.740005,1729473156906.0,0.0
-22.576284,6.376873,2.493321,1231.22998,230.160004,125.300003,1729473156927.0,0.0
-18.671194,7.958528,14.632111,780.5,102.970001,55.790001,1729473156947.0,0.0
-5.096712,-2.038685,13.24188,166.529999,-35.630001,-67.480003,1729473156968.0,0.0
-2.945565,-11.514263,7.02772,-86.099998,-39.41,-88.199997,1729473156987.0,0.0
-2.199004,-9.966106,6.238089,-136.710007,-4.2,-92.75,1729473157007.0,0.0
-2.821138,-5.4006,8.410772,-175.0,5.04,-92.050003,1729473157027.0,0.0
-3.144169,-3.192025,8.145168,-245.210007,-14.14,-66.080002,1729473157047.0,0.0
-2.9671,-2.876173,5.517848,-354.200012,-39.549999,-62.510002,1729473157069.0,0.0
-1.710868,-4.965107,2.127219,-388.079987,-65.449997,-52.990002,1729473157086.0,0.0
-0.928415,-5.048856,-0.476172,-377.089996,-62.369999,-32.060001,1729473157106.0,0.0
-0.248854,-4.847858,-1.179662,-338.100006,-50.049999,-16.030001,1729473157127.0,0.0
-1.387837,-14.744574,-4.922036,-227.290009,-61.950001,-15.190001,1729473157147.0,0.0
-3.038885,-16.278372,-2.696711,39.34,-80.010002,-0.7,1729473157168.0,0.0
-4.24726,-7.305287,1.677369,400.959991,52.57,22.049999,1729473157187.0,0.0
-7.015756,-3.897908,4.539185,371.839996,67.550003,15.82,1729473157206.0,0.0
-7.728817,-4.180261,5.28096,173.389999,36.119999,-7.77,1729473157226.0,0.0
-5.491528,-6.597012,3.929015,-49.84,1.26,-31.08,1729473157247.0,0.0
-3.323631,-9.102298,1.397408,-201.25,-8.82,-38.43,1729473157268.0,0.0
-2.828316,-10.470992,-0.385244,-254.869995,2.17,-41.02,1729473157287.0,0.0
-2.900101,-10.762917,-0.928415,-221.270004,13.93,-31.360001,1729473157308.0,0.0
-3.144169,-9.743573,-0.748954,-157.710007,23.940001,-20.790001,1729473157328.0,0.0
-3.519842,-8.295916,-0.641276,-111.440002,23.379999,-13.72,1729473157347.0,0.0
-3.775874,-7.831708,-0.916451,-94.639999,14.07,-11.97,1729473157369.0,0.0
-3.67059,-8.30788,-1.215554,-100.449997,4.06,-13.440001,1729473157388.0,0.0
-3.366701,-8.750552,-1.694118,-105.769997,-0.49,-14.56,1729473157407.0,0.0
-3.29731,-8.920443,-1.878366,-108.080002,1.75,-13.58,1729473157428.0,0.0
-3.208775,-8.805587,-2.057827,-114.309998,2.73,-12.81,1729473157447.0,0.0
-3.091527,-8.843873,-2.258825,-118.720001,1.47,-10.85,1729473157469.0,0.0
-3.069991,-9.410972,-2.682354,-111.860001,1.12,-7.35,1729473157488.0,0.0
-3.053242,-10.073784,-3.268596,-84.279999,3.01,-3.01,1729473157507.0,0.0
-2.98385,-10.636096,-3.969693,13.3,6.02,4.48,1729473157529.0,0.0
-2.87378,-10.705488,-3.845266,99.959999,11.55,11.27,1729473157547.0,0.0
-3.012564,-9.499505,-2.486143,170.100006,22.960001,14.63,1729473157569.0,0.0
-3.333202,-8.286345,-0.801596,193.410004,31.639999,11.97,1729473157587.0,0.0
-3.584448,-7.695317,0.303888,161.279999,30.24,8.54,1729473157606.0,0.0
-3.598805,-7.810174,0.708275,98.139999,24.219999,4.2,1729473157627.0,0.0
-3.35713,-8.324631,0.308674,30.870001,15.4,-0.49,1729473157647.0,0.0
-3.069991,-8.733803,-0.320638,-16.450001,10.36,-2.66,1729473157668.0,0.0
-2.995814,-8.946764,-0.612563,-39.060001,9.59,-1.47,1729473157688.0,0.0
-3.058028,-9.154939,-0.899701,-45.43,8.75,0.21,1729473157710.0,0.0
-3.352344,-9.535398,-0.98345,-42.560001,6.51,0.98,1729473157726.0,0.0
-3.479164,-9.836893,-1.069592,-31.639999,3.15,2.03,1729473157748.0,0.0
-3.529413,-9.669396,-1.239482,-17.639999,1.82,1.33,1729473157769.0,0.0
-3.59402,-9.482756,-1.265803,-11.83,1.96,0.07,1729473157788.0,0.0
-3.744767,-9.645468,-1.399801,-12.67,0.84,-1.89,1729473157806.0,0.0
-3.706482,-9.678967,-1.337588,-12.81,0.14,-2.24,1729473157826.0,0.0
-3.436093,-9.635897,-1.366302,-4.69,-0.42,-3.43,1729473157848.0,0.0
-3.455236,-9.863215,-1.698904,6.44,0.21,-3.71,1729473157872.0,0.0
-3.328416,-10.34178,-1.995614,37.170002,-1.05,-2.45,1729473157886.0,0.0
-3.189633,-10.234102,-1.691726,77.840004,1.96,1.54,1729473157907.0,0.0
-3.321238,-9.24826,-0.744168,102.269997,10.5,0.35,1729473157927.0,0.0
-3.512664,-8.477771,-0.098106,88.900002,14.35,-3.92,1729473157949.0,0.0
-3.63709,-8.413164,0.244068,44.52,10.29,-6.02,1729473157968.0,0.0
-3.421736,-9.01137,-0.023928,0.07,2.59,-7.77,1729473157987.0,0.0
-3.160919,-9.571291,-0.394816,-18.9,-0.49,-7.56,1729473158006.0,0.0
-3.182454,-9.592826,-0.514457,-18.41,1.54,-7.77,1729473158028.0,0.0
-3.321238,-9.442079,-0.485743,-9.59,4.62,-7.84,1729473158048.0,0.0
-3.48395,-9.317651,-0.200997,-2.8,5.6,-7.91,1729473158069.0,0.0
-3.591627,-9.322437,0.088534,-1.68,5.04,-8.54,1729473158087.0,0.0
-3.639483,-9.485149,0.112463,-7.7,2.59,-9.94,1729473158106.0,0.0
-3.706482,-9.480364,0.083749,-15.190001,2.59,-11.62,1729473158127.0,0.0
-3.629912,-9.657433,0.047856,-18.9,-2.52,-12.81,1729473158147.0,0.0
-3.572484,-9.805787,-0.20339,-20.58,-4.55,-14.91,1729473158170.0,0.0
-3.448057,-9.872787,-0.5001,-17.85,-7.0,-17.99,1729473158187.0,0.0
-3.244668,-9.75793,-0.555135,-14.14,-6.79,-18.690001,1729473158212.0,0.0
-3.110669,-9.659825,-0.579063,-13.440001,-6.58,-19.879999,1729473158229.0,0.0
-3.072384,-9.499505,-0.617348,-19.67,-6.37,-23.379999,1729473158248.0,0.0
-2.928815,-9.525827,-0.765703,-32.060001,-7.28,-26.040001,1729473158268.0,0.0
-2.589034,-9.4349,-1.002593,-46.970001,-9.24,-29.75,1729473158286.0,0.0
-2.347359,-9.456435,-1.435694,-59.080002,-10.15,-31.99,1729473158307.0,0.0
-2.256432,-9.293723,-1.818545,-66.080002,-8.47,-34.369999,1729473158328.0,0.0
-2.148755,-9.049655,-2.045863,-72.169998,-6.86,-35.91,1729473158347.0,0.0
-2.029114,-8.786445,-2.249253,-81.480003,-6.93,-36.610001,1729473158370.0,0.0
-1.897508,-8.523234,-2.498107,-94.989998,-6.23,-38.009998,1729473158388.0,0.0
-1.725225,-8.197811,-2.952743,-116.830002,-4.62,-39.689999,1729473158408.0,0.0
-1.665405,-8.202596,-3.419343,-134.75,-4.48,-36.470001,1729473158430.0,0.0
-1.514657,-8.449057,-3.876373,-144.270004,-6.3,-32.48,1729473158447.0,0.0
-1.457229,-7.987241,-4.17069,-147.910004,-7.56,-30.030001,1729473158468.0,0.0
-1.718047,-7.843673,-4.096512,-154.490005,-5.39,-24.92,1729473158487.0,0.0
-1.926222,-7.709675,-4.735396,-162.820007,-7.21,-23.309999,1729473158509.0,0.0
-2.021935,-7.759924,-5.259424,-168.350006,-13.09,-19.74,1729473158527.0,0.0
-2.218147,-7.508677,-5.474778,-178.360001,-12.81,-20.65,1729473158547.0,0.0
-2.555535,-7.121039,-5.953342,-191.240005,-14.35,-23.870001,1729473158569.0,0.0
-2.727818,-7.226324,-6.972685,-190.539993,-20.860001,-23.59,1729473158587.0,0.0
-2.63689,-7.228717,-7.597212,-179.759995,-24.219999,-25.9,1729473158607.0,0.0
-2.720639,-6.843473,-8.193025,-165.690002,-24.639999,-28.700001,1729473158628.0,0.0
-2.785245,-6.573084,-8.750552,-147.279999,-21.77,-29.960001,1729473158648.0,0.0
-2.699104,-6.12084,-7.204789,-125.93,-20.02,-33.040001,1729473158670.0,0.0
-3.641876,-5.948557,-7.037291,-112.559998,-19.950001,-30.380001,1729473158689.0,0.0
-3.134598,-5.891129,-9.099905,-82.949997,-32.34,-36.889999,1729473158712.0,0.0
-2.249253,-5.821737,-9.736395,-40.670002,-32.900002,-33.25,1729473158729.0,0.0
-2.074577,-4.48415,-10.765309,3.01,-25.41,-28.07,1729473158749.0,0.0
-2.24686,-4.673182,-10.34178,26.530001,-11.9,-18.27,1729473158770.0,0.0
-1.85683,-4.591826,-10.839487,68.040001,3.71,-8.33,1729473158788.0,0.0
-1.131805,-3.76391,-8.793623,77.980003,13.3,1.33,1729473158809.0,0.0
-0.502493,-4.713861,-6.869793,56.91,14.0,3.78,1729473158828.0,0.0
0.088534,-6.199803,-6.74776,36.189999,12.18,1.33,1729473158848.0,0.0
0.378066,-7.4345,-6.623333,44.240002,7.42,1.26,1729473158874.0,0.0
0.404387,-7.836494,-6.128019,61.459999,5.88,-3.15,1729473158888.0,0.0
0.349352,-6.89133,-5.651847,66.290001,1.19,-9.94,1729473158908.0,0.0
-0.507278,-5.769095,-5.644669,42.209999,-6.51,-16.17,1729473158932.0,0.0
-1.935793,-5.615955,-6.329016,-3.22,-8.75,-19.040001,1729473158948.0,0.0
-1.268196,-5.919843,-6.652047,-47.32,-26.950001,-27.860001,1729473158969.0,0.0
-0.715454,-5.257031,-6.876972,-72.590004,-38.009998,-30.73,1729473158988.0,0.0
-1.698904,-3.902694,-7.185646,-99.330002,-38.290001,-31.710001,1729473159008.0,0.0
-2.9671,-4.34058,-9.274581,-115.57,-39.689999,-28.35,1729473159028.0,0.0
-3.751946,-5.613562,-11.49512,-76.230003,-33.32,-15.61,1729473159048.0,0.0
-4.256832,-4.936393,-11.655439,-4.2,-16.030001,0.28,1729473159070.0,0.0
-4.388437,-4.35733,-10.930414,21.280001,0.07,10.57,1729473159089.0,0.0
-1.68694,-5.395815,-9.772287,-22.610001,-1.19,4.69,1729473159110.0,0.0
-1.344766,-5.783452,-10.506885,-12.81,5.39,7.91,1729473159128.0,0.0
-1.337588,-4.35733,-10.212566,20.09,18.129999,13.86,1729473159148.0,0.0
-0.789631,-5.335995,-9.296116,31.01,26.040001,23.24,1729473159175.0,0.0
0.39003,-6.664011,-8.671589,27.93,28.210001,23.52,1729473159188.0,0.0
1.20359,-8.65484,-7.226324,44.380001,28.84,20.09,1729473159208.0,0.0
1.519442,-8.585447,-5.142176,76.230003,28.700001,10.5,1729473159228.0,0.0
0.851845,-6.563512,-4.249653,68.669998,22.960001,-7.98,1729473159248.0,0.0
-0.835095,-4.517649,-4.649254,-3.78,7.0,-23.52,1729473159272.0,0.0
-2.036292,-5.228317,-5.852845,-60.48,-12.67,-33.880001,1729473159288.0,0.0
-1.292124,-4.364508,-7.300502,-93.239998,-40.18,-49.91,1729473159309.0,0.0
-1.909473,-3.751946,-8.88455,-83.090004,-41.790001,-49.07,1729473159328.0,0.0
-4.106083,-2.854637,-11.117055,-38.290001,-21.84,-26.6,1729473159349.0,0.0
-5.793024,-2.268396,-12.217752,8.89,0.42,8.61,1729473159369.0,0.0
-5.87438,-3.725625,-10.784451,-4.62,18.549999,28.35,1729473159389.0,0.0
-2.055435,-4.388437,-10.451849,-31.780001,5.18,24.85,1729473159410.0,0.0
-1.56012,-4.579862,-10.109675,-16.030001,11.83,25.9,1729473159428.0,0.0
-1.749153,-4.37408,-9.135797,29.120001,31.57,36.470001,1729473159449.0,0.0
-0.413958,-5.642276,-8.738588,23.799999,29.049999,39.900002,1729473159469.0,0.0
0.366102,-7.618747,-7.37468,30.030001,29.889999,39.48,1729473159489.0,0.0
-0.014357,-8.018349,-5.54417,40.32,32.689999,30.66,1729473159507.0,0.0
-0.562313,-9.066404,-5.223531,26.110001,22.469999,9.66,1729473159528.0,0.0
-0.303888,-7.735995,-4.74736,8.47,5.11,-12.81,1729473159550.0,0.0
-1.402194,-4.900501,-5.103891,-2.87,-7.42,-24.290001,1729473159570.0,0.0
-2.854637,-5.615955,-6.259624,-38.080002,-16.66,-32.900002,1729473159588.0,0.0
-1.514657,-5.912664,-7.255038,-75.529999,-37.869999,-50.119999,1729473159607.0,0.0
-1.036092,-3.952943,-7.700103,-87.57,-45.220001,-59.709999,1729473159627.0,0.0
-2.347359,-4.335794,-10.492528,-70.840004,-38.57,-55.860001,1729473159648.0,0.0
-3.069991,-3.567699,-11.976077,-34.09,-27.23,-43.889999,1729473159670.0,0.0
-3.285345,-2.301895,-11.92822,15.190001,-12.67,-20.16,1729473159689.0,0.0
-3.503092,-1.435694,-11.526227,41.720001,4.2,3.99,1729473159708.0,0.0
-3.194418,-1.261017,-10.822738,40.740002,14.07,23.030001,1729473159727.0,0.0
-1.603191,-3.046063,-8.908479,25.969999,13.09,31.360001,1729473159748.0,0.0
-1.933401,-2.976671,-9.221939,6.72,15.190001,29.190001,1729473159772.0,0.0
-1.56012,-3.18724,-9.351151,12.25,18.34,38.849998,1729473159787.0,0.0
-0.995414,-4.850252,-8.324631,6.23,19.32,41.650002,1729473159807.0,0.0
-1.083949,-6.54437,-6.915257,4.69,20.23,40.950001,1729473159829.0,0.0
-1.249053,-7.795816,-5.766702,0.21,15.54,30.66,1729473159848.0,0.0
-1.971686,-8.882158,-4.441079,-27.16,3.85,10.5,1729473159874.0,0.0
-3.050849,-9.183653,-6.711867,-82.529999,-8.82,-20.58,1729473159888.0,0.0
-2.062613,-9.389436,-9.257831,-105.489998,-22.049999,-46.549999,1729473159907.0,0.0
-1.433301,-7.039684,-8.671589,-51.939999,-23.940001,-52.360001,1729473159929.0,0.0
-2.433501,-4.481757,-8.623734,-24.219999,-18.41,-56.07,1729473159949.0,0.0
-2.294717,-3.309274,-8.537591,-46.48,-22.960001,-55.720001,1729473159971.0,0.0
-2.304288,-3.366701,-10.504492,-63.98,-22.68,-47.040001,1729473159987.0,0.0
-1.928615,-2.505285,-10.805987,-25.41,-15.47,-28.35,1729473160009.0,0.0
-1.674976,-0.799203,-10.490135,31.43,-5.39,-2.31,1729473160029.0,0.0
-1.234696,0.693919,-9.789038,69.160004,4.06,23.1,1729473160049.0,0.0
-0.952343,1.323231,-9.607183,48.299999,9.31,35.349998,1729473160070.0,0.0
-1.002593,-0.741775,-10.700702,3.01,13.58,43.189999,1729473160088.0,0.0
-1.01695,-4.07737,-11.413764,-23.309999,18.690001,42.209999,1729473160109.0,0.0
-0.579063,-5.907879,-10.58824,3.29,29.4,40.040001,1729473160128.0,0.0
-0.069392,-4.584648,-10.456635,29.68,37.66,35.07,1729473160149.0,0.0
-0.248854,-7.178468,-7.267002,31.219999,43.540001,31.5,1729473160171.0,0.0
-0.921237,-8.228917,-5.199604,13.58,39.549999,19.040001,1729473160187.0,0.0
-3.402594,-8.123632,-3.345166,-11.13,29.469999,19.040001,1729473160207.0,0.0
-4.307081,-9.779467,-7.458428,-59.5,3.5,-25.41,1729473160229.0,0.0
-3.239882,-7.32443,-9.260223,-53.41,-11.48,-41.790001,1729473160254.0,0.0
-2.06022,-5.783452,-9.688539,-22.82,-16.66,-43.75,1729473160269.0,0.0
-2.261217,-3.835695,-8.930015,-5.32,-10.43,-48.23,1729473160289.0,0.0
-2.378466,-2.433501,-9.80818,-19.040001,-11.13,-47.599998,1729473160308.0,0.0
-1.835295,-1.706082,-10.777272,-3.92,-10.36,-34.16,1729473160329.0,0.0
-1.536192,-0.028714,-10.07139,21.559999,-2.66,-15.68,1729473160348.0,0.0
-1.146162,0.605384,-9.712467,49.91,2.45,7.84,1729473160370.0,0.0
-0.665205,1.756332,-9.305687,56.84,5.53,23.799999,1729473160388.0,0.0
-1.079163,0.555135,-9.817751,28.91,7.98,41.02,1729473160407.0,0.0
-0.916451,-2.665605,-10.992627,-11.83,13.65,49.0,1729473160430.0,0.0
-0.4666,-4.261617,-11.382657,1.4,20.23,48.09,1729473160448.0,0.0
-0.122034,-5.498707,-10.875379,30.799999,30.24,53.060001,1729473160472.0,0.0
-0.411566,-7.879565,-8.274381,40.32,37.380001,42.630001,1729473160489.0,0.0
-2.835495,-8.910872,-0.368495,34.790001,37.170002,30.450001,1729473160508.0,0.0
-5.91745,-10.581062,-2.845066,-54.110001,10.78,-11.97,1729473160529.0,0.0
-4.783253,-10.171888,-9.119047,-120.400002,-20.09,-48.860001,1729473160550.0,0.0
-1.344766,-7.752745,-9.650253,-49.700001,-43.119999,-52.709999,1729473160569.0,0.0
-1.428515,-3.988836,-9.303294,-0.14,-28.210001,-54.740002,1729473160588.0,0.0
-2.277967,-2.730211,-10.08814,-10.08,-18.76,-49.84,1729473160609.0,0.0
-1.617548,-1.591227,-11.38505,-2.03,-17.639999,-25.41,1729473160629.0,0.0
-0.495314,-1.213161,-11.475977,33.18,-8.47,-2.8,1729473160648.0,0.0
-0.308674,0.51685,-9.535398,79.870003,3.08,19.389999,1729473160674.0,0.0
-0.535992,1.87358,-9.116654,81.410004,6.58,31.360001,1729473160688.0,0.0
-0.392423,1.158126,-9.882358,25.200001,8.61,35.560001,1729473160709.0,0.0
-0.236889,-3.481557,-11.236694,-19.25,10.57,39.130001,1729473160729.0,0.0
-0.236889,-4.948357,-11.050055,-8.82,24.08,38.220001,1729473160749.0,0.0
-0.090927,-6.754939,-10.552348,13.02,32.130001,32.27,1729473160773.0,0.0
-0.744168,-8.185846,-8.035098,36.189999,35.139999,22.889999,1729473160790.0,0.0
-3.778267,-7.190433,-0.468993,30.24,32.759998,4.48,1729473160810.0,0.0
-7.757531,-9.683753,-3.45045,-47.18,3.85,-25.059999,1729473160830.0,0.0
-5.213961,-9.65504,-10.339387,-113.330002,-27.09,-60.830002,1729473160851.0,0.0
-1.138984,-6.65444,-10.305886,-51.310001,-43.540001,-55.23,1729473160874.0,0.0
-1.667797,-4.244867,-9.032906,5.11,-22.049999,-53.970001,1729473160889.0,0.0
-2.218147,-1.627119,-10.076177,7.21,-14.63,-44.73,1729473160910.0,0.0
-0.748954,-0.519243,-10.973484,5.6,-16.52,-18.059999,1729473160930.0,0.0
-0.210568,-0.526421,-9.68136,24.57,-4.27,6.3,1729473160951.0,0.0
-0.583849,0.526421,-9.568897,56.630001,4.2,26.32,1729473160975.0,0.0
-0.303888,1.342373,-9.410972,48.93,1.54,35.349998,1729473160989.0,0.0
-0.799203,0.744168,-10.573883,-1.61,6.44,39.549999,1729473161009.0,0.0
-0.404387,-3.522235,-11.219944,-37.380001,9.94,40.880001,1729473161030.0,0.0
-0.308674,-5.197211,-11.607583,-19.32,20.58,39.830002,1729473161050.0,0.0
-0.42353,-7.558927,-9.487542,8.26,30.940001,35.07,1729473161074.0,0.0
-0.921237,-8.513663,-7.601997,27.440001,30.030001,20.23,1729473161092.0,0.0
-3.912265,-7.02772,-1.447658,13.65,26.32,4.83,1729473161109.0,0.0
-7.551748,-8.693125,-5.096712,-65.099998,0.98,-24.85,1729473161129.0,0.0
-4.548756,-10.461421,-10.794022,-91.07,-28.280001,-52.080002,1729473161151.0,0.0
-0.914058,-6.013163,-10.683953,-25.41,-35.139999,-49.420002,1729473161171.0,0.0
-1.631905,-3.790231,-9.54497,20.440001,-11.83,-43.610001,1729473161191.0,0.0
-1.521835,-1.088734,-9.798609,16.309999,-7.42,-34.720001,1729473161211.0,0.0
-0.595813,-1.136591,-10.468598,1.96,-8.82,-12.46,1729473161231.0,0.0
-0.416351,-1.021735,-9.659825,16.1,1.89,2.24,1729473161251.0,0.0
0.026321,0.050249,-8.965906,50.540001,2.1,16.940001,1729473161272.0,0.0
0.141177,1.844866,-8.963513,50.959999,5.04,24.15,1729473161290.0,0.0
-0.20339,0.78006,-10.315458,9.59,5.74,31.639999,1729473161311.0,0.0
-0.715454,-1.9669,-10.880164,-37.170002,14.07,35.139999,1729473161330.0,0.0
0.055035,-6.113662,-11.887544,-41.23,18.129999,32.41,1729473161351.0,0.0
-0.413958,-8.717053,-9.564112,17.639999,34.860001,25.200001,1729473161371.0,0.0
-1.447658,-8.547162,-7.52782,43.400002,36.259998,10.08,1729473161389.0,0.0
-4.472186,-7.288538,-1.435694,30.59,31.360001,-6.3,1729473161409.0,0.0
-7.640282,-8.599805,-4.644469,-33.389999,0.91,-27.02,1729473161430.0,0.0
-4.565506,-8.255238,-10.581062,-74.970001,-27.860001,-54.950001,1729473161450.0,0.0
-1.083949,-5.682954,-10.38485,-36.119999,-35.700001,-45.920002,1729473161471.0,0.0
-2.251646,-4.689932,-9.518648,0.07,-11.41,-44.73,1729473161490.0,0.0
-2.160719,-1.852045,-10.193424,20.16,-10.08,-36.82,1729473161510.0,0.0
-0.571885,-0.112463,-10.200603,22.120001,-13.37,-14.42,1729473161529.0,0.0
-0.356531,0.172283,-9.351151,15.54,-1.4,2.52,1729473161551.0,0.0
-0.138784,0.528814,-8.95155,28.77,0.35,20.23,1729473161570.0,0.0
-0.107677,3.986443,-8.913264,5.04,3.71,29.889999,1729473161589.0,0.0
-0.78006,1.191626,-9.705289,-95.830002,5.53,31.43,1729473161609.0,0.0
0.174676,-3.871587,-10.578669,-137.130005,1.26,27.370001,1729473161631.0,0.0
-0.356531,-4.4339,-11.660224,-86.590004,9.03,28.42,1729473161650.0,0.0
-0.368495,-7.140182,-11.210374,-32.830002,14.84,20.370001,1729473161671.0,0.0
-0.875773,-7.307681,-9.020942,9.17,21.77,11.13,1729473161763.0,0.0
-2.17029,-6.929615,-7.386643,10.99,16.17,-12.88,1729473161763.0,0.0
-2.684747,-5.35753,-7.551748,14.98,2.59,-14.7,1729473161764.0,0.0
-4.139583,-4.005585,-7.130611,10.57,-5.6,-13.16,1729473161764.0,0.0
-4.744967,-3.031706,-7.881958,-4.76,-16.52,-6.51,1729473161779.0,0.0
-4.740182,-3.893122,-10.983055,-34.02,-18.129999,-6.02,1729473161789.0,0.0
-3.5007,-3.996014,-11.196017,-31.85,-13.72,-1.4,1729473161809.0,0.0
-2.782853,-1.694118,-11.641083,13.93,-5.04,6.3,1729473161829.0,0.0
-1.332802,-1.694118,-10.971091,18.9,1.33,14.42,1729473161849.0,0.0
0.253639,-0.189033,-9.640682,12.32,4.27,23.379999,1729473161874.0,0.0
0.552742,0.208176,-8.10449,10.15,7.63,24.360001,1729473161888.0,0.0
0.643669,-0.095713,-7.855636,8.89,0.21,26.530001,1729473161909.0,0.0
1.155733,-0.708275,-7.989635,3.08,-7.63,26.25,1729473161929.0,0.0
0.825524,-1.847259,-8.764909,-9.24,-7.91,23.450001,1729473161949.0,0.0
0.425922,-3.172883,-10.499706,-20.299999,-6.3,21.49,1729473161971.0,0.0
0.12682,-4.692325,-11.801401,-23.52,3.71,13.16,1729473161991.0,0.0
0.052642,-6.537192,-12.669996,-9.17,13.65,5.25,1729473162010.0,0.0
-1.696511,-7.71446,-10.305886,34.299999,27.09,-16.799999,1729473162029.0,0.0
-3.199204,-7.76471,-8.181061,71.400002,26.6,-25.9,1729473162050.0,0.0
-5.075177,-4.369294,-6.623333,91.419998,18.200001,-30.940001,1729473162070.0,0.0
-6.082555,-3.996014,-8.700303,59.920002,8.12,-37.240002,1729473162089.0,0.0
-4.144369,-5.271388,-10.784451,26.040001,-0.07,-41.509998,1729473162109.0,0.0
-2.852244,-5.749953,-11.743973,66.57,0.07,-27.02,1729473162129.0,0.0
-2.529213,-5.130211,-10.939985,148.610001,18.549999,-15.4,1729473162149.0,0.0
-1.651048,-3.352344,-9.41815,246.610001,22.889999,4.13,1729473162171.0,0.0
-0.598206,-2.055435,-7.568498,308.630005,13.440001,20.93,1729473162189.0,0.0
-0.564706,-2.215754,-6.977471,288.399994,16.030001,22.469999,1729473162209.0,0.0
-0.835095,-5.072784,-8.673983,242.550003,20.790001,20.860001,1729473162230.0,0.0
-0.674776,-6.218946,-6.025128,247.869995,25.059999,33.32,1729473162250.0,0.0
-0.978664,-6.795617,-5.252246,272.51001,27.719999,35.84,1729473162270.0,0.0
-1.246661,-7.812566,-5.343173,281.119995,28.700001,37.52,1729473162289.0,0.0
-1.026521,-9.164511,-4.192225,269.5,25.969999,32.689999,1729473162310.0,0.0
-0.452243,-9.01137,-2.230111,230.580002,20.299999,21.98,1729473162328.0,0.0
-0.878166,-8.626125,0.100499,165.899994,14.35,22.469999,1729473162349.0,0.0
-1.265803,-8.958728,-0.193819,24.92,-1.19,8.61,1729473162371.0,0.0
-1.292124,-9.710074,-1.07677,-40.18,-14.07,1.82,1729473162389.0,0.0
-1.574477,-9.580862,-1.564906,-68.599998,-19.74,-2.31,1729473162609.0,0.0
-1.72044,-9.485149,-2.242075,-78.82,-20.860001,-4.55,1729473162610.0,0.0
-1.591227,-9.212367,-2.507678,-87.919998,-22.75,-8.4,1729473162610.0,0.0
-1.581656,-9.29133,-3.029313,-92.120003,-23.450001,-11.13,1729473162610.0,0.0
-1.828116,-10.4016,-3.771089,-85.610001,-24.43,-10.08,1729473162610.0,0.0
-1.897508,-11.370694,-4.867002,-69.860001,-24.710001,-9.8,1729473162611.0,0.0
-1.811367,-10.722239,-5.453243,-32.060001,-22.960001,-10.57,1729473162611.0,0.0
-1.665405,-9.817751,-4.905287,16.940001,-15.75,-12.25,1729473162611.0,0.0
-1.509871,-9.305687,-4.67079,49.84,-6.51,-15.54,1729473162612.0,0.0
-0.89013,-9.243474,-4.48415,48.93,-1.82,-19.32,1729473162612.0,0.0
-0.492921,-8.520842,-4.328616,31.360001,-1.68,-22.540001,1729473162628.0,0.0
-0.579063,-7.338787,-3.795017,6.93,2.45,-25.48,1729473162648.0,0.0
-0.923629,-7.255038,-3.871587,-55.720001,10.85,-13.65,1729473162671.0,0.0
-0.753739,-7.204789,-4.744967,-103.25,9.66,-14.14,1729473162688.0,0.0
-0.375673,-7.006185,-4.388437,-153.509995,1.05,-11.83,1729473162709.0,0.0
-0.416351,-7.228717,-3.838088,-176.050003,-2.38,-10.92,1729473162728.0,0.0
-0.758525,-8.506484,-4.694718,-181.160004,-11.27,-10.15,1729473162750.0,0.0
-0.952343,-9.190832,-5.517848,-149.100006,-19.809999,-13.65,1729473162772.0,0.0
-1.246661,-9.119047,-6.570691,-101.779999,-20.51,-17.01,1729473162789.0,0.0
-1.641476,-8.757731,-7.200003,-79.239998,-17.290001,-23.309999,1729473162809.0,0.0
-2.005185,-9.329616,-7.812566,-58.450001,-11.13,-22.75,1729473162830.0,0.0
-2.213361,-9.489935,-7.893922,-16.52,-5.25,-21.91,1729473162849.0,0.0
-2.67039,-8.961121,-7.173682,36.119999,5.25,-15.89,1729473162872.0,0.0
-2.947958,-8.386844,-6.209375,71.540001,12.32,-9.87,1729473162889.0,0.0
-2.354537,-7.932207,-5.673382,95.129997,10.36,-0.63,1729473162909.0,0.0
-1.48355,-8.396415,-5.398208,126.0,7.07,8.19,1729473162930.0,0.0
-1.581656,-8.913264,-4.725825,165.059998,16.379999,15.12,1729473162950.0,0.0
-2.206182,-8.843873,-4.548756,201.669998,26.950001,20.719999,1729473162973.0,0.0
-2.285146,-8.767302,-3.531806,215.529999,25.76,21.559999,1729473162989.0,0.0
-1.835295,-10.325029,-2.550749,194.460007,20.23,17.92,1729473163008.0,0.0
-0.368495,-8.997013,-1.564906,157.710007,11.62,6.58,1729473163028.0,0.0
-0.315853,-8.55434,0.12682,103.040001,9.03,4.83,1729473163048.0,0.0
-0.942772,-9.789038,-0.107677,71.68,-1.54,5.18,1729473163072.0,0.0
-1.246661,-10.829915,-1.012164,66.849998,-14.35,-1.05,1729473163088.0,0.0
-1.079163,-11.174481,-1.349552,93.449997,-20.09,-2.38,1729473163109.0,0.0
-0.916451,-9.803394,-1.189233,102.480003,-14.07,-6.72,1729473163130.0,0.0
-1.210768,-8.425128,-1.0002,71.959999,-6.23,-7.49,1729473163150.0,0.0
-1.136591,-9.032906,-1.801795,17.92,-7.42,-9.45,1729473163169.0,0.0
-0.684347,-11.085947,-2.902494,-6.93,-13.58,-9.94,1729473163188.0,0.0
-0.047856,-11.559726,-2.830709,14.77,-6.93,-11.83,1729473163208.0,0.0
1.002593,-10.222138,-3.261417,33.810001,-1.12,-15.47,1729473163228.0,0.0
2.002793,-8.958728,-3.309274,19.25,1.47,-19.389999,1729473163251.0,0.0
2.359323,-9.126225,-3.26381,-17.99,6.37,-22.26,1729473163270.0,0.0
2.134398,-9.836893,-3.795017,-46.41,16.73,-28.700001,1729473163290.0,0.0
2.021935,-10.195816,-4.010371,-38.220001,26.110001,-32.48,1729473163308.0,0.0
1.830509,-9.559326,-4.555934,-17.5,38.360001,-33.040001,1729473163328.0,0.0
-0.51685,-11.684153,-1.761117,14.98,47.810001,-29.33,1729473163348.0,0.0
-2.947958,-13.033704,0.78006,61.529999,45.009998,-27.23,1729473163370.0,0.0
-6.041877,-10.9017,12.622139,215.040009,8.47,-27.719999,1729473163388.0,0.0
-5.615955,-5.034499,9.29133,221.690002,-26.809999,-4.34,1729473163410.0,0.0
-4.878965,-7.403394,7.001399,14.0,-54.810001,-32.549999,1729473163431.0,0.0
-1.959722,-10.325029,0.4666,-142.100006,-80.080002,-43.189999,1729473163448.0,0.0
-0.464208,-11.485549,-2.768496,-96.669998,-54.880001,-32.759998,1729473163470.0,0.0
-0.878166,-12.059827,-1.820938,6.86,-36.049999,-18.27,1729473163488.0,0.0
-0.717847,-10.066606,-1.962115,83.580002,-23.309999,-14.21,1729473163508.0,0.0
0.409173,-7.379465,-2.713461,97.580002,-11.27,-10.78,1729473163528.0,0.0
0.667598,-6.613762,-1.28016,47.529999,-3.08,0.98,1729473163549.0,0.0
0.282353,-8.767302,0.868595,-15.75,-15.47,10.15,1729473163569.0,0.0
1.306481,-9.253045,-2.371287,-19.6,-29.610001,10.71,1729473163589.0,0.0
2.11047,-9.640682,-5.000999,6.51,-12.81,11.41,1729473163610.0,0.0
3.002992,-9.389436,-6.321837,-14.49,7.77,1.61,1729473163628.0,0.0
2.904887,-10.080962,-4.871787,-30.799999,31.85,3.01,1729473163648.0,0.0
1.519442,-11.150554,-2.337788,-27.370001,47.810001,0.49,1729473163681.0,0.0
0.658026,-11.827723,-0.01675,-24.219999,55.720001,-14.21,1729473163688.0,0.0
-1.167697,-10.956735,0.614955,14.07,52.5,-11.97,1729473163711.0,0.0
-2.294717,-8.877372,14.266008,13.09,27.299999,-33.529999,1729473163728.0,0.0
-5.218746,-7.412964,12.193825,53.060001,-8.54,16.1,1729473163748.0,0.0
-2.773281,-9.363115,3.333202,-20.16,-40.389999,-14.14,1729473163770.0,0.0
0.40678,-11.093125,0.12682,-89.949997,-63.560001,-20.440001,1729473163790.0,0.0
1.048056,-10.758131,-1.07677,-41.860001,-40.529999,-8.26,1729473163809.0,0.0
-0.574277,-10.719845,-0.782453,-1.19,-20.65,-1.82,1729473163827.0,0.0
-0.131605,-9.169296,-2.622534,7.28,-15.12,-4.06,1729473163849.0,0.0
0.090927,-8.35813,0.859023,14.28,-18.27,8.26,1729473163874.0,0.0
0.81356,-8.872586,-0.935594,21.629999,-41.720001,12.88,1729473163888.0,0.0
1.90708,-9.595219,-6.403193,18.690001,-29.4,13.09,1729473163908.0,0.0
2.952743,-8.283953,-5.635098,-30.870001,3.92,6.79,1729473163927.0,0.0
2.775674,-10.91845,-6.123233,-57.959999,33.32,8.82,1729473163949.0,0.0
1.143769,-12.153147,-2.591427,-36.330002,58.380001,5.88,1729473163973.0,0.0
0.40678,-10.872985,-2.431108,1.61,71.610001,-3.01,1729473163988.0,0.0
-0.009571,-10.377672,3.220739,12.88,62.23,-9.38,1729473164009.0,0.0
-1.100698,-9.633504,3.290131,4.97,49.91,-10.43,1729473164029.0,0.0
-2.775674,-8.142776,9.915856,46.060001,5.39,0.07,1729473164048.0,0.0
-4.065405,-8.240881,7.046863,27.790001,-11.41,15.26,1729473164071.0,0.0
-1.895115,-10.427922,1.866402,-61.040001,-50.68,-3.71,1729473164089.0,0.0
0.289532,-11.789437,-1.167697,-84.910004,-60.060001,-3.43,1729473164108.0,0.0
0.653241,-11.602797,-2.991028,-37.099998,-33.880001,0.63,1729473164130.0,0.0
0.562313,-9.377472,-3.45045,0.7,-9.94,0.77,1729473164149.0,0.0
0.394816,-8.513663,-1.004985,15.12,-2.52,10.29,1729473164170.0,0.0
0.870987,-8.729016,-1.234696,22.82,-15.89,13.16,1729473164188.0,0.0
1.387837,-8.810372,-5.56092,17.99,-4.76,16.870001,1729473164208.0,0.0
2.490928,-8.673983,-6.632904,-48.369999,19.18,6.44,1729473164228.0,0.0
2.206182,-11.363515,-5.089533,-71.68,46.200001,11.9,1729473164248.0,0.0
0.990629,-12.837494,-3.414558,-28.630001,63.0,8.47,1729473164270.0,0.0
0.184247,-12.117253,-1.091127,21.0,73.150002,-4.48,1729473164288.0,0.0
-0.002393,-11.578869,0.753739,45.080002,70.629997,-14.98,1729473164308.0,0.0
-2.352145,-7.625926,10.722239,88.900002,38.920002,-12.81,1729473164329.0,0.0
-5.350351,-6.71426,10.805987,101.150002,3.43,10.57,1729473164349.0,0.0
-1.634298,-10.499706,2.507678,-19.389999,-51.099998,-15.4,1729473164369.0,0.0
0.710668,-11.188839,-0.842274,-83.93,-83.93,-18.690001,1729473164388.0,0.0
0.581456,-11.406586,-1.878366,-49.420002,-66.150002,-10.43,1729473164408.0,0.0
0.064606,-11.026128,-2.397608,-26.74,-50.82,-17.43,1729473164429.0,0.0
-0.363709,-8.176274,-1.538585,-1.12,-37.66,-15.190001,1729473164450.0,0.0
-0.260818,-8.95155,-0.782453,26.809999,-41.93,1.96,1729473164469.0,0.0
1.086342,-8.035098,-4.548756,37.310001,-50.470001,1.54,1729473164488.0,0.0
1.828116,-9.066404,-4.644469,25.48,-23.1,14.77,1729473164508.0,0.0
2.37368,-8.863015,-6.65444,-25.969999,2.03,4.83,1729473164528.0,0.0
1.481157,-10.904092,-5.938986,-52.57,36.68,11.06,1729473164549.0,0.0
0.648455,-11.140982,-3.45045,-40.25,55.860001,3.99,1729473164570.0,0.0
0.071785,-11.107484,-2.273181,-12.81,65.870003,2.66,1729473164588.0,0.0
0.153141,-10.614561,-1.524228,-5.11,68.949997,-9.03,1729473164608.0,0.0
-1.28016,-9.671788,1.935793,8.89,57.959999,-3.22,1729473164628.0,0.0
-1.272982,-10.171888,1.48355,16.940001,49.349998,-5.67,1729473164648.0,0.0
-2.766103,-10.219746,9.705289,39.830002,16.1,-1.05,1729473164669.0,0.0
-3.838088,-8.776874,6.84108,40.810001,2.38,5.11,1729473164687.0,0.0
-0.172283,-10.389636,-0.323031,-34.580002,-30.1,-10.64,1729473164711.0,0.0
0.945165,-10.995021,-1.40698,-32.27,-26.950001,-1.19,1729473164729.0,0.0
0.581456,-10.904092,-1.887937,0.21,-9.8,1.05,1729473164748.0,0.0
0.512064,-10.13839,-2.524428,23.52,-2.45,0.98,1729473164769.0,0.0
0.681954,-8.724231,-2.091327,30.17,-0.91,1.89,1729473164787.0,0.0
0.42353,-8.216952,-0.600598,17.08,-5.25,6.86,1729473164810.0,0.0
-0.086142,-9.485149,0.844666,4.76,-21.700001,10.22,1729473164829.0,0.0
0.050249,-9.480364,-0.4666,13.02,-35.77,4.62,1729473164848.0,0.0
0.078963,-9.449257,-2.299503,8.89,-28.77,5.74,1729473164874.0,0.0
1.208375,-9.578469,-4.627719,-37.869999,-28.559999,-2.1,1729473164888.0,0.0
2.277967,-11.042876,-5.690133,-48.720001,-14.56,3.85,1729473164908.0,0.0
2.304288,-11.499906,-5.249853,-19.389999,18.059999,1.61,1729473164930.0,0.0
1.143769,-10.009177,-3.400201,19.74,51.380001,0.77,1729473164948.0,0.0
0.361316,-9.51147,-2.402394,16.59,68.18,-1.12,1729473164971.0,0.0
-0.380459,-10.24846,0.729811,-1.05,64.610001,-2.73,1729473164988.0,0.0
-1.469193,-9.812965,2.179861,18.200001,52.009998,2.73,1729473165009.0,0.0
-1.040878,-9.413363,2.486143,26.950001,40.599998,-0.21,1729473165028.0,0.0
-2.828316,-8.075776,7.063612,46.970001,20.790001,11.97,1729473165048.0,0.0
-3.299703,-8.26481,4.685147,5.88,-15.68,10.57,1729473165068.0,0.0
-1.416551,-9.853643,1.107877,-61.670002,-46.549999,1.33,1729473165087.0,0.0
-0.050249,-10.896914,-1.234696,-73.5,-53.48,2.17,1729473165109.0,0.0
-0.198604,-10.731809,-2.048256,-48.439999,-39.41,4.9,1729473165127.0,0.0
-0.464208,-10.162319,-3.031706,-33.529999,-29.469999,3.64,1729473165148.0,0.0
-0.495314,-9.487542,-2.335395,-20.58,-26.67,7.42,1729473165169.0,0.0
0.098106,-9.755538,-1.45005,9.73,-33.599998,16.940001,1729473165189.0,0.0
0.4666,-9.865608,-2.007578,35.77,-39.900002,17.710001,1729473165207.0,0.0
0.564706,-8.84148,-5.264209,30.380001,-17.92,18.690001,1729473165228.0,0.0
1.323231,-9.001799,-6.053841,-49.139999,5.46,10.78,1729473165247.0,0.0
1.495514,-11.112268,-6.166305,-78.889999,28.91,16.52,1729473165270.0,0.0
0.787239,-11.882757,-4.558327,-29.33,51.450001,15.33,1729473165287.0,0.0
0.124427,-10.497313,-2.120041,22.610001,65.730003,7.91,1729473165309.0,0.0
-0.571885,-9.79143,1.210768,37.170002,63.139999,2.31,1729473165327.0,0.0
-1.0002,-8.91805,0.658026,23.1,49.490002,3.08,1729473165348.0,0.0
-2.359323,-8.348558,5.486742,24.92,33.25,6.65,1729473165370.0,0.0
-5.106283,-8.465806,5.962914,53.200001,-13.65,27.02,1729473165388.0,0.0
-3.555735,-10.645668,1.481157,-49.0,-43.330002,0.56,1729473165409.0,0.0
-1.45005,-11.947363,-1.852045,-94.639999,-63.84,-4.55,1729473165427.0,0.0
-0.818345,-11.91147,-2.675175,-59.5,-48.23,-2.45,1729473165448.0,0.0
-1.038485,-11.289338,-2.28036,-27.02,-35.209999,-4.9,1729473165471.0,0.0
-0.904487,-9.829715,-2.043471,-6.44,-30.24,-8.47,1729473165487.0,0.0
-0.61017,-9.097511,-1.837688,13.65,-33.950001,-0.49,1729473165508.0,0.0
-0.287139,-9.923036,-0.878166,20.860001,-40.950001,3.64,1729473165527.0,0.0
-0.239282,-9.662218,-4.261617,20.23,-29.82,1.47,1729473165549.0,0.0
-0.244068,-9.327222,-4.218546,-26.389999,-10.01,-7.07,1729473165568.0,0.0
0.095713,-10.274779,-4.220939,-45.5,-2.03,-5.18,1729473165589.0,0.0
0.691526,-10.640882,-5.245068,-26.74,5.04,-5.74,1729473165607.0,0.0
0.897308,-9.695717,-4.206582,3.99,19.110001,-5.6,1729473165627.0,0.0
0.442672,-8.224132,-2.536392,15.05,31.08,-3.57,1729473165648.0,0.0
-0.153141,-7.879565,-2.567499,-9.38,34.09,0.21,1729473165669.0,0.0
-0.236889,-9.116654,-3.706482,-57.540001,37.099998,-0.28,1729473165687.0,0.0
-0.543171,-11.538191,-2.938386,-69.019997,45.150002,1.89,1729473165707.0,0.0
-1.706082,-11.389835,-1.014557,11.27,52.639999,7.0,1729473165727.0,0.0
-1.751546,-9.559326,-1.17009,58.310001,58.029999,9.87,1729473165747.0,0.0
-3.438486,-8.772088,9.075976,71.120003,44.66,7.42,1729473165769.0,0.0
-5.288138,-9.119047,6.537192,75.949997,8.05,18.9,1729473165787.0,0.0
-3.850052,-9.611969,1.986043,-8.33,-17.639999,-2.66,1729473165807.0,0.0
-0.863809,-10.365707,-1.4668,-66.709999,-43.259998,-12.88,1729473165828.0,0.0
-0.117248,-11.014162,-2.586641,-43.259998,-29.75,0.49,1729473165848.0,0.0
-0.646062,-11.004591,-2.706282,-1.47,-13.79,1.26,1729473165871.0,0.0
-0.545564,-10.13839,-2.840281,25.059999,-14.91,-1.54,1729473165887.0,0.0
-0.327817,-8.377272,-2.26361,30.66,-19.530001,0.63,1729473165908.0,0.0
-0.404387,-7.781459,-1.304088,6.51,-22.82,5.81,1729473165929.0,0.0
-0.272782,-9.420543,-2.641676,-35.420002,-33.880001,5.11,1729473165948.0,0.0
0.356531,-10.009177,-5.85763,-32.759998,-26.040001,3.01,1729473165969.0,0.0
1.251446,-9.480364,-7.551748,-27.790001,4.2,5.32,1729473165986.0,0.0
1.328017,-10.339387,-7.336394,-23.24,39.060001,12.67,1729473166007.0,0.0
0.497707,-11.729616,-6.099305,5.53,70.769997,14.14,1729473166028.0,0.0
-0.933201,-10.995021,-3.098706,41.93,87.989998,6.72,1729473166048.0,0.0
-2.136791,-9.607183,8.336594,73.639999,89.809998,-5.6,1729473166071.0,0.0
-6.396015,-6.817152,9.468399,124.739998,33.389999,18.059999,1729473166088.0,0.0
-6.989435,-6.001199,5.651847,82.739998,-6.44,9.45,1729473166108.0,0.0
-3.809374,-9.370294,0.643669,-79.800003,-62.369999,-21.49,1729473166127.0,0.0
-1.141376,-11.193624,-3.412165,-139.369995,-79.449997,-20.16,1729473166149.0,0.0
-0.564706,-11.24866,-3.196811,-107.870003,-57.82,-14.35,1729473166168.0,0.0
-1.064806,-10.875379,-2.962314,-58.73,-37.029999,-17.92,1729473166188.0,0.0
-0.777667,-10.059426,-3.495914,-10.29,-33.529999,-14.7,1729473166208.0,0.0
-0.370888,-8.394022,-1.777867,33.599998,-31.639999,-4.06,1729473166229.0,0.0
-0.691526,-8.209774,-0.270389,47.110001,-37.029999,7.49,1729473166248.0,0.0
-1.043271,-8.879765,-1.67019,31.290001,-45.5,5.53,1729473166268.0,0.0
-0.514457,-8.559127,-4.07737,-11.97,-38.5,2.1,1729473166287.0,0.0
0.748954,-10.042676,-6.21416,-54.599998,-33.18,5.67,1729473166314.0,0.0
1.713261,-12.490535,-7.642675,-32.48,-12.95,6.51,1729473166330.0,0.0
1.287339,-11.184053,-7.360322,39.689999,30.1,5.53,1729473166349.0,0.0
-0.002393,-8.207381,-3.725625,75.809998,63.07,2.94,1729473166368.0,0.0
-1.201197,-9.475577,-4.692325,-7.98,68.879997,-1.75,1729473166389.0,0.0
-2.467,-12.509676,-1.12702,-37.52,69.650002,-9.66,1729473166407.0,0.0
-3.720839,-11.140982,-1.112662,10.64,63.0,-8.75,1729473166430.0,0.0
-3.708875,-9.334401,4.127619,63.91,57.889999,-15.4,1729473166449.0,0.0
-4.333402,-7.915457,7.69771,77.279999,8.05,-6.65,1729473166469.0,0.0
-4.254438,-7.740781,4.311867,47.670002,-11.27,-8.96,1729473166490.0,0.0
-2.555535,-9.152546,0.746561,-51.73,-44.799999,-24.57,1729473166507.0,0.0
-0.842274,-10.377672,-1.660619,-88.480003,-58.170002,-18.200001,1729473166528.0,0.0
0.019143,-10.669596,-3.103491,-59.849998,-46.130001,-13.23,1729473166548.0,0.0
-0.035892,-10.315458,-2.35693,-24.92,-32.830002,-11.34,1729473166570.0,0.0
-0.488136,-8.769694,-0.244068,8.19,-32.549999,-6.58,1729473166590.0,0.0
-0.358923,-7.719246,-1.438086,31.85,-51.029999,2.24,1729473166608.0,0.0
0.942772,-8.444271,-3.318845,18.549999,-62.580002,6.72,1729473166627.0,0.0
1.789831,-9.286544,-5.726025,-12.18,-46.689999,8.68,1729473166648.0,0.0
1.794617,-11.334801,-7.585248,-18.41,-14.0,9.8,1729473166670.0,0.0
0.9667,-10.564312,-6.80758,8.89,18.620001,9.38,1729473166762.0,0.0
0.133998,-9.430114,-5.314459,42.490002,69.580002,6.02,1729473166769.0,0.0
-0.282353,-9.609575,-4.692325,17.01,86.379997,-0.42,1729473166770.0,0.0
-1.567299,-11.22473,-0.820738,9.94,89.669998,0.56,1729473166772.0,0.0
-2.667997,-11.763116,1.751546,52.43,86.800003,-2.45,1729473166781.0,0.0
-5.201996,-7.640282,10.877771,106.82,42.98,6.51,1729473166789.0,0.0
-6.046663,-6.111269,8.12124,127.610001,6.79,20.58,1729473166809.0,0.0
-4.773681,-8.422735,3.400201,-28.280001,-34.16,-4.41,1729473166829.0,0.0
-2.392823,-10.896914,-1.438086,-141.75,-67.340004,-19.32,1729473166849.0,0.0
-1.395016,-12.335001,-2.694318,-118.510002,-54.810001,-8.33,1729473166872.0,0.0
-1.105484,-12.277573,-2.644069,-47.110001,-36.75,-6.3,1729473166888.0,0.0
-0.839881,-9.607183,-1.430908,24.15,-27.51,-5.88,1729473166909.0,0.0
-0.014357,-7.381857,-2.591427,64.959999,-35.91,5.04,1729473166928.0,0.0
1.112662,-7.728817,-2.811567,39.619999,-48.580002,8.4,1729473166950.0,0.0
1.48355,-9.111869,-5.584848,-23.309999,-29.4,13.440001,1729473166971.0,0.0
1.998007,-11.866007,-7.874779,-50.049999,-4.06,8.96,1729473166989.0,0.0
1.519442,-11.052447,-5.587241,12.81,42.07,12.46,1729473167008.0,0.0
0.540778,-10.174281,-4.711468,49.279999,71.470001,8.82,1729473167033.0,0.0
-0.318245,-10.34178,-2.976671,30.799999,84.07,-4.2,1729473167049.0,0.0
-1.708475,-11.959327,-1.122234,39.759998,89.18,-3.43,1729473167069.0,0.0
-4.283153,-7.558927,10.660025,64.540001,62.650002,-16.870001,1729473167089.0,0.0
-7.812566,-7.075576,10.693524,112.279999,13.16,24.08,1729473167109.0,0.0
-6.9344,-9.360723,6.235696,15.26,-27.65,-12.32,1729473167128.0,0.0
-2.926422,-10.887343,0.909273,-100.309998,-75.809998,-28.98,1729473167149.0,0.0
-0.39003,-10.126426,-2.129612,-105.419998,-67.199997,-26.809999,1729473167170.0,0.0
0.031107,-9.154939,-2.237289,-83.090004,-44.869999,-11.34,1729473167188.0,0.0
-0.464208,-10.021141,-3.117848,-89.18,-22.75,-7.91,1729473167209.0,0.0
-0.90688,-10.339387,-2.148755,-84.349998,-15.89,-11.62,1729473167228.0,0.0
-0.765703,-8.989835,-1.426122,-51.73,-21.35,-8.12,1729473167249.0,0.0
-0.70349,-7.542177,-1.859223,-45.43,-22.960001,3.92,1729473167270.0,0.0
0.473779,-7.317252,-3.682554,-87.57,-29.889999,6.44,1729473167288.0,0.0
1.598405,-7.149754,-4.625326,-143.779999,-16.59,8.96,1729473167309.0,0.0
0.98345,-9.243474,-4.742575,-182.279999,14.21,18.129999,1729473167330.0,0.0
-0.167498,-10.365707,-6.065805,-165.270004,24.639999,24.290001,1729473167349.0,0.0
-0.215354,-9.724431,-6.04427,-129.080002,26.67,22.82,1729473167370.0,0.0
0.162712,-8.233703,-5.474778,-92.050003,30.24,24.08,1729473167388.0,0.0
0.141177,-6.955935,-5.233103,-99.260002,31.01,29.75,1729473167407.0,0.0
-0.234497,-7.046863,-4.275974,-156.240005,40.740002,31.780001,1729473167430.0,0.0
-1.253839,-7.9011,-5.843273,-217.279999,49.279999,36.540001,1729473167450.0,0.0
-1.974079,-8.77448,-6.975078,-215.320007,41.09,44.099998,1729473167471.0,0.0
-1.964507,-8.451449,-8.25763,-160.860001,24.5,63.560001,1729473167488.0,0.0
-1.328017,-6.314659,-9.530612,-106.959999,21.559999,65.730003,1729473167509.0,0.0
-1.880759,-5.56092,-10.645668,-88.970001,34.23,71.050003,1729473167530.0,0.0
-2.155933,-5.563312,-10.317852,-86.099998,33.389999,77.07,1729473167548.0,0.0
-3.682554,-3.254239,-5.283352,-59.220001,26.950001,93.940002,1729473167569.0,0.0
-4.646862,-6.939186,-5.742774,-6.23,25.34,64.120003,1729473167588.0,0.0
-2.68714,-5.151747,-7.757531,-7.63,-19.67,61.25,1729473167609.0,0.0
-2.730211,-5.089533,-11.310873,4.9,-15.4,40.110001,1729473167630.0,0.0
-1.581656,-5.300103,-11.200804,21.700001,4.69,12.39,1729473167649.0,0.0
-0.894916,-5.680561,-9.45165,54.529999,17.780001,-15.68,1729473167671.0,0.0
0.141177,-6.915257,-7.759924,56.279999,14.07,-40.599998,1729473167688.0,0.0
0.734596,-7.51107,-8.439486,77.139999,3.15,-57.889999,1729473167708.0,0.0
1.050449,-4.508078,-7.391429,100.029999,10.64,-59.5,1729473167728.0,0.0
0.12682,-2.232504,-5.754738,135.589996,25.620001,-40.040001,1729473167750.0,0.0
-2.0004,-2.404787,-3.26381,128.520004,44.73,-15.82,1729473167770.0,0.0
-4.575077,-5.051248,-3.682554,21.91,51.310001,-3.36,1729473167790.0,0.0
-5.304887,-10.162319,-6.881758,-56.490002,26.950001,-0.91,1729473167808.0,0.0
-3.428915,-11.748759,-7.025328,-59.150002,-7.07,7.98,1729473167829.0,0.0
-2.364109,-9.645468,-5.163712,-12.53,-6.16,34.299999,1729473167848.0,0.0
-4.278367,-7.733603,-3.471986,28.630001,19.809999,37.939999,1729473167883.0,0.0
-6.750153,-8.762517,-4.09412,15.4,18.48,31.360001,1729473167887.0,0.0
-6.326623,-9.24108,-5.441278,-31.85,-20.370001,24.43,1729473167908.0,0.0
-3.708875,-7.470392,-6.367301,-50.610001,-56.560001,30.450001,1729473167929.0,0.0
-1.421337,-7.314859,-7.099504,-45.360001,-68.040001,26.530001,1729473167948.0,0.0
-1.457229,-6.905686,-8.147561,-41.790001,-49.91,21.700001,1729473167969.0,0.0
-2.182254,-4.76411,-9.372685,-41.790001,-40.18,19.74,1729473167988.0,0.0
-1.751546,-4.192225,-9.454042,-27.51,-33.389999,26.530001,1729473168008.0,0.0
-0.272782,-3.718446,-9.793823,-25.620001,-37.029999,29.540001,1729473168029.0,0.0
1.864009,-4.275974,-12.689137,-39.689999,-35.630001,21.35,1729473168049.0,0.0
4.058227,-5.991628,-11.205588,-28.700001,-28.280001,8.4,1729473168071.0,0.0
1.964507,-5.259424,-9.958927,13.3,10.71,-11.2,1729473168089.0,0.0
-1.227518,-7.025328,-10.255639,24.57,36.68,-42.560001,1729473168113.0,0.0
-1.526621,-7.360322,-7.393822,-7.35,39.41,-73.639999,1729473168128.0,0.0
-0.815953,-7.006185,-6.460621,-15.68,28.559999,-91.910004,1729473168148.0,0.0
0.210568,-6.199803,-9.068797,-17.15,13.3,-101.919998,1729473168169.0,0.0
-1.39023,-9.712467,-5.182854,-37.59,22.190001,-96.040001,1729473168187.0,0.0
-3.407379,-11.492726,-4.847858,-36.540001,31.01,-98.139999,1729473168209.0,0.0
-2.924029,-5.343173,-6.45105,46.34,1.26,-74.410004,1729473168228.0,0.0
-4.21376,-3.029313,-7.499106,63.490002,8.61,-27.93,1729473168248.0,0.0
-4.680361,-3.481557,-8.315059,-0.28,18.549999,-12.11,1729473168272.0,0.0
-5.534599,-4.704289,-4.201797,-49.84,21.139999,29.26,1729473168288.0,0.0
-7.403394,-9.06162,-3.909872,-84.209999,19.530001,45.5,1729473168308.0,0.0
-3.682554,-8.29113,-7.800602,-56.84,-11.83,43.119999,1729473168328.0,0.0
-2.163112,-5.680561,-8.365308,-2.52,-23.309999,74.830002,1729473168355.0,0.0
-2.459821,-5.989235,-7.168896,25.27,-8.82,82.32,1729473168371.0,0.0
-2.959922,-3.866802,-8.690732,21.35,-11.06,88.410004,1729473168388.0,0.0
-2.285146,-5.414958,-9.044869,9.03,-17.5,90.580002,1729473168411.0,0.0
-1.72044,-6.405586,-7.992027,-12.95,-17.639999,90.510002,1729473168429.0,0.0
-0.897308,-4.852644,-8.839087,-10.08,-13.440001,74.199997,1729473168449.0,0.0
0.370888,-5.515456,-8.616554,23.450001,-21.49,85.400002,1729473168470.0,0.0
0.643669,-5.096712,-9.183653,28.630001,-11.83,71.68,1729473168488.0,0.0
-0.098106,-4.505685,-9.401401,26.18,2.31,65.730003,1729473168510.0,0.0
-0.540778,-6.324231,-8.477771,-3.99,10.01,44.240002,1729473168529.0,0.0
-0.346959,-7.573284,-10.564312,7.77,11.41,18.969999,1729473168551.0,0.0
-0.42353,-7.097112,-10.253245,44.170002,19.530001,-8.89,1729473168569.0,0.0
-1.842474,-6.163911,-8.350951,45.709999,40.670002,-43.400002,1729473168590.0,0.0
-0.318245,-6.54437,-8.372486,38.57,32.27,-80.360001,1729473168609.0,0.0
0.461815,-4.926822,-8.35813,-0.07,31.57,-120.400002,1729473168629.0,0.0
-0.904487,-6.616155,-7.04447,-31.43,33.880001,-126.0,1729473168650.0,0.0
-3.9673,-8.001599,-5.65424,-45.290001,41.720001,-124.809998,1729473168670.0,0.0
-5.254639,-8.130811,-6.388836,43.610001,24.290001,-90.090004,1729473168688.0,0.0
-4.615755,-5.419744,-4.575077,74.199997,-4.69,-64.68,1729473168709.0,0.0
-5.587241,-4.675575,-3.404987,-3.78,-0.21,-39.130001,1729473168729.0,0.0
-6.838687,-8.827123,-3.464807,-78.120003,0.07,-14.84,1729473168750.0,0.0
-5.9677,-10.116854,-5.793024,-97.860001,-20.719999,2.17,1729473168771.0,0.0
-4.065405,-6.709475,-6.302694,-57.400002,-41.93,33.32,1729473168789.0,0.0
-4.211368,-5.314459,-8.437093,-0.07,-36.540001,66.779999,1729473168809.0,0.0
-5.099105,-4.295116,-6.709475,3.36,-29.82,73.849998,1729473168831.0,0.0
-4.448257,-5.924629,-9.193225,-24.01,-40.529999,74.199997,1729473168851.0,0.0
-2.608176,-5.206782,-9.693325,8.82,-48.790001,81.760002,1729473168875.0,0.0
-1.648655,-2.991028,-10.430314,21.629999,-36.470001,68.32,1729473168890.0,0.0
-0.318245,-5.041678,-11.212767,-9.1,-19.389999,69.370003,1729473168910.0,0.0
2.201397,-5.125426,-10.607382,33.25,-25.83,66.43,1729473168930.0,0.0
1.988436,-3.617948,-8.970692,43.889999,3.5,59.290001,1729473168951.0,0.0
1.182054,-5.020142,-10.320245,21.629999,12.6,39.200001,1729473168972.0,0.0
2.091327,-5.881558,-14.074582,48.790001,17.43,11.27,1729473168990.0,0.0
1.282553,-6.690332,-8.396415,49.279999,52.990002,-21.629999,1729473169010.0,0.0
-0.358923,-7.69771,-5.414958,0.56,79.940002,-80.43,1729473169030.0,0.0
-0.799203,-9.073583,-6.932007,-8.89,30.870001,-107.940002,1729473169050.0,0.0
-0.222532,-8.571091,-7.716853,0.07,5.39,-142.169998,1729473169076.0,0.0
-1.134198,-4.87418,-6.58744,46.34,1.54,-136.639999,1729473169090.0,0.0
-4.237689,-4.414758,-6.139983,30.66,19.460001,-131.600006,1729473169111.0,0.0
-6.410372,-7.420143,-6.178268,-21.210001,24.15,-100.660004,1729473169132.0,0.0
-5.781059,-9.537791,-4.890929,-20.09,3.36,-66.57,1729473169151.0,0.0
-4.996214,-9.779467,-4.520042,-0.14,-4.41,-32.060001,1729473169173.0,0.0
-5.032106,-9.817751,-3.20399,10.43,5.18,-5.67,1729473169191.0,0.0
-5.099105,-9.097511,-3.811767,-18.41,11.06,14.07,1729473169209.0,0.0
-4.237689,-8.078169,-6.417551,-42.630001,-4.76,34.09,1729473169230.0,0.0
-2.426322,-4.867002,-8.279166,-46.41,-29.540001,56.84,1729473169251.0,0.0
-2.155933,-4.259224,-7.051648,-101.360001,-26.110001,58.240002,1729473169273.0,0.0
-2.053042,-8.255238,-8.822337,-102.970001,-27.299999,57.889999,1729473169290.0,0.0
-1.445265,-6.71426,-7.178468,-3.78,-41.650002,72.029999,1729473169310.0,0.0
-1.150948,-3.797409,-8.788837,49.209999,-34.23,57.75,1729473169331.0,0.0
-0.490529,-2.648855,-9.647861,18.83,-36.540001,66.709999,1729473169351.0,0.0
0.579063,-5.761917,-10.176675,-6.02,-37.099998,52.009998,1729473169372.0,0.0
-0.248854,-6.123233,-11.16491,9.59,-15.68,48.93,1729473169390.0,0.0
-0.571885,-4.893322,-12.528819,44.59,-4.34,44.029999,1729473169409.0,0.0
-0.102891,-4.67079,-9.729217,54.040001,0.56,30.52,1729473169430.0,0.0
-1.189233,-4.960321,-8.779266,47.459999,9.1,5.25,1729473169451.0,0.0
-2.629712,-6.087341,-9.683753,13.23,16.379999,-39.830002,1729473169471.0,0.0
-2.057827,-5.771489,-10.313066,11.41,13.37,-82.18,1729473169491.0,0.0
-1.09352,-4.046263,-7.678568,28.91,24.360001,-119.0,1729473169510.0,0.0
0.284746,-3.56052,-8.568698,27.58,3.43,-131.880005,1729473169530.0,0.0
2.148755,-2.203789,-7.886744,-14.42,-17.639999,-143.430008,1729473169550.0,0.0
0.878166,-4.986642,-8.295916,-64.75,9.94,-152.110001,1729473169571.0,0.0
-3.718446,-10.655239,-6.147161,-38.43,55.02,-94.639999,1729473169591.0,0.0
-3.711268,-4.292724,-4.323831,81.129997,43.540001,-26.950001,1729473169610.0,0.0
-7.094719,-7.640282,-0.59342,63.0,31.219999,10.36,1729473169630.0,0.0
-7.271788,-13.71566,-5.534599,-34.790001,33.040001,-6.93,1729473169650.0,0.0
-4.472186,-11.901899,-5.536992,-15.26,-18.549999,17.57,1729473169673.0,0.0
-2.184647,-7.810174,-6.9344,22.610001,-30.24,37.170002,1729473169690.0,0.0
-2.414358,-8.039884,-5.534599,13.79,-12.11,36.049999,1729473169710.0,0.0
-3.570091,-6.903293,-6.295516,-28.84,-7.7,33.110001,1729473169729.0,0.0
-2.895315,-4.634897,-7.13779,-72.099998,-29.610001,36.400002,1729473169750.0,0.0
-1.74676,-6.73101,-9.676575,-45.080002,-52.080002,63.91,1729473169772.0,0.0
2.95035,-5.556134,-11.23191,-14.21,-56.630001,46.27,1729473169790.0,0.0
2.756532,-2.921637,-11.617154,19.6,-21.700001,75.040001,1729473169811.0,0.0
2.414358,-6.020342,-8.927622,60.130001,8.33,74.480003,1729473169830.0,0.0
1.98365,-1.184447,-9.01137,144.130005,10.22,108.43,1729473169850.0,0.0
-2.266003,-5.458029,-7.759924,65.169998,32.619999,83.230003,1729473169874.0,0.0
-2.266003,-9.4349,-9.020942,2.73,27.09,31.290001,1729473169890.0,0.0
-1.423729,-5.371887,-10.650455,38.360001,14.56,3.36,1729473169910.0,0.0
-2.112862,-4.039084,-8.228917,62.650002,43.959999,-47.389999,1729473169930.0,0.0
-1.397408,-3.720839,-8.444271,43.259998,32.060001,-65.309998,1729473169951.0,0.0
-0.531207,-5.070391,-9.600004,15.47,22.049999,-79.660004,1729473169971.0,0.0
-0.354138,-9.059227,-6.12084,30.1,21.49,-93.029999,1729473169990.0,0.0
-1.708475,-4.235296,-1.26341,-20.719999,41.16,-94.989998,1729473170009.0,0.0
-7.001399,-11.31805,-5.4006,-44.170002,55.510002,-83.720001,1729473170030.0,0.0
-6.063413,-11.107484,-2.368894,-35.98,1.96,-59.779999,1729473170051.0,0.0
-4.522435,-9.755538,-1.61037,95.480003,-20.51,20.16,1729473170071.0,0.0
-2.79721,-8.652447,-2.902494,108.989998,-40.950001,21.77,1729473170091.0,0.0
-3.847659,-10.906486,-1.751546,21.91,-4.2,52.57,1729473170111.0,0.0
-4.644469,-10.892128,-2.388037,-66.010002,-11.48,48.790001,1729473170129.0,0.0
-3.720839,-7.611568,-4.953143,-87.57,-39.759998,63.209999,1729473170150.0,0.0
-0.734596,-2.009971,-7.936993,-61.810001,-88.059998,97.860001,1729473170172.0,0.0
-0.191426,-5.541777,-14.493326,-115.290001,-71.120003,90.860001,1729473170190.0,0.0
0.370888,-10.013963,-13.201202,-45.43,-43.889999,103.949997,1729473170209.0,0.0
1.184447,-2.311467,-12.957134,137.410004,-34.720001,115.709999,1729473170231.0,0.0
-3.452843,-0.988236,-7.68096,138.110001,13.37,109.270004,1729473170250.0,0.0
-3.455236,-5.448457,-9.877571,-32.48,5.53,45.709999,1729473170272.0,0.0
-1.639083,-8.685946,-10.920842,-44.380001,-2.52,1.4,1729473170289.0,0.0
-1.316052,-6.908078,-10.509278,18.34,26.530001,-40.110001,1729473170309.0,0.0
-0.928415,-6.463014,-7.032506,54.740002,41.23,-73.57,1729473170330.0,0.0
1.493121,-5.510671,-6.719046,20.719999,21.700001,-100.449997,1729473170350.0,0.0
1.954936,-7.243074,-8.037491,27.93,10.22,-97.230003,1729473170373.0,0.0
1.56012,-12.181859,-6.348158,36.049999,18.690001,-134.399994,1729473170396.0,0.0
-0.303888,-9.688539,-5.570491,23.940001,35.490002,-113.260002,1729473170410.0,0.0
-1.974079,-4.668397,-0.928415,101.709999,38.709999,-74.970001,1729473170431.0,0.0
-5.879165,-7.982457,1.308874,72.169998,43.610001,-51.52,1729473170451.0,0.0
-8.209774,-9.659825,0.150748,-41.23,25.76,-42.700001,1729473170473.0,0.0
-8.171489,-14.703895,-3.278167,7.42,-6.37,-5.32,1729473170490.0,0.0
-5.431707,-12.624532,-3.314059,-6.58,-55.16,-0.14,1729473170511.0,0.0
-4.886144,-7.743174,-2.522035,-71.889999,-22.540001,19.32,1729473170530.0,0.0
-4.34058,-5.800202,-3.34038,-122.010002,-15.75,30.870001,1729473170550.0,0.0
-2.426322,-10.289137,-10.906486,-145.669998,-60.41,44.799999,1729473170574.0,0.0
-1.447658,-7.439285,-13.261024,-38.290001,-51.240002,93.449997,1729473170590.0,0.0
-0.854238,-3.041277,-12.77528,75.669998,-28.139999,99.75,1729473170610.0,0.0
-1.507478,-2.036292,-9.975677,34.02,5.18,99.470001,1729473170630.0,0.0
-0.011964,-5.379066,-8.958728,21.84,-3.36,68.459999,1729473170651.0,0.0
1.624727,-5.213961,-6.422336,32.759998,-18.41,54.040001,1729473170672.0,0.0
0.90688,-2.904887,-6.494121,24.639999,-12.11,24.92,1729473170691.0,0.0
-0.521635,-3.940979,-8.453842,-28.139999,2.94,-10.15,1729473170712.0,0.0
-0.366102,-5.580062,-9.908678,-58.099998,-6.93,-30.940001,1729473170729.0,0.0
-0.784846,-6.087341,-8.530413,-39.130001,24.08,-50.470001,1729473170752.0,0.0
-0.887737,-5.347959,-6.240481,-13.3,33.040001,-60.549999,1729473170783.0,0.0
0.102891,-6.613762,-8.070991,-18.83,4.76,-67.550003,1729473170791.0,0.0
1.06002,-8.23131,-9.853643,-19.67,-15.190001,-84.559998,1729473170811.0,0.0
-0.191426,-9.312866,-9.147761,31.639999,12.25,-91.209999,1729473170831.0,0.0
-4.26401,-13.270595,-3.462414,181.509995,56.209999,-54.110001,1729473170851.0,0.0
-8.049455,-12.693924,0.605384,481.390015,70.139999,-0.21,1729473170876.0,0.0
-8.480164,-13.887943,-2.866602,593.950012,2.59,41.93,1729473170893.0,0.0
-6.075377,-8.719445,-0.26321,424.269989,-50.330002,23.1,1729473170911.0,0.0
-3.601198,-4.673182,2.545963,183.75,-35.279999,-3.36,1729473170932.0,0.0
-2.108077,-5.871986,1.423729,-30.380001,-4.34,-22.33,1729473170952.0,0.0
-2.115255,-9.38465,-1.502693,-156.449997,30.030001,-8.82,1729473170975.0,0.0
-2.311467,-8.999406,-1.667797,-227.990005,34.439999,-1.26,1729473170992.0,0.0
-2.541178,-4.321437,-2.208575,-311.640015,29.190001,-4.97,1729473171012.0,0.0
-3.069991,-0.844666,-3.15374,-406.769989,2.52,1.26,1729473171031.0,0.0
-3.328416,-4.721039,-8.12124,-419.51001,-22.469999,8.33,1729473171052.0,0.0
-1.337588,-9.573684,-11.380265,-282.660004,-61.880001,16.66,1729473171074.0,0.0
0.368495,-7.630712,-10.279566,-82.669998,-72.730003,63.700001,1729473171091.0,0.0
-1.397408,-5.446064,-8.592626,-6.16,-14.35,67.550003,1729473171115.0,0.0
-3.943372,-5.022535,-9.171689,-46.27,11.9,39.759998,1729473171131.0,0.0
-3.455236,-6.661618,-9.47797,-85.050003,-3.92,31.43,1729473171151.0,0.0
-1.72044,-7.57089,-9.205189,-76.580002,-7.91,30.1,1729473171175.0,0.0
-1.725225,-4.575077,-9.24108,-23.870001,13.3,21.280001,1729473171193.0,0.0
-3.136991,-0.078963,-15.022141,-60.619999,30.309999,12.18,1729473171210.0,0.0
-4.472186,-1.868794,-14.05544,-130.479996,71.889999,-7.56,1729473171232.0,0.0
-2.548356,-8.114061,-13.141381,-183.050003,87.639999,-29.33,1729473171252.0,0.0
0.667598,-10.353743,-8.956335,-115.080002,86.449997,-58.799999,1729473171273.0,0.0
0.79681,-8.953942,-4.888536,-60.48,116.059998,-98.489998,1729473171291.0,0.0
1.416551,-8.109276,0.961915,21.280001,87.849998,-115.709999,1729473171312.0,0.0
2.048256,-7.334002,-0.830309,159.740005,24.01,-100.870003,1729473171331.0,0.0
3.431308,-6.831509,-1.945365,295.470001,-52.920002,-72.099998,1729473171352.0,0.0
3.28056,-7.597212,-7.68096,462.48999,-96.879997,-7.63,1729473171372.0,0.0
0.806381,-5.175675,-7.142576,489.369995,-74.199997,49.84,1729473171391.0,0.0
-4.615755,-4.185047,1.356731,258.649994,77.840004,70.980003,1729473171411.0,0.0
-11.052447,-6.601797,-1.062413,-134.330002,116.690002,35.209999,1729473171431.0,0.0
-9.899107,-10.691131,-7.532606,-373.589996,18.27,-4.06,1729473171451.0,0.0
-3.608376,-9.614362,-11.057234,-350.070007,-60.900002,2.59,1729473171483.0,0.0
-1.26341,-11.447264,-11.150554,-209.860001,-68.949997,41.299999,1729473171491.0,0.0
-4.108476,-7.353144,-4.898108,-185.149994,60.689999,35.84,1729473171511.0,0.0
-6.290731,-9.678967,-3.634698,17.99,-6.23,41.93,1729473171531.0,0.0
-3.481557,-7.88435,-6.54437,88.059998,-57.260002,39.130001,1729473171551.0,0.0
-0.969093,-0.370888,-7.798209,22.26,-74.129997,41.93,1729473171571.0,0.0
-1.031307,-1.770689,-10.432706,-56.420002,-49.77,54.459999,1729473171592.0,0.0
0.059821,-7.992027,-9.183653,-42.700001,-38.43,38.639999,1729473171611.0,0.0
0.437887,-2.608176,-11.940186,7.63,-30.24,72.730003,1729473171630.0,0.0
-1.119841,-5.304887,-9.090333,10.43,8.4,57.82,1729473171652.0,0.0
-0.801596,-6.647261,-8.975478,-4.76,4.48,37.73,1729473171672.0,0.0
-0.574277,-6.78126,-9.281759,-0.07,0.63,16.940001,1729473171771.0,0.0
-0.851845,-7.142576,-9.535398,15.4,10.36,-20.860001,1729473171773.0,0.0
-1.37348,-6.135197,-9.432507,42.279999,20.860001,-38.920002,1729473171775.0,0.0
-1.569692,-5.515456,-8.903693,76.790001,35.209999,-55.02,1729473171800.0,0.0
-0.851845,-5.020142,-6.656832,98.07,39.41,-55.580002,1729473171801.0,0.0
0.100499,-7.240681,-4.833502,66.919998,25.620001,-49.279999,1729473171803.0,0.0
0.823131,-10.408779,-8.932407,25.9,5.39,-80.57,1729473171811.0,0.0
0.131605,-8.171489,-7.633104,19.950001,21.77,-84.489998,1729473171832.0,0.0
-3.790231,-9.255438,-3.74716,128.380005,49.279999,-66.639999,1729473171851.0,0.0
-5.639884,-9.056834,-6.692725,182.279999,15.26,-56.490002,1729473171875.0,0.0
-4.608576,-5.300103,-4.503292,138.039993,-21.49,-50.82,1729473171891.0,0.0
-3.917051,-8.583055,-3.010171,135.100006,-17.290001,-18.059999,1729473171910.0,0.0
-1.847259,-7.142576,-4.95075,62.650002,-37.450001,-35.209999,1729473171930.0,0.0
-1.564906,-6.845865,-3.553342,6.86,-8.68,-4.48,1729473171951.0,0.0
-2.837888,-7.707282,-2.251646,-67.830002,17.780001,3.43,1729473171972.0,0.0
-4.931608,-8.630912,-0.710668,-151.830002,31.99,7.28,1729473171991.0,0.0
-6.455836,-10.10489,-0.344566,-203.070007,8.54,-11.69,1729473172017.0,0.0
-6.070591,-10.360922,-3.24706,-199.220001,-54.040001,-20.299999,1729473172030.0,0.0
-2.421536,-5.71406,-10.817951,-113.050003,-108.639999,1.75,1729473172066.0,0.0
-0.29671,-3.108276,-12.674782,-60.689999,-127.330002,45.080002,1729473172169.0,0.0
-0.591027,-4.146761,-12.12204,-118.720001,-49.91,28.630001,1729473172170.0,0.0
1.215554,0.748954,-10.10489,-2.87,-21.77,46.48,1729473172200.0,0.0
-2.770889,-0.921237,-8.906086,86.590004,-25.9,89.25,1729473172200.0,0.0
-3.18724,-5.13739,-9.439686,33.18,31.780001,77.489998,1729473172200.0,0.0
-1.928615,-8.408379,-11.160125,-25.41,23.799999,66.919998,1729473172201.0,0.0
-1.615155,-7.877172,-12.878171,-31.360001,5.67,56.560001,1729473172209.0,0.0
-0.997807,-5.302495,-8.484949,133.630005,57.82,-25.76,1729473172230.0,0.0
-0.0335,-3.661019,-2.986243,125.650002,60.27,-44.73,1729473172252.0,0.0
1.849652,-3.914658,-5.201996,90.790001,20.790001,-55.09,1729473172272.0,0.0
0.993021,-7.905886,-6.443871,51.939999,24.290001,-60.689999,1729473172290.0,0.0
-0.315853,-11.363515,-7.846066,13.3,27.860001,-81.269997,1729473172311.0,0.0
-1.411765,-10.547562,-5.201996,50.959999,28.210001,-52.360001,1729473172330.0,0.0
-2.617748,-7.611568,-3.479164,138.389999,29.540001,-21.35,1729473172350.0,0.0
-3.56052,-6.958328,-4.632504,130.970001,15.47,-39.34,1729473172372.0,0.0
-4.462614,-8.595018,-1.361516,83.370003,24.780001,-5.46,1729473172391.0,0.0
-4.316652,-9.114261,-0.981057,118.090004,4.97,7.49,1729473172412.0,0.0
-3.859623,-7.67139,-2.354537,194.460007,-24.290001,36.82,1729473172437.0,0.0
-2.938386,-5.922236,-2.756532,272.860016,-41.720001,54.459999,1729473172462.0,0.0
-3.091527,-7.255038,-0.452243,343.700012,-45.220001,71.68,1729473172555.0,0.0
-4.252046,-10.289137,0.954736,406.910004,-31.360001,81.059998,1729473172558.0,0.0
-5.022535,-10.626525,-1.519442,392.630005,-6.44,76.93,1729473172559.0,0.0
-3.196811,-8.695518,2.124826,150.779999,8.61,48.09,1729473172560.0,0.0
-2.0004,-9.51147,2.321038,5.18,6.44,29.610001,1729473172561.0,0.0
-2.213361,-12.502499,1.844866,-28.49,6.02,28.49,1729473172572.0,0.0
-2.009971,-13.627125,1.234696,14.14,-0.98,20.860001,1729473172590.0,0.0
-0.98345,-13.03849,0.624527,33.529999,-4.41,7.21,1729473172611.0,0.0
-0.533599,-10.624132,1.811367,-63.490002,14.28,-12.11,1729473172631.0,0.0
-1.052842,-9.348758,2.522035,-203.770004,40.110001,-22.82,1729473172651.0,0.0
-2.065006,-10.576276,3.424129,-335.720001,40.810001,-37.380001,1729473172674.0,0.0
-2.648855,-10.928021,3.902694,-452.970001,26.74,-60.689999,1729473172692.0,0.0
-2.962314,-11.442478,1.371087,-496.790009,-5.46,-95.340004,1729473172712.0,0.0
-3.101098,-9.020942,0.014357,-503.720001,-30.030001,-113.889999,1729473172731.0,0.0
-3.974478,-5.867201,-3.326023,-438.200012,-42.98,-113.330002,1729473172752.0,0.0
-4.405186,-0.11007,-10.561919,-383.670013,-44.869999,-106.400002,1729473172775.0,0.0
-4.180261,-0.184247,-12.445071,-272.019989,-38.5,-22.190001,1729473172793.0,0.0
-2.632105,-9.968499,-12.174682,-107.730003,-28.91,29.540001,1729473172813.0,0.0
-1.481157,-6.623333,-8.652447,70.699997,-4.62,57.68,1729473172844.0,0.0
-3.189633,0.232104,-6.104091,98.489998,23.030001,63.77,1729473172854.0,0.0
-3.148954,-2.378466,-7.783852,35.77,7.49,62.02,1729473172881.0,0.0
-0.830309,-4.603791,-9.944571,-38.849998,-14.91,54.670002,1729473172892.0,0.0
-0.485743,-6.139983,-12.892529,-12.11,-1.61,53.200001,1729473172913.0,0.0
-0.0335,-5.91745,-13.878372,70.629997,25.969999,30.030001,1729473172932.0,0.0
0.246461,-6.372087,-9.719646,151.270004,50.889999,19.110001,1729473172954.0,0.0
1.660619,-7.73121,-7.927422,171.570007,44.66,-9.31,1729473172974.0,0.0
3.34038,-5.931807,-4.634897,135.520004,29.049999,-42.560001,1729473172992.0,0.0
1.87358,-6.38405,-3.242275,46.060001,50.259998,-69.230003,1729473173013.0,0.0
-1.29691,-5.321638,-0.404387,-51.52,59.080002,-65.239998,1729473173032.0,0.0
-5.465207,-7.704889,2.438286,-109.620003,45.360001,-53.970001,1729473173053.0,0.0
-9.461221,-10.320245,-0.332602,-171.149994,10.5,-65.660004,1729473173074.0,0.0
-5.276174,-8.549555,-5.651847,-155.259995,-96.739998,-79.169998,1729473173093.0,0.0
-1.665405,-1.993221,-15.211173,-136.5,-147.350006,-20.790001,1729473173112.0,0.0
-5.496314,-7.219146,-15.993626,-93.660004,-18.34,0.35,1729473173132.0,0.0
-6.123233,-7.501499,-14.067404,34.650002,13.16,24.08,1729473173157.0,0.0
-4.12044,-5.149354,-8.989835,91.769997,10.99,34.23,1729473173175.0,0.0
-2.182254,-5.726025,-7.365108,84.419998,4.48,9.59,1729473173193.0,0.0
-0.969093,-4.615755,-6.996613,36.610001,1.19,-8.61,1729473173212.0,0.0
-0.801596,-3.902694,-7.649854,1.47,-5.39,-9.38,1729473173232.0,0.0
-2.06022,-4.603791,-8.635696,-37.170002,11.76,-7.84,1729473173253.0,0.0
-1.150948,-7.465607,-7.427321,-35.209999,5.88,-6.16,1729473173274.0,0.0
0.239282,-2.699104,-13.533805,-41.650002,0.56,4.97,1729473173293.0,0.0
2.768496,-7.439285,-5.565705,71.470001,-10.43,25.27,1729473173312.0,0.0
3.034099,-0.533599,-1.600798,105.840004,35.279999,22.469999,1729473173333.0,0.0
-2.768496,-5.252246,-4.742575,56.98,24.43,34.790001,1729473173352.0,0.0
-0.79681,-5.45085,-5.63749,-26.040001,-10.78,-8.47,1729473173374.0,0.0
0.818345,-5.410172,-8.846266,-43.82,-54.880001,11.27,1729473173392.0,0.0
-3.20399,-6.60419,-11.270195,-31.780001,4.41,-4.06,1729473173412.0,0.0
-4.342973,-5.424529,-10.750952,8.19,9.24,-2.38,1729473173433.0,0.0
-4.682754,-6.685547,-10.569098,-16.450001,6.65,-7.98,1729473173452.0,0.0
-3.495914,-6.427122,-7.202396,54.040001,12.11,-17.639999,1729473173474.0,0.0
-3.522235,-5.979663,-7.846066,44.450001,22.120001,-22.26,1729473173492.0,0.0
-2.67039,-5.503492,-7.843673,65.730003,16.52,-17.15,1729473173512.0,0.0
-0.911665,-5.070391,-6.793223,95.900002,-7.28,-2.38,1729473173532.0,0.0
-0.930808,-6.876972,-5.886343,97.370003,-8.61,1.82,1729473173552.0,0.0
-2.474179,-9.812965,-3.720839,112.349998,11.76,-7.63,1729473173574.0,0.0
-3.235096,-10.664811,-7.240681,149.520004,14.21,-18.41,1729473173592.0,0.0
-2.833102,-10.516455,-7.046863,205.449997,-3.36,-8.54,1729473173613.0,0.0
-1.830509,-10.533205,-6.453443,293.860016,-18.129999,-10.22,1729473173632.0,0.0
-0.985843,-10.456635,-7.24786,395.429993,-7.84,-8.33,1729473173652.0,0.0
-1.004985,-7.530212,-5.276174,451.570007,-17.92,0.56,1729473173675.0,0.0
-0.959522,-6.716653,-3.739982,524.650024,-12.88,22.120001,1729473173692.0,0.0
-1.691726,-6.829116,-0.650848,559.789978,-11.83,40.880001,1729473173711.0,0.0
-2.227718,-7.288538,2.35693,509.950012,-16.799999,41.02,1729473173731.0,0.0
-1.897508,-7.508677,3.787838,394.869995,-19.25,28.91,1729473173752.0,0.0
-1.0002,-7.21436,4.869394,246.75,-13.58,18.200001,1729473173773.0,0.0
-0.827917,-8.188239,4.505685,70.699997,-4.83,5.81,1729473173792.0,0.0
-1.158126,-8.848659,3.299703,11.76,-0.28,0.14,1729473173812.0,0.0
-1.383051,-9.181261,3.448057,12.95,4.06,-1.26,1729473173832.0,0.0
-1.440479,-8.606983,4.15394,31.01,11.41,-2.31,1729473173852.0,0.0
-1.363909,-8.066205,4.718646,46.619999,11.2,-4.55,1729473173877.0,0.0
-1.404587,-7.092326,5.577669,58.66,12.67,-1.05,1729473173892.0,0.0
-2.122434,-5.816952,6.072984,65.800003,13.02,3.29,1729473173912.0,0.0
-3.07717,-5.71406,6.417551,91.419998,7.91,10.57,1729473173932.0,0.0
-3.503092,-6.039484,7.508677,128.520004,12.74,26.6,1729473173952.0,0.0
-4.103691,-3.318845,6.867401,95.269997,28.630001,16.1,1729473173973.0,0.0
-3.84048,-4.73061,6.355337,66.080002,6.16,35.279999,1729473173992.0,0.0
-2.78046,-7.709675,7.343572,67.620003,15.68,40.740002,1729473174012.0,0.0
-3.022135,-9.52822,8.626125,56.630001,20.719999,27.440001,1729473174032.0,0.0
-3.165704,-8.767302,7.688138,34.860001,17.219999,20.16,1729473174052.0,0.0
-3.117848,-7.79103,7.185646,29.120001,20.790001,8.89,1729473174083.0,0.0
-3.567699,-8.532805,7.037291,18.549999,9.59,-4.83,1729473174091.0,0.0
-2.816352,-8.176274,7.57089,38.43,6.93,-11.13,1729473174112.0,0.0
-2.225325,-4.228118,7.391429,86.099998,5.04,-4.27,1729473174132.0,0.0
-2.720639,-3.036492,6.766902,76.790001,-3.71,7.7,1729473174152.0,0.0
-3.658626,-2.892922,5.972485,33.040001,-6.65,16.24,1729473174174.0,0.0
-4.534399,-3.034099,6.082555,-30.73,-0.35,20.09,1729473174191.0,0.0
-4.675575,-4.254438,6.439085,-103.669998,1.68,17.360001,1729473174211.0,0.0
-4.007978,-5.71406,5.996413,-167.160004,1.68,11.48,1729473174232.0,0.0
-3.294917,-7.657032,6.211767,-198.100006,-0.56,6.02,1729473174252.0,0.0
-4.053442,-10.179067,6.594619,-224.559998,-8.54,-0.84,1729473174275.0,0.0
-2.617748,-11.167303,5.539384,-217.279999,-27.790001,-18.27,1729473174292.0,0.0
-2.813959,-8.092526,4.599005,-171.289993,-17.780001,-8.47,1729473174312.0,0.0
-3.211168,-7.915457,2.07697,-128.309998,-20.51,-9.73,1729473174332.0,0.0
-2.026721,-9.159724,2.06022,-82.18,-13.58,-7.49,1729473174352.0,0.0
-1.799403,-7.965706,4.007978,-37.799999,9.1,-4.83,1729473174373.0,0.0
-2.598605,-6.407979,6.228518,-42.560001,17.15,-0.49,1729473174391.0,0.0
-3.156133,-6.362515,6.319445,-90.93,6.79,0.84,1729473174411.0,0.0
-2.63689,-8.054241,4.728218,-112.0,-11.62,4.62,1729473174432.0,0.0
-2.234896,-10.078569,3.220739,-69.370003,-14.77,11.55,1729473174452.0,0.0
-3.036492,-11.155338,2.758924,51.799999,-10.78,19.809999,1729473174475.0,0.0
-3.031706,-10.296316,3.218346,117.739998,-2.17,19.040001,1729473174491.0,0.0
-3.086741,-8.913264,4.005585,151.410004,5.67,18.129999,1729473174512.0,0.0
-3.481557,-8.054241,4.785645,145.25,8.26,12.88,1729473174531.0,0.0
-3.438486,-7.568498,4.553542,128.029999,6.09,9.66,1729473174552.0,0.0
-3.448057,-7.381857,5.111069,114.800003,8.05,11.97,1729473174573.0,0.0
-3.627519,-8.145168,5.580062,71.470001,6.3,2.94,1729473174599.0,0.0
-2.835495,-8.834301,5.115855,20.93,-0.49,-5.81,1729473174611.0,0.0
-2.493321,-8.717053,4.704289,17.290001,3.01,-7.21,1729473174631.0,0.0
-2.617748,-8.776874,4.826324,25.76,6.02,-13.58,1729473174653.0,0.0
-1.689333,-7.4345,5.623133,18.549999,8.19,-18.48,1729473174673.0,0.0
-1.387837,-5.405386,5.989235,11.48,6.09,-12.95,1729473174692.0,0.0
-2.835495,-4.546363,7.003791,-7.42,1.82,-2.24,1729473174712.0,0.0
-4.474578,-5.211568,6.786045,-67.199997,-10.36,-0.35,1729473174731.0,0.0
-4.95075,-5.812167,5.972485,-115.849998,-21.77,2.52,1729473174752.0,0.0
-5.015356,-8.85105,6.91765,-141.539993,-28.98,3.57,1729473174774.0,0.0
-3.117848,-9.102298,4.101298,-188.930008,-43.68,-11.83,1729473174792.0,0.0
-2.852244,-9.355937,0.894916,-193.970001,-38.43,-23.1,1729473174812.0,0.0
-3.113062,-10.473385,-0.911665,-163.800003,-22.190001,-24.219999,1729473174832.0,0.0
-2.084148,-11.073983,-0.368495,-82.18,-3.01,-19.460001,1729473174852.0,0.0
-1.818545,-9.157332,2.845066,10.99,19.879999,-10.99,1729473174876.0,0.0
-3.002992,-7.767102,3.799802,46.619999,22.610001,-7.7,1729473174892.0,0.0
-3.278167,-7.743174,3.4672,43.400002,11.83,-3.92,1729473174913.0,0.0
-2.914458,-8.559127,3.282953,55.580002,4.9,0.49,1729473174934.0,0.0
-3.192025,-8.738588,3.605984,80.150002,6.51,5.18,1729473174954.0,0.0
-3.175276,-8.252845,3.601198,93.870003,9.94,6.93,1729473174975.0,0.0
-2.787638,-7.932207,4.297509,91.07,15.26,8.54,1729473174995.0,0.0
-2.845066,-7.269395,5.146961,80.43,15.68,7.63,1729473175014.0,0.0
-3.617948,-6.175875,4.74736,71.68,15.26,14.35,1729473175033.0,0.0
-3.713661,-8.030313,3.964907,65.169998,14.56,20.09,1729473175054.0,0.0
-3.218346,-9.937392,4.642076,22.26,13.23,7.63,1729473175075.0,0.0
-2.586641,-10.542776,4.328616,4.55,10.29,-2.24,1729473175093.0,0.0
-2.440679,-11.813366,5.300103,2.66,11.76,-10.01,1729473175113.0,0.0
-1.785046,-10.765309,5.974878,-12.32,1.61,-26.6,1729473175134.0,0.0
-1.378266,-8.128418,6.285945,8.75,-3.5,-23.450001,1729473175154.0,0.0
-1.617548,-5.814559,5.852845,43.959999,-11.06,-17.780001,1729473175176.0,0.0
-2.289931,-5.367101,5.56092,49.349998,-17.360001,-7.91,1729473175193.0,0.0
-2.557927,-5.146961,5.142176,19.950001,-19.74,-3.64,1729473175214.0,0.0
-3.223132,-5.656632,5.431707,-28.280001,-15.61,2.24,1729473175233.0,0.0
-3.895515,-6.79083,5.608776,-85.82,-19.25,1.54,1729473175254.0,0.0
-3.795017,-8.090133,4.24726,-110.459999,-27.16,-0.63,1729473175275.0,0.0
-3.421736,-8.705089,3.512664,-76.019997,-25.34,2.24,1729473175293.0,0.0
-4.024727,-8.477771,4.364508,-44.59,-14.7,6.58,1729473175317.0,0.0
-4.601398,-8.769694,4.587041,-79.590004,-12.95,-3.15,1729473175333.0,0.0
-3.979264,-9.162118,3.65384,-147.490005,-19.809999,-16.73,1729473175353.0,0.0
-3.476771,-10.162319,0.366102,-147.139999,-21.559999,-20.09,1729473175375.0,0.0
-1.914258,-10.695917,1.770689,-50.400002,-8.89,-7.91,1729473175394.0,0.0
-2.349752,-7.948956,4.04387,67.059998,19.530001,0.63,1729473175413.0,0.0
-2.998207,-6.465407,4.546363,57.189999,15.61,7.7,1729473175433.0,0.0
-2.591427,-7.465607,3.799802,29.26,6.16,10.57,1729473175454.0,0.0
-2.091327,-8.685946,3.275774,33.950001,2.17,14.63,1729473175474.0,0.0
-2.299503,-8.355737,3.512664,77.980003,10.5,19.950001,1729473175494.0,0.0
-2.914458,-7.209574,4.462614,105.489998,18.83,25.41,1729473175513.0,0.0
-3.443272,-7.274181,5.32403,75.32,15.26,23.66,1729473175533.0,0.0
-3.304488,-8.176274,4.558327,27.65,2.66,15.89,1729473175553.0,0.0
-3.184847,-9.219545,4.003192,38.080002,0.35,18.690001,1729473175575.0,0.0
-2.940779,-9.150154,4.168297,67.410004,4.76,15.33,1729473175593.0,0.0
-2.921637,-8.834301,4.199404,66.43,13.51,11.27,1729473175613.0,0.0
-2.663212,-8.85823,4.421937,29.889999,15.75,2.38,1729473175634.0,0.0
-3.158526,-9.109475,5.163712,-6.3,15.12,-4.13,1729473175653.0,0.0
-3.189633,-8.762517,5.529813,-24.219999,14.42,-10.08,1729473175674.0,0.0
-2.945565,-8.702696,5.745167,-30.52,8.68,-14.98,1729473175693.0,0.0
-2.24686,-7.853244,5.369494,-21.98,2.38,-15.82,1729473175712.0,0.0
-1.689333,-6.329016,4.603791,-3.22,-0.7,-10.85,1729473175733.0,0.0
-2.378466,-6.486942,4.163511,6.86,-1.33,0.07,1729473175753.0,0.0
-3.134598,-6.98465,4.603791,-22.82,2.45,2.45,1729473175774.0,0.0
-3.773481,-7.865208,4.65404,-89.110001,1.05,-2.87,1729473175793.0,0.0
-3.818945,-9.265009,4.364508,-135.309998,-7.07,-8.19,1729473175812.0,0.0
-3.412165,-10.447062,4.402793,-147.910004,-10.22,-14.35,1729473175833.0,0.0
-3.084348,-10.688738,3.818945,-151.970001,-16.24,-24.639999,1729473175853.0,0.0
-3.007778,-10.91845,2.517249,-135.309998,-20.790001,-30.799999,1729473175878.0,0.0
-2.701497,-10.578669,1.732404,-89.040001,-17.15,-33.529999,1729473175893.0,0.0
-2.938386,-9.518648,2.175076,-34.580002,-7.28,-29.68,1729473175913.0,0.0
-3.20399,-8.197811,3.388237,-9.8,-1.05,-27.51,1729473175933.0,0.0
-3.261417,-7.429714,3.701697,-25.129999,-3.64,-24.710001,1729473175953.0,0.0
-2.758924,-7.728817,3.591627,-41.509998,-9.87,-16.24,1729473175974.0,0.0
-2.816352,-8.183454,2.151148,-34.299999,-11.69,-6.93,1729473175993.0,0.0
-3.505485,-8.927622,1.497907,-6.79,-4.55,2.24,1729473176013.0,0.0
-3.278167,-9.379865,1.679761,21.98,0.14,6.58,1729473176033.0,0.0
-3.383451,-8.563912,2.041078,41.650002,7.49,10.43,1729473176054.0,0.0
-3.78066,-8.49452,2.136791,42.490002,12.95,11.13,1729473176074.0,0.0
-3.383451,-8.492127,3.402594,36.540001,9.52,12.53,1729473176092.0,0.0
-3.385844,-8.260024,3.893122,25.76,4.9,14.21,1729473176113.0,0.0
-3.333202,-8.729016,2.624927,16.870001,-5.6,16.17,1729473176132.0,0.0
-2.481357,-9.35833,1.591227,40.810001,-8.54,20.719999,1729473176153.0,0.0
-2.340181,-9.276974,1.294517,75.32,3.99,22.190001,1729473176174.0,0.0
-3.012564,-9.45165,1.744368,93.730003,21.139999,21.77,1729473176192.0,0.0
-3.244668,-9.705289,2.301895,69.860001,33.740002,9.52,1729473176213.0,0.0
-3.022135,-9.001799,3.491128,28.98,38.709999,9.52,1729473176232.0,0.0
-2.533999,-8.183454,4.663611,4.2,37.869999,0.35,1729473176253.0,0.0
-1.741975,-8.690732,4.991428,-11.13,26.880001,-0.84,1729473176275.0,0.0
-1.385444,-8.547162,4.328616,-14.35,16.870001,0.63,1729473176292.0,0.0
-1.615155,-7.84128,3.87398,-3.5,10.57,7.56,1729473176312.0,0.0
-2.569891,-8.193025,3.460021,3.99,1.68,15.26,1729473176333.0,0.0
-4.07737,-9.346365,2.67039,-12.53,-4.06,11.9,1729473176353.0,0.0
-4.302295,-9.88475,1.677369,-48.09,-5.25,0.07,1729473176374.0,0.0
-3.381058,-10.758131,4.003192,-71.82,-1.75,-9.03,1729473176393.0,0.0
-2.859423,-10.313066,5.13739,-102.550003,-6.79,-26.950001,1729473176412.0,0.0
-3.110669,-10.69831,4.443472,-110.459999,-22.33,-37.799999,1729473176433.0,0.0
-3.452843,-11.042876,2.828316,-73.639999,-33.389999,-42.139999,1729473176454.0,0.0
-4.759324,-10.741381,0.131605,9.17,-24.639999,-40.459999,1729473176475.0,0.0
-3.940979,-8.721838,1.895115,85.610001,-7.98,-27.440001,1729473176492.0,0.0
-3.098706,-5.398208,4.259224,103.25,3.15,-14.49,1729473176513.0,0.0
-4.072584,-4.017549,4.859823,47.599998,8.05,-6.72,1729473176532.0,0.0
-3.457629,-6.008378,3.378666,-42.490002,-11.76,-4.76,1729473176555.0,0.0
-1.507478,-9.29133,1.012164,-61.599998,-22.26,0.63,1729473176575.0,0.0
-0.839881,-10.095319,1.658226,-0.21,-8.26,16.799999,1729473176592.0,0.0
-2.818745,-9.341579,1.919044,52.849998,6.86,19.74,1729473176612.0,0.0
-4.103691,-8.767302,2.132005,60.619999,8.54,21.280001,1729473176641.0,0.0
-3.948158,-8.508877,4.113262,45.009998,5.74,16.799999,1729473176653.0,0.0
-3.921836,-7.724032,4.713861,6.02,-4.13,9.03,1729473176675.0,0.0
-4.194618,-8.470592,3.888337,-7.28,-17.639999,13.440001,1729473176759.0,0.0
-3.369094,-9.147761,1.237089,16.870001,-18.690001,11.76,1729473176760.0,0.0
-3.974478,-9.97807,1.612763,59.080002,10.64,9.8,1729473176767.0,0.0
-3.909872,-9.832108,3.201597,38.5,28.280001,1.47,1729473176770.0,0.0
-2.392823,-10.614561,3.775874,1.96,26.18,-8.12,1729473176783.0,0.0
-0.677169,-10.636096,3.589234,1.19,16.66,-12.67,1729473176792.0,0.0
-0.244068,-9.250652,3.424129,50.119999,13.02,-3.78,1729473176813.0,0.0
-1.488336,-7.951349,3.404987,96.110001,14.35,2.1,1729473176834.0,0.0
-2.493321,-6.82433,3.07717,89.25,11.41,4.55,1729473176854.0,0.0
-2.955136,-6.675975,2.29711,41.02,13.440001,4.97,1729473176878.0,0.0
-3.512664,-6.98465,3.108276,-45.639999,17.219999,-0.42,1729473176894.0,0.0
-3.579663,-8.037491,5.257031,-131.039993,15.47,-6.65,1729473176913.0,0.0
-3.661019,-9.370294,6.01077,-187.25,2.52,-14.77,1729473176933.0,0.0
-3.529413,-10.545169,5.087141,-194.880005,-17.360001,-23.309999,1729473176954.0,0.0
-3.163311,-11.437693,3.409772,-164.570007,-32.549999,-29.960001,1729473176975.0,0.0
-3.306881,-10.600205,1.004985,-115.5,-33.880001,-37.099998,1729473176996.0,0.0
-4.307081,-9.745967,-0.428315,-51.380001,-17.290001,-33.110001,1729473177014.0,0.0
-3.309274,-8.879765,2.306681,20.51,3.99,-18.129999,1729473177034.0,0.0
-2.708675,-6.71426,4.007978,24.639999,9.45,-11.55,1729473177055.0,0.0
-3.555735,-6.776474,3.775874,18.690001,4.9,-0.42,1729473177076.0,0.0
-3.541377,-9.274581,2.622534,47.25,-17.360001,6.93,1729473177094.0,0.0
-1.402194,-9.269794,1.194018,134.889999,-22.469999,22.610001,1729473177116.0,0.0
-2.103291,-7.597212,1.842474,194.25,8.26,36.75,1729473177134.0,0.0
-2.902494,-5.759524,3.34038,150.149994,15.4,38.920002,1729473177155.0,0.0
-3.739982,-7.176075,3.318845,71.610001,3.43,39.27,1729473177176.0,0.0
-4.541577,-11.07159,1.603191,33.880001,-9.94,26.6,1729473177194.0,0.0
-4.091727,-12.47857,1.78026,49.490002,-2.24,19.32,1729473177215.0,0.0
-3.699304,-10.016356,3.773481,62.09,13.58,5.46,1729473177235.0,0.0
-3.39063,-8.372486,5.020142,24.85,8.61,-2.87,1729473177255.0,0.0
-2.514857,-8.678767,5.362316,-33.810001,-5.39,-10.08,1729473177277.0,0.0
-1.718047,-9.966106,4.019942,-49.490002,-14.28,-16.17,1729473177295.0,0.0
-0.748954,-9.609575,4.101298,-15.82,-6.72,-15.4,1729473177315.0,0.0
-1.141376,-5.843273,6.599405,29.889999,3.64,-5.53,1729473177335.0,0.0
-3.369094,-5.682954,8.123632,-6.23,-7.77,4.55,1729473177359.0,0.0
-4.555934,-7.21436,7.743174,-93.449997,-34.02,-1.61,1729473177376.0,0.0
-4.527221,-9.836893,4.680361,-194.320007,-51.099998,-15.61,1729473177394.0,0.0
-2.328217,-11.083554,-0.428315,-237.580002,-63.700001,-36.610001,1729473177415.0,0.0
-1.787439,-10.956735,-3.031706,-188.020004,-33.599998,-35.84,1729473177434.0,0.0
-3.555735,-10.131211,-2.979064,-111.440002,11.41,-29.75,1729473177455.0,0.0
-4.280759,-9.006584,0.459422,-70.980003,38.360001,-22.960001,1729473177477.0,0.0
-3.428915,-6.867401,2.610569,-63.98,31.780001,-17.01,1729473177495.0,0.0
-3.242275,-6.235696,1.473979,-60.27,24.92,-1.26,1729473177514.0,0.0
-3.608376,-8.051848,1.4668,-52.709999,18.549999,6.23,1729473177535.0,0.0
-3.969693,-10.322637,1.251446,-9.03,5.46,16.030001,1729473177554.0,0.0
-3.330809,-10.504492,0.72024,62.580002,1.19,20.370001,1729473177576.0,0.0
-2.667997,-8.9348,0.490529,102.830002,10.57,21.35,1729473177595.0,0.0
-2.888137,-8.154739,0.937986,87.5,18.620001,22.049999,1729473177614.0,0.0
-3.352344,-8.941978,2.443072,41.299999,18.83,19.460001,1729473177634.0,0.0
-2.811567,-8.946764,4.41715,-1.47,5.32,12.25,1729473177655.0,0.0
-3.06042,-9.698111,2.057827,-4.2,-18.200001,11.9,1729473177676.0,0.0
-3.414558,-11.322837,0.210568,48.650002,-20.370001,11.83,1729473177694.0,0.0
-3.440879,-11.779866,-0.337388,100.870003,-3.71,9.17,1729473177714.0,0.0
-3.299703,-10.432706,0.90688,110.669998,24.219999,-2.1,1729473177734.0,0.0
-3.582055,-9.382257,3.885944,58.799999,38.360001,-12.67,1729473177754.0,0.0
-3.014957,-10.07139,4.996214,-13.93,24.01,-25.9,1729473177776.0,0.0
-1.732404,-10.569098,3.931407,-42.77,1.54,-35.700001,1729473177794.0,0.0
-0.148355,-10.068997,2.596212,16.799999,-17.01,-30.870001,1729473177814.0,0.0
0.143569,-8.377272,1.469193,107.449997,-11.76,-15.190001,1729473177834.0,0.0
-0.40678,-6.259624,1.091127,133.979996,-0.07,-4.69,1729473177854.0,0.0
-0.789631,-5.563312,1.923829,87.989998,4.41,3.22,1729473177881.0,0.0
-1.533799,-7.099504,2.254039,-4.76,9.03,0.98,1729473177894.0,0.0
-2.845066,-10.406385,2.868994,-70.419998,8.54,-1.89,1729473177914.0,0.0
-3.881158,-12.342178,3.259024,-84.840004,6.02,-13.58,1729473177934.0,0.0
-4.414758,-11.447264,3.558127,-70.559998,7.7,-25.620001,1729473177955.0,0.0
-4.680361,-9.930215,2.723032,-32.689999,4.9,-30.1,1729473177976.0,0.0
-5.13739,-7.982457,4.723432,19.25,6.58,-23.24,1729473177994.0,0.0
-3.957729,-6.285945,6.295516,-17.710001,-7.7,-21.42,1729473178014.0,0.0
-3.005385,-5.888737,5.699703,-76.93,-22.049999,-12.53,1729473178033.0,0.0
-2.909672,-7.879565,2.45025,-126.349998,-28.84,-10.15,1729473178054.0,0.0
-2.452643,-11.062018,-1.56012,-117.459999,-34.790001,-9.8,1729473178076.0,0.0
-0.866202,-11.787045,-2.258825,-21.98,-20.16,1.26,1729473178094.0,0.0
-0.744168,-9.255438,-0.607777,84.699997,13.37,12.25,1729473178113.0,0.0
-2.581856,-6.814759,0.961915,126.349998,40.810001,21.42,1729473178134.0,0.0
-3.919443,-5.759524,3.168097,99.260002,48.16,30.450001,1729473178154.0,0.0
-4.352544,-5.24746,6.163911,18.34,36.540001,33.599998,1729473178177.0,0.0
-4.974678,-7.692925,4.285545,-60.619999,6.86,34.860001,1729473178194.0,0.0
-4.721039,-12.763316,1.246661,-51.799999,-16.799999,29.049999,1729473178214.0,0.0
-3.517449,-13.670196,0.81356,11.27,-6.79,19.74,1729473178234.0,0.0
-3.292524,-10.593026,1.919044,54.880001,19.879999,10.99,1729473178255.0,0.0
-3.311667,-8.638089,3.414558,33.670002,21.0,3.43,1729473178276.0,0.0
-2.677568,-9.413363,3.048456,-9.31,3.71,-5.88,1729473178294.0,0.0
-1.880759,-10.482956,2.337788,-8.12,-3.08,-8.33,1729473178314.0,0.0
-1.79701,-9.205189,2.452643,40.110001,4.2,-4.83,1729473178334.0,0.0
-2.177469,-8.188239,2.167897,72.449997,11.76,-2.17,1729473178354.0,0.0
-2.490928,-8.044669,2.06022,60.970001,9.17,-1.47,1729473178376.0,0.0
-2.880959,-8.090133,2.416751,53.689999,7.42,-0.84,1729473178393.0,0.0
-2.868994,-7.759924,3.65384,48.439999,2.03,0.21,1729473178414.0,0.0
-2.617748,-7.329216,4.359723,15.05,-2.94,0.07,1729473178434.0,0.0
-2.419144,-7.99442,4.228118,-47.18,-9.73,-2.24,1729473178454.0,0.0
-2.718246,-9.745967,2.713461,-117.949997,-14.98,-8.4,1729473178475.0,0.0
-2.979064,-11.574083,2.349752,-135.520004,-16.17,-13.37,1729473178494.0,0.0
-3.728018,-11.56451,2.725425,-113.610001,-7.35,-20.23,1729473178514.0,0.0
-4.285545,-10.114462,2.651247,-71.050003,-1.19,-25.48,1729473178534.0,0.0
-3.723232,-8.501699,3.550949,-35.420002,-2.1,-21.77,1729473178554.0,0.0
-3.261417,-7.113862,4.287938,-50.189999,-6.86,-19.74,1729473178576.0,0.0
-3.302095,-6.532406,3.725625,-103.110001,-14.63,-18.620001,1729473178593.0,0.0
-3.61077,-7.755138,1.818545,-141.119995,-21.700001,-13.58,1729473178614.0,0.0
-3.835695,-9.930215,-0.062213,-121.239998,-25.83,-7.21,1729473178633.0,0.0
-2.928815,-12.191431,-1.749153,-33.32,-28.07,-3.15,1729473178654.0,0.0
-1.911865,-10.624132,-1.933401,86.449997,-19.950001,2.03,1729473178685.0,0.0
-1.830509,-8.075776,0.055035,188.580002,12.88,14.14,1729473178693.0,0.0
-2.550749,-5.85763,2.658426,140.699997,25.34,16.870001,1729473178714.0,0.0
-3.586841,-5.931807,3.168097,51.799999,20.440001,24.360001,1729473178746.0,0.0
-3.883551,-8.377272,1.837688,-5.11,9.87,24.5,1729473178755.0,0.0
-3.591627,-10.552348,1.11027,-13.86,8.05,24.08,1729473178775.0,0.0
-3.438486,-11.186446,1.919044,-8.33,13.37,18.059999,1729473178794.0,0.0
-3.20399,-10.724631,2.232504,-10.85,16.17,9.17,1729473178814.0,0.0
-2.598605,-10.753345,2.091327,-10.71,8.12,0.84,1729473178835.0,0.0
-1.954936,-10.738988,1.954936,10.01,4.97,-5.32,1729473178855.0,0.0
-1.801795,-10.286745,1.923829,45.5,10.01,-6.51,1729473178880.0,0.0
-1.622334,-8.334201,2.897708,80.849998,13.02,-2.59,1729473178895.0,0.0
-1.617548,-7.331609,2.62732,94.849998,13.16,5.67,1729473178915.0,0.0
-1.909473,-7.331609,3.151347,79.800003,11.55,10.57,1729473178935.0,0.0
-3.24706,-7.769495,3.773481,18.549999,13.02,7.63,1729473178966.0,0.0
-3.787838,-8.606983,3.397808,-128.589996,5.67,-9.59,1729473178978.0,0.0
-3.63709,-9.879964,2.155933,-182.910004,-5.88,-18.620001,1729473178997.0,0.0
-3.117848,-10.9017,1.088734,-185.009995,-13.16,-26.18,1729473179014.0,0.0
-3.318845,-10.205389,1.162912,-155.330002,-11.97,-28.42,1729473179035.0,0.0
-4.187439,-9.458827,0.830309,-116.690002,-8.54,-30.17,1729473179056.0,0.0
-4.814359,-9.518648,0.894916,-87.779999,-8.12,-25.059999,1729473179079.0,0.0
-4.254438,-9.803394,1.239482,-81.690002,-12.67,-24.5,1729473179095.0,0.0
-3.017349,-9.078369,1.272982,-90.93,-20.16,-22.75,1729473179116.0,0.0
-2.512464,-9.643075,-0.342174,-78.68,-21.139999,-17.780001,1729473179134.0,0.0
-2.29711,-11.133803,-2.251646,-27.58,-14.14,-9.38,1729473179157.0,0.0
-1.835295,-11.265409,-2.124826,52.150002,-3.5,-1.61,1729473179190.0,0.0
-1.964507,-9.71486,-1.574477,125.580002,12.88,4.97,1729473179196.0,0.0
-2.979064,-8.360522,-0.222532,152.110001,29.4,9.17,1729473179216.0,0.0
-3.749553,-8.185846,1.395016,132.160004,32.549999,10.57,1729473179236.0,0.0
-4.024727,-6.568298,5.197211,74.059998,25.200001,-0.35,1729473179258.0,0.0
-3.929015,-7.678568,2.06022,-13.16,-11.41,5.18,1729473179278.0,0.0
-3.4672,-10.547562,-1.371087,31.43,-24.360001,12.53,1729473179296.0,0.0
-3.486342,-12.449856,-1.39023,113.470001,-7.77,12.67,1729473179315.0,0.0
-3.54377,-11.480762,0.940379,143.779999,23.24,1.19,1729473179336.0,0.0
-3.270989,-9.389436,2.612962,96.32,29.049999,-10.85,1729473179359.0,0.0
-2.888137,-9.085547,4.146761,21.210001,18.059999,-19.67,1729473179381.0,0.0
-2.270789,-10.236496,3.395415,-33.810001,-1.19,-30.940001,1729473179400.0,0.0
-1.493121,-10.389636,2.024328,-20.02,-11.48,-31.99,1729473179416.0,0.0
-0.993021,-9.111869,1.639083,50.68,-4.97,-21.629999,1729473179436.0,0.0
-1.421337,-7.207181,2.086541,111.580002,5.46,-10.29,1729473179458.0,0.0
-2.368894,-6.24766,2.598605,114.169998,11.34,1.61,1729473179478.0,0.0
-2.790031,-6.668797,2.919244,63.98,9.31,4.41,1729473179495.0,0.0
-2.830709,-7.513463,2.876173,-8.54,5.81,2.52,1729473179517.0,0.0
-3.302095,-8.116454,3.019742,-68.739998,1.05,-0.42,1729473179538.0,0.0
-4.06062,-9.233903,1.899901,-102.830002,2.52,-4.27,1729473179558.0,0.0
-4.0008,-10.025927,1.363909,-119.629997,4.34,-10.08,1729473179578.0,0.0
-3.012564,-9.717253,0.535992,-140.350006,-2.03,-18.76,1729473179597.0,0.0
-2.376073,-9.956534,0.284746,-125.020004,-2.52,-18.27,1729473179616.0,0.0
-1.928615,-9.499505,0.155533,-129.149994,-3.15,-24.219999,1729473179638.0,0.0
-1.866402,-8.956335,-0.894916,-152.880005,-3.01,-26.530001,1729473179657.0,0.0
-1.708475,-8.520842,-1.624727,-181.720001,-5.81,-31.92,1729473179680.0,0.0
-1.495514,-10.224532,-2.512464,-192.289993,-10.99,-31.639999,1729473179696.0,0.0
-0.866202,-13.366307,-3.34038,-157.919998,-15.4,-39.130001,1729473179716.0,0.0
-0.349352,-12.593425,-1.770689,-89.25,-4.41,-47.25,1729473179736.0,0.0
-0.653241,-8.252845,-0.504886,-73.639999,18.200001,-53.689999,1729473179757.0,0.0
-1.617548,-6.180661,-0.277567,-140.839996,13.51,-52.360001,1729473179778.0,0.0
-2.031506,-7.812566,0.009571,-218.119995,-8.26,-43.259998,1729473179796.0,0.0
-1.299303,-12.713067,0.193819,-202.300003,-36.68,-39.34,1729473179815.0,0.0
-1.184447,-15.024533,-0.641276,-57.959999,-41.23,-23.870001,1729473179837.0,0.0
-1.840081,-12.186646,-1.660619,132.649994,-28.98,-5.25,1729473179857.0,0.0
-2.18704,-9.142976,-2.134398,239.540009,-20.790001,6.16,1729473179880.0,0.0
-2.18704,-10.018748,-2.732604,319.76001,-24.780001,35.560001,1729473179897.0,0.0
-2.459821,-12.937992,-2.847459,443.309998,-31.219999,50.82,1729473179917.0,0.0
-1.864009,-12.576675,-1.794617,603.960022,2.31,32.619999,1729473179938.0,0.0
-0.949951,-10.246067,0.918844,630.140015,23.66,20.440001,1729473179956.0,0.0
-0.100499,-6.498906,2.292324,611.940002,45.639999,7.21,1729473179977.0,0.0
-2.318645,-4.694718,6.929615,512.119995,59.57,-7.21,1729473179997.0,0.0
-3.192025,-4.996214,8.817552,287.839996,28.91,-33.25,1729473180016.0,0.0
-2.76371,-6.173482,8.772088,113.82,15.68,-57.540001,1729473180037.0,0.0
-2.234896,-4.76411,9.111869,59.010002,12.25,-64.400002,1729473180058.0,0.0
-2.239682,-4.051049,8.537591,44.380001,-0.14,-61.810001,1729473180077.0,0.0
-1.962115,-3.675375,6.932007,28.559999,-7.7,-53.900002,1729473180095.0,0.0
-2.081756,-2.775674,6.912865,32.549999,-6.44,-37.310001,1729473180117.0,0.0
-2.931208,-1.311267,5.163712,40.040001,4.69,-29.26,1729473180137.0,0.0
-4.278367,-0.562313,6.436693,24.43,18.690001,-8.96,1729473180156.0,0.0
-4.070191,-2.457429,6.661618,-15.4,17.360001,-9.94,1729473180180.0,0.0
-3.330809,-4.31426,7.743174,-0.77,22.960001,6.72,1729473180197.0,0.0
-3.206382,-5.539384,8.750552,22.33,28.49,-0.14,1729473180217.0,0.0
-2.160719,-5.761917,9.013763,23.24,30.450001,-10.71,1729473180237.0,0.0
-1.316052,-6.113662,8.492127,-4.27,27.790001,-23.379999,1729473180256.0,0.0
-1.459622,-0.153141,10.576276,8.33,26.74,-17.43,1729473180279.0,0.0
-1.871187,0.693919,9.138189,-29.540001,13.440001,2.17,1729473180298.0,0.0
-0.902094,-1.68694,7.977671,-76.93,1.54,17.85,1729473180317.0,0.0
-1.579263,-2.395216,7.846066,-56.84,2.94,34.720001,1729473180337.0,0.0
-1.761117,-2.043471,7.307681,-38.43,7.35,46.689999,1729473180356.0,0.0
-3.17049,-6.687939,7.503892,-42.420002,1.75,50.400002,1729473180380.0,0.0
-3.414558,-7.939385,8.963513,3.29,0.63,47.459999,1729473180396.0,0.0
-3.541377,-4.907679,11.160125,49.84,1.61,43.189999,1729473180418.0,0.0
-2.907279,-3.096312,11.16491,21.42,-11.97,39.970001,1729473180435.0,0.0
-2.423929,-4.656433,7.479963,-52.709999,-29.33,31.780001,1729473180457.0,0.0
-2.268396,-6.831509,5.237889,-59.779999,-26.389999,27.719999,1729473180479.0,0.0
-3.821337,-8.362915,3.976871,-14.0,-13.72,19.67,1729473180495.0,0.0
-3.615555,-7.23111,5.931807,59.849998,10.57,10.15,1729473180515.0,0.0
-4.409972,-6.702296,7.49432,72.590004,18.41,-4.55,1729473180535.0,0.0
-3.668197,-6.821937,7.79103,30.450001,16.450001,-26.74,1729473180559.0,0.0
-2.553142,-6.166305,7.668997,-5.11,15.68,-33.32,1729473180578.0,0.0
-2.189433,-3.89073,7.271788,-11.55,18.200001,-36.189999,1729473180597.0,0.0
-3.888337,-5.513064,6.843473,-27.93,14.42,-32.549999,1729473180616.0,0.0
-3.921836,-7.326823,8.056634,-4.62,11.27,-35.0,1729473180635.0,0.0
-2.40718,0.409173,8.183454,22.190001,22.190001,-36.259998,1729473180656.0,0.0
-3.424129,1.251446,9.853643,0.42,16.379999,-7.42,1729473180676.0,0.0
-1.919044,0.325424,9.217153,-63.209999,1.19,9.52,1729473180948.0,0.0
-3.115455,-3.708875,8.185846,-70.209999,-6.51,29.469999,1729473180949.0,0.0
-3.208775,-4.615755,7.161718,-43.189999,0.49,31.290001,1729473180949.0,0.0
-2.660819,-3.792624,7.630712,-20.93,12.39,31.43,1729473180959.0,0.0
-3.546163,-5.352744,8.283953,-15.75,13.440001,30.940001,1729473180959.0,0.0
-3.663411,-5.481956,9.686146,-7.0,12.88,29.540001,1729473180959.0,0.0
-4.108476,-5.458029,10.38485,-8.54,5.39,30.450001,1729473180960.0,0.0
-3.716053,-5.455636,10.305886,-21.49,-11.27,30.59,1729473180960.0,0.0
-3.699304,-5.213961,7.525427,-43.049999,-20.860001,27.51,1729473180960.0,0.0
-4.795217,-8.226524,4.240082,-34.720001,-30.59,22.960001,1729473180960.0,0.0
-4.788038,-8.997013,5.412565,46.970001,-9.52,13.58,1729473180960.0,0.0
-4.725825,-8.630912,6.80758,101.639999,16.870001,-17.85,1729473180961.0,0.0
-3.728018,-7.190433,7.836494,56.91,19.460001,-43.259998,1729473180961.0,0.0
-2.419144,-6.128019,7.640282,15.89,16.1,-52.43,1729473180961.0,0.0
-2.699104,-5.149354,7.077969,7.49,15.47,-53.41,1729473180982.0,0.0
-3.976871,-5.79781,7.439285,6.09,11.06,-50.75,1729473181005.0,0.0
-4.326223,-8.094919,8.082954,27.299999,-1.19,-53.41,1729473181016.0,0.0
-2.840281,1.335195,8.9683,58.52,13.58,-55.299999,1729473181035.0,0.0
-3.37388,0.143569,8.927622,42.630001,0.63,-28.42,1729473181057.0,0.0
-2.447858,0.89013,9.741181,-45.080002,-3.92,-18.059999,1729473181077.0,0.0
-1.990828,-1.995614,6.79083,-88.269997,-12.95,-3.78,1729473181098.0,0.0
-2.725425,-4.376472,6.71426,-68.32,-1.61,9.94,1729473181115.0,0.0
-3.177669,-2.854637,8.439486,-29.82,11.2,12.95,1729473181187.0,0.0
-4.21376,-4.981857,8.126025,-7.77,15.190001,23.73,1729473181208.0,0.0
-4.09412,-5.546563,8.855836,-15.89,7.7,27.51,1729473181219.0,0.0
-3.177669,-4.740182,8.95155,-8.54,-0.21,28.98,1729473181221.0,0.0
-2.971886,-3.852444,7.788638,10.57,-4.48,30.59,1729473181241.0,0.0
-3.87398,-5.785845,6.520442,-26.18,-15.54,34.93,1729473181263.0,0.0
-3.998406,-9.839286,4.680361,-0.28,-19.879999,27.51,1729473181313.0,0.0
-3.294917,-7.499106,6.460621,68.739998,5.53,13.86,1729473181313.0,0.0
-4.642076,-7.269395,7.532606,69.93,11.9,-3.15,1729473181324.0,0.0
-3.658626,-8.422735,7.795816,29.75,6.93,-23.66,1729473181336.0,0.0
-3.589234,-7.700103,7.688138,18.129999,10.64,-40.25,1729473181357.0,0.0
-2.955136,-5.417351,7.874779,16.17,11.97,-49.209999,1729473181380.0,0.0
-3.716053,-4.711468,7.984849,4.69,8.26,-51.799999,1729473181399.0,0.0
-4.31426,-5.943772,7.999206,-10.01,-1.33,-52.709999,1729473181417.0,0.0
-2.493321,-2.35693,5.898308,15.89,3.08,-49.84,1729473181441.0,0.0
-4.646862,-2.574677,8.578269,56.139999,11.2,-22.4,1729473181460.0,0.0
-2.974278,-1.51705,9.652647,25.27,8.89,-33.110001,1729473181479.0,0.0
-2.155933,-0.507278,9.004191,-26.040001,2.03,-20.370001,1729473181499.0,0.0
-2.921637,-1.124627,7.769495,-57.330002,-1.33,-1.89,1729473181517.0,0.0
-3.041277,-3.785445,7.293324,-67.410004,-3.71,15.75,1729473181537.0,0.0
-3.54377,-5.414958,8.094919,-10.01,-3.36,24.08,1729473181559.0,0.0
-3.761517,-4.149154,9.348758,37.869999,-0.28,31.639999,1729473181578.0,0.0
-3.541377,-4.177868,9.509077,23.030001,-9.1,30.1,1729473181597.0,0.0
-2.76371,-4.182654,8.958728,-13.72,-17.780001,28.07,1729473181618.0,0.0
-2.691926,-4.998606,7.73121,-35.420002,-23.030001,26.880001,1729473181637.0,0.0
-2.526821,-5.848059,5.989235,-28.91,-22.190001,27.440001,1729473181657.0,0.0
-4.182654,-8.02792,5.259424,7.42,-13.16,23.59,1729473181772.0,0.0
-4.709075,-7.278966,6.104091,74.059998,2.73,18.41,1729473181772.0,0.0
-4.788038,-6.922436,7.633104,83.93,13.93,-7.07,1729473181808.0,0.0
-4.017549,-7.432107,7.812566,22.610001,14.35,-28.559999,1729473181809.0,0.0
-3.050849,-6.778866,7.345965,-13.440001,16.450001,-47.389999,1729473181809.0,0.0
-2.462214,-4.555934,6.649654,0.98,22.82,-46.830002,1729473181810.0,0.0
-2.962314,-2.792424,6.943972,10.64,25.620001,-38.009998,1729473181811.0,0.0
-4.48415,-4.486543,7.941778,8.82,18.129999,-26.6,1729473181818.0,0.0
-4.656433,-7.159326,8.9683,24.780001,7.49,-28.0,1729473181837.0,0.0
-2.778067,-1.124627,10.284351,59.080002,3.71,-33.459999,1729473181858.0,0.0
-3.24706,-0.827917,9.58804,-16.379999,-8.4,-20.51,1729473181882.0,0.0
-1.557728,-2.038685,6.388836,-85.889999,-19.389999,-17.5,1729473181897.0,0.0
-1.98365,-2.096112,5.424529,-49.630001,-5.81,4.48,1729473181917.0,0.0
-3.428915,-2.057827,6.999006,-16.450001,12.04,18.76,1729473181937.0,0.0
-3.538985,-4.051049,8.470592,-17.57,13.3,22.540001,1729473181957.0,0.0
-3.416951,-3.761517,9.262616,-8.82,13.65,27.23,1729473181980.0,0.0
-3.706482,-4.833502,9.844072,17.85,7.77,-17.219999,1729473182999.0,0.0
-3.237489,-6.623333,7.704889,27.440001,10.92,-28.35,1729473182998.0,0.0
-2.969493,-5.264209,7.860423,22.960001,10.5,-32.759998,1729473183018.0,0.0
-3.900301,-5.759524,7.846066,0.63,4.55,-35.0,1729473183036.0,0.0
-3.52702,-6.71426,8.482556,-4.97,-1.61,-39.759998,1729473183058.0,0.0
-3.050849,-5.685347,8.79123,10.99,-1.19,-44.869999,1729473183079.0,0.0
-1.871187,-2.471786,8.135597,16.450001,-3.36,-41.439999,1729473183096.0,0.0
-2.134398,1.782653,7.441679,-23.940001,2.87,-26.040001,1729473183119.0,0.0
-2.938386,-0.397209,6.67119,-59.080002,-5.81,-3.5,1729473183137.0,0.0
-2.969493,-2.234896,7.152147,-36.82,1.61,14.14,1729473183157.0,0.0
-3.926622,-3.318845,8.468199,-2.87,8.26,27.51,1729473183180.0,0.0
-3.912265,-5.065606,9.142976,3.29,4.83,31.08,1729473183197.0,0.0
-3.115455,-6.147161,9.274581,-0.63,-2.45,24.15,1729473183218.0,0.0
-2.938386,-5.958128,9.265009,0.21,-4.62,17.92,1729473183238.0,0.0
-2.608176,-5.053641,8.79123,-11.83,-8.54,11.41,1729473183258.0,0.0
-2.665605,-4.742575,7.487142,-28.280001,-12.04,9.8,1729473183279.0,0.0
-3.448057,-5.405386,6.386444,-14.14,-12.39,14.0,1729473183296.0,0.0
-3.658626,-6.242875,6.726225,25.549999,-6.3,13.51,1729473183317.0,0.0
-4.051049,-4.888536,7.456036,46.27,1.82,9.87,1729473183337.0,0.0
-4.204189,-5.558527,7.594819,22.960001,-2.38,6.16,1729473183357.0,0.0
-3.39063,-7.159326,6.814759,6.16,-5.46,-3.64,1729473183379.0,0.0
-3.208775,-7.185646,6.508478,20.16,0.35,-9.87,1729473183396.0,0.0
-3.318845,-6.876972,7.453642,32.759998,5.46,-18.690001,1729473183417.0,0.0
-3.182454,-5.67099,8.288737,22.889999,7.21,-26.25,1729473183437.0,0.0
-3.479164,-6.12084,8.10449,-3.43,0.91,-32.27,1729473183457.0,0.0
-3.18724,-6.778866,8.312666,-14.77,-4.97,-40.740002,1729473183479.0,0.0
-2.589034,-6.089733,8.405986,2.03,-5.11,-43.959999,1729473183497.0,0.0
-2.079363,-4.388437,8.348558,17.360001,-5.46,-43.259998,1729473183516.0,0.0
-1.931008,1.919044,7.920243,0.84,6.37,-13.16,1729473183537.0,0.0
-3.069991,-0.023928,7.518249,-56.0,-1.05,0.77,1729473183557.0,0.0
-3.129812,-2.656033,7.314859,-51.240002,1.12,14.98,1729473183577.0,0.0
-3.598805,-3.629912,8.207381,-1.26,8.54,27.09,1729473183597.0,0.0
-3.845266,-3.098706,8.714661,18.200001,11.34,31.290001,1729473183618.0,0.0
-2.926422,-4.151547,8.484949,0.14,7.77,28.84,1729473183636.0,0.0
-2.574677,-5.015356,8.200203,-10.71,7.0,26.950001,1729473183658.0,0.0
-2.37368,-4.749753,8.439486,-6.58,8.12,27.299999,1729473183680.0,0.0
-3.031706,-5.146961,8.38445,-2.52,4.2,27.93,1729473183697.0,0.0
-3.790231,-3.823731,7.759924,11.97,1.89,34.09,1729473183716.0,0.0
-5.314459,-6.537192,7.310073,17.219999,-5.6,35.84,1729473183736.0,0.0
-4.938786,-7.401,7.829315,34.09,-6.09,21.700001,1729473183758.0,0.0
-4.536791,-8.336594,8.492127,45.43,-6.02,3.57,1729473183778.0,0.0
-3.680161,-7.834101,7.956135,22.120001,-6.65,-17.780001,1729473183796.0,0.0
-2.758924,-7.896315,7.283752,7.35,-7.77,-37.450001,1729473183816.0,0.0
-2.330609,-5.505885,7.314859,24.15,1.4,-46.41,1729473183836.0,0.0
-3.215954,-5.000999,8.152347,28.77,0.7,-50.82,1729473183857.0,0.0
-4.141976,-5.297709,9.286544,44.240002,-6.3,-55.650002,1729473183883.0,0.0
-4.271189,-2.691926,9.628718,55.93,-9.38,-54.950001,1729473183897.0,0.0
-2.617748,3.034099,8.240881,21.07,-13.86,-48.650002,1729473183916.0,0.0
-2.770889,0.859023,8.391629,-38.080002,-13.37,-18.129999,1729473183936.0,0.0
-2.459821,-2.474179,6.742974,-82.669998,-22.960001,-12.53,1729473183959.0,0.0
-2.545963,-2.100898,6.999006,-40.740002,-3.64,13.440001,1729473183980.0,0.0
-4.469792,-3.014957,8.25763,-32.130001,1.82,22.049999,1729473183996.0,0.0
-4.886144,-4.299902,9.968499,-46.200001,0.7,25.34,1729473184016.0,0.0
-5.326423,-5.568098,8.836694,-66.360001,-13.65,22.049999,1729473184037.0,0.0
-4.998606,-6.506085,8.379664,-64.190002,-25.620001,18.059999,1729473184058.0,0.0
-4.278367,-6.300302,7.858029,-44.380001,-31.360001,14.84,1729473184078.0,0.0
-4.259224,-5.850451,8.059027,-31.08,-33.880001,15.47,1729473184096.0,0.0
-3.940979,-5.268995,8.305488,-30.59,-39.34,15.61,1729473184116.0,0.0
-3.369094,-4.536791,8.671589,-40.740002,-44.52,21.49,1729473184136.0,0.0
-2.675175,-5.647062,8.724231,-58.099998,-54.529999,26.110001,1729473184158.0,0.0
-1.892723,-7.51107,7.834101,-80.220001,-65.239998,24.710001,1729473184180.0,0.0
-1.249053,-9.071191,7.726424,-87.43,-73.919998,19.950001,1729473184196.0,0.0
0.047856,-9.829715,5.69731,-98.980003,-84.209999,1.89,1729473184217.0,0.0
1.182054,-9.863215,3.005385,-83.860001,-76.019997,-17.01,1729473184237.0,0.0
2.07697,-10.805987,4.173083,-39.900002,-46.900002,-48.93,1729473184258.0,0.0
2.309074,-9.279366,5.142176,-14.7,-25.200001,-70.699997,1729473184282.0,0.0
2.306681,-7.939385,4.498507,-11.34,-13.79,-85.260002,1729473184374.0,0.0
2.067399,-6.199803,4.522435,-19.389999,-0.56,-91.910004,1729473184402.0,0.0
1.835295,-5.130211,4.888536,-28.98,11.83,-95.410004,1729473184405.0,0.0
1.710868,-4.644469,4.421937,-33.599998,24.360001,-91.840004,1729473184408.0,0.0
2.139183,-3.37388,3.859623,-38.360001,42.560001,-83.720001,1729473184410.0,0.0
1.40698,-3.424129,5.297709,-17.639999,60.27,-62.369999,1729473184410.0,0.0
-0.339781,-4.328616,7.334002,-0.14,68.25,-42.0,1729473184415.0,0.0
-1.081556,-4.476971,7.781459,10.85,64.68,-21.91,1729473184435.0,0.0
-2.471786,-6.333801,6.690332,13.37,51.450001,-2.73,1729473184484.0,0.0
-2.18704,-5.402994,10.875379,79.940002,47.599998,5.67,1729473184484.0,0.0
-2.878566,-2.029114,15.036497,76.790001,30.030001,12.88,1729473184495.0,0.0
-0.665205,-5.233103,9.391829,-78.120003,-14.42,8.19,1729473184515.0,0.0
2.234896,-8.626125,4.989035,-123.550003,-33.040001,20.51,1729473184535.0,0.0
2.045863,-6.199803,4.046263,-51.310001,-4.83,20.370001,1729473184597.0,0.0
1.397408,-6.709475,5.541777,-14.7,12.46,25.549999,1729473184604.0,0.0
0.531207,-5.407779,7.45125,-4.2,26.6,25.83,1729473184615.0,0.0
-1.304088,-4.354938,8.216952,17.92,27.02,47.529999,1729473184638.0,0.0
-2.194218,-5.489135,8.13799,1.47,18.34,66.360001,1729473184656.0,0.0
-3.919443,-8.678767,5.891129,-49.630001,12.39,49.07,1729473184677.0,0.0
-4.67079,-7.939385,4.577469,-56.420002,21.280001,63.560001,1729473184698.0,0.0
-7.034898,-11.887544,5.276174,-90.370003,22.190001,29.68,1729473184716.0,0.0
-8.750552,-15.622739,5.525027,-83.510002,8.19,15.96,1729473184736.0,0.0
-8.676375,-14.215759,5.134997,-18.83,-1.4,-9.66,1729473184756.0,0.0
-7.836494,-10.238889,5.383851,31.219999,-1.33,-38.920002,1729473184777.0,0.0
-6.570691,-8.52802,6.259624,43.75,-9.38,-59.290001,1729473184796.0,0.0
-5.867201,-8.38445,6.049056,26.18,-12.53,-77.279999,1729473184815.0,0.0
-3.68734,-6.874579,4.228118,-5.74,-13.09,-85.050003,1729473184836.0,0.0
-0.33021,-8.317451,4.23051,3.01,-20.370001,-90.580002,1729473184861.0,0.0
1.887937,-5.254639,4.386044,54.810001,-4.2,-67.059998,1729473184881.0,0.0
3.168097,-2.706282,5.924629,127.190002,15.05,-49.77,1729473184897.0,0.0
3.074777,-1.667797,6.896115,111.370003,18.83,-26.880001,1729473184916.0,0.0
2.057827,-2.419144,7.802995,73.220001,22.469999,-15.61,1729473184936.0,0.0
1.864009,-3.038885,7.79103,29.889999,21.91,-7.7,1729473184956.0,0.0
2.323431,-2.871387,7.202396,2.73,22.540001,9.73,1729473184976.0,0.0
1.536192,-3.436093,6.738188,-24.43,25.059999,23.309999,1729473184996.0,0.0
0.892523,-4.163511,6.166305,-41.93,26.040001,35.630001,1729473185016.0,0.0
0.457029,-3.134598,6.034698,-43.119999,28.77,48.790001,1729473185036.0,0.0
-1.304088,-5.709275,6.558727,-57.82,24.639999,62.369999,1729473185057.0,0.0
-2.067399,-4.905287,6.606583,-66.080002,16.030001,66.080002,1729473185079.0,0.0
-2.682354,-12.040684,8.202596,-65.730003,-4.76,74.410004,1729473185097.0,0.0
-2.273181,-13.91187,4.804788,-92.959999,-24.57,24.290001,1729473185115.0,0.0
-3.515057,-11.923435,2.880959,-58.450001,-17.57,49.98,1729473185136.0,0.0
-3.991228,-10.82513,3.201597,-21.210001,-3.57,19.879999,1729473185155.0,0.0
-4.910072,-11.772687,5.766702,3.85,-2.03,-0.28,1729473185178.0,0.0
-6.65444,-11.91147,8.078169,32.619999,-7.77,-10.92,1729473185195.0,0.0
-7.054041,-8.669197,7.635497,29.4,-15.12,-39.619999,1729473185217.0,0.0
-6.740582,-8.245667,6.644868,-17.99,-20.58,-59.920002,1729473185235.0,0.0
-4.699504,-9.243474,4.453043,-79.379997,-16.59,-83.440002,1729473185256.0,0.0
-1.270589,-8.757731,2.529213,-112.910004,1.33,-93.169998,1729473185277.0,0.0
1.988436,-8.539984,1.832902,-102.550003,16.24,-87.57,1729473185296.0,0.0
4.431508,-8.035098,2.732604,-27.51,30.59,-64.470001,1729473185315.0,0.0
5.20439,-5.91745,5.783452,77.629997,38.639999,-42.98,1729473185335.0,0.0
3.605984,-2.096112,8.973085,125.160004,46.130001,-29.540001,1729473185355.0,0.0
3.718446,-0.545564,9.571291,94.010002,29.4,-14.56,1729473185379.0,0.0
2.847459,-1.588834,9.74836,36.400002,12.04,9.38,1729473185397.0,0.0
0.150748,-2.342573,9.820145,1.19,-1.19,31.780001,1729473185415.0,0.0
-0.61017,-2.376073,8.255238,-22.26,-21.35,52.360001,1729473185435.0,0.0
0.409173,-2.108077,6.116055,-49.98,-36.119999,73.220001,1729473185455.0,0.0
-0.736989,-5.426922,3.804588,-68.18,-26.74,93.800003,1729473185477.0,0.0
-2.122434,-5.051248,3.866802,-42.630001,-16.73,96.809998,1729473185495.0,0.0
-4.084548,-9.085547,8.030313,-3.5,-0.28,131.039993,1729473185515.0,0.0
-5.441278,-12.8686,2.055435,-114.870003,-2.52,37.029999,1729473185536.0,0.0
-4.503292,-13.24906,-1.088734,-143.570007,12.25,61.950001,1729473185557.0,0.0
-4.658825,-14.591432,-1.244268,-124.389999,32.41,12.32,1729473185577.0,0.0
-5.393422,-15.919449,0.31346,-9.73,31.290001,8.82,1729473185595.0,0.0
-5.173282,-12.741781,3.192025,119.629997,37.52,-7.28,1729473185618.0,0.0
-6.778866,-10.095319,6.422336,142.029999,29.26,-23.24,1729473185637.0,0.0
-6.704689,-8.49452,7.814958,74.970001,5.32,-43.959999,1729473185657.0,0.0
-4.957928,-9.064013,7.24786,11.69,-19.950001,-65.519997,1729473185679.0,0.0
-4.074977,-9.678967,4.737789,-24.780001,-18.76,-81.340004,1729473185695.0,0.0
-2.191825,-8.54477,2.720639,-39.27,-8.89,-93.870003,1729473185715.0,0.0
0.050249,-8.965906,2.883351,-17.780001,-8.96,-89.110001,1729473185735.0,0.0
1.337588,-8.46102,3.900301,37.029999,7.98,-78.330002,1729473185758.0,0.0
1.543371,-5.441278,6.037091,99.120003,16.24,-64.68,1729473185778.0,0.0
2.364109,-2.612962,7.322037,113.120003,16.870001,-43.889999,1729473185794.0,0.0
2.79721,-1.777867,8.425128,72.730003,11.27,-27.16,1729473185815.0,0.0
2.529213,-2.29711,8.396415,18.969999,6.72,-12.18,1729473185836.0,0.0
1.90708,-3.680161,8.075776,-11.2,0.35,2.24,1729473185856.0,0.0
1.323231,-3.936193,6.786045,-25.34,-3.5,19.879999,1729473185882.0,0.0
1.526621,-4.158726,6.139983,-28.98,-10.64,48.369999,1729473185895.0,0.0
0.37328,-5.864808,6.455836,-29.469999,-8.75,60.34,1729473185915.0,0.0
-1.806581,-8.360522,7.599605,-7.49,-14.63,69.860001,1729473185935.0,0.0
-1.17009,-6.302694,6.501299,5.46,-25.059999,82.809998,1729473185956.0,0.0
-2.103291,-10.717452,7.087541,-42.279999,-25.620001,73.360001,1729473185977.0,0.0
-4.41715,-10.425529,2.660819,-107.660004,-12.6,54.810001,1729473185996.0,0.0
-4.235296,-11.650653,1.627119,-93.940002,-15.96,58.240002,1729473186015.0,0.0
-4.565506,-13.904692,1.852045,-51.939999,-9.03,31.639999,1729473186035.0,0.0
-7.168896,-14.42872,2.605784,-8.33,4.34,14.91,1729473186057.0,0.0
-7.520642,-13.22513,3.589234,28.98,6.79,-7.84,1729473186076.0,0.0
-6.594619,-11.413764,5.316852,44.59,1.33,-41.299999,1729473186095.0,0.0
-5.836094,-10.131211,5.996413,40.880001,-1.47,-59.43,1729473186115.0,0.0
-4.792823,-8.73141,4.553542,8.89,-1.26,-79.519997,1729473186135.0,0.0
-2.242075,-8.248059,2.447858,-52.990002,-0.77,-94.709999,1729473186155.0,0.0
1.021735,-9.224331,1.765903,-77.559998,-1.68,-97.160004,1729473186176.0,0.0
3.031706,-8.910872,2.316252,-18.969999,15.47,-77.139999,1729473186195.0,0.0
3.503092,-2.45025,7.221539,103.669998,27.860001,-54.880001,1729473186215.0,0.0
3.290131,0.574277,10.076177,183.259995,22.889999,-13.51,1729473186236.0,0.0
2.344966,0.131605,10.983055,81.059998,10.15,-4.55,1729473186255.0,0.0
1.277767,-3.026921,9.430114,-44.869999,-0.21,11.48,1729473186276.0,0.0
1.024128,-4.910072,6.989435,-90.090004,-11.2,26.389999,1729473186295.0,0.0
0.736989,-5.481956,4.682754,-75.879997,-13.65,42.560001,1729473186314.0,0.0
-0.622134,-7.403394,4.089334,-45.150002,-8.89,58.450001,1729473186334.0,0.0
-1.438086,-7.848458,4.17069,-18.969999,-9.59,50.75,1729473186355.0,0.0
-1.165305,-9.614362,5.505885,29.82,-12.04,76.300003,1729473186376.0,0.0
-2.376073,-10.164711,5.498707,0.07,-9.52,49.0,1729473186395.0,0.0
-4.125226,-10.526026,3.63709,-53.27,-2.94,57.68,1729473186416.0,0.0
-4.019942,-12.636496,2.321038,-72.029999,-11.69,27.93,1729473186435.0,0.0
-4.627719,-13.100704,1.880759,-36.470001,-1.19,20.790001,1729473186455.0,0.0
-5.606383,-12.646068,2.490928,16.59,7.56,2.59,1729473186476.0,0.0
-6.374479,-11.74158,4.771288,54.880001,5.95,-13.58,1729473186494.0,0.0
-6.173482,-9.60479,5.9677,52.5,-1.26,-35.07,1729473186515.0,0.0
-5.62074,-9.217153,6.568298,35.279999,-8.05,-53.34,1729473186535.0,0.0
-2.835495,-8.606983,3.582055,-38.920002,-7.35,-83.790001,1729473186555.0,0.0
0.22014,-8.73141,2.306681,-72.099998,-6.02,-86.940002,1729473186577.0,0.0
2.897708,-8.673983,1.706082,-54.880001,7.77,-77.910004,1729473186595.0,0.0
3.54377,-7.539784,5.663811,56.420002,22.610001,-57.330002,1729473186614.0,0.0
2.452643,-3.010171,8.91805,170.729996,24.57,-29.049999,1729473186635.0,0.0
2.275574,0.545564,10.145569,147.979996,19.879999,-20.440001,1729473186654.0,0.0
2.06022,-0.607777,9.88475,36.119999,2.94,-4.76,1729473186677.0,0.0
2.0004,-3.672983,7.972885,-62.09,-6.65,12.11,1729473186787.0,0.0
1.442872,-5.441278,6.168696,-83.230003,-7.21,27.02,1729473186791.0,0.0
1.318445,-5.919843,4.771288,-68.18,-6.23,37.66,1729473186794.0,0.0
0.679562,-5.833702,3.943372,-41.02,0.56,54.389999,1729473186796.0,0.0
-0.859023,-8.391629,5.412565,-20.51,5.74,63.77,1729473186796.0,0.0
-1.459622,-7.69771,6.568298,3.71,-2.45,64.470001,1729473186797.0,0.0
-1.89033,-8.274381,6.585048,8.82,-13.58,80.57,1729473186814.0,0.0
-2.976671,-7.767102,3.39063,-49.560001,-14.77,63.630001,1729473186834.0,0.0
-4.752146,-11.617154,3.428915,-84.699997,-19.040001,66.220001,1729473186855.0,0.0
-5.288138,-13.509877,2.005185,-79.660004,-15.96,37.450001,1729473186879.0,0.0
-6.788438,-14.141582,1.854438,-17.780001,-3.5,5.11,1729473186896.0,0.0
-6.439085,-12.725031,3.144169,26.040001,1.4,-19.809999,1729473186914.0,0.0
-5.225924,-10.908878,4.881358,37.380001,-2.24,-44.450001,1729473186934.0,0.0
-4.680361,-9.958927,5.752346,24.219999,-3.36,-61.18,1729473186955.0,0.0
-3.474378,-9.207582,3.78066,-18.200001,-1.96,-80.639999,1729473186976.0,0.0
-0.947558,-9.272188,2.321038,-49.84,-1.19,-85.68,1729473186995.0,0.0
2.17029,-8.80798,2.213361,-30.309999,4.97,-86.379997,1729473187014.0,0.0
3.806981,-7.295716,3.232704,17.639999,26.460001,-69.860001,1729473187035.0,0.0
3.89073,-5.371887,6.89133,98.559998,42.560001,-45.849998,1729473187056.0,0.0
3.098706,-1.928615,10.023535,159.389999,33.389999,-24.01,1729473187076.0,0.0
2.29711,-0.844666,10.949556,145.389999,20.440001,-7.63,1729473187094.0,0.0
1.567299,-1.213161,10.167104,55.299999,-0.84,8.26,1729473187114.0,0.0
1.246661,-3.531806,7.458428,-44.240002,-13.58,25.83,1729473187134.0,0.0
1.0002,-5.941379,4.938786,-100.449997,-16.940001,37.799999,1729473187154.0,0.0
0.61017,-8.355737,3.309274,-95.480003,-16.52,49.0,1729473187176.0,0.0
-0.337388,-9.798609,3.684947,-38.220001,-12.46,57.260002,1729473187194.0,0.0
-2.507678,-9.207582,5.570491,14.98,-8.89,67.340004,1729473187214.0,0.0
-3.366701,-9.702895,5.352744,-0.63,-22.4,57.75,1729473187234.0,0.0
-4.046263,-10.212566,3.864408,-35.98,-22.82,46.900002,1729473187255.0,0.0
-4.699504,-12.387643,2.495714,-49.279999,-17.780001,29.469999,1729473187279.0,0.0
-6.130411,-14.823536,1.694118,-46.060001,-10.71,-2.87,1729473187294.0,0.0
-6.128019,-14.404793,2.828316,10.29,-3.22,-25.620001,1729473187315.0,0.0
-4.685147,-11.351551,5.199604,58.799999,1.19,-53.619999,1729473187334.0,0.0
-4.405186,-9.949356,6.192625,43.400002,6.65,-73.849998,1729473187354.0,0.0
-2.794817,-9.387043,4.555934,-7.28,8.05,-98.489998,1729473187377.0,0.0
-0.098106,-8.551948,2.9671,-23.450001,9.94,-99.540001,1729473187394.0,0.0
1.957329,-7.070791,3.754339,3.29,14.7,-95.059998,1729473187414.0,0.0
3.105884,-5.883951,5.355137,57.400002,29.68,-71.889999,1729473187434.0,0.0
2.608176,-3.220739,8.539984,124.739998,14.84,-45.290001,1729473187454.0,0.0
2.182254,-2.108077,9.030513,131.460007,8.33,-26.460001,1729473187476.0,0.0
2.232504,-2.100898,8.506484,66.849998,-6.3,-8.96,1729473187494.0,0.0
2.74696,-3.895515,7.293324,-15.54,-20.23,2.31,1729473187514.0,0.0
2.311467,-5.424529,5.769095,-53.41,-19.25,13.16,1729473187534.0,0.0
1.162912,-6.491727,4.127619,-39.27,-13.02,21.49,1729473187554.0,0.0
1.351945,-5.656632,4.402793,11.48,1.26,35.630001,1729473187575.0,0.0
0.847059,-4.24726,5.484349,31.290001,12.74,48.790001,1729473187594.0,0.0
0.095713,-3.605984,6.046663,10.64,18.200001,63.98,1729473187614.0,0.0
-1.184447,-6.910471,9.466006,-43.049999,14.77,65.169998,1729473187634.0,0.0
-1.617548,-9.090333,8.003991,-71.120003,-3.15,63.77,1729473187654.0,0.0
-1.426122,-8.939585,5.419744,-75.32,-11.2,70.209999,1729473187675.0,0.0
-2.775674,-9.578469,2.562713,-93.309998,-3.5,61.670002,1729473187694.0,0.0
-3.656233,-11.827723,2.088934,-77.139999,6.37,49.98,1729473187714.0,0.0
-3.821337,-11.952149,2.711068,-29.049999,17.08,33.529999,1729473187735.0,0.0
-5.12782,-11.882757,3.732803,5.95,26.880001,19.950001,1729473187754.0,0.0
-7.381857,-13.517055,4.426722,8.12,24.92,-5.46,1729473187775.0,0.0
-7.092326,-12.847065,5.340781,22.540001,11.83,-28.42,1729473187794.0,0.0
-5.223531,-9.772287,6.132804,31.43,2.59,-47.32,1729473187814.0,0.0
-4.457829,-10.217353,5.757132,12.95,-0.91,-67.970001,1729473187834.0,0.0
-2.801995,-9.49472,4.06062,-26.880001,0.91,-83.160004,1729473187855.0,0.0
-0.495314,-8.518449,2.916851,-50.68,3.57,-87.779999,1729473187878.0,0.0
4.012764,-8.238488,2.696711,-37.450001,5.46,-70.980003,1729473187894.0,0.0
4.488935,-6.812366,5.036892,92.68,20.58,-37.66,1729473187914.0,0.0
3.239882,-3.656233,8.075776,203.0,10.99,-13.51,1729473187934.0,0.0
3.285345,-1.318445,9.12144,205.589996,-11.76,2.73,1729473187954.0,0.0
3.464807,-0.148355,8.743374,107.940002,-28.280001,17.57,1729473187976.0,0.0
3.668197,-1.840081,7.556533,-5.81,-35.0,31.219999,1729473187994.0,0.0
1.806581,-4.34058,5.864808,-70.699997,-28.42,44.099998,1729473188014.0,0.0
0.5001,-4.331009,4.919643,-67.059998,-16.940001,52.360001,1729473188034.0,0.0
0.303888,-4.601398,4.807181,-37.799999,-3.85,69.440002,1729473188054.0,0.0
-0.868595,-5.82413,5.838487,-25.48,9.38,78.330002,1729473188076.0,0.0
-3.299703,-9.990034,9.597611,-19.460001,7.35,83.440002,1729473188094.0,0.0
-2.146362,-8.590233,9.401401,-17.43,-5.53,74.620003,1729473188114.0,0.0
-3.223132,-8.056634,6.597012,-64.68,-16.379999,72.099998,1729473188134.0,0.0
-3.816552,-9.078369,4.539185,-106.540001,-18.27,61.740002,1729473188154.0,0.0
-4.881358,-10.492528,3.555735,-115.989998,-16.799999,48.16,1729473188175.0,0.0
-6.38405,-11.729616,3.192025,-96.459999,-12.67,31.01,1729473188194.0,0.0
-7.121039,-11.559726,3.302095,-65.590004,-9.45,8.68,1729473188213.0,0.0
-6.238089,-9.296116,3.113062,-20.09,-1.26,-24.710001,1729473188234.0,0.0
-5.419744,-7.580462,4.089334,-12.53,13.02,-31.01,1729473188254.0,0.0
-5.309673,-8.413164,4.481757,-23.24,7.84,-40.110001,1729473188276.0,0.0
-4.888536,-6.472585,0.232104,-34.790001,3.5,-45.5,1729473188294.0,0.0
-3.574877,-8.982656,2.612962,-16.379999,3.29,-45.779999,1729473188313.0,0.0
-2.277967,-9.066404,2.861816,12.11,17.43,-35.560001,1729473188333.0,0.0
-0.98345,-8.496914,2.598605,50.82,24.5,-26.950001,1729473188355.0,0.0
-0.028714,-7.903493,3.201597,90.580002,37.450001,-17.01,1729473188375.0,0.0
0.806381,-7.357929,3.9338,118.020004,46.689999,-8.96,1729473188395.0,0.0
1.447658,-7.04447,5.82413,135.589996,59.849998,-5.53,1729473188413.0,0.0
2.048256,-6.290731,6.252446,132.509995,71.68,1.47,1729473188433.0,0.0
3.04367,-7.037291,6.606583,133.210007,70.07,2.24,1729473188454.0,0.0
3.531806,-7.077969,6.041877,131.460007,73.220001,1.68,1729473188475.0,0.0
2.935993,-7.101898,6.149554,141.330002,79.449997,3.08,1729473188493.0,0.0
1.507478,-7.379465,6.501299,142.660004,72.800003,-8.47,1729473188513.0,0.0
1.081556,-6.053841,8.721838,177.660004,62.23,-9.24,1729473188534.0,0.0
-0.78006,-0.792024,8.99462,204.539993,64.190002,0.07,1729473188554.0,0.0
-1.832902,-1.0002,9.071191,156.240005,38.709999,28.210001,1729473188575.0,0.0
-1.574477,-0.550349,8.422735,35.209999,25.76,18.620001,1729473188593.0,0.0
-1.368695,-1.713261,7.219146,-44.799999,13.58,37.52,1729473188613.0,0.0
-2.67039,-3.491128,7.487142,-58.869999,14.21,56.0,1729473188634.0,0.0
-5.362316,-6.195018,9.712467,-53.689999,12.74,62.650002,1729473188654.0,0.0
-7.054041,-8.322237,10.688738,-53.130001,-0.56,58.450001,1729473188674.0,0.0
-5.871986,-8.946764,9.676575,-80.57,-10.5,34.720001,1729473188693.0,0.0
-4.776074,-7.499106,8.293523,-126.0,-15.33,5.25,1729473188714.0,0.0
-6.496514,-7.073184,7.838887,-143.360001,-20.370001,-8.75,1729473188733.0,0.0
-5.986843,-6.099305,9.102298,-129.360001,-13.65,-22.469999,1729473188754.0,0.0
-4.704289,-4.168297,10.612168,-113.330002,-2.94,-21.49,1729473188775.0,0.0
-4.472186,-4.443472,10.660025,-123.410004,-7.77,-23.59,1729473188793.0,0.0
-2.76371,-4.953143,8.353344,-182.419998,-28.700001,-23.379999,1729473188814.0,0.0
-0.167498,-5.115855,2.486143,-250.809998,-34.369999,-24.43,1729473188834.0,0.0
0.806381,-7.913064,-3.199204,-254.100006,-17.780001,-17.99,1729473188853.0,0.0
-2.275574,-11.56451,-1.069592,-212.449997,11.76,0.77,1729473188879.0,0.0
-4.252046,-11.045268,-0.562313,-109.270004,28.42,16.59,1729473188893.0,0.0
-5.355137,-10.394422,-1.29691,55.860001,47.459999,13.440001,1729473188913.0,0.0
-6.530013,-9.659825,-1.849652,132.860001,45.220001,7.42,1729473188934.0,0.0
-5.079963,-8.525627,0.98345,188.229996,31.5,-1.47,1729473188953.0,0.0
-3.06042,-7.089933,3.838088,189.910004,15.26,-0.28,1729473188976.0,0.0
-1.727618,-6.52762,4.307081,172.690002,21.42,-10.15,1729473188996.0,0.0
-2.067399,-5.036892,5.35753,143.220001,31.219999,-13.93,1729473189014.0,0.0
-1.942972,-5.831308,6.463014,126.279999,12.04,-15.89,1729473189033.0,0.0
-1.421337,-5.685347,7.712067,97.790001,2.87,-12.81,1729473189054.0,0.0
-1.672583,-6.709475,8.786445,138.039993,4.55,2.73,1729473189085.0,0.0
-1.816152,-6.06102,8.836694,185.220001,15.54,0.28,1729473189093.0,0.0
-2.163112,-1.277767,8.834301,163.589996,36.68,1.54,1729473189113.0,0.0
-1.79701,-1.404587,10.061819,88.830002,26.040001,8.19,1729473189133.0,0.0
-2.45025,-3.481557,9.513863,18.9,8.05,11.13,1729473189153.0,0.0
-3.395415,-2.979064,9.65504,16.799999,10.64,22.82,1729473189175.0,0.0
-3.689733,-3.225525,10.004392,3.78,5.81,24.92,1729473189193.0,0.0
-4.505685,-5.577669,10.473385,-31.360001,-12.04,24.92,1729473189213.0,0.0
-4.694718,-7.563712,9.592826,-61.040001,-26.67,14.77,1729473189233.0,0.0
-3.682554,-6.62094,6.757331,-107.029999,-31.85,-10.64,1729473189253.0,0.0
-5.24746,-5.864808,4.819145,-127.540001,-19.460001,-17.99,1729473189274.0,0.0
-5.627919,-6.924829,5.721239,-99.400002,-0.42,-25.41,1729473189293.0,0.0
-5.115855,-7.463214,9.267403,-89.879997,5.6,-33.040001,1729473189313.0,0.0
-4.082155,-6.912865,9.834501,-95.269997,-3.71,-34.299999,1729473189333.0,0.0
-2.928815,-5.510671,9.868,-100.379997,-11.13,-23.52,1729473189353.0,0.0
-1.272982,-3.165704,7.192825,-147.210007,-13.58,-21.210001,1729473189374.0,0.0
0.181855,-1.545763,-0.48335,-212.589996,-21.559999,-4.9,1729473189393.0,0.0
-0.490529,-6.352944,-2.481357,-256.619995,-4.69,0.21,1729473189413.0,0.0
-2.995814,-6.453443,-3.397808,-294.209991,24.290001,-1.82,1729473189433.0,0.0
-5.682954,-11.581261,-1.825724,-188.860001,49.0,24.08,1729473189453.0,0.0
-5.563312,-13.42852,-1.490728,-95.129997,42.209999,19.809999,1729473189477.0,0.0
-4.972286,-13.854443,-1.538585,6.51,22.469999,11.06,1729473189494.0,0.0
-4.917251,-12.452249,-0.62692,92.610001,12.39,-3.22,1729473189512.0,0.0
-3.09392,-10.829915,1.354338,178.360001,-1.96,-5.53,1729473189533.0,0.0
-1.710868,-6.13759,2.541178,236.180008,24.08,-10.15,1729473189553.0,0.0
-2.127219,-4.13719,3.397808,246.330002,38.5,-7.14,1729473189576.0,0.0
-1.899901,-2.938386,6.254838,183.399994,18.549999,-9.87,1729473189593.0,0.0
-2.347359,-4.151547,10.944772,100.099998,17.360001,-11.69,1729473189613.0,0.0
-4.297509,-8.4012,10.293922,57.470001,-7.07,-11.2,1729473189633.0,0.0
-1.995614,-9.047262,7.336394,113.68,-33.18,-0.42,1729473189653.0,0.0
-0.658026,-3.306881,8.705089,155.75,28.49,10.57,1729473189674.0,0.0
-1.90708,-1.691726,9.97807,100.870003,12.25,6.72,1729473189692.0,0.0
-4.110869,-5.300103,7.76471,18.76,-24.639999,15.12,1729473189712.0,0.0
-2.974278,-7.178468,7.092326,56.490002,-22.120001,14.63,1729473189732.0,0.0
-3.617948,-3.735196,9.38465,119.489998,18.41,16.030001,1729473189753.0,0.0
-4.986642,-2.330609,11.41137,91.559998,12.39,15.61,1729473189774.0,0.0
-4.366901,-4.299902,11.657832,1.05,-16.24,21.49,1729473189792.0,0.0
-2.931208,-5.84088,9.006584,-79.519997,-32.970001,10.99,1729473189812.0,0.0
-2.232504,-5.998806,4.953143,-137.479996,-30.380001,2.45,1729473189833.0,0.0
-5.249853,-7.087541,5.417351,-153.020004,-8.05,-6.16,1729473189853.0,0.0
-5.592027,-7.233503,6.240481,-125.650002,2.45,-16.52,1729473189881.0,0.0
-5.395815,-7.367501,10.037891,-126.139999,-7.0,-21.49,1729473189892.0,0.0
-3.012564,-5.804988,8.700303,-159.669998,-29.049999,-18.969999,1729473189913.0,0.0
-0.658026,-3.656233,3.318845,-200.270004,-26.32,-15.05,1729473189932.0,0.0
0.552742,-4.371687,-3.515057,-243.320007,-22.120001,-3.29,1729473189953.0,0.0
-1.569692,-8.279166,-2.971886,-250.740005,0.35,1.68,1729473189976.0,0.0
-4.838287,-8.762517,-3.192025,-208.180008,44.59,18.200001,1729473189993.0,0.0
-6.23091,-10.193424,-2.579463,-98.910004,73.220001,33.32,1729473190013.0,0.0
-5.517848,-11.837293,-0.574277,-48.09,33.110001,16.52,1729473190033.0,0.0
-3.649055,-12.413965,-0.42353,-21.35,2.66,8.4,1729473190053.0,0.0
-2.9336,-12.468999,-0.646062,23.66,4.97,-4.2,1729473190076.0,0.0
-2.24686,-11.404193,0.141177,114.379997,7.21,-16.030001,1729473190092.0,0.0
-1.952543,-6.865008,-0.062213,199.990005,30.52,-11.83,1729473190112.0,0.0
-3.266203,-3.06042,2.337788,237.860001,54.25,11.83,1729473190133.0,0.0
-3.701697,-2.612962,6.374479,159.110001,40.670002,0.35,1729473190153.0,0.0
-3.24706,-5.417351,8.013563,18.549999,11.13,-18.129999,1729473190176.0,0.0
-4.699504,-10.475778,9.480364,-2.38,-11.13,-8.82,1729473190193.0,0.0
-3.766303,-12.239288,8.441878,80.360001,-21.35,-3.15,1729473190212.0,0.0
-1.569692,-8.453842,9.377472,158.899994,-6.16,-12.53,1729473190232.0,0.0
-2.244468,-4.756931,10.454242,181.369995,-11.13,-5.46,1729473190253.0,0.0
-2.723032,-5.003392,9.533006,147.419998,-35.98,-0.42,1729473190275.0,0.0
-1.820938,-6.936793,7.590034,110.110001,-54.880001,-0.42,1729473190292.0,0.0
-1.057628,-6.513263,7.456036,123.129997,-35.349998,-1.68,1729473190312.0,0.0
-2.081756,-2.328217,7.963314,139.020004,-8.75,-3.29,1729473190332.0,0.0
-3.388237,-0.344566,8.882158,94.919998,-7.21,4.34,1729473190352.0,0.0
-3.558127,-2.624927,10.052249,4.06,-17.290001,7.28,1729473190374.0,0.0
-2.902494,-4.405186,8.023134,-69.370003,-26.32,7.98,1729473190392.0,0.0
-2.550749,-4.811966,5.927022,-102.480003,-19.809999,6.44,1729473190413.0,0.0
-5.017749,-5.374279,4.721039,-112.0,-11.62,11.06,1729473190432.0,0.0
-6.209375,-8.556733,7.204789,-84.489998,-6.16,5.88,1729473190452.0,0.0
-4.744967,-7.396214,8.88455,-101.43,-13.23,-0.21,1729473190474.0,0.0
-3.818945,-5.850451,9.200402,-136.779999,-11.06,-7.42,1729473190492.0,0.0
