acc_x,acc_y,acc_z,gyr_x,gyr_y,gyr_z,timestamp,label
-3.084348,-5.87438,-7.889136,52.009998,5.11,3.78,1729475807254.0,0.0
-3.117848,-5.115855,-7.908278,60.689999,2.94,3.43,1729475807255.0,0.0
-3.0006,-4.957928,-8.023134,40.18,-0.63,4.41,1729475807258.0,0.0
-3.007778,-5.362316,-7.869993,12.81,4.13,5.32,1729475807276.0,0.0
-2.766103,-5.998806,-7.192825,6.23,4.48,5.25,1729475807299.0,0.0
-2.230111,-6.211767,-7.537392,14.42,-8.61,2.52,1729475807316.0,0.0
-2.201397,-5.642276,-7.71446,19.6,-9.45,0.49,1729475807334.0,0.0
-2.825923,-4.905287,-7.944171,6.44,-3.99,-2.38,1729475807355.0,0.0
-3.172883,-4.24726,-7.702496,-17.99,-1.82,-3.15,1729475807375.0,0.0
-2.931208,-5.216353,-7.503892,-43.119999,-13.23,-3.36,1729475807395.0,0.0
-1.545763,-6.070591,-8.865408,-55.02,-35.139999,-6.72,1729475807414.0,0.0
-1.792224,-5.668597,-8.975478,-25.690001,-24.290001,-7.91,1729475807435.0,0.0
-2.641676,-5.065606,-8.360522,-4.2,-8.12,-8.05,1729475807454.0,0.0
-2.562713,-4.682754,-8.458629,15.190001,-16.309999,-3.78,1729475807476.0,0.0
-1.849652,-4.65404,-8.559127,11.2,-30.17,-0.49,1729475807501.0,0.0
-1.641476,-4.876573,-8.542377,-14.84,-24.15,-2.8,1729475807516.0,0.0
-2.096112,-5.338387,-8.547162,-23.379999,-16.309999,-5.95,1729475807534.0,0.0
-1.981257,-5.211568,-8.891729,-9.66,-20.790001,-9.59,1729475807554.0,0.0
-1.062413,-4.48415,-8.630912,0.63,-37.029999,-10.22,1729475807574.0,0.0
-0.722632,-4.362115,-8.9683,-17.780001,-39.130001,-12.6,1729475807595.0,0.0
-1.18684,-4.54397,-8.700303,-44.799999,-26.530001,-18.059999,1729475807615.0,0.0
-1.619941,-4.639683,-8.647661,-49.0,-21.700001,-20.58,1729475807634.0,0.0
-1.462015,-4.644469,-8.965906,-39.200001,-28.700001,-18.34,1729475807654.0,0.0
-1.067199,-4.567898,-8.886944,-35.420002,-32.27,-16.450001,1729475807675.0,0.0
-1.261017,-4.567898,-9.001799,-37.240002,-27.860001,-16.52,1729475807695.0,0.0
-1.737189,-4.642076,-8.848659,-36.189999,-21.98,-15.05,1729475807714.0,0.0
-1.761117,-4.591826,-8.508877,-27.65,-23.52,-11.69,1729475807734.0,0.0
-1.404587,-4.254438,-8.422735,-24.360001,-27.93,-7.49,1729475807754.0,0.0
-1.198804,-4.17069,-8.664411,-42.84,-30.59,-6.16,1729475807774.0,0.0
-1.162912,-3.809374,-8.757731,-73.709999,-28.42,-7.56,1729475807796.0,0.0
-1.210768,-4.007978,-8.975478,-100.169998,-25.620001,-10.29,1729475807815.0,0.0
-1.036092,-4.63729,-9.276974,-103.529999,-23.870001,-13.72,1729475807834.0,0.0
-0.894916,-4.709075,-8.204988,-66.709999,-22.4,-15.05,1729475807855.0,0.0
-1.737189,-3.048456,-7.532606,-55.860001,-18.059999,-17.57,1729475807874.0,0.0
-2.785245,-2.620141,-9.868,-126.279999,-17.360001,-26.880001,1729475807895.0,0.0
-1.998007,-3.78066,-12.234503,-175.979996,-48.299999,-36.400002,1729475807918.0,0.0
-0.667598,-4.443472,-13.600803,-142.309998,-38.009998,-32.34,1729475807934.0,0.0
-0.42353,-3.553342,-13.624733,-48.580002,-8.89,-29.26,1729475807954.0,0.0
-1.277767,-3.986443,-12.332609,26.18,21.139999,-25.059999,1729475807975.0,0.0
-0.193819,-2.074577,-9.332008,32.970001,25.059999,-33.389999,1729475807994.0,0.0
-0.411566,-1.596013,-9.537791,34.860001,15.75,-34.650002,1729475808015.0,0.0
-1.232304,-0.480957,-8.941978,50.75,27.23,-29.68,1729475808035.0,0.0
-1.885544,0.732204,-9.745967,50.119999,27.860001,-18.48,1729475808054.0,0.0
-1.588834,0.411566,-9.387043,8.19,24.5,-5.11,1729475808075.0,0.0
-0.581456,-0.89013,-9.174082,-23.59,5.32,12.18,1729475808096.0,0.0
0.638884,-1.433301,-9.84168,-40.810001,-6.51,9.66,1729475808114.0,0.0
-0.662812,-0.753739,-9.377472,-43.540001,25.620001,16.940001,1729475808133.0,0.0
-3.393023,-1.320838,-8.989835,16.1,44.869999,35.700001,1729475808154.0,0.0
-4.35733,-1.74676,-9.375079,56.560001,23.24,45.709999,1729475808175.0,0.0
-3.436093,-0.344566,-9.97807,21.77,11.34,44.66,1729475808194.0,0.0
-2.18704,-2.244468,-10.82513,-17.360001,-6.51,45.150002,1729475808215.0,0.0
-1.395016,-3.735196,-11.751152,-38.639999,-7.91,27.09,1729475808233.0,0.0
-2.074577,-4.45065,-11.631511,-7.98,10.36,14.63,1729475808254.0,0.0
-2.749353,-2.605784,-11.038091,27.370001,17.01,-5.95,1729475808274.0,0.0
-2.67039,-1.122234,-10.667203,43.540001,30.030001,-16.450001,1729475808295.0,0.0
-1.57687,-1.90708,-9.028119,65.870003,6.93,-19.67,1729475808314.0,0.0
-1.756332,-0.447458,-9.085547,83.160004,27.58,-24.99,1729475808334.0,0.0
-2.411965,0.748954,-8.013563,49.279999,36.470001,-27.23,1729475808354.0,0.0
-2.426322,0.01675,-8.762517,-15.82,14.84,-29.049999,1729475808374.0,0.0
-1.4668,1.502693,-9.638289,-31.5,4.2,-20.860001,1729475808395.0,0.0
-0.066999,3.09392,-9.535398,7.14,-1.68,5.95,1729475808414.0,0.0
1.308874,1.5003,-8.549555,-28.0,-24.57,30.799999,1729475808433.0,0.0
0.442672,-1.945365,-8.008778,-110.879997,-10.85,34.23,1729475808454.0,0.0
-3.101098,-5.185246,-9.221939,-142.940002,29.82,28.700001,1729475808474.0,0.0
-5.407779,-4.323831,-11.459228,-155.330002,22.960001,-1.89,1729475808494.0,0.0
-4.275974,-3.225525,-13.351951,-135.240005,-3.36,-12.95,1729475808514.0,0.0
-0.866202,-4.098906,-11.722438,-30.870001,-36.610001,5.6,1729475808534.0,0.0
0.131605,-2.54357,-11.509477,51.240002,-12.88,-0.77,1729475808555.0,0.0
-1.665405,-2.897708,-9.77468,111.580002,19.32,-0.07,1729475808582.0,0.0
-2.478964,-2.847459,-7.252645,84.279999,28.210001,-16.309999,1729475808596.0,0.0
-2.502892,-0.27996,-9.647861,35.490002,3.29,-28.77,1729475808614.0,0.0
-3.680161,0.677169,-9.430114,9.45,16.73,-27.09,1729475808635.0,0.0
-3.785445,-0.981057,-9.516255,8.75,7.14,-20.09,1729475808654.0,0.0
-1.445265,0.294317,-9.958927,18.059999,-27.58,-16.66,1729475808674.0,0.0
0.047856,0.878166,-8.764909,30.24,-11.48,-2.24,1729475808696.0,0.0
0.765703,0.598206,-7.678568,18.969999,-11.2,0.77,1729475808714.0,0.0
-0.588634,-0.411566,-9.265009,7.98,-7.56,19.32,1729475808734.0,0.0
-2.371287,-1.227518,-10.79163,-8.12,7.35,29.540001,1729475808754.0,0.0
-3.328416,-2.840281,-9.958927,-48.23,2.52,23.24,1729475808775.0,0.0
-4.926822,-4.754539,-10.746166,-105.349998,14.49,14.35,1729475808796.0,0.0
-2.976671,-5.613562,-10.750952,-58.66,-17.710001,0.56,1729475808815.0,0.0
-0.976272,-4.630112,-10.408779,43.400002,-26.460001,-1.05,1729475808834.0,0.0
-1.923829,-2.419144,-9.367901,95.690002,-2.38,-14.91,1729475808855.0,0.0
-3.699304,-2.555535,-10.997414,69.510002,15.26,-25.48,1729475808876.0,0.0
-2.514857,-1.395016,-7.855636,49.349998,-6.86,-30.73,1729475808896.0,0.0
-2.380858,-0.713061,-9.915856,59.639999,-3.08,-19.6,1729475808920.0,0.0
-2.522035,-0.150748,-8.626125,41.16,1.89,-21.210001,1729475808935.0,0.0
-2.06022,0.141177,-10.925629,13.93,-8.61,-12.6,1729475808958.0,0.0
-0.607777,2.445465,-10.540384,10.36,-16.59,0.21,1729475808977.0,0.0
0.751346,-0.150748,-8.193025,4.2,-21.139999,13.440001,1729475808998.0,0.0
-0.832702,-1.832902,-8.427521,-52.290001,0.56,19.110001,1729475809017.0,0.0
-3.081956,-2.474179,-10.253245,-64.75,12.74,19.460001,1729475809037.0,0.0
-4.165904,-3.541377,-9.391829,-72.940002,1.61,17.43,1729475809058.0,0.0
-5.536992,-5.233103,-11.109876,-112.629997,10.15,11.62,1729475809076.0,0.0
-3.457629,-5.391029,-12.284752,-101.43,-23.870001,-3.5,1729475809098.0,0.0
-0.736989,-5.163712,-11.456835,-0.7,-31.639999,-2.24,1729475809117.0,0.0
-1.339981,-3.235096,-9.35833,71.050003,3.92,-16.1,1729475809136.0,0.0
-3.09392,-3.629912,-10.841879,91.840004,25.059999,-25.34,1729475809159.0,0.0
-2.347359,0.550349,-8.441878,90.860001,4.83,-29.82,1729475809177.0,0.0
-2.866602,1.488336,-8.377272,74.830002,11.83,-17.85,1729475809198.0,0.0
-2.931208,-0.533599,-8.422735,-0.28,7.07,-20.51,1729475809218.0,0.0
-1.194018,-0.117248,-10.470992,-34.580002,-21.77,-16.73,1729475809238.0,0.0
0.409173,-0.775275,-10.755738,-0.49,-23.309999,-5.11,1729475809256.0,0.0
0.636491,-0.246461,-8.822337,11.69,-3.43,-6.44,1729475809276.0,0.0
-2.105684,-0.265603,-7.4345,18.690001,23.450001,11.06,1729475809300.0,0.0
-3.778267,-0.954736,-9.080762,7.42,15.4,25.690001,1729475809316.0,0.0
-5.003392,-3.364309,-10.212566,-64.959999,4.2,27.58,1729475809336.0,0.0
-3.976871,-5.986843,-10.624132,-115.290001,-18.27,17.57,1729475809356.0,0.0
-1.316052,-5.551349,-11.064411,-45.5,-29.75,9.8,1729475809375.0,0.0
-1.598405,-5.158926,-10.992627,62.439999,-3.99,5.53,1729475809398.0,0.0
-3.192025,-2.833102,-9.272188,88.830002,28.49,-17.92,1729475809417.0,0.0
-3.278167,-4.058227,-9.181261,102.199997,16.450001,-24.43,1729475809436.0,0.0
-2.050649,0.921237,-9.341579,75.389999,4.2,-31.85,1729475809456.0,0.0
-3.436093,0.818345,-6.884151,35.91,15.190001,-25.83,1729475809478.0,0.0
-3.98405,-2.213361,-8.468199,-45.639999,8.4,-31.92,1729475809498.0,0.0
-1.282553,-0.457029,-10.794022,-37.869999,-35.07,-24.43,1729475809518.0,0.0
1.081556,0.624527,-10.303494,25.129999,-31.08,2.17,1729475809537.0,0.0
1.739582,0.172283,-8.195417,19.879999,-18.690001,12.67,1729475809555.0,0.0
-1.253839,-1.430908,-7.633104,-18.76,16.379999,30.59,1729475809576.0,0.0
-3.644269,-2.596212,-9.221939,-49.98,17.219999,34.580002,1729475809600.0,0.0
-5.058427,-2.79721,-10.372886,-97.019997,8.54,28.77,1729475809616.0,0.0
-4.555934,-5.106283,-11.499906,-88.690002,-6.79,26.880001,1729475809637.0,0.0
-2.07697,-5.130211,-11.9689,-56.630001,-19.460001,14.84,1729475809656.0,0.0
-1.782653,-4.632504,-9.229117,59.920002,11.76,-5.88,1729475809677.0,0.0
-3.366701,-2.500499,-8.882158,51.380001,32.200001,-31.15,1729475809697.0,0.0
-2.895315,-1.828116,-6.202196,59.010002,5.88,-34.509998,1729475809716.0,0.0
-2.888137,-0.071785,-8.944371,25.9,9.24,-33.389999,1729475809735.0,0.0
-3.292524,-0.26321,-7.80778,-22.610001,10.22,-33.529999,1729475809755.0,0.0
-2.232504,0.387637,-9.781858,-27.51,-16.1,-16.940001,1729475809777.0,0.0
-0.198604,1.115055,-10.789237,0.77,-29.190001,-0.98,1729475809798.0,0.0
0.344566,0.31346,-8.781659,19.110001,-14.28,15.12,1729475809818.0,0.0
-1.562513,-0.514457,-8.606983,10.01,5.04,25.48,1729475809837.0,0.0
-2.854637,-1.402194,-10.023535,4.34,7.49,35.98,1729475809856.0,0.0
-3.342773,-1.679761,-9.064013,-48.790001,0.7,30.940001,1729475809877.0,0.0
-4.405186,-4.091727,-10.767702,-99.68,12.6,30.59,1729475809898.0,0.0
-2.885744,-5.405386,-11.897114,-103.739998,-15.61,12.04,1729475809919.0,0.0
-1.136591,-5.216353,-11.799009,-21.84,-16.940001,-0.56,1729475809935.0,0.0
-1.864009,-3.536592,-9.671788,53.549999,12.74,-19.809999,1729475809956.0,0.0
-3.383451,-3.026921,-9.667004,81.129997,32.48,-30.59,1729475809977.0,0.0
-2.70389,0.717847,-8.324631,66.5,12.74,-38.709999,1729475809998.0,0.0
-3.885944,0.346959,-7.848458,6.51,12.74,-30.450001,1729475810016.0,0.0
-3.127419,-0.234497,-9.042477,-11.97,-7.84,-22.68,1729475810036.0,0.0
-0.818345,1.146162,-9.954143,10.92,-26.530001,-9.38,1729475810058.0,0.0
0.602991,1.239482,-9.77468,27.23,-20.93,4.97,1729475810079.0,0.0
0.224925,-0.562313,-9.320045,27.23,-8.47,21.84,1729475810098.0,0.0
-1.59362,-2.036292,-9.332008,10.08,13.23,30.799999,1729475810116.0,0.0
-2.737389,-1.854438,-9.181261,-24.710001,13.58,27.719999,1729475810137.0,0.0
-5.000999,-2.955136,-9.745967,-90.160004,25.620001,24.780001,1729475810156.0,0.0
-4.053442,-4.737789,-12.181859,-115.220001,-13.09,4.97,1729475810176.0,0.0
-1.237089,-5.419744,-12.433105,-48.02,-31.15,0.35,1729475810197.0,0.0
-1.129412,-5.333601,-11.365908,57.75,2.45,-10.36,1729475810216.0,0.0
-2.512464,-2.591427,-8.001599,107.590004,40.670002,-30.309999,1729475810237.0,0.0
-3.359523,-1.555335,-8.889337,110.389999,29.540001,-30.309999,1729475810256.0,0.0
-2.904887,2.376073,-8.815158,47.110001,10.64,-29.610001,1729475810278.0,0.0
-4.268795,0.189033,-8.38445,-10.43,13.440001,-15.89,1729475810296.0,0.0
-3.668197,-2.167897,-9.399008,-50.119999,-4.83,-18.83,1729475810317.0,0.0
-0.217747,-0.306281,-10.801201,-15.26,-29.469999,-10.43,1729475810336.0,0.0
0.729811,0.847059,-9.394222,43.330002,-18.690001,-0.35,1729475810355.0,0.0
-0.701097,0.464208,-8.173882,45.220001,-2.38,18.41,1729475810375.0,0.0
-2.861816,-0.945165,-8.683553,16.52,10.71,37.310001,1729475810397.0,0.0
-3.996014,-2.22054,-7.944171,-55.790001,5.04,32.41,1729475810417.0,0.0
-4.869394,-3.381058,-10.959127,-122.919998,-5.74,28.35,1729475810437.0,0.0
-2.988636,-4.993821,-12.361321,-100.519997,-36.049999,20.65,1729475810455.0,0.0
-1.284946,-4.73061,-12.24168,-28.0,-24.639999,12.81,1729475810475.0,0.0
-1.715654,-4.261617,-10.502099,52.5,6.86,0.28,1729475810498.0,0.0
-2.663212,-2.261217,-8.315059,60.970001,25.76,-20.16,1729475810515.0,0.0
-3.378666,-2.182254,-9.894321,29.960001,15.33,-33.25,1729475810535.0,0.0
-2.852244,0.200997,-8.518449,-8.96,8.12,-40.040001,1729475810555.0,0.0
-3.541377,0.430708,-8.898908,-12.81,6.09,-27.58,1729475810576.0,0.0
-2.947958,0.081356,-9.24826,-4.9,-4.62,-12.39,1729475810598.0,0.0
-1.033699,-0.253639,-9.454042,-9.24,-28.700001,-8.19,1729475810623.0,0.0
-0.057428,-0.476172,-9.975677,-5.46,-22.190001,-8.19,1729475810635.0,0.0
-1.354338,-0.878166,-9.925428,40.110001,-3.01,19.879999,1729475810658.0,0.0
-2.380858,-0.198604,-10.889735,24.360001,6.09,24.08,1729475810676.0,0.0
-4.029513,-1.07677,-10.430314,-16.59,20.93,35.700001,1729475810698.0,0.0
-4.546363,-2.840281,-9.274581,-67.059998,18.059999,29.190001,1729475810716.0,0.0
-3.651447,-4.271189,-12.179466,-92.400002,-11.2,15.33,1729475810737.0,0.0
-1.646262,-5.190032,-11.736795,-19.950001,-16.030001,6.65,1729475810755.0,0.0
-1.713261,-4.919643,-10.700702,66.709999,13.86,-11.34,1729475810779.0,0.0
-2.502892,-1.31366,-7.893922,79.169998,42.84,-32.689999,1729475810797.0,0.0
-3.864408,-0.306281,-7.788638,40.389999,35.279999,-31.710001,1729475810818.0,0.0
-3.223132,0.37328,-7.159326,-32.130001,6.65,-38.779999,1729475810837.0,0.0
-3.192025,-0.198604,-8.896514,-33.880001,-3.85,-17.219999,1729475810857.0,0.0
-2.478964,1.371087,-8.183454,-5.74,-3.5,-8.54,1729475810879.0,0.0
-1.811367,1.239482,-8.169096,9.8,-13.440001,5.39,1729475810900.0,0.0
-0.832702,0.693919,-9.518648,-12.53,-28.42,8.05,1729475810920.0,0.0
-0.727418,-0.421137,-10.052249,-49.0,-24.01,5.18,1729475810938.0,0.0
-1.804188,-2.512464,-10.116854,-57.540001,-16.379999,3.15,1729475810956.0,0.0
-1.897508,-2.340181,-10.760524,-49.700001,-8.05,0.63,1729475810978.0,0.0
-3.613162,-2.385644,-11.260624,-62.23,12.11,4.2,1729475810999.0,0.0
-4.063013,-2.907279,-12.399607,-60.970001,6.23,5.46,1729475811017.0,0.0
-2.730211,-3.244668,-12.492928,-26.67,-7.49,11.69,1729475811038.0,0.0
-2.086541,-3.09392,-13.124631,35.98,3.92,11.48,1729475811056.0,0.0
-2.11047,-3.498307,-10.272388,112.910004,26.809999,5.53,1729475811079.0,0.0
-1.892723,-0.911665,-6.903293,125.160004,41.580002,-12.88,1729475811100.0,0.0
-2.900101,0.825524,-7.087541,90.440002,26.18,-13.16,1729475811119.0,0.0
-4.089334,0.401994,-7.384251,20.299999,23.940001,-19.6,1729475811137.0,0.0
-3.76391,-0.461815,-8.671589,-22.190001,2.52,-19.74,1729475811158.0,0.0
-2.266003,-0.12682,-9.430114,-2.45,-11.41,-13.09,1729475811178.0,0.0
-1.234696,1.464408,-9.576077,25.27,-8.75,-6.02,1729475811200.0,0.0
-1.497907,1.119841,-10.348958,32.619999,-4.2,10.5,1729475811219.0,0.0
-0.935594,-0.87338,-9.52822,28.210001,-3.5,24.219999,1729475811237.0,0.0
-0.57667,-2.754139,-8.760124,-0.7,-13.09,30.66,1729475811258.0,0.0
-1.634298,-3.081956,-9.126225,-29.049999,3.08,24.15,1729475811278.0,0.0
-3.433701,-1.89033,-10.140782,-60.48,18.549999,14.49,1729475811300.0,0.0
-4.163511,-2.536392,-10.987842,-79.169998,7.63,10.36,1729475811319.0,0.0
-3.345166,-4.259224,-11.176874,-107.660004,-7.49,-5.32,1729475811342.0,0.0
-2.385644,-4.039084,-11.56451,-102.830002,-6.3,-18.200001,1729475811359.0,0.0
-1.926222,-4.144369,-11.502297,-1.75,5.25,-17.85,1729475811379.0,0.0
-2.038685,-2.230111,-8.685946,73.919998,29.889999,-26.74,1729475811400.0,0.0
-2.584249,0.258425,-7.441679,94.080002,26.67,-23.030001,1729475811418.0,0.0
-3.723232,0.672383,-7.458428,65.449997,14.14,-16.379999,1729475811438.0,0.0
-3.986443,0.205783,-8.738588,-1.4,2.94,-19.879999,1729475811459.0,0.0
-3.079563,-0.459422,-9.226725,-38.5,-20.440001,-20.02,1729475811478.0,0.0
-1.698904,-0.198604,-9.750752,-16.379999,-26.18,-15.190001,1729475811500.0,0.0
-1.237089,0.887737,-10.13839,21.210001,-17.57,-2.17,1729475811518.0,0.0
-1.052842,-0.349352,-10.049855,33.599998,-12.95,8.47,1729475811537.0,0.0
-0.880559,-0.964308,-9.686146,-9.45,-15.12,7.7,1729475811557.0,0.0
-1.679761,-2.383251,-10.41835,-58.310001,-5.11,7.56,1729475811578.0,0.0
-1.454836,-2.85703,-11.602797,-49.560001,-9.1,7.28,1729475811598.0,0.0
-1.485943,-2.172683,-11.349157,15.05,1.4,10.92,1729475811619.0,0.0
-2.203789,-1.648655,-10.861022,77.769997,12.95,17.08,1729475811639.0,0.0
-3.177669,-1.198804,-8.709875,81.269997,24.360001,14.28,1729475811658.0,0.0
-4.228118,-1.792224,-9.810574,45.220001,26.530001,10.15,1729475811677.0,0.0
-3.448057,-2.347359,-9.334401,15.61,8.75,1.54,1729475811698.0,0.0
-2.380858,-2.531606,-9.083155,11.55,-0.49,-3.29,1729475811718.0,0.0
-2.105684,-1.892723,-9.06162,23.450001,6.37,-6.65,1729475811737.0,0.0
-2.301895,-1.174876,-9.071191,36.540001,10.22,-3.22,1729475811758.0,0.0
-2.435893,-1.021735,-9.320045,29.469999,7.91,5.04,1729475811778.0,0.0
-2.182254,-1.028914,-9.729217,16.59,2.17,12.18,1729475811798.0,0.0
-1.840081,-1.081556,-9.937392,20.93,1.4,19.950001,1729475811819.0,0.0
-1.531406,-0.914058,-10.195816,24.219999,2.52,20.65,1729475811838.0,0.0
-1.301696,-0.70349,-10.133603,11.9,3.36,18.690001,1729475811857.0,0.0
-1.167697,-1.048056,-10.459028,-10.71,9.03,15.75,1729475811878.0,0.0
-1.148555,-2.158326,-10.442278,-28.35,13.51,11.97,1729475811899.0,0.0
-1.679761,-3.864408,-9.4349,-33.599998,23.379999,0.98,1729475811921.0,0.0
-2.935993,-3.534199,-5.142176,-44.869999,20.51,-16.17,1729475811938.0,0.0
-3.864408,-5.761917,-9.702895,-61.110001,-15.82,-38.639999,1729475811958.0,0.0
-2.854637,-5.582455,-10.650455,-37.66,-13.02,-61.670002,1729475811977.0,0.0
-3.0006,-2.462214,-11.274981,7.7,2.24,-66.989998,1729475812003.0,0.0
-2.70389,1.205983,-8.075776,3.22,7.63,-63.98,1729475812018.0,0.0
-2.15354,0.90688,-10.169496,-28.49,-9.8,-39.200001,1729475812039.0,0.0
-1.715654,-0.267996,-9.619147,-42.91,-7.35,-14.14,1729475812058.0,0.0
-1.751546,0.081356,-9.848858,17.85,-4.55,13.09,1729475812078.0,0.0
-1.488336,1.909473,-8.542377,58.450001,-0.28,28.139999,1729475812098.0,0.0
-0.746561,0.897308,-8.958728,36.259998,-18.690001,33.18,1729475812118.0,0.0
-0.112463,-0.9667,-10.437491,-14.84,-21.700001,29.889999,1729475812139.0,0.0
-1.215554,-1.631905,-11.684153,-19.110001,-0.07,28.280001,1729475812159.0,0.0
-2.725425,-0.258425,-11.633904,-4.62,19.18,24.99,1729475812179.0,0.0
-2.706282,-1.055235,-12.363714,-3.15,18.129999,30.66,1729475812199.0,0.0
-1.952543,-3.347559,-10.442278,8.47,19.110001,29.75,1729475812265.0,0.0
-2.902494,-5.096712,-6.80758,-19.6,34.23,11.41,1729475812265.0,0.0
-2.215754,-7.74796,-11.274981,-3.85,-4.13,-22.540001,1729475812266.0,0.0
-3.28056,-6.381658,-8.891729,76.440002,19.32,-38.639999,1729475812292.0,0.0
-4.666004,-2.065006,-9.016156,65.590004,34.650002,-56.349998,1729475812298.0,0.0
-4.067799,-0.040678,-8.30788,7.28,13.09,-54.32,1729475812320.0,0.0
-2.634498,-0.454636,-8.092526,-30.799999,-14.14,-38.5,1729475812337.0,0.0
-1.734797,0.588634,-7.68096,-43.610001,-12.32,-29.75,1729475812357.0,0.0
-1.354338,1.234696,-9.650253,-2.66,-18.690001,-6.51,1729475812378.0,0.0
-0.212961,1.452443,-9.497113,28.84,-24.57,3.99,1729475812399.0,0.0
0.727418,1.90708,-10.346564,4.97,-26.67,6.93,1729475812418.0,0.0
0.320638,0.37328,-11.062018,-16.17,-18.549999,14.84,1729475812437.0,0.0
-1.208375,-0.90688,-10.272388,-12.46,-7.0,23.73,1729475812457.0,0.0
-2.22054,-0.047856,-11.322837,-16.870001,7.0,31.15,1729475812478.0,0.0
-2.086541,-2.146362,-11.349157,-11.55,10.99,42.560001,1729475812498.0,0.0
-1.993221,-3.507878,-11.133803,15.12,18.969999,45.57,1729475812517.0,0.0
-3.194418,-4.240082,-7.877172,9.52,32.549999,32.27,1729475812537.0,0.0
-3.352344,-6.659225,-8.487342,-25.200001,11.76,7.07,1729475812558.0,0.0
-1.789831,-6.84108,-9.79143,14.42,-5.6,-17.57,1729475812578.0,0.0
-3.103491,-1.40698,-9.454042,88.620003,26.040001,-44.170002,1729475812599.0,0.0
-4.833502,0.155533,-7.453642,19.530001,18.9,-48.299999,1729475812618.0,0.0
-3.67059,-1.490728,-8.181061,-39.130001,-8.19,-43.68,1729475812638.0,0.0
-1.086342,1.153341,-8.671589,-69.300003,-26.530001,-37.73,1729475812658.0,0.0
-0.930808,1.74676,-9.195618,-41.299999,-17.15,-8.12,1729475812678.0,0.0
-0.916451,0.734596,-9.329616,17.219999,-18.549999,13.79,1729475812698.0,0.0
-0.624527,1.014557,-10.578669,35.98,-19.18,24.780001,1729475812723.0,0.0
-0.267996,1.095913,-11.301301,-11.48,-16.450001,25.549999,1729475812738.0,0.0
-1.22034,-1.043271,-8.819944,-71.610001,-13.79,23.940001,1729475812757.0,0.0
-2.921637,-2.634498,-11.933006,-74.830002,1.12,24.43,1729475812777.0,0.0
-2.452643,-2.09372,-13.237095,-5.11,0.7,32.41,1729475812798.0,0.0
-2.132005,-2.251646,-9.798609,29.26,15.61,35.91,1729475812817.0,0.0
-3.081956,-4.84068,-7.860423,-24.780001,24.01,20.16,1729475812842.0,0.0
-2.18704,-7.513463,-10.360922,-27.719999,-8.54,-2.1,1729475812857.0,0.0
-2.132005,-7.008578,-9.300901,65.029999,4.9,-21.91,1729475812878.0,0.0
-4.101298,-1.849652,-9.377472,84.559998,26.389999,-40.810001,1729475812899.0,0.0
-3.929015,-0.784846,-8.250452,14.28,21.84,-50.189999,1729475812933.0,0.0
-1.569692,0.399601,-9.410972,-57.189999,-19.18,-41.509998,1729475812950.0,0.0
-1.07677,1.316052,-8.477771,-43.049999,-15.05,-20.09,1729475813013.0,0.0
-1.112662,1.37348,-8.846266,2.17,-9.66,-1.54,1729475813018.0,0.0
-0.98345,1.395016,-9.387043,57.189999,-16.309999,22.68,1729475813019.0,0.0
-0.337388,1.744368,-10.566705,31.639999,-20.370001,26.110001,1729475813023.0,0.0
0.196211,0.301496,-10.722239,-38.849998,-20.719999,23.030001,1729475813038.0,0.0
-1.31366,-0.954736,-8.176274,-71.889999,-5.04,25.200001,1729475813060.0,0.0
-3.270989,-2.122434,-14.117653,-53.760002,10.5,29.469999,1729475813077.0,0.0
-2.342573,-2.103291,-13.186846,9.73,11.69,41.02,1729475813097.0,0.0
-1.954936,-2.778067,-8.286345,22.26,28.07,39.130001,1729475813116.0,0.0
-3.225525,-5.111069,-7.989635,-32.34,33.040001,20.58,1729475813138.0,0.0
-2.435893,-7.310073,-9.858429,-21.700001,5.32,-3.64,1729475813159.0,0.0
-1.691726,-6.30748,-9.387043,67.129997,3.22,-22.33,1729475813176.0,0.0
-3.050849,-2.672783,-8.446664,99.330002,25.41,-41.369999,1729475813198.0,0.0
-5.369494,-1.007378,-7.960921,36.259998,35.77,-51.66,1729475813218.0,0.0
-4.498507,-0.447458,-8.159525,-27.16,6.58,-52.290001,1729475813237.0,0.0
-1.473979,1.849652,-9.109475,-46.689999,-24.639999,-29.190001,1729475813257.0,0.0
-1.052842,1.78026,-9.075976,-9.1,-25.129999,0.35,1729475813277.0,0.0
-0.870987,1.069592,-9.729217,37.939999,-24.57,17.360001,1729475813299.0,0.0
-0.378066,1.06002,-9.413363,12.53,-29.960001,14.28,1729475813318.0,0.0
-0.035892,1.311267,-12.619746,-39.549999,-23.309999,12.11,1729475813338.0,0.0
-1.548156,-1.246661,-10.968699,-65.099998,-6.23,17.710001,1729475813357.0,0.0
-3.208775,-2.462214,-12.550355,-38.080002,9.66,23.940001,1729475813377.0,0.0
-2.371287,-1.849652,-12.55514,27.51,9.59,35.279999,1729475813397.0,0.0
-1.701297,-1.986043,-9.77468,38.990002,18.27,35.209999,1729475813418.0,0.0
-2.383251,-5.166104,-8.642875,-10.99,24.219999,16.030001,1729475813437.0,0.0
-1.801795,-6.903293,-9.702895,0.91,3.29,-7.07,1729475813457.0,0.0
-2.005185,-5.625526,-10.375278,80.360001,10.36,-27.440001,1729475813476.0,0.0
-4.37408,-1.969293,-9.205189,90.300003,42.349998,-46.27,1729475813500.0,0.0
-5.237889,-1.246661,-7.099504,23.17,33.880001,-55.580002,1729475813519.0,0.0
-3.335595,-0.267996,-8.01117,-33.599998,-8.82,-54.32,1729475813538.0,0.0
-1.605584,1.868794,-6.78126,-48.720001,-16.030001,-38.220001,1729475813559.0,0.0
-0.830309,1.655833,-9.133404,-24.43,-22.82,-13.72,1729475813577.0,0.0
-0.428315,1.469193,-8.79123,35.490002,-34.650002,21.49,1729475813600.0,0.0
-0.476172,1.052842,-11.660224,-14.14,-29.82,19.809999,1729475813618.0,0.0
-0.713061,0.351745,-12.751352,-43.75,-22.889999,19.040001,1729475813636.0,0.0
-2.364109,-1.021735,-10.554741,-15.05,-3.29,29.4,1729475813656.0,0.0
-3.751946,-1.294517,-11.600404,-3.99,14.35,34.369999,1729475813677.0,0.0
-2.531606,-1.751546,-13.119846,11.34,3.08,40.459999,1729475813699.0,0.0
-1.471586,-3.065206,-9.221939,7.07,12.39,39.549999,1729475813716.0,0.0
-2.139183,-5.615955,-7.91785,-26.389999,24.92,20.23,1729475813737.0,0.0
-1.883151,-7.628319,-10.231709,22.540001,5.04,-1.47,1729475813755.0,0.0
-2.639283,-4.086941,-10.578669,93.309998,23.450001,-23.940001,1729475813777.0,0.0
-4.003192,-1.146162,-7.073184,57.610001,36.959999,-41.790001,1729475813799.0,0.0
-4.051049,-2.165504,-7.317252,-13.3,12.18,-47.040001,1729475813817.0,0.0
-2.053042,-0.952343,-9.047262,-42.77,-11.34,-47.32,1729475813840.0,0.0
-0.921237,2.337788,-7.642675,-30.450001,-14.77,-26.950001,1729475813857.0,0.0
-1.351945,2.165504,-7.252645,-18.129999,-17.780001,-0.7,1729475813877.0,0.0
-1.411765,0.624527,-10.253245,7.0,-27.440001,25.27,1729475813900.0,0.0
-0.863809,0.325424,-11.842079,3.22,-34.790001,28.98,1729475813919.0,0.0
-1.301696,-0.088534,-11.909079,-43.75,-11.76,24.43,1729475813937.0,0.0
-3.452843,-1.588834,-11.23191,-39.900002,5.74,25.129999,1729475813958.0,0.0
-3.218346,-0.612563,-13.562519,-7.56,5.95,28.35,1729475813976.0,0.0
-1.438086,-1.505085,-11.650653,19.879999,9.8,37.869999,1729475813998.0,0.0
-1.677369,-4.304688,-8.274381,-17.15,26.18,27.51,1729475814018.0,0.0
-2.158326,-7.252645,-8.922836,-20.65,19.32,6.02,1729475814036.0,0.0
-1.825724,-6.001199,-10.614561,49.630001,7.7,-16.24,1729475814056.0,0.0
-3.168097,-2.974278,-10.140782,94.639999,22.26,-33.740002,1729475814077.0,0.0
-4.917251,-1.421337,-7.65464,27.58,40.459999,-50.259998,1729475814098.0,0.0
-4.441079,-2.443072,-7.740781,-26.67,5.04,-49.349998,1729475814117.0,0.0
-2.172683,-0.303888,-8.590233,-40.110001,-14.91,-47.599998,1729475814137.0,0.0
-1.567299,2.859423,-7.278966,-30.380001,-10.5,-23.799999,1729475814156.0,0.0
-1.445265,1.493121,-8.030313,5.53,-24.5,4.06,1729475814176.0,0.0
-0.662812,0.167498,-10.392029,29.4,-35.77,21.49,1729475814200.0,0.0
0.031107,0.993021,-9.77468,-2.31,-35.420002,17.15,1729475814217.0,0.0
-0.78006,0.208176,-10.001998,-51.310001,-19.25,16.799999,1729475814236.0,0.0
-3.189633,-1.701297,-13.091133,-52.849998,3.01,21.84,1729475814256.0,0.0
-2.237289,-0.581456,-12.514462,22.75,6.37,34.23,1729475814277.0,0.0
-1.768296,-1.727618,-10.459028,8.61,16.1,35.209999,1729475814298.0,0.0
-2.68714,-5.462814,-9.49472,-24.85,25.76,23.799999,1729475814317.0,0.0
-2.206182,-7.9346,-10.212566,14.56,13.02,4.06,1729475814337.0,0.0
-1.935793,-5.443672,-9.348758,90.790001,16.24,-21.629999,1729475814356.0,0.0
-3.921836,-2.495714,-9.700503,100.449997,34.509998,-39.970001,1729475814376.0,0.0
-5.223531,-1.052842,-7.068398,13.23,36.889999,-58.170002,1729475814397.0,0.0
-3.981657,-2.163112,-7.640282,-25.34,-3.78,-51.170002,1729475814416.0,0.0
-1.677369,0.232104,-8.99462,-43.259998,-15.89,-50.540001,1729475814436.0,0.0
-1.253839,1.775474,-7.700103,-34.93,-13.37,-26.74,1729475814456.0,0.0
-0.421137,1.562513,-9.71486,6.3,-27.790001,-7.14,1729475814476.0,0.0
0.217747,1.301696,-9.023334,41.23,-31.15,10.01,1729475814497.0,0.0
-0.440279,1.052842,-11.20798,4.06,-22.540001,11.69,1729475814516.0,0.0
-1.095913,-0.72024,-10.545169,-38.849998,-15.26,13.09,1729475814535.0,0.0
-1.768296,-0.981057,-10.255639,-30.870001,-5.04,22.469999,1729475814556.0,0.0
-3.292524,-1.287339,-12.911672,-20.440001,14.42,32.689999,1729475814576.0,0.0
-1.957329,-2.443072,-13.380664,-9.03,8.19,38.57,1729475814597.0,0.0
-1.545763,-5.008178,-9.028119,-6.37,22.960001,27.65,1729475814616.0,0.0
-2.428715,-6.652047,-8.195417,-14.21,33.950001,1.33,1729475814638.0,0.0
-2.177469,-6.472585,-9.004191,34.02,10.99,-25.83,1729475814657.0,0.0
-3.206382,-3.462414,-9.466006,74.760002,21.77,-41.23,1729475814678.0,0.0
-4.960321,-1.727618,-8.748159,12.67,36.889999,-55.02,1729475814697.0,0.0
-4.453043,-3.227918,-8.870193,-44.73,14.98,-57.889999,1729475814717.0,0.0
-1.591227,0.200997,-7.963314,-16.309999,-3.78,-47.110001,1729475814735.0,0.0
-0.547956,3.065206,-7.458428,14.77,-3.43,-20.02,1729475814757.0,0.0
-0.306281,1.895115,-9.243474,39.689999,-14.35,11.06,1729475814778.0,0.0
0.002393,0.519243,-8.803195,44.099998,-16.52,21.07,1729475814797.0,0.0
0.145962,1.134198,-10.274779,11.69,-20.719999,20.51,1729475814817.0,0.0
-0.27996,2.132005,-10.29153,-25.690001,-11.62,22.75,1729475814837.0,0.0
-2.847459,-0.339781,-11.332408,-56.700001,0.7,33.040001,1729475814857.0,0.0
-3.316452,-2.203789,-14.356936,-59.639999,0.07,38.150002,1729475814876.0,0.0
-1.962115,-2.510071,-13.019348,4.62,8.12,45.849998,1729475814896.0,0.0
-2.402394,-2.691926,-7.752745,21.07,29.33,40.32,1729475814921.0,0.0
-3.182454,-7.412964,-9.669396,-21.629999,8.54,7.35,1729475814936.0,0.0
-2.067399,-7.001399,-10.784451,44.380001,-3.36,-11.9,1729475814958.0,0.0
-3.079563,-4.412365,-8.130811,96.389999,21.42,-32.900002,1729475814976.0,0.0
-4.577469,-2.821138,-8.157133,61.18,25.620001,-45.849998,1729475814997.0,0.0
-3.644269,-2.325824,-7.195218,2.31,3.08,-56.0,1729475815017.0,0.0
-1.887937,-0.928415,-8.286345,-7.98,-25.969999,-47.529999,1729475815037.0,0.0
-1.48355,-0.256032,-9.049655,-3.85,-19.040001,-37.380001,1729475815058.0,0.0
-1.758725,-1.091127,-11.684153,10.22,-11.06,-21.84,1729475815076.0,0.0
-1.552942,-3.388237,-12.409179,46.549999,-3.29,-15.26,1729475815098.0,0.0
-1.464408,-5.362316,-13.921442,117.809998,12.67,-7.14,1729475815116.0,0.0
-1.275374,-5.005785,-13.887943,170.660004,30.1,-16.24,1729475815136.0,0.0
-1.588834,-8.513663,-13.74198,312.480011,38.5,0.14,1729475815155.0,0.0
0.143569,-9.489935,-14.074582,471.029999,50.75,-2.17,1729475815176.0,0.0
1.299303,-7.030113,-13.026526,604.869995,98.910004,0.21,1729475815196.0,0.0
0.818345,-5.029713,-11.23191,705.390015,131.809998,9.31,1729475815217.0,0.0
0.114855,-3.471986,-7.257431,735.0,150.080002,8.54,1729475815237.0,0.0
-0.849452,-1.737189,-2.261217,691.669983,173.460007,-0.7,1729475815255.0,0.0
-1.098306,-2.581856,2.529213,608.859985,166.180008,-7.7,1729475815276.0,0.0
-0.921237,-4.393222,5.379066,459.690002,149.520004,-36.049999,1729475815298.0,0.0
-0.736989,-6.786045,5.000999,304.5,110.739998,-37.52,1729475815316.0,0.0
0.830309,-7.250252,5.008178,213.990005,87.43,-36.540001,1729475815335.0,0.0
-1.026521,-3.809374,13.385449,106.75,90.090004,-17.290001,1729475815355.0,0.0
-1.631905,-3.148954,9.123833,1.12,19.950001,5.46,1729475815376.0,0.0
-1.138984,-8.386844,5.615955,27.440001,-29.469999,42.279999,1729475815398.0,0.0
-0.579063,-8.38445,3.488736,84.209999,-41.439999,50.75,1729475815417.0,0.0
-3.139383,-7.018148,5.340781,143.430008,-20.65,73.5,1729475815436.0,0.0
-7.049256,-12.045469,9.870394,63.07,-30.17,42.139999,1729475815455.0,0.0
-3.608376,-14.230117,1.749153,-112.699997,-61.25,-13.58,1729475815478.0,0.0
-0.768096,-13.55534,0.648455,-21.07,-4.34,-10.99,1729475815496.0,0.0
-1.765903,-9.320045,3.5007,79.169998,30.24,-54.25,1729475815516.0,0.0
-2.301895,-6.238089,5.448457,79.169998,53.34,-55.299999,1729475815535.0,0.0
-1.531406,-3.663411,6.072984,-37.240002,60.619999,-61.529999,1729475815556.0,0.0
0.4666,-6.735795,5.4676,-167.789993,44.099998,-69.790001,1729475815576.0,0.0
2.012364,-8.327023,7.271788,-232.470001,34.02,-63.07,1729475815599.0,0.0
2.538785,-5.335995,7.606783,-21.280001,33.599998,-17.780001,1729475815615.0,0.0
1.048056,0.428315,7.709675,122.150002,30.799999,4.27,1729475815635.0,0.0
-0.696311,1.931008,7.168896,79.519997,12.18,38.639999,1729475815656.0,0.0
-0.354138,-2.672783,4.795217,-61.459999,-25.620001,73.919998,1729475815678.0,0.0
-1.440479,-9.903893,4.436293,-122.080002,-50.959999,89.529999,1729475815698.0,0.0
-6.45105,-18.637695,6.508478,-38.920002,-47.599998,76.019997,1729475815717.0,0.0
-6.407979,-19.920248,5.936593,-17.639999,-49.07,20.23,1729475815736.0,0.0
-3.919443,-15.316458,3.414558,49.490002,-26.32,12.6,1729475815754.0,0.0
-3.957729,-8.740981,2.957529,123.340004,2.66,-22.82,1729475815776.0,0.0
-4.027121,-6.719046,5.962914,95.900002,16.379999,-45.57,1729475815799.0,0.0
-2.828316,-7.63789,5.094319,7.63,25.34,-54.25,1729475815815.0,0.0
-0.445065,-5.812167,4.292724,-86.379997,41.509998,-54.529999,1729475815836.0,0.0
1.241875,-6.553941,4.259224,-165.130005,46.130001,-47.18,1729475815854.0,0.0
2.151148,-8.475377,4.027121,-218.680008,33.110001,-45.009998,1729475815876.0,0.0
2.584249,-10.377672,4.632504,-121.169998,26.040001,-28.77,1729475815896.0,0.0
2.201397,-6.376873,6.312266,35.84,34.439999,-31.15,1729475815918.0,0.0
0.562313,-0.579063,7.369894,108.57,19.950001,0.07,1729475815935.0,0.0
0.11007,-1.552942,7.666604,14.98,-5.04,30.1,1729475815956.0,0.0
-0.346959,-5.422136,5.553742,-104.160004,-55.790001,55.580002,1729475815975.0,0.0
-3.038885,-11.34198,4.089334,-83.440002,-69.440002,73.010002,1729475815996.0,0.0
-6.211767,-15.917056,5.828916,5.6,-71.400002,59.360001,1729475816016.0,0.0
-6.403193,-15.457633,3.718446,9.52,-70.349998,35.77,1729475816036.0,0.0
-4.759324,-14.572289,2.115255,8.61,-52.57,11.48,1729475816055.0,0.0
-4.582255,-11.590833,1.529014,47.25,-29.960001,-14.42,1729475816079.0,0.0
-4.558327,-7.070791,1.684547,77.139999,13.3,-28.49,1729475816096.0,0.0
-2.940779,-7.264609,3.814159,27.51,32.130001,-38.709999,1729475816115.0,0.0
-0.428315,-9.001799,3.091527,-81.690002,44.029999,-36.400002,1729475816138.0,0.0
1.174876,-8.487342,2.07697,-146.649994,47.810001,-37.66,1729475816155.0,0.0
2.122434,-10.018748,3.323631,-129.289993,41.439999,-35.349998,1729475816177.0,0.0
2.909672,-8.88455,4.448257,-31.710001,41.790001,-34.09,1729475816196.0,0.0
2.603391,-4.962714,5.79781,49.139999,41.790001,-31.639999,1729475816215.0,0.0
2.103291,-2.029114,6.659225,50.049999,20.790001,-17.99,1729475816235.0,0.0
0.574277,-3.565305,5.948557,47.459999,2.45,19.67,1729475816257.0,0.0
-0.39003,-5.802595,6.283553,8.4,-25.41,49.700001,1729475816275.0,0.0
-2.624927,-8.374879,5.233103,2.94,-39.900002,67.900002,1729475816295.0,0.0
-6.472585,-12.990634,6.709475,22.049999,-57.260002,75.040001,1729475816317.0,0.0
-6.958328,-15.57249,3.95055,-6.09,-70.349998,53.060001,1729475816335.0,0.0
-5.381458,-15.225531,2.773281,19.040001,-56.139999,30.59,1729475816355.0,0.0
-4.752146,-10.437491,1.012164,84.980003,-31.219999,8.47,1729475816377.0,0.0
-3.98405,-8.549555,4.438686,77.629997,7.35,-6.37,1729475816396.0,0.0
-2.086541,-11.021341,2.232504,-72.449997,21.559999,-37.869999,1729475816417.0,0.0
-1.265803,-7.975278,2.038685,-143.220001,39.619999,-31.57,1729475816437.0,0.0
1.134198,-10.080962,1.988436,-137.059998,39.830002,-32.689999,1729475816456.0,0.0
2.938386,-9.288938,-1.454836,-189.979996,38.220001,-42.209999,1729475816476.0,0.0
3.019742,-10.942378,2.139183,-114.099998,32.34,-18.34,1729475816496.0,0.0
2.242075,-8.403593,4.455436,55.02,44.029999,-29.82,1729475816515.0,0.0
1.708475,-3.409772,6.690332,122.150002,34.09,-30.73,1729475816534.0,0.0
1.045663,-1.696511,7.67139,101.220001,4.97,1.05,1729475816555.0,0.0
-0.239282,-3.65384,7.458428,44.73,-23.66,31.5,1729475816575.0,0.0
-3.330809,-8.329416,4.642076,-24.710001,-56.0,52.709999,1729475816596.0,0.0
-6.73101,-14.11526,4.835894,-5.67,-71.050003,62.510002,1729475816617.0,0.0
-7.702496,-17.412571,3.249453,-0.56,-71.889999,43.119999,1729475816635.0,0.0
-5.484349,-14.364115,2.074577,46.549999,-33.110001,12.67,1729475816655.0,0.0
-5.182854,-12.289536,3.361916,44.66,-3.43,-20.790001,1729475816676.0,0.0
-3.273381,-10.942378,2.136791,19.74,22.610001,-43.189999,1729475816696.0,0.0
-1.785046,-8.355737,4.448257,6.02,41.650002,-48.16,1729475816716.0,0.0
-0.708275,-7.097112,1.385444,-92.260002,57.889999,-60.27,1729475816736.0,0.0
0.42353,-6.52762,-2.581856,-189.699997,54.599998,-52.5,1729475816754.0,0.0
2.56032,-10.078569,0.397209,-173.949997,40.810001,-30.940001,1729475816775.0,0.0
4.587041,-12.179466,2.928815,-5.74,51.029999,-10.29,1729475816796.0,0.0
3.314059,-6.89133,6.458229,153.300003,54.32,-23.309999,1729475816816.0,0.0
0.674776,-1.981257,7.32443,154.0,39.34,-24.92,1729475816835.0,0.0
-0.193819,-0.681954,7.281359,69.090004,3.01,-0.14,1729475816855.0,0.0
0.356531,-3.608376,4.589434,-37.450001,-44.869999,38.150002,1729475816875.0,0.0
-0.600598,-8.114061,3.165704,-58.66,-60.48,63.420002,1729475816896.0,0.0
-4.029513,-11.279767,4.457829,17.5,-45.779999,76.720001,1729475816919.0,0.0
-8.396415,-16.398014,4.541577,33.810001,-62.16,39.970001,1729475816935.0,0.0
-5.369494,-16.065411,1.825724,-15.89,-41.16,21.98,1729475816955.0,0.0
-4.735396,-13.490734,1.342373,23.030001,-17.219999,-14.07,1729475816975.0,0.0
-4.462614,-11.55494,2.041078,77.349998,7.49,-36.610001,1729475816996.0,0.0
-3.864408,-6.757331,1.825724,93.590004,37.939999,-40.740002,1729475817016.0,0.0
-1.737189,-5.85763,4.237689,49.91,45.849998,-36.82,1729475817034.0,0.0
0.387637,-5.534599,4.704289,-91.559998,54.25,-33.670002,1729475817054.0,0.0
2.821138,-5.821737,2.285146,-205.869995,27.93,-17.290001,1729475817076.0,0.0
3.48395,-9.643075,1.875973,-210.630005,12.81,-8.33,1729475817098.0,0.0
2.737389,-12.071791,2.995814,-108.080002,11.41,-9.94,1729475817115.0,0.0
0.698704,-9.576077,4.529613,44.380001,13.65,-13.02,1729475817135.0,0.0
0.849452,-4.819145,4.867002,84.279999,11.83,-20.299999,1729475817155.0,0.0
2.06022,-6.312266,4.965107,-10.99,-18.76,-7.14,1729475817174.0,0.0
0.868595,-10.829915,2.313859,-111.230003,-53.060001,5.39,1729475817195.0,0.0
-1.349552,-10.336994,1.976472,2.8,-39.549999,14.07,1729475817275.0,0.0
-2.321038,-6.197411,4.532006,147.699997,-19.040001,36.470001,1729475817280.0,0.0
-5.393422,-5.194818,4.465007,117.18,-27.719999,53.48,1729475817282.0,0.0
-6.618547,-13.129417,3.893122,-13.440001,-38.220001,49.0,1729475817284.0,0.0
-5.680561,-17.381464,1.311267,-11.13,-29.26,34.650002,1729475817296.0,0.0
-3.651447,-13.78266,3.098706,59.220001,1.54,-1.54,1729475817315.0,0.0
-3.337988,-9.21476,2.007578,38.290001,27.790001,-23.66,1729475817341.0,0.0
-1.624727,-8.611769,3.218346,-12.32,36.330002,-31.85,1729475817357.0,0.0
-0.471386,-8.276773,0.935594,-143.919998,39.130001,-43.470001,1729475817375.0,0.0
1.081556,-8.745767,-1.971686,-247.169998,32.970001,-41.580002,1729475817396.0,0.0
3.09392,-14.344972,-1.232304,-184.800003,26.67,-28.49,1729475817415.0,0.0
2.914458,-11.9689,2.124826,48.439999,60.619999,-25.200001,1729475817435.0,0.0
1.70369,-4.321437,5.532206,185.430008,61.670002,-42.560001,1729475817455.0,0.0
0.430708,0.464208,7.389036,171.149994,40.950001,-16.940001,1729475817479.0,0.0
-1.378266,-0.61017,7.412964,99.330002,3.57,26.25,1729475817496.0,0.0
-2.62732,-3.584448,5.347959,-23.24,-44.240002,51.450001,1729475817516.0,0.0
-3.270989,-7.800602,3.031706,-45.57,-60.970001,79.309998,1729475817535.0,0.0
-7.281359,-17.50589,2.895315,-16.24,-65.449997,79.870003,1729475817555.0,0.0
-5.82413,-18.723837,0.248854,-23.1,-46.689999,33.110001,1729475817576.0,0.0
-3.835695,-14.481362,0.531207,27.09,-0.7,1.89,1729475817597.0,0.0
-3.199204,-11.85165,2.632105,7.91,23.379999,-36.540001,1729475817616.0,0.0
-1.744368,-13.220345,3.06042,-7.21,33.950001,-51.869999,1729475817635.0,0.0
0.421137,-9.200402,0.557528,-81.690002,44.380001,-71.68,1729475817655.0,0.0
0.964308,-6.388836,-1.564906,-177.660004,51.939999,-71.68,1729475817676.0,0.0
2.167897,-10.674382,-0.0335,-144.830002,45.360001,-54.040001,1729475817698.0,0.0
1.591227,-8.410772,4.290331,99.889999,62.860001,-32.689999,1729475817716.0,0.0
1.050449,0.009571,6.151947,244.160004,60.060001,-32.900002,1729475817735.0,0.0
-0.51685,3.050849,7.657032,222.600006,44.450001,8.47,1729475817758.0,0.0
-2.54357,0.100499,7.013363,45.43,-11.69,50.540001,1729475817777.0,0.0
-2.931208,-5.883951,3.235096,-126.840004,-70.209999,75.040001,1729475817798.0,0.0
-5.680561,-17.113466,2.768496,-81.059998,-77.419998,98.559998,1729475817818.0,0.0
-6.9009,-21.346373,2.182254,-8.33,-70.349998,45.709999,1729475817838.0,0.0
-3.617948,-13.89512,1.342373,83.650002,-44.799999,7.77,1729475817858.0,0.0
-3.302095,-10.222138,2.39043,62.23,0.98,-27.16,1729475817877.0,0.0
-2.952743,-11.437693,3.639483,29.4,16.17,-39.549999,1729475817899.0,0.0
-1.562513,-8.346166,2.24686,-21.91,30.24,-52.5,1729475817920.0,0.0
-0.399601,-5.99402,2.68714,-88.059998,41.439999,-49.91,1729475817937.0,0.0
1.292124,-5.331209,-1.31366,-202.369995,34.860001,-54.599998,1729475817957.0,0.0
3.337988,-10.822738,-1.071985,-197.050003,14.49,-36.610001,1729475817977.0,0.0
3.041277,-12.028719,2.828316,4.41,45.639999,-15.05,1729475818000.0,0.0
2.012364,-4.661219,5.955735,169.190002,48.93,-30.59,1729475818018.0,0.0
0.531207,-0.167498,7.360322,148.190002,29.889999,-6.3,1729475818037.0,0.0
-0.133998,-1.349552,6.982256,65.309998,-8.12,30.66,1729475818062.0,0.0
-0.98345,-5.015356,4.941179,-46.759998,-51.310001,57.68,1729475818077.0,0.0
-3.45045,-10.102496,3.661019,-40.740002,-57.68,79.660004,1729475818097.0,0.0
-7.910671,-16.043877,3.960121,-6.09,-67.900002,70.139999,1729475818118.0,0.0
-8.183454,-18.046667,1.892723,-5.04,-62.299999,39.27,1729475818137.0,0.0
-5.501099,-16.46262,0.595813,21.84,-24.710001,11.69,1729475818156.0,0.0
-3.402594,-11.976077,1.785046,22.190001,3.71,-28.84,1729475818177.0,0.0
-1.830509,-10.188639,2.617748,3.71,37.66,-56.560001,1729475818200.0,0.0
-1.012164,-8.439486,0.449851,-88.410004,50.959999,-74.900002,1729475818217.0,0.0
0.055035,-5.410172,-2.232504,-190.680008,57.189999,-68.809998,1729475818238.0,0.0
2.59382,-9.480364,0.272782,-160.020004,43.610001,-46.060001,1729475818256.0,0.0
3.165704,-9.853643,3.943372,61.880001,65.099998,-9.31,1729475818277.0,0.0
2.043471,-2.89053,7.226324,215.389999,61.459999,-22.82,1729475818299.0,0.0
-0.035892,1.155733,8.116454,173.669998,44.799999,-0.49,1729475818317.0,0.0
-0.916451,-0.043071,7.109076,33.529999,-7.21,36.049999,1729475818337.0,0.0
-0.425922,-4.668397,3.371487,-107.870003,-69.090004,70.629997,1729475818356.0,0.0
-2.165504,-11.921042,3.235096,-66.779999,-82.32,103.949997,1729475818377.0,0.0
-8.087741,-18.496519,4.65404,19.389999,-81.970001,80.639999,1729475818398.0,0.0
-7.762317,-17.73321,0.083749,18.549999,-80.220001,34.02,1729475818418.0,0.0
-4.639683,-14.325829,0.815953,42.77,-30.450001,27.09,1729475818438.0,0.0
-2.845066,-12.763316,0.428315,-18.48,13.79,-27.860001,1729475818456.0,0.0
-2.062613,-13.964513,2.651247,-20.65,22.190001,-31.710001,1729475818478.0,0.0
-1.004985,-9.279366,2.502892,-1.61,42.349998,-50.049999,1729475818497.0,0.0
-0.643669,-6.702296,1.088734,-51.66,45.5,-56.139999,1729475818518.0,0.0
1.174876,-6.805188,-3.062813,-203.490005,32.27,-66.43,1729475818536.0,0.0
3.041277,-12.799208,0.222532,-118.790001,26.32,-32.130001,1729475818556.0,0.0
2.861816,-8.707481,4.35733,117.25,54.18,-24.85,1729475818578.0,0.0
1.375873,-1.160519,6.211767,218.75,45.150002,-27.65,1729475818598.0,0.0
-0.89013,0.476172,8.84148,171.360001,18.200001,11.06,1729475818618.0,0.0
-2.433501,-2.289931,6.472585,9.59,-45.779999,43.959999,1729475818636.0,0.0
-2.706282,-8.106883,2.37368,-93.029999,-84.699997,66.43,1729475818658.0,0.0
-5.422136,-17.19243,2.323431,-52.009998,-81.269997,68.879997,1729475818677.0,0.0
-6.273981,-19.030117,1.182054,3.01,-64.260002,26.18,1729475818699.0,0.0
-3.711268,-14.163116,0.909273,64.610001,-30.73,7.91,1729475818717.0,0.0
-2.849852,-11.112268,1.70369,66.43,0.07,-16.1,1729475818736.0,0.0
-2.849852,-11.315658,2.790031,35.700001,15.05,-32.549999,1729475818757.0,0.0
-1.883151,-8.965906,3.438486,7.63,29.190001,-42.420002,1729475818778.0,0.0
-1.335195,-5.60399,2.634498,-72.519997,42.98,-48.23,1729475818800.0,0.0
-0.174676,-5.426922,-0.79681,-181.860001,36.119999,-51.869999,1729475818817.0,0.0
2.165504,-11.255837,-1.916651,-187.809998,6.16,-35.490002,1729475818836.0,0.0
2.553142,-9.554541,3.09392,-6.79,37.73,-13.09,1729475818856.0,0.0
0.789631,-2.971886,5.659025,191.869995,44.799999,-23.030001,1729475818877.0,0.0
-0.591027,-0.66999,7.008578,156.729996,25.76,5.53,1729475818897.0,0.0
-1.249053,-2.172683,5.974878,39.970001,-8.61,36.82,1729475818919.0,0.0
-1.229911,-6.195018,2.617748,-71.470001,-48.23,58.66,1729475818938.0,0.0
-1.713261,-10.4016,1.548156,-36.82,-44.380001,81.269997,1729475818957.0,0.0
-4.680361,-12.751352,4.228118,70.559998,-27.719999,87.5,1729475818977.0,0.0
-6.592227,-15.816557,5.769095,72.309998,-31.639999,59.080002,1729475818999.0,0.0
-4.132405,-16.177874,2.486143,28.139999,-31.99,34.299999,1729475819017.0,0.0
-2.864209,-11.38505,3.627519,58.939999,-6.3,12.95,1729475819037.0,0.0
-3.184847,-7.853244,4.082155,35.490002,11.48,-11.69,1729475819058.0,0.0
-2.541178,-8.322237,2.935993,-33.810001,13.58,-23.030001,1729475819078.0,0.0
-1.548156,-7.69771,2.115255,-58.52,8.47,-15.82,1729475819107.0,0.0
-0.849452,-7.951349,3.546163,-25.620001,7.35,-6.44,1729475819117.0,0.0
-0.37328,-7.156933,3.06042,-9.94,-4.06,-3.99,1729475819136.0,0.0
-0.021535,-7.623533,3.570091,12.11,-17.710001,12.88,1729475819156.0,0.0
-0.287139,-6.778866,3.326023,6.72,-28.42,23.309999,1729475819177.0,0.0
-1.502693,-8.305488,2.333002,-41.439999,-35.91,29.049999,1729475819198.0,0.0
-1.940579,-11.617154,2.402394,-50.68,-45.43,23.940001,1729475819216.0,0.0
-1.445265,-11.866007,2.328217,-9.73,-35.84,19.950001,1729475819237.0,0.0
-1.538585,-10.336994,3.050849,32.34,-15.26,16.59,1729475819258.0,0.0
-1.852045,-9.221939,3.572484,11.13,-4.9,11.13,1729475819277.0,0.0
-1.718047,-8.599805,3.644269,-47.110001,-0.77,3.64,1729475819299.0,0.0
-1.694118,-8.82473,3.716053,-96.669998,-0.07,-0.07,1729475819316.0,0.0
-1.782653,-8.956335,2.87378,-100.449997,-0.84,1.4,1729475819337.0,0.0
-2.155933,-8.944371,2.550749,-53.900002,-1.54,6.16,1729475819357.0,0.0
-2.330609,-9.001799,2.809174,-1.4,-2.45,9.03,1729475819386.0,0.0
-2.569891,-9.576077,2.536392,16.799999,-0.77,9.87,1729475819398.0,0.0
-2.56032,-10.741381,2.072184,24.780001,-2.03,8.26,1729475819417.0,0.0
-2.337788,-11.696117,2.194218,64.050003,3.64,12.39,1729475819438.0,0.0
-1.306481,-10.69831,2.694318,134.960007,18.41,12.53,1729475819455.0,0.0
-0.753739,-8.671589,3.404987,174.229996,36.119999,11.9,1729475819476.0,0.0
-0.803988,-8.161918,4.335794,164.5,46.48,6.16,1729475819499.0,0.0
-0.844666,-9.410972,4.15394,122.220001,52.080002,-7.21,1729475819519.0,0.0
-1.129412,-8.772088,4.871787,130.270004,58.799999,-15.68,1729475819537.0,0.0
-1.548156,-5.65424,5.496314,149.520004,68.389999,-16.73,1729475819559.0,0.0
-2.242075,-4.232903,6.422336,133.699997,67.830002,-14.0,1729475819577.0,0.0
-3.479164,-5.831308,8.078169,72.379997,51.59,-2.31,1729475819597.0,0.0
-4.273581,-8.910872,8.683553,8.54,22.610001,-2.66,1729475819618.0,0.0
-4.63729,-8.839087,8.035098,-5.88,3.43,-8.47,1729475819636.0,0.0
-4.12044,-8.322237,6.836295,-10.22,-12.74,-8.68,1729475819656.0,0.0
-3.180061,-7.477571,2.904887,-22.68,-20.51,-12.11,1729475819679.0,0.0
-4.012764,-7.546963,4.235296,14.07,-14.35,9.38,1729475819700.0,0.0
-3.395415,-6.4678,5.115855,38.360001,5.6,-20.51,1729475819717.0,0.0
-2.902494,-5.788238,6.003592,12.6,12.67,-15.47,1729475819738.0,0.0
-1.598405,-5.326423,6.269196,-27.370001,11.27,-9.66,1729475819756.0,0.0
-1.739582,-5.76431,5.931807,-34.23,1.26,2.45,1729475819778.0,0.0
-4.548756,-7.063612,5.788238,-3.15,-15.47,10.99,1729475819799.0,0.0
-2.9671,-4.110869,7.489535,49.0,-13.02,27.23,1729475819817.0,0.0
-4.168297,-2.892922,7.310073,56.560001,-17.08,46.900002,1729475819839.0,0.0
-6.084948,-8.075776,4.898108,-36.75,-29.26,37.450001,1729475819857.0,0.0
-3.785445,-12.701102,3.754339,-109.900002,-32.830002,29.610001,1729475819877.0,0.0
-2.232504,-11.753544,3.632305,-37.310001,-9.87,2.52,1729475819901.0,0.0
-4.211368,-10.801201,4.208975,32.830002,6.23,-7.84,1729475819922.0,0.0
-2.287539,-8.324631,5.572884,19.460001,18.34,-34.16,1729475819938.0,0.0
-2.136791,-7.350751,6.178268,3.85,26.6,-30.1,1729475819958.0,0.0
-2.837888,-7.858029,5.833702,-43.119999,14.91,-38.920002,1729475819981.0,0.0
-1.847259,-8.956335,7.216753,-27.02,9.24,-35.07,1729475820000.0,0.0
-1.048056,-5.431707,6.644868,16.379999,16.1,-29.469999,1729475820019.0,0.0
0.447458,-1.67019,6.589834,7.42,6.44,-10.22,1729475820038.0,0.0
-3.76391,-2.392823,6.013163,7.42,-0.49,18.76,1729475820058.0,0.0
-8.149954,-8.238488,6.987042,-56.279999,-49.91,18.129999,1729475820079.0,0.0
-2.785245,-7.611568,7.255038,-3.36,-28.139999,39.200001,1729475820103.0,0.0
-3.122634,-3.211168,6.135197,45.709999,-28.559999,27.440001,1729475820118.0,0.0
-3.129812,-8.441878,4.859823,-9.94,-10.71,50.330002,1729475820138.0,0.0
-4.668397,-12.452249,3.680161,-92.82,-22.960001,9.24,1729475820160.0,0.0
-3.194418,-13.024135,4.388437,-24.08,3.36,-2.38,1729475820180.0,0.0
-2.962314,-11.035697,4.862216,40.25,15.26,-26.040001,1729475820200.0,0.0
-0.9667,-7.568498,5.024928,34.93,21.139999,-37.099998,1729475820219.0,0.0
-2.108077,-7.79103,4.795217,12.53,21.49,-34.02,1729475820238.0,0.0
-3.046063,-10.286745,4.996214,-20.58,14.91,-41.16,1729475820260.0,0.0
-0.732204,-6.896115,5.125426,4.13,26.880001,-50.119999,1729475820279.0,0.0
-0.440279,-2.488536,6.029913,18.34,23.52,-35.560001,1729475820298.0,0.0
-0.457029,2.160719,3.866802,20.51,32.41,12.53,1729475820318.0,0.0
-8.245667,-5.919843,7.592427,-9.24,-10.08,26.74,1729475820338.0,0.0
-4.778467,-7.625926,9.202796,-38.990002,-24.85,44.170002,1729475820360.0,0.0
-2.201397,-5.903094,8.037491,37.099998,-16.309999,49.77,1729475820378.0,0.0
-3.287738,-3.067599,5.883951,-4.55,-25.9,42.700001,1729475820401.0,0.0
-4.811966,-10.79163,4.811966,-45.849998,-11.55,53.27,1729475820418.0,0.0
-4.027121,-12.535997,5.802595,-65.029999,-14.0,22.960001,1729475820439.0,0.0
-3.4672,-9.466006,4.938786,37.939999,15.54,-11.83,1729475820457.0,0.0
-2.840281,-9.726824,4.551149,-3.22,11.06,-27.790001,1729475820479.0,0.0
-1.543371,-9.633504,4.237689,-15.89,17.780001,-27.02,1729475820499.0,0.0
-2.859423,-11.030912,4.204189,-10.08,14.0,-42.91,1729475820519.0,0.0
-2.165504,-11.41137,5.350351,13.16,18.200001,-52.360001,1729475820539.0,0.0
-0.344566,-6.046663,5.178068,35.700001,25.48,-63.98,1729475820558.0,0.0
-0.059821,-0.189033,4.790431,17.780001,22.540001,-42.420002,1729475820579.0,0.0
-2.189433,2.615355,4.63729,23.309999,21.139999,7.7,1729475820599.0,0.0
-8.090133,-3.924229,7.458428,-21.280001,-17.710001,20.860001,1729475820619.0,0.0
-5.194818,-7.276574,8.889337,-67.199997,-35.560001,42.279999,1729475820638.0,0.0
-2.57707,-8.226524,7.389036,-11.27,-30.870001,49.84,1729475820659.0,0.0
-2.715853,-4.778467,5.611169,-6.51,-27.23,45.290001,1729475820680.0,0.0
-3.443272,-9.552148,4.299902,-9.31,-6.44,63.07,1729475820699.0,0.0
-5.508278,-12.330215,4.572684,-74.340004,-16.24,23.799999,1729475820718.0,0.0
-4.206582,-13.404593,4.979464,-26.880001,3.85,10.29,1729475820738.0,0.0
-3.979264,-12.736995,4.268795,9.24,11.83,-21.35,1729475820758.0,0.0
-1.253839,-10.147961,4.338188,8.05,18.549999,-38.779999,1729475820778.0,0.0
-2.268396,-10.537991,4.122833,6.09,19.74,-57.959999,1729475820798.0,0.0
-0.524028,-8.38445,6.850651,17.57,20.299999,-64.540001,1729475820820.0,0.0
-0.68674,-3.716053,7.82453,49.84,31.290001,-49.139999,1729475820839.0,0.0
0.909273,5.778666,3.565305,17.360001,20.440001,-23.030001,1729475820857.0,0.0
-5.333601,-0.799203,6.273981,39.48,13.3,41.439999,1729475820878.0,0.0
-8.38445,-6.171089,6.63769,-81.970001,-42.139999,30.450001,1729475820900.0,0.0
-2.648855,-7.862815,7.831708,-58.240002,-12.67,66.290001,1729475820921.0,0.0
-2.584249,-7.999206,5.816952,13.86,-14.28,55.02,1729475820939.0,0.0
-2.842674,-6.333801,3.713661,9.59,-7.98,76.580002,1729475820959.0,0.0
-6.003592,-10.8682,5.228317,-31.57,-4.55,24.43,1729475820977.0,0.0
-6.228518,-14.921642,5.309673,-43.189999,-0.07,33.040001,1729475820999.0,0.0
-4.498507,-13.41895,3.754339,2.1,7.7,-27.370001,1729475821018.0,0.0
-1.85683,-10.681561,4.256832,26.32,12.6,-41.369999,1729475821038.0,0.0
-0.954736,-9.530612,5.355137,47.599998,20.370001,-36.959999,1729475821058.0,0.0
-1.861616,-9.140583,5.213961,15.4,6.93,-58.240002,1729475821078.0,0.0
-0.918844,-6.800402,6.360123,12.04,4.83,-57.189999,1729475821100.0,0.0
0.366102,1.978864,2.526821,-10.85,7.98,-44.099998,1729475821119.0,0.0
-4.108476,-0.205783,3.63709,20.93,13.72,18.200001,1729475821137.0,0.0
-8.343772,-5.649454,6.551548,-50.75,-28.559999,8.89,1729475821158.0,0.0
-3.952943,-7.657032,9.023334,-30.940001,-19.6,47.810001,1729475821179.0,0.0
-3.022135,-6.058627,6.80758,38.220001,-22.469999,42.560001,1729475821200.0,0.0
-1.801795,-4.012764,4.735396,12.67,-16.24,60.130001,1729475821220.0,0.0
-4.733003,-8.714661,4.931608,-68.529999,-13.72,34.439999,1729475821238.0,0.0
-5.682954,-14.993427,4.074977,-91.769997,-16.030001,39.48,1729475821257.0,0.0
-4.005585,-13.854443,2.976671,-16.799999,9.59,-5.67,1729475821278.0,0.0
-4.003192,-12.256038,3.388237,49.349998,21.35,-30.450001,1729475821301.0,0.0
-1.56012,-7.556533,4.723432,64.68,30.24,-34.580002,1729475821319.0,0.0
-2.845066,-8.556733,6.403193,44.240002,23.66,-34.650002,1729475821338.0,0.0
-2.65364,-10.432706,5.201996,-27.23,0.7,-56.560001,1729475821358.0,0.0
-1.213161,-8.573483,5.008178,7.98,4.27,-46.759998,1729475821380.0,0.0
-2.072184,-3.261417,4.510471,18.27,13.65,-48.790001,1729475821400.0,0.0
-2.758924,-3.395415,3.773481,-35.560001,-14.42,-32.759998,1729475821424.0,0.0
-1.617548,-1.476372,5.460421,-14.56,-0.91,6.02,1729475821437.0,0.0
-6.623333,-5.680561,7.810174,-3.71,-21.49,8.54,1729475821458.0,0.0
-2.845066,-6.202196,8.628519,9.8,-10.15,43.610001,1729475821479.0,0.0
-2.567499,-2.979064,4.788038,-8.82,-19.67,27.790001,1729475821500.0,0.0
-2.189433,-8.549555,4.639683,-17.85,-16.940001,57.540001,1729475821520.0,0.0
-4.168297,-12.837494,5.431707,-7.21,-1.4,34.790001,1729475821539.0,0.0
-6.106483,-13.445271,4.582255,2.1,-4.27,18.549999,1729475821559.0,0.0
-3.682554,-12.725031,3.771089,24.219999,11.34,-25.620001,1729475821579.0,0.0
-1.536192,-10.916058,3.68734,42.209999,19.25,-31.639999,1729475821601.0,0.0
-1.45005,-8.891729,4.445865,62.02,25.059999,-43.889999,1729475821619.0,0.0
-2.9336,-7.982457,5.048856,42.490002,23.940001,-48.509998,1729475821638.0,0.0
-1.607977,-6.271588,5.491528,7.42,26.6,-52.779999,1729475821659.0,0.0
-1.581656,-2.615355,5.249853,-8.4,21.35,-41.860001,1729475821679.0,0.0
-2.234896,0.239282,4.249653,-2.52,19.389999,-8.12,1729475821701.0,0.0
-6.939186,-6.331409,6.853044,-12.74,-2.8,17.15,1729475821720.0,0.0
-3.78066,-6.912865,8.793623,-2.87,-21.42,44.029999,1729475821738.0,0.0
-1.957329,-6.013163,8.288737,54.25,-16.940001,48.509998,1729475821758.0,0.0
-4.290331,-3.893122,5.644669,-15.190001,-20.790001,33.32,1729475821779.0,0.0
-3.78066,-10.660025,4.876573,-35.420002,-7.35,71.190002,1729475821799.0,0.0
-5.532206,-13.832907,4.232903,-79.590004,-18.27,14.35,1729475821820.0,0.0
-4.285545,-14.72543,4.603791,-18.48,1.19,-3.85,1729475821840.0,0.0
-2.787638,-11.502297,4.986642,43.610001,17.710001,-30.24,1729475821860.0,0.0
-0.902094,-7.776673,4.974678,40.110001,24.710001,-38.5,1729475821880.0,0.0
-2.806781,-9.293723,3.945765,-6.37,10.15,-50.400002,1729475821902.0,0.0
-2.182254,-11.16491,4.759324,-8.4,4.76,-58.52,1729475821924.0,0.0
-0.504886,-6.740582,6.233303,51.73,23.799999,-56.91,1729475821941.0,0.0
-1.117448,1.899901,4.350152,40.529999,21.84,-44.52,1729475821960.0,0.0
-2.254039,2.864209,3.826123,20.51,12.39,-2.31,1729475821981.0,0.0
-7.188039,-5.525027,7.121039,-43.119999,-17.780001,25.76,1729475822005.0,0.0
-2.837888,-7.57089,8.650054,-31.290001,-25.129999,61.110001,1729475822022.0,0.0
-1.847259,-5.76431,6.661618,35.139999,-23.66,51.240002,1729475822040.0,0.0
-3.661019,-4.766503,3.651447,-12.32,-24.57,56.98,1729475822060.0,0.0
-6.175875,-11.763116,5.520242,-60.760002,-14.91,34.16,1729475822085.0,0.0
-5.733203,-17.754744,4.9675,-60.689999,-8.19,19.74,1729475822104.0,0.0
-3.053242,-14.155938,3.381058,5.74,11.55,-34.439999,1729475822124.0,0.0
-0.756132,-9.286544,4.259224,65.099998,26.950001,-42.560001,1729475822147.0,0.0
-0.772882,-8.224132,4.587041,58.240002,29.049999,-43.189999,1729475822166.0,0.0
-1.124627,-7.992027,5.525027,0.77,17.639999,-71.260002,1729475822314.0,0.0
-0.973879,-2.600998,4.632504,32.830002,19.389999,-54.459999,1729475822315.0,0.0
-3.072384,0.514457,5.816952,35.490002,13.86,-26.389999,1729475822315.0,0.0
-4.651647,-1.782653,5.931807,-6.37,-9.66,5.81,1729475822315.0,0.0
-5.876772,-5.831308,6.963113,-49.139999,-37.380001,16.24,1729475822315.0,0.0
-2.840281,-7.025328,9.131011,-0.35,-29.68,54.040001,1729475822316.0,0.0
-1.51705,-5.113462,8.379664,55.23,-27.860001,47.25,1729475822319.0,0.0
-3.139383,-4.046263,2.76371,-3.5,-26.25,47.459999,1729475822338.0,0.0
-5.819345,-9.954143,4.003192,-97.160004,-15.61,38.360001,1729475822360.0,0.0
-6.029913,-16.620546,4.508078,-79.169998,-6.79,31.43,1729475822380.0,0.0
-4.587041,-15.495919,3.132205,-7.56,11.27,-13.37,1729475822402.0,0.0
-1.962115,-11.140982,3.510271,42.209999,24.290001,-39.41,1729475822420.0,0.0
-0.748954,-10.102496,4.510471,45.57,31.219999,-39.549999,1729475822440.0,0.0
-1.773082,-11.358729,4.15394,-9.52,18.969999,-68.599998,1729475822460.0,0.0
-0.760918,-10.296316,5.458029,-11.62,18.83,-75.529999,1729475822482.0,0.0
-0.452243,-3.960121,6.166305,29.049999,28.559999,-71.889999,1729475822502.0,0.0
-0.909273,3.768696,4.87418,41.02,19.809999,-32.830002,1729475822521.0,0.0
-3.105884,2.689533,5.493921,40.880001,6.65,14.35,1729475822540.0,0.0
-7.898707,-4.819145,7.530212,-55.860001,-38.220001,30.030001,1729475822561.0,0.0
-3.988836,-7.080362,8.030313,-88.410004,-37.799999,56.490002,1729475822580.0,0.0
-1.971686,-7.819745,7.243074,-10.64,-25.690001,65.660004,1729475822601.0,0.0
-3.749553,-5.958128,6.285945,-9.52,-26.32,51.66,1729475822621.0,0.0
-5.991628,-12.59821,4.895715,-24.43,-10.29,54.529999,1729475822639.0,0.0
-5.029713,-15.558132,3.790231,-57.889999,-8.61,17.57,1729475822660.0,0.0
-2.995814,-13.22513,4.342973,11.48,14.91,-11.69,1729475822681.0,0.0
-0.937986,-9.004191,4.981857,46.830002,24.99,-45.009998,1729475822702.0,0.0
-0.624527,-8.30788,4.252046,25.690001,21.77,-42.07,1729475822727.0,0.0
-2.455036,-10.241282,3.443272,-16.309999,8.19,-60.060001,1729475822740.0,0.0
-0.801596,-7.491928,4.993821,5.39,16.030001,-63.07,1729475822759.0,0.0
-1.497907,-2.794817,4.95075,60.619999,26.950001,-39.41,1729475822781.0,0.0
-2.065006,1.253839,5.376673,47.389999,24.360001,-23.940001,1729475822801.0,0.0
-4.237689,-1.832902,7.116255,4.62,4.2,13.23,1729475822820.0,0.0
-6.65444,-5.871986,8.293523,-57.049999,-35.279999,25.27,1729475822839.0,0.0
-3.189633,-6.367301,8.925228,-20.23,-31.43,59.010002,1729475822860.0,0.0
-1.945365,-5.252246,6.4678,30.309999,-32.130001,54.670002,1729475822879.0,0.0
-2.304288,-5.225924,4.015156,-3.5,-26.880001,68.739998,1729475822900.0,0.0
-5.302495,-12.119646,4.797609,-61.670002,-18.620001,51.310001,1729475822924.0,0.0
-5.56092,-16.969898,4.285545,-80.849998,-12.6,30.030001,1729475822939.0,0.0
-4.15394,-14.924035,3.046063,-18.34,7.28,-17.01,1729475822984.0,0.0
-2.39043,-11.212767,3.414558,31.43,19.460001,-41.650002,1729475822984.0,0.0
-0.971486,-9.518648,4.359723,41.02,26.25,-39.619999,1729475823030.0,0.0
-2.232504,-11.188839,4.811966,0.56,14.91,-68.040001,1729475823030.0,0.0
0.385244,-6.051448,5.290531,18.969999,20.790001,-68.18,1729475823155.0,0.0
-1.320838,-0.208176,4.465007,55.720001,28.42,-29.26,1729475823155.0,0.0
-1.543371,2.691926,4.972286,37.240002,27.02,-13.72,1729475823156.0,0.0
-5.785845,-3.802195,7.448857,-30.66,-0.98,21.35,1729475823156.0,0.0
-6.209375,-6.470192,7.9011,-96.25,-36.119999,32.689999,1729475823156.0,0.0
-2.529213,-6.85783,7.9346,-26.950001,-21.98,62.650002,1729475823157.0,0.0
-1.691726,-5.175675,5.331209,20.65,-21.280001,54.529999,1729475823160.0,0.0
-3.084348,-6.886543,3.235096,0.21,-15.54,73.080002,1729475823181.0,0.0
-6.063413,-13.473984,4.929214,-54.040001,-12.67,45.57,1729475823201.0,0.0
-5.962914,-18.128025,4.465007,-58.869999,-4.13,12.6,1729475823220.0,0.0
-3.589234,-15.498313,2.840281,-5.11,13.16,-33.670002,1729475823239.0,0.0
-0.497707,-9.851252,3.086741,51.170002,31.57,-48.720001,1729475823259.0,0.0
-0.923629,-8.707481,3.830909,56.209999,33.810001,-47.32,1729475823281.0,0.0
-2.325824,-10.576276,5.261817,14.84,20.58,-72.029999,1729475823300.0,0.0
-0.521635,-6.606583,5.405386,22.68,27.65,-68.949997,1729475823320.0,0.0
-1.311267,0.480957,5.187639,51.170002,30.24,-35.91,1729475823341.0,0.0
-4.429115,0.157926,6.223732,19.389999,13.3,5.11,1729475823360.0,0.0
-7.147361,-5.546563,7.84128,-66.5,-27.93,24.85,1729475823381.0,0.0
-3.809374,-7.21436,8.413164,-71.260002,-32.34,46.130001,1729475823403.0,0.0
-2.371287,-7.030113,7.293324,-1.4,-27.02,55.720001,1729475823419.0,0.0
-3.347559,-5.290531,6.357729,-5.32,-28.77,53.34,1729475823439.0,0.0
-5.278566,-11.059627,4.211368,-28.559999,-17.639999,70.0,1729475823468.0,0.0
-5.067998,-15.608383,3.424129,-90.230003,-25.620001,12.74,1729475823479.0,0.0
-3.515057,-15.247066,3.108276,-32.900002,0.42,3.99,1729475823500.0,0.0
-2.900101,-12.117253,3.661019,55.369999,22.82,-31.85,1729475823522.0,0.0
-1.655833,-8.88455,4.65404,51.869999,23.1,-45.849998,1729475823541.0,0.0
-1.438086,-8.23131,4.577469,39.34,23.450001,-42.630001,1729475823560.0,0.0
-3.026921,-10.112068,4.587041,2.31,9.38,-63.0,1729475823580.0,0.0
-0.76331,-8.367701,5.513064,7.7,4.27,-74.480003,1729475823602.0,0.0
-1.899901,-2.821138,4.058227,66.57,19.389999,-45.779999,1729475823620.0,0.0
-3.196811,-0.894916,6.300302,59.920002,19.74,-39.34,1729475823642.0,0.0
-4.689932,-3.479164,6.563512,-20.23,-0.07,6.65,1729475823661.0,0.0
-5.118248,-5.675776,6.929615,-51.66,-31.15,19.040001,1729475823680.0,0.0
-2.706282,-6.563512,8.008778,4.13,-25.620001,47.32,1729475823701.0,0.0
-0.818345,-6.537192,7.386643,49.77,-21.49,47.040001,1729475823721.0,0.0
-1.603191,-4.481757,6.142376,30.030001,-21.98,53.34,1729475823740.0,0.0
-4.642076,-10.018748,4.893322,-10.22,-21.35,62.299999,1729475823761.0,0.0
-4.603791,-15.201601,2.132005,-91.07,-25.48,8.82,1729475823780.0,0.0
-2.555535,-15.328422,2.584249,-53.34,-2.1,-3.64,1729475823801.0,0.0
-1.198804,-9.882358,4.508078,50.75,22.82,-27.65,1729475823821.0,0.0
-1.56012,-5.465207,6.104091,64.190002,24.710001,-22.049999,1729475823840.0,0.0
-3.184847,-5.182854,5.900701,-0.77,4.76,-23.17,1729475823861.0,0.0
-4.754539,-9.645468,4.122833,-74.970001,-17.92,-27.02,1729475823881.0,0.0
-2.352145,-10.41835,2.48375,-84.840004,-22.049999,-51.099998,1729475823902.0,0.0
-4.029513,-7.762317,3.969693,66.43,5.32,-6.86,1729475823925.0,0.0
-3.522235,-5.625526,8.408379,72.029999,9.8,-48.509998,1729475823941.0,0.0
-3.65384,-5.718846,7.795816,-55.23,-16.030001,-21.77,1729475823962.0,0.0
-3.749553,-6.063413,6.805188,-75.529999,-34.580002,-23.17,1729475823981.0,0.0
-3.35713,-6.089733,6.563512,-48.580002,-40.599998,-10.22,1729475824002.0,0.0
-3.270989,-5.496314,6.300302,-17.5,-41.02,-3.15,1729475824021.0,0.0
-3.129812,-4.711468,6.049056,-20.23,-41.439999,6.16,1729475824042.0,0.0
-3.184847,-6.599405,6.151947,-58.450001,-47.040001,19.67,1729475824062.0,0.0
-2.366502,-9.793823,5.285746,-116.620003,-56.0,18.34,1729475824082.0,0.0
-1.454836,-12.162716,3.866802,-100.870003,-48.09,24.219999,1729475824101.0,0.0
-0.916451,-12.674782,2.507678,-51.099998,-30.309999,7.49,1729475824122.0,0.0
-0.605384,-12.25843,1.722832,-23.59,-10.71,-12.04,1729475824142.0,0.0
-0.112463,-11.866007,1.402194,0.14,4.97,-28.630001,1729475824161.0,0.0
0.026321,-11.062018,1.617548,41.93,24.92,-41.09,1729475824187.0,0.0
-0.308674,-9.49472,2.165504,77.769997,42.98,-51.869999,1729475824202.0,0.0
-0.567099,-7.939385,2.921637,90.790001,59.990002,-59.360001,1729475824222.0,0.0
-0.672383,-6.506085,1.789831,91.489998,67.059998,-57.540001,1729475824242.0,0.0
-0.248854,-6.087341,2.959922,123.900002,82.809998,-38.43,1729475824261.0,0.0
0.119641,-6.9009,6.448657,124.949997,78.260002,-22.33,1729475824282.0,0.0
-0.605384,-3.287738,6.008378,76.720001,84.489998,-10.64,1729475824302.0,0.0
-2.811567,-4.295116,7.590034,37.099998,71.190002,4.83,1729475824322.0,0.0
-3.732803,-5.718846,8.542377,-35.490002,33.880001,8.68,1729475824342.0,0.0
-3.821337,-7.185646,8.583055,-57.330002,9.1,21.139999,1729475824361.0,0.0
-2.842674,-7.822137,6.513263,-46.060001,-6.51,27.370001,1729475824381.0,0.0
-2.06022,-7.269395,5.563312,-9.1,-6.58,32.689999,1729475824402.0,0.0
-1.691726,-5.56092,5.860023,2.03,-1.05,34.23,1729475824422.0,0.0
-1.641476,-5.223531,6.568298,-47.740002,2.66,32.48,1729475824441.0,0.0
-2.569891,-7.690532,7.759924,-119.0,-11.06,30.66,1729475824461.0,0.0
-3.089134,-9.509077,8.707481,-170.940002,-32.130001,33.110001,1729475824482.0,0.0
-2.715853,-11.25823,7.441679,-154.490005,-46.130001,27.02,1729475824502.0,0.0
-2.596212,-11.492726,5.99402,-105.349998,-44.099998,-4.62,1729475824521.0,0.0
-1.820938,-8.023134,3.306881,-90.090004,-45.220001,-9.59,1729475824541.0,0.0
-1.497907,-6.987042,2.533999,-108.639999,-32.830002,12.88,1729475824564.0,0.0
-1.270589,-6.85783,2.383251,-188.860001,-38.290001,17.99,1729475824582.0,0.0
-1.72044,-5.838487,-1.624727,-306.320007,-32.48,40.670002,1729475824602.0,0.0
-3.369094,-8.327023,-4.323831,-363.019989,-34.650002,32.200001,1729475824621.0,0.0
-7.075576,-14.033905,-11.210374,-287.350006,-47.740002,9.66,1729475824641.0,0.0
-9.013763,-22.717459,-10.9352,-52.920002,-48.16,-39.900002,1729475824661.0,0.0
-5.065606,-14.959927,-9.068797,165.970001,15.33,-45.5,1729475824681.0,0.0
-3.617948,-8.724231,-4.108476,409.360016,86.590004,-52.080002,1729475824702.0,0.0
-3.421736,-4.579862,-0.351745,450.799988,98.419998,-74.269997,1729475824722.0,0.0
-1.777867,-3.239882,0.619741,393.190002,74.620003,-44.52,1729475824740.0,0.0
-0.004786,-2.876173,4.232903,296.450012,50.259998,-21.35,1729475824764.0,0.0
1.411765,-4.438686,8.396415,225.610001,62.650002,-30.940001,1729475824781.0,0.0
-1.586441,-4.553542,9.233903,203.839996,80.57,-45.220001,1729475824802.0,0.0
-1.792224,-3.158526,10.028319,216.649994,75.18,-26.67,1729475824821.0,0.0
-0.567099,2.548356,12.480963,118.580002,70.419998,-9.31,1729475824841.0,0.0
-4.366901,-5.730811,10.470992,24.08,35.07,31.01,1729475824915.0,0.0
-3.730411,-10.949556,8.13799,-215.25,-39.48,21.77,1729475825104.0,0.0
-3.751946,-13.701303,7.9011,-228.970001,-35.349998,11.55,1729475825106.0,0.0
-1.399801,-10.394422,7.750352,-235.830002,-45.990002,-5.95,1729475825125.0,0.0
0.380459,-5.216353,2.105684,-251.160004,-87.43,-4.9,1729475825126.0,0.0
-0.208176,-1.883151,-0.531207,-220.149994,-64.190002,24.85,1729475825140.0,0.0
-2.778067,-2.65364,-0.930808,-228.270004,-35.209999,46.830002,1729475825180.0,0.0
-5.034499,-4.699504,-5.058427,-334.809998,-22.190001,27.299999,1729475825181.0,0.0
-7.558927,-10.222138,-8.88455,-394.450012,-55.02,20.440001,1729475825189.0,0.0
-8.013563,-21.233908,-13.203594,-272.860016,-110.459999,-6.23,1729475825190.0,0.0
-2.945565,-22.267607,-11.497513,-80.779999,-51.310001,-48.299999,1729475825191.0,0.0
-1.588834,-13.031311,-7.910671,247.589996,69.370003,-38.849998,1729475825192.0,0.0
-2.486143,-7.326823,-3.558127,505.679993,105.699997,-44.939999,1729475825198.0,0.0
-2.63689,-4.113262,-0.351745,525.840027,111.510002,-48.93,1729475825199.0,0.0
-1.993221,-1.74676,1.655833,443.100006,98.209999,-34.720001,1729475825205.0,0.0
-1.828116,-0.600598,5.264209,356.649994,87.150002,-31.5,1729475825206.0,0.0
-1.909473,-1.682154,11.126624,289.170013,90.790001,-45.709999,1729475825207.0,0.0
-1.615155,-2.610569,11.186446,218.470001,89.669998,-29.049999,1729475825234.0,0.0
-1.538585,2.694318,9.111869,121.239998,74.830002,-3.22,1729475825242.0,0.0
-3.242275,-2.179861,10.631311,-6.51,36.330002,42.349998,1729475825268.0,0.0
-3.493521,-7.534998,11.351551,-151.970001,-6.51,38.5,1729475825281.0,0.0
-3.811767,-12.06222,9.829715,-248.710007,-38.290001,26.6,1729475825306.0,0.0
-5.627919,-13.464413,8.714661,-298.200012,-61.32,7.14,1729475825323.0,0.0
-3.835695,-13.30888,6.570691,-303.660004,-74.340004,-15.54,1729475825341.0,0.0
-0.019143,-9.379865,4.240082,-299.459991,-88.620003,-17.290001,1729475825368.0,0.0
1.794617,-1.567299,0.418744,-274.820007,-89.529999,-1.19,1729475825391.0,0.0
-0.440279,-0.607777,-0.375673,-160.860001,-47.529999,24.219999,1729475825405.0,0.0
-4.596612,-1.600798,-1.514657,-221.759995,-4.27,28.49,1729475825447.0,0.0
-7.166504,-3.237489,-5.977271,-367.920013,-2.1,33.32,1729475825447.0,0.0
-8.41795,-10.372886,-9.518648,-393.329987,-81.129997,25.76,1729475825466.0,0.0
-7.125826,-21.497118,-17.807386,-294.140015,-161.139999,6.58,1729475825484.0,0.0
-1.189233,-27.201607,-13.385449,-60.760002,-73.709999,-36.959999,1729475825505.0,0.0
-0.09332,-14.155938,-11.935399,309.890015,98.980003,-56.630001,1729475825521.0,0.0
-4.151547,-4.259224,-2.321038,600.880005,151.410004,-61.529999,1729475825548.0,0.0
-5.111069,-0.122034,-0.327817,601.159973,125.160004,-40.810001,1729475825571.0,0.0
-4.295116,1.155733,1.485943,527.23999,78.68,-15.54,1729475825584.0,0.0
-0.323031,0.291924,8.664411,411.809998,54.670002,-45.360001,1729475825603.0,0.0
-1.191626,-1.347159,12.916457,229.460007,82.809998,-39.27,1729475825624.0,0.0
-3.120241,-3.220739,12.14836,35.84,43.330002,-45.709999,1729475825643.0,0.0
-1.875973,-2.158326,10.080962,-121.379997,10.01,-23.870001,1729475825663.0,0.0
-1.064806,-4.529613,9.126225,-134.119995,-2.66,14.14,1729475825684.0,0.0
-1.897508,-5.98445,8.60459,-70.139999,-6.37,16.59,1729475825705.0,0.0
-2.194218,-6.202196,9.913465,-19.460001,-3.85,17.5,1729475825724.0,0.0
-3.256632,-5.065606,9.044869,-35.560001,-23.870001,43.400002,1729475825748.0,0.0
-5.197211,-5.771489,7.211967,-89.879997,-32.060001,35.630001,1729475825762.0,0.0
-3.830909,-8.999406,6.788438,-230.860001,-52.220001,12.32,1729475825784.0,0.0
-1.088734,-11.097912,4.194618,-368.549988,-74.480003,17.5,1729475825805.0,0.0
1.308874,-10.200603,3.414558,-361.130005,-92.400002,9.73,1729475825823.0,0.0
-0.234497,-2.380858,0.875773,-225.399994,-73.849998,52.709999,1729475825844.0,0.0
-3.486342,-1.919044,-2.469393,-223.580002,-13.16,56.139999,1729475825863.0,0.0
-6.862615,-5.831308,-7.274181,-357.910004,7.98,29.049999,1729475825884.0,0.0
-8.623734,-11.504691,-10.202995,-409.709991,-69.090004,9.1,1729475825904.0,0.0
-6.726225,-17.063217,-10.07139,-325.220001,-114.660004,6.09,1729475825928.0,0.0
-4.240082,-22.004396,-12.406786,-157.990005,-66.989998,-29.190001,1729475825943.0,0.0
-2.919244,-18.434305,-12.739388,115.709999,23.59,-68.32,1729475825965.0,0.0
-2.218147,-11.511869,-9.942179,406.0,98.559998,-68.110001,1729475825983.0,0.0
-2.811567,-6.652047,-4.438686,540.119995,130.899994,-67.410004,1729475826005.0,0.0
-2.56032,-3.615555,-2.292324,574.48999,111.230003,-59.43,1729475826024.0,0.0
-2.287539,-1.56012,-0.40678,558.25,94.010002,-42.98,1729475826044.0,0.0
-1.509871,0.275175,2.088934,509.600006,79.309998,-48.509998,1729475826080.0,0.0
-0.815953,0.375673,9.944571,421.959991,83.370003,-65.800003,1729475826086.0,0.0
-2.029114,3.005385,13.239488,217.0,91.419998,-58.240002,1729475826104.0,0.0
-3.397808,3.570091,12.741781,29.120001,50.540001,-8.12,1729475826124.0,0.0
-3.818945,-0.550349,9.686146,-121.099998,-7.49,31.08,1729475826145.0,0.0
-2.904887,-5.596812,9.21476,-173.529999,-21.91,44.380001,1729475826165.0,0.0
-1.89033,-10.829915,9.537791,-164.850006,-27.299999,41.439999,1729475826185.0,0.0
-3.754339,-9.463614,7.549356,-145.740005,-44.869999,48.299999,1729475826207.0,0.0
-5.367101,-9.793823,5.369494,-130.270004,-39.200001,10.43,1729475826224.0,0.0
-3.007778,-11.913863,5.307281,-190.399994,-54.040001,-5.18,1729475826243.0,0.0
0.418744,-10.767702,2.959922,-237.160004,-62.580002,-1.89,1729475826263.0,0.0
1.835295,-10.052249,1.897508,-199.220001,-52.779999,6.16,1729475826284.0,0.0
0.48335,-5.907879,1.122234,-198.029999,-46.970001,14.7,1729475826430.0,0.0
-2.048256,-1.246661,0.949951,-159.880005,-19.040001,41.580002,1729475826432.0,0.0
-4.508078,-2.084148,0.875773,-153.860001,-1.4,51.73,1729475826434.0,0.0
-5.666204,-6.022735,-2.880959,-283.01001,-17.360001,28.91,1729475826435.0,0.0
-7.013363,-11.497513,-8.95155,-396.899994,-59.290001,23.309999,1729475826436.0,0.0
-6.288338,-21.262623,-13.454842,-305.899994,-101.220001,-5.39,1729475826437.0,0.0
-2.612962,-26.234907,-14.13919,-97.580002,-25.9,-48.93,1729475826437.0,0.0
-1.339981,-16.204195,-12.248858,246.75,88.970001,-71.190002,1729475826442.0,0.0
-1.878366,-8.157133,-5.740381,578.970032,129.220001,-58.869999,1729475826490.0,0.0
-2.600998,-2.115255,-0.160319,661.919983,134.259995,-53.060001,1729475826490.0,0.0
-3.244668,3.431308,4.271189,598.080017,101.919998,-32.689999,1729475826503.0,0.0
-0.995414,3.184847,6.771688,340.410004,91.910004,-85.400002,1729475826629.0,0.0
-0.040678,3.768696,8.815158,77.419998,63.07,-48.23,1729475826630.0,0.0
-1.548156,0.586242,11.420943,-24.43,51.380001,21.210001,1729475826630.0,0.0
-4.319045,-0.267996,10.286745,-62.23,17.5,32.41,1729475826630.0,0.0
-4.029513,-4.974678,11.334801,-25.129999,5.25,65.940002,1729475826630.0,0.0
-2.002793,-9.432507,12.363714,-50.75,-7.7,68.040001,1729475826630.0,0.0
-4.424329,-12.942777,9.45165,-116.480003,-41.439999,80.709999,1729475826649.0,0.0
-4.989035,-13.612768,4.864608,-197.399994,-55.299999,26.32,1729475826664.0,0.0
-3.998406,-14.785251,4.811966,-277.269989,-61.32,-12.18,1729475826687.0,0.0
-0.275175,-12.205789,2.825923,-294.48999,-63.279999,-22.120001,1729475826704.0,0.0
1.696511,-5.182854,-2.277967,-237.649994,-37.73,-18.129999,1729475826725.0,0.0
-0.715454,-3.883551,1.641476,-113.470001,-13.3,10.99,1729475826794.0,0.0
-3.665804,-3.773481,2.713461,-74.550003,-1.54,26.530001,1729475826794.0,0.0
-4.599005,-2.971886,1.430908,-156.940002,1.19,35.420002,1729475826813.0,0.0
-4.795217,-7.015756,-2.957529,-298.269989,-13.16,40.529999,1729475826814.0,0.0
-5.000999,-12.471392,-7.180861,-405.579987,-79.590004,18.41,1729475826825.0,0.0
-4.61097,-18.800407,-10.671989,-313.809998,-78.050003,-3.92,1729475826843.0,0.0
-3.598805,-23.002203,-13.730016,-72.169998,-17.15,-40.32,1729475826864.0,0.0
-2.151148,-15.50549,-11.430513,256.269989,59.5,-60.970001,1729475826885.0,0.0
-2.531606,-8.946764,-5.9677,520.099976,110.809998,-44.66,1729475826909.0,0.0
-3.237489,-4.012764,-1.493121,592.340027,126.07,-48.93,1729475826927.0,0.0
-3.639483,-1.368695,1.562513,565.950012,104.580002,-40.950001,1729475826945.0,0.0
-3.105884,0.122034,2.550749,488.320007,81.269997,-36.189999,1729475826964.0,0.0
-1.217947,-0.11007,6.656832,372.119995,81.900002,-49.630001,1729475826984.0,0.0
-0.770489,-1.241875,9.193225,208.25,87.639999,-37.450001,1729475827005.0,0.0
-2.299503,0.930808,11.444871,53.48,64.050003,-19.110001,1729475827025.0,0.0
-3.479164,0.098106,10.456635,-29.120001,29.960001,25.76,1729475827099.0,0.0
-3.732803,-3.538985,8.84148,-92.260002,-0.07,39.900002,1729475827099.0,0.0
-1.665405,-6.977471,10.719845,-104.300003,-9.24,49.98,1729475827099.0,0.0
-4.283153,-8.618947,8.489735,-76.440002,-32.900002,73.779999,1729475827108.0,0.0
-6.233303,-9.942179,8.506484,-125.93,-48.720001,38.639999,1729475827126.0,0.0
-4.431508,-11.980864,7.834101,-277.76001,-75.32,10.01,1729475827145.0,0.0
-2.158326,-12.507284,4.395615,-405.089996,-101.709999,-2.1,1729475827165.0,0.0
1.387837,-8.114061,-0.808774,-382.200012,-103.040001,-14.56,1729475827186.0,0.0
0.914058,-4.144369,0.480957,-282.589996,-72.870003,16.59,1729475827415.0,0.0
-1.875973,-2.629712,-0.275175,-207.550003,-41.23,35.84,1729475827416.0,0.0
-5.979663,-6.831509,-3.172883,-209.860001,-17.710001,20.719999,1729475827416.0,0.0
-8.353344,-14.440684,-10.643275,-223.229996,-43.259998,-21.91,1729475827416.0,0.0
-5.362316,-20.592632,-8.166703,-106.190002,-86.940002,-36.68,1729475827416.0,0.0
-1.074377,-16.130018,-7.381857,49.420002,7.98,-3.92,1729475827417.0,0.0
-2.37368,-12.421142,-4.414758,262.360016,69.019997,-39.27,1729475827417.0,0.0
-4.051049,-9.020942,-4.072584,367.640015,88.760002,-64.610001,1729475827417.0,0.0
-4.079762,-5.333601,0.059821,435.540009,86.239998,-51.73,1729475827417.0,0.0
-2.701497,-1.562513,4.835894,399.700012,65.800003,-26.460001,1729475827418.0,0.0
-1.933401,-0.433101,8.733803,260.610016,68.389999,-20.860001,1729475827418.0,0.0
-1.756332,-3.924229,3.127419,42.630001,68.389999,-59.220001,1729475827427.0,0.0
-1.366302,-7.15454,3.108276,-146.300003,6.44,-14.49,1729475827451.0,0.0
-0.047856,-6.874579,4.845466,-27.58,33.880001,22.469999,1729475827498.0,0.0
-1.383051,-5.376673,8.355737,168.559998,39.900002,33.529999,1729475827498.0,0.0
-2.553142,-4.694718,11.657832,240.169998,25.200001,38.57,1729475827505.0,0.0
-2.9671,-7.905886,14.254045,177.520004,1.68,51.939999,1729475827525.0,0.0
-4.24726,-12.299109,8.664411,24.01,-24.360001,37.170002,1729475827546.0,0.0
-3.644269,-14.337792,7.465607,-91.0,-38.290001,2.87,1729475827569.0,0.0
-3.058028,-11.01177,6.443871,-91.840004,-22.610001,-13.58,1729475827586.0,0.0
-3.751946,-5.536992,6.78126,-27.719999,-12.46,-24.219999,1729475827647.0,0.0
-4.106083,-5.618347,8.090133,-12.46,-18.48,-31.57,1729475827648.0,0.0
-3.507878,-4.709075,6.798009,-129.850006,-31.710001,-35.560001,1729475827657.0,0.0
-2.600998,-5.343173,5.809773,-231.419998,-54.32,-21.07,1729475827666.0,0.0
0.050249,-4.931608,2.208575,-285.390015,-75.389999,-9.17,1729475827686.0,0.0
0.18664,-3.625126,1.115055,-315.140015,-58.73,26.67,1729475827712.0,0.0
-2.117648,-2.48375,0.102891,-335.019989,-42.349998,40.529999,1729475827731.0,0.0
-5.158926,-5.056034,-2.055435,-348.320007,-34.23,30.799999,1729475827745.0,0.0
-4.733003,-6.640083,-4.651647,-386.329987,-67.199997,29.610001,1729475827765.0,0.0
-3.661019,-7.362715,-7.104291,-368.619995,-77.279999,51.52,1729475827786.0,0.0
-4.165904,-13.002598,-14.656039,-290.220001,-91.07,35.98,1729475827806.0,0.0
-5.266603,-24.504894,-17.915062,-103.529999,-79.169998,-10.5,1729475827825.0,0.0
-2.813959,-22.51646,-14.904892,130.479996,16.379999,-56.209999,1729475827846.0,0.0
-1.399801,-12.650853,-10.762917,457.380005,121.730003,-56.84,1729475827865.0,0.0
-2.505285,-5.749953,-5.9342,607.460022,164.990005,-73.779999,1729475827886.0,0.0
-3.45045,-1.756332,-3.34038,655.130005,145.600006,-60.200001,1729475827906.0,0.0
-3.5007,2.175076,-1.048056,675.98999,105.07,-21.07,1729475827929.0,0.0
-0.086142,4.429115,9.619147,611.799988,82.599998,-25.690001,1729475828026.0,0.0
-1.87358,4.986642,11.186446,105.419998,99.120003,-25.969999,1729475828159.0,0.0
-3.677768,1.014557,11.732009,-91.559998,30.799999,34.580002,1729475828160.0,0.0
-3.421736,-2.766103,11.437693,-206.5,-9.38,43.400002,1729475828160.0,0.0
-3.352344,-8.185846,10.985448,-198.029999,-25.969999,57.400002,1729475828160.0,0.0
-2.895315,-13.919049,9.166903,-175.630005,-48.369999,49.98,1729475828160.0,0.0
-3.510271,-12.918849,6.345766,-147.279999,-49.420002,39.830002,1729475828161.0,0.0
-5.539384,-9.597611,6.659225,-137.619995,-38.290001,-7.98,1729475828161.0,0.0
-4.601398,-9.968499,7.204789,-178.430008,-51.099998,-22.26,1729475828161.0,0.0
-1.868794,-10.571491,6.733403,-228.339996,-67.129997,-29.4,1729475828162.0,0.0
1.433301,-7.267002,0.689133,-281.470001,-75.25,-23.73,1729475828164.0,0.0
2.756532,-1.194018,-0.681954,-296.519989,-57.260002,2.1,1729475828184.0,0.0
0.11007,0.102891,-1.155733,-236.110001,-27.09,32.619999,1729475828206.0,0.0
-5.075177,-4.864608,-1.698904,-244.720001,1.61,38.220001,1729475828240.0,0.0
-7.245467,-7.245467,-6.678369,-323.190002,-21.559999,17.99,1729475828252.0,0.0
-7.185646,-13.261024,-10.454242,-284.130005,-55.09,20.58,1729475828266.0,0.0
-5.419744,-20.463419,-12.440285,-189.070007,-80.5,-3.78,1729475828286.0,0.0
-1.885544,-21.671795,-12.851851,-15.33,-26.389999,-39.34,1729475828306.0,0.0
-1.485943,-13.564911,-10.514063,294.980011,82.459999,-55.299999,1729475828330.0,0.0
-2.490928,-7.006185,-5.998806,517.440002,130.199997,-54.18,1729475828347.0,0.0
-2.921637,-2.773281,-2.718246,563.919983,136.080002,-44.52,1729475828377.0,0.0
-2.837888,0.66999,1.028914,542.780029,110.040001,-23.73,1729475828388.0,0.0
-3.010171,0.815953,6.053841,396.059998,97.090004,-31.57,1729475828416.0,0.0
-1.959722,-1.304088,11.076375,201.949997,69.300003,-44.099998,1729475828428.0,0.0
-1.981257,-3.235096,13.89512,33.389999,35.490002,-11.2,1729475828451.0,0.0
-2.230111,-4.56072,12.210573,-27.790001,8.61,12.04,1729475828465.0,0.0
-1.533799,-5.570491,8.690732,-52.990002,-16.870001,16.73,1729475828487.0,0.0
-1.227518,-7.582855,8.250452,-54.040001,-25.48,24.01,1729475828509.0,0.0
-1.148555,-7.597212,8.889337,-33.18,-22.049999,28.84,1729475828549.0,0.0
-3.591627,-5.240282,9.396614,-27.02,-31.85,36.330002,1729475828564.0,0.0
-5.28096,-4.709075,8.396415,-63.209999,-42.77,39.830002,1729475828567.0,0.0
-5.352744,-9.454042,7.695317,-182.419998,-56.77,17.290001,1729475828585.0,0.0
-3.682554,-12.873385,6.85783,-374.079987,-93.519997,-17.08,1729475828608.0,0.0
0.189033,-10.956735,-2.646462,-447.860016,-114.660004,-11.48,1729475828629.0,0.0
1.928615,-11.272588,-1.706082,-351.959991,-80.57,-7.28,1729475828648.0,0.0
0.964308,-3.725625,-1.351945,-314.720001,-44.029999,10.5,1729475828667.0,0.0
-3.778267,-2.175076,0.478565,-203.979996,17.219999,35.279999,1729475828689.0,0.0
-5.704489,-3.486342,-4.871787,-303.799988,12.32,14.49,1729475828708.0,0.0
-6.45105,-8.343772,-10.832308,-342.860016,-38.080002,4.83,1729475828727.0,0.0
-5.441278,-18.108883,-16.706688,-249.759995,-114.029999,-7.84,1729475828747.0,0.0
-1.722832,-20.401205,-12.689137,-133.559998,-73.779999,-22.469999,1729475828767.0,0.0
-1.217947,-13.998013,-8.834301,114.379997,60.48,-22.540001,1729475828788.0,0.0
-2.730211,-8.846266,-7.106683,338.519989,103.25,-41.720001,1729475828812.0,0.0
-3.337988,-6.343372,-6.132804,420.209991,122.080002,-38.639999,1729475828827.0,0.0
-2.87378,-4.388437,-4.005585,465.220001,112.980003,-13.72,1729475828847.0,0.0
-1.868794,-1.761117,-0.193819,486.640015,98.629997,-2.45,1729475828867.0,0.0
-1.150948,-0.715454,2.914458,465.080017,101.639999,-5.6,1729475828888.0,0.0
-1.038485,-0.440279,4.756931,389.829987,113.050003,-20.51,1729475828909.0,0.0
-1.103091,-0.495314,8.635696,316.959991,94.010002,5.04,1729475828931.0,0.0
-2.713461,-3.038885,12.916457,241.710007,67.199997,46.27,1729475828946.0,0.0
-4.706682,-5.740381,14.304294,101.220001,16.52,40.670002,1729475828967.0,0.0
-3.663411,-8.662018,12.16511,-48.02,-14.21,36.889999,1729475828989.0,0.0
-1.655833,-11.765509,7.458428,-153.440002,-40.740002,32.48,1729475829009.0,0.0
-2.751746,-10.327423,6.757331,-162.610001,-47.32,5.11,1729475829028.0,0.0
-4.046263,-6.869793,7.944171,-131.110001,-42.420002,-3.08,1729475829054.0,0.0
-4.194618,-6.486942,7.740781,-150.779999,-47.110001,-10.85,1729475829068.0,0.0
-2.883351,-8.013563,7.37468,-229.460007,-69.160004,-19.18,1729475829089.0,0.0
0.42353,-6.594619,0.083749,-328.089996,-86.239998,-6.02,1729475829110.0,0.0
2.167897,-2.919244,-1.995614,-387.380005,-65.099998,35.84,1729475829130.0,0.0
0.648455,2.340181,-4.041477,-357.140015,-33.110001,62.720001,1729475829247.0,0.0
-5.431707,-6.728617,-2.682354,-266.839996,9.73,57.959999,1729475829253.0,0.0
-7.63789,-11.52862,-9.533006,-343.700012,-38.009998,14.21,1729475829253.0,0.0
-8.262416,-16.232908,-10.707881,-292.390015,-55.02,30.24,1729475829253.0,0.0
-4.295116,-21.078373,-11.593226,-135.100006,-55.16,-0.56,1729475829253.0,0.0
-1.395016,-18.616161,-11.58844,55.299999,11.55,-28.700001,1729475829254.0,0.0
-1.505085,-12.095718,-9.856036,324.799988,76.370003,-58.939999,1729475829267.0,0.0
-2.37368,-7.515855,-7.377072,501.76001,124.18,-61.110001,1729475829287.0,0.0
-3.139383,-4.144369,-2.938386,572.669983,130.550003,-45.849998,1729475829451.0,0.0
-3.074777,-0.200997,2.648855,548.659973,91.980003,-30.1,1729475829452.0,0.0
-3.366701,1.665405,6.920043,452.410004,88.620003,-32.900002,1729475829452.0,0.0
-1.978864,0.533599,10.34178,302.890015,69.370003,-44.73,1729475829452.0,0.0
-1.954936,-2.237289,10.772489,116.690002,40.599998,-10.85,1729475829474.0,0.0
-1.935793,-3.76391,10.368099,-26.32,11.9,11.41,1729475829474.0,0.0
-2.730211,-3.684947,8.623734,-113.400002,-10.43,23.17,1729475829474.0,0.0
-2.806781,-6.001199,7.477571,-127.330002,-26.25,36.82,1729475829474.0,0.0
-2.261217,-7.094719,7.881958,-111.580002,-27.370001,34.860001,1729475829475.0,0.0
-3.424129,-6.687939,8.779266,-72.309998,-43.400002,48.09,1729475829487.0,0.0
-3.976871,-6.704689,6.63769,-38.360001,-59.849998,52.920002,1729475829507.0,0.0
-2.411965,-11.215159,2.103291,-70.139999,-43.470001,44.380001,1729475829528.0,0.0
-1.952543,-15.917056,2.620141,-198.940002,-55.860001,26.040001,1729475829548.0,0.0
-2.266003,-16.220945,2.809174,-223.720001,-48.93,14.49,1729475829568.0,0.0
-3.058028,-6.094519,4.048656,-147.139999,-50.959999,-7.56,1729475829590.0,0.0
-5.448457,-5.532206,1.119841,-91.699997,-57.82,0.14,1729475829611.0,0.0
-5.024928,-10.332209,0.564706,-90.510002,-71.610001,-27.370001,1729475829630.0,0.0
-2.433501,-14.368899,1.021735,-149.100006,-81.410004,-42.0,1729475829648.0,0.0
-0.5001,-13.509877,3.421736,-103.809998,-68.110001,-34.299999,1729475829670.0,0.0
-0.392423,-9.71486,2.813959,-35.630001,-46.970001,-42.139999,1729475829689.0,0.0
-0.655633,-8.044669,1.586441,-59.010002,-44.73,-54.459999,1729475829710.0,0.0
-0.043071,-9.193225,0.844666,-99.82,-36.959999,-48.02,1729475829731.0,0.0
0.717847,-8.65484,1.473979,-109.830002,-22.4,-48.790001,1729475829748.0,0.0
0.985843,-7.609176,-2.904887,-108.360001,13.23,-34.299999,1729475829778.0,0.0
1.201197,-11.839686,-6.417551,-109.410004,10.22,-44.170002,1729475829789.0,0.0
0.215354,-11.720046,-1.06002,71.330002,63.700001,-3.64,1729475829874.0,0.0
0.61017,-4.220939,2.931208,227.360001,86.940002,11.13,1729475829878.0,0.0
0.787239,-0.617348,4.086941,173.880005,80.779999,14.28,1729475829880.0,0.0
-0.160319,-0.62692,6.709475,22.469999,58.869999,40.810001,1729475829881.0,0.0
-2.902494,-6.757331,11.219944,-129.919998,18.549999,69.720001,1729475829906.0,0.0
-1.387837,-11.083554,0.050249,-255.919998,-72.730003,45.849998,1729475829929.0,0.0
-1.847259,-13.500306,-1.426122,-147.770004,-67.970001,72.379997,1729475829931.0,0.0
-4.161119,-10.521241,-2.201397,32.619999,-21.700001,65.449997,1729475829948.0,0.0
-7.819745,-12.074183,-2.940779,-0.84,-4.06,49.630001,1729475829977.0,0.0
-9.468399,-14.727824,-6.039484,-70.559998,6.93,10.29,1729475829992.0,0.0
-5.481956,-16.890934,-4.041477,-8.54,28.0,-8.19,1729475830009.0,0.0
-2.775674,-13.79223,-2.354537,49.279999,67.970001,-39.900002,1729475830029.0,0.0
-3.476771,-8.927622,0.023928,78.540001,86.660004,-56.279999,1729475830049.0,0.0
-1.938186,-6.71426,3.716053,110.459999,64.400002,-52.779999,1729475830069.0,0.0
-1.596013,-7.116255,7.188039,76.019997,39.200001,-56.91,1729475830137.0,0.0
-2.09372,-5.577669,6.288338,-29.75,4.48,-64.889999,1729475830137.0,0.0
0.133998,-3.39063,2.629712,-84.980003,-41.790001,-56.139999,1729475830138.0,0.0
3.981657,-3.931407,-1.72044,-28.139999,-47.040001,-11.69,1729475830149.0,0.0
2.785245,-5.012963,-1.509871,7.28,-30.309999,41.93,1729475830171.0,0.0
-0.31346,-5.47717,-1.014557,75.879997,-1.54,66.709999,1729475830190.0,0.0
-3.316452,-7.903493,4.115655,103.529999,7.56,91.910004,1729475830210.0,0.0
-6.269196,-12.722638,6.585048,49.0,-27.790001,90.230003,1729475830240.0,0.0
-6.608976,-15.816557,-0.009571,-26.32,-46.48,48.580002,1729475830249.0,0.0
-5.022535,-15.8357,-5.010571,-94.220001,-43.259998,15.68,1729475830270.0,0.0
-3.89073,-14.644074,-3.081956,-55.510002,9.03,-12.6,1729475830289.0,0.0
-4.228118,-12.500106,-1.634298,-59.360001,38.360001,-51.52,1729475830310.0,0.0
-3.694518,-10.176675,-2.151148,-75.739998,52.849998,-65.169998,1729475830329.0,0.0
-2.11047,-9.731609,0.569492,-55.650002,51.939999,-67.199997,1729475830349.0,0.0
-0.157926,-8.116454,1.847259,-12.88,43.959999,-70.769997,1729475830369.0,0.0
1.739582,-4.309474,5.60399,70.980003,40.459999,-51.939999,1729475830391.0,0.0
2.471786,-1.792224,8.073383,91.699997,15.33,-20.23,1729475830410.0,0.0
1.330409,-1.87358,5.522634,13.51,-27.65,15.54,1729475830430.0,0.0
0.509671,-4.187439,1.387837,-42.490002,-58.939999,53.34,1729475830448.0,0.0
-0.854238,-7.444071,-1.414158,-49.700001,-65.239998,82.739998,1729475830469.0,0.0
-2.476572,-11.210374,-3.754339,-12.81,-58.240002,95.410004,1729475830491.0,0.0
-7.23111,-21.791435,-0.961915,20.58,-33.599998,85.120003,1729475830511.0,0.0
-8.652447,-20.858232,-5.388636,-29.33,-17.57,11.97,1729475830529.0,0.0
-4.833502,-12.854243,-5.005785,14.77,29.540001,-16.52,1729475830549.0,0.0
-4.156333,-13.42852,-1.20359,26.110001,50.959999,-53.48,1729475830568.0,0.0
-2.644069,-10.339387,0.193819,-26.18,56.420002,-82.669998,1729475830589.0,0.0
-0.650848,-7.288538,1.002593,33.110001,61.110001,-73.57,1729475830610.0,0.0
0.736989,-3.677768,4.883751,56.700001,58.799999,-63.139999,1729475830629.0,0.0
1.39023,0.059821,5.666204,40.599998,33.599998,-40.18,1729475830648.0,0.0
1.782653,-2.871387,5.958128,49.420002,3.15,13.93,1729475830669.0,0.0
0.028714,-4.223332,4.187439,-3.36,-24.92,44.240002,1729475830690.0,0.0
-1.081556,-4.326223,1.758725,1.96,-43.049999,76.510002,1729475830710.0,0.0
-2.237289,-7.633104,0.818345,21.139999,-50.470001,102.129997,1729475830739.0,0.0
-5.070391,-14.605788,0.492921,-12.6,-68.040001,96.459999,1729475830748.0,0.0
-8.317451,-18.675982,-4.173083,-46.34,-65.730003,68.110001,1729475830770.0,0.0
-7.32443,-18.072989,-5.096712,-36.049999,-21.700001,29.960001,1729475830789.0,0.0
-5.76431,-13.03849,-5.737988,-65.519997,18.059999,-18.41,1729475830809.0,0.0
-3.981657,-13.607983,-1.646262,-11.69,48.580002,-32.830002,1729475830829.0,0.0
-2.254039,-11.918649,-0.241675,-34.580002,55.510002,-69.440002,1729475830850.0,0.0
-2.22054,-9.372685,0.172283,-70.07,57.189999,-70.419998,1729475830869.0,0.0
-1.232304,-7.257431,-0.880559,-62.510002,51.029999,-70.699997,1729475830890.0,0.0
0.122034,-7.178468,1.148555,9.52,48.09,-57.68,1729475830910.0,0.0
0.064606,-3.381058,6.084948,63.490002,38.639999,-46.549999,1729475830933.0,0.0
0.497707,-2.447858,7.149754,45.849998,-4.76,-0.21,1729475830950.0,0.0
0.552742,-1.605584,3.665804,-51.939999,-49.420002,26.67,1729475830970.0,0.0
-0.861416,-5.953342,0.971486,-69.300003,-69.790001,71.400002,1729475830990.0,0.0
-1.921437,-9.559326,-2.323431,-53.41,-77.840004,82.879997,1729475831009.0,0.0
-4.139583,-12.703495,-3.74716,-24.710001,-68.949997,91.209999,1729475831031.0,0.0
-7.070791,-16.8694,-3.651447,0.77,-46.549999,77.419998,1729475831050.0,0.0
-7.32443,-18.132809,-5.225924,-19.809999,-15.33,40.110001,1729475831068.0,0.0
-6.30748,-14.732609,-6.474977,-47.950001,18.34,-7.21,1729475831096.0,0.0
-4.254438,-13.842479,-2.720639,17.219999,52.150002,-28.0,1729475831110.0,0.0
-2.926422,-12.229716,-0.413958,31.710001,59.990002,-59.43,1729475831130.0,0.0
-2.354537,-9.29133,-0.827917,-15.54,58.66,-72.870003,1729475831150.0,0.0
-1.713261,-8.573483,-0.009571,-29.610001,47.599998,-72.449997,1729475831170.0,0.0
-0.028714,-7.223931,-0.004786,1.54,47.740002,-61.25,1729475831188.0,0.0
0.784846,-4.381258,4.622933,60.060001,45.779999,-46.689999,1729475831209.0,0.0
0.830309,-2.249253,6.685547,72.800003,20.299999,-18.48,1729475831229.0,0.0
-0.935594,-4.61097,5.4341,3.64,-22.68,10.99,1729475831249.0,0.0
-1.316052,-7.04447,0.368495,-59.43,-66.57,28.77,1729475831268.0,0.0
-0.87338,-8.547162,-2.522035,0.91,-69.370003,67.199997,1729475831288.0,0.0
-2.959922,-10.583455,-4.285545,16.52,-61.599998,76.440002,1729475831310.0,0.0
-7.274181,-18.010777,-2.648855,16.799999,-37.52,68.18,1729475831330.0,0.0
-7.726424,-19.154545,-5.04407,-27.93,-17.85,19.110001,1729475831349.0,0.0
-5.682954,-13.095919,-4.680361,-41.439999,20.93,-20.23,1729475831369.0,0.0
-3.885944,-13.430914,-2.048256,8.89,46.759998,-41.650002,1729475831389.0,0.0
-2.455036,-11.119448,-2.289931,-28.139999,50.82,-76.860001,1729475831411.0,0.0
-1.988436,-10.188639,-0.957129,-35.560001,54.040001,-73.010002,1729475831431.0,0.0
-0.658026,-6.343372,-1.5003,-20.23,57.189999,-71.400002,1729475831449.0,0.0
0.971486,-5.462814,2.622534,65.099998,51.869999,-49.630001,1729475831471.0,0.0
1.292124,-2.069792,6.003592,82.669998,39.34,-33.040001,1729475831489.0,0.0
0.401994,-2.935993,7.467999,63.77,4.41,8.96,1729475831514.0,0.0
-1.323231,-3.661019,4.089334,-41.439999,-49.630001,25.549999,1729475831530.0,0.0
-2.086541,-5.67099,-1.198804,-58.939999,-80.220001,59.360001,1729475831549.0,0.0
-2.596212,-9.537791,-1.770689,0.7,-80.919998,88.340004,1729475831570.0,0.0
-5.04407,-15.433706,-3.050849,-4.41,-65.239998,84.489998,1729475831589.0,0.0
-7.4345,-19.03969,-6.197411,-48.16,-45.080002,50.68,1729475831610.0,0.0
-6.898508,-18.336199,-6.063413,-33.810001,-6.16,14.07,1729475831631.0,0.0
-4.378866,-13.409377,-5.67099,3.78,37.869999,-28.07,1729475831650.0,0.0
-3.330809,-12.787244,-1.938186,45.990002,63.420002,-44.73,1729475831670.0,0.0
-2.232504,-10.023535,-2.057827,-6.58,68.25,-72.169998,1729475831690.0,0.0
-1.835295,-9.537791,-0.385244,-39.619999,67.690002,-71.190002,1729475831710.0,0.0
-0.468993,-7.025328,-0.672383,-28.559999,62.860001,-68.18,1729475831731.0,0.0
0.545564,-6.106483,4.125226,64.400002,58.170002,-47.880001,1729475831751.0,0.0
0.272782,-2.892922,7.197611,81.410004,34.23,-34.23,1729475831769.0,0.0
-1.205983,-3.89073,7.424929,40.599998,-6.51,-3.15,1729475831791.0,0.0
-1.624727,-3.852444,3.29731,-54.32,-65.029999,10.92,1729475831815.0,0.0
-1.505085,-4.333402,-0.59342,-49.420002,-83.93,52.009998,1729475831830.0,0.0
-1.823331,-8.013563,-2.557927,-6.93,-74.970001,72.660004,1729475831850.0,0.0
-3.103491,-10.963913,-4.646862,-7.42,-67.900002,83.090004,1729475831871.0,0.0
-7.410572,-21.217157,-6.266802,-34.790001,-30.940001,43.68,1729475831890.0,0.0
-6.171089,-17.546568,-5.139783,-29.4,8.89,4.2,1729475831911.0,0.0
-3.550949,-12.076575,-4.508078,-5.46,45.990002,-36.959999,1729475831933.0,0.0
-2.778067,-12.021541,-1.849652,15.26,58.73,-55.369999,1729475831949.0,0.0
-1.775474,-9.970891,-1.820938,-13.37,58.310001,-71.260002,1729475831971.0,0.0
-1.39023,-9.382257,1.024128,-2.17,55.790001,-68.599998,1729475831990.0,0.0
-0.229711,-4.890929,1.761117,19.460001,50.259998,-63.560001,1729475832013.0,0.0
1.404587,-1.87358,4.606184,82.32,38.290001,-35.84,1729475832030.0,0.0
1.387837,-1.885544,6.398407,80.360001,16.17,-5.6,1729475832050.0,0.0
-2.194218,-5.991628,4.668397,-28.35,-28.42,22.26,1729475832070.0,0.0
-2.689533,-7.238289,0.897308,-80.5,-76.93,28.210001,1729475832090.0,0.0
-1.689333,-7.805387,-1.189233,-25.76,-77.840004,62.790001,1729475832111.0,0.0
-1.416551,-8.035098,-4.522435,15.33,-72.099998,73.010002,1729475832130.0,0.0
-4.496114,-13.356737,-4.316652,9.66,-52.920002,81.900002,1729475832151.0,0.0
-7.250252,-19.960926,-4.223332,-22.610001,-28.35,51.450001,1729475832171.0,0.0
-7.362715,-18.96312,-4.74736,-43.470001,2.52,7.49,1729475832191.0,0.0
-3.242275,-13.835299,-2.352145,-17.85,41.439999,-37.52,1729475832265.0,0.0
-1.926222,-11.540584,-2.122434,-29.68,60.619999,-76.580002,1729475832266.0,0.0
-1.124627,-11.205588,-2.402394,-35.349998,66.290001,-72.309998,1729475832275.0,0.0
-0.165105,-7.281359,-1.208375,-9.66,68.599998,-76.650002,1729475832275.0,0.0
1.160519,-5.426922,2.866602,97.93,66.919998,-50.610001,1729475832290.0,0.0
1.402194,-1.112662,6.769295,137.619995,54.810001,-35.209999,1729475832310.0,0.0
-0.37328,-2.749353,7.707282,92.82,10.43,3.22,1729475832330.0,0.0
-2.380858,-4.828716,4.275974,-48.790001,-52.57,14.84,1729475832351.0,0.0
-2.017149,-6.336195,-0.153141,-66.779999,-83.790001,46.27,1729475832370.0,0.0
-1.892723,-9.968499,-1.957329,-12.53,-77.209999,64.400002,1729475832389.0,0.0
-3.168097,-12.071791,-4.663611,-3.22,-68.739998,59.849998,1729475832411.0,0.0
-5.268995,-16.687544,-3.460021,7.49,-39.27,55.93,1729475832431.0,0.0
-5.4006,-17.087147,-4.675575,-12.67,-12.81,22.75,1729475832449.0,0.0
-4.795217,-13.52902,-4.728218,-15.190001,20.299999,-7.98,1729475832471.0,0.0
-3.493521,-14.029119,-2.053042,32.130001,45.639999,-28.210001,1729475832491.0,0.0
-2.837888,-12.480963,-1.765903,-2.45,55.580002,-67.970001,1729475832510.0,0.0
-2.081756,-11.062018,-1.361516,-32.27,58.939999,-74.269997,1729475832530.0,0.0
0.105284,-7.180861,-1.923829,-35.07,60.970001,-79.730003,1729475832551.0,0.0
0.457029,-6.18784,3.634698,81.620003,61.529999,-53.34,1729475832570.0,0.0
0.064606,-2.567499,7.228717,99.959999,40.040001,-39.27,1729475832590.0,0.0
-0.413958,-2.87378,7.673782,53.830002,0.14,-7.84,1729475832614.0,0.0
-1.021735,-3.125026,4.163511,-51.73,-55.09,14.77,1729475832630.0,0.0
-1.395016,-4.993821,0.894916,-56.98,-76.300003,55.93,1729475832651.0,0.0
-0.844666,-7.302894,-1.39023,-23.1,-76.370003,73.849998,1729475832670.0,0.0
-1.476372,-8.106883,-3.163311,-14.56,-74.620003,93.660004,1729475832689.0,0.0
-4.096512,-13.411771,-3.278167,16.24,-46.689999,113.82,1729475832734.0,0.0
-7.21436,-19.3029,-3.144169,-45.290001,-43.889999,70.349998,1729475832741.0,0.0
-7.300502,-19.013369,-5.209175,-65.800003,-18.129999,32.549999,1729475832750.0,0.0
-4.536791,-13.263416,-6.206983,-48.650002,20.440001,-21.210001,1729475832770.0,0.0
-2.895315,-14.062619,-3.438486,10.99,48.16,-30.450001,1729475832790.0,0.0
-1.98365,-11.933006,-2.337788,-5.74,58.66,-59.080002,1729475832810.0,0.0
-1.208375,-9.35833,-2.120041,6.51,66.010002,-59.150002,1729475832838.0,0.0
-0.823131,-9.336794,-0.342174,16.379999,65.309998,-65.239998,1729475832849.0,0.0
-0.964308,-7.467999,0.141177,12.39,61.110001,-66.989998,1729475832869.0,0.0
-0.552742,-6.068198,2.883351,86.730003,51.099998,-42.209999,1729475832889.0,0.0
-1.789831,-5.793024,5.04407,57.330002,29.610001,-31.85,1729475832997.0,0.0
-2.768496,-7.724032,5.879165,-7.49,-7.42,-22.540001,1729475833000.0,0.0
-1.962115,-7.384251,3.479164,-73.010002,-52.220001,-27.719999,1729475833001.0,0.0
0.100499,-5.209175,0.232104,-41.16,-64.75,1.96,1729475833003.0,0.0
1.055235,-3.141776,-1.447658,19.879999,-56.77,36.540001,1729475833004.0,0.0
0.12682,-5.32403,-0.701097,54.25,-41.439999,77.559998,1729475833078.0,0.0
-2.677568,-9.272188,0.119641,40.389999,-39.200001,98.840004,1729475833078.0,0.0
-6.271588,-18.630518,-0.859023,-10.64,-41.860001,76.230003,1729475833078.0,0.0
-6.580262,-21.741186,-4.960321,-99.470001,-40.459999,22.469999,1729475833079.0,0.0
-2.711068,-16.237694,-8.12124,-76.93,0.28,-13.65,1729475833088.0,0.0
-1.469193,-13.787444,-5.460421,9.24,48.720001,-31.360001,1729475833110.0,0.0
-2.103291,-11.392227,-3.900301,17.85,80.5,-58.380001,1729475833137.0,0.0
-1.67019,-10.360922,-1.275374,10.57,88.830002,-68.669998,1729475833149.0,0.0
-0.820738,-5.517848,0.887737,26.32,86.309998,-60.41,1729475833169.0,0.0
-0.614955,-3.907479,5.615955,103.949997,67.900002,-34.439999,1729475833191.0,0.0
-2.132005,-1.871187,8.140383,84.559998,39.130001,-23.59,1729475833210.0,0.0
-4.228118,-4.223332,5.345565,-68.25,-27.16,7.42,1729475833229.0,0.0
-4.826324,-5.505885,1.208375,-187.110001,-80.43,6.65,1729475833249.0,0.0
-3.046063,-5.986843,-2.043471,-188.089996,-109.199997,30.1,1729475833270.0,0.0
-2.124826,-6.881758,-3.412165,-133.279999,-103.599998,46.130001,1729475833290.0,0.0
-3.95055,-10.380065,-5.091926,-127.190002,-103.949997,48.720001,1729475833311.0,0.0
-4.232903,-14.541183,-5.871986,-98.910004,-100.519997,34.580002,1729475833331.0,0.0
-3.292524,-14.328221,-4.771288,-10.36,-70.629997,30.17,1729475833349.0,0.0
-2.648855,-11.332408,-3.208775,2.45,-49.279999,14.28,1729475833369.0,0.0
-2.421536,-8.039884,-2.579463,-97.580002,-38.220001,7.84,1729475833389.0,0.0
-2.333002,-6.223732,-3.629912,-227.570007,-29.82,5.11,1729475833411.0,0.0
-1.689333,-7.348359,-5.831308,-325.709991,-30.030001,-2.31,1729475833431.0,0.0
-1.253839,-8.49452,-7.267002,-356.440002,-21.700001,-1.96,1729475833449.0,0.0
-1.038485,-9.207582,-8.226524,-292.600006,-12.6,-1.82,1729475833470.0,0.0
-0.926022,-8.362915,-8.102098,-194.809998,-8.96,-0.63,1729475833491.0,0.0
-1.002593,-6.599405,-8.190632,-125.160004,-7.77,3.85,1729475833511.0,0.0
-1.344766,-5.965307,-8.561519,-129.570007,-2.45,1.75,1729475833530.0,0.0
-1.911865,-6.240481,-8.786445,-172.619995,2.38,-2.66,1729475833550.0,0.0
-2.06022,-5.996413,-8.717053,-186.759995,2.31,-7.14,1729475833568.0,0.0
-2.273181,-5.479564,-9.140583,-159.669998,4.13,-7.84,1729475833589.0,0.0
-2.54357,-4.859823,-8.903693,-125.93,7.77,-6.65,1729475833611.0,0.0
-2.411965,-3.881158,-9.202796,-102.269997,8.05,-2.52,1729475833629.0,0.0
-2.139183,-2.773281,-9.664611,-98.910004,6.51,5.04,1729475833650.0,0.0
-1.90708,-3.244668,-11.069198,-88.900002,5.46,14.77,1729475833671.0,0.0
-1.883151,-4.132405,-11.255837,-43.330002,18.48,30.380001,1729475833691.0,0.0
-2.304288,-3.651447,-7.647461,16.66,35.91,41.299999,1729475833710.0,0.0
-4.182654,-1.98365,-5.075177,-48.93,48.580002,33.529999,1729475833729.0,0.0
-4.041477,-3.457629,-8.446664,-121.239998,4.76,19.950001,1729475833749.0,0.0
-3.132205,-7.168896,-10.095319,-130.130005,-15.26,10.15,1729475833770.0,0.0
-2.105684,-9.339187,-12.141183,-56.630001,-12.74,-10.01,1729475833791.0,0.0
-2.419144,-5.98445,-10.58824,18.969999,26.25,-22.33,1729475833810.0,0.0
-2.974278,-4.304688,-9.320045,53.900002,29.540001,-33.599998,1729475833829.0,0.0
-2.304288,-4.587041,-8.815158,43.470001,13.440001,-44.450001,1729475833852.0,0.0
-1.954936,-4.383651,-7.13779,45.43,7.35,-51.310001,1729475833870.0,0.0
-2.172683,-1.861616,-9.06162,28.630001,8.68,-59.5,1729475833889.0,0.0
-1.557728,0.4666,-9.454042,14.98,9.1,-43.119999,1729475833910.0,0.0
-1.387837,1.442872,-8.204988,-18.48,10.36,-22.469999,1729475833934.0,0.0
-1.141376,-0.160319,-9.245867,-42.630001,0.91,-0.49,1729475833949.0,0.0
0.179462,-1.916651,-9.722038,-62.16,-11.9,3.64,1729475833970.0,0.0
0.342174,-2.517249,-9.590433,-50.75,-7.07,6.3,1729475833990.0,0.0
-0.997807,-2.689533,-11.23191,0.14,-3.36,18.129999,1729475834009.0,0.0
-3.148954,-2.141576,-8.573483,16.870001,10.15,23.66,1729475834030.0,0.0
-4.704289,-1.78026,-10.777272,24.710001,21.91,37.869999,1729475834048.0,0.0
-4.491328,-3.096312,-8.798409,13.51,11.34,47.740002,1729475834068.0,0.0
-3.816552,-4.953143,-7.948956,-53.830002,8.89,37.52,1729475834091.0,0.0
-1.495514,-6.690332,-10.480563,-53.41,-20.65,23.59,1729475834110.0,0.0
-0.684347,-6.814759,-10.971091,9.24,-8.12,6.58,1729475834129.0,0.0
-1.507478,-5.460421,-9.24108,57.119999,9.8,-11.76,1729475834150.0,0.0
-1.837688,-2.45025,-9.71486,48.860001,15.4,-28.91,1729475834168.0,0.0
-2.63689,-1.447658,-9.128618,16.52,18.059999,-35.84,1729475834189.0,0.0
-2.191825,-1.239482,-8.592626,-14.49,5.53,-37.099998,1729475834209.0,0.0
-2.165504,-0.287139,-7.4345,-42.349998,3.22,-27.58,1729475834229.0,0.0
-1.89033,-0.89013,-8.982656,-35.209999,-9.52,-13.51,1729475834250.0,0.0
-0.658026,-0.918844,-10.030712,-17.08,-14.7,-13.51,1729475834270.0,0.0
-0.18664,-1.182054,-8.690732,-27.23,-18.549999,4.97,1729475834289.0,0.0
-0.725025,-1.146162,-7.712067,-42.07,-12.95,10.29,1729475834311.0,0.0
-1.459622,-2.651247,-6.982256,-9.52,-25.059999,24.85,1729475834329.0,0.0
-2.553142,-3.39063,-11.009377,15.12,-34.509998,33.459999,1729475834348.0,0.0
-4.938786,-3.751946,-9.097511,29.4,-17.639999,41.23,1729475834368.0,0.0
-5.802595,-3.651447,-11.286944,25.059999,-8.26,37.240002,1729475834389.0,0.0
-3.804588,-3.244668,-10.844273,7.63,-15.61,25.690001,1729475834411.0,0.0
-2.215754,-1.933401,-10.892128,-62.16,-12.46,12.81,1729475834428.0,0.0
-1.469193,-4.749753,-10.10489,-98.629997,-19.74,3.71,1729475834450.0,0.0
-1.038485,-8.255238,-11.547763,-26.530001,-16.1,-3.57,1729475834468.0,0.0
-1.040878,-5.996413,-11.693724,83.580002,6.65,-25.549999,1729475834489.0,0.0
-2.684747,-1.289732,-11.97847,120.190002,29.540001,-38.709999,1729475834512.0,0.0
-3.878766,0.399601,-9.183653,55.16,41.439999,-45.009998,1729475834528.0,0.0
-2.993421,-1.998007,-7.250252,-30.24,14.49,-43.540001,1729475834548.0,0.0
-2.323431,-3.177669,-7.123433,-63.98,-6.44,-41.369999,1729475834569.0,0.0
-2.287539,-2.565106,-8.420342,-9.24,-5.32,-30.52,1729475834590.0,0.0
-1.634298,-0.512064,-8.413164,40.459999,-11.69,-22.190001,1729475834612.0,0.0
-0.76331,0.698704,-9.913465,47.880001,-21.84,-5.18,1729475834630.0,0.0
-1.045663,-0.602991,-10.009177,8.82,-23.73,10.64,1729475834648.0,0.0
-2.947958,-3.522235,-10.561919,-10.36,-7.91,28.139999,1729475834668.0,0.0
-2.758924,-4.766503,-10.480563,43.470001,-14.42,35.560001,1729475834690.0,0.0
-2.667997,-3.184847,-10.370493,99.050003,7.42,35.490002,1729475834716.0,0.0
-2.801995,-1.153341,-8.956335,86.029999,16.1,35.209999,1729475834728.0,0.0
-2.531606,-2.230111,-10.738988,24.780001,7.77,33.810001,1729475834748.0,0.0
-2.531606,-5.094319,-10.375278,-27.370001,8.05,30.73,1729475834767.0,0.0
-2.715853,-6.881758,-10.169496,-17.01,10.57,20.719999,1729475834788.0,0.0
-2.445465,-6.376873,-9.245867,44.73,19.879999,2.1,1729475834809.0,0.0
-2.172683,-4.338188,-7.65464,96.669998,24.219999,-16.940001,1729475834829.0,0.0
-2.127219,-3.029313,-8.559127,91.699997,17.290001,-28.139999,1729475834848.0,0.0
-2.962314,-1.634298,-5.735595,50.959999,17.15,-31.85,1729475834868.0,0.0
-2.11047,-1.828116,-7.290931,-35.349998,-5.11,-36.330002,1729475834890.0,0.0
-1.562513,-1.701297,-7.712067,-65.870003,-19.6,-13.02,1729475834921.0,0.0
-1.971686,-1.864009,-9.341579,-27.299999,-15.4,6.86,1729475834932.0,0.0
-2.24686,-2.837888,-8.831908,39.619999,-12.53,29.26,1729475834949.0,0.0
-1.59362,-3.656233,-8.142776,63.420002,-21.77,34.02,1729475834968.0,0.0
-2.935993,-3.479164,-8.317451,50.189999,-19.32,37.52,1729475834990.0,0.0
-4.701896,-5.309673,-11.830115,3.85,-19.040001,36.540001,1729475835010.0,0.0
-4.953143,-8.872586,-11.964113,1.4,-15.61,30.17,1729475835028.0,0.0
-3.878766,-8.126025,-11.01177,48.860001,6.02,15.54,1729475835048.0,0.0
-1.801795,-4.311867,-10.061819,96.32,26.880001,2.03,1729475835069.0,0.0
-1.07677,-1.033699,-10.396815,72.379997,39.970001,6.16,1729475835089.0,0.0
-1.67019,-2.68714,-9.176475,2.38,38.639999,13.23,1729475835109.0,0.0
-1.954936,-6.072984,-8.571091,-20.65,33.18,18.129999,1729475835128.0,0.0
-1.174876,-7.920243,-7.15454,13.72,32.200001,6.3,1729475835150.0,0.0
-0.971486,-4.438686,-2.22054,31.85,25.83,-15.68,1729475835170.0,0.0
-3.026921,-7.046863,-5.194818,7.98,-8.96,-32.200001,1729475835189.0,0.0
-2.165504,-7.278966,-5.130211,11.06,-32.200001,-49.279999,1729475835209.0,0.0
-3.400201,-0.851845,-7.647461,11.83,-45.639999,-43.400002,1729475835229.0,0.0
-5.496314,-1.208375,-14.543575,14.77,-30.870001,-1.75,1729475835249.0,0.0
-5.845665,-5.517848,-13.990833,-5.81,-27.790001,18.48,1729475835268.0,0.0
-4.778467,-7.166504,-8.35813,30.450001,-5.25,34.93,1729475835290.0,0.0
-1.677369,-4.144369,-6.987042,64.330002,-1.68,19.67,1729475835308.0,0.0
-2.151148,-2.526821,-10.944772,52.360001,3.15,28.210001,1729475835329.0,0.0
-2.840281,-3.242275,-7.872386,-0.7,27.58,29.33,1729475835348.0,0.0
-1.430908,-6.24766,-8.729016,-76.230003,14.77,21.91,1729475835369.0,0.0
1.531406,-8.812766,-2.56032,-59.360001,-1.05,8.54,1729475835389.0,0.0
0.827917,-9.343972,-7.793423,-24.219999,-13.72,-13.51,1729475835410.0,0.0
-3.464807,-8.178668,-10.052249,7.21,3.01,-42.77,1729475835428.0,0.0
-4.900501,-6.644868,-7.415358,-9.17,3.22,-63.07,1729475835447.0,0.0
-3.579663,-3.290131,-7.910671,-34.369999,-16.870001,-62.439999,1729475835470.0,0.0
-3.732803,-1.698904,-9.521042,17.780001,-17.639999,-28.77,1729475835489.0,0.0
-3.955336,-3.369094,-10.222138,42.139999,-3.36,-2.38,1729475835509.0,0.0
-4.498507,-5.326423,-12.03829,29.190001,4.55,9.31,1729475835529.0,0.0
-3.117848,-4.481757,-8.69791,78.400002,20.16,15.54,1729475835549.0,0.0
-1.251446,-2.739782,-6.513263,52.290001,3.29,10.36,1729475835568.0,0.0
-2.971886,-3.74716,-10.990234,-13.72,16.309999,5.32,1729475835589.0,0.0
-2.696711,-4.673182,-11.279767,-43.470001,23.940001,2.66,1729475835608.0,0.0
-1.232304,-3.239882,-5.000999,-52.150002,27.370001,5.11,1729475835628.0,0.0
-0.856631,-7.259824,-4.441079,-29.610001,0.56,11.69,1729475835650.0,0.0
-1.473979,-8.836694,-7.73121,-41.790001,-13.37,-21.559999,1729475835669.0,0.0
-3.385844,-7.257431,-7.472785,-4.06,-8.05,-31.360001,1729475835688.0,0.0
-2.574677,-4.070191,-6.908078,-10.99,-17.85,-44.939999,1729475835713.0,0.0
-1.162912,-3.491128,-7.420143,-12.6,-33.110001,-29.75,1729475835728.0,0.0
-4.917251,-4.816752,-8.685946,-21.559999,-22.540001,-7.07,1729475835747.0,0.0
-5.273781,-7.051648,-13.414164,2.94,-17.15,0.63,1729475835768.0,0.0
-4.292724,-4.785645,-11.655439,45.290001,16.309999,15.12,1729475835788.0,0.0
-1.399801,-3.680161,-6.022735,91.910004,23.66,28.700001,1729475835809.0,0.0
-0.272782,-2.847459,-10.243673,85.540001,15.61,35.0,1729475835829.0,0.0
-2.316252,-0.667598,-9.422935,46.34,49.420002,43.259998,1729475835848.0,0.0
-3.725625,-3.656233,-4.802395,-22.4,52.080002,50.610001,1729475835867.0,0.0
-1.004985,-8.989835,-1.852045,-88.340004,21.700001,39.619999,1729475835888.0,0.0
0.122034,-12.997812,-5.802595,-57.75,-30.73,2.8,1729475835909.0,0.0
-4.139583,-10.066606,-7.99442,-24.290001,-7.7,-45.5,1729475835930.0,0.0
-5.197211,-7.286145,-6.128019,-2.73,-12.53,-64.470001,1729475835948.0,0.0
-2.830709,-3.347559,-6.656832,-38.639999,-38.290001,-66.360001,1729475835967.0,0.0
-1.730011,-2.912065,-8.77448,-7.14,-55.860001,-36.259998,1729475835988.0,0.0
-4.701896,-3.098706,-13.878372,21.42,-11.41,-4.48,1729475836009.0,0.0
-5.759524,-2.823531,-12.399607,27.02,-1.26,13.23,1729475836029.0,0.0
-4.601398,-3.412165,-8.738588,42.279999,19.25,24.92,1729475836047.0,0.0
-0.39003,-3.416951,-4.622933,49.84,-2.17,24.43,1729475836068.0,0.0
0.11007,-4.441079,-8.709875,30.24,-16.030001,22.960001,1729475836089.0,0.0
-2.572284,-4.376472,-10.997414,-2.59,20.58,12.74,1729475836110.0,0.0
-3.646662,-3.948158,-8.116454,-22.26,38.43,14.98,1729475836128.0,0.0
-1.40698,-5.185246,-7.922636,-53.41,10.08,11.48,1729475836147.0,0.0
-1.361516,-6.07777,-2.519642,-47.040001,13.72,9.8,1729475836167.0,0.0
-2.402394,-9.332008,-9.568897,-34.09,-28.139999,-8.19,1729475836190.0,0.0
-6.21416,-8.956335,-8.195417,-40.670002,2.52,-44.66,1729475836210.0,0.0
-2.043471,-3.302095,-7.77428,6.72,-15.75,-48.93,1729475836229.0,0.0
-1.842474,-2.493321,-5.228317,22.610001,-27.02,-21.07,1729475836247.0,0.0
-3.330809,-5.036892,-13.464413,12.11,-17.08,-0.91,1729475836267.0,0.0
-3.586841,-4.165904,-12.614961,12.74,-1.05,12.32,1729475836289.0,0.0
-3.701697,-4.235296,-9.982857,27.16,28.210001,21.139999,1729475836309.0,0.0
-0.827917,-4.704289,-5.242674,46.130001,14.77,22.540001,1729475836328.0,0.0
-0.401994,-5.687739,-8.927622,72.169998,5.18,24.290001,1729475836347.0,0.0
-2.538785,-4.393222,-10.695917,60.27,42.279999,17.08,1729475836368.0,0.0
-2.598605,-2.945565,-7.489535,5.95,56.349998,17.639999,1729475836389.0,0.0
-1.995614,-3.421736,-1.65344,-65.660004,32.060001,18.9,1729475836411.0,0.0
-0.770489,-9.585647,-1.655833,-73.639999,-20.65,7.63,1729475836428.0,0.0
-2.191825,-11.686546,-10.262815,-49.77,-42.84,-17.92,1729475836447.0,0.0
-6.474977,-8.961121,-9.52822,-33.599998,1.82,-59.779999,1729475836467.0,0.0
-4.694718,-5.99402,-7.463214,-6.09,-23.940001,-54.529999,1729475836489.0,0.0
-0.358923,-3.220739,-7.317252,12.53,-42.209999,-49.139999,1729475836508.0,0.0
-3.402594,-1.875973,-6.84108,33.599998,-28.84,-19.32,1729475836527.0,0.0
-6.245267,-5.647062,-13.58166,21.629999,-25.48,-9.03,1729475836549.0,0.0
-4.910072,-3.680161,-12.401999,25.48,-0.21,6.3,1729475836569.0,0.0
-1.617548,-3.18724,-8.819944,49.279999,15.190001,15.96,1729475836590.0,0.0
0.662812,-3.129812,-8.465806,56.279999,8.05,21.280001,1729475836608.0,0.0
-1.119841,-3.699304,-12.052648,24.99,31.43,24.99,1729475836628.0,0.0
-2.828316,-1.732404,-9.068797,-18.27,71.68,21.98,1729475836648.0,0.0
-2.371287,-5.173282,-4.321437,-65.309998,51.310001,27.23,1729475836667.0,0.0
-1.718047,-6.532406,2.682354,-106.400002,22.33,18.059999,1729475836687.0,0.0
-0.662812,-12.882957,-8.013563,-59.639999,-51.59,-1.05,1729475836712.0,0.0
-4.76411,-11.12184,-9.578469,-41.93,-9.24,-53.27,1729475836727.0,0.0
-5.065606,-7.216753,-8.640482,12.32,-12.11,-59.43,1729475836747.0,0.0
-1.832902,-3.955336,-6.4678,25.27,-26.74,-48.580002,1729475836768.0,0.0
-2.708675,-2.490928,-4.613362,31.01,-34.509998,-23.309999,1729475836789.0,0.0
-5.237889,-1.397408,-12.490535,13.65,-14.21,-1.4,1729475836808.0,0.0
-4.697111,-3.802195,-13.253844,4.41,-21.700001,13.37,1729475836828.0,0.0
-3.54377,-4.505685,-12.466606,16.799999,10.5,22.049999,1729475836847.0,0.0
-1.430908,-4.627719,-8.123632,40.25,24.08,18.969999,1729475836870.0,0.0
-0.528814,-4.601398,-9.437292,54.740002,14.35,13.86,1729475836891.0,0.0
-2.069792,-4.125226,-9.80818,32.830002,45.57,8.4,1729475836908.0,0.0
-1.911865,-3.069991,-3.199204,7.28,56.209999,18.76,1729475836930.0,0.0
-1.646262,-1.799403,-2.038685,-58.939999,15.96,22.68,1729475836947.0,0.0
-2.213361,-9.868,-5.941379,-60.689999,-29.68,16.450001,1729475836970.0,0.0
-5.63749,-13.081561,-8.80798,-70.0,-28.07,-28.84,1729475836987.0,0.0
-4.673182,-9.894321,-8.769694,-14.63,-26.110001,-65.239998,1729475837008.0,0.0
-1.22034,-4.582255,-5.9677,55.439999,-34.299999,-51.66,1729475837028.0,0.0
-1.677369,-0.421137,-6.460621,38.360001,-34.720001,-38.849998,1729475837048.0,0.0
-3.732803,-3.661019,-13.942977,-9.24,-48.09,-12.46,1729475837069.0,0.0
-5.879165,-4.859823,-12.634104,-53.060001,-6.65,0.49,1729475837087.0,0.0
-6.563512,-4.431508,-11.447264,-19.6,17.57,13.37,1729475837110.0,0.0
-2.718246,-4.835894,-8.872586,62.299999,16.73,19.950001,1729475837129.0,0.0
-0.043071,-2.313859,-10.573883,93.169998,13.09,21.42,1729475837148.0,0.0
-0.172283,-1.12702,-8.346166,71.959999,38.360001,29.889999,1729475837168.0,0.0
-2.455036,-1.074377,-6.592227,9.31,65.730003,44.170002,1729475837187.0,0.0
-2.292324,-5.115855,-3.462414,-59.849998,51.170002,43.400002,1729475837278.0,0.0
-0.911665,-10.561919,-2.124826,-104.300003,5.25,37.240002,1729475837281.0,0.0
-2.414358,-13.998013,-9.470792,-60.760002,-45.57,-18.200001,1729475837282.0,0.0
-5.386244,-10.533205,-9.937392,-54.040001,-7.21,-74.900002,1729475837282.0,0.0
-2.921637,-5.412565,-8.65484,26.6,-30.380001,-62.439999,1729475837287.0,0.0
-1.883151,-2.828316,-4.529613,53.48,-36.330002,-39.27,1729475837308.0,0.0
-4.539185,-0.533599,-11.155338,-7.49,-17.639999,-18.620001,1729475837328.0,0.0
-5.802595,-5.151747,-15.931413,-25.41,-27.51,0.63,1729475837347.0,0.0
-6.498906,-5.075177,-12.335001,-12.6,30.799999,10.15,1729475837367.0,0.0
-3.48395,-3.98405,-7.585248,59.360001,28.49,22.190001,1729475837388.0,0.0
-0.468993,-3.323631,-8.539984,94.220001,15.89,21.07,1729475837408.0,0.0
-1.024128,-1.514657,-9.293723,63.91,40.389999,17.43,1729475837428.0,0.0
-2.069792,-0.646062,-6.199803,-6.79,69.650002,30.24,1729475837448.0,0.0
-1.837688,-3.120241,-4.788038,-83.720001,38.43,29.190001,1729475837467.0,0.0
-1.177269,-8.039884,1.052842,-83.510002,3.36,29.4,1729475837487.0,0.0
-0.332602,-12.435498,-7.458428,-40.25,-56.560001,3.22,1729475837509.0,0.0
-4.419543,-10.080962,-9.140583,-62.299999,-13.86,-59.360001,1729475837527.0,0.0
-5.335995,-7.470392,-9.549755,-39.970001,-27.02,-74.129997,1729475837546.0,0.0
-0.059821,-2.677568,-8.176274,-18.059999,-48.439999,-66.290001,1729475837567.0,0.0
-3.711268,-0.854238,-7.958528,5.88,-38.220001,-25.34,1729475837586.0,0.0
-6.625726,-5.06082,-14.452648,40.880001,-18.83,-2.17,1729475837608.0,0.0
-7.503892,-4.146761,-13.28495,28.84,21.139999,10.22,1729475837628.0,0.0
-5.374279,-3.622734,-10.652846,47.32,26.110001,19.809999,1729475837646.0,0.0
-1.320838,-3.964907,-9.430114,50.049999,14.84,12.81,1729475837667.0,0.0
-0.124427,-2.883351,-10.604989,47.740002,31.92,14.91,1729475837687.0,0.0
-0.942772,-0.624527,-8.429914,35.349998,62.439999,23.17,1729475837715.0,0.0
-1.533799,-3.936193,-3.960121,-5.95,67.059998,33.880001,1729475837727.0,0.0
-1.014557,-2.268396,-0.387637,-78.190002,37.52,28.84,1729475837746.0,0.0
-0.741775,-10.461421,-3.943372,-43.68,-17.5,25.620001,1729475837766.0,0.0
-2.35693,-11.511869,-8.525627,-56.560001,-36.119999,-27.16,1729475837786.0,0.0
-5.288138,-9.308081,-9.006584,-54.389999,-8.05,-69.370003,1729475837809.0,0.0
-3.364309,-6.273981,-8.233703,-12.32,-37.099998,-66.989998,1729475837828.0,0.0
-0.674776,-3.160919,-8.056634,21.559999,-49.91,-54.040001,1729475837846.0,0.0
-3.682554,-1.158126,-8.243275,34.720001,-29.75,-15.89,1729475837867.0,0.0
-6.34098,-4.031906,-14.730216,16.450001,-17.43,1.12,1729475837889.0,0.0
-6.171089,-4.84068,-13.272987,15.82,27.16,20.790001,1729475837908.0,0.0
-3.194418,-3.89073,-8.630912,54.670002,28.91,21.35,1729475837929.0,0.0
-0.196211,-4.292724,-8.061419,89.040001,18.76,19.460001,1729475837948.0,0.0
-0.100499,-3.012564,-9.643075,59.709999,33.880001,11.13,1729475837967.0,0.0
-1.299303,-0.37328,-7.609176,0.7,61.529999,12.67,1729475837989.0,0.0
-1.198804,-4.182654,-4.517649,-58.939999,41.439999,25.549999,1729475838009.0,0.0
-0.942772,-4.900501,-2.608176,-116.620003,21.700001,21.42,1729475838028.0,0.0
-0.806381,-10.834702,-4.39083,-68.32,-16.450001,13.58,1729475838047.0,0.0
-3.24706,-11.100305,-9.236296,-39.619999,-26.460001,-23.940001,1729475838067.0,0.0
-5.120641,-8.4347,-9.779467,-16.17,-4.2,-59.220001,1729475838088.0,0.0
-2.493321,-5.850451,-8.475377,6.02,-32.830002,-53.549999,1729475838109.0,0.0
-0.303888,-3.007778,-6.733403,23.309999,-43.540001,-42.91,1729475838126.0,0.0
-3.184847,-0.445065,-8.233703,21.280001,-25.690001,-16.59,1729475838147.0,0.0
-5.558527,-4.333402,-15.467206,28.210001,-23.799999,8.82,1729475838168.0,0.0
-5.888737,-3.883551,-14.400006,19.389999,12.04,19.67,1729475838188.0,0.0
-5.106283,-3.897908,-10.490135,54.740002,37.029999,30.24,1729475838207.0,0.0
-1.828116,-4.31426,-8.831908,79.239998,27.299999,23.870001,1729475838227.0,0.0
-0.784846,-1.083949,-9.126225,33.880001,45.639999,12.11,1729475838248.0,0.0
-1.11027,-1.328017,-5.462814,-14.91,51.240002,27.790001,1729475838266.0,0.0
-1.234696,-5.132604,-6.345766,-85.68,32.619999,30.030001,1729475838289.0,0.0
-0.557528,-7.611568,-1.007378,-112.419998,14.77,18.34,1729475838307.0,0.0
0.064606,-11.344372,-6.118448,-49.490002,-40.950001,5.04,1729475838328.0,0.0
-3.352344,-9.174082,-8.927622,-26.950001,-14.63,-40.810001,1729475838347.0,0.0
-5.900701,-6.829116,-9.600004,-15.4,-6.3,-55.860001,1729475838368.0,0.0
-3.505485,-4.577469,-9.12144,-5.46,-35.139999,-47.810001,1729475838389.0,0.0
0.090927,-2.830709,-7.9011,11.69,-48.369999,-34.299999,1729475838407.0,0.0
-2.134398,-3.479164,-5.735595,20.09,-36.82,-5.53,1729475838426.0,0.0
-6.111269,-3.215954,-13.155738,-0.07,3.15,5.18,1729475838448.0,0.0
-6.259624,-3.498307,-15.223137,11.69,-6.23,19.460001,1729475838469.0,0.0
-4.606184,-4.249653,-11.052447,58.099998,28.700001,29.82,1729475838488.0,0.0
-1.847259,-5.144568,-7.190433,84.279999,20.719999,28.559999,1729475838507.0,0.0
-1.172483,-2.74696,-9.023334,71.050003,25.76,14.35,1729475838529.0,0.0
-2.091327,-1.134198,-8.238488,36.540001,47.810001,21.139999,1729475838549.0,0.0
-1.189233,-6.161518,-6.063413,-23.379999,32.689999,24.99,1729475838567.0,0.0
-0.0335,-5.359922,-1.76351,-110.18,8.75,2.45,1729475838587.0,0.0
0.050249,-9.255438,-7.307681,-46.41,-40.389999,1.05,1729475838607.0,0.0
-3.249453,-8.764909,-9.930215,-30.1,-12.74,-38.080002,1729475838628.0,0.0
-5.828916,-7.123433,-9.875179,-27.370001,0.28,-55.02,1729475838649.0,0.0
-2.868994,-4.938786,-8.764909,-2.31,-29.68,-48.439999,1729475838666.0,0.0
-0.133998,-4.321437,-6.879365,33.040001,-40.740002,-33.32,1729475838686.0,0.0
-2.723032,-3.014957,-6.484549,33.880001,-21.280001,-12.67,1729475838708.0,0.0
-4.721039,-3.536592,-13.560125,-11.55,-27.58,-5.18,1729475838726.0,0.0
-4.84068,-4.206582,-15.220744,-42.420002,-9.45,4.48,1729475838747.0,0.0
-4.709075,-4.546363,-12.189038,10.71,36.400002,20.65,1729475838766.0,0.0
-2.268396,-4.752146,-7.685746,101.5,33.740002,31.99,1729475838786.0,0.0
-1.138984,-3.378666,-9.686146,130.690002,37.380001,22.540001,1729475838809.0,0.0
-1.727618,-0.777667,-7.865208,69.019997,62.510002,15.190001,1729475838827.0,0.0
-1.5003,-3.474378,-3.830909,-12.67,45.360001,19.389999,1729475838847.0,0.0
-1.342373,-4.012764,-4.59422,-101.779999,28.210001,13.23,1729475838866.0,0.0
-0.421137,-9.635897,-5.690133,-85.68,-0.91,9.59,1729475838888.0,0.0
-3.397808,-9.999605,-8.889337,-31.92,-30.870001,-4.34,1729475838907.0,0.0
-5.816952,-7.456036,-8.267202,-6.37,0.28,-52.43,1729475838929.0,0.0
-3.141776,-4.127619,-8.425128,12.32,-26.74,-44.869999,1729475838948.0,0.0
0.454636,-3.232704,-6.762117,29.960001,-46.27,-27.51,1729475838966.0,0.0
0.098106,-4.488935,-6.692725,18.27,-46.41,-2.17,1729475838988.0,0.0
-3.996014,-3.816552,-8.817552,-45.150002,-18.83,-4.55,1729475839008.0,0.0
-6.23091,-4.603791,-11.971292,-62.790001,-17.780001,-1.05,1729475839029.0,0.0
-5.288138,-2.95035,-10.066606,-58.380001,-13.93,2.31,1729475839047.0,0.0
-4.067799,-4.919643,-10.188639,-23.73,-14.98,10.43,1729475839066.0,0.0
-3.359523,-6.534799,-10.004392,10.71,-3.64,5.53,1729475839086.0,0.0
-3.223132,-6.898508,-9.339187,47.529999,4.97,-7.56,1729475839108.0,0.0
-3.101098,-6.436693,-8.673983,61.810001,14.77,-18.059999,1729475839127.0,0.0
-2.529213,-6.089733,-8.477771,37.029999,15.4,-30.799999,1729475839145.0,0.0
-2.112862,-6.254838,-8.721838,-20.719999,14.14,-42.98,1729475839167.0,0.0
-1.629512,-5.13739,-9.107083,-74.480003,17.01,-46.130001,1729475839187.0,0.0
-0.959522,-3.830909,-8.078169,-104.860001,16.1,-35.630001,1729475839207.0,0.0
-0.437887,-4.216154,-7.9681,-104.160004,6.79,-13.440001,1729475839226.0,0.0
-0.351745,-5.565705,-7.257431,-35.84,-1.61,9.73,1729475839246.0,0.0
-1.426122,-4.400401,-7.453642,24.99,-3.78,19.530001,1729475839267.0,0.0
-1.866402,-1.026521,-7.752745,64.330002,-1.54,34.09,1729475839286.0,0.0
-2.596212,-0.624527,-9.542577,12.88,15.54,39.34,1729475839309.0,0.0
-2.919244,-2.411965,-11.131411,-39.34,-8.26,58.52,1729475839327.0,0.0
-2.251646,-2.979064,-11.370694,-11.27,-20.23,71.330002,1729475839346.0,0.0
-2.057827,-2.892922,-9.973285,77.209999,-13.58,81.410004,1729475839368.0,0.0
-2.249253,-4.15394,-8.673983,147.139999,9.8,72.379997,1729475839387.0,0.0
-3.416951,-1.904687,-9.262616,117.459999,33.529999,63.84,1729475839408.0,0.0
-4.424329,-0.681954,-13.229917,36.470001,45.290001,44.73,1729475839427.0,0.0
-5.005785,-2.737389,-13.435699,-22.82,59.709999,23.52,1729475839446.0,0.0
