acc_x,acc_y,acc_z,gyr_x,gyr_y,gyr_z,timestamp,label
-0.859023,-4.558327,-7.300502,100.169998,-31.43,-26.110001,1729422046677.0,0.0
-1.07677,-4.302295,-6.556334,63.560001,-52.220001,-24.15,1729422046697.0,0.0
-0.76331,-3.270989,-6.814759,-21.0,-87.779999,-27.719999,1729422046716.0,0.0
-0.98345,-3.239882,-6.640083,-100.239998,-96.389999,-23.940001,1729422046735.0,0.0
-2.876173,-5.187639,-9.954143,-167.229996,-56.630001,-22.4,1729422046756.0,0.0
-4.371687,-5.034499,-10.971091,-165.899994,-1.75,-19.040001,1729422046777.0,0.0
-5.228317,-4.924429,-12.574283,-116.059998,-7.77,-8.75,1729422046797.0,0.0
-4.584648,-3.881158,-12.662818,-61.389999,-40.389999,1.82,1729422046817.0,0.0
-3.684947,-2.914458,-10.336994,-31.15,-45.360001,12.39,1729422046836.0,0.0
-3.259024,-1.866402,-9.662218,-41.93,-21.0,13.65,1729422046856.0,0.0
-3.701697,-2.258825,-9.521042,-48.369999,9.17,15.75,1729422046878.0,0.0
-4.297509,-3.041277,-9.643075,-55.23,20.58,13.86,1729422046897.0,0.0
-4.713861,-4.496114,-9.851252,-60.34,19.389999,14.28,1729422046916.0,0.0
-4.065405,-5.716454,-9.982857,-24.219999,5.81,3.22,1729422046936.0,0.0
-3.304488,-4.168297,-9.152546,27.299999,-16.450001,-1.54,1729422046956.0,0.0
-2.718246,-2.672783,-7.575676,38.639999,-18.48,-9.59,1729422046977.0,0.0
-2.821138,-3.708875,-7.771888,18.76,-6.93,-22.190001,1729422046997.0,0.0
-2.768496,-4.376472,-8.592626,0.63,4.06,-34.860001,1729422047016.0,0.0
-2.428715,-3.476771,-8.55434,3.22,-17.639999,-38.990002,1729422047036.0,0.0
-2.160719,-2.189433,-8.628519,5.74,-35.490002,-37.240002,1729422047057.0,0.0
-2.074577,-1.194018,-7.21436,-4.55,-32.130001,-39.689999,1729422047077.0,0.0
-2.885744,0.028714,-8.647661,-25.27,-11.41,-24.99,1729422047098.0,0.0
-3.127419,0.031107,-9.772287,-47.810001,-21.210001,-17.710001,1729422047116.0,0.0
-3.002992,-1.009771,-9.367901,-73.5,-28.49,-0.77,1729422047137.0,0.0
-3.366701,-2.833102,-11.109876,-82.599998,-29.049999,10.85,1729422047158.0,0.0
-3.728018,-4.108476,-10.645668,-75.25,-1.47,8.54,1729422047179.0,0.0
-4.321437,-3.921836,-12.279965,-23.73,14.84,17.219999,1729422047197.0,0.0
-5.312066,-2.053042,-7.860423,39.759998,29.960001,29.469999,1729422047216.0,0.0
-6.573084,-2.56032,-8.85823,14.14,48.439999,29.469999,1729422047237.0,0.0
-5.941379,-4.405186,-10.80838,-14.07,16.1,18.969999,1729422047257.0,0.0
-4.409972,-4.311867,-9.74836,8.05,-7.28,21.84,1729422047278.0,0.0
-3.404987,-3.986443,-9.035298,48.299999,-7.84,14.63,1729422047297.0,0.0
-2.775674,-3.254239,-7.800602,60.830002,3.29,-1.47,1729422047317.0,0.0
-2.617748,-2.395216,-6.716653,42.209999,12.18,-16.030001,1729422047337.0,0.0
-2.849852,-3.39063,-8.29113,3.92,2.17,-29.190001,1729422047357.0,0.0
-2.400001,-4.474578,-8.839087,-29.540001,-7.56,-45.920002,1729422047381.0,0.0
-2.067399,-3.115455,-7.386643,-8.54,-12.39,-44.029999,1729422047397.0,0.0
-2.522035,-0.239282,-7.558927,16.870001,-20.09,-49.209999,1729422047417.0,0.0
-3.256632,1.440479,-7.666604,-37.099998,-0.07,-37.869999,1729422047437.0,0.0
-3.598805,-0.100499,-9.497113,-70.840004,-24.15,-35.349998,1729422047457.0,0.0
-3.402594,-1.07677,-10.061819,-116.199997,-37.73,-21.559999,1729422047478.0,0.0
-3.589234,-2.744568,-13.026526,-101.779999,-31.290001,-6.44,1729422047498.0,0.0
-3.739982,-4.118048,-11.641083,-47.32,-8.89,3.5,1729422047517.0,0.0
-4.254438,-3.507878,-11.095518,8.47,21.559999,17.639999,1729422047536.0,0.0
-4.551149,-2.041078,-9.188439,48.650002,26.950001,23.1,1729422047557.0,0.0
-4.981857,-1.471586,-8.271988,48.650002,32.200001,31.57,1729422047576.0,0.0
-4.718646,-2.734996,-8.200203,36.259998,13.51,31.780001,1729422047597.0,0.0
-4.04387,-3.680161,-8.549555,27.23,-0.77,31.219999,1729422047617.0,0.0
-3.428915,-3.550949,-8.066205,41.299999,-4.2,26.040001,1729422047637.0,0.0
-3.168097,-2.682354,-7.678568,61.810001,0.91,17.639999,1729422047656.0,0.0
-3.510271,-2.282753,-7.178468,56.0,10.01,9.38,1729422047677.0,0.0
-3.964907,-2.335395,-6.9679,25.41,13.58,-2.52,1729422047696.0,0.0
-4.235296,-2.907279,-8.075776,1.33,-3.08,-11.41,1729422047723.0,0.0
-3.689733,-2.979064,-8.678767,-5.46,-21.280001,-19.530001,1729422047735.0,0.0
-3.160919,-2.244468,-8.65484,-12.25,-28.98,-26.809999,1729422047758.0,0.0
-3.132205,-1.153341,-8.348558,-24.92,-18.969999,-30.799999,1729422047777.0,0.0
-3.531806,-0.387637,-8.386844,-33.18,-18.549999,-28.49,1729422047798.0,0.0
-3.45045,-0.0335,-8.906086,-55.720001,-31.639999,-24.290001,1729422047818.0,0.0
-3.735196,-1.727618,-10.942378,-68.32,-35.07,-7.91,1729422047836.0,0.0
-4.12044,-3.732803,-11.227123,-58.380001,-15.47,0.77,1729422047858.0,0.0
-4.419543,-3.359523,-11.301301,-15.05,8.61,13.09,1729422047878.0,0.0
-5.089533,-2.048256,-9.865608,42.560001,24.710001,30.309999,1729422047899.0,0.0
-5.615955,-2.031506,-9.006584,53.970001,36.400002,40.459999,1729422047918.0,0.0
-5.802595,-2.921637,-7.343572,25.27,34.16,40.529999,1729422047936.0,0.0
-5.163712,-4.780859,-8.216952,16.940001,16.17,32.549999,1729422047957.0,0.0
-4.223332,-4.804788,-8.82473,31.99,-1.4,25.690001,1729422047978.0,0.0
-3.431308,-4.010371,-8.673983,52.290001,1.19,13.37,1729422047999.0,0.0
-3.014957,-2.991028,-7.140182,60.34,9.73,5.53,1729422048017.0,0.0
-3.201597,-3.905087,-6.821937,38.360001,14.98,-8.47,1729422048037.0,0.0
-3.634698,-4.079762,-7.721639,2.73,16.24,-24.92,1729422048060.0,0.0
-2.957529,-2.995814,-8.097312,3.78,-15.96,-44.170002,1729422048079.0,0.0
-2.778067,-1.301696,-7.226324,22.889999,-29.4,-45.57,1729422048100.0,0.0
-2.794817,0.921237,-7.702496,-6.23,-20.719999,-44.170002,1729422048119.0,0.0
-3.409772,0.40678,-8.152347,-34.369999,-24.57,-41.02,1729422048139.0,0.0
-3.589234,0.904487,-8.781659,-89.809998,-24.710001,-31.5,1729422048157.0,0.0
-4.101298,-1.823331,-10.049855,-98.489998,-28.49,-13.65,1729422048178.0,0.0
-4.089334,-3.68734,-12.689137,-78.75,-14.84,-5.46,1729422048200.0,0.0
-4.218546,-2.675175,-12.952348,-31.85,-8.61,13.440001,1729422048219.0,0.0
-4.673182,-1.9669,-12.442677,20.65,20.93,28.700001,1729422048237.0,0.0
-6.144768,-2.591427,-9.018548,34.16,57.75,34.16,1729422048259.0,0.0
-7.623533,-3.256632,-8.549555,21.629999,67.340004,38.290001,1729422048279.0,0.0
-7.111469,-4.342973,-8.140383,24.85,30.52,36.330002,1729422048299.0,0.0
-5.35753,-4.898108,-8.449057,35.98,-3.78,35.98,1729422048318.0,0.0
-4.017549,-5.240282,-8.73141,42.630001,-11.83,24.290001,1729422048338.0,0.0
-3.371487,-3.385844,-6.898508,52.080002,3.08,9.24,1729422048358.0,0.0
-3.378666,-3.074777,-6.350551,43.189999,-3.85,-10.22,1729422048382.0,0.0
-3.534199,-4.527221,-8.338986,-3.43,-16.030001,-23.52,1729422048399.0,0.0
-2.835495,-4.48415,-8.755339,-17.01,-27.65,-39.759998,1729422048417.0,0.0
-2.756532,-2.87378,-8.372486,10.36,-35.279999,-37.450001,1729422048441.0,0.0
-2.756532,0.090927,-7.439285,7.0,-32.619999,-43.259998,1729422048457.0,0.0
-3.952943,1.048056,-8.250452,-7.7,-20.299999,-27.16,1729422048479.0,0.0
-4.749753,1.440479,-8.592626,-54.18,-26.110001,-24.639999,1729422048500.0,0.0
-5.371887,0.42353,-11.413764,-85.540001,-29.889999,-3.92,1729422048517.0,0.0
-5.292924,-1.174876,-13.246667,-90.160004,-19.389999,13.37,1729422048538.0,0.0
-5.201996,-3.129812,-13.785051,-37.029999,3.29,30.030001,1729422048559.0,0.0
-5.639884,-2.074577,-10.382458,23.52,31.15,49.139999,1729422048578.0,0.0
-6.096912,-0.79681,-8.425128,59.57,54.599998,61.670002,1729422048599.0,0.0
-6.754939,-1.473979,-7.144968,44.66,42.139999,63.209999,1729422048617.0,0.0
-6.245267,-4.960321,-7.886744,2.03,28.84,48.93,1729422048639.0,0.0
-4.986642,-7.144968,-8.520842,-7.56,15.54,27.58,1729422048657.0,0.0
-3.488736,-6.226124,-6.608976,13.09,2.03,5.18,1729422048680.0,0.0
-3.15374,-5.235496,-7.176075,39.970001,-7.63,-26.460001,1729422048699.0,0.0
-3.148954,-4.019942,-7.594819,26.530001,-10.71,-45.920002,1729422048717.0,0.0
-3.184847,-3.720839,-8.154739,-1.68,-9.03,-59.360001,1729422048738.0,0.0
-2.641676,-2.026721,-8.030313,-17.01,-24.360001,-61.670002,1729422048759.0,0.0
-2.545963,-1.366302,-7.195218,-5.74,-38.849998,-57.75,1729422048780.0,0.0
-2.328217,0.528814,-7.960921,-7.91,-41.860001,-55.299999,1729422048798.0,0.0
-3.632305,2.646462,-9.77468,-18.83,-26.32,-21.210001,1729422048818.0,0.0
-4.828716,3.103491,-9.906286,-56.630001,-5.53,-8.05,1729422048838.0,0.0
-6.195018,-0.557528,-11.578869,-61.810001,6.44,18.27,1729422048858.0,0.0
-6.549156,-2.778067,-11.279767,-49.560001,13.23,22.889999,1729422048878.0,0.0
-5.970093,-1.51705,-9.68136,-26.530001,12.81,28.0,1729422048900.0,0.0
-5.252246,-1.37348,-10.24846,22.75,7.28,55.439999,1729422048917.0,0.0
-5.132604,-1.399801,-9.056834,44.799999,17.15,71.260002,1729422048938.0,0.0
-5.955735,-3.45045,-9.164511,39.27,46.689999,71.120003,1729422048958.0,0.0
-5.936593,-4.845466,-6.589834,42.279999,52.150002,59.990002,1729422048980.0,0.0
-5.180461,-5.297709,-6.168696,44.52,19.389999,49.490002,1729422048998.0,0.0
-4.158726,-6.422336,-7.427321,17.92,-7.14,14.28,1729422049019.0,0.0
-2.768496,-6.738188,-8.566305,-14.28,-17.290001,-42.209999,1729422049037.0,0.0
-2.251646,-5.517848,-9.265009,0.14,-28.210001,-61.599998,1729422049057.0,0.0
-2.012364,-4.067799,-8.623734,2.87,-21.280001,-82.110001,1729422049077.0,0.0
-2.210968,-2.462214,-6.058627,-5.32,-0.28,-92.050003,1729422049098.0,0.0
-2.95035,-0.653241,-6.128019,-14.91,-3.99,-88.620003,1729422049116.0,0.0
-2.964707,0.835095,-8.315059,-21.49,-40.810001,-80.919998,1729422049139.0,0.0
-3.359523,2.749353,-9.518648,-32.060001,-55.439999,-34.439999,1729422049157.0,0.0
-3.656233,1.911865,-9.659825,-55.439999,-35.84,-19.110001,1729422049178.0,0.0
-5.008178,0.394816,-12.540783,-72.730003,5.88,9.03,1729422049198.0,0.0
-6.489335,-1.57687,-12.502499,-50.259998,21.210001,29.610001,1729422049219.0,0.0
-6.549156,-1.801795,-12.370893,-14.49,37.099998,44.52,1729422049237.0,0.0
-6.281159,-1.641476,-9.370294,53.130001,31.08,66.360001,1729422049258.0,0.0
-6.391229,-1.150948,-6.89133,57.189999,36.610001,73.360001,1729422049278.0,0.0
-6.345766,-4.441079,-7.666604,11.76,35.209999,53.34,1729422049301.0,0.0
-5.319244,-6.821937,-7.542177,-14.98,25.969999,24.639999,1729422049318.0,0.0
-3.974478,-6.345766,-7.13779,-2.38,-0.21,7.28,1729422049338.0,0.0
-2.98385,-5.613562,-7.21436,20.58,-22.190001,-14.91,1729422049357.0,0.0
-3.069991,-4.242475,-7.32443,11.48,-12.25,-52.639999,1729422049381.0,0.0
-3.476771,-4.378866,-8.391629,-14.56,4.34,-75.669998,1729422049399.0,0.0
-4.096512,-2.928815,-8.236095,-21.0,-1.61,-70.840004,1729422049418.0,0.0
-3.39063,-2.230111,-8.372486,-8.89,-34.369999,-74.900002,1729422049439.0,0.0
-2.256432,1.17009,-7.68096,-4.27,-48.790001,-58.170002,1729422049457.0,0.0
-2.62732,3.605984,-9.702895,13.79,-53.48,-24.780001,1729422049478.0,0.0
-3.407379,3.321238,-9.609575,-25.27,-23.309999,-4.62,1729422049499.0,0.0
-4.843073,0.114855,-11.047661,-67.340004,19.6,10.36,1729422049519.0,0.0
-5.510671,-1.624727,-12.947563,-60.970001,18.129999,25.690001,1729422049536.0,0.0
-4.957928,-1.442872,-11.24866,-4.13,5.25,44.240002,1729422049557.0,0.0
-5.347959,-1.672583,-8.750552,53.41,21.210001,69.300003,1729422049580.0,0.0
-6.400801,-0.988236,-7.506285,41.439999,46.970001,69.650002,1729422049599.0,0.0
-7.219146,-3.486342,-9.049655,14.21,38.43,66.010002,1729422049618.0,0.0
-6.410372,-6.608976,-9.293723,7.91,20.16,52.220001,1729422049638.0,0.0
-4.783253,-6.54437,-8.331808,17.85,16.870001,37.099998,1729422049658.0,0.0
-3.744767,-4.941179,-6.862615,52.360001,5.04,16.870001,1729422049678.0,0.0
-3.491128,-5.197211,-7.77428,63.630001,3.01,-8.33,1729422049700.0,0.0
-2.935993,-4.74736,-7.355537,5.53,-0.91,-52.849998,1729422049719.0,0.0
-2.318645,-2.713461,-8.499306,-13.3,-23.799999,-62.09,1729422049736.0,0.0
-1.701297,-1.663012,-7.558927,-6.58,-41.790001,-63.349998,1729422049764.0,0.0
-1.694118,-0.502493,-7.786245,-5.81,-30.870001,-50.259998,1729422049780.0,0.0
-2.239682,2.132005,-7.767102,-0.91,-14.7,-30.17,1729422049810.0,0.0
-4.553542,2.471786,-9.669396,5.18,1.75,6.72,1729422049817.0,0.0
-5.991628,0.354138,-9.540184,-31.219999,6.16,15.68,1729422049838.0,0.0
-6.06102,-0.514457,-10.427922,-47.040001,-5.04,30.450001,1729422049857.0,0.0
-5.02732,-1.002593,-11.803794,-39.060001,-30.1,38.639999,1729422049881.0,0.0
-4.012764,-1.651048,-13.734802,-24.219999,-18.34,50.259998,1729422049900.0,0.0
-4.211368,-3.309274,-10.765309,31.57,19.950001,62.439999,1729422049918.0,0.0
-6.065805,-1.067199,-8.312666,48.580002,73.989998,70.559998,1729422049938.0,0.0
-7.984849,-3.306881,-7.221539,34.580002,63.700001,50.75,1729422049958.0,0.0
-5.955735,-6.52762,-8.042276,-14.49,32.619999,31.85,1729422049978.0,0.0
-3.926622,-6.723832,-7.350751,-36.82,-13.3,1.12,1729422050000.0,0.0
-2.986243,-6.257231,-7.32443,2.52,-12.81,-34.790001,1729422050019.0,0.0
-3.24706,-4.95075,-6.778866,36.75,-0.35,-48.369999,1729422050038.0,0.0
-3.991228,-3.486342,-6.726225,27.370001,11.13,-59.43,1729422050058.0,0.0
-4.185047,-2.57707,-8.446664,-9.1,-7.0,-62.720001,1729422050078.0,0.0
-3.436093,-2.419144,-8.628519,-16.309999,-31.780001,-57.610001,1729422050101.0,0.0
-2.639283,-1.538585,-9.016156,-10.08,-42.91,-52.5,1729422050120.0,0.0
-2.65364,0.655633,-8.700303,-13.93,-26.950001,-40.25,1729422050139.0,0.0
-4.058227,1.887937,-11.023734,-13.02,2.45,-19.110001,1729422050161.0,0.0
-4.577469,2.299503,-9.702895,-6.02,14.21,-13.72,1729422050180.0,0.0
-4.551149,1.741975,-9.609575,-3.85,-1.89,8.19,1729422050200.0,0.0
-3.806981,0.985843,-9.851252,-25.969999,-13.86,22.68,1729422050219.0,0.0
-3.524628,-1.378266,-10.566705,-45.43,-10.01,31.5,1729422050241.0,0.0
-3.29731,-1.399801,-12.674782,-50.82,10.5,38.080002,1729422050260.0,0.0
-4.350152,-1.150948,-7.424929,30.24,28.49,58.66,1729422050281.0,0.0
-6.941578,-1.895115,-7.676175,48.369999,64.82,69.860001,1729422050300.0,0.0
-7.65464,-4.922036,-7.984849,-13.3,44.099998,39.619999,1729422050319.0,0.0
-6.54437,-7.695317,-8.310273,-47.32,10.15,12.11,1729422050340.0,0.0
-4.386044,-7.410572,-7.489535,-34.790001,-12.53,-18.129999,1729422050359.0,0.0
-3.110669,-5.943772,-8.305488,25.690001,-22.33,-37.939999,1729422050383.0,0.0
-3.196811,-4.436293,-8.437093,66.290001,-14.63,-51.099998,1729422050402.0,0.0
-3.969693,-3.139383,-8.195417,40.529999,14.42,-63.84,1729422050419.0,0.0
-3.761517,-2.371287,-9.894321,-4.48,0.35,-74.129997,1729422050440.0,0.0
-2.885744,-2.050649,-8.874979,-21.98,-26.809999,-66.639999,1729422050459.0,0.0
-1.859223,-0.87338,-9.028119,-19.460001,-28.0,-65.940002,1729422050484.0,0.0
-1.957329,1.036092,-9.856036,2.45,-5.74,-37.869999,1729422050500.0,0.0
-2.715853,-0.260818,-9.4349,25.83,15.190001,-24.710001,1729422050520.0,0.0
-3.962514,0.258425,-9.123833,35.490002,26.040001,-2.24,1729422050540.0,0.0
-4.677969,-0.334995,-10.394422,33.740002,16.24,6.72,1729422050559.0,0.0
-4.316652,-1.98365,-10.076177,17.639999,18.969999,8.33,1729422050580.0,0.0
-3.555735,-3.232704,-9.413363,31.15,9.38,7.84,1729422050602.0,0.0
-3.017349,-3.625126,-8.611769,52.5,11.76,9.17,1729422050619.0,0.0
-3.23031,-4.048656,-8.685946,82.669998,27.65,9.59,1729422050640.0,0.0
-3.290131,-4.627719,-8.874979,120.68,26.67,18.620001,1729422050660.0,0.0
-3.0006,-5.108676,-9.004191,188.860001,14.77,31.01,1729422050679.0,0.0
-2.620141,-5.240282,-7.298109,273.209991,8.54,47.529999,1729422050700.0,0.0
-2.648855,-5.151747,-7.111469,339.220001,13.09,64.330002,1729422050720.0,0.0
-3.522235,-6.958328,-8.324631,392.0,21.0,77.629997,1729422050738.0,0.0
-4.299902,-6.915257,-7.025328,405.929993,55.299999,80.639999,1729422050760.0,0.0
-5.316852,-5.556134,-4.780859,386.540009,99.400002,88.550003,1729422050780.0,0.0
-7.472785,-6.336195,-2.988636,370.720001,98.980003,94.849998,1729422050801.0,0.0
-8.274381,-11.454442,-3.323631,412.019989,11.69,79.309998,1729422050818.0,0.0
-6.276374,-12.655639,-2.002793,430.01001,-20.370001,35.349998,1729422050840.0,0.0
-3.883551,-10.954341,-0.722632,429.029999,8.61,8.05,1729422050858.0,0.0
-2.823531,-8.542377,2.337788,413.700012,30.24,-12.81,1729422050880.0,0.0
-3.065206,-6.759724,1.959722,355.529999,29.889999,-18.41,1729422050900.0,0.0
-3.931407,-8.283953,3.366701,303.309998,23.24,-24.780001,1729422050920.0,0.0
-3.050849,-9.844072,2.919244,240.729996,12.46,-58.939999,1729422050940.0,0.0
-3.172883,-6.407979,2.663212,196.0,23.379999,-64.889999,1729422050959.0,0.0
-3.287738,-6.161518,3.335595,184.029999,41.23,-47.670002,1729422050980.0,0.0
-3.314059,-7.513463,4.826324,172.059998,21.07,-56.700001,1729422050999.0,0.0
-3.275774,-6.78126,6.209375,150.639999,17.99,-58.73,1729422051020.0,0.0
-3.744767,-6.628119,5.65424,127.75,22.960001,-45.849998,1729422051040.0,0.0
-3.711268,-6.331409,5.862415,100.660004,17.639999,-41.02,1729422051059.0,0.0
-2.986243,-6.419943,4.62054,83.160004,23.309999,-42.349998,1729422051079.0,0.0
-3.596412,-3.938586,3.802195,77.209999,29.190001,-38.920002,1729422051099.0,0.0
-5.481956,-3.979264,5.704489,86.519997,37.099998,-3.85,1729422051118.0,0.0
-5.123034,-5.326423,6.716653,57.049999,17.85,-16.66,1729422051140.0,0.0
-4.271189,-7.21436,6.4343,22.960001,7.42,-26.809999,1729422051158.0,0.0
-3.929015,-7.080362,5.580062,27.09,10.99,-23.73,1729422051179.0,0.0
-4.261617,-5.60399,6.443871,59.290001,22.120001,-9.73,1729422051201.0,0.0
-4.347759,-2.852244,6.996613,68.32,26.809999,0.91,1729422051219.0,0.0
-4.838287,-2.689533,7.477571,48.299999,23.379999,10.08,1729422051238.0,0.0
-4.520042,-3.251846,6.104091,-6.51,11.06,10.15,1729422051258.0,0.0
-3.273381,-5.268995,4.929214,-34.23,-1.26,16.379999,1729422051279.0,0.0
-3.787838,-6.266802,6.774081,-20.58,9.87,26.110001,1729422051301.0,0.0
-4.675575,-7.381857,7.338787,13.93,8.33,26.809999,1729422051319.0,0.0
-5.785845,-10.281959,7.099504,8.26,-0.07,8.19,1729422051338.0,0.0
-5.300103,-11.004591,5.594419,-27.65,-13.51,-17.290001,1729422051359.0,0.0
-4.053442,-10.114462,7.077969,-4.83,-15.26,-24.57,1729422051382.0,0.0
-4.900501,-8.090133,8.614161,43.82,-2.1,-30.870001,1729422051398.0,0.0
-5.481956,-5.891129,7.649854,31.710001,-6.51,-35.0,1729422051418.0,0.0
-4.350152,-5.496314,5.831308,-14.14,-24.43,-41.720001,1729422051439.0,0.0
-4.036692,-6.532406,5.517848,-32.34,-26.74,-47.950001,1729422051458.0,0.0
-2.378466,-4.725825,5.099105,-12.39,-13.23,-47.040001,1729422051480.0,0.0
-1.574477,-1.756332,5.785845,19.67,18.27,-15.61,1729422051500.0,0.0
0.29671,2.54357,4.345366,-10.22,28.07,8.96,1729422051519.0,0.0
0.602991,1.562513,6.417551,-17.710001,29.82,58.170002,1729422051608.0,0.0
-2.292324,-2.498107,5.661418,-14.63,25.76,62.510002,1729422051610.0,0.0
-5.032106,-3.754339,5.374279,-5.04,41.369999,92.190002,1729422051615.0,0.0
-5.87438,-5.816952,8.738588,4.13,44.799999,103.25,1729422051617.0,0.0
-8.324631,-10.04507,8.092526,-23.59,28.35,76.650002,1729422051621.0,0.0
-7.846066,-10.470992,6.314659,-7.21,22.049999,55.860001,1729422051644.0,0.0
-8.805587,-10.616954,6.352944,16.940001,31.92,10.57,1729422051659.0,0.0
-7.786245,-11.75833,8.13799,45.709999,2.52,-20.16,1729422051680.0,0.0
-5.431707,-9.530612,7.838887,42.420002,0.35,-48.93,1729422051699.0,0.0
-3.761517,-6.606583,6.223732,23.450001,5.6,-57.400002,1729422051719.0,0.0
-3.979264,-6.156733,6.439085,25.83,2.38,-59.639999,1729422051738.0,0.0
-6.039484,-5.520242,6.178268,24.43,-0.98,-57.540001,1729422051759.0,0.0
-4.031906,-4.59422,7.207181,30.870001,4.76,-53.27,1729422051780.0,0.0
-3.105884,-3.412165,7.618747,15.33,-4.69,-44.59,1729422051799.0,0.0
-2.476572,-2.555535,7.56132,-7.84,-5.95,-29.190001,1729422051819.0,0.0
-1.634298,-0.167498,6.324231,-25.549999,-4.9,-15.61,1729422051838.0,0.0
-2.531606,0.514457,6.041877,-14.91,4.9,21.84,1729422051858.0,0.0
-4.201797,-2.0004,6.539584,-15.05,-1.47,36.959999,1729422051879.0,0.0
-4.847858,-3.445665,5.173282,-33.389999,2.31,39.48,1729422051898.0,0.0
-4.838287,-2.517249,4.204189,-28.42,19.809999,59.779999,1729422051919.0,0.0
-6.089733,-6.080163,4.627719,-17.360001,33.110001,72.730003,1729422051938.0,0.0
-7.63789,-8.961121,6.762117,-34.860001,13.02,39.689999,1729422051958.0,0.0
-8.042276,-10.8682,6.412765,3.92,16.66,26.18,1729422051980.0,0.0
-7.298109,-10.944772,5.9342,18.690001,10.71,-7.21,1729422051999.0,0.0
-6.108876,-11.219944,8.965906,20.65,-12.88,-39.41,1729422052018.0,0.0
-5.596812,-9.24826,10.107283,30.799999,-15.33,-51.66,1729422052040.0,0.0
-7.133004,-6.896115,6.695118,0.63,-34.09,-64.540001,1729422052059.0,0.0
-6.955935,-8.55434,4.572684,-12.04,-52.43,-84.139999,1729422052079.0,0.0
-2.9336,-5.525027,6.185446,50.330002,-20.790001,-110.809998,1729422052099.0,0.0
-1.529014,-0.306281,7.982457,98.489998,14.98,-73.989998,1729422052118.0,0.0
-1.471586,1.213161,8.408379,50.119999,13.79,-51.099998,1729422052138.0,0.0
-1.122234,1.639083,5.264209,-54.459999,-22.4,-32.060001,1729422052160.0,0.0
-0.42353,-0.401994,3.986443,-72.099998,-22.120001,10.15,1729422052179.0,0.0
-1.146162,-1.607977,4.869394,-24.57,8.26,29.960001,1729422052198.0,0.0
-4.106083,-2.167897,5.108676,-5.46,23.59,55.650002,1729422052219.0,0.0
-5.048856,-4.677969,6.029913,-2.87,17.290001,69.790001,1729422052240.0,0.0
-5.106283,-5.419744,6.647261,-5.53,13.23,75.809998,1729422052259.0,0.0
-7.178468,-7.15454,5.680561,-6.79,17.290001,83.300003,1729422052323.0,0.0
-8.748159,-9.276974,4.790431,-19.6,13.3,62.23,1729422052324.0,0.0
-8.54477,-11.590833,8.212167,-10.29,0.7,34.580002,1729422052324.0,0.0
-8.396415,-12.842279,8.484949,3.78,-8.68,-7.14,1729422052395.0,0.0
-5.268995,-10.327423,8.441878,0.42,-23.309999,-42.98,1729422052395.0,0.0
-3.04367,-6.951149,6.659225,15.4,-8.75,-52.920002,1729422052395.0,0.0
-4.675575,-5.331209,6.85783,40.389999,-4.41,-51.66,1729422052403.0,0.0
-4.716253,-4.76411,8.063812,45.920002,-8.75,-55.790001,1729422052417.0,0.0
-3.39063,-3.591627,6.733403,39.34,-5.18,-62.580002,1729422052437.0,0.0
-2.591427,-2.510071,6.853044,30.1,-11.27,-54.810001,1729422052460.0,0.0
-2.696711,-1.959722,8.748159,19.25,-2.87,-28.630001,1729422052478.0,0.0
-2.727818,-1.189233,6.958328,-26.18,-13.65,-22.26,1729422052499.0,0.0
-2.072184,-1.820938,5.922236,-41.509998,-16.59,6.3,1729422052517.0,0.0
-2.337788,-2.445465,5.017749,-30.73,-8.12,26.389999,1729422052537.0,0.0
-4.106083,-2.998207,4.534399,-15.47,2.8,37.099998,1729422052556.0,0.0
-4.587041,-3.608376,4.37408,-10.36,20.65,53.41,1729422052578.0,0.0
-4.520042,-4.541577,4.328616,-10.99,25.34,66.220001,1729422052598.0,0.0
-4.979464,-5.02732,4.130012,-10.5,37.52,64.610001,1729422052617.0,0.0
-7.245467,-8.55434,7.420143,15.05,44.799999,77.489998,1729422052637.0,0.0
-8.798409,-10.796415,7.592427,-23.940001,26.32,42.07,1729422052656.0,0.0
-6.920043,-9.389436,5.178068,-57.049999,6.58,9.66,1729422052678.0,0.0
-6.029913,-9.944571,7.700103,-8.82,14.56,0.42,1729422052700.0,0.0
-5.469993,-7.846066,9.119047,11.97,5.53,-24.08,1729422052717.0,0.0
-6.34098,-6.049056,8.913264,15.54,-1.26,-17.99,1729422052736.0,0.0
-6.183054,-4.646862,7.738388,-4.9,-16.870001,-32.060001,1729422052757.0,0.0
-6.321837,-4.756931,5.883951,-23.870001,-24.290001,-40.529999,1729422052777.0,0.0
-5.623133,-6.520442,6.173482,-12.32,-27.299999,-58.450001,1729422052797.0,0.0
-3.756732,-5.113462,6.393622,17.639999,-11.83,-61.040001,1729422052817.0,0.0
-2.359323,-2.507678,6.352944,31.85,-0.84,-39.27,1729422052837.0,0.0
-1.768296,-0.916451,5.520242,9.59,4.34,-14.77,1729422052857.0,0.0
-1.648655,-1.055235,4.718646,-19.879999,0.77,4.41,1729422052878.0,0.0
-1.758725,-1.813759,5.271388,3.01,18.129999,26.32,1729422052898.0,0.0
-4.194618,-2.727818,5.24746,26.950001,36.959999,46.759998,1729422052916.0,0.0
-5.582455,-3.838088,6.922436,16.799999,39.34,61.389999,1729422052937.0,0.0
-6.218946,-4.424329,7.073184,-15.75,41.09,68.949997,1729422052956.0,0.0
-7.515855,-5.938986,7.91785,-32.060001,29.610001,71.959999,1729422052977.0,0.0
-9.999605,-10.875379,6.989435,-35.700001,4.83,55.860001,1729422053005.0,0.0
-9.930215,-13.564911,5.333601,-50.119999,-27.65,9.17,1729422053017.0,0.0
-8.898908,-12.035898,7.185646,2.66,-19.040001,-42.91,1729422053036.0,0.0
-7.015756,-8.135597,7.750352,32.689999,-16.940001,-52.360001,1729422053058.0,0.0
-6.080163,-4.108476,5.836094,20.719999,-20.65,-79.029999,1729422053077.0,0.0
-5.412565,-4.56072,4.998606,2.8,-23.59,-74.900002,1729422053098.0,0.0
-4.496114,-6.281159,4.319045,13.86,-20.65,-79.660004,1729422053117.0,0.0
-4.409972,-5.525027,5.814559,69.090004,2.87,-80.360001,1729422053137.0,0.0
-3.321238,-3.952943,6.345766,76.510002,12.39,-76.440002,1729422053157.0,0.0
-1.600798,-1.713261,7.56132,37.450001,17.290001,-60.27,1729422053178.0,0.0
-2.275574,-1.507478,7.037291,-20.02,-1.75,-34.369999,1729422053197.0,0.0
-2.091327,-1.404587,6.151947,-51.099998,-13.51,-9.17,1729422053218.0,0.0
-2.254039,-1.036092,5.843273,-31.85,-5.88,25.34,1729422053238.0,0.0
-5.180461,-3.055635,5.687739,-6.44,3.92,44.450001,1729422053258.0,0.0
-5.292924,-3.845266,5.580062,-10.01,10.64,52.849998,1729422053279.0,0.0
-5.295317,-5.106283,6.71426,-9.87,10.71,63.630001,1729422053299.0,0.0
-6.149554,-5.242674,5.891129,-21.210001,16.66,66.709999,1729422053318.0,0.0
-6.496514,-6.257231,4.773681,-35.98,12.81,59.150002,1729422053338.0,0.0
-7.269395,-10.339387,6.721439,-12.6,10.57,58.73,1729422053359.0,0.0
-9.865608,-14.467006,8.276773,-15.82,-8.19,-0.28,1729422053381.0,0.0
-8.719445,-13.186846,6.865008,-10.5,-29.469999,-52.290001,1729422053398.0,0.0
-5.481956,-6.929615,4.74736,18.620001,-3.71,-61.25,1729422053418.0,0.0
-4.110869,-5.704489,5.843273,49.560001,7.35,-73.010002,1729422053438.0,0.0
-4.756931,-7.149754,6.4678,30.940001,-4.41,-86.519997,1729422053458.0,0.0
-3.845266,-6.001199,6.84108,36.189999,-7.07,-88.550003,1729422053480.0,0.0
-2.912065,-2.723032,7.482357,56.630001,12.25,-64.400002,1729422053499.0,0.0
-3.189633,-1.323231,7.331609,19.74,0.42,-51.170002,1729422053521.0,0.0
-2.316252,-0.806381,6.190232,-31.15,-18.620001,-37.240002,1729422053540.0,0.0
-1.68694,-0.859023,5.721239,-48.16,-17.710001,-8.19,1729422053559.0,0.0
-2.715853,-1.931008,5.927022,-31.5,-9.03,21.35,1729422053579.0,0.0
-3.768696,-3.249453,4.766503,-27.58,-2.45,41.790001,1729422053600.0,0.0
-3.969693,-5.180461,4.242475,-19.530001,8.26,57.330002,1729422053620.0,0.0
-3.816552,-4.309474,5.807381,1.26,19.32,74.830002,1729422053638.0,0.0
-6.412765,-5.943772,7.290931,17.710001,37.799999,89.739998,1729422053660.0,0.0
-8.492127,-8.559127,5.410172,-39.830002,22.540001,66.57,1729422053680.0,0.0
-7.542177,-9.745967,3.538985,-68.25,9.94,42.77,1729422053702.0,0.0
-8.547162,-13.354343,5.898308,3.57,24.85,25.059999,1729422053723.0,0.0
-8.094919,-10.581062,7.606783,57.959999,21.07,-18.129999,1729422053737.0,0.0
-7.013363,-7.180861,8.099705,68.389999,25.059999,-23.870001,1729422053758.0,0.0
-5.386244,-6.608976,6.89133,18.48,6.37,-54.040001,1729422053779.0,0.0
-4.931608,-8.303094,6.099305,-5.95,-8.47,-65.590004,1729422053799.0,0.0
-4.56072,-7.898707,7.441679,43.470001,-2.66,-67.900002,1729422053818.0,0.0
-3.517449,-4.218546,7.709675,93.870003,8.89,-58.799999,1729422053842.0,0.0
-3.304488,-2.163112,9.24826,70.279999,10.5,-45.220001,1729422053858.0,0.0
-3.053242,-1.828116,7.965706,-16.450001,-27.790001,-50.540001,1729422053879.0,0.0
-3.105884,-2.213361,6.664011,-54.18,-37.240002,-31.85,1729422053899.0,0.0
-3.034099,-1.048056,5.149354,-35.84,-29.120001,-5.74,1729422053918.0,0.0
-3.902694,-1.299303,4.4674,0.28,-6.09,23.030001,1729422053938.0,0.0
-5.166104,-2.423929,4.479364,-7.42,-2.1,30.380001,1729422053958.0,0.0
-4.977071,-3.768696,4.800002,-8.33,4.62,44.170002,1729422053979.0,0.0
-4.445865,-3.701697,5.099105,-3.5,14.63,55.720001,1729422054004.0,0.0
-5.465207,-3.39063,5.240282,9.52,34.23,77.0,1729422054021.0,0.0
-7.554141,-5.422136,5.788238,-16.1,30.940001,78.120003,1729422054040.0,0.0
-7.970492,-9.750752,6.355337,-44.66,8.19,65.029999,1729422054062.0,0.0
-9.020942,-13.258631,5.898308,-37.310001,0.56,36.75,1729422054079.0,0.0
-9.068797,-12.464212,5.388636,-17.639999,3.22,-11.62,1729422054100.0,0.0
-6.690332,-9.875179,7.54457,25.059999,-2.1,-38.080002,1729422054118.0,0.0
-5.12782,-7.188039,8.755339,55.23,2.87,-53.619999,1729422054138.0,0.0
-5.412565,-5.489135,8.310273,31.99,-11.76,-58.52,1729422054160.0,0.0
-4.721039,-5.000999,6.769295,-3.99,-25.129999,-57.959999,1729422054183.0,0.0
-4.283153,-5.783452,6.156733,-3.36,-25.9,-62.439999,1729422054201.0,0.0
-2.78046,-4.218546,6.819544,38.57,-16.1,-66.010002,1729422054218.0,0.0
-3.055635,-2.155933,8.472985,69.019997,8.47,-44.099998,1729422054238.0,0.0
-2.254039,-0.978664,5.682954,3.85,-10.43,-45.080002,1729422054259.0,0.0
-1.596013,-1.131805,4.4674,-48.299999,-18.690001,2.52,1729422054279.0,0.0
-2.057827,-0.095713,4.838287,-11.69,2.03,27.860001,1729422054303.0,0.0
-4.237689,-1.825724,5.331209,6.44,16.73,47.110001,1729422054321.0,0.0
-4.354938,-3.39063,4.694718,-14.21,17.219999,54.599998,1729422054342.0,0.0
-4.792823,-5.02732,6.98465,-10.92,16.450001,75.110001,1729422054359.0,0.0
-7.21436,-5.924629,6.709475,-8.05,28.77,86.099998,1729422054381.0,0.0
-8.260024,-8.796017,5.338387,-46.900002,11.83,64.400002,1729422054401.0,0.0
-9.116654,-13.091133,5.163712,-52.360001,-3.92,38.150002,1729422054418.0,0.0
-8.181061,-14.677574,3.811767,14.49,-1.89,-15.4,1729422054439.0,0.0
-7.709675,-9.786645,6.118448,97.370003,27.299999,-36.470001,1729422054459.0,0.0
-6.719046,-7.850852,11.200804,122.010002,26.18,-50.049999,1729422054479.0,0.0
-5.737988,-5.661418,9.312866,45.990002,-5.04,-90.440002,1729422054509.0,0.0
-4.541577,-3.574877,6.898508,-1.05,-21.91,-71.120003,1729422054519.0,0.0
-3.639483,-3.065206,5.673382,13.440001,-19.110001,-64.610001,1729422054538.0,0.0
-3.847659,-1.741975,5.972485,45.779999,-10.5,-57.610001,1729422054558.0,0.0
-3.471986,-1.969293,6.616155,63.77,2.31,-40.25,1729422054578.0,0.0
-1.871187,-3.541377,7.288538,12.46,-0.98,-45.779999,1729422054598.0,0.0
-1.658226,-2.667997,6.865008,-34.16,-4.97,-14.21,1729422054618.0,0.0
-2.37368,-1.115055,6.932007,-16.1,5.32,13.09,1729422054637.0,0.0
-3.278167,-1.682154,6.092126,-20.51,7.77,33.670002,1729422054658.0,0.0
-4.936393,-4.761717,4.989035,-41.02,-4.27,33.459999,1729422054679.0,0.0
-5.20439,-5.175675,5.075177,-23.309999,5.32,48.580002,1729422054699.0,0.0
-5.067998,-3.18724,8.183454,13.23,21.49,62.510002,1729422054718.0,0.0
-5.886343,-4.015156,8.91805,10.71,24.5,62.439999,1729422054738.0,0.0
-7.846066,-6.290731,5.816952,-60.27,0.28,52.009998,1729422054758.0,0.0
-7.501499,-9.092726,3.158526,-99.889999,-18.129999,32.759998,1729422054779.0,0.0
-7.408179,-11.344372,4.917251,-32.830002,-4.13,14.35,1729422054799.0,0.0
-7.659425,-8.458629,6.98465,55.439999,21.07,-3.36,1729422054818.0,0.0
-6.60419,-5.067998,9.059227,66.779999,26.74,-15.68,1729422054837.0,0.0
-5.63749,-4.275974,8.082954,12.53,4.76,-20.93,1729422054858.0,0.0
-5.883951,-3.976871,6.13759,-37.240002,-19.389999,-22.120001,1729422054878.0,0.0
-5.4341,-3.309274,5.733203,-25.9,-14.91,-11.34,1729422054897.0,0.0
-5.970093,-2.900101,6.192625,-8.26,-9.87,-7.56,1729422054918.0,0.0
-6.778866,-4.603791,6.190232,-45.990002,-22.190001,-7.21,1729422054937.0,0.0
-6.360123,-4.402793,5.505885,-85.75,-38.360001,-4.9,1729422054957.0,0.0
-5.134997,-3.663411,6.549156,-73.639999,-37.869999,8.89,1729422054978.0,0.0
-5.158926,-4.646862,7.37468,-72.940002,-30.380001,23.59,1729422054997.0,0.0
-4.292724,-5.242674,6.513263,-103.110001,-44.52,21.77,1729422055017.0,0.0
-3.696911,-5.87438,7.075576,-116.900002,-48.790001,43.189999,1729422055044.0,0.0
-3.282953,-6.915257,7.200003,-145.669998,-57.68,46.549999,1729422055057.0,0.0
-1.962115,-8.403593,4.883751,-192.220001,-67.480003,31.99,1729422055079.0,0.0
-1.019342,-10.226924,3.536592,-210.279999,-66.150002,21.98,1729422055098.0,0.0
-1.074377,-10.463813,3.242275,-184.309998,-50.400002,18.620001,1729422055117.0,0.0
-2.17029,-9.174082,3.287738,-139.580002,-11.27,6.23,1729422055137.0,0.0
-3.239882,-9.090333,3.125026,-133.839996,2.1,-8.61,1729422055157.0,0.0
-3.220739,-10.470992,1.947758,-145.25,-12.88,-21.35,1729422055178.0,0.0
-1.952543,-10.528419,1.533799,-112.139999,-11.97,-28.139999,1729422055198.0,0.0
-2.524428,-9.994821,2.289931,-60.549999,9.87,-20.860001,1729422055218.0,0.0
-3.347559,-7.336394,2.469393,-32.060001,15.54,-33.810001,1729422055237.0,0.0
-4.17069,-6.520442,3.089134,8.96,24.360001,-4.48,1729422055257.0,0.0
-4.785645,-7.750352,3.433701,-3.43,23.940001,-16.940001,1729422055278.0,0.0
-5.053641,-7.460821,3.548556,-36.75,9.94,-16.24,1729422055298.0,0.0
-5.35753,-6.769295,4.522435,-35.209999,1.75,4.34,1729422055318.0,0.0
-5.173282,-6.01077,5.005785,-50.540001,1.33,1.54,1729422055338.0,0.0
-4.41715,-6.223732,2.447858,-91.419998,-7.0,11.76,1729422055357.0,0.0
-4.486543,-7.616355,1.674976,-110.459999,-16.030001,15.82,1729422055381.0,0.0
-4.677969,-9.480364,0.492921,-101.5,-19.18,17.92,1729422055398.0,0.0
-4.852644,-11.58844,-0.937986,-64.68,-9.87,15.47,1729422055417.0,0.0
-4.651647,-11.688939,-0.497707,-22.889999,6.02,8.68,1729422055439.0,0.0
-6.161518,-11.461621,1.646262,-36.540001,36.049999,-0.28,1729422055459.0,0.0
-7.276574,-11.992826,0.148355,-65.730003,28.630001,-24.360001,1729422055479.0,0.0
-5.833702,-10.770095,-0.794417,-43.049999,26.880001,-35.84,1729422055499.0,0.0
-5.06082,-6.553941,0.277567,-7.98,35.279999,-33.25,1729422055519.0,0.0
-4.713861,-6.180661,2.340181,20.299999,34.23,-34.09,1729422055538.0,0.0
-4.61097,-4.546363,5.211568,22.049999,-1.96,-16.030001,1729422055558.0,0.0
-2.383251,-3.120241,4.4339,12.46,-17.710001,-8.68,1729422055580.0,0.0
-1.581656,-3.960121,2.892922,-27.299999,-21.42,9.38,1729422055599.0,0.0
-3.201597,-7.688138,0.339781,-76.019997,-22.540001,17.92,1729422055619.0,0.0
-4.034299,-11.215159,-0.725025,-62.02,-29.049999,15.12,1729422055639.0,0.0
-2.584249,-10.001998,-0.473779,0.7,-38.709999,35.560001,1729422055661.0,0.0
-1.256232,-8.269595,0.485743,80.5,-28.559999,55.510002,1729422055682.0,0.0
-2.397608,-7.860423,1.816152,111.510002,-13.16,67.760002,1729422055701.0,0.0
-5.675776,-11.107484,1.842474,66.010002,4.2,61.670002,1729422055719.0,0.0
-7.903493,-14.041083,-1.727618,-33.950001,1.33,12.74,1729422055740.0,0.0
-8.226524,-15.878771,-3.589234,-82.879997,3.08,-6.72,1729422055763.0,0.0
-6.496514,-14.560326,-2.055435,-35.560001,5.18,-21.42,1729422055781.0,0.0
-5.60399,-11.837293,-0.689133,43.75,40.459999,-35.279999,1729422055803.0,0.0
-6.216553,-9.32483,0.047856,67.480003,72.870003,-57.610001,1729422055821.0,0.0
-6.491727,-7.049256,1.361516,35.0,58.170002,-66.989998,1729422055839.0,0.0
-4.558327,-5.089533,3.529413,-7.35,32.48,-58.73,1729422055860.0,0.0
-1.902294,-4.180261,6.051448,-5.95,-28.98,-47.25,1729422055881.0,0.0
0.083749,-2.931208,6.448657,15.4,-40.459999,-14.21,1729422055912.0,0.0
0.533599,-4.084548,5.312066,19.950001,-32.830002,13.37,1729422055920.0,0.0
-2.0004,-6.778866,4.058227,-14.49,-18.83,30.24,1729422055940.0,0.0
-4.342973,-8.68116,2.596212,-44.66,-14.28,31.5,1729422055960.0,0.0
-4.381258,-10.863414,0.911665,-36.82,-35.77,38.57,1729422055981.0,0.0
-3.132205,-10.255639,-0.911665,-1.75,-55.09,33.459999,1729422056001.0,0.0
-3.20399,-8.683553,-0.605384,82.459999,-29.190001,69.090004,1729422056020.0,0.0
-5.28096,-9.315259,0.26321,109.830002,19.040001,73.220001,1729422056039.0,0.0
-8.762517,-10.872985,-0.952343,28.0,32.130001,33.599998,1729422056061.0,0.0
-9.607183,-11.913863,-3.85723,-73.639999,32.060001,8.47,1729422056080.0,0.0
-7.879565,-12.679568,-3.510271,-88.550003,8.96,-12.53,1729422056102.0,0.0
-5.594419,-13.280167,-1.045663,-20.16,3.22,-26.460001,1729422056120.0,0.0
-5.213961,-11.243874,1.146162,22.610001,51.799999,-45.080002,1729422056139.0,0.0
-6.163911,-8.750552,0.949951,4.13,90.160004,-69.440002,1729422056160.0,0.0
-6.422336,-6.599405,0.942772,-36.259998,72.029999,-74.059998,1729422056181.0,0.0
-2.40718,-6.216553,2.758924,-51.029999,21.42,-63.490002,1729422056204.0,0.0
-0.028714,-6.235696,6.74776,-12.95,-45.43,-29.190001,1729422056219.0,0.0
0.961915,-5.089533,6.396015,11.97,-36.540001,-5.46,1729422056240.0,0.0
0.014357,-3.998406,3.814159,8.68,-3.36,8.96,1729422056260.0,0.0
-2.553142,-6.178268,2.615355,-22.82,-1.12,34.09,1729422056281.0,0.0
-4.424329,-8.54477,1.495514,-54.599998,-18.620001,43.259998,1729422056301.0,0.0
-4.792823,-11.743973,1.129412,-16.73,-55.790001,45.5,1729422056320.0,0.0
-3.795017,-9.059227,-0.299103,35.209999,-55.16,62.369999,1729422056341.0,0.0
-3.981657,-7.178468,-0.490529,75.25,-13.79,84.489998,1729422056360.0,0.0
-6.309873,-10.315458,-1.555335,33.740002,13.51,63.0,1729422056383.0,0.0
-9.150154,-12.842279,-3.495914,-62.299999,20.51,16.870001,1729422056400.0,0.0
-9.178867,-15.278172,-4.089334,-64.610001,12.39,16.870001,1729422056420.0,0.0
-6.635297,-13.536198,-2.770889,-24.780001,18.48,-20.370001,1729422056440.0,0.0
-5.230711,-11.351551,-0.567099,31.85,30.450001,-38.220001,1729422056460.0,0.0
-5.288138,-9.140583,-0.691526,53.900002,69.790001,-58.66,1729422056480.0,0.0
-5.991628,-6.788438,0.993021,28.91,93.519997,-61.599998,1729422056501.0,0.0
-6.118448,-4.4674,2.469393,-46.689999,62.16,-58.59,1729422056519.0,0.0
-2.921637,-7.843673,0.646062,-81.970001,5.53,-52.290001,1729422056610.0,0.0
-1.981257,-8.154739,4.962714,-42.630001,-57.049999,-22.889999,1729422056615.0,0.0
-0.267996,-4.914857,4.113262,38.57,-38.920002,-9.24,1729422056618.0,0.0
-0.820738,-2.871387,2.507678,65.239998,4.55,12.67,1729422056620.0,0.0
-3.29731,-3.680161,2.383251,12.95,3.08,42.77,1729422056621.0,0.0
-5.735595,-8.35813,1.974079,-38.150002,-30.52,55.860001,1729422056639.0,0.0
-4.460221,-10.286745,-0.538385,-18.83,-85.470001,57.82,1729422056660.0,0.0
-3.716053,-10.504492,1.270589,32.689999,-73.080002,90.860001,1729422056680.0,0.0
-5.197211,-11.10509,-0.059821,3.85,-24.780001,70.840004,1729422056700.0,0.0
-7.965706,-13.584054,-3.457629,-42.98,9.38,21.559999,1729422056719.0,0.0
-9.109475,-16.151552,-4.331009,-20.440001,6.51,7.35,1729422056739.0,0.0
-7.334002,-14.263616,-3.24706,5.04,18.76,-19.110001,1729422056759.0,0.0
-6.331409,-12.844672,-1.713261,30.870001,28.280001,-46.41,1729422056781.0,0.0
-5.843273,-11.535798,-2.481357,55.439999,44.380001,-71.540001,1729422056800.0,0.0
-6.082555,-9.212367,-0.744168,71.260002,71.190002,-78.120003,1729422056819.0,0.0
-6.565905,-6.190232,1.143769,36.189999,63.91,-81.059998,1729422056840.0,0.0
-5.692525,-4.297509,0.464208,4.06,7.91,-73.57,1729422056859.0,0.0
-0.899701,-2.65364,6.125626,38.779999,-56.77,-39.27,1729422056880.0,0.0
0.70349,-1.519442,6.65444,42.91,-33.32,-11.48,1729422056900.0,0.0
-0.775275,-2.380858,4.23051,-8.12,-0.7,11.97,1729422056919.0,0.0
-4.185047,-4.953143,2.85703,-84.209999,-1.89,39.060001,1729422056939.0,0.0
-5.125426,-7.877172,1.079163,-93.870003,-27.790001,46.060001,1729422056959.0,0.0
-4.553542,-11.612368,1.87358,-55.23,-61.25,56.209999,1729422056980.0,0.0
-3.491128,-10.875379,-1.019342,-30.870001,-68.389999,51.939999,1729422057002.0,0.0
-4.15394,-9.98525,-1.725225,12.32,-26.25,62.580002,1729422057020.0,0.0
-6.108876,-11.581261,-2.455036,17.290001,10.99,49.700001,1729422057039.0,0.0
-8.216952,-13.789837,-2.957529,-6.65,21.0,18.34,1729422057061.0,0.0
-8.30788,-14.847464,-2.859423,-5.53,12.95,-4.13,1729422057088.0,0.0
-6.130411,-12.473784,-2.277967,17.639999,13.86,-25.34,1729422057103.0,0.0
-5.276174,-10.691131,-1.275374,44.73,25.9,-46.200001,1729422057120.0,0.0
-5.898308,-8.762517,-0.70349,36.75,52.43,-66.639999,1729422057139.0,0.0
-6.216553,-6.805188,0.856631,8.75,56.07,-72.029999,1729422057160.0,0.0
-4.766503,-5.517848,1.607977,-23.450001,13.3,-67.830002,1729422057181.0,0.0
-0.184247,-6.221339,5.781059,7.56,-35.349998,-58.66,1729422057202.0,0.0
0.090927,-3.809374,6.685547,60.48,-17.43,-14.21,1729422057219.0,0.0
-1.378266,-3.395415,5.529813,56.490002,13.65,13.440001,1729422057239.0,0.0
-3.682554,-5.632704,3.818945,-10.92,-4.06,37.450001,1729422057260.0,0.0
-4.881358,-8.437093,2.15354,-58.869999,-26.74,39.34,1729422057280.0,0.0
-3.830909,-10.159925,-0.119641,-33.32,-42.349998,52.43,1729422057301.0,0.0
-4.007978,-11.542977,0.62692,9.24,-47.740002,53.900002,1729422057319.0,0.0
-5.084748,-9.891929,-0.01675,31.639999,-21.49,54.880001,1729422057340.0,0.0
-6.005985,-10.348958,-1.715654,31.08,13.3,50.82,1729422057361.0,0.0
-7.479963,-11.052447,-2.816352,-29.049999,14.21,23.73,1729422057386.0,0.0
-7.9346,-13.074384,-3.034099,-43.610001,8.75,4.13,1729422057401.0,0.0
-7.329216,-13.646267,-3.304488,-24.15,9.87,-26.25,1729422057420.0,0.0
-6.436693,-12.976277,-1.229911,38.080002,15.47,-43.68,1729422057441.0,0.0
-5.606383,-9.786645,0.454636,80.220001,41.860001,-62.93,1729422057461.0,0.0
-4.82393,-4.831109,0.598206,57.400002,55.93,-71.260002,1729422057481.0,0.0
-2.821138,-4.335794,2.833102,-12.74,35.560001,-59.220001,1729422057503.0,0.0
-0.646062,-5.623133,4.752146,-31.43,-34.93,-42.07,1729422057521.0,0.0
1.119841,-5.424529,5.419744,15.96,-41.299999,-11.83,1729422057541.0,0.0
-0.114855,-4.843073,6.324231,74.620003,-4.34,29.190001,1729422057561.0,0.0
-2.79721,-5.737988,4.603791,51.029999,8.33,45.43,1729422057581.0,0.0
-5.345565,-7.211967,1.969293,-33.32,0.56,46.830002,1729422057602.0,0.0
-5.513064,-9.501899,0.409173,-71.82,-34.580002,46.970001,1729422057621.0,0.0
-3.804588,-10.911271,0.55992,-65.099998,-61.32,53.48,1729422057642.0,0.0
-4.139583,-11.466407,1.079163,-36.049999,-57.540001,52.080002,1729422057661.0,0.0
-5.525027,-10.143176,-0.921237,-22.75,-24.5,44.73,1729422057682.0,0.0
-6.69751,-9.702895,-3.110669,-42.349998,9.17,31.780001,1729422057701.0,0.0
-7.810174,-11.997612,-3.206382,-70.910004,17.57,6.86,1729422057721.0,0.0
-8.642875,-13.77548,-1.828116,-64.120003,14.0,-21.84,1729422057741.0,0.0
-7.097112,-12.667603,-1.385444,-6.86,25.969999,-35.98,1729422057762.0,0.0
-5.4006,-9.200402,-0.083749,33.529999,57.049999,-68.809998,1729422057782.0,0.0
-5.13739,-7.616355,-0.550349,-0.21,61.25,-84.139999,1729422057807.0,0.0
-4.342973,-6.257231,1.478764,-33.670002,51.59,-76.650002,1729422057823.0,0.0
-2.428715,-5.575277,0.993021,-55.369999,16.450001,-64.470001,1729422057843.0,0.0
-0.72024,-6.683154,3.876373,-1.61,-15.26,-43.889999,1729422057863.0,0.0
-0.282353,-4.783253,4.867002,34.16,-12.32,-14.49,1729422057882.0,0.0
-0.949951,-3.531806,5.441278,50.959999,-3.64,21.559999,1729422057903.0,0.0
-1.938186,-4.986642,4.84068,13.58,-21.77,41.23,1729422057922.0,0.0
-3.835695,-7.501499,2.883351,-53.130001,-37.73,43.330002,1729422057941.0,0.0
-4.486543,-9.286544,1.134198,-62.16,-51.799999,49.560001,1729422057963.0,0.0
-4.752146,-10.514063,0.514457,-34.02,-64.889999,70.07,1729422057983.0,0.0
-5.79781,-12.117253,-0.62692,-24.710001,-62.439999,60.060001,1729422058013.0,0.0
-6.056234,-11.607583,-2.292324,7.21,-45.290001,52.220001,1729422058022.0,0.0
-7.645068,-12.921242,-2.538785,22.960001,11.34,39.060001,1729422058042.0,0.0
-8.882158,-13.954943,-4.23051,-7.91,30.870001,-10.29,1729422058061.0,0.0
-8.762517,-13.797016,-5.663811,-25.41,25.83,-39.41,1729422058083.0,0.0
-5.20439,-10.490135,-2.055435,24.43,16.52,-47.110001,1729422058103.0,0.0
-4.307081,-8.01117,0.133998,91.559998,46.759998,-58.939999,1729422058121.0,0.0
-3.912265,-6.336195,0.244068,60.27,66.709999,-72.590004,1729422058141.0,0.0
-3.816552,-5.4006,1.816152,-16.24,57.540001,-67.620003,1729422058162.0,0.0
-2.416751,-6.82433,2.065006,-74.690002,12.53,-61.529999,1729422058182.0,0.0
0.100499,-7.556533,2.656033,-57.75,-25.34,-54.389999,1729422058202.0,0.0
0.562313,-5.867201,4.412365,12.18,-15.4,-18.34,1729422058222.0,0.0
-0.971486,-4.031906,4.929214,33.110001,15.190001,2.73,1729422058241.0,0.0
-3.079563,-4.642076,4.331009,-1.61,2.03,23.66,1729422058261.0,0.0
-4.570292,-6.513263,2.955136,-64.120003,-26.389999,34.369999,1729422058282.0,0.0
-4.522435,-8.116454,1.328017,-90.580002,-50.400002,42.700001,1729422058305.0,0.0
-4.666004,-10.030712,0.571885,-73.779999,-65.379997,56.139999,1729422058324.0,0.0
-5.345565,-11.839686,-0.89013,-49.279999,-67.199997,45.849998,1729422058342.0,0.0
-4.902894,-10.07139,-4.364508,-0.42,-43.82,58.450001,1729422058361.0,0.0
-4.922036,-11.040483,-3.694518,75.389999,-2.31,70.629997,1729422058384.0,0.0
-6.989435,-12.799208,-2.603391,87.989998,27.58,46.200001,1729422058403.0,0.0
-7.953743,-13.234701,-3.115455,57.68,56.700001,7.77,1729422058421.0,0.0
-6.013163,-10.234102,-2.397608,18.48,39.970001,-5.74,1729422058442.0,0.0
-4.326223,-10.011569,-1.694118,41.369999,9.1,-22.82,1729422058471.0,0.0
-4.73061,-9.303294,-0.902094,63.630001,49.700001,-37.170002,1729422058483.0,0.0
-6.171089,-8.082954,-0.55992,34.790001,91.0,-55.580002,1729422058502.0,0.0
-6.204589,-6.82433,-0.212961,-25.83,61.110001,-62.650002,1729422058522.0,0.0
-4.192225,-6.130411,1.150948,-55.369999,0.77,-54.810001,1729422058541.0,0.0
-2.68714,-7.209574,2.821138,-30.030001,-24.57,-41.790001,1729422058561.0,0.0
-2.947958,-5.915058,3.053242,-23.309999,-4.76,-39.830002,1729422058582.0,0.0
-4.821537,-7.482357,1.899901,-25.059999,3.43,-28.210001,1729422058602.0,0.0
-5.374279,-7.82453,1.579263,-50.470001,-40.810001,-36.330002,1729422058622.0,0.0
-4.252046,-8.130811,1.148555,-54.670002,-68.529999,-17.360001,1729422058641.0,0.0
-3.584448,-7.601997,1.246661,-84.910004,-58.380001,-7.14,1729422058661.0,0.0
-4.326223,-7.597212,1.995614,-116.340004,-65.239998,5.18,1729422058682.0,0.0
-4.733003,-8.568698,1.136591,-153.860001,-67.970001,1.4,1729422058703.0,0.0
-4.23051,-8.748159,-2.086541,-194.389999,-66.360001,-3.01,1729422058721.0,0.0
-3.026921,-9.138189,-4.333402,-214.899994,-64.75,-4.9,1729422058740.0,0.0
-2.959922,-9.946963,-1.868794,-217.559998,-62.510002,-1.54,1729422058761.0,0.0
-1.969293,-9.501899,-4.249653,-176.960007,-56.0,2.52,1729422058782.0,0.0
-1.773082,-8.688338,-5.254639,-108.220001,9.73,1.05,1729422058803.0,0.0
-2.340181,-8.097312,-6.037091,-104.720001,24.43,3.64,1729422058821.0,0.0
-3.081956,-8.185846,-5.795416,-100.519997,18.549999,5.95,1729422058841.0,0.0
-2.708675,-9.466006,-6.702296,-68.040001,-1.61,5.88,1729422058861.0,0.0
-2.146362,-9.966106,-6.108876,-24.710001,-4.41,5.39,1729422058884.0,0.0
-2.400001,-8.79123,-5.379066,7.77,20.440001,0.42,1729422058902.0,0.0
-3.787838,-7.283752,-3.699304,7.84,47.459999,-2.52,1729422058920.0,0.0
-4.82393,-7.04447,-5.079963,-19.25,42.0,-0.63,1729422058941.0,0.0
-4.986642,-8.865408,-6.281159,-31.01,10.22,-2.24,1729422058961.0,0.0
-4.287938,-9.915856,-6.898508,-8.19,-6.44,-0.7,1729422058982.0,0.0
-3.759124,-8.944371,-5.288138,29.82,15.33,3.92,1729422059002.0,0.0
-4.031906,-7.264609,-4.015156,36.75,39.900002,4.34,1729422059020.0,0.0
-4.493721,-7.77428,-5.84088,9.8,36.75,-1.05,1729422059041.0,0.0
-3.821337,-7.345965,-4.319045,-14.21,26.74,-0.77,1729422059061.0,0.0
-4.259224,-8.717053,0.198604,-34.790001,-27.65,-5.11,1729422059081.0,0.0
-3.24706,-8.463413,-0.485743,-27.440001,-31.639999,-9.73,1729422059101.0,0.0
-3.302095,-7.307681,-2.234896,-0.98,-17.780001,-8.12,1729422059129.0,0.0
-3.476771,-6.845865,-2.648855,6.93,-14.35,6.72,1729422059140.0,0.0
-3.63709,-7.678568,-4.323831,-6.37,-20.299999,12.39,1729422059162.0,0.0
-3.486342,-7.848458,-5.781059,-18.41,-34.23,9.24,1729422059182.0,0.0
-3.352344,-8.319844,-5.321638,-0.98,-50.400002,12.67,1729422059211.0,0.0
-2.586641,-7.616355,-6.099305,27.58,-46.900002,20.16,1729422059220.0,0.0
-2.919244,-7.118648,-5.046463,20.51,-31.219999,25.76,1729422059241.0,0.0
-4.579862,-7.812566,-5.029713,-17.43,-30.24,15.61,1729422059261.0,0.0
-6.594619,-9.391829,-6.62094,-13.440001,-15.05,9.87,1729422059282.0,0.0
-6.171089,-9.336794,-10.100104,16.870001,1.96,3.57,1729422059303.0,0.0
-5.422136,-7.927422,-8.571091,34.369999,27.65,4.34,1729422059322.0,0.0
-5.276174,-7.532606,-5.936593,31.219999,25.129999,-1.12,1729422059341.0,0.0
-4.292724,-8.003991,-8.549555,44.099998,13.72,-6.3,1729422059361.0,0.0
-3.974478,-6.455836,-6.668797,69.440002,44.52,1.75,1729422059387.0,0.0
-5.036892,-4.737789,-3.101098,45.290001,81.550003,3.43,1729422059405.0,0.0
-4.756931,-8.26481,-1.045663,-10.01,40.670002,-3.36,1729422059421.0,0.0
-2.840281,-8.743374,-0.18664,-72.730003,-66.779999,-31.43,1729422059442.0,0.0
-1.679761,-8.539984,-1.385444,-45.709999,-44.450001,-7.84,1729422059461.0,0.0
-2.120041,-6.903293,-2.488536,-26.6,-15.54,-4.2,1729422059484.0,0.0
-4.383651,-7.307681,-4.412365,-13.72,19.460001,15.4,1729422059504.0,0.0
-5.096712,-8.319844,-4.804788,-19.18,4.41,9.24,1729422059523.0,0.0
-3.931407,-8.128418,-3.818945,-52.849998,-46.900002,11.55,1729422059542.0,0.0
-3.261417,-7.453642,-4.754539,-85.470001,-53.830002,13.37,1729422059562.0,0.0
-5.503492,-8.669197,-6.049056,-72.099998,-38.150002,-7.21,1729422059583.0,0.0
-5.836094,-10.703095,-11.708081,11.13,2.8,3.08,1729422059604.0,0.0
-5.907879,-9.49472,-9.217153,75.949997,28.280001,12.04,1729422059622.0,0.0
-6.156733,-7.219146,-3.792624,78.400002,55.93,17.01,1729422059642.0,0.0
-5.821737,-6.831509,-5.65424,49.07,43.189999,-1.75,1729422059662.0,0.0
-5.309673,-5.395815,-5.292924,12.88,57.75,-8.19,1729422059683.0,0.0
-5.149354,-5.943772,-4.398008,-40.670002,54.389999,-11.97,1729422059704.0,0.0
-3.730411,-10.363315,-2.368894,-59.990002,-31.360001,-21.07,1729422059723.0,0.0
-2.045863,-9.542577,-1.65344,-20.02,-19.25,-17.360001,1729422059742.0,0.0
-1.435694,-6.360123,-0.586242,2.1,-0.77,-12.67,1729422059762.0,0.0
-2.447858,-5.869594,-2.823531,-9.24,-3.08,-3.99,1729422059784.0,0.0
-4.551149,-7.140182,-5.053641,-23.870001,-4.9,0.63,1729422059805.0,0.0
-4.587041,-8.01117,-5.759524,-15.12,-21.629999,5.95,1729422059822.0,0.0
-3.558127,-7.338787,-3.692125,-16.66,-55.790001,10.22,1729422059848.0,0.0
-3.665804,-6.788438,-4.122833,-24.780001,-60.970001,14.28,1729422059862.0,0.0
-4.989035,-7.599605,-7.360322,-15.12,-40.110001,5.32,1729422059884.0,0.0
-7.566105,-7.101898,-8.721838,-10.64,15.12,-1.05,1729422059904.0,0.0
-8.338986,-9.779467,-10.468598,19.6,16.24,7.14,1729422059922.0,0.0
-6.520442,-9.229117,-6.79083,39.060001,10.22,14.77,1729422059942.0,0.0
-4.058227,-7.140182,-5.197211,57.75,-1.61,7.14,1729422059962.0,0.0
-3.239882,-6.821937,-7.542177,62.93,31.15,1.68,1729422059983.0,0.0
-4.115655,-6.106483,-7.350751,38.5,69.370003,1.68,1729422060003.0,0.0
-5.079963,-6.252446,-1.318445,22.120001,71.540001,3.5,1729422060022.0,0.0
-3.412165,-9.645468,-0.344566,-12.95,4.76,-13.02,1729422060042.0,0.0
-1.921437,-9.540184,-2.074577,-36.049999,-43.259998,-35.98,1729422060062.0,0.0
-1.337588,-6.51087,-2.009971,-23.66,-29.889999,-25.76,1729422060084.0,0.0
-2.816352,-5.907879,-3.809374,-24.85,-11.27,-14.07,1729422060102.0,0.0
-4.625326,-7.771888,-5.76431,-29.889999,-8.05,-9.31,1729422060122.0,0.0
-4.486543,-8.176274,-5.233103,-21.49,-38.57,-5.39,1729422060143.0,0.0
-3.739982,-6.652047,-4.003192,-14.07,-56.420002,6.09,1729422060161.0,0.0
-3.871587,-6.960721,-4.84068,-17.92,-46.549999,13.37,1729422060183.0,0.0
-6.534799,-7.185646,-5.98445,-35.490002,-18.059999,-5.25,1729422060203.0,0.0
-7.52782,-9.286544,-10.236496,-1.12,10.01,5.32,1729422060222.0,0.0
-7.020542,-7.999206,-9.896714,25.76,12.88,4.13,1729422060242.0,0.0
-6.144768,-9.138189,-8.126025,51.170002,37.73,10.01,1729422060263.0,0.0
-5.120641,-7.546963,-6.910471,55.510002,32.619999,-10.36,1729422060284.0,0.0
-4.362115,-6.317052,-8.635696,74.690002,70.559998,-8.19,1729422060304.0,0.0
-4.295116,-3.570091,-5.45085,55.299999,95.129997,-5.46,1729422060323.0,0.0
-5.721239,-4.900501,4.228118,-4.97,72.379997,1.75,1729422060341.0,0.0
-4.053442,-9.853643,0.303888,-83.440002,-35.700001,-34.23,1729422060362.0,0.0
-0.942772,-9.602397,-1.942972,-60.41,-66.779999,-34.720001,1729422060388.0,0.0
-0.634098,-5.673382,-1.007378,6.93,-8.47,-12.6,1729422060403.0,0.0
-3.517449,-6.266802,-4.185047,-16.870001,21.91,-2.03,1729422060422.0,0.0
-5.333601,-8.451449,-5.831308,-33.810001,-1.68,-3.43,1729422060442.0,0.0
-4.194618,-7.786245,-5.218746,-33.110001,-50.540001,5.18,1729422060463.0,0.0
-3.34038,-6.52762,-3.783052,-34.650002,-63.0,14.56,1729422060482.0,0.0
-3.608376,-6.690332,-4.936393,-43.400002,-52.290001,13.72,1729422060504.0,0.0
-5.505885,-7.810174,-7.893922,-34.369999,-32.200001,6.02,1729422060522.0,0.0
-7.264609,-8.678767,-10.164711,18.9,-6.16,13.86,1729422060542.0,0.0
-7.085148,-7.422535,-10.564312,82.599998,21.559999,21.91,1729422060562.0,0.0
-6.9009,-7.869993,-7.757531,92.470001,59.010002,22.68,1729422060582.0,0.0
-6.147161,-8.039884,-7.700103,54.32,43.189999,-3.29,1729422060603.0,0.0
-4.76411,-7.946564,-9.186047,44.310001,54.389999,-9.52,1729422060622.0,0.0
-3.285345,-5.297709,-7.003791,49.0,72.309998,-8.61,1729422060642.0,0.0
-4.134798,-4.723432,3.096312,31.780001,85.889999,5.25,1729422060662.0,0.0
-4.003192,-9.147761,-0.055035,-54.389999,14.98,-24.15,1729422060683.0,0.0
-2.943172,-11.413764,-1.086342,-54.040001,-42.77,-31.43,1729422060704.0,0.0
-0.059821,-5.955735,-0.196211,-3.22,-33.18,-20.16,1729422060721.0,0.0
-2.416751,-5.469993,-2.667997,-21.49,8.12,-6.93,1729422060742.0,0.0
-5.206782,-7.432107,-4.756931,-53.34,8.61,-2.52,1729422060762.0,0.0
-4.627719,-7.822137,-5.919843,-39.900002,-32.200001,3.99,1729422060782.0,0.0
-2.988636,-6.503692,-4.419543,-33.529999,-62.02,14.21,1729422060805.0,0.0
-3.548556,-6.111269,-3.701697,-51.52,-58.029999,14.28,1729422060821.0,0.0
-5.333601,-8.128418,-7.692925,-69.790001,-41.860001,5.11,1729422060841.0,0.0
-7.401,-8.415558,-8.346166,-20.440001,-23.24,7.77,1729422060861.0,0.0
-7.475177,-10.542776,-11.645866,71.050003,15.4,21.07,1729422060893.0,0.0
-6.910471,-7.611568,-9.159724,88.269997,44.170002,14.42,1729422060903.0,0.0
-6.56112,-6.783652,-5.572884,65.169998,40.880001,10.01,1729422060922.0,0.0
-4.48415,-7.441679,-7.836494,45.849998,25.620001,-8.05,1729422060941.0,0.0
-3.218346,-6.216553,-7.267002,56.07,47.32,1.33,1729422060962.0,0.0
-2.928815,-5.369494,-3.342773,59.57,73.290001,8.05,1729422060982.0,0.0
-5.12782,-7.149754,5.381458,5.32,34.439999,-3.57,1729422061003.0,0.0
-3.605984,-10.102496,-1.359123,-46.130001,-34.09,-34.299999,1729422061021.0,0.0
-2.251646,-8.602197,-3.397808,-40.25,-34.93,-24.360001,1729422061041.0,0.0
-2.266003,-7.034898,-3.333202,-29.82,-26.950001,-11.2,1729422061062.0,0.0
-4.271189,-7.735995,-4.656433,-44.310001,-2.87,-1.82,1729422061083.0,0.0
-5.04407,-7.585248,-5.47717,-42.07,-6.37,-3.08,1729422061104.0,0.0
-4.711468,-6.716653,-5.02732,-43.540001,-27.58,-1.61,1729422061121.0,0.0
-4.632504,-5.572884,-4.295116,-55.369999,-50.540001,0.7,1729422061141.0,0.0
-4.338188,-5.587241,-6.987042,-55.23,-55.439999,9.59,1729422061161.0,0.0
-6.707082,-7.063612,-6.537192,-15.75,-27.790001,11.34,1729422061182.0,0.0
-7.590034,-8.939585,-11.988041,22.889999,30.450001,9.24,1729422061203.0,0.0
-7.645068,-8.353344,-8.772088,42.139999,30.24,6.86,1729422061223.0,0.0
-5.711668,-7.657032,-6.809973,10.57,39.130001,5.88,1729422061241.0,0.0
-4.0008,-6.21416,-9.310472,-46.200001,25.129999,-16.24,1729422061261.0,0.0
-3.148954,-5.85763,-8.62134,-31.290001,47.459999,-14.35,1729422061282.0,0.0
-3.306881,-6.848258,-2.234896,-17.710001,70.910004,-6.3,1729422061303.0,0.0
-3.9673,-9.123833,0.457029,-56.07,26.32,-27.51,1729422061321.0,0.0
-3.268596,-11.94497,-2.801995,-36.330002,-19.32,-40.599998,1729422061341.0,0.0
-0.928415,-8.487342,-1.048056,32.41,-29.610001,-32.27,1729422061361.0,0.0
-0.957129,-5.888737,-1.959722,87.849998,-17.99,-6.86,1729422061386.0,0.0
-3.61077,-7.073184,-4.697111,57.610001,8.05,5.67,1729422061405.0,0.0
-5.386244,-7.616355,-5.9342,15.33,-3.5,2.03,1729422061421.0,0.0
-5.084748,-7.171289,-5.986843,-16.59,-55.299999,1.33,1729422061442.0,0.0
-4.45065,-6.336195,-4.852644,-42.07,-77.279999,4.41,1729422061461.0,0.0
-4.342973,-5.781059,-6.927221,-61.110001,-61.599998,7.84,1729422061482.0,0.0
-6.84108,-6.855437,-5.580062,-48.369999,-21.35,1.54,1729422061504.0,0.0
-7.721639,-9.035298,-12.303895,-25.129999,21.280001,4.2,1729422061521.0,0.0
-7.233503,-8.327023,-9.537791,20.16,11.48,7.49,1729422061621.0,0.0
-6.020342,-7.573284,-6.015556,30.1,29.049999,7.49,1729422061628.0,0.0
-4.618148,-6.072984,-7.250252,22.469999,33.389999,-10.64,1729422061632.0,0.0
-3.993621,-5.548956,-7.819745,35.349998,64.190002,-5.6,1729422061634.0,0.0
-4.158726,-4.912465,-4.673182,21.35,81.340004,0.98,1729422061637.0,0.0
-4.694718,-7.075576,0.799203,-25.200001,40.389999,-7.0,1729422061643.0,0.0
-2.79721,-11.609976,-2.734996,-54.810001,-34.509998,-31.99,1729422061660.0,0.0
-0.614955,-9.066404,-3.172883,-31.219999,-52.009998,-28.98,1729422061682.0,0.0
0.272782,-5.206782,-3.268596,23.17,-19.809999,-17.290001,1729422061704.0,0.0
-3.515057,-6.798009,-5.682954,33.459999,8.26,-0.28,1729422061723.0,0.0
-5.163712,-8.183454,-4.474578,77.559998,0.77,24.360001,1729422061741.0,0.0
-3.400201,-6.183054,-4.977071,113.540001,-26.74,34.860001,1729422061761.0,0.0
-3.029313,-5.572884,-3.54377,89.739998,-37.029999,40.670002,1729422061782.0,0.0
-4.225725,-6.474977,-4.462614,13.86,-33.670002,35.630001,1729422061803.0,0.0
-6.970293,-9.576077,-4.146761,-31.85,-33.740002,25.48,1729422061823.0,0.0
-8.355737,-9.623933,-10.880164,-28.84,-3.85,19.809999,1729422061841.0,0.0
-8.532805,-11.959327,-10.676775,34.509998,4.41,11.83,1729422061862.0,0.0
-6.503692,-10.423136,-6.819544,88.340004,22.120001,14.28,1729422061882.0,0.0
-5.508278,-6.446264,-6.218946,97.300003,70.279999,-9.38,1729422061904.0,0.0
-6.008378,-4.666004,-4.249653,80.5,105.349998,-24.85,1729422061921.0,0.0
-5.927022,-4.067799,-2.045863,3.64,82.040001,-27.299999,1729422061941.0,0.0
-3.919443,-7.74796,-3.534199,-67.199997,7.07,-43.68,1729422061961.0,0.0
-2.117648,-11.624333,-2.679961,-78.260002,-29.960001,-42.560001,1729422061982.0,0.0
0.59342,-8.403593,-0.495314,-41.860001,-47.459999,-38.009998,1729422062003.0,0.0
0.382852,-6.379266,-0.232104,2.45,5.74,-16.66,1729422062022.0,0.0
-1.90708,-5.867201,-0.921237,-29.469999,28.49,-17.85,1729422062128.0,0.0
-5.161318,-7.771888,-3.134598,-66.709999,1.26,-12.88,1729422062130.0,0.0
-4.630112,-7.274181,-4.965107,-61.32,-42.279999,-3.29,1729422062137.0,0.0
-3.632305,-5.898308,-5.623133,-55.02,-55.93,5.81,1729422062146.0,0.0
-4.173083,-6.417551,-6.30748,-60.200001,-56.0,16.73,1729422062149.0,0.0
-5.740381,-8.62134,-7.992027,-58.869999,-40.950001,14.14,1729422062151.0,0.0
-6.017949,-9.741181,-11.10509,0.77,-30.24,12.04,1729422062162.0,0.0
-7.499106,-8.123632,-8.65484,98.910004,26.809999,27.23,1729422062243.0,0.0
-7.099504,-6.013163,-6.017949,49.98,49.700001,-1.82,1729422062285.0,0.0
-5.118248,-5.74756,-7.57089,18.27,30.24,-7.0,1729422062287.0,0.0
-3.026921,-4.855037,-3.63709,34.02,36.049999,3.78,1729422062289.0,0.0
-3.220739,-5.426922,3.806981,-11.41,28.84,3.92,1729422062290.0,0.0
-3.326023,-10.403993,-1.268196,-65.099998,-35.349998,-30.309999,1729422062344.0,0.0
-3.050849,-10.526026,-4.015156,-47.110001,-45.360001,-21.0,1729422062345.0,0.0
-1.655833,-8.109276,-3.706482,-4.55,-18.34,-19.389999,1729422062346.0,0.0
-2.210968,-6.876972,-3.620341,0.21,-10.08,-3.71,1729422062360.0,0.0
-4.283153,-7.197611,-3.177669,4.06,-10.71,12.88,1729422062385.0,0.0
-5.003392,-7.23111,-3.084348,16.73,-17.360001,13.09,1729422062403.0,0.0
-4.98425,-7.496714,-4.682754,4.48,-35.77,5.18,1729422062420.0,0.0
-3.897908,-5.682954,-6.668797,-32.130001,-50.889999,4.48,1729422062439.0,0.0
-5.757132,-6.508478,-6.460621,-68.18,-50.82,7.98,1729422062460.0,0.0
-6.585048,-9.154939,-12.327823,-81.480003,-8.68,-3.78,1729422062481.0,0.0
-6.159126,-10.128819,-9.970891,-14.7,-27.719999,-1.47,1729422062500.0,0.0
-5.168497,-9.982857,-8.956335,33.040001,29.610001,10.92,1729422062520.0,0.0
-5.111069,-7.465607,-6.518049,39.970001,52.080002,-8.96,1729422062541.0,0.0
-4.4674,-6.647261,-7.779066,56.490002,55.860001,-15.05,1729422062559.0,0.0
-3.826123,-4.539185,-5.678168,34.299999,77.559998,-14.35,1729422062580.0,0.0
-5.364708,-5.273781,-0.114855,-22.120001,76.440002,-8.82,1729422062600.0,0.0
-5.898308,-9.669396,-0.129212,-81.410004,-0.28,-33.599998,1729422062619.0,0.0
-4.127619,-11.79183,-4.4674,-55.720001,-37.66,-42.07,1729422062640.0,0.0
-3.062813,-8.066205,-3.225525,-8.68,3.15,-31.290001,1729422062660.0,0.0
-3.902694,-6.163911,-2.790031,3.36,38.709999,-26.32,1729422062680.0,0.0
-5.972485,-6.197411,-3.95055,-52.990002,46.41,-27.370001,1729422062701.0,0.0
-6.338587,-7.776673,-5.391029,-111.020004,11.69,-33.389999,1729422062720.0,0.0
-3.56052,-7.54457,-7.563712,-150.289993,-23.870001,-34.369999,1729422062740.0,0.0
-2.431108,-6.039484,-6.453443,-165.690002,-13.65,-37.170002,1729422062760.0,0.0
-1.629512,-5.498707,-5.773881,-193.550003,0.63,-44.799999,1729422062781.0,0.0
-0.827917,-5.410172,-6.312266,-165.550003,-2.87,-38.779999,1729422062802.0,0.0
-1.383051,-4.35733,-8.755339,-101.849998,-2.1,-26.880001,1729422062820.0,0.0
-1.514657,-5.347959,-9.896714,-58.66,13.65,-20.02,1729422062840.0,0.0
-2.007578,-3.862016,-9.006584,-68.879997,57.82,-0.28,1729422062860.0,0.0
-2.541178,-4.180261,-8.322237,-29.75,59.639999,7.07,1729422062881.0,0.0
-2.352145,-4.316652,-7.420143,-6.16,49.0,10.36,1729422062901.0,0.0
-1.811367,-4.864608,-7.345965,-2.31,36.470001,13.16,1729422062920.0,0.0
-1.485943,-5.319244,-8.965906,-17.219999,25.200001,5.04,1729422062940.0,0.0
-1.261017,-3.584448,-9.202796,-25.34,35.91,5.6,1729422062961.0,0.0
-2.404787,-2.172683,-8.752945,-7.28,61.18,30.73,1729422062982.0,0.0
-3.498307,-2.311467,-7.712067,22.4,82.599998,49.700001,1729422063001.0,0.0
-3.452843,-3.192025,-6.405586,34.790001,52.290001,63.0,1729422063021.0,0.0
-2.615355,-5.192425,-6.367301,28.98,8.89,77.139999,1729422063040.0,0.0
-2.002793,-7.331609,-6.874579,11.55,-14.63,61.740002,1729422063060.0,0.0
-1.899901,-6.419943,-7.590034,-24.43,5.95,28.700001,1729422063081.0,0.0
-2.699104,-5.094319,-8.652447,-8.47,32.060001,11.97,1729422063102.0,0.0
-3.287738,-4.510471,-8.946764,24.639999,34.650002,-2.73,1729422063120.0,0.0
-4.010371,-3.481557,-10.628918,21.07,24.92,-3.22,1729422063141.0,0.0
-3.998406,-4.845466,-15.077175,-12.46,8.75,-23.24,1729422063160.0,0.0
-3.565305,-8.432307,-15.091532,-18.34,10.08,-45.150002,1729422063181.0,0.0
-2.208575,-8.001599,-11.459228,50.610001,12.32,-68.739998,1729422063201.0,0.0
-1.325624,-4.503292,-9.600004,163.660004,33.880001,-65.099998,1729422063220.0,0.0
-1.383051,-2.56032,-7.152147,213.570007,35.0,-61.880001,1729422063240.0,0.0
-1.605584,-4.479364,-4.546363,197.960007,39.130001,-55.93,1729422063261.0,0.0
-1.808974,-6.675975,-7.444071,195.160004,25.129999,-26.25,1729422063281.0,0.0
-2.213361,-8.188239,-5.371887,250.669998,11.13,8.89,1729422063302.0,0.0
-2.495714,-6.163911,-2.945565,280.279999,43.049999,37.099998,1729422063320.0,0.0
-3.160919,-7.350751,-3.172883,307.720001,51.029999,51.66,1729422063340.0,0.0
-3.361916,-6.34098,-4.292724,217.770004,38.849998,46.130001,1729422063363.0,0.0
-3.352344,-5.522634,-3.613162,48.09,42.77,48.23,1729422063384.0,0.0
-1.969293,-6.742974,-1.70369,-146.020004,35.07,36.540001,1729422063403.0,0.0
-1.823331,-9.401401,-3.919443,-303.519989,-42.91,32.34,1729422063421.0,0.0
-1.124627,-9.875179,-5.230711,-317.940002,-79.590004,5.39,1729422063442.0,0.0
-1.158126,-6.618547,-6.125626,-299.880005,-60.060001,14.35,1729422063460.0,0.0
-1.524228,-4.333402,-7.353144,-252.839996,-24.99,20.370001,1729422063481.0,0.0
-2.163112,-5.331209,-10.956735,-184.660004,-22.889999,17.710001,1729422063504.0,0.0
-2.672783,-5.663811,-9.131011,-130.830002,-25.620001,26.6,1729422063521.0,0.0
-2.610569,-5.838487,-9.016156,-114.940002,-24.43,16.379999,1729422063541.0,0.0
-2.37368,-7.487142,-11.10509,-93.870003,-51.799999,-8.4,1729422063561.0,0.0
-2.256432,-8.362915,-13.524234,-48.16,-53.200001,-24.01,1729422063581.0,0.0
-1.737189,-7.542177,-13.861622,26.74,-21.35,-42.700001,1729422063602.0,0.0
-1.495514,-4.881358,-13.165311,119.840004,16.66,-50.75,1729422063624.0,0.0
-1.741975,-2.900101,-9.643075,155.119995,59.5,-52.220001,1729422063643.0,0.0
-2.878566,-4.328616,-2.947958,147.979996,85.120003,-55.790001,1729422063662.0,0.0
-3.768696,-5.615955,-5.364708,135.869995,100.730003,-49.07,1729422063682.0,0.0
-4.041477,-7.04447,-7.23111,193.199997,53.689999,-25.129999,1729422063703.0,0.0
-3.627519,-7.592427,-7.013363,282.660004,-3.64,9.66,1729422063720.0,0.0
-2.694318,-5.302495,-5.213961,298.480011,-29.960001,5.67,1729422063741.0,0.0
-2.615355,-4.074977,-4.206582,115.779999,41.580002,9.73,1729422063761.0,0.0
-2.998207,-5.304887,-2.557927,-50.330002,62.369999,11.06,1729422063781.0,0.0
-2.56032,-6.869793,-3.369094,-175.490005,50.610001,9.45,1729422063805.0,0.0
-2.002793,-5.91745,-3.885944,-242.339996,-17.219999,3.29,1729422063826.0,0.0
-1.471586,-2.713461,-4.979464,-293.299988,-51.380001,21.49,1729422063840.0,0.0
-1.830509,-4.850252,-8.114061,-307.299988,-47.389999,48.16,1729422063860.0,0.0
-1.674976,-8.657232,-11.858829,-283.850006,-68.459999,23.940001,1729422063881.0,0.0
-1.749153,-9.765109,-11.657832,-200.479996,-51.170002,35.630001,1729422063903.0,0.0
-1.629512,-8.578269,-10.528419,-87.919998,-24.99,29.540001,1729422063920.0,0.0
-1.5003,-7.130611,-7.678568,-22.049999,-12.11,3.08,1729422063941.0,0.0
-2.210968,-6.963113,-8.623734,0.98,-3.5,-27.02,1729422063961.0,0.0
-2.679961,-6.163911,-15.282957,45.57,2.24,-54.740002,1729422063984.0,0.0
-2.517249,-5.735595,-15.85245,157.639999,14.49,-50.189999,1729422064004.0,0.0
-1.641476,-3.333202,-8.982656,238.210007,24.360001,-42.98,1729422064020.0,0.0
-2.014757,-2.179861,-2.598605,247.449997,38.150002,-37.029999,1729422064041.0,0.0
-2.622534,-4.015156,-3.783052,220.570007,64.120003,-40.810001,1729422064061.0,0.0
-3.598805,-6.101698,-7.525427,184.589996,39.48,-26.32,1729422064081.0,0.0
-4.177868,-6.628119,-6.029913,155.680008,39.130001,19.460001,1729422064106.0,0.0
-4.144369,-5.568098,-5.639884,84.279999,63.349998,16.24,1729422064120.0,0.0
-4.005585,-5.35753,-4.682754,-10.43,50.330002,25.41,1729422064140.0,0.0
-3.242275,-6.099305,-2.612962,-136.639999,6.23,21.629999,1729422064161.0,0.0
-2.081756,-5.781059,-3.926622,-255.570007,-35.209999,18.549999,1729422064182.0,0.0
-1.540978,-3.689733,-5.245068,-313.950012,-66.639999,32.130001,1729422064204.0,0.0
-1.043271,-4.768896,-9.501899,-307.579987,-68.18,47.040001,1729422064220.0,0.0
-1.0002,-8.044669,-13.78266,-250.25,-81.900002,38.220001,1729422064241.0,0.0
-1.038485,-9.145369,-8.204988,-149.029999,-22.889999,45.080002,1729422064261.0,0.0
-1.629512,-7.793423,-8.310273,-92.470001,3.29,12.39,1729422064281.0,0.0
-2.098505,-8.181061,-8.77448,-60.760002,6.51,-27.58,1729422064305.0,0.0
-2.478964,-6.13759,-9.700503,-14.0,4.48,-44.170002,1729422064321.0,0.0
-2.912065,-3.644269,-12.677175,46.48,13.58,-43.259998,1729422064341.0,0.0
-3.038885,-3.816552,-13.545769,103.739998,8.82,-40.950001,1729422064360.0,0.0
-2.629712,-5.130211,-12.327823,167.440002,-1.61,-36.049999,1729422064386.0,0.0
-1.9669,-4.661219,-6.360123,214.759995,-5.11,-36.959999,1729422064404.0,0.0
-2.177469,-4.292724,-7.350751,221.690002,34.16,-36.889999,1729422064420.0,0.0
-2.395216,-5.867201,-8.853443,224.210007,20.719999,-24.780001,1729422064441.0,0.0
-3.929015,-8.662018,-7.32443,301.140015,45.220001,24.219999,1729422064465.0,0.0
-3.622734,-8.133204,-6.771688,308.209991,63.209999,0.14,1729422064482.0,0.0
-3.878766,-5.469993,-5.398208,239.399994,63.07,13.37,1729422064505.0,0.0
-3.558127,-2.931208,-4.034299,105.559998,56.07,19.530001,1729422064520.0,0.0
-3.194418,-5.230711,-1.899901,-32.060001,42.630001,22.889999,1729422064540.0,0.0
-2.648855,-7.362715,-2.208575,-172.830002,17.639999,16.1,1729422064560.0,0.0
-2.033899,-7.082755,-1.545763,-270.829987,-22.190001,-1.26,1729422064582.0,0.0
-1.306481,-4.216154,-3.706482,-342.440002,-60.619999,-9.45,1729422064602.0,0.0
-1.512264,-2.727818,-5.682954,-367.079987,-80.150002,10.15,1729422064620.0,0.0
-1.596013,-7.408179,-12.722638,-364.420013,-89.18,-6.3,1729422064640.0,0.0
-1.995614,-11.150554,-12.911672,-283.570007,-80.43,-8.12,1729422064662.0,0.0
-2.213361,-9.729217,-9.798609,-132.860001,-7.63,4.55,1729422064681.0,0.0
-2.431108,-7.080362,-10.236496,4.69,19.110001,-20.51,1729422064700.0,0.0
-3.335595,-4.548756,-8.860621,45.990002,47.18,-17.15,1729422064720.0,0.0
-3.897908,-3.354738,-8.573483,26.530001,53.619999,-26.18,1729422064740.0,0.0
-3.98405,-3.031706,-10.013963,-0.63,5.46,-15.96,1729422064761.0,0.0
-3.04367,-3.105884,-10.485349,20.02,-22.26,-1.4,1729422064780.0,0.0
-2.026721,-3.168097,-9.513863,24.15,-25.76,9.03,1729422064800.0,0.0
-1.11027,-2.969493,-8.195417,19.950001,-16.17,10.15,1729422064819.0,0.0
-1.153341,-2.935993,-7.034898,17.08,0.49,18.969999,1729422064839.0,0.0
-1.868794,-3.550949,-6.613762,-10.57,17.290001,16.940001,1729422064859.0,0.0
-2.421536,-5.120641,-7.977671,-25.34,28.559999,11.2,1729422064880.0,0.0
-2.868994,-5.032106,-9.044869,-13.51,9.87,20.860001,1729422064899.0,0.0
-2.876173,-4.249653,-9.102298,-0.56,-3.01,35.139999,1729422064919.0,0.0
-2.565106,-4.194618,-9.489935,-5.39,-9.45,37.73,1729422064940.0,0.0
-2.574677,-4.596612,-10.313066,-10.64,-6.3,45.57,1729422064959.0,0.0
-2.971886,-5.003392,-9.647861,-20.58,12.04,44.73,1729422064980.0,0.0
-3.957729,-5.67099,-8.176274,-19.67,37.170002,37.170002,1729422065001.0,0.0
-4.76411,-5.776274,-9.288938,5.74,45.990002,28.0,1729422065019.0,0.0
-4.962714,-5.328816,-11.193624,21.0,19.879999,20.719999,1729422065039.0,0.0
-4.500899,-5.635098,-9.662218,11.41,-1.47,10.36,1729422065060.0,0.0
-3.18724,-4.996214,-6.848258,-8.19,-8.61,-12.39,1729422065080.0,0.0
-2.258825,-3.885944,-9.525827,-17.43,-17.01,-28.42,1729422065099.0,0.0
-1.524228,-3.022135,-11.284552,-14.77,-20.440001,-26.530001,1729422065119.0,0.0
-0.866202,-3.972085,-8.997013,-22.82,-5.81,-34.580002,1729422065139.0,0.0
-1.026521,-4.864608,-9.662218,-28.630001,18.969999,-41.369999,1729422065159.0,0.0
-1.619941,-4.989035,-8.796017,-9.94,46.41,-45.920002,1729422065180.0,0.0
-2.423929,-5.106283,-8.578269,7.42,60.549999,-53.970001,1729422065199.0,0.0
-2.871387,-5.673382,-10.664811,27.93,53.41,-60.34,1729422065219.0,0.0
-2.505285,-6.549156,-9.750752,77.349998,40.25,-55.299999,1729422065239.0,0.0
-0.777667,-3.859623,-7.9011,100.870003,11.27,-48.93,1729422065258.0,0.0
0.5001,-2.878566,-7.082755,140.279999,-21.139999,-22.960001,1729422065279.0,0.0
0.51685,-4.756931,-5.871986,152.880005,-25.48,-11.13,1729422065300.0,0.0
-0.413958,-6.343372,-7.365108,131.460007,21.559999,-11.69,1729422065319.0,0.0
-1.600798,-6.862615,-7.020542,158.759995,73.080002,-0.07,1729422065339.0,0.0
-2.462214,-5.852845,-5.197211,200.270004,73.919998,14.42,1729422065360.0,0.0
-3.285345,-6.326623,-5.726025,224.419998,46.27,27.23,1729422065383.0,0.0
-3.127419,-4.926822,-6.702296,187.529999,26.880001,29.4,1729422065403.0,0.0
-2.09372,-4.807181,-5.259424,105.139999,3.36,35.349998,1729422065420.0,0.0
-1.014557,-4.005585,-2.718246,-122.080002,-35.279999,27.719999,1729422065441.0,0.0
-1.354338,-5.266603,-2.510071,-236.389999,-40.040001,37.240002,1729422065459.0,0.0
-1.619941,-5.757132,-5.221139,-294.350006,-25.129999,29.540001,1729422065480.0,0.0
-2.268396,-7.097112,-9.576077,-229.669998,-32.549999,15.96,1729422065499.0,0.0
-2.9336,-7.690532,-13.019348,-160.509995,-31.5,16.870001,1729422065519.0,0.0
-2.711068,-7.405786,-9.724431,-115.290001,-22.26,24.15,1729422065540.0,0.0
-2.179861,-6.23091,-8.293523,-76.370003,-26.67,19.879999,1729422065560.0,0.0
-2.177469,-3.541377,-9.518648,-68.669998,-30.450001,15.75,1729422065580.0,0.0
-2.885744,-3.969693,-10.085747,-76.93,-7.49,12.46,1729422065603.0,0.0
-2.620141,-5.800202,-11.619547,-85.82,-17.639999,-25.9,1729422065619.0,0.0
-2.65364,-6.644868,-10.595419,-51.869999,-15.61,-21.139999,1729422065640.0,0.0
-2.227718,-6.087341,-10.765309,10.08,-13.02,-29.049999,1729422065660.0,0.0
-1.277767,-4.833502,-11.057234,59.57,-11.13,-44.73,1729422065681.0,0.0
-0.851845,-4.029513,-9.135797,86.239998,-2.87,-50.189999,1729422065701.0,0.0
-0.713061,-3.536592,-8.961121,105.699997,26.74,-43.259998,1729422065720.0,0.0
-1.579263,-3.409772,-5.513064,115.919998,50.119999,-35.700001,1729422065741.0,0.0
-3.814159,-4.4674,-7.709675,87.010002,78.540001,-26.32,1729422065759.0,0.0
-4.376472,-7.305287,-7.889136,61.32,51.73,-14.21,1729422065781.0,0.0
-3.562913,-8.133204,-6.266802,83.160004,-1.82,-9.94,1729422065801.0,0.0
-3.139383,-6.233303,-7.491928,117.459999,-30.73,5.25,1729422065820.0,0.0
-3.273381,-3.436093,-8.109276,99.470001,-9.87,11.34,1729422065841.0,0.0
-3.462414,-2.254039,-5.28096,-4.62,39.48,23.1,1729422065860.0,0.0
-3.438486,-2.54357,-3.929015,-150.710007,30.799999,24.639999,1729422065880.0,0.0
-3.311667,-4.431508,-6.147161,-243.389999,-25.059999,28.700001,1729422065903.0,0.0
-2.998207,-6.855437,-11.595619,-222.110001,-82.879997,30.24,1729422065919.0,0.0
-2.127219,-8.444271,-11.253445,-124.809998,-90.790001,41.509998,1729422065940.0,0.0
-1.12702,-5.728417,-10.540384,-63.279999,-51.099998,50.82,1729422065961.0,0.0
-0.825524,-3.538985,-9.516255,-12.11,-16.940001,43.119999,1729422065980.0,0.0
-0.988236,-3.388237,-6.197411,-14.63,0.07,34.09,1729422066000.0,0.0
-1.739582,-5.501099,-7.542177,-39.34,-4.97,15.96,1729422066020.0,0.0
-2.45025,-7.420143,-9.726824,-29.33,-11.41,-6.86,1729422066039.0,0.0
-2.589034,-7.592427,-10.621738,11.34,-12.6,-22.68,1729422066060.0,0.0
-1.878366,-6.372087,-14.053047,71.400002,-31.290001,-33.25,1729422066080.0,0.0
-1.323231,-5.017749,-10.975878,168.490005,-10.29,-54.389999,1729422066100.0,0.0
-1.895115,-3.156133,-9.150154,193.199997,29.68,-60.060001,1729422066119.0,0.0
-2.916851,-2.26361,-6.281159,150.919998,68.389999,-71.68,1729422066140.0,0.0
-4.39083,-3.0006,-6.068198,44.799999,114.520004,-61.110001,1729422066159.0,0.0
-4.548756,-6.9344,-7.814958,-16.24,74.199997,-58.029999,1729422066180.0,0.0
-3.651447,-8.391629,-5.910272,9.59,2.38,-32.689999,1729422066201.0,0.0
-2.931208,-6.183054,-6.905686,95.199997,-19.32,2.94,1729422066219.0,0.0
-2.318645,-4.15394,-7.60439,153.580002,-36.540001,6.3,1729422066239.0,0.0
-2.794817,-2.330609,-4.395615,70.07,7.0,40.950001,1729422066260.0,0.0
-3.053242,-2.175076,-2.304288,-76.160004,50.959999,45.779999,1729422066281.0,0.0
-3.579663,-2.993421,-4.321437,-200.970001,27.65,35.77,1729422066302.0,0.0
-4.23051,-4.345366,-8.032705,-262.709991,-26.32,45.57,1729422066319.0,0.0
-3.28056,-7.15454,-12.803994,-250.600006,-90.650002,39.27,1729422066339.0,0.0
-1.304088,-9.339187,-10.080962,-134.399994,-126.910004,67.129997,1729422066361.0,0.0
0.351745,-7.207181,-9.638289,-40.599998,-135.589996,66.57,1729422066382.0,0.0
0.531207,-4.661219,-10.992627,4.9,-72.029999,37.170002,1729422066401.0,0.0
-1.239482,-4.328616,-9.975677,1.75,36.68,0.7,1729422066418.0,0.0
-4.254438,-6.506085,-10.217353,-4.9,92.82,-43.610001,1729422066439.0,0.0
-4.737789,-6.343372,-8.786445,18.200001,54.529999,-41.16,1729422066459.0,0.0
-4.108476,-5.761917,-10.674382,54.880001,-8.33,-33.25,1729422066480.0,0.0
-2.823531,-4.266403,-14.275579,92.889999,-35.490002,-36.119999,1729422066503.0,0.0
-1.794617,-3.117848,-11.47119,143.570007,-6.93,-40.32,1729422066518.0,0.0
-1.646262,-1.689333,-6.699903,130.199997,36.119999,-40.32,1729422066591.0,0.0
-2.603391,-2.115255,-4.701896,75.459999,60.549999,-37.310001,1729422066594.0,0.0
-3.474378,-4.249653,-6.702296,4.55,69.580002,-38.220001,1729422066595.0,0.0
-3.574877,-6.020342,-6.745367,-15.05,43.82,-29.26,1729422066613.0,0.0
-2.464607,-4.56072,-6.862615,-29.049999,-18.34,-29.120001,1729422066619.0,0.0
-2.045863,-4.852644,-7.080362,-9.31,-41.580002,2.52,1729422066638.0,0.0
-1.744368,-6.24766,-5.099105,-39.41,-42.490002,-5.39,1729422066658.0,0.0
-2.254039,-5.125426,-8.446664,-99.470001,-4.06,-7.56,1729422066679.0,0.0
-4.460221,-6.422336,-10.25803,-71.400002,49.77,12.18,1729422066699.0,0.0
-5.051248,-5.9342,-7.278966,-65.940002,80.709999,5.11,1729422066719.0,0.0
-5.47717,-6.118448,-9.741181,-62.720001,24.57,16.799999,1729422066739.0,0.0
-2.376073,-6.178268,-11.820543,-47.110001,-65.730003,3.43,1729422066760.0,0.0
-1.65344,-4.73061,-8.38445,53.970001,-55.16,42.279999,1729422066780.0,0.0
-0.31346,-1.765903,-9.489935,44.450001,-20.440001,2.59,1729422066801.0,0.0
-0.504886,-2.069792,-9.092726,-3.36,15.05,0.28,1729422066818.0,0.0
-0.751346,-3.634698,-9.449257,-45.709999,26.880001,-13.23,1729422066838.0,0.0
-0.990629,-6.183054,-7.381857,-46.48,38.849998,-23.59,1729422066859.0,0.0
-1.830509,-6.283553,-5.757132,-37.66,55.299999,-16.870001,1729422066879.0,0.0
-2.400001,-5.54417,-3.751946,-9.24,47.810001,-21.139999,1729422066900.0,0.0
-3.074777,-5.017749,-3.613162,16.24,18.129999,-17.360001,1729422066919.0,0.0
-2.778067,-3.658626,-7.429714,27.02,-30.870001,-14.63,1729422066938.0,0.0
-1.852045,-1.792224,-10.674382,15.05,-72.519997,4.83,1729422066958.0,0.0
-0.866202,-1.938186,-11.949757,-14.77,-77.629997,26.6,1729422066979.0,0.0
-0.20339,-4.426722,-10.612168,-31.360001,-65.379997,22.049999,1729422066999.0,0.0
-1.074377,-6.125626,-8.52802,-38.360001,-22.68,22.889999,1729422067019.0,0.0
-2.605784,-6.628119,-8.41795,-24.15,22.049999,1.12,1729422067039.0,0.0
-4.606184,-5.867201,-7.755138,-1.33,68.040001,-5.6,1729422067059.0,0.0
-5.9677,-5.431707,-10.238889,45.779999,66.5,-6.72,1729422067079.0,0.0
-5.659025,-4.378866,-11.066804,43.75,14.98,11.13,1729422067100.0,0.0
-3.491128,-5.773881,-8.709875,5.46,-45.57,8.61,1729422067119.0,0.0
-1.457229,-5.819345,-9.872787,32.830002,-76.090004,0.42,1729422067140.0,0.0
-0.555135,-5.091926,-9.856036,72.590004,-72.309998,9.45,1729422067158.0,0.0
-0.478565,-4.419543,-10.157533,96.879997,-17.08,-9.1,1729422067179.0,0.0
-1.392623,-5.257031,-10.286745,114.520004,56.279999,-24.710001,1729422067199.0,0.0
-2.605784,-4.804788,-8.343772,147.139999,83.580002,-23.870001,1729422067219.0,0.0
-3.098706,-5.426922,-5.737988,176.820007,82.599998,-23.73,1729422067239.0,0.0
-3.18724,-5.458029,-5.156533,173.039993,57.959999,-21.0,1729422067259.0,0.0
-3.306881,-5.498707,-5.517848,146.369995,12.39,-21.35,1729422067280.0,0.0
-2.919244,-5.625526,-6.848258,93.239998,-15.26,-28.700001,1729422067300.0,0.0
-2.37368,-7.070791,-6.872187,48.369999,-21.84,-26.040001,1729422067318.0,0.0
-1.512264,-8.317451,-5.570491,13.72,-28.210001,-25.34,1729422067340.0,0.0
-1.028914,-7.673782,-6.12084,26.809999,-32.619999,-14.0,1729422067359.0,0.0
-1.655833,-6.73101,-5.498707,60.130001,-2.8,-2.45,1729422067382.0,0.0
-2.06022,-4.68754,-3.26381,-3.36,51.099998,-6.02,1729422067399.0,0.0
-3.251846,-4.019942,-2.112862,-123.129997,74.059998,7.49,1729422067418.0,0.0
-3.67059,-3.914658,-7.80778,-206.430008,29.75,5.04,1729422067438.0,0.0
-3.201597,-5.180461,-10.289137,-212.380005,-74.900002,29.190001,1729422067458.0,0.0
-2.175076,-8.69791,-9.913465,-196.559998,-94.220001,37.869999,1729422067480.0,0.0
-1.20359,-8.750552,-9.958927,-168.770004,-89.739998,27.370001,1729422067511.0,0.0
-1.083949,-7.257431,-10.707881,-88.830002,-37.380001,28.07,1729422067518.0,0.0
-1.055235,-7.264609,-9.844072,-50.959999,-14.84,-8.12,1729422067539.0,0.0
-1.768296,-8.370094,-9.865608,-50.400002,5.04,-28.91,1729422067558.0,0.0
-1.739582,-7.034898,-10.777272,-2.94,16.66,-49.91,1729422067580.0,0.0
-1.883151,-4.603791,-12.820745,93.519997,21.629999,-42.630001,1729422067600.0,0.0
-1.658226,-2.964707,-10.533205,159.740005,30.380001,-40.040001,1729422067619.0,0.0
-1.634298,-2.938386,-5.005785,154.699997,49.630001,-35.91,1729422067638.0,0.0
-2.931208,-3.792624,-3.582055,116.550003,65.239998,-29.190001,1729422067658.0,0.0
-4.342973,-5.910272,-6.147161,92.75,81.410004,-28.210001,1729422067679.0,0.0
-4.795217,-6.903293,-6.06102,84.489998,58.939999,-23.17,1729422067700.0,0.0
-4.275974,-6.362515,-7.293324,108.290001,5.25,-4.69,1729422067718.0,0.0
-3.567699,-4.565506,-7.566105,113.050003,-45.990002,19.25,1729422067738.0,0.0
-2.519642,-3.641876,-5.022535,25.549999,-35.349998,27.860001,1729422067759.0,0.0
-2.445465,-5.02732,-6.094519,-136.080002,2.52,32.200001,1729422067780.0,0.0
-2.342573,-5.326423,-6.9009,-174.300003,-4.27,30.030001,1729422067798.0,0.0
-2.476572,-5.197211,-8.772088,-180.320007,-31.85,38.290001,1729422067818.0,0.0
-2.553142,-7.226324,-9.454042,-147.770004,-34.23,39.130001,1729422067838.0,0.0
-1.971686,-8.602197,-10.325029,-113.330002,-39.200001,16.379999,1729422067858.0,0.0
-1.469193,-6.513263,-10.554741,-71.120003,-32.130001,27.65,1729422067880.0,0.0
-1.095913,-5.76431,-8.078169,-9.1,-29.120001,24.219999,1729422067909.0,0.0
-1.136591,-5.388636,-8.126025,-14.98,-15.47,5.39,1729422067920.0,0.0
-1.85683,-6.391229,-8.248059,-21.210001,15.26,-5.67,1729422067939.0,0.0
-2.404787,-6.80758,-7.922636,1.54,24.57,-17.15,1729422067959.0,0.0
-2.720639,-6.391229,-10.892128,44.799999,11.62,-12.74,1729422067979.0,0.0
-2.361716,-4.821537,-11.74158,106.68,-11.34,-12.04,1729422068000.0,0.0
-1.935793,-4.39083,-10.604989,166.600006,-1.26,-7.21,1729422068017.0,0.0
-1.737189,-3.522235,-8.066205,179.339996,16.030001,-7.49,1729422068038.0,0.0
-2.694318,-2.775674,-6.589834,149.309998,59.220001,7.56,1729422068061.0,0.0
-3.988836,-5.355137,-5.907879,98.07,92.470001,4.83,1729422068078.0,0.0
-3.555735,-7.458428,-6.532406,21.91,60.619999,-17.219999,1729422068100.0,0.0
-3.440879,-7.441679,-6.979864,33.740002,-8.61,10.99,1729422068117.0,0.0
-2.584249,-6.305088,-4.625326,46.48,-18.76,7.91,1729422068138.0,0.0
-2.641676,-5.862415,-5.089533,9.24,-10.01,16.1,1729422068157.0,0.0
-2.770889,-5.319244,-4.345366,-77.699997,-12.95,-4.69,1729422068178.0,0.0
-2.971886,-5.508278,-5.300103,-186.199997,1.4,-7.77,1729422068199.0,0.0
-3.182454,-6.874579,-9.860823,-230.089996,-32.48,-14.98,1729422068218.0,0.0
-2.512464,-8.611769,-11.684153,-159.529999,-69.93,-15.82,1729422068239.0,0.0
-1.533799,-8.614161,-9.439686,-38.709999,-68.32,-4.48,1729422068258.0,0.0
-1.505085,-5.194818,-8.853443,30.66,-17.08,0.07,1729422068280.0,0.0
-2.151148,-3.04367,-8.245667,53.689999,29.75,-4.69,1729422068299.0,0.0
-3.29731,-3.251846,-7.068398,7.63,45.009998,-10.29,1729422068317.0,0.0
-3.792624,-5.754738,-8.303094,-39.41,31.360001,-18.83,1729422068338.0,0.0
-3.436093,-7.759924,-9.530612,-11.2,-15.47,-9.73,1729422068357.0,0.0
-2.179861,-5.814559,-11.959327,68.599998,-54.459999,-1.47,1729422068380.0,0.0
-1.294517,-4.555934,-10.798808,168.419998,-41.09,-0.77,1729422068399.0,0.0
-1.036092,-3.471986,-7.073184,193.759995,18.41,-4.83,1729422068418.0,0.0
-2.608176,-5.580062,-4.421937,192.779999,70.489998,2.45,1729422068439.0,0.0
-3.038885,-5.666204,-4.924429,69.160004,63.139999,-28.42,1729422068459.0,0.0
-3.907479,-5.726025,-6.922436,-36.470001,37.450001,-13.86,1729422068479.0,0.0
-3.830909,-7.180861,-4.508078,-107.169998,6.02,-17.99,1729422068500.0,0.0
-3.129812,-7.441679,-4.704289,-155.050003,-16.52,-20.51,1729422068518.0,0.0
-2.885744,-6.484549,-7.793423,-138.529999,-47.740002,-8.68,1729422068538.0,0.0
-2.124826,-6.173482,-7.640282,-131.880005,-57.330002,-2.17,1729422068557.0,0.0
-1.596013,-6.690332,-9.987641,-174.229996,-58.939999,-1.19,1729422068578.0,0.0
-1.696511,-7.123433,-12.136396,-149.660004,-42.98,8.89,1729422068599.0,0.0
-1.385444,-8.836694,-8.812766,-37.240002,-10.43,-3.43,1729422068617.0,0.0
-1.952543,-4.95075,-8.336594,33.25,27.09,4.9,1729422068637.0,0.0
-2.876173,-3.421736,-7.322037,76.019997,55.790001,12.46,1729422068659.0,0.0
-3.407379,-3.61077,-5.974878,24.219999,33.18,12.46,1729422068678.0,0.0
-3.462414,-5.587241,-7.678568,-17.43,7.07,7.49,1729422068699.0,0.0
-2.68714,-5.972485,-8.271988,-8.89,-33.389999,8.82,1729422068718.0,0.0
-1.954936,-5.216353,-10.858629,40.599998,-51.59,14.98,1729422068737.0,0.0
-1.476372,-6.008378,-12.519248,117.879997,-40.740002,6.09,1729422068759.0,0.0
-1.899901,-7.219146,-7.312466,180.740005,9.31,0.07,1729422068779.0,0.0
-2.854637,-6.163911,-7.836494,246.050003,82.32,-10.92,1729422068801.0,0.0
-3.905087,-6.06102,-7.929814,270.410004,101.220001,-8.54,1729422068818.0,0.0
-3.895515,-7.250252,-5.682954,245.559998,77.910004,-0.14,1729422068838.0,0.0
-3.256632,-7.37468,-4.596612,191.169998,23.59,0.84,1729422068857.0,0.0
-2.770889,-6.963113,-4.331009,164.220001,-3.92,6.51,1729422068878.0,0.0
-2.268396,-5.364708,-1.540978,103.739998,-1.26,1.47,1729422068901.0,0.0
-2.40718,-4.225725,0.447458,-39.27,17.08,2.1,1729422068917.0,0.0
-2.818745,-5.395815,-0.959522,-209.020004,3.15,-13.440001,1729422068937.0,0.0
-2.713461,-8.190632,-5.893522,-321.019989,-36.330002,-33.740002,1729422068957.0,0.0
-2.364109,-8.082954,-8.657232,-341.600006,-98.980003,-36.889999,1729422068979.0,0.0
-1.241875,-6.142376,-9.463614,-287.700012,-109.690002,-20.23,1729422068999.0,0.0
-0.875773,-5.793024,-10.79163,-220.149994,-88.340004,-5.74,1729422069017.0,0.0
-1.038485,-8.176274,-10.04507,-155.259995,-32.34,-10.64,1729422069038.0,0.0
-1.875973,-8.185846,-8.676375,-83.230003,25.129999,-19.040001,1729422069057.0,0.0
-2.847459,-6.826723,-7.759924,11.83,59.43,-17.290001,1729422069078.0,0.0
-3.921836,-4.867002,-7.982457,55.860001,53.970001,-15.4,1729422069100.0,0.0
-5.201996,-4.63729,-9.164511,74.480003,44.869999,4.06,1729422069119.0,0.0
-4.912465,-5.955735,-8.327023,111.790001,14.91,14.42,1729422069139.0,0.0
-3.979264,-6.556334,-7.951349,132.440002,-20.93,20.65,1729422069157.0,0.0
-2.9336,-6.719046,-8.085347,156.449997,-51.869999,20.719999,1729422069179.0,0.0
-1.995614,-6.812366,-7.913064,160.369995,-60.130001,10.15,1729422069200.0,0.0
-1.311267,-6.424729,-7.307681,139.229996,-43.330002,0.7,1729422069217.0,0.0
-1.409373,-6.405586,-7.343572,123.059998,-14.28,-0.07,1729422069237.0,0.0
-1.512264,-6.788438,-6.417551,100.309998,15.82,-8.4,1729422069258.0,0.0
-1.775474,-6.551548,-5.032106,24.01,34.860001,-8.33,1729422069278.0,0.0
-2.033899,-7.590034,-5.223531,-33.040001,44.029999,-0.7,1729422069299.0,0.0
-2.122434,-8.992228,-6.362515,-37.310001,31.85,1.61,1729422069318.0,0.0
-1.615155,-9.128618,-6.422336,-6.51,10.01,-0.21,1729422069337.0,0.0
-1.086342,-8.116454,-5.596812,29.049999,-0.35,6.79,1729422069357.0,0.0
-1.045663,-7.322037,-5.453243,54.599998,5.25,7.49,1729422069381.0,0.0
-1.418944,-7.558927,-5.190032,41.580002,31.360001,2.73,1729422069399.0,0.0
-1.978864,-8.329416,-4.606184,12.25,53.760002,1.89,1729422069418.0,0.0
-2.522035,-8.563912,-5.048856,2.87,48.439999,3.36,1729422069437.0,0.0
-2.895315,-7.996813,-4.208975,17.360001,26.389999,5.39,1729422069457.0,0.0
-2.904887,-7.965706,-4.804788,22.68,15.89,0.63,1729422069478.0,0.0
-2.691926,-8.173882,-5.85763,20.09,3.99,-3.22,1729422069499.0,0.0
-2.380858,-8.236095,-5.630312,7.21,1.47,-3.43,1729422069517.0,0.0
-2.340181,-7.616355,-5.709275,-3.43,6.51,-2.03,1729422069538.0,0.0
-2.533999,-7.156933,-5.843273,-6.02,16.52,-1.12,1729422069558.0,0.0
-2.778067,-7.676175,-6.111269,-5.04,25.76,-0.14,1729422069579.0,0.0
-2.730211,-8.276773,-4.792823,-3.71,20.58,1.96,1729422069599.0,0.0
-2.63689,-8.819944,-3.969693,-8.26,17.92,5.95,1729422069617.0,0.0
-2.237289,-9.262616,-4.333402,-14.14,0.77,-1.75,1729422069639.0,0.0
-1.615155,-8.915657,-4.455436,-20.58,-17.5,-1.33,1729422069657.0,0.0
-0.832702,-8.360522,-4.524827,-18.9,-39.900002,-5.95,1729422069678.0,0.0
-1.562513,-6.829116,-2.644069,-39.060001,-25.83,-2.24,1729422069697.0,0.0
-2.409572,-7.477571,-4.524827,-64.260002,18.200001,-4.27,1729422069717.0,0.0
-3.127419,-8.059027,-5.742774,-53.549999,0.49,0.49,1729422069738.0,0.0
-2.344966,-9.023334,-8.49452,5.88,-35.07,9.87,1729422069758.0,0.0
-0.399601,-9.281759,-9.253045,100.099998,-65.029999,28.98,1729422069779.0,0.0
-0.57667,-10.681561,-7.673782,208.389999,-18.969999,24.85,1729422069800.0,0.0
-1.569692,-11.854043,-3.565305,191.869995,56.630001,-5.81,1729422069817.0,0.0
-3.962514,-9.293723,0.055035,141.680008,107.379997,-10.01,1729422069838.0,0.0
-5.558527,-8.776874,-3.905087,212.449997,34.93,10.64,1729422069858.0,0.0
-4.187439,-6.996613,-3.787838,278.459991,-32.619999,32.130001,1729422069879.0,0.0
-3.15374,-7.925028,-3.936193,296.519989,-15.68,36.470001,1729422069898.0,0.0
-3.235096,-8.559127,-3.699304,267.540009,30.17,9.1,1729422069918.0,0.0
-3.385844,-8.29113,-0.949951,193.410004,59.920002,-2.03,1729422069938.0,0.0
-2.888137,-7.958528,0.957129,76.019997,34.16,0.14,1729422069958.0,0.0
-1.85683,-7.219146,1.718047,-44.59,11.69,-8.47,1729422069979.0,0.0
-2.086541,-6.709475,0.473779,-165.410004,25.549999,-17.57,1729422070001.0,0.0
-2.847459,-6.001199,-2.17029,-277.549988,41.369999,-27.370001,1729422070020.0,0.0
-4.127619,-6.446264,-2.548356,-328.440002,22.120001,-26.389999,1729422070038.0,0.0
-3.929015,-7.250252,-3.337988,-341.809998,-15.190001,-24.639999,1729422070059.0,0.0
-2.127219,-7.398607,-5.046463,-356.790009,-45.779999,-29.75,1729422070078.0,0.0
-0.672383,-7.092326,-7.063612,-392.630005,-80.150002,-45.080002,1729422070099.0,0.0
-0.358923,-5.876772,-10.691131,-421.540009,-97.370003,-35.279999,1729422070117.0,0.0
-0.866202,-4.642076,-11.562119,-426.160004,-22.960001,-11.97,1729422070137.0,0.0
-2.641676,-7.054041,-11.684153,-305.899994,53.970001,-7.28,1729422070158.0,0.0
-4.342973,-9.535398,-11.763116,-143.710007,66.989998,-19.25,1729422070178.0,0.0
-4.015156,-8.099705,-10.753345,-40.880001,31.5,-17.57,1729422070200.0,0.0
-1.885544,-6.072984,-10.011569,17.43,-7.98,-9.03,1729422070218.0,0.0
-0.332602,-5.525027,-10.956735,80.779999,-11.55,-1.75,1729422070239.0,0.0
-0.29671,-6.326623,-12.55514,187.039993,12.67,9.31,1729422070258.0,0.0
-1.036092,-6.123233,-9.535398,307.160004,51.170002,20.370001,1729422070278.0,0.0
-1.655833,-6.333801,-3.029313,361.899994,59.57,22.960001,1729422070299.0,0.0
-2.608176,-4.070191,0.926022,323.679993,27.370001,23.870001,1729422070317.0,0.0
-3.261417,-7.235896,-5.673382,304.640015,-0.28,19.879999,1729422070338.0,0.0
-2.727818,-11.782259,-6.819544,399.140015,6.37,26.040001,1729422070360.0,0.0
-3.651447,-10.028319,-7.853244,476.910004,32.970001,31.08,1729422070381.0,0.0
-3.897908,-7.389036,-6.496514,531.299988,69.93,19.809999,1729422070398.0,0.0
-4.661219,-4.512863,0.133998,395.920013,68.18,30.870001,1729422070418.0,0.0
-4.41715,-3.393023,1.940579,143.149994,26.950001,11.55,1729422070438.0,0.0
-3.146562,-4.173083,0.634098,-112.07,18.200001,-5.74,1729422070457.0,0.0
-2.749353,-5.819345,-0.51685,-342.019989,-36.470001,-9.94,1729422070478.0,0.0
-1.320838,-8.082954,-2.45025,-398.790009,-68.110001,-18.76,1729422070500.0,0.0
-1.4668,-8.913264,-4.591826,-453.179993,-70.840004,-29.190001,1729422070518.0,0.0
-1.830509,-8.035098,-8.458629,-519.470032,-64.400002,-58.66,1729422070538.0,0.0
-1.179662,-6.032306,-10.810772,-537.950012,-73.290001,-52.43,1729422070557.0,0.0
-0.713061,-5.594419,-12.58864,-455.700012,-62.790001,-31.43,1729422070579.0,0.0
-1.17009,-7.436893,-10.820344,-322.630005,-23.030001,-23.1,1729422070598.0,0.0
-2.48375,-8.432307,-10.82513,-172.339996,39.48,-12.53,1729422070617.0,0.0
-3.440879,-9.068797,-9.042477,2.17,42.98,-7.56,1729422070638.0,0.0
-2.924029,-7.740781,-9.169296,144.970001,10.29,2.1,1729422070657.0,0.0
-1.804188,-7.338787,-11.073983,252.770004,-24.85,15.12,1729422070680.0,0.0
-0.540778,-8.10449,-8.798409,323.959991,-34.720001,29.75,1729422070700.0,0.0
0.275175,-5.190032,-3.720839,374.290009,-43.82,23.309999,1729422070718.0,0.0
-1.208375,-6.288338,-3.730411,410.130005,-16.030001,14.63,1729422070737.0,0.0
-2.096112,-7.668997,-7.046863,438.899994,52.709999,-2.59,1729422070758.0,0.0
-5.663811,-8.702696,-6.396015,421.679993,105.840004,21.280001,1729422070777.0,0.0
-5.424529,-9.875179,-4.23051,394.100006,93.239998,38.779999,1729422070798.0,0.0
-2.943172,-8.992228,0.181855,218.75,-5.95,25.549999,1729422070819.0,0.0
-1.239482,-7.826923,1.237089,35.91,-20.299999,-2.59,1729422070836.0,0.0
-1.162912,-7.384251,-0.880559,-106.82,12.04,-16.73,1729422070858.0,0.0
-2.036292,-6.532406,-0.564706,-215.880005,46.48,-21.77,1729422070880.0,0.0
-2.87378,-6.537192,0.337388,-300.929993,32.619999,-18.549999,1729422070899.0,0.0
-3.555735,-6.982256,-0.37328,-392.839996,0.63,-33.459999,1729422070918.0,0.0
-3.775874,-5.781059,-3.993621,-514.220032,-20.23,-56.630001,1729422070937.0,0.0
-2.359323,-4.622933,-9.142976,-587.580017,-66.150002,-62.510002,1729422070958.0,0.0
-0.701097,-3.562913,-12.366108,-565.669983,-109.129997,-47.25,1729422070979.0,0.0
-0.461815,-6.539584,-14.067404,-418.320007,-72.169998,-33.25,1729422070999.0,0.0
-2.344966,-9.109475,-14.371292,-194.110001,45.639999,-15.05,1729422071017.0,0.0
-3.986443,-9.674182,-10.296316,2.8,70.279999,-13.58,1729422071038.0,0.0
-3.443272,-7.580462,-5.223531,74.199997,28.84,-12.88,1729422071059.0,0.0
-2.443072,-5.230711,-6.63769,70.980003,-22.120001,-17.85,1729422071077.0,0.0
-1.90708,-5.570491,-11.41855,101.43,-29.4,-11.48,1729422071101.0,0.0
-1.823331,-7.240681,-10.193424,217.559998,-8.68,13.09,1729422071117.0,0.0
-1.646262,-5.974878,-5.864808,406.420013,0.84,29.469999,1729422071138.0,0.0
-3.177669,-5.419744,-5.087141,456.75,-18.620001,33.25,1729422071158.0,0.0
-3.63709,-6.805188,-7.087541,441.839996,29.610001,22.889999,1729422071178.0,0.0
-5.474778,-10.339387,-6.740582,470.540009,71.120003,30.17,1729422071199.0,0.0
-5.118248,-10.930414,-5.666204,508.059998,41.02,23.1,1729422071217.0,0.0
-2.761317,-9.020942,-0.42353,474.110016,-28.280001,25.620001,1729422071239.0,0.0
0.708275,-7.412964,1.320838,342.160004,-46.48,-1.05,1729422071258.0,0.0
1.524228,-6.285945,1.471586,175.630005,-12.67,-11.69,1729422071279.0,0.0
-1.071985,-6.786045,1.505085,53.200001,39.48,-16.73,1729422071298.0,0.0
-3.732803,-6.309873,-0.366102,-22.960001,65.519997,-12.32,1729422071318.0,0.0
-4.228118,-5.374279,0.289532,-78.68,56.630001,15.68,1729422071338.0,0.0
-2.603391,-4.902894,1.299303,-171.220001,24.43,20.790001,1729422071357.0,0.0
-1.849652,-7.152147,1.85683,-294.140015,9.66,19.6,1729422071380.0,0.0
-2.663212,-9.255438,-0.629312,-439.459991,-5.74,-3.78,1729422071397.0,0.0
-3.672983,-10.430314,-2.720639,-525.77002,-14.28,-40.670002,1729422071418.0,0.0
-3.775874,-9.111869,-5.903094,-574.97998,-41.509998,-68.25,1729422071438.0,0.0
-2.804388,-6.876972,-10.121639,-577.220032,-78.050003,-82.32,1729422071458.0,0.0
-2.17029,-6.309873,-11.05484,-423.709991,-45.009998,-50.959999,1729422071480.0,0.0
-2.993421,-6.381658,-10.229317,-275.940002,-4.97,-30.24,1729422071498.0,0.0
-3.739982,-9.60479,-12.413965,-115.57,9.66,-23.24,1729422071518.0,0.0
-3.007778,-9.750752,-9.442079,31.15,6.09,-3.01,1729422071595.0,0.0
-1.835295,-7.867601,-9.178867,177.100006,-19.110001,11.06,1729422071598.0,0.0
-1.911865,-8.676375,-11.753544,330.329987,-18.549999,20.65,1729422071598.0,0.0
-2.115255,-9.116654,-7.836494,443.23999,22.960001,14.35,1729422071623.0,0.0
-2.538785,-5.386244,-2.124826,491.610016,54.110001,17.219999,1729422071630.0,0.0
-4.534399,-7.506285,-0.392423,492.450012,23.799999,27.23,1729422071637.0,0.0
-2.270789,-11.210374,-4.589434,442.679993,-25.9,-3.57,1729422071657.0,0.0
-1.268196,-11.286944,-5.493921,436.309998,-63.0,9.24,1729422071678.0,0.0
0.095713,-8.054241,-5.910272,446.600006,-0.98,4.34,1729422071697.0,0.0
-1.600798,-5.592027,-1.261017,375.200012,52.220001,0.91,1729422071718.0,0.0
-3.395415,-5.087141,0.696311,234.639999,67.269997,-12.25,1729422071738.0,0.0
-4.551149,-5.230711,1.526621,81.620003,50.470001,-8.75,1729422071757.0,0.0
-3.65384,-5.151747,1.081556,-21.700001,23.66,4.76,1729422071777.0,0.0
-2.490928,-5.493921,1.196411,-79.029999,24.43,26.18,1729422071798.0,0.0
-2.852244,-7.042077,2.557927,-198.869995,40.529999,26.530001,1729422071817.0,0.0
-3.464807,-8.870193,4.35733,-325.98999,6.58,11.9,1729422071837.0,0.0
-3.847659,-10.303494,1.775474,-442.049988,-19.460001,-6.09,1729422071857.0,0.0
-3.419343,-9.745967,-2.510071,-514.570007,-19.25,-28.139999,1729422071877.0,0.0
-3.122634,-7.860423,-3.649055,-562.169983,-56.420002,-55.650002,1729422071900.0,0.0
-1.995614,-4.969893,-8.563912,-573.299988,-77.769997,-66.360001,1729422071918.0,0.0
-2.301895,-4.409972,-11.332408,-481.110016,-54.32,-39.830002,1729422071936.0,0.0
-3.517449,-5.580062,-11.454442,-386.959991,-20.790001,-25.34,1729422071958.0,0.0
-4.168297,-9.65504,-14.333008,-259.209991,0.98,-21.700001,1729422071977.0,0.0
-3.036492,-11.475977,-11.904292,-80.919998,-13.86,-11.9,1729422071999.0,0.0
-1.847259,-9.573684,-9.226725,89.949997,-19.809999,2.24,1729422072017.0,0.0
-2.158326,-8.470592,-8.221739,227.850006,-0.7,0.35,1729422072036.0,0.0
-2.995814,-7.367501,-9.667004,342.299988,35.630001,-1.89,1729422072063.0,0.0
-4.187439,-5.783452,-3.864408,457.450012,65.660004,25.41,1729422072079.0,0.0
-5.785845,-5.673382,-1.225125,519.609985,36.259998,36.259998,1729422072097.0,0.0
-3.859623,-8.685946,-7.073184,523.599976,-42.420002,34.720001,1729422072116.0,0.0
-2.033899,-9.932607,-4.98425,504.769989,-50.049999,44.869999,1729422072137.0,0.0
-1.722832,-8.405986,-2.766103,352.380005,25.34,8.33,1729422072156.0,0.0
-3.065206,-8.501699,0.26321,199.149994,44.170002,-12.74,1729422072177.0,0.0
-3.694518,-7.195218,1.895115,88.550003,30.73,-24.219999,1729422072200.0,0.0
-3.881158,-7.049256,1.115055,47.950001,25.27,-7.77,1729422072216.0,0.0
-3.730411,-6.211767,1.01695,6.37,27.09,-11.48,1729422072237.0,0.0
-3.54377,-5.407779,1.09352,-54.040001,27.58,-0.14,1729422072317.0,0.0
-3.242275,-4.998606,1.737189,-154.139999,25.83,7.0,1729422072320.0,0.0
-2.952743,-6.405586,-0.026321,-278.950012,20.09,6.37,1729422072322.0,0.0
-3.318845,-8.516055,0.736989,-409.779999,4.76,-10.92,1729422072323.0,0.0
-3.522235,-9.667004,-0.768096,-466.200012,-47.110001,-17.290001,1729422072431.0,0.0
-2.108077,-8.867801,-6.783652,-475.649994,-53.900002,-44.099998,1729422072433.0,0.0
-1.658226,-6.446264,-10.657632,-473.200012,-50.610001,-67.059998,1729422072436.0,0.0
-2.127219,-5.769095,-11.447264,-418.529999,-40.18,-44.66,1729422072438.0,0.0
-2.684747,-7.018148,-9.643075,-352.940002,-20.02,-31.360001,1729422072438.0,0.0
-3.165704,-8.453842,-10.054641,-269.220001,19.530001,-21.700001,1729422072439.0,0.0
-2.986243,-9.760324,-9.860823,-130.619995,4.83,-18.690001,1729422072455.0,0.0
-2.24686,-11.186446,-9.064013,47.529999,-3.85,2.87,1729422072476.0,0.0
-2.74696,-9.399008,-4.706682,330.679993,34.509998,4.48,1729422072499.0,0.0
-4.407579,-7.920243,-4.223332,420.140015,56.98,17.08,1729422072515.0,0.0
-5.146961,-5.860023,-3.531806,423.5,23.309999,19.040001,1729422072536.0,0.0
-5.498707,-9.616754,-3.864408,415.730011,-35.420002,30.1,1729422072555.0,0.0
-3.567699,-9.592826,-7.116255,425.809998,-69.720001,30.1,1729422072576.0,0.0
-2.459821,-9.413363,-8.133204,482.580017,-33.110001,44.380001,1729422072597.0,0.0
-2.641676,-8.91805,-3.680161,501.200012,18.549999,25.34,1729422072615.0,0.0
-3.251846,-9.226725,1.26341,411.529999,52.920002,-7.0,1729422072635.0,0.0
-3.091527,-7.314859,1.818545,228.130005,47.529999,-32.759998,1729422072655.0,0.0
-2.981457,-6.151947,1.794617,101.709999,29.4,-22.610001,1729422072676.0,0.0
-3.007778,-4.522435,2.677568,52.360001,22.889999,-10.99,1729422072697.0,0.0
-3.28056,-3.783052,2.306681,-17.710001,56.84,9.03,1729422072715.0,0.0
-4.412365,-3.361916,2.203789,-165.759995,75.18,9.52,1729422072736.0,0.0
-4.307081,-5.032106,2.172683,-282.450012,34.02,10.08,1729422072754.0,0.0
-3.790231,-6.9009,2.433501,-393.959991,3.01,12.04,1729422072776.0,0.0
-2.701497,-8.468199,-1.071985,-512.75,-27.23,-11.06,1729422072796.0,0.0
-2.026721,-9.238688,-10.135997,-631.539978,-64.050003,-58.52,1729422072816.0,0.0
-2.143969,-8.46102,-11.475977,-610.119995,-65.239998,-63.560001,1729422072835.0,0.0
-2.036292,-7.532606,-12.033505,-493.080017,-41.439999,-49.560001,1729422072855.0,0.0
-2.569891,-7.412964,-11.547763,-311.429993,-4.62,-26.6,1729422072875.0,0.0
-3.474378,-6.865008,-9.339187,-167.509995,31.99,-18.129999,1729422072895.0,0.0
-4.074977,-8.664411,-7.568498,-80.57,34.369999,-11.83,1729422072915.0,0.0
-3.287738,-8.848659,-7.255038,-12.32,3.15,-7.0,1729422072935.0,0.0
-2.65364,-8.642875,-8.051848,86.239998,-9.1,-6.79,1729422072956.0,0.0
-3.555735,-10.305886,-6.786045,221.690002,24.219999,-4.27,1729422072977.0,0.0
-4.436293,-9.999605,-4.615755,323.399994,55.09,4.69,1729422072996.0,0.0
-4.63729,-8.319844,-5.84088,401.730011,10.64,21.559999,1729422073015.0,0.0
-3.756732,-8.341379,-6.369694,462.070007,-31.290001,29.33,1729422073035.0,0.0
-3.184847,-6.924829,-7.405786,485.869995,-25.48,36.959999,1729422073056.0,0.0
-4.04387,-8.128418,-6.398407,510.089996,9.59,47.599998,1729422073076.0,0.0
-3.783052,-8.755339,-4.486543,489.440002,38.290001,28.42,1729422073102.0,0.0
-2.139183,-8.190632,1.399801,262.290009,17.360001,-19.25,1729422073117.0,0.0
-1.87358,-6.860222,1.732404,111.020004,12.32,-30.030001,1729422073136.0,0.0
-2.612962,-7.326823,0.007178,58.799999,25.83,-24.219999,1729422073156.0,0.0
-3.957729,-7.168896,-0.035892,54.740002,36.259998,-4.48,1729422073176.0,0.0
-4.642076,-6.111269,0.021535,55.299999,31.43,15.96,1729422073196.0,0.0
-4.350152,-6.630512,1.40698,56.349998,22.4,32.549999,1729422073217.0,0.0
-3.175276,-6.446264,3.952943,56.349998,14.77,34.93,1729422073237.0,0.0
-3.175276,-6.331409,6.125626,-142.800003,13.65,19.6,1729422073256.0,0.0
-3.546163,-6.939186,1.739582,-326.76001,10.29,-5.25,1729422073277.0,0.0
-3.486342,-6.659225,-3.404987,-475.51001,7.21,-31.85,1729422073296.0,0.0
-3.948158,-8.295916,-4.804788,-552.720032,-16.940001,-52.57,1729422073316.0,0.0
-3.486342,-9.075976,-7.436893,-571.340027,-60.41,-65.940002,1729422073337.0,0.0
-1.887937,-9.566505,-8.248059,-476.700012,-68.529999,-48.369999,1729422073357.0,0.0
-1.215554,-9.221939,-8.49452,-350.420013,-39.830002,-28.139999,1729422073380.0,0.0
-1.921437,-8.128418,-8.535198,-240.169998,5.88,-26.530001,1729422073398.0,0.0
-3.127419,-9.552148,-8.903693,-145.949997,24.710001,-23.030001,1729422073416.0,0.0
-2.947958,-9.683753,-7.659425,28.77,4.06,-4.41,1729422073437.0,0.0
-3.294917,-9.793823,-5.903094,201.529999,6.3,8.26,1729422073458.0,0.0
-4.223332,-8.99462,-3.718446,309.119995,32.689999,5.25,1729422073478.0,0.0
-5.587241,-8.62134,-4.141976,339.079987,36.119999,7.14,1729422073500.0,0.0
-6.441479,-11.74158,-6.594619,361.410004,-0.77,12.81,1729422073518.0,0.0
-4.26401,-10.786844,-7.068398,405.929993,-45.220001,11.48,1729422073539.0,0.0
-2.63689,-9.334401,-6.54437,472.149994,-26.880001,26.18,1729422073558.0,0.0
-1.935793,-8.518449,-3.613162,511.769989,3.85,9.8,1729422073580.0,0.0
-2.29711,-6.845865,-0.102891,448.980011,46.970001,-11.48,1729422073603.0,0.0
-2.62732,-4.603791,2.065006,314.929993,47.32,-17.92,1729422073618.0,0.0
-2.031506,-3.95055,2.132005,178.710007,28.42,-6.3,1729422073638.0,0.0
-2.459821,-2.943172,3.409772,43.259998,34.580002,3.29,1729422073660.0,0.0
-4.366901,-3.113062,4.031906,-81.059998,42.700001,29.68,1729422073680.0,0.0
-4.991428,-5.599205,3.218346,-211.259995,33.25,27.860001,1729422073701.0,0.0
-4.457829,-8.047063,1.926222,-421.190002,-12.95,1.26,1729422073718.0,0.0
-4.074977,-9.312866,-1.39023,-532.140015,-35.139999,-23.450001,1729422073740.0,0.0
-3.395415,-9.238688,-4.003192,-585.970032,-61.599998,-47.110001,1729422073757.0,0.0
-2.95035,-9.138189,-8.853443,-581.630005,-69.370003,-52.920002,1729422073779.0,0.0
-2.816352,-7.673782,-10.731809,-524.51001,-41.650002,-59.290001,1729422073803.0,0.0
-2.656033,-7.690532,-13.031311,-394.660004,-10.78,-37.869999,1729422073826.0,0.0
-2.522035,-9.013763,-11.301301,-228.690002,1.4,-14.63,1729422073840.0,0.0
-2.428715,-9.020942,-10.238889,-87.709999,16.870001,-16.17,1729422073859.0,0.0
-2.682354,-9.023334,-9.540184,52.920002,33.880001,-11.76,1729422073881.0,0.0
-2.986243,-9.923036,-7.389036,220.220001,34.509998,4.62,1729422073901.0,0.0
-3.220739,-8.173882,-4.785645,397.110016,31.99,9.59,1729422073918.0,0.0
-3.555735,-6.987042,-3.816552,467.950012,45.080002,13.02,1729422073939.0,0.0
-4.41715,-5.347959,-1.926222,406.839996,25.41,14.7,1729422073958.0,0.0
-5.359922,-10.645668,-3.010171,372.470001,-20.65,15.12,1729422073979.0,0.0
-2.598605,-11.093125,-5.615955,411.809998,-69.860001,1.61,1729422074000.0,0.0
-1.270589,-10.406385,-5.682954,507.360016,-36.610001,21.700001,1729422074019.0,0.0
-3.218346,-5.417351,1.502693,527.659973,40.25,-4.83,1729422074038.0,0.0
-6.04427,-5.094319,5.812167,345.029999,59.150002,-16.309999,1729422074060.0,0.0
-6.183054,-5.79781,4.677969,162.539993,21.84,-28.07,1729422074079.0,0.0
-5.297709,-7.159326,2.148755,14.21,7.14,-34.299999,1729422074099.0,0.0
-5.209175,-7.104291,3.199204,-39.200001,-4.2,-34.720001,1729422074119.0,0.0
-5.367101,-7.439285,4.819145,-39.689999,-3.43,-14.77,1729422074137.0,0.0
-5.237889,-8.724231,5.67099,-52.639999,3.57,-23.52,1729422074158.0,0.0
-5.558527,-10.542776,5.161318,-90.370003,-11.55,-40.740002,1729422074179.0,0.0
-3.522235,-11.107484,2.380858,-100.099998,-28.42,-55.790001,1729422074202.0,0.0
-1.071985,-9.853643,2.172683,-44.380001,-34.23,-34.439999,1729422074218.0,0.0
-0.689133,-8.793623,3.548556,4.55,-16.450001,-20.93,1729422074238.0,0.0
-1.562513,-9.042477,4.103691,-6.79,-5.46,-35.490002,1729422074258.0,0.0
-1.519442,-10.205389,3.383451,-46.48,-2.94,-43.889999,1729422074278.0,0.0
0.028714,-10.514063,1.17009,-78.260002,-2.94,-41.02,1729422074299.0,0.0
2.294717,-9.669396,-0.019143,-52.990002,1.61,-50.75,1729422074329.0,0.0
2.660819,-8.013563,0.014357,2.87,15.47,-32.130001,1729422074339.0,0.0
2.136791,-7.810174,0.835095,47.880001,37.099998,-24.219999,1729422074358.0,0.0
0.792024,-8.965906,0.976272,52.220001,44.59,-33.599998,1729422074381.0,0.0
0.315853,-7.712067,1.837688,114.169998,49.700001,-23.59,1729422074399.0,0.0
-0.205783,-6.546762,2.421536,165.059998,61.529999,2.94,1729422074418.0,0.0
-0.973879,-5.898308,3.974478,151.970001,70.980003,10.71,1729422074438.0,0.0
-2.65364,-6.072984,5.800202,83.300003,50.189999,19.18,1729422074457.0,0.0
-3.404987,-6.508478,6.659225,8.75,31.43,21.84,1729422074479.0,0.0
-4.680361,-7.341179,7.501499,-43.259998,9.8,28.35,1729422074499.0,0.0
-3.550949,-6.738188,6.295516,-47.040001,-7.98,33.110001,1729422074518.0,0.0
-3.199204,-5.182854,7.037291,-30.940001,-18.34,52.990002,1729422074538.0,0.0
-2.294717,-4.383651,7.585248,-62.09,-17.15,53.48,1729422074558.0,0.0
-3.9338,-6.30748,5.802595,-171.710007,-3.85,45.43,1729422074579.0,0.0
-5.017749,-9.633504,2.785245,-250.320007,11.48,22.469999,1729422074601.0,0.0
-5.144568,-11.88515,-0.172283,-259.140015,8.96,10.64,1729422074617.0,0.0
-4.173083,-11.035697,-0.526421,-215.949997,8.4,14.91,1729422074638.0,0.0
-2.313859,-8.831908,0.346959,-165.270004,3.5,23.59,1729422074658.0,0.0
-1.103091,-5.429315,1.239482,-175.839996,4.41,28.700001,1729422074678.0,0.0
-1.308874,-3.646662,-1.344766,-236.529999,12.6,39.900002,1729422074698.0,0.0
-3.706482,-5.422136,-5.309673,-299.670013,43.049999,26.74,1729422074718.0,0.0
-5.201996,-8.525627,-10.186246,-322.839996,18.200001,9.38,1729422074737.0,0.0
-5.864808,-16.347765,-14.665611,-213.149994,-12.74,-9.38,1729422074756.0,0.0
-6.530013,-22.179073,-17.034504,-30.17,-59.920002,-36.259998,1729422074778.0,0.0
-4.606184,-16.991434,-10.552348,165.619995,-33.950001,-21.629999,1729422074798.0,0.0
-2.878566,-9.109475,-6.778866,360.360016,41.02,6.02,1729422074817.0,0.0
-3.151347,-5.718846,-4.924429,507.98999,81.760002,15.68,1729422074838.0,0.0
-4.386044,-4.795217,-2.443072,583.659973,69.720001,24.01,1729422074858.0,0.0
-5.888737,-2.519642,1.773082,577.080017,15.47,35.630001,1729422074879.0,0.0
-6.738188,-3.326023,7.252645,560.280029,-108.639999,40.459999,1729422074898.0,0.0
-0.490529,-5.541777,14.316258,513.309998,-195.089996,-31.5,1729422074917.0,0.0
5.465207,-1.696511,11.4353,385.0,-59.57,-46.549999,1729422074938.0,0.0
0.208176,-0.971486,7.594819,291.339996,53.41,-10.64,1729422074958.0,0.0
-2.63689,-1.349552,6.197411,114.870003,-2.73,-17.92,1729422074979.0,0.0
-4.096512,-3.244668,4.424329,-31.99,-34.790001,-13.58,1729422074999.0,0.0
-5.245068,-3.299703,5.242674,-84.910004,-2.66,-11.62,1729422075019.0,0.0
-5.728417,-4.007978,8.542377,-49.91,3.15,18.059999,1729422075038.0,0.0
-1.318445,-4.876573,8.669197,-111.300003,3.57,3.92,1729422075060.0,0.0
-1.031307,-3.795017,8.001599,-238.630005,36.330002,22.75,1729422075078.0,0.0
-1.375873,-4.053442,5.472386,-375.410004,20.23,18.969999,1729422075099.0,0.0
-1.816152,-5.089533,3.168097,-439.040009,18.200001,6.09,1729422075118.0,0.0
-3.098706,-6.831509,2.667997,-411.179993,24.5,22.190001,1729422075144.0,0.0
-3.586841,-6.817152,-0.038285,-362.600006,32.549999,26.32,1729422075157.0,0.0
-4.051049,-6.15434,-2.919244,-312.899994,52.360001,26.460001,1729422075178.0,0.0
-5.223531,-8.953942,-3.424129,-279.369995,53.41,1.4,1729422075201.0,0.0
-5.651847,-11.696117,-4.780859,-281.890015,15.54,-26.040001,1729422075217.0,0.0
-5.730811,-14.660825,-6.948757,-247.940002,-22.26,-32.200001,1729422075237.0,0.0
-4.541577,-19.432112,-11.365908,-92.260002,-63.279999,-55.93,1729422075257.0,0.0
-3.06042,-18.252451,-7.779066,117.599998,-56.560001,-49.139999,1729422075278.0,0.0
-1.557728,-10.995021,-4.859823,340.619995,6.16,2.1,1729422075299.0,0.0
-3.072384,-6.051448,0.050249,511.910004,55.510002,23.940001,1729422075317.0,0.0
-5.235496,-4.019942,3.862016,587.22998,21.0,15.89,1729422075337.0,0.0
-5.101498,-5.271388,7.534998,580.929993,-68.040001,-0.21,1729422075357.0,0.0
3.438486,-2.048256,14.249258,512.049988,-118.300003,-44.170002,1729422075381.0,0.0
3.67059,0.825524,9.745967,367.01001,39.759998,-13.93,1729422075901.0,0.0
-0.526421,-1.155733,7.896315,156.660004,29.75,-21.280001,1729422075913.0,0.0
-4.429115,-2.943172,4.479364,-68.040001,-30.17,-7.84,1729422075939.0,0.0
-5.407779,-4.364508,4.694718,-117.389999,-41.720001,-18.129999,1729422075945.0,0.0
-4.761717,-3.165704,7.06122,-52.639999,5.25,7.91,1729422075948.0,0.0
-4.09412,-3.29731,7.925028,-56.07,53.060001,32.830002,1729422075949.0,0.0
-2.639283,-4.630112,7.745567,-162.820007,30.309999,3.99,1729422075952.0,0.0
-2.79721,-5.28096,6.618547,-307.649994,13.16,9.17,1729422075953.0,0.0
-1.490728,-5.699703,3.821337,-376.809998,4.55,18.83,1729422075958.0,0.0
-1.495514,-7.276574,3.079563,-373.730011,45.220001,10.57,1729422075960.0,0.0
-2.574677,-8.733803,2.388037,-346.640015,58.029999,2.8,1729422075961.0,0.0
-3.493521,-9.944571,2.11047,-301.0,38.57,12.6,1729422075962.0,0.0
-2.629712,-7.788638,-1.694118,-271.25,18.059999,16.66,1729422075980.0,0.0
-3.790231,-9.090333,-1.9669,-224.839996,30.309999,10.92,1729422076017.0,0.0
-4.381258,-11.653046,-4.465007,-229.880005,14.35,-2.94,1729422076063.0,0.0
-5.407779,-17.443676,-8.985049,-216.369995,1.96,-3.64,1729422076071.0,0.0
-3.555735,-23.636299,-11.499906,-130.199997,-17.780001,-34.299999,1729422076073.0,0.0
-2.043471,-15.871593,-5.034499,107.099998,-68.599998,-83.230003,1729422076075.0,0.0
-3.103491,-5.788238,-0.088534,346.429993,-11.62,-37.66,1729422076078.0,0.0
-5.802595,-0.088534,1.864009,628.809998,132.720001,51.73,1729422076130.0,0.0
-7.920243,-1.581656,6.54437,504.279999,95.970001,15.12,1729422076139.0,0.0
-8.829515,-5.254639,8.283953,288.610016,-147.279999,-25.83,1729422076146.0,0.0
1.043271,-6.721439,10.707881,179.410004,-237.020004,-77.0,1729422076148.0,0.0
9.099905,-2.218147,6.257231,164.919998,-103.18,-51.099998,1729422076160.0,0.0
2.952743,-2.376073,6.45105,220.360001,82.739998,-14.42,1729422076172.0,0.0
-2.438286,1.237089,5.986843,110.879997,66.290001,-26.040001,1729422076179.0,0.0
-6.563512,0.401994,5.831308,-10.15,57.119999,34.02,1729422076197.0,0.0
-7.578069,-1.01695,6.443871,-114.940002,17.01,33.25,1729422076200.0,0.0
-4.297509,-6.503692,7.302894,-197.75,-15.75,23.870001,1729422076201.0,0.0
-1.866402,-8.547162,4.876573,-326.619995,-29.33,18.9,1729422076202.0,0.0
-0.327817,-10.121639,2.409572,-332.01001,-2.73,20.860001,1729422076204.0,0.0
-2.292324,-10.303494,2.778067,-312.690002,53.970001,21.77,1729422076208.0,0.0
-4.182654,-8.616554,3.885944,-277.410004,58.029999,24.780001,1729422076208.0,0.0
-3.184847,-6.908078,2.895315,-244.300003,34.299999,29.26,1729422076208.0,0.0
-2.086541,-5.278566,1.136591,-255.639999,25.83,29.33,1729422076208.0,0.0
-2.481357,-5.438886,-0.399601,-300.019989,29.049999,22.889999,1729422076208.0,0.0
-4.015156,-8.755339,-5.029713,-332.640015,33.459999,3.64,1729422076211.0,0.0
-5.316852,-15.687346,-9.865608,-269.570007,31.639999,-37.52,1729422076211.0,0.0
-5.572884,-19.664217,-7.793423,-91.489998,-46.689999,-59.080002,1729422076211.0,0.0
-3.608376,-13.990833,-4.565506,62.93,-37.939999,-4.41,1729422076212.0,0.0
-2.876173,-10.246067,-3.361916,203.0,21.91,8.75,1729422076219.0,0.0
-3.345166,-12.311072,-5.369494,291.549988,32.759998,-25.549999,1729422076254.0,0.0
-5.510671,-4.04387,5.194818,366.170013,16.940001,-24.08,1729422076323.0,0.0
-4.572684,-3.625126,7.640282,470.890015,-23.1,19.110001,1729422076323.0,0.0
-0.346959,-5.319244,9.023334,467.73999,-75.459999,8.4,1729422076327.0,0.0
3.172883,-5.041678,9.856036,375.200012,-115.779999,-51.66,1729422076340.0,0.0
0.952343,-2.991028,9.020942,283.5,-79.449997,-45.920002,1729422076359.0,0.0
-1.452443,-2.474179,7.640282,116.199997,17.92,-28.98,1729422076384.0,0.0
-3.474378,-2.821138,5.716454,-27.51,0.35,-1.33,1729422076405.0,0.0
-5.793024,-3.546163,5.855237,-107.940002,-21.280001,1.05,1729422076424.0,0.0
-5.673382,-3.852444,6.477371,-103.599998,-17.57,9.45,1729422076439.0,0.0
-3.60359,-4.517649,6.520442,-120.959999,23.24,26.040001,1729422076460.0,0.0
-1.399801,-5.056034,5.735595,-192.360001,18.76,15.68,1729422076481.0,0.0
-0.004786,-5.206782,4.500899,-280.48999,26.67,22.889999,1729422076500.0,0.0
-0.179462,-4.907679,2.289931,-364.48999,55.860001,21.07,1729422076520.0,0.0
-2.225325,-6.89133,2.828316,-381.290009,52.5,30.309999,1729422076678.0,0.0
-2.383251,-8.288737,0.306281,-357.140015,31.08,32.27,1729422076678.0,0.0
-3.443272,-9.001799,-0.552742,-335.160004,39.41,33.950001,1729422076678.0,0.0
-4.441079,-9.501899,-4.630112,-303.450012,34.16,12.46,1729422076678.0,0.0
-5.522634,-13.007384,-5.737988,-242.059998,21.700001,-9.17,1729422076678.0,0.0
-6.12084,-17.881563,-8.075776,-126.840004,-27.02,-33.880001,1729422076679.0,0.0
-4.505685,-18.972691,-6.845865,37.029999,-57.540001,-43.540001,1729422076679.0,0.0
-2.237289,-14.388042,-5.551349,219.520004,-33.18,-17.99,1729422076686.0,0.0
-2.548356,-11.174481,-2.24686,413.559998,11.34,-4.9,1729422076706.0,0.0
-2.89053,-6.673582,-3.144169,553.840027,24.57,-8.82,1729422076721.0,0.0
-5.838487,-3.046063,3.254239,635.530029,40.810001,44.73,1729422076781.0,0.0
-6.075377,-1.933401,9.102298,614.25,-63.630001,47.25,1729422076781.0,0.0
0.923629,-0.081356,16.532011,446.529999,-124.669998,-25.9,1729422076782.0,0.0
2.770889,-1.146162,11.167303,229.529999,-24.92,-30.450001,1729422076804.0,0.0
-0.648455,-3.739982,7.255038,68.040001,-21.42,-16.030001,1729422076825.0,0.0
-4.35733,-5.02732,4.663611,-38.779999,-48.23,-19.389999,1729422076930.0,0.0
-5.106283,-4.122833,5.319244,-53.41,-19.950001,-13.79,1729422076932.0,0.0
-4.07737,-4.998606,8.439486,-22.889999,11.34,1.05,1729422076933.0,0.0
-2.76371,-5.175675,8.367701,-24.01,28.559999,13.65,1729422076934.0,0.0
-1.402194,-3.9673,7.202396,-175.070007,15.47,0.28,1729422076946.0,0.0
-0.777667,-3.215954,4.95075,-287.420013,13.23,9.87,1729422076964.0,0.0
-1.493121,-4.761717,3.804588,-344.75,24.43,30.030001,1729422076981.0,0.0
-2.811567,-6.458229,1.820938,-361.619995,51.799999,18.200001,1729422077001.0,0.0
-3.866802,-6.958328,0.5001,-370.019989,58.099998,21.629999,1729422077021.0,0.0
-4.24726,-7.530212,-1.488336,-356.860016,57.330002,25.620001,1729422077040.0,0.0
-4.500899,-10.660025,-2.859423,-289.309998,17.639999,10.78,1729422077062.0,0.0
-5.254639,-14.711074,-3.972085,-232.399994,-10.85,-6.65,1729422077081.0,0.0
-4.82393,-17.618353,-4.754539,-115.43,-36.75,-28.0,1729422077100.0,0.0
-3.371487,-16.060625,-6.321837,22.68,-31.08,-22.75,1729422077120.0,0.0
-3.079563,-13.586447,-5.685347,198.449997,6.3,-8.05,1729422077140.0,0.0
-4.237689,-11.882757,-3.168097,370.929993,13.09,-7.56,1729422077161.0,0.0
-4.701896,-7.788638,-0.775275,497.48999,3.78,-0.35,1729422077189.0,0.0
-5.266603,-3.555735,3.333202,553.0,17.290001,51.52,1729422077200.0,0.0
-5.257031,-3.716053,8.472985,480.130005,-34.439999,51.73,1729422077220.0,0.0
-1.06002,-4.412365,11.933006,291.690002,-126.139999,-32.27,1729422077241.0,0.0
1.624727,-5.804988,8.300702,148.75,-84.629997,-19.110001,1729422077262.0,0.0
-0.588634,-5.871986,5.776274,151.550003,5.53,-48.509998,1729422077281.0,0.0
-3.524628,-2.586641,5.601598,155.330002,24.92,-34.93,1729422077301.0,0.0
-5.735595,-1.249053,7.408179,118.860001,28.91,18.200001,1729422077320.0,0.0
-4.651647,-1.308874,8.516055,34.439999,14.0,5.6,1729422077340.0,0.0
-2.667997,-3.818945,8.54477,-80.220001,-4.41,-13.86,1729422077361.0,0.0
-2.091327,-5.300103,6.068198,-197.119995,-18.27,-7.84,1729422077385.0,0.0
-2.723032,-7.685746,7.317252,-257.950012,1.12,-5.67,1729422077401.0,0.0
-1.48355,-5.996413,4.838287,-350.0,17.710001,1.05,1729422077420.0,0.0
0.246461,-6.673582,3.144169,-367.429993,36.400002,15.26,1729422077441.0,0.0
0.27996,-5.505885,1.605584,-373.23999,68.040001,14.0,1729422077461.0,0.0
-2.550749,-3.23031,0.320638,-329.910004,74.900002,39.200001,1729422077482.0,0.0
-6.742974,-8.767302,-0.174676,-261.23999,77.349998,40.740002,1729422077501.0,0.0
-6.786045,-12.854243,-1.957329,-249.339996,42.91,-35.98,1729422077522.0,0.0
-5.187639,-12.799208,-0.90688,-182.0,-50.400002,-0.28,1729422077543.0,0.0
-3.507878,-12.284752,-1.239482,-118.580002,-27.790001,-10.08,1729422077563.0,0.0
-4.086941,-13.69891,-4.369294,-54.950001,-11.34,-33.25,1729422077583.0,0.0
-3.897908,-15.32603,-4.474578,85.050003,-13.16,-47.040001,1729422077604.0,0.0
-2.531606,-12.03829,-3.699304,243.040009,-18.34,-12.88,1729422077622.0,0.0
-2.821138,-8.025528,1.284946,381.149994,11.2,24.99,1729422077643.0,0.0
-4.362115,-6.238089,6.352944,406.839996,3.15,19.110001,1729422077664.0,0.0
-3.9338,-6.427122,6.551548,338.029999,-63.98,-16.73,1729422077684.0,0.0
-1.95015,-7.302894,5.931807,269.98999,-108.080002,-36.470001,1729422077704.0,0.0
1.899901,-6.80758,7.283752,308.140015,-110.25,-32.060001,1729422077723.0,0.0
2.189433,-3.012564,6.910471,359.869995,-6.65,-15.33,1729422077744.0,0.0
-0.777667,-3.294917,8.575876,330.540009,56.209999,-11.55,1729422077764.0,0.0
-2.995814,-0.638884,7.831708,156.449997,23.1,-7.98,1729422077784.0,0.0
-5.352744,-1.275374,7.982457,4.62,-1.61,22.190001,1729422077804.0,0.0
-5.666204,-2.318645,6.664011,-109.480003,-5.74,15.68,1729422077823.0,0.0
-3.866802,-5.498707,7.276574,-178.009995,9.24,1.33,1729422077843.0,0.0
-3.144169,-5.584848,6.532406,-353.640015,22.120001,-4.34,1729422077864.0,0.0
-0.01675,-5.257031,2.775674,-431.480011,45.849998,10.22,1729422077887.0,0.0
1.244268,-5.240282,2.167897,-434.630005,85.75,11.41,1729422077913.0,0.0
-1.37348,-3.330809,2.596212,-447.790009,86.660004,36.959999,1729422077925.0,0.0
-3.177669,-5.005785,-1.938186,-440.580017,74.410004,56.209999,1729422077944.0,0.0
-4.101298,-7.666604,-5.735595,-428.329987,82.879997,14.42,1729422077965.0,0.0
-6.630512,-11.617154,-7.649854,-378.910004,21.700001,-7.07,1729422077986.0,0.0
-6.98465,-16.034306,-10.174281,-263.76001,-41.09,-28.210001,1729422078006.0,0.0
-5.9342,-16.943577,-9.269794,-95.620003,-60.900002,-42.420002,1729422078025.0,0.0
-4.036692,-15.081962,-5.594419,105.209999,-37.799999,-11.97,1729422078044.0,0.0
-2.78046,-12.832708,-5.47717,272.579987,-2.94,0.7,1729422078066.0,0.0
-2.715853,-11.614761,-3.976871,403.899994,23.1,-3.22,1729422078087.0,0.0
-3.615555,-10.24846,-2.292324,534.309998,-3.36,-16.030001,1729422078105.0,0.0
-3.546163,-2.995814,0.978664,638.190002,2.38,17.92,1729422078125.0,0.0
-4.965107,0.777667,9.554541,643.02002,21.210001,106.889999,1729422078144.0,0.0
-4.015156,-1.770689,14.567505,380.660004,-69.510002,-7.77,1729422078164.0,0.0
0.315853,-3.48395,12.174682,113.610001,-125.090004,-66.639999,1729422078185.0,0.0
-0.430708,-6.786045,7.630712,6.02,-44.939999,9.38,1729422078208.0,0.0
-0.497707,-7.396214,5.673382,-9.03,-41.02,-21.139999,1729422078227.0,0.0
-1.036092,-5.977271,5.381458,4.76,-26.6,-41.02,1729422078244.0,0.0
-3.574877,-4.331009,6.01077,15.82,17.290001,-6.58,1729422078264.0,0.0
-5.651847,-2.158326,6.716653,-27.09,35.77,6.58,1729422078287.0,0.0
-6.362515,-1.866402,7.233503,-119.489998,44.310001,14.56,1729422078305.0,0.0
-5.192425,-3.87398,6.946364,-254.449997,13.79,-8.47,1729422078324.0,0.0
-3.206382,-5.608776,5.888737,-386.610016,-30.799999,-34.439999,1729422078344.0,0.0
-0.861416,-7.259824,4.256832,-434.070007,-34.580002,-8.75,1729422078364.0,0.0
0.768096,-7.755138,0.311067,-413.559998,8.82,10.57,1729422078388.0,0.0
0.684347,-6.920043,-1.739582,-355.809998,65.379997,5.25,1729422078405.0,0.0
-2.806781,-8.341379,0.282353,-280.839996,73.43,29.960001,1729422078424.0,0.0
-4.87418,-9.164511,0.803988,-253.75,42.490002,14.49,1729422078445.0,0.0
-4.740182,-9.298509,-0.492921,-256.619995,16.1,-7.63,1729422078465.0,0.0
-4.680361,-10.913664,-3.584448,-238.350006,-20.299999,-13.37,1729422078486.0,0.0
-4.800002,-12.473784,-6.108876,-176.820007,-23.940001,-23.24,1729422078506.0,0.0
-4.807181,-12.820745,-6.321837,-68.25,-8.33,-20.51,1729422078524.0,0.0
-4.125226,-11.533404,-6.702296,38.639999,0.98,-8.68,1729422078544.0,0.0
-3.376273,-10.470992,-6.685547,122.5,13.3,-0.49,1729422078564.0,0.0
-2.888137,-10.219746,-6.455836,197.399994,2.66,6.72,1729422078585.0,0.0
-1.954936,-8.559127,-4.436293,260.679993,-15.12,14.49,1729422078605.0,0.0
-1.208375,-7.068398,-1.485943,306.600006,-26.950001,30.309999,1729422078624.0,0.0
-1.622334,-8.360522,0.914058,342.369995,-47.389999,28.49,1729422078644.0,0.0
-2.589034,-9.480364,6.149554,360.98999,-72.660004,-9.31,1729422078664.0,0.0
-1.883151,-5.156533,7.042077,403.970001,-88.480003,-17.08,1729422078685.0,0.0
-1.875973,-2.924029,9.123833,433.580017,-15.82,21.0,1729422078706.0,0.0
-3.708875,-1.423729,8.236095,301.209991,58.73,-5.04,1729422078727.0,0.0
-6.259624,-2.67039,6.575477,169.399994,15.96,5.46,1729422078745.0,0.0
-6.032306,-6.575477,7.599605,95.129997,-37.380001,18.9,1729422078763.0,0.0
-1.691726,-6.410372,8.018349,23.379999,-34.16,-12.11,1729422078785.0,0.0
-3.026921,-8.047063,8.283953,-10.29,13.58,9.73,1729422078807.0,0.0
-4.07737,-8.683553,5.69731,-28.98,1.19,-18.48,1729422078824.0,0.0
-3.826123,-9.157332,5.812167,28.139999,10.08,-14.42,1729422078844.0,0.0
-2.464607,-6.431907,6.800402,67.970001,28.49,-3.36,1729422078864.0,0.0
-1.59362,-2.945565,5.737988,35.349998,66.779999,15.54,1729422078885.0,0.0
-1.818545,-2.340181,3.907479,-37.380001,95.970001,16.59,1729422078904.0,0.0
-4.295116,-1.445265,4.548756,-141.539993,94.5,18.76,1729422078925.0,0.0
