acc_x,acc_y,acc_z,gyr_x,gyr_y,gyr_z,timestamp,label
-6.403193,-1.816152,-6.453443,-78.75,50.330002,5.18,1729428350487.0,0.0
-6.192625,-5.32403,-7.740781,-102.900002,45.779999,2.73,1729428350488.0,0.0
-3.63709,-5.501099,-11.375479,-98.279999,59.150002,-4.41,1729428350489.0,0.0
-3.199204,-10.246067,-26.967112,-49.77,60.760002,1.19,1729428350490.0,0.0
-2.244468,-11.176874,-10.777272,143.639999,86.519997,-5.88,1729428350504.0,0.0
-7.405786,-3.103491,-4.395615,406.839996,98.699997,12.88,1729428350523.0,0.0
-10.892128,-0.679562,-0.811167,354.480011,69.510002,30.380001,1729428350544.0,0.0
-6.982256,-0.222532,-6.238089,130.970001,36.189999,4.27,1729428350564.0,0.0
-6.831509,-0.600598,-5.319244,-43.959999,42.560001,1.82,1729428350584.0,0.0
-8.913264,-4.649254,-8.334201,-142.100006,39.549999,-14.28,1729428350608.0,0.0
-3.835695,-5.288138,-9.96132,-93.309998,33.670002,-26.74,1729428350623.0,0.0
-5.151747,-3.680161,-10.475778,-25.41,67.830002,-17.08,1729428350644.0,0.0
-5.87438,-7.597212,-9.233903,-57.68,65.940002,-11.83,1729428350665.0,0.0
-3.29731,-6.06102,-7.793423,45.360001,65.309998,-3.92,1729428350684.0,0.0
-3.828516,-3.905087,-3.864408,93.940002,74.620003,12.88,1729428350704.0,0.0
-0.595813,-6.54437,-4.996214,10.01,44.939999,2.8,1729428350724.0,0.0
-0.866202,-6.599405,-3.792624,-108.779999,18.48,-22.889999,1729428350743.0,0.0
0.366102,-5.826523,-5.316852,-159.529999,-7.07,-37.799999,1729428350765.0,0.0
0.035892,-3.4672,-6.982256,-186.899994,-23.450001,-46.130001,1729428350786.0,0.0
-0.538385,-3.89073,-9.29133,-226.800003,-37.310001,-44.59,1729428350804.0,0.0
-0.897308,-2.036292,-11.655439,-269.98999,-34.23,-46.759998,1729428350823.0,0.0
-1.091127,-1.509871,-10.265208,-292.459991,-31.43,-46.48,1729428350844.0,0.0
-2.127219,-1.191626,-9.590433,-117.459999,-25.059999,-10.85,1729428350864.0,0.0
-2.359323,-0.701097,-8.238488,-14.84,-20.65,2.31,1729428350884.0,0.0
-3.058028,-1.29691,-8.886944,-5.53,-28.42,8.89,1729428350904.0,0.0
-3.464807,-2.005185,-8.724231,-67.830002,-34.509998,-6.44,1729428350923.0,0.0
-2.749353,-2.916851,-10.171888,-74.900002,-40.32,-13.02,1729428350943.0,0.0
-3.515057,-2.696711,-10.269995,-29.26,-40.25,-18.690001,1729428350964.0,0.0
-3.976871,-3.493521,-12.050256,49.77,-33.670002,-16.309999,1729428350983.0,0.0
-4.725825,-4.797609,-10.82513,138.039993,-22.82,-14.56,1729428351004.0,0.0
-3.790231,-2.830709,-13.677374,207.550003,-12.53,-18.549999,1729428351023.0,0.0
-4.058227,-1.20359,-11.679367,297.709991,6.58,0.63,1729428351043.0,0.0
-6.089733,0.189033,-11.703296,372.820007,21.07,29.75,1729428351065.0,0.0
-4.510471,-5.391029,-7.15454,317.730011,46.41,57.400002,1729428351085.0,0.0
-3.627519,-4.488935,-5.924629,149.729996,25.200001,1.54,1729428351103.0,0.0
-5.379066,-6.144768,-6.726225,117.529999,27.23,7.98,1729428351123.0,0.0
-3.828516,-5.158926,-5.300103,100.870003,21.559999,-1.19,1729428351143.0,0.0
-3.878766,-4.563113,-6.4678,85.82,21.629999,-11.83,1729428351166.0,0.0
3.732803,-6.300302,-19.92264,183.610001,-47.32,-27.299999,1729428351183.0,0.0
-5.592027,8.65484,-7.960921,294.700012,106.260002,28.35,1729428351204.0,0.0
-7.243074,-5.862415,-2.586641,94.220001,20.790001,27.16,1729428351223.0,0.0
-2.778067,-8.102098,-6.470192,-31.57,-16.309999,-17.57,1729428351243.0,0.0
5.572884,10.753345,-16.278372,193.479996,-91.0,-30.24,1729428351275.0,0.0
-8.116454,-10.097712,-5.103891,474.73999,84.910004,66.080002,1729428351283.0,0.0
-16.469799,-0.382852,-1.196411,63.84,25.34,41.16,1729428351304.0,0.0
-4.587041,-20.769699,-1.459622,-142.240005,-73.360001,-76.510002,1729428351324.0,0.0
5.278566,1.586441,-17.240288,198.240005,-34.369999,62.09,1729428351343.0,0.0
-15.464812,-11.081161,6.228518,160.720001,95.970001,-68.040001,1729428351364.0,0.0
-4.783253,-7.554141,-3.249453,33.880001,-117.32,61.25,1729428351383.0,0.0
-3.201597,-7.611568,-2.194218,237.860001,-22.75,-16.379999,1729428351404.0,0.0
-5.740381,-5.304887,1.914258,212.240005,28.98,44.240002,1729428351423.0,0.0
-6.989435,-6.79083,1.526621,-39.970001,6.65,25.200001,1729428351444.0,0.0
-4.716253,-9.135797,-3.041277,-254.169998,-42.630001,38.290001,1729428351464.0,0.0
-2.167897,-8.678767,-4.527221,-341.320007,-39.619999,38.220001,1729428351484.0,0.0
-3.163311,-6.912865,-3.929015,-349.790009,-14.98,23.59,1729428351504.0,0.0
-5.264209,-4.474578,-4.237689,-371.630005,-10.29,21.700001,1729428351523.0,0.0
-5.931807,-5.922236,-7.970492,-390.459991,-37.029999,12.04,1729428351544.0,0.0
-5.618347,-6.771688,-9.315259,-353.570007,-44.799999,5.67,1729428351565.0,0.0
-6.259624,-6.659225,-9.439686,-312.410004,-32.619999,-3.99,1729428351583.0,0.0
-5.828916,-5.469993,-9.205189,-281.049988,-28.210001,-14.28,1729428351606.0,0.0
-5.288138,-4.4339,-9.025726,-250.25,-22.33,-14.14,1729428351623.0,0.0
-5.012963,-4.436293,-8.980263,-220.149994,-15.47,-14.14,1729428351644.0,0.0
-4.838287,-3.907479,-8.946764,-164.430008,-8.19,-11.62,1729428351666.0,0.0
-4.809574,-3.589234,-9.80818,-122.919998,1.05,-8.19,1729428351684.0,0.0
-4.386044,-3.919443,-10.389636,-84.629997,10.57,-7.42,1729428351703.0,0.0
-4.086941,-3.371487,-9.896714,-36.049999,20.860001,-7.56,1729428351723.0,0.0
-4.386044,-2.596212,-8.520842,-13.23,29.120001,-10.15,1729428351743.0,0.0
-4.398008,-3.208775,-8.082954,-42.98,30.52,-15.75,1729428351763.0,0.0
-3.957729,-2.900101,-8.520842,-60.200001,26.32,-24.85,1729428351783.0,0.0
-3.850052,-2.06022,-9.123833,-52.920002,25.27,-29.190001,1729428351804.0,0.0
-3.723232,-1.636691,-9.269794,-32.27,27.440001,-25.129999,1729428351823.0,0.0
-3.744767,-1.734797,-8.305488,-6.79,32.200001,-13.86,1729428351843.0,0.0
-4.156333,-1.880759,-7.889136,1.33,33.18,-5.6,1729428351864.0,0.0
-4.534399,-1.545763,-8.116454,-1.33,24.92,-1.12,1729428351884.0,0.0
-5.338387,-2.189433,-8.312666,2.24,12.32,5.6,1729428351904.0,0.0
-6.355337,-4.618148,-7.523034,-9.24,6.37,5.25,1729428351930.0,0.0
-7.001399,-5.278566,-7.738388,-32.130001,3.78,-15.190001,1729428351943.0,0.0
-7.601997,-3.783052,-8.499306,-64.75,6.16,-45.849998,1729428351966.0,0.0
-6.472585,-1.734797,-8.583055,-81.269997,12.39,-62.650002,1729428351984.0,0.0
-3.907479,-2.921637,-8.200203,-35.77,20.370001,-56.560001,1729428352004.0,0.0
-2.086541,-1.72044,-7.73121,73.919998,16.17,-43.82,1729428352023.0,0.0
-2.086541,1.105484,-7.408179,123.199997,2.73,-28.559999,1729428352044.0,0.0
-1.98365,-0.165105,-9.365508,-0.77,-36.610001,4.62,1729428352065.0,0.0
-2.383251,-1.79701,-10.145569,-53.200001,-47.32,23.59,1729428352084.0,0.0
-3.254239,-2.292324,-9.944571,-38.220001,-42.84,25.200001,1729428352106.0,0.0
-4.627719,-2.586641,-9.23151,0.35,-27.51,10.43,1729428352124.0,0.0
-5.441278,-2.22054,-8.571091,41.09,-15.26,-3.85,1729428352143.0,0.0
-5.503492,-1.567299,-8.678767,66.639999,-7.98,-14.0,1729428352165.0,0.0
-5.520242,-1.143769,-9.35833,59.080002,-4.9,-14.49,1729428352184.0,0.0
-5.149354,-2.179861,-9.595219,8.26,-1.82,-6.16,1729428352205.0,0.0
-4.326223,-3.002992,-9.329616,-31.92,-1.05,3.43,1729428352225.0,0.0
-4.036692,-2.847459,-8.889337,-29.120001,4.27,7.14,1729428352244.0,0.0
-4.26401,-2.500499,-8.563912,-3.01,9.03,8.12,1729428352266.0,0.0
-4.785645,-2.715853,-8.453842,14.84,13.02,7.63,1729428352284.0,0.0
-4.852644,-2.854637,-8.532805,8.75,12.18,2.17,1729428352305.0,0.0
-4.761717,-3.110669,-8.640482,-13.72,12.11,-3.85,1729428352324.0,0.0
-4.503292,-3.261417,-8.441878,-24.99,15.05,-8.33,1729428352344.0,0.0
-4.352544,-2.849852,-8.044669,-13.86,18.620001,-11.2,1729428352365.0,0.0
-3.912265,-2.007578,-8.480164,5.18,16.870001,-12.11,1729428352385.0,0.0
-3.634698,-1.808974,-8.549555,-2.8,16.799999,-9.66,1729428352406.0,0.0
-3.290131,-2.337788,-8.183454,-18.690001,18.48,-6.3,1729428352425.0,0.0
-3.847659,-2.495714,-7.992027,-21.210001,18.200001,-6.09,1729428352445.0,0.0
-4.412365,-2.048256,-8.523234,-15.33,6.79,-4.13,1729428352467.0,0.0
-4.658825,-2.234896,-9.71486,-14.0,-10.22,2.87,1729428352485.0,0.0
-4.919643,-3.026921,-10.526026,-16.870001,-16.24,6.72,1729428352506.0,0.0
-5.216353,-3.048456,-10.265208,-10.57,-10.57,3.85,1729428352525.0,0.0
-5.661418,-3.101098,-9.355937,16.52,-4.76,2.1,1729428352545.0,0.0
-5.754738,-3.201597,-8.616554,43.259998,-4.06,0.49,1729428352566.0,0.0
-5.115855,-3.309274,-8.039884,55.369999,-5.18,-3.08,1729428352587.0,0.0
-4.601398,-2.419144,-8.032705,62.720001,-9.31,-8.33,1729428352612.0,0.0
-4.338188,-2.038685,-8.740981,46.130001,-13.23,-13.86,1729428352625.0,0.0
-3.881158,-2.947958,-8.252845,18.129999,-11.62,-13.02,1729428352650.0,0.0
-3.976871,-3.146562,-7.781459,19.530001,-7.28,-9.94,1729428352666.0,0.0
-3.895515,-2.366502,-7.587641,29.26,-7.28,-8.12,1729428352686.0,0.0
-3.792624,-2.021935,-7.767102,29.4,-6.58,-3.78,1729428352706.0,0.0
-4.256832,-2.574677,-8.240881,8.96,-3.22,-4.69,1729428352725.0,0.0
-4.486543,-2.56032,-8.051848,-14.14,0.42,-7.42,1729428352745.0,0.0
-4.792823,-2.600998,-7.735995,-15.61,-0.21,-4.97,1729428352767.0,0.0
-4.807181,-2.694318,-8.149954,9.31,-2.31,0.14,1729428352785.0,0.0
-4.45065,-2.799603,-8.886944,21.139999,1.96,6.51,1729428352805.0,0.0
-3.972085,-1.866402,-8.927622,0.56,6.65,6.09,1729428352825.0,0.0
-4.034299,-2.696711,-8.870193,-34.299999,13.86,4.48,1729428352845.0,0.0
-3.78066,-3.885944,-9.253045,-37.869999,13.3,0.07,1729428352866.0,0.0
-3.507878,-3.127419,-9.583255,-5.74,10.85,0.49,1729428352886.0,0.0
-3.605984,-2.78046,-9.195618,4.9,13.3,4.62,1729428352905.0,0.0
-3.596412,-3.151347,-8.652447,-0.35,15.96,6.23,1729428352925.0,0.0
-3.407379,-3.15374,-8.707481,3.85,12.18,8.12,1729428352946.0,0.0
-3.005385,-3.455236,-6.89133,45.150002,6.44,15.190001,1729428352966.0,0.0
-3.421736,-2.813959,-6.015556,89.809998,-4.41,18.690001,1729428352986.0,0.0
-3.5007,-3.452843,-7.668997,47.810001,-15.82,15.33,1729428353006.0,0.0
-4.228118,-5.582455,-8.592626,20.23,-15.68,6.93,1729428353025.0,0.0
-4.587041,-10.222138,-11.346765,38.080002,-7.98,-9.73,1729428353045.0,0.0
-4.232903,-4.790431,-10.193424,74.340004,10.64,-23.379999,1729428353066.0,0.0
-3.816552,-4.668397,-10.023535,145.740005,20.58,4.76,1729428353086.0,0.0
-2.447858,-4.938786,-7.814958,188.369995,21.700001,8.26,1729428353106.0,0.0
-4.019942,-3.213561,-6.45105,182.770004,18.969999,9.66,1729428353125.0,0.0
-4.706682,-4.055835,-6.754939,127.050003,6.16,13.16,1729428353145.0,0.0
-4.036692,-3.9673,-7.21436,73.57,-1.96,8.96,1729428353166.0,0.0
-4.362115,-5.630312,-6.922436,66.080002,-0.7,8.47,1729428353187.0,0.0
-4.658825,-7.034898,-6.305088,75.809998,-2.1,7.35,1729428353205.0,0.0
-5.211568,-4.208975,-5.752346,69.160004,0.28,1.61,1729428353224.0,0.0
-4.465007,-5.814559,-9.10469,48.860001,-5.39,6.72,1729428353245.0,0.0
-5.082355,-4.517649,-6.056234,82.949997,7.56,2.03,1729428353266.0,0.0
-5.151747,-6.659225,-6.302694,40.529999,5.6,6.58,1729428353285.0,0.0
-4.565506,-6.281159,-6.659225,8.61,-0.28,-3.78,1729428353306.0,0.0
0.545564,-17.058434,-10.509278,43.119999,-2.94,-3.15,1729428353324.0,0.0
-2.931208,-1.636691,5.737988,521.220032,100.940002,41.93,1729428353345.0,0.0
-15.582061,-4.515256,1.710868,142.589996,76.090004,83.860001,1729428353366.0,0.0
-1.473979,-11.535798,-11.973685,-131.110001,-78.82,-45.709999,1729428353384.0,0.0
-1.631905,-9.930215,-8.283953,93.940002,4.83,1.33,1729428353405.0,0.0
-6.766902,-5.178068,-0.51685,208.25,50.959999,24.08,1729428353425.0,0.0
-5.895915,-13.524234,-3.448057,69.650002,-22.190001,-3.22,1729428353444.0,0.0
-3.036492,-12.576675,0.78006,375.619995,33.110001,57.889999,1729428353466.0,0.0
-9.499505,3.783052,-1.758725,281.75,23.1,-7.49,1729428353485.0,0.0
-6.79083,-9.140583,-5.453243,178.779999,12.95,-38.150002,1729428353506.0,0.0
-8.319844,-9.954143,-4.938786,44.240002,-2.52,63.560001,1729428353524.0,0.0
-3.804588,-8.539984,-2.103291,35.139999,-7.28,-36.82,1729428353545.0,0.0
-6.118448,-6.649654,-0.988236,2.31,-21.42,1.82,1729428353567.0,0.0
-4.993821,-9.533006,0.366102,-7.91,-28.77,-7.49,1729428353586.0,0.0
-7.908278,-10.504492,-1.658226,-22.4,-42.07,0.42,1729428353609.0,0.0
-2.490928,-8.13799,-3.144169,61.25,-54.040001,-28.84,1729428353624.0,0.0
-4.34058,0.490529,3.905087,78.260002,23.59,4.62,1729428353645.0,0.0
-5.125426,-10.997414,-6.197411,-274.610016,-31.780001,-25.34,1729428353666.0,0.0
-5.606383,-24.284758,-8.865408,-121.520004,-14.7,-69.720001,1729428353685.0,0.0
-9.652647,-3.644269,-1.473979,148.190002,112.07,-42.98,1729428353705.0,0.0
-7.831708,0.543171,0.18664,-70.980003,81.690002,-60.900002,1729428353725.0,0.0
-1.95015,-11.093125,-5.79063,-350.559998,7.21,-76.370003,1729428353744.0,0.0
0.806381,-9.090333,-10.480563,-240.800003,21.139999,-85.68,1729428353766.0,0.0
-0.461815,-7.147361,-3.845266,-57.68,54.459999,-53.970001,1729428353785.0,0.0
-1.328017,-9.755538,1.76351,-138.740005,49.91,-42.279999,1729428353805.0,0.0
0.244068,-6.281159,-0.234497,-229.880005,10.15,-58.799999,1729428353824.0,0.0
-0.289532,-3.720839,2.555535,-235.619995,-13.86,-48.299999,1729428353844.0,0.0
1.22034,-8.379664,-5.297709,-215.180008,-47.529999,-48.860001,1729428353865.0,0.0
1.045663,-10.896914,-7.097112,-65.029999,-38.990002,-38.290001,1729428353886.0,0.0
-3.598805,-5.661418,-3.639483,-7.98,-8.61,-7.7,1729428353905.0,0.0
-4.512863,-6.151947,-4.725825,-115.220001,-27.370001,-18.620001,1729428353924.0,0.0
-2.667997,-6.238089,-6.874579,-139.580002,-48.16,-31.43,1729428353944.0,0.0
-1.828116,-1.727618,-4.809574,-114.449997,-49.07,-10.78,1729428353974.0,0.0
-3.117848,-2.45025,-11.41137,-197.539993,-61.880001,-0.07,1729428353986.0,0.0
-4.931608,-8.46102,-16.280766,-140.910004,-56.209999,23.24,1729428354005.0,0.0
-7.166504,-3.725625,-8.815158,46.970001,-22.540001,29.049999,1729428354025.0,0.0
-4.555934,0.715454,0.083749,91.910004,-21.49,52.57,1729428354044.0,0.0
-2.313859,-3.852444,-9.49472,-142.240005,-56.630001,33.950001,1729428354066.0,0.0
-4.165904,-10.518847,-12.459428,-101.360001,-51.170002,37.450001,1729428354087.0,0.0
-4.132405,-1.631905,-7.216753,61.32,-34.790001,36.400002,1729428354107.0,0.0
-3.749553,3.299703,-5.776274,-28.84,-49.0,43.119999,1729428354125.0,0.0
-4.922036,-6.960721,-11.868401,-186.830002,-45.43,38.990002,1729428354145.0,0.0
-5.04407,-6.116055,-8.973085,-166.669998,-56.0,15.12,1729428354167.0,0.0
-3.816552,-5.71406,-7.458428,-80.290001,-55.369999,5.32,1729428354185.0,0.0
-5.041678,-3.771089,-7.350751,-73.5,-51.73,16.59,1729428354206.0,0.0
-4.599005,-8.188239,-9.207582,-100.730003,-54.950001,10.99,1729428354225.0,0.0
-5.230711,-4.843073,-9.724431,3.78,-54.040001,6.72,1729428354246.0,0.0
-6.163911,-2.907279,-11.196017,25.34,-42.490002,5.6,1729428354267.0,0.0
-7.767102,-4.156333,-7.788638,-9.73,-25.200001,7.42,1729428354286.0,0.0
-6.963113,-4.096512,-10.033106,66.849998,-15.33,12.67,1729428354307.0,0.0
-6.025128,-2.617748,-10.119246,103.739998,-13.65,3.36,1729428354326.0,0.0
-6.65444,-2.579463,-10.214959,87.5,8.89,-2.94,1729428354346.0,0.0
-6.484549,-4.508078,-12.916457,37.029999,24.99,-11.2,1729428354367.0,0.0
-6.67119,-3.469593,-12.710674,66.709999,55.93,-31.219999,1729428354386.0,0.0
-5.663811,1.064806,-5.924629,136.080002,63.98,-29.68,1729428354408.0,0.0
-5.13739,-0.392423,-5.245068,78.330002,66.150002,-14.84,1729428354427.0,0.0
-5.855237,-2.845066,-3.261417,-31.92,51.59,-13.58,1729428354449.0,0.0
-6.235696,-3.732803,-2.74696,-68.18,38.5,-13.09,1729428354468.0,0.0
-5.737988,-6.15434,-12.684352,-75.739998,30.309999,-13.09,1729428354487.0,0.0
-6.13759,-3.012564,-7.264609,-29.469999,43.959999,-13.79,1729428354510.0,0.0
-1.103091,-16.067802,-8.867801,115.010002,65.730003,-19.25,1729428354526.0,0.0
-2.512464,-3.383451,-0.409173,385.910004,66.010002,-5.67,1729428354547.0,0.0
-6.955935,3.235096,8.018349,538.090027,46.34,64.260002,1729428354570.0,0.0
-5.431707,-8.255238,-7.202396,218.610001,5.25,11.9,1729428354587.0,0.0
-3.61077,-9.492328,-9.183653,278.040009,-44.099998,29.82,1729428354610.0,0.0
-4.962714,-4.555934,-4.965107,526.330017,17.710001,68.32,1729428354627.0,0.0
-5.757132,-4.546363,-1.689333,626.080017,34.09,55.369999,1729428354647.0,0.0
-5.393422,-6.817152,0.241675,613.690002,35.279999,38.43,1729428354668.0,0.0
-5.704489,-7.913064,2.711068,549.98999,55.299999,25.129999,1729428354691.0,0.0
-5.998806,-8.506484,5.041678,414.399994,53.549999,15.190001,1729428354707.0,0.0
-5.075177,-8.750552,4.304688,269.920013,24.57,-5.81,1729428354726.0,0.0
-4.601398,-7.657032,4.31426,197.960007,19.74,-6.86,1729428354748.0,0.0
-4.740182,-7.585248,3.802195,160.509995,13.65,-7.63,1729428354769.0,0.0
-4.299902,-7.647461,4.780859,160.509995,9.31,-7.14,1729428354787.0,0.0
-5.285746,-6.908078,6.245267,153.509995,10.85,-9.59,1729428354808.0,0.0
-5.168497,-7.479963,5.941379,113.889999,-0.35,-13.86,1729428354827.0,0.0
-4.510471,-6.905686,5.458029,98.139999,-3.43,-16.1,1729428354847.0,0.0
-4.204189,-5.898308,5.003392,111.510002,3.29,-14.49,1729428354868.0,0.0
-5.079963,-5.276174,6.063413,119.559998,11.9,-9.94,1729428354887.0,0.0
-5.328816,-5.558527,6.190232,102.269997,9.1,-9.38,1729428354907.0,0.0
-4.917251,-5.618347,5.594419,69.860001,3.15,-9.45,1729428354926.0,0.0
-5.123034,-4.955536,5.773881,69.090004,6.23,-10.5,1729428354946.0,0.0
-5.230711,-4.474578,6.005985,64.82,6.86,-8.05,1729428354967.0,0.0
-4.809574,-4.460221,5.814559,57.610001,7.35,-4.9,1729428354987.0,0.0
-4.912465,-4.311867,6.465407,58.52,10.29,-6.09,1729428355007.0,0.0
-5.194818,-4.381258,6.805188,52.990002,10.29,-8.05,1729428355028.0,0.0
-5.209175,-3.826123,6.635297,36.68,9.66,-7.91,1729428355048.0,0.0
-4.912465,-3.759124,6.585048,14.28,6.86,-6.23,1729428355068.0,0.0
-4.59422,-3.828516,5.582455,4.69,7.98,-5.46,1729428355087.0,0.0
-5.132604,-4.307081,6.333801,10.15,12.39,0.63,1729428355107.0,0.0
-5.300103,-4.711468,7.343572,14.49,10.5,1.19,1729428355126.0,0.0
-5.173282,-4.644469,7.712067,1.33,4.13,-1.75,1729428355147.0,0.0
-4.754539,-4.053442,7.513463,-30.24,-5.18,-4.97,1729428355168.0,0.0
-4.835894,-3.239882,7.403394,-69.580002,-11.27,-6.44,1729428355188.0,0.0
-4.632504,-4.098906,7.202396,-134.190002,-24.219999,-11.34,1729428355206.0,0.0
-4.651647,-5.209175,6.979864,-205.449997,-32.619999,-18.690001,1729428355227.0,0.0
-4.393222,-5.264209,5.259424,-284.410004,-40.389999,-24.92,1729428355246.0,0.0
-3.881158,-5.45085,3.749553,-397.179993,-42.209999,-13.65,1729428355268.0,0.0
-3.852444,-6.084948,2.256432,-513.309998,-30.309999,-3.57,1729428355290.0,0.0
-4.445865,-5.970093,-0.184247,-665.419983,-27.02,1.68,1729428355307.0,0.0
-4.290331,-5.812167,-3.141776,-759.98999,-32.130001,4.34,1729428355326.0,0.0
-5.513064,-5.895915,-6.680761,-771.679993,-40.18,1.19,1729428355346.0,0.0
-5.740381,-7.156933,-9.387043,-640.640015,-51.939999,-6.44,1729428355367.0,0.0
-5.864808,-8.274381,-10.181459,-429.519989,-42.84,2.17,1729428355386.0,0.0
-6.151947,-7.963314,-9.298509,-225.330002,-19.389999,-1.05,1729428355409.0,0.0
-7.262216,-6.13759,-6.71426,-94.5,-4.41,-1.12,1729428355480.0,0.0
-7.41775,-4.244867,-5.972485,-93.800003,-13.72,1.61,1729428355480.0,0.0
-5.848059,-4.749753,-7.051648,-145.460007,-20.65,1.05,1729428355481.0,0.0
-4.706682,-5.82413,-7.850852,-123.550003,-14.21,5.53,1729428355491.0,0.0
-4.299902,-5.091926,-6.302694,-62.09,-0.21,7.7,1729428355510.0,0.0
-4.086941,-5.278566,-5.134997,-37.73,2.52,10.92,1729428355526.0,0.0
-4.187439,-4.833502,-5.570491,-30.030001,-7.21,13.16,1729428355546.0,0.0
-4.740182,-4.158726,-6.82433,-26.67,-13.72,13.93,1729428355567.0,0.0
-5.469993,-4.811966,-7.106683,-30.52,-14.63,19.74,1729428355587.0,0.0
-5.821737,-4.658825,-5.757132,-23.52,-14.84,21.559999,1729428355610.0,0.0
-6.013163,-3.361916,-5.773881,-22.120001,-26.530001,21.84,1729428355627.0,0.0
-5.546563,-4.041477,-7.73121,-45.43,-29.82,21.91,1729428355647.0,0.0
-5.288138,-4.366901,-8.51127,-33.32,-24.92,21.700001,1729428355667.0,0.0
-6.314659,-2.699104,-7.051648,0.7,-18.9,23.940001,1729428355687.0,0.0
-6.9679,-2.986243,-5.661418,-25.129999,-24.57,24.15,1729428355708.0,0.0
-6.652047,-7.274181,-2.304288,-50.959999,-36.540001,19.110001,1729428355726.0,0.0
-6.175875,-4.989035,-5.331209,-20.02,-52.709999,9.1,1729428355746.0,0.0
-6.546762,-4.974678,-7.822137,-12.53,-52.009998,7.49,1729428355767.0,0.0
-5.381458,-3.912265,-8.810372,-22.26,-51.73,0.42,1729428355786.0,0.0
-6.185446,-2.672783,-8.671589,23.799999,-47.110001,11.27,1729428355808.0,0.0
-7.408179,-2.232504,-8.769694,18.200001,-36.119999,15.05,1729428355826.0,0.0
-8.066205,-1.849652,-8.056634,-38.009998,-26.389999,11.55,1729428355846.0,0.0
-6.374479,-4.21376,-11.152946,-100.449997,-15.75,-1.82,1729428355867.0,0.0
-6.295516,-4.024727,-10.616954,-75.949997,7.07,-11.27,1729428355888.0,0.0
-6.982256,-3.809374,-9.107083,-8.33,24.639999,-12.46,1729428355907.0,0.0
-6.721439,-4.563113,-9.619147,-8.89,43.540001,-32.48,1729428355926.0,0.0
-7.075576,-2.837888,-7.606783,1.12,76.440002,-42.77,1729428355948.0,0.0
-6.319445,-2.139183,-4.055835,-8.75,69.790001,-35.07,1729428355967.0,0.0
-6.898508,-2.467,-6.252446,15.89,63.279999,-24.780001,1729428355986.0,0.0
-7.252645,-0.239282,-3.728018,30.17,53.200001,-8.96,1729428356014.0,0.0
-6.23091,-9.805787,-17.539389,-46.48,62.720001,-13.51,1729428356026.0,0.0
-9.236296,0.043071,-8.480164,32.619999,121.169998,-33.599998,1729428356046.0,0.0
-7.843673,-1.349552,0.555135,115.5,110.32,-10.36,1729428356070.0,0.0
-3.448057,-2.471786,-4.089334,-14.35,80.5,-13.93,1729428356087.0,0.0
-6.886543,-3.136991,-4.910072,-53.060001,62.299999,-8.26,1729428356123.0,0.0
-4.292724,-3.830909,-2.529213,-14.84,55.790001,-13.86,1729428356130.0,0.0
-4.448257,-6.855437,-7.001399,-19.25,44.240002,-18.83,1729428356296.0,0.0
-3.37388,-3.639483,-9.633504,-24.360001,42.139999,-31.219999,1729428356298.0,0.0
-2.416751,-2.419144,-9.12144,-12.11,33.880001,-20.299999,1729428356299.0,0.0
-3.189633,-5.06082,-8.786445,10.99,31.780001,-10.57,1729428356302.0,0.0
-3.60359,-3.330809,-7.992027,41.650002,21.210001,-13.440001,1729428356304.0,0.0
-3.206382,-5.594419,-5.833702,-21.280001,9.31,-25.059999,1729428356307.0,0.0
-2.29711,-3.799802,-5.82413,-24.92,-6.72,-34.02,1729428356310.0,0.0
-2.210968,-2.383251,-5.532206,-23.379999,-19.950001,-28.42,1729428356311.0,0.0
-1.808974,-2.617748,-6.472585,-40.599998,-43.610001,-18.83,1729428356312.0,0.0
-3.290131,-3.101098,-6.582655,-45.5,-56.420002,-12.11,1729428356327.0,0.0
-4.168297,-2.766103,-7.69771,-53.830002,-63.490002,-13.3,1729428356346.0,0.0
-5.907879,-1.540978,-6.71426,-59.080002,-72.379997,-16.66,1729428356369.0,0.0
-6.07777,-4.168297,-10.195816,-36.330002,-79.099998,-19.389999,1729428356385.0,0.0
-6.089733,-3.888337,-11.667403,3.22,-63.0,-22.190001,1729428356406.0,0.0
-6.496514,-2.962314,-10.908878,-9.31,-35.0,-22.33,1729428356427.0,0.0
-6.441479,-2.98385,-9.877571,-47.880001,-15.61,-18.76,1729428356446.0,0.0
-6.23091,-2.684747,-9.406186,-45.290001,-11.27,-16.030001,1729428356467.0,0.0
-5.070391,-2.854637,-10.052249,-3.15,-7.07,-12.74,1729428356487.0,0.0
-4.108476,-3.194418,-10.693524,80.989998,3.08,-4.2,1729428356507.0,0.0
-4.771288,-3.639483,-8.705089,129.289993,25.200001,-14.21,1729428356527.0,0.0
-4.955536,-2.522035,-7.058826,91.559998,25.620001,-19.879999,1729428356548.0,0.0
-4.359723,-3.888337,-8.219346,24.15,20.09,-23.799999,1729428356570.0,0.0
-3.672983,-5.510671,-9.927821,9.94,16.799999,-29.120001,1729428356590.0,0.0
-3.565305,-5.273781,-7.881958,52.639999,23.940001,-26.110001,1729428356612.0,0.0
-4.261617,-4.04387,-5.749953,49.700001,27.16,-26.530001,1729428356628.0,0.0
-4.472186,-3.421736,-5.347959,-7.56,17.780001,-25.549999,1729428356647.0,0.0
-4.012764,-4.488935,-8.267202,-35.07,8.19,-21.42,1729428356669.0,0.0
-4.254438,-5.905487,-11.710474,12.25,17.01,-18.129999,1729428356689.0,0.0
-4.881358,-4.862216,-9.879964,80.639999,44.240002,-22.4,1729428356710.0,0.0
-5.32403,-3.572484,-7.4345,96.739998,55.439999,-23.73,1729428356732.0,0.0
-4.218546,-3.739982,-7.384251,63.630001,49.490002,-24.43,1729428356750.0,0.0
-3.223132,-4.342973,-9.188439,44.52,44.939999,-20.370001,1729428356771.0,0.0
-3.098706,-5.388636,-9.229117,51.240002,40.599998,-16.17,1729428356788.0,0.0
-3.818945,-5.706882,-8.348558,77.349998,49.209999,-10.85,1729428356809.0,0.0
-3.397808,-4.515256,-8.642875,100.660004,56.630001,-9.87,1729428356828.0,0.0
-2.957529,-6.477371,-5.65424,91.629997,55.93,-0.42,1729428356848.0,0.0
-1.993221,-7.197611,-5.032106,101.709999,39.900002,-4.41,1729428356869.0,0.0
-1.095913,-6.647261,-5.201996,102.620003,34.02,-6.93,1729428356888.0,0.0
-1.272982,-7.082755,-5.108676,102.970001,25.129999,-11.9,1729428356910.0,0.0
-1.359123,-7.24786,-5.134997,102.830002,16.52,-10.22,1729428356930.0,0.0
-1.581656,-7.642675,-5.56092,83.790001,9.94,-8.47,1729428356948.0,0.0
-2.103291,-7.872386,-7.259824,47.389999,12.53,-11.69,1729428356971.0,0.0
-2.15354,-7.886744,-8.606983,19.74,21.210001,-8.82,1729428356988.0,0.0
-2.033899,-8.920443,-8.913264,56.349998,21.77,-0.77,1729428357009.0,0.0
-1.698904,-7.817351,-6.352944,122.360001,38.779999,8.68,1729428357029.0,0.0
-1.378266,-7.73121,-3.881158,126.840004,42.630001,10.01,1729428357048.0,0.0
-1.820938,-7.630712,-3.481557,73.150002,32.900002,-2.38,1729428357071.0,0.0
-1.119841,-7.164111,-0.947558,-6.23,13.79,-15.89,1729428357089.0,0.0
-1.155733,-7.530212,-0.897308,-34.790001,-11.76,-11.2,1729428357112.0,0.0
-1.069592,-8.4012,-4.328616,36.68,-26.67,-0.14,1729428357127.0,0.0
-2.464607,-7.738388,-3.189633,81.059998,-11.27,5.18,1729428357149.0,0.0
-2.081756,-6.443871,-1.916651,41.23,-10.85,6.58,1729428357168.0,0.0
-1.555335,-7.920243,-1.481157,-2.45,-34.650002,15.82,1729428357188.0,0.0
-0.820738,-7.860423,-1.849652,9.38,-39.27,27.51,1729428357208.0,0.0
-0.811167,-8.243275,-2.208575,-38.849998,-55.09,22.33,1729428357228.0,0.0
-1.940579,-9.212367,-4.938786,-87.010002,-69.300003,14.98,1729428357247.0,0.0
-3.565305,-9.449257,-5.328816,-87.290001,-67.760002,13.440001,1729428357269.0,0.0
-3.716053,-7.915457,-3.68734,-47.810001,-64.959999,16.450001,1729428357289.0,0.0
-3.969693,-6.474977,-4.194618,-56.98,-66.150002,16.73,1729428357310.0,0.0
-4.768896,-4.113262,-5.395815,-121.449997,-63.490002,17.360001,1729428357327.0,0.0
-5.347959,-7.523034,-7.432107,-186.970001,-64.050003,3.36,1729428357348.0,0.0
-4.625326,-3.586841,-6.608976,-192.570007,-67.480003,-10.43,1729428357369.0,0.0
-3.287738,-3.180061,-9.315259,-246.610001,-65.590004,-16.030001,1729428357387.0,0.0
-5.103891,-3.347559,-10.561919,-351.26001,-58.52,-19.32,1729428357408.0,0.0
-4.086941,-6.51087,-10.24846,-323.610016,-44.240002,-13.51,1729428357427.0,0.0
-3.761517,-5.065606,-8.953942,-228.830002,-31.290001,-20.93,1729428357447.0,0.0
-4.115655,-5.103891,-10.124033,-144.619995,-19.460001,-21.629999,1729428357469.0,0.0
-4.134798,-4.718646,-10.593026,-109.199997,-2.94,-22.889999,1729428357489.0,0.0
-2.837888,-2.117648,-9.001799,-123.129997,9.87,-24.5,1729428357508.0,0.0
-1.789831,-3.440879,-8.662018,-83.580002,4.2,4.2,1729428357528.0,0.0
-2.672783,-2.778067,-7.489535,-29.82,1.4,5.6,1729428357547.0,0.0
-3.768696,-1.952543,-7.793423,-14.91,-8.4,7.98,1729428357568.0,0.0
-3.412165,-1.512264,-8.398808,-13.51,-16.17,10.43,1729428357587.0,0.0
-3.926622,-2.129612,-8.721838,-4.41,-20.65,17.99,1729428357611.0,0.0
-4.759324,-3.61077,-10.246067,7.77,-24.01,23.799999,1729428357628.0,0.0
-5.12782,-6.9009,-8.403593,51.099998,-18.48,17.710001,1729428357648.0,0.0
-6.089733,-6.898508,-11.176874,115.709999,-12.39,2.66,1729428357668.0,0.0
-4.606184,-2.335395,-9.336794,192.080002,1.47,6.02,1729428357688.0,0.0
-4.603791,-3.639483,-9.152546,247.380005,3.08,25.059999,1729428357707.0,0.0
-4.409972,-3.050849,-10.839487,253.540009,1.05,19.530001,1729428357727.0,0.0
-5.388636,-1.37348,-9.037691,213.360001,16.52,22.33,1729428357748.0,0.0
-4.395615,-6.333801,-6.498906,111.93,6.02,19.389999,1729428357769.0,0.0
-4.48415,-5.465207,-6.975078,43.68,3.01,6.51,1729428357787.0,0.0
-5.529813,-5.862415,-6.750153,52.360001,3.78,21.280001,1729428357808.0,0.0
-7.704889,-10.107283,4.783253,38.150002,2.59,12.32,1729428357826.0,0.0
-1.737189,-8.590233,-5.804988,260.610016,-67.620003,5.04,1729428357847.0,0.0
-5.359922,2.151148,-14.048263,647.359985,10.71,62.369999,1729428357868.0,0.0
-15.936199,10.674382,-3.139383,287.420013,138.740005,63.84,1729428357887.0,0.0
-5.833702,-12.890135,-5.257031,-118.370003,-58.59,8.89,1729428357908.0,0.0
-0.66999,-15.560526,-13.569696,-85.889999,-58.59,-49.349998,1729428357930.0,0.0
-5.331209,-5.393422,-2.739782,245.350006,45.290001,10.08,1729428357950.0,0.0
-6.386444,-6.166305,-3.34038,177.029999,23.870001,2.24,1729428357968.0,0.0
-4.790431,-12.870994,4.716253,138.320007,14.84,-18.549999,1729428357990.0,0.0
-8.331808,-10.15514,2.665605,89.949997,10.29,-5.6,1729428358008.0,0.0
-4.680361,-4.206582,-5.757132,165.199997,-63.279999,-32.619999,1729428358028.0,0.0
-11.483156,-13.706088,5.201996,312.410004,133.910004,-1.82,1729428358054.0,0.0
-10.193424,-8.781659,1.308874,-66.43,-64.889999,28.98,1729428358071.0,0.0
-5.28096,-14.455042,1.672583,-73.779999,-56.07,-40.950001,1729428358089.0,0.0
-5.548956,-7.630712,1.397408,-53.970001,-42.630001,-12.11,1729428358109.0,0.0
-6.716653,-7.946564,-6.419943,-35.91,-70.699997,-26.530001,1729428358130.0,0.0
-9.406186,-6.379266,-9.427721,170.309998,77.419998,-40.740002,1729428358148.0,0.0
-7.733603,-10.837094,-3.775874,9.8,84.419998,-65.449997,1729428358172.0,0.0
-3.507878,-7.389036,-0.981057,-158.339996,76.580002,-45.080002,1729428358188.0,0.0
-0.490529,-6.618547,-4.850252,-250.25,43.959999,-64.260002,1729428358209.0,0.0
1.268196,-13.196418,-5.539384,-166.809998,52.639999,-52.5,1729428358228.0,0.0
1.359123,-9.193225,2.715853,-110.389999,96.040001,-46.130001,1729428358248.0,0.0
0.653241,-9.449257,6.02752,-234.570007,51.939999,-49.209999,1729428358269.0,0.0
0.547956,-6.56112,5.699703,-264.390015,-5.53,-50.610001,1729428358290.0,0.0
-1.39023,-9.540184,-0.356531,-181.369995,-23.73,-36.400002,1729428358310.0,0.0
-4.072584,-7.290931,-1.387837,-177.660004,-14.0,-25.129999,1729428358330.0,0.0
-4.359723,-7.238289,-3.570091,-217.0,-22.610001,-27.16,1729428358350.0,0.0
-1.801795,-5.742774,-5.726025,-172.970001,-36.68,-38.639999,1729428358370.0,0.0
-2.773281,0.442672,-3.87398,-128.729996,-38.849998,-10.57,1729428358388.0,0.0
-2.194218,0.674776,-5.436492,-223.160004,-58.099998,-8.47,1729428358409.0,0.0
-3.282953,-3.797409,-9.128618,-250.180008,-77.07,2.59,1729428358428.0,0.0
-3.699304,-6.821937,-11.052447,-162.960007,-70.349998,5.39,1729428358452.0,0.0
-5.541777,-5.436492,0.028714,-44.099998,-48.16,13.09,1729428358470.0,0.0
-3.649055,3.797409,-6.618547,-304.429993,-103.18,-6.37,1729428358490.0,0.0
-3.634698,-6.84108,-15.500705,-356.790009,-111.650002,-2.38,1729428358511.0,0.0
-1.648655,-8.566305,-17.898314,-134.75,-84.139999,-12.74,1729428358531.0,0.0
-3.866802,0.811167,-9.824929,57.540001,-46.130001,-4.9,1729428358550.0,0.0
-5.541777,-1.119841,-3.646662,-42.209999,-44.310001,5.6,1729428358570.0,0.0
-6.996613,-6.206983,-10.181459,-147.419998,-62.860001,-1.68,1729428358590.0,0.0
-5.123034,-3.797409,-10.293922,-56.91,-62.299999,1.19,1729428358614.0,0.0
-6.288338,-4.792823,-12.291929,24.710001,-52.639999,7.84,1729428358631.0,0.0
-7.625926,-5.551349,-11.947363,99.120003,-33.25,5.32,1729428358650.0,0.0
-7.623533,-1.679761,-12.076575,172.059998,-14.28,3.01,1729428358672.0,0.0
-8.056634,-0.368495,-11.590833,158.830002,8.96,-0.84,1729428358692.0,0.0
-7.391429,1.308874,-10.758131,87.989998,26.880001,-11.2,1729428358711.0,0.0
-6.534799,-1.222732,-7.776673,11.34,41.790001,-23.799999,1729428358730.0,0.0
-6.235696,-3.026921,-7.745567,30.870001,52.360001,-17.99,1729428358749.0,0.0
-5.481956,-0.502493,-3.59402,99.190002,66.150002,-16.870001,1729428358776.0,0.0
-3.337988,-6.309873,-25.050459,12.74,38.849998,-11.97,1729428358790.0,0.0
-3.29731,-7.700103,-3.010171,52.57,45.57,-8.26,1729428358811.0,0.0
-9.343972,7.403394,-6.635297,143.009995,9.1,-0.7,1729428358832.0,0.0
-5.393422,-18.903299,-37.105499,-11.34,40.950001,0.42,1729428358849.0,0.0
-2.15354,-12.480963,-25.17728,325.360016,68.18,-9.87,1729428358870.0,0.0
-11.468799,21.667007,5.98445,787.640015,165.130005,-9.87,1729428358891.0,0.0
-7.025328,5.84088,-1.012164,382.829987,58.099998,47.25,1729428358910.0,0.0
-4.275974,-7.269395,-9.623933,-122.220001,50.049999,-37.59,1729428358930.0,0.0
-5.673382,-15.622739,5.699703,-9.87,67.199997,-10.08,1729428358951.0,0.0
-6.12084,-3.878766,3.412165,97.510002,61.459999,-19.809999,1729428358970.0,0.0
0.064606,-5.730811,-3.448057,-57.889999,36.259998,-30.030001,1729428358991.0,0.0
0.299103,-8.973085,-2.672783,-76.300003,35.420002,-3.22,1729428359012.0,0.0
-2.129612,-9.312866,-3.0006,-129.430008,33.599998,-3.71,1729428359029.0,0.0
-1.304088,-9.351151,-6.470192,-158.059998,-10.85,-15.68,1729428359051.0,0.0
-0.959522,-6.503692,-5.139783,-43.610001,-6.44,-2.52,1729428359073.0,0.0
-1.222732,-5.032106,-5.20439,-6.09,-9.03,22.120001,1729428359091.0,0.0
-1.825724,-4.587041,-7.625926,-40.040001,-24.08,27.02,1729428359112.0,0.0
-3.625126,-6.360123,-8.595018,-123.970001,-55.23,7.56,1729428359131.0,0.0
-5.020142,-6.838687,-7.563712,-145.880005,-57.189999,-20.440001,1729428359151.0,0.0
-5.974878,-4.211368,-8.908479,-146.160004,-47.880001,-29.33,1729428359172.0,0.0
-6.912865,0.708275,-8.85823,-166.110001,-35.560001,-21.0,1729428359192.0,0.0
-3.627519,-2.091327,-9.559326,-138.25,-27.16,14.42,1729428359211.0,0.0
-5.525027,-6.269196,-7.724032,-136.570007,-18.9,20.440001,1729428359231.0,0.0
-4.350152,-6.106483,-9.355937,-129.080002,-20.09,-9.38,1729428359250.0,0.0
-3.596412,-2.821138,-8.647661,-109.059998,-19.67,-19.6,1729428359272.0,0.0
-4.572684,-1.78026,-9.650253,-135.380005,-13.79,-16.940001,1729428359289.0,0.0
-2.9671,-2.742175,-8.920443,-192.639999,-15.12,-8.75,1729428359310.0,0.0
-2.292324,-2.505285,-9.652647,-137.479996,-14.49,3.99,1729428359331.0,0.0
-3.065206,-1.911865,-8.070991,-39.130001,-15.190001,10.85,1729428359351.0,0.0
-4.005585,-0.787239,-7.984849,0.07,-18.690001,16.24,1729428359372.0,0.0
-4.914857,-4.15394,-7.121039,-14.49,-22.049999,17.360001,1729428359389.0,0.0
-5.065606,-5.481956,-10.490135,-42.0,-27.790001,-2.1,1729428359410.0,0.0
-4.948357,-6.608976,-11.447264,9.03,-16.799999,-10.64,1729428359430.0,0.0
-4.055835,-1.957329,-10.679168,230.229996,14.35,18.9,1729428359451.0,0.0
-3.730411,-1.088734,-9.535398,291.130005,19.460001,25.34,1729428359472.0,0.0
-5.82413,0.454636,-4.285545,229.25,20.09,19.809999,1729428359490.0,0.0
-5.781059,-1.567299,-7.32443,21.84,-10.29,-0.7,1729428359511.0,0.0
-4.108476,-6.525227,-10.899307,15.12,-20.51,4.34,1729428359529.0,0.0
-3.656233,-5.259424,-8.585447,144.759995,4.62,14.14,1729428359551.0,0.0
-5.553742,-3.404987,-5.228317,129.430008,24.15,2.38,1729428359573.0,0.0
-5.302495,-4.053442,-5.998806,-0.07,7.42,0.77,1729428359589.0,0.0
-5.020142,-5.536992,-8.068598,-37.170002,3.22,-3.85,1729428359613.0,0.0
-4.579862,-5.601598,-7.932207,17.08,11.27,-5.88,1729428359629.0,0.0
-4.955536,-4.919643,-6.76451,37.799999,14.07,-3.22,1729428359650.0,0.0
-4.819145,-4.888536,-6.532406,25.34,8.26,-5.18,1729428359672.0,0.0
-5.867201,-5.302495,0.339781,14.07,4.48,-3.85,1729428359690.0,0.0
1.545763,4.285545,-7.446464,102.410004,-26.6,-15.05,1729428359711.0,0.0
-9.296116,4.572684,-5.084748,198.100006,48.16,22.610001,1729428359731.0,0.0
-5.644669,-4.031906,-5.436492,28.0,12.39,1.75,1729428359749.0,0.0
-3.120241,-7.085148,-6.754939,-46.48,-14.42,-17.219999,1729428359770.0,0.0
-4.436293,-5.953342,-7.893922,25.969999,3.78,-3.01,1729428359791.0,0.0
-4.156333,-6.74776,-8.128418,32.130001,6.58,-4.2,1729428359811.0,0.0
-4.778467,-6.381658,-7.013363,55.369999,13.440001,-2.31,1729428359831.0,0.0
-5.118248,-5.809773,-6.283553,59.220001,14.21,-3.85,1729428359851.0,0.0
-4.149154,-5.364708,-6.206983,42.700001,7.7,-6.23,1729428359870.0,0.0
-8.003991,-9.707682,9.154939,14.49,4.62,-4.62,1729428359891.0,0.0
12.550355,-11.662617,-13.806586,506.309998,-131.25,3.43,1729428359911.0,0.0
-13.603197,21.02334,-12.399607,499.519989,163.309998,6.44,1729428359930.0,0.0
-9.217153,-0.124427,-6.460621,167.089996,22.469999,70.07,1729428359950.0,0.0
-1.988436,-10.135997,-9.236296,-117.669998,-41.580002,-48.02,1729428359970.0,0.0
-2.790031,-11.631511,-8.666803,-21.42,-34.16,-0.91,1729428359991.0,0.0
-7.080362,-8.542377,-5.15414,177.800003,16.379999,10.92,1729428360010.0,0.0
-4.814359,-7.855636,-2.696711,116.970001,10.43,1.26,1729428360030.0,0.0
-4.127619,-5.472386,-3.218346,70.910004,9.45,1.05,1729428360048.0,0.0
-8.800802,-13.825729,0.646062,55.720001,3.5,-7.91,1729428360071.0,0.0
1.758725,-0.981057,-5.484349,303.519989,-13.37,34.93,1729428360092.0,0.0
-8.982656,-7.580462,-3.266203,183.539993,73.220001,-70.559998,1729428360109.0,0.0
-1.062413,-12.751352,-4.429115,-60.760002,-16.59,-20.370001,1729428360129.0,0.0
-6.257231,-8.49452,-5.979663,-4.97,-10.99,-1.47,1729428360150.0,0.0
-7.805387,-10.047462,6.623333,37.799999,-27.299999,-18.83,1729428360170.0,0.0
-4.110869,-7.049256,-5.850451,60.830002,-43.049999,-8.4,1729428360191.0,0.0
-2.651247,-7.288538,-1.974079,98.769997,38.779999,-28.77,1729428360210.0,0.0
-9.829715,-7.999206,-1.514657,-143.080002,32.34,-12.81,1729428360231.0,0.0
-4.792823,-12.428321,-8.767302,-254.240005,-10.5,-17.15,1729428360249.0,0.0
-4.546363,-9.537791,-8.001599,-95.059998,45.43,-33.950001,1729428360271.0,0.0
-7.71446,-5.735595,-1.612763,-0.77,93.730003,-38.5,1729428360292.0,0.0
-5.517848,-6.506085,1.048056,-86.309998,72.660004,-50.119999,1729428360311.0,0.0
-1.794617,-5.711668,3.029313,-187.600006,43.889999,-45.5,1729428360329.0,0.0
4.333402,-3.4672,1.79701,-256.619995,24.219999,-46.549999,1729428360351.0,0.0
7.683353,-14.837894,-0.660419,-199.430008,-13.09,-19.18,1729428360370.0,0.0
-0.914058,-14.840286,-2.809174,23.1,-18.83,-4.55,1729428360389.0,0.0
-1.48355,-4.613362,-1.600798,75.389999,-14.21,20.09,1729428360410.0,0.0
-3.354738,-9.145369,-0.244068,-31.85,-46.27,13.23,1729428360486.0,0.0
-3.352344,-7.721639,-2.481357,-30.73,-67.900002,15.12,1729428360492.0,0.0
-3.194418,-8.181061,-7.262216,29.610001,-79.099998,23.52,1729428360493.0,0.0
-6.453443,-9.789038,-5.60399,72.309998,-65.519997,38.290001,1729428360497.0,0.0
-6.142376,-7.307681,-5.393422,70.419998,-53.619999,34.860001,1729428360510.0,0.0
-5.740381,-7.252645,-6.685547,62.790001,-42.560001,24.360001,1729428360528.0,0.0
-6.06102,-6.448657,-2.828316,77.559998,-27.02,36.400002,1729428360548.0,0.0
-6.352944,-6.448657,-3.335595,36.119999,-27.16,28.98,1729428360571.0,0.0
-6.941578,-6.458229,-4.15394,-73.360001,-17.43,17.99,1729428360588.0,0.0
-5.929415,-7.556533,-5.02732,-218.399994,-23.52,-10.5,1729428360612.0,0.0
-5.297709,-6.056234,-5.831308,-308.0,-27.02,-31.290001,1729428360629.0,0.0
-5.546563,-4.366901,-6.776474,-343.769989,-26.950001,-35.560001,1729428360650.0,0.0
-4.996214,-4.713861,-7.941778,-334.25,-26.6,-29.610001,1729428360670.0,0.0
-4.436293,-4.957928,-9.073583,-276.570007,-17.360001,-19.809999,1729428360690.0,0.0
-4.182654,-4.508078,-9.77468,-205.869995,-0.28,-12.46,1729428360709.0,0.0
-4.56072,-4.520042,-10.030712,-147.139999,14.63,-2.17,1729428360730.0,0.0
-4.859823,-4.76411,-9.243474,-104.019997,28.139999,5.74,1729428360749.0,0.0
-4.472186,-4.986642,-9.064013,-79.309998,30.1,7.14,1729428360769.0,0.0
-4.185047,-4.869394,-8.456236,-45.5,31.15,7.49,1729428360789.0,0.0
-4.084548,-4.838287,-8.571091,-2.94,34.09,10.43,1729428360809.0,0.0
-4.240082,-4.400401,-7.633104,3.85,38.009998,10.85,1729428360828.0,0.0
-4.666004,-3.565305,-7.365108,-4.97,35.209999,12.39,1729428360850.0,0.0
-4.283153,-5.091926,-8.327023,-19.809999,32.759998,14.0,1729428360876.0,0.0
-4.350152,-5.56092,-7.63789,11.97,30.17,15.82,1729428360888.0,0.0
-4.359723,-3.675375,-6.460621,39.060001,27.719999,11.06,1729428360910.0,0.0
-4.73061,-4.199404,-6.285945,28.35,20.860001,12.46,1729428360930.0,0.0
-4.185047,-5.082355,-6.869793,-4.76,16.379999,7.63,1729428360949.0,0.0
-4.079762,-4.881358,-6.898508,-19.6,17.639999,5.11,1729428360971.0,0.0
-3.818945,-4.35733,-6.927221,-7.28,18.969999,1.4,1729428360990.0,0.0
-3.321238,-4.022335,-8.070991,7.77,19.74,-0.91,1729428361010.0,0.0
-2.938386,-2.993421,-8.042276,18.48,21.210001,4.48,1729428361030.0,0.0
-3.24706,-3.194418,-8.061419,11.69,18.200001,14.91,1729428361049.0,0.0
-4.56072,-3.629912,-8.214561,-6.02,13.02,20.16,1729428361073.0,0.0
-5.816952,-4.027121,-9.131011,-4.13,2.03,21.139999,1729428361089.0,0.0
-6.826723,-4.185047,-9.597611,23.66,-10.43,18.27,1729428361110.0,0.0
-7.121039,-4.376472,-9.468399,8.96,-17.639999,13.58,1729428361129.0,0.0
-6.161518,-4.520042,-8.855836,-15.82,-16.940001,8.54,1729428361151.0,0.0
-5.383851,-4.548756,-7.76471,-9.1,-8.33,3.22,1729428361172.0,0.0
-5.146961,-4.031906,-7.401,12.81,-0.35,-1.4,1729428361190.0,0.0
-4.407579,-3.955336,-6.972685,10.01,-0.07,-3.71,1729428361212.0,0.0
-3.342773,-4.338188,-7.173682,-13.93,-7.21,-2.66,1729428361231.0,0.0
-2.684747,-3.814159,-7.989635,-24.780001,-5.74,-5.53,1729428361251.0,0.0
-2.883351,-3.206382,-7.999206,-37.66,-1.4,-5.81,1729428361272.0,0.0
-3.285345,-3.598805,-8.197811,-36.959999,-2.73,2.17,1729428361290.0,0.0
-3.795017,-4.082155,-8.635696,-31.5,-0.49,4.41,1729428361312.0,0.0
-3.651447,-3.754339,-8.489735,-24.57,-0.21,3.64,1729428361330.0,0.0
-4.113262,-2.876173,-8.145168,-28.210001,0.63,6.02,1729428361352.0,0.0
-4.319045,-3.689733,-8.346166,-42.98,0.91,10.64,1729428361372.0,0.0
-3.445665,-3.885944,-8.932407,-43.259998,-3.36,7.28,1729428361391.0,0.0
-3.579663,-3.665804,-8.848659,-15.33,-2.03,8.12,1729428361413.0,0.0
-3.881158,-3.086741,-8.614161,7.7,-2.73,8.19,1729428361431.0,0.0
-4.393222,-3.661019,-7.415358,33.32,-8.26,14.42,1729428361452.0,0.0
-4.529613,-2.605784,-6.312266,65.800003,-11.34,20.02,1729428361472.0,0.0
-4.979464,-2.622534,-5.704489,71.470001,-17.15,24.92,1729428361491.0,0.0
-5.503492,-4.639683,-7.255038,32.48,-24.639999,18.27,1729428361513.0,0.0
-4.618148,-7.779066,-10.784451,2.94,-19.950001,-6.79,1729428361531.0,0.0
-4.091727,-6.613762,-10.415956,29.889999,-8.19,-19.389999,1729428361553.0,0.0
-4.409972,-4.431508,-9.238688,77.489998,9.17,-21.91,1729428361572.0,0.0
-4.895715,-4.012764,-8.501699,104.160004,19.110001,-14.63,1729428361596.0,0.0
-5.111069,-4.529613,-8.123632,134.399994,15.12,-5.25,1729428361614.0,0.0
-3.57727,-6.695118,-10.403993,218.820007,21.91,5.74,1729428361632.0,0.0
-4.476971,-8.784052,-8.91805,276.570007,30.450001,-0.35,1729428361651.0,0.0
-6.812366,-3.038885,-8.487342,295.049988,37.869999,-10.43,1729428361675.0,0.0
-3.766303,-6.139983,-6.76451,328.929993,36.470001,29.540001,1729428361691.0,0.0
-3.476771,-6.565905,-6.183054,324.450012,45.5,-6.72,1729428361713.0,0.0
-4.086941,-11.586047,-4.381258,308.350006,28.84,0.7,1729428361733.0,0.0
-5.580062,-6.932007,3.517449,283.98999,43.330002,11.83,1729428361751.0,0.0
0.153141,-4.878965,-9.169296,137.970001,-43.540001,-2.24,1729428361784.0,0.0
-13.203594,-23.743979,11.148161,204.330002,23.1,24.43,1729428361791.0,0.0
-5.000999,-11.743973,0.614955,229.669998,-57.540001,-21.700001,1729428361813.0,0.0
-8.248059,-5.168497,5.094319,249.270004,44.52,-17.99,1729428361831.0,0.0
-5.20439,-8.606983,0.275175,15.82,-30.66,-8.47,1729428361850.0,0.0
-3.237489,-13.198811,-3.893122,-24.43,-44.52,-33.040001,1729428361873.0,0.0
-6.223732,-12.969098,3.48395,84.629997,4.34,-17.08,1729428361892.0,0.0
-6.898508,-10.001998,-1.249053,171.289993,-45.290001,-23.379999,1729428361911.0,0.0
-3.156133,-3.299703,2.974278,188.860001,42.490002,-22.68,1729428361930.0,0.0
-7.657032,-6.74776,-9.863215,-31.92,-10.57,12.18,1729428361952.0,0.0
-9.226725,-19.16651,-1.842474,-146.440002,-22.960001,-34.580002,1729428361974.0,0.0
-6.259624,-7.092326,0.248854,-52.920002,48.720001,-30.799999,1729428361991.0,0.0
-7.9681,-6.876972,-0.385244,-108.779999,44.310001,-47.740002,1729428362015.0,0.0
-4.646862,-8.152347,-1.351945,-217.490005,37.66,-63.98,1729428362030.0,0.0
-0.514457,-6.209375,4.027121,-216.649994,66.849998,-50.189999,1729428362051.0,0.0
1.490728,-9.542577,6.460621,-288.329987,16.379999,-45.57,1729428362072.0,0.0
3.510271,-6.635297,3.318845,-287.350006,-16.870001,-43.68,1729428362090.0,0.0
0.354138,-6.441479,-1.442872,-288.119995,-38.360001,-39.27,1729428362110.0,0.0
0.964308,-12.088539,-6.84108,-217.0,-59.080002,-37.310001,1729428362130.0,0.0
-2.699104,-5.513064,-4.539185,-128.449997,-18.549999,-2.1,1729428362152.0,0.0
-4.646862,-9.466006,-4.350152,-176.960007,-35.700001,0.56,1729428362171.0,0.0
-2.720639,-5.063213,-1.502693,-159.039993,-46.41,-7.0,1729428362192.0,0.0
-3.613162,-2.342573,-2.062613,-155.820007,-55.23,6.72,1729428362210.0,0.0
-3.938586,-4.012764,-4.208975,-205.940002,-84.279999,5.11,1729428362230.0,0.0
-3.828516,-5.436492,-7.625926,-221.759995,-92.75,5.39,1729428362251.0,0.0
-4.285545,-2.991028,-9.683753,-279.649994,-98.559998,-3.92,1729428362274.0,0.0
-4.127619,-3.598805,-12.708281,-260.890015,-98.980003,4.27,1729428362292.0,0.0
-3.414558,-5.218746,-9.209974,-158.339996,-79.239998,6.16,1729428362311.0,0.0
-2.122434,-2.751746,-7.989635,-109.830002,-81.269997,6.23,1729428362330.0,0.0
-4.266403,-4.558327,-10.559525,-89.739998,-81.900002,12.81,1729428362350.0,0.0
-5.158926,-4.189832,-11.806188,-96.32,-71.82,-1.4,1729428362374.0,0.0
-4.517649,-3.61077,-10.392029,-37.939999,-52.290001,6.09,1729428362390.0,0.0
-5.663811,-5.438886,-8.379664,-1.19,-42.139999,4.62,1729428362410.0,0.0
-8.219346,-3.766303,-5.802595,39.619999,-49.700001,-2.66,1729428362432.0,0.0
-8.595018,-1.586441,-11.64826,115.43,-41.509998,14.21,1729428362452.0,0.0
-8.047063,-4.491328,-9.243474,123.620003,-33.670002,35.77,1729428362473.0,0.0
-7.601997,-7.030113,-9.480364,107.449997,-15.12,31.92,1729428362491.0,0.0
-7.800602,-5.673382,-10.207782,101.709999,0.35,8.05,1729428362512.0,0.0
-6.862615,-4.122833,-13.639089,53.060001,21.700001,-23.52,1729428362530.0,0.0
-5.919843,-5.24746,-12.801601,93.870003,42.77,-36.75,1729428362551.0,0.0
-5.532206,0.440279,-8.044669,226.729996,70.629997,-44.170002,1729428362571.0,0.0
-5.024928,0.784846,9.518648,220.5,75.25,-25.9,1729428362591.0,0.0
-8.279166,1.765903,-1.184447,16.309999,32.970001,-8.26,1729428362613.0,0.0
-6.343372,-3.383451,-8.975478,-181.369995,12.81,-18.76,1729428362631.0,0.0
-5.06082,-7.293324,-16.876577,-171.710007,29.469999,-13.58,1729428362652.0,0.0
-2.139183,-22.1695,-20.977875,35.209999,75.110001,-27.02,1729428362674.0,0.0
-1.39023,0.179462,18.051453,412.230011,110.040001,-14.42,1729428362690.0,0.0
-8.207381,-0.334995,4.237689,504.420013,78.959999,76.860001,1729428362710.0,0.0
-4.522435,-7.661818,-9.229117,-157.009995,-16.940001,-46.900002,1729428362731.0,0.0
-6.381658,-5.946165,-6.321837,-259.420013,14.28,10.99,1729428362752.0,0.0
-5.149354,-5.546563,-5.771489,-260.470001,1.96,-25.27,1729428362771.0,0.0
-2.464607,-4.979464,-7.458428,-185.779999,-19.6,-37.099998,1729428362791.0,0.0
-3.95055,-4.125226,-4.991428,-95.620003,-20.440001,-9.17,1729428362813.0,0.0
-5.173282,-3.907479,-5.383851,-118.860001,-32.34,2.73,1729428362831.0,0.0
-5.221139,-3.895515,-6.233303,-160.580002,-45.150002,16.870001,1729428362850.0,0.0
-5.647062,-7.913064,-8.032705,-149.589996,-51.310001,21.84,1729428362872.0,0.0
-3.87398,-5.04407,-11.373087,-118.720001,-43.959999,-1.4,1729428362891.0,0.0
-4.503292,-3.144169,-7.903493,-54.599998,-24.639999,13.16,1729428362918.0,0.0
-5.199604,-1.524228,-7.192825,-95.410004,-25.41,14.28,1729428362931.0,0.0
-4.333402,-4.74736,-11.100305,-138.460007,-28.77,18.34,1729428362953.0,0.0
-3.629912,-5.730811,-10.191031,-80.290001,-28.210001,-0.56,1729428362972.0,0.0
-5.352744,-0.835095,-7.793423,1.68,-20.440001,-5.81,1729428362991.0,0.0
-6.041877,-2.266003,-6.850651,-13.02,-20.790001,8.96,1729428363011.0,0.0
-5.556134,-4.110869,-7.9346,-9.45,-26.32,4.27,1729428363031.0,0.0
-6.281159,-1.289732,-8.786445,76.510002,-23.030001,-3.57,1729428363050.0,0.0
-6.513263,-1.689333,-9.568897,63.279999,-7.0,-4.06,1729428363073.0,0.0
-6.702296,-2.981457,-10.937593,57.75,14.7,-2.17,1729428363092.0,0.0
-6.575477,-4.383651,-14.00519,93.940002,45.57,-6.51,1729428363111.0,0.0
-6.783652,-4.041477,-12.141183,218.960007,78.540001,-10.29,1729428363131.0,0.0
-7.501499,-3.268596,-7.156933,411.670013,82.739998,1.61,1729428363152.0,0.0
-8.425128,-0.196211,-6.302694,478.450012,81.340004,11.62,1729428363172.0,0.0
-8.614161,-2.682354,-6.534799,367.149994,90.370003,2.87,1729428363191.0,0.0
-8.12124,-4.110869,-3.680161,133.699997,97.650002,-14.21,1729428363214.0,0.0
-4.773681,-6.929615,-2.667997,4.48,72.519997,-19.110001,1729428363230.0,0.0
-2.912065,-8.25763,-5.166104,-12.39,60.549999,-13.72,1729428363251.0,0.0
-0.035892,-11.954542,-4.73061,46.41,56.77,-24.08,1729428363275.0,0.0
-0.51685,-3.692125,5.802595,205.240005,62.09,25.690001,1729428363291.0,0.0
-2.991028,-6.431907,4.070191,148.610001,26.460001,26.389999,1729428363313.0,0.0
-0.507278,-11.856436,-0.942772,9.66,-25.76,20.09,1729428363332.0,0.0
-0.346959,-10.403993,0.023928,9.38,-45.990002,44.450001,1729428363351.0,0.0
-2.830709,-8.427521,-2.500499,-13.37,-62.720001,49.420002,1729428363375.0,0.0
-6.608976,-9.025726,-2.323431,-23.73,-75.809998,59.010002,1729428363393.0,0.0
-8.317451,-10.545169,-13.842479,-34.02,-89.669998,32.130001,1729428363414.0,0.0
-11.12184,-8.451449,-15.610775,47.810001,-41.93,19.67,1729428363432.0,0.0
-15.110674,-8.38445,-16.438692,65.029999,36.189999,-5.88,1729428363453.0,0.0
-6.738188,-2.498107,-0.057428,53.549999,69.440002,-29.68,1729428363474.0,0.0
-8.504091,-5.235496,-9.032906,-102.830002,58.450001,-40.040001,1729428363494.0,0.0
-9.006584,-7.259824,-11.064411,-167.020004,69.510002,-68.599998,1729428363513.0,0.0
-7.582855,-7.130611,-5.532206,-97.300003,113.610001,-53.41,1729428363532.0,0.0
-3.732803,-7.204789,-5.166104,-85.75,118.300003,-54.810001,1729428363552.0,0.0
-1.215554,-7.094719,-4.529613,-116.760002,109.059998,-60.830002,1729428363575.0,0.0
0.040678,-9.131011,-2.349752,-214.690002,86.590004,-74.760002,1729428363594.0,0.0
0.167498,-9.623933,-3.756732,-224.979996,61.459999,-83.860001,1729428363616.0,0.0
1.67019,-3.445665,-5.02732,-218.680008,36.400002,-76.300003,1729428363636.0,0.0
2.608176,-1.962115,-6.795617,-259.070007,15.68,-58.66,1729428363652.0,0.0
-0.847059,-4.21376,-6.144768,-213.850006,5.67,-19.040001,1729428363674.0,0.0
-2.469393,-3.452843,-6.396015,-179.270004,1.47,-15.54,1729428363694.0,0.0
-1.883151,-5.673382,-8.147561,-180.529999,-15.12,-8.61,1729428363713.0,0.0
-1.789831,-3.259024,-8.169096,-142.100006,-32.200001,-8.75,1729428363732.0,0.0
-1.952543,-2.474179,-9.623933,-87.57,-39.060001,-9.24,1729428363754.0,0.0
-2.754139,-3.290131,-10.482956,-56.91,-38.849998,0.42,1729428363774.0,0.0
-3.105884,-3.634698,-12.390036,-1.54,-28.35,3.08,1729428363793.0,0.0
-2.505285,-4.175476,-13.261024,58.799999,-19.74,-5.88,1729428363813.0,0.0
-4.421937,-3.103491,-11.102697,119.279999,0.98,-10.5,1729428363833.0,0.0
-3.869194,-4.311867,-12.756138,190.610001,14.63,5.53,1729428363852.0,0.0
-4.074977,1.4668,-10.604989,225.610001,39.34,10.22,1729428363874.0,0.0
-3.416951,-0.899701,-11.279767,236.040009,47.740002,41.369999,1729428363892.0,0.0
-1.832902,-7.140182,-9.662218,271.179993,49.0,42.279999,1729428363913.0,0.0
-4.639683,-6.821937,1.926222,320.950012,63.77,20.860001,1729428363933.0,0.0
1.995614,-3.103491,0.581456,433.860016,24.01,25.9,1729428363952.0,0.0
-0.351745,-8.659625,0.411566,223.300003,9.59,35.420002,1729428363973.0,0.0
-5.99402,-4.338188,-4.359723,41.23,49.139999,-45.220001,1729428363993.0,0.0
-1.868794,-16.369299,-7.305287,63.98,-24.43,25.34,1729428364013.0,0.0
-3.460021,-7.51107,-1.921437,195.160004,50.400002,20.370001,1729428364032.0,0.0
-7.652246,-8.717053,-3.457629,43.959999,9.1,-9.87,1729428364053.0,0.0
2.641676,-6.278766,-6.374479,115.220001,-17.01,-11.34,1729428364074.0,0.0
-6.336195,-10.346564,-4.398008,137.270004,49.0,-18.549999,1729428364093.0,0.0
-4.800002,-10.080962,0.256032,29.33,14.98,-19.32,1729428364113.0,0.0
-4.409972,-12.784851,-7.465607,-32.759998,11.55,-30.17,1729428364131.0,0.0
-3.579663,-5.563312,-8.099705,35.07,21.139999,-24.01,1729428364152.0,0.0
-3.842873,-5.742774,-2.701497,65.029999,77.980003,-15.96,1729428364177.0,0.0
-1.990828,-10.157533,-3.790231,-65.379997,42.630001,-27.16,1729428364192.0,0.0
2.019542,-8.958728,-2.151148,-52.57,49.209999,-15.4,1729428364213.0,0.0
3.488736,-7.183254,2.098505,-32.48,40.040001,-5.11,1729428364233.0,0.0
3.019742,-9.882358,1.658226,-57.610001,13.58,5.67,1729428364253.0,0.0
1.01695,-12.79203,-1.37348,-56.560001,-35.84,-13.3,1729428364275.0,0.0
-1.37348,-8.79123,-2.160719,-32.27,-30.52,6.23,1729428364292.0,0.0
-2.411965,-8.963513,-4.342973,-19.809999,-54.810001,5.11,1729428364313.0,0.0
-2.581856,-7.458428,-4.532006,-3.71,-51.450001,6.23,1729428364332.0,0.0
-1.933401,-9.138189,-6.228518,-34.509998,-50.259998,6.16,1729428364352.0,0.0
-1.751546,-9.485149,-6.922436,-23.799999,-44.029999,5.95,1729428364373.0,0.0
-1.701297,-7.972885,-5.235496,34.16,-35.0,14.35,1729428364392.0,0.0
-2.251646,-7.197611,-5.132604,69.230003,-29.4,21.700001,1729428364414.0,0.0
-3.06042,-6.927221,-4.797609,72.800003,-29.4,28.42,1729428364432.0,0.0
-2.943172,-7.381857,-3.538985,52.290001,-37.799999,32.619999,1729428364453.0,0.0
-3.787838,-7.556533,-4.197011,34.509998,-41.790001,35.490002,1729428364473.0,0.0
-4.096512,-8.070991,-5.307281,21.35,-40.32,34.299999,1729428364492.0,0.0
-4.4339,-7.984849,-6.254838,32.970001,-33.529999,36.82,1729428364513.0,0.0
-5.816952,-8.367701,-6.752545,37.939999,-22.190001,37.450001,1729428364533.0,0.0
-7.800602,-10.779665,-9.674182,-15.12,-4.9,16.24,1729428364552.0,0.0
-6.032306,-7.82453,-8.992228,-81.970001,14.0,-8.26,1729428364573.0,0.0
-4.575077,-6.996613,-6.74776,-69.650002,28.42,-14.98,1729428364592.0,0.0
-6.647261,-7.408179,-7.479963,-50.119999,53.970001,-10.5,1729428364615.0,0.0
-6.56112,-8.767302,-4.015156,-73.989998,74.059998,-12.6,1729428364631.0,0.0
-4.072584,-6.168696,-6.798009,-143.639999,92.330002,-29.26,1729428364652.0,0.0
-2.471786,-7.405786,-6.63769,-154.350006,94.360001,-26.530001,1729428364673.0,0.0
-1.20359,-6.812366,-1.619941,-129.009995,95.550003,-16.799999,1729428364692.0,0.0
0.504886,-8.451449,-4.113262,-119.0,63.420002,-16.450001,1729428364713.0,0.0
-0.038285,-9.645468,-6.240481,-53.619999,51.450001,-11.76,1729428364732.0,0.0
-0.861416,-9.647861,-5.960521,-24.710001,54.18,-15.75,1729428364752.0,0.0
0.122034,-8.913264,-4.852644,-46.619999,44.310001,-23.24,1729428364774.0,0.0
1.31366,-7.278966,-4.256832,-69.090004,26.67,-26.25,1729428364792.0,0.0
0.519243,-8.786445,-5.723632,-88.269997,7.28,-30.450001,1729428364812.0,0.0
0.277567,-6.276374,-4.981857,-48.299999,7.28,-25.969999,1729428364832.0,0.0
-1.61037,-8.126025,-6.56112,-12.25,-6.02,-19.74,1729428364851.0,0.0
-1.361516,-7.228717,-6.233303,-1.47,-10.5,-26.6,1729428364875.0,0.0
-0.248854,-7.101898,-5.644669,-2.24,-17.5,-24.639999,1729428364892.0,0.0
0.959522,-5.608776,-6.946364,-55.09,-24.57,-27.58,1729428364913.0,0.0
0.622134,-6.812366,-7.341179,-81.760002,-28.35,-25.27,1729428364931.0,0.0
-1.179662,-7.575676,-6.898508,-53.48,-26.25,-20.299999,1729428364959.0,0.0
1.385444,-3.335595,-3.749553,-2.73,-40.110001,-10.92,1729428364974.0,0.0
0.222532,-5.321638,-5.134997,-54.599998,-61.110001,-4.97,1729428364993.0,0.0
-1.57687,-8.394022,-7.228717,-115.989998,-76.090004,-12.25,1729428365013.0,0.0
-2.074577,-6.12084,-9.387043,-63.07,-75.739998,-14.77,1729428365032.0,0.0
-3.120241,-3.907479,-10.222138,32.689999,-67.269997,-4.69,1729428365053.0,0.0
-4.208975,-4.510471,-9.533006,115.360001,-61.880001,17.99,1729428365075.0,0.0
-5.71406,-6.558727,-9.772287,104.160004,-49.630001,22.049999,1729428365093.0,0.0
-8.025528,-10.638489,-15.809379,-0.28,-17.85,0.77,1729428365112.0,0.0
-7.070791,-5.711668,-12.100503,-11.55,27.02,-4.97,1729428365133.0,0.0
-1.507478,-4.740182,-8.855836,80.57,44.73,-1.12,1729428365152.0,0.0
-3.601198,-5.876772,-7.537392,141.399994,58.029999,4.13,1729428365185.0,0.0
-4.783253,-5.924629,-6.26441,60.48,64.050003,-7.7,1729428365193.0,0.0
-1.619941,-5.828916,-7.910671,-49.0,53.689999,-25.690001,1729428365213.0,0.0
-0.914058,-4.756931,-7.848458,-65.029999,55.02,-18.41,1729428365233.0,0.0
-1.306481,-5.493921,-9.123833,-55.23,56.0,-5.88,1729428365254.0,0.0
-1.641476,-4.969893,-7.24786,-75.599998,58.73,-4.41,1729428365275.0,0.0
-1.067199,-7.013363,-4.175476,-63.490002,47.459999,1.12,1729428365293.0,0.0
0.411566,-7.57089,-3.139383,-21.49,26.74,0.35,1729428365313.0,0.0
2.428715,-6.508478,-3.735196,19.74,1.61,2.66,1729428365333.0,0.0
0.562313,-7.515855,-5.613562,37.310001,-12.6,8.26,1729428365352.0,0.0
-0.734596,-7.850852,-5.970093,-10.99,-18.27,3.15,1729428365374.0,0.0
0.354138,-7.767102,-6.67119,-31.219999,-25.549999,2.94,1729428365393.0,0.0
1.275374,-6.494121,-4.838287,25.620001,-37.52,9.66,1729428365471.0,0.0
0.385244,-5.173282,-5.158926,139.300003,-51.66,36.119999,1729428365478.0,0.0
-3.09392,-7.724032,-6.254838,107.309998,-52.779999,35.0,1729428365479.0,0.0
-4.733003,-10.916058,-8.149954,18.41,-59.639999,9.87,1729428365482.0,0.0
-5.307281,-7.700103,-14.512468,20.65,-43.189999,-5.67,1729428365504.0,0.0
-3.371487,-1.124627,-11.028521,-2.59,-13.440001,-3.36,1729428365515.0,0.0
-0.303888,-8.848659,-10.224532,76.650002,-3.5,38.290001,1729428365544.0,0.0
-3.201597,-5.146961,-5.079963,131.320007,21.280001,33.32,1729428365555.0,0.0
-3.318845,-4.515256,-4.991428,91.840004,7.98,38.5,1729428365575.0,0.0
-3.426522,-6.675975,-7.965706,7.49,-3.78,19.879999,1729428365594.0,0.0
-3.031706,-8.324631,-8.420342,6.37,-2.8,17.710001,1729428365617.0,0.0
-3.235096,-7.618747,-7.046863,29.26,2.52,14.0,1729428365635.0,0.0
-3.337988,-7.393822,-5.996413,33.740002,1.54,6.86,1729428365654.0,0.0
-3.182454,-7.487142,-5.711668,34.580002,0.63,5.04,1729428365680.0,0.0
-3.134598,-7.831708,-5.187639,38.849998,1.19,8.05,1729428365694.0,0.0
-3.407379,-7.645068,-4.814359,30.66,0.7,8.68,1729428365713.0,0.0
-3.172883,-8.236095,-5.20439,20.93,-4.13,9.31,1729428365734.0,0.0
-3.378666,-8.49452,-4.934,46.41,-1.68,13.51,1729428365753.0,0.0
-3.56052,-8.228917,-3.964907,64.610001,0.84,16.379999,1729428365775.0,0.0
-3.605984,-8.195417,-5.338387,58.59,3.22,13.3,1729428365794.0,0.0
-2.507678,-8.171489,-6.041877,26.950001,0.35,12.25,1729428365814.0,0.0
-2.926422,-8.41795,-6.369694,6.72,-1.19,9.1,1729428365834.0,0.0
-2.072184,-9.145369,-6.429514,16.309999,-9.38,5.81,1729428365854.0,0.0
-2.510071,-8.16431,-5.156533,58.310001,-2.1,7.49,1729428365875.0,0.0
-1.564906,-5.692525,-3.366701,62.93,-5.11,12.04,1729428365894.0,0.0
-1.469193,-8.066205,-2.67039,140.419998,-31.08,27.790001,1729428365914.0,0.0
-6.254838,-8.798409,-0.445065,197.539993,-12.46,42.98,1729428365934.0,0.0
-6.412765,-8.953942,-5.297709,25.690001,-27.93,17.710001,1729428365953.0,0.0
-7.826923,-11.286944,-11.57169,-186.479996,-29.33,-23.379999,1729428365976.0,0.0
-4.242475,-12.545568,-11.717653,-195.020004,-16.450001,-37.66,1729428365994.0,0.0
-5.283352,-7.087541,-3.802195,-91.559998,36.959999,-36.189999,1729428366017.0,0.0
-7.013363,-7.484749,-6.649654,-110.18,60.27,-56.98,1729428366033.0,0.0
-4.73061,-8.599805,-8.52802,-166.740005,71.889999,-69.790001,1729428366059.0,0.0
-4.376472,-8.865408,-9.729217,-156.940002,95.900002,-69.230003,1729428366078.0,0.0
-0.79681,-6.305088,-6.994221,-126.629997,112.209999,-69.860001,1729428366099.0,0.0
0.344566,-6.656832,-1.749153,-88.410004,96.879997,-57.68,1729428366182.0,0.0
1.366302,-3.866802,-2.629712,-96.110001,71.120003,-72.099998,1729428366259.0,0.0
1.543371,-7.192825,-0.760918,-134.75,37.59,-68.25,1729428366260.0,0.0
2.096112,-6.254838,-1.868794,-120.610001,5.74,-72.379997,1729428366260.0,0.0
2.612962,-3.902694,-2.943172,-133.350006,-22.75,-70.349998,1729428366263.0,0.0
1.107877,-3.864408,-6.69751,-226.869995,-49.630001,-73.43,1729428366264.0,0.0
-0.90688,-2.56032,-4.919643,-257.600006,-60.549999,-72.660004,1729428366365.0,0.0
1.68694,-1.055235,-9.329616,-237.300003,-70.0,-59.639999,1729428366367.0,0.0
1.179662,-5.496314,-14.194223,-255.430008,-68.809998,-48.790001,1729428366367.0,0.0
-0.524028,-0.727418,-11.047661,-158.830002,-52.360001,-39.759998,1729428366370.0,0.0
-1.710868,-0.272782,-10.195816,-55.860001,-44.450001,-19.950001,1729428366370.0,0.0
-2.380858,-3.287738,-9.824929,-87.779999,-46.060001,-16.52,1729428366375.0,0.0
-2.792424,-5.000999,-12.856635,-99.959999,-40.670002,-29.049999,1729428366376.0,0.0
-2.462214,-1.643869,-10.939985,-14.49,-27.51,-30.24,1729428366377.0,0.0
-1.37348,-2.842674,-11.387443,71.75,-28.49,-10.5,1729428366392.0,0.0
-3.017349,-2.471786,-15.426528,174.789993,-9.38,8.68,1729428366413.0,0.0
-5.589634,2.311467,-11.63869,266.0,25.83,35.77,1729428366432.0,0.0
-2.694318,-1.978864,-8.11167,270.690002,28.210001,68.18,1729428366453.0,0.0
-0.729811,-4.998606,-9.506684,196.839996,22.82,42.560001,1729428366474.0,0.0
-0.902094,-5.941379,-11.140982,189.630005,8.4,42.209999,1729428366494.0,0.0
-3.414558,-1.591227,-11.042876,220.919998,34.23,30.450001,1729428366512.0,0.0
-2.959922,-4.596612,-9.475577,119.629997,43.330002,34.299999,1729428366531.0,0.0
-1.06002,-7.45125,-8.252845,71.75,27.719999,1.89,1729428366552.0,0.0
-1.519442,-5.948557,-4.740182,143.360001,39.689999,-2.87,1729428366574.0,0.0
3.503092,-17.800207,-14.062619,235.270004,-92.959999,-7.91,1729428366593.0,0.0
4.079762,-22.648066,2.258825,695.659973,51.450001,62.790001,1729428366616.0,0.0
-19.613966,0.928415,5.065606,193.619995,155.470001,49.630001,1729428366632.0,0.0
2.486143,-9.664611,-11.217552,-150.430008,-91.209999,-67.410004,1729428366653.0,0.0
2.921637,-9.999605,-7.843673,-14.84,-53.619999,21.629999,1729428366673.0,0.0
-8.863015,-5.474778,-1.37348,115.360001,23.940001,-5.32,1729428366694.0,0.0
2.720639,-7.166504,-4.010371,51.380001,-37.310001,-13.72,1729428366713.0,0.0
-5.611169,-9.856036,-7.51107,-2.73,-20.58,-10.36,1729428366733.0,0.0
0.514457,-7.795816,-8.99462,181.649994,-21.139999,-7.07,1729428366752.0,0.0
-4.34058,-14.955141,16.587046,386.190002,76.510002,81.970001,1729428366774.0,0.0
-7.113862,-4.871787,-1.713261,-135.940002,-36.959999,-3.85,1729428366794.0,0.0
-1.275374,-15.890735,-11.734402,-319.339996,-81.480003,-6.58,1729428366815.0,0.0
-3.704089,-14.684752,-6.075377,-22.82,-22.469999,-4.97,1729428366834.0,0.0
-3.641876,-5.723632,-0.437887,93.099998,15.26,-16.799999,1729428366854.0,0.0
-6.163911,-1.875973,-8.970692,-13.23,-31.99,-26.950001,1729428366878.0,0.0
-3.900301,0.842274,-7.946564,47.529999,-29.960001,-50.82,1729428366894.0,0.0
-3.275774,-12.428321,-1.68694,30.52,54.670002,3.5,1729428366913.0,0.0
-2.59382,-9.801002,-5.295317,-124.459999,42.139999,-8.12,1729428366933.0,0.0
-2.474179,-7.436893,-4.261617,-126.770004,62.369999,-9.8,1729428366952.0,0.0
-0.20339,-8.891729,-3.158526,-122.709999,55.369999,-20.93,1729428366973.0,0.0
1.976472,-3.964907,3.862016,-79.239998,53.689999,-8.89,1729428367000.0,0.0
3.163311,-10.382458,7.432107,-112.980003,2.45,11.13,1729428367014.0,0.0
-0.409173,-14.328221,-3.548556,-127.120003,-30.799999,-8.12,1729428367032.0,0.0
-1.239482,-11.126624,-1.555335,-89.389999,-21.49,-21.210001,1729428367054.0,0.0
3.555735,-5.4676,-3.57727,-54.810001,-34.23,-3.57,1729428367073.0,0.0
-2.270789,-5.546563,-1.495514,-52.5,-51.73,12.81,1729428367093.0,0.0
-3.371487,-6.003592,-3.816552,-95.550003,-78.330002,14.7,1729428367114.0,0.0
-5.565705,-7.719246,-10.033106,-104.300003,-78.260002,7.84,1729428367134.0,0.0
-4.254438,-7.178468,-11.595619,-54.670002,-59.080002,4.13,1729428367154.0,0.0
-1.718047,-6.338587,-9.425328,-8.05,-41.720001,21.139999,1729428367174.0,0.0
-3.433701,-6.817152,-7.630712,28.49,-29.190001,29.610001,1729428367194.0,0.0
-2.244468,-5.996413,-6.52762,22.120001,-29.610001,26.040001,1729428367215.0,0.0
-2.182254,-6.664011,-6.56112,27.58,-34.23,27.09,1729428367234.0,0.0
-3.4672,-7.712067,-5.991628,55.02,-42.209999,28.630001,1729428367253.0,0.0
-4.012764,-7.427321,-5.668597,91.910004,-43.610001,33.18,1729428367274.0,0.0
-4.567898,-8.197811,-8.398808,84.139999,-36.75,30.870001,1729428367295.0,0.0
-5.759524,-8.183454,-9.040084,61.529999,-17.5,21.700001,1729428367314.0,0.0
-6.915257,-8.003991,-8.645268,12.53,-1.12,5.74,1729428367333.0,0.0
-6.549156,-9.109475,-8.348558,-49.630001,10.15,-23.799999,1729428367358.0,0.0
-3.122634,-7.300502,-7.788638,-16.379999,20.370001,-24.219999,1729428367377.0,0.0
-5.029713,-6.537192,-6.537192,-1.4,45.150002,-25.76,1729428367394.0,0.0
-4.809574,-7.424929,-4.371687,-40.32,50.259998,-28.630001,1729428367415.0,0.0
-4.295116,-7.972885,-3.084348,-75.949997,40.459999,-34.860001,1729428367434.0,0.0
-3.395415,-6.927221,-3.029313,-92.120003,20.790001,-34.299999,1729428367454.0,0.0
-2.74696,-5.79063,-4.098906,-120.959999,11.76,-35.139999,1729428367476.0,0.0
-2.959922,-7.32443,-3.943372,-192.710007,6.09,-37.170002,1729428367494.0,0.0
-2.464607,-3.189633,-5.036892,-228.619995,-7.91,-31.360001,1729428367516.0,0.0
-1.988436,-1.485943,-6.489335,-267.049988,-29.120001,-26.74,1729428367537.0,0.0
-2.206182,-1.20359,-8.410772,-329.839996,-42.91,-23.379999,1729428367555.0,0.0
-1.701297,-2.043471,-10.358529,-345.23999,-48.23,-19.460001,1729428367577.0,0.0
-0.954736,-3.397808,-9.518648,-296.660004,-62.299999,-14.56,1729428367596.0,0.0
-1.371087,-2.447858,-8.288737,-123.760002,-62.860001,-3.64,1729428367621.0,0.0
-2.916851,-0.299103,-8.970692,-36.330002,-66.709999,-3.64,1729428367637.0,0.0
-3.680161,-2.787638,-10.973484,-101.709999,-69.019997,-0.56,1729428367656.0,0.0
-3.067599,-3.986443,-13.158132,-128.029999,-58.66,-14.56,1729428367680.0,0.0
-3.802195,-2.057827,-11.308479,-69.160004,-40.32,-20.299999,1729428367696.0,0.0
-3.76391,-2.18704,-10.128819,-40.950001,-29.190001,-16.309999,1729428367720.0,0.0
-3.493521,-2.900101,-8.537591,-20.860001,-26.950001,-14.0,1729428367737.0,0.0
-3.675375,-2.68714,-10.930414,28.91,-28.280001,-8.4,1729428367755.0,0.0
-3.962514,-2.462214,-12.899707,39.900002,-14.77,-18.41,1729428367777.0,0.0
-4.292724,-3.661019,-11.753544,74.059998,11.27,-15.82,1729428367795.0,0.0
-4.804788,-3.56052,-12.007183,195.649994,22.960001,-11.97,1729428367815.0,0.0
-4.61097,-1.79701,-12.870994,350.769989,54.25,5.67,1729428367835.0,0.0
-4.031906,-1.22034,-10.545169,447.580017,74.129997,22.610001,1729428367855.0,0.0
-5.422136,-0.820738,-7.264609,413.910004,79.519997,45.920002,1729428367876.0,0.0
-5.20439,-2.455036,-5.302495,280.070007,69.019997,31.15,1729428367895.0,0.0
-2.971886,-2.313859,-5.302495,166.949997,48.09,15.190001,1729428367915.0,0.0
-0.605384,-6.326623,-0.782453,151.759995,34.299999,26.460001,1729428367934.0,0.0
-6.025128,-4.922036,-7.116255,44.240002,43.470001,18.059999,1729428367956.0,0.0
-2.758924,-8.992228,-4.582255,-65.730003,10.01,-14.7,1729428367977.0,0.0
-3.536592,-6.788438,-6.630512,-21.559999,0.98,-8.19,1729428367995.0,0.0
-3.244668,-6.111269,-6.656832,-6.37,14.0,-7.7,1729428368016.0,0.0
-3.306881,-5.441278,-9.915856,-31.08,6.51,-6.16,1729428368034.0,0.0
-0.631705,-13.58884,-9.018548,141.820007,-18.34,37.59,1729428368056.0,0.0
-2.531606,-6.135197,-1.57687,282.869995,5.88,40.18,1729428368076.0,0.0
-5.773881,-5.943772,-2.261217,84.489998,-13.58,-6.02,1729428368095.0,0.0
-3.9673,-8.11167,-9.073583,-113.959999,-42.630001,-26.460001,1729428368118.0,0.0
-3.117848,-8.860621,-11.306087,-12.81,-23.59,-17.08,1729428368135.0,0.0
-6.192625,-7.183254,-7.054041,176.820007,41.09,14.28,1729428368154.0,0.0
-6.989435,-6.987042,-4.132405,98.769997,38.709999,-7.77,1729428368178.0,0.0
-5.663811,-4.503292,-3.852444,45.290001,21.07,-7.49,1729428368195.0,0.0
-4.505685,-7.180861,-8.200203,30.450001,30.450001,-22.120001,1729428368215.0,0.0
-5.912664,-7.195218,-6.58744,23.59,59.57,5.04,1729428368235.0,0.0
-5.120641,-7.24786,-6.690332,-20.719999,75.32,-4.41,1729428368257.0,0.0
-3.184847,-7.436893,-6.276374,-58.66,76.019997,-19.879999,1729428368275.0,0.0
-1.607977,-7.367501,-8.123632,-62.93,70.910004,-21.84,1729428368295.0,0.0
-1.215554,-7.23111,-5.417351,-31.15,81.970001,-13.93,1729428368315.0,0.0
-0.401994,-7.769495,-0.61017,-3.99,74.340004,-4.55,1729428368334.0,0.0
0.409173,-7.04447,1.878366,-6.3,45.920002,-1.68,1729428368355.0,0.0
1.849652,-8.133204,-1.146162,-21.280001,8.33,2.8,1729428368386.0,0.0
-3.211168,-8.930015,-3.189633,-33.740002,-5.88,4.69,1729428368394.0,0.0
-2.251646,-8.745767,-3.412165,-31.710001,-11.9,10.08,1729428368415.0,0.0
-2.127219,-8.618947,-5.659025,-35.07,-18.34,9.94,1729428368436.0,0.0
-0.401994,-8.891729,-5.503492,-13.37,-20.860001,16.52,1729428368454.0,0.0
-2.124826,-8.006385,-2.268396,2.8,-35.700001,15.26,1729428368477.0,0.0
-2.701497,-6.702296,-0.803988,11.69,-64.050003,11.69,1729428368495.0,0.0
-2.715853,-7.111469,-5.216353,-5.81,-87.709999,12.04,1729428368515.0,0.0
-4.283153,-7.02772,-8.003991,-44.029999,-84.419998,14.49,1729428368534.0,0.0
-5.460421,-8.82473,-6.51087,-52.849998,-83.580002,17.290001,1729428368555.0,0.0
-6.757331,-6.78126,-6.929615,16.379999,-69.860001,25.549999,1729428368577.0,0.0
-6.381658,-5.929415,-8.640482,35.700001,-55.439999,23.24,1729428368595.0,0.0
-6.719046,-6.563512,-9.801002,15.82,-34.650002,19.32,1729428368620.0,0.0
-8.080563,-6.678369,-12.05504,-14.14,-2.8,7.14,1729428368634.0,0.0
-6.376873,-5.898308,-8.831908,-30.24,23.379999,7.56,1729428368655.0,0.0
-4.319045,-5.321638,-6.498906,-24.639999,28.42,-6.09,1729428368678.0,0.0
-4.931608,-6.238089,-6.005985,-48.720001,30.59,-19.809999,1729428368695.0,0.0
-3.974478,-6.269196,-5.843273,-107.520004,24.639999,-33.25,1729428368715.0,0.0
-3.385844,-6.352944,-6.317052,-127.190002,24.57,-29.889999,1729428368735.0,0.0
-3.787838,-6.759724,-6.448657,-131.669998,25.34,-23.52,1729428368754.0,0.0
-3.426522,-7.551748,-8.001599,-119.910004,24.639999,-18.549999,1729428368775.0,0.0
-4.082155,-7.523034,-7.357929,-84.349998,30.52,-15.82,1729428368795.0,0.0
-2.840281,-6.156733,-8.365308,-22.190001,34.09,-7.77,1729428368816.0,0.0
-2.589034,-7.980063,-8.657232,29.33,47.040001,4.13,1729428368834.0,0.0
-2.469393,-7.786245,-9.499505,78.68,53.130001,7.84,1729428368855.0,0.0
-3.323631,-6.405586,-7.779066,107.730003,62.720001,11.83,1729428368875.0,0.0
-3.505485,-3.335595,-2.620141,77.980003,57.610001,12.18,1729428368896.0,0.0
-3.239882,-7.066005,-5.345565,-2.24,36.400002,-1.61,1729428368915.0,0.0
-2.26361,-8.238488,-7.664211,-28.280001,32.060001,-7.28,1729428368934.0,0.0
-1.351945,-6.02752,-8.611769,-6.86,34.16,-9.1,1729428368954.0,0.0
-0.648455,-4.962714,-7.848458,9.73,37.869999,-0.98,1729428368976.0,0.0
0.770489,-3.900301,-2.347359,11.41,33.529999,8.96,1729428368996.0,0.0
0.806381,-10.305886,-0.638884,20.440001,4.83,18.059999,1729428369015.0,0.0
-2.086541,-8.499306,-3.63709,-15.54,-21.84,-13.09,1729428369034.0,0.0
-1.399801,-8.200203,-8.834301,-55.860001,-42.490002,-21.139999,1729428369054.0,0.0
-1.899901,-6.446264,-8.889337,-47.18,-34.93,-18.549999,1729428369076.0,0.0
0.303888,-4.735396,-5.965307,34.23,-30.309999,2.45,1729428369095.0,0.0
-0.59342,-7.489535,-3.031706,156.520004,-43.889999,27.09,1729428369116.0,0.0
-4.220939,-6.905686,-2.804388,178.149994,-53.200001,23.030001,1729428369134.0,0.0
-5.972485,-9.485149,-6.927221,14.98,-68.110001,6.79,1729428369154.0,0.0
-5.469993,-7.707282,-10.880164,-101.43,-71.330002,-15.05,1729428369176.0,0.0
-6.599405,-6.139983,-12.229716,-31.360001,-39.900002,-8.26,1729428369195.0,0.0
-7.980063,-3.962514,-11.160125,6.02,0.35,-16.24,1729428369215.0,0.0
-3.567699,-3.462414,-7.204789,16.73,8.47,-14.14,1729428369234.0,0.0
-6.168696,-8.207381,-7.245467,-60.549999,19.950001,-40.389999,1729428369254.0,0.0
-4.625326,-5.804988,-8.343772,-152.740005,23.799999,-72.519997,1729428369276.0,0.0
-2.790031,-3.548556,-7.951349,-237.089996,24.01,-74.900002,1729428369294.0,0.0
-2.141576,-2.160719,-7.283752,-299.390015,23.870001,-63.84,1729428369314.0,0.0
-1.330409,-1.981257,-7.453642,-339.920013,17.639999,-40.950001,1729428369334.0,0.0
-0.557528,-4.012764,-7.51107,-348.600006,10.36,-22.610001,1729428369354.0,0.0
-0.095713,-5.237889,-7.520642,-238.419998,-3.15,-10.01,1729428369375.0,0.0
-0.229711,-2.952743,-6.800402,-108.360001,-20.299999,-14.56,1729428369394.0,0.0
-2.806781,-1.655833,-6.015556,-78.050003,-41.369999,-16.1,1729428369415.0,0.0
-2.792424,-1.581656,-10.131211,-153.160004,-60.060001,-17.99,1729428369434.0,0.0
-1.299303,-4.867002,-13.899906,-162.399994,-44.450001,-14.77,1729428369455.0,0.0
-0.837488,-4.383651,-12.605389,-9.03,-21.42,-8.89,1729428369476.0,0.0
-3.352344,-1.89033,-9.635897,119.840004,-3.36,0.63,1729428369494.0,0.0
-2.629712,-1.505085,-8.583055,106.889999,-4.83,2.38,1729428369515.0,0.0
-3.761517,-1.911865,-9.633504,106.260002,-8.12,4.9,1729428369534.0,0.0
-3.993621,-3.105884,-12.229716,149.520004,-4.13,15.4,1729428369554.0,0.0
-3.574877,-4.371687,-16.118053,295.75,11.55,30.73,1729428369576.0,0.0
-4.608576,-1.548156,-4.847858,369.529999,47.810001,35.349998,1729428369594.0,0.0
1.098306,-5.381458,-10.978271,240.800003,-12.18,17.99,1729428369617.0,0.0
-6.553941,0.399601,-5.472386,114.239998,35.07,8.96,1729428369634.0,0.0
-3.378666,-6.410372,-6.405586,43.330002,-6.93,17.5,1729428369654.0,0.0
-6.580262,-18.922441,-2.646462,67.550003,-30.59,-5.11,1729428369675.0,0.0
-2.792424,-0.701097,-4.718646,287.350006,27.02,15.33,1729428369694.0,0.0
-9.516255,-4.563113,-3.95055,77.699997,29.68,41.09,1729428369714.0,0.0
-2.053042,-9.24826,-10.648061,-86.449997,-40.599998,-40.18,1729428369734.0,0.0
1.548156,-5.20439,-19.613966,94.220001,-40.670002,-14.7,1729428369754.0,0.0
-5.694918,6.821937,-5.749953,209.720001,75.809998,30.1,1729428369775.0,0.0
-6.611369,-10.234102,-4.814359,-5.81,-24.43,12.32,1729428369794.0,0.0
-0.524028,-7.221539,-4.362115,-15.96,-23.799999,-16.17,1729428369814.0,0.0
-4.130012,-11.923435,-1.89033,75.040001,6.79,10.5,1729428369835.0,0.0
-2.773281,-6.594619,-5.022535,0.7,-10.64,-6.65,1729428369854.0,0.0
-3.584448,-7.953743,-6.123233,-8.54,-11.34,4.48,1729428369875.0,0.0
-3.196811,-7.970492,-6.678369,-0.14,-11.27,-3.85,1729428369894.0,0.0
-3.596412,-7.515855,-5.900701,24.08,-5.39,-1.19,1729428369914.0,0.0
-3.479164,-6.76451,-4.642076,22.33,-9.73,-0.28,1729428369934.0,0.0
-3.665804,-6.570691,-5.156533,-8.12,-12.81,0.42,1729428369954.0,0.0
-3.522235,-7.133004,-5.860023,-35.279999,-16.73,-0.28,1729428369975.0,0.0
-3.460021,-8.147561,-7.02772,-17.08,-12.25,-4.2,1729428369994.0,0.0
-3.811767,-7.685746,-6.427122,7.63,-4.76,-3.22,1729428370014.0,0.0
-3.400201,-7.202396,-5.979663,6.23,-7.07,-1.75,1729428370034.0,0.0
-3.385844,-7.245467,-6.017949,-7.84,-6.79,-2.03,1729428370055.0,0.0
-3.239882,-6.982256,-5.532206,-9.8,-5.11,-1.54,1729428370075.0,0.0
-3.689733,-7.65464,-6.266802,-8.96,-4.69,-0.84,1729428370095.0,0.0
-3.333202,-7.341179,-6.417551,-4.2,-5.32,-1.05,1729428370115.0,0.0
-3.56052,-7.439285,-6.001199,-1.54,-4.69,-0.56,1729428370133.0,0.0
-3.414558,-7.393822,-5.766702,-2.73,-4.9,-0.56,1729428370153.0,0.0
-3.804588,-7.271788,-5.814559,-4.27,-0.63,-0.84,1729428370177.0,0.0
-3.883551,-7.398607,-5.991628,-6.23,-0.21,-3.36,1729428370193.0,0.0
-3.931407,-7.396214,-5.953342,-6.16,-0.21,-4.48,1729428370214.0,0.0
-3.56052,-7.487142,-6.072984,-5.88,-3.5,-5.25,1729428370234.0,0.0
-3.424129,-7.786245,-6.223732,3.92,-3.92,-5.74,1729428370254.0,0.0
-3.419343,-6.879365,-5.503492,17.85,1.4,-4.55,1729428370275.0,0.0
-4.974678,-9.741181,-3.701697,22.610001,1.89,-0.56,1729428370294.0,0.0
-2.725425,-7.185646,-4.800002,3.43,-1.26,-15.68,1729428370314.0,0.0
-4.302295,-7.4345,-5.65424,-16.66,-3.29,-4.06,1729428370334.0,0.0
-2.993421,-8.188239,-7.312466,-17.360001,-7.35,-12.25,1729428370354.0,0.0
-3.361916,-6.977471,-5.71406,18.27,3.01,-6.16,1729428370385.0,0.0
1.811367,-3.795017,-4.31426,83.090004,-12.88,-1.33,1729428370393.0,0.0
-4.742575,-3.218346,-3.988836,27.02,29.120001,-9.38,1729428370473.0,0.0
-3.98405,-7.647461,-5.331209,-32.130001,-9.38,10.08,1729428370478.0,0.0
-2.581856,-8.472985,-7.618747,-21.49,-8.26,-7.35,1729428370481.0,0.0
-5.000999,-6.955935,-5.053641,32.34,6.37,0.21,1729428370485.0,0.0
-2.696711,-6.144768,-4.816752,50.82,6.51,-4.69,1729428370494.0,0.0
-4.625326,-7.45125,-5.113462,-3.22,1.4,4.69,1729428370514.0,0.0
-3.290131,-8.496914,-6.702296,-0.35,-3.43,-3.99,1729428370534.0,0.0
-3.572484,-7.45125,-4.85743,34.23,4.34,-0.49,1729428370554.0,0.0
-3.424129,-7.41775,-4.785645,25.41,2.45,-0.28,1729428370585.0,0.0
-3.4672,-7.360322,-5.20439,8.26,0.49,1.19,1729428370594.0,0.0
-3.677768,-7.769495,-5.493921,1.96,-0.77,1.33,1729428370617.0,0.0
-3.778267,-7.834101,-5.462814,10.64,-0.77,-0.28,1729428370633.0,0.0
-3.656233,-7.592427,-4.759324,14.56,-0.56,-0.7,1729428370656.0,0.0
-3.692125,-7.920243,-5.283352,-0.07,-0.84,0.21,1729428370680.0,0.0
-3.60359,-8.066205,-5.809773,2.87,-0.14,0.77,1729428370695.0,0.0
-3.881158,-7.676175,-5.084748,17.08,4.2,0.63,1729428370714.0,0.0
-3.809374,-7.599605,-4.867002,9.87,2.17,-1.05,1729428370734.0,0.0
-3.550949,-7.62114,-5.118248,-1.68,-1.33,-1.82,1729428370753.0,0.0
-3.694518,-8.219346,-5.273781,0.07,-0.21,-2.38,1729428370775.0,0.0
-3.783052,-8.032705,-5.206782,7.98,4.27,-2.8,1729428370793.0,0.0
-3.522235,-7.860423,-5.855237,5.39,5.25,-3.78,1729428370814.0,0.0
-3.739982,-7.956135,-5.520242,18.48,7.7,-6.51,1729428370834.0,0.0
-3.976871,-7.456036,-4.362115,4.34,3.5,-9.87,1729428370853.0,0.0
-3.393023,-8.283953,-5.070391,-23.52,-1.12,-10.78,1729428370876.0,0.0
-3.617948,-9.513863,-6.443871,-15.75,-1.12,-14.91,1729428370894.0,0.0
-5.4341,-20.341385,-12.25843,73.989998,-32.130001,-32.970001,1729428370914.0,0.0
1.289732,1.378266,-9.253045,646.450012,31.43,56.349998,1729428370933.0,0.0
-8.855836,-1.095913,5.79781,373.029999,191.869995,-45.779999,1729428370954.0,0.0
-5.915058,-8.370094,-0.650848,-331.100006,-103.739998,25.549999,1729428370975.0,0.0
-0.741775,-21.915863,-11.399406,-358.399994,-80.080002,-30.66,1729428370994.0,0.0
-10.217353,-13.531413,-12.229716,7.35,29.610001,-37.240002,1729428371014.0,0.0
-13.103097,-4.752146,-8.877372,175.770004,163.309998,-27.860001,1729428371034.0,0.0
-4.376472,-5.711668,-6.379266,-15.96,125.860001,-59.920002,1729428371055.0,0.0
0.622134,-11.227123,-3.393023,-110.389999,108.709999,-47.810001,1729428371075.0,0.0
-0.524028,-3.352344,-2.275574,-190.470001,84.419998,-72.239998,1729428371093.0,0.0
-0.124427,-8.812766,-0.282353,-191.660004,58.799999,-33.040001,1729428371116.0,0.0
-1.430908,-8.738588,4.941179,-90.510002,60.060001,-17.99,1729428371134.0,0.0
1.447658,-9.521042,2.835495,-142.729996,19.67,-17.639999,1729428371154.0,0.0
1.349552,-9.990034,-9.846465,-151.970001,-33.740002,-44.869999,1729428371175.0,0.0
-4.347759,-5.099105,-5.611169,-22.26,-0.35,8.61,1729428371194.0,0.0
-3.749553,-7.956135,-5.69731,-1.19,2.66,10.78,1729428371214.0,0.0
-2.694318,-5.558527,-6.173482,-63.630001,1.47,7.84,1729428371233.0,0.0
0.42353,-9.403792,-11.485549,-101.919998,-11.69,0.91,1729428371254.0,0.0
1.11027,-3.9673,-10.456635,-5.18,13.37,17.92,1729428371274.0,0.0
-3.144169,-7.092326,-14.072189,42.490002,31.85,30.17,1729428371293.0,0.0
-0.885344,-8.513663,-1.20359,23.940001,37.029999,22.190001,1729428371314.0,0.0
1.636691,-4.63729,9.226725,-25.48,3.64,-1.96,1729428371333.0,0.0
0.277567,-11.382657,-4.59422,-53.27,-54.810001,-29.68,1729428371353.0,0.0
-0.244068,-8.003991,-5.989235,-0.7,-55.580002,-19.67,1729428371375.0,0.0
-3.074777,-8.037491,-5.046463,-11.55,-47.18,-10.85,1729428371393.0,0.0
-2.388037,-6.695118,-5.012963,-50.82,-57.470001,-17.57,1729428371414.0,0.0
-1.947758,-5.295317,-1.557728,-43.540001,-71.190002,-10.29,1729428371434.0,0.0
1.189233,-4.352544,-3.912265,12.32,-109.830002,16.1,1729428371453.0,0.0
-2.909672,-8.690732,-7.336394,108.779999,-115.080002,30.24,1729428371484.0,0.0
-4.067799,-10.875379,-4.331009,152.740005,-92.190002,35.0,1729428371494.0,0.0
-8.171489,-4.785645,-2.756532,20.299999,-89.879997,30.799999,1729428371514.0,0.0
-6.920043,-5.986843,-7.197611,-40.18,-87.919998,20.23,1729428371534.0,0.0
-6.570691,-5.084748,-5.156533,-15.96,-71.260002,31.08,1729428371554.0,0.0
-5.836094,-6.498906,-6.690332,-10.64,-62.02,7.98,1729428371575.0,0.0
-7.49432,-3.570091,-9.997212,-121.099998,-79.519997,-10.92,1729428371594.0,0.0
-7.135397,-2.756532,-12.15554,-194.669998,-93.309998,-25.48,1729428371618.0,0.0
-5.261817,-5.142176,-12.914064,-137.970001,-72.800003,-10.15,1729428371633.0,0.0
-4.065405,-3.534199,-13.942977,-18.969999,-21.210001,-3.29,1729428371654.0,0.0
-5.04407,-2.660819,-12.789637,75.879997,19.25,9.38,1729428371674.0,0.0
-6.769295,-4.488935,-12.799208,70.769997,44.450001,9.1,1729428371694.0,0.0
-6.07777,-5.486742,-9.379865,25.200001,57.330002,-0.14,1729428371713.0,0.0
-4.295116,-6.008378,-11.286944,12.53,59.150002,1.33,1729428371734.0,0.0
-6.556334,-13.323236,-1.502693,75.599998,66.919998,-4.13,1729428371754.0,0.0
-9.887143,-8.764909,-4.811966,56.279999,57.610001,-10.36,1729428371775.0,0.0
-8.537591,-4.036692,-8.839087,28.91,66.43,-15.26,1729428371793.0,0.0
-6.9679,-6.738188,-10.774881,72.870003,95.620003,-16.73,1729428371813.0,0.0
-3.302095,-6.288338,-8.303094,109.059998,118.720001,-16.799999,1729428371833.0,0.0
-0.658026,-6.463014,2.024328,79.800003,109.480003,-22.120001,1729428371853.0,0.0
2.048256,-9.784252,0.916451,-13.3,57.540001,-48.369999,1729428371875.0,0.0
2.904887,-9.702895,0.179462,-5.18,31.780001,-43.82,1729428371892.0,0.0
1.294517,-9.566505,0.117248,-4.34,7.21,-40.040001,1729428371914.0,0.0
-2.945565,-7.484749,-5.053641,0.7,-0.35,-31.85,1729428371933.0,0.0
-4.878965,-4.323831,-4.500899,-28.84,-2.52,-20.370001,1729428371954.0,0.0
-3.586841,-7.228717,-4.127619,-143.009995,-26.040001,-44.869999,1729428371974.0,0.0
-1.136591,-6.278766,-5.309673,-172.970001,-45.150002,-66.5,1729428371993.0,0.0
-1.78026,-2.880959,-5.759524,-196.350006,-46.830002,-68.879997,1729428372014.0,0.0
-0.236889,-6.216553,-8.219346,-269.709991,-57.189999,-79.800003,1729428372034.0,0.0
-0.354138,-6.9679,-9.676575,-298.200012,-48.299999,-81.760002,1729428372053.0,0.0
-0.684347,-5.632704,-8.085347,-214.550003,-38.709999,-73.57,1729428372074.0,0.0
-1.572084,0.952343,-6.979864,-127.400002,-29.26,-61.950001,1729428372093.0,0.0
-2.545963,1.502693,-6.721439,-163.100006,-42.91,-27.02,1729428372113.0,0.0
-3.189633,-3.361916,-8.334201,-227.779999,-58.380001,-11.27,1729428372133.0,0.0
-2.902494,-4.936393,-9.877571,-173.600006,-70.419998,-16.309999,1729428372153.0,0.0
-4.005585,-4.127619,-11.772687,-91.629997,-70.840004,-31.01,1729428372174.0,0.0
-4.785645,-6.132804,-12.224932,-68.599998,-42.490002,-47.670002,1729428372193.0,0.0
-3.981657,-4.177868,-11.839686,1.96,-25.620001,-44.52,1729428372213.0,0.0
-5.053641,0.33021,-13.316057,104.510002,-4.2,-28.49,1729428372233.0,0.0
-3.37388,0.619741,-9.992428,238.139999,8.19,21.98,1729428372253.0,0.0
-1.799403,-3.235096,-7.319644,298.899994,-0.28,29.960001,1729428372334.0,0.0
-3.541377,-4.414758,-6.802795,249.759995,-4.76,8.4,1729428372337.0,0.0
-3.342773,-4.476971,-9.975677,151.899994,-20.719999,2.1,1729428372339.0,0.0
-3.778267,-4.299902,-11.394621,132.020004,-12.95,5.04,1729428372340.0,0.0
-2.713461,-7.113862,-7.575676,159.110001,-3.15,15.05,1729428372353.0,0.0
0.641276,-7.32443,-13.165311,260.470001,-39.549999,-5.88,1729428372374.0,0.0
-6.491727,-2.440679,-3.017349,215.880005,50.82,12.46,1729428372392.0,0.0
-6.338587,-14.048263,-4.003192,79.309998,-50.119999,8.96,1729428372413.0,0.0
4.053442,-6.838687,-13.931013,313.179993,-52.360001,-10.36,1729428372433.0,0.0
-11.018949,-1.335195,-6.417551,259.420013,92.400002,30.870001,1729428372453.0,0.0
1.272982,-7.49432,-15.859629,203.419998,-71.82,-3.99,1729428372476.0,0.0
-8.750552,-2.928815,-5.771489,325.429993,57.400002,42.560001,1729428372493.0,0.0
-2.842674,-6.113662,-0.339781,58.310001,-23.030001,5.81,1729428372513.0,0.0
-4.292724,-11.74158,-4.835894,-3.08,-26.110001,-8.89,1729428372534.0,0.0
-1.737189,-8.745767,-12.722638,143.080002,-45.5,-28.84,1729428372554.0,0.0
-1.928615,-9.133404,12.545568,502.670013,100.239998,64.610001,1729428372575.0,0.0
-9.889536,-7.192825,3.756732,9.94,25.690001,-70.840004,1729428372593.0,0.0
-2.40718,-16.967505,-4.082155,-266.700012,-59.220001,-33.459999,1729428372616.0,0.0
-2.663212,-9.317651,-6.522834,-103.459999,-4.83,-35.560001,1729428372633.0,0.0
-4.149154,-4.261617,-3.706482,91.840004,43.119999,-38.290001,1729428372653.0,0.0
-2.572284,-4.699504,-4.173083,73.360001,43.68,-2.87,1729428372674.0,0.0
-2.22054,-9.322437,0.133998,-15.05,31.15,-0.98,1729428372693.0,0.0
-1.804188,-9.97807,1.674976,-46.34,25.690001,-0.35,1729428372713.0,0.0
-0.851845,-8.233703,3.129812,-82.529999,3.99,-6.58,1729428372732.0,0.0
-3.0006,-8.573483,-1.328017,-133.770004,-23.24,-9.59,1729428372753.0,0.0
-1.981257,-10.683953,-4.311867,-64.82,-31.08,-5.25,1729428372775.0,0.0
-3.498307,-9.095119,-4.275974,54.880001,3.43,17.290001,1729428372793.0,0.0
-5.166104,-10.159925,-2.845066,48.650002,15.68,7.84,1729428372813.0,0.0
-4.232903,-9.769895,-3.211168,18.620001,23.1,-1.26,1729428372832.0,0.0
-1.088734,-2.658426,-1.557728,34.16,20.65,-0.35,1729428372852.0,0.0
1.028914,-8.001599,-0.51685,109.550003,2.38,31.219999,1729428372874.0,0.0
-4.398008,-10.054641,4.307081,145.880005,-6.72,24.780001,1729428372893.0,0.0
-5.096712,-9.133404,3.220739,47.810001,-32.48,16.73,1729428372913.0,0.0
-2.608176,-7.384251,-0.78006,-51.52,-51.73,16.66,1729428372933.0,0.0
-3.708875,-6.649654,-2.744568,-10.57,-49.98,31.639999,1729428372952.0,0.0
-3.503092,-8.822337,-1.655833,143.430008,-48.02,61.599998,1729428372976.0,0.0
-6.888937,-10.171888,1.954936,265.369995,-27.16,73.010002,1729428372994.0,0.0
-6.613762,-8.097312,0.07657,226.100006,-16.309999,61.18,1729428373013.0,0.0
-5.929415,-9.683753,-1.72044,153.229996,-13.3,50.119999,1729428373032.0,0.0
-5.498707,-8.642875,-1.217947,155.75,2.1,37.869999,1729428373054.0,0.0
-5.642276,-8.149954,-0.320638,151.270004,12.74,35.279999,1729428373076.0,0.0
-6.635297,-10.779665,-0.514457,99.330002,1.26,28.84,1729428373093.0,0.0
-5.063213,-12.820745,-0.117248,66.080002,3.5,12.67,1729428373113.0,0.0
-6.750153,-12.124433,0.303888,0.91,11.69,-20.790001,1729428373132.0,0.0
-5.795416,-8.740981,0.461815,-73.57,27.719999,-42.0,1729428373152.0,0.0
-6.084948,-9.796216,-1.083949,-127.75,28.49,-51.099998,1729428373176.0,0.0
-5.548956,-9.154939,-0.878166,-206.360001,47.950001,-72.169998,1729428373193.0,0.0
-4.74736,-9.269794,0.165105,-247.729996,62.650002,-76.230003,1729428373213.0,0.0
-3.538985,-10.214959,-0.428315,-245.419998,60.27,-74.830002,1729428373234.0,0.0
-4.45065,-7.877172,4.867002,-210.139999,62.93,-56.98,1729428373253.0,0.0
-4.110869,-9.375079,-1.036092,-182.279999,37.450001,-54.810001,1729428373273.0,0.0
-2.976671,-9.647861,-4.271189,-119.0,39.619999,-52.5,1729428373301.0,0.0
-3.141776,-7.889136,-1.29691,-97.650002,59.290001,-35.91,1729428373313.0,0.0
-2.749353,-9.683753,-1.351945,-120.330002,42.420002,-33.670002,1729428373333.0,0.0
-1.971686,-8.346166,-1.586441,-110.529999,32.830002,-30.799999,1729428373354.0,0.0
-2.232504,-7.798209,-1.098306,-118.230003,14.42,-30.59,1729428373374.0,0.0
-1.679761,-8.458629,-1.969293,-135.449997,-4.76,-30.59,1729428373392.0,0.0
-1.261017,-8.169096,-3.136991,-132.930008,-18.41,-31.219999,1729428373414.0,0.0
-2.447858,-7.704889,-2.199004,-134.610001,-21.210001,-36.189999,1729428373433.0,0.0
-2.536392,-8.13799,-4.235296,-181.020004,-37.310001,-44.939999,1729428373454.0,0.0
-1.789831,-7.367501,-5.615955,-199.639999,-47.040001,-43.68,1729428373474.0,0.0
-1.564906,-5.175675,-6.058627,-181.649994,-43.959999,-43.75,1729428373493.0,0.0
-1.088734,-4.957928,-7.999206,-174.930008,-42.420002,-34.790001,1729428373513.0,0.0
-1.45005,-6.262017,-9.12144,-180.460007,-36.68,-32.34,1729428373534.0,0.0
-2.017149,-5.20439,-8.537591,-173.180008,-27.58,-35.630001,1729428373553.0,0.0
-2.038685,-4.912465,-8.310273,-164.990005,-25.200001,-30.450001,1729428373575.0,0.0
-2.639283,-3.692125,-7.865208,-115.989998,-24.92,-21.77,1729428373594.0,0.0
-2.455036,-2.928815,-8.063812,-71.190002,-26.18,-7.77,1729428373616.0,0.0
-3.314059,-4.354938,-8.090133,-49.139999,-24.08,-0.28,1729428373633.0,0.0
-3.586841,-5.010571,-7.67139,-28.210001,-26.530001,-1.19,1729428373654.0,0.0
-4.800002,-6.788438,-10.415956,-52.709999,-28.98,-15.190001,1729428373677.0,0.0
-3.421736,-5.240282,-10.394422,-109.199997,-17.92,-39.759998,1729428373694.0,0.0
-2.603391,-4.256832,-10.114462,-72.940002,-4.13,-24.57,1729428373715.0,0.0
-1.689333,-4.228118,-8.973085,21.210001,3.85,-10.57,1729428373735.0,0.0
-2.115255,-4.788038,-7.111469,118.370003,-3.78,4.55,1729428373754.0,0.0
-3.945765,-4.689932,-7.82453,54.670002,-15.82,-2.52,1729428373777.0,0.0
-2.825923,-3.814159,-9.035298,39.41,-17.01,6.65,1729428373794.0,0.0
-2.557927,-6.369694,-10.207782,115.43,-10.01,21.84,1729428373815.0,0.0
-2.589034,-6.460621,-8.243275,212.729996,0.77,17.01,1729428373834.0,0.0
-2.105684,-5.869594,-7.063612,254.100006,-3.15,12.95,1729428373855.0,0.0
-4.766503,-2.931208,-4.998606,171.639999,4.2,8.33,1729428373878.0,0.0
-3.613162,-5.048856,-7.635497,6.51,-7.91,12.6,1729428373894.0,0.0
-3.524628,-8.305488,-9.430114,-7.14,-2.52,16.73,1729428373914.0,0.0
-3.510271,-10.224532,-3.809374,108.220001,8.68,16.309999,1729428373934.0,0.0
0.856631,-7.286145,-14.086546,351.540009,-31.43,8.89,1729428373954.0,0.0
-5.515456,-2.062613,-4.37408,334.670013,84.699997,19.950001,1729428373977.0,0.0
-4.039084,-4.977071,-3.287738,84.0,13.58,34.650002,1729428373994.0,0.0
-3.342773,-10.91845,-6.814759,-30.309999,-13.3,0.21,1729428374020.0,0.0
2.739782,-5.402994,-15.438492,304.220001,-56.490002,14.07,1729428374034.0,0.0
-4.163511,1.830509,-5.304887,458.149994,101.290001,15.89,1729428374054.0,0.0
-7.49432,-3.505485,2.096112,166.110001,35.349998,30.59,1729428374078.0,0.0
5.728417,1.375873,-14.220546,36.049999,-61.880001,2.8,1729428374094.0,0.0
-6.853044,-5.54417,-8.685946,359.589996,93.099998,24.15,1729428374114.0,0.0
-8.240881,-3.134598,4.347759,224.559998,61.040001,37.73,1729428374134.0,0.0
-5.529813,-8.650054,-0.739382,-30.24,0.49,-13.86,1729428374154.0,0.0
-3.737589,-11.408978,-4.17069,-75.599998,-18.83,-8.75,1729428374176.0,0.0
-8.252845,-17.276178,-1.79701,50.959999,2.1,-9.38,1729428374196.0,0.0
-1.926222,-4.56072,3.012564,335.019989,45.849998,-0.84,1729428374214.0,0.0
-4.376472,-5.855237,7.946564,194.880005,92.470001,-3.64,1729428374234.0,0.0
-2.955136,-14.009976,2.321038,-239.470001,-40.810001,-19.67,1729428374254.0,0.0
-3.062813,-16.553547,-0.849452,-301.140015,-38.639999,-25.34,1729428374274.0,0.0
-3.663411,-10.34178,-2.218147,-129.570007,-3.01,-62.09,1729428374294.0,0.0
-4.022335,-6.324231,-4.328616,-26.18,31.92,-57.540001,1729428374315.0,0.0
-2.103291,-8.051848,-3.349952,-55.09,29.75,-34.509998,1729428374334.0,0.0
-2.038685,-7.508677,0.452243,-87.220001,43.75,-28.630001,1729428374354.0,0.0
-2.864209,-6.865008,2.069792,-168.839996,31.85,-24.639999,1729428374376.0,0.0
-1.509871,-7.793423,0.284746,-238.070007,-7.56,-25.549999,1729428374394.0,0.0
-0.792024,-10.636096,-1.299303,-163.309998,-39.34,-21.559999,1729428374414.0,0.0
-3.785445,-9.071191,-2.904887,3.57,-30.309999,-8.26,1729428374434.0,0.0
-5.972485,-9.891929,-1.677369,-9.31,-13.09,4.62,1729428374455.0,0.0
-1.871187,-9.221939,-2.522035,-55.369999,-31.15,-2.8,1729428374476.0,0.0
-2.132005,-7.125826,-0.729811,-4.2,-22.049999,9.31,1729428374495.0,0.0
-2.749353,-6.939186,-0.356531,19.6,-33.110001,23.030001,1729428374515.0,0.0
-2.921637,-7.341179,-0.636491,11.83,-48.720001,30.52,1729428374534.0,0.0
-4.400401,-9.695717,-1.562513,-6.93,-61.459999,33.110001,1729428374554.0,0.0
-4.969893,-10.336994,-4.338188,-15.61,-72.309998,18.34,1729428374575.0,0.0
-2.129612,-7.9681,-5.443672,21.629999,-67.900002,26.25,1729428374594.0,0.0
-3.905087,-9.19801,-5.728417,31.710001,-50.889999,34.650002,1729428374619.0,0.0
-4.400401,-9.930215,-4.766503,51.380001,-37.869999,33.389999,1729428374633.0,0.0
-5.680561,-8.800802,-6.494121,79.870003,-17.710001,35.0,1729428374654.0,0.0
-5.891129,-10.882557,-7.491928,72.870003,-1.47,24.639999,1729428374677.0,0.0
-4.323831,-11.559726,-5.52742,85.400002,22.26,11.83,1729428374695.0,0.0
-3.754339,-8.922836,-2.854637,67.760002,28.700001,-5.18,1729428374714.0,0.0
-3.972085,-8.786445,-0.124427,69.790001,22.049999,-7.56,1729428374734.0,0.0
-3.364309,-9.202796,-1.217947,63.84,13.440001,-13.3,1729428374754.0,0.0
-2.986243,-8.152347,2.455036,58.380001,7.98,-7.77,1729428374776.0,0.0
-5.201996,-7.944171,1.048056,-12.04,-4.83,-13.37,1729428374794.0,0.0
-0.571885,-7.278966,2.313859,38.43,-24.92,4.9,1729428374814.0,0.0
-5.156533,-6.508478,3.4672,102.970001,-25.76,21.629999,1729428374834.0,0.0
-5.146961,-7.197611,1.081556,94.290001,-25.549999,32.830002,1729428374854.0,0.0
-6.817152,-10.466206,-1.172483,41.650002,-17.99,31.360001,1729428374875.0,0.0
-8.49452,-12.957134,-0.825524,-26.389999,-3.78,4.34,1729428374894.0,0.0
-8.82473,-13.794623,-2.708675,-84.910004,10.08,-33.880001,1729428374914.0,0.0
-5.761917,-10.604989,-6.513263,-68.459999,28.77,-49.630001,1729428374933.0,0.0
-4.673182,-7.020542,-3.63709,-63.77,70.629997,-61.880001,1729428374953.0,0.0
-8.070991,-8.930015,-4.082155,-214.759995,99.120003,-89.110001,1729428374975.0,0.0
-4.938786,-9.944571,-5.156533,-364.630005,79.870003,-128.660004,1729428374994.0,0.0
-1.895115,-6.836295,-4.419543,-357.140015,81.690002,-109.690002,1729428375014.0,0.0
-1.17009,-4.280759,-2.400001,-364.980011,73.849998,-77.419998,1729428375036.0,0.0
-1.215554,-8.915657,-2.751746,-410.059998,51.66,-71.400002,1729428375054.0,0.0
-2.120041,-8.863015,-4.041477,-364.140015,47.389999,-56.420002,1729428375077.0,0.0
0.18664,-7.164111,-4.491328,-315.48999,35.630001,-49.420002,1729428375094.0,0.0
-0.342174,-4.39083,-5.678168,-223.440002,18.059999,-20.440001,1729428375114.0,0.0
-0.332602,-6.568298,-5.79781,-186.619995,-2.73,5.81,1729428375133.0,0.0
-0.681954,-7.018148,-5.510671,-103.110001,-21.210001,5.53,1729428375154.0,0.0
-2.179861,-4.354938,-6.12084,-26.6,-35.98,3.43,1729428375176.0,0.0
-2.400001,-5.312066,-7.707282,-25.76,-47.32,2.87,1729428375193.0,0.0
-1.639083,-5.111069,-12.222539,-48.860001,-49.139999,-12.46,1729428375214.0,0.0
-1.337588,-4.699504,-14.52204,-24.43,-28.630001,-12.6,1729428375234.0,0.0
-1.430908,-3.574877,-12.504892,41.93,-0.98,-18.549999,1729428375253.0,0.0
-1.050449,-2.505285,-8.327023,108.849998,9.66,-6.51,1729428375276.0,0.0
-0.641276,-3.739982,-5.414958,121.660004,-0.84,-6.51,1729428375293.0,0.0
-1.895115,-6.585048,-7.88435,86.590004,-17.290001,-6.44,1729428375314.0,0.0
-2.778067,-5.225924,-10.037891,82.949997,-20.23,-16.450001,1729428375341.0,0.0
-4.34058,-4.185047,-13.416556,154.770004,-9.45,-5.67,1729428375354.0,0.0
-6.12084,-2.335395,-8.664411,219.729996,23.940001,6.09,1729428375376.0,0.0
-0.997807,-5.682954,-6.874579,208.110001,12.46,11.76,1729428375394.0,0.0
-1.981257,-8.032705,-2.744568,158.479996,8.19,-2.87,1729428375472.0,0.0
-2.299503,-3.512664,-7.274181,138.110001,4.13,1.61,1729428375479.0,0.0
-1.007378,-6.640083,-5.807381,35.77,20.93,3.57,1729428375481.0,0.0
-2.68714,-13.739587,-0.935594,10.36,15.33,-11.69,1729428375483.0,0.0
2.120041,-13.067204,-12.047862,251.509995,-47.670002,9.66,1729428375506.0,0.0
-3.991228,-8.312666,4.773681,390.600006,100.099998,27.58,1729428375514.0,0.0
-7.367501,-3.565305,1.919044,103.879997,48.93,47.110001,1729428375534.0,0.0
3.251846,-14.297115,-6.029913,74.059998,-42.630001,-2.87,1729428375554.0,0.0
-3.148954,-7.271788,-0.421137,176.680008,66.43,29.960001,1729428375576.0,0.0
-3.761517,-1.136591,-4.907679,91.629997,5.25,37.799999,1729428375594.0,0.0
-1.694118,-14.388042,-11.167303,189.210007,22.68,35.77,1729428375620.0,0.0
-6.850651,-4.259224,2.392823,263.549988,91.699997,63.91,1729428375636.0,0.0
-7.422535,-12.784851,-1.804188,85.400002,144.619995,47.389999,1729428375657.0,0.0
-4.486543,-15.125031,-8.219346,-124.459999,51.380001,-17.360001,1729428375678.0,0.0
-5.869594,-10.695917,-4.019942,-27.860001,121.169998,-2.73,1729428375696.0,0.0
-2.682354,-7.628319,-5.82413,-64.050003,111.580002,-49.84,1729428375716.0,0.0
-0.339781,-6.474977,-3.596412,-120.470001,133.699997,-28.139999,1729428375735.0,0.0
-1.529014,-7.798209,5.201996,-173.809998,99.82,-16.66,1729428375756.0,0.0
0.492921,-7.264609,12.512069,-165.410004,46.060001,-9.94,1729428375777.0,0.0
0.148355,-9.501899,2.916851,-244.649994,-23.1,-31.08,1729428375796.0,0.0
-0.648455,-10.724631,-5.728417,-326.76001,-52.080002,-61.880001,1729428375816.0,0.0
-1.954936,-9.49472,-6.805188,-253.610001,-35.0,-40.670002,1729428375835.0,0.0
-3.201597,-5.551349,-4.4339,-152.320007,-21.280001,-26.530001,1729428375855.0,0.0
-4.053442,-1.184447,-4.907679,-121.099998,-16.309999,-25.41,1729428375876.0,0.0
-3.034099,-6.695118,-4.783253,-162.119995,-33.670002,-24.01,1729428375896.0,0.0
-1.59362,-7.716853,-10.497313,-162.399994,-54.880001,-54.880001,1729428375916.0,0.0
2.17029,-3.366701,-7.546963,-95.410004,-75.879997,-40.25,1729428375936.0,0.0
-1.095913,-4.017549,-14.526826,-136.289993,-50.68,-45.290001,1729428375955.0,0.0
-0.770489,-0.143569,-8.580662,-171.220001,-50.959999,-12.39,1729428375976.0,0.0
-6.699903,-8.647661,-8.420342,-161.070007,-32.41,-30.450001,1729428375996.0,0.0
-3.208775,-5.28096,-7.573284,-66.919998,-44.099998,-29.75,1729428376016.0,0.0
-1.619941,-3.464807,-16.065411,-99.190002,-60.549999,-34.509998,1729428376035.0,0.0
-4.876573,-4.548756,-6.099305,50.959999,-18.059999,24.219999,1729428376060.0,0.0
0.37328,2.409572,-7.712067,-49.209999,-37.240002,-11.06,1729428376077.0,0.0
-1.100698,-4.23051,-13.770694,-213.919998,-55.23,-1.05,1729428376096.0,0.0
-1.325624,-5.575277,-13.880764,-121.309998,-36.75,-9.87,1729428376120.0,0.0
-0.696311,-5.190032,-11.253445,79.169998,-13.37,-0.35,1729428376146.0,0.0
-3.074777,-2.029114,-9.851252,208.25,7.98,18.76,1729428376154.0,0.0
-3.909872,-1.773082,-12.284752,224.979996,9.52,30.940001,1729428376179.0,0.0
-8.458629,-2.256432,-16.264015,237.860001,30.59,42.139999,1729428376249.0,0.0
-14.002798,0.531207,-11.827723,159.949997,84.279999,41.09,1729428376249.0,0.0
-2.811567,-5.752346,-9.458827,59.220001,76.019997,15.47,1729428376250.0,0.0
-3.400201,-5.54417,-10.064213,218.610001,99.82,27.09,1729428376254.0,0.0
-3.754339,-2.813959,-6.67119,266.980011,135.169998,37.66,1729428376275.0,0.0
0.052642,-5.139783,-4.211368,82.18,134.75,39.900002,1729428376294.0,0.0
2.679961,-12.220145,-0.105284,-21.629999,109.480003,34.299999,1729428376315.0,0.0
5.541777,-12.21536,5.393422,33.389999,71.190002,25.620001,1729428376334.0,0.0
2.790031,-8.508877,1.423729,58.029999,20.51,-2.24,1729428376355.0,0.0
1.789831,-8.059027,-3.469593,-30.309999,-16.24,-23.59,1729428376376.0,0.0
2.758924,-7.707282,-8.9683,-99.400002,-67.900002,-33.950001,1729428376394.0,0.0
0.239282,-4.828716,-10.557133,-44.59,-74.199997,-12.04,1729428376415.0,0.0
-10.559525,-8.793623,-3.309274,42.139999,-54.740002,19.950001,1729428376434.0,0.0
-18.920048,-7.424929,-21.102303,-4.34,-28.84,0.07,1729428376454.0,0.0
-10.459028,-1.698904,-18.065811,-49.420002,44.170002,-2.87,1729428376475.0,0.0
0.038285,-2.828316,-10.202995,-24.15,74.970001,-26.040001,1729428376494.0,0.0
-7.446464,-5.685347,-10.13839,-108.57,93.309998,-27.23,1729428376514.0,0.0
0.066999,-1.684547,-7.726424,-114.940002,84.209999,-28.280001,1729428376535.0,0.0
1.222732,-4.723432,-5.95095,-155.680008,86.239998,-21.35,1729428376557.0,0.0
2.471786,-7.379465,-2.321038,-194.180008,62.650002,-5.6,1729428376575.0,0.0
2.22054,-7.992027,-4.898108,-179.970001,27.860001,-15.190001,1729428376598.0,0.0
2.105684,-5.635098,-5.936593,-145.669998,6.65,-23.59,1729428376618.0,0.0
1.945365,-5.108676,-7.513463,-143.919998,-10.57,-21.35,1729428376634.0,0.0
-0.043071,-2.615355,-8.286345,-111.790001,-17.99,-13.09,1729428376655.0,0.0
-1.48355,-0.976272,-9.004191,-128.589996,-24.01,-15.54,1729428376679.0,0.0
-0.485743,-1.481157,-10.040283,-180.949997,-30.1,-16.59,1729428376697.0,0.0
0.299103,-0.614955,-12.289536,-173.25,-28.280001,-17.5,1729428376716.0,0.0
-1.146162,-1.677369,-12.074183,-87.150002,-13.37,-6.65,1729428376735.0,0.0
-1.741975,0.713061,-9.430114,23.24,-7.0,8.33,1729428376754.0,0.0
-3.287738,-1.76351,-8.51127,20.370001,-9.38,13.16,1729428376778.0,0.0
-3.239882,-4.486543,-8.035098,-66.989998,-11.55,-4.97,1729428376795.0,0.0
-1.663012,-1.268196,-9.370294,-58.450001,-22.190001,-15.12,1729428376815.0,0.0
-0.086142,-1.761117,-12.473784,6.02,-21.84,-5.46,1729428376835.0,0.0
0.519243,0.236889,-11.222338,81.760002,-13.23,8.05,1729428376856.0,0.0
-1.90708,-1.325624,-12.354142,96.459999,-0.35,11.55,1729428376880.0,0.0
-2.411965,-0.153141,-11.641083,103.25,8.96,9.94,1729428376895.0,0.0
-0.837488,-0.665205,-9.934999,95.830002,11.27,15.12,1729428376915.0,0.0
-1.143769,-2.572284,-10.205389,91.0,12.46,11.55,1729428376934.0,0.0
-2.218147,-2.811567,-7.73121,95.480003,12.46,7.7,1729428376955.0,0.0
-1.122234,-3.5007,-9.169296,92.330002,4.55,7.21,1729428376975.0,0.0
-2.536392,-2.09372,-9.516255,74.340004,11.9,3.71,1729428376994.0,0.0
-2.330609,-2.751746,-9.028119,53.900002,10.57,10.43,1729428377016.0,0.0
-1.37348,-4.701896,-8.932407,55.580002,8.89,9.52,1729428377034.0,0.0
-0.612563,-4.156333,-8.822337,72.590004,5.11,5.67,1729428377054.0,0.0
-1.596013,-3.818945,-8.85823,50.049999,2.1,2.87,1729428377079.0,0.0
1.009771,-11.353944,-13.270595,102.830002,-33.32,8.96,1729428377096.0,0.0
0.0335,-12.655639,-16.472191,403.549988,-24.780001,20.719999,1729428377116.0,0.0
-5.273781,0.617348,-5.101498,427.980011,79.309998,40.670002,1729428377138.0,0.0
-1.935793,-3.505485,-5.570491,80.290001,10.92,17.710001,1729428377154.0,0.0
-0.480957,-11.109876,-7.771888,-82.669998,-27.51,-14.07,1729428377175.0,0.0
0.200997,-8.018349,-7.783852,63.700001,-18.9,6.16,1729428377195.0,0.0
-1.708475,-6.498906,-5.869594,169.399994,13.79,-1.75,1729428377215.0,0.0
-2.522035,-9.801002,-4.871787,131.110001,-0.28,-9.38,1729428377234.0,0.0
4.199404,-9.623933,-6.01077,231.350006,-39.130001,1.47,1729428377255.0,0.0
4.252046,-11.167303,-7.310073,431.480011,-12.46,2.94,1729428377275.0,0.0
-1.622334,-7.439285,2.976671,541.169983,6.79,23.17,1729428377294.0,0.0
-6.848258,-5.649454,3.854837,322.420013,33.740002,24.780001,1729428377316.0,0.0
-3.09392,-7.592427,-1.974079,-22.190001,-92.82,22.33,1729428377334.0,0.0
-0.509671,-8.769694,-3.505485,-41.02,-91.279999,35.209999,1729428377355.0,0.0
-4.522435,-7.506285,-1.399801,98.699997,-46.130001,53.830002,1729428377388.0,0.0
-7.975278,-13.804193,-3.859623,38.290001,-18.549999,41.509998,1729428377395.0,0.0
-5.599205,-10.126426,-7.831708,-81.480003,-23.24,11.13,1729428377417.0,0.0
-4.465007,-10.533205,-5.788238,-52.849998,-14.77,-4.27,1729428377435.0,0.0
-3.981657,-8.477771,-3.546163,-4.9,-7.42,-8.75,1729428377455.0,0.0
-4.73061,-9.908678,-3.562913,-29.75,15.54,-28.42,1729428377476.0,0.0
-5.101498,-8.355737,-3.701697,-150.779999,26.74,-43.540001,1729428377495.0,0.0
-4.898108,-6.491727,-4.448257,-195.089996,55.02,-46.060001,1729428377517.0,0.0
-2.988636,-4.850252,-4.685147,-269.850006,67.129997,-42.700001,1729428377536.0,0.0
-1.588834,-7.094719,-5.005785,-322.839996,60.689999,-32.900002,1729428377556.0,0.0
2.904887,-11.614761,-7.025328,-222.25,38.150002,-22.4,1729428377576.0,0.0
1.938186,-10.861022,-4.364508,-43.259998,49.0,-11.62,1729428377595.0,0.0
1.505085,-8.51127,-2.545963,5.53,44.099998,-9.59,1729428377619.0,0.0
1.270589,-7.37468,-3.15374,-93.800003,32.759998,-12.46,1729428377635.0,0.0
1.002593,-8.836694,-5.309673,-182.770004,13.37,-14.91,1729428377656.0,0.0
1.004985,-7.530212,-7.056434,-199.5,9.24,-17.5,1729428377677.0,0.0
-1.574477,-4.809574,-5.843273,-284.339996,-2.52,-25.41,1729428377695.0,0.0
-2.378466,-5.455636,-4.206582,-341.809998,-23.030001,-26.460001,1729428377717.0,0.0
-1.368695,-6.159126,-6.168696,-306.179993,-45.150002,-23.73,1729428377737.0,0.0
-1.56012,-1.258625,-7.73121,-230.089996,-42.700001,-17.780001,1729428377758.0,0.0
-2.392823,-1.294517,-9.523434,-259.839996,-50.610001,-14.84,1729428377778.0,0.0
-1.61037,-4.079762,-12.394822,-286.790009,-61.740002,-12.6,1729428377797.0,0.0
-0.710668,-4.529613,-11.547763,-174.369995,-58.450001,-16.17,1729428377818.0,0.0
-1.363909,-2.699104,-9.937392,-8.26,-48.02,-28.0,1729428377836.0,0.0
-1.234696,0.557528,-10.578669,6.3,-47.950001,-37.66,1729428377857.0,0.0
-0.885344,-0.614955,-13.438091,-10.15,-38.290001,-20.93,1729428377878.0,0.0
-1.272982,-4.063013,-16.795221,38.709999,-15.4,-10.08,1729428377897.0,0.0
-2.758924,-7.970492,-12.756138,191.589996,6.16,-12.95,1729428377917.0,0.0
-3.491128,-1.392623,-10.978271,326.970001,23.799999,-25.83,1729428377936.0,0.0
-3.866802,1.875973,-10.152746,386.329987,31.360001,8.68,1729428377957.0,0.0
-1.095913,-4.886144,-4.335794,303.380005,35.700001,42.490002,1729428377979.0,0.0
-3.641876,-5.216353,-10.162319,130.059998,38.990002,35.490002,1729428377997.0,0.0
-1.392623,-8.937192,-10.377672,137.970001,41.860001,33.459999,1729428378016.0,0.0
-2.266003,-5.898308,-5.982057,118.020004,33.110001,24.08,1729428378036.0,0.0
-3.754339,-9.54497,-6.73101,47.32,33.110001,4.48,1729428378056.0,0.0
-0.552742,-9.595219,-3.428915,65.099998,-12.18,8.19,1729428378077.0,0.0
-0.107677,-7.479963,-4.84068,220.990005,-0.84,12.6,1729428378107.0,0.0
-0.150748,-4.271189,2.498107,251.649994,-7.49,26.880001,1729428378117.0,0.0
-3.725625,-6.460621,-3.538985,52.920002,-37.939999,-4.48,1729428378136.0,0.0
-2.909672,-11.140982,-10.760524,-47.32,-67.410004,-36.189999,1729428378156.0,0.0
-3.572484,-7.04447,-14.553147,56.98,-11.48,-16.870001,1729428378178.0,0.0
-8.566305,-5.328816,-9.777073,58.939999,44.380001,-1.4,1729428378196.0,0.0
-8.255238,-9.492328,-9.96132,-7.35,54.950001,-7.0,1729428378217.0,0.0
-6.242875,-7.657032,-11.255837,-31.08,85.889999,-35.0,1729428378236.0,0.0
-3.536592,-4.570292,-7.379465,1.19,109.059998,-26.040001,1729428378256.0,0.0
-1.261017,-3.091527,-4.785645,11.9,113.400002,-0.56,1729428378277.0,0.0
0.521635,-8.496914,-4.675575,-22.190001,107.800003,-0.49,1729428378297.0,0.0
3.5007,-7.259824,3.864408,29.82,104.300003,19.67,1729428378321.0,0.0
4.704289,-10.011569,5.812167,34.580002,41.860001,15.54,1729428378337.0,0.0
0.526421,-8.867801,3.684947,-32.34,-2.1,-6.79,1729428378356.0,0.0
3.972085,-6.702296,-1.277767,-86.730003,-52.080002,-15.89,1729428378377.0,0.0
7.228717,-7.848458,-5.163712,-116.900002,-97.860001,-3.5,1729428378396.0,0.0
2.313859,-8.377272,-9.415757,-84.840004,-106.889999,5.67,1729428378417.0,0.0
-6.812366,-12.679568,-7.142576,-70.769997,-81.480003,2.31,1729428378436.0,0.0
-18.661623,-12.138789,-13.51227,-84.349998,-58.73,-33.18,1729428378456.0,0.0
-11.172089,-3.65384,-19.343576,-66.919998,-6.37,-39.200001,1729428378477.0,0.0
1.402194,-0.387637,-11.397014,44.869999,39.970001,-18.969999,1729428378497.0,0.0
-0.72024,-5.402994,-9.68136,-72.800003,63.349998,-30.24,1729428378516.0,0.0
-2.991028,-5.06082,-7.783852,-198.169998,55.02,-36.889999,1729428378536.0,0.0
-0.344566,-3.347559,-5.742774,-183.470001,50.75,-40.459999,1729428378556.0,0.0
1.777867,-7.542177,-9.480364,-178.710007,40.25,-37.380001,1729428378579.0,0.0
2.945565,-4.548756,-6.034698,-146.300003,40.389999,-29.26,1729428378596.0,0.0
1.51705,-5.235496,-5.647062,-198.660004,28.280001,-36.119999,1729428378621.0,0.0
0.789631,-6.860222,-7.259824,-263.200012,11.06,-45.009998,1729428378636.0,0.0
1.875973,-3.148954,-9.812965,-210.350006,1.75,-46.34,1729428378656.0,0.0
2.445465,-1.438086,-10.272388,-146.440002,4.06,-27.93,1729428378678.0,0.0
2.244468,-0.435494,-11.392227,-110.739998,8.33,-5.46,1729428378696.0,0.0
1.351945,-1.201197,-11.552547,-112.209999,14.14,5.04,1729428378716.0,0.0
-0.253639,-0.275175,-7.24786,-45.290001,12.32,17.5,1729428378736.0,0.0
-0.643669,-0.739382,-5.742774,-9.52,0.49,14.84,1729428378757.0,0.0
-0.227318,-2.258825,-6.015556,-2.24,-17.710001,12.74,1729428378777.0,0.0
-0.239282,-4.007978,-7.283752,6.44,-35.700001,-1.75,1729428378796.0,0.0
-0.880559,-2.163112,-12.524034,21.98,-51.310001,-13.3,1729428378816.0,0.0
-2.266003,-2.421536,-15.357137,-10.57,-35.0,-22.26,1729428378837.0,0.0
-0.861416,1.78026,-13.85205,10.5,-13.3,-13.72,1729428378856.0,0.0
-1.572084,0.189033,-14.782858,112.980003,8.89,18.27,1729428378877.0,0.0
-0.370888,-2.215754,-9.547362,252.910004,31.290001,33.529999,1729428378896.0,0.0
1.706082,-4.855037,-7.209574,364.420013,18.620001,38.709999,1729428378916.0,0.0
-0.811167,-0.916451,-8.894121,323.329987,18.200001,7.28,1729428378936.0,0.0
-3.481557,-1.062413,-9.38465,125.93,26.460001,5.81,1729428378955.0,0.0
-1.383051,-6.360123,-9.367901,23.870001,3.29,15.12,1729428378977.0,0.0
3.048456,-13.361522,-7.042077,206.360001,-35.279999,3.36,1729428378996.0,0.0
3.366701,-1.899901,-14.237295,411.950012,-16.24,12.81,1729428379017.0,0.0
-9.06162,-0.81356,-3.751946,273.48999,109.059998,24.5,1729428379035.0,0.0
-3.026921,-6.905686,-5.742774,-8.61,-22.190001,25.41,1729428379056.0,0.0
3.302095,-11.440084,-10.794022,-20.16,-37.59,-31.43,1729428379077.0,0.0
0.337388,-11.169697,-9.35833,222.669998,6.51,15.61,1729428379097.0,0.0
-2.823531,-4.800002,-0.861416,284.690002,50.82,26.809999,1729428379116.0,0.0
-3.639483,-5.871986,-4.223332,-1.54,-25.059999,-7.07,1729428379135.0,0.0
-1.033699,-12.904492,-9.209974,-37.380001,-31.57,-14.21,1729428379156.0,0.0
3.409772,-5.587241,-7.690532,266.420013,-33.880001,22.120001,1729428379177.0,0.0
-1.395016,-10.999805,2.79721,544.880005,65.309998,48.439999,1729428379196.0,0.0
-7.826923,-6.075377,3.168097,294.0,69.650002,-3.64,1729428379216.0,0.0
0.284746,-6.67119,-2.330609,-50.959999,-13.440001,11.34,1729428379236.0,0.0
0.868595,-14.426328,-5.869594,-173.880005,-42.0,21.629999,1729428379255.0,0.0
0.009571,-12.279965,-4.338188,-1.12,-9.24,12.46,1729428379276.0,0.0
-1.794617,-7.250252,-1.696511,130.199997,15.33,3.57,1729428379296.0,0.0
-2.256432,-11.521441,-3.065206,92.470001,6.16,3.43,1729428379316.0,0.0
-2.167897,-13.464413,-4.125226,10.22,-0.98,-10.01,1729428379335.0,0.0
-2.574677,-8.630912,-5.032106,82.459999,15.68,-5.53,1729428379356.0,0.0
-2.589034,-6.18784,-3.756732,138.110001,43.610001,-4.62,1729428379376.0,0.0
-2.402394,-6.029913,0.074178,30.1,37.450001,9.45,1729428379395.0,0.0
-1.306481,-10.334601,-0.782453,-77.0,18.969999,10.36,1729428379424.0,0.0
0.519243,-9.939785,-2.40718,-83.650002,21.559999,10.85,1729428379438.0,0.0
-0.416351,-11.157731,-2.155933,-70.489998,23.379999,18.549999,1729428379456.0,0.0
1.706082,-9.645468,2.897708,-96.599998,38.920002,15.82,1729428379477.0,0.0
7.094719,-13.466805,4.584648,-133.350006,18.129999,7.49,1729428379496.0,0.0
4.536791,-13.093525,-0.768096,-95.830002,-9.66,-12.25,1729428379517.0,0.0
-0.160319,-9.10469,1.519442,-53.970001,-7.91,-12.25,1729428379538.0,0.0
0.07657,-8.721838,0.193819,-160.930008,-30.73,1.82,1729428379558.0,0.0
-0.153141,-9.133404,-2.349752,-218.330002,-52.360001,-6.93,1729428379577.0,0.0
0.277567,-7.89153,-2.275574,-137.479996,-71.120003,-0.77,1729428379597.0,0.0
-2.565106,-5.515456,-5.209175,-38.709999,-75.25,14.21,1729428379619.0,0.0
-3.924229,-8.068598,-5.56092,-29.68,-61.32,24.710001,1729428379636.0,0.0
-3.78066,-8.508877,-7.645068,-59.709999,-55.299999,17.639999,1729428379658.0,0.0
-3.249453,-6.630512,-7.80778,-32.970001,-44.170002,22.26,1729428379679.0,0.0
-3.235096,-6.735795,-7.477571,6.65,-32.759998,30.870001,1729428379698.0,0.0
-4.201797,-7.401,-6.652047,22.960001,-21.210001,32.34,1729428379719.0,0.0
-4.412365,-7.9681,-7.503892,-14.7,-18.48,17.99,1729428379737.0,0.0
-3.634698,-9.23151,-7.41775,-46.41,-13.72,5.11,1729428379756.0,0.0
-3.321238,-9.099905,-7.542177,-43.330002,-2.8,-5.25,1729428379778.0,0.0
-2.730211,-8.006385,-6.005985,-17.639999,11.2,-3.57,1729428379798.0,0.0
-2.754139,-8.303094,-6.716653,-11.13,16.66,-6.09,1729428379819.0,0.0
-2.900101,-10.025927,-7.848458,-1.47,17.5,-10.57,1729428379838.0,0.0
-3.330809,-9.513863,-6.441479,0.98,33.18,-19.530001,1729428379858.0,0.0
-5.249853,-8.487342,-4.254438,-32.900002,26.460001,-26.880001,1729428379880.0,0.0
-3.912265,-7.195218,-10.908878,-56.490002,35.07,-36.189999,1729428379901.0,0.0
-1.792224,-7.554141,-11.739187,-78.959999,68.669998,-43.540001,1729428379920.0,0.0
-1.366302,-7.092326,-7.673782,-96.459999,89.669998,-29.68,1729428379937.0,0.0
-3.28056,-9.257831,-4.204189,-127.75,78.959999,-43.68,1729428379958.0,0.0
0.026321,-7.255038,-2.677568,-62.860001,56.98,-42.209999,1729428379981.0,0.0
0.344566,-7.195218,-6.108876,22.190001,55.369999,-36.75,1729428379999.0,0.0
0.933201,-7.501499,-7.472785,36.889999,64.260002,-24.99,1729428380021.0,0.0
2.067399,-8.042276,-5.06082,-0.77,61.25,-21.210001,1729428380038.0,0.0
2.699104,-8.075776,-2.024328,-12.95,42.77,-21.84,1729428380058.0,0.0
3.778267,-7.051648,0.11007,-3.36,15.47,-25.76,1729428380082.0,0.0
4.319045,-7.317252,-2.744568,36.889999,-16.73,-20.09,1729428380098.0,0.0
-0.083749,-6.884151,-5.199604,41.860001,-15.89,-18.83,1729428380118.0,0.0
1.117448,-7.008578,-6.436693,-38.009998,-33.25,-18.76,1729428380142.0,0.0
2.565106,-7.319644,-6.037091,-95.410004,-57.75,-15.12,1729428380160.0,0.0
2.285146,-8.422735,-7.334002,-52.080002,-68.879997,-14.7,1729428380180.0,0.0
0.401994,-6.632904,-4.4339,83.720001,-67.410004,-3.15,1729428380201.0,0.0
-0.583849,-5.326423,-2.720639,151.479996,-80.919998,19.389999,1729428380220.0,0.0
-2.160719,-7.551748,-6.080163,83.580002,-105.559998,23.030001,1729428380238.0,0.0
-3.952943,-9.348758,-8.886944,42.420002,-112.489998,38.779999,1729428380259.0,0.0
-7.415358,-11.356337,-12.949955,-26.110001,-102.970001,18.27,1729428380281.0,0.0
-10.30828,-7.267002,-15.668202,-64.959999,-58.240002,-5.88,1729428380298.0,0.0
-5.199604,-6.54437,-12.033505,-52.5,-4.2,-15.96,1729428380319.0,0.0
-3.139383,-5.230711,-11.243874,-30.73,41.09,-38.360001,1729428380338.0,0.0
-3.270989,-6.259624,-10.095319,-62.439999,54.25,-40.459999,1729428380357.0,0.0
-0.141177,-5.297709,-4.912465,-68.669998,50.259998,-32.41,1729428380382.0,0.0
0.775275,-6.778866,-5.130211,-41.02,47.25,-35.0,1729428380399.0,0.0
3.165704,-6.407979,-2.347359,-56.139999,41.09,-46.830002,1729428380486.0,0.0
2.971886,-7.166504,-0.315853,-108.849998,1.82,-59.57,1729428380487.0,0.0
2.304288,-7.788638,-3.440879,-179.830002,-36.470001,-85.330002,1729428380493.0,0.0
3.079563,-6.092126,-4.974678,-190.75,-66.849998,-92.610001,1729428380494.0,0.0
1.074377,-5.584848,-5.163712,-158.619995,-81.900002,-85.050003,1729428380500.0,0.0
0.028714,-4.969893,-8.176274,-209.580002,-86.169998,-91.349998,1729428380517.0,0.0
-0.775275,-5.517848,-8.769694,-287.630005,-82.599998,-93.099998,1729428380538.0,0.0
-1.095913,-4.280759,-7.530212,-248.990005,-74.760002,-88.550003,1729428380559.0,0.0
0.26321,1.777867,-10.650455,-206.220001,-64.610001,-77.769997,1729428380579.0,0.0
-0.488136,-3.634698,-10.932807,-196.070007,-59.920002,-28.630001,1729428380597.0,0.0
-2.445465,-4.163511,-9.829715,-60.200001,-55.02,-31.290001,1729428380622.0,0.0
-3.431308,-3.007778,-9.597611,2.31,-54.740002,-33.670002,1729428380637.0,0.0
-1.971686,-0.949951,-9.626326,-45.360001,-56.139999,-43.189999,1729428380659.0,0.0
-0.442672,-4.161119,-11.212767,-48.02,-54.810001,-32.830002,1729428380681.0,0.0
-0.612563,-4.182654,-12.8686,17.43,-49.490002,-31.57,1729428380698.0,0.0
-1.445265,-2.804388,-13.383057,112.699997,-34.439999,-27.370001,1729428380718.0,0.0
-2.06022,-1.153341,-11.449656,193.690002,-23.799999,-19.32,1729428380738.0,0.0
-2.54357,-0.375673,-9.942179,246.960007,-16.17,-11.76,1729428380757.0,0.0
-2.646462,-2.459821,-7.046863,270.130005,-23.870001,-1.19,1729428380778.0,0.0
-2.727818,-6.144768,-11.971292,323.470001,-35.91,9.17,1729428380799.0,0.0
-3.036492,-6.635297,-14.024333,432.459991,-16.309999,24.639999,1729428380818.0,0.0
-5.056034,-0.270389,-9.312866,474.040009,43.610001,34.09,1729428380837.0,0.0
-5.608776,-1.868794,0.775275,249.899994,61.599998,34.93,1729428380858.0,0.0
-2.63689,-12.083755,0.37328,55.23,-54.18,-3.85,1729428380879.0,0.0
2.773281,-2.766103,-8.073383,261.940002,-49.139999,-30.940001,1729428380898.0,0.0
-8.903693,-5.596812,-0.748954,274.329987,68.18,-6.72,1729428380918.0,0.0
-3.330809,-11.578869,-8.504091,104.650002,-49.279999,8.33,1729428380937.0,0.0
1.584049,-1.866402,0.057428,385.630005,-8.33,60.900002,1729428380957.0,0.0
-7.178468,2.758924,-2.155933,70.699997,15.33,-39.689999,1729428380980.0,0.0
-2.266003,-9.623933,-6.013163,-279.369995,-106.330002,9.73,1729428380998.0,0.0
-7.802995,-16.644474,-12.820745,-118.440002,33.740002,-0.49,1729428381017.0,0.0
-7.800602,-11.373087,-8.989835,86.870003,58.170002,-14.42,1729428381039.0,0.0
-6.599405,-5.278566,-3.826123,104.230003,107.590004,-18.41,1729428381059.0,0.0
-2.502892,-9.274581,-2.266003,-137.479996,51.66,-39.830002,1729428381079.0,0.0
0.746561,-8.240881,-0.59342,-188.789993,50.400002,-32.830002,1729428381102.0,0.0
2.883351,-7.503892,5.417351,-139.720001,40.950001,-5.46,1729428381117.0,0.0
5.465207,-13.141381,4.601398,-49.700001,-5.53,10.57,1729428381137.0,0.0
-2.017149,-14.170296,-0.9667,29.120001,-12.6,7.7,1729428381158.0,0.0
-1.507478,-7.597212,4.929214,-52.639999,-39.48,17.43,1729428381178.0,0.0
0.165105,-7.956135,0.605384,-106.889999,-91.349998,14.7,1729428381197.0,0.0
-3.448057,-11.057234,-1.083949,19.110001,-89.459999,51.869999,1729428381220.0,0.0
-4.888536,-12.093326,-5.374279,57.049999,-97.790001,34.09,1729428381237.0,0.0
-3.481557,-10.214959,-9.753145,-24.780001,-81.620003,31.219999,1729428381257.0,0.0
-5.809773,-10.305886,-9.702895,-56.209999,-67.340004,15.96,1729428381280.0,0.0
-7.362715,-9.743573,-14.682359,-7.7,-46.48,11.34,1729428381299.0,0.0
-10.222138,-8.927622,-15.811772,69.230003,16.940001,-2.45,1729428381319.0,0.0
-6.606583,-6.78126,-7.453642,90.580002,64.889999,-22.4,1729428381339.0,0.0
-7.922636,-7.099504,-7.946564,-18.059999,86.730003,-62.439999,1729428381357.0,0.0
-4.065405,-6.429514,-7.501499,-92.68,91.349998,-76.230003,1729428381378.0,0.0
-1.974079,-5.347959,-6.403193,-79.449997,108.150002,-71.540001,1729428381398.0,0.0
0.533599,-5.699703,2.002793,-62.369999,98.279999,-38.920002,1729428381419.0,0.0
1.476372,-7.862815,3.550949,-25.549999,56.490002,-16.73,1729428381437.0,0.0
2.864209,-7.810174,5.685347,-4.9,17.360001,-3.71,1729428381457.0,0.0
0.619741,-13.720445,0.224925,11.27,-12.53,3.43,1729428381478.0,0.0
-3.175276,-10.581062,1.067199,21.84,-31.01,-11.41,1729428381498.0,0.0
0.803988,-6.305088,0.524028,-25.76,-62.369999,1.19,1729428381519.0,0.0
-1.031307,-9.875179,-3.069991,-23.24,-98.910004,9.94,1729428381537.0,0.0
-2.155933,-7.558927,-1.682154,69.790001,-106.540001,28.210001,1729428381558.0,0.0
-7.554141,-10.772489,-6.125626,38.639999,-107.800003,47.670002,1729428381580.0,0.0
-9.408579,-10.399208,-10.937593,-84.840004,-71.400002,8.68,1729428381598.0,0.0
-12.169895,-8.413164,-17.572889,-60.34,-0.63,-22.120001,1729428381622.0,0.0
-3.407379,-6.953543,-12.882957,42.91,65.590004,-28.700001,1729428381637.0,0.0
-7.479963,-6.982256,-9.150154,-12.95,99.959999,-58.939999,1729428381657.0,0.0
-3.897908,-6.51087,-7.386643,-136.149994,97.580002,-84.0,1729428381678.0,0.0
-1.330409,-5.867201,-6.742974,-155.399994,109.129997,-78.68,1729428381698.0,0.0
0.447458,-7.668997,-2.493321,-131.809998,98.279999,-66.290001,1729428381717.0,0.0
0.346959,-7.477571,-1.11027,-102.900002,83.090004,-64.75,1729428381736.0,0.0
1.643869,-8.456236,-0.165105,-188.720001,42.0,-84.139999,1729428381758.0,0.0
2.096112,-7.338787,-1.069592,-227.360001,3.64,-79.519997,1729428381778.0,0.0
2.397608,-6.759724,-3.328416,-235.830002,-28.42,-75.599998,1729428381798.0,0.0
1.59362,-4.661219,-4.168297,-215.110001,-51.380001,-59.5,1729428381817.0,0.0
-0.842274,-2.038685,-5.111069,-220.850006,-67.059998,-39.759998,1729428381837.0,0.0
-0.452243,-4.852644,-8.939585,-231.770004,-80.989998,-22.120001,1729428381857.0,0.0
-1.603191,-6.546762,-10.925629,-208.740005,-77.279999,-19.809999,1729428381880.0,0.0
-1.957329,-4.108476,-10.786844,-154.699997,-63.209999,-27.719999,1729428381898.0,0.0
-0.832702,-1.904687,-9.745967,-106.75,-57.119999,-22.540001,1729428381917.0,0.0
-1.636691,-4.441079,-12.169895,-43.049999,-52.080002,-8.47,1729428381938.0,0.0
-1.081556,-5.036892,-11.313265,1.4,-41.16,-17.43,1729428381957.0,0.0
-1.648655,-4.31426,-10.813165,53.200001,-35.139999,-23.66,1729428381978.0,0.0
-1.222732,-4.474578,-11.129018,94.5,-32.689999,-19.040001,1729428381997.0,0.0
-2.179861,-4.740182,-8.499306,187.669998,-27.860001,-0.35,1729428382017.0,0.0
-3.95055,-4.996214,-11.394621,292.390015,-24.43,14.42,1729428382036.0,0.0
-4.304688,-1.777867,-13.091133,410.970001,-8.12,26.389999,1729428382058.0,0.0
-6.843473,4.371687,-10.439885,500.570007,42.0,82.110001,1729428382078.0,0.0
-3.871587,-5.946165,-2.600998,264.179993,51.52,39.200001,1729428382097.0,0.0
-1.916651,-9.973285,-5.022535,86.169998,-22.75,-8.68,1729428382119.0,0.0
-4.122833,-14.361722,-10.91845,177.660004,-6.86,18.690001,1729428382137.0,0.0
-2.445465,-7.398607,0.825524,296.799988,36.400002,10.22,1729428382156.0,0.0
-4.694718,-16.637295,-2.199004,159.949997,15.33,16.379999,1729428382182.0,0.0
0.155533,-3.345166,-1.284946,330.820007,25.48,16.940001,1729428382198.0,0.0
-6.678369,-10.839487,2.151148,185.360001,70.139999,14.91,1729428382217.0,0.0
-2.388037,-11.507084,-2.18704,-91.489998,-40.810001,8.4,1729428382237.0,0.0
-5.034499,-10.80838,-6.520442,-58.52,-0.7,-9.59,1729428382256.0,0.0
-1.330409,-11.586047,1.579263,43.049999,22.960001,-28.0,1729428382278.0,0.0
-7.645068,-20.748165,-6.704689,-19.25,15.68,-29.120001,1729428382297.0,0.0
-5.185246,-5.548956,-5.831308,226.309998,40.529999,-5.04,1729428382317.0,0.0
-4.252046,-3.259024,-8.941978,227.080002,142.520004,-38.43,1729428382338.0,0.0
-1.868794,-8.30788,-6.905686,-0.28,85.889999,-30.73,1729428382356.0,0.0
-1.464408,-8.638089,-2.739782,-70.419998,94.290001,-19.67,1729428382378.0,0.0
-0.574277,-5.943772,1.782653,-50.400002,74.059998,-20.299999,1729428382396.0,0.0
-0.658026,-8.260024,0.521635,-64.75,49.91,-27.440001,1729428382419.0,0.0
-1.986043,-8.449057,1.65344,-157.080002,41.439999,-21.629999,1729428382436.0,0.0
0.90688,-12.095718,0.923629,-175.559998,16.1,-18.059999,1729428382459.0,0.0
3.469593,-11.308479,3.108276,-35.98,7.77,-0.28,1729428382482.0,0.0
