acc_x,acc_y,acc_z,gyr_x,gyr_y,gyr_z,timestamp,label
-3.816552,-7.57089,-3.081956,-133.559998,7.98,10.15,1729477587928.0,0.0
-3.237489,-8.726624,-3.625126,-127.82,-1.26,12.88,1729477587949.0,0.0
-2.68714,-9.202796,-4.627719,-104.019997,-4.69,13.93,1729477587967.0,0.0
-2.59382,-8.413164,-4.893322,-74.059998,-3.99,11.83,1729477587987.0,0.0
-2.9336,-7.707282,-4.778467,-39.130001,5.11,12.67,1729477588007.0,0.0
-2.969493,-8.513663,-4.768896,2.1,4.34,12.81,1729477588027.0,0.0
-2.658426,-8.688338,-4.359723,24.01,3.57,7.35,1729477588049.0,0.0
-2.371287,-8.293523,-4.063013,27.93,5.95,2.38,1729477588068.0,0.0
-2.129612,-8.295916,-4.462614,9.03,1.33,-1.68,1729477588087.0,0.0
-2.07697,-8.216952,-4.551149,-8.82,5.39,-3.99,1729477588107.0,0.0
-1.942972,-8.592626,-5.144568,-10.85,4.41,-4.9,1729477588127.0,0.0
-1.813759,-8.85105,-5.048856,-9.59,3.78,-6.79,1729477588148.0,0.0
-2.287539,-8.690732,-5.046463,-18.9,10.78,-12.39,1729477588167.0,0.0
-2.151148,-9.099905,-5.501099,-35.84,4.34,-20.370001,1729477588187.0,0.0
-1.51705,-9.351151,-5.644669,-45.779999,-3.64,-26.32,1729477588207.0,0.0
-1.550549,-8.95155,-5.448457,-33.040001,2.38,-28.0,1729477588228.0,0.0
-1.540978,-8.504091,-5.922236,-23.799999,3.64,-31.360001,1729477588248.0,0.0
-1.174876,-8.343772,-5.893522,-18.48,5.88,-30.52,1729477588267.0,0.0
-0.911665,-8.243275,-5.682954,-15.54,8.26,-29.4,1729477588287.0,0.0
-0.583849,-8.236095,-5.529813,-15.54,6.09,-27.02,1729477588307.0,0.0
-0.334995,-8.271988,-5.685347,-20.16,3.57,-24.85,1729477588328.0,0.0
-0.433101,-8.449057,-5.644669,-22.33,3.57,-21.84,1729477588348.0,0.0
-0.930808,-8.097312,-5.711668,-19.18,7.49,-20.790001,1729477588367.0,0.0
-0.468993,-7.243074,-6.278766,-10.78,5.74,-17.219999,1729477588388.0,0.0
-0.215354,-7.496714,-6.216553,-10.64,5.25,-6.72,1729477588407.0,0.0
-0.784846,-8.248059,-5.848059,-11.27,16.52,-2.38,1729477588428.0,0.0
-0.643669,-8.224132,-5.905487,-0.98,11.76,-1.12,1729477588449.0,0.0
-0.241675,-7.944171,-5.548956,14.35,5.18,1.4,1729477588469.0,0.0
-0.418744,-8.123632,-5.20439,13.16,8.19,0.35,1729477588487.0,0.0
-0.823131,-8.238488,-5.199604,2.52,8.05,-1.68,1729477588508.0,0.0
-0.684347,-8.015956,-5.4676,-4.69,0.28,-2.38,1729477588528.0,0.0
-0.277567,-7.886744,-5.745167,-8.05,-6.09,-1.89,1729477588551.0,0.0
-0.339781,-7.953743,-5.783452,-12.6,-4.41,-0.7,1729477588568.0,0.0
-0.70349,-8.061419,-5.728417,-14.91,-1.26,0.21,1729477588587.0,0.0
-0.696311,-8.061419,-5.929415,-15.33,-5.25,-0.63,1729477588608.0,0.0
-0.485743,-7.9011,-6.013163,-20.16,-7.42,-1.54,1729477588628.0,0.0
-0.579063,-8.109276,-6.070591,-22.68,-4.13,-1.33,1729477588652.0,0.0
-0.588634,-8.10449,-6.183054,-19.879999,-3.64,-1.54,1729477588667.0,0.0
-0.538385,-7.860423,-6.30748,-13.86,-4.55,-1.05,1729477588687.0,0.0
-0.775275,-7.858029,-6.424729,-9.94,-2.1,-0.7,1729477588708.0,0.0
-1.07677,-7.9681,-6.494121,-6.51,1.26,-0.98,1729477588726.0,0.0
-0.787239,-7.69771,-6.458229,2.1,3.78,-1.75,1729477588752.0,0.0
-0.232104,-7.49432,-6.068198,3.08,0.91,1.19,1729477588767.0,0.0
-0.052642,-7.661818,-6.108876,-1.75,3.5,3.43,1729477588787.0,0.0
-0.105284,-7.929814,-6.171089,-9.94,2.8,3.92,1729477588808.0,0.0
-0.234497,-8.054241,-6.381658,-13.3,1.33,3.15,1729477588828.0,0.0
-0.464208,-8.082954,-6.448657,-15.33,2.03,1.33,1729477588848.0,0.0
-0.538385,-8.02792,-6.360123,-14.14,1.26,-1.26,1729477588866.0,0.0
-0.569492,-7.822137,-6.628119,-12.81,1.26,-3.22,1729477588888.0,0.0
-0.650848,-8.003991,-6.664011,-13.65,1.12,-5.04,1729477588908.0,0.0
-0.480957,-8.279166,-6.819544,-11.13,0.7,-7.0,1729477588927.0,0.0
-0.260818,-8.001599,-6.74776,-4.27,-0.28,-8.4,1729477588951.0,0.0
-0.502493,-7.592427,-6.419943,2.38,3.57,-7.28,1729477588967.0,0.0
-0.705883,-7.515855,-6.24766,0.35,5.11,-6.44,1729477588988.0,0.0
-0.48335,-7.877172,-6.474977,-4.27,1.33,-5.6,1729477589008.0,0.0
-0.193819,-7.992027,-6.23091,-3.64,0.49,-4.9,1729477589026.0,0.0
-0.521635,-7.846066,-6.111269,-2.31,3.57,-5.39,1729477589048.0,0.0
-0.940379,-7.73121,-5.893522,-3.29,3.99,-5.95,1729477589068.0,0.0
-0.775275,-8.078169,-6.439085,-14.07,-2.17,-8.19,1729477589088.0,0.0
-0.847059,-8.006385,-6.252446,-15.75,-0.77,-9.66,1729477589107.0,0.0
-1.426122,-8.173882,-6.352944,-16.799999,3.22,-11.9,1729477589128.0,0.0
-1.471586,-8.216952,-6.30748,-18.83,3.08,-16.309999,1729477589150.0,0.0
-1.167697,-7.685746,-6.029913,-14.07,-0.63,-18.969999,1729477589166.0,0.0
-1.261017,-7.298109,-6.06102,-11.2,1.12,-18.059999,1729477589188.0,0.0
-1.337588,-7.769495,-6.07777,-10.64,0.63,-18.83,1729477589207.0,0.0
-1.256232,-7.709675,-6.374479,-5.39,-2.38,-21.280001,1729477589228.0,0.0
-1.172483,-7.21436,-6.606583,-0.35,-7.0,-21.35,1729477589249.0,0.0
-1.081556,-7.128219,-6.903293,-6.02,-9.94,-20.93,1729477589267.0,0.0
-1.107877,-7.030113,-6.606583,-12.25,-9.8,-21.98,1729477589286.0,0.0
-1.454836,-6.833901,-6.556334,-6.16,-9.59,-22.120001,1729477589314.0,0.0
-1.89033,-6.69751,-6.814759,-1.61,-10.85,-22.33,1729477589327.0,0.0
-2.419144,-6.836295,-6.943972,-4.55,-9.87,-22.4,1729477589349.0,0.0
-2.962314,-6.908078,-7.149754,-11.69,-8.61,-24.57,1729477589367.0,0.0
-2.352145,-6.479764,-6.879365,-17.219999,-10.08,-28.700001,1729477589388.0,0.0
-1.473979,-6.458229,-7.424929,-22.75,-20.93,-29.469999,1729477589407.0,0.0
-1.663012,-6.541977,-7.487142,-21.629999,-13.440001,-28.77,1729477589427.0,0.0
-2.22054,-6.427122,-7.661818,-17.85,-7.49,-29.4,1729477589449.0,0.0
-1.538585,-6.151947,-7.625926,-19.25,-15.47,-30.52,1729477589468.0,0.0
0.069392,-5.938986,-7.786245,-14.91,-32.27,-30.17,1729477589489.0,0.0
0.581456,-5.931807,-7.728817,-3.78,-29.610001,-27.09,1729477589507.0,0.0
-0.253639,-6.379266,-7.200003,5.18,-17.360001,-25.129999,1729477589527.0,0.0
-0.435494,-6.563512,-6.546762,4.83,-19.32,-26.25,1729477589552.0,0.0
0.055035,-6.888937,-6.441479,10.15,-35.91,-27.440001,1729477589567.0,0.0
-0.086142,-7.534998,-6.76451,26.389999,-42.700001,-27.93,1729477589588.0,0.0
-0.59342,-8.092526,-7.606783,57.400002,-46.689999,-28.630001,1729477589608.0,0.0
-0.241675,-7.156933,-7.590034,64.190002,-53.41,-27.16,1729477589629.0,0.0
1.052842,-6.235696,-6.951149,48.580002,-69.440002,-24.08,1729477589649.0,0.0
1.627119,-6.278766,-7.879565,29.26,-75.599998,-17.360001,1729477589667.0,0.0
1.804188,-6.84108,-8.288737,10.29,-66.080002,-10.36,1729477589689.0,0.0
2.299503,-6.369694,-7.702496,-15.26,-53.619999,-5.95,1729477589707.0,0.0
2.787638,-6.049056,-6.757331,-21.559999,-51.170002,0.63,1729477589738.0,0.0
2.608176,-6.661618,-7.45125,-25.48,-47.599998,6.09,1729477589751.0,0.0
1.993221,-7.673782,-8.79123,-25.620001,-39.549999,6.93,1729477589767.0,0.0
1.677369,-8.46102,-8.252845,4.62,-27.02,9.38,1729477589789.0,0.0
1.371087,-8.413164,-6.989435,51.73,-19.18,14.63,1729477589808.0,0.0
1.543371,-7.690532,-5.175675,92.82,-17.5,15.82,1729477589829.0,0.0
1.543371,-8.090133,-5.058427,121.449997,-15.47,18.620001,1729477589861.0,0.0
-0.122034,-8.999406,-4.055835,138.880005,-14.77,23.24,1729477589870.0,0.0
-1.85683,-6.553941,-0.916451,112.699997,-7.28,23.1,1729477589890.0,0.0
-1.911865,-6.80758,-1.471586,64.330002,-36.470001,31.639999,1729477589909.0,0.0
-2.139183,-9.365508,0.495314,4.9,-65.029999,25.76,1729477589931.0,0.0
-2.837888,-12.327823,-2.620141,-15.68,-83.440002,17.290001,1729477589952.0,0.0
-2.74696,-11.480762,-5.20439,-27.51,-102.620003,5.6,1729477589969.0,0.0
-2.079363,-6.876972,-9.827322,-68.25,-107.870003,-3.36,1729477589989.0,0.0
-3.050849,-7.683353,-13.490734,-108.919998,-73.779999,2.17,1729477590009.0,0.0
-4.917251,-8.477771,-12.593425,-82.25,-3.71,19.6,1729477590033.0,0.0
-4.711468,-14.304294,-8.671589,34.860001,49.139999,41.02,1729477590050.0,0.0
-2.935993,-10.640882,-8.504091,100.099998,66.639999,29.889999,1729477590069.0,0.0
-1.115055,-7.71446,-8.394022,111.93,90.93,18.620001,1729477590089.0,0.0
1.473979,-7.109076,-6.740582,61.389999,90.860001,13.3,1729477590109.0,0.0
2.811567,-7.255038,2.100898,12.46,85.540001,11.41,1729477590129.0,0.0
1.674976,-7.800602,6.082555,3.64,48.720001,0.21,1729477590152.0,0.0
-2.06022,-8.157133,1.287339,-11.41,-12.88,-25.34,1729477590168.0,0.0
-5.666204,-7.915457,0.698704,-29.469999,-31.290001,-45.849998,1729477590188.0,0.0
-2.146362,-5.663811,-1.89033,-98.419998,-131.600006,-63.139999,1729477590210.0,0.0
1.105484,-4.409972,-7.800602,-189.279999,-192.080002,-75.599998,1729477590230.0,0.0
-2.486143,-6.798009,-12.658032,-174.229996,-142.589996,-80.639999,1729477590250.0,0.0
-11.49512,-7.066005,-13.493127,-77.139999,0.14,-52.990002,1729477590269.0,0.0
-11.327622,-8.941978,-16.445869,67.830002,53.830002,3.5,1729477590288.0,0.0
-1.205983,-7.77428,-8.571091,56.279999,-10.29,42.630001,1729477590308.0,0.0
3.400201,-5.419744,-8.930015,-8.47,56.560001,39.48,1729477590329.0,0.0
-1.612763,-7.623533,-6.51087,51.73,116.900002,45.43,1729477590350.0,0.0
-1.631905,-9.4349,-3.438486,100.940002,98.629997,36.049999,1729477590368.0,0.0
2.191825,-7.948956,3.476771,61.32,38.290001,15.89,1729477590390.0,0.0
2.11047,-8.102098,5.525027,-10.57,3.15,-7.14,1729477590408.0,0.0
-3.737589,-8.403593,1.643869,-59.709999,-39.830002,-35.84,1729477590428.0,0.0
-4.68754,-9.475577,-4.974678,-94.779999,-85.330002,-68.669998,1729477590451.0,0.0
-0.933201,-4.845466,-11.322837,-165.899994,-160.649994,-81.059998,1729477590468.0,0.0
-2.880959,-5.146961,-7.625926,-197.050003,-113.050003,-64.050003,1729477590489.0,0.0
-9.078369,-6.84108,-14.18226,-123.480003,1.05,-31.92,1729477590509.0,0.0
-9.973285,-7.970492,-16.92922,42.490002,57.82,32.619999,1729477590530.0,0.0
-3.34038,-5.804988,-9.600004,35.349998,38.080002,67.690002,1729477590550.0,0.0
0.933201,-4.197011,-9.162118,-24.360001,26.25,65.940002,1729477590569.0,0.0
-0.55992,-6.716653,-9.186047,3.36,90.019997,63.700001,1729477590588.0,0.0
-1.438086,-9.712467,-5.412565,87.080002,97.230003,65.099998,1729477590610.0,0.0
-0.251246,-6.108876,-0.693919,89.809998,80.010002,48.93,1729477590629.0,0.0
0.832702,-5.608776,1.316052,12.11,32.130001,25.76,1729477590650.0,0.0
-2.105684,-7.649854,-2.196611,-78.050003,-30.1,-15.61,1729477590670.0,0.0
-4.414758,-8.740981,-5.4676,-90.860001,-41.650002,-51.310001,1729477590690.0,0.0
-0.358923,-2.469393,-10.016356,-176.330002,-126.770004,-81.760002,1729477590709.0,0.0
-1.679761,-4.149154,-5.685347,-191.589996,-99.330002,-52.009998,1729477590729.0,0.0
-9.406186,-6.211767,-11.985649,-158.550003,-19.530001,-22.26,1729477590755.0,0.0
-11.042876,-2.962314,-16.314266,-81.410004,6.51,27.58,1729477590769.0,0.0
-3.476771,-6.417551,-12.47857,-49.84,0.35,79.239998,1729477590790.0,0.0
0.930808,-8.714661,-11.01177,-3.36,9.31,83.370003,1729477590809.0,0.0
-0.598206,-9.868,-11.143374,116.059998,56.98,55.790001,1729477590828.0,0.0
-1.655833,-7.688138,-5.225924,172.619995,82.949997,23.66,1729477590851.0,0.0
-0.011964,-5.130211,-1.59362,131.25,43.119999,-8.82,1729477590868.0,0.0
1.550549,-4.07737,-2.400001,44.799999,-6.44,-35.349998,1729477590889.0,0.0
-0.064606,-2.337788,-3.830909,-40.25,-36.75,-54.670002,1729477590910.0,0.0
-3.548556,-5.063213,-3.912265,-122.080002,-41.790001,-67.199997,1729477590928.0,0.0
-2.376073,-4.161119,-10.327423,-192.710007,-96.529999,-93.660004,1729477590953.0,0.0
-4.644469,-4.261617,-5.206782,-175.0,-80.779999,-65.940002,1729477590969.0,0.0
-10.497313,-0.868595,-15.974483,-147.559998,-30.799999,-37.52,1729477590990.0,0.0
-6.21416,-1.919044,-12.818351,-53.200001,-7.7,71.400002,1729477591008.0,0.0
-2.644069,-5.513064,-11.62194,-51.799999,3.92,98.349998,1729477591028.0,0.0
-2.24686,-6.845865,-11.162518,27.02,20.93,105.209999,1729477591050.0,0.0
-1.95015,-6.862615,-10.829915,95.410004,38.849998,90.019997,1729477591068.0,0.0
-1.320838,-7.960921,-6.400801,125.860001,51.939999,69.230003,1729477591088.0,0.0
-0.418744,-7.956135,-5.668597,100.379997,41.860001,29.68,1729477591109.0,0.0
0.485743,-7.386643,-3.572484,43.330002,15.89,-24.43,1729477591128.0,0.0
-0.112463,-3.134598,-4.608576,-11.97,-16.73,-73.5,1729477591149.0,0.0
-2.091327,-0.433101,-5.898308,-113.260002,-34.02,-101.360001,1729477591169.0,0.0
-2.40718,1.024128,-8.078169,-151.550003,-47.32,-92.190002,1729477591188.0,0.0
0.177069,-1.643869,-11.796617,-124.25,-74.269997,-71.260002,1729477591208.0,0.0
-3.692125,0.591027,-11.796617,-66.709999,-33.32,-12.39,1729477591228.0,0.0
-10.392029,-2.720639,-5.977271,-33.459999,6.02,44.450001,1729477591249.0,0.0
-9.760324,-3.972085,-12.894921,-49.700001,8.96,65.590004,1729477591268.0,0.0
-3.529413,-8.152347,-11.901899,-24.15,1.12,89.25,1729477591290.0,0.0
-0.827917,-8.702696,-11.464014,77.629997,12.88,79.379997,1729477591308.0,0.0
-1.588834,-5.233103,-7.518249,186.270004,38.360001,55.860001,1729477591328.0,0.0
-1.526621,-5.376673,-6.405586,131.529999,32.970001,13.16,1729477591358.0,0.0
-0.026321,-6.829116,-4.321437,67.410004,16.309999,-30.66,1729477591368.0,0.0
-0.476172,-1.957329,-3.512664,32.830002,-24.43,-63.209999,1729477591388.0,0.0
-2.866602,3.835695,-8.523234,-73.919998,-38.43,-79.940002,1729477591411.0,0.0
-3.206382,-2.292324,-9.992428,-146.789993,-38.5,-63.139999,1729477591429.0,0.0
-1.004985,-2.007578,-10.660025,-156.100006,-51.029999,-51.869999,1729477591451.0,0.0
-4.386044,-0.363709,-9.485149,-80.639999,-22.540001,-11.34,1729477591469.0,0.0
-10.128819,-4.438686,-6.18784,-56.98,-2.66,30.1,1729477591488.0,0.0
-8.456236,-4.199404,-11.641083,-96.040001,7.91,53.549999,1729477591509.0,0.0
-3.76391,-8.003991,-11.021341,-32.689999,10.08,84.910004,1729477591529.0,0.0
-2.26361,-6.013163,-11.131411,54.040001,22.82,82.949997,1729477591550.0,0.0
-2.395216,-5.35753,-10.346564,118.860001,34.16,71.190002,1729477591569.0,0.0
-1.641476,-8.204988,-10.025927,113.82,44.310001,48.299999,1729477591589.0,0.0
0.0335,-7.819745,-3.701697,67.059998,31.43,8.19,1729477591610.0,0.0
0.624527,-5.103891,-4.48415,57.610001,-18.129999,-63.0,1729477591630.0,0.0
-2.132005,0.131605,-6.970293,18.48,-34.650002,-83.230003,1729477591651.0,0.0
-3.744767,1.471586,-7.57089,-94.290001,-34.650002,-94.290001,1729477591670.0,0.0
-2.366502,0.09332,-7.970492,-108.010002,-61.040001,-72.730003,1729477591690.0,0.0
-1.612763,-1.952543,-12.8686,-113.050003,-64.330002,-54.810001,1729477591709.0,0.0
-5.615955,0.270389,-14.263616,-60.130001,-25.48,-2.17,1729477591729.0,0.0
-11.016556,-1.859223,-9.556933,-19.460001,8.89,49.91,1729477591754.0,0.0
-8.740981,-6.881758,-10.760524,-13.79,14.91,75.599998,1729477591769.0,0.0
-2.495714,-7.372287,-11.602797,35.700001,10.15,79.379997,1729477591789.0,0.0
-1.897508,-7.274181,-9.578469,136.919998,27.51,71.470001,1729477591809.0,0.0
-2.909672,-6.635297,-9.071191,148.119995,46.200001,47.18,1729477591831.0,0.0
-1.823331,-5.876772,-7.41775,98.559998,35.98,12.11,1729477591852.0,0.0
-0.715454,-8.982656,-5.187639,38.080002,20.09,-32.060001,1729477591871.0,0.0
-0.12682,-6.623333,-5.072784,53.900002,-8.68,-78.260002,1729477591890.0,0.0
-2.830709,0.619741,-3.900301,-47.529999,-32.759998,-106.959999,1729477591910.0,0.0
-3.306881,3.366701,-8.032705,-120.120003,-53.970001,-90.860001,1729477591931.0,0.0
-2.591427,-1.01695,-8.999406,-97.580002,-65.870003,-38.290001,1729477591952.0,0.0
-3.199204,-2.938386,-13.35913,-63.279999,-58.66,-3.43,1729477591970.0,0.0
-6.762117,-0.861416,-11.406586,-35.560001,-11.9,31.85,1729477591990.0,0.0
-9.705289,-3.196811,-7.726424,-4.76,2.52,68.389999,1729477592012.0,0.0
-6.422336,-6.144768,-10.267602,-29.889999,-6.58,74.480003,1729477592032.0,0.0
-1.904687,-7.74796,-11.973685,13.09,-12.81,74.690002,1729477592052.0,0.0
-1.603191,-6.683154,-10.612168,130.550003,11.06,67.129997,1729477592074.0,0.0
-2.359323,-4.936393,-8.506484,128.169998,37.73,47.950001,1729477592090.0,0.0
-1.37348,-7.180861,-5.618347,82.389999,26.460001,23.66,1729477592110.0,0.0
-0.327817,-7.975278,-4.555934,100.099998,4.97,-12.46,1729477592131.0,0.0
-0.90688,-2.218147,-2.756532,62.369999,-18.34,-48.650002,1729477592152.0,0.0
-2.799603,-1.471586,-5.374279,-50.610001,-41.650002,-68.599998,1729477592170.0,0.0
-2.754139,0.552742,-9.245867,-109.900002,-61.810001,-82.739998,1729477592192.0,0.0
-3.091527,3.732803,-9.592826,-103.599998,-56.420002,-55.02,1729477592210.0,0.0
-3.199204,-1.899901,-14.033905,-82.949997,-61.880001,-5.25,1729477592231.0,0.0
-7.259824,-1.371087,-13.995619,-58.310001,-15.68,44.450001,1729477592252.0,0.0
-11.41137,-3.57727,-8.69791,-32.900002,19.460001,75.040001,1729477592271.0,0.0
-8.047063,-7.879565,-9.626326,15.190001,17.57,79.449997,1729477592290.0,0.0
-3.239882,-8.207381,-9.810574,60.549999,8.33,77.840004,1729477592310.0,0.0
-2.95035,-7.003791,-10.346564,116.830002,32.27,61.599998,1729477592331.0,0.0
-3.414558,-8.161918,-8.499306,111.93,54.599998,40.810001,1729477592362.0,0.0
-2.215754,-6.56112,-2.840281,66.639999,35.0,7.91,1729477592370.0,0.0
-1.574477,-8.274381,-3.821337,53.760002,-0.56,-37.869999,1729477592390.0,0.0
-2.100898,-2.921637,-4.534399,11.41,-23.52,-78.400002,1729477592411.0,0.0
-3.864408,-1.615155,-7.412964,-83.160004,-38.57,-95.480003,1729477592431.0,0.0
-2.849852,1.739582,-8.831908,-157.639999,-46.900002,-103.529999,1729477592452.0,0.0
-2.813959,0.464208,-9.008978,-120.610001,-50.610001,-54.810001,1729477592470.0,0.0
-4.156333,-1.184447,-11.844472,-68.529999,-36.259998,-9.8,1729477592491.0,0.0
-7.489535,-0.758525,-12.208181,-29.049999,-11.13,37.59,1729477592511.0,0.0
-9.760324,-3.098706,-9.932607,-10.57,14.77,70.279999,1729477592530.0,0.0
-7.176075,-5.690133,-9.073583,23.73,18.620001,77.139999,1729477592551.0,0.0
-3.680161,-5.618347,-9.327222,68.32,13.37,77.279999,1729477592571.0,0.0
-3.668197,-6.508478,-9.473185,119.629997,33.18,62.23,1729477592590.0,0.0
-2.842674,-8.01117,-6.245267,106.470001,35.84,36.68,1729477592610.0,0.0
-2.500499,-8.640482,-4.108476,67.760002,22.26,-2.59,1729477592631.0,0.0
-1.586441,-5.513064,-4.773681,27.299999,-6.37,-51.869999,1729477592652.0,0.0
-2.270789,-2.790031,-5.484349,-25.9,-22.82,-79.099998,1729477592670.0,0.0
-3.328416,-0.595813,-7.353144,-99.470001,-36.75,-91.910004,1729477592690.0,0.0
-2.672783,1.481157,-9.580862,-134.889999,-48.720001,-86.800003,1729477592709.0,0.0
-3.036492,-0.753739,-8.688338,-123.129997,-48.16,-51.450001,1729477592730.0,0.0
-5.156533,-0.844666,-11.909079,-76.650002,-34.509998,-6.3,1729477592754.0,0.0
-9.260223,-2.184647,-10.877771,-4.69,-12.53,39.619999,1729477592769.0,0.0
-9.702895,-4.677969,-10.746166,6.09,12.18,57.049999,1729477592790.0,0.0
-5.383851,-5.623133,-9.260223,53.41,16.17,69.510002,1729477592810.0,0.0
-4.785645,-6.532406,-7.819745,94.080002,32.759998,64.540001,1729477592887.0,0.0
-3.668197,-5.331209,-8.688338,110.599998,29.049999,53.549999,1729477592893.0,0.0
-3.572484,-7.329216,-9.322437,104.580002,38.220001,37.240002,1729477592917.0,0.0
-3.002992,-7.759924,-3.897908,79.099998,39.689999,2.17,1729477592919.0,0.0
-1.76351,-5.991628,-4.074977,49.420002,14.14,-55.369999,1729477592920.0,0.0
-2.730211,-1.124627,-4.716253,-17.15,-19.530001,-81.900002,1729477592934.0,0.0
-4.311867,2.22054,-5.898308,-110.949997,-31.710001,-84.910004,1729477592953.0,0.0
-3.67059,0.153141,-8.922836,-153.440002,-51.59,-68.18,1729477592970.0,0.0
-2.988636,-2.065006,-11.310873,-149.800003,-51.380001,-41.16,1729477592990.0,0.0
-5.180461,-2.402394,-14.179866,-92.959999,-19.809999,-7.07,1729477593010.0,0.0
-7.140182,-1.217947,-10.96152,9.52,1.89,33.040001,1729477593030.0,0.0
-8.408379,-3.723232,-9.956534,47.25,22.4,60.689999,1729477593051.0,0.0
-6.161518,-6.039484,-7.49432,69.230003,19.74,77.559998,1729477593070.0,0.0
-4.706682,-7.233503,-9.164511,82.879997,27.440001,68.18,1729477593090.0,0.0
-4.089334,-6.618547,-8.903693,105.559998,34.439999,54.040001,1729477593109.0,0.0
-3.649055,-7.977671,-8.346166,84.139999,44.029999,24.43,1729477593130.0,0.0
-2.431108,-6.678369,-3.349952,49.0,31.57,-15.89,1729477593152.0,0.0
-1.947758,-6.345766,-3.897908,24.01,4.34,-52.360001,1729477593170.0,0.0
-2.266003,-3.058028,-5.02732,-26.040001,-17.15,-82.32,1729477593190.0,0.0
-3.361916,1.194018,-5.773881,-117.459999,-31.92,-90.860001,1729477593210.0,0.0
-2.550749,1.938186,-10.487741,-193.690002,-47.670002,-80.150002,1729477593230.0,0.0
-2.732604,-0.748954,-10.892128,-129.360001,-37.380001,-18.549999,1729477593255.0,0.0
-4.395615,-0.071785,-12.452249,-44.029999,-22.889999,25.549999,1729477593270.0,0.0
-5.723632,-1.646262,-12.344571,20.16,-8.4,60.760002,1729477593289.0,0.0
-8.295916,-1.399801,-10.10489,38.639999,17.780001,83.160004,1729477593309.0,0.0
-7.668997,-5.71406,-10.097712,45.639999,30.309999,87.849998,1729477593331.0,0.0
-4.998606,-6.470192,-7.913064,78.889999,23.309999,85.610001,1729477593351.0,0.0
-3.993621,-6.07777,-9.068797,104.090004,31.92,63.420002,1729477593375.0,0.0
-4.051049,-8.102098,-9.24108,87.709999,45.43,33.950001,1729477593396.0,0.0
-3.067599,-7.719246,-4.553542,59.920002,37.380001,-12.25,1729477593409.0,0.0
-2.120041,-6.518049,-4.953143,28.280001,16.870001,-56.630001,1729477593431.0,0.0
-1.454836,-3.227918,-5.285746,-15.89,-4.83,-91.139999,1729477593451.0,0.0
-1.648655,0.51685,-6.711867,-78.75,-24.15,-109.129997,1729477593470.0,0.0
-2.179861,2.897708,-9.865608,-129.639999,-33.18,-100.519997,1729477593489.0,0.0
-2.806781,2.921637,-11.49512,-148.470001,-25.27,-62.790001,1729477593511.0,0.0
-4.87418,-1.440479,-10.382458,-107.520004,-13.58,-14.84,1729477593535.0,0.0
-6.888937,0.727418,-10.107283,-14.42,-1.47,20.790001,1729477593633.0,0.0
-7.558927,-3.629912,-9.906286,27.370001,21.559999,80.639999,1729477593634.0,0.0
-6.649654,-7.142576,-8.819944,45.009998,32.41,89.389999,1729477593634.0,0.0
-3.979264,-8.386844,-7.743174,90.580002,32.48,79.800003,1729477593634.0,0.0
-2.59382,-6.441479,-9.265009,117.669998,29.68,60.27,1729477593634.0,0.0
-3.122634,-8.403593,-7.415358,96.110001,40.459999,34.23,1729477593653.0,0.0
-2.912065,-8.068598,-6.740582,52.849998,28.559999,-6.58,1729477593671.0,0.0
-1.830509,-7.238289,-5.465207,29.75,5.32,-55.299999,1729477593690.0,0.0
-2.222932,-1.648655,-5.225924,4.55,-11.97,-88.340004,1729477593709.0,0.0
-3.436093,0.382852,-7.91785,-69.720001,-25.969999,-99.260002,1729477593731.0,0.0
-3.108276,2.634498,-9.585647,-139.300003,-35.84,-96.18,1729477593755.0,0.0
-2.402394,0.614955,-8.13799,-134.399994,-37.310001,-60.619999,1729477593771.0,0.0
-3.701697,0.995414,-13.040883,-64.610001,-35.700001,-15.61,1729477593790.0,0.0
-6.872187,-0.306281,-11.327622,-18.969999,-5.81,33.110001,1729477593811.0,0.0
-9.24826,-4.204189,-10.750952,12.88,14.35,67.550003,1729477593831.0,0.0
-4.429115,-6.4343,-7.267002,80.010002,13.09,77.980003,1729477593854.0,0.0
-3.196811,-5.575277,-11.282159,87.150002,20.719999,60.689999,1729477593871.0,0.0
-2.711068,-5.446064,-10.576276,112.349998,29.469999,56.0,1729477593892.0,0.0
-2.634498,-8.315059,-8.389235,87.919998,41.860001,32.830002,1729477593911.0,0.0
-1.998007,-8.953942,-4.414758,61.880001,28.35,-11.13,1729477593932.0,0.0
-1.911865,-5.867201,-4.508078,47.950001,4.34,-58.170002,1729477593953.0,0.0
-2.871387,-2.821138,-4.960321,-10.29,-12.81,-86.099998,1729477593972.0,0.0
-2.806781,-1.9669,-6.778866,-85.470001,-34.93,-101.57,1729477593992.0,0.0
-2.510071,3.278167,-8.578269,-102.830002,-45.920002,-94.989998,1729477594011.0,0.0
-3.529413,3.019742,-9.597611,-91.0,-37.450001,-39.200001,1729477594032.0,0.0
-4.024727,-2.402394,-10.281959,-66.709999,-29.82,10.99,1729477594053.0,0.0
-5.888737,-0.411566,-11.507084,5.32,-13.09,46.41,1729477594071.0,0.0
-8.123632,0.026321,-8.906086,22.26,5.32,80.43,1729477594091.0,0.0
-7.52782,-5.340781,-12.14836,18.41,14.63,96.110001,1729477594116.0,0.0
-4.589434,-7.073184,-9.937392,65.099998,16.940001,97.860001,1729477594132.0,0.0
-3.361916,-5.594419,-10.516455,111.580002,28.630001,78.610001,1729477594153.0,0.0
-1.708475,-8.547162,-8.724231,82.459999,43.889999,41.650002,1729477594173.0,0.0
-1.418944,-8.449057,-4.761717,53.48,40.529999,-3.5,1729477594192.0,0.0
-1.854438,-7.506285,-3.943372,36.049999,24.15,-47.529999,1729477594211.0,0.0
-1.45005,-4.39083,-4.682754,15.12,-8.61,-85.330002,1729477594232.0,0.0
-2.323431,-2.723032,-5.737988,-31.360001,-27.16,-105.0,1729477594252.0,0.0
-2.29711,1.277767,-8.439486,-90.370003,-43.75,-112.139999,1729477594271.0,0.0
-2.847459,2.694318,-9.265009,-105.699997,-41.509998,-75.809998,1729477594291.0,0.0
-3.251846,-1.395016,-10.49492,-100.590004,-42.209999,-29.889999,1729477594311.0,0.0
-5.589634,-3.570091,-12.679568,-72.590004,-19.879999,7.49,1729477594333.0,0.0
-7.958528,-1.808974,-11.188839,-20.719999,6.72,40.040001,1729477594353.0,0.0
-7.52782,-5.008178,-10.683953,52.849998,16.870001,63.700001,1729477594371.0,0.0
-5.02732,-5.996413,-9.482756,84.910004,15.96,70.279999,1729477594391.0,0.0
-2.924029,-5.986843,-9.353544,104.650002,24.08,61.040001,1729477594412.0,0.0
-2.414358,-7.168896,-8.477771,109.690002,34.369999,48.16,1729477594431.0,0.0
-2.342573,-7.551748,-5.290531,83.230003,34.509998,16.940001,1729477594453.0,0.0
-2.208575,-7.932207,-4.192225,67.970001,12.18,-24.710001,1729477594471.0,0.0
-1.938186,-3.680161,-4.941179,32.689999,-19.18,-65.660004,1729477594491.0,0.0
-2.455036,-2.500499,-8.152347,-84.629997,-46.619999,-99.82,1729477594512.0,0.0
-2.019542,2.050649,-9.116654,-133.770004,-51.450001,-105.559998,1729477594531.0,0.0
-1.844866,2.976671,-10.674382,-130.410004,-43.959999,-61.670002,1729477594552.0,0.0
-2.634498,-3.034099,-10.147961,-99.190002,-28.700001,-7.0,1729477594571.0,0.0
-5.225924,-2.878566,-12.983455,-24.99,-10.01,26.389999,1729477594591.0,0.0
-8.489735,-1.526621,-8.532805,25.48,13.65,56.77,1729477594613.0,0.0
-8.126025,-4.788038,-10.370493,45.709999,21.280001,68.459999,1729477594631.0,0.0
-4.761717,-6.448657,-8.374879,74.480003,13.65,76.090004,1729477594653.0,0.0
-3.072384,-6.723832,-11.057234,92.75,22.610001,63.91,1729477594671.0,0.0
-2.45025,-7.609176,-9.272188,135.449997,38.709999,51.59,1729477594691.0,0.0
-2.644069,-7.180861,-5.919843,117.32,48.439999,26.110001,1729477594712.0,0.0
-1.974079,-8.188239,-4.158726,71.470001,26.530001,-9.8,1729477594731.0,0.0
-1.158126,-6.67119,-5.072784,34.23,-4.97,-50.959999,1729477594755.0,0.0
-1.402194,-4.613362,-6.156733,-11.41,-20.299999,-80.989998,1729477594772.0,0.0
-1.804188,-1.95015,-8.013563,-76.090004,-28.91,-95.059998,1729477594790.0,0.0
-2.019542,-0.098106,-8.863015,-88.970001,-32.619999,-84.910004,1729477594811.0,0.0
-1.646262,-0.145962,-9.442079,-82.669998,-35.490002,-50.049999,1729477594832.0,0.0
-3.361916,-2.536392,-9.743573,-109.270004,-30.309999,-3.5,1729477594852.0,0.0
-6.541977,-1.978864,-10.655239,-95.410004,-5.74,23.52,1729477594871.0,0.0
-8.937192,-3.510271,-10.442278,-32.549999,6.79,54.459999,1729477594892.0,0.0
-6.78126,-6.041877,-10.693524,18.129999,8.61,65.169998,1729477594911.0,0.0
-4.161119,-6.235696,-9.525827,63.98,15.82,67.410004,1729477594932.0,0.0
-3.036492,-6.197411,-9.925428,113.82,34.580002,59.080002,1729477594952.0,0.0
-2.605784,-7.164111,-8.310273,116.410004,52.220001,49.349998,1729477594970.0,0.0
-2.359323,-7.467999,-4.673182,91.980003,49.209999,28.280001,1729477594992.0,0.0
-1.866402,-7.91785,-4.632504,66.639999,24.15,-9.38,1729477595011.0,0.0
-1.09352,-6.474977,-5.484349,54.25,-4.9,-46.130001,1729477595031.0,0.0
-1.636691,-2.629712,-6.405586,10.99,-21.559999,-67.269997,1729477595053.0,0.0
-2.455036,-2.775674,-7.164111,-68.879997,-29.889999,-79.029999,1729477595072.0,0.0
-2.112862,-2.648855,-9.4349,-131.320007,-35.420002,-86.379997,1729477595091.0,0.0
-1.998007,-0.311067,-6.936793,-140.979996,-39.619999,-70.980003,1729477595111.0,0.0
-3.101098,-0.646062,-11.442478,-121.449997,-34.93,-40.529999,1729477595131.0,0.0
-6.094519,-3.182454,-13.234701,-82.25,-11.76,14.21,1729477595153.0,0.0
-7.676175,-3.481557,-10.430314,-4.69,8.61,54.950001,1729477595172.0,0.0
-5.536992,-5.501099,-9.891929,85.68,26.040001,85.959999,1729477595192.0,0.0
-3.022135,-6.606583,-10.396815,134.680008,29.82,81.410004,1729477595212.0,0.0
-2.514857,-5.230711,-7.743174,145.180008,47.810001,68.25,1729477595232.0,0.0
-2.871387,-6.955935,-4.965107,106.470001,48.720001,43.68,1729477595253.0,0.0
-1.928615,-8.616554,-3.445665,76.019997,21.280001,3.36,1729477595271.0,0.0
-1.734797,-5.295317,-4.771288,31.639999,-8.61,-38.920002,1729477595291.0,0.0
-1.65344,-3.948158,-5.998806,-45.709999,-26.460001,-66.849998,1729477595311.0,0.0
-1.643869,-4.204189,-8.635696,-67.900002,-40.950001,-79.169998,1729477595332.0,0.0
-1.330409,1.603191,-9.195618,-90.300003,-40.25,-81.199997,1729477595362.0,0.0
-1.741975,1.387837,-9.449257,-112.419998,-35.209999,-37.099998,1729477595371.0,0.0
-3.20399,-2.89053,-11.691331,-120.82,-26.950001,1.05,1729477595390.0,0.0
-7.267002,-3.101098,-11.717653,-129.710007,7.42,28.91,1729477595411.0,0.0
-7.109076,-5.197211,-9.422935,-43.330002,6.09,53.549999,1729477595439.0,0.0
-5.998806,-5.673382,-10.669596,42.560001,11.55,65.660004,1729477595453.0,0.0
-3.651447,-6.608976,-10.736595,67.340004,16.030001,69.790001,1729477595471.0,0.0
-2.787638,-6.611369,-9.913465,112.07,40.529999,55.580002,1729477595491.0,0.0
-2.495714,-8.193025,-5.998806,108.639999,44.380001,34.790001,1729477595511.0,0.0
-2.065006,-8.635696,-3.773481,98.840004,28.0,-1.12,1729477595533.0,0.0
-1.964507,-7.02772,-3.945765,98.840004,1.61,-39.689999,1729477595555.0,0.0
-1.926222,-2.694318,-5.458029,36.959999,-20.65,-68.18,1729477595571.0,0.0
-1.48355,-1.931008,-7.594819,-53.130001,-38.990002,-74.760002,1729477595591.0,0.0
-1.519442,-1.485943,-9.090333,-92.75,-40.529999,-73.150002,1729477595612.0,0.0
-1.986043,-0.842274,-9.456435,-70.910004,-29.4,-52.009998,1729477595632.0,0.0
-1.887937,-2.732604,-9.073583,-32.48,-33.18,-23.940001,1729477595664.0,0.0
-4.326223,-2.041078,-9.946963,-4.83,-20.719999,3.36,1729477595672.0,0.0
-7.960921,-4.63729,-11.576476,-55.16,7.42,23.450001,1729477595692.0,0.0
-7.133004,-6.297909,-9.312866,-6.51,9.03,48.790001,1729477595713.0,0.0
-6.175875,-5.455636,-10.025927,90.230003,19.879999,58.099998,1729477595732.0,0.0
-4.567898,-6.814759,-9.415757,123.480003,30.380001,66.150002,1729477595762.0,0.0
-2.830709,-6.04427,-7.700103,123.760002,39.27,55.860001,1729477595771.0,0.0
-2.490928,-9.994821,-4.596612,104.230003,43.540001,20.440001,1729477595792.0,0.0
-1.380659,-8.784052,-2.909672,100.029999,14.98,-20.370001,1729477595813.0,0.0
-0.710668,-5.788238,-5.551349,66.57,-18.76,-52.5,1729477595833.0,0.0
-0.464208,-3.024528,-6.175875,-26.67,-30.030001,-67.129997,1729477595855.0,0.0
-1.488336,-3.605984,-7.329216,-79.309998,-30.870001,-68.25,1729477595873.0,0.0
-1.864009,-3.024528,-7.910671,-103.809998,-27.719999,-58.029999,1729477595894.0,0.0
-1.387837,-4.354938,-7.903493,-115.010002,-39.759998,-46.060001,1729477595914.0,0.0
-2.524428,-3.905087,-10.679168,-109.270004,-28.280001,-36.889999,1729477595933.0,0.0
-4.833502,-3.773481,-12.067005,-108.43,-8.54,-17.710001,1729477595955.0,0.0
-6.391229,-6.218946,-11.394621,-66.989998,24.43,13.58,1729477595973.0,0.0
-5.613562,-7.568498,-10.906486,57.889999,29.540001,37.310001,1729477595994.0,0.0
-4.608576,-5.570491,-9.425328,157.990005,38.920002,50.259998,1729477596014.0,0.0
-4.345366,-4.960321,-8.015956,187.110001,56.700001,57.119999,1729477596034.0,0.0
-4.141976,-5.496314,-7.116255,161.490005,63.209999,55.93,1729477596055.0,0.0
-3.538985,-8.355737,-5.754738,154.630005,59.290001,43.259998,1729477596073.0,0.0
-2.916851,-8.796017,-5.965307,208.389999,45.360001,19.879999,1729477596094.0,0.0
-2.462214,-8.69791,-5.393422,216.229996,33.529999,-2.03,1729477596119.0,0.0
-1.811367,-8.386844,-3.996014,194.809998,29.960001,-22.469999,1729477596133.0,0.0
-1.189233,-7.67139,-3.806981,187.949997,11.55,-32.900002,1729477596159.0,0.0
-0.5001,-8.061419,-4.220939,211.610001,-1.26,-32.48,1729477596173.0,0.0
0.150748,-9.188439,-4.831109,251.509995,-10.71,-23.309999,1729477596193.0,0.0
0.605384,-10.145569,-5.058427,313.459991,-13.37,-16.940001,1729477596218.0,0.0
-0.519243,-9.521042,-4.481757,365.890015,6.79,-9.45,1729477596233.0,0.0
-1.339981,-8.489735,-3.605984,389.410004,25.129999,-4.27,1729477596254.0,0.0
-1.395016,-10.269995,-1.335195,402.850006,22.120001,0.7,1729477596273.0,0.0
-0.244068,-11.667403,-0.679562,429.170013,25.059999,-7.63,1729477596293.0,0.0
-0.892523,-10.25803,1.112662,438.690002,54.529999,-18.83,1729477596313.0,0.0
-3.091527,-9.317651,2.801995,438.059998,62.510002,-33.740002,1729477596334.0,0.0
-3.661019,-6.020342,2.15354,375.480011,77.419998,-47.529999,1729477596364.0,0.0
-4.292724,-0.753739,4.072584,248.5,86.730003,-46.48,1729477596373.0,0.0
-3.876373,-4.529613,7.99442,179.059998,71.330002,-37.799999,1729477596393.0,0.0
-2.608176,-4.259224,9.734003,114.099998,64.120003,-42.84,1729477596413.0,0.0
-2.620141,-1.069592,9.815358,70.279999,44.799999,-25.41,1729477596433.0,0.0
-2.926422,-1.014557,7.896315,17.01,13.93,5.6,1729477596454.0,0.0
-2.754139,-3.256632,5.300103,-35.420002,-3.78,26.809999,1729477596473.0,0.0
-1.959722,-6.235696,6.206983,-26.880001,-5.46,42.349998,1729477596493.0,0.0
-2.54357,-8.252845,7.398607,22.889999,0.84,42.07,1729477596513.0,0.0
-5.240282,-8.941978,7.264609,53.970001,0.56,28.98,1729477596533.0,0.0
-7.070791,-11.064411,6.135197,52.220001,-9.87,9.52,1729477596554.0,0.0
-5.316852,-8.30788,5.316852,51.66,3.85,-14.77,1729477596573.0,0.0
-3.081956,-4.646862,6.393622,58.170002,32.060001,-27.58,1729477596592.0,0.0
-4.003192,-7.049256,7.707282,33.670002,35.700001,-40.740002,1729477596612.0,0.0
-3.586841,-7.056434,7.853244,26.6,34.720001,-49.420002,1729477596634.0,0.0
-1.904687,-1.627119,9.06162,56.139999,45.43,-46.34,1729477596654.0,0.0
-2.87378,0.177069,9.535398,27.65,27.58,-22.469999,1729477596673.0,0.0
-1.852045,-1.253839,8.693125,-40.040001,-4.69,4.9,1729477596693.0,0.0
-0.854238,-2.644069,7.74796,-63.07,-15.26,30.24,1729477596712.0,0.0
-3.718446,-5.84088,6.415157,-67.760002,-29.469999,42.0,1729477596733.0,0.0
-2.409572,-4.457829,5.218746,-55.860001,-31.85,46.759998,1729477596757.0,0.0
-2.45025,-7.977671,5.632704,-30.66,-15.68,50.400002,1729477596772.0,0.0
-4.503292,-11.64826,8.592626,2.1,-8.05,32.619999,1729477596792.0,0.0
-7.886744,-11.839686,7.652246,47.18,-3.36,-3.71,1729477596813.0,0.0
-5.364708,-5.871986,6.407979,57.610001,17.92,-34.509998,1729477596833.0,0.0
-2.682354,-6.216553,6.716653,26.389999,27.370001,-45.360001,1729477596855.0,0.0
-2.995814,-7.546963,7.683353,5.81,37.939999,-54.459999,1729477596873.0,0.0
-3.627519,-4.907679,8.683553,23.799999,34.790001,-60.900002,1729477596892.0,0.0
-3.402594,-1.864009,9.054441,39.900002,32.34,-45.779999,1729477596912.0,0.0
-2.160719,-0.770489,7.54457,-14.98,3.71,-27.51,1729477596934.0,0.0
-0.342174,-0.507278,6.226124,-58.799999,-9.94,1.82,1729477596954.0,0.0
-2.368894,-3.842873,7.84128,-46.619999,-13.86,29.960001,1729477596973.0,0.0
-4.388437,-5.197211,7.865208,-30.73,-28.84,38.43,1729477596992.0,0.0
-2.574677,-1.545763,7.642675,-30.52,-31.57,51.799999,1729477597012.0,0.0
-1.770689,-5.151747,6.800402,-63.490002,-42.630001,73.010002,1729477597033.0,0.0
-3.158526,-12.078968,4.895715,-97.300003,-51.170002,57.82,1729477597054.0,0.0
-5.391029,-17.316856,6.644868,-16.799999,-29.190001,26.74,1729477597072.0,0.0
-5.836094,-6.329016,6.34098,99.400002,24.780001,-38.920002,1729477597092.0,0.0
-2.840281,-4.180261,6.865008,67.410004,38.009998,-52.5,1729477597113.0,0.0
-2.955136,-7.582855,6.920043,14.21,32.830002,-55.93,1729477597132.0,0.0
-3.471986,-4.965107,8.080563,41.369999,32.060001,-58.52,1729477597154.0,0.0
-2.775674,0.014357,8.798409,70.840004,40.389999,-43.82,1729477597173.0,0.0
-2.273181,0.057428,7.812566,0.49,7.84,-14.35,1729477597192.0,0.0
-0.844666,-1.205983,5.955735,-72.449997,-17.5,18.27,1729477597214.0,0.0
-2.663212,-5.960521,7.223931,-62.860001,-26.809999,45.920002,1729477597233.0,0.0
-3.78066,-6.156733,7.312466,-48.790001,-35.490002,43.400002,1729477597256.0,0.0
-1.562513,-4.290331,7.030113,-54.389999,-33.529999,55.369999,1729477597272.0,0.0
-1.820938,-9.576077,5.644669,-87.5,-38.709999,54.389999,1729477597292.0,0.0
-3.333202,-13.820943,6.458229,-67.410004,-29.120001,19.25,1729477597313.0,0.0
-6.728617,-12.234503,6.833901,39.48,-1.19,-9.8,1729477597332.0,0.0
-6.635297,-6.271588,5.716454,91.07,27.09,-41.580002,1729477597355.0,0.0
-3.381058,-5.388636,5.465207,55.16,37.380001,-48.93,1729477597373.0,0.0
-4.098906,-8.506484,7.054041,39.900002,36.959999,-66.43,1729477597392.0,0.0
-4.252046,-4.536791,9.140583,86.940002,43.540001,-67.480003,1729477597412.0,0.0
-1.933401,0.985843,8.51127,35.77,24.710001,-30.52,1729477597432.0,0.0
-0.284746,-0.775275,5.733203,-69.440002,-12.88,5.32,1729477597455.0,0.0
-0.392423,-4.68754,6.245267,-80.989998,-19.6,38.009998,1729477597472.0,0.0
-3.845266,-8.200203,6.45105,-43.889999,-27.58,41.02,1729477597492.0,0.0
-2.383251,-5.721239,5.194818,-20.16,-21.42,37.240002,1729477597512.0,0.0
-1.328017,-7.357929,6.812366,-15.68,-7.35,38.150002,1729477597533.0,0.0
-4.185047,-11.480762,7.21436,-21.91,-7.49,14.28,1729477597555.0,0.0
-6.355337,-10.463813,8.688338,25.059999,0.56,-7.07,1729477597576.0,0.0
-8.070991,-8.190632,6.204589,66.849998,8.19,-29.68,1729477597592.0,0.0
-4.007978,-5.276174,6.936793,52.360001,27.58,-47.32,1729477597612.0,0.0
-1.986043,-6.362515,7.142576,31.43,32.900002,-53.689999,1729477597632.0,0.0
-2.892922,-3.452843,9.322437,46.130001,34.369999,-52.920002,1729477597656.0,0.0
-3.622734,-1.713261,10.021141,26.460001,25.48,-33.32,1729477597672.0,0.0
-2.069792,-2.160719,6.496514,-53.48,-11.9,-10.92,1729477597693.0,0.0
-0.074178,-1.081556,4.589434,-73.989998,-21.210001,23.59,1729477597713.0,0.0
-2.59382,-5.056034,7.664211,-50.189999,-28.700001,50.049999,1729477597732.0,0.0
-2.368894,-3.866802,5.860023,-62.580002,-49.209999,51.099998,1729477597757.0,0.0
-0.830309,-6.898508,6.235696,-66.220001,-44.59,76.650002,1729477597773.0,0.0
-2.59382,-13.509877,5.206782,-80.709999,-42.77,49.700001,1729477597792.0,0.0
-4.948357,-14.321043,8.566305,-4.62,-15.05,8.4,1729477597812.0,0.0
-7.534998,-7.74796,6.910471,78.190002,15.96,-23.66,1729477597883.0,0.0
-5.376673,-4.149154,7.223931,66.360001,30.52,-40.529999,1729477597884.0,0.0
-1.919044,-5.429315,6.74776,13.02,28.77,-44.240002,1729477597884.0,0.0
-3.041277,-5.539384,7.941778,23.870001,24.57,-45.009998,1729477597893.0,0.0
-2.823531,-2.210968,8.298308,62.23,28.630001,-30.799999,1729477597912.0,0.0
-2.644069,-1.256232,7.097112,12.74,11.69,-9.8,1729477597932.0,0.0
-1.227518,-2.457429,5.094319,-57.68,-10.43,14.63,1729477597954.0,0.0
-0.863809,-6.192625,6.070591,-61.18,-14.91,37.939999,1729477597972.0,0.0
-3.572484,-7.640282,6.087341,-36.959999,-23.309999,37.66,1729477597992.0,0.0
-2.335395,-4.503292,5.261817,-25.76,-17.639999,42.630001,1729477598012.0,0.0
-1.799403,-7.587641,6.472585,-34.720001,-12.67,48.369999,1729477598032.0,0.0
-4.110869,-10.997414,6.4343,-14.63,-2.24,15.54,1729477598053.0,0.0
-6.474977,-9.217153,9.171689,76.510002,28.77,-10.36,1729477598072.0,0.0
-6.266802,-5.369494,7.250252,114.590004,41.16,-37.099998,1729477598092.0,0.0
-3.026921,-6.740582,7.147361,66.849998,49.98,-48.09,1729477598112.0,0.0
-3.684947,-7.298109,7.814958,64.120003,52.57,-62.439999,1729477598132.0,0.0
-3.462414,-3.299703,9.257831,93.029999,53.830002,-59.779999,1729477598164.0,0.0
-2.172683,0.464208,7.625926,60.900002,37.380001,-37.869999,1729477598171.0,0.0
-1.39023,0.019143,5.778666,-15.68,3.22,3.08,1729477598192.0,0.0
-0.42353,-3.883551,5.211568,-55.23,-11.83,41.720001,1729477598212.0,0.0
-3.816552,-8.114061,6.283553,-42.07,-22.33,51.939999,1729477598232.0,0.0
-3.426522,-5.809773,6.618547,-27.860001,-21.84,46.900002,1729477598254.0,0.0
-2.821138,-8.240881,8.901299,-27.370001,-20.93,50.68,1729477598272.0,0.0
-5.041678,-13.000205,7.812566,-36.68,-35.139999,13.86,1729477598292.0,0.0
-6.123233,-7.936993,7.54457,5.39,-13.23,-14.35,1729477598312.0,0.0
-7.290931,-6.539584,7.070791,46.41,-2.03,-32.759998,1729477598332.0,0.0
-3.656233,-5.209175,7.913064,21.84,12.39,-46.830002,1729477598354.0,0.0
-2.287539,-4.505685,8.188239,15.05,15.68,-48.23,1729477598372.0,0.0
-3.428915,-2.816352,8.99462,41.509998,12.39,-38.290001,1729477598392.0,0.0
-3.287738,-0.634098,8.73141,27.790001,6.09,-19.879999,1729477598411.0,0.0
-1.741975,-0.947558,5.548956,-67.480003,-29.610001,19.530001,1729477598440.0,0.0
-1.459622,-4.876573,6.585048,-75.949997,-33.32,42.630001,1729477598452.0,0.0
-3.622734,-6.625726,6.721439,-58.029999,-39.27,41.720001,1729477598472.0,0.0
-2.256432,-6.376873,6.836295,-28.77,-35.84,51.52,1729477598493.0,0.0
-1.502693,-9.872787,6.855437,-37.59,-35.0,45.43,1729477598512.0,0.0
-3.038885,-12.612568,7.415358,-36.959999,-31.43,12.25,1729477598533.0,0.0
-5.156533,-9.954143,6.348158,24.360001,-12.46,-14.35,1729477598554.0,0.0
-6.034698,-5.809773,6.285945,63.420002,8.68,-38.009998,1729477598573.0,0.0
-2.952743,-3.735196,6.673582,48.790001,31.639999,-40.040001,1729477598592.0,0.0
-2.383251,-4.295116,6.74776,20.719999,37.099998,-48.299999,1729477598612.0,0.0
-5.101498,-4.900501,7.695317,48.09,35.139999,-44.099998,1729477598633.0,0.0
-3.24706,-2.464607,7.767102,74.620003,30.799999,-35.490002,1729477598654.0,0.0
-1.45005,-0.370888,7.542177,50.610001,25.9,-14.7,1729477598673.0,0.0
-0.66999,-0.047856,6.735795,-17.08,5.6,15.61,1729477598692.0,0.0
-1.09352,-5.225924,6.752545,-72.660004,-10.22,45.990002,1729477598716.0,0.0
-2.842674,-9.207582,4.608576,-73.989998,-27.51,46.619999,1729477598733.0,0.0
-1.830509,-9.609575,8.279166,-16.59,-6.72,45.849998,1729477598759.0,0.0
-4.448257,-11.916256,9.611969,6.02,-8.4,7.42,1729477598772.0,0.0
-6.702296,-8.829515,7.77428,31.57,-8.47,-28.42,1729477598793.0,0.0
-8.872586,-5.192425,5.508278,69.93,8.4,-44.170002,1729477598813.0,0.0
-5.484349,-6.072984,8.185846,66.360001,28.280001,-66.360001,1729477598833.0,0.0
-4.13719,-6.508478,8.353344,70.139999,33.670002,-90.090004,1729477598858.0,0.0
-3.751946,-1.926222,9.626326,106.470001,40.040001,-85.959999,1729477598875.0,0.0
-2.557927,0.634098,9.51147,79.309998,39.060001,-68.599998,1729477598894.0,0.0
-0.062213,1.665405,5.290531,-22.82,9.73,-39.130001,1729477598914.0,0.0
1.832902,1.497907,5.4676,-48.720001,14.07,7.35,1729477598934.0,0.0
-0.98345,-3.306881,8.068598,-24.92,12.11,44.66,1729477598955.0,0.0
-3.364309,-2.459821,6.960721,-24.780001,-5.25,56.84,1729477598974.0,0.0
-2.392823,-5.723632,9.195618,-28.280001,-12.04,80.779999,1729477598995.0,0.0
-5.60399,-15.940985,7.188039,-58.450001,-39.200001,61.389999,1729477599014.0,0.0
-4.393222,-11.169697,5.273781,-24.219999,-27.93,4.83,1729477599035.0,0.0
-8.193025,-7.9681,7.23111,30.799999,-13.93,-19.18,1729477599055.0,0.0
-4.443472,-4.240082,8.865408,32.900002,9.03,-26.110001,1729477599074.0,0.0
-1.59362,-3.783052,6.661618,-12.6,4.69,-48.720001,1729477599094.0,0.0
-4.26401,-5.032106,6.695118,-4.13,8.47,-42.07,1729477599114.0,0.0
-3.031706,-1.947758,7.73121,37.170002,20.51,-37.380001,1729477599134.0,0.0
-2.773281,-0.138784,8.140383,34.650002,20.09,-21.77,1729477599160.0,0.0
-1.122234,0.851845,5.752346,-29.610001,-0.21,6.51,1729477599173.0,0.0
-0.650848,-2.550749,7.606783,-53.27,-5.46,44.59,1729477599193.0,0.0
-3.905087,-7.738388,7.977671,-62.439999,-23.870001,48.299999,1729477599214.0,0.0
-3.146562,-5.848059,7.130611,-53.34,-25.48,47.389999,1729477599234.0,0.0
-1.337588,-6.929615,6.865008,-49.630001,-19.040001,51.59,1729477599255.0,0.0
-2.316252,-9.664611,7.202396,-66.010002,-12.88,30.870001,1729477599273.0,0.0
-6.393622,-15.180067,9.24826,-14.91,-14.14,5.11,1729477599293.0,0.0
-8.556733,-10.447062,6.67119,46.970001,-11.9,-47.110001,1729477599313.0,0.0
-5.328816,-1.734797,6.82433,73.220001,25.9,-51.66,1729477599334.0,0.0
-2.9336,-4.902894,7.039684,11.55,17.99,-53.619999,1729477599355.0,0.0
-2.837888,-4.036692,8.360522,3.85,10.99,-40.950001,1729477599374.0,0.0
-1.988436,-1.98365,8.587841,26.530001,17.57,-23.73,1729477599394.0,0.0
-0.363709,0.366102,5.754738,-19.530001,5.81,-5.04,1729477599413.0,0.0
-0.165105,-1.004985,5.773881,-49.98,4.2,30.380001,1729477599433.0,0.0
-4.290331,-7.676175,5.587241,-52.639999,-10.57,44.869999,1729477599454.0,0.0
-3.488736,-6.053841,5.807381,-5.11,-7.7,42.560001,1729477599473.0,0.0
-2.313859,-5.302495,8.35813,36.889999,13.79,50.470001,1729477599493.0,0.0
-4.194618,-11.846866,7.858029,4.9,1.89,34.509998,1729477599514.0,0.0
-5.249853,-13.907085,8.575876,38.290001,10.99,-4.97,1729477599533.0,0.0
-8.152347,-10.432706,8.839087,117.529999,30.17,-49.490002,1729477599556.0,0.0
-6.309873,-2.79721,8.683553,125.160004,44.099998,-69.860001,1729477599573.0,0.0
-2.59382,-1.696511,5.998806,65.870003,34.299999,-69.720001,1729477599593.0,0.0
-3.596412,-3.972085,6.652047,40.459999,25.690001,-59.57,1729477599613.0,0.0
-2.012364,0.311067,8.843873,58.52,35.07,-38.57,1729477599634.0,0.0
-1.842474,0.512064,9.743573,4.06,15.96,-9.03,1729477599655.0,0.0
-0.808774,-2.349752,7.51107,-64.330002,-14.84,19.040001,1729477599673.0,0.0
-3.17049,-7.276574,5.237889,-53.619999,-21.49,32.900002,1729477599694.0,0.0
-4.436293,-5.022535,6.259624,-5.74,-14.21,27.16,1729477599713.0,0.0
-2.897708,-5.070391,7.84128,8.68,-3.57,35.700001,1729477599734.0,0.0
-2.411965,-6.709475,6.726225,-8.05,-3.57,25.9,1729477599759.0,0.0
-4.498507,-8.190632,10.482956,21.559999,6.58,13.51,1729477599773.0,0.0
-8.202596,-8.693125,10.313066,56.77,0.28,-12.67,1729477599793.0,0.0
-6.821937,-5.149354,8.114061,41.02,-8.54,-36.540001,1729477599814.0,0.0
-2.349752,-2.079363,7.568498,26.880001,6.93,-41.299999,1729477599834.0,0.0
-2.675175,-2.684747,7.9346,-2.73,7.07,-38.5,1729477599855.0,0.0
-3.235096,-4.086941,7.391429,-29.049999,-5.46,-15.190001,1729477599873.0,0.0
-2.835495,-5.938986,7.640282,-23.309999,-13.3,-12.46,1729477599893.0,0.0
-2.0004,-2.921637,8.977871,-5.39,-13.72,-8.96,1729477599913.0,0.0
-1.51705,-0.976272,8.501699,-27.65,-27.16,12.53,1729477599934.0,0.0
-2.352145,-4.362115,4.989035,-67.550003,-46.200001,32.130001,1729477599954.0,0.0
-3.215954,-5.563312,4.369294,-63.77,-39.830002,37.73,1729477599973.0,0.0
-3.407379,-4.412365,7.690532,-24.08,-15.75,36.75,1729477599993.0,0.0
-2.151148,-3.115455,7.336394,-10.85,-6.79,33.459999,1729477600013.0,0.0
-3.381058,-6.106483,8.953942,-9.31,-3.22,31.639999,1729477600033.0,0.0
-6.197411,-8.784052,8.477771,2.45,-1.05,20.51,1729477600055.0,0.0
-6.82433,-10.281959,9.470792,21.629999,2.1,-11.27,1729477600073.0,0.0
-3.445665,-6.463014,8.178668,30.17,14.07,-41.16,1729477600093.0,0.0
-1.902294,-4.68754,7.185646,25.059999,22.33,-43.889999,1729477600114.0,0.0
-3.055635,-2.883351,7.826923,6.02,15.26,-41.650002,1729477600133.0,0.0
-2.371287,-1.272982,7.944171,-9.59,14.98,-16.309999,1729477600155.0,0.0
-2.328217,-3.426522,7.188039,-42.420002,-3.78,0.28,1729477600174.0,0.0
-1.009771,-4.259224,7.408179,-38.5,-12.32,14.14,1729477600193.0,0.0
-0.849452,-3.371487,7.735995,-14.98,-8.82,23.52,1729477600214.0,0.0
-4.15394,-4.35733,7.953743,-38.43,-18.48,31.5,1729477600234.0,0.0
-4.500899,-2.74696,8.874979,-81.129997,-28.0,41.509998,1729477600254.0,0.0
-2.452643,-4.051049,6.601797,-106.120003,-36.540001,52.360001,1729477600273.0,0.0
-1.4668,-4.991428,3.766303,-98.349998,-36.75,49.84,1729477600293.0,0.0
-2.251646,-3.534199,6.269196,-28.49,-6.72,65.730003,1729477600313.0,0.0
-6.106483,-5.218746,8.252845,-23.1,-5.53,69.440002,1729477600334.0,0.0
-6.429514,-5.599205,10.432706,-35.700001,-15.05,63.349998,1729477600355.0,0.0
-5.632704,-6.271588,9.45165,-84.419998,-23.940001,52.990002,1729477600373.0,0.0
-5.146961,-8.190632,7.896315,-127.540001,-48.23,37.450001,1729477600393.0,0.0
-4.173083,-8.236095,6.939186,-119.279999,-50.400002,27.299999,1729477600413.0,0.0
-3.838088,-7.156933,6.118448,-112.139999,-47.459999,22.75,1729477600433.0,0.0
-3.972085,-6.132804,5.546563,-144.410004,-51.099998,19.6,1729477600453.0,0.0
-3.744767,-5.986843,6.101698,-190.050003,-69.790001,24.360001,1729477600480.0,0.0
-3.321238,-7.350751,5.826523,-219.240005,-88.550003,33.18,1729477600493.0,0.0
-2.976671,-8.879765,2.333002,-243.25,-98.629997,20.440001,1729477600514.0,0.0
-2.830709,-11.016556,-0.375673,-248.080002,-88.550003,9.66,1729477600533.0,0.0
-1.598405,-11.595619,-1.548156,-244.300003,-55.720001,-8.54,1729477600555.0,0.0
-1.359123,-11.531013,-1.004985,-233.240005,-11.2,-19.18,1729477600573.0,0.0
-1.529014,-11.265409,-1.201197,-208.389999,21.700001,-34.720001,1729477600594.0,0.0
-0.832702,-11.363515,-1.998007,-152.949997,40.529999,-36.959999,1729477600613.0,0.0
-0.904487,-10.360922,-1.292124,-94.290001,52.080002,-33.040001,1729477600634.0,0.0
-1.038485,-8.870193,-0.849452,-33.880001,55.860001,-28.700001,1729477600656.0,0.0
-1.581656,-7.592427,-0.22014,27.02,63.77,-18.9,1729477600673.0,0.0
-1.811367,-7.302894,1.117448,53.41,62.16,-4.83,1729477600693.0,0.0
-2.514857,-7.678568,1.660619,52.990002,61.950001,3.71,1729477600714.0,0.0
-3.634698,-8.523234,0.935594,35.700001,54.25,6.65,1729477600734.0,0.0
-5.297709,-9.128618,1.244268,34.09,43.119999,10.85,1729477600758.0,0.0
-5.65424,-10.956735,3.316452,76.860001,35.420002,18.27,1729477600776.0,0.0
-5.268995,-10.200603,4.9675,55.580002,28.210001,7.07,1729477600795.0,0.0
-5.883951,-10.966305,4.232903,-31.780001,14.42,-17.639999,1729477600816.0,0.0
-6.252446,-11.760723,0.789631,-127.68,4.9,-43.189999,1729477600838.0,0.0
-3.787838,-9.286544,-1.684547,-158.270004,16.309999,-53.200001,1729477600857.0,0.0
-1.031307,-10.956735,-0.827917,-83.440002,20.93,-46.759998,1729477600875.0,0.0
1.739582,-9.195618,1.9669,29.26,13.72,-51.029999,1729477600896.0,0.0
1.785046,-6.400801,4.457829,103.389999,35.91,-29.190001,1729477600916.0,0.0
1.428515,-6.829116,5.201996,103.110001,20.09,-13.16,1729477600935.0,0.0
0.315853,-6.943972,5.431707,36.049999,-2.87,0.56,1729477600959.0,0.0
-0.157926,-5.728417,3.751946,-46.830002,-38.709999,22.190001,1729477600975.0,0.0
-0.531207,-5.592027,1.284946,-56.349998,-50.68,43.400002,1729477600995.0,0.0
-2.07697,-7.336394,-1.45005,-47.040001,-55.439999,59.5,1729477601017.0,0.0
-6.508478,-14.435899,-0.342174,-11.34,-61.670002,75.389999,1729477601035.0,0.0
-9.96132,-14.634504,-1.136591,-76.860001,-57.470001,45.709999,1729477601059.0,0.0
-7.271788,-13.165311,-6.005985,-142.449997,-14.7,2.52,1729477601076.0,0.0
-4.847858,-15.249458,-6.228518,-109.690002,14.0,-30.52,1729477601095.0,0.0
-3.57727,-15.900306,-2.572284,32.48,46.970001,-43.330002,1729477601115.0,0.0
-3.235096,-8.508877,0.143569,122.989998,71.540001,-58.66,1729477601137.0,0.0
-1.18684,-7.233503,3.814159,168.139999,45.920002,-53.130001,1729477601156.0,0.0
0.342174,-5.479564,5.749953,141.330002,23.799999,-45.43,1729477601174.0,0.0
1.476372,-0.715454,5.383851,86.239998,8.4,-24.15,1729477601200.0,0.0
1.282553,-2.524428,6.063413,16.24,-18.200001,13.93,1729477601214.0,0.0
-1.426122,-6.38405,1.543371,-112.139999,-27.93,23.52,1729477601235.0,0.0
-2.907279,-11.490334,-0.605384,-119.699997,-39.41,32.200001,1729477601259.0,0.0
-0.557528,-8.95155,-2.792424,-17.57,-41.439999,44.52,1729477601275.0,0.0
-3.871587,-11.600404,-0.138784,94.360001,-20.719999,60.060001,1729477601294.0,0.0
-8.831908,-15.194424,-0.552742,10.15,-21.210001,43.959999,1729477601315.0,0.0
-7.357929,-14.849857,-3.914658,-82.18,-15.05,5.74,1729477601335.0,0.0
-3.859623,-15.053247,-3.361916,-73.010002,3.78,-19.950001,1729477601355.0,0.0
-3.400201,-13.316057,-0.435494,21.98,36.68,-40.529999,1729477601376.0,0.0
-4.086941,-9.518648,1.138984,66.919998,59.779999,-53.970001,1729477601394.0,0.0
-2.667997,-3.708875,2.749353,4.83,53.900002,-49.84,1729477601414.0,0.0
2.423929,-6.573084,4.9675,37.73,8.19,-44.939999,1729477601436.0,0.0
2.361716,-4.326223,6.819544,55.720001,14.98,-19.950001,1729477601455.0,0.0
0.009571,-2.919244,6.60419,17.92,-4.41,12.39,1729477601474.0,0.0
-1.768296,-4.98425,1.816152,-103.669998,-24.15,25.34,1729477601494.0,0.0
-2.888137,-11.102697,0.148355,-130.059998,-31.5,31.92,1729477601514.0,0.0
-1.85683,-9.111869,-1.624727,-75.25,-39.48,40.880001,1729477601535.0,0.0
-1.79701,-9.013763,-0.863809,16.870001,-30.870001,50.889999,1729477601558.0,0.0
-5.496314,-11.92822,-0.655633,18.129999,-32.34,42.630001,1729477601574.0,0.0
-5.690133,-15.550954,-2.579463,7.63,-28.98,40.32,1729477601594.0,0.0
-7.156933,-17.213966,-4.919643,-63.490002,-10.29,-1.96,1729477601614.0,0.0
-3.486342,-14.591432,-0.476172,-44.380001,15.33,-18.059999,1729477601635.0,0.0
-3.452843,-10.313066,1.885544,94.360001,63.91,-55.02,1729477601657.0,0.0
-4.194618,-8.250452,2.732604,74.269997,65.590004,-64.540001,1729477601675.0,0.0
-2.775674,-1.270589,-1.095913,-55.510002,54.18,-56.490002,1729477601694.0,0.0
2.431108,-8.484949,5.206782,9.73,7.63,-30.73,1729477601714.0,0.0
3.632305,-5.111069,6.218946,76.370003,11.55,-16.450001,1729477601735.0,0.0
-0.624527,-2.971886,7.073184,84.279999,11.48,18.549999,1729477601759.0,0.0
-3.120241,-4.898108,0.9667,-65.449997,-23.379999,32.41,1729477601774.0,0.0
-3.28056,-11.078769,-0.705883,-133.910004,-43.330002,33.529999,1729477601794.0,0.0
-1.485943,-9.542577,-4.290331,-92.400002,-53.200001,42.98,1729477601814.0,0.0
-2.301895,-12.8686,-3.448057,31.290001,-35.84,51.939999,1729477601837.0,0.0
-7.365108,-15.797415,-1.916651,58.66,-27.299999,30.450001,1729477601858.0,0.0
-7.125826,-13.995619,-2.270789,10.22,-3.29,9.59,1729477601874.0,0.0
-4.204189,-13.119846,-2.907279,-34.790001,19.32,-16.1,1729477601894.0,0.0
-4.165904,-13.69891,-0.337388,21.629999,48.09,-40.670002,1729477601916.0,0.0
-5.075177,-10.583455,1.473979,82.389999,66.639999,-52.080002,1729477601935.0,0.0
-4.405186,-5.608776,2.467,42.98,62.860001,-61.599998,1729477601956.0,0.0
0.969093,-7.152147,4.089334,42.560001,17.92,-60.060001,1729477601974.0,0.0
0.425922,-3.723232,5.422136,37.59,10.64,-36.189999,1729477601994.0,0.0
0.748954,-2.713461,5.498707,17.15,-17.92,-7.35,1729477602014.0,0.0
-0.179462,-6.443871,3.486342,-51.799999,-34.720001,12.81,1729477602036.0,0.0
-1.818545,-9.21476,0.909273,-90.440002,-52.080002,23.799999,1729477602056.0,0.0
-0.454636,-8.350951,-2.194218,-60.549999,-65.239998,34.439999,1729477602074.0,0.0
-0.014357,-8.561519,-3.699304,2.94,-59.990002,49.279999,1729477602094.0,0.0
-2.811567,-10.681561,-3.720839,38.709999,-42.420002,64.959999,1729477602114.0,0.0
-7.77428,-19.427328,0.318245,43.189999,-17.99,53.549999,1729477602134.0,0.0
-7.477571,-17.721243,-5.371887,-38.5,4.9,-10.71,1729477602156.0,0.0
-3.419343,-14.084153,-3.407379,34.439999,63.630001,-32.549999,1729477602174.0,0.0
-4.149154,-11.600404,0.689133,114.870003,101.290001,-61.670002,1729477602194.0,0.0
-4.527221,-6.463014,4.524827,118.720001,110.18,-67.129997,1729477602214.0,0.0
-2.457429,-4.606184,8.38445,103.739998,83.650002,-57.049999,1729477602234.0,0.0
0.284746,-2.663212,7.616355,54.670002,40.18,-51.240002,1729477602256.0,0.0
1.48355,-1.294517,7.216753,30.1,17.780001,-6.86,1729477602274.0,0.0
1.404587,-3.323631,4.103691,-9.45,-10.71,29.610001,1729477602294.0,0.0
-2.924029,-8.700303,2.679961,-121.660004,-48.02,47.810001,1729477602314.0,0.0
-1.76351,-9.84168,-0.768096,-94.639999,-67.199997,62.299999,1729477602336.0,0.0
-2.129612,-10.018748,-2.462214,-61.810001,-64.68,60.48,1729477602355.0,0.0
-6.472585,-16.240088,-1.847259,-44.380001,-49.84,54.529999,1729477602374.0,0.0
-8.640482,-17.170895,-4.871787,-77.559998,-35.630001,17.08,1729477602394.0,0.0
-5.601598,-13.505091,-5.752346,-66.919998,15.4,-12.25,1729477602414.0,0.0
-4.800002,-13.694124,-2.586641,-7.35,40.810001,-44.029999,1729477602434.0,0.0
-5.056034,-11.667403,0.385244,52.849998,63.07,-62.580002,1729477602455.0,0.0
-3.701697,-6.518049,1.335195,56.209999,66.290001,-70.840004,1729477602474.0,0.0
-0.777667,-7.159326,8.420342,62.510002,34.509998,-54.740002,1729477602494.0,0.0
2.07697,-4.24726,6.281159,53.130001,13.86,-47.25,1729477602522.0,0.0
1.265803,-2.103291,5.733203,22.889999,7.7,-14.0,1729477602534.0,0.0
0.315853,-3.948158,5.321638,-35.630001,-24.710001,17.85,1729477602555.0,0.0
-1.07677,-8.717053,1.09352,-108.779999,-41.720001,30.17,1729477602577.0,0.0
-2.146362,-10.700702,-1.134198,-107.239998,-55.02,34.439999,1729477602594.0,0.0
-0.567099,-8.650054,-3.627519,-31.99,-56.139999,47.389999,1729477602614.0,0.0
-5.362316,-14.825929,-2.818745,-3.92,-45.43,44.170002,1729477602636.0,0.0
-8.154739,-16.778471,-3.058028,-42.84,-34.16,21.629999,1729477602658.0,0.0
-4.84068,-12.282358,-5.211568,-56.07,9.66,-6.86,1729477602674.0,0.0
-3.661019,-13.517055,-2.907279,8.54,35.77,-32.549999,1729477602696.0,0.0
-4.388437,-12.186646,0.445065,72.730003,63.98,-46.27,1729477602714.0,0.0
-4.067799,-6.410372,0.959522,71.330002,71.68,-57.400002,1729477602735.0,0.0
-0.851845,-8.281559,7.190433,86.239998,34.580002,-43.119999,1729477602762.0,0.0
1.261017,-5.563312,7.034898,52.080002,20.16,-46.41,1729477602775.0,0.0
1.198804,-1.160519,4.919643,7.21,1.26,-17.5,1729477602796.0,0.0
1.294517,-4.161119,4.551149,-28.210001,-23.799999,22.610001,1729477602898.0,0.0
-1.847259,-9.463614,1.526621,-100.379997,-34.09,31.710001,1729477602898.0,0.0
-3.18724,-11.014162,-1.65344,-75.18,-47.110001,36.610001,1729477602899.0,0.0
-0.294317,-8.319844,-2.785245,9.38,-45.360001,46.060001,1729477602899.0,0.0
-2.557927,-9.47797,-4.041477,52.43,-36.189999,55.860001,1729477602900.0,0.0
-7.776673,-15.483955,-1.038485,26.460001,-26.530001,58.240002,1729477602917.0,0.0
-8.508877,-18.305092,-0.859023,-13.86,-23.030001,18.48,1729477602936.0,0.0
-5.216353,-13.942977,-3.579663,-44.869999,18.34,-24.08,1729477602957.0,0.0
-3.704089,-12.748959,-1.387837,28.210001,37.73,-49.91,1729477602976.0,0.0
-4.21376,-10.724631,1.395016,87.010002,57.889999,-59.920002,1729477602999.0,0.0
-4.108476,-4.570292,1.512264,26.18,66.150002,-64.68,1729477603018.0,0.0
2.342573,-4.443472,5.60399,12.88,34.299999,-44.310001,1729477603148.0,0.0
1.485943,-1.588834,4.76411,8.12,9.8,-40.670002,1729477603150.0,0.0
1.160519,-4.381258,4.268795,19.809999,4.48,0.84,1729477603151.0,0.0
-1.737189,-9.576077,2.404787,-32.34,-34.509998,34.16,1729477603152.0,0.0
-1.153341,-10.889735,-1.426122,-111.580002,-45.779999,47.459999,1729477603153.0,0.0
-1.414158,-9.968499,-2.206182,-62.09,-53.900002,58.52,1729477603161.0,0.0
-6.541977,-14.933606,-2.835495,-21.42,-27.09,65.590004,1729477603226.0,0.0
-10.954341,-19.652252,-3.63709,-69.650002,-35.77,17.99,1729477603228.0,0.0
-5.91745,-14.297115,-5.630312,-39.41,30.24,-21.139999,1729477603229.0,0.0
-3.952943,-11.05484,0.320638,95.410004,57.400002,-59.360001,1729477603239.0,0.0
-4.486543,-8.91805,2.39043,107.660004,66.220001,-64.610001,1729477603256.0,0.0
-2.979064,-6.04427,6.443871,49.630001,40.950001,-61.25,1729477603275.0,0.0
-0.354138,-6.092126,5.199604,23.799999,9.38,-55.16,1729477603296.0,0.0
-0.473779,-5.178068,3.991228,-5.39,4.55,-38.290001,1729477603316.0,0.0
0.301496,-2.847459,2.801995,-19.6,-3.15,-12.32,1729477603336.0,0.0
-0.533599,-6.403193,2.991028,-35.700001,-18.059999,16.66,1729477603358.0,0.0
-2.715853,-9.958927,2.596212,-49.139999,-23.52,27.16,1729477603375.0,0.0
-1.555335,-8.145168,-0.533599,-18.27,-25.76,37.099998,1729477603395.0,0.0
-0.256032,-7.611568,-1.5003,7.35,-23.940001,45.290001,1729477603416.0,0.0
-1.636691,-9.635897,-2.775674,2.94,-23.24,61.110001,1729477603437.0,0.0
-5.606383,-15.141781,-1.083949,-7.56,-21.700001,58.939999,1729477603457.0,0.0
-7.850852,-17.48914,-1.177269,-47.740002,-22.469999,31.01,1729477603475.0,0.0
-5.87438,-14.612967,-3.792624,-89.25,12.6,-15.75,1729477603495.0,0.0
-3.68734,-14.155938,-3.550949,-44.799999,33.880001,-46.970001,1729477603518.0,0.0
-3.826123,-11.107484,-0.892523,14.77,58.029999,-62.23,1729477603536.0,0.0
-3.120241,-5.07757,7.977671,37.310001,67.129997,-60.27,1729477603567.0,0.0
0.713061,-4.701896,7.121039,98.209999,15.12,-54.529999,1729477603576.0,0.0
1.509871,0.234497,5.613562,60.41,1.75,-18.129999,1729477603727.0,0.0
1.957329,-2.122434,5.132604,-7.56,-40.110001,23.379999,1729477603727.0,0.0
-1.564906,-7.49432,2.333002,-149.100006,-60.689999,38.779999,1729477603727.0,0.0
-3.172883,-11.88515,-2.299503,-161.419998,-68.32,35.91,1729477603728.0,0.0
-0.648455,-10.475778,-5.010571,-78.120003,-68.669998,50.889999,1729477603728.0,0.0
-2.074577,-11.487941,-4.309474,10.36,-50.330002,58.59,1729477603728.0,0.0
-6.924829,-14.802001,-3.163311,29.469999,-17.43,46.130001,1729477603728.0,0.0
-9.75793,-18.479769,-4.220939,0.35,6.65,9.24,1729477603735.0,0.0
-6.695118,-14.364115,-4.725825,-34.02,43.119999,-49.420002,1729477603758.0,0.0
-3.723232,-12.375679,-0.957129,5.6,54.040001,-65.940002,1729477603778.0,0.0
-3.574877,-9.564112,1.067199,21.98,63.91,-81.970001,1729477603795.0,0.0
-1.998007,-5.599205,1.155733,25.690001,56.279999,-69.860001,1729477603816.0,0.0
1.885544,-2.739782,6.436693,62.93,22.26,-52.080002,1729477603837.0,0.0
4.345366,0.464208,6.424729,100.730003,1.89,-10.43,1729477603857.0,0.0
1.596013,-2.801995,5.175675,43.330002,-18.129999,32.41,1729477603877.0,0.0
-3.055635,-9.410972,0.591027,-102.059998,-34.02,41.93,1729477603896.0,0.0
-1.916651,-11.485549,-5.228317,-150.5,-63.490002,52.5,1729477603917.0,0.0
-2.266003,-15.041284,-7.166504,-69.510002,-56.91,52.57,1729477603936.0,0.0
-5.606383,-17.278572,-5.594419,24.08,-13.16,28.280001,1729477603959.0,0.0
-7.9346,-16.744972,-3.397808,77.980003,26.32,4.2,1729477603975.0,0.0
-6.994221,-11.394621,-2.411965,50.540001,55.23,-40.950001,1729477603997.0,0.0
-4.218546,-9.408579,0.311067,23.030001,50.400002,-58.869999,1729477604017.0,0.0
-2.993421,-9.906286,1.622334,19.67,45.639999,-62.16,1729477604036.0,0.0
-1.787439,-7.037291,1.631905,14.21,41.439999,-59.920002,1729477604058.0,0.0
0.586242,-5.426922,5.436492,48.860001,19.18,-45.639999,1729477604077.0,0.0
2.833102,-1.737189,5.319244,66.849998,-2.45,-19.67,1729477604097.0,0.0
2.29711,-3.067599,4.424329,35.700001,-23.450001,18.48,1729477604115.0,0.0
-1.122234,-6.38405,2.081756,-84.559998,-32.48,39.759998,1729477604138.0,0.0
-2.758924,-10.454242,-1.567299,-144.690002,-44.240002,43.470001,1729477604157.0,0.0
-1.866402,-10.937593,-5.666204,-122.989998,-51.450001,46.549999,1729477604175.0,0.0
-1.849652,-11.688939,-5.91745,-37.099998,-42.209999,53.48,1729477604196.0,0.0
-5.010571,-14.227723,-4.630112,20.58,-13.3,41.860001,1729477604215.0,0.0
-9.073583,-16.512869,-3.376273,24.92,11.34,15.4,1729477604238.0,0.0
-5.814559,-12.349358,-2.502892,-14.21,37.59,-48.790001,1729477604260.0,0.0
-3.29731,-10.856236,0.354138,15.89,46.549999,-61.18,1729477604276.0,0.0
-2.462214,-8.250452,1.007378,37.799999,50.959999,-67.620003,1729477604296.0,0.0
-0.715454,-7.771888,5.761917,68.669998,33.529999,-50.610001,1729477604316.0,0.0
1.713261,-4.661219,6.597012,60.830002,2.24,-44.170002,1729477604337.0,0.0
2.586641,-1.112662,4.108476,7.21,-12.95,-17.01,1729477604359.0,0.0
2.163112,-4.359723,2.15354,-51.310001,-36.119999,23.870001,1729477604376.0,0.0
-1.172483,-9.107083,-1.079163,-132.300003,-35.98,37.450001,1729477604395.0,0.0
-3.091527,-12.916457,-3.053242,-103.879997,-39.200001,39.34,1729477604416.0,0.0
-1.507478,-10.734202,-5.079963,-23.1,-37.939999,41.369999,1729477604438.0,0.0
-1.512264,-9.822537,-3.720839,59.639999,-28.700001,47.670002,1729477604456.0,0.0
-4.510471,-10.052249,-3.519842,65.519997,-15.4,46.549999,1729477604476.0,0.0
-7.556533,-13.897513,-1.667797,7.63,-5.81,38.990002,1729477604495.0,0.0
-8.135597,-15.641882,-4.321437,-87.360001,1.96,-10.5,1729477604516.0,0.0
-4.756931,-14.02194,-3.553342,-48.93,26.530001,-39.200001,1729477604535.0,0.0
-2.833102,-10.683953,-1.478764,27.93,47.599998,-56.139999,1729477604564.0,0.0
-2.134398,-4.371687,1.098306,28.84,57.889999,-52.080002,1729477604575.0,0.0
0.638884,-6.486942,6.202196,71.959999,14.7,-28.77,1729477604597.0,0.0
2.053042,-4.405186,4.826324,36.049999,-10.08,-20.440001,1729477604616.0,0.0
0.9667,-3.328416,3.292524,-32.759998,-31.219999,6.09,1729477604638.0,0.0
-0.277567,-6.611369,-1.067199,-106.889999,-47.110001,31.08,1729477604659.0,0.0
-1.055235,-10.707881,-4.634897,-124.669998,-44.52,38.709999,1729477604676.0,0.0
-2.699104,-13.079168,-4.455436,-58.73,-36.330002,41.02,1729477604698.0,0.0
-2.455036,-9.085547,-5.556134,26.32,-20.93,46.689999,1729477604716.0,0.0
-3.481557,-10.695917,-3.988836,44.310001,-16.309999,46.549999,1729477604737.0,0.0
-6.606583,-12.847065,-2.804388,-9.17,-9.59,28.84,1729477604762.0,0.0
-6.836295,-13.282558,-4.426722,-33.110001,4.55,9.1,1729477604777.0,0.0
-5.312066,-12.949955,-5.003392,-56.139999,18.549999,-23.1,1729477604799.0,0.0
-4.398008,-12.854243,-3.366701,-18.27,40.670002,-45.639999,1729477604818.0,0.0
-4.065405,-10.882557,-0.696311,51.170002,61.950001,-51.799999,1729477604837.0,0.0
-0.926022,-5.237889,5.257031,79.239998,56.91,-50.75,1729477604861.0,0.0
1.349552,-4.003192,5.972485,55.510002,8.54,-31.85,1729477604876.0,0.0
1.428515,-4.307081,4.479364,-17.43,-18.9,-12.6,1729477604897.0,0.0
-0.533599,-5.659025,0.61017,-87.57,-39.200001,10.71,1729477604918.0,0.0
-1.529014,-9.080762,-3.718446,-113.75,-45.150002,20.65,1729477604939.0,0.0
-1.832902,-11.13859,-5.943772,-91.0,-40.810001,29.540001,1729477604959.0,0.0
-2.167897,-13.057633,-4.76411,-10.36,-31.57,29.889999,1729477604976.0,0.0
-2.335395,-8.216952,-5.347959,35.139999,-11.27,26.110001,1729477604998.0,0.0
-1.914258,-7.149754,-3.23031,61.459999,-12.46,37.59,1729477605017.0,0.0
-3.139383,-7.834101,-0.131605,50.889999,-15.190001,42.98,1729477605038.0,0.0
-4.26401,-7.068398,1.397408,43.259998,-22.540001,48.23,1729477605059.0,0.0
-4.067799,-7.424929,1.586441,36.330002,-33.110001,52.220001,1729477605078.0,0.0
-4.441079,-8.786445,1.191626,9.38,-42.279999,52.43,1729477605099.0,0.0
-5.998806,-9.530612,2.146362,-35.279999,-55.580002,51.799999,1729477605117.0,0.0
-7.477571,-10.360922,-0.569492,-122.849998,-61.18,38.57,1729477605139.0,0.0
-6.941578,-10.557133,-4.151547,-235.479996,-70.07,0.14,1729477605159.0,0.0
-6.053841,-8.750552,-5.206782,-333.899994,-58.029999,-22.540001,1729477605177.0,0.0
-4.541577,-7.905886,-6.553941,-369.040009,-49.0,-34.02,1729477605198.0,0.0
-2.656033,-7.676175,-9.657433,-330.75,-37.66,-35.630001,1729477605220.0,0.0
-1.95015,-7.188039,-11.203196,-250.320007,-12.46,-19.460001,1729477605239.0,0.0
-2.036292,-6.23091,-11.016556,-199.639999,18.969999,-9.73,1729477605259.0,0.0
-2.45025,-6.015556,-10.49492,-180.529999,45.990002,-4.06,1729477605282.0,0.0
-2.244468,-6.372087,-9.552148,-167.509995,56.490002,1.4,1729477605299.0,0.0
-1.485943,-6.675975,-8.240881,-155.330002,54.740002,1.26,1729477605317.0,0.0
-0.894916,-6.477371,-7.735995,-151.550003,55.650002,-4.83,1729477605338.0,0.0
-0.418744,-8.338986,-5.486742,-137.270004,51.59,-9.73,1729477605358.0,0.0
-0.646062,-8.405986,-5.197211,-144.130005,41.790001,-19.18,1729477605378.0,0.0
-1.37348,-7.135397,-6.374479,-117.389999,8.82,-26.950001,1729477605399.0,0.0
-1.785046,-5.079963,-7.525427,-112.980003,-6.72,-37.240002,1729477605417.0,0.0
-2.567499,-4.220939,-7.140182,-96.529999,-13.16,-35.0,1729477605438.0,0.0
-3.864408,-3.893122,-10.360922,-44.52,-15.47,-27.719999,1729477605458.0,0.0
-4.773681,-0.904487,-12.026326,-8.82,-7.0,-21.77,1729477605479.0,0.0
-5.118248,0.301496,-12.035898,-21.700001,23.1,8.96,1729477605499.0,0.0
-3.538985,-1.177269,-11.626726,-30.73,36.959999,29.120001,1729477605517.0,0.0
-3.538985,-1.72044,-11.284552,-4.55,51.66,41.860001,1729477605539.0,0.0
-3.160919,-1.311267,-8.422735,31.15,66.080002,60.900002,1729477605559.0,0.0
-1.820938,-3.974478,-7.408179,33.18,62.439999,68.599998,1729477605579.0,0.0
-1.12702,-7.848458,-4.223332,19.809999,52.779999,59.709999,1729477605597.0,0.0
-1.655833,-12.58864,-0.059821,-13.09,31.43,18.549999,1729477605617.0,0.0
-3.199204,-9.887143,-1.531406,-35.07,-4.76,-44.59,1729477605639.0,0.0
-3.605984,-3.931407,-5.312066,-40.110001,-55.580002,-84.840004,1729477605659.0,0.0
-3.196811,-3.117848,-10.758131,-85.610001,-78.75,-99.959999,1729477605679.0,0.0
-3.278167,-0.753739,-12.059827,-56.77,-71.050003,-92.260002,1729477605699.0,0.0
-3.878766,3.079563,-13.543377,4.76,-52.639999,-62.860001,1729477605717.0,0.0
-4.022335,5.419744,-15.002998,3.92,-30.380001,-18.690001,1729477605737.0,0.0
-2.751746,2.366502,-13.655839,9.73,-0.91,32.900002,1729477605761.0,0.0
-1.605584,-1.579263,-12.193825,32.48,19.530001,59.290001,1729477605777.0,0.0
-1.782653,-0.787239,-9.111869,38.290001,40.529999,62.510002,1729477605797.0,0.0
-1.708475,-5.24746,-7.238289,24.219999,38.150002,68.040001,1729477605817.0,0.0
-1.68694,-8.930015,-5.65424,-1.75,24.710001,53.549999,1729477605838.0,0.0
-3.048456,-11.856436,-4.125226,-16.24,10.57,16.870001,1729477605860.0,0.0
-4.039084,-10.19821,-6.245267,-38.220001,-10.5,-39.130001,1729477605879.0,0.0
-3.869194,-6.460621,-6.948757,-31.08,-32.200001,-78.540001,1729477605897.0,0.0
-3.328416,-3.268596,-9.265009,-47.880001,-43.68,-97.440002,1729477605917.0,0.0
-3.175276,-1.148555,-10.356135,-57.889999,-43.75,-93.519997,1729477605940.0,0.0
-2.842674,1.581656,-12.16511,-14.07,-39.130001,-68.529999,1729477605959.0,0.0
-3.129812,4.335794,-14.988641,21.49,-21.700001,-29.33,1729477605977.0,0.0
-3.486342,3.132205,-13.473984,24.57,9.8,21.42,1729477605997.0,0.0
-2.715853,0.569492,-11.629118,37.029999,24.57,47.880001,1729477606017.0,0.0
-3.897908,1.064806,-8.669197,33.529999,42.84,51.59,1729477606037.0,0.0
-2.897708,-1.524228,-6.903293,-5.74,33.599998,54.740002,1729477606059.0,0.0
-1.655833,-5.843273,-7.042077,-23.17,25.200001,45.5,1729477606077.0,0.0
-1.617548,-9.075976,-4.527221,-16.379999,14.21,30.870001,1729477606097.0,0.0
-3.402594,-9.183653,-3.287738,-14.77,0.84,-3.57,1729477606117.0,0.0
-4.563113,-6.740582,-6.288338,-51.170002,-24.99,-43.959999,1729477606137.0,0.0
-3.393023,-4.192225,-9.154939,-85.120003,-47.18,-66.779999,1729477606158.0,0.0
-2.335395,-4.589434,-9.745967,-74.199997,-48.580002,-78.470001,1729477606177.0,0.0
-2.086541,-2.038685,-10.382458,-41.580002,-48.369999,-83.790001,1729477606199.0,0.0
-2.694318,0.976272,-12.169895,-11.48,-42.07,-72.800003,1729477606217.0,0.0
-3.010171,3.479164,-13.607983,-14.98,-26.950001,-40.950001,1729477606239.0,0.0
-2.333002,3.041277,-13.952549,-1.68,-6.51,6.09,1729477606259.0,0.0
-1.430908,1.150948,-12.607781,28.210001,13.93,46.34,1729477606277.0,0.0
-2.328217,0.028714,-11.033305,54.459999,34.790001,67.620003,1729477606298.0,0.0
-2.739782,-0.299103,-9.688539,46.970001,43.889999,81.550003,1729477606317.0,0.0
-2.344966,-7.192825,-8.128418,17.639999,45.009998,78.540001,1729477606338.0,0.0
-1.617548,-9.207582,-7.259824,18.76,33.810001,51.029999,1729477606359.0,0.0
-4.218546,-8.355737,-4.244867,10.01,31.85,2.31,1729477606377.0,0.0
-5.240282,-6.869793,-5.948557,-33.32,4.06,-48.369999,1729477606399.0,0.0
-3.486342,-4.596612,-8.015956,-47.529999,-24.290001,-82.040001,1729477606417.0,0.0
-2.880959,-2.225325,-9.265009,-53.130001,-27.790001,-101.360001,1729477606437.0,0.0
-2.878566,0.674776,-9.753145,-56.700001,-23.379999,-97.230003,1729477606458.0,0.0
-3.07717,3.282953,-12.349358,-19.32,-19.040001,-64.050003,1729477606478.0,0.0
-3.232704,3.960121,-13.349558,0.42,-2.45,13.79,1729477606497.0,0.0
-2.136791,1.009771,-11.729616,26.530001,29.190001,54.389999,1729477606516.0,0.0
-2.490928,1.505085,-9.915856,52.920002,45.220001,70.559998,1729477606538.0,0.0
-2.275574,-1.325624,-8.803195,53.34,45.360001,86.590004,1729477606558.0,0.0
-1.572084,-6.867401,-6.618547,39.900002,39.200001,80.5,1729477606578.0,0.0
-2.474179,-9.205189,-4.208975,25.41,28.35,43.049999,1729477606599.0,0.0
-4.575077,-8.714661,-4.496114,-13.02,10.5,-13.23,1729477606619.0,0.0
-3.998406,-6.032306,-6.501299,-44.099998,-19.389999,-62.16,1729477606637.0,0.0
-2.723032,-3.275774,-8.11167,-51.869999,-36.540001,-85.120003,1729477606658.0,0.0
-2.658426,-2.35693,-9.750752,-62.580002,-37.869999,-91.209999,1729477606677.0,0.0
-2.672783,1.172483,-11.432907,-41.509998,-36.68,-78.959999,1729477606698.0,0.0
-3.613162,4.271189,-14.160725,-14.21,-23.030001,-38.5,1729477606716.0,0.0
-3.342773,3.876373,-13.41895,24.15,2.17,19.950001,1729477606737.0,0.0
-1.998007,1.258625,-11.751152,49.349998,17.57,59.150002,1729477606763.0,0.0
-2.182254,1.217947,-10.480563,40.599998,33.880001,64.330002,1729477606776.0,0.0
-1.859223,-0.476172,-8.549555,28.98,34.580002,74.900002,1729477606798.0,0.0
-1.191626,-5.986843,-8.025528,8.4,29.049999,69.580002,1729477606817.0,0.0
-2.103291,-7.06122,-5.020142,26.880001,13.16,26.32,1729477606837.0,0.0
-4.21376,-5.65424,-5.962914,-11.41,1.82,-12.88,1729477606858.0,0.0
-2.993421,-5.826523,-7.599605,-58.73,-19.74,-36.889999,1729477606878.0,0.0
-3.014957,-5.13739,-8.623734,-76.090004,-27.299999,-56.490002,1729477606898.0,0.0
-3.17049,-2.904887,-10.636096,-62.369999,-28.559999,-73.639999,1729477606916.0,0.0
-3.323631,0.641276,-11.346765,-39.759998,-26.74,-73.989998,1729477606937.0,0.0
-3.582055,3.005385,-13.325629,-17.85,-15.96,-49.490002,1729477606961.0,0.0
-2.756532,4.905287,-13.490734,23.450001,-2.1,-4.55,1729477606976.0,0.0
-2.639283,2.766103,-12.026326,35.420002,20.23,41.790001,1729477606997.0,0.0
-2.402394,1.423729,-10.858629,22.33,37.029999,65.870003,1729477607017.0,0.0
-1.533799,0.418744,-9.286544,27.65,38.5,86.169998,1729477607037.0,0.0
-1.18684,-5.484349,-8.834301,22.190001,38.849998,89.32,1729477607058.0,0.0
-1.141376,-8.221739,-6.54437,27.02,29.75,63.84,1729477607078.0,0.0
-2.766103,-7.441679,-5.099105,17.43,22.960001,21.139999,1729477607097.0,0.0
-3.005385,-6.118448,-6.553941,-2.59,-1.82,-17.08,1729477607116.0,0.0
-2.423929,-3.9673,-8.173882,-27.860001,-20.719999,-42.349998,1729477607138.0,0.0
-2.557927,-4.311867,-11.363515,-55.16,-21.77,-58.73,1729477607158.0,0.0
-2.222932,-1.124627,-12.023933,-31.360001,-17.639999,-70.910004,1729477607176.0,0.0
-2.85703,1.885544,-12.074183,-1.4,-5.67,-57.330002,1729477607199.0,0.0
-2.988636,3.184847,-12.607781,23.1,1.96,-25.549999,1729477607217.0,0.0
-2.921637,3.388237,-11.700903,46.130001,16.24,11.27,1729477607237.0,0.0
-2.723032,2.416751,-9.765109,42.490002,29.68,41.580002,1729477607265.0,0.0
-2.316252,-0.473779,-7.735995,31.15,28.77,62.790001,1729477607278.0,0.0
-2.617748,-3.326023,-7.869993,20.65,26.6,63.209999,1729477607297.0,0.0
-2.876173,-8.901299,-5.706882,-2.38,20.299999,42.77,1729477607319.0,0.0
-2.720639,-9.023334,-7.037291,-21.700001,2.17,-7.91,1729477607337.0,0.0
-3.273381,-5.474778,-7.590034,-26.110001,-4.41,-52.849998,1729477607361.0,0.0
-2.766103,-3.457629,-8.350951,-21.49,-17.15,-70.980003,1729477607378.0,0.0
-2.799603,-1.330409,-10.188639,-23.309999,-18.549999,-80.919998,1729477607398.0,0.0
-2.292324,0.655633,-10.671989,-23.030001,-17.710001,-75.529999,1729477607417.0,0.0
-1.701297,3.675375,-11.784652,-20.09,-11.83,-61.110001,1729477607439.0,0.0
-1.550549,3.684947,-11.803794,7.35,-5.74,-10.29,1729477607460.0,0.0
-1.935793,1.74676,-11.140982,15.82,7.28,24.290001,1729477607479.0,0.0
-2.85703,0.794417,-11.239087,5.25,21.91,44.170002,1729477607498.0,0.0
-2.538785,-0.787239,-9.497113,14.21,25.129999,71.190002,1729477607519.0,0.0
-2.816352,-4.907679,-7.06122,29.75,26.880001,82.529999,1729477607538.0,0.0
-3.87398,-7.855636,-6.62094,29.469999,23.59,72.309998,1729477607562.0,0.0
-3.682554,-9.47797,-6.798009,12.39,10.71,36.610001,1729477607578.0,0.0
-2.833102,-6.9344,-8.054241,-3.01,-3.36,-6.72,1729477607599.0,0.0
-2.242075,-4.146761,-8.147561,3.29,-11.48,-37.170002,1729477607619.0,0.0
-1.143769,-2.18704,-9.312866,3.5,-22.82,-56.0,1729477607640.0,0.0
-1.002593,-0.478565,-10.978271,-13.93,-22.889999,-66.57,1729477607661.0,0.0
-1.316052,2.359323,-13.08874,-15.61,-16.52,-59.290001,1729477607678.0,0.0
-1.607977,3.270989,-12.964314,6.72,0.28,-25.059999,1729477607700.0,0.0
-1.619941,1.808974,-11.645866,25.34,15.68,12.53,1729477607718.0,0.0
-1.462015,1.0002,-9.449257,35.490002,32.759998,50.470001,1729477607740.0,0.0
-1.39023,-0.629312,-8.350951,35.77,29.049999,71.540001,1729477607765.0,0.0
-2.892922,-6.589834,-5.9342,18.200001,31.92,76.019997,1729477607779.0,0.0
-2.679961,-8.975478,-6.867401,2.94,11.13,45.009998,1729477607799.0,0.0
-2.151148,-6.431907,-7.219146,-4.83,-5.18,-0.63,1729477607887.0,0.0
-3.629912,-5.022535,-7.678568,-28.210001,-14.98,-33.040001,1729477607887.0,0.0
-2.924029,-4.744967,-9.597611,-40.32,-24.08,-55.93,1729477607887.0,0.0
-1.038485,-2.318645,-10.633704,-28.700001,-33.950001,-72.590004,1729477607889.0,0.0
-1.505085,0.162712,-12.287145,-27.16,-21.139999,-75.110001,1729477607898.0,0.0
-1.172483,2.734996,-12.866207,-3.22,-11.34,-54.040001,1729477607920.0,0.0
-1.887937,3.493521,-12.904492,25.059999,4.06,-14.28,1729477607939.0,0.0
-2.605784,1.586441,-11.679367,16.030001,24.01,25.9,1729477607960.0,0.0
-2.287539,0.533599,-9.432507,16.030001,29.4,52.150002,1729477607984.0,0.0
-2.383251,-2.06022,-9.008978,10.92,30.380001,63.84,1729477607999.0,0.0
-2.194218,-7.183254,-7.286145,5.67,26.74,60.41,1729477608019.0,0.0
-2.361716,-7.944171,-7.305287,0.21,18.83,31.710001,1729477608039.0,0.0
-2.861816,-5.919843,-5.965307,-4.83,7.42,-3.29,1729477608060.0,0.0
-3.050849,-5.907879,-7.771888,-13.79,-14.0,-41.02,1729477608079.0,0.0
-1.859223,-4.383651,-9.145369,-13.58,-30.309999,-61.529999,1729477608099.0,0.0
-1.749153,-1.942972,-10.427922,-15.4,-29.610001,-75.32,1729477608119.0,0.0
-1.631905,1.761117,-12.725031,-4.48,-27.23,-73.43,1729477608139.0,0.0
-1.885544,3.847659,-12.923635,33.389999,-10.71,-41.860001,1729477608161.0,0.0
-1.732404,3.677768,-12.03829,47.670002,4.27,0.63,1729477608180.0,0.0
-1.938186,1.311267,-11.602797,24.43,21.07,35.700001,1729477608198.0,0.0
-2.005185,0.452243,-10.435099,10.15,32.130001,51.869999,1729477608219.0,0.0
-1.457229,-2.790031,-6.893722,12.39,26.25,63.560001,1729477608239.0,0.0
-1.598405,-4.948357,-9.188439,-8.61,26.67,52.779999,1729477608270.0,0.0
-1.988436,-8.561519,-7.9681,-9.8,22.049999,38.57,1729477608279.0,0.0
-2.847459,-8.805587,-6.690332,-6.09,10.99,6.3,1729477608299.0,0.0
-4.457829,-6.872187,-6.723832,-18.549999,5.18,-33.18,1729477608319.0,0.0
-3.065206,-4.534399,-8.013563,-13.72,-17.99,-56.91,1729477608340.0,0.0
-1.189233,-2.335395,-10.4016,-21.84,-29.26,-73.639999,1729477608361.0,0.0
-1.069592,0.792024,-12.521641,-36.889999,-20.790001,-72.449997,1729477608380.0,0.0
-1.251446,3.134598,-13.067204,-15.33,-6.72,-44.73,1729477608399.0,0.0
-1.842474,1.808974,-11.937792,44.52,14.0,17.01,1729477608419.0,0.0
-2.244468,1.304088,-11.801401,28.77,31.08,39.619999,1729477608439.0,0.0
-1.811367,1.28016,-8.882158,20.51,36.889999,60.34,1729477608460.0,0.0
-1.244268,-2.859423,-8.760124,4.34,38.709999,71.540001,1729477608479.0,0.0
-0.693919,-8.039884,-6.470192,14.91,31.01,65.590004,1729477608500.0,0.0
-2.007578,-9.059227,-6.235696,26.950001,23.66,32.759998,1729477608519.0,0.0
-3.034099,-8.334201,-6.175875,7.7,11.76,-10.15,1729477608539.0,0.0
-3.046063,-5.393422,-6.843473,-18.969999,-8.82,-48.580002,1729477608560.0,0.0
-2.392823,-3.692125,-7.817351,-29.120001,-23.73,-68.459999,1729477608579.0,0.0
-1.131805,-0.787239,-8.975478,-27.370001,-38.080002,-78.610001,1729477608598.0,0.0
-1.818545,2.493321,-12.25843,-3.92,-34.16,-59.709999,1729477608618.0,0.0
-2.447858,3.017349,-13.823336,-3.71,-19.110001,-21.280001,1729477608641.0,0.0
-2.277967,1.543371,-11.626726,0.42,0.63,24.08,1729477608660.0,0.0
-1.318445,0.57667,-11.62194,18.9,9.73,46.34,1729477608679.0,0.0
-1.622334,0.820738,-10.348958,37.099998,22.960001,62.720001,1729477608699.0,0.0
-1.550549,-1.79701,-8.920443,27.51,28.280001,76.93,1729477608718.0,0.0
-0.882952,-8.733803,-6.836295,10.01,21.210001,70.699997,1729477608738.0,0.0
-2.476572,-9.489935,-5.058427,-1.75,7.56,7.56,1729477608764.0,0.0
-3.584448,-6.843473,-6.147161,-24.92,-10.43,-43.68,1729477608780.0,0.0
-2.768496,-4.232903,-7.360322,-39.900002,-31.85,-71.68,1729477608798.0,0.0
-2.457429,-3.199204,-8.425128,-34.860001,-39.549999,-82.459999,1729477608820.0,0.0
-2.117648,-0.839881,-9.226725,-47.599998,-48.509998,-92.330002,1729477608839.0,0.0
-2.54357,2.414358,-11.07159,-49.279999,-44.799999,-78.889999,1729477608862.0,0.0
-2.711068,4.402793,-14.084153,-21.210001,-37.380001,-36.119999,1729477608879.0,0.0
-2.557927,3.144169,-13.9358,11.34,-13.58,21.700001,1729477608898.0,0.0
-1.770689,0.521635,-12.861421,11.2,4.83,59.990002,1729477608920.0,0.0
-1.316052,1.261017,-12.095718,31.710001,18.27,76.160004,1729477608939.0,0.0
-1.284946,-0.117248,-9.176475,51.66,26.6,98.349998,1729477608962.0,0.0
-1.150948,-5.233103,-8.666803,17.85,31.360001,99.050003,1729477608980.0,0.0
-0.394816,-10.243673,-6.735795,19.67,19.67,83.090004,1729477608998.0,0.0
-1.540978,-9.360723,-5.843273,23.030001,14.84,26.67,1729477609020.0,0.0
-4.910072,-6.76451,-4.993821,-0.49,8.82,-21.139999,1729477609038.0,0.0
-3.821337,-4.522435,-6.474977,-35.630001,-26.67,-54.810001,1729477609060.0,0.0
-1.507478,-4.237689,-10.025927,-66.919998,-49.630001,-80.849998,1729477609078.0,0.0
-1.476372,-2.792424,-10.892128,-40.459999,-44.799999,-89.669998,1729477609098.0,0.0
-1.674976,0.959522,-11.306087,-9.8,-38.220001,-81.199997,1729477609119.0,0.0
-1.672583,2.684747,-11.717653,14.35,-30.309999,-45.290001,1729477609141.0,0.0
-2.065006,1.828116,-12.004791,39.900002,-20.65,0.14,1729477609161.0,0.0
-2.550749,1.091127,-11.260624,51.240002,-9.66,35.91,1729477609178.0,0.0
-3.385844,0.33021,-11.018949,59.360001,0.77,63.630001,1729477609200.0,0.0
-5.249853,-0.617348,-9.973285,42.91,17.780001,79.519997,1729477609220.0,0.0
-6.173482,-1.883151,-10.023535,19.809999,28.210001,89.25,1729477609240.0,0.0
-4.553542,-4.235296,-11.586047,32.619999,25.9,93.379997,1729477609262.0,0.0
-2.732604,-4.900501,-9.77468,55.369999,38.009998,85.470001,1729477609278.0,0.0
-1.600798,-3.974478,-7.582855,69.370003,41.93,67.690002,1729477609305.0,0.0
-1.497907,-3.78066,-7.759924,65.730003,39.48,54.110001,1729477609317.0,0.0
-1.725225,-5.986843,-7.475177,53.830002,33.110001,34.369999,1729477609340.0,0.0
-1.555335,-7.345965,-6.336195,50.68,20.790001,10.92,1729477609361.0,0.0
-1.931008,-6.180661,-5.513064,31.08,5.67,-29.68,1729477609377.0,0.0
-2.691926,-3.285345,-7.197611,-6.86,-18.41,-68.32,1729477609399.0,0.0
-1.581656,-1.201197,-9.437292,-10.78,-42.07,-67.970001,1729477609419.0,0.0
-2.471786,-1.033699,-11.349157,-21.559999,-40.040001,-51.170002,1729477609439.0,0.0
-4.04387,-2.411965,-10.880164,-57.470001,-16.940001,-34.93,1729477609460.0,0.0
-4.283153,-3.754339,-11.313265,-32.689999,-7.21,-14.49,1729477609480.0,0.0
-3.136991,-3.074777,-11.540584,52.360001,-2.31,4.13,1729477609501.0,0.0
-2.392823,-1.45005,-9.62154,94.639999,7.56,21.98,1729477609519.0,0.0
-3.397808,-2.378466,-9.872787,79.940002,25.620001,34.299999,1729477609541.0,0.0
-3.282953,-4.936393,-9.805787,88.129997,28.210001,38.360001,1729477609560.0,0.0
-2.361716,-5.702096,-8.82473,131.25,22.4,33.459999,1729477609579.0,0.0
-2.359323,-5.592027,-8.288737,180.529999,26.6,22.68,1729477609599.0,0.0
-2.103291,-6.199803,-8.815158,249.130005,32.970001,12.04,1729477609621.0,0.0
-1.663012,-6.994221,-8.906086,292.320007,34.16,2.94,1729477609639.0,0.0
-0.935594,-7.295716,-8.563912,327.73999,29.469999,-3.36,1729477609661.0,0.0
-0.311067,-6.795617,-8.090133,353.360016,28.280001,-2.17,1729477609679.0,0.0
-0.57667,-4.991428,-4.709075,381.779999,41.93,9.73,1729477609701.0,0.0
-1.533799,-5.257031,-2.778067,347.130005,61.25,23.66,1729477609720.0,0.0
-2.677568,-7.013363,-1.239482,253.399994,65.590004,23.59,1729477609741.0,0.0
-3.582055,-9.564112,-2.304288,156.100006,64.050003,23.1,1729477609766.0,0.0
-4.711468,-10.303494,-4.161119,70.0,54.670002,18.129999,1729477609782.0,0.0
-5.594419,-11.456835,1.694118,56.279999,35.700001,16.450001,1729477609800.0,0.0
-2.536392,-10.896914,3.048456,49.630001,2.52,9.66,1729477609820.0,0.0
-1.909473,-9.41815,0.863809,16.940001,24.15,0.84,1729477609841.0,0.0
-3.091527,-9.51147,0.148355,-0.91,17.290001,-5.67,1729477609862.0,0.0
-3.089134,-9.731609,-1.363909,-24.15,18.620001,-8.19,1729477609880.0,0.0
-1.469193,-8.903693,0.808774,-25.76,-1.82,-1.26,1729477609902.0,0.0
-0.181855,-9.073583,0.361316,13.51,-8.96,7.63,1729477609919.0,0.0
-0.234497,-8.946764,-0.847059,29.33,7.91,4.06,1729477609941.0,0.0
-0.868595,-8.642875,-1.557728,26.18,6.79,6.79,1729477609963.0,0.0
-1.301696,-9.29133,-1.945365,21.700001,0.91,9.73,1729477609980.0,0.0
-1.998007,-10.466206,-1.718047,48.369999,-6.44,3.43,1729477610001.0,0.0
-1.375873,-8.250452,-1.284946,68.739998,-17.92,2.8,1729477610024.0,0.0
-1.244268,-7.149754,-2.644069,67.690002,-19.67,16.59,1729477610040.0,0.0
-3.211168,-7.69771,-2.701497,9.94,-13.3,28.700001,1729477610061.0,0.0
-6.326623,-12.167502,-1.423729,-60.34,-13.37,18.129999,1729477610080.0,0.0
-6.116055,-15.744773,-3.689733,-59.150002,-14.35,2.87,1729477610101.0,0.0
-3.07717,-14.735002,-0.533599,-0.28,13.23,-9.1,1729477610120.0,0.0
-1.830509,-11.334801,-0.820738,7.42,37.73,-23.799999,1729477610141.0,0.0
-1.895115,-8.513663,-0.124427,2.03,33.740002,-32.130001,1729477610163.0,0.0
-2.402394,-9.60479,0.937986,10.78,44.450001,-27.51,1729477610180.0,0.0
-0.634098,-7.046863,3.261417,0.21,7.0,-23.17,1729477610202.0,0.0
0.495314,-7.362715,1.239482,61.25,18.48,-7.07,1729477610220.0,0.0
-0.265603,-6.826723,0.114855,62.790001,15.12,-7.7,1729477610241.0,0.0
-1.775474,-7.389036,-0.753739,68.739998,13.79,10.85,1729477610262.0,0.0
-2.572284,-8.77448,-0.09332,78.190002,4.13,13.02,1729477610280.0,0.0
-1.416551,-10.030712,-1.462015,101.080002,-10.5,16.940001,1729477610300.0,0.0
-1.004985,-8.075776,-0.51685,137.270004,-6.58,32.689999,1729477610321.0,0.0
-4.309474,-11.887544,0.143569,148.470001,-4.76,27.09,1729477610340.0,0.0
-7.456036,-12.102897,4.012764,60.27,2.31,12.95,1729477610363.0,0.0
-6.546762,-13.028918,1.70369,-94.5,-21.0,-28.630001,1729477610380.0,0.0
-2.146362,-11.310873,0.380459,-107.029999,-6.16,-25.83,1729477610400.0,0.0
-1.505085,-9.272188,0.351745,-27.370001,16.799999,-34.439999,1729477610421.0,0.0
-3.728018,-8.260024,2.258825,2.1,31.290001,-36.189999,1729477610442.0,0.0
-2.892922,-5.860023,3.426522,-50.540001,20.51,-33.32,1729477610462.0,0.0
-0.165105,-7.745567,1.543371,-32.48,6.16,-6.86,1729477610479.0,0.0
0.681954,-7.37468,0.299103,8.26,7.49,0.63,1729477610500.0,0.0
-0.387637,-6.233303,1.258625,48.580002,12.39,19.879999,1729477610521.0,0.0
-2.155933,-8.238488,2.139183,47.110001,0.07,29.190001,1729477610541.0,0.0
-1.198804,-10.368099,-1.07677,26.74,-23.799999,26.950001,1729477610561.0,0.0
-1.148555,-9.568897,0.885344,64.889999,-14.91,38.57,1729477610580.0,0.0
-3.914658,-10.896914,0.464208,66.290001,-20.65,31.99,1729477610601.0,0.0
-6.989435,-13.002598,-0.01675,-1.61,-17.01,16.379999,1729477610620.0,0.0
-7.080362,-17.180466,2.684747,-81.480003,-25.34,-24.710001,1729477610640.0,0.0
-0.756132,-11.715261,0.863809,-55.650002,4.83,-39.759998,1729477610661.0,0.0
-2.045863,-7.245467,1.316052,66.43,42.349998,-47.810001,1729477610680.0,0.0
-3.160919,-6.977471,4.524827,33.18,29.75,-49.279999,1729477610701.0,0.0
0.70349,-4.364508,4.869394,-25.969999,-5.88,-26.880001,1729477610719.0,0.0
1.751546,-5.996413,2.275574,37.310001,-2.31,5.81,1729477610740.0,0.0
-0.758525,-4.601398,0.777667,19.530001,-0.91,16.66,1729477610766.0,0.0
-3.541377,-7.410572,1.040878,-24.01,-7.35,28.35,1729477610780.0,0.0
-2.943172,-12.129218,1.031307,-47.810001,-35.0,22.33,1729477610800.0,0.0
-1.76351,-11.576476,-0.835095,7.84,-27.02,25.9,1729477610820.0,0.0
-2.9336,-10.549955,-0.964308,64.120003,-14.56,21.280001,1729477610841.0,0.0
-7.410572,-11.686546,0.354138,4.13,-13.16,6.58,1729477610861.0,0.0
-5.970093,-14.423935,-1.868794,-66.849998,-18.549999,-20.370001,1729477610879.0,0.0
-2.617748,-14.242079,-0.095713,-35.279999,16.799999,-29.049999,1729477610900.0,0.0
-1.581656,-10.528419,3.208775,66.220001,49.07,-42.07,1729477610920.0,0.0
-3.326023,-6.649654,3.440879,69.790001,55.93,-41.720001,1729477610940.0,0.0
-3.361916,-5.443672,5.965307,-0.28,24.08,-44.029999,1729477610961.0,0.0
0.074178,-4.505685,6.183054,-36.259998,-7.0,-10.92,1729477610980.0,0.0
1.100698,-7.525427,1.70369,-2.8,-7.77,5.25,1729477610999.0,0.0
-0.717847,-8.047063,0.717847,29.75,0.07,29.26,1729477611019.0,0.0
-2.452643,-9.473185,1.0002,30.940001,3.29,28.98,1729477611040.0,0.0
-1.512264,-11.636297,-0.363709,44.869999,-12.88,26.389999,1729477611061.0,0.0
-2.400001,-11.976077,1.440479,81.129997,-5.04,31.15,1729477611079.0,0.0
-4.347759,-11.420943,1.251446,55.439999,-10.85,12.88,1729477611100.0,0.0
-5.455636,-11.239087,-0.078963,-12.95,-4.76,-1.82,1729477611121.0,0.0
-4.965107,-14.811572,1.9669,-59.010002,-2.94,-30.66,1729477611140.0,0.0
-1.435694,-12.016755,1.861616,-30.66,19.25,-44.310001,1729477611162.0,0.0
-1.442872,-7.860423,2.723032,37.450001,42.490002,-45.009998,1729477611179.0,0.0
-2.739782,-6.396015,4.900501,16.1,28.84,-51.170002,1729477611200.0,0.0
-0.997807,-4.800002,6.092126,-53.48,-1.54,-38.849998,1729477611220.0,0.0
0.952343,-5.733203,3.110669,-24.08,-8.12,-6.3,1729477611240.0,0.0
0.315853,-6.288338,1.414158,2.73,-7.42,12.6,1729477611261.0,0.0
-1.615155,-6.994221,1.021735,2.66,-2.66,30.73,1729477611280.0,0.0
-2.624927,-10.430314,2.120041,-10.43,-17.360001,31.780001,1729477611299.0,0.0
-1.694118,-10.992627,-0.069392,10.08,-24.639999,30.59,1729477611319.0,0.0
-4.577469,-12.437892,1.349552,25.41,-20.65,15.190001,1729477611347.0,0.0
-5.965307,-13.129417,-0.425922,-66.779999,-8.26,-5.95,1729477611361.0,0.0
-3.9673,-15.218351,2.048256,-76.510002,-13.02,-43.119999,1729477611380.0,0.0
-1.615155,-10.736595,3.436093,14.21,21.98,-38.920002,1729477611401.0,0.0
-2.019542,-6.21416,2.924029,62.790001,33.880001,-41.720001,1729477611420.0,0.0
-3.06042,-6.833901,3.869194,5.74,23.73,-41.790001,1729477611441.0,0.0
-1.68694,-6.429514,4.295116,-92.400002,-6.65,-33.459999,1729477611461.0,0.0
0.806381,-8.484949,2.349752,-22.26,-7.35,-3.29,1729477611479.0,0.0
1.418944,-6.336195,1.785046,50.049999,3.64,6.02,1729477611501.0,0.0
-0.294317,-4.453043,1.631905,61.459999,12.6,30.59,1729477611521.0,0.0
-1.974079,-7.702496,2.007578,6.79,-10.43,38.43,1729477611541.0,0.0
-0.775275,-9.145369,-0.200997,-19.530001,-31.360001,43.75,1729477611561.0,0.0
-2.699104,-12.32543,1.978864,29.610001,-27.860001,54.110001,1729477611581.0,0.0
-5.405386,-11.794223,-0.844666,-7.98,-18.690001,30.66,1729477611600.0,0.0
-5.166104,-16.833508,1.158126,-61.810001,-12.53,-5.74,1729477611621.0,0.0
-1.56012,-13.380664,2.756532,-27.23,26.530001,-27.93,1729477611641.0,0.0
-1.004985,-7.948956,2.06022,54.599998,42.279999,-43.75,1729477611663.0,0.0
-3.282953,-5.9677,3.517449,40.950001,39.970001,-42.07,1729477611681.0,0.0
-3.115455,-7.688138,5.441278,-39.619999,19.460001,-43.75,1729477611701.0,0.0
0.832702,-6.9679,3.833302,-55.93,-10.43,-13.65,1729477611720.0,0.0
1.674976,-7.329216,2.050649,25.059999,11.13,4.55,1729477611741.0,0.0
0.42353,-4.570292,0.614955,36.470001,11.69,15.54,1729477611766.0,0.0
-2.062613,-6.539584,1.514657,8.26,-0.28,32.34,1729477611781.0,0.0
-0.550349,-10.126426,-1.354338,-27.860001,-30.030001,29.4,1729477611800.0,0.0
-1.251446,-12.222539,1.383051,25.48,-24.85,41.720001,1729477611822.0,0.0
-3.63709,-13.399807,0.916451,55.02,-21.700001,25.620001,1729477611842.0,0.0
-6.515656,-12.784851,-0.770489,-31.99,-8.96,5.11,1729477611863.0,0.0
-5.742774,-18.010777,1.648655,-78.120003,-20.860001,-39.619999,1729477611882.0,0.0
-1.217947,-13.988441,2.40718,-38.080002,14.35,-51.73,1729477611902.0,0.0
-2.567499,-6.898508,2.943172,80.080002,42.630001,-59.920002,1729477611922.0,0.0
-3.146562,-5.690133,6.235696,20.16,27.299999,-63.420002,1729477611942.0,0.0
0.323031,-4.395615,3.34038,-23.17,4.06,-26.389999,1729477611965.0,0.0
1.294517,-5.828916,2.282753,11.9,6.16,-11.55,1729477611981.0,0.0
1.071985,-4.146761,1.440479,26.389999,2.8,10.5,1729477612002.0,0.0
-1.117448,-5.32403,2.438286,27.440001,1.68,34.790001,1729477612021.0,0.0
-1.148555,-7.793423,1.311267,-6.3,-21.42,39.060001,1729477612042.0,0.0
-1.335195,-8.915657,0.354138,-1.19,-28.49,56.630001,1729477612068.0,0.0
-3.23031,-13.320844,1.768296,27.09,-32.830002,53.970001,1729477612081.0,0.0
-4.584648,-11.8349,-0.454636,-23.59,-23.73,33.18,1729477612102.0,0.0
-7.166504,-17.481962,3.237489,-61.880001,-20.790001,7.56,1729477612122.0,0.0
-3.768696,-14.390435,0.918844,-104.93,-14.77,-34.09,1729477612142.0,0.0
-1.012164,-11.179268,1.07677,3.36,15.05,-32.970001,1729477612163.0,0.0
-2.35693,-7.800602,2.206182,61.389999,32.27,-36.610001,1729477612182.0,0.0
-3.168097,-6.02752,3.062813,34.09,31.639999,-34.369999,1729477612201.0,0.0
-1.564906,-5.618347,5.201996,-32.48,6.58,-28.210001,1729477612222.0,0.0
0.847059,-6.673582,2.732604,-15.26,-11.55,6.93,1729477612242.0,0.0
0.047856,-5.412565,0.27996,5.6,-8.75,24.290001,1729477612263.0,0.0
-2.232504,-7.628319,1.045663,-9.1,-6.51,40.670002,1729477612282.0,0.0
-1.299303,-11.066804,-0.653241,-21.84,-30.66,40.25,1729477612302.0,0.0
-1.371087,-12.13161,1.153341,18.48,-29.469999,44.59,1729477612322.0,0.0
-3.036492,-12.313466,1.464408,39.900002,-27.23,34.16,1729477612342.0,0.0
-5.338387,-11.41137,-2.522035,-48.439999,-18.34,13.93,1729477612363.0,0.0
-5.659025,-17.170895,0.196211,-62.439999,-23.030001,-18.41,1729477612382.0,0.0
-2.012364,-13.986048,2.227718,-9.24,17.780001,-33.110001,1729477612401.0,0.0
-1.194018,-8.748159,2.974278,77.489998,39.27,-42.84,1729477612422.0,0.0
-3.132205,-5.513064,4.096512,65.800003,32.060001,-43.049999,1729477612442.0,0.0
-2.550749,-5.288138,6.431907,-4.34,10.92,-38.009998,1729477612462.0,0.0
0.095713,-4.292724,4.907679,-46.689999,-26.6,-3.29,1729477612482.0,0.0
0.705883,-6.965507,2.289931,-1.12,-19.6,17.360001,1729477612502.0,0.0
-0.346959,-6.972685,0.471386,-2.31,-11.97,28.49,1729477612521.0,0.0
-2.464607,-8.55434,0.430708,-9.94,-6.44,38.990002,1729477612542.0,0.0
-1.507478,-10.710274,-1.548156,-7.84,-24.85,35.279999,1729477612563.0,0.0
-2.478964,-9.834501,0.136391,46.48,-20.370001,42.84,1729477612582.0,0.0
-6.276374,-11.810973,0.808774,7.63,-7.98,27.09,1729477612601.0,0.0
-5.647062,-18.092133,1.521835,-74.199997,-24.01,-14.28,1729477612622.0,0.0
-0.954736,-15.000606,1.648655,-55.23,0.56,-30.24,1729477612641.0,0.0
-0.90688,-9.669396,2.323431,42.560001,31.639999,-41.650002,1729477612663.0,0.0
-2.467,-6.18784,3.266203,28.630001,26.6,-49.98,1729477612681.0,0.0
-1.849652,-5.862415,5.673382,-33.25,5.32,-41.860001,1729477612701.0,0.0
0.79681,-6.26441,2.85703,-26.110001,-14.21,-11.27,1729477612721.0,0.0
0.064606,-5.910272,1.318445,8.33,-2.31,3.71,1729477612741.0,0.0
-1.765903,-5.723632,0.823131,4.83,-1.54,18.9,1729477612766.0,0.0
-2.940779,-9.006584,1.804188,-20.09,-13.86,24.99,1729477612781.0,0.0
-0.911665,-11.107484,-1.847259,-25.059999,-31.99,24.43,1729477612801.0,0.0
-2.37368,-13.237095,0.990629,15.75,-22.4,26.460001,1729477612888.0,0.0
-3.725625,-11.069198,-0.392423,1.54,-15.68,6.65,1729477612889.0,0.0
-7.200003,-12.897314,0.988236,-35.84,-1.54,-4.41,1729477612891.0,0.0
-3.768696,-15.189637,2.038685,-33.529999,-11.69,-39.41,1729477612904.0,0.0
-0.684347,-10.131211,2.586641,22.540001,26.6,-32.830002,1729477612916.0,0.0
-3.010171,-6.022735,3.538985,49.139999,34.790001,-34.650002,1729477612921.0,0.0
-3.208775,-7.987241,4.17069,-45.849998,7.21,-32.27,1729477612942.0,0.0
1.071985,-7.757531,2.947958,-35.98,-17.780001,-8.4,1729477612970.0,0.0
1.68694,-6.941578,2.40718,42.84,9.31,5.88,1729477612981.0,0.0
0.198604,-5.266603,0.641276,27.09,10.29,13.65,1729477613001.0,0.0
-2.184647,-7.539784,0.602991,-11.34,4.97,28.139999,1729477613021.0,0.0
-2.067399,-11.162518,0.301496,-34.580002,-19.879999,28.139999,1729477613041.0,0.0
-1.155733,-10.875379,-0.933201,11.2,-16.379999,31.360001,1729477613062.0,0.0
-3.811767,-12.428321,1.129412,61.110001,-12.04,30.309999,1729477613081.0,0.0
-6.568298,-11.593226,-1.574477,-9.03,-2.17,6.02,1729477613101.0,0.0
-5.785845,-16.893328,2.79721,-31.43,-17.360001,-24.85,1729477613121.0,0.0
-1.146162,-12.971491,3.364309,-5.95,22.4,-36.470001,1729477613141.0,0.0
-0.811167,-7.532606,3.318845,52.360001,36.400002,-38.220001,1729477613162.0,0.0
-3.474378,-5.76431,4.31426,22.889999,27.09,-38.150002,1729477613181.0,0.0
-2.411965,-7.290931,4.98425,-51.73,-2.8,-34.509998,1729477613206.0,0.0
1.526621,-7.171289,3.457629,-40.599998,-23.17,-4.48,1729477613221.0,0.0
0.705883,-5.704489,1.478764,11.27,-2.31,7.0,1729477613241.0,0.0
-1.452443,-7.020542,-0.629312,-26.6,-3.01,25.549999,1729477613262.0,0.0
-1.921437,-10.231709,-0.488136,-41.93,-18.48,29.540001,1729477613281.0,0.0
-0.789631,-11.492726,-1.45005,-3.71,-21.98,29.4,1729477613301.0,0.0
-2.801995,-10.583455,0.973879,36.610001,-16.66,29.4,1729477613322.0,0.0
-5.328816,-12.916457,-0.978664,13.3,-8.96,16.940001,1729477613341.0,0.0
-6.293124,-16.170694,1.323231,-32.619999,-9.59,-18.76,1729477613370.0,0.0
-2.342573,-14.531611,2.885744,7.91,16.379999,-38.57,1729477613388.0,0.0
-1.09352,-8.973085,3.026921,50.119999,33.32,-46.689999,1729477613402.0,0.0
-2.620141,-5.936593,3.132205,39.689999,33.599998,-45.150002,1729477613421.0,0.0
-1.852045,-5.888737,5.166104,-9.31,5.95,-38.5,1729477613442.0,0.0
1.057628,-5.979663,4.151547,7.7,-7.0,-8.89,1729477613462.0,0.0
1.191626,-4.917251,2.782853,0.21,-0.35,5.11,1729477613481.0,0.0
-0.064606,-5.82413,-0.251246,-35.98,-1.89,18.83,1729477613501.0,0.0
-1.909473,-9.676575,-0.882952,-42.560001,-3.99,31.360001,1729477613521.0,0.0
-2.033899,-11.861222,-1.301696,-10.22,-14.42,28.210001,1729477613544.0,0.0
-3.275774,-11.129018,0.167498,36.68,-10.78,29.33,1729477613629.0,0.0
-5.115855,-12.21536,0.117248,23.24,-17.780001,7.07,1729477613630.0,0.0
-3.711268,-12.344571,-0.880559,-14.07,-1.19,-4.13,1729477613630.0,0.0
-5.005785,-14.624931,2.579463,-37.029999,15.05,-23.24,1729477613630.0,0.0
-2.155933,-13.344771,4.4674,18.48,18.76,-47.810001,1729477613642.0,0.0
-1.462015,-7.999206,4.273581,77.419998,45.360001,-39.41,1729477613665.0,0.0
-2.091327,-3.605984,3.35713,15.4,36.119999,-41.720001,1729477613681.0,0.0
-1.052842,-3.651447,5.773881,-46.549999,7.14,-23.940001,1729477613708.0,0.0
1.153341,-6.159126,2.799603,-18.200001,-6.3,14.35,1729477613720.0,0.0
0.401994,-6.357729,1.806581,11.41,6.93,27.09,1729477613741.0,0.0
-2.167897,-7.783852,1.701297,0.49,3.43,36.959999,1729477613767.0,0.0
-1.871187,-10.552348,0.959522,-34.439999,-23.24,36.540001,1729477613782.0,0.0
-0.715454,-12.605389,-0.772882,-20.440001,-33.040001,38.080002,1729477613803.0,0.0
-2.651247,-13.060026,-0.181855,17.15,-26.110001,28.139999,1729477613823.0,0.0
-6.508478,-18.587446,2.400001,-21.629999,-2.03,9.31,1729477613844.0,0.0
-2.316252,-14.270795,1.911865,-27.09,12.74,-44.939999,1729477613864.0,0.0
-0.868595,-9.257831,2.706282,37.380001,31.85,-44.66,1729477613884.0,0.0
-2.337788,-6.585048,2.943172,34.09,29.610001,-49.349998,1729477613902.0,0.0
-2.541178,-6.38405,3.055635,-17.15,24.15,-44.029999,1729477613923.0,0.0
0.320638,-5.630312,3.871587,-45.43,2.59,-23.73,1729477613943.0,0.0
1.387837,-5.611169,2.854637,26.67,12.53,5.39,1729477613965.0,0.0
-0.370888,-4.37408,1.18684,-3.43,9.24,13.79,1729477613983.0,0.0
-2.545963,-7.867601,0.90688,-55.16,-12.53,29.049999,1729477614002.0,0.0
-0.492921,-11.85165,-2.017149,-51.310001,-36.75,29.610001,1729477614022.0,0.0
-0.047856,-11.700903,-1.007378,19.67,-25.690001,36.119999,1729477614043.0,0.0
-2.419144,-10.238889,-0.806381,47.670002,-15.26,30.73,1729477614065.0,0.0
-7.032506,-15.54856,-0.952343,-43.540001,-13.51,14.42,1729477614083.0,0.0
-5.163712,-17.572889,-0.409173,-108.989998,-31.219999,-41.02,1729477614108.0,0.0
-2.079363,-12.413965,2.904887,-6.58,25.83,-33.040001,1729477614122.0,0.0
-1.624727,-8.4012,2.490928,49.91,28.49,-54.040001,1729477614143.0,0.0
-3.129812,-6.317052,3.354738,13.86,27.23,-45.920002,1729477614165.0,0.0
-0.87338,-7.475177,3.988836,-48.790001,17.5,-39.34,1729477614182.0,0.0
1.61037,-7.508677,2.37368,-15.190001,8.75,-11.62,1729477614202.0,0.0
1.165305,-4.955536,1.899901,15.96,19.110001,0.63,1729477614223.0,0.0
-0.181855,-4.689932,0.631705,-18.41,1.96,19.950001,1729477614242.0,0.0
-1.256232,-8.410772,1.007378,-50.400002,-17.99,33.810001,1729477614264.0,0.0
-0.047856,-10.064213,-2.091327,-32.200001,-32.48,38.779999,1729477614282.0,0.0
-2.199004,-12.069397,-1.189233,21.42,-22.540001,46.759998,1729477614302.0,0.0
-5.45085,-13.569696,-2.811567,12.67,-10.36,25.200001,1729477614323.0,0.0
-7.80778,-19.786251,3.464807,14.49,-10.22,-8.12,1729477614343.0,0.0
-2.744568,-13.942977,0.744168,-28.35,9.24,-37.380001,1729477614363.0,0.0
-0.777667,-9.729217,1.196411,20.23,19.460001,-41.439999,1729477614382.0,0.0
-2.395216,-7.042077,1.622334,27.790001,25.200001,-43.119999,1729477614402.0,0.0
-2.555535,-7.606783,2.438286,-8.33,22.469999,-39.619999,1729477614423.0,0.0
0.770489,-6.295516,2.287539,-19.950001,3.78,-18.969999,1729477614443.0,0.0
1.911865,-6.037091,2.218147,33.599998,20.370001,-2.03,1729477614464.0,0.0
1.069592,-4.256832,1.205983,2.17,10.57,10.92,1729477614482.0,0.0
-1.17009,-6.829116,0.055035,-23.030001,0.84,31.5,1729477614502.0,0.0
-0.435494,-9.858429,-2.845066,-46.27,-29.190001,31.99,1729477614522.0,0.0
-1.78026,-10.595419,-2.648855,-2.45,-28.42,45.009998,1729477614542.0,0.0
-3.347559,-12.789637,-2.545963,2.17,-25.059999,31.5,1729477614564.0,0.0
-6.235696,-15.964913,-2.648855,-0.49,-4.13,13.58,1729477614583.0,0.0
-4.460221,-17.280964,2.091327,38.009998,-4.83,-28.07,1729477614602.0,0.0
-2.749353,-11.243874,3.39063,35.77,29.26,-34.09,1729477614623.0,0.0
-1.830509,-7.472785,2.452643,19.74,13.86,-46.900002,1729477614644.0,0.0
-2.478964,-6.723832,2.098505,-2.24,14.28,-38.009998,1729477614664.0,0.0
-1.567299,-7.925028,3.536592,-56.07,8.19,-36.259998,1729477614682.0,0.0
1.899901,-7.355537,2.945565,-22.120001,-7.63,-11.97,1729477614702.0,0.0
1.698904,-5.726025,2.352145,38.779999,16.17,-0.21,1729477614724.0,0.0
-0.167498,-4.527221,2.098505,4.69,5.04,15.75,1729477614742.0,0.0
-1.875973,-7.987241,0.535992,-55.510002,-14.0,30.1,1729477614768.0,0.0
-0.071785,-9.58804,-3.708875,-101.639999,-38.009998,32.689999,1729477614782.0,0.0
-1.143769,-11.117055,-2.419144,-117.25,-20.790001,41.299999,1729477614802.0,0.0
-3.15374,-12.150753,-4.067799,-161.630005,-0.42,23.940001,1729477614822.0,0.0
-4.761717,-21.243477,-1.270589,-100.099998,14.56,12.39,1729477614842.0,0.0
-2.474179,-11.782259,-0.42353,44.799999,23.030001,-22.469999,1729477614863.0,0.0
-2.943172,-6.104091,1.761117,54.880001,51.240002,-33.810001,1729477614882.0,0.0
-3.87398,-6.537192,0.267996,-15.12,36.610001,-27.790001,1729477614902.0,0.0
-2.091327,-9.016156,0.57667,-64.75,6.37,-22.610001,1729477614922.0,0.0
0.689133,-9.396614,0.935594,-15.33,6.86,-7.07,1729477614942.0,0.0
1.366302,-6.376873,2.165504,20.719999,13.86,-3.85,1729477614964.0,0.0
0.229711,-5.288138,1.409373,22.960001,4.48,12.53,1729477614982.0,0.0
-1.430908,-7.489535,0.997807,-17.290001,-17.15,22.469999,1729477615003.0,0.0
-0.449851,-8.882158,-2.215754,-76.230003,-45.709999,23.940001,1729477615022.0,0.0
-0.488136,-10.322637,-3.716053,-94.639999,-56.630001,26.67,1729477615042.0,0.0
-2.218147,-12.799208,-5.355137,-84.559998,-53.760002,17.92,1729477615064.0,0.0
-4.199404,-14.699109,-6.836295,-66.150002,-25.41,1.12,1729477615082.0,0.0
-6.549156,-16.831116,-2.15354,-55.93,5.18,-24.219999,1729477615102.0,0.0
-4.113262,-12.033505,-3.572484,-73.150002,21.280001,-45.150002,1729477615123.0,0.0
-1.433301,-9.489935,-3.268596,-23.379999,30.52,-41.23,1729477615142.0,0.0
-1.722832,-7.477571,-1.155733,6.58,49.139999,-34.860001,1729477615163.0,0.0
-2.009971,-8.214561,0.696311,-0.56,53.48,-28.07,1729477615182.0,0.0
1.306481,-7.259824,0.717847,33.040001,21.49,-7.98,1729477615202.0,0.0
1.928615,-5.630312,1.09352,40.040001,15.26,-0.07,1729477615222.0,0.0
0.349352,-6.831509,0.248854,33.389999,-0.35,13.16,1729477615242.0,0.0
-0.878166,-7.762317,-0.425922,10.22,-20.09,15.68,1729477615263.0,0.0
0.086142,-7.389036,-2.177469,-7.91,-44.099998,21.139999,1729477615281.0,0.0
-0.894916,-10.219746,-3.749553,4.13,-50.330002,29.190001,1729477615302.0,0.0
-3.04367,-11.827723,-4.409972,4.13,-47.529999,25.27,1729477615322.0,0.0
-5.546563,-12.466606,-5.953342,-44.450001,-30.309999,11.76,1729477615342.0,0.0
-6.79083,-16.53919,-6.132804,-109.059998,-9.59,-20.58,1729477615364.0,0.0
-3.376273,-14.431112,-4.9675,-46.27,7.42,-32.130001,1729477615381.0,0.0
-1.158126,-9.578469,-2.380858,78.400002,42.349998,-28.91,1729477615401.0,0.0
-1.753939,-6.675975,-0.9667,73.080002,53.970001,-29.610001,1729477615422.0,0.0
-1.962115,-5.62074,0.624527,-8.89,46.130001,-22.190001,1729477615442.0,0.0
-0.157926,-7.45125,0.684347,-47.950001,21.77,-7.91,1729477615462.0,0.0
1.701297,-8.29113,1.299303,-14.63,8.75,3.43,1729477615482.0,0.0
1.844866,-6.762117,0.308674,38.220001,0.84,12.88,1729477615502.0,0.0
-1.351945,-7.960921,-1.026521,24.710001,-11.55,18.129999,1729477615521.0,0.0
-0.504886,-9.284152,-3.35713,-24.85,-48.720001,18.27,1729477615542.0,0.0
-1.148555,-10.758131,-4.773681,-11.06,-50.75,21.559999,1729477615563.0,0.0
-4.584648,-12.344571,-6.300302,-27.790001,-24.57,11.55,1729477615581.0,0.0
-6.946364,-16.146767,-6.9009,-76.019997,4.55,-15.26,1729477615602.0,0.0
-3.416951,-14.002798,-5.584848,-30.030001,9.38,-31.08,1729477615622.0,0.0
-0.598206,-9.705289,-2.708675,78.050003,35.98,-26.25,1729477615641.0,0.0
-1.328017,-7.365108,-1.342373,82.529999,52.57,-28.139999,1729477615664.0,0.0
-2.230111,-6.551548,0.679562,7.98,50.470001,-24.360001,1729477615681.0,0.0
-0.591027,-7.618747,0.382852,-36.82,22.960001,-15.190001,1729477615701.0,0.0
1.416551,-7.750352,1.143769,-14.56,7.07,-4.41,1729477615722.0,0.0
1.959722,-6.108876,0.653241,31.639999,-1.68,8.54,1729477615742.0,0.0
0.588634,-6.56112,-0.717847,23.59,-11.13,20.23,1729477615766.0,0.0
-0.916451,-8.006385,-1.864009,-19.74,-22.469999,21.84,1729477615782.0,0.0
-0.095713,-9.095119,-3.419343,-4.9,-41.860001,29.610001,1729477615801.0,0.0
-1.07677,-10.119246,-3.876373,29.33,-42.700001,36.119999,1729477615821.0,0.0
-4.37408,-12.256038,-4.936393,20.65,-24.08,28.91,1729477615843.0,0.0
-7.046863,-16.187445,-5.003392,-23.24,-7.49,4.13,1729477615863.0,0.0
-3.034099,-13.517055,-2.895315,11.69,7.42,-24.780001,1729477615881.0,0.0
-0.583849,-9.858429,-1.552942,74.690002,23.1,-26.530001,1729477615902.0,0.0
-1.438086,-8.542377,-0.933201,92.610001,38.080002,-25.129999,1729477615921.0,0.0
-1.919044,-8.099705,0.284746,22.68,38.43,-26.530001,1729477615942.0,0.0
-0.315853,-8.312666,1.842474,-15.26,4.62,-20.440001,1729477615963.0,0.0
1.028914,-7.640282,1.789831,30.799999,-9.17,-8.05,1729477615981.0,0.0
0.808774,-6.281159,-0.18664,60.760002,-6.86,-1.26,1729477616001.0,0.0
0.078963,-6.211767,-1.182054,42.209999,-5.25,11.2,1729477616022.0,0.0
-1.124627,-7.992027,-2.18704,11.27,-4.13,18.76,1729477616042.0,0.0
-1.801795,-10.372886,-2.385644,30.799999,-8.68,23.52,1729477616063.0,0.0
-1.490728,-12.126825,-2.902494,110.25,-10.5,26.6,1729477616082.0,0.0
-2.050649,-10.877771,-2.117648,178.220001,3.64,23.66,1729477616102.0,0.0
-3.816552,-11.380265,-0.916451,185.779999,3.22,14.56,1729477616125.0,0.0
-3.615555,-11.047661,-0.722632,135.309998,8.4,2.31,1729477616142.0,0.0
-3.704089,-12.662818,2.014757,75.459999,13.23,-5.25,1729477616164.0,0.0
-1.842474,-12.763316,5.228317,70.349998,3.99,-9.45,1729477616181.0,0.0
-1.488336,-8.46102,3.177669,96.389999,24.57,-19.530001,1729477616202.0,0.0
-2.088934,-7.068398,4.529613,45.080002,22.049999,-28.91,1729477616223.0,0.0
-1.521835,-6.82433,4.850252,-19.040001,12.88,-23.309999,1729477616241.0,0.0
-0.658026,-9.463614,4.051049,-33.18,-0.14,-15.190001,1729477616263.0,0.0
-0.107677,-8.95155,4.311867,-14.28,-2.31,-10.64,1729477616281.0,0.0
-1.17009,-5.489135,5.142176,-49.0,6.44,1.26,1729477616301.0,0.0
-2.380858,-3.629912,4.656433,-186.130005,-20.16,7.77,1729477616333.0,0.0
-3.144169,-5.087141,1.828116,-343.700012,-74.690002,20.93,1729477616342.0,0.0
-2.548356,-7.661818,-3.893122,-437.01001,-107.029999,9.73,1729477616364.0,0.0
-2.009971,-10.128819,-5.831308,-468.929993,-109.900002,-2.31,1729477616382.0,0.0
-1.524228,-11.093125,-5.589634,-481.459991,-112.840004,-17.99,1729477616401.0,0.0
-1.134198,-9.635897,-6.735795,-453.950012,-96.529999,-37.380001,1729477616421.0,0.0
-1.622334,-7.652246,-8.12124,-377.860016,-68.459999,-42.420002,1729477616442.0,0.0
-1.488336,-6.723832,-9.226725,-298.829987,-50.540001,-38.220001,1729477616463.0,0.0
-1.172483,-6.896115,-9.894321,-196.279999,-38.779999,-28.139999,1729477616481.0,0.0
-1.399801,-5.749953,-10.217353,-135.100006,-16.799999,-19.32,1729477616502.0,0.0
-1.433301,-6.12084,-9.707682,-98.139999,-0.35,-8.33,1729477616522.0,0.0
-2.151148,-5.166104,-9.437292,-31.780001,8.26,-3.85,1729477616542.0,0.0
-2.682354,-4.271189,-9.891929,-18.83,17.92,-1.89,1729477616564.0,0.0
-1.70369,-7.855636,-11.215159,79.660004,19.6,2.52,1729477616582.0,0.0
-2.35693,-4.534399,-8.262416,247.100006,22.960001,32.549999,1729477616602.0,0.0
-2.813959,-2.435893,-6.266802,260.679993,31.290001,27.299999,1729477616622.0,0.0
-3.048456,-3.806981,-4.486543,182.699997,29.82,33.740002,1729477616642.0,0.0
-1.986043,-5.395815,-6.656832,105.349998,6.65,25.549999,1729477616664.0,0.0
-1.497907,-6.257231,-8.549555,72.940002,3.08,16.870001,1729477616684.0,0.0
-1.847259,-7.853244,-8.355737,57.540001,19.32,8.75,1729477616708.0,0.0
-1.85683,-8.705089,-7.113862,44.450001,22.540001,-4.13,1729477616726.0,0.0
-1.634298,-9.377472,-5.85763,61.32,17.290001,-12.11,1729477616744.0,0.0
-1.445265,-9.927821,-5.259424,94.919998,10.99,-23.17,1729477616768.0,0.0
-1.631905,-7.759924,-3.211168,98.0,4.34,-26.389999,1729477616785.0,0.0
-1.998007,-6.546762,-1.981257,61.599998,2.52,-13.16,1729477616804.0,0.0
-2.428715,-7.855636,-1.426122,24.57,-8.89,-6.44,1729477616823.0,0.0
-2.557927,-8.482556,-1.619941,2.52,-26.74,-5.46,1729477616844.0,0.0
-2.378466,-8.260024,-3.598805,-17.290001,-32.48,-3.15,1729477616865.0,0.0
-1.68694,-7.003791,-6.001199,-69.440002,-37.450001,5.88,1729477616884.0,0.0
-0.586242,-6.709475,-7.537392,-116.690002,-40.810001,20.860001,1729477616904.0,0.0
-0.248854,-8.317451,-8.645268,-129.710007,-22.120001,32.689999,1729477616924.0,0.0
-1.09352,-10.241282,-8.133204,-81.480003,10.92,36.68,1729477616944.0,0.0
-2.143969,-9.899107,-6.838687,-22.68,36.330002,36.470001,1729477616965.0,0.0
-2.756532,-9.176475,-5.254639,5.67,35.490002,37.029999,1729477616984.0,0.0
-2.806781,-9.073583,-5.118248,-11.13,27.719999,21.0,1729477617004.0,0.0
-2.955136,-8.874979,-5.745167,-28.700001,15.12,0.21,1729477617023.0,0.0
-2.739782,-8.238488,-5.938986,-5.25,4.41,-12.67,1729477617048.0,0.0
-2.036292,-6.379266,-5.819345,-0.42,-15.05,-22.190001,1729477617065.0,0.0
-1.423729,-5.761917,-6.845865,-22.960001,-29.190001,-29.960001,1729477617083.0,0.0
-0.772882,-6.611369,-7.525427,-58.380001,-42.139999,-39.549999,1729477617103.0,0.0
-0.820738,-7.448857,-7.489535,-87.220001,-36.68,-39.830002,1729477617123.0,0.0
-1.51705,-7.360322,-7.913064,-49.84,-0.91,-32.200001,1729477617143.0,0.0
-1.849652,-6.989435,-6.305088,-17.360001,-1.47,-19.809999,1729477617165.0,0.0
-2.337788,-7.288538,-6.273981,15.33,8.33,-3.5,1729477617183.0,0.0
-3.23031,-7.769495,-5.721239,33.25,23.450001,8.61,1729477617203.0,0.0
-3.830909,-7.755138,-5.965307,53.27,24.92,18.129999,1729477617224.0,0.0
-3.412165,-7.927422,-5.532206,81.690002,17.01,26.809999,1729477617245.0,0.0
-2.507678,-6.886543,-5.895915,85.68,9.94,28.0,1729477617265.0,0.0
-2.177469,-6.675975,-6.206983,78.120003,18.620001,32.830002,1729477617283.0,0.0
-2.608176,-6.60419,-6.589834,53.200001,34.299999,38.009998,1729477617303.0,0.0
-2.148755,-7.49432,-6.151947,39.970001,32.200001,36.400002,1729477617323.0,0.0
-1.191626,-8.303094,-5.647062,48.369999,9.66,35.84,1729477617345.0,0.0
-1.064806,-8.243275,-5.194818,55.580002,14.28,31.08,1729477617364.0,0.0
-1.962115,-8.599805,-4.718646,54.18,27.719999,24.08,1729477617383.0,0.0
-2.40718,-9.765109,-5.819345,85.190002,23.52,17.780001,1729477617403.0,0.0
-2.586641,-9.303294,-3.84048,105.699997,25.690001,14.56,1729477617423.0,0.0
-2.758924,-7.683353,-3.512664,72.590004,23.870001,9.1,1729477617443.0,0.0
-2.56032,-8.075776,-4.113262,-34.16,6.72,-2.24,1729477617464.0,0.0
-2.182254,-7.106683,-4.333402,-95.550003,-5.6,-8.89,1729477617483.0,0.0
-1.887937,-5.946165,-5.682954,-133.979996,-9.94,-11.62,1729477617503.0,0.0
-1.706082,-5.776274,-7.54457,-168.419998,-9.73,-7.63,1729477617523.0,0.0
-1.691726,-5.826523,-8.453842,-199.779999,-11.83,-0.28,1729477617543.0,0.0
-1.837688,-5.443672,-8.315059,-203.419998,3.36,15.54,1729477617564.0,0.0
-2.402394,-6.759724,-8.051848,-159.110001,11.34,33.25,1729477617584.0,0.0
-2.163112,-9.750752,-8.420342,-87.220001,13.02,35.98,1729477617603.0,0.0
-1.694118,-11.712867,-9.372685,-11.48,5.88,31.360001,1729477617624.0,0.0
-1.68694,-9.571291,-9.760324,60.549999,25.549999,18.690001,1729477617644.0,0.0
-2.629712,-10.068997,-8.073383,159.110001,55.510002,4.62,1729477617665.0,0.0
-3.354738,-9.29133,-2.354537,201.529999,58.240002,-10.99,1729477617683.0,0.0
-2.639283,-7.932207,-4.273581,217.699997,17.43,-25.34,1729477617703.0,0.0
-2.385644,-5.63749,-5.414958,165.410004,-3.08,-30.380001,1729477617723.0,0.0
-3.237489,-4.07737,-2.732604,55.650002,16.24,-28.77,1729477617743.0,0.0
-3.773481,-4.386044,-3.34038,-46.27,4.97,-28.700001,1729477617769.0,0.0
-2.773281,-8.204988,-7.312466,-101.709999,-23.24,-28.0,1729477617783.0,0.0
-1.68694,-7.424929,-7.322037,-102.059998,-47.880001,-27.02,1729477617803.0,0.0
-1.445265,-5.563312,-7.389036,-73.150002,-28.91,-25.549999,1729477617889.0,0.0
-1.875973,-5.927022,-4.520042,-98.769997,-14.35,-23.73,1729477617892.0,0.0
-1.493121,-7.130611,-7.183254,-145.809998,-34.509998,-37.869999,1729477617894.0,0.0
-1.507478,-8.12124,-9.097511,-79.029999,-44.170002,-28.42,1729477617895.0,0.0
-1.596013,-6.161518,-8.061419,11.2,-11.62,-14.14,1729477617903.0,0.0
-2.074577,-5.180461,-6.501299,40.950001,-0.84,0.28,1729477617923.0,0.0
-2.612962,-6.69751,-6.54437,7.0,9.03,17.01,1729477617944.0,0.0
-2.053042,-9.202796,-8.937192,-11.97,-6.09,20.16,1729477617965.0,0.0
-1.105484,-10.805987,-9.269794,42.700001,-6.86,24.219999,1729477617982.0,0.0
-0.653241,-10.4016,-7.73121,123.830002,17.710001,26.809999,1729477618003.0,0.0
-1.026521,-8.590233,-2.242075,162.960007,39.759998,23.24,1729477618022.0,0.0
-2.081756,-6.24766,-1.751546,117.949997,41.790001,13.79,1729477618043.0,0.0
-2.739782,-6.283553,-3.366701,42.560001,18.690001,5.11,1729477618065.0,0.0
-2.785245,-8.628519,-4.096512,-13.440001,-16.17,0.21,1729477618083.0,0.0
-2.392823,-8.712267,-4.663611,-20.790001,-35.77,-7.35,1729477618102.0,0.0
-2.514857,-6.300302,-5.481956,-18.549999,-38.639999,-14.56,1729477618123.0,0.0
-2.603391,-6.07777,-7.905886,-114.449997,-46.970001,-27.93,1729477618143.0,0.0
-2.45025,-8.11167,-10.585848,-146.229996,-56.560001,-32.060001,1729477618164.0,0.0
-1.363909,-6.867401,-8.764909,-159.25,-47.670002,-31.85,1729477618183.0,0.0
-1.497907,-6.479764,-8.274381,-87.150002,-16.1,-17.99,1729477618202.0,0.0
-3.254239,-6.573084,-10.30828,29.960001,25.41,9.66,1729477618223.0,0.0
-3.35713,-4.847858,-7.999206,39.34,48.93,24.57,1729477618243.0,0.0
-3.125026,-5.800202,-6.9009,11.06,43.470001,41.23,1729477618264.0,0.0
-2.117648,-8.595018,-6.556334,-4.13,25.969999,43.119999,1729477618283.0,0.0
-0.768096,-10.614561,-6.410372,28.35,13.16,39.41,1729477618303.0,0.0
0.215354,-9.96132,-5.639884,70.07,10.57,28.280001,1729477618323.0,0.0
-0.842274,-8.142776,-3.981657,108.779999,33.880001,16.870001,1729477618343.0,0.0
-2.684747,-5.970093,-2.852244,94.43,50.330002,8.82,1729477618372.0,0.0
-3.60359,-5.788238,-4.249653,47.529999,13.16,5.88,1729477618385.0,0.0
-3.09392,-7.676175,-5.101498,4.34,-30.1,-1.54,1729477618403.0,0.0
-2.122434,-7.893922,-6.558727,-10.71,-48.09,-15.190001,1729477618423.0,0.0
-2.447858,-5.570491,-5.71406,-15.05,-42.91,-27.370001,1729477618443.0,0.0
-2.998207,-4.627719,-7.288538,-87.57,-37.799999,-38.080002,1729477618464.0,0.0
-3.15374,-5.977271,-10.068997,-133.070007,-48.509998,-41.369999,1729477618484.0,0.0
-2.423929,-6.029913,-8.68116,-184.169998,-45.5,-44.029999,1729477618503.0,0.0
-2.395216,-5.699703,-9.461221,-132.440002,-12.81,-29.33,1729477618523.0,0.0
-2.9671,-4.565506,-10.9017,-11.69,7.7,-1.89,1729477618544.0,0.0
-3.079563,-3.979264,-6.58744,-20.02,36.82,30.1,1729477618565.0,0.0
-3.127419,-7.611568,-5.087141,-54.040001,31.99,38.009998,1729477618584.0,0.0
-2.072184,-10.564312,-7.575676,-26.809999,-0.28,32.200001,1729477618604.0,0.0
-0.789631,-10.674382,-10.408779,74.550003,-17.290001,34.439999,1729477618623.0,0.0
-0.047856,-9.288938,-8.331808,155.470001,13.93,32.689999,1729477618644.0,0.0
-1.971686,-8.073383,-5.548956,196.419998,66.57,22.610001,1729477618666.0,0.0
-4.802395,-4.850252,-3.335595,153.580002,102.550003,17.57,1729477618684.0,0.0
-5.091926,-4.780859,-1.021735,75.040001,36.049999,12.39,1729477618708.0,0.0
-3.517449,-6.551548,-4.809574,-16.870001,-34.09,0.63,1729477618724.0,0.0
-2.227718,-8.126025,-7.49432,-103.18,-29.4,-26.74,1729477618744.0,0.0
-0.418744,-6.838687,-9.274581,-96.110001,-87.360001,-46.970001,1729477618771.0,0.0
-0.062213,-5.12782,-5.163712,-33.670002,-57.470001,-25.129999,1729477618784.0,0.0
-1.978864,-5.063213,-8.178668,-3.71,-14.28,-20.440001,1729477618808.0,0.0
-3.940979,-6.513263,-10.327423,-5.6,5.39,2.38,1729477618826.0,0.0
-2.440679,-6.616155,-7.01097,-16.030001,-6.65,6.02,1729477618847.0,0.0
-1.974079,-7.999206,-8.556733,-4.76,-24.15,12.18,1729477618868.0,0.0
-2.433501,-6.329016,-7.51107,-0.14,19.18,3.92,1729477618885.0,0.0
-3.381058,-6.352944,-7.429714,-17.15,28.210001,1.75,1729477618906.0,0.0
-3.620341,-7.501499,-7.121039,-30.73,21.49,3.08,1729477618925.0,0.0
-3.017349,-7.946564,-7.171289,-8.54,15.82,4.76,1729477618947.0,0.0
-2.871387,-6.379266,-5.606383,17.290001,13.440001,9.17,1729477618969.0,0.0
-3.407379,-4.76411,-4.352544,2.03,22.75,12.88,1729477618986.0,0.0
-3.474378,-6.226124,-5.953342,-20.51,3.99,11.9,1729477619005.0,0.0
-2.74696,-8.025528,-6.216553,-22.469999,-18.969999,9.94,1729477619025.0,0.0
-2.641676,-9.24108,-7.257431,15.61,-22.610001,-10.64,1729477619046.0,0.0
-3.175276,-7.999206,-6.762117,46.27,-4.34,-33.25,1729477619069.0,0.0
-3.448057,-7.030113,-5.106283,22.190001,-20.790001,-51.450001,1729477619089.0,0.0
-1.988436,-3.68734,-8.422735,-38.920002,-54.110001,-66.5,1729477619105.0,0.0
-0.940379,-2.294717,-10.250853,-71.959999,-70.349998,-45.009998,1729477619125.0,0.0
-0.275175,-3.940979,-10.348958,-78.68,-43.330002,-28.280001,1729477619147.0,0.0
-1.17009,-5.087141,-9.68136,-40.810001,6.72,-2.38,1729477619168.0,0.0
-2.495714,-5.240282,-8.449057,5.11,37.099998,15.68,1729477619185.0,0.0
-3.433701,-4.627719,-6.458229,-10.29,43.330002,30.309999,1729477619205.0,0.0
-4.046263,-4.572684,-4.271189,-76.580002,34.369999,41.02,1729477619226.0,0.0
-3.95055,-5.438886,-5.974878,-140.839996,9.45,45.009998,1729477619245.0,0.0
-3.627519,-7.886744,-7.609176,-175.490005,-7.07,49.279999,1729477619269.0,0.0
-3.460021,-9.956534,-7.568498,-131.039993,-9.03,49.630001,1729477619285.0,0.0
-3.438486,-10.128819,-8.470592,-22.4,-7.63,47.880001,1729477619304.0,0.0
-3.218346,-8.281559,-9.396614,74.059998,-0.98,38.360001,1729477619325.0,0.0
-3.125026,-5.314459,-10.040283,105.910004,14.84,40.740002,1729477619348.0,0.0
-2.660819,-4.354938,-9.609575,116.550003,23.59,49.700001,1729477619368.0,0.0
-2.117648,-6.029913,-8.891729,103.599998,33.110001,52.43,1729477619385.0,0.0
-2.167897,-7.183254,-8.240881,95.340004,40.32,42.630001,1729477619404.0,0.0
-2.199004,-8.159525,-7.664211,102.550003,41.16,27.860001,1729477619425.0,0.0
-2.277967,-6.941578,-7.037291,103.459999,36.259998,10.29,1729477619447.0,0.0
-2.804388,-5.539384,-6.183054,96.529999,37.799999,-6.02,1729477619465.0,0.0
-2.916851,-4.788038,-5.331209,43.82,22.540001,-22.889999,1729477619484.0,0.0
-2.699104,-4.776074,-4.371687,-25.200001,1.47,-30.73,1729477619505.0,0.0
-2.376073,-2.976671,-5.960521,-107.029999,-19.879999,-37.450001,1729477619525.0,0.0
-2.443072,-2.199004,-8.032705,-184.520004,-22.190001,-35.07,1729477619545.0,0.0
-2.589034,-5.326423,-10.061819,-192.289993,-16.17,-25.76,1729477619567.0,0.0
-2.086541,-5.879165,-10.480563,-138.669998,-18.83,-9.94,1729477619585.0,0.0
-1.770689,-4.532006,-9.030513,-66.919998,1.33,7.91,1729477619605.0,0.0
-2.452643,-3.421736,-8.963513,-27.65,20.719999,24.219999,1729477619625.0,0.0
-3.048456,-4.843073,-9.209974,-10.78,21.49,39.200001,1729477619645.0,0.0
-2.651247,-6.951149,-8.542377,-6.79,15.75,45.220001,1729477619666.0,0.0
-2.392823,-8.872586,-7.058826,25.34,12.88,47.459999,1729477619686.0,0.0
-2.402394,-7.286145,-5.862415,77.840004,8.54,40.040001,1729477619709.0,0.0
-2.562713,-5.647062,-7.582855,120.120003,-5.6,33.389999,1729477619725.0,0.0
-2.773281,-5.709275,-8.300702,119.840004,-1.54,38.360001,1729477619745.0,0.0
-2.871387,-6.580262,-7.881958,140.770004,2.38,39.48,1729477619769.0,0.0
-2.883351,-6.958328,-7.056434,182.419998,2.87,36.049999,1729477619784.0,0.0
-2.979064,-7.482357,-6.204589,237.930008,5.04,28.84,1729477619807.0,0.0
-3.15374,-8.207381,-6.508478,269.5,5.25,17.710001,1729477619825.0,0.0
-3.625126,-8.006385,-7.020542,239.050003,0.14,2.52,1729477619845.0,0.0
-4.266403,-5.352744,-4.888536,135.240005,6.09,-11.9,1729477619866.0,0.0
-5.134997,-4.692325,-4.139583,6.02,11.41,-17.99,1729477619884.0,0.0
-5.111069,-6.448657,-5.570491,-84.07,-0.84,-22.4,1729477619904.0,0.0
-4.091727,-7.60439,-5.15414,-96.32,-16.030001,-16.030001,1729477619926.0,0.0
-3.105884,-6.788438,-4.072584,-80.010002,-27.23,-8.4,1729477619945.0,0.0
-3.069991,-5.596812,-3.723232,-100.239998,-18.200001,2.52,1729477619966.0,0.0
-3.68734,-6.070591,-4.661219,-138.110001,-9.66,11.9,1729477619985.0,0.0
-3.452843,-7.795816,-6.309873,-133.139999,-22.68,16.1,1729477620004.0,0.0
-2.419144,-9.114261,-8.090133,-79.660004,-42.139999,20.65,1729477620024.0,0.0
-2.28036,-8.070991,-9.786645,-8.05,-28.98,25.83,1729477620045.0,0.0
-3.452843,-7.159326,-7.319644,35.139999,18.27,28.210001,1729477620066.0,0.0
-4.309474,-5.647062,-7.77428,40.389999,30.66,33.25,1729477620084.0,0.0
-3.921836,-6.98465,-6.577869,31.43,11.97,31.01,1729477620105.0,0.0
-3.220739,-8.645268,-5.989235,-5.46,-0.49,11.41,1729477620124.0,0.0
-3.141776,-8.501699,-6.625726,4.2,2.59,-8.12,1729477620145.0,0.0
-3.562913,-6.288338,-7.264609,20.58,7.56,-25.200001,1729477620167.0,0.0
-4.204189,-6.039484,-6.367301,28.91,17.43,-34.23,1729477620184.0,0.0
-4.39083,-6.601797,-3.866802,19.389999,4.69,-43.400002,1729477620204.0,0.0
