acc_x,acc_y,acc_z,gyr_x,gyr_y,gyr_z,timestamp,label
-4.725825,-1.418944,-9.963714,-3.5,13.72,22.120001,1729426201402.0,0.0
-5.036892,-1.734797,-9.743573,-5.18,15.33,21.559999,1729426201407.0,0.0
-4.850252,-2.007578,-9.628718,-6.44,15.190001,19.32,1729426201408.0,0.0
-4.505685,-1.385444,-9.45165,-1.82,13.72,14.98,1729426201408.0,0.0
-5.015356,-1.225125,-9.133404,-1.12,19.530001,12.81,1729426201414.0,0.0
-5.402994,-1.17009,-8.750552,-4.48,17.5,13.65,1729426201432.0,0.0
-5.005785,-1.155733,-8.650054,-6.3,5.6,14.28,1729426201452.0,0.0
-4.345366,-1.282553,-9.109475,-5.32,-4.9,16.52,1729426201471.0,0.0
-4.106083,-1.351945,-9.889536,-0.98,-7.0,18.83,1729426201491.0,0.0
-4.027121,-1.643869,-10.279566,5.88,-5.11,22.190001,1729426201511.0,0.0
-3.895515,-2.050649,-9.992428,6.23,-1.89,23.799999,1729426201532.0,0.0
-3.835695,-1.945365,-9.480364,8.96,1.54,23.940001,1729426201551.0,0.0
-3.976871,-1.555335,-9.157332,15.68,2.45,22.960001,1729426201571.0,0.0
-4.228118,-1.490728,-8.879765,16.52,3.15,22.469999,1729426201590.0,0.0
-4.192225,-1.835295,-8.420342,10.85,1.19,20.16,1729426201611.0,0.0
-4.003192,-2.021935,-8.300702,8.26,-2.59,17.219999,1729426201638.0,0.0
-3.905087,-2.062613,-8.693125,17.15,-6.79,13.02,1729426201651.0,0.0
-4.15394,-2.002793,-8.300702,26.460001,-5.39,10.43,1729426201671.0,0.0
-4.220939,-1.840081,-8.178668,31.290001,-8.82,8.61,1729426201691.0,0.0
-3.9338,-1.741975,-8.472985,26.32,-13.51,6.23,1729426201711.0,0.0
-4.328616,-2.06022,-8.738588,12.39,-13.86,8.33,1729426201732.0,0.0
-4.668397,-2.213361,-9.181261,10.92,-15.54,6.65,1729426201751.0,0.0
-4.752146,-2.562713,-9.190832,15.190001,-14.98,7.91,1729426201770.0,0.0
-4.835894,-3.022135,-9.006584,19.879999,-12.18,6.58,1729426201791.0,0.0
-5.020142,-2.852244,-8.729016,24.360001,-9.17,5.04,1729426201811.0,0.0
-5.314459,-2.24686,-8.566305,27.23,-5.39,2.94,1729426201836.0,0.0
-5.685347,-2.108077,-9.188439,28.210001,-1.12,0.49,1729426201851.0,0.0
-6.12084,-1.708475,-9.131011,27.860001,9.8,-0.91,1729426201873.0,0.0
-7.018148,-1.933401,-9.372685,27.58,24.780001,1.54,1729426201892.0,0.0
-7.317252,-1.469193,-9.052048,26.25,37.380001,2.59,1729426201911.0,0.0
-6.800402,-0.574277,-8.815158,30.24,32.970001,7.35,1729426201933.0,0.0
-5.56092,-0.131605,-9.300901,27.719999,26.809999,10.85,1729426201952.0,0.0
-4.800002,-0.926022,-9.190832,2.87,34.860001,8.54,1729426201972.0,0.0
-4.400401,-1.294517,-9.174082,-20.02,40.459999,6.58,1729426201991.0,0.0
-3.929015,-1.237089,-9.640682,-25.76,36.049999,5.53,1729426202011.0,0.0
-3.342773,-2.536392,-8.276773,-26.389999,31.92,1.96,1729426202032.0,0.0
-2.019542,-3.026921,-9.4349,-23.450001,27.719999,0.77,1729426202053.0,0.0
-1.026521,-2.617748,-9.96132,-8.19,14.56,-2.66,1729426202071.0,0.0
-0.256032,-1.919044,-9.877571,0.63,17.219999,-0.35,1729426202092.0,0.0
0.351745,-1.40698,-10.128819,5.25,16.030001,3.29,1729426202113.0,0.0
0.734596,-2.029114,-10.128819,8.61,14.42,9.03,1729426202132.0,0.0
0.653241,-2.794817,-9.765109,10.99,16.799999,10.5,1729426202152.0,0.0
-0.248854,-3.261417,-8.657232,18.34,23.66,14.56,1729426202172.0,0.0
-0.921237,-3.768696,-8.449057,32.200001,22.889999,13.58,1729426202193.0,0.0
-1.050449,-4.055835,-8.664411,59.080002,13.86,11.2,1729426202212.0,0.0
-1.167697,-3.440879,-8.300702,84.139999,9.45,9.73,1729426202233.0,0.0
-1.648655,-2.684747,-8.767302,88.970001,6.86,11.9,1729426202251.0,0.0
-2.179861,-2.962314,-9.303294,75.809998,6.86,12.6,1729426202272.0,0.0
-2.672783,-3.35713,-9.133404,64.260002,8.47,14.28,1729426202293.0,0.0
-3.139383,-3.369094,-8.963513,60.549999,7.56,16.24,1729426202310.0,0.0
-3.510271,-3.649055,-9.765109,58.029999,7.21,17.219999,1729426202333.0,0.0
-3.694518,-3.945765,-10.363315,56.420002,9.8,16.379999,1729426202352.0,0.0
-3.742374,-4.242475,-9.525827,63.420002,13.37,16.940001,1729426202372.0,0.0
-3.445665,-3.864408,-10.073784,60.970001,14.07,15.68,1729426202392.0,0.0
-2.995814,-4.048656,-10.07139,44.59,18.9,10.08,1729426202411.0,0.0
-3.022135,-4.063013,-9.719646,32.830002,32.34,13.440001,1729426202434.0,0.0
-3.507878,-6.580262,-0.937986,8.19,37.59,15.05,1729426202451.0,0.0
-5.546563,-6.678369,-4.254438,-135.169998,30.73,3.01,1729426202472.0,0.0
-3.026921,-5.106283,-9.934999,-138.320007,-22.049999,-36.259998,1729426202491.0,0.0
-2.964707,-3.261417,-10.916058,-70.349998,-9.03,-10.92,1729426202511.0,0.0
-2.813959,-3.960121,-11.210374,13.72,0.77,-7.49,1729426202534.0,0.0
-2.976671,-4.548756,-9.865608,62.650002,11.62,11.2,1729426202552.0,0.0
-2.031506,-3.749553,-8.633304,36.75,8.4,10.5,1729426202571.0,0.0
-1.399801,-2.603391,-8.051848,-12.32,8.4,1.96,1729426202597.0,0.0
-2.151148,-2.261217,-5.960521,-27.51,8.82,-1.33,1729426202611.0,0.0
-3.129812,-2.555535,-5.120641,-38.57,-2.38,-3.99,1729426202634.0,0.0
-2.431108,-2.864209,-6.798009,-57.119999,-29.049999,-13.72,1729426202653.0,0.0
-1.854438,-1.737189,-9.499505,-60.549999,-44.59,-15.26,1729426202670.0,0.0
-2.555535,-0.22014,-11.267801,-74.410004,-31.85,-4.34,1729426202691.0,0.0
-4.713861,-1.902294,-11.607583,-85.330002,-3.5,20.860001,1729426202712.0,0.0
-5.108676,-3.256632,-11.251052,-46.27,18.41,53.689999,1729426202733.0,0.0
-3.888337,-2.864209,-11.272588,28.280001,7.77,68.040001,1729426202751.0,0.0
-3.273381,-2.029114,-10.779665,81.900002,11.97,72.449997,1729426202772.0,0.0
-3.885944,-2.100898,-10.260423,70.980003,32.060001,69.230003,1729426202791.0,0.0
-4.256832,-3.328416,-8.815158,33.040001,38.639999,58.869999,1729426202812.0,0.0
-3.512664,-4.541577,-7.073184,7.0,29.960001,38.43,1729426202836.0,0.0
-2.617748,-4.599005,-6.73101,4.76,11.97,14.63,1729426202851.0,0.0
-2.15354,-3.718446,-6.946364,5.67,-2.52,-7.35,1729426202871.0,0.0
-2.612962,-3.388237,-6.692725,-5.32,-10.43,-25.549999,1729426202895.0,0.0
-2.809174,-3.050849,-7.630712,-32.619999,-18.83,-43.119999,1729426202912.0,0.0
-1.859223,-1.457229,-8.695518,-50.049999,-35.139999,-53.130001,1729426202933.0,0.0
-2.033899,-0.708275,-8.760124,-45.43,-32.689999,-41.299999,1729426202952.0,0.0
-2.782853,-0.887737,-10.636096,-35.84,-25.9,-20.65,1729426202972.0,0.0
-3.823731,-1.057628,-10.578669,-27.860001,-9.17,1.26,1729426202991.0,0.0
-4.24726,-1.464408,-11.454442,-21.559999,0.56,22.960001,1729426203012.0,0.0
-2.433501,-2.065006,-11.595619,-18.34,2.52,35.91,1729426203033.0,0.0
-2.347359,-2.366502,-10.655239,3.01,15.75,39.549999,1729426203053.0,0.0
-3.574877,-2.672783,-9.611969,30.799999,28.35,42.84,1729426203072.0,0.0
-4.292724,-2.139183,-8.975478,31.92,28.139999,39.34,1729426203091.0,0.0
-3.711268,-3.213561,-9.107083,-8.19,21.629999,27.440001,1729426203113.0,0.0
-3.349952,-4.680361,-9.446864,-37.240002,21.98,12.67,1729426203135.0,0.0
-3.76391,-4.993821,-8.477771,-24.99,24.01,-5.18,1729426203153.0,0.0
-3.823731,-3.960121,-8.197811,-5.04,15.190001,-20.58,1729426203173.0,0.0
-3.23031,-3.369094,-8.585447,9.17,2.52,-34.09,1729426203192.0,0.0
-2.974278,-3.285345,-8.690732,13.79,-3.08,-44.59,1729426203213.0,0.0
-2.919244,-2.919244,-9.042477,-5.04,-5.88,-56.349998,1729426203235.0,0.0
-2.469393,-1.497907,-10.188639,-35.0,-8.12,-64.75,1729426203254.0,0.0
-2.400001,0.394816,-8.702696,-48.509998,-4.06,-57.189999,1729426203272.0,0.0
-3.048456,1.141376,-9.152546,-15.190001,-2.03,-30.52,1729426203292.0,0.0
-2.679961,0.497707,-10.420743,4.13,-4.97,-6.86,1729426203318.0,0.0
-2.26361,0.399601,-11.32523,-3.22,3.71,24.08,1729426203334.0,0.0
-2.495714,0.282353,-10.542776,-8.54,19.389999,39.48,1729426203352.0,0.0
-2.885744,-0.993021,-9.298509,3.5,24.99,48.439999,1729426203373.0,0.0
-3.304488,-1.808974,-8.877372,28.07,23.1,49.0,1729426203392.0,0.0
-3.682554,-2.041078,-9.284152,26.040001,21.77,42.560001,1729426203412.0,0.0
-3.572484,-3.596412,-9.930215,-13.23,21.98,27.370001,1729426203435.0,0.0
-3.620341,-4.479364,-9.442079,-26.32,22.82,12.39,1729426203452.0,0.0
-3.694518,-4.512863,-8.77448,-14.0,20.93,-5.25,1729426203473.0,0.0
-3.287738,-4.271189,-8.02792,4.27,9.38,-20.719999,1729426203493.0,0.0
-2.569891,-3.349952,-8.262416,12.39,-5.11,-35.279999,1729426203513.0,0.0
-2.400001,-2.792424,-9.111869,11.9,-10.85,-45.220001,1729426203535.0,0.0
-2.254039,-2.337788,-9.705289,-2.66,-14.49,-53.830002,1729426203553.0,0.0
-1.85683,-1.741975,-8.829515,-34.09,-14.84,-60.41,1729426203572.0,0.0
-2.105684,0.502493,-8.867801,-43.259998,-12.53,-51.170002,1729426203593.0,0.0
-2.59382,1.986043,-8.714661,0.7,-17.01,-25.27,1729426203613.0,0.0
-1.663012,1.457229,-11.45205,-9.66,-25.200001,-3.85,1729426203634.0,0.0
-1.26341,0.303888,-11.066804,-30.59,-12.74,18.27,1729426203654.0,0.0
-2.517249,-0.748954,-9.470792,-18.549999,17.710001,47.529999,1729426203673.0,0.0
-2.971886,-2.009971,-8.834301,12.25,12.81,51.450001,1729426203693.0,0.0
-3.151347,-2.079363,-9.193225,26.530001,7.98,44.450001,1729426203713.0,0.0
-3.732803,-3.036492,-9.726824,-6.3,12.53,27.790001,1729426203736.0,0.0
-4.036692,-4.4674,-10.377672,-29.120001,14.77,7.98,1729426203752.0,0.0
-3.823731,-4.869394,-9.934999,-19.530001,11.2,-11.97,1729426203773.0,0.0
-3.728018,-4.031906,-9.099905,-1.19,5.32,-27.23,1729426203793.0,0.0
-3.773481,-2.696711,-8.597411,10.57,-0.77,-38.220001,1729426203812.0,0.0
-3.696911,-2.285146,-9.037691,10.08,-5.32,-45.009998,1729426203837.0,0.0
-3.256632,-1.785046,-9.4349,8.54,-11.34,-47.389999,1729426203853.0,0.0
-2.486143,-1.033699,-8.750552,-6.58,-14.63,-49.209999,1729426203873.0,0.0
-1.962115,0.346959,-9.145369,-12.53,-18.620001,-42.349998,1729426203892.0,0.0
-1.572084,1.849652,-8.566305,6.16,-22.120001,-27.299999,1729426203913.0,0.0
-1.550549,1.976472,-9.973285,0.56,-22.469999,-3.85,1729426203934.0,0.0
-1.26341,1.131805,-11.038091,-5.18,-18.059999,16.52,1729426203952.0,0.0
-1.316052,0.524028,-10.669596,-9.66,-5.11,33.389999,1729426203973.0,0.0
-1.67019,-0.851845,-9.272188,1.54,5.11,45.990002,1729426203992.0,0.0
-2.579463,-1.588834,-8.341379,20.09,8.19,46.060001,1729426204012.0,0.0
-3.651447,-2.505285,-9.389436,13.16,11.69,37.029999,1729426204035.0,0.0
-4.287938,-3.570091,-9.942179,-11.27,12.67,19.460001,1729426204052.0,0.0
-4.359723,-4.019942,-10.08814,-24.01,9.52,2.87,1729426204073.0,0.0
-4.316652,-3.98405,-9.45165,-13.79,5.32,-13.440001,1729426204093.0,0.0
-4.192225,-3.52702,-9.013763,-6.51,0.56,-28.210001,1729426204112.0,0.0
-4.259224,-2.359323,-8.374879,3.57,-2.52,-36.959999,1729426204135.0,0.0
-4.084548,-1.651048,-8.77448,16.940001,-9.94,-37.939999,1729426204153.0,0.0
-3.416951,-1.399801,-9.018548,15.33,-17.01,-38.5,1729426204172.0,0.0
-2.584249,-1.421337,-8.891729,-7.77,-19.040001,-40.880001,1729426204192.0,0.0
-1.899901,-0.4666,-9.487542,-17.57,-23.17,-40.040001,1729426204213.0,0.0
-1.646262,0.409173,-9.006584,-1.19,-24.710001,-31.710001,1729426204233.0,0.0
-1.842474,1.244268,-9.267403,-12.88,-22.120001,-17.92,1729426204252.0,0.0
-1.866402,1.119841,-10.344172,-26.67,-18.200001,-1.4,1729426204272.0,0.0
-1.672583,0.4666,-10.849058,-16.66,-13.16,15.54,1729426204292.0,0.0
-1.4668,-0.050249,-10.231709,-2.1,-7.21,29.610001,1729426204312.0,0.0
-2.816352,-0.978664,-8.95155,13.79,8.33,41.439999,1729426204336.0,0.0
-3.823731,-2.120041,-8.999406,18.969999,10.71,37.52,1729426204352.0,0.0
-4.386044,-2.804388,-9.315259,8.61,10.5,24.360001,1729426204371.0,0.0
-4.704289,-3.615555,-9.628718,-13.65,10.36,6.79,1729426204392.0,0.0
-4.61097,-3.945765,-9.736395,-18.690001,7.28,-10.36,1729426204411.0,0.0
-4.469792,-3.598805,-8.642875,-5.95,3.5,-24.290001,1729426204435.0,0.0
-4.551149,-2.768496,-8.389235,4.34,-2.59,-31.99,1729426204452.0,0.0
-4.388437,-1.806581,-8.903693,7.14,-7.77,-37.799999,1729426204472.0,0.0
-4.067799,-1.131805,-9.521042,7.56,-12.53,-37.73,1729426204493.0,0.0
-3.476771,-0.89013,-9.896714,-5.53,-14.77,-37.380001,1729426204513.0,0.0
-2.699104,-0.01675,-10.006784,-17.360001,-14.49,-35.490002,1729426204536.0,0.0
-2.517249,0.928415,-9.901501,-9.38,-14.35,-23.030001,1729426204552.0,0.0
-2.053042,0.988236,-9.932607,-7.0,-14.91,-13.58,1729426204572.0,0.0
-2.268396,0.839881,-9.997212,-8.26,-9.87,3.92,1729426204592.0,0.0
-2.54357,0.07657,-10.140782,-8.89,-3.08,18.48,1729426204612.0,0.0
-2.352145,-0.667598,-9.683753,-1.4,-2.45,26.6,1729426204640.0,0.0
-2.706282,-1.129412,-8.721838,12.81,-2.1,32.900002,1729426204652.0,0.0
-3.416951,-1.885544,-8.568698,20.790001,0.21,32.34,1729426204673.0,0.0
-4.125226,-2.088934,-9.260223,17.639999,1.12,26.6,1729426204693.0,0.0
-4.625326,-2.495714,-10.047462,4.34,2.59,16.379999,1729426204712.0,0.0
-4.299902,-3.034099,-10.181459,-6.72,0.56,3.78,1729426204735.0,0.0
-3.948158,-3.318845,-9.38465,-3.29,-0.7,-9.03,1729426204753.0,0.0
-4.084548,-2.734996,-8.408379,-6.09,1.68,-22.33,1729426204773.0,0.0
-3.974478,-2.012364,-8.712267,-5.46,-2.94,-31.780001,1729426204793.0,0.0
-3.665804,-1.636691,-8.889337,-0.28,-7.42,-36.189999,1729426204813.0,0.0
-3.531806,-1.392623,-8.865408,-1.47,-7.14,-36.400002,1729426204837.0,0.0
-3.136991,-0.555135,-8.599805,-10.85,-10.15,-36.189999,1729426204853.0,0.0
-2.986243,-0.555135,-8.315059,-4.97,-12.32,-28.280001,1729426204873.0,0.0
-2.474179,0.722632,-8.133204,-5.11,-17.85,-21.559999,1729426204893.0,0.0
-2.117648,0.902094,-9.075976,-17.219999,-21.559999,-7.98,1729426204913.0,0.0
-2.622534,0.495314,-10.241282,-23.870001,-15.33,5.67,1729426204936.0,0.0
-3.314059,-0.519243,-10.246067,-15.190001,-1.33,26.040001,1729426204953.0,0.0
-3.651447,-1.229911,-9.272188,0.35,-0.56,34.299999,1729426204974.0,0.0
-3.938586,-1.344766,-8.559127,10.15,-1.4,33.670002,1729426204994.0,0.0
-4.749753,-1.552942,-8.628519,13.3,0.56,28.35,1729426205013.0,0.0
-5.402994,-2.368894,-9.633504,6.51,0.42,17.15,1729426205036.0,0.0
-5.623133,-2.998207,-10.049855,-6.93,-0.28,4.76,1729426205055.0,0.0
-5.319244,-3.218346,-10.207782,-12.6,-1.68,-7.35,1729426205073.0,0.0
-5.087141,-2.78046,-9.286544,-4.97,-2.03,-16.52,1729426205094.0,0.0
-5.094319,-2.175076,-8.542377,-5.04,-3.5,-22.889999,1729426205114.0,0.0
-4.819145,-1.636691,-8.865408,-5.95,-9.03,-27.719999,1729426205137.0,0.0
-4.563113,-1.588834,-9.193225,-0.28,-13.3,-28.35,1729426205155.0,0.0
-4.393222,-1.770689,-9.401401,6.79,-14.98,-29.049999,1729426205175.0,0.0
-4.113262,-0.971486,-8.762517,2.1,-14.56,-29.540001,1729426205195.0,0.0
-3.869194,-0.074178,-8.927622,0.42,-17.710001,-24.92,1729426205215.0,0.0
-2.713461,1.038485,-8.793623,3.43,-22.889999,-18.41,1729426205237.0,0.0
-3.328416,1.462015,-9.370294,-4.06,-15.75,-0.98,1729426205254.0,0.0
-2.907279,0.069392,-10.526026,-16.379999,-12.88,3.57,1729426205274.0,0.0
-2.498107,-0.358923,-10.370493,-7.49,-8.68,10.64,1729426205295.0,0.0
-2.608176,-0.229711,-10.272388,-0.7,-1.68,14.35,1729426205314.0,0.0
-3.223132,-0.619741,-9.678967,-3.22,7.35,16.1,1729426205337.0,0.0
-4.101298,-1.337588,-9.040084,0.49,12.6,16.17,1729426205360.0,0.0
-4.742575,-1.919044,-8.657232,7.91,11.97,13.37,1729426205374.0,0.0
-5.163712,-2.079363,-9.188439,15.61,10.57,9.87,1729426205394.0,0.0
-5.424529,-2.165504,-9.221939,4.69,10.71,1.89,1729426205415.0,0.0
-4.977071,-2.299503,-9.473185,-10.99,7.42,-7.28,1729426205436.0,0.0
-4.754539,-2.397608,-9.444471,-11.13,6.3,-14.35,1729426205454.0,0.0
-4.890929,-2.045863,-9.284152,-7.07,8.12,-19.25,1729426205475.0,0.0
-4.831109,-1.684547,-9.23151,2.73,5.88,-21.0,1729426205494.0,0.0
-4.699504,-1.708475,-9.133404,13.37,3.57,-21.35,1729426205514.0,0.0
-4.369294,-1.495514,-8.839087,11.76,1.05,-23.66,1729426205537.0,0.0
-3.572484,-0.533599,-8.188239,-0.49,0.14,-24.5,1729426205554.0,0.0
-3.227918,0.490529,-7.889136,-13.23,-5.95,-19.6,1729426205573.0,0.0
-2.861816,1.045663,-8.894121,-24.99,-9.31,-13.93,1729426205594.0,0.0
-3.04367,0.129212,-9.901501,-25.690001,-4.27,-4.06,1729426205614.0,0.0
-3.201597,-0.205783,-9.970891,-10.01,0.7,5.39,1729426205636.0,0.0
-3.323631,0.337388,-9.585647,5.32,3.64,14.0,1729426205655.0,0.0
-3.598805,-0.327817,-9.140583,-0.28,8.47,17.01,1729426205674.0,0.0
-4.15394,-1.275374,-8.202596,-9.59,12.67,13.3,1729426205695.0,0.0
-5.003392,-2.328217,-8.193025,-10.01,13.37,8.05,1729426205715.0,0.0
-5.340781,-2.880959,-9.052048,-2.52,5.95,-3.29,1729426205736.0,0.0
-5.166104,-2.67039,-9.820145,-0.49,1.75,-13.23,1729426205754.0,0.0
-4.728218,-2.538785,-10.006784,-5.46,0.98,-23.870001,1729426205775.0,0.0
-4.522435,-1.677369,-9.133404,-9.87,2.17,-28.0,1729426205794.0,0.0
-4.400401,-0.880559,-8.465806,-18.969999,-1.4,-27.440001,1729426205814.0,0.0
-4.027121,-0.904487,-9.375079,-22.540001,-7.0,-25.76,1729426205840.0,0.0
-4.005585,-0.794417,-9.339187,0.42,-8.47,-18.41,1729426205855.0,0.0
-4.462614,-1.040878,-8.640482,25.620001,-5.53,-7.91,1729426205874.0,0.0
-3.835695,-0.284746,-8.013563,28.0,-9.59,-2.38,1729426205894.0,0.0
-2.955136,0.150748,-8.46102,11.62,-20.370001,-0.91,1729426205915.0,0.0
-2.991028,0.555135,-8.796017,-0.7,-18.129999,3.99,1729426205937.0,0.0
-3.316452,0.471386,-9.745967,-10.99,-15.47,10.99,1729426205954.0,0.0
-3.125026,-0.332602,-10.750952,-5.6,-14.77,16.940001,1729426205984.0,0.0
-3.134598,-0.184247,-10.640882,9.52,-7.63,23.799999,1729426205995.0,0.0
-3.61077,-0.11007,-10.272388,11.83,2.66,30.309999,1729426206015.0,0.0
-4.168297,-1.265803,-9.619147,5.46,11.48,30.309999,1729426206035.0,0.0
-4.926822,-2.232504,-8.370094,0.98,18.690001,22.190001,1729426206054.0,0.0
-5.639884,-2.770889,-9.020942,7.42,19.460001,12.11,1729426206074.0,0.0
-5.924629,-2.76371,-8.827123,0.42,20.299999,-3.01,1729426206094.0,0.0
-5.460421,-2.837888,-9.140583,-12.46,14.91,-14.7,1729426206114.0,0.0
-4.790431,-2.493321,-8.930015,-12.6,9.52,-24.43,1729426206136.0,0.0
-4.515256,-2.036292,-8.805587,-11.27,5.18,-28.35,1729426206154.0,0.0
-4.295116,-1.868794,-8.922836,-7.63,0.7,-29.610001,1729426206174.0,0.0
-4.249653,-1.741975,-8.91805,0.21,-1.33,-27.860001,1729426206194.0,0.0
-4.271189,-1.832902,-8.69791,0.91,-0.63,-27.16,1729426206214.0,0.0
-3.701697,-1.215554,-8.13799,-1.82,-2.17,-27.860001,1729426206235.0,0.0
-3.419343,0.361316,-7.4345,-1.82,-11.83,-22.33,1729426206255.0,0.0
-2.981457,0.07657,-8.764909,-3.5,-19.110001,-17.219999,1729426206274.0,0.0
-2.730211,0.37328,-8.946764,0.14,-21.42,-10.85,1729426206293.0,0.0
-2.914458,0.260818,-10.461421,-3.43,-17.219999,-2.17,1729426206314.0,0.0
-3.084348,-0.208176,-11.167303,-5.74,-9.03,2.1,1729426206415.0,0.0
-3.491128,-0.253639,-10.997414,0.42,2.59,7.07,1729426206416.0,0.0
-4.017549,-0.399601,-10.492528,-2.38,12.53,9.45,1729426206417.0,0.0
-4.697111,-0.681954,-9.556933,-6.16,21.35,11.13,1729426206417.0,0.0
-5.24746,-1.265803,-9.142976,4.55,22.889999,11.34,1729426206417.0,0.0
-5.462814,-1.785046,-9.004191,14.21,22.049999,8.68,1729426206449.0,0.0
-5.388636,-1.892723,-8.829515,7.35,21.84,2.38,1729426206461.0,0.0
-4.871787,-2.041078,-8.659625,-8.05,19.110001,-6.51,1729426206473.0,0.0
-4.302295,-2.143969,-8.398808,-15.12,14.35,-15.75,1729426206495.0,0.0
-4.15394,-1.919044,-8.219346,-18.690001,10.71,-22.469999,1729426206514.0,0.0
-3.878766,-1.65344,-8.664411,-14.0,4.83,-26.809999,1729426206535.0,0.0
-3.725625,-1.624727,-8.645268,-2.52,-0.56,-27.370001,1729426206554.0,0.0
-3.682554,-1.155733,-8.616554,2.87,-4.83,-24.85,1729426206573.0,0.0
-3.541377,-0.488136,-8.29113,1.61,-7.42,-20.790001,1729426206594.0,0.0
-3.29731,0.138784,-8.439486,-3.36,-10.15,-14.21,1729426206614.0,0.0
-3.18724,1.083949,-8.02792,-7.7,-11.83,-5.6,1729426206637.0,0.0
-3.311667,0.815953,-9.492328,-15.61,-11.76,4.34,1729426206654.0,0.0
-2.792424,-0.325424,-11.20798,-10.99,-14.0,10.15,1729426206681.0,0.0
-2.641676,-0.217747,-11.066804,3.64,-6.44,15.82,1729426206693.0,0.0
-3.206382,-0.009571,-10.470992,7.21,6.65,21.210001,1729426206714.0,0.0
-3.986443,-0.382852,-9.41815,6.65,14.21,22.4,1729426206737.0,0.0
-4.634897,-1.261017,-8.906086,8.61,16.940001,22.469999,1729426206754.0,0.0
-5.139783,-1.825724,-9.298509,13.58,16.379999,19.950001,1729426206774.0,0.0
-5.486742,-1.87358,-9.19801,6.93,17.99,13.09,1729426206794.0,0.0
-5.386244,-2.522035,-9.178867,-11.13,17.219999,3.64,1729426206814.0,0.0
-4.800002,-2.622534,-9.037691,-15.190001,12.67,-6.23,1729426206840.0,0.0
-4.548756,-2.0004,-8.370094,-10.36,9.38,-14.28,1729426206857.0,0.0
-4.453043,-1.947758,-8.35813,-12.46,5.18,-19.389999,1729426206875.0,0.0
-4.342973,-2.045863,-8.721838,-7.35,-1.54,-24.780001,1729426206896.0,0.0
-4.113262,-2.127219,-9.145369,4.83,-6.79,-26.6,1729426206916.0,0.0
-3.95055,-1.301696,-8.853443,9.8,-7.98,-27.299999,1729426206936.0,0.0
-3.897908,-0.428315,-8.669197,11.34,-8.47,-23.1,1729426206956.0,0.0
-3.5007,0.586242,-8.367701,6.16,-11.69,-18.129999,1729426206975.0,0.0
-3.194418,1.663012,-8.025528,-1.33,-14.42,-8.61,1729426206994.0,0.0
-2.861816,0.801596,-9.875179,-5.11,-16.24,-1.54,1729426207014.0,0.0
-2.663212,0.155533,-11.320443,-0.14,-12.11,4.41,1729426207040.0,0.0
-2.880959,0.0335,-10.786844,-6.44,-0.56,8.12,1729426207056.0,0.0
-2.945565,-0.435494,-10.559525,-18.969999,7.14,9.45,1729426207076.0,0.0
-3.335595,-0.830309,-9.542577,-7.21,13.09,11.27,1729426207108.0,0.0
-4.15394,-1.337588,-9.078369,19.110001,17.08,15.190001,1729426207188.0,0.0
-4.756931,-1.184447,-8.817552,27.16,17.43,16.940001,1729426207188.0,0.0
-4.883751,-1.478764,-9.580862,17.780001,14.98,16.379999,1729426207189.0,0.0
-4.876573,-2.275574,-9.444471,-9.52,16.450001,7.7,1729426207189.0,0.0
-4.570292,-2.522035,-8.673983,-12.6,12.18,-0.77,1729426207197.0,0.0
-4.292724,-2.029114,-8.355737,-4.41,4.76,-6.72,1729426207215.0,0.0
-4.007978,-1.854438,-8.755339,3.5,-2.73,-11.83,1729426207237.0,0.0
-3.876373,-2.007578,-9.109475,8.19,-4.76,-14.28,1729426207255.0,0.0
-3.735196,-1.981257,-8.776874,10.85,-5.67,-16.1,1729426207275.0,0.0
-3.404987,-1.361516,-8.176274,17.219999,-10.57,-16.17,1729426207295.0,0.0
-2.912065,-0.614955,-8.094919,16.309999,-17.85,-15.4,1729426207315.0,0.0
-2.519642,0.122034,-8.738588,3.71,-20.58,-13.86,1729426207336.0,0.0
-3.101098,0.792024,-8.73141,-10.08,-16.52,-3.64,1729426207355.0,0.0
-3.014957,-0.088534,-11.076375,-20.299999,-15.89,2.1,1729426207374.0,0.0
-2.684747,-0.311067,-11.913863,-7.35,-10.15,8.68,1729426207400.0,0.0
-3.165704,-0.217747,-10.856236,13.58,1.82,17.43,1729426207415.0,0.0
-4.06062,-0.512064,-9.260223,20.58,11.97,23.450001,1729426207437.0,0.0
-4.744967,-1.306481,-8.26481,21.98,12.39,24.360001,1729426207456.0,0.0
-5.146961,-2.057827,-9.276974,24.219999,9.1,20.16,1729426207475.0,0.0
-5.446064,-2.239682,-9.525827,20.16,8.82,9.87,1729426207495.0,0.0
-4.852644,-2.801995,-9.781858,-0.42,7.7,0.77,1729426207515.0,0.0
-4.347759,-2.672783,-9.265009,0.84,8.82,-7.84,1729426207537.0,0.0
-4.419543,-2.428715,-8.46102,-0.63,12.53,-15.12,1729426207560.0,0.0
-4.266403,-1.998007,-7.80778,-2.52,7.98,-20.790001,1729426207575.0,0.0
-3.605984,-1.617548,-7.848458,7.91,-4.2,-22.68,1729426207595.0,0.0
-3.168097,-1.502693,-8.183454,15.54,-11.2,-23.52,1729426207614.0,0.0
-3.249453,-0.995414,-8.46102,14.14,-8.96,-20.23,1729426207637.0,0.0
-3.347559,-0.425922,-8.484949,8.61,-6.16,-14.63,1729426207655.0,0.0
-2.816352,0.299103,-8.772088,5.25,-10.85,-8.4,1729426207675.0,0.0
-2.701497,1.196411,-8.585447,3.71,-12.81,2.94,1729426207697.0,0.0
-2.821138,0.459422,-9.645468,-8.89,-8.68,12.88,1729426207717.0,0.0
-3.125026,-0.260818,-10.145569,-10.22,-3.15,20.440001,1729426207738.0,0.0
-3.261417,-0.662812,-10.736595,-10.29,3.08,22.610001,1729426207757.0,0.0
-3.321238,-1.160519,-10.006784,-14.56,9.38,22.75,1729426207775.0,0.0
-3.900301,-2.081756,-9.116654,-2.1,14.49,22.610001,1729426207795.0,0.0
-4.749753,-2.467,-8.54477,20.790001,15.61,20.93,1729426207815.0,0.0
-5.534599,-1.969293,-9.284152,21.84,10.92,18.059999,1729426207842.0,0.0
-5.35753,-2.273181,-9.521042,3.57,9.73,12.46,1729426207856.0,0.0
-4.737789,-2.792424,-9.24826,-7.7,7.14,5.11,1729426207876.0,0.0
-4.587041,-2.529213,-8.4347,-3.57,5.25,-1.47,1729426207896.0,0.0
-4.728218,-1.9669,-7.69771,-0.28,2.66,-6.58,1729426207915.0,0.0
-4.366901,-1.981257,-8.12124,-0.14,-5.18,-11.48,1729426207940.0,0.0
-3.95055,-1.935793,-8.685946,1.26,-8.75,-14.91,1729426207955.0,0.0
-3.684947,-1.813759,-8.726624,6.3,-9.17,-16.379999,1729426207975.0,0.0
-3.273381,-1.196411,-8.236095,12.18,-12.46,-15.96,1729426207995.0,0.0
-2.993421,-0.701097,-8.006385,5.95,-15.12,-15.33,1729426208015.0,0.0
-2.919244,-0.165105,-8.606983,-4.55,-14.84,-11.69,1729426208040.0,0.0
-3.555735,0.997807,-7.999206,-12.95,-12.81,-2.8,1729426208056.0,0.0
-3.663411,0.287139,-9.456435,-27.02,-17.01,4.06,1729426208075.0,0.0
-3.783052,-1.036092,-10.540384,-22.049999,-16.030001,8.33,1729426208095.0,0.0
-4.204189,-1.768296,-10.889735,-12.95,-7.0,8.12,1729426208116.0,0.0
-4.216154,-1.648655,-10.595419,-0.07,-1.19,6.93,1729426208136.0,0.0
-4.634897,-1.59362,-9.793823,18.76,3.92,9.59,1729426208155.0,0.0
-4.878965,-1.878366,-9.927821,20.23,9.59,7.21,1729426208175.0,0.0
-4.790431,-2.194218,-9.887143,11.27,10.92,2.87,1729426208195.0,0.0
-4.522435,-2.392823,-9.918249,11.06,8.19,-2.73,1729426208215.0,0.0
-4.56072,-2.285146,-9.308081,9.03,8.96,-8.47,1729426208237.0,0.0
-4.761717,-2.318645,-9.064013,-3.57,11.13,-13.37,1729426208255.0,0.0
-4.405186,-2.471786,-8.551948,-15.4,9.17,-19.74,1729426208275.0,0.0
-4.144369,-2.490928,-8.468199,-13.65,6.09,-22.540001,1729426208296.0,0.0
-4.106083,-2.498107,-8.987441,-7.63,7.28,-24.15,1729426208315.0,0.0
-3.87398,-2.091327,-9.052048,6.58,7.63,-24.43,1729426208337.0,0.0
-3.756732,-1.548156,-8.568698,31.92,7.14,-18.48,1729426208356.0,0.0
-3.474378,-0.887737,-7.546963,36.889999,4.2,-15.75,1729426208376.0,0.0
-3.005385,-0.492921,-8.240881,17.219999,4.2,-12.74,1729426208396.0,0.0
-2.318645,-0.751346,-9.509077,0.49,-3.99,-12.46,1729426208416.0,0.0
-2.321038,-0.547956,-8.973085,-4.41,-1.05,-7.91,1729426208437.0,0.0
-3.113062,-0.488136,-8.245667,-2.8,0.28,1.47,1729426208455.0,0.0
-3.663411,-0.756132,-8.152347,-3.15,-3.85,9.31,1729426208476.0,0.0
-3.936193,-1.462015,-9.322437,-6.37,-8.05,14.77,1729426208495.0,0.0
-4.24726,-2.158326,-10.246067,7.84,-8.54,22.75,1729426208515.0,0.0
-5.166104,-2.344966,-10.121639,18.620001,1.4,25.200001,1729426208541.0,0.0
-5.845665,-2.368894,-10.408779,18.969999,6.93,22.4,1729426208555.0,0.0
-5.623133,-2.663212,-10.296316,11.9,8.75,13.02,1729426208575.0,0.0
-5.130211,-2.809174,-9.609575,3.78,10.01,1.47,1729426208598.0,0.0
-4.599005,-2.828316,-8.9683,0.49,9.94,-8.89,1729426208615.0,0.0
-4.331009,-2.471786,-8.595018,3.71,8.05,-17.92,1729426208640.0,0.0
-3.893122,-2.37368,-8.764909,2.87,6.09,-24.43,1729426208660.0,0.0
-3.538985,-2.244468,-8.750552,-3.22,7.21,-28.0,1729426208674.0,0.0
-3.275774,-2.203789,-8.571091,-9.38,8.54,-29.960001,1729426208695.0,0.0
-2.926422,-1.572084,-8.015956,-5.53,4.83,-29.540001,1729426208716.0,0.0
-2.574677,-0.859023,-8.181061,-5.53,-0.84,-24.5,1729426208736.0,0.0
-2.172683,-0.375673,-8.018349,-3.57,-4.83,-18.9,1729426208754.0,0.0
-2.385644,0.045464,-8.676375,-11.2,-1.61,-8.54,1729426208774.0,0.0
-2.794817,0.777667,-9.556933,-20.51,-0.21,3.43,1729426208795.0,0.0
-3.036492,-0.078963,-10.083356,-24.85,0.35,14.91,1729426208813.0,0.0
-3.266203,-1.330409,-10.530812,-20.93,3.78,21.139999,1729426208839.0,0.0
-3.742374,-1.617548,-9.671788,-7.49,11.06,25.9,1729426208855.0,0.0
-4.596612,-1.947758,-8.985049,13.16,13.23,27.440001,1729426208876.0,0.0
-5.331209,-1.952543,-9.298509,18.620001,12.6,25.83,1729426208895.0,0.0
-5.520242,-2.249253,-10.214959,9.94,12.6,21.77,1729426208915.0,0.0
-5.302495,-2.768496,-10.214959,-10.01,15.75,13.86,1729426208937.0,0.0
-4.831109,-3.125026,-9.540184,-23.73,16.450001,3.15,1729426208955.0,0.0
-4.563113,-3.024528,-8.592626,-21.0,17.290001,-8.54,1729426208975.0,0.0
-4.386044,-2.536392,-7.836494,-8.12,12.67,-15.26,1729426208994.0,0.0
-3.885944,-2.342573,-8.255238,2.87,4.97,-19.809999,1729426209014.0,0.0
-3.326023,-1.933401,-8.60459,3.36,1.4,-23.450001,1729426209035.0,0.0
-2.962314,-1.837688,-8.705089,0.28,1.61,-23.450001,1729426209055.0,0.0
-2.502892,-1.301696,-8.894121,5.6,-1.26,-22.960001,1729426209074.0,0.0
-2.11047,-0.37328,-7.838887,9.59,-5.88,-18.9,1729426209093.0,0.0
-1.95015,0.131605,-8.444271,-1.47,-11.83,-11.69,1729426209114.0,0.0
-2.021935,0.303888,-8.829515,-16.870001,-11.48,-5.04,1729426209135.0,0.0
-3.462414,-0.191426,-10.195816,-19.67,-6.16,7.42,1729426209154.0,0.0
-3.244668,-1.56012,-11.296515,-8.61,-7.7,16.24,1729426209173.0,0.0
-3.510271,-1.397408,-10.207782,5.46,-7.7,20.65,1729426209194.0,0.0
-4.575077,-1.552942,-9.195618,8.96,10.99,23.24,1729426209213.0,0.0
-5.166104,-1.789831,-9.564112,13.16,11.41,20.65,1729426209234.0,0.0
-5.304887,-1.897508,-10.200603,16.17,10.08,17.92,1729426209253.0,0.0
-5.168497,-2.550749,-10.186246,3.64,11.9,14.28,1729426209272.0,0.0
-4.754539,-3.098706,-9.626326,-8.68,13.51,5.95,1729426209293.0,0.0
-4.307081,-3.29731,-8.920443,-5.6,11.34,-5.32,1729426209314.0,0.0
-4.053442,-3.029313,-8.49452,1.47,8.96,-16.1,1729426209335.0,0.0
-3.835695,-2.706282,-8.341379,10.36,4.27,-24.290001,1729426209354.0,0.0
-3.589234,-2.610569,-8.346166,8.96,1.05,-30.73,1729426209375.0,0.0
-3.151347,-2.294717,-8.645268,0.07,-2.45,-36.75,1729426209394.0,0.0
-2.646462,-1.555335,-8.300702,-10.92,-6.02,-40.529999,1729426209414.0,0.0
-2.529213,-0.567099,-8.338986,-8.47,-9.1,-36.82,1729426209437.0,0.0
-2.423929,-0.004786,-9.147761,-5.6,-11.69,-31.290001,1729426209454.0,0.0
-2.258825,1.007378,-9.487542,-16.24,-11.2,-22.469999,1729426209474.0,0.0
-3.237489,1.488336,-10.750952,-27.860001,-0.84,-4.34,1729426209495.0,0.0
-3.309274,-0.150748,-11.10509,-17.780001,5.25,12.18,1729426209514.0,0.0
-3.024528,0.122034,-10.638489,1.33,8.4,24.08,1729426209537.0,0.0
-3.108276,-0.445065,-10.473385,-2.8,17.08,29.75,1729426209555.0,0.0
-3.785445,-1.208375,-9.779467,4.76,25.34,33.740002,1729426209574.0,0.0
-4.175476,-1.672583,-9.047262,10.22,26.6,32.200001,1729426209594.0,0.0
-4.177868,-2.301895,-9.891929,10.36,22.610001,27.93,1729426209614.0,0.0
-4.130012,-2.35693,-9.473185,-4.06,24.360001,17.710001,1729426209636.0,0.0
-3.909872,-2.962314,-8.961121,-18.83,22.610001,5.88,1729426209654.0,0.0
-3.639483,-3.34038,-8.638089,-23.52,17.780001,-7.0,1729426209673.0,0.0
-3.144169,-3.010171,-8.228917,-12.81,9.8,-19.18,1729426209693.0,0.0
-2.849852,-2.419144,-8.496914,2.1,1.54,-27.51,1729426209715.0,0.0
-2.644069,-1.998007,-8.846266,3.99,-3.57,-33.459999,1729426209736.0,0.0
-2.469393,-1.672583,-9.064013,1.47,-7.35,-34.720001,1729426209753.0,0.0
-2.275574,-1.043271,-9.238688,5.74,-12.25,-32.830002,1729426209774.0,0.0
-2.244468,-0.464208,-8.717053,5.32,-12.46,-26.950001,1729426209794.0,0.0
-2.287539,0.057428,-9.607183,-3.01,-11.55,-18.27,1729426209814.0,0.0
-2.117648,0.76331,-10.368099,-10.57,-12.53,-9.66,1729426209839.0,0.0
-2.988636,0.428315,-10.846665,-8.4,-12.53,13.37,1729426209854.0,0.0
-3.136991,-0.392423,-11.660224,-8.4,6.65,21.91,1729426209873.0,0.0
-2.89053,-0.993021,-10.942378,6.3,10.36,29.68,1729426209893.0,0.0
-3.39063,-1.17009,-9.595219,27.09,17.290001,34.860001,1729426209914.0,0.0
-4.280759,-1.452443,-9.169296,31.43,22.4,34.509998,1729426209935.0,0.0
-4.816752,-2.249253,-9.580862,20.09,21.07,27.58,1729426209953.0,0.0
-4.740182,-3.046063,-9.875179,-1.54,19.74,13.65,1729426209974.0,0.0
-4.443472,-3.436093,-9.755538,-8.54,17.290001,1.12,1729426210004.0,0.0
-4.35733,-3.455236,-9.413363,-5.6,17.780001,-10.29,1729426210013.0,0.0
-4.110869,-3.251846,-8.740981,-3.85,16.24,-22.190001,1729426210037.0,0.0
-3.663411,-2.699104,-8.338986,1.47,10.29,-30.73,1729426210054.0,0.0
-3.290131,-2.467,-8.453842,7.21,6.51,-35.349998,1729426210073.0,0.0
-2.9336,-2.342573,-8.341379,14.7,2.45,-37.869999,1729426210094.0,0.0
-2.270789,-1.368695,-8.717053,25.48,-6.93,-38.220001,1729426210114.0,0.0
-1.567299,-0.430708,-8.377272,26.6,-14.28,-35.209999,1729426210135.0,0.0
-1.028914,0.339781,-9.145369,11.27,-18.549999,-31.01,1729426210154.0,0.0
-0.48335,0.803988,-9.789038,-11.2,-21.629999,-24.360001,1729426210173.0,0.0
-0.899701,0.715454,-10.174281,-19.530001,-12.32,-8.33,1729426210193.0,0.0
-2.208575,0.89013,-9.925428,-3.15,-0.91,7.84,1729426210214.0,0.0
-3.381058,0.79681,-9.420543,-1.68,4.97,22.889999,1729426210235.0,0.0
-3.728018,-0.258425,-9.832108,-20.09,6.44,26.950001,1729426210253.0,0.0
-3.639483,-1.490728,-9.990034,-22.33,3.36,27.440001,1729426210275.0,0.0
-4.067799,-2.189433,-9.32483,1.96,3.92,27.09,1729426210294.0,0.0
-4.845466,-2.313859,-9.092726,15.96,4.2,24.780001,1729426210314.0,0.0
-5.024928,-2.486143,-9.564112,7.56,0.28,18.129999,1729426210336.0,0.0
-4.287938,-3.002992,-10.229317,-7.35,-3.64,7.56,1729426210353.0,0.0
-3.617948,-3.196811,-10.179067,-8.4,-3.43,-1.75,1729426210373.0,0.0
-3.414558,-3.055635,-9.817751,-4.97,-0.28,-10.29,1729426210394.0,0.0
-3.180061,-2.876173,-9.422935,-0.49,-0.28,-19.32,1729426210413.0,0.0
-2.921637,-2.600998,-9.363115,7.98,-1.68,-24.710001,1729426210435.0,0.0
-2.572284,-2.268396,-9.171689,12.53,-2.59,-28.700001,1729426210454.0,0.0
-2.165504,-1.545763,-8.992228,18.620001,-6.58,-29.120001,1729426210473.0,0.0
-1.758725,-0.698704,-8.427521,19.67,-10.64,-26.110001,1729426210493.0,0.0
-1.514657,0.294317,-9.224331,2.45,-13.65,-17.219999,1729426210514.0,0.0
-1.584049,0.70349,-9.817751,-8.12,-11.2,-7.07,1729426210535.0,0.0
-2.0004,0.882952,-10.018748,-8.89,-5.74,6.23,1729426210553.0,0.0
-2.433501,0.433101,-10.671989,-2.8,-1.19,21.210001,1729426210574.0,0.0
-2.725425,0.129212,-10.243673,0.98,4.83,32.689999,1729426210593.0,0.0
-3.180061,-0.598206,-10.109675,-0.84,11.06,41.580002,1729426210613.0,0.0
-3.797409,-1.792224,-9.62154,10.92,15.68,45.220001,1729426210635.0,0.0
-4.666004,-2.22054,-8.829515,31.710001,16.870001,45.709999,1729426210655.0,0.0
-5.309673,-2.012364,-9.49472,27.09,13.58,41.439999,1729426210673.0,0.0
-4.795217,-2.969493,-10.506885,-7.84,12.04,27.09,1729426210694.0,0.0
-4.218546,-4.041477,-10.368099,-15.96,13.93,12.18,1729426210713.0,0.0
-4.13719,-3.862016,-9.32483,-3.36,16.24,1.12,1729426210735.0,0.0
-3.871587,-3.457629,-8.396415,3.78,11.2,-12.18,1729426210754.0,0.0
-3.184847,-3.029313,-8.788837,10.43,1.26,-21.700001,1729426210773.0,0.0
-2.74696,-3.089134,-8.985049,11.13,-0.56,-30.59,1729426210793.0,0.0
-2.447858,-2.584249,-8.755339,7.84,-1.26,-35.630001,1729426210813.0,0.0
-2.098505,-1.78026,-8.726624,11.34,-6.37,-35.420002,1729426210837.0,0.0
-1.316052,-0.346959,-9.064013,15.61,-17.639999,-31.219999,1729426210853.0,0.0
-1.210768,0.071785,-9.822537,-5.32,-14.84,-23.59,1729426210873.0,0.0
-1.677369,0.045464,-10.114462,-11.9,-7.21,-10.78,1729426210893.0,0.0
-2.734996,-0.011964,-10.255639,18.41,1.19,7.14,1729426210913.0,0.0
-2.995814,0.059821,-10.703095,33.599998,5.32,21.77,1729426210935.0,0.0
-2.622534,-0.789631,-10.327423,31.85,5.88,34.299999,1729426210953.0,0.0
-3.194418,-1.655833,-8.894121,23.59,15.96,39.060001,1729426210973.0,0.0
-4.091727,-2.809174,-9.219545,21.280001,18.969999,36.959999,1729426210994.0,0.0
-4.409972,-3.409772,-9.427721,17.85,15.47,27.440001,1729426211013.0,0.0
-4.335794,-3.742374,-9.750752,7.77,11.55,15.190001,1729426211035.0,0.0
-3.87398,-3.895515,-9.944571,-3.92,7.63,1.47,1729426211054.0,0.0
-3.589234,-4.319045,-9.516255,-9.8,9.24,-12.25,1729426211072.0,0.0
-3.572484,-4.168297,-9.188439,-7.7,11.2,-24.15,1729426211093.0,0.0
-3.326023,-3.34038,-8.760124,1.4,7.21,-33.110001,1729426211113.0,0.0
-2.935993,-2.830709,-8.640482,7.77,2.38,-38.220001,1729426211134.0,0.0
-2.467,-2.287539,-8.173882,6.72,-2.73,-40.880001,1729426211153.0,0.0
-2.172683,-0.947558,-8.015956,1.89,-5.74,-40.32,1729426211174.0,0.0
-1.85683,-0.050249,-8.13799,2.1,-14.28,-29.540001,1729426211193.0,0.0
-1.368695,0.509671,-9.286544,-17.780001,-19.879999,-20.790001,1729426211214.0,0.0
-1.299303,0.246461,-10.033106,-37.170002,-14.42,-8.19,1729426211236.0,0.0
-2.053042,-0.351745,-10.674382,-23.52,-2.31,6.51,1729426211253.0,0.0
-2.603391,-0.112463,-10.463813,1.96,2.17,18.83,1729426211273.0,0.0
-2.440679,-0.239282,-9.911072,-0.07,0.21,29.75,1729426211293.0,0.0
-2.792424,-1.29691,-10.092925,2.31,5.6,37.939999,1729426211313.0,0.0
-4.003192,-1.87358,-10.920842,15.4,16.450001,43.75,1729426211402.0,0.0
-4.689932,-2.634498,-11.169697,8.19,24.01,43.889999,1729426211418.0,0.0
-4.455436,-3.723232,-10.004392,-6.09,24.08,35.420002,1729426211419.0,0.0
-4.297509,-4.649254,-8.673983,-7.49,22.82,20.58,1729426211421.0,0.0
-4.144369,-4.658825,-8.760124,-5.74,18.34,2.94,1729426211423.0,0.0
-3.412165,-4.804788,-9.430114,4.41,11.69,-14.63,1729426211436.0,0.0
-2.732604,-4.252046,-9.303294,19.110001,8.82,-27.02,1729426211453.0,0.0
-2.624927,-3.649055,-8.472985,27.370001,10.85,-33.18,1729426211473.0,0.0
-2.304288,-3.349952,-7.534998,22.26,6.58,-38.360001,1729426211492.0,0.0
-1.442872,-2.718246,-7.580462,25.620001,-4.55,-41.509998,1729426211513.0,0.0
-1.009771,-2.39043,-7.982457,30.940001,-18.969999,-42.700001,1729426211536.0,0.0
-1.045663,-1.694118,-8.82473,10.36,-19.809999,-41.93,1729426211553.0,0.0
-1.658226,-1.636691,-9.229117,-7.21,-15.61,-36.259998,1729426211573.0,0.0
-2.409572,-2.397608,-9.475577,-9.38,-13.51,-30.1,1729426211593.0,0.0
-2.866602,-2.9336,-9.891929,17.15,-17.01,-23.17,1729426211612.0,0.0
-3.163311,-1.648655,-9.119047,46.759998,-17.360001,-13.93,1729426211636.0,0.0
-3.651447,-1.007378,-9.820145,60.41,-17.99,0.42,1729426211654.0,0.0
-3.895515,-1.868794,-10.380065,61.880001,-13.72,9.73,1729426211672.0,0.0
-4.15394,-2.270789,-10.040283,70.209999,-6.86,21.84,1729426211693.0,0.0
-3.952943,-2.555535,-9.480364,81.199997,-8.33,28.630001,1729426211715.0,0.0
-3.493521,-3.211168,-9.49472,85.050003,-11.27,29.33,1729426211734.0,0.0
-3.354738,-3.132205,-10.210175,75.669998,-3.15,30.309999,1729426211753.0,0.0
-3.314059,-3.06042,-11.404193,57.959999,11.62,30.940001,1729426211774.0,0.0
-3.139383,-4.807181,-11.487941,64.260002,19.6,31.01,1729426211792.0,0.0
-2.65364,-5.328816,-9.616754,83.230003,25.41,28.210001,1729426211813.0,0.0
-2.476572,-4.960321,-8.092526,98.629997,28.49,23.24,1729426211838.0,0.0
-2.876173,-6.015556,-7.24786,100.379997,30.799999,8.61,1729426211853.0,0.0
-2.18704,-6.932007,-8.286345,98.07,25.549999,-7.0,1729426211873.0,0.0
-1.95015,-3.404987,-4.144369,78.050003,21.139999,-6.79,1729426211894.0,0.0
-3.105884,-4.029513,-4.192225,54.18,13.37,-1.33,1729426211913.0,0.0
-3.072384,-5.848059,-4.895715,-16.870001,-2.87,-19.67,1729426211937.0,0.0
-2.364109,-6.862615,-5.046463,-44.450001,-20.58,-24.57,1729426211953.0,0.0
-1.619941,-5.386244,-5.630312,-23.870001,-43.049999,-24.710001,1729426211972.0,0.0
-1.533799,-5.278566,-5.391029,3.08,-61.459999,-22.889999,1729426211993.0,0.0
-1.641476,-3.790231,-10.439885,0.84,-72.590004,-17.99,1729426212014.0,0.0
-2.641676,-4.192225,-12.095718,-9.73,-45.5,-6.51,1729426212034.0,0.0
-2.919244,-6.412765,-14.500504,-41.299999,1.61,10.29,1729426212052.0,0.0
-2.325824,-9.403792,-10.413565,-37.59,1.82,19.809999,1729426212073.0,0.0
-3.311667,-8.860621,-8.606983,-13.72,28.84,20.16,1729426212092.0,0.0
-5.168497,-6.860222,-8.370094,33.599998,62.580002,8.33,1729426212112.0,0.0
-5.580062,-4.864608,-6.496514,79.590004,68.529999,15.12,1729426212134.0,0.0
-5.168497,-4.572684,-5.800202,137.619995,28.49,38.009998,1729426212152.0,0.0
-3.278167,-4.218546,-3.15374,91.209999,10.22,19.74,1729426212172.0,0.0
-3.661019,-5.07757,-1.239482,1.26,1.61,22.68,1729426212194.0,0.0
-4.17069,-5.376673,-2.864209,25.48,-26.530001,17.92,1729426212213.0,0.0
-3.759124,-5.515456,-2.567499,24.639999,-52.990002,15.54,1729426212244.0,0.0
-2.476572,-5.965307,-6.092126,-20.02,-93.519997,5.6,1729426212253.0,0.0
-1.488336,-7.092326,-11.820543,-66.639999,-117.459999,-14.77,1729426212272.0,0.0
-0.401994,-4.867002,-17.513069,-104.650002,-108.290001,-25.969999,1729426212292.0,0.0
-2.813959,-1.904687,-13.770694,-97.720001,-28.210001,2.38,1729426212312.0,0.0
-6.723832,-2.914458,-18.407984,-96.599998,79.029999,12.95,1729426212334.0,0.0
-6.568298,-7.563712,-11.064411,-48.23,81.199997,9.73,1729426212352.0,0.0
-5.922236,-9.784252,-7.525427,45.990002,40.670002,23.24,1729426212373.0,0.0
-4.398008,-6.084948,-7.712067,74.900002,41.720001,-7.56,1729426212392.0,0.0
-4.603791,-5.190032,-9.119047,32.34,81.970001,-15.75,1729426212412.0,0.0
-3.969693,-6.585048,-12.626925,33.740002,81.410004,-14.07,1729426212435.0,0.0
-2.447858,-4.938786,1.277767,62.23,56.139999,0.63,1729426212452.0,0.0
-2.041078,-6.001199,0.550349,87.150002,26.950001,15.4,1729426212473.0,0.0
-1.363909,-4.412365,0.246461,-7.14,-3.64,-12.53,1729426212492.0,0.0
-5.584848,-6.709475,-2.495714,-48.790001,9.52,-13.51,1729426212513.0,0.0
-4.173083,-8.95155,-6.032306,-64.75,-55.439999,-18.41,1729426212535.0,0.0
0.0335,-7.709675,-9.360723,-23.379999,-145.600006,-39.830002,1729426212553.0,0.0
1.20359,-5.132604,-13.177275,21.77,-118.510002,-36.470001,1729426212573.0,0.0
-0.930808,-0.916451,-13.74198,24.01,-44.52,-5.32,1729426212592.0,0.0
-4.773681,-1.239482,-15.081962,-31.360001,52.709999,34.580002,1729426212612.0,0.0
-4.797609,-6.139983,-11.186446,-64.260002,60.830002,38.990002,1729426212634.0,0.0
-4.134798,-10.202995,-8.85105,-15.26,28.91,37.939999,1729426212652.0,0.0
-5.575277,-8.13799,-10.712667,28.98,60.34,9.31,1729426212673.0,0.0
-6.977471,-7.156933,-12.543176,85.470001,107.520004,8.19,1729426212692.0,0.0
-5.319244,-6.599405,-8.867801,153.580002,86.870003,10.64,1729426212712.0,0.0
-3.440879,-5.139783,-4.110869,167.720001,58.66,2.94,1729426212735.0,0.0
-3.18724,-2.723032,2.431108,72.379997,69.090004,-8.26,1729426212753.0,0.0
-4.235296,-2.352145,6.71426,-0.91,49.209999,2.94,1729426212772.0,0.0
-4.063013,-4.4674,4.479364,17.15,-47.25,5.18,1729426212793.0,0.0
-3.208775,-4.768896,2.679961,-9.66,-96.18,-2.73,1729426212812.0,0.0
-3.208775,-5.711668,-1.708475,-36.330002,-140.210007,-1.82,1729426212837.0,0.0
-2.931208,-8.982656,-14.933606,-58.380001,-177.100006,-17.780001,1729426212853.0,0.0
-3.694518,-7.195218,-22.222145,-120.540001,-106.260002,-29.75,1729426212872.0,0.0
-6.649654,-4.26401,-23.308483,-108.150002,31.99,22.4,1729426212892.0,0.0
-6.809973,-5.474778,-14.924035,-24.360001,73.919998,44.310001,1729426212912.0,0.0
-4.744967,-10.492528,-11.260624,119.559998,43.68,44.099998,1729426212935.0,0.0
-2.029114,-7.666604,-11.227123,182.630005,51.099998,28.0,1729426212952.0,0.0
-1.663012,-4.335794,-10.676775,159.809998,112.699997,17.360001,1729426212972.0,0.0
-1.672583,-3.385844,2.136791,124.459999,137.970001,20.58,1729426212992.0,0.0
-2.995814,-2.428715,6.829116,103.739998,104.650002,43.82,1729426213013.0,0.0
-1.055235,-3.448057,10.760524,78.050003,-20.65,29.540001,1729426213035.0,0.0
-3.689733,-6.912865,2.208575,-3.78,-59.290001,22.610001,1729426213052.0,0.0
-7.075576,-8.12124,1.861616,-124.32,-33.880001,-15.4,1729426213071.0,0.0
-8.262416,-11.090734,-3.160919,-150.009995,-72.800003,-25.48,1729426213093.0,0.0
-5.886343,-10.018748,-11.375479,-125.720001,-185.919998,-60.549999,1729426213113.0,0.0
-3.725625,-5.726025,-22.162323,-97.720001,-178.779999,-72.169998,1729426213135.0,0.0
-4.500899,-2.067399,-16.374086,-52.57,-60.34,-21.35,1729426213152.0,0.0
-6.680761,-2.677568,-22.88735,-44.73,85.610001,28.559999,1729426213172.0,0.0
-5.740381,-12.897314,-4.699504,81.340004,79.519997,45.990002,1729426213192.0,0.0
-3.505485,-8.413164,-11.980864,169.820007,59.220001,22.26,1729426213212.0,0.0
-1.852045,-3.646662,-13.105491,154.350006,82.599998,-9.66,1729426213233.0,0.0
-1.605584,-1.234696,-0.289532,115.57,148.190002,0.7,1729426213251.0,0.0
-4.912465,-2.081756,5.144568,98.0,146.580002,31.710001,1729426213272.0,0.0
-2.376073,-3.268596,8.26481,65.239998,20.719999,8.26,1729426213292.0,0.0
-1.428515,-4.132405,4.103691,10.29,-35.209999,15.75,1729426213312.0,0.0
-3.28056,-4.838287,3.069991,-34.720001,-50.75,12.53,1729426213344.0,0.0
-4.771288,-6.896115,2.498107,-96.529999,-63.139999,6.37,1729426213352.0,0.0
-4.67079,-7.745567,-2.37368,-112.07,-141.539993,-10.15,1729426213372.0,0.0
-5.235496,-8.030313,-9.875179,-117.32,-183.399994,-41.299999,1729426213394.0,0.0
-6.4343,-3.37388,-19.250257,-192.220001,-124.32,-53.970001,1729426213413.0,0.0
-8.458629,-0.586242,-23.775087,-267.820007,-12.88,1.19,1729426213433.0,0.0
-8.157133,-5.972485,-20.417955,-244.509995,29.75,17.15,1729426213453.0,0.0
-5.675776,-12.904492,-11.198411,-75.389999,53.619999,33.459999,1729426213472.0,0.0
-3.644269,-11.459228,-9.858429,168.419998,47.740002,72.870003,1729426213494.0,0.0
-3.337988,-4.0008,-9.521042,306.459991,93.660004,34.580002,1729426213513.0,0.0
-4.587041,-2.880959,4.591826,214.479996,139.509995,21.700001,1729426213535.0,0.0
-5.754738,-4.843073,0.425922,133.910004,90.019997,39.27,1729426213553.0,0.0
-1.753939,-4.898108,7.06122,-0.21,-18.27,-21.35,1729426213572.0,0.0
-3.050849,-6.506085,2.325824,-43.75,-13.3,2.03,1729426213592.0,0.0
-4.407579,-4.955536,1.239482,-74.550003,-36.470001,-21.49,1729426213612.0,0.0
-4.031906,-5.601598,-1.904687,-118.510002,-86.519997,-15.61,1729426213635.0,0.0
-2.237289,-6.374479,-11.339586,-144.830002,-169.470001,-32.830002,1729426213652.0,0.0
-1.088734,-6.15434,-23.047668,-151.830002,-160.020004,-50.82,1729426213671.0,0.0
-3.046063,-1.828116,-16.082161,-137.619995,-22.75,3.36,1729426213692.0,0.0
-7.910671,-2.572284,-18.975084,-99.050003,101.010002,49.77,1729426213711.0,0.0
-8.695518,-9.128618,-15.979269,-13.79,107.379997,39.549999,1729426213734.0,0.0
-6.116055,-11.810973,-8.422735,130.550003,65.870003,51.799999,1729426213752.0,0.0
-3.998406,-7.51107,-9.480364,224.979996,64.68,44.450001,1729426213772.0,0.0
-3.986443,-5.757132,-10.193424,199.289993,115.919998,3.15,1729426213792.0,0.0
-3.924229,-5.833702,-3.18724,117.669998,162.539993,-8.47,1729426213812.0,0.0
-5.32403,-5.04407,2.720639,79.239998,118.790001,7.28,1729426213837.0,0.0
-1.79701,-1.818545,6.400801,57.189999,17.99,-11.2,1729426213851.0,0.0
-3.462414,-2.490928,4.56072,-7.98,-39.27,-6.86,1729426213872.0,0.0
-5.352744,-4.555934,2.510071,-104.370003,-39.130001,-13.16,1729426213892.0,0.0
-5.046463,-6.63769,-3.517449,-138.949997,-107.800003,-10.29,1729426213911.0,0.0
-3.814159,-8.080563,-11.526227,-115.43,-185.289993,-36.959999,1729426213933.0,0.0
-3.56052,-6.9344,-24.536003,-137.970001,-153.509995,-48.23,1729426213952.0,0.0
-4.833502,-2.634498,-18.302702,-214.059998,-35.349998,-24.219999,1729426213973.0,0.0
-7.221539,-5.678168,-23.504696,-256.130005,68.599998,-8.33,1729426213992.0,0.0
-5.938986,-10.442278,-15.481563,-165.759995,83.720001,-17.99,1729426214011.0,0.0
-3.512664,-13.875979,-9.755538,97.860001,67.269997,17.99,1729426214033.0,0.0
-1.339981,-5.871986,-11.093125,274.119995,56.77,-2.45,1729426214052.0,0.0
-1.59362,-1.074377,-7.846066,308.980011,100.169998,-17.08,1729426214071.0,0.0
-2.301895,2.751746,4.218546,214.550003,140.139999,6.79,1729426214091.0,0.0
-4.67079,-2.892922,7.618747,217.770004,71.610001,42.490002,1729426214113.0,0.0
-3.318845,-3.960121,5.07757,66.010002,-34.720001,-9.52,1729426214133.0,0.0
-5.962914,-4.675575,3.704089,-56.84,-7.35,-8.12,1729426214151.0,0.0
-6.838687,-4.744967,1.308874,-142.309998,-30.940001,-7.7,1729426214171.0,0.0
-3.48395,-7.613962,-9.056834,-146.860001,-144.550003,-13.23,1729426214192.0,0.0
-1.292124,-8.640482,-17.321644,-119.629997,-187.25,-39.34,1729426214211.0,0.0
-1.493121,-6.422336,-12.969098,-75.32,-112.840004,-21.98,1729426214233.0,0.0
-4.699504,-3.34038,-12.600604,-57.049999,-2.31,16.379999,1729426214251.0,0.0
-6.518049,-3.002992,-19.223938,-47.040001,41.93,27.860001,1729426214272.0,0.0
-5.836094,-7.537392,-12.483356,28.98,49.139999,37.099998,1729426214292.0,0.0
-3.699304,-10.724631,-6.345766,153.860001,19.110001,40.740002,1729426214313.0,0.0
-2.206182,-6.532406,-11.703296,163.729996,32.130001,21.84,1729426214335.0,0.0
-1.926222,-2.804388,-9.678967,81.269997,97.440002,-2.66,1729426214352.0,0.0
-4.266403,-4.086941,-8.752945,27.370001,148.539993,17.360001,1729426214371.0,0.0
-3.627519,-4.788038,-5.240282,24.15,119.980003,30.030001,1729426214391.0,0.0
-2.928815,-9.58804,6.522834,78.330002,52.009998,41.09,1729426214412.0,0.0
-3.213561,-8.910872,5.826523,77.07,13.16,12.6,1729426214434.0,0.0
-5.460421,-5.594419,4.383651,1.54,-9.52,-17.5,1729426214452.0,0.0
-6.558727,-4.333402,1.830509,-91.209999,-45.360001,-22.190001,1729426214472.0,0.0
-4.67079,-5.644669,-4.302295,-136.570007,-155.610001,-24.219999,1729426214491.0,0.0
-2.586641,-7.74796,-11.485549,-142.729996,-210.279999,-45.849998,1729426214512.0,0.0
-2.656033,-5.532206,-17.249859,-114.099998,-172.690002,-42.630001,1729426214534.0,0.0
-5.9677,-4.965107,-12.507284,-75.739998,-0.56,6.3,1729426214551.0,0.0
-7.972885,-8.484949,-18.611374,-59.639999,21.77,7.07,1729426214571.0,0.0
-5.845665,-11.91147,-9.583255,34.02,23.17,-2.52,1729426214591.0,0.0
-4.185047,-9.516255,-7.645068,140.979996,4.48,12.95,1729426214612.0,0.0
-2.9671,-5.541777,-8.9683,185.080002,15.96,-6.37,1729426214634.0,0.0
-3.87398,-3.488736,-9.489935,123.830002,59.920002,-16.870001,1729426214652.0,0.0
-4.596612,-3.15374,-9.059227,67.550003,92.120003,-3.01,1729426214672.0,0.0
-4.261617,-6.147161,2.725425,69.860001,35.420002,15.47,1729426214692.0,0.0
-4.005585,-7.097112,4.957928,45.360001,-12.04,5.18,1729426214712.0,0.0
-4.347759,-5.955735,4.881358,19.25,-49.490002,-16.52,1729426214733.0,0.0
-6.161518,-3.613162,3.455236,-44.799999,-59.43,-33.599998,1729426214751.0,0.0
-6.293124,-3.369094,0.79681,-98.209999,-103.459999,-27.65,1729426214779.0,0.0
-3.680161,-5.211568,-4.596612,-127.470001,-208.600006,-32.41,1729426214791.0,0.0
-1.837688,-6.015556,-11.504691,-137.479996,-227.149994,-44.73,1729426214813.0,0.0
-1.923829,-5.922236,-13.670196,-122.5,-153.860001,-35.560001,1729426214836.0,0.0
-8.496914,-5.946165,-11.523834,-120.470001,-4.55,18.27,1729426214852.0,0.0
-9.099905,-10.978271,-16.407585,-51.799999,8.26,-0.63,1729426214871.0,0.0
-5.74756,-13.060026,-7.357929,98.0,-37.099998,6.44,1729426214892.0,0.0
-3.957729,-6.364908,-8.721838,178.149994,-16.870001,9.45,1729426214912.0,0.0
-4.548756,-1.978864,-9.329616,162.050003,48.93,-12.32,1729426214933.0,0.0
-5.663811,-2.17029,-8.350951,75.949997,101.57,-16.59,1729426214953.0,0.0
-4.486543,-4.476971,-2.404787,19.460001,80.43,0.28,1729426214973.0,0.0
-4.23051,-8.140383,6.151947,36.259998,25.76,13.02,1729426214993.0,0.0
-3.397808,-6.386444,6.38405,58.52,-8.4,-0.63,1729426215012.0,0.0
-5.781059,-3.766303,6.262017,-1.47,-24.290001,-16.73,1729426215036.0,0.0
-8.676375,-5.120641,4.522435,-101.080002,-36.259998,-28.07,1729426215054.0,0.0
-7.317252,-6.876972,-1.866402,-167.369995,-116.970001,-43.400002,1729426215074.0,0.0
-4.953143,-7.427321,-7.240681,-167.789993,-181.300003,-57.330002,1729426215093.0,0.0
-3.869194,-5.13739,-17.111074,-150.779999,-151.339996,-47.18,1729426215113.0,0.0
-7.066005,-4.285545,-13.229917,-114.379997,-54.459999,-5.18,1729426215136.0,0.0
-8.702696,-7.609176,-14.694324,-66.57,46.549999,33.880001,1729426215153.0,0.0
-6.623333,-11.899508,-11.236694,50.540001,46.130001,42.560001,1729426215173.0,0.0
-4.412365,-10.085747,-7.484749,203.070007,30.24,46.549999,1729426215193.0,0.0
-3.768696,-5.319244,-7.920243,250.809998,77.769997,30.799999,1729426215213.0,0.0
-5.194818,-3.809374,-9.281759,177.520004,131.740005,15.33,1729426215236.0,0.0
-4.54397,-4.960321,-5.249853,69.650002,170.520004,1.47,1729426215253.0,0.0
-6.082555,-7.956135,2.213361,42.490002,129.570007,34.580002,1729426215273.0,0.0
-4.431508,-7.357929,3.924229,47.740002,70.209999,10.01,1729426215293.0,0.0
-5.740381,-6.034698,4.766503,20.719999,51.099998,8.89,1729426215313.0,0.0
-8.350951,-4.795217,4.567898,-35.84,45.5,-7.42,1729426215335.0,0.0
-8.236095,-6.726225,2.376073,-86.660004,-17.360001,-5.32,1729426215353.0,0.0
-4.244867,-7.334002,-2.694318,-113.82,-127.68,-17.99,1729426215373.0,0.0
-1.418944,-7.221539,-9.489935,-98.489998,-166.320007,-24.85,1729426215394.0,0.0
-1.476372,-4.905287,-20.18585,-94.57,-109.760002,-16.66,1729426215412.0,0.0
-3.871587,-3.328416,-15.378671,-89.32,11.9,10.78,1729426215435.0,0.0
-6.738188,-6.355337,-13.311273,-66.290001,83.019997,40.670002,1729426215453.0,0.0
-5.266603,-10.930414,-10.365707,16.799999,63.490002,24.99,1729426215474.0,0.0
-3.359523,-7.228717,-6.02752,198.869995,21.629999,27.58,1729426215497.0,0.0
-4.366901,-3.739982,-6.13759,209.229996,67.199997,9.38,1729426215512.0,0.0
-6.326623,-3.744767,-10.394422,119.980003,96.110001,-9.59,1729426215536.0,0.0
-6.771688,-3.74716,-9.190832,17.780001,121.800003,-16.17,1729426215554.0,0.0
-5.733203,-8.051848,-6.903293,21.84,92.959999,-0.35,1729426215573.0,0.0
-3.737589,-6.288338,-1.572084,12.95,66.709999,-3.92,1729426215593.0,0.0
-4.041477,-5.393422,3.223132,42.279999,62.09,6.44,1729426215612.0,0.0
-5.843273,-3.723232,5.273781,8.82,47.529999,-14.84,1729426215635.0,0.0
-6.496514,-3.54377,4.778467,-70.139999,1.89,-17.57,1729426215653.0,0.0
-4.031906,-4.584648,-0.12682,-110.599998,-94.57,-9.94,1729426215673.0,0.0
-2.002793,-6.252446,-6.051448,-101.989998,-156.169998,-12.11,1729426215692.0,0.0
-1.909473,-5.508278,-14.344972,-104.510002,-127.470001,-17.639999,1729426215712.0,0.0
-3.488736,-7.690532,-17.197216,-88.900002,-49.490002,-6.79,1729426215734.0,0.0
-6.357729,-7.551748,-15.316458,-94.150002,45.43,15.4,1729426215753.0,0.0
-7.755138,-9.559326,-15.481563,-29.540001,72.169998,22.469999,1729426215772.0,0.0
-4.508078,-11.124231,-8.427521,66.290001,35.139999,18.620001,1729426215792.0,0.0
-2.854637,-5.453243,-8.638089,163.589996,32.41,4.9,1729426215812.0,0.0
-4.539185,-3.68734,-7.862815,137.899994,103.040001,-3.78,1729426215838.0,0.0
-5.386244,-3.682554,-4.82393,69.440002,132.020004,7.91,1729426215853.0,0.0
-5.608776,-6.530013,3.565305,72.940002,65.940002,37.029999,1729426215873.0,0.0
-4.139583,-6.656832,5.180461,55.790001,-0.49,17.99,1729426215893.0,0.0
-6.226124,-5.06082,4.12044,-7.63,-13.16,2.17,1729426215913.0,0.0
-8.465806,-3.400201,0.411566,-85.260002,-18.83,-2.38,1729426215935.0,0.0
-6.805188,-4.871787,-4.539185,-128.520004,-98.489998,-4.48,1729426215952.0,0.0
-3.534199,-6.546762,-8.539984,-115.779999,-170.449997,-20.02,1729426215973.0,0.0
-2.0004,-7.733603,-12.768101,-65.660004,-144.550003,-17.780001,1729426215992.0,0.0
-2.086541,-4.371687,-15.804593,-62.02,-69.580002,-2.31,1729426216012.0,0.0
-3.605984,-7.109076,-11.562119,-18.129999,-25.620001,20.370001,1729426216035.0,0.0
-6.075377,-7.618747,-12.894921,-13.3,41.860001,13.93,1729426216052.0,0.0
-6.21416,-8.597411,-10.817951,13.51,85.610001,20.93,1729426216072.0,0.0
-5.536992,-8.930015,-6.13759,90.300003,58.799999,29.33,1729426216093.0,0.0
-4.371687,-7.101898,-7.350751,160.720001,53.200001,17.08,1729426216113.0,0.0
-5.075177,-5.335995,-7.49432,119.489998,92.75,1.89,1729426216133.0,0.0
-6.142376,-6.262017,-3.67059,38.920002,129.570007,5.6,1729426216153.0,0.0
-4.864608,-8.353344,5.070391,63.700001,36.610001,11.48,1729426216174.0,0.0
-2.794817,-6.065805,3.251846,71.190002,-17.92,-1.96,1729426216192.0,0.0
-4.596612,-3.948158,3.883551,38.009998,-27.370001,-12.25,1729426216212.0,0.0
-6.994221,-2.981457,2.388037,-65.239998,-17.92,-14.91,1729426216244.0,0.0
-6.276374,-5.630312,-3.105884,-118.790001,-104.650002,-18.690001,1729426216252.0,0.0
-4.036692,-7.491928,-9.054441,-157.360001,-168.139999,-39.619999,1729426216274.0,0.0
-2.574677,-7.676175,-19.65943,-143.570007,-144.199997,-31.57,1729426216293.0,0.0
-4.603791,-6.084948,-16.780865,-113.470001,-24.85,-7.0,1729426216313.0,0.0
-6.635297,-6.905686,-11.952149,-70.840004,22.68,9.66,1729426216417.0,0.0
-5.972485,-9.159724,-12.545568,-5.88,40.880001,8.26,1729426216419.0,0.0
-4.027121,-10.262815,-6.101698,81.410004,26.74,13.23,1729426216421.0,0.0
-3.529413,-6.872187,-7.197611,135.800003,49.279999,3.92,1729426216423.0,0.0
-4.67079,-4.323831,-8.532805,115.709999,85.400002,-7.63,1729426216424.0,0.0
-5.525027,-3.993621,-7.74796,73.849998,115.709999,-3.85,1729426216435.0,0.0
-4.582255,-5.469993,-2.976671,67.410004,92.610001,12.74,1729426216463.0,0.0
-3.37388,-5.943772,5.017749,34.23,53.060001,9.24,1729426216471.0,0.0
-4.295116,-7.133004,4.445865,21.84,-8.33,4.34,1729426216492.0,0.0
-6.087341,-5.190032,2.35693,-24.5,-25.41,-24.5,1729426216513.0,0.0
-7.180861,-4.907679,-0.189033,-78.889999,-50.82,-16.66,1729426216534.0,0.0
-4.900501,-5.716454,-6.13759,-104.300003,-140.350006,-28.84,1729426216553.0,0.0
-2.9336,-7.06122,-12.397215,-96.529999,-166.600006,-38.779999,1729426216573.0,0.0
-2.37368,-6.489335,-15.256638,-109.830002,-112.559998,-24.5,1729426216593.0,0.0
-5.024928,-6.719046,-14.366508,-127.050003,-6.65,-1.12,1729426216613.0,0.0
-6.745367,-6.623333,-15.543776,-125.580002,57.75,-1.75,1729426216635.0,0.0
-6.89133,-10.798808,-11.806188,3.08,61.529999,16.66,1729426216653.0,0.0
-3.986443,-9.535398,-9.645468,160.369995,31.5,15.89,1729426216672.0,0.0
-2.754139,-5.292924,-9.001799,200.130005,55.369999,16.379999,1729426216693.0,0.0
-3.589234,-4.127619,-12.14836,150.360001,104.93,9.1,1729426216712.0,0.0
-4.024727,-3.988836,1.789831,100.309998,132.580002,9.1,1729426216734.0,0.0
-6.379266,-6.410372,2.751746,141.820007,105.559998,45.639999,1729426216753.0,0.0
-5.412565,-3.771089,7.688138,76.650002,19.809999,5.74,1729426216772.0,0.0
-7.898707,-3.888337,6.721439,12.53,10.78,6.72,1729426216793.0,0.0
-6.821937,-4.180261,-1.155733,-79.519997,-43.540001,-10.64,1729426216820.0,0.0
-3.761517,-4.864608,-6.946364,-130.550003,-159.529999,-19.389999,1729426216839.0,0.0
-1.481157,-6.297909,-15.940985,-96.879997,-171.850006,-7.21,1729426216853.0,0.0
-2.380858,-10.29153,-18.802801,-10.01,-97.790001,2.8,1729426216874.0,0.0
-4.096512,-8.776874,-15.75913,6.93,18.41,35.560001,1729426216894.0,0.0
-6.226124,-9.461221,-13.313664,20.58,39.619999,41.790001,1729426216913.0,0.0
-4.354938,-9.750752,-9.056834,3.78,57.540001,8.61,1729426216936.0,0.0
-4.141976,-9.028119,-8.592626,71.470001,73.989998,14.28,1729426216954.0,0.0
-3.823731,-7.530212,-9.037691,153.930008,113.540001,4.06,1729426216974.0,0.0
-5.924629,-6.305088,1.239482,180.389999,111.790001,29.610001,1729426216994.0,0.0
-5.919843,-3.046063,3.847659,167.369995,86.169998,15.4,1729426217018.0,0.0
-4.886144,-2.325824,6.939186,26.040001,40.110001,-3.71,1729426217040.0,0.0
-5.977271,-4.539185,3.235096,6.51,-13.93,10.78,1729426217293.0,0.0
-7.070791,-4.862216,1.639083,-66.849998,-23.799999,-8.4,1729426217297.0,0.0
-6.460621,-6.982256,-3.620341,-98.419998,-44.310001,3.15,1729426217298.0,0.0
-3.608376,-8.054241,-8.391629,-102.129997,-130.970001,-15.96,1729426217309.0,0.0
-1.864009,-9.968499,-14.483756,-37.939999,-145.039993,-11.13,1729426217311.0,0.0
-3.287738,-7.269395,-16.776079,-14.07,-34.02,-0.84,1729426217312.0,0.0
-5.565705,-7.585248,-12.033505,11.41,32.48,22.82,1729426217319.0,0.0
-6.159126,-9.468399,-10.262815,-9.17,35.84,2.52,1729426217322.0,0.0
-5.012963,-10.506885,-6.778866,-11.41,37.450001,-9.45,1729426217322.0,0.0
-5.213961,-8.989835,-4.445865,31.780001,49.700001,-8.82,1729426217323.0,0.0
-6.147161,-6.087341,-7.238289,53.760002,78.120003,-18.969999,1729426217325.0,0.0
-6.300302,-5.864808,-10.068997,57.82,101.919998,-15.190001,1729426217325.0,0.0
-6.412765,-6.013163,-0.275175,78.050003,97.650002,4.9,1729426217347.0,0.0
-5.948557,-6.687939,1.150948,109.760002,63.209999,12.18,1729426217348.0,0.0
-5.199604,-5.718846,4.488935,78.75,25.27,-6.09,1729426217349.0,0.0
-6.319445,-4.682754,4.321437,30.66,14.21,-13.51,1729426217356.0,0.0
-7.465607,-3.443272,1.928615,-34.439999,-7.42,-23.59,1729426217380.0,0.0
-5.419744,-4.500899,-0.112463,-101.709999,-91.209999,-8.26,1729426217395.0,0.0
-2.837888,-7.176075,-5.376673,-93.099998,-159.529999,-5.18,1729426217414.0,0.0
-1.342373,-10.047462,-9.887143,-75.459999,-160.580002,-19.25,1729426217437.0,0.0
-1.232304,-8.903693,-14.842678,-88.760002,-110.739998,-18.549999,1729426217454.0,0.0
-3.383451,-6.051448,-10.064213,-81.970001,-41.860001,3.99,1729426217474.0,0.0
-6.003592,-5.426922,-12.547962,-111.300003,15.47,25.48,1729426217493.0,0.0
-5.972485,-8.786445,-12.739388,-92.260002,35.77,13.16,1729426217514.0,0.0
-5.958128,-11.399406,-7.913064,18.969999,42.420002,26.460001,1729426217541.0,0.0
-5.458029,-8.688338,-8.798409,129.570007,55.860001,16.17,1729426217555.0,0.0
-5.639884,-7.817351,-10.339387,144.899994,84.139999,4.41,1729426217574.0,0.0
-5.02732,-6.30748,-7.336394,105.629997,111.510002,-5.53,1729426217594.0,0.0
-4.56072,-6.623333,-0.823131,106.050003,92.330002,3.57,1729426217614.0,0.0
-4.273581,-4.175476,6.367301,64.400002,49.490002,-3.29,1729426217637.0,0.0
-5.297709,-3.055635,5.520242,49.07,9.52,3.71,1729426217655.0,0.0
-6.932007,-3.63709,3.929015,-38.990002,-18.059999,-21.559999,1729426217674.0,0.0
-7.556533,-5.970093,1.761117,-127.610001,-40.810001,-27.02,1729426217695.0,0.0
-4.352544,-6.692725,-5.194818,-128.940002,-112.07,-22.68,1729426217719.0,0.0
-3.024528,-7.463214,-10.928021,-81.970001,-155.470001,-25.9,1729426217737.0,0.0
-2.919244,-9.375079,-14.328221,-83.650002,-100.309998,-16.1,1729426217756.0,0.0
-3.409772,-9.860823,-13.485948,-95.690002,-32.27,5.6,1729426217775.0,0.0
-5.931807,-9.178867,-10.325029,-69.93,28.0,27.440001,1729426217794.0,0.0
-6.324231,-9.480364,-10.712667,-10.92,61.110001,18.129999,1729426217815.0,0.0
-5.553742,-8.487342,-7.216753,65.590004,43.68,20.65,1729426217839.0,0.0
-4.859823,-6.056234,-9.025726,142.100006,47.18,17.360001,1729426217857.0,0.0
-5.20439,-5.730811,-8.566305,144.199997,79.590004,6.93,1729426217874.0,0.0
-5.333601,-4.661219,-7.52782,117.669998,99.540001,15.89,1729426217896.0,0.0
-4.517649,-4.319045,-1.464408,98.279999,77.349998,14.42,1729426217914.0,0.0
-5.228317,-5.053641,3.567699,48.509998,60.900002,21.98,1729426217936.0,0.0
-6.812366,-5.584848,3.558127,4.2,32.759998,-3.43,1729426217955.0,0.0
-7.996813,-5.369494,2.74696,-70.279999,14.7,-33.389999,1729426217974.0,0.0
-6.728617,-5.254639,0.957129,-90.370003,-43.889999,-22.82,1729426217995.0,0.0
-3.275774,-5.749953,-2.567499,-62.860001,-133.770004,-16.66,1729426218015.0,0.0
-0.909273,-6.659225,-7.9681,-48.650002,-165.479996,-20.860001,1729426218036.0,0.0
-0.660419,-9.018548,-15.893128,-59.779999,-121.169998,-23.66,1729426218055.0,0.0
-3.404987,-4.295116,-13.043276,-89.32,2.52,3.99,1729426218075.0,0.0
-6.089733,-5.793024,-11.052447,-98.349998,41.93,33.950001,1729426218095.0,0.0
-5.855237,-10.358529,-11.559726,-87.639999,49.91,13.16,1729426218114.0,0.0
-5.424529,-11.52862,-6.407979,21.77,50.400002,23.1,1729426218137.0,0.0
-5.572884,-8.140383,-8.073383,156.169998,59.920002,18.76,1729426218154.0,0.0
-6.12084,-6.680761,-11.274981,184.729996,83.650002,2.73,1729426218175.0,0.0
-5.740381,-6.041877,-6.352944,148.399994,117.599998,-3.57,1729426218195.0,0.0
-6.025128,-4.577469,1.591227,104.650002,96.739998,14.28,1729426218216.0,0.0
-5.190032,-4.876573,6.147161,71.120003,36.959999,2.52,1729426218238.0,0.0
-5.297709,-4.606184,4.070191,5.25,3.71,-11.13,1729426218255.0,0.0
-7.209574,-5.412565,1.320838,-44.869999,-6.79,-25.969999,1729426218274.0,0.0
-7.441679,-5.82413,-0.777667,-99.330002,-25.27,-32.060001,1729426218294.0,0.0
-5.008178,-6.331409,-3.488736,-101.849998,-96.949997,-20.370001,1729426218316.0,0.0
-2.318645,-7.444071,-7.580462,-88.199997,-146.160004,-28.77,1729426218337.0,0.0
-0.985843,-8.243275,-10.033106,-100.730003,-117.809998,-32.549999,1729426218354.0,0.0
-2.242075,-7.68096,-10.179067,-99.82,-73.290001,-15.26,1729426218374.0,0.0
-5.785845,-5.484349,-15.627523,-133.279999,8.47,-4.27,1729426218397.0,0.0
-4.991428,-9.226725,-15.227923,-90.650002,29.82,-1.05,1729426218420.0,0.0
-4.029513,-11.710474,-7.762317,30.1,40.32,22.190001,1729426218438.0,0.0
-4.252046,-8.688338,-8.673983,159.600006,50.82,18.9,1729426218455.0,0.0
-4.981857,-5.319244,-9.382257,187.110001,86.870003,3.36,1729426218474.0,0.0
-6.209375,-4.68754,-8.090133,157.639999,117.389999,3.99,1729426218494.0,0.0
-5.335995,-4.622933,-5.28096,103.110001,103.110001,8.47,1729426218514.0,0.0
-4.448257,-4.39083,2.868994,65.870003,62.299999,19.040001,1729426218537.0,0.0
-5.410172,-5.9342,5.268995,54.740002,42.07,21.629999,1729426218555.0,0.0
-7.542177,-5.989235,3.641876,-0.21,22.75,-15.89,1729426218574.0,0.0
-9.004191,-5.898308,2.012364,-51.170002,6.02,-34.439999,1729426218595.0,0.0
-6.879365,-5.223531,-1.100698,-68.040001,-71.75,-26.74,1729426218615.0,0.0
-3.278167,-5.979663,-6.678369,-69.370003,-157.220001,-33.810001,1729426218637.0,0.0
-0.667598,-8.020741,-10.645668,-79.730003,-157.149994,-40.110001,1729426218657.0,0.0
0.478565,-7.058826,-11.191232,-93.309998,-113.190002,-21.91,1729426218675.0,0.0
-1.990828,-6.805188,-9.597611,-94.010002,-47.529999,-6.51,1729426218696.0,0.0
-5.012963,-5.07757,-16.254444,-159.880005,31.15,-15.82,1729426218714.0,0.0
-5.371887,-10.255639,-8.920443,-69.790001,48.720001,13.23,1729426218739.0,0.0
-4.575077,-11.74158,-6.199803,88.690002,24.360001,21.35,1729426218754.0,0.0
-3.632305,-7.357929,-9.013763,156.520004,32.830002,5.74,1729426218775.0,0.0
-4.929214,-5.063213,-9.631111,151.479996,80.43,6.44,1729426218795.0,0.0
-5.644669,-3.76391,-6.068198,102.900002,109.199997,8.75,1729426218814.0,0.0
-4.979464,-6.01077,-2.440679,74.340004,74.900002,23.870001,1729426218841.0,0.0
-3.402594,-5.960521,5.321638,33.880001,28.210001,12.95,1729426218862.0,0.0
-5.252246,-5.711668,3.931407,47.740002,10.78,18.34,1729426218876.0,0.0
-7.408179,-3.689733,3.486342,-0.56,10.78,-6.86,1729426218894.0,0.0
-7.611568,-5.07757,0.045464,-67.620003,-42.98,-2.03,1729426218916.0,0.0
-4.902894,-7.149754,-4.103691,-84.840004,-132.649994,-17.219999,1729426218936.0,0.0
-2.091327,-8.020741,-9.853643,-78.610001,-158.759995,-22.889999,1729426218955.0,0.0
-1.440479,-6.833901,-12.236896,-80.290001,-127.120003,-7.42,1729426218975.0,0.0
-3.651447,-5.223531,-11.75833,-125.090004,-32.130001,5.18,1729426218994.0,0.0
-5.601598,-6.635297,-18.759729,-158.199997,38.5,7.21,1729426219014.0,0.0
-5.374279,-11.657832,-11.131411,-56.0,48.439999,20.790001,1729426219038.0,0.0
-3.730411,-9.662218,-8.635696,154.070007,24.639999,29.540001,1729426219055.0,0.0
-3.376273,-6.372087,-8.920443,174.160004,61.950001,10.64,1729426219075.0,0.0
-5.292924,-7.472785,-11.631511,155.680008,108.360001,5.04,1729426219099.0,0.0
-4.211368,-6.393622,-1.29691,99.610001,112.349998,-10.29,1729426219115.0,0.0
-5.254639,-5.783452,3.316452,71.470001,63.91,14.07,1729426219137.0,0.0
-3.919443,-4.07737,4.981857,49.700001,3.29,-14.14,1729426219156.0,0.0
-5.515456,-2.928815,3.089134,12.74,-14.77,-18.27,1729426219175.0,0.0
-7.300502,-2.380858,0.641276,-58.240002,-13.02,-22.049999,1729426219195.0,0.0
-6.463014,-4.342973,-1.689333,-121.169998,-67.970001,-14.84,1729426219215.0,0.0
-3.897908,-7.834101,-6.943972,-121.379997,-150.639999,-23.450001,1729426219237.0,0.0
-1.471586,-9.987641,-10.849058,-101.989998,-160.229996,-40.950001,1729426219256.0,0.0
-2.684747,-6.60419,-11.301301,-107.379997,-83.230003,-20.370001,1729426219277.0,0.0
-6.06102,-4.383651,-13.612768,-128.380005,15.12,-3.43,1729426219296.0,0.0
-6.02752,-7.798209,-12.717852,-117.389999,31.15,-6.72,1729426219316.0,0.0
-3.275774,-11.655439,-5.795416,61.880001,14.56,24.360001,1729426219340.0,0.0
-2.785245,-7.503892,-8.276773,167.229996,38.5,24.01,1729426219357.0,0.0
-4.235296,-5.946165,-7.810174,168.979996,89.879997,9.17,1729426219376.0,0.0
-6.056234,-7.941778,-6.893722,129.430008,124.459999,4.06,1729426219397.0,0.0
-4.943572,-8.023134,-4.290331,93.099998,90.510002,4.06,1729426219416.0,0.0
-3.972085,-5.618347,3.988836,51.66,39.27,-6.86,1729426219438.0,0.0
-4.661219,-3.74716,5.355137,32.060001,18.690001,1.54,1729426219459.0,0.0
-6.675975,-2.500499,2.766103,-3.01,-7.14,-10.85,1729426219476.0,0.0
-7.668997,-3.306881,0.605384,-71.889999,-28.84,-14.07,1729426219495.0,0.0
-6.24766,-5.331209,-3.139383,-108.080002,-91.559998,-10.57,1729426219517.0,0.0
-4.134798,-7.13779,-8.142776,-102.900002,-143.220001,-22.68,1729426219538.0,0.0
-2.218147,-6.865008,-14.459827,-84.279999,-128.520004,-26.530001,1729426219557.0,0.0
-2.67039,-6.34098,-11.332408,-75.599998,-77.209999,1.61,1729426219581.0,0.0
-5.082355,-6.85783,-14.371292,-85.260002,-8.47,11.34,1729426219596.0,0.0
-4.821537,-9.705289,-16.036697,-73.779999,49.98,1.33,1729426219617.0,0.0
-4.328616,-11.901899,-5.924629,20.299999,37.52,23.59,1729426219640.0,0.0
-2.397608,-6.393622,-7.477571,151.270004,15.4,21.700001,1729426219657.0,0.0
-3.201597,-4.319045,-9.056834,158.130005,58.380001,2.1,1729426219676.0,0.0
-5.410172,-5.855237,-8.539984,100.029999,117.459999,4.69,1729426219697.0,0.0
-5.632704,-6.84108,-6.034698,47.880001,113.120003,17.5,1729426219717.0,0.0
-3.952943,-6.963113,0.217747,37.099998,68.18,13.23,1729426219738.0,0.0
-3.627519,-5.206782,5.649454,43.189999,32.41,18.41,1729426219758.0,0.0
-6.075377,-3.620341,5.496314,61.740002,14.35,25.34,1729426219775.0,0.0
-8.12124,-2.624927,5.79063,-14.98,-7.07,12.53,1729426219796.0,0.0
-7.369894,-5.76431,0.803988,-104.370003,-73.290001,1.47,1729426219817.0,0.0
-4.888536,-7.286145,-6.075377,-143.009995,-142.869995,-25.549999,1729426219841.0,0.0
-3.275774,-7.018148,-13.677374,-137.199997,-149.800003,-20.58,1729426219857.0,0.0
-3.352344,-5.845665,-15.670596,-144.199997,-82.669998,-7.07,1729426219876.0,0.0
-5.185246,-8.355737,-11.150554,-161.910004,-21.280001,14.07,1729426219896.0,0.0
-5.675776,-11.533404,-16.091732,-140.210007,12.53,4.34,1729426219916.0,0.0
-3.806981,-13.51227,-8.867801,-140.210007,26.32,2.52,1729426219939.0,0.0
-3.680161,-9.803394,-7.283752,139.789993,28.139999,12.81,1729426219957.0,0.0
-3.464807,-6.439085,-9.889536,196.630005,43.400002,-0.77,1729426219976.0,0.0
-5.462814,-4.979464,-6.228518,153.020004,86.309998,-7.56,1729426219996.0,0.0
-5.962914,-5.546563,-3.002992,84.910004,90.440002,10.15,1729426220016.0,0.0
-4.725825,-4.929214,-0.174676,51.73,47.110001,6.51,1729426220038.0,0.0
-4.582255,-4.388437,2.426322,41.02,29.889999,13.440001,1729426220057.0,0.0
-5.958128,-3.723232,3.172883,19.879999,17.360001,9.31,1729426220075.0,0.0
-6.482157,-3.45045,1.471586,-21.42,-10.01,6.44,1729426220096.0,0.0
-5.623133,-5.462814,-0.847059,-43.189999,-72.870003,7.14,1729426220117.0,0.0
-4.338188,-6.886543,-5.941379,-63.490002,-109.059998,-13.51,1729426220138.0,0.0
-3.024528,-6.082555,-11.772687,-92.470001,-112.629997,-24.43,1729426220156.0,0.0
-3.701697,-4.914857,-11.717653,-123.129997,-81.129997,-1.4,1729426220176.0,0.0
-5.548956,-6.783652,-19.795822,-177.589996,-2.24,4.62,1729426220196.0,0.0
-5.302495,-10.351351,-16.220945,-176.960007,65.169998,-4.2,1729426220216.0,0.0
-5.228317,-14.617754,-7.171289,13.23,61.18,18.620001,1729426220239.0,0.0
-3.952943,-9.578469,-9.308081,174.720001,44.52,7.35,1729426220255.0,0.0
-3.378666,-5.960521,-8.68116,184.520004,76.790001,-18.549999,1729426220275.0,0.0
-5.388636,-4.850252,-5.264209,118.860001,125.230003,-21.139999,1729426220296.0,0.0
-5.422136,-4.852644,-2.9671,79.519997,103.809998,-13.440001,1729426220315.0,0.0
-2.739782,-5.199604,5.946165,70.279999,26.67,-6.86,1729426220338.0,0.0
-4.689932,-2.782853,4.761717,64.050003,4.69,-3.15,1729426220358.0,0.0
-6.977471,-1.718047,2.801995,-10.99,-6.79,0.28,1729426220375.0,0.0
-7.398607,-4.816752,-2.469393,-134.190002,-44.939999,-14.98,1729426220395.0,0.0
-4.922036,-8.41795,-7.960921,-180.389999,-97.790001,-38.779999,1729426220416.0,0.0
-2.301895,-9.547362,-14.038691,-128.520004,-133.419998,-28.700001,1729426220438.0,0.0
-1.387837,-6.168696,-15.749558,-67.760002,-88.550003,-22.469999,1729426220455.0,0.0
-3.775874,-5.754738,-10.269995,-32.549999,-2.17,15.96,1729426220476.0,0.0
-5.460421,-8.779266,-13.739587,-57.189999,26.389999,3.29,1729426220495.0,0.0
-4.510471,-12.636496,-12.172288,-13.65,50.189999,-11.69,1729426220516.0,0.0
-4.469792,-10.990234,-6.01077,59.43,57.610001,-3.92,1729426220537.0,0.0
-4.759324,-8.748159,-7.685746,129.919998,65.660004,-16.73,1729426220556.0,0.0
-4.826324,-6.762117,-8.334201,113.959999,77.559998,-36.75,1729426220575.0,0.0
-5.084748,-5.108676,-5.706882,81.620003,104.440002,-26.74,1729426220596.0,0.0
-3.802195,-5.757132,-3.574877,74.970001,70.489998,-15.96,1729426220615.0,0.0
-1.90708,-4.778467,4.110869,40.740002,37.099998,-16.309999,1729426220638.0,0.0
-4.972286,-4.223332,4.326223,60.200001,23.799999,1.89,1729426220657.0,0.0
-6.453443,-2.806781,3.613162,-16.870001,-15.68,-9.52,1729426220675.0,0.0
-6.118448,-6.18784,-1.244268,-77.559998,-75.949997,-6.93,1729426220695.0,0.0
-3.818945,-8.77448,-6.692725,-120.400002,-135.240005,-36.959999,1729426220716.0,0.0
-1.808974,-7.331609,-13.368701,-125.090004,-142.940002,-33.25,1729426220737.0,0.0
-1.95015,-4.165904,-12.488142,-100.800003,-96.110001,-15.47,1729426220756.0,0.0
-4.443472,-5.331209,-11.358729,-107.029999,-25.41,11.9,1729426220776.0,0.0
-5.235496,-8.35813,-19.300507,-117.949997,24.219999,4.55,1729426220796.0,0.0
-4.304688,-11.645866,-10.849058,-26.530001,48.790001,10.29,1729426220815.0,0.0
-4.149154,-10.38485,-9.24826,111.370003,50.470001,23.1,1729426220841.0,0.0
-2.816352,-7.02772,-10.382458,165.199997,52.360001,3.78,1729426220857.0,0.0
-3.261417,-4.938786,-7.810174,128.380005,98.07,-7.21,1729426220877.0,0.0
-4.007978,-4.809574,-5.417351,99.050003,117.040001,6.02,1729426220903.0,0.0
-2.734996,-6.372087,0.303888,88.550003,71.260002,2.17,1729426220915.0,0.0
-2.617748,-5.510671,6.226124,66.849998,41.16,5.39,1729426220938.0,0.0
-4.773681,-5.496314,5.974878,46.830002,13.02,0.42,1729426220956.0,0.0
-6.240481,-4.443472,3.888337,-55.510002,-12.95,-16.450001,1729426220976.0,0.0
-4.158726,-7.312466,-2.378466,-96.669998,-119.07,-2.73,1729426220996.0,0.0
-2.09372,-9.219545,-7.412964,-94.080002,-162.960007,-20.299999,1729426221016.0,0.0
-1.445265,-8.145168,-13.301701,-97.370003,-128.940002,-25.34,1729426221037.0,0.0
-2.799603,-5.912664,-11.186446,-88.340004,-76.440002,-4.83,1729426221055.0,0.0
-5.539384,-5.278566,-13.009777,-130.899994,-8.54,3.99,1729426221077.0,0.0
-5.180461,-7.558927,-18.757338,-160.369995,7.14,-10.5,1729426221096.0,0.0
-3.89073,-10.415956,-12.964314,-89.040001,30.73,-0.49,1729426221116.0,0.0
-2.694318,-11.112268,-8.709875,73.5,36.540001,15.12,1729426221139.0,0.0
-2.54357,-7.343572,-9.80818,148.259995,54.880001,5.53,1729426221156.0,0.0
-3.402594,-4.524827,-9.389436,119.699997,95.269997,-4.83,1729426221176.0,0.0
-4.632504,-3.294917,-7.032506,50.68,122.57,-3.29,1729426221197.0,0.0
-3.728018,-3.550949,-4.319045,9.03,94.709999,12.11,1729426221216.0,0.0
-2.22054,-6.494121,2.371287,44.099998,44.170002,23.379999,1729426221238.0,0.0
-3.692125,-7.334002,4.096512,79.660004,30.17,20.299999,1729426221259.0,0.0
-6.690332,-4.895715,3.730411,55.09,24.710001,1.89,1729426221276.0,0.0
-7.219146,-6.506085,0.748954,-31.85,-66.220001,-4.55,1729426221298.0,0.0
-4.254438,-7.69771,-4.749753,-62.790001,-147.279999,-29.540001,1729426221318.0,0.0
-1.971686,-6.149554,-13.505091,-79.449997,-164.850006,-35.0,1729426221405.0,0.0
-2.37368,-2.471786,-15.371492,-105.910004,-100.660004,-33.670002,1729426221413.0,0.0
-3.605984,-4.59422,-13.390236,-153.649994,-26.389999,-1.68,1729426221415.0,0.0
-3.323631,-7.788638,-16.998611,-168.979996,-20.65,-7.98,1729426221418.0,0.0
-2.672783,-11.8349,-15.943377,-42.77,30.52,10.01,1729426221420.0,0.0
-2.768496,-9.609575,-8.587841,83.580002,61.599998,15.190001,1729426221439.0,0.0
-3.625126,-5.726025,-8.77448,152.600006,78.260002,15.12,1729426221458.0,0.0
-4.063013,-3.773481,-8.336594,109.900002,86.660004,1.75,1729426221478.0,0.0
-4.058227,-3.23031,-6.939186,28.700001,108.849998,9.31,1729426221498.0,0.0
-2.605784,-6.405586,-1.612763,29.82,73.43,22.540001,1729426221519.0,0.0
-2.586641,-8.664411,5.546563,50.959999,37.73,21.210001,1729426221540.0,0.0
-5.570491,-7.372287,3.534199,62.720001,22.26,4.2,1729426221559.0,0.0
-7.793423,-5.965307,3.680161,-26.6,5.11,-21.210001,1729426221578.0,0.0
-5.000999,-8.338986,-4.101298,-74.760002,-113.959999,-33.040001,1729426221597.0,0.0
-1.619941,-8.11167,-9.32483,-67.199997,-159.880005,-47.32,1729426221622.0,0.0
-0.095713,-5.804988,-14.579469,-48.09,-141.470001,-41.720001,1729426221640.0,0.0
-1.588834,-2.325824,-13.301701,-62.580002,-54.880001,-18.549999,1729426221658.0,0.0
-3.505485,-4.316652,-11.729616,-105.489998,-7.91,4.48,1729426221680.0,0.0
-3.548556,-8.609376,-17.510677,-94.43,6.16,1.26,1729426221698.0,0.0
-2.739782,-11.60519,-12.045469,10.78,43.049999,11.27,1729426221717.0,0.0
-3.771089,-8.752945,-8.25763,118.300003,70.139999,22.4,1729426221740.0,0.0
-4.194618,-5.517848,-10.29153,169.050003,75.529999,11.69,1729426221758.0,0.0
-4.393222,-3.816552,-8.283953,135.869995,98.279999,8.05,1729426221777.0,0.0
-4.074977,-3.737589,-5.807381,93.870003,105.349998,27.93,1729426221798.0,0.0
-2.617748,-5.642276,2.603391,89.040001,65.379997,37.799999,1729426221817.0,0.0
-3.720839,-7.448857,5.800202,91.699997,37.240002,46.130001,1729426221842.0,0.0
-6.049056,-6.357729,4.541577,68.809998,21.49,18.620001,1729426221858.0,0.0
-7.475177,-5.936593,3.799802,-15.190001,0.28,5.53,1729426221879.0,0.0
-5.60399,-7.080362,-1.399801,-37.73,-84.349998,6.86,1729426221900.0,0.0
-1.713261,-7.350751,-7.250252,-34.09,-156.380005,-8.61,1729426221918.0,0.0
-1.959722,-8.157133,-10.162319,18.48,-114.940002,4.97,1729426221939.0,0.0
-3.050849,-9.607183,-9.80818,112.980003,-85.68,21.0,1729426221959.0,0.0
-4.867002,-10.186246,-6.728617,254.100006,-71.959999,52.639999,1729426221980.0,0.0
-6.496514,-12.768101,-5.649454,401.170013,-61.880001,67.480003,1729426221999.0,0.0
-6.855437,-11.956935,-8.386844,455.140015,-37.380001,63.490002,1729426222018.0,0.0
-6.757331,-11.296515,-9.056834,498.679993,-8.96,66.290001,1729426222040.0,0.0
-5.668597,-12.181859,-4.197011,489.299988,-0.42,31.99,1729426222059.0,0.0
-5.123034,-11.157731,-0.275175,435.540009,-1.96,3.22,1729426222077.0,0.0
-4.63729,-9.530612,1.454836,400.959991,-10.01,-21.84,1729426222098.0,0.0
-3.732803,-7.657032,3.285345,359.660004,-8.89,-50.189999,1729426222117.0,0.0
-3.835695,-6.391229,4.673182,295.820007,1.75,-65.099998,1729426222139.0,0.0
-4.177868,-6.144768,5.812167,247.869995,-1.89,-71.75,1729426222159.0,0.0
-4.041477,-5.185246,5.87438,215.040009,0.63,-74.480003,1729426222178.0,0.0
-5.218746,-4.969893,7.310073,167.509995,5.95,-79.940002,1729426222199.0,0.0
-4.912465,-4.331009,7.503892,108.709999,-3.78,-73.919998,1729426222218.0,0.0
-4.651647,-5.362316,7.049256,78.540001,-8.68,-75.529999,1729426222239.0,0.0
-4.010371,-5.407779,7.267002,77.699997,-5.67,-84.07,1729426222260.0,0.0
-3.184847,-1.59362,8.638089,92.190002,10.22,-72.730003,1729426222278.0,0.0
-2.428715,1.959722,8.465806,53.060001,17.639999,-54.599998,1729426222302.0,0.0
-2.225325,4.9675,7.915457,-10.01,18.9,-13.93,1729426222515.0,0.0
-3.52702,1.485943,7.111469,-71.959999,2.73,24.710001,1729426222518.0,0.0
-5.398208,-2.402394,5.539384,-114.309998,-12.32,36.330002,1729426222521.0,0.0
-4.476971,-3.570091,4.938786,-72.099998,-13.65,49.0,1729426222525.0,0.0
-4.376472,-4.31426,5.67099,-20.51,-4.55,65.940002,1729426222526.0,0.0
-6.776474,-8.740981,6.130411,17.5,-13.440001,67.129997,1729426222527.0,0.0
-8.075776,-11.557333,5.615955,72.379997,-8.33,46.130001,1729426222529.0,0.0
-8.159525,-11.4353,6.869793,93.309998,1.4,12.53,1729426222530.0,0.0
-4.534399,-7.489535,7.049256,73.220001,-1.19,-21.280001,1729426222531.0,0.0
-2.239682,-5.582455,6.817152,52.709999,18.27,-30.940001,1729426222532.0,0.0
-3.718446,-7.992027,5.642276,3.78,20.23,-49.0,1729426222534.0,0.0
-3.208775,-7.183254,5.788238,14.98,20.790001,-62.02,1729426222547.0,0.0
-2.139183,2.54357,7.822137,86.169998,26.74,-44.310001,1729426222585.0,0.0
-2.498107,2.732604,8.465806,92.190002,32.27,-24.5,1729426222597.0,0.0
-6.829116,-2.440679,7.585248,-5.25,25.549999,-3.15,1729426222617.0,0.0
-7.573284,-3.622734,6.666404,-101.5,-14.35,37.240002,1729426222638.0,0.0
-4.37408,-0.605384,6.678369,-64.82,-14.07,54.599998,1729426222657.0,0.0
-4.118048,-0.808774,4.668397,-91.209999,-11.41,68.32,1729426222680.0,0.0
-4.455436,-5.613562,4.359723,-117.529999,-12.95,78.959999,1729426222698.0,0.0
-7.922636,-13.564911,4.063013,-84.279999,-13.58,62.02,1729426222766.0,0.0
-6.955935,-13.383057,6.302694,-14.63,3.85,30.1,1729426222770.0,0.0
-6.257231,-10.179067,8.492127,16.73,7.49,-2.31,1729426222771.0,0.0
-4.34058,-7.001399,7.475177,2.73,12.32,-29.120001,1729426222777.0,0.0
-5.115855,-8.283953,7.597212,-20.719999,8.61,-37.66,1729426222798.0,0.0
-4.302295,-6.865008,7.343572,2.87,0.42,-59.920002,1729426222817.0,0.0
-4.268795,-4.185047,8.195417,66.150002,3.08,-46.41,1729426222842.0,0.0
-3.914658,-1.11027,7.690532,73.779999,-0.14,-42.84,1729426222896.0,0.0
-1.993221,2.589034,6.936793,27.790001,5.04,-29.26,1729426222896.0,0.0
-5.242674,-1.756332,5.79063,-95.830002,-11.06,22.469999,1729426222909.0,0.0
-8.224132,-5.139783,3.708875,-105.489998,-17.290001,23.309999,1729426222920.0,0.0
-4.570292,-2.251646,5.199604,-27.51,-6.58,36.82,1729426222943.0,0.0
-3.649055,-1.311267,5.022535,-15.96,6.93,44.869999,1729426222959.0,0.0
-4.082155,-4.500899,5.230711,-41.509998,10.01,58.73,1729426222978.0,0.0
-6.125626,-11.693724,6.616155,-18.690001,5.95,58.380001,1729426222999.0,0.0
-6.460621,-13.672589,8.118847,14.77,8.54,27.860001,1729426223019.0,0.0
-4.500899,-12.236896,9.243474,29.26,1.89,3.99,1729426223043.0,0.0
-3.134598,-10.011569,6.9679,10.78,-1.33,-23.59,1729426223060.0,0.0
-4.785645,-10.877771,7.245467,8.54,-9.1,-30.450001,1729426223081.0,0.0
-4.740182,-7.762317,8.061419,40.110001,-25.200001,-57.68,1729426223100.0,0.0
-3.909872,-1.411765,8.133204,94.989998,-23.799999,-43.259998,1729426223121.0,0.0
-4.249653,2.053042,7.4345,69.650002,-25.34,-23.59,1729426223143.0,0.0
-2.876173,1.160519,6.51087,-25.690001,-23.799999,-11.69,1729426223160.0,0.0
-5.74756,-4.622933,4.364508,-150.850006,-40.32,25.27,1729426223183.0,0.0
-7.501499,-7.752745,4.319045,-100.590004,-28.210001,13.58,1729426223200.0,0.0
-4.756931,-4.290331,6.197411,-12.32,-5.53,20.23,1729426223219.0,0.0
-3.598805,-3.038885,6.183054,9.8,5.88,26.880001,1729426223242.0,0.0
-3.201597,-3.436093,5.448457,4.97,14.07,42.0,1729426223260.0,0.0
-2.804388,-4.235296,5.273781,1.33,20.58,51.240002,1729426223282.0,0.0
-4.87418,-8.439486,6.326623,19.6,18.83,53.689999,1729426223300.0,0.0
-7.168896,-9.602397,8.484949,33.950001,18.34,37.66,1729426223319.0,0.0
-6.912865,-10.068997,9.016156,29.33,2.1,14.91,1729426223341.0,0.0
-4.706682,-8.315059,7.539784,12.6,-9.52,-17.01,1729426223361.0,0.0
-3.842873,-7.06122,5.615955,8.68,-9.17,-22.26,1729426223386.0,0.0
-5.156533,-6.795617,5.213961,20.370001,-5.67,-30.52,1729426223399.0,0.0
-5.20439,-5.06082,5.927022,46.060001,-3.57,-38.009998,1729426223420.0,0.0
-5.568098,-4.046263,7.905886,66.5,-2.52,-34.860001,1729426223442.0,0.0
-5.4676,-3.493521,8.300702,50.259998,-6.58,-39.130001,1729426223459.0,0.0
-4.134798,-2.533999,8.377272,12.53,-3.78,-29.75,1729426223480.0,0.0
-3.39063,-1.493121,5.525027,-44.52,-4.69,-16.870001,1729426223500.0,0.0
-6.065805,-4.608576,5.259424,-59.360001,-4.55,1.19,1729426223524.0,0.0
-5.192425,-2.22054,4.862216,-21.700001,6.79,1.61,1729426223542.0,0.0
-2.979064,-0.768096,5.108676,4.9,16.52,22.33,1729426223559.0,0.0
-3.103491,-2.912065,6.056234,-8.12,22.68,34.720001,1729426223579.0,0.0
-3.538985,-5.223531,5.075177,-10.64,24.85,51.869999,1729426223599.0,0.0
-3.605984,-8.425128,7.161718,21.139999,25.48,58.099998,1729426223623.0,0.0
-7.788638,-11.827723,9.174082,36.610001,20.370001,40.950001,1729426223641.0,0.0
-7.058826,-10.470992,10.164711,31.710001,3.85,15.96,1729426223660.0,0.0
-5.278566,-9.233903,9.08794,14.84,-10.01,-22.049999,1729426223680.0,0.0
-3.795017,-7.518249,6.927221,-5.95,-11.97,-36.959999,1729426223699.0,0.0
-5.501099,-8.717053,6.118448,-9.03,-14.28,-46.900002,1729426223719.0,0.0
-5.178068,-5.929415,6.005985,30.799999,-11.27,-60.48,1729426223742.0,0.0
-5.661418,-3.749553,7.836494,73.639999,-7.77,-59.290001,1729426223760.0,0.0
-4.668397,-1.009771,5.84088,59.080002,-7.07,-65.379997,1729426223781.0,0.0
-3.07717,0.899701,5.431707,20.51,-1.82,-46.200001,1729426223799.0,0.0
-4.31426,0.445065,5.180461,-30.799999,-1.68,-14.77,1729426223819.0,0.0
-7.271788,-2.952743,5.35753,-53.060001,-4.41,-1.4,1729426223844.0,0.0
-3.759124,0.42353,6.132804,-3.64,4.27,13.23,1729426223861.0,0.0
-2.455036,0.447458,5.807381,-18.059999,13.09,32.970001,1729426223879.0,0.0
-3.294917,-2.98385,4.792823,-56.07,16.17,59.150002,1729426223899.0,0.0
-3.072384,-7.314859,4.563113,-59.639999,16.1,66.709999,1729426223920.0,0.0
-5.989235,-15.747166,7.846066,-14.0,16.52,50.959999,1729426223940.0,0.0
-6.300302,-13.730016,8.439486,27.09,18.129999,21.35,1729426223959.0,0.0
-5.76431,-10.671989,10.325029,73.639999,14.28,7.56,1729426223979.0,0.0
-4.302295,-7.929814,7.71446,26.32,7.0,-38.990002,1729426223999.0,0.0
-3.771089,-6.898508,6.259624,-12.95,5.67,-41.369999,1729426224020.0,0.0
-5.958128,-8.91805,7.420143,-14.56,-7.14,-59.990002,1729426224042.0,0.0
-4.869394,-4.424329,7.551748,36.959999,-8.54,-68.18,1729426224060.0,0.0
-4.278367,0.246461,6.987042,72.239998,-9.45,-42.139999,1729426224086.0,0.0
-2.804388,3.433701,6.285945,27.860001,-6.02,-26.6,1729426224100.0,0.0
-3.146562,2.742175,6.005985,-53.760002,-5.11,3.64,1729426224121.0,0.0
-5.888737,-1.505085,4.225725,-106.400002,-10.22,35.560001,1729426224142.0,0.0
-7.032506,-2.024328,4.453043,-85.190002,0.07,40.25,1729426224160.0,0.0
-4.642076,-1.122234,5.06082,-21.700001,15.4,59.5,1729426224179.0,0.0
-5.659025,-5.804988,5.539384,-52.849998,21.49,59.360001,1729426224200.0,0.0
-6.589834,-10.023535,5.032106,-47.529999,17.15,68.949997,1729426224222.0,0.0
-7.82453,-13.442878,5.979663,-4.62,23.030001,41.23,1729426224242.0,0.0
-8.327023,-13.749159,8.987441,38.150002,22.889999,12.32,1729426224262.0,0.0
-5.924629,-10.435099,9.449257,59.849998,13.02,-26.809999,1729426224279.0,0.0
-2.914458,-6.599405,6.783652,45.290001,13.3,-50.540001,1729426224302.0,0.0
-3.974478,-7.267002,5.867201,26.110001,10.29,-50.959999,1729426224321.0,0.0
-3.74716,-6.190232,6.910471,43.049999,-1.54,-58.799999,1729426224341.0,0.0
-3.859623,-2.799603,7.62114,91.139999,0.21,-49.98,1729426224361.0,0.0
-4.362115,-1.828116,8.740981,93.940002,-4.48,-42.209999,1729426224381.0,0.0
-3.553342,-0.612563,7.305287,41.93,-1.82,-39.130001,1729426224399.0,0.0
-3.713661,-0.31346,5.486742,-44.099998,-2.8,-16.870001,1729426224422.0,0.0
-5.206782,-2.57707,5.422136,-88.269997,-10.57,0.91,1729426224443.0,0.0
-7.783852,-2.175076,2.038685,-65.239998,-9.87,12.81,1729426224460.0,0.0
-3.553342,1.06002,5.295317,15.26,14.28,40.810001,1729426224481.0,0.0
-2.443072,-0.246461,6.419943,-10.08,29.610001,40.18,1729426224501.0,0.0
-5.426922,-5.977271,8.260024,-39.549999,25.690001,77.769997,1729426224522.0,0.0
-7.996813,-10.987842,9.781858,-42.209999,6.86,72.239998,1729426224554.0,0.0
-10.171888,-15.318851,9.784252,-29.75,-7.07,31.360001,1729426224562.0,0.0
-7.587641,-12.763316,7.738388,-22.33,-19.25,-18.34,1729426224582.0,0.0
-3.598805,-7.551748,4.800002,-4.62,-13.23,-43.82,1729426224602.0,0.0
-4.85743,-8.166703,5.4676,19.040001,-4.83,-52.57,1729426224623.0,0.0
-4.4339,-6.348158,5.254639,60.060001,-7.49,-77.349998,1729426224643.0,0.0
-4.656433,-3.151347,7.592427,114.099998,-3.71,-61.810001,1729426224662.0,0.0
-4.072584,-0.727418,7.202396,70.629997,-4.69,-61.32,1729426224682.0,0.0
-3.029313,3.811767,2.823531,-16.940001,-6.65,-30.66,1729426224700.0,0.0
-3.395415,-0.165105,4.644469,-36.470001,-5.18,18.129999,1729426224722.0,0.0
-4.706682,-3.706482,3.572484,-74.199997,1.75,5.53,1729426224742.0,0.0
-6.403193,-3.893122,6.087341,-24.780001,13.79,27.16,1729426224761.0,0.0
-3.962514,-1.385444,6.611369,3.71,23.940001,42.349998,1729426224782.0,0.0
-4.151547,-3.85723,7.039684,-28.139999,19.25,57.75,1729426224807.0,0.0
-6.479764,-9.518648,7.336394,-36.400002,8.96,66.849998,1729426224821.0,0.0
-8.4012,-10.995021,7.609176,-29.540001,-0.35,34.02,1729426224848.0,0.0
-10.152746,-12.720245,9.781858,9.66,-4.97,6.93,1729426224861.0,0.0
-6.039484,-9.578469,6.903293,-19.110001,-14.42,-41.439999,1729426224881.0,0.0
-2.641676,-6.936793,4.675575,-13.3,-9.87,-44.380001,1729426224901.0,0.0
-4.0008,-6.396015,5.556134,34.369999,-6.65,-43.889999,1729426224921.0,0.0
-4.252046,-3.852444,5.644669,75.459999,-0.63,-48.369999,1729426224947.0,0.0
-5.134997,-3.517449,7.087541,68.459999,-0.98,-43.540001,1729426224962.0,0.0
-5.012963,-3.151347,7.393822,24.99,-6.72,-42.77,1729426224981.0,0.0
-4.668397,-3.730411,6.987042,-37.73,-16.379999,-36.189999,1729426225001.0,0.0
-3.957729,-1.493121,3.806981,-60.549999,-18.200001,-18.690001,1729426225021.0,0.0
-5.513064,-2.225325,4.555934,-27.09,-11.34,10.08,1729426225047.0,0.0
-7.15454,-3.393023,4.831109,-24.08,-0.77,0.91,1729426225061.0,0.0
-4.328616,-1.758725,7.702496,-13.440001,2.8,12.6,1729426225081.0,0.0
-2.423929,-1.194018,8.29113,-27.65,2.8,29.610001,1729426225101.0,0.0
-5.307281,-6.266802,7.290931,-75.32,-8.75,70.489998,1729426225121.0,0.0
-6.293124,-11.454442,6.508478,-68.739998,-22.889999,59.709999,1729426225144.0,0.0
-7.467999,-15.25903,6.278766,-33.040001,-16.24,14.7,1729426225161.0,0.0
-6.474977,-11.715261,5.721239,9.73,-5.6,-9.03,1729426225182.0,0.0
-4.122833,-7.668997,5.611169,28.700001,-0.07,-23.870001,1729426225201.0,0.0
-4.61097,-8.01117,4.462614,15.190001,2.17,-42.630001,1729426225222.0,0.0
-4.398008,-7.501499,5.364708,25.41,0.63,-49.98,1729426225245.0,0.0
-4.115655,-5.424529,6.398407,35.77,-6.72,-52.360001,1729426225261.0,0.0
-3.022135,-2.036292,6.98465,13.440001,-9.31,-42.91,1729426225281.0,0.0
-2.816352,1.505085,3.014957,-52.43,-5.18,-14.84,1729426225301.0,0.0
-3.895515,-0.306281,4.426722,-80.010002,-11.62,17.780001,1729426225322.0,0.0
-6.809973,-5.462814,4.503292,-87.220001,-8.33,20.440001,1729426225344.0,0.0
-6.38405,-4.752146,6.171089,-51.939999,2.17,14.98,1729426225361.0,0.0
-3.972085,-0.70349,8.341379,-16.17,1.19,45.360001,1729426225383.0,0.0
-4.067799,-1.768296,8.006385,-48.93,1.54,65.449997,1729426225401.0,0.0
-6.520442,-7.4345,6.084948,-114.309998,-18.200001,69.580002,1729426225421.0,0.0
-6.125626,-15.960127,4.673182,-55.720001,-25.76,26.6,1729426225445.0,0.0
-4.828716,-13.550553,5.271388,18.059999,-2.59,2.45,1729426225462.0,0.0
-3.658626,-8.906086,5.17089,52.5,10.15,-10.64,1729426225480.0,0.0
-4.295116,-8.10449,4.237689,39.060001,14.63,-30.59,1729426225500.0,0.0
-4.809574,-8.705089,5.87438,38.009998,9.03,-42.560001,1729426225521.0,0.0
-4.328616,-6.702296,7.233503,52.920002,-0.84,-54.25,1729426225544.0,0.0
-3.725625,-3.940979,7.939385,47.950001,-4.62,-47.740002,1729426225561.0,0.0
-3.354738,-1.292124,6.884151,-8.75,-9.94,-31.5,1729426225581.0,0.0
-3.897908,-1.911865,7.666604,-66.150002,-20.790001,-18.41,1729426225601.0,0.0
-5.374279,-0.038285,-1.067199,-96.110001,-9.52,1.82,1729426225621.0,0.0
-8.453842,-2.840281,5.814559,-14.56,5.81,44.939999,1729426225643.0,0.0
-5.52742,-1.976472,7.391429,3.29,4.48,22.960001,1729426225661.0,0.0
-4.311867,-0.954736,6.85783,-8.68,8.89,39.549999,1729426225680.0,0.0
-5.501099,-4.630112,6.910471,-33.880001,3.71,74.900002,1729426225702.0,0.0
-6.630512,-11.265409,5.864808,-63.07,-11.2,71.68,1729426225723.0,0.0
-7.341179,-18.774086,4.285545,-52.220001,-19.460001,27.440001,1729426225744.0,0.0
-4.694718,-13.34238,3.969693,3.22,-4.34,-14.35,1729426225762.0,0.0
-3.089134,-6.573084,4.232903,81.059998,15.05,-25.690001,1729426225781.0,0.0
-3.931407,-7.877172,4.127619,60.27,13.93,-47.110001,1729426225801.0,0.0
-4.125226,-8.997013,4.563113,64.330002,5.32,-60.27,1729426225821.0,0.0
-4.127619,-6.888937,6.707082,107.660004,2.03,-68.040001,1729426225845.0,0.0
-3.378666,-2.289931,7.51107,121.449997,1.75,-57.049999,1729426225860.0,0.0
-3.428915,0.957129,6.635297,60.48,0.35,-29.68,1729426225880.0,0.0
-4.589434,0.234497,6.206983,-31.710001,-13.93,-9.59,1729426225902.0,0.0
-8.700303,-3.538985,2.163112,-89.389999,-16.940001,5.67,1729426225920.0,0.0
-7.185646,-1.942972,5.115855,-41.790001,-19.460001,34.439999,1729426225944.0,0.0
-3.407379,-0.29671,6.276374,-21.210001,-18.969999,33.740002,1729426225961.0,0.0
-3.235096,-1.672583,6.733403,-54.599998,-6.79,51.73,1729426225981.0,0.0
-5.012963,-6.549156,4.886144,-89.599998,-7.84,84.279999,1729426226001.0,0.0
-6.723832,-13.651052,4.278367,-82.18,-16.379999,60.900002,1729426226020.0,0.0
-7.525427,-19.221544,4.197011,-32.060001,-6.86,14.21,1729426226043.0,0.0
-5.565705,-13.794623,3.883551,28.07,6.02,-22.33,1729426226062.0,0.0
-3.232704,-6.283553,5.094319,89.809998,19.67,-23.17,1729426226082.0,0.0
-4.486543,-8.271988,4.886144,82.389999,23.940001,-41.860001,1729426226100.0,0.0
-4.029513,-7.582855,6.034698,76.720001,9.38,-56.349998,1729426226127.0,0.0
-4.438686,-4.259224,7.89153,93.169998,10.78,-55.23,1729426226146.0,0.0
-4.400401,-2.132005,8.642875,48.650002,2.1,-46.200001,1729426226161.0,0.0
-4.125226,-1.651048,7.326823,-41.299999,-11.2,-33.110001,1729426226181.0,0.0
-4.37408,-3.290131,6.908078,-101.57,-25.549999,-23.309999,1729426226201.0,0.0
-6.431907,-4.163511,3.620341,-95.620003,-22.540001,-3.64,1729426226221.0,0.0
-7.427321,-3.316452,4.354938,-22.540001,-9.8,12.95,1729426226244.0,0.0
-4.82393,-1.045663,7.113862,17.639999,-7.07,17.57,1729426226261.0,0.0
-3.086741,-1.328017,6.632904,-11.41,-4.97,21.629999,1729426226281.0,0.0
-3.546163,-3.881158,6.903293,-31.5,-1.96,50.959999,1729426226301.0,0.0
-4.34058,-7.271788,5.737988,-46.830002,-4.34,65.590004,1729426226411.0,0.0
-5.60399,-13.473984,6.329016,-34.93,-12.53,49.420002,1729426226411.0,0.0
-5.924629,-17.123037,5.929415,2.17,-8.19,6.86,1729426226412.0,0.0
-4.041477,-13.493127,4.711468,34.369999,1.4,-21.84,1729426226417.0,0.0
-2.9336,-7.829315,4.460221,64.540001,12.6,-35.349998,1729426226417.0,0.0
-4.445865,-8.080563,4.584648,62.650002,17.639999,-56.91,1729426226424.0,0.0
-4.804788,-7.314859,6.113662,78.330002,16.1,-67.269997,1729426226449.0,0.0
-4.577469,-3.385844,7.180861,100.449997,12.11,-62.580002,1729426226461.0,0.0
-4.302295,-0.165105,8.044669,78.540001,10.15,-50.470001,1729426226482.0,0.0
-3.993621,0.849452,6.960721,-0.91,-0.21,-28.559999,1729426226501.0,0.0
-4.780859,-1.490728,6.89133,-72.800003,-20.51,-7.98,1729426226521.0,0.0
-5.745167,-1.885544,4.383651,-85.330002,-22.82,12.04,1729426226617.0,0.0
-3.110669,-1.217947,6.228518,-29.610001,-12.81,31.639999,1729426226617.0,0.0
-2.754139,-2.134398,6.075377,-10.64,-10.78,36.330002,1729426226617.0,0.0
-3.826123,-5.087141,5.371887,-37.869999,1.05,50.610001,1729426226628.0,0.0
-4.735396,-10.727024,5.982057,-65.309998,2.1,73.779999,1729426226650.0,0.0
-6.171089,-17.204393,5.599205,-57.82,-4.13,40.740002,1729426226666.0,0.0
-5.979663,-17.240288,4.359723,-10.36,1.68,5.04,1729426226682.0,0.0
-4.04387,-8.642875,6.175875,85.959999,18.83,-29.33,1729426226703.0,0.0
-4.522435,-6.754939,5.99402,75.459999,22.960001,-45.57,1729426226726.0,0.0
-5.187639,-7.776673,6.037091,49.98,11.27,-58.59,1729426226747.0,0.0
-4.737789,-7.058826,5.903094,52.990002,5.6,-66.779999,1729426226763.0,0.0
-4.024727,-3.866802,6.424729,62.790001,5.95,-62.09,1729426226785.0,0.0
-3.706482,-0.430708,6.735795,41.650002,6.79,-45.990002,1729426226808.0,0.0
-3.866802,1.143769,6.001199,-3.99,8.82,-24.5,1729426226822.0,0.0
-5.005785,-0.531207,5.95095,-47.110001,0.7,1.4,1729426226851.0,0.0
-6.463014,-3.058028,4.725825,-65.169998,-4.55,9.94,1729426226862.0,0.0
-4.381258,-1.911865,5.666204,-34.439999,-5.88,26.460001,1729426226882.0,0.0
-2.782853,-1.4668,6.836295,-18.9,-2.03,46.830002,1729426226903.0,0.0
-3.371487,-3.756732,6.515656,-46.830002,4.97,60.549999,1729426226922.0,0.0
-4.393222,-8.070991,6.333801,-68.040001,1.75,74.900002,1729426226945.0,0.0
-6.051448,-14.833108,6.355337,-64.959999,-5.25,55.650002,1729426226963.0,0.0
-6.525227,-17.556139,5.556134,-40.459999,-1.54,16.66,1729426226984.0,0.0
-5.905487,-15.017354,5.733203,23.59,1.75,-10.36,1729426227002.0,0.0
-3.773481,-7.128219,6.501299,72.099998,7.63,-39.200001,1729426227023.0,0.0
-4.354938,-6.333801,5.905487,61.459999,7.98,-52.849998,1729426227044.0,0.0
-4.941179,-7.393822,6.037091,40.529999,-3.92,-69.440002,1729426227063.0,0.0
-4.469792,-6.652047,5.563312,57.400002,-2.59,-72.029999,1729426227172.0,0.0
-4.09412,-4.07737,6.250053,68.739998,0.77,-70.699997,1729426227175.0,0.0
-3.65384,-0.148355,6.400801,49.630001,3.15,-55.720001,1729426227181.0,0.0
-3.948158,2.177469,5.989235,8.75,10.08,-28.210001,1729426227184.0,0.0
-5.871986,-0.105284,5.592027,-44.869999,1.4,-1.33,1729426227185.0,0.0
-6.874579,-1.926222,4.692325,-60.900002,-8.19,8.54,1729426227323.0,0.0
-4.019942,-0.806381,6.297909,-17.219999,-12.6,32.619999,1729426227324.0,0.0
-2.696711,-0.634098,6.896115,-17.710001,-6.23,51.170002,1729426227324.0,0.0
-3.256632,-3.072384,6.321837,-58.73,-1.96,75.529999,1729426227324.0,0.0
-4.046263,-8.29113,5.699703,-90.790001,-3.57,89.529999,1729426227324.0,0.0
-5.651847,-15.409778,5.115855,-92.82,-8.4,66.709999,1729426227325.0,0.0
-6.324231,-18.802801,5.142176,-48.02,2.1,33.740002,1729426227325.0,0.0
-6.168696,-16.668402,5.587241,26.530001,14.35,-7.35,1729426227325.0,0.0
-5.008178,-10.176675,6.491727,78.540001,21.98,-41.860001,1729426227342.0,0.0
-4.275974,-6.649654,5.206782,81.900002,23.379999,-48.23,1729426227365.0,0.0
-5.008178,-7.405786,5.716454,56.0,8.33,-63.98,1729426227382.0,0.0
-4.347759,-5.685347,5.175675,66.290001,2.73,-64.260002,1729426227402.0,0.0
-4.139583,-3.393023,5.285746,70.629997,12.04,-59.920002,1729426227440.0,0.0
-3.294917,0.325424,5.462814,43.470001,10.15,-46.34,1729426227443.0,0.0
-2.928815,3.383451,4.759324,10.29,18.200001,-12.11,1729426227463.0,0.0
-5.639884,0.014357,6.18784,-25.76,19.040001,23.52,1729426227482.0,0.0
-7.810174,-2.541178,5.211568,-60.48,14.42,23.450001,1729426227501.0,0.0
-6.022735,-1.730011,6.568298,-27.02,3.92,47.529999,1729426227521.0,0.0
-4.098906,-0.918844,6.738188,-21.280001,-1.89,63.139999,1729426227542.0,0.0
-4.118048,-3.996014,6.221339,-54.950001,2.52,85.190002,1729426227562.0,0.0
-6.912865,-12.136396,5.546563,-84.980003,-3.22,78.610001,1729426227581.0,0.0
-8.29113,-18.970299,6.020342,-69.790001,-3.15,39.549999,1729426227601.0,0.0
-6.486942,-18.221344,6.305088,-17.43,-3.57,-1.82,1729426227621.0,0.0
-5.12782,-11.370694,7.054041,59.920002,6.86,-35.630001,1729426227642.0,0.0
-3.402594,-6.551548,6.73101,78.610001,7.07,-47.810001,1729426227661.0,0.0
-3.964907,-5.955735,5.60399,61.25,1.33,-50.75,1729426227683.0,0.0
-4.800002,-6.881758,6.757331,41.439999,-6.65,-63.420002,1729426227701.0,0.0
-4.189832,-5.237889,6.78126,46.549999,-13.440001,-67.059998,1729426227722.0,0.0
-3.68734,-2.502892,6.252446,31.290001,-10.22,-64.959999,1729426227743.0,0.0
-3.28056,1.292124,5.139783,4.2,-9.87,-35.209999,1729426227762.0,0.0
-3.881158,2.306681,6.075377,-22.960001,-4.97,-5.46,1729426227781.0,0.0
-6.240481,-1.043271,5.766702,-65.940002,-8.54,13.93,1729426227802.0,0.0
-5.886343,-0.535992,5.443672,-68.459999,-11.06,29.960001,1729426227822.0,0.0
-3.572484,-0.37328,6.819544,-43.470001,-21.91,55.720001,1729426227846.0,0.0
-3.132205,-1.024128,4.953143,-65.800003,-14.7,73.220001,1729426227862.0,0.0
-5.142176,-6.910471,4.486543,-87.919998,-12.46,92.68,1729426227881.0,0.0
-6.513263,-14.486149,5.405386,-75.809998,-20.16,78.610001,1729426227901.0,0.0
-7.51107,-20.317457,6.206983,-45.849998,-11.83,38.43,1729426227921.0,0.0
-7.094719,-19.609182,6.491727,1.68,-10.22,-2.31,1729426227942.0,0.0
-5.245068,-12.483356,6.24766,60.130001,-0.84,-44.59,1729426227963.0,0.0
-3.488736,-7.700103,5.723632,81.340004,3.71,-60.619999,1729426227982.0,0.0
-4.510471,-6.441479,5.395815,69.720001,7.0,-69.370003,1729426228001.0,0.0
-5.010571,-7.302894,6.855437,50.75,0.14,-87.639999,1729426228023.0,0.0
-3.115455,-4.333402,5.180461,65.940002,6.3,-86.379997,1729426228043.0,0.0
-3.156133,-0.026321,6.374479,58.240002,13.86,-69.090004,1729426228062.0,0.0
-3.337988,3.125026,5.558527,20.58,12.95,-37.380001,1729426228081.0,0.0
-5.355137,0.818345,6.56112,-11.76,10.57,2.59,1729426228103.0,0.0
-7.144968,-2.40718,5.264209,-49.560001,7.42,8.61,1729426228121.0,0.0
-4.048656,-1.222732,5.919843,-23.940001,-2.73,23.870001,1729426228145.0,0.0
-1.825724,-0.320638,6.570691,3.71,1.26,40.389999,1729426228171.0,0.0
-2.991028,-2.088934,5.486742,-14.7,11.62,63.349998,1729426228181.0,0.0
-3.790231,-6.290731,5.271388,-32.619999,10.36,77.910004,1729426228201.0,0.0
-5.812167,-14.026726,6.594619,-18.690001,11.48,68.809998,1729426228223.0,0.0
-6.929615,-18.903299,7.161718,-4.2,18.41,27.16,1729426228243.0,0.0
-6.407979,-17.63271,7.77428,44.799999,15.4,-14.35,1729426228263.0,0.0
-3.957729,-10.459028,8.087741,118.090004,17.99,-40.25,1729426228282.0,0.0
-4.053442,-6.683154,6.786045,114.029999,22.68,-55.790001,1729426228301.0,0.0
-4.582255,-6.558727,6.01077,70.07,8.82,-72.379997,1729426228321.0,0.0
-3.26381,-4.039084,4.532006,54.18,8.26,-71.050003,1729426228343.0,0.0
-2.766103,0.174676,5.343173,44.59,14.49,-62.650002,1729426228361.0,0.0
-1.485943,3.268596,5.659025,-1.12,10.5,-30.309999,1729426228383.0,0.0
-2.914458,1.339981,6.606583,-31.43,9.52,11.97,1729426228402.0,0.0
-7.197611,-2.656033,5.259424,-67.690002,5.04,29.33,1729426228422.0,0.0
-5.938986,-2.11047,5.479564,-30.73,6.23,41.439999,1729426228443.0,0.0
-3.495914,-1.282553,6.168696,-7.07,4.48,51.66,1729426228462.0,0.0
-3.433701,-2.352145,5.300103,-35.700001,11.9,69.300003,1729426228481.0,0.0
-4.115655,-5.733203,4.584648,-58.099998,8.61,88.199997,1729426228502.0,0.0
-7.592427,-15.14896,4.742575,-49.349998,8.05,74.760002,1729426228522.0,0.0
-8.571091,-18.482161,6.618547,-6.79,16.030001,31.780001,1729426228544.0,0.0
-8.427521,-17.135004,9.090333,61.529999,17.01,-2.59,1729426228562.0,0.0
-6.80758,-10.356135,8.616554,103.040001,12.18,-51.52,1729426228582.0,0.0
-4.771288,-4.776074,6.56112,110.32,7.49,-62.23,1729426228603.0,0.0
-5.802595,-4.694718,6.209375,76.790001,3.15,-69.090004,1729426228622.0,0.0
-5.192425,-3.816552,5.599205,48.299999,-8.26,-85.400002,1729426228652.0,0.0
-3.105884,-2.565106,5.991628,65.239998,1.82,-78.050003,1729426228663.0,0.0
-3.9673,0.22014,7.67139,43.889999,9.73,-67.480003,1729426228681.0,0.0
-2.658426,3.548556,7.121039,10.08,5.67,-41.23,1729426228701.0,0.0
-4.989035,-0.196211,6.364908,-50.82,-4.9,13.09,1729426228721.0,0.0
-6.977471,-1.792224,5.295317,-61.740002,-8.4,28.91,1729426228744.0,0.0
-3.871587,-0.51685,6.759724,-22.889999,-10.15,44.869999,1729426228762.0,0.0
-2.95035,-0.777667,6.285945,-34.93,-8.26,55.23,1729426228781.0,0.0
-3.85723,-4.252046,6.30748,-56.630001,-8.33,78.68,1729426228801.0,0.0
-5.534599,-11.028521,6.628119,-50.189999,-13.79,83.090004,1729426228821.0,0.0
-8.003991,-17.202002,7.293324,-25.41,-9.45,47.18,1729426228846.0,0.0
-7.592427,-15.974483,9.279366,10.15,-11.62,11.69,1729426228862.0,0.0
-6.711867,-11.126624,9.020942,63.77,-19.040001,-30.309999,1729426228887.0,0.0
-4.072584,-4.443472,7.032506,68.669998,-16.379999,-53.619999,1729426228901.0,0.0
-5.003392,-3.960121,5.87438,35.630001,-16.52,-46.130001,1729426228922.0,0.0
-5.584848,-5.13739,4.299902,-0.98,-23.870001,-64.75,1729426228957.0,0.0
-3.302095,-4.21376,5.094319,32.689999,-11.83,-65.169998,1729426228961.0,0.0
-4.058227,-1.445265,6.680761,42.0,1.12,-59.709999,1729426228981.0,0.0
-3.299703,1.306481,6.963113,19.67,0.07,-37.52,1729426229001.0,0.0
-2.09372,2.522035,6.632904,-22.75,-4.2,-13.440001,1729426229021.0,0.0
-5.871986,-2.163112,5.02732,-57.959999,-5.81,21.700001,1729426229042.0,0.0
-5.166104,-1.533799,5.443672,-62.439999,-0.7,44.170002,1729426229063.0,0.0
-2.612962,-1.356731,6.56112,-53.830002,-1.68,55.439999,1729426229082.0,0.0
-3.072384,-2.909672,5.441278,-87.080002,6.79,69.160004,1729426229100.0,0.0
-3.964907,-6.752545,5.125426,-96.949997,6.58,87.57,1729426229121.0,0.0
-6.379266,-14.75893,4.876573,-72.590004,13.09,68.809998,1729426229142.0,0.0
-7.795816,-17.647066,6.704689,-27.299999,25.620001,33.110001,1729426229161.0,0.0
-8.578269,-17.58964,8.599805,56.279999,23.24,2.17,1729426229181.0,0.0
-6.979864,-9.982857,8.226524,102.129997,16.66,-48.439999,1729426229201.0,0.0
-4.898108,-4.414758,7.21436,108.57,10.57,-52.779999,1729426229220.0,0.0
-6.206983,-5.02732,6.393622,58.310001,2.8,-60.27,1729426229242.0,0.0
-5.546563,-6.233303,7.216753,22.889999,-17.219999,-82.669998,1729426229260.0,0.0
-2.758924,-3.98405,6.680761,44.59,-7.56,-70.840004,1729426229280.0,0.0
-3.079563,0.105284,6.235696,27.16,-2.17,-64.68,1729426229301.0,0.0
-2.11047,3.515057,6.508478,-2.31,-3.71,-34.09,1729426229321.0,0.0
-3.069991,1.718047,6.075377,-38.220001,-6.65,4.69,1729426229342.0,0.0
-5.974878,-2.462214,4.996214,-66.43,-10.92,22.960001,1729426229363.0,0.0
-2.715853,-1.447658,7.874779,-16.1,-8.96,38.009998,1729426229382.0,0.0
-2.794817,-1.543371,7.829315,3.22,0.56,54.740002,1729426229403.0,0.0
-3.531806,-2.79721,7.23111,-18.83,-0.35,85.610001,1729426229421.0,0.0
-4.869394,-9.157332,7.240681,-30.73,-3.99,95.620003,1729426229444.0,0.0
-8.973085,-16.797615,4.311867,-41.02,-11.06,56.700001,1729426229461.0,0.0
-8.159525,-19.219151,7.666604,28.139999,-6.44,18.059999,1729426229481.0,0.0
-6.630512,-11.820543,7.877172,76.300003,0.98,-42.0,1729426229500.0,0.0
-4.539185,-3.412165,6.915257,95.199997,10.43,-53.200001,1729426229532.0,0.0
-5.522634,-2.799603,5.766702,54.670002,6.86,-52.43,1729426229546.0,0.0
-5.503492,-5.419744,6.568298,27.790001,-1.54,-68.389999,1729426229562.0,0.0
-4.046263,-4.570292,6.400801,34.860001,-1.19,-76.370003,1729426229581.0,0.0
-2.955136,-0.868595,7.523034,56.349998,4.9,-53.900002,1729426229601.0,0.0
-3.756732,1.435694,7.307681,28.280001,0.21,-35.139999,1729426229622.0,0.0
-3.089134,2.012364,6.250053,-25.9,-4.9,-14.77,1729426229644.0,0.0
-4.132405,-0.401994,5.733203,-54.880001,-8.26,18.83,1729426229663.0,0.0
-5.465207,-3.069991,6.539584,-50.68,-7.91,31.01,1729426229681.0,0.0
-2.878566,-2.385644,7.728817,-28.559999,-6.51,40.040001,1729426229702.0,0.0
-2.699104,-3.017349,5.754738,-51.66,-3.43,66.709999,1729426229721.0,0.0
-3.720839,-7.707282,6.21416,-49.77,-2.59,77.139999,1729426229744.0,0.0
-7.171289,-12.641282,5.134997,-36.82,-5.6,60.900002,1729426229761.0,0.0
-8.51127,-14.883357,7.865208,9.87,-6.51,34.580002,1729426229781.0,0.0
-7.436893,-12.157932,9.06162,51.029999,-10.92,-12.25,1729426229802.0,0.0
-4.888536,-5.613562,8.350951,63.420002,-5.6,-47.110001,1729426229821.0,0.0
-4.63729,-4.194618,6.716653,32.689999,-4.55,-46.900002,1729426229847.0,0.0
-4.883751,-5.867201,5.979663,1.47,-5.74,-60.549999,1729426229862.0,0.0
-3.237489,-5.821737,5.65424,19.460001,1.05,-68.25,1729426229881.0,0.0
-3.177669,-4.096512,7.530212,47.670002,12.11,-73.290001,1729426229901.0,0.0
-2.629712,-0.418744,8.748159,57.540001,17.780001,-57.260002,1729426229922.0,0.0
-1.562513,3.046063,8.226524,33.740002,17.15,-32.27,1729426229943.0,0.0
-2.270789,2.328217,7.599605,-7.35,10.08,6.37,1729426229961.0,0.0
-5.173282,-0.799203,6.372087,-52.220001,2.24,32.130001,1729426229981.0,0.0
-3.929015,-1.222732,6.530013,-34.650002,1.54,48.509998,1729426230002.0,0.0
-2.364109,-0.681954,6.563512,-21.77,8.61,62.09,1729426230021.0,0.0
-4.627719,-6.266802,6.400801,-33.459999,10.5,82.25,1729426230043.0,0.0
-6.74776,-11.980864,7.111469,-10.5,7.21,79.660004,1729426230061.0,0.0
-8.729016,-15.3691,7.79103,15.26,11.76,34.23,1729426230082.0,0.0
-9.236296,-12.990634,8.236095,40.950001,6.65,-5.53,1729426230101.0,0.0
-6.443871,-7.183254,7.817351,66.919998,6.65,-43.330002,1729426230121.0,0.0
-5.290531,-3.885944,6.238089,54.040001,1.19,-55.650002,1729426230142.0,0.0
-5.982057,-5.319244,5.465207,24.57,-0.7,-69.019997,1729426230161.0,0.0
-5.304887,-6.142376,5.056034,17.780001,1.54,-82.110001,1729426230182.0,0.0
-4.299902,-3.866802,6.85783,41.02,5.53,-88.059998,1729426230209.0,0.0
-3.622734,0.387637,7.008578,54.389999,3.85,-72.590004,1729426230222.0,0.0
-3.062813,3.672983,5.436492,42.490002,7.63,-43.75,1729426230243.0,0.0
-3.103491,3.400201,6.252446,10.01,9.73,-10.78,1729426230262.0,0.0
-4.838287,-0.337388,6.551548,-38.779999,7.63,7.0,1729426230281.0,0.0
-5.905487,-1.854438,6.070591,-54.529999,5.88,21.559999,1729426230301.0,0.0
-4.015156,-0.504886,7.142576,-28.700001,4.55,48.720001,1729426230323.0,0.0
-3.962514,-1.4668,8.092526,-41.650002,7.56,63.279999,1729426230353.0,0.0
-6.355337,-9.753145,8.889337,-74.199997,-4.48,72.169998,1729426230361.0,0.0
-6.575477,-14.455042,8.29113,-57.540001,-19.879999,48.369999,1729426230382.0,0.0
-7.513463,-15.421742,7.085148,-27.860001,-18.059999,6.86,1729426230401.0,0.0
-5.702096,-9.468399,6.757331,30.380001,-10.57,-15.26,1729426230421.0,0.0
-4.515256,-4.867002,6.752545,51.450001,3.08,-41.23,1729426230453.0,0.0
-5.735595,-5.197211,5.627919,28.42,8.96,-61.880001,1729426230462.0,0.0
-4.883751,-5.352744,7.728817,17.85,1.96,-73.919998,1729426230483.0,0.0
-3.751946,-3.002992,9.06162,28.0,-3.08,-65.590004,1729426230502.0,0.0
-3.17049,-0.349352,8.16431,12.11,-8.19,-46.759998,1729426230523.0,0.0
-3.739982,0.789631,6.063413,-28.07,-16.17,-17.710001,1729426230543.0,0.0
-4.345366,-0.124427,6.45105,-50.540001,-21.629999,5.39,1729426230562.0,0.0
-5.881558,-2.038685,6.218946,-62.93,-22.540001,17.01,1729426230583.0,0.0
-4.082155,0.825524,7.326823,-45.849998,-24.639999,37.52,1729426230603.0,0.0
-2.014757,0.823131,8.410772,-50.470001,-25.129999,63.349998,1729426230623.0,0.0
-2.713461,-2.883351,6.125626,-96.110001,-25.27,99.540001,1729426230645.0,0.0
-4.795217,-6.970293,5.536992,-98.769997,-29.469999,112.489998,1729426230663.0,0.0
-6.786045,-15.182461,7.661818,-67.900002,-29.540001,93.449997,1729426230683.0,0.0
-8.831908,-19.546967,7.317252,-47.459999,-33.110001,29.75,1729426230703.0,0.0
-7.111469,-11.62194,7.051648,41.580002,-20.719999,0.7,1729426230723.0,0.0
-3.84048,-5.513064,6.474977,81.340004,-10.99,-25.200001,1729426230745.0,0.0
-5.359922,-6.407979,5.630312,66.080002,-1.89,-46.830002,1729426230763.0,0.0
-4.199404,-5.850451,5.453243,54.18,2.87,-62.93,1729426230783.0,0.0
-3.773481,-4.85743,7.13779,52.009998,12.11,-67.970001,1729426230803.0,0.0
-3.39063,-2.165504,7.771888,44.66,13.86,-60.619999,1729426230823.0,0.0
-2.646462,-0.232104,6.826723,16.1,8.89,-46.549999,1729426230849.0,0.0
-2.876173,0.294317,5.510671,-5.39,8.05,-21.0,1729426230863.0,0.0
-3.089134,-0.502493,5.4006,-18.059999,8.54,2.17,1729426230884.0,0.0
-4.438686,-3.259024,5.659025,-22.75,13.02,14.98,1729426230903.0,0.0
-4.709075,-3.479164,6.106483,-14.35,16.73,19.460001,1729426230928.0,0.0
-2.787638,-1.086342,7.51107,12.6,12.6,45.849998,1729426230945.0,0.0
-3.778267,-4.517649,8.195417,-4.06,14.42,59.990002,1729426230963.0,0.0
-6.338587,-9.98525,7.484749,-53.27,-6.37,64.190002,1729426230983.0,0.0
-7.762317,-15.804593,7.855636,-26.18,-8.89,34.93,1729426231003.0,0.0
-7.953743,-14.206188,6.54437,9.45,-6.16,-16.799999,1729426231024.0,0.0
-5.130211,-6.812366,6.096912,76.230003,2.1,-32.689999,1729426231047.0,0.0
-4.34058,-4.890929,5.804988,89.040001,12.6,-56.77,1729426231064.0,0.0
-4.682754,-5.575277,5.580062,69.580002,17.57,-73.57,1729426231083.0,0.0
-4.474578,-3.684947,7.769495,62.16,20.58,-70.559998,1729426231103.0,0.0
-3.850052,-2.340181,8.575876,32.970001,16.799999,-59.5,1729426231123.0,0.0
-2.70389,-0.648455,7.372287,-23.17,5.18,-49.420002,1729426231146.0,0.0
-2.727818,-1.478764,6.15434,-55.510002,-1.12,-20.370001,1729426231164.0,0.0
-3.029313,-1.634298,4.922036,-63.279999,1.75,-8.68,1729426231182.0,0.0
-4.378866,-2.916851,4.910072,-34.720001,9.45,9.1,1729426231202.0,0.0
-5.711668,-3.433701,5.618347,-9.87,18.34,11.62,1729426231224.0,0.0
-3.421736,-1.674976,7.987241,4.27,15.4,22.049999,1729426231246.0,0.0
-1.89033,-1.153341,8.123632,-10.08,16.379999,42.630001,1729426231262.0,0.0
-2.938386,-2.201397,7.582855,-38.150002,14.35,66.919998,1729426231283.0,0.0
-7.458428,-9.602397,7.903493,-55.16,4.62,81.550003,1729426231303.0,0.0
-8.707481,-14.816358,7.956135,-48.860001,-3.36,27.09,1729426231396.0,0.0
-8.16431,-12.454641,7.795816,-12.88,-3.08,-4.62,1729426231406.0,0.0
-6.082555,-7.9681,8.049455,42.77,-5.74,-30.17,1729426231409.0,0.0
-3.957729,-4.220939,7.164111,53.900002,-4.2,-45.639999,1729426231411.0,0.0
-3.986443,-3.294917,6.539584,38.639999,-0.91,-38.5,1729426231412.0,0.0
-4.37408,-4.335794,6.647261,9.03,-0.21,-41.720001,1729426231422.0,0.0
-4.12044,-4.354938,8.176274,-12.11,-3.08,-42.560001,1729426231444.0,0.0
-3.244668,-4.208975,7.84128,-29.120001,-12.39,-38.43,1729426231463.0,0.0
-2.691926,-3.192025,6.333801,-37.310001,-15.26,-29.190001,1729426231482.0,0.0
-3.005385,-1.337588,4.809574,-23.030001,-8.96,-2.03,1729426231502.0,0.0
-4.534399,-2.512464,4.699504,-13.79,1.68,7.84,1729426231523.0,0.0
-6.951149,-4.536791,5.201996,-17.99,5.11,7.84,1729426231545.0,0.0
-5.383851,-4.309474,7.946564,3.5,0.91,17.57,1729426231564.0,0.0
-2.902494,-0.361316,7.793423,0.91,-2.03,36.189999,1729426231582.0,0.0
-3.412165,-1.122234,8.061419,-24.780001,-0.98,64.959999,1729426231602.0,0.0
-4.95075,-6.099305,7.427321,-58.450001,-21.700001,72.169998,1729426231622.0,0.0
-7.164111,-13.835299,7.910671,-60.34,-16.940001,51.240002,1729426231646.0,0.0
-5.469993,-14.167902,6.855437,-52.779999,-26.530001,-8.26,1729426231663.0,0.0
-3.251846,-9.195618,5.864808,11.27,-20.16,-20.790001,1729426231682.0,0.0
-3.424129,-5.374279,5.362316,50.82,-5.6,-27.23,1729426231703.0,0.0
-5.386244,-5.898308,4.601398,38.779999,-2.66,-40.740002,1729426231723.0,0.0
-5.156533,-5.82413,4.63729,43.470001,0.7,-48.720001,1729426231746.0,0.0
-4.280759,-3.555735,6.709475,42.0,0.7,-51.52,1729426231775.0,0.0
-3.821337,-2.292324,7.283752,12.88,-2.45,-32.689999,1729426231782.0,0.0
-3.342773,-0.789631,5.553742,-38.009998,-6.65,-19.809999,1729426231802.0,0.0
-4.835894,-1.789831,6.412765,-52.639999,-8.4,10.22,1729426231822.0,0.0
-6.89133,-3.555735,5.611169,-66.360001,-8.68,11.9,1729426231847.0,0.0
-4.532006,-1.964507,6.817152,-41.02,-14.84,27.51,1729426231862.0,0.0
-2.510071,-1.744368,7.211967,-33.740002,-14.14,39.970001,1729426231884.0,0.0
-3.096312,-4.496114,6.407979,-58.52,-8.4,52.849998,1729426231902.0,0.0
-4.412365,-9.446864,6.776474,-63.139999,-17.01,62.580002,1729426231922.0,0.0
-6.235696,-15.46242,7.329216,-30.450001,-18.969999,34.299999,1729426231954.0,0.0
-5.249853,-12.220145,6.211767,4.13,-8.19,-9.45,1729426231962.0,0.0
-2.87378,-7.32443,6.087341,60.760002,-8.68,-25.48,1729426231982.0,0.0
-2.773281,-4.998606,5.869594,59.290001,1.82,-34.439999,1729426232003.0,0.0
-4.393222,-6.003592,5.268995,28.210001,1.89,-40.880001,1729426232022.0,0.0
-4.500899,-7.460821,5.915058,13.09,0.63,-51.52,1729426232043.0,0.0
-4.09412,-4.929214,7.15454,14.49,-3.64,-56.07,1729426232063.0,0.0
-3.524628,-3.457629,7.401,10.08,-5.74,-42.77,1729426232082.0,0.0
-3.014957,-0.87338,5.481956,-24.639999,-9.8,-29.540001,1729426232103.0,0.0
-3.924229,-0.636491,5.852845,-21.35,-6.09,5.95,1729426232122.0,0.0
-6.032306,-3.24706,6.001199,-20.860001,3.57,6.09,1729426232145.0,0.0
-4.656433,-2.677568,6.278766,-2.31,8.89,11.27,1729426232163.0,0.0
-2.134398,-2.053042,7.546963,8.96,12.04,26.040001,1729426232183.0,0.0
-2.103291,-3.20399,6.955935,-13.23,16.52,41.720001,1729426232202.0,0.0
-3.426522,-6.393622,6.82433,-22.960001,15.82,60.549999,1729426232222.0,0.0
-4.570292,-10.817951,7.312466,-4.76,7.77,57.68,1729426232245.0,0.0
-5.522634,-13.832907,7.264609,32.830002,11.2,26.530001,1729426232262.0,0.0
-5.869594,-12.028719,6.673582,54.110001,18.620001,1.61,1729426232283.0,0.0
-4.776074,-8.508877,6.276374,56.77,8.4,-14.63,1729426232302.0,0.0
-3.955336,-5.766702,6.668797,50.68,12.81,-27.370001,1729426232322.0,0.0
-5.785845,-6.4343,6.508478,21.49,8.75,-41.23,1729426232344.0,0.0
-5.484349,-6.625726,6.568298,16.940001,3.92,-44.450001,1729426232362.0,0.0
-4.821537,-6.168696,7.082755,9.87,-1.12,-57.610001,1729426232382.0,0.0
-4.039084,-3.845266,7.147361,6.58,-7.77,-52.360001,1729426232401.0,0.0
-3.608376,-0.997807,6.008378,1.96,-5.18,-39.34,1729426232423.0,0.0
-4.165904,0.504886,6.24766,-6.37,-1.47,-16.59,1729426232445.0,0.0
-5.536992,-1.270589,5.666204,-29.960001,3.71,-3.29,1729426232462.0,0.0
-4.185047,-1.409373,6.532406,-48.02,-0.07,3.92,1729426232482.0,0.0
-2.189433,-1.581656,7.549356,-40.950001,-6.16,29.68,1729426232501.0,0.0
-2.333002,-3.125026,7.372287,-43.119999,-0.98,47.670002,1729426232523.0,0.0
-3.945765,-7.592427,7.640282,-48.580002,-4.27,62.720001,1729426232544.0,0.0
-5.288138,-13.971692,7.188039,-38.080002,-14.77,42.91,1729426232562.0,0.0
-5.659025,-16.139589,6.683154,-0.49,-8.68,10.64,1729426232582.0,0.0
-5.364708,-12.662818,7.087541,37.52,-4.13,-13.3,1729426232603.0,0.0
-3.235096,-6.673582,7.283752,67.340004,-6.51,-24.15,1729426232623.0,0.0
-4.086941,-5.000999,7.037291,57.400002,1.47,-28.42,1729426232645.0,0.0
-4.139583,-6.003592,5.685347,-2.24,-8.05,-49.07,1729426232663.0,0.0
-3.885944,-6.273981,5.737988,7.84,-3.71,-47.810001,1729426232682.0,0.0
-3.711268,-3.381058,6.601797,24.5,-1.96,-43.400002,1729426232702.0,0.0
-3.012564,-0.545564,6.271588,24.710001,-0.49,-24.99,1729426232723.0,0.0
-3.641876,0.964308,6.312266,8.05,3.08,1.4,1729426232743.0,0.0
-5.692525,-1.51705,6.163911,-14.84,7.7,18.48,1729426232762.0,0.0
-5.058427,-2.017149,7.077969,-36.470001,3.36,23.450001,1729426232782.0,0.0
-2.833102,-1.619941,8.118847,-31.639999,-1.47,43.75,1729426232803.0,0.0
-2.928815,-2.739782,6.929615,-49.560001,1.05,56.139999,1729426232822.0,0.0
-3.806981,-5.642276,6.398407,-59.920002,-5.6,69.510002,1729426232848.0,0.0
-4.342973,-8.035098,6.252446,-44.029999,-5.32,64.330002,1729426232862.0,0.0
-4.74736,-6.463014,6.336195,-19.460001,4.41,63.84,1729426232882.0,0.0
-5.383851,-5.12782,7.118648,-24.639999,3.22,66.849998,1729426232902.0,0.0
-5.769095,-4.694718,7.334002,-68.949997,-8.4,63.07,1729426232921.0,0.0
-5.761917,-5.635098,6.656832,-128.869995,-20.719999,61.25,1729426232943.0,0.0
-5.45085,-7.15454,5.369494,-193.339996,-28.84,56.349998,1729426232963.0,0.0
-6.60419,-8.073383,5.178068,-267.470001,-25.76,48.509998,1729426232981.0,0.0
-7.530212,-9.020942,3.115455,-368.410004,-32.549999,21.84,1729426233003.0,0.0
-6.929615,-10.49492,1.909473,-396.410004,-49.700001,6.58,1729426233023.0,0.0
-6.206983,-12.497713,2.249253,-410.549988,-65.309998,-20.23,1729426233043.0,0.0
-6.118448,-11.562119,0.756132,-402.920013,-59.220001,-41.16,1729426233073.0,0.0
-4.053442,-14.574683,-5.726025,-251.930008,-29.4,-61.740002,1729426233081.0,0.0
-2.347359,-15.189637,-5.522634,-119.489998,10.5,-92.050003,1729426233103.0,0.0
-1.998007,-12.612568,-4.929214,-26.32,52.709999,-84.980003,1729426233123.0,0.0
-1.914258,-10.035499,-4.302295,59.57,84.559998,-78.330002,1729426233144.0,0.0
-1.775474,-8.114061,-2.952743,95.480003,104.090004,-67.550003,1729426233162.0,0.0
-1.57687,-6.920043,-1.146162,89.529999,103.459999,-55.23,1729426233182.0,0.0
-1.397408,-5.429315,-0.167498,56.0,98.980003,-44.029999,1729426233203.0,0.0
-1.256232,-5.046463,0.684347,37.450001,89.949997,-30.380001,1729426233222.0,0.0
-1.330409,-5.254639,1.196411,38.779999,73.080002,-14.28,1729426233244.0,0.0
-1.316052,-5.682954,3.223132,60.689999,46.689999,1.54,1729426233262.0,0.0
-1.689333,-3.929015,3.601198,114.309998,21.07,34.299999,1729426233281.0,0.0
-1.335195,-2.18704,5.264209,130.339996,-1.89,54.32,1729426233303.0,0.0
-2.579463,-2.9336,4.493721,76.230003,-11.9,82.739998,1729426233323.0,0.0
-5.709275,-7.630712,4.630112,-54.040001,-15.190001,96.040001,1729426233343.0,0.0
-9.025726,-11.375479,1.368695,-168.419998,-19.25,77.980003,1729426233362.0,0.0
-11.767902,-18.068203,-2.26361,-219.029999,-11.69,59.360001,1729426233382.0,0.0
-10.346564,-20.102102,-7.233503,-198.240005,0.63,-5.67,1729426233401.0,0.0
-7.168896,-16.826328,-7.200003,-44.799999,13.23,-33.670002,1729426233422.0,0.0
-5.405386,-13.019348,-3.505485,106.050003,28.91,-55.23,1729426233443.0,0.0
-4.788038,-9.994821,-0.756132,129.5,58.310001,-73.5,1729426233461.0,0.0
-3.87398,-7.45125,0.303888,108.220001,58.52,-72.449997,1729426233481.0,0.0
-2.754139,-6.67119,1.962115,64.540001,55.16,-70.139999,1729426233503.0,0.0
-0.756132,-6.343372,3.079563,69.370003,17.219999,-64.610001,1729426233521.0,0.0
0.442672,-3.469593,3.98405,69.090004,3.01,-38.009998,1729426233543.0,0.0
0.653241,-1.07677,5.307281,33.459999,-0.98,-14.49,1729426233562.0,0.0
-0.478565,-1.411765,5.594419,-34.299999,-15.190001,14.91,1729426233581.0,0.0
-1.866402,-2.165504,3.443272,-122.779999,-22.82,38.080002,1729426233601.0,0.0
-2.658426,-3.761517,0.452243,-162.539993,-36.68,62.510002,1729426233622.0,0.0
-2.909672,-6.472585,-3.809374,-159.600006,-59.849998,77.419998,1729426233643.0,0.0
-5.757132,-12.528819,-8.4347,-112.699997,-24.57,73.57,1729426233662.0,0.0
-9.293723,-17.469997,-7.501499,-48.299999,19.18,67.129997,1729426233683.0,0.0
-9.506684,-16.945971,-8.346166,22.68,42.139999,35.07,1729426233701.0,0.0
-7.369894,-14.285151,-7.180861,101.919998,39.130001,6.93,1729426233721.0,0.0
-6.13759,-13.270595,-1.737189,163.309998,45.709999,-32.060001,1729426233743.0,0.0
-5.869594,-10.372886,0.375673,152.320007,67.550003,-47.740002,1729426233762.0,0.0
-5.249853,-8.233703,1.596013,103.25,76.300003,-56.98,1729426233782.0,0.0
-4.649254,-7.334002,2.902494,47.040001,59.779999,-65.730003,1729426233802.0,0.0
-2.756532,-7.936993,1.87358,63.07,29.540001,-60.27,1729426233822.0,0.0
-0.870987,-6.07777,2.938386,71.400002,11.83,-56.560001,1729426233849.0,0.0
-0.574277,-3.256632,4.661219,72.800003,12.67,-31.639999,1729426233861.0,0.0
-0.275175,-1.251446,5.62074,57.68,2.1,-6.3,1729426233881.0,0.0
-0.954736,-1.306481,5.788238,15.190001,-13.65,30.24,1729426233901.0,0.0
-3.117848,-2.024328,4.56072,-36.119999,-11.69,59.290001,1729426233930.0,0.0
-4.23051,-3.979264,4.134798,-54.110001,-30.450001,77.489998,1729426233942.0,0.0
-4.493721,-6.565905,1.986043,-68.669998,-59.990002,88.970001,1729426233962.0,0.0
-7.393822,-12.753745,0.07657,-137.410004,-59.990002,74.830002,1729426233983.0,0.0
-9.075976,-14.306686,-5.178068,-189.139999,-27.23,63.98,1729426234002.0,0.0
-9.454042,-17.697317,-9.863215,-200.410004,-12.88,24.710001,1729426234021.0,0.0
-6.695118,-18.556339,-11.253445,-119.07,6.58,-17.92,1729426234045.0,0.0
-4.316652,-16.560726,-5.704489,66.709999,21.559999,-34.369999,1729426234062.0,0.0
-4.783253,-13.069597,0.569492,215.809998,51.380001,-43.400002,1729426234082.0,0.0
-5.833702,-8.195417,1.794617,190.539993,82.040001,-50.959999,1729426234103.0,0.0
-5.682954,-5.52742,1.122234,109.900002,71.959999,-54.110001,1729426234123.0,0.0
-4.388437,-4.945964,1.875973,19.6,47.25,-66.080002,1729426234144.0,0.0
-2.323431,-6.582655,1.402194,7.21,16.73,-62.23,1729426234162.0,0.0
-0.902094,-5.292924,2.847459,3.43,4.27,-53.900002,1729426234182.0,0.0
