acc_x,acc_y,acc_z,gyr_x,gyr_y,gyr_z,timestamp,label
-6.829116,-6.400801,-10.157533,-403.480011,-38.43,-52.709999,1729431620613.0,0.0
-6.503692,-4.127619,-11.810973,-409.149994,-18.620001,-45.290001,1729431620633.0,0.0
-4.754539,-3.634698,-11.535798,-313.110016,11.9,-39.970001,1729431620654.0,0.0
-4.448257,-3.555735,-11.669796,-227.990005,23.030001,-2.8,1729431620672.0,0.0
-3.682554,-3.299703,-10.131211,-66.989998,39.900002,14.91,1729431620694.0,0.0
-1.787439,-1.071985,-7.999206,44.59,41.860001,24.360001,1729431620713.0,0.0
-0.602991,-3.275774,-6.71426,83.790001,27.93,35.630001,1729431620736.0,0.0
0.368495,-5.395815,-7.822137,81.480003,3.99,28.49,1729431620753.0,0.0
0.289532,-9.128618,-9.085547,128.729996,-19.040001,21.139999,1729431620773.0,0.0
-0.856631,-10.004392,-10.188639,291.899994,-32.759998,24.92,1729431620795.0,0.0
-1.840081,-7.757531,-14.285151,561.049988,-47.459999,44.450001,1729431620814.0,0.0
-3.35713,-4.45065,-15.349957,802.900024,-25.27,80.779999,1729431620834.0,0.0
-6.601797,-2.773281,-11.413764,897.820007,43.189999,122.919998,1729431620855.0,0.0
-8.846266,-1.292124,-3.469593,784.77002,57.400002,123.550003,1729431620873.0,0.0
-8.207381,-2.335395,2.519642,519.330017,27.58,91.559998,1729431620900.0,0.0
-6.618547,-7.353144,3.26381,220.080002,-5.46,40.25,1729431620914.0,0.0
-5.20439,-10.671989,1.249053,22.4,-16.59,-5.67,1729431620935.0,0.0
-4.268795,-10.987842,-0.495314,-60.27,-7.84,-24.780001,1729431620955.0,0.0
-3.799802,-9.705289,-1.543371,-91.559998,1.33,-34.23,1729431620974.0,0.0
-3.620341,-9.339187,-1.887937,-102.900002,4.76,-30.73,1729431621005.0,0.0
-3.783052,-9.29133,-2.340181,-81.830002,14.42,-22.4,1729431621014.0,0.0
-4.223332,-8.941978,-2.344966,-47.25,19.950001,-18.129999,1729431621034.0,0.0
-4.579862,-8.408379,-2.359323,-14.84,24.5,-15.68,1729431621054.0,0.0
-5.103891,-8.429914,-1.923829,1.96,23.940001,-14.35,1729431621074.0,0.0
-5.264209,-9.013763,-1.586441,0.84,19.809999,-16.450001,1729431621095.0,0.0
-5.266603,-9.205189,-1.572084,-9.03,17.85,-23.309999,1729431621114.0,0.0
-5.386244,-8.46102,-1.344766,-27.440001,22.75,-31.5,1729431621136.0,0.0
-5.295317,-8.762517,-1.328017,-77.910004,24.780001,-42.0,1729431621153.0,0.0
-5.06082,-8.755339,-1.919044,-164.779999,22.610001,-64.68,1729431621174.0,0.0
-4.223332,-9.726824,-4.108476,-228.899994,27.299999,-82.809998,1729431621195.0,0.0
-3.120241,-10.41835,-5.833702,-248.990005,33.810001,-85.540001,1729431621214.0,0.0
-2.105684,-10.269995,-7.441679,-219.029999,43.470001,-83.370003,1729431621235.0,0.0
-1.457229,-9.616754,-7.566105,-164.5,57.470001,-74.059998,1729431621254.0,0.0
-1.103091,-8.618947,-7.396214,-114.800003,71.400002,-64.260002,1729431621274.0,0.0
-1.019342,-7.537392,-6.80758,-86.870003,80.150002,-56.98,1729431621296.0,0.0
-0.952343,-6.668797,-6.065805,-87.150002,80.220001,-50.119999,1729431621314.0,0.0
-0.684347,-5.99402,-5.802595,-110.879997,77.419998,-43.189999,1729431621334.0,0.0
-0.394816,-6.041877,-6.539584,-144.199997,74.340004,-31.5,1729431621354.0,0.0
-0.227318,-5.938986,-7.513463,-145.669998,65.800003,-22.26,1729431621374.0,0.0
-0.184247,-5.692525,-8.020741,-131.880005,64.82,-12.6,1729431621394.0,0.0
-0.62692,-5.91745,-8.204988,-108.5,64.330002,-3.15,1729431621413.0,0.0
-1.124627,-5.769095,-7.599605,-85.470001,58.799999,-0.21,1729431621435.0,0.0
-1.505085,-5.422136,-7.121039,-69.860001,49.420002,4.06,1729431621455.0,0.0
-1.986043,-5.493921,-7.219146,-56.560001,42.700001,2.73,1729431621474.0,0.0
-2.648855,-5.740381,-7.398607,-38.709999,36.470001,4.34,1729431621495.0,0.0
-3.156133,-5.589634,-7.345965,-11.9,29.889999,4.97,1729431621514.0,0.0
-3.400201,-5.015356,-7.252645,14.98,21.42,5.67,1729431621535.0,0.0
-3.775874,-4.785645,-6.886543,17.5,15.33,5.04,1729431621554.0,0.0
-4.12044,-5.836094,-6.881758,-4.34,15.05,0.7,1729431621574.0,0.0
-4.156333,-6.056234,-6.867401,-17.5,11.83,-5.25,1729431621595.0,0.0
-3.436093,-5.735595,-7.106683,-12.46,6.16,-9.31,1729431621615.0,0.0
-3.055635,-5.589634,-7.360322,-9.24,5.88,-11.9,1729431621634.0,0.0
-2.835495,-5.972485,-7.647461,-13.440001,7.91,-12.67,1729431621654.0,0.0
-2.088934,-5.742774,-6.912865,-19.460001,11.76,-14.77,1729431621674.0,0.0
-1.191626,-5.608776,-7.269395,-11.48,8.4,-12.81,1729431621694.0,0.0
-0.765703,-5.65424,-8.075776,-11.69,8.05,-12.81,1729431621714.0,0.0
-0.437887,-6.075377,-8.499306,-8.05,10.5,-12.81,1729431621738.0,0.0
0.133998,-5.991628,-8.702696,10.15,7.84,-10.29,1729431621754.0,0.0
0.251246,-5.300103,-8.360522,29.82,5.32,-7.98,1729431621773.0,0.0
-0.026321,-5.419744,-8.049455,43.259998,3.08,-6.51,1729431621805.0,0.0
-0.358923,-5.496314,-8.149954,53.060001,1.96,-6.44,1729431621814.0,0.0
-0.531207,-5.749953,-8.563912,50.049999,-0.7,-4.69,1729431621834.0,0.0
-0.954736,-5.675776,-8.116454,27.299999,3.15,-6.58,1729431621854.0,0.0
-1.028914,-6.001199,-7.88435,14.35,2.1,-7.91,1729431621873.0,0.0
-0.835095,-5.465207,-7.728817,5.95,-1.12,-8.89,1729431621894.0,0.0
-0.794417,-5.52742,-7.88435,-4.76,-3.08,-8.89,1729431621914.0,0.0
-0.909273,-5.584848,-8.157133,-2.24,-3.43,-6.79,1729431621934.0,0.0
-0.885344,-5.642276,-8.492127,-1.54,-3.64,-3.57,1729431621953.0,0.0
-0.918844,-5.745167,-8.480164,-10.92,-0.28,-3.92,1729431621973.0,0.0
-0.547956,-6.116055,-8.611769,-15.26,0.49,-4.55,1729431621995.0,0.0
0.105284,-5.802595,-8.492127,-11.76,0.42,-5.81,1729431622013.0,0.0
0.105284,-5.965307,-8.310273,-13.16,2.52,-6.51,1729431622034.0,0.0
-0.136391,-6.142376,-8.25763,-17.85,3.5,-7.63,1729431622054.0,0.0
-0.004786,-6.233303,-8.408379,-10.5,1.82,-7.98,1729431622074.0,0.0
-0.01675,-6.034698,-8.614161,1.4,1.96,-9.24,1729431622095.0,0.0
-0.136391,-5.804988,-8.614161,5.95,3.78,-8.75,1729431622113.0,0.0
-0.172283,-5.479564,-8.60459,4.69,5.11,-7.98,1729431622133.0,0.0
-0.057428,-5.986843,-8.867801,5.25,5.81,-8.33,1729431622155.0,0.0
-0.09332,-5.663811,-8.733803,14.21,6.16,-5.95,1729431622174.0,0.0
0.009571,-5.436492,-8.355737,19.460001,5.18,-5.81,1729431622196.0,0.0
-0.083749,-5.584848,-8.255238,16.309999,6.86,-4.69,1729431622221.0,0.0
-0.088534,-5.448457,-7.99442,12.39,7.77,-4.13,1729431622234.0,0.0
-0.212961,-5.383851,-7.831708,3.92,7.84,-3.5,1729431622253.0,0.0
-0.454636,-5.630312,-7.862815,-9.52,8.89,-2.94,1729431622275.0,0.0
-0.339781,-6.01077,-7.898707,-11.41,7.35,-2.59,1729431622294.0,0.0
-0.131605,-6.001199,-7.922636,-3.85,5.32,-1.96,1729431622314.0,0.0
-0.090927,-5.618347,-7.946564,0.14,4.2,-1.47,1729431622334.0,0.0
0.071785,-5.699703,-8.109276,-7.21,1.82,0.21,1729431622353.0,0.0
0.035892,-5.946165,-8.245667,-13.02,1.75,-0.42,1729431622374.0,0.0
0.007178,-6.017949,-8.303094,-11.27,0.35,-0.77,1729431622395.0,0.0
-0.086142,-5.979663,-8.346166,-7.35,-0.07,-2.24,1729431622413.0,0.0
-0.062213,-5.895915,-8.525627,-1.47,-0.7,-2.45,1729431622434.0,0.0
-0.215354,-5.919843,-8.77448,3.29,-0.35,-2.03,1729431622453.0,0.0
-0.363709,-5.998806,-9.068797,5.18,1.68,-3.08,1729431622473.0,0.0
-0.174676,-6.025128,-8.9348,13.37,4.2,-3.08,1729431622495.0,0.0
-0.086142,-6.068198,-8.874979,22.469999,6.93,-3.22,1729431622514.0,0.0
-0.308674,-6.04427,-8.602197,22.26,11.69,-5.04,1729431622533.0,0.0
-0.416351,-6.226124,-8.312666,14.91,15.4,-5.6,1729431622554.0,0.0
-0.270389,-6.563512,-8.228917,11.48,16.17,-7.07,1729431622573.0,0.0
-0.215354,-6.396015,-7.836494,12.11,15.89,-8.96,1729431622595.0,0.0
-0.37328,-6.056234,-7.523034,18.41,13.3,-9.1,1729431622613.0,0.0
-0.418744,-6.149554,-7.549356,9.24,10.99,-12.11,1729431622636.0,0.0
-0.48335,-6.309873,-7.635497,-1.89,9.66,-12.67,1729431622653.0,0.0
-0.5001,-5.864808,-7.549356,-5.6,6.93,-13.86,1729431622673.0,0.0
-0.18664,-5.848059,-7.822137,-5.74,0.28,-14.63,1729431622695.0,0.0
-0.260818,-5.742774,-7.743174,-4.2,-1.05,-13.3,1729431622713.0,0.0
-0.4666,-5.788238,-7.310073,-9.94,-2.17,-12.95,1729431622736.0,0.0
-0.452243,-6.295516,-8.200203,-24.290001,-2.38,-15.89,1729431622754.0,0.0
-0.083749,-6.233303,-8.889337,-31.99,-1.61,-17.710001,1729431622773.0,0.0
-0.117248,-5.87438,-9.006584,-9.87,-0.84,-12.11,1729431622794.0,0.0
-0.574277,-5.419744,-8.748159,13.3,5.6,-11.13,1729431622813.0,0.0
-1.01695,-5.381458,-8.362915,21.210001,11.9,-8.33,1729431622833.0,0.0
-0.90688,-5.656632,-8.063812,29.469999,14.28,-5.39,1729431622854.0,0.0
-0.368495,-5.850451,-8.925228,51.310001,11.27,-4.62,1729431622874.0,0.0
-0.011964,-6.025128,-9.592826,74.550003,15.33,-3.5,1729431622894.0,0.0
-0.069392,-6.943972,-10.34178,112.07,27.440001,-1.47,1729431622913.0,0.0
-0.327817,-7.283752,-9.932607,168.910004,44.310001,0.49,1729431622938.0,0.0
-0.435494,-7.307681,-8.319844,223.930008,57.75,1.82,1729431622953.0,0.0
0.026321,-7.135397,-7.140182,249.199997,67.340004,1.33,1729431622974.0,0.0
0.602991,-6.472585,-6.221339,236.110001,70.699997,2.31,1729431622995.0,0.0
1.342373,-7.051648,-5.257031,210.279999,72.870003,5.53,1729431623014.0,0.0
1.957329,-6.695118,-5.273781,181.160004,69.510002,10.08,1729431623034.0,0.0
0.334995,-8.283953,1.026521,176.470001,73.360001,20.16,1729431623054.0,0.0
-1.68694,-10.674382,4.785645,180.039993,33.880001,17.57,1729431623073.0,0.0
-0.978664,-11.284552,2.333002,197.820007,-20.790001,19.389999,1729431623094.0,0.0
2.45025,-5.082355,3.072384,151.690002,-32.130001,20.440001,1729431623113.0,0.0
3.055635,-1.177269,4.476971,-10.99,-38.920002,40.110001,1729431623133.0,0.0
1.588834,-5.522634,0.492921,-203.419998,-72.239998,37.66,1729431623153.0,0.0
0.514457,-11.550155,-3.833302,-228.410004,-87.080002,34.650002,1729431623173.0,0.0
4.022335,-12.815958,-0.818345,-137.199997,-95.830002,38.779999,1729431623194.0,0.0
4.632504,-7.365108,1.411765,-66.919998,-99.889999,37.450001,1729431623213.0,0.0
-0.145962,-5.185246,-0.105284,-111.300003,-110.949997,37.66,1729431623234.0,0.0
-0.22014,-6.628119,-4.041477,-226.940002,-141.399994,23.870001,1729431623253.0,0.0
3.785445,-9.332008,-5.989235,-325.079987,-155.610001,3.85,1729431623274.0,0.0
0.212961,-12.471392,-5.673382,-279.440002,-142.940002,-17.15,1729431623294.0,0.0
-6.288338,-7.721639,-10.274779,-250.110001,-117.110001,-32.549999,1729431623313.0,0.0
-5.668597,-1.596013,-14.526826,-316.399994,-117.459999,-48.720001,1729431623334.0,0.0
-1.875973,-4.309474,-14.636896,-308.420013,-68.949997,-25.059999,1729431623354.0,0.0
-1.306481,-8.896514,-10.643275,-85.75,-22.190001,15.05,1729431623372.0,0.0
-1.615155,-7.252645,-9.765109,42.279999,-24.360001,12.18,1729431623395.0,0.0
-3.613162,0.37328,-10.944772,-58.66,-12.53,-2.45,1729431623413.0,0.0
-1.562513,-1.658226,-12.825529,-142.940002,11.41,4.2,1729431623433.0,0.0
1.107877,-7.331609,-14.155938,-65.449997,32.27,26.110001,1729431623453.0,0.0
-0.306281,-6.233303,-9.669396,59.150002,50.540001,38.57,1729431623473.0,0.0
-0.646062,-3.579663,-8.288737,69.370003,42.490002,21.700001,1729431623495.0,0.0
-0.519243,-6.4343,-8.140383,6.72,46.48,10.22,1729431623513.0,0.0
-0.014357,-7.920243,-6.616155,21.700001,45.5,4.48,1729431623534.0,0.0
0.062213,-5.79063,-5.922236,41.23,29.120001,-2.17,1729431623552.0,0.0
0.253639,-6.427122,-8.149954,-0.14,16.379999,-9.73,1729431623573.0,0.0
0.653241,-6.922436,-9.413363,-10.08,11.13,-18.129999,1729431623597.0,0.0
0.315853,-5.814559,-9.056834,8.12,11.62,-20.370001,1729431623613.0,0.0
-0.189033,-4.070191,-8.707481,21.139999,12.04,-20.51,1729431623633.0,0.0
-0.658026,-2.782853,-8.29113,35.630001,11.69,-9.31,1729431623653.0,0.0
0.138784,-2.617748,-7.216753,33.18,7.63,7.63,1729431623674.0,0.0
0.957129,-6.522834,-6.989435,-47.529999,3.36,12.88,1729431623695.0,0.0
0.617348,-7.142576,-7.848458,-62.299999,-10.71,-0.84,1729431623713.0,0.0
0.59342,-5.503492,-8.595018,-44.029999,-21.139999,-16.799999,1729431623736.0,0.0
0.5001,-4.835894,-8.85823,-44.869999,-23.030001,-23.73,1729431623753.0,0.0
0.765703,-5.075177,-9.602397,-45.849998,-22.120001,-21.77,1729431623773.0,0.0
1.012164,-5.690133,-8.102098,-24.710001,-16.799999,-14.77,1729431623793.0,0.0
-0.229711,-4.381258,-6.750153,-22.049999,-17.360001,-12.88,1729431623813.0,0.0
-2.892922,-7.398607,-6.862615,-81.760002,-19.32,-29.610001,1729431623834.0,0.0
-1.471586,-6.149554,-11.727223,-91.489998,-24.85,-51.240002,1729431623852.0,0.0
-0.31346,-3.553342,-13.11506,-28.210001,-25.549999,-56.490002,1729431623873.0,0.0
-3.996014,-5.290531,-9.934999,9.8,-11.2,-59.080002,1729431623896.0,0.0
-4.871787,-3.900301,-11.547763,3.57,-12.11,-76.93,1729431623913.0,0.0
-3.862016,-1.588834,-9.671788,-4.48,-5.46,-83.650002,1729431623933.0,0.0
-4.189832,0.672383,-10.368099,14.91,-5.67,-61.040001,1729431623954.0,0.0
-2.28036,0.921237,-8.484949,14.98,0.91,-34.580002,1729431623972.0,0.0
-2.06022,-0.72024,-8.848659,-7.28,0.63,-7.91,1729431623994.0,0.0
-1.119841,-1.837688,-10.719845,-20.370001,4.76,7.14,1729431624013.0,0.0
-1.550549,-1.842474,-8.803195,40.110001,12.11,28.35,1729431624033.0,0.0
-0.823131,-2.160719,-9.183653,29.120001,9.52,42.77,1729431624054.0,0.0
0.701097,-4.165904,-9.370294,19.18,16.73,48.09,1729431624074.0,0.0
0.806381,-3.850052,-10.19821,32.549999,21.84,49.490002,1729431624094.0,0.0
1.536192,-3.964907,-8.618947,40.529999,35.349998,61.529999,1729431624112.0,0.0
2.210968,-4.041477,-7.941778,10.22,41.509998,60.900002,1729431624133.0,0.0
1.11027,-12.636496,-3.921836,-0.91,36.049999,56.209999,1729431624152.0,0.0
1.588834,-10.528419,-6.123233,-32.34,10.29,7.77,1729431624172.0,0.0
-1.9669,-11.090734,-5.821737,-56.0,-6.23,-20.09,1729431624195.0,0.0
-0.234497,-8.9683,-8.894121,-74.129997,-24.85,-47.880001,1729431624213.0,0.0
0.751346,-6.45105,-8.585447,12.53,-31.710001,-51.52,1729431624234.0,0.0
-1.864009,-2.823531,-9.166903,33.25,-34.93,-49.420002,1729431624260.0,0.0
-3.335595,-4.706682,-9.896714,-7.63,-33.529999,-52.849998,1729431624273.0,0.0
-4.022335,-4.448257,-11.13859,-31.710001,-31.360001,-65.029999,1729431624295.0,0.0
-4.096512,-2.129612,-11.16491,-23.030001,-24.43,-67.830002,1729431624314.0,0.0
-3.452843,0.612563,-12.045469,23.030001,-16.940001,-45.360001,1729431624332.0,0.0
-1.864009,0.088534,-9.851252,26.880001,-2.66,-17.710001,1729431624352.0,0.0
-1.366302,-1.234696,-9.903893,14.14,10.78,21.210001,1729431624373.0,0.0
-1.007378,-2.854637,-9.253045,42.139999,18.059999,37.66,1729431624394.0,0.0
-1.143769,-1.804188,-8.961121,36.470001,17.5,45.43,1729431624412.0,0.0
-0.449851,-3.742374,-9.32483,8.33,21.84,49.77,1729431624434.0,0.0
0.01675,-3.613162,-10.07139,23.17,24.360001,46.200001,1729431624452.0,0.0
0.363709,-4.632504,-8.786445,55.790001,32.34,60.689999,1729431624473.0,0.0
0.806381,-6.613762,-6.568298,49.0,38.57,56.91,1729431624495.0,0.0
0.323031,-10.267602,-3.897908,16.379999,31.15,45.080002,1729431624512.0,0.0
-0.294317,-13.371094,-4.59422,-33.880001,10.78,4.76,1729431624534.0,0.0
-0.497707,-7.939385,-8.152347,-48.02,-15.05,-27.370001,1729431624553.0,0.0
0.131605,-8.599805,-7.379465,-35.07,-14.21,-36.119999,1729431624572.0,0.0
1.861616,-4.185047,-10.9352,-5.25,-24.710001,-41.369999,1729431624593.0,0.0
-1.887937,-3.974478,-9.059227,23.73,-19.110001,-36.470001,1729431624613.0,0.0
-2.95035,-5.326423,-9.164511,6.44,-20.51,-42.420002,1729431624633.0,0.0
-3.814159,-4.740182,-10.724631,-6.65,-22.049999,-53.34,1729431624652.0,0.0
-3.031706,-3.455236,-10.554741,-8.26,-15.61,-62.23,1729431624673.0,0.0
-2.143969,-0.497707,-10.762917,10.36,-12.95,-43.259998,1729431624693.0,0.0
-1.471586,-1.397408,-10.279566,-17.92,2.31,-29.540001,1729431624712.0,0.0
-1.153341,-2.230111,-11.16491,-26.18,10.08,-12.11,1729431624736.0,0.0
-1.325624,-3.273381,-9.109475,2.52,22.610001,4.06,1729431624753.0,0.0
-1.586441,-2.505285,-8.568698,47.18,25.549999,28.98,1729431624772.0,0.0
-0.217747,-3.278167,-8.779266,40.529999,33.32,41.93,1729431624794.0,0.0
-0.184247,-5.242674,-8.898908,45.360001,36.75,51.029999,1729431624812.0,0.0
0.212961,-3.787838,-9.099905,69.720001,37.66,51.869999,1729431624833.0,0.0
1.146162,-3.081956,-7.439285,34.93,45.220001,51.73,1729431624852.0,0.0
1.282553,-7.972885,-5.953342,-29.120001,45.779999,49.77,1729431624872.0,0.0
1.550549,-12.748959,-5.953342,-28.42,36.259998,31.360001,1729431624895.0,0.0
2.402394,-9.927821,-7.393822,5.88,22.889999,1.33,1729431624914.0,0.0
-0.849452,-10.882557,-2.742175,44.73,6.51,-11.76,1729431624967.0,0.0
-0.086142,-7.566105,-5.424529,-9.59,-19.040001,-44.450001,1729431624971.0,0.0
0.679562,-5.740381,-7.568498,-45.290001,-33.599998,-50.330002,1729431624977.0,0.0
-0.184247,-6.348158,-9.62154,-54.32,-31.85,-51.099998,1729431624992.0,0.0
-2.713461,-5.149354,-10.097712,15.47,-37.310001,-44.450001,1729431625012.0,0.0
-3.84048,-5.493921,-10.660025,25.34,-31.57,-61.32,1729431625034.0,0.0
-3.266203,-3.058028,-10.626525,-0.7,-22.68,-74.620003,1729431625052.0,0.0
-1.959722,-0.880559,-11.832507,2.52,-12.88,-59.290001,1729431625073.0,0.0
-0.545564,1.232304,-10.636096,11.83,-0.35,-30.940001,1729431625094.0,0.0
-0.9667,1.715654,-9.224331,15.82,9.8,12.67,1729431625112.0,0.0
-0.842274,-4.017549,-9.987641,3.15,15.26,34.439999,1729431625133.0,0.0
-1.526621,-5.273781,-11.346765,-24.57,25.969999,32.900002,1729431625153.0,0.0
-0.693919,-3.845266,-9.779467,14.7,28.139999,34.299999,1729431625171.0,0.0
-0.803988,-2.955136,-8.228917,12.81,35.91,33.459999,1729431625193.0,0.0
0.672383,-5.120641,-8.865408,-11.62,37.029999,36.540001,1729431625212.0,0.0
1.122234,-4.61097,-8.872586,-0.14,40.32,38.220001,1729431625232.0,0.0
1.141376,-3.67059,-7.757531,14.35,47.740002,50.540001,1729431625252.0,0.0
2.165504,-4.991428,-6.594619,3.43,47.389999,56.420002,1729431625272.0,0.0
1.933401,-9.140583,-5.417351,-0.42,38.849998,53.34,1729431625293.0,0.0
1.375873,-12.882957,-4.510471,9.38,22.469999,30.66,1729431625312.0,0.0
1.646262,-8.054241,-5.084748,35.630001,2.66,7.98,1729431625333.0,0.0
0.31346,-6.580262,-4.278367,24.99,-13.3,2.38,1729431625352.0,0.0
-0.662812,-7.819745,-5.503492,-50.540001,-35.349998,-14.07,1729431625373.0,0.0
-0.074178,-7.398607,-9.078369,-33.32,-50.610001,-19.74,1729431625393.0,0.0
-0.224925,-5.343173,-9.767502,26.32,-55.09,-21.280001,1729431625412.0,0.0
-5.326423,-6.360123,-8.023134,9.66,-49.490002,-35.349998,1729431625432.0,0.0
-4.065405,-6.704689,-12.05504,-74.900002,-54.32,-68.18,1729431625453.0,0.0
-2.433501,-5.498707,-11.540584,-70.629997,-36.470001,-71.82,1729431625473.0,0.0
-2.940779,-2.029114,-11.743973,-9.03,-24.57,-59.990002,1729431625493.0,0.0
-1.830509,-1.658226,-11.097912,29.469999,-14.21,-39.41,1729431625572.0,0.0
-1.184447,-2.266003,-9.430114,4.69,-4.2,-27.58,1729431625586.0,0.0
-1.31366,-4.465007,-10.822738,-54.040001,0.91,-31.5,1729431625598.0,0.0
-0.442672,-3.192025,-10.660025,-53.48,7.56,-26.18,1729431625599.0,0.0
0.488136,-1.572084,-10.107283,27.790001,13.23,-7.0,1729431625600.0,0.0
0.059821,-1.940579,-9.044869,57.540001,27.58,17.710001,1729431625612.0,0.0
0.825524,-2.608176,-8.374879,45.639999,33.459999,29.68,1729431625633.0,0.0
1.26341,-4.158726,-7.649854,31.08,33.529999,42.560001,1729431625653.0,0.0
2.069792,-5.489135,-7.757531,25.059999,31.5,39.48,1729431625673.0,0.0
1.751546,-4.680361,-8.372486,24.92,34.720001,39.130001,1729431625694.0,0.0
2.337788,-4.756931,-8.874979,-11.27,38.990002,38.220001,1729431625712.0,0.0
1.792224,-8.630912,-6.640083,6.37,38.009998,42.77,1729431625736.0,0.0
2.0004,-5.895915,-7.719246,21.210001,30.73,33.950001,1729431625753.0,0.0
0.105284,-7.054041,-4.833502,16.17,25.969999,31.85,1729431625773.0,0.0
-3.139383,-11.021341,-5.295317,-60.34,10.85,8.12,1729431625794.0,0.0
-1.158126,-11.148161,-7.420143,-126.770004,-2.73,-42.490002,1729431625813.0,0.0
1.198804,-7.427321,-9.408579,-43.610001,-16.17,-43.189999,1729431625833.0,0.0
1.158126,-4.539185,-10.219746,15.12,-15.190001,-48.790001,1729431625852.0,0.0
-0.232104,-5.831308,-8.657232,13.58,-8.4,-43.259998,1729431625873.0,0.0
-2.285146,-6.142376,-7.755138,-3.5,-16.24,-59.080002,1729431625893.0,0.0
-2.892922,-5.417351,-9.602397,-26.809999,-22.610001,-71.889999,1729431625912.0,0.0
-1.564906,-3.661019,-10.171888,-14.49,-21.700001,-73.010002,1729431625933.0,0.0
-0.933201,-2.086541,-11.722438,11.69,-16.379999,-60.200001,1729431625953.0,0.0
-0.239282,-0.823131,-10.638489,29.75,-3.71,-37.450001,1729431625973.0,0.0
-0.028714,-0.634098,-9.475577,43.119999,3.99,-10.01,1729431625994.0,0.0
-0.131605,-2.26361,-10.246067,29.26,8.26,6.93,1729431626012.0,0.0
0.026321,-3.364309,-11.550155,-11.69,16.799999,15.05,1729431626032.0,0.0
0.155533,-1.495514,-10.705488,26.389999,29.68,27.860001,1729431626052.0,0.0
-0.308674,-1.998007,-10.124033,51.66,35.98,47.459999,1729431626071.0,0.0
-0.258425,-3.158526,-7.4345,21.07,40.670002,48.439999,1729431626093.0,0.0
0.921237,-6.21416,-9.702895,1.47,39.970001,42.07,1729431626121.0,0.0
0.368495,-3.65384,-8.879765,31.43,44.869999,45.639999,1729431626131.0,0.0
1.337588,-3.474378,-8.578269,20.790001,50.049999,55.23,1729431626152.0,0.0
1.5003,-8.128418,-7.724032,5.46,56.560001,57.68,1729431626172.0,0.0
2.158326,-9.913465,-6.836295,38.360001,53.41,49.209999,1729431626192.0,0.0
2.335395,-11.4353,-5.453243,78.260002,46.130001,28.77,1729431626217.0,0.0
0.949951,-14.316258,-4.809574,96.32,35.560001,-2.31,1729431626236.0,0.0
0.066999,-11.004591,-3.54377,89.18,21.35,-42.91,1729431626279.0,0.0
1.646262,-4.642076,-2.727818,72.449997,-11.2,-48.23,1729431626280.0,0.0
3.641876,-4.208975,-3.814159,11.69,-31.99,-47.599998,1729431626396.0,0.0
4.331009,-6.329016,-6.819544,-16.309999,-39.27,-36.540001,1729431626398.0,0.0
1.658226,-7.013363,-8.082954,9.45,-42.84,-28.84,1729431626399.0,0.0
-2.935993,-9.164511,-7.879565,16.940001,-39.689999,-33.389999,1729431626400.0,0.0
-1.875973,-5.845665,-10.205389,2.8,-46.48,-62.720001,1729431626401.0,0.0
-1.385444,-5.802595,-10.557133,-42.84,-38.080002,-65.870003,1729431626402.0,0.0
-0.921237,-5.051248,-11.05484,-30.24,-25.76,-61.040001,1729431626410.0,0.0
0.753739,-2.634498,-10.437491,22.469999,-18.969999,-43.330002,1729431626433.0,0.0
0.579063,-0.555135,-9.504292,37.170002,-4.76,-14.42,1729431626450.0,0.0
-0.040678,-1.339981,-7.829315,8.26,6.09,12.95,1729431626471.0,0.0
0.607777,-4.675575,-7.331609,-46.830002,4.9,22.82,1729431626493.0,0.0
0.160319,-6.336195,-9.698111,-74.480003,2.94,23.030001,1729431626512.0,0.0
0.143569,-6.422336,-8.941978,-25.34,12.67,38.779999,1729431626531.0,0.0
0.61017,-4.716253,-7.534998,18.129999,20.440001,46.48,1729431626550.0,0.0
0.579063,-4.441079,-6.941578,-14.21,25.129999,54.599998,1729431626570.0,0.0
1.536192,-5.067998,-9.178867,-58.73,21.84,55.510002,1729431626592.0,0.0
1.579263,-6.424729,-10.406385,-59.080002,29.540001,60.34,1729431626610.0,0.0
2.014757,-5.453243,-9.966106,-5.32,41.02,65.660004,1729431626630.0,0.0
2.234896,-5.496314,-7.781459,24.219999,48.509998,69.019997,1729431626650.0,0.0
2.143969,-7.537392,-5.71406,8.19,50.259998,63.209999,1729431626672.0,0.0
1.957329,-11.748759,-5.663811,-13.72,42.07,41.580002,1729431626692.0,0.0
0.861416,-14.086546,-4.311867,8.12,28.0,4.34,1729431626711.0,0.0
1.552942,-11.050055,-4.280759,11.2,9.59,-28.84,1729431626733.0,0.0
3.56052,-5.304887,-5.919843,5.32,-13.440001,-36.75,1729431626750.0,0.0
0.794417,-6.436693,-5.532206,-39.549999,-19.6,-37.310001,1729431626771.0,0.0
0.842274,-8.705089,-9.736395,-97.93,-20.65,-54.040001,1729431626792.0,0.0
1.785046,-7.867601,-11.696117,-25.27,-24.08,-52.150002,1729431626810.0,0.0
0.662812,-5.74756,-10.112068,37.170002,-13.440001,-57.470001,1729431626831.0,0.0
-2.514857,-5.288138,-7.850852,2.03,-8.96,-72.379997,1729431626850.0,0.0
-2.306681,-5.943772,-9.190832,-15.96,-18.48,-80.360001,1729431626870.0,0.0
-0.820738,-3.424129,-10.435099,9.87,-22.540001,-78.050003,1729431626892.0,0.0
-0.198604,-1.842474,-10.660025,35.349998,-14.56,-58.939999,1729431626910.0,0.0
0.461815,-1.308874,-9.887143,20.09,-3.22,-35.91,1729431626930.0,0.0
0.918844,-1.952543,-10.188639,-10.08,7.84,-20.93,1729431626950.0,0.0
0.753739,-3.684947,-10.442278,20.51,8.12,17.639999,1729431626970.0,0.0
0.870987,-2.584249,-6.005985,32.41,25.129999,21.91,1729431626990.0,0.0
0.071785,-3.177669,-8.432307,33.529999,19.25,40.670002,1729431627015.0,0.0
1.342373,-4.749753,-8.745767,-6.65,24.639999,36.889999,1729431627030.0,0.0
1.969293,-5.536992,-8.377272,-0.77,25.27,41.790001,1729431627050.0,0.0
1.935793,-4.039084,-8.898908,17.85,30.24,44.869999,1729431627070.0,0.0
2.785245,-3.369094,-8.733803,-8.68,37.939999,51.66,1729431627091.0,0.0
2.995814,-7.62114,-7.233503,-26.32,43.75,57.189999,1729431627111.0,0.0
2.871387,-10.332209,-5.915058,13.3,40.740002,50.75,1729431627133.0,0.0
2.883351,-12.777672,-3.601198,70.980003,31.85,34.720001,1729431627151.0,0.0
1.562513,-12.107682,-2.143969,70.349998,16.379999,2.66,1729431627171.0,0.0
0.68674,-11.085947,-1.806581,-9.59,-7.7,-36.259998,1729431627192.0,0.0
2.727818,-5.979663,-3.802195,-77.279999,-34.439999,-51.66,1729431627211.0,0.0
3.144169,-5.228317,-6.821937,-95.760002,-45.57,-52.57,1729431627231.0,0.0
1.261017,-7.575676,-9.571291,-92.68,-43.75,-45.080002,1729431627251.0,0.0
0.691526,-6.771688,-12.512069,-35.349998,-40.599998,-45.360001,1729431627271.0,0.0
-0.39003,-5.393422,-10.569098,53.48,-33.950001,-44.240002,1729431627293.0,0.0
-0.832702,-3.735196,-8.630912,31.15,-33.25,-60.970001,1729431627311.0,0.0
-1.663012,-5.405386,-8.85105,-22.190001,-31.290001,-74.550003,1729431627331.0,0.0
-1.464408,-4.407579,-11.255837,-9.31,-28.700001,-72.309998,1729431627350.0,0.0
1.11027,-0.605384,-9.903893,30.870001,-23.73,-57.049999,1729431627371.0,0.0
0.579063,-1.103091,-8.822337,16.24,-7.28,-20.790001,1729431627392.0,0.0
1.249053,-3.091527,-9.262616,-5.18,-5.04,-5.74,1729431627409.0,0.0
1.119841,-3.926622,-10.382458,5.04,-3.01,12.53,1729431627431.0,0.0
0.162712,-2.813959,-9.662218,-3.01,11.9,12.18,1729431627450.0,0.0
0.648455,-4.419543,-8.769694,2.94,11.13,31.780001,1729431627470.0,0.0
1.026521,-3.854837,-9.523434,-3.71,17.710001,25.48,1729431627491.0,0.0
2.11047,-4.173083,-8.867801,-13.440001,22.120001,40.810001,1729431627511.0,0.0
2.289931,-5.362316,-8.044669,-23.450001,28.98,47.32,1729431627530.0,0.0
2.548356,-5.108676,-9.470792,-9.8,32.27,50.82,1729431627552.0,0.0
2.852244,-3.249453,-8.647661,-3.78,41.23,58.59,1729431627571.0,0.0
2.979064,-5.235496,-8.02792,-31.08,44.73,66.290001,1729431627592.0,0.0
2.256432,-8.958728,-5.587241,2.45,43.959999,71.889999,1729431627611.0,0.0
2.455036,-9.336794,-5.862415,39.48,33.740002,58.029999,1729431627631.0,0.0
1.584049,-11.282159,-3.548556,57.959999,23.66,45.360001,1729431627650.0,0.0
0.942772,-9.207582,-4.771288,7.28,5.95,12.95,1729431627671.0,0.0
-0.713061,-11.313265,-4.0008,-35.0,-7.98,-4.06,1729431627692.0,0.0
1.828116,-4.326223,-5.943772,-52.360001,-39.41,-22.049999,1729431627711.0,0.0
2.916851,-2.112862,-9.286544,-71.190002,-46.759998,-15.4,1729431627733.0,0.0
-1.59362,-6.845865,-8.049455,-110.459999,-36.75,-7.35,1729431627750.0,0.0
-0.988236,-7.018148,-9.999605,-77.0,-44.029999,-13.51,1729431627770.0,0.0
0.976272,-4.130012,-10.286745,-10.92,-45.150002,-17.43,1729431627791.0,0.0
1.572084,-4.699504,-8.956335,-17.219999,-35.98,-24.43,1729431627818.0,0.0
0.306281,-6.094519,-9.597611,-61.040001,-31.85,-43.259998,1729431627832.0,0.0
0.366102,-6.096912,-11.787045,-59.779999,-28.42,-61.740002,1729431627851.0,0.0
0.835095,-3.993621,-12.703495,-7.63,-19.879999,-63.349998,1729431627870.0,0.0
1.820938,-2.931208,-10.916058,20.58,-4.13,-61.529999,1729431627891.0,0.0
0.739382,-1.342373,-10.267602,34.650002,2.59,-48.09,1729431627911.0,0.0
0.854238,-1.337588,-9.24108,44.52,7.77,-28.42,1729431627930.0,0.0
0.808774,-1.636691,-8.506484,38.57,9.38,-10.01,1729431627950.0,0.0
0.945165,-2.589034,-8.669197,-1.4,8.96,-0.07,1729431627970.0,0.0
0.619741,-4.041477,-9.178867,-38.360001,9.94,2.38,1729431627991.0,0.0
0.22014,-4.922036,-9.844072,-31.57,10.15,6.09,1729431628012.0,0.0
0.471386,-5.558527,-9.186047,-31.57,12.67,4.69,1729431628031.0,0.0
0.181855,-5.168497,-8.939585,27.23,9.87,-1.82,1729431628050.0,0.0
0.071785,-5.429315,-10.078569,9.73,10.64,-8.12,1729431628070.0,0.0
0.959522,-5.235496,-10.810772,13.93,14.63,-9.52,1729431628092.0,0.0
1.813759,-3.751946,-9.889536,66.779999,18.34,4.9,1729431628110.0,0.0
0.739382,-2.589034,-6.924829,70.699997,27.860001,17.5,1729431628131.0,0.0
1.572084,-2.349752,-6.965507,31.85,21.559999,29.960001,1729431628150.0,0.0
0.839881,-4.414758,-7.424929,-23.309999,22.049999,43.610001,1729431628172.0,0.0
1.557728,-5.65424,-9.506684,-11.34,20.16,52.57,1729431628194.0,0.0
2.486143,-4.677969,-10.325029,31.639999,24.08,59.57,1729431628213.0,0.0
1.971686,-3.0006,-8.772088,52.5,30.940001,64.050003,1729431628230.0,0.0
2.105684,-4.666004,-7.391429,15.89,35.420002,59.990002,1729431628249.0,0.0
2.294717,-6.195018,-6.556334,-13.72,30.73,49.560001,1729431628272.0,0.0
2.347359,-6.946364,-7.704889,-18.83,21.559999,36.889999,1729431628291.0,0.0
2.500499,-9.784252,-7.008578,4.2,19.110001,26.32,1729431628311.0,0.0
0.976272,-15.601204,-6.396015,50.119999,13.58,1.19,1729431628331.0,0.0
-0.579063,-10.8682,-4.811966,51.59,4.13,-48.790001,1729431628352.0,0.0
1.636691,-2.62732,-5.312066,11.97,-20.370001,-60.900002,1729431628370.0,0.0
3.754339,-4.218546,-7.52782,-78.120003,-25.549999,-49.98,1729431628394.0,0.0
4.218546,-5.326423,-7.623533,-26.18,-24.639999,-28.07,1729431628411.0,0.0
3.613162,-3.940979,-9.147761,47.670002,-32.130001,-8.75,1729431628431.0,0.0
-1.643869,-6.60419,-5.84088,51.73,-27.440001,-6.16,1729431628452.0,0.0
-2.854637,-8.298308,-9.257831,58.59,-34.299999,-25.059999,1729431628471.0,0.0
-0.425922,-5.546563,-10.564312,14.42,-37.450001,-46.689999,1729431628491.0,0.0
-0.524028,-4.448257,-11.442478,-23.24,-28.700001,-60.549999,1729431628512.0,0.0
-0.512064,-3.699304,-10.676775,-8.68,-16.1,-53.619999,1729431628531.0,0.0
0.713061,-2.371287,-9.896714,34.720001,-12.67,-39.200001,1729431628552.0,0.0
0.418744,-1.557728,-9.171689,33.599998,-6.23,-22.190001,1729431628572.0,0.0
0.191426,-3.172883,-8.293523,1.05,-0.07,-10.99,1729431628592.0,0.0
0.567099,-6.135197,-8.889337,-15.4,1.12,-6.3,1729431628610.0,0.0
1.337588,-5.752346,-8.877372,0.56,-0.35,-4.27,1729431628633.0,0.0
0.624527,-4.61097,-8.678767,16.17,2.66,2.31,1729431628651.0,0.0
0.394816,-4.713861,-8.394022,14.77,8.26,14.84,1729431628670.0,0.0
1.036092,-4.658825,-8.286345,13.58,12.32,30.59,1729431628692.0,0.0
1.272982,-4.101298,-7.781459,15.89,19.530001,47.740002,1729431628711.0,0.0
1.651048,-3.835695,-6.771688,-16.799999,24.219999,65.940002,1729431628734.0,0.0
1.914258,-6.113662,-8.85105,-32.970001,19.6,70.419998,1729431628752.0,0.0
1.947758,-5.130211,-10.092925,-14.28,23.17,71.610001,1729431628772.0,0.0
1.852045,-3.290131,-9.652647,-10.71,29.610001,77.07,1729431628791.0,0.0
0.614955,-6.893722,-5.525027,-19.6,39.34,84.209999,1729431628811.0,0.0
0.631705,-9.142976,-5.958128,-17.290001,28.630001,65.590004,1729431628830.0,0.0
0.772882,-9.74836,-4.677969,5.32,15.05,48.439999,1729431628851.0,0.0
-0.569492,-10.329816,-5.237889,-36.540001,-3.5,12.25,1729431628872.0,0.0
0.272782,-12.449856,-7.188039,-80.150002,-14.7,-24.85,1729431628891.0,0.0
2.993421,-8.315059,-7.743174,-47.040001,-23.940001,-39.759998,1729431628911.0,0.0
1.631905,-4.996214,-7.963314,-0.35,-29.120001,-43.82,1729431628931.0,0.0
-0.349352,-6.800402,-8.949157,15.4,-33.110001,-41.860001,1729431628951.0,0.0
1.012164,-7.386643,-9.638289,0.91,-37.170002,-56.91,1729431628971.0,0.0
-2.033899,-4.070191,-8.772088,-10.71,-34.369999,-68.879997,1729431628991.0,0.0
-1.861616,-4.986642,-10.406385,-18.129999,-36.75,-67.900002,1729431629011.0,0.0
-0.540778,-3.699304,-12.301501,-3.43,-24.01,-56.98,1729431629032.0,0.0
0.210568,-0.722632,-10.585848,31.85,1.26,-18.969999,1729431629050.0,0.0
0.502493,-1.682154,-10.679168,15.26,12.74,0.42,1729431629069.0,0.0
0.440279,-3.498307,-11.787045,9.59,20.440001,20.23,1729431629091.0,0.0
0.026321,-3.256632,-10.755738,57.82,36.540001,29.889999,1729431629110.0,0.0
0.215354,-1.74676,-8.628519,69.93,45.220001,42.420002,1729431629130.0,0.0
0.614955,-2.770889,-7.341179,24.5,50.75,45.990002,1729431629150.0,0.0
0.758525,-4.82393,-8.451449,6.16,45.849998,45.290001,1729431629170.0,0.0
0.337388,-4.31426,-7.977671,15.05,47.389999,50.330002,1729431629192.0,0.0
0.437887,-6.546762,-5.955735,4.55,46.900002,49.07,1729431629210.0,0.0
1.143769,-8.470592,-5.924629,-28.98,40.110001,37.52,1729431629233.0,0.0
1.533799,-12.691531,-3.790231,-20.16,29.4,19.530001,1729431629250.0,0.0
2.586641,-8.9683,-4.307081,-30.450001,10.85,-7.63,1729431629270.0,0.0
1.658226,-8.946764,-5.034499,-44.099998,-4.97,-20.299999,1729431629294.0,0.0
1.179662,-9.138189,-5.168497,-72.660004,-18.059999,-34.860001,1729431629312.0,0.0
3.129812,-7.475177,-7.886744,-39.549999,-32.759998,-41.439999,1729431629332.0,0.0
1.646262,-5.388636,-8.843873,6.44,-36.049999,-38.639999,1729431629351.0,0.0
-0.954736,-7.56132,-7.556533,8.47,-34.16,-35.98,1729431629371.0,0.0
-1.586441,-7.692925,-10.083356,-30.52,-36.049999,-58.029999,1729431629403.0,0.0
-1.368695,-5.029713,-11.152946,-29.120001,-32.970001,-64.889999,1729431629410.0,0.0
-0.193819,-3.268596,-11.246266,-3.43,-23.030001,-64.540001,1729431629430.0,0.0
0.363709,-1.328017,-11.440084,26.25,-12.53,-48.16,1729431629449.0,0.0
0.947558,-0.014357,-9.820145,33.740002,-1.12,-24.710001,1729431629472.0,0.0
0.976272,-2.244468,-9.523434,8.82,5.25,-3.71,1729431629493.0,0.0
0.445065,-4.163511,-10.91845,-12.81,14.0,3.64,1729431629511.0,0.0
1.002593,-4.448257,-9.992428,38.990002,19.879999,18.969999,1729431629530.0,0.0
0.461815,-3.050849,-8.204988,74.129997,31.08,26.67,1729431629550.0,0.0
1.081556,-2.347359,-6.608976,45.080002,26.67,35.139999,1729431629569.0,0.0
1.414158,-3.639483,-8.587841,-20.299999,25.620001,34.369999,1729431629592.0,0.0
1.222732,-4.828716,-9.568897,-12.25,29.469999,43.68,1729431629610.0,0.0
1.521835,-4.919643,-8.054241,26.880001,35.420002,59.360001,1729431629629.0,0.0
1.866402,-4.383651,-7.475177,10.01,38.849998,57.189999,1729431629650.0,0.0
1.679761,-9.659825,-5.010571,-2.87,33.25,55.720001,1729431629670.0,0.0
2.100898,-11.241481,-5.304887,-11.62,20.16,30.24,1729431629691.0,0.0
1.646262,-8.925228,-4.627719,-7.28,8.05,8.82,1729431629711.0,0.0
0.62692,-9.018548,-5.632704,-26.67,-14.98,-11.97,1729431629733.0,0.0
1.502693,-8.772088,-6.788438,-35.77,-24.639999,-23.030001,1729431629750.0,0.0
2.318645,-7.04447,-7.843673,-19.530001,-31.15,-29.75,1729431629772.0,0.0
1.294517,-6.130411,-8.896514,-2.94,-33.459999,-32.900002,1729431629790.0,0.0
0.031107,-7.156933,-8.372486,16.799999,-32.689999,-37.52,1729431629810.0,0.0
0.224925,-8.367701,-8.980263,12.32,-36.610001,-50.610001,1729431629830.0,0.0
-1.469193,-5.659025,-9.195618,-3.99,-30.309999,-68.25,1729431629850.0,0.0
-1.471586,-5.745167,-9.963714,-2.59,-32.41,-68.949997,1729431629870.0,0.0
-0.141177,-3.584448,-11.076375,8.68,-28.0,-73.010002,1729431629891.0,0.0
0.42353,-2.969493,-10.743774,26.6,-15.75,-58.170002,1729431629911.0,0.0
0.492921,-2.775674,-9.832108,28.139999,-4.62,-39.970001,1729431629930.0,0.0
1.103091,-3.39063,-10.293922,8.89,3.99,-33.529999,1729431629950.0,0.0
0.868595,-4.06062,-10.920842,17.290001,7.7,-7.0,1729431629969.0,0.0
1.194018,-2.689533,-8.516055,33.950001,23.73,-0.14,1729431629990.0,0.0
0.409173,-3.900301,-9.111869,48.93,28.700001,29.049999,1729431630011.0,0.0
0.949951,-3.749553,-9.552148,38.290001,38.57,38.150002,1729431630029.0,0.0
1.476372,-3.132205,-8.410772,44.099998,48.720001,54.040001,1729431630049.0,0.0
1.292124,-5.539384,-7.657032,24.85,50.259998,62.02,1729431630072.0,0.0
1.335195,-5.197211,-7.223931,29.26,48.299999,56.91,1729431630091.0,0.0
1.859223,-3.562913,-7.357929,-1.89,51.52,59.010002,1729431630111.0,0.0
0.997807,-8.537591,-5.558527,-13.09,45.43,66.150002,1729431630130.0,0.0
1.679761,-8.171489,-5.553742,12.53,34.650002,53.689999,1729431630150.0,0.0
1.478764,-9.224331,-5.156533,49.700001,24.5,51.099998,1729431630169.0,0.0
1.141376,-8.626125,-4.816752,46.900002,14.63,40.110001,1729431630191.0,0.0
-0.112463,-9.62154,-3.818945,-2.31,6.23,20.790001,1729431630209.0,0.0
0.260818,-10.506885,-4.508078,-55.16,-9.66,-1.26,1729431630231.0,0.0
1.641476,-8.020741,-5.601598,-67.340004,-22.75,-12.39,1729431630250.0,0.0
0.923629,-6.611369,-6.068198,-56.490002,-29.82,-13.72,1729431630271.0,0.0
0.227318,-7.470392,-6.518049,-73.919998,-34.439999,-18.200001,1729431630291.0,0.0
2.426322,-7.953743,-8.745767,-98.139999,-44.66,-29.68,1729431630310.0,0.0
1.990828,-7.125826,-10.030712,-80.290001,-40.529999,-41.720001,1729431630330.0,0.0
1.074377,-6.407979,-10.126426,-42.98,-33.740002,-47.950001,1729431630348.0,0.0
0.193819,-5.563312,-8.910872,-46.619999,-30.24,-57.68,1729431630370.0,0.0
0.009571,-7.317252,-10.480563,-81.410004,-27.440001,-81.900002,1729431630391.0,0.0
-0.160319,-5.371887,-9.552148,-35.560001,-22.4,-77.840004,1729431630408.0,0.0
-0.696311,-4.003192,-10.604989,17.85,-18.200001,-74.199997,1729431630430.0,0.0
0.660419,-3.503092,-10.779665,28.07,-10.08,-64.889999,1729431630451.0,0.0
1.241875,-2.878566,-9.310472,19.6,-2.59,-55.510002,1729431630471.0,0.0
0.995414,-3.208775,-8.437093,-9.52,2.73,-52.43,1729431630491.0,0.0
0.835095,-4.086941,-8.65484,-10.5,1.54,-42.84,1729431630580.0,0.0
1.28016,-4.0008,-9.236296,1.82,0.63,-38.849998,1729431630584.0,0.0
0.930808,-3.361916,-9.559326,-7.42,4.62,-31.710001,1729431630586.0,0.0
0.904487,-3.672983,-9.470792,14.42,7.35,-17.219999,1729431630588.0,0.0
0.859023,-3.369094,-9.200402,51.380001,12.04,-2.31,1729431630591.0,0.0
1.043271,-4.409972,-8.571091,59.43,17.639999,18.34,1729431630610.0,0.0
0.638884,-4.704289,-8.188239,68.25,21.139999,31.85,1729431630629.0,0.0
1.22034,-4.474578,-7.269395,58.52,22.049999,42.139999,1729431630649.0,0.0
1.337588,-4.161119,-8.214561,61.25,21.700001,52.5,1729431630669.0,0.0
1.162912,-3.59402,-8.429914,63.209999,30.66,62.650002,1729431630692.0,0.0
1.490728,-4.625326,-7.080362,73.150002,36.610001,79.940002,1729431630709.0,0.0
0.904487,-6.226124,-6.30748,57.68,43.540001,91.279999,1729431630733.0,0.0
0.887737,-6.750153,-7.200003,60.619999,46.060001,89.669998,1729431630749.0,0.0
0.552742,-5.505885,-7.255038,60.619999,50.68,96.599998,1729431630769.0,0.0
0.205783,-7.267002,-6.936793,50.259998,55.510002,99.400002,1729431630790.0,0.0
0.497707,-7.850852,-7.67139,59.43,56.209999,95.620003,1729431630809.0,0.0
0.416351,-10.609775,-5.974878,131.600006,60.060001,103.32,1729431630829.0,0.0
0.241675,-11.96172,-5.082355,220.779999,61.110001,93.519997,1729431630849.0,0.0
-1.052842,-11.514263,-1.648655,287.140015,59.43,80.150002,1729431630868.0,0.0
-0.990629,-11.753544,-1.249053,343.420013,35.77,71.190002,1729431630890.0,0.0
0.868595,-12.516854,-1.385444,426.790009,3.92,62.369999,1729431630910.0,0.0
2.904887,-12.394822,-0.892523,501.549988,5.32,55.510002,1729431630929.0,0.0
2.421536,-10.159925,0.124427,543.27002,40.25,54.459999,1729431630949.0,0.0
0.667598,-8.432307,3.522235,553.630005,51.310001,56.77,1729431630969.0,0.0
0.4666,-7.958528,5.814559,503.160004,45.5,45.360001,1729431630990.0,0.0
0.452243,-7.814958,7.558927,398.160004,38.5,28.91,1729431631009.0,0.0
-0.129212,-6.582655,7.353144,265.649994,32.48,14.77,1729431631030.0,0.0
-0.449851,-7.257431,6.271588,165.339996,23.030001,2.38,1729431631049.0,0.0
-0.674776,-7.350751,4.536791,101.5,23.66,-8.82,1729431631070.0,0.0
-2.213361,-7.872386,2.648855,96.669998,39.200001,-9.87,1729431631092.0,0.0
-2.979064,-5.745167,4.204189,106.330002,62.16,-14.28,1729431631108.0,0.0
-1.442872,-4.271189,5.448457,108.779999,72.870003,-5.67,1729431631129.0,0.0
-1.892723,-5.666204,6.831509,81.900002,70.980003,-6.51,1729431631149.0,0.0
-2.019542,-5.414958,7.49432,76.440002,70.349998,0.7,1729431631170.0,0.0
-2.038685,-5.386244,8.032705,61.110001,62.510002,3.92,1729431631191.0,0.0
-2.29711,-4.505685,8.279166,49.560001,52.57,10.22,1729431631209.0,0.0
-2.242075,-3.909872,7.317252,47.18,45.080002,16.309999,1729431631229.0,0.0
-3.084348,-5.02732,6.965507,38.779999,42.490002,21.0,1729431631250.0,0.0
-2.761317,-5.187639,7.073184,30.450001,45.290001,18.690001,1729431631270.0,0.0
-2.9336,-5.273781,7.345965,35.630001,46.27,19.809999,1729431631290.0,0.0
-3.907479,-5.010571,7.554141,37.799999,45.009998,22.4,1729431631310.0,0.0
-3.701697,-4.04387,7.611568,29.120001,41.720001,19.6,1729431631329.0,0.0
-4.024727,-4.699504,7.32443,15.05,36.470001,21.700001,1729431631349.0,0.0
-4.522435,-6.161518,8.094919,15.82,30.66,19.6,1729431631370.0,0.0
-5.058427,-7.453642,8.793623,20.93,25.620001,10.5,1729431631392.0,0.0
-4.603791,-5.867201,8.721838,29.049999,20.860001,-7.56,1729431631409.0,0.0
-4.096512,-5.493921,7.513463,13.440001,16.030001,-17.639999,1729431631431.0,0.0
-3.318845,-3.302095,7.446464,23.17,17.57,-23.52,1729431631449.0,0.0
-4.141976,-3.323631,7.369894,24.360001,22.120001,-17.5,1729431631469.0,0.0
-4.61097,-5.108676,8.23131,20.790001,16.52,-23.030001,1729431631489.0,0.0
-3.555735,0.653241,9.080762,41.369999,21.700001,-17.15,1729431631509.0,0.0
-3.531806,-1.545763,7.15454,-21.91,9.52,-5.95,1729431631531.0,0.0
-4.661219,-2.775674,5.79781,-36.330002,7.7,6.86,1729431631548.0,0.0
-5.493921,-2.615355,6.611369,-8.61,4.83,10.92,1729431631570.0,0.0
-4.807181,-0.856631,8.073383,6.58,6.09,23.940001,1729431631590.0,0.0
-3.778267,-2.660819,7.843673,-28.77,-0.98,26.6,1729431631608.0,0.0
-3.888337,-5.029713,7.484749,-31.43,0.7,38.43,1729431631631.0,0.0
-4.546363,-6.139983,6.553941,-8.68,11.97,35.91,1729431631649.0,0.0
-5.498707,-6.946364,4.965107,2.31,24.639999,21.280001,1729431631670.0,0.0
-4.555934,-2.469393,6.742974,27.860001,43.119999,18.9,1729431631690.0,0.0
-4.603791,-1.945365,7.716853,16.17,41.790001,29.75,1729431631710.0,0.0
-4.35733,-4.532006,7.099504,-5.95,24.08,43.470001,1729431631733.0,0.0
-4.704289,-7.996813,6.910471,2.94,18.34,33.110001,1729431631750.0,0.0
-3.570091,-6.573084,8.248059,24.710001,24.15,23.52,1729431631770.0,0.0
-4.053442,-4.551149,9.286544,6.51,22.960001,11.41,1729431631790.0,0.0
-4.09412,-5.862415,8.73141,-32.759998,9.17,3.99,1729431631811.0,0.0
-4.682754,-4.725825,8.927622,-14.56,9.1,6.23,1729431631831.0,0.0
-5.374279,-2.012364,9.425328,-4.34,1.68,3.15,1729431631850.0,0.0
-5.333601,-2.304288,8.549555,-12.18,-0.21,7.56,1729431631869.0,0.0
-5.237889,-4.144369,7.310073,-30.59,-1.4,8.75,1729431631889.0,0.0
-5.304887,-5.04407,6.884151,-20.860001,4.62,6.44,1729431631909.0,0.0
-5.211568,-4.788038,6.221339,-14.49,11.41,3.43,1729431631931.0,0.0
-5.970093,-4.778467,5.632704,-12.32,20.860001,-2.8,1729431631949.0,0.0
-6.965507,-2.656033,5.936593,2.87,28.84,-11.13,1729431631968.0,0.0
-7.200003,-2.459821,5.572884,7.07,30.799999,-11.62,1729431631990.0,0.0
-8.705089,-7.503892,7.848458,9.8,18.27,-21.49,1729431632008.0,0.0
-6.324231,-6.01077,10.750952,47.950001,13.16,-36.049999,1729431632029.0,0.0
-4.639683,-5.848059,7.202396,32.619999,8.4,-35.77,1729431632048.0,0.0
-3.215954,0.679562,7.673782,21.49,10.29,-36.68,1729431632068.0,0.0
-3.809374,0.59342,5.970093,-7.7,9.03,-11.83,1729431632102.0,0.0
-5.520242,-3.09392,4.122833,-41.790001,-5.81,-9.24,1729431632109.0,0.0
-5.474778,-0.256032,6.702296,20.09,8.26,5.04,1729431632128.0,0.0
-6.159126,-1.497907,7.295716,5.18,1.12,16.1,1729431632149.0,0.0
-5.201996,-4.613362,6.470192,-26.74,-7.35,15.96,1729431632169.0,0.0
-5.276174,-6.269196,6.515656,-5.53,2.87,21.35,1729431632190.0,0.0
-5.919843,-6.955935,4.725825,8.33,12.04,7.28,1729431632209.0,0.0
-4.61097,-1.234696,6.788438,48.509998,35.630001,7.84,1729431632229.0,0.0
-4.627719,2.294717,7.496714,35.0,34.299999,18.27,1729431632249.0,0.0
-4.376472,-0.681954,7.769495,-6.93,23.52,40.529999,1729431632268.0,0.0
-3.531806,4.019942,8.839087,-16.940001,20.860001,56.98,1729431632292.0,0.0
-9.446864,-17.496319,2.895315,-66.080002,8.89,70.209999,1729431632311.0,0.0
-7.616355,-10.179067,6.551548,18.76,2.52,22.33,1729431632329.0,0.0
-5.831308,-2.579463,12.658032,122.010002,35.139999,15.33,1729431632349.0,0.0
-5.886343,-7.070791,8.279166,-50.400002,-10.85,-4.97,1729431632368.0,0.0
-5.493921,-6.084948,9.430114,-47.32,-8.89,-26.74,1729431632389.0,0.0
-5.345565,-2.87378,7.441679,8.75,-11.27,-28.630001,1729431632411.0,0.0
-4.728218,-0.708275,6.360123,-5.04,-10.29,-29.469999,1729431632428.0,0.0
-5.69731,-1.990828,5.900701,-20.93,-5.18,-15.61,1729431632448.0,0.0
-5.367101,-4.457829,5.608776,-30.940001,-5.67,-17.99,1729431632469.0,0.0
-7.566105,-4.046263,7.896315,21.77,3.71,-8.75,1729431632491.0,0.0
-8.496914,-7.704889,9.489935,25.549999,-5.95,-17.710001,1729431632508.0,0.0
-6.4678,-9.860823,10.08814,16.870001,-20.58,-46.689999,1729431632530.0,0.0
-0.815953,2.957529,8.796017,35.700001,-3.15,-48.09,1729431632548.0,0.0
-3.471986,0.768096,2.76371,-38.920002,-8.12,-12.32,1729431632569.0,0.0
-6.750153,-0.236889,2.835495,-54.599998,-7.07,0.14,1729431632591.0,0.0
-6.719046,-0.863809,4.725825,-3.92,-1.12,14.07,1729431632610.0,0.0
-6.130411,-0.854238,6.403193,27.370001,10.92,26.25,1729431632629.0,0.0
-5.99402,-3.65384,6.051448,5.18,10.01,31.92,1729431632649.0,0.0
-5.819345,-5.769095,6.063413,15.61,21.629999,37.380001,1729431632668.0,0.0
-5.793024,-3.194418,6.003592,28.07,33.459999,32.970001,1729431632692.0,0.0
-4.271189,1.569692,7.04447,31.5,45.290001,38.57,1729431632711.0,0.0
-4.211368,0.988236,6.250053,-3.92,39.060001,43.119999,1729431632731.0,0.0
-8.305488,-7.757531,4.821537,-97.160004,-0.56,32.619999,1729431632748.0,0.0
-6.860222,-6.113662,6.52762,26.460001,17.219999,56.139999,1729431632769.0,0.0
-6.486942,-4.187439,10.502099,41.299999,12.18,16.450001,1729431632789.0,0.0
-7.192825,-5.572884,9.140583,-41.369999,-5.46,14.28,1729431632809.0,0.0
-5.613562,-6.726225,7.221539,-56.91,-8.61,-2.45,1729431632830.0,0.0
-6.393622,-6.324231,5.489135,-26.74,-4.69,-11.27,1729431632847.0,0.0
-5.663811,-2.031506,5.754738,8.26,12.11,-13.79,1729431632869.0,0.0
-8.441878,-7.389036,6.778866,-24.290001,1.61,-24.01,1729431632893.0,0.0
-10.076177,-12.976277,10.432706,22.889999,-15.75,-58.799999,1729431632908.0,0.0
-5.871986,-4.575077,14.902499,107.379997,-15.75,-85.889999,1729431632927.0,0.0
-1.136591,8.054241,8.903693,33.670002,2.38,-62.860001,1729431632947.0,0.0
-4.015156,-1.78026,3.570091,-94.5,-18.129999,-13.86,1729431632968.0,0.0
-6.38405,-3.318845,-0.069392,-81.059998,-17.710001,-19.18,1729431632989.0,0.0
-7.57089,0.636491,4.589434,68.529999,20.719999,7.35,1729431633014.0,0.0
-8.470592,0.614955,6.723832,56.420002,16.030001,3.78,1729431633028.0,0.0
-7.080362,-2.557927,5.575277,-2.31,0.42,4.62,1729431633048.0,0.0
-7.089933,-7.312466,3.59402,29.540001,22.33,6.86,1729431633070.0,0.0
-6.372087,-2.617748,5.130211,77.209999,49.209999,3.57,1729431633088.0,0.0
-5.350351,0.758525,5.929415,71.190002,53.200001,8.33,1729431633107.0,0.0
-5.259424,-0.4666,5.852845,23.870001,41.509998,23.24,1729431633128.0,0.0
-5.223531,-3.771089,5.962914,12.39,33.670002,32.130001,1729431633148.0,0.0
-4.797609,-3.397808,9.140583,39.41,34.650002,32.619999,1729431633168.0,0.0
-4.926822,-1.380659,11.830115,20.299999,30.870001,37.310001,1729431633189.0,0.0
-6.190232,-7.77428,6.953543,-86.870003,0.21,29.049999,1729431633207.0,0.0
-8.276773,-9.178867,8.784052,-58.869999,-22.049999,14.21,1729431633230.0,0.0
-6.872187,-1.184447,11.617154,20.860001,-2.8,2.45,1729431633250.0,0.0
-7.073184,-2.531606,7.65464,-67.129997,-28.42,-5.95,1729431633270.0,0.0
-6.838687,-2.955136,4.802395,-101.220001,-31.780001,-6.72,1729431633290.0,0.0
-7.252645,-1.115055,1.758725,-71.190002,-18.48,1.4,1729431633311.0,0.0
-8.063812,-1.514657,2.734996,-41.369999,-5.11,6.3,1729431633329.0,0.0
-10.392029,-7.910671,6.802795,-23.940001,7.28,-0.21,1729431633351.0,0.0
-11.660224,-16.589439,10.727024,8.96,-19.6,-52.990002,1729431633369.0,0.0
-5.453243,-2.605784,11.303694,95.760002,-0.49,-91.840004,1729431633390.0,0.0
-4.663611,-0.224925,9.913465,49.630001,0.21,-66.220001,1729431633410.0,0.0
-3.285345,0.562313,3.304488,-77.279999,-18.41,-70.349998,1729431633429.0,0.0
-4.029513,0.665205,1.952543,-47.599998,-13.93,-25.83,1729431633450.0,0.0
-6.046663,0.959522,3.232704,14.14,4.55,0.91,1729431633469.0,0.0
-7.869993,-0.650848,5.094319,19.879999,1.96,5.81,1729431633490.0,0.0
-5.62074,1.217947,7.221539,35.84,12.32,29.960001,1729431633510.0,0.0
-5.022535,-0.480957,7.456036,16.030001,18.059999,54.880001,1729431633530.0,0.0
-5.565705,-0.258425,8.391629,-9.87,12.18,56.700001,1729431633550.0,0.0
-6.049056,-2.761317,8.188239,-13.72,10.99,76.580002,1729431633568.0,0.0
-5.225924,-1.213161,6.599405,-45.639999,5.81,84.349998,1729431633591.0,0.0
-9.549755,-18.91287,3.270989,-122.220001,-45.290001,35.84,1729431633610.0,0.0
-7.67139,-7.860423,11.837293,85.68,12.25,45.080002,1729431633631.0,0.0
-5.977271,-2.718246,11.420943,42.560001,2.66,0.35,1729431633649.0,0.0
-5.601598,-6.941578,3.852444,-134.75,-33.670002,-12.25,1729431633669.0,0.0
-7.441679,-3.254239,1.418944,-25.48,-12.74,-10.71,1729431633691.0,0.0
-8.932407,-2.081756,4.07737,27.02,1.75,-7.49,1729431633711.0,0.0
-9.844072,-7.034898,7.355537,0.49,-15.05,-34.02,1729431633735.0,0.0
-7.992027,-12.236896,10.202995,14.28,-18.200001,-55.369999,1729431633748.0,0.0
-2.940779,5.225924,8.556733,64.050003,-2.1,-64.82,1729431633769.0,0.0
-2.9671,0.51685,6.501299,-5.32,9.66,-19.040001,1729431633790.0,0.0
-4.453043,-4.493721,0.184247,-125.090004,-9.24,-45.990002,1729431633810.0,0.0
-5.130211,-0.519243,2.230111,15.4,20.51,0.14,1729431633831.0,0.0
-6.872187,1.445265,6.183054,71.470001,29.049999,18.34,1729431633850.0,0.0
-7.226324,-0.495314,6.30748,54.389999,25.9,33.529999,1729431633868.0,0.0
-5.173282,1.074377,8.01117,39.619999,32.27,43.889999,1729431633890.0,0.0
-4.287938,1.105484,8.614161,20.440001,39.41,74.970001,1729431633910.0,0.0
-6.113662,-1.20359,6.082555,-50.82,24.99,76.090004,1729431633931.0,0.0
-9.4349,-12.729815,3.086741,-70.279999,12.32,71.68,1729431633948.0,0.0
-7.403394,-5.864808,3.76391,-10.29,-14.07,18.9,1729431633968.0,0.0
-8.11167,-3.431308,11.846866,112.139999,21.77,55.790001,1729431633992.0,0.0
-8.898908,-6.943972,9.887143,16.24,28.280001,-10.99,1729431634008.0,0.0
-6.211767,-7.556533,2.541178,-110.459999,-51.310001,-61.389999,1729431634030.0,0.0
-5.388636,-1.998007,2.06022,-13.51,2.8,-24.290001,1729431634047.0,0.0
-8.262416,-3.546163,3.26381,36.540001,11.97,-19.6,1729431634071.0,0.0
-10.492528,-9.276974,10.150353,57.68,-3.85,-45.220001,1729431634092.0,0.0
-8.867801,-7.623533,13.002598,88.760002,-8.89,-70.0,1729431634108.0,0.0
-2.443072,5.297709,8.16431,48.650002,-20.370001,-84.699997,1729431634129.0,0.0
-2.761317,4.029513,2.852244,-33.25,-11.48,-41.16,1729431634150.0,0.0
-5.240282,-1.378266,0.069392,-89.669998,-17.639999,-29.610001,1729431634168.0,0.0
-6.987042,-0.181855,2.658426,10.5,-4.2,-6.37,1729431634190.0,0.0
-8.41795,0.533599,5.156533,63.279999,5.18,7.42,1729431634208.0,0.0
-7.403394,-1.76351,4.761717,31.57,4.2,10.78,1729431634228.0,0.0
-6.91765,-5.568098,3.28056,30.450001,14.49,13.65,1729431634247.0,0.0
-6.23091,-1.311267,5.785845,104.860001,51.380001,32.689999,1729431634270.0,0.0
-6.640083,0.086142,6.132804,100.099998,54.529999,35.209999,1729431634288.0,0.0
-6.290731,-2.639283,7.606783,59.990002,42.630001,41.369999,1729431634308.0,0.0
-6.233303,-8.449057,7.235896,34.439999,28.49,29.960001,1729431634329.0,0.0
-6.396015,-4.350152,10.96152,44.450001,24.5,12.11,1729431634348.0,0.0
-6.139983,-5.486742,9.126225,-57.959999,-9.45,-22.049999,1729431634369.0,0.0
-5.611169,-3.156133,7.152147,-70.0,-13.93,-32.759998,1729431634389.0,0.0
-6.541977,-2.182254,6.860222,-54.389999,-13.09,-26.809999,1729431634408.0,0.0
-7.300502,-0.217747,6.520442,-30.59,-13.440001,-19.18,1729431634430.0,0.0
-8.365308,0.208176,7.484749,-18.969999,-13.58,-8.33,1729431634450.0,0.0
-7.939385,-0.61017,7.032506,-29.120001,-16.309999,0.14,1729431634467.0,0.0
-7.573284,-2.352145,5.647062,-39.549999,-16.52,3.99,1729431634490.0,0.0
-7.558927,-3.558127,5.541777,-33.810001,-11.34,4.76,1729431634509.0,0.0
-7.776673,-4.065405,6.21416,-19.389999,-8.89,2.8,1729431634528.0,0.0
-6.898508,-3.029313,5.79781,-21.700001,-8.12,-3.01,1729431634548.0,0.0
-7.101898,-4.256832,5.087141,-42.07,-7.42,-8.4,1729431634570.0,0.0
-6.537192,-3.393023,4.216154,-35.209999,-2.59,-16.59,1729431634588.0,0.0
-7.62114,-3.828516,3.60359,-12.11,6.23,-14.77,1729431634610.0,0.0
-9.975677,-7.066005,6.817152,4.41,-3.57,-29.120001,1729431634629.0,0.0
-10.820344,-13.100704,10.703095,32.34,-31.360001,-66.849998,1729431634648.0,0.0
-2.806781,2.723032,7.401,91.980003,12.25,-67.410004,1729431634667.0,0.0
-4.163511,-2.108077,2.440679,-39.970001,-13.16,-54.670002,1729431634691.0,0.0
-4.462614,0.452243,1.256232,-41.860001,-2.17,-24.08,1729431634708.0,0.0
-6.673582,0.454636,3.050849,14.35,13.02,4.55,1729431634741.0,0.0
-7.805387,-1.287339,6.017949,26.389999,12.11,12.67,1729431634748.0,0.0
-7.058826,-3.074777,6.819544,39.900002,17.01,21.700001,1729431634769.0,0.0
-6.259624,-1.9669,7.152147,35.84,20.23,21.49,1729431634788.0,0.0
-5.211568,0.557528,8.126025,39.689999,28.559999,36.889999,1729431634810.0,0.0
-5.759524,0.413958,7.133004,3.15,18.059999,50.610001,1729431634828.0,0.0
-4.694718,0.758525,5.788238,-29.75,10.85,59.57,1729431634847.0,0.0
-7.233503,-12.425928,4.393222,-52.709999,0.42,55.790001,1729431634870.0,0.0
-7.57089,-7.558927,5.972485,7.21,-4.13,24.15,1729431634889.0,0.0
-6.994221,-2.321038,10.413565,86.169998,25.9,39.34,1729431634908.0,0.0
-7.62114,-4.685147,6.642475,-58.939999,-12.88,6.09,1729431634931.0,0.0
-5.589634,-4.838287,5.048856,-69.090004,-7.91,0.84,1729431634948.0,0.0
-8.087741,-6.297909,4.608576,-15.54,-3.01,6.37,1729431634967.0,0.0
-8.870193,-2.289931,6.271588,31.99,0.63,-9.1,1729431634989.0,0.0
-8.274381,-3.768696,6.364908,4.27,-4.62,-19.530001,1729431635009.0,0.0
-9.710074,-8.836694,6.376873,-15.12,-12.67,-38.57,1729431635029.0,0.0
-9.422935,-12.413965,10.351351,49.91,-25.549999,-79.169998,1729431635054.0,0.0
-4.957928,-0.210568,10.164711,117.040001,-0.63,-85.120003,1729431635068.0,0.0
-1.038485,3.972085,3.716053,11.34,-9.1,-66.360001,1729431635092.0,0.0
-3.335595,2.574677,-1.526621,-99.190002,-7.14,-38.920002,1729431635107.0,0.0
-6.924829,-1.56012,1.007378,-33.18,-1.12,-7.21,1729431635128.0,0.0
-7.365108,2.529213,5.776274,98.0,23.59,21.35,1729431635147.0,0.0
-8.336594,0.236889,6.690332,59.779999,17.92,27.440001,1729431635170.0,0.0
-5.441278,-0.172283,7.630712,10.5,20.860001,33.110001,1729431635188.0,0.0
-5.058427,1.454836,8.329416,22.33,34.23,63.77,1729431635208.0,0.0
-6.673582,1.655833,7.690532,-7.14,25.9,79.519997,1729431635229.0,0.0
-7.913064,-6.9009,7.331609,-40.599998,31.85,99.540001,1729431635248.0,0.0
-9.229117,-11.069198,2.333002,-109.480003,-29.33,26.67,1729431635268.0,0.0
-8.863015,-6.769295,12.136396,90.160004,13.02,52.360001,1729431635292.0,0.0
-7.814958,-3.84048,9.58804,31.92,2.52,-0.77,1729431635308.0,0.0
-5.644669,-4.82393,5.010571,-84.769997,-11.9,-25.690001,1729431635329.0,0.0
-6.441479,-5.623133,1.600798,-64.75,-6.37,-24.08,1729431635348.0,0.0
-8.260024,-0.753739,5.410172,54.110001,17.780001,-11.2,1729431635368.0,0.0
-8.458629,-2.665605,6.836295,4.9,-4.27,-21.210001,1729431635389.0,0.0
-8.863015,-7.149754,8.551948,-8.89,-10.71,-25.76,1729431635407.0,0.0
-11.440084,-14.431112,11.100305,27.719999,-24.639999,-57.330002,1729431635430.0,0.0
-5.469993,-5.261817,11.794223,89.18,-17.5,-97.230003,1729431635447.0,0.0
-4.335794,0.679562,9.891929,19.879999,-19.389999,-84.629997,1729431635467.0,0.0
-0.744168,2.062613,-1.179662,-97.580002,-29.049999,-75.739998,1729431635489.0,0.0
-5.886343,0.043071,-1.234696,-85.540001,-12.53,-37.029999,1729431635569.0,0.0
-7.4345,2.790031,2.378466,45.080002,10.85,-5.46,1729431635570.0,0.0
-8.161918,3.952943,6.319445,84.139999,21.49,16.309999,1729431635570.0,0.0
-8.260024,-2.29711,6.393622,19.110001,14.49,27.65,1729431635570.0,0.0
-6.625726,-4.773681,6.192625,17.5,25.129999,31.43,1729431635596.0,0.0
-6.281159,-0.835095,7.046863,56.279999,47.810001,45.290001,1729431635610.0,0.0
-6.443871,0.382852,7.501499,32.830002,42.84,53.689999,1729431635628.0,0.0
-5.479564,5.307281,11.255837,6.86,41.439999,77.910004,1729431635648.0,0.0
-6.063413,-3.988836,7.60439,-95.480003,28.35,108.43,1729431635667.0,0.0
-10.911271,-17.510677,8.755339,-166.180008,-50.75,46.619999,1729431635689.0,0.0
-6.836295,-2.902494,12.327823,140.419998,36.610001,14.7,1729431635709.0,0.0
-8.006385,-4.639683,7.039684,-70.07,-17.08,-23.1,1729431635730.0,0.0
-5.309673,-4.096512,3.103491,-127.190002,-20.51,-42.07,1729431635746.0,0.0
-6.65444,-1.931008,1.732404,-43.540001,-4.69,-15.61,1729431635772.0,0.0
-8.044669,0.832702,4.283153,24.43,5.95,-6.09,1729431635788.0,0.0
-9.296116,-2.364109,6.45105,1.4,-2.52,-7.14,1729431635808.0,0.0
-8.468199,-5.292924,7.013363,-31.43,-10.22,-17.99,1729431635829.0,0.0
-9.932607,-9.911072,7.970492,-14.91,-11.55,-35.630001,1729431635848.0,0.0
-9.934999,-15.069997,12.016755,42.0,-35.279999,-82.389999,1729431635868.0,0.0
-4.065405,1.497907,11.492726,101.220001,-14.56,-101.779999,1729431635888.0,0.0
-0.260818,6.814759,6.041877,-13.79,-32.34,-91.699997,1729431635907.0,0.0
-1.744368,4.275974,-4.575077,-136.779999,-24.08,-53.830002,1729431635927.0,0.0
-7.432107,-0.62692,-1.799403,-71.120003,-7.56,-22.26,1729431635948.0,0.0
-7.580462,3.565305,3.986443,116.550003,28.35,25.41,1729431635966.0,0.0
-9.075976,2.378466,6.881758,107.029999,29.82,35.279999,1729431635988.0,0.0
-6.752545,-0.725025,7.070791,13.02,22.120001,36.75,1729431636012.0,0.0
-5.405386,-0.823131,7.88435,16.1,38.779999,60.27,1729431636029.0,0.0
-7.611568,-1.136591,7.235896,26.809999,32.200001,83.580002,1729431636048.0,0.0
-7.956135,-7.092326,7.566105,1.05,39.27,93.519997,1729431636071.0,0.0
-10.011569,-10.767702,5.063213,-114.940002,-38.150002,13.02,1729431636131.0,0.0
-7.329216,-8.097312,10.478169,41.790001,18.690001,42.490002,1729431636141.0,0.0
-7.45125,-6.374479,6.735795,-36.400002,-10.64,-23.379999,1729431636142.0,0.0
-5.706882,-2.330609,5.108676,-58.59,1.47,-25.690001,1729431636146.0,0.0
-7.283752,-2.256432,4.204189,-50.470001,-7.49,-13.02,1729431636166.0,0.0
-8.944371,-2.11047,5.778666,-14.35,-12.67,-8.82,1729431636189.0,0.0
-7.984849,-4.85743,6.417551,-14.98,-16.1,-15.61,1729431636316.0,0.0
-7.688138,-6.594619,6.618547,-69.860001,-25.200001,-26.6,1729431636319.0,0.0
-11.131411,-16.022341,10.624132,-69.93,-20.58,-30.870001,1729431636320.0,0.0
-5.221139,-5.740381,9.817751,-38.43,-33.040001,-49.139999,1729431636321.0,0.0
-2.014757,7.858029,4.761717,3.36,-38.5,-105.0,1729431636322.0,0.0
-2.342573,2.821138,-0.514457,-162.680008,-34.23,-41.369999,1729431636377.0,0.0
-7.618747,-1.526621,0.581456,-136.430008,-34.790001,-14.49,1729431636377.0,0.0
-7.286145,-0.457029,6.266802,45.080002,-4.9,21.210001,1729431636377.0,0.0
-7.573284,-4.144369,5.558527,22.4,-2.87,30.450001,1729431636387.0,0.0
-6.104091,-3.835695,4.297509,25.969999,12.81,38.360001,1729431636407.0,0.0
-4.589434,0.052642,6.266802,70.419998,39.900002,63.91,1729431636426.0,0.0
-4.31426,4.508078,8.114061,29.540001,37.450001,78.400002,1729431636445.0,0.0
-8.678767,-11.081161,5.355137,-76.300003,6.3,87.5,1729431636466.0,0.0
-7.054041,-6.592227,5.848059,-19.879999,-6.93,41.93,1729431636487.0,0.0
-9.911072,-6.106483,11.54537,73.43,24.5,77.419998,1729431636505.0,0.0
-10.033106,-13.667803,8.836694,-88.690002,-30.030001,-6.02,1729431636526.0,0.0
-5.898308,-8.46102,3.48395,-115.639999,-12.18,-46.830002,1729431636546.0,0.0
-8.147561,-7.972885,0.801596,-75.809998,0.14,-59.290001,1729431636565.0,0.0
-6.941578,-2.086541,3.046063,25.27,25.620001,-54.670002,1729431636587.0,0.0
-8.243275,-3.672983,6.573084,51.170002,19.950001,-43.82,1729431636606.0,0.0
-13.184454,-19.881962,11.097912,17.99,-28.84,-76.019997,1729431636626.0,0.0
-4.907679,-9.784252,11.404193,106.470001,-13.23,-128.589996,1729431636645.0,0.0
-3.012564,2.756532,10.076177,59.150002,-5.46,-108.57,1729431636665.0,0.0
0.660419,6.278766,-0.957129,-95.480003,-28.49,-77.209999,1729431636685.0,0.0
-6.30748,-0.849452,0.059821,-61.880001,-15.61,-4.2,1729431636705.0,0.0
-8.492127,-1.418944,3.641876,93.870003,5.04,31.01,1729431636728.0,0.0
-7.489535,-0.777667,5.034499,106.75,17.85,28.700001,1729431636745.0,0.0
-3.809374,2.249253,5.115855,42.630001,30.380001,45.990002,1729431636765.0,0.0
-2.720639,3.424129,4.630112,14.07,40.389999,87.150002,1729431636786.0,0.0
-8.327023,-0.303888,5.4676,10.01,41.580002,127.120003,1729431636805.0,0.0
-9.49472,-11.954542,6.269196,1.68,11.62,105.699997,1729431636826.0,0.0
-11.447264,-5.508278,11.846866,41.650002,38.150002,112.910004,1729431636845.0,0.0
-11.485549,-13.208381,10.392029,-101.57,-20.370001,47.459999,1729431636865.0,0.0
-8.453842,-19.456039,6.15434,-157.149994,-41.369999,-11.55,1729431636886.0,0.0
-6.9009,-12.650853,1.935793,-35.98,4.76,-59.779999,1729431636908.0,0.0
-5.371887,-2.371287,3.471986,50.049999,32.060001,-75.879997,1729431636926.0,0.0
-9.432507,-8.69791,5.905487,33.670002,8.89,-73.360001,1729431636945.0,0.0
-7.523034,-12.504892,8.516055,74.760002,-8.19,-104.300003,1729431636966.0,0.0
-6.750153,-11.68176,11.954542,117.879997,-13.440001,-136.850006,1729431636986.0,0.0
-2.59382,4.761717,12.004791,100.800003,-5.39,-136.990005,1729431637005.0,0.0
0.334995,8.84148,0.387637,-23.73,-28.210001,-55.369999,1729431637026.0,0.0
-9.06162,-4.287938,0.72024,-187.180008,-43.889999,-5.88,1729431637045.0,0.0
-8.013563,-6.513263,1.409373,43.470001,-28.91,17.57,1729431637065.0,0.0
-6.582655,4.381258,5.608776,158.619995,27.09,34.439999,1729431637092.0,0.0
-3.826123,9.501899,5.52742,47.670002,31.99,71.959999,1729431637107.0,0.0
-5.898308,-0.354138,3.086741,-87.57,27.440001,101.150002,1729431637126.0,0.0
-9.84168,-10.58824,1.347159,-2.59,16.870001,105.0,1729431637148.0,0.0
-14.835501,-4.792823,13.708481,153.020004,67.690002,131.880005,1729431637166.0,0.0
-12.524034,-16.421942,12.088539,-11.34,-10.64,30.59,1729431637188.0,0.0
-4.979464,-14.443078,7.558927,-75.110001,-18.690001,-27.719999,1729431637207.0,0.0
-6.278766,-8.171489,4.800002,-25.9,14.42,-53.060001,1729431637227.0,0.0
-4.197011,-0.598206,3.48395,-11.69,12.53,-59.360001,1729431637247.0,0.0
-6.920043,0.334995,5.986843,23.17,7.14,-25.76,1729431637267.0,0.0
-8.506484,-3.314059,7.329216,11.48,-27.719999,-26.950001,1729431637292.0,0.0
-8.616554,-6.9679,7.357929,-3.29,-48.720001,-38.360001,1729431637307.0,0.0
-10.475778,-8.578269,7.903493,-3.85,-65.449997,-61.389999,1729431637328.0,0.0
-6.738188,-2.785245,6.972685,-6.3,-70.910004,-81.970001,1729431637346.0,0.0
-5.474778,-3.615555,4.161119,-91.699997,-84.419998,-74.199997,1729431637368.0,0.0
-5.4006,-3.328416,3.144169,-122.919998,-74.620003,-61.459999,1729431637389.0,0.0
-6.089733,-1.471586,7.776673,-93.169998,-85.68,-42.279999,1729431637408.0,0.0
-6.845865,-2.392823,9.695717,-45.290001,-76.720001,-3.29,1729431637428.0,0.0
-4.675575,-0.760918,7.948956,-126.07,-96.599998,-9.59,1729431637448.0,0.0
-3.125026,-5.190032,8.023134,-232.960007,-105.07,2.24,1729431637469.0,0.0
-1.083949,-8.853443,4.63729,-310.730011,-117.32,-20.860001,1729431637489.0,0.0
0.605384,-11.210374,2.29711,-252.770004,-112.910004,-20.23,1729431637509.0,0.0
0.394816,-11.270195,1.136591,-138.110001,-78.120003,-17.08,1729431637528.0,0.0
0.275175,-11.779866,0.748954,-66.849998,-50.610001,-30.73,1729431637548.0,0.0
0.588634,-12.263215,0.672383,-15.82,-27.58,-42.490002,1729431637568.0,0.0
-0.153141,-12.461821,2.07697,32.48,2.59,-48.02,1729431637592.0,0.0
-1.167697,-10.597812,2.782853,44.099998,22.960001,-54.670002,1729431637609.0,0.0
-1.395016,-8.85105,1.935793,20.65,31.710001,-61.740002,1729431637629.0,0.0
-3.038885,-10.782058,3.749553,29.540001,45.5,-69.860001,1729431637648.0,0.0
-3.239882,-6.977471,3.876373,122.989998,36.889999,-61.880001,1729431637668.0,0.0
-2.495714,-1.959722,5.570491,226.589996,51.52,-27.23,1729431637689.0,0.0
-1.804188,3.050849,7.661818,211.050003,45.920002,15.26,1729431637708.0,0.0
-2.572284,3.775874,12.966705,67.550003,23.799999,39.759998,1729431637731.0,0.0
-5.355137,-2.067399,11.80858,-80.919998,-11.27,55.720001,1729431637748.0,0.0
-2.907279,-5.340781,6.262017,-149.029999,-36.189999,63.07,1729431637769.0,0.0
-2.163112,-8.315059,3.859623,-162.680008,-33.459999,68.040001,1729431637790.0,0.0
-4.364508,-8.767302,4.091727,-137.199997,-22.26,75.459999,1729431637812.0,0.0
-5.113462,-8.817552,3.981657,-109.900002,-19.18,80.010002,1729431637828.0,0.0
-4.065405,-8.281559,1.715654,-98.769997,-19.460001,65.519997,1729431637847.0,0.0
-2.589034,-6.84108,-0.870987,-45.43,-8.47,73.989998,1729431637868.0,0.0
-4.321437,-9.207582,1.342373,34.369999,8.68,77.139999,1729431637890.0,0.0
-5.52742,-4.412365,3.584448,137.270004,26.32,87.5,1729431637909.0,0.0
-7.164111,-2.916851,5.781059,139.440002,29.190001,94.57,1729431637929.0,0.0
-9.367901,-9.879964,7.939385,5.67,4.83,56.700001,1729431637948.0,0.0
-6.618547,-12.41875,3.706482,-107.940002,-21.280001,17.01,1729431637968.0,0.0
-4.254438,-10.181459,2.897708,-48.580002,-19.809999,-5.18,1729431637990.0,0.0
-4.965107,-7.649854,3.09392,23.66,-0.42,6.09,1729431638008.0,0.0
-5.771489,-8.035098,1.85683,18.620001,5.6,-3.92,1729431638028.0,0.0
-6.283553,-9.056834,3.361916,20.65,12.25,-15.47,1729431638048.0,0.0
-6.630512,-7.869993,5.864808,46.41,19.040001,-24.01,1729431638068.0,0.0
-6.91765,-8.243275,7.393822,25.41,15.61,-38.290001,1729431638089.0,0.0
-6.963113,-8.154739,3.897908,-63.209999,8.61,-67.059998,1729431638108.0,0.0
-4.792823,-11.100305,2.651247,-112.629997,11.34,-81.830002,1729431638130.0,0.0
-3.24706,-13.600803,3.48395,-68.25,15.96,-84.629997,1729431638147.0,0.0
-2.916851,-5.458029,0.375673,-35.77,32.689999,-83.160004,1729431638168.0,0.0
-1.854438,-6.013163,3.189633,28.139999,15.4,-68.25,1729431638188.0,0.0
-1.897508,-3.639483,7.345965,127.190002,7.84,-40.880001,1729431638208.0,0.0
-3.864408,0.758525,12.897314,143.919998,-6.09,-17.57,1729431638228.0,0.0
-3.885944,0.756132,9.688539,7.49,-31.360001,-6.09,1729431638247.0,0.0
-2.266003,-3.196811,6.175875,-123.830002,-38.360001,-4.83,1729431638267.0,0.0
-0.105284,-6.429514,4.177868,-146.300003,-21.07,15.4,1729431638289.0,0.0
-2.423929,-8.183454,3.85723,-85.330002,10.57,48.650002,1729431638308.0,0.0
-2.435893,-6.836295,3.634698,-15.82,14.42,72.870003,1729431638328.0,0.0
-2.344966,-8.166703,4.48415,25.620001,0.35,76.510002,1729431638348.0,0.0
-3.955336,-4.309474,3.972085,71.190002,-15.61,85.889999,1729431638368.0,0.0
-6.972685,-9.229117,8.927622,104.93,-23.940001,116.340004,1729431638389.0,0.0
-9.592826,-7.54457,0.502493,-9.31,-30.799999,71.050003,1729431638408.0,0.0
-8.260024,-13.591233,-0.768096,-119.349998,-29.610001,33.32,1729431638429.0,0.0
-6.460621,-14.821144,-2.115255,-83.510002,-18.200001,-10.22,1729431638448.0,0.0
-6.257231,-10.473385,0.504886,61.950001,16.940001,-12.88,1729431638469.0,0.0
-6.896115,-7.9346,5.003392,122.849998,28.07,-26.18,1729431638489.0,0.0
-6.80758,-8.590233,7.89153,74.269997,17.780001,-42.98,1729431638509.0,0.0
-6.522834,-10.353743,4.749753,-0.21,7.28,-61.25,1729431638529.0,0.0
-5.891129,-9.827322,-1.325624,-89.32,20.93,-90.860001,1729431638548.0,0.0
-3.883551,-14.591432,-0.244068,-95.550003,31.99,-120.68,1729431638567.0,0.0
-1.76351,-9.815358,0.284746,-28.630001,54.18,-125.300003,1729431638592.0,0.0
2.469393,-7.334002,9.004191,155.75,36.259998,-84.07,1729431638607.0,0.0
0.349352,3.089134,13.655839,263.899994,8.68,-32.27,1729431638628.0,0.0
-6.881758,-0.543171,9.590433,6.93,-34.439999,-9.8,1729431638650.0,0.0
-2.574677,-5.663811,4.546363,-138.180008,-54.599998,-19.389999,1729431638667.0,0.0
0.086142,-5.642276,4.017549,-76.370003,-21.139999,-3.85,1729431638690.0,0.0
-1.107877,-3.680161,6.647261,16.52,30.52,46.060001,1729431638708.0,0.0
-3.704089,-5.639884,6.82433,-2.45,35.349998,70.0,1729431638731.0,0.0
-3.756732,-5.094319,4.146761,-49.209999,20.93,85.400002,1729431638748.0,0.0
-3.921836,-6.116055,1.801795,-46.27,-10.36,86.169998,1729431638768.0,0.0
-4.149154,-7.104291,3.419343,59.849998,-14.7,108.989998,1729431638789.0,0.0
-7.975278,-15.850057,8.614161,82.599998,-19.879999,81.830002,1729431638807.0,0.0
-8.693125,-9.705289,-0.526421,-79.590004,-21.280001,43.540001,1729431638829.0,0.0
-5.290531,-14.701502,-4.716253,-127.75,-32.689999,1.68,1729431638847.0,0.0
-4.924429,-12.782458,-1.643869,18.059999,10.78,-0.49,1729431638868.0,0.0
-7.300502,-9.233903,3.062813,153.369995,40.18,-5.25,1729431638889.0,0.0
-8.106883,-6.60419,7.32443,150.919998,35.0,-33.599998,1729431638907.0,0.0
-6.860222,-6.553941,11.131411,64.889999,10.64,-59.920002,1729431638930.0,0.0
-7.463214,-8.523234,6.206983,-42.209999,2.31,-87.010002,1729431638948.0,0.0
-5.079963,-6.652047,2.395216,-117.18,21.49,-105.699997,1729431638968.0,0.0
1.469193,-6.939186,11.593226,-5.95,23.17,-82.389999,1729431638989.0,0.0
1.639083,1.387837,14.770894,148.610001,7.77,-14.49,1729431639009.0,0.0
-4.199404,2.151148,11.464014,42.07,2.1,30.380001,1729431639028.0,0.0
-3.452843,-4.177868,6.833901,-174.860001,-17.639999,19.32,1729431639047.0,0.0
-1.730011,-9.913465,5.008178,-184.169998,-13.09,17.92,1729431639068.0,0.0
-3.883551,-8.772088,4.12044,-69.860001,5.81,45.220001,1729431639088.0,0.0
-3.680161,-4.953143,1.954936,-11.76,5.46,76.300003,1729431639107.0,0.0
-2.380858,-6.76451,0.435494,-18.41,-20.65,82.459999,1729431639134.0,0.0
-3.132205,-5.565705,-0.33021,61.740002,-24.01,96.739998,1729431639148.0,0.0
-8.671589,-17.73321,8.920443,188.020004,-18.969999,127.68,1729431639171.0,0.0
-11.028521,-4.969893,-0.0335,-18.83,-30.380001,52.849998,1729431639189.0,0.0
-7.700103,-15.376277,-4.481757,-182.070007,-50.75,14.98,1729431639208.0,0.0
-3.84048,-17.807386,-2.428715,-60.200001,-22.120001,-25.620001,1729431639228.0,0.0
-6.343372,-7.520642,4.575077,188.789993,39.970001,-14.35,1729431639250.0,0.0
-10.100104,-3.294917,10.82513,182.139999,39.060001,-16.799999,1729431639267.0,0.0
-7.405786,-9.320045,2.105684,-161.350006,-6.58,-98.0,1729431639289.0,0.0
-5.02732,-10.762917,-1.239482,-226.589996,21.98,-129.220001,1729431639311.0,0.0
-2.007578,-11.538191,-2.37368,-133.979996,39.689999,-130.479996,1729431639331.0,0.0
1.828116,-6.565905,6.611369,179.759995,34.720001,-80.57,1729431639349.0,0.0
-3.125026,3.5007,16.11566,220.5,54.599998,-38.709999,1729431639369.0,0.0
-2.009971,4.4339,11.880364,14.28,1.96,-28.559999,1729431639389.0,0.0
-0.490529,-3.460021,10.607382,-112.770004,-33.18,-10.01,1729431639409.0,0.0
-2.438286,-6.470192,8.219346,-78.75,-29.26,25.059999,1729431639430.0,0.0
-5.02732,-6.240481,4.744967,-36.189999,-19.879999,53.27,1729431639448.0,0.0
-4.335794,-5.838487,2.589034,-48.509998,-23.52,70.629997,1729431639468.0,0.0
-3.06042,-4.82393,-0.16989,-34.439999,-36.330002,75.389999,1729431639491.0,0.0
-3.907479,-8.80798,0.677169,47.110001,-37.66,111.580002,1729431639509.0,0.0
-7.843673,-13.107882,6.664011,135.029999,-28.559999,127.470001,1729431639531.0,0.0
-10.82513,-6.312266,-0.949951,135.029999,-28.42,52.57,1729431639549.0,0.0
-8.343772,-11.375479,-2.656033,-150.080002,-40.670002,41.439999,1729431639569.0,0.0
-3.582055,-14.246865,-3.156133,-8.96,-18.83,2.38,1729431639590.0,0.0
-6.13759,-8.212167,0.87338,187.529999,36.119999,-3.71,1729431639610.0,0.0
-8.872586,-5.642276,5.678168,189.839996,44.73,-21.559999,1729431639630.0,0.0
-6.80758,-9.468399,8.018349,51.59,16.799999,-71.470001,1729431639650.0,0.0
-7.147361,-10.317852,4.115655,-68.809998,33.389999,-113.260002,1729431639673.0,0.0
-4.962714,-8.348558,-0.332602,-123.410004,54.25,-129.220001,1729431639691.0,0.0
1.694118,-8.195417,7.84128,5.67,33.599998,-118.160004,1729431639711.0,0.0
-0.447458,-0.658026,12.875778,189.070007,45.009998,-51.450001,1729431639734.0,0.0
-3.905087,3.756732,12.617353,116.620003,19.879999,-26.530001,1729431639749.0,0.0
-0.89013,-1.201197,8.874979,-65.449997,-15.82,-21.07,1729431639770.0,0.0
-1.730011,-6.319445,7.06122,-102.970001,-14.0,-7.7,1729431639793.0,0.0
-3.469593,-8.556733,7.800602,-4.06,1.12,36.259998,1729431639810.0,0.0
-5.091926,-4.302295,4.73061,17.360001,5.6,46.900002,1729431639830.0,0.0
-3.139383,-2.289931,2.440679,22.469999,-2.59,77.139999,1729431639854.0,0.0
-3.617948,-7.372287,2.62732,13.65,-16.17,84.559998,1729431639872.0,0.0
-8.260024,-10.966305,7.180861,60.689999,-27.65,92.470001,1729431639893.0,0.0
-8.642875,-6.778866,2.155933,-28.700001,-23.52,61.740002,1729431639910.0,0.0
-7.185646,-12.394822,-2.864209,-167.789993,-46.900002,23.799999,1729431639930.0,0.0
-3.893122,-14.536398,-2.282753,-77.769997,-28.280001,-0.77,1729431639949.0,0.0
-5.699703,-10.085747,0.571885,91.489998,13.16,4.06,1729431639972.0,0.0
-7.88435,-6.111269,5.426922,139.789993,25.690001,-7.0,1729431639994.0,0.0
-5.938986,-6.070591,8.025528,58.170002,9.59,-41.439999,1729431640011.0,0.0
-6.597012,-7.106683,6.190232,-13.72,6.16,-60.970001,1729431640029.0,0.0
-6.89133,-8.537591,3.306881,-104.370003,16.1,-87.150002,1729431640049.0,0.0
-3.426522,-10.116854,-0.366102,-138.880005,34.369999,-101.849998,1729431640071.0,0.0
3.294917,-9.829715,9.336794,51.029999,33.810001,-78.959999,1729431640091.0,0.0
-0.342174,2.739782,15.634703,244.930008,47.740002,-9.45,1729431640109.0,0.0
-4.582255,4.785645,12.988241,107.029999,24.08,24.01,1729431640130.0,0.0
-4.07737,-4.776074,6.860222,-146.229996,-5.95,0.63,1729431640149.0,0.0
-4.74736,-8.9683,5.381458,-143.570007,-3.01,2.52,1729431640170.0,0.0
-5.412565,-8.69791,6.573084,-39.830002,2.87,24.08,1729431640191.0,0.0
-5.173282,-6.139983,4.141976,-28.42,-2.1,23.799999,1729431640210.0,0.0
-1.768296,-4.82393,-1.806581,-49.700001,-13.72,32.970001,1729431640230.0,0.0
-2.09372,-4.744967,-1.591227,89.809998,-14.14,81.480003,1729431640250.0,0.0
-4.955536,-2.770889,4.249653,267.049988,2.94,124.529999,1729431640272.0,0.0
-11.064411,-8.817552,10.966305,249.270004,6.65,130.339996,1729431640290.0,0.0
-13.722836,-8.298308,5.520242,-88.900002,-3.85,65.239998,1729431640309.0,0.0
-7.094719,-20.528025,-0.595813,-266.48999,-63.700001,-38.220001,1729431640330.0,0.0
-1.706082,-15.979269,1.471586,-35.98,-17.5,-32.900002,1729431640349.0,0.0
-7.066005,-3.347559,7.209574,170.100006,38.009998,-8.4,1729431640369.0,0.0
-9.119047,-6.108876,7.74796,32.34,21.0,-39.689999,1729431640390.0,0.0
-7.45125,-13.000205,0.224925,-227.779999,10.78,-111.580002,1729431640409.0,0.0
-3.156133,-15.859629,-1.57687,-239.75,28.0,-148.539993,1729431640429.0,0.0
0.933201,-9.489935,2.069792,-22.540001,48.509998,-126.419998,1729431640451.0,0.0
1.06002,2.632105,8.65484,305.619995,51.240002,-49.77,1729431640470.0,0.0
-3.510271,10.858629,15.747166,278.25,56.0,5.88,1729431640490.0,0.0
-6.338587,3.98405,16.58226,-32.34,9.94,4.9,1729431640579.0,0.0
-6.482157,-2.955136,7.113862,-224.910004,-32.759998,0.42,1729431640579.0,0.0
-7.180861,-10.444671,6.802795,-170.869995,-44.52,11.34,1729431640579.0,0.0
-3.754339,-3.572484,1.758725,-100.029999,-37.799999,21.84,1729431640580.0,0.0
-1.320838,-1.696511,-3.330809,-39.830002,-39.619999,62.369999,1729431640592.0,0.0
-2.158326,-7.389036,1.385444,89.389999,-31.43,101.919998,1729431640609.0,0.0
-8.568698,-10.152746,10.705488,249.759995,0.77,140.770004,1729431640630.0,0.0
-11.581261,-6.228518,6.635297,74.340004,4.9,84.209999,1729431640649.0,0.0
-11.050055,-14.679967,-1.258625,-246.399994,-30.309999,11.2,1729431640669.0,0.0
-3.148954,-23.468803,-4.173083,-158.970001,-51.939999,-52.5,1729431640691.0,0.0
-3.010171,-7.094719,2.498107,179.690002,32.27,-16.450001,1729431640709.0,0.0
-8.212167,-1.808974,10.102496,210.910004,29.889999,-8.05,1729431640732.0,0.0
-7.197611,-8.130811,2.957529,-82.110001,-2.59,-79.029999,1729431640750.0,0.0
-5.611169,-17.675781,-2.660819,-247.589996,4.48,-141.539993,1729431640769.0,0.0
-1.536192,-14.301902,-1.823331,-105.910004,37.099998,-148.539993,1729431640790.0,0.0
2.533999,-0.971486,13.299308,232.470001,40.459999,-71.120003,1729431640810.0,0.0
-1.339981,11.748759,16.153946,290.779999,31.780001,-3.15,1729431640829.0,0.0
-6.436693,4.962714,16.091732,25.549999,9.38,17.57,1729431640848.0,0.0
-6.221339,-4.532006,8.805587,-229.389999,-26.040001,-5.74,1729431640869.0,0.0
-5.98445,-8.980263,6.156733,-198.449997,-33.110001,7.42,1729431640889.0,0.0
-4.728218,-5.565705,2.395216,-84.840004,-20.23,27.16,1729431640910.0,0.0
-3.024528,-7.972885,0.155533,-90.720001,-24.360001,35.490002,1729431640930.0,0.0
-0.009571,-6.080163,-5.589634,-25.34,-29.33,40.810001,1729431640948.0,0.0
-1.007378,-8.590233,1.402194,196.839996,-11.13,90.090004,1729431640968.0,0.0
-9.090333,-9.573684,11.662617,320.880005,12.81,127.050003,1729431640990.0,0.0
-11.827723,-5.99402,6.008378,73.220001,3.29,67.830002,1729431641009.0,0.0
-8.4012,-13.79223,-0.665205,-217.070007,-45.920002,-11.69,1729431641029.0,0.0
-2.921637,-18.350555,-1.48355,-93.449997,-39.130001,-39.689999,1729431641050.0,0.0
-5.13739,-5.69731,5.07757,187.809998,29.540001,-16.799999,1729431641070.0,0.0
-8.396415,-2.368894,9.846465,146.160004,31.08,-27.440001,1729431641090.0,0.0
-7.305287,-7.980063,4.23051,-121.449997,7.56,-85.75,1729431641109.0,0.0
-4.508078,-11.454442,-2.378466,-244.229996,18.9,-120.610001,1729431641130.0,0.0
-0.736989,-11.949757,-3.225525,-156.729996,28.280001,-124.32,1729431641148.0,0.0
3.337988,-3.555735,11.174481,213.289993,38.920002,-51.380001,1729431641170.0,0.0
-1.919044,7.422535,14.309079,242.690002,34.790001,3.36,1729431641192.0,0.0
-5.462814,2.423929,14.797215,-7.77,9.45,9.8,1729431641210.0,0.0
-4.867002,-5.283352,6.149554,-228.830002,-28.210001,-8.05,1729431641229.0,0.0
-5.067998,-11.854043,6.463014,-108.639999,-19.040001,22.33,1729431641248.0,0.0
-5.331209,-6.850651,1.339981,-62.93,-6.79,29.82,1729431641271.0,0.0
-2.294717,-7.077969,-1.107877,-58.029999,-17.290001,33.32,1729431641292.0,0.0
-0.069392,-7.601997,0.787239,77.699997,-14.91,66.639999,1729431641310.0,0.0
-3.160919,-4.424329,4.333402,274.679993,0.42,105.07,1729431641329.0,0.0
-9.726824,-1.804188,6.948757,296.100006,9.03,143.080002,1729431641356.0,0.0
-10.758131,-5.000999,5.974878,2.87,-17.57,76.300003,1729431641370.0,0.0
-8.855836,-13.966907,2.388037,-232.75,-49.84,14.0,1729431641390.0,0.0
-5.728417,-16.520048,-1.947758,-183.190002,-44.66,-20.23,1729431641410.0,0.0
-4.924429,-10.018748,0.835095,20.860001,4.2,-13.93,1729431641429.0,0.0
-6.271588,-6.702296,5.012963,98.910004,15.4,-21.35,1729431641449.0,0.0
-6.053841,-6.096912,6.771688,40.040001,5.46,-36.330002,1729431641472.0,0.0
-5.515456,-7.846066,3.455236,-67.340004,0.84,-53.900002,1729431641492.0,0.0
-5.422136,-10.999805,0.583849,-152.809998,12.88,-73.989998,1729431641510.0,0.0
-3.756732,-13.950156,1.952543,-129.149994,26.74,-89.389999,1729431641531.0,0.0
-0.899701,-9.178867,0.526421,-122.150002,48.580002,-91.910004,1729431641551.0,0.0
3.981657,-5.690133,13.155738,149.940002,8.75,-55.93,1729431641570.0,0.0
-3.457629,2.794817,14.177474,208.949997,9.31,12.88,1729431641594.0,0.0
-8.977871,-0.0335,11.502297,0.14,-9.8,11.55,1729431641613.0,0.0
-5.575277,-6.939186,5.558527,-187.529999,-34.23,-30.380001,1729431641631.0,0.0
-3.919443,-10.303494,3.412165,-135.449997,-17.290001,-21.139999,1729431641652.0,0.0
-3.321238,-8.975478,3.278167,-33.529999,2.73,-2.94,1729431641670.0,0.0
-2.35693,-8.989835,3.371487,-22.68,3.57,3.29,1729431641693.0,0.0
-2.979064,-10.561919,2.17029,-43.189999,2.73,-1.61,1729431641712.0,0.0
-4.022335,-9.726824,1.741975,-16.450001,3.92,-2.59,1729431641733.0,0.0
-4.113262,-8.109276,2.266003,12.04,1.19,-3.92,1729431641750.0,0.0
-3.955336,-8.123632,3.058028,7.35,-3.5,-9.73,1729431641770.0,0.0
-3.876373,-7.984849,3.613162,-3.43,-9.31,-13.16,1729431641793.0,0.0
-4.740182,-7.326823,3.59402,-17.08,-14.28,-16.450001,1729431641812.0,0.0
-5.340781,-6.977471,3.29731,-48.16,-21.77,-25.34,1729431641832.0,0.0
-5.376673,-6.285945,3.041277,-67.129997,-25.34,-30.450001,1729431641851.0,0.0
-5.271388,-6.204589,3.175276,-88.760002,-29.049999,-34.650002,1729431641873.0,0.0
-5.168497,-6.876972,2.945565,-122.220001,-35.139999,-35.98,1729431641893.0,0.0
-4.941179,-7.977671,2.203789,-170.520004,-48.369999,-37.240002,1729431641912.0,0.0
-5.06082,-10.607382,1.768296,-204.190002,-56.630001,-45.290001,1729431641932.0,0.0
-4.591826,-12.734602,-0.555135,-222.529999,-64.260002,-67.760002,1729431641953.0,0.0
-3.146562,-11.473583,-1.852045,-187.949997,-65.169998,-79.099998,1729431641971.0,0.0
-2.35693,-8.982656,-1.663012,-126.139999,-58.310001,-64.889999,1729431641994.0,0.0
-1.816152,-6.9344,-1.529014,-85.050003,-52.990002,-49.139999,1729431642012.0,0.0
-0.76331,-6.285945,-1.057628,-77.209999,-50.610001,-33.32,1729431642032.0,0.0
0.404387,-7.601997,-1.612763,-82.459999,-49.139999,-25.41,1729431642053.0,0.0
1.284946,-8.346166,-2.646462,-68.110001,-42.630001,-17.57,1729431642076.0,0.0
1.138984,-8.305488,-2.648855,-48.16,-26.530001,0.21,1729431642092.0,0.0
1.048056,-7.592427,-2.974278,-71.050003,-12.95,9.45,1729431642113.0,0.0
0.777667,-7.762317,-3.48395,-118.93,-0.49,16.450001,1729431642132.0,0.0
0.260818,-9.286544,-5.582455,-153.789993,12.74,22.889999,1729431642152.0,0.0
-0.138784,-9.822537,-6.809973,-169.050003,24.15,28.630001,1729431642172.0,0.0
-0.42353,-9.29133,-7.063612,-174.020004,33.32,31.57,1729431642193.0,0.0
-1.828116,-11.057234,-6.367301,-171.080002,44.170002,34.09,1729431642211.0,0.0
-2.845066,-13.158132,-6.403193,-138.600006,51.52,23.030001,1729431642231.0,0.0
-2.548356,-14.110476,-5.225924,-55.369999,44.59,16.73,1729431642252.0,0.0
-2.813959,-12.746566,-2.40718,47.25,44.939999,11.76,1729431642271.0,0.0
-2.151148,-11.260624,-1.777867,111.580002,28.49,3.08,1729431642294.0,0.0
-1.131805,-10.303494,-1.823331,138.740005,25.059999,-2.73,1729431642311.0,0.0
-1.383051,-8.645268,-0.043071,157.009995,26.460001,1.4,1729431642332.0,0.0
-2.447858,-7.597212,1.167697,146.160004,19.32,7.14,1729431642351.0,0.0
-4.256832,-8.25763,3.275774,78.540001,7.28,7.14,1729431642371.0,0.0
-3.74716,-9.762716,1.29691,-23.24,-23.52,-10.5,1729431642395.0,0.0
-1.682154,-10.102496,-0.602991,-76.93,-45.709999,-16.1,1729431642411.0,0.0
-1.919044,-10.377672,-1.06002,-76.370003,-53.200001,-21.91,1729431642433.0,0.0
-2.567499,-9.32483,-1.78026,-69.019997,-60.619999,-27.719999,1729431642451.0,0.0
-2.70389,-10.482956,-3.436093,-68.529999,-69.510002,-28.210001,1729431642471.0,0.0
-2.443072,-11.351551,-6.67119,-61.389999,-68.949997,-34.439999,1729431642494.0,0.0
-2.63689,-9.475577,-7.410572,-25.129999,-38.150002,-35.630001,1729431642511.0,0.0
-3.050849,-8.250452,-6.850651,-8.26,-12.53,-28.77,1729431642531.0,0.0
-3.237489,-7.788638,-8.092526,14.07,10.92,-16.52,1729431642551.0,0.0
-2.007578,-6.84108,-8.059027,27.23,23.799999,-9.87,1729431642571.0,0.0
-1.643869,-7.001399,-5.958128,42.84,37.099998,1.05,1729431642594.0,0.0
-2.419144,-7.690532,-4.479364,37.66,34.790001,-1.68,1729431642612.0,0.0
-3.201597,-8.860621,-5.809773,30.450001,26.67,-10.15,1729431642632.0,0.0
-1.423729,-9.516255,-4.639683,59.639999,20.440001,-14.49,1729431642650.0,0.0
-1.031307,-9.889536,-4.575077,91.209999,24.01,-11.76,1729431642672.0,0.0
-1.732404,-10.140782,-4.101298,90.230003,30.030001,-20.02,1729431642691.0,0.0
-1.799403,-10.514063,-2.486143,77.419998,44.099998,-28.139999,1729431642711.0,0.0
-0.394816,-7.530212,-0.849452,73.080002,48.439999,-19.809999,1729431642734.0,0.0
0.023928,-10.171888,4.388437,121.870003,30.940001,0.98,1729431642751.0,0.0
-0.729811,-10.411172,-0.926022,104.300003,8.4,-16.24,1729431642771.0,0.0
-1.864009,-9.568897,-5.065606,72.940002,29.190001,-13.65,1729431642793.0,0.0
0.4666,-10.200603,7.379465,49.700001,41.02,-6.02,1729431642811.0,0.0
0.334995,-9.600004,2.718246,16.52,8.05,-10.71,1729431642831.0,0.0
-0.928415,-10.092925,-1.928615,-24.360001,-14.56,-18.690001,1729431642852.0,0.0
0.150748,-9.602397,-1.741975,-3.99,-6.58,-18.48,1729431642871.0,0.0
-0.064606,-9.360723,-1.495514,-4.62,3.08,-13.23,1729431642892.0,0.0
-1.51705,-8.496914,-0.16989,-20.93,10.36,-11.06,1729431642912.0,0.0
-2.507678,-8.898908,-0.157926,-28.559999,-2.17,-3.71,1729431642931.0,0.0
-2.9671,-9.32483,0.789631,6.86,-10.64,2.03,1729431642951.0,0.0
-2.952743,-9.425328,0.057428,39.549999,-10.5,7.7,1729431642971.0,0.0
-0.98345,-9.001799,0.504886,34.09,-9.8,6.51,1729431642992.0,0.0
0.502493,-9.320045,1.06002,4.55,-9.24,3.78,1729431643011.0,0.0
1.789831,-9.487542,0.22014,5.18,-18.690001,11.13,1729431643032.0,0.0
1.998007,-9.442079,1.002593,42.139999,-21.77,14.28,1729431643051.0,0.0
-2.648855,-8.65484,-2.78046,47.32,-7.7,27.440001,1729431643071.0,0.0
-0.619741,-9.705289,-3.579663,-49.0,-18.969999,10.57,1729431643093.0,0.0
1.507478,-11.854043,-4.036692,-123.129997,-38.990002,-0.42,1729431643111.0,0.0
-0.837488,-11.866007,-7.45125,-103.389999,-23.17,-10.5,1729431643131.0,0.0
-1.813759,-10.188639,-5.393422,-37.029999,-5.6,-8.89,1729431643153.0,0.0
-1.397408,-10.176675,-3.52702,-5.46,-0.14,-22.68,1729431643170.0,0.0
-1.51705,-10.217353,-0.40678,9.17,4.9,-18.48,1729431643193.0,0.0
-2.100898,-9.052048,0.677169,-7.84,0.21,-23.24,1729431643211.0,0.0
-1.892723,-8.932407,-0.394816,-37.310001,-15.47,-19.74,1729431643231.0,0.0
-0.5001,-9.793823,-1.112662,-41.720001,-19.32,-21.139999,1729431643250.0,0.0
-0.435494,-9.578469,-1.265803,-21.139999,-13.51,-16.73,1729431643271.0,0.0
-1.445265,-9.420543,-1.974079,-10.01,-8.19,-10.36,1729431643292.0,0.0
-1.153341,-9.403792,-1.923829,-21.98,-7.63,-8.96,1729431643311.0,0.0
-0.701097,-9.700503,-2.739782,-24.219999,-8.26,-5.67,1729431643333.0,0.0
-0.760918,-10.006784,-3.177669,-2.94,-6.23,-3.36,1729431643351.0,0.0
-1.706082,-9.657433,-2.423929,16.309999,-3.64,0.28,1729431643371.0,0.0
-2.261217,-9.016156,-1.976472,23.17,-2.87,2.03,1729431643398.0,0.0
-1.282553,-9.095119,-2.404787,10.5,-4.34,1.47,1729431643411.0,0.0
-1.421337,-10.542776,-1.57687,-11.2,6.37,4.06,1729431643431.0,0.0
-1.648655,-12.741781,-2.213361,-6.3,16.1,6.51,1729431643453.0,0.0
-0.947558,-11.990433,-1.258625,22.610001,28.210001,3.22,1729431643470.0,0.0
0.31346,-9.449257,-1.485943,40.25,36.189999,-8.61,1729431643492.0,0.0
-0.87338,-8.961121,-5.749953,-8.12,37.799999,-15.82,1729431643513.0,0.0
-2.344966,-9.013763,-4.4674,-77.279999,51.170002,-24.01,1729431643532.0,0.0
-1.347159,-9.71486,-10.772489,-72.099998,39.900002,-25.129999,1729431643551.0,0.0
-1.383051,-8.889337,-10.437491,35.700001,74.900002,-7.0,1729431643573.0,0.0
-0.634098,-4.931608,8.872586,79.169998,73.639999,19.32,1729431643592.0,0.0
5.895915,-8.480164,3.67059,-18.549999,-37.66,-2.17,1729431643612.0,0.0
1.758725,-12.337393,5.625526,-131.669998,-33.810001,-26.74,1729431643633.0,0.0
-3.550949,-13.579268,1.275374,-98.419998,-18.620001,-39.130001,1729431643651.0,0.0
-2.799603,-11.777473,-2.294717,-4.06,-22.960001,-29.120001,1729431643671.0,0.0
0.473779,-9.602397,-2.325824,70.769997,-5.32,-11.9,1729431643694.0,0.0
1.641476,-8.982656,-3.318845,57.470001,0.21,-4.27,1729431643713.0,0.0
0.495314,-9.75793,-4.031906,18.620001,8.47,-5.32,1729431643735.0,0.0
-0.799203,-9.559326,-2.325824,7.56,7.63,-6.86,1729431643753.0,0.0
-1.493121,-8.695518,-0.112463,16.1,-3.08,-4.97,1729431643771.0,0.0
-0.619741,-8.13799,0.581456,14.07,-23.940001,-10.29,1729431643794.0,0.0
0.51685,-10.497313,-0.952343,-32.41,-46.830002,-17.08,1729431643814.0,0.0
1.552942,-8.743374,-2.584249,-42.77,-52.220001,-24.08,1729431643833.0,0.0
1.540978,-10.805987,-3.931407,-24.15,-43.189999,-2.52,1729431643852.0,0.0
1.694118,-6.453443,-1.777867,-48.650002,-37.380001,-17.15,1729431643873.0,0.0
2.854637,-5.831308,-1.074377,-63.0,-52.43,16.030001,1729431643894.0,0.0
3.096312,-6.802795,-1.622334,-73.919998,-77.07,-0.42,1729431643913.0,0.0
-0.870987,-14.105689,-10.664811,-12.46,-69.230003,14.28,1729431643934.0,0.0
-4.62054,-9.858429,-13.036098,54.740002,-4.69,-9.31,1729431643952.0,0.0
-4.110869,-9.647861,-8.439486,126.629997,26.950001,27.16,1729431643973.0,0.0
-0.622134,-10.162319,-2.11047,76.720001,30.59,17.219999,1729431643995.0,0.0
0.825524,-10.844273,-1.572084,0.07,17.92,-1.96,1729431644012.0,0.0
-0.772882,-11.408978,-3.046063,23.450001,21.77,-5.81,1729431644034.0,0.0
-2.74696,-10.188639,-1.787439,91.349998,30.52,-5.81,1729431644053.0,0.0
-3.292524,-9.147761,-0.361316,103.110001,31.360001,1.19,1729431644072.0,0.0
-1.619941,-8.84148,-1.146162,8.82,20.65,-7.42,1729431644101.0,0.0
-0.624527,-10.315458,-3.742374,-22.889999,14.91,-14.77,1729431644118.0,0.0
-0.751346,-10.202995,-4.319045,-25.34,34.790001,-19.18,1729431644132.0,0.0
-1.043271,-9.580862,-5.108676,-45.009998,45.639999,-18.129999,1729431644154.0,0.0
-0.61017,-7.003791,-4.883751,-92.82,43.400002,-21.0,1729431644173.0,0.0
0.105284,-9.982857,-9.60479,-67.480003,35.209999,-13.93,1729431644195.0,0.0
-1.603191,-12.763316,-5.532206,15.61,87.57,-4.83,1729431644212.0,0.0
2.266003,-6.568298,10.188639,64.120003,67.199997,20.299999,1729431644233.0,0.0
7.625926,-8.707481,5.649454,69.019997,-44.240002,-5.53,1729431644252.0,0.0
-0.119641,-10.640882,3.716053,-37.380001,-4.41,-13.37,1729431644273.0,0.0
-5.108676,-10.040283,-0.327817,-76.090004,12.81,-23.940001,1729431644294.0,0.0
-2.337788,-10.79163,-2.888137,-38.290001,-7.21,-8.96,1729431644312.0,0.0
2.309074,-10.497313,-2.799603,36.189999,-17.360001,-2.59,1729431644333.0,0.0
2.134398,-9.312866,-2.378466,52.920002,7.0,5.04,1729431644352.0,0.0
0.356531,-9.379865,-2.005185,20.09,15.12,0.42,1729431644372.0,0.0
-0.160319,-10.267602,-1.062413,-4.06,2.03,-3.99,1729431644394.0,0.0
0.105284,-9.35833,-0.232104,15.190001,-10.22,-8.68,1729431644413.0,0.0
-0.428315,-8.456236,-0.68674,31.5,-22.33,-10.43,1729431644433.0,0.0
0.098106,-9.085547,-0.320638,10.43,-35.07,-11.48,1729431644451.0,0.0
1.739582,-10.561919,0.200997,12.39,-41.369999,-2.45,1729431644472.0,0.0
2.438286,-8.106883,1.457229,-24.360001,-55.720001,-16.030001,1729431644494.0,0.0
3.52702,-6.56112,0.217747,-48.369999,-71.75,7.63,1729431644513.0,0.0
2.548356,-9.004191,-5.285746,-94.360001,-96.599998,-2.1,1729431644533.0,0.0
-4.852644,-13.210773,-10.289137,-83.370003,-69.440002,-24.710001,1729431644553.0,0.0
-5.580062,-9.856036,-11.112268,-15.61,-3.92,-9.31,1729431644573.0,0.0
-1.529014,-10.15514,-6.69751,100.519997,15.33,22.68,1729431644604.0,0.0
1.048056,-10.085747,-2.11047,115.5,27.02,8.61,1729431644612.0,0.0
-0.701097,-9.580862,0.196211,91.699997,37.029999,1.26,1729431644633.0,0.0
-2.206182,-8.980263,-0.430708,73.639999,22.190001,-1.54,1729431644654.0,0.0
-1.847259,-8.126025,-0.454636,40.670002,8.12,-2.24,1729431644672.0,0.0
-1.229911,-9.013763,-0.241675,-1.4,0.07,0.63,1729431644694.0,0.0
-0.875773,-10.526026,-1.361516,-28.49,-3.15,-2.1,1729431644713.0,0.0
-0.617348,-10.995021,-2.139183,-29.049999,2.1,-3.08,1729431644737.0,0.0
0.172283,-11.447264,-2.294717,-11.55,10.22,-3.85,1729431644752.0,0.0
0.299103,-10.188639,-3.036492,-37.66,31.290001,-14.98,1729431644772.0,0.0
0.629312,-10.339387,-3.862016,-66.919998,38.220001,-11.41,1729431644793.0,0.0
0.476172,-11.107484,-3.321238,-72.800003,43.400002,-17.360001,1729431644812.0,0.0
0.586242,-11.705689,-4.366901,-26.32,43.470001,-13.51,1729431644834.0,0.0
0.282353,-10.506885,-4.948357,38.290001,36.189999,-13.37,1729431644851.0,0.0
-0.746561,-8.260024,-2.811567,58.310001,64.400002,-25.200001,1729431644872.0,0.0
2.318645,-6.687939,6.599405,17.85,36.540001,-4.69,1729431644895.0,0.0
6.372087,-10.51167,1.440479,-14.07,-38.849998,-25.9,1729431644912.0,0.0
-0.031107,-10.277173,2.301895,-28.84,15.33,-26.67,1729431644933.0,0.0
-2.921637,-8.078169,-0.440279,-11.41,9.38,-18.620001,1729431644953.0,0.0
-0.098106,-7.977671,-2.251646,-29.75,-12.39,-16.870001,1729431644973.0,0.0
1.39023,-9.454042,-2.335395,-16.940001,-10.29,-4.13,1729431644994.0,0.0
-0.275175,-9.705289,-1.816152,18.34,9.24,6.37,1729431645013.0,0.0
-1.052842,-8.836694,-1.440479,33.110001,7.49,10.36,1729431645034.0,0.0
0.681954,-8.659625,-0.976272,16.379999,-5.88,13.65,1729431645052.0,0.0
2.842674,-10.030712,-1.11027,3.43,-15.54,12.32,1729431645072.0,0.0
2.074577,-10.755738,-1.172483,21.280001,-5.53,10.08,1729431645093.0,0.0
0.535992,-9.305687,-0.148355,49.0,-0.35,6.93,1729431645112.0,0.0
1.143769,-9.611969,-1.392623,58.029999,-5.95,16.24,1729431645134.0,0.0
3.282953,-5.903094,-0.48335,39.200001,-19.389999,14.35,1729431645153.0,0.0
1.031307,-9.303294,-0.617348,23.52,-18.620001,13.16,1729431645172.0,0.0
0.153141,-11.25823,4.735396,-3.15,-20.370001,13.23,1729431645196.0,0.0
2.548356,-13.727623,3.180061,-60.200001,-76.370003,-8.75,1729431645213.0,0.0
-0.679562,-13.79223,-8.283953,-38.709999,-76.790001,-28.630001,1729431645233.0,0.0
-3.048456,-6.51087,-12.607781,-39.549999,-18.200001,-25.48,1729431645253.0,0.0
-1.538585,-8.489735,-5.034499,-8.33,11.41,13.440001,1729431645272.0,0.0
0.39003,-12.756138,-3.885944,20.370001,22.469999,-1.54,1729431645294.0,0.0
0.160319,-11.246266,-1.875973,74.059998,29.540001,-3.64,1729431645313.0,0.0
-1.588834,-7.88435,-0.248854,128.169998,38.220001,8.61,1729431645332.0,0.0
-2.586641,-6.132804,0.650848,85.050003,25.200001,8.96,1729431645351.0,0.0
-1.993221,-7.865208,0.504886,7.84,4.69,6.86,1729431645372.0,0.0
-0.969093,-10.427922,-0.772882,-43.470001,-6.51,10.5,1729431645394.0,0.0
-0.143569,-12.823137,-1.332802,-60.549999,-1.61,8.75,1729431645413.0,0.0
0.756132,-13.311273,-1.007378,-14.84,8.05,2.52,1729431645440.0,0.0
-0.507278,-11.097912,-3.63709,-9.45,34.09,-15.68,1729431645451.0,0.0
-1.5003,-10.305886,-6.132804,-50.75,53.130001,-18.129999,1729431645473.0,0.0
-1.086342,-10.9017,-4.156333,-100.870003,64.330002,-24.780001,1729431645505.0,0.0
2.45025,-11.255837,-5.47717,-47.529999,48.580002,-25.129999,1729431645572.0,0.0
0.351745,-7.628319,-4.524827,18.34,83.090004,-8.4,1729431645572.0,0.0
0.418744,-11.688939,9.10469,68.459999,88.550003,3.64,1729431645573.0,0.0
5.898308,-6.76451,5.627919,36.189999,-19.74,-26.67,1729431645578.0,0.0
1.931008,-8.662018,4.398008,-10.08,-10.43,-17.290001,1729431645602.0,0.0
-2.732604,-9.071191,3.37388,-74.129997,9.52,-31.360001,1729431645613.0,0.0
-1.56012,-7.972885,0.579063,-80.290001,-18.83,-26.809999,1729431645634.0,0.0
1.074377,-9.320045,-2.084148,-30.17,-26.809999,-3.5,1729431645652.0,0.0
1.76351,-9.013763,-1.828116,19.389999,-9.8,5.74,1729431645673.0,0.0
0.985843,-9.363115,-0.59342,16.379999,-2.73,20.440001,1729431645695.0,0.0
1.344766,-11.380265,-1.201197,-18.83,-10.92,15.4,1729431645714.0,0.0
1.832902,-10.652846,-0.241675,-8.19,-15.47,7.91,1729431645736.0,0.0
2.517249,-9.097511,-3.098706,22.26,-25.549999,3.08,1729431645753.0,0.0
1.497907,-8.800802,-5.618347,6.79,-20.790001,10.29,1729431645774.0,0.0
1.899901,-11.949757,-3.019742,-17.08,-20.790001,-5.25,1729431645794.0,0.0
0.382852,-11.050055,1.115055,-4.62,-14.84,-9.45,1729431645814.0,0.0
1.409373,-11.839686,2.761317,16.24,-38.990002,-23.940001,1729431645833.0,0.0
3.385844,-6.659225,5.190032,-3.43,-71.75,-30.940001,1729431645854.0,0.0
3.299703,-6.345766,5.197211,-47.389999,-116.340004,-27.16,1729431645873.0,0.0
-1.698904,-9.743573,-6.912865,-31.360001,-112.629997,-16.66,1729431645894.0,0.0
-5.020142,-7.491928,-7.877172,-50.330002,-59.010002,-10.71,1729431645914.0,0.0
-2.885744,-9.846465,-7.769495,-55.09,-47.810001,19.6,1729431645934.0,0.0
-0.327817,-12.906885,-7.829315,-18.27,-42.91,5.39,1729431645954.0,0.0
-2.321038,-11.475977,-6.202196,61.740002,-0.49,16.799999,1729431645974.0,0.0
-3.677768,-9.678967,-5.4341,104.370003,22.68,16.17,1729431645995.0,0.0
-1.710868,-7.987241,-3.034099,51.450001,24.710001,12.32,1729431646015.0,0.0
-0.311067,-9.38465,-1.20359,-19.32,19.950001,-3.29,1729431646035.0,0.0
0.380459,-10.535598,-4.223332,19.809999,15.05,8.89,1729431646053.0,0.0
-0.533599,-10.975878,-4.237689,55.510002,38.5,3.71,1729431646074.0,0.0
-0.224925,-8.733803,-1.414158,40.740002,53.900002,10.78,1729431646117.0,0.0
1.002593,-10.143176,-3.129812,1.19,44.59,2.52,1729431646122.0,0.0
-0.224925,-10.296316,-3.574877,-44.170002,54.25,-10.15,1729431646134.0,0.0
-0.952343,-10.102496,-3.4672,-46.200001,63.139999,-10.15,1729431646158.0,0.0
1.081556,-12.375679,-5.458029,9.31,57.470001,-2.31,1729431646173.0,0.0
4.163511,-12.538391,1.90708,124.949997,59.360001,0.49,1729431646195.0,0.0
4.328616,-9.533006,3.634698,144.619995,51.939999,-9.38,1729431646215.0,0.0
1.332802,-5.249853,8.061419,16.799999,37.099998,-22.540001,1729431646236.0,0.0
-0.0335,-7.269395,2.285146,-112.699997,1.19,-39.759998,1729431646266.0,0.0
-0.497707,-10.779665,-0.464208,-116.830002,-4.9,-32.34,1729431646381.0,0.0
0.985843,-12.827922,-3.476771,-17.92,4.83,-18.41,1729431646381.0,0.0
1.459622,-9.973285,-1.215554,42.77,22.610001,-14.07,1729431646381.0,0.0
0.023928,-8.733803,-0.189033,37.869999,19.32,-9.17,1729431646382.0,0.0
-0.727418,-9.707682,-0.870987,28.77,-6.65,-12.32,1729431646382.0,0.0
0.306281,-8.738588,-0.114855,44.939999,-12.11,-3.15,1729431646382.0,0.0
2.084148,-9.332008,0.552742,40.880001,-16.309999,0.91,1729431646395.0,0.0
3.787838,-10.444671,-0.119641,33.32,-27.93,-4.41,1729431646413.0,0.0
2.95035,-10.286745,0.11007,59.849998,-18.76,-7.28,1729431646433.0,0.0
2.368894,-9.23151,0.930808,56.349998,-16.450001,-10.08,1729431646452.0,0.0
2.854637,-7.702496,0.882952,16.66,-30.940001,-16.030001,1729431646472.0,0.0
1.462015,-12.646068,4.366901,-19.389999,-50.610001,-5.25,1729431646496.0,0.0
3.45045,-7.657032,4.740182,-48.09,-89.389999,-22.68,1729431646514.0,0.0
2.313859,-8.334201,-3.919443,-37.73,-102.900002,0.14,1729431646533.0,0.0
-0.535992,-8.889337,-8.508877,-44.240002,-64.400002,-11.2,1729431646552.0,0.0
-1.227518,-9.052048,-7.630712,-90.370003,-32.27,5.53,1729431646573.0,0.0
-0.162712,-13.294522,-3.902694,-71.400002,-27.860001,1.75,1729431646595.0,0.0
-1.4668,-13.576876,-6.21416,33.599998,-5.18,-6.23,1729431646613.0,0.0
-2.533999,-9.377472,-4.828716,105.769997,30.24,2.1,1729431646634.0,0.0
-1.959722,-7.384251,-1.129412,67.830002,35.560001,4.34,1729431646654.0,0.0
-0.210568,-9.753145,-2.667997,-4.9,18.41,-1.05,1729431646673.0,0.0
0.256032,-10.528419,-0.902094,25.27,26.460001,-3.85,1729431646695.0,0.0
0.334995,-9.284152,-0.854238,63.209999,24.99,5.18,1729431646713.0,0.0
-0.028714,-8.348558,-0.799203,33.810001,28.07,-5.67,1729431646738.0,0.0
0.052642,-9.054441,-2.026721,-26.389999,29.4,3.78,1729431646753.0,0.0
0.526421,-11.100305,-6.017949,-72.730003,27.65,-7.35,1729431646772.0,0.0
-0.641276,-11.327622,-5.986843,-46.619999,60.760002,-5.88,1729431646795.0,0.0
-0.48335,-9.025726,-2.127219,6.09,72.730003,4.27,1729431646814.0,0.0
2.536392,-10.370493,-2.632105,36.470001,55.439999,5.39,1729431646834.0,0.0
4.776074,-9.68136,11.32523,93.660004,58.799999,1.26,1729431646852.0,0.0
6.89133,-8.228917,8.26481,71.120003,16.799999,13.79,1729431646873.0,0.0
1.51705,-8.049455,4.486543,-48.09,-27.23,-24.85,1729431646896.0,0.0
-1.612763,-9.047262,-0.4666,-83.300003,-7.84,-22.26,1729431646912.0,0.0
0.086142,-11.069198,-1.189233,-30.59,-0.28,-6.58,1729431646933.0,0.0
2.78046,-10.016356,-0.418744,32.130001,7.21,2.24,1729431646952.0,0.0
1.172483,-8.389235,0.198604,33.459999,23.24,6.79,1729431646972.0,0.0
-0.787239,-9.102298,-0.057428,-3.43,10.5,6.93,1729431646996.0,0.0
0.074178,-10.552348,-0.729811,-10.29,-4.62,5.53,1729431647013.0,0.0
1.842474,-10.540384,-0.351745,6.09,-13.58,2.73,1729431647033.0,0.0
1.76351,-10.796415,0.923629,12.81,-14.84,-3.01,1729431647053.0,0.0
1.74676,-9.286544,-0.29671,34.439999,-20.65,-8.19,1729431647073.0,0.0
2.868994,-11.016556,0.107677,49.0,-29.68,-6.65,1729431647104.0,0.0
4.17069,-9.4349,1.12702,4.76,-48.09,-28.630001,1729431647116.0,0.0
3.905087,-7.326823,4.890929,-17.99,-63.700001,-18.690001,1729431647135.0,0.0
5.175675,-10.193424,5.87438,-78.470001,-103.459999,-34.580002,1729431647157.0,0.0
2.54357,-12.512069,-0.251246,-110.739998,-122.010002,-44.939999,1729431647173.0,0.0
0.088534,-9.571291,-2.344966,-74.269997,-105.279999,-44.099998,1729431647196.0,0.0
1.629512,-11.688939,-1.495514,-9.03,-110.949997,-22.75,1729431647214.0,0.0
-0.399601,-15.359529,-4.912465,57.400002,-70.0,-17.710001,1729431647234.0,0.0
-5.07757,-11.880364,-8.901299,80.57,9.38,-12.88,1729431647253.0,0.0
-5.785845,-7.322037,-10.243673,56.07,73.080002,-1.96,1729431647273.0,0.0
-0.660419,-5.800202,-6.728617,21.0,66.360001,16.73,1729431647297.0,0.0
4.448257,-7.743174,-4.505685,27.440001,42.349998,5.74,1729431647313.0,0.0
1.947758,-8.183454,-6.38405,49.91,63.490002,13.93,1729431647334.0,0.0
-2.136791,-6.072984,-8.02792,5.11,96.459999,18.620001,1729431647354.0,0.0
-2.072184,-9.284152,-3.160919,-99.330002,85.260002,13.23,1729431647373.0,0.0
3.646662,-13.414164,0.20339,-87.57,45.779999,9.38,1729431647397.0,0.0
2.414358,-11.672189,-1.416551,-45.779999,40.040001,-9.45,1729431647414.0,0.0
-0.514457,-10.638489,-4.053442,-0.84,57.82,-5.74,1729431647434.0,0.0
1.78026,-9.772287,-4.981857,34.509998,81.199997,2.45,1729431647452.0,0.0
3.512664,-11.315658,16.340586,49.77,96.879997,12.95,1729431647480.0,0.0
7.881958,-9.399008,5.929415,25.549999,27.719999,2.17,1729431647499.0,0.0
-0.344566,-8.669197,7.458428,-9.45,24.85,2.45,1729431647514.0,0.0
-1.462015,-8.082954,3.019742,-43.68,-5.67,-4.27,1729431647537.0,0.0
0.947558,-8.712267,2.184647,-57.470001,-8.54,-4.06,1729431647553.0,0.0
1.385444,-10.526026,1.091127,-14.84,-4.69,12.95,1729431647574.0,0.0
1.107877,-11.088341,1.490728,23.450001,-1.33,18.549999,1729431647599.0,0.0
2.258825,-11.353944,3.503092,38.150002,-17.219999,15.89,1729431647615.0,0.0
2.522035,-12.727424,1.914258,12.95,-37.59,2.38,1729431647634.0,0.0
2.742175,-13.878372,-1.617548,-39.34,-57.189999,-24.01,1729431647654.0,0.0
3.352344,-7.767102,0.327817,-45.220001,-65.239998,-36.75,1729431647673.0,0.0
3.672983,-4.577469,-4.694718,-62.439999,-85.330002,-14.63,1729431647696.0,0.0
-1.794617,-9.678967,-13.686946,-67.059998,-68.25,-29.26,1729431647717.0,0.0
-2.526821,-9.461221,-9.521042,-12.11,-13.16,-21.49,1729431647738.0,0.0
1.600798,-9.394222,-6.932007,68.669998,6.58,7.49,1729431647754.0,0.0
2.160719,-8.941978,-1.021735,105.980003,25.549999,17.15,1729431647774.0,0.0
-1.885544,-9.097511,2.445465,34.16,24.780001,4.69,1729431647794.0,0.0
-1.45005,-10.951948,-1.028914,-17.290001,-15.96,-11.62,1729431647814.0,0.0
1.816152,-10.423136,-2.22054,-3.64,-27.23,-18.9,1729431647835.0,0.0
2.457429,-8.989835,-1.476372,31.219999,-12.81,-12.74,1729431647854.0,0.0
1.928615,-8.961121,-0.693919,33.810001,-11.48,-9.8,1729431647874.0,0.0
2.177469,-10.423136,0.102891,18.969999,-16.379999,-8.26,1729431647896.0,0.0
2.342573,-9.32483,-1.002593,13.37,-16.030001,-7.98,1729431647918.0,0.0
1.538585,-7.867601,-1.596013,-5.25,-6.93,0.49,1729431647934.0,0.0
-0.488136,-10.348958,-0.301496,-92.400002,7.14,17.5,1729431647958.0,0.0
-0.081356,-12.32543,-1.519442,-113.260002,13.440001,10.71,1729431647975.0,0.0
1.409373,-12.069397,-3.790231,-78.470001,23.59,7.77,1729431647997.0,0.0
1.09352,-8.834301,-7.278966,-73.779999,41.580002,-2.1,1729431648017.0,0.0
-0.658026,-7.927422,-10.968699,-105.840004,70.209999,-0.14,1729431648036.0,0.0
-0.026321,-7.259824,-14.057834,-67.129997,98.139999,5.04,1729431648056.0,0.0
1.605584,-11.55494,11.849257,55.790001,117.809998,42.0,1729431648075.0,0.0
7.020542,-9.937392,4.326223,52.360001,11.76,12.81,1729431648103.0,0.0
2.847459,-11.624333,4.316652,-29.33,24.08,-0.91,1729431648118.0,0.0
2.002793,-12.641282,5.414958,-6.72,2.66,-19.110001,1729431648138.0,0.0
2.445465,-12.423534,1.957329,40.459999,-5.88,-13.58,1729431648156.0,0.0
0.739382,-9.700503,2.019542,90.93,8.96,-18.41,1729431648176.0,0.0
2.517249,-7.312466,1.674976,96.18,-8.96,-2.1,1729431648203.0,0.0
5.261817,-6.9344,1.361516,66.709999,-32.41,1.89,1729431648215.0,0.0
4.024727,-10.760524,0.342174,48.439999,-36.400002,7.56,1729431648235.0,0.0
2.548356,-8.638089,-2.35693,-2.17,-45.360001,0.07,1729431648255.0,0.0
-2.165504,-12.552748,-4.096512,-36.049999,-56.700001,-10.22,1729431648275.0,0.0
0.555135,-7.003791,0.086142,-60.689999,-66.290001,-14.63,1729431648298.0,0.0
3.907479,-6.166305,-1.423729,-26.32,-85.540001,2.17,1729431648316.0,0.0
0.497707,-9.674182,-9.097511,-22.26,-80.360001,-6.44,1729431648336.0,0.0
-3.342773,-7.640282,-12.985848,5.39,-38.290001,-12.25,1729431648354.0,0.0
-2.519642,-4.642076,-8.149954,40.880001,11.97,38.220001,1729431648375.0,0.0
0.923629,-7.963314,-3.419343,20.370001,14.07,54.599998,1729431648394.0,0.0
1.557728,-10.348958,-0.378066,-22.540001,14.49,31.290001,1729431648414.0,0.0
-0.660419,-11.624333,0.117248,-14.14,13.58,29.889999,1729431648435.0,0.0
-1.071985,-11.523834,-0.445065,-7.84,9.17,31.15,1729431648453.0,0.0
0.79681,-11.387443,-1.701297,-74.269997,-3.71,27.09,1729431648475.0,0.0
2.395216,-13.316057,-4.051049,-67.970001,0.42,1.47,1729431648495.0,0.0
1.253839,-11.339586,-4.596612,-16.940001,27.09,6.02,1729431648514.0,0.0
0.37328,-9.152546,-5.907879,-28.210001,36.330002,2.8,1729431648534.0,0.0
-0.385244,-6.156733,-7.286145,-113.400002,46.759998,-0.07,1729431648554.0,0.0
0.09332,-10.772489,-12.229716,-126.07,54.950001,-3.57,1729431648574.0,0.0
-0.641276,-7.269395,-1.722832,-55.369999,94.709999,14.0,1729431648596.0,0.0
5.635098,-8.506484,6.905686,68.459999,57.049999,10.08,1729431648615.0,0.0
3.842873,-9.856036,2.591427,-11.27,6.37,9.03,1729431648636.0,0.0
-1.540978,-11.88515,1.462015,-77.279999,38.920002,-2.8,1729431648656.0,0.0
-1.761117,-12.361321,-1.871187,-76.650002,15.12,-4.41,1729431648675.0,0.0
0.191426,-11.064411,-3.18724,-61.32,-9.1,-3.57,1729431648696.0,0.0
-0.361316,-9.348758,-3.675375,-53.760002,-5.74,-6.79,1729431648715.0,0.0
-1.454836,-9.667004,-2.596212,-62.93,-8.19,-16.59,1729431648738.0,0.0
-0.854238,-9.12144,-2.084148,-80.150002,-21.91,-29.4,1729431648755.0,0.0
0.138784,-9.054441,-2.206182,-77.489998,-31.15,-32.48,1729431648774.0,0.0
0.772882,-8.693125,-2.029114,-76.300003,-33.110001,-36.049999,1729431648797.0,0.0
0.854238,-7.264609,-2.682354,-92.470001,-33.740002,-32.48,1729431648816.0,0.0
1.473979,-6.400801,-3.349952,-128.449997,-37.52,-22.4,1729431648835.0,0.0
2.191825,-6.240481,-3.189633,-177.940002,-36.259998,-8.4,1729431648855.0,0.0
2.160719,-6.041877,-4.395615,-209.509995,-37.029999,11.9,1729431648874.0,0.0
1.832902,-5.553742,-7.262216,-219.729996,-45.639999,32.759998,1729431648896.0,0.0
1.512264,-6.522834,-9.58804,-201.180008,-46.200001,51.380001,1729431648916.0,0.0
0.693919,-7.932207,-11.813366,-146.580002,-30.17,65.800003,1729431648935.0,0.0
0.985843,-7.479963,-12.184253,-30.940001,-21.629999,83.230003,1729431648954.0,0.0
1.768296,-6.458229,-11.997612,7.98,-5.95,84.980003,1729431648975.0,0.0
1.878366,-5.515456,-11.509477,23.799999,12.53,87.639999,1729431648996.0,0.0
1.868794,-5.333601,-10.930414,32.830002,29.610001,89.669998,1729431649015.0,0.0
1.543371,-6.312266,-10.899307,40.950001,42.560001,91.629997,1729431649036.0,0.0
0.756132,-5.862415,-9.542577,56.630001,50.470001,86.800003,1729431649054.0,0.0
1.01695,-4.831109,-8.49452,118.440002,48.02,98.349998,1729431649074.0,0.0
0.748954,-4.304688,-7.989635,116.199997,52.43,99.82,1729431649096.0,0.0
-0.224925,-5.166104,-7.652246,79.169998,56.07,97.510002,1729431649114.0,0.0
-0.526421,-6.776474,-7.611568,44.240002,54.599998,85.959999,1729431649135.0,0.0
-0.471386,-7.860423,-8.128418,32.970001,52.290001,76.650002,1729431649154.0,0.0
-0.679562,-8.38445,-8.396415,53.27,52.709999,73.080002,1729431649174.0,0.0
-0.614955,-7.381857,-7.156933,84.699997,54.529999,68.389999,1729431649197.0,0.0
-1.328017,-6.506085,-5.065606,87.5,55.580002,66.290001,1729431649215.0,0.0
-2.134398,-7.209574,-5.180461,45.43,54.599998,63.209999,1729431649235.0,0.0
-2.428715,-7.640282,-6.491727,35.209999,48.580002,68.32,1729431649255.0,0.0
-2.713461,-6.599405,-6.343372,80.989998,43.470001,75.739998,1729431649275.0,0.0
-3.110669,-4.510471,-4.816752,120.75,38.360001,83.230003,1729431649296.0,0.0
-3.448057,-5.948557,-4.278367,69.580002,30.59,75.18,1729431649315.0,0.0
-3.366701,-6.465407,-5.508278,13.58,24.57,58.310001,1729431649336.0,0.0
-2.751746,-8.003991,-6.704689,-3.36,14.98,43.75,1729431649354.0,0.0
-2.179861,-6.9009,-6.23091,5.88,12.18,29.960001,1729431649374.0,0.0
-2.057827,-5.211568,-4.852644,23.030001,6.51,17.15,1729431649397.0,0.0
-1.56012,-5.12782,-5.802595,-26.67,-3.29,-8.75,1729431649414.0,0.0
-0.9667,-6.132804,-7.353144,-87.360001,-5.32,-38.080002,1729431649435.0,0.0
-1.081556,-6.776474,-7.238289,-88.340004,-2.59,-59.43,1729431649454.0,0.0
-1.323231,-6.297909,-6.290731,-103.669998,-3.85,-87.150002,1729431649474.0,0.0
-0.591027,-5.529813,-8.453842,-130.339996,-6.51,-112.0,1729431649497.0,0.0
1.213161,-4.362115,-9.233903,-150.430008,-8.54,-122.849998,1729431649519.0,0.0
1.713261,-5.402994,-8.226524,-182.139999,-1.12,-125.440002,1729431649535.0,0.0
-0.342174,-10.4016,-5.869594,-196.979996,3.08,-145.389999,1729431649554.0,0.0
-2.237289,-10.738988,-6.458229,-150.919998,-7.14,-175.979996,1729431649574.0,0.0
-1.397408,-5.816952,-10.727024,-28.07,-39.549999,-175.630005,1729431649596.0,0.0
-0.696311,-5.414958,-7.913064,18.620001,-46.549999,-146.440002,1729431649614.0,0.0
-0.57667,-6.209375,-8.932407,-117.669998,-18.83,-134.820007,1729431649635.0,0.0
0.875773,-8.977871,-9.406186,-73.220001,-28.42,-101.290001,1729431649654.0,0.0
1.859223,-9.509077,-8.147561,-4.13,-27.93,-75.669998,1729431649674.0,0.0
-0.31346,-9.233903,-7.539784,30.66,4.34,-43.330002,1729431649703.0,0.0
-0.26321,-8.008778,-6.015556,38.220001,3.57,-19.110001,1729431649716.0,0.0
1.007378,-8.030313,-5.943772,37.799999,-2.31,10.29,1729431649738.0,0.0
0.22014,-9.372685,-5.955735,50.189999,11.41,30.380001,1729431649754.0,0.0
-0.787239,-9.667004,-7.195218,79.870003,27.02,47.18,1729431649774.0,0.0
-0.366102,-8.145168,-6.037091,106.330002,24.780001,65.449997,1729431649796.0,0.0
-1.098306,-7.183254,-5.510671,114.660004,31.43,83.720001,1729431649815.0,0.0
-1.502693,-6.147161,-6.326623,87.220001,24.5,96.739998,1729431649834.0,0.0
-0.681954,-6.534799,-9.425328,45.290001,13.58,113.610001,1729431649854.0,0.0
1.308874,-8.082954,-9.315259,35.349998,18.690001,130.550003,1729431649874.0,0.0
2.663212,-8.310273,-10.609775,52.990002,25.059999,150.570007,1729431649896.0,0.0
2.553142,-4.304688,-8.336594,70.0,38.150002,158.130005,1729431649914.0,0.0
-1.476372,-4.125226,-5.453243,59.080002,66.709999,180.740005,1729431649935.0,0.0
-0.464208,-7.142576,-8.303094,-21.280001,49.84,172.899994,1729431649954.0,0.0
0.512064,-6.015556,-8.209774,47.18,21.210001,182.350006,1729431649974.0,0.0
-1.351945,-4.063013,-7.290931,63.209999,33.110001,177.589996,1729431649996.0,0.0
-1.564906,-5.630312,-7.532606,5.25,31.99,157.5,1729431650014.0,0.0
-1.261017,-7.913064,-8.315059,-16.59,29.75,129.639999,1729431650035.0,0.0
-2.165504,-7.853244,-7.219146,-10.57,29.049999,90.860001,1729431650061.0,0.0
-4.283153,-5.848059,-5.300103,-2.8,24.5,44.799999,1729431650074.0,0.0
-5.029713,-4.591826,-5.953342,-12.95,9.94,0.7,1729431650100.0,0.0
-2.909672,-5.539384,-6.757331,-36.400002,-6.65,-39.759998,1729431650115.0,0.0
-0.969093,-6.951149,-8.946764,-42.84,-16.030001,-78.540001,1729431650136.0,0.0
-1.048056,-6.139983,-10.394422,-18.48,-11.34,-116.059998,1729431650154.0,0.0
-2.239682,-5.199604,-5.455636,-3.71,-3.22,-142.589996,1729431650175.0,0.0
-2.325824,-5.582455,-3.515057,-49.420002,-19.389999,-163.869995,1729431650196.0,0.0
-0.27996,-5.448457,-8.673983,-59.5,-45.849998,-181.369995,1729431650215.0,0.0
0.990629,-7.235896,-9.394222,-1.19,-56.560001,-184.589996,1729431650239.0,0.0
0.344566,-7.104291,-8.348558,-28.210001,-38.779999,-188.649994,1729431650255.0,0.0
0.631705,-6.733403,-5.953342,-41.720001,-48.23,-194.460007,1729431650275.0,0.0
0.885344,-6.168696,-9.269794,-74.269997,-52.5,-192.710007,1729431650298.0,0.0
0.294317,-8.085347,-7.367501,-72.239998,-40.32,-165.619995,1729431650316.0,0.0
-1.694118,-10.411172,-4.943572,-68.18,-7.7,-129.360001,1729431650336.0,0.0
-3.835695,-14.694324,-2.557927,-8.47,-1.89,-93.449997,1729431650355.0,0.0
-2.364109,-10.894521,-6.69751,49.84,-34.439999,-59.360001,1729431650375.0,0.0
-0.282353,-8.776874,-7.331609,126.770004,-43.889999,-9.66,1729431650396.0,0.0
-0.880559,-8.319844,-6.436693,124.040001,3.43,32.48,1729431650417.0,0.0
-2.371287,-9.597611,-6.262017,100.379997,41.720001,54.670002,1729431650437.0,0.0
-1.631905,-10.437491,-7.056434,95.480003,28.91,66.779999,1729431650457.0,0.0
0.253639,-9.403792,-7.642675,111.300003,15.47,73.010002,1729431650477.0,0.0
1.732404,-8.204988,-7.176075,92.330002,12.88,72.239998,1729431650497.0,0.0
3.938586,-7.877172,-7.092326,27.16,20.02,59.080002,1729431650579.0,0.0
4.067799,-7.372287,-7.034898,-13.37,20.16,55.580002,1729431650584.0,0.0
2.586641,-3.141776,-5.536992,5.67,52.920002,73.150002,1729431650585.0,0.0
-1.045663,-0.267996,-5.541777,-42.630001,67.690002,93.029999,1729431650587.0,0.0
-2.330609,-3.235096,-5.867201,-86.870003,31.92,104.860001,1729431650598.0,0.0
-2.074577,-6.941578,-8.9683,-102.760002,29.120001,103.739998,1729431650617.0,0.0
-1.706082,-8.300702,-8.23131,-77.07,16.799999,89.25,1729431650637.0,0.0
-1.830509,-7.750352,-9.355937,-32.200001,8.12,72.519997,1729431650656.0,0.0
-1.866402,-7.946564,-9.114261,-23.309999,10.64,40.740002,1729431650676.0,0.0
-1.65344,-7.783852,-8.506484,-29.049999,11.76,1.89,1729431650698.0,0.0
-1.806581,-6.635297,-8.590233,11.06,12.04,-26.809999,1729431650717.0,0.0
-0.87338,-5.383851,-8.733803,27.09,2.94,-55.93,1729431650739.0,0.0
-0.363709,-6.12084,-7.343572,0.77,4.34,-87.849998,1729431650756.0,0.0
-0.172283,-6.494121,-4.321437,-21.77,0.63,-122.779999,1729431650781.0,0.0
-0.631705,-4.453043,-5.379066,21.91,-18.34,-136.009995,1729431650800.0,0.0
-0.5001,-5.431707,-10.133603,116.970001,-48.23,-139.440002,1729431650817.0,0.0
-0.327817,-4.852644,-8.355737,76.510002,-47.459999,-139.789993,1729431650837.0,0.0
0.586242,-4.814359,-8.453842,-0.07,-33.880001,-143.289993,1729431650856.0,0.0
2.182254,-6.860222,-4.615755,-39.130001,-27.65,-118.160004,1729431650876.0,0.0
0.172283,-11.095518,-3.290131,-73.010002,-13.3,-98.209999,1729431650898.0,0.0
-1.304088,-11.502297,-6.484549,-89.32,4.06,-80.5,1729431650916.0,0.0
-0.794417,-13.079168,-5.79063,46.48,-10.78,-40.740002,1729431650936.0,0.0
1.040878,-10.49492,-4.977071,115.57,-21.91,-0.91,1729431650957.0,0.0
0.933201,-8.707481,-3.661019,126.910004,-7.07,24.360001,1729431650976.0,0.0
-1.055235,-9.133404,-3.787838,87.43,35.0,39.48,1729431650997.0,0.0
-2.120041,-11.200804,-3.206382,61.529999,45.080002,59.709999,1729431651017.0,0.0
-0.428315,-9.734003,-4.244867,42.630001,7.7,72.940002,1729431651036.0,0.0
1.545763,-6.606583,-7.192825,34.93,-16.17,80.779999,1729431651056.0,0.0
1.588834,-5.996413,-5.661418,25.83,17.360001,103.879997,1729431651076.0,0.0
0.672383,-6.690332,-3.59402,-32.41,55.510002,105.699997,1729431651099.0,0.0
-0.045464,-9.664611,-7.690532,-91.910004,38.009998,100.449997,1729431651117.0,0.0
2.289931,-8.025528,-10.375278,-98.209999,-2.87,102.059998,1729431651137.0,0.0
2.708675,-7.831708,-8.54477,-24.639999,14.84,121.379997,1729431651156.0,0.0
-0.964308,-4.474578,-6.601797,3.64,54.459999,118.020004,1729431651176.0,0.0
-3.168097,-4.768896,-6.867401,3.71,29.960001,129.779999,1729431651198.0,0.0
-1.251446,-7.539784,-7.850852,-48.790001,12.25,97.93,1729431651216.0,0.0
-1.658226,-7.066005,-8.815158,-21.42,11.83,88.760002,1729431651236.0,0.0
-1.85683,-5.513064,-8.415558,8.19,11.69,70.840004,1729431651257.0,0.0
-1.799403,-6.305088,-9.020942,-21.0,14.63,44.799999,1729431651277.0,0.0
-1.596013,-7.834101,-8.800802,-56.209999,20.58,6.3,1729431651297.0,0.0
-1.081556,-8.260024,-8.82473,-36.189999,19.25,-34.369999,1729431651317.0,0.0
-1.270589,-7.073184,-6.640083,16.17,24.85,-77.980003,1729431651337.0,0.0
-2.184647,-6.778866,-4.326223,59.990002,19.530001,-112.770004,1729431651356.0,0.0
-1.756332,-4.24726,-5.649454,58.73,-7.0,-138.25,1729431651376.0,0.0
-1.09352,-6.73101,-6.695118,104.790001,-19.040001,-142.240005,1729431651397.0,0.0
1.0002,-8.202596,-9.006584,169.960007,-33.389999,-154.630005,1729431651416.0,0.0
1.002593,-9.073583,-8.293523,215.110001,-46.970001,-148.190002,1729431651437.0,0.0
1.770689,-4.352544,-4.773681,105.699997,-35.77,-153.440002,1729431651455.0,0.0
-1.981257,-8.365308,-0.435494,-25.9,9.1,-122.709999,1729431651476.0,0.0
-2.940779,-7.491928,-8.039884,-89.110001,5.04,-113.330002,1729431651497.0,0.0
0.157926,-12.710674,-0.011964,16.450001,-56.0,-63.560001,1729431651516.0,0.0
1.655833,-10.782058,0.122034,-37.029999,-48.509998,-40.529999,1729431651536.0,0.0
-2.378466,-10.58824,-1.311267,13.09,12.6,17.219999,1729431651556.0,0.0
-4.4674,-11.34198,-2.072184,67.129997,36.119999,59.57,1729431651576.0,0.0
-3.125026,-10.683953,-2.493321,80.150002,-0.42,90.650002,1729431651597.0,0.0
-0.256032,-9.370294,-3.778267,53.619999,-23.799999,100.309998,1729431651616.0,0.0
1.866402,-7.982457,-6.836295,-11.34,-33.18,116.760002,1729431651636.0,0.0
3.048456,-11.356337,-7.403394,-58.939999,-4.62,127.68,1729431651656.0,0.0
3.744767,-8.563912,-3.833302,-131.25,43.259998,116.480003,1729431651676.0,0.0
1.476372,-8.49452,-7.558927,-121.379997,60.830002,120.330002,1729431651696.0,0.0
0.612563,-4.972286,-7.590034,-79.519997,34.790001,123.129997,1729431651716.0,0.0
0.026321,-3.998406,-5.24746,-41.439999,42.77,149.520004,1729431651743.0,0.0
-0.894916,-3.189633,-7.62114,-127.470001,22.049999,135.449997,1729431651756.0,0.0
-1.993221,-9.568897,-7.905886,-142.729996,28.210001,116.270004,1729431651775.0,0.0
-3.105884,-9.028119,-5.936593,-76.580002,6.09,99.330002,1729431651799.0,0.0
-4.591826,-5.941379,-6.197411,-12.18,-15.26,77.349998,1729431651816.0,0.0
-2.711068,-8.054241,-7.886744,-23.799999,-30.309999,50.049999,1729431651836.0,0.0
-1.033699,-8.525627,-8.874979,-18.9,-29.33,21.280001,1729431651856.0,0.0
-3.821337,-5.331209,-7.51107,20.93,-22.82,-3.08,1729431651876.0,0.0
-4.62054,-4.26401,-9.315259,2.45,-19.879999,-30.59,1729431651897.0,0.0
-4.122833,-6.429514,-9.4349,-35.630001,-9.66,-49.349998,1729431651916.0,0.0
-3.505485,-7.520642,-9.946963,-41.16,-2.1,-67.690002,1729431651936.0,0.0
-2.852244,-8.283953,-10.715059,-2.87,5.32,-87.849998,1729431651956.0,0.0
-2.031506,-8.037491,-10.382458,52.43,14.28,-110.739998,1729431651976.0,0.0
-1.665405,-6.498906,-7.140182,75.599998,17.43,-126.279999,1729431651997.0,0.0
-1.404587,-3.129812,-4.847858,70.629997,18.27,-127.82,1729431652016.0,0.0
-0.002393,-7.130611,-4.132405,84.07,-7.84,-119.349998,1729431652036.0,0.0
1.103091,-4.424329,-8.456236,84.910004,-7.49,-114.099998,1729431652055.0,0.0
-1.179662,-6.087341,-6.123233,138.809998,1.61,-68.949997,1729431652075.0,0.0
-2.273181,-6.742974,-3.132205,54.529999,36.400002,-65.870003,1729431652103.0,0.0
-4.627719,-8.475377,-2.54357,-29.26,44.099998,-35.700001,1729431652118.0,0.0
-3.342773,-12.363714,-4.737789,21.91,22.75,-21.559999,1729431652138.0,0.0
-1.031307,-12.21536,-2.498107,74.620003,-6.09,11.76,1729431652156.0,0.0
0.39003,-9.789038,-2.620141,99.260002,-3.43,27.440001,1729431652176.0,0.0
-1.172483,-10.202995,-2.596212,100.660004,16.940001,41.720001,1729431652197.0,0.0
-2.287539,-9.918249,-2.612962,76.720001,32.900002,58.799999,1729431652219.0,0.0
-2.895315,-11.392227,-2.069792,71.120003,29.33,65.870003,1729431652238.0,0.0
-2.165504,-11.25823,-2.63689,57.959999,15.89,54.740002,1729431652256.0,0.0
-1.332802,-12.007183,-2.828316,74.269997,-3.85,55.860001,1729431652277.0,0.0
-0.387637,-8.16431,-3.199204,11.69,-9.87,46.200001,1729431652298.0,0.0
1.024128,-8.035098,-5.345565,-58.52,-7.49,41.369999,1729431652319.0,0.0
3.002992,-3.342773,-5.678168,-149.240005,-43.959999,49.98,1729431652337.0,0.0
1.651048,-3.668197,-6.58744,-140.419998,15.47,72.239998,1729431652356.0,0.0
-0.074178,-5.922236,-7.822137,-120.959999,27.23,86.029999,1729431652377.0,0.0
-2.821138,-6.269196,-6.372087,-112.209999,24.290001,93.309998,1729431652400.0,0.0
-6.63769,-6.553941,-7.262216,-123.900002,31.99,78.120003,1729431652417.0,0.0
-4.130012,-8.843873,-9.669396,-90.650002,1.82,58.52,1729431652439.0,0.0
0.0335,-8.470592,-7.030113,-34.02,-11.06,56.07,1729431652459.0,0.0
-3.732803,-6.096912,-4.859823,1.75,24.85,13.93,1729431652478.0,0.0
-5.546563,-5.79781,-5.883951,-34.790001,9.94,-12.88,1729431652500.0,0.0
-3.113062,-7.436893,-8.310273,-72.449997,-11.41,-43.259998,1729431652520.0,0.0
-1.485943,-7.728817,-9.851252,-80.360001,-12.46,-78.68,1729431652540.0,0.0
-1.78026,-8.422735,-7.929814,-52.5,3.99,-117.25,1729431652558.0,0.0
-1.519442,-7.097112,-7.67139,-51.59,-1.75,-152.740005,1729431652578.0,0.0
-0.727418,-5.98445,-5.802595,-62.510002,-17.290001,-179.410004,1729431652600.0,0.0
0.392423,-7.077969,-8.331808,-37.799999,-29.82,-202.369995,1729431652619.0,0.0
-0.270389,-2.811567,-6.723832,-13.51,-34.580002,-199.220001,1729431652639.0,0.0
-1.698904,-3.244668,-6.568298,-60.27,-26.110001,-180.320007,1729431652658.0,0.0
-2.268396,-6.338587,-2.871387,-110.809998,-33.459999,-153.789993,1729431652680.0,0.0
-2.639283,-8.85105,-2.234896,-148.889999,-48.439999,-143.5,1729431652702.0,0.0
-2.979064,-10.499706,-7.276574,-102.760002,-54.459999,-112.279999,1729431652719.0,0.0
-1.744368,-8.539984,-7.302894,-36.82,-63.98,-72.800003,1729431652742.0,0.0
-1.459622,-7.831708,-5.510671,26.460001,-49.139999,-19.460001,1729431652758.0,0.0
-1.584049,-9.257831,-5.802595,38.779999,-31.290001,20.440001,1729431652778.0,0.0
-0.59342,-10.174281,-7.953743,36.82,-22.68,57.189999,1729431652798.0,0.0
-0.122034,-7.271788,-9.255438,87.360001,-22.540001,91.0,1729431652823.0,0.0
-0.985843,-6.410372,-10.188639,110.599998,6.86,123.690002,1729431652839.0,0.0
-0.038285,-7.446464,-9.430114,64.889999,21.77,147.490005,1729431652861.0,0.0
1.878366,-6.479764,-10.810772,48.580002,22.960001,159.039993,1729431652880.0,0.0
0.799203,-4.010371,-6.951149,104.160004,37.170002,196.559998,1729431652901.0,0.0
-2.251646,-1.454836,-9.047262,89.739998,46.900002,214.550003,1729431652919.0,0.0
-2.26361,-6.034698,-11.042876,25.34,40.529999,203.630005,1729431652940.0,0.0
0.361316,-11.4018,-9.394222,3.78,35.279999,183.050003,1729431652958.0,0.0
-0.784846,-7.257431,-8.506484,72.029999,37.380001,155.190002,1729431652979.0,0.0
-4.350152,-2.163112,-6.924829,137.199997,46.689999,131.740005,1729431653002.0,0.0
-5.627919,-4.079762,-5.996413,41.369999,36.540001,94.010002,1729431653019.0,0.0
-4.744967,-9.131011,-6.321837,-81.410004,31.780001,24.01,1729431653038.0,0.0
-4.675575,-9.942179,-6.668797,-58.869999,16.030001,-21.629999,1729431653058.0,0.0
-4.187439,-6.474977,-8.427521,0.56,-0.84,-67.690002,1729431653080.0,0.0
-2.87378,-4.694718,-8.099705,3.36,-4.06,-111.580002,1729431653103.0,0.0
