acc_x,acc_y,acc_z,gyr_x,gyr_y,gyr_z,timestamp,label
0.497707,-5.883951,-5.362316,68.389999,-7.84,-27.719999,1729472364158.0,0.0
-1.648655,-4.309474,-5.139783,18.549999,-11.76,-31.57,1729472364177.0,0.0
-3.019742,-4.965107,-5.611169,-78.330002,-26.32,-44.799999,1729472364199.0,0.0
-2.447858,-4.768896,-7.01097,-130.759995,-49.209999,-53.41,1729472364218.0,0.0
-2.397608,-5.187639,-8.532805,-112.910004,-52.220001,-49.560001,1729472364237.0,0.0
-3.63709,-3.809374,-10.528419,-78.610001,-38.080002,-36.259998,1729472364258.0,0.0
-4.500899,-3.981657,-12.294323,-30.309999,-20.65,-4.62,1729472364278.0,0.0
-4.515256,-4.931608,-11.959327,11.27,0.63,16.73,1729472364299.0,0.0
-3.225525,-4.888536,-10.018748,28.700001,7.35,21.629999,1729472364318.0,0.0
-2.120041,-4.713861,-8.944371,17.85,5.39,16.52,1729472364337.0,0.0
-2.258825,-4.381258,-8.664411,7.77,10.85,12.53,1729472364358.0,0.0
-1.196411,-5.211568,-8.389235,10.29,10.5,18.129999,1729472364378.0,0.0
-0.504886,-6.197411,-8.176274,12.6,10.92,21.49,1729472364399.0,0.0
-0.289532,-6.80758,-7.484749,25.48,12.88,18.41,1729472364417.0,0.0
-0.241675,-6.850651,-6.970293,24.5,11.69,11.2,1729472364437.0,0.0
-0.557528,-7.039684,-5.903094,11.27,6.16,1.26,1729472364458.0,0.0
-0.736989,-6.331409,-6.317052,-17.43,-4.48,-16.24,1729472364477.0,0.0
-1.696511,-4.567898,-6.809973,-31.360001,-11.41,-22.4,1729472364499.0,0.0
-3.036492,-4.132405,-7.89153,-48.16,-14.28,-26.110001,1729472364518.0,0.0
-3.06042,-4.515256,-8.039884,-76.93,-22.26,-34.439999,1729472364537.0,0.0
-2.266003,-2.991028,-7.992027,-96.529999,-30.870001,-36.82,1729472364558.0,0.0
-2.656033,-2.62732,-9.064013,-95.340004,-29.120001,-22.610001,1729472364577.0,0.0
-3.507878,-2.402394,-9.963714,-73.010002,-18.620001,2.45,1729472364599.0,0.0
-4.051049,-2.723032,-10.576276,-31.08,-10.64,28.49,1729472364617.0,0.0
-4.240082,-3.29731,-10.169496,9.31,-1.54,42.77,1729472364637.0,0.0
-4.086941,-2.813959,-9.21476,23.379999,2.8,46.200001,1729472364658.0,0.0
-3.562913,-3.4672,-8.908479,-9.73,2.03,41.439999,1729472364678.0,0.0
-3.232704,-5.807381,-8.762517,-46.970001,2.59,29.960001,1729472364700.0,0.0
-2.009971,-7.513463,-9.74836,-60.34,0.14,14.0,1729472364717.0,0.0
-1.124627,-7.310073,-9.24108,-15.33,-2.8,-1.26,1729472364738.0,0.0
-1.473979,-6.709475,-8.73141,14.21,-1.68,-8.89,1729472364757.0,0.0
-1.538585,-5.931807,-8.781659,16.030001,-1.96,-23.309999,1729472364777.0,0.0
-1.328017,-5.793024,-9.413363,11.27,-4.76,-33.040001,1729472364800.0,0.0
-1.497907,-5.663811,-9.023334,13.02,-2.03,-42.630001,1729472364818.0,0.0
-1.753939,-4.290331,-8.721838,26.809999,-2.24,-47.459999,1729472364837.0,0.0
-2.218147,-2.85703,-8.365308,26.25,-1.68,-48.02,1729472364858.0,0.0
-2.462214,-3.268596,-8.987441,-2.73,-2.52,-47.670002,1729472364877.0,0.0
-2.167897,-4.517649,-9.410972,-20.51,-2.38,-48.09,1729472364898.0,0.0
-2.122434,-3.225525,-8.573483,-12.11,0.28,-45.220001,1729472364917.0,0.0
-2.292324,-2.708675,-9.243474,-10.29,-0.42,-34.650002,1729472364937.0,0.0
-2.349752,-2.364109,-9.60479,-3.78,3.64,-21.280001,1729472364957.0,0.0
-2.919244,-2.421536,-8.913264,11.9,10.01,-5.39,1729472364977.0,0.0
-3.354738,-1.808974,-8.803195,15.47,12.6,10.71,1729472364998.0,0.0
-3.144169,-1.572084,-8.224132,10.15,7.91,24.219999,1729472365017.0,0.0
-2.974278,-1.775474,-8.602197,-0.56,7.21,32.549999,1729472365038.0,0.0
-3.634698,-3.751946,-9.260223,-6.65,7.21,43.82,1729472365063.0,0.0
-4.072584,-5.020142,-10.059426,-14.28,15.05,44.869999,1729472365077.0,0.0
-3.620341,-5.481956,-9.784252,-19.25,16.309999,35.560001,1729472365099.0,0.0
-2.378466,-7.312466,-9.518648,-15.75,12.46,26.040001,1729472365118.0,0.0
-1.519442,-7.793423,-9.851252,12.25,13.16,10.22,1729472365137.0,0.0
-1.11027,-6.632904,-9.896714,48.93,13.58,-1.61,1729472365158.0,0.0
-1.287339,-5.108676,-9.676575,56.279999,19.950001,-12.04,1729472365176.0,0.0
-1.232304,-5.642276,-8.463413,27.299999,24.57,-22.190001,1729472365199.0,0.0
-0.658026,-6.221339,-7.530212,4.69,19.32,-30.380001,1729472365218.0,0.0
-0.586242,-6.943972,-6.975078,17.85,13.23,-40.880001,1729472365237.0,0.0
-1.237089,-4.95075,-6.872187,55.510002,7.21,-45.639999,1729472365257.0,0.0
-1.591227,-1.909473,-7.896315,57.959999,0.14,-48.02,1729472365277.0,0.0
-1.830509,0.430708,-7.233503,4.97,-2.8,-40.810001,1729472365298.0,0.0
-1.933401,-0.4666,-8.099705,-65.660004,-11.48,-32.689999,1729472365317.0,0.0
-3.471986,-2.036292,-8.73141,-85.75,-13.23,-6.86,1729472365337.0,0.0
-4.778467,-3.677768,-10.523634,-20.790001,-4.27,14.21,1729472365357.0,0.0
-5.443672,-4.388437,-11.004591,73.849998,1.82,45.150002,1729472365377.0,0.0
-4.814359,-5.826523,-12.074183,69.230003,18.549999,45.849998,1729472365398.0,0.0
-1.988436,-7.223931,-11.406586,50.470001,16.24,36.400002,1729472365417.0,0.0
0.282353,-7.958528,-10.896914,85.610001,22.469999,23.799999,1729472365437.0,0.0
0.672383,-8.755339,-7.819745,135.169998,40.810001,16.940001,1729472365464.0,0.0
1.028914,-9.030513,-6.948757,155.190002,48.650002,2.59,1729472365476.0,0.0
1.651048,-9.401401,-4.926822,178.5,44.73,-3.92,1729472365498.0,0.0
2.081756,-7.259824,-2.600998,189.559998,39.689999,-15.61,1729472365518.0,0.0
1.600798,-5.402994,-2.096112,178.289993,23.66,-25.34,1729472365538.0,0.0
-0.122034,-3.759124,-0.799203,136.779999,4.34,-27.860001,1729472365558.0,0.0
-2.074577,-3.251846,0.631705,47.389999,-29.68,-27.09,1729472365578.0,0.0
-3.436093,-3.419343,-4.689932,-124.25,-67.269997,-38.849998,1729472365599.0,0.0
-3.409772,-5.338387,-13.569696,-208.669998,-71.82,-30.799999,1729472365618.0,0.0
-5.254639,-9.138189,-14.99582,-142.660004,-15.82,4.06,1729472365637.0,0.0
-7.767102,-10.841879,-14.615361,-6.86,52.5,26.460001,1729472365658.0,0.0
-4.709075,-5.948557,-8.903693,70.209999,38.57,39.619999,1729472365678.0,0.0
0.636491,-4.558327,-7.45125,47.25,29.82,43.330002,1729472365701.0,0.0
-0.071785,-7.338787,-6.113662,10.71,55.720001,49.07,1729472365718.0,0.0
0.191426,-9.750752,-6.388836,60.760002,56.490002,56.349998,1729472365738.0,0.0
1.651048,-9.142976,-2.455036,142.660004,36.610001,51.099998,1729472365760.0,0.0
1.667797,-6.786045,-1.12702,157.710007,33.670002,29.960001,1729472365778.0,0.0
-0.299103,-6.161518,-1.540978,81.199997,10.99,10.78,1729472365800.0,0.0
-2.057827,-9.973285,-3.737589,24.5,-12.25,-4.13,1729472365819.0,0.0
-0.337388,-10.427922,-4.606184,7.0,-53.48,-35.279999,1729472365838.0,0.0
1.237089,-6.142376,-6.977471,-17.99,-71.400002,-55.650002,1729472365859.0,0.0
-1.301696,-5.625526,-6.912865,-95.059998,-46.900002,-48.720001,1729472365879.0,0.0
-4.587041,-9.102298,-8.185846,-141.610001,-24.08,-39.830002,1729472365900.0,0.0
-5.661418,-8.843873,-8.786445,-83.790001,-15.05,-29.75,1729472365918.0,0.0
-4.443472,-5.687739,-8.035098,-3.57,-14.7,-11.41,1729472365938.0,0.0
-2.531606,-4.871787,-6.532406,-4.69,-13.440001,3.85,1729472365958.0,0.0
-2.191825,-5.757132,-5.84088,-111.93,-0.21,4.97,1729472365980.0,0.0
-2.478964,-7.355537,-6.128019,-152.039993,-2.03,5.6,1729472366002.0,0.0
-1.909473,-8.889337,-8.252845,-130.270004,-14.21,1.33,1729472366021.0,0.0
-1.196411,-11.196017,-8.827123,-29.120001,-17.57,-0.63,1729472366042.0,0.0
-1.684547,-11.96172,-8.324631,114.029999,-6.44,3.64,1729472366064.0,0.0
-2.100898,-9.676575,-7.546963,232.540009,-2.52,0.98,1729472366081.0,0.0
-1.457229,-9.047262,-6.972685,256.899994,-5.11,-5.04,1729472366101.0,0.0
-0.882952,-11.382657,-6.798009,296.799988,-11.76,1.4,1729472366120.0,0.0
-0.878166,-14.067404,-7.046863,429.23999,-5.81,9.1,1729472366141.0,0.0
-1.09352,-13.016955,-7.88435,634.619995,2.66,14.0,1729472366160.0,0.0
-0.461815,-10.140782,-6.209375,790.02002,17.5,7.28,1729472366183.0,0.0
1.122234,-5.108676,-2.895315,813.26001,35.91,-16.450001,1729472366201.0,0.0
1.194018,-3.481557,4.338188,682.849976,49.0,-23.450001,1729472366221.0,0.0
1.452443,-2.478964,3.20399,437.779999,45.080002,-40.110001,1729472366240.0,0.0
-1.146162,-4.35733,4.845466,299.040009,43.540001,-9.59,1729472366260.0,0.0
-2.639283,-6.664011,6.575477,130.830002,55.93,-52.849998,1729472366279.0,0.0
-3.244668,-8.047063,8.482556,78.889999,40.459999,-56.209999,1729472366302.0,0.0
-3.335595,-3.158526,10.006784,143.430008,41.16,-56.349998,1729472366320.0,0.0
-3.378666,-3.189633,9.365508,90.160004,14.77,-40.740002,1729472366338.0,0.0
-2.902494,-5.699703,8.633304,20.16,-4.41,-42.84,1729472366360.0,0.0
-2.768496,-5.369494,8.51127,9.8,-10.22,-43.470001,1729472366381.0,0.0
-2.586641,-1.502693,2.012364,2.73,-7.98,-28.42,1729472366400.0,0.0
-5.414958,-5.072784,6.740582,46.619999,11.76,4.97,1729472366420.0,0.0
-3.065206,-5.20439,7.04447,46.689999,17.360001,-15.26,1729472366443.0,0.0
-2.201397,-5.711668,7.690532,28.35,23.379999,-16.59,1729472366459.0,0.0
-2.122434,-6.989435,7.781459,-2.24,24.710001,-30.309999,1729472366482.0,0.0
-1.26341,-7.278966,7.082755,-7.35,27.790001,-40.389999,1729472366500.0,0.0
-0.748954,-2.400001,8.738588,15.33,31.360001,-42.349998,1729472366519.0,0.0
-0.885344,1.028914,9.765109,11.34,23.799999,-20.23,1729472366540.0,0.0
-0.557528,0.641276,10.411172,-30.309999,7.98,9.24,1729472366561.0,0.0
-1.586441,-3.553342,9.016156,-51.52,-11.48,32.689999,1729472366580.0,0.0
-2.225325,-5.070391,8.042276,-19.040001,-16.309999,44.799999,1729472366603.0,0.0
-3.024528,-6.513263,7.537392,-8.4,-16.030001,41.580002,1729472366619.0,0.0
-1.854438,-6.977471,8.949157,-1.82,-13.65,32.549999,1729472366639.0,0.0
-2.014757,-5.359922,9.645468,1.12,-13.65,18.059999,1729472366662.0,0.0
-3.751946,-5.070391,7.159326,-21.139999,-22.889999,19.809999,1729472366680.0,0.0
-3.962514,-7.692925,3.902694,-26.74,-24.01,17.710001,1729472366700.0,0.0
-4.268795,-7.647461,4.283153,23.450001,-1.68,6.3,1729472366720.0,0.0
-4.883751,-6.941578,6.690332,53.900002,17.710001,-10.92,1729472366742.0,0.0
-3.811767,-8.906086,6.896115,17.639999,18.549999,-28.84,1729472366761.0,0.0
-2.550749,-7.879565,6.204589,2.52,24.85,-42.700001,1729472366781.0,0.0
-1.988436,-6.463014,5.292924,-5.81,33.810001,-48.720001,1729472366801.0,0.0
-2.37368,-4.486543,5.742774,-1.75,45.43,-48.720001,1729472366819.0,0.0
-3.278167,-4.407579,7.274181,-2.73,48.720001,-44.450001,1729472366841.0,0.0
-2.847459,-5.379066,8.49452,3.29,43.400002,-41.23,1729472366862.0,0.0
-1.165305,-1.246661,8.819944,11.76,43.119999,-34.860001,1729472366881.0,0.0
-1.442872,-1.919044,9.111869,-26.25,31.85,-16.66,1729472366904.0,0.0
-0.418744,-1.359123,9.147761,-35.91,25.969999,-4.76,1729472366919.0,0.0
-1.564906,-1.861616,9.391829,-24.99,25.76,14.7,1729472366939.0,0.0
-2.469393,-4.130012,9.600004,-38.57,19.32,20.440001,1729472366961.0,0.0
-2.502892,-5.388636,8.126025,-25.690001,15.12,23.940001,1729472366981.0,0.0
-2.632105,-4.438686,8.669197,-11.06,19.18,24.43,1729472367000.0,0.0
-2.392823,-3.177669,9.836893,-21.42,16.799999,25.059999,1729472367020.0,0.0
-2.376073,-4.472186,9.035298,-48.369999,6.09,30.1,1729472367039.0,0.0
-2.565106,-6.130411,7.295716,-48.580002,-1.89,39.060001,1729472367064.0,0.0
-3.117848,-5.726025,6.290731,-12.6,-0.28,46.130001,1729472367079.0,0.0
-2.541178,-4.850252,7.673782,11.06,2.31,52.5,1729472367100.0,0.0
-3.168097,-3.326023,8.209774,-1.54,-2.24,58.59,1729472367119.0,0.0
-4.359723,-6.577869,5.804988,-38.150002,-15.89,63.490002,1729472367141.0,0.0
-4.498507,-8.606983,5.328816,-12.53,-18.129999,58.52,1729472367160.0,0.0
-5.54417,-7.9681,6.202196,47.529999,-0.56,48.16,1729472367179.0,0.0
-6.482157,-9.753145,7.776673,27.23,-4.48,19.040001,1729472367201.0,0.0
-5.850451,-12.509676,5.843273,30.1,-8.26,-2.45,1729472367219.0,0.0
-4.515256,-10.430314,6.594619,58.73,2.17,-29.82,1729472367240.0,0.0
-2.428715,-5.962914,6.860222,44.59,8.19,-45.150002,1729472367261.0,0.0
-4.161119,-6.281159,6.360123,7.07,5.46,-41.439999,1729472367279.0,0.0
-4.48415,-5.410172,7.446464,5.81,8.26,-50.959999,1729472367300.0,0.0
-2.98385,-3.132205,8.532805,24.43,13.3,-61.740002,1729472367320.0,0.0
-1.485943,1.229911,9.870394,-14.07,7.49,-58.380001,1729472367338.0,0.0
-1.366302,1.68694,8.733803,-77.349998,-5.81,-24.15,1729472367359.0,0.0
-1.426122,-2.189433,6.709475,-96.32,-19.460001,-0.42,1729472367379.0,0.0
-1.540978,-2.768496,7.168896,-32.759998,-10.08,24.43,1729472367400.0,0.0
-4.68754,-4.500899,7.355537,-6.58,-12.6,35.0,1729472367418.0,0.0
-3.826123,-4.993821,7.575676,0.14,-13.09,41.23,1729472367445.0,0.0
-1.462015,-5.065606,7.838887,-6.44,-12.74,38.150002,1729472367461.0,0.0
-1.572084,-4.756931,5.812167,-17.360001,-10.57,37.869999,1729472367478.0,0.0
-2.876173,-6.876972,4.474578,-8.26,3.36,39.970001,1729472367510.0,0.0
-5.036892,-8.611769,5.233103,31.639999,18.549999,37.799999,1729472367518.0,0.0
-6.625726,-8.922836,6.039484,58.52,28.630001,19.389999,1729472367539.0,0.0
-6.4678,-9.348758,6.659225,44.170002,29.190001,-5.74,1729472367559.0,0.0
-5.067998,-9.114261,6.707082,32.759998,28.700001,-29.469999,1729472367580.0,0.0
-2.770889,-5.149354,7.721639,29.049999,33.459999,-37.029999,1729472367602.0,0.0
-4.115655,-6.149554,7.343572,1.82,26.389999,-34.580002,1729472367619.0,0.0
-3.601198,-5.553742,6.218946,5.81,21.07,-41.16,1729472367640.0,0.0
-3.04367,-2.912065,7.625926,28.91,28.07,-30.870001,1729472367660.0,0.0
-1.5003,-2.684747,9.51147,9.1,29.26,-31.85,1729472367680.0,0.0
-0.148355,0.031107,10.51167,-34.16,24.360001,-21.700001,1729472367702.0,0.0
-2.108077,-2.017149,9.96132,-49.420002,12.88,8.47,1729472367720.0,0.0
-2.574677,-3.795017,8.176274,-54.389999,1.33,20.790001,1729472367741.0,0.0
-2.230111,-3.067599,6.707082,-26.880001,2.8,33.670002,1729472367760.0,0.0
-4.493721,-5.28096,5.60399,-9.38,2.94,45.779999,1729472367782.0,0.0
-6.245267,-6.80758,7.039684,11.48,7.07,50.049999,1729472367803.0,0.0
-5.948557,-6.364908,9.719646,28.49,6.51,48.23,1729472367820.0,0.0
-5.371887,-5.520242,8.903693,2.87,-8.89,40.810001,1729472367840.0,0.0
-5.761917,-4.460221,5.412565,-42.84,-22.4,35.84,1729472367860.0,0.0
-5.69731,-7.582855,2.352145,-42.98,-17.57,34.439999,1729472367882.0,0.0
-6.9679,-8.9683,3.546163,23.17,3.36,25.620001,1729472367904.0,0.0
-7.534998,-7.9681,6.649654,73.779999,24.290001,13.16,1729472367922.0,0.0
-6.888937,-8.453842,6.331409,17.99,19.809999,-18.9,1729472367940.0,0.0
-5.395815,-7.628319,6.616155,2.31,17.780001,-39.549999,1729472367960.0,0.0
-3.78066,-4.472186,6.788438,22.610001,18.9,-39.619999,1729472367981.0,0.0
-5.326423,-5.946165,6.893722,17.85,9.66,-34.369999,1729472368005.0,0.0
-4.4674,-5.529813,7.475177,19.67,3.92,-44.939999,1729472368021.0,0.0
-2.845066,-2.06022,8.822337,46.48,10.71,-36.049999,1729472368042.0,0.0
-3.175276,-0.832702,10.057034,-20.299999,2.8,-39.41,1729472368064.0,0.0
-1.588834,-0.114855,8.867801,-51.099998,-9.31,-14.49,1729472368083.0,0.0
-2.632105,-1.569692,7.546963,-52.5,-11.76,10.29,1729472368104.0,0.0
-3.134598,-4.448257,7.709675,-52.57,-11.55,23.450001,1729472368121.0,0.0
-4.058227,-5.003392,8.114061,-15.68,-8.54,32.130001,1729472368142.0,0.0
-5.900701,-5.563312,7.625926,-1.75,-13.51,34.860001,1729472368164.0,0.0
-5.240282,-5.096712,7.520642,-13.65,-17.99,28.559999,1729472368183.0,0.0
-4.125226,-5.517848,7.264609,-21.280001,-22.190001,28.84,1729472368204.0,0.0
-4.4674,-4.859823,5.161318,-29.33,-26.460001,31.15,1729472368225.0,0.0
-5.644669,-6.876972,4.256832,-20.09,-16.799999,30.940001,1729472368243.0,0.0
-6.252446,-8.12124,4.326223,26.6,-4.62,22.26,1729472368264.0,0.0
-6.642475,-7.104291,6.398407,57.610001,10.5,7.07,1729472368281.0,0.0
-6.211767,-7.810174,5.931807,18.27,10.22,-8.26,1729472368304.0,0.0
-5.426922,-8.82473,4.85743,-4.62,6.02,-27.16,1729472368321.0,0.0
-3.998406,-6.515656,5.776274,21.07,15.96,-34.23,1729472368341.0,0.0
-4.347759,-4.890929,6.750153,33.389999,19.040001,-32.200001,1729472368364.0,0.0
-5.87438,-6.436693,7.02772,29.960001,12.88,-31.57,1729472368383.0,0.0
-5.520242,-7.274181,7.097112,32.41,8.12,-39.060001,1729472368405.0,0.0
-3.63709,-2.988636,7.515855,34.369999,10.71,-49.91,1729472368421.0,0.0
-3.122634,-2.998207,8.836694,25.690001,9.17,-36.049999,1729472368443.0,0.0
-2.67039,-1.182054,8.903693,-49.279999,0.98,-39.830002,1729472368461.0,0.0
-1.674976,-0.198604,7.867601,-51.73,-9.24,-10.99,1729472368481.0,0.0
-1.995614,-1.852045,7.092326,-51.869999,-11.34,7.07,1729472368502.0,0.0
-2.335395,-4.457829,7.69771,-40.18,-10.78,21.210001,1729472368522.0,0.0
-4.599005,-5.359922,8.394022,4.55,-9.8,29.610001,1729472368543.0,0.0
-4.996214,-5.656632,7.838887,-1.68,-16.1,26.25,1729472368563.0,0.0
-3.237489,-6.13759,7.250252,-19.110001,-17.01,19.389999,1729472368581.0,0.0
-3.663411,-5.486742,6.707082,-19.74,-15.190001,16.17,1729472368603.0,0.0
-4.187439,-4.45065,5.489135,-9.1,-8.05,21.559999,1729472368623.0,0.0
-5.948557,-7.523034,4.833502,-5.39,-8.61,22.049999,1729472368643.0,0.0
-5.82413,-7.872386,5.704489,49.84,4.69,16.379999,1729472368663.0,0.0
-6.226124,-6.293124,7.207181,52.43,12.88,-3.22,1729472368681.0,0.0
-5.359922,-9.298509,6.147161,3.36,2.17,-17.15,1729472368703.0,0.0
-4.546363,-9.018548,6.723832,28.77,6.16,-28.700001,1729472368723.0,0.0
-3.488736,-5.139783,7.025328,54.459999,9.38,-35.209999,1729472368742.0,0.0
-4.496114,-4.381258,7.336394,27.440001,3.57,-34.860001,1729472368764.0,0.0
-4.259224,-6.606583,7.74796,1.96,-4.62,-44.450001,1729472368781.0,0.0
-3.436093,-4.754539,7.058826,20.719999,-4.27,-44.939999,1729472368802.0,0.0
-3.498307,-2.545963,8.176274,44.869999,1.12,-35.560001,1729472368824.0,0.0
-2.605784,-0.937986,9.226725,-9.17,-0.98,-37.380001,1729472368843.0,0.0
-1.631905,0.222532,8.508877,-46.130001,-5.95,-19.809999,1729472368863.0,0.0
-2.790031,-3.06042,7.534998,-65.239998,-9.31,7.0,1729472368881.0,0.0
-4.350152,-6.283553,7.063612,-22.75,-15.33,27.51,1729472368904.0,0.0
-5.041678,-5.551349,7.618747,27.23,-11.76,27.09,1729472368922.0,0.0
-4.309474,-4.295116,8.178668,21.629999,-12.46,20.790001,1729472368942.0,0.0
-3.151347,-4.039084,8.061419,-23.870001,-17.290001,18.200001,1729472368963.0,0.0
-3.172883,-4.206582,6.252446,-57.119999,-20.16,24.639999,1729472368981.0,0.0
-4.409972,-8.657232,3.28056,-41.790001,-19.18,32.130001,1729472369004.0,0.0
-4.938786,-7.63789,5.096712,35.98,5.25,24.5,1729472369022.0,0.0
-6.259624,-5.802595,7.262216,60.900002,19.389999,9.17,1729472369040.0,0.0
-6.005985,-8.618947,6.053841,6.02,8.19,-2.87,1729472369065.0,0.0
-5.192425,-8.788837,5.852845,6.72,12.53,-22.540001,1729472369140.0,0.0
-2.476572,-8.317451,6.685547,17.639999,14.14,-24.360001,1729472369141.0,0.0
-4.867002,-4.957928,7.415358,38.43,18.620001,-39.619999,1729472369141.0,0.0
-4.828716,-6.07777,7.898707,13.86,8.05,-36.68,1729472369142.0,0.0
-3.943372,-6.238089,7.872386,11.48,3.92,-45.290001,1729472369171.0,0.0
-2.912065,-0.803988,8.178668,25.76,8.47,-40.950001,1729472369182.0,0.0
-2.622534,-1.052842,8.650054,-6.23,4.48,-29.4,1729472369204.0,0.0
-1.485943,-0.674776,7.84128,-57.75,-2.03,-18.200001,1729472369222.0,0.0
-1.919044,-1.875973,6.982256,-53.34,-2.1,16.59,1729472369243.0,0.0
-3.486342,-5.398208,6.597012,-33.25,-1.05,29.75,1729472369261.0,0.0
-4.701896,-6.113662,6.723832,10.71,3.71,31.08,1729472369282.0,0.0
-4.503292,-5.601598,7.515855,33.32,9.24,25.129999,1729472369303.0,0.0
-3.883551,-5.197211,8.238488,21.49,8.33,16.59,1729472369321.0,0.0
-3.17049,-3.562913,8.097312,-0.07,6.16,15.61,1729472369340.0,0.0
-3.706482,-4.321437,6.269196,-27.65,-0.42,25.620001,1729472369362.0,0.0
-5.300103,-7.879565,5.06082,-26.110001,-3.29,30.309999,1729472369383.0,0.0
-5.584848,-8.087741,6.367301,48.16,10.64,28.210001,1729472369402.0,0.0
-7.101898,-6.963113,7.975278,56.98,14.0,5.11,1729472369422.0,0.0
-6.202196,-10.315458,6.558727,15.61,-1.96,-11.34,1729472369470.0,0.0
-4.649254,-9.664611,6.903293,33.040001,1.89,-35.630001,1729472369472.0,0.0
-3.981657,-5.989235,7.585248,51.310001,7.56,-50.82,1729472369480.0,0.0
-4.522435,-5.575277,7.941778,25.41,-1.12,-52.43,1729472369502.0,0.0
-3.936193,-5.479564,7.877172,5.6,-7.28,-55.369999,1729472369521.0,0.0
-2.56032,-0.562313,7.745567,15.82,-0.7,-43.959999,1729472369541.0,0.0
-2.242075,-0.098106,7.635497,-21.91,-3.08,-38.709999,1729472369561.0,0.0
-1.627119,0.959522,7.76471,-44.869999,-0.7,-3.85,1729472369581.0,0.0
-2.651247,-0.031107,7.843673,-53.760002,0.21,20.93,1729472369602.0,0.0
-4.046263,-5.515456,6.45105,-55.09,-7.7,36.68,1729472369621.0,0.0
-5.108676,-6.125626,6.829116,4.48,-2.17,41.439999,1729472369641.0,0.0
-4.838287,-5.781059,8.673983,41.369999,1.96,35.98,1729472369661.0,0.0
-4.089334,-5.194818,9.408579,23.59,-4.55,28.700001,1729472369682.0,0.0
-3.35713,-4.108476,8.035098,-19.6,-14.49,25.549999,1729472369703.0,0.0
-3.84048,-6.474977,5.587241,-52.360001,-21.0,29.960001,1729472369721.0,0.0
-4.802395,-9.645468,4.474578,-10.08,-16.030001,26.32,1729472369740.0,0.0
-5.333601,-7.252645,6.501299,63.630001,10.29,12.18,1729472369761.0,0.0
-6.398407,-8.085347,7.075576,51.869999,9.73,-8.4,1729472369782.0,0.0
-5.532206,-10.217353,6.71426,28.210001,2.52,-28.49,1729472369809.0,0.0
-3.907479,-6.491727,7.412964,35.700001,7.77,-46.900002,1729472369821.0,0.0
-4.199404,-3.421736,7.499106,18.48,3.92,-48.509998,1729472369907.0,0.0
-4.644469,-4.740182,7.008578,-13.86,-8.89,-42.0,1729472369908.0,0.0
-3.804588,-2.17029,6.78126,8.47,-7.0,-26.67,1729472369911.0,0.0
-4.23051,-2.696711,8.080563,-22.68,-2.17,-17.92,1729472369913.0,0.0
-3.668197,-2.65364,8.159525,-70.07,-6.44,-10.08,1729472369920.0,0.0
-4.847858,-1.718047,8.508877,-92.470001,-3.99,2.17,1729472369939.0,0.0
-5.249853,-3.680161,8.267202,-112.629997,-11.76,17.01,1729472369960.0,0.0
-4.890929,-6.01077,7.640282,-102.410004,-23.799999,21.210001,1729472369986.0,0.0
-4.67079,-6.881758,7.537392,-44.170002,-31.99,28.98,1729472370005.0,0.0
-5.261817,-6.034698,8.769694,-6.51,-33.110001,31.360001,1729472370027.0,0.0
-5.431707,-4.910072,9.535398,-32.060001,-51.59,26.18,1729472370040.0,0.0
-4.895715,-3.115455,9.726824,-72.239998,-70.07,34.439999,1729472370064.0,0.0
-4.338188,-4.706682,8.279166,-125.160004,-91.910004,41.299999,1729472370080.0,0.0
-3.065206,-8.709875,5.187639,-197.820007,-111.370003,28.559999,1729472370100.0,0.0
-1.529014,-12.014362,3.259024,-236.389999,-109.410004,1.47,1729472370119.0,0.0
-0.33021,-13.483556,2.792424,-222.809998,-78.190002,-30.59,1729472370140.0,0.0
0.684347,-12.777672,1.639083,-171.639999,-40.950001,-59.709999,1729472370160.0,0.0
1.246661,-10.947165,1.033699,-94.080002,-5.88,-74.690002,1729472370179.0,0.0
0.98345,-9.133404,1.325624,-23.66,24.219999,-77.419998,1729472370200.0,0.0
0.289532,-7.80778,1.198804,10.01,48.09,-79.660004,1729472370219.0,0.0
-0.4666,-8.432307,2.493321,14.07,72.940002,-78.260002,1729472370239.0,0.0
-0.691526,-7.472785,3.570091,38.920002,80.220001,-72.449997,1729472370260.0,0.0
-1.07677,-5.017749,5.173282,65.590004,83.860001,-55.09,1729472370281.0,0.0
-1.435694,-3.534199,6.221339,58.240002,77.07,-34.93,1729472370300.0,0.0
-1.469193,-4.199404,4.795217,14.42,61.670002,-14.49,1729472370320.0,0.0
-1.868794,-9.320045,7.948956,11.62,44.799999,-4.48,1729472370339.0,0.0
-1.349552,-4.953143,16.443478,91.769997,1.33,8.12,1729472370360.0,0.0
-1.820938,-3.074777,10.325029,46.759998,-28.559999,37.099998,1729472370381.0,0.0
-0.337388,-3.562913,5.56092,-62.93,-67.620003,40.459999,1729472370402.0,0.0
0.473779,-6.273981,2.014757,-111.510002,-62.23,49.98,1729472370420.0,0.0
-0.811167,-7.69771,0.904487,-76.510002,-38.920002,58.799999,1729472370442.0,0.0
-1.871187,-8.262416,2.634498,0.7,-13.02,64.610001,1729472370462.0,0.0
-4.993821,-10.49492,5.800202,26.040001,-0.77,72.309998,1729472370486.0,0.0
-9.54497,-14.565112,3.893122,-0.21,1.47,63.77,1729472370503.0,0.0
-10.688738,-16.247265,0.035892,-35.630001,6.23,23.59,1729472370520.0,0.0
-9.262616,-15.201601,0.019143,-19.32,21.700001,-19.809999,1729472370540.0,0.0
-8.099705,-11.602797,4.661219,35.490002,36.049999,-66.150002,1729472370560.0,0.0
-6.159126,-8.796017,4.792823,24.780001,24.639999,-98.629997,1729472370583.0,0.0
-3.290131,-7.834101,3.117848,-24.780001,8.33,-99.959999,1729472370601.0,0.0
-0.746561,-6.800402,3.364309,-8.4,6.93,-92.959999,1729472370620.0,0.0
2.344966,-2.806781,4.17069,38.709999,12.32,-74.620003,1729472370639.0,0.0
3.775874,1.954936,7.927422,62.09,20.790001,-40.529999,1729472370660.0,0.0
4.34058,1.785046,9.430114,26.950001,14.98,-13.58,1729472370681.0,0.0
2.79721,-2.266003,10.238889,-16.52,3.64,19.809999,1729472370702.0,0.0
1.002593,-4.941179,9.262616,-35.279999,-11.27,36.189999,1729472370721.0,0.0
1.136591,-4.503292,6.922436,-39.200001,-27.23,48.16,1729472370742.0,0.0
1.124627,-4.977071,4.180261,-32.060001,-30.450001,67.480003,1729472370760.0,0.0
-0.892523,-7.69771,3.443272,-47.32,-14.49,70.419998,1729472370781.0,0.0
-3.330809,-11.380265,4.007978,-31.15,-5.74,81.900002,1729472370802.0,0.0
-5.821737,-15.282957,4.656433,1.4,-3.08,70.209999,1729472370820.0,0.0
-5.699703,-10.82513,0.784846,0.42,7.91,51.52,1729472370840.0,0.0
-7.475177,-13.196418,0.509671,-20.65,14.98,39.830002,1729472370861.0,0.0
-10.394422,-17.120646,0.586242,-36.68,29.049999,3.15,1729472370879.0,0.0
-8.379664,-12.861421,4.426722,22.610001,27.23,-21.07,1729472370903.0,0.0
-7.408179,-8.796017,5.185246,72.309998,18.059999,-64.400002,1729472370920.0,0.0
-5.182854,-6.798009,3.988836,-1.75,10.78,-84.349998,1729472370940.0,0.0
-0.897308,-6.965507,3.115455,-48.790001,4.48,-85.68,1729472370960.0,0.0
2.151148,-5.462814,4.407579,-16.17,13.16,-74.129997,1729472370980.0,0.0
4.053442,-1.624727,6.553941,46.759998,24.43,-39.200001,1729472371001.0,0.0
4.661219,0.256032,10.119246,69.580002,24.780001,-12.67,1729472371022.0,0.0
3.081956,-2.086541,10.999805,21.280001,16.940001,9.03,1729472371041.0,0.0
1.51705,-4.704289,8.688338,-41.580002,1.19,19.040001,1729472371063.0,0.0
1.411765,-5.778666,5.709275,-57.959999,-10.57,34.720001,1729472371080.0,0.0
1.026521,-6.376873,3.120241,-42.77,-9.66,48.23,1729472371101.0,0.0
-1.045663,-7.712067,3.503092,-2.45,-0.91,64.190002,1729472371121.0,0.0
-3.433701,-8.41795,5.075177,51.310001,-0.35,78.120003,1729472371141.0,0.0
-5.438886,-10.147961,4.934,44.799999,-5.53,81.480003,1729472371161.0,0.0
-7.02772,-10.69831,2.378466,-3.85,-5.18,73.919998,1729472371179.0,0.0
-8.059027,-13.864014,1.548156,-41.93,-14.42,48.650002,1729472371203.0,0.0
-9.827322,-16.024733,0.430708,-42.560001,-2.24,26.6,1729472371219.0,0.0
-8.618947,-13.081561,2.380858,-3.78,9.73,-12.04,1729472371241.0,0.0
-7.757531,-11.236694,5.472386,54.880001,8.82,-53.549999,1729472371259.0,0.0
-6.711867,-8.226524,5.17089,33.110001,6.37,-73.779999,1729472371279.0,0.0
-4.084548,-8.154739,3.864408,-35.490002,2.52,-93.099998,1729472371300.0,0.0
-0.655633,-9.217153,2.976671,-72.800003,6.44,-101.989998,1729472371318.0,0.0
2.258825,-7.317252,4.596612,-0.84,19.18,-83.440002,1729472371339.0,0.0
3.055635,-2.651247,7.700103,88.199997,28.77,-65.239998,1729472371359.0,0.0
3.208775,0.81356,9.540184,111.93,24.219999,-31.780001,1729472371380.0,0.0
2.675175,0.179462,10.593026,63.700001,8.19,-6.44,1729472371400.0,0.0
0.521635,-3.644269,8.609376,-31.360001,-2.03,8.61,1729472371420.0,0.0
-0.117248,-6.687939,5.335995,-67.129997,-14.07,23.799999,1729472371442.0,0.0
0.569492,-7.152147,2.849852,-39.130001,-17.43,38.360001,1729472371459.0,0.0
-0.969093,-7.738388,3.713661,21.139999,-10.36,56.349998,1729472371478.0,0.0
-2.87378,-7.702496,5.804988,64.959999,-7.91,63.0,1729472371499.0,0.0
-4.878965,-9.320045,6.489335,50.889999,-12.67,70.980003,1729472371519.0,0.0
-6.448657,-10.703095,4.821537,-5.95,-19.25,60.619999,1729472371540.0,0.0
-7.611568,-14.091332,2.837888,-50.189999,-28.700001,41.860001,1729472371560.0,0.0
-9.169296,-14.534004,0.208176,-41.790001,-15.12,-9.87,1729472371579.0,0.0
-6.979864,-12.715459,2.452643,20.09,2.66,-39.759998,1729472371602.0,0.0
-6.317052,-10.4016,5.15414,59.779999,8.33,-64.610001,1729472371620.0,0.0
-5.228317,-7.889136,5.130211,34.509998,7.28,-76.440002,1729472371639.0,0.0
-3.108276,-8.224132,3.567699,-42.209999,0.77,-89.669998,1729472371659.0,0.0
-0.459422,-8.803195,2.579463,-70.629997,4.76,-93.309998,1729472371679.0,0.0
2.036292,-6.85783,4.333402,-0.98,16.799999,-79.169998,1729472371703.0,0.0
3.041277,-2.40718,7.745567,87.57,25.41,-62.23,1729472371719.0,0.0
3.723232,1.421337,10.109675,120.959999,19.67,-29.120001,1729472371738.0,0.0
2.56032,1.036092,11.487941,74.480003,5.95,-2.1,1729472371760.0,0.0
0.760918,-2.232504,8.9683,-36.75,-5.25,10.43,1729472371778.0,0.0
0.509671,-5.345565,5.915058,-83.720001,-16.73,30.73,1729472371800.0,0.0
0.478565,-6.599405,3.668197,-63.700001,-15.75,44.66,1729472371820.0,0.0
-0.880559,-7.788638,4.311867,-5.18,-10.99,60.060001,1729472371838.0,0.0
-2.112862,-7.9681,5.788238,43.400002,-11.13,72.029999,1729472371859.0,0.0
-4.936393,-9.540184,7.843673,35.77,-16.66,81.129997,1729472371879.0,0.0
-7.068398,-12.928421,4.177868,-30.24,-33.040001,65.800003,1729472371901.0,0.0
-7.365108,-15.077175,1.045663,-88.269997,-32.549999,26.460001,1729472371919.0,0.0
-7.905886,-14.383257,0.227318,-64.260002,-6.37,-15.75,1729472371939.0,0.0
-6.496514,-12.552748,2.270789,-11.06,8.26,-40.110001,1729472371959.0,0.0
-5.034499,-10.396815,4.910072,24.92,9.31,-60.619999,1729472371979.0,0.0
-3.725625,-8.35813,4.826324,7.07,8.26,-65.660004,1729472372001.0,0.0
-1.830509,-8.142776,3.59402,-45.920002,7.56,-72.590004,1729472372018.0,0.0
0.117248,-8.91805,2.620141,-62.16,11.9,-71.050003,1729472372038.0,0.0
1.818545,-7.331609,3.129812,-18.9,24.710001,-64.68,1729472372062.0,0.0
2.773281,-4.386044,6.599405,48.509998,37.099998,-45.639999,1729472372078.0,0.0
3.15374,-1.842474,9.410972,75.879997,31.43,-31.08,1729472372101.0,0.0
2.806781,-1.215554,10.269995,64.260002,15.82,-5.32,1729472372119.0,0.0
1.194018,-2.751746,9.154939,14.21,-0.07,12.11,1729472372138.0,0.0
0.428315,-4.788038,6.338587,-40.25,-12.74,28.35,1729472372158.0,0.0
0.325424,-6.393622,4.299902,-47.110001,-19.879999,43.470001,1729472372178.0,0.0
-0.677169,-8.379664,4.371687,-14.0,-19.110001,55.299999,1729472372199.0,0.0
-2.596212,-9.698111,7.113862,24.08,-20.09,67.970001,1729472372218.0,0.0
-5.07757,-11.3683,5.766702,21.139999,-25.549999,65.730003,1729472372239.0,0.0
-6.364908,-13.371094,3.35713,-38.779999,-34.720001,44.73,1729472372259.0,0.0
-6.819544,-14.151153,-0.009571,-68.459999,-19.18,13.93,1729472372278.0,0.0
-5.491528,-13.007384,-0.643669,-49.490002,6.44,-16.870001,1729472372301.0,0.0
-4.517649,-12.741781,2.404787,16.66,19.040001,-33.529999,1729472372320.0,0.0
-4.694718,-11.160125,5.479564,64.050003,20.93,-43.540001,1729472372338.0,0.0
-4.359723,-9.678967,5.458029,32.41,15.26,-56.560001,1729472372359.0,0.0
-2.567499,-9.734003,3.845266,-26.950001,10.29,-73.639999,1729472372378.0,0.0
-0.258425,-9.377472,2.804388,-25.059999,12.6,-79.519997,1729472372399.0,0.0
1.940579,-5.800202,4.412365,33.32,26.389999,-70.980003,1729472372419.0,0.0
3.565305,-2.48375,7.688138,79.309998,27.65,-59.220001,1729472372438.0,0.0
3.804588,-0.059821,8.956335,94.43,26.18,-29.33,1729472372459.0,0.0
2.316252,0.76331,10.399208,73.779999,15.82,-0.49,1729472372478.0,0.0
0.894916,-2.199004,9.054441,-0.84,-0.21,16.66,1729472372499.0,0.0
-0.162712,-4.900501,6.314659,-55.790001,-10.64,34.02,1729472372518.0,0.0
0.16989,-5.675776,4.146761,-48.650002,-16.450001,47.670002,1729472372538.0,0.0
-0.411566,-6.022735,3.402594,-11.69,-13.23,68.040001,1729472372559.0,0.0
-2.610569,-8.597411,5.364708,14.28,-7.35,81.269997,1729472372578.0,0.0
-5.07757,-10.449455,6.226124,-7.63,-7.98,82.389999,1729472372600.0,0.0
-6.051448,-12.547962,4.350152,-42.560001,-13.58,71.400002,1729472372618.0,0.0
-7.018148,-15.199209,2.256432,-67.550003,-12.39,44.310001,1729472372638.0,0.0
-7.898707,-15.943377,0.196211,-51.73,5.04,7.14,1729472372659.0,0.0
-6.498906,-14.390435,1.526621,7.63,17.219999,-21.35,1729472372680.0,0.0
-5.321638,-12.114861,5.005785,62.439999,19.67,-43.189999,1729472372699.0,0.0
-5.012963,-9.805787,6.190232,61.32,15.89,-59.080002,1729472372719.0,0.0
-4.0008,-8.640482,5.149354,6.93,10.78,-76.510002,1729472372738.0,0.0
-1.098306,-8.614161,3.826123,-28.139999,5.95,-84.910004,1729472372759.0,0.0
1.284946,-6.508478,5.304887,9.38,14.7,-75.669998,1729472372778.0,0.0
2.579463,-3.294917,7.506285,60.900002,18.620001,-64.610001,1729472372799.0,0.0
3.065206,0.102891,8.492127,91.139999,15.26,-33.810001,1729472372819.0,0.0
2.522035,0.957129,9.810574,61.810001,4.34,-5.81,1729472372838.0,0.0
1.213161,-2.062613,8.638089,-11.27,-7.84,12.95,1729472372858.0,0.0
0.61017,-4.59422,6.269196,-58.66,-16.73,30.59,1729472372878.0,0.0
0.698704,-5.180461,3.878766,-43.189999,-19.460001,50.119999,1729472372899.0,0.0
-0.490529,-5.785845,3.242275,-13.440001,-13.93,67.550003,1729472372918.0,0.0
-2.019542,-8.85105,6.448657,17.85,-1.05,82.599998,1729472372938.0,0.0
-4.31426,-10.542776,7.695317,2.87,-0.07,79.730003,1729472372960.0,0.0
-6.242875,-12.296716,5.087141,-37.170002,-7.07,67.199997,1729472372978.0,0.0
-7.609176,-15.620347,2.730211,-73.989998,-9.24,36.540001,1729472372999.0,0.0
-7.843673,-15.888342,1.112662,-50.75,1.61,-2.1,1729472373025.0,0.0
-7.113862,-13.586447,2.639283,26.880001,11.13,-31.92,1729472373039.0,0.0
-6.666404,-11.016556,5.309673,71.470001,9.17,-53.41,1729472373062.0,0.0
-5.723632,-9.468399,6.147161,59.990002,-1.26,-73.010002,1729472373080.0,0.0
-4.022335,-8.224132,4.673182,7.07,-6.51,-85.400002,1729472373099.0,0.0
-2.266003,-8.176274,3.148954,-29.469999,-5.11,-95.059998,1729472373118.0,0.0
-0.088534,-7.826923,4.027121,-6.02,3.22,-91.07,1729472373138.0,0.0
1.550549,-5.45085,5.778666,48.299999,10.08,-78.68,1729472373159.0,0.0
3.488736,-1.919044,7.405786,93.449997,9.87,-52.080002,1729472373178.0,0.0
3.448057,1.627119,9.772287,89.949997,2.94,-26.040001,1729472373200.0,0.0
2.751746,-0.354138,8.444271,30.17,-10.5,-1.4,1729472373220.0,0.0
1.737189,-3.330809,6.668797,-58.799999,-21.49,30.940001,1729472373238.0,0.0
1.380659,-3.613162,4.646862,-53.34,-19.950001,51.59,1729472373261.0,0.0
0.691526,-4.668397,3.625126,-31.85,-12.25,73.849998,1729472373278.0,0.0
-0.138784,-6.305088,3.98405,-20.299999,-2.73,80.639999,1729472373304.0,0.0
-2.330609,-10.29153,7.939385,12.88,2.59,96.389999,1729472373321.0,0.0
-4.527221,-10.217353,7.77428,-7.42,-2.45,83.860001,1729472373340.0,0.0
-5.156533,-10.133603,4.642076,-50.259998,-9.59,82.809998,1729472373361.0,0.0
-5.881558,-13.459626,1.85683,-96.809998,-10.08,54.880001,1729472373380.0,0.0
-7.9346,-16.474585,0.72024,-68.25,8.4,25.83,1729472373401.0,0.0
-7.941778,-15.136996,2.35693,14.0,21.91,-6.3,1729472373421.0,0.0
-6.757331,-12.162716,5.020142,69.650002,18.969999,-34.790001,1729472373440.0,0.0
-6.192625,-10.040283,6.719046,67.059998,10.08,-56.98,1729472373460.0,0.0
-4.622933,-8.520842,5.369494,13.16,2.66,-79.590004,1729472373480.0,0.0
-2.07697,-8.645268,2.940779,-42.490002,-0.56,-90.090004,1729472373503.0,0.0
1.447658,-7.62114,4.759324,-33.25,7.49,-91.489998,1729472373520.0,0.0
1.909473,-3.661019,7.070791,73.360001,21.0,-67.830002,1729472373539.0,0.0
2.907279,-0.512064,8.68116,91.840004,17.92,-45.57,1729472373561.0,0.0
2.675175,1.318445,9.872787,54.32,7.56,-18.129999,1729472373581.0,0.0
1.811367,-0.567099,9.107083,-2.38,-4.97,5.11,1729472373603.0,0.0
1.01695,-3.311667,7.398607,-54.32,-14.63,22.26,1729472373621.0,0.0
1.380659,-4.108476,5.161318,-61.25,-18.200001,41.650002,1729472373641.0,0.0
1.799403,-4.249653,3.909872,-33.389999,-14.91,67.900002,1729472373660.0,0.0
0.952343,-6.089733,4.945964,-17.57,-4.41,77.279999,1729472373682.0,0.0
-1.9669,-8.941978,8.901299,14.28,-1.89,92.400002,1729472373702.0,0.0
-3.361916,-8.745767,8.195417,6.44,-11.27,93.029999,1729472373719.0,0.0
-4.666004,-9.858429,4.773681,-67.900002,-16.870001,86.800003,1729472373745.0,0.0
-6.132804,-11.97847,2.455036,-123.760002,-12.53,61.32,1729472373760.0,0.0
-7.920243,-13.617554,0.993021,-128.940002,6.09,42.279999,1729472373781.0,0.0
-7.862815,-12.990634,0.244068,-99.330002,21.77,7.49,1729472373802.0,0.0
-7.590034,-11.810973,1.828116,-33.880001,26.18,-15.54,1729472373820.0,0.0
-7.752745,-9.19801,3.491128,24.85,26.74,-33.32,1729472373840.0,0.0
-6.845865,-5.20439,5.62074,43.540001,18.34,-37.170002,1729472373860.0,0.0
-5.618347,-4.723432,5.936593,-3.57,-12.81,-31.15,1729472373881.0,0.0
-4.31426,-5.79063,5.041678,-69.440002,-32.549999,-25.27,1729472373904.0,0.0
-2.993421,-6.872187,4.321437,-121.520004,-42.349998,-17.57,1729472373920.0,0.0
-1.698904,-7.334002,3.5007,-157.360001,-45.150002,-8.05,1729472373940.0,0.0
-0.957129,-8.652447,2.414358,-204.330002,-44.099998,-2.1,1729472373960.0,0.0
-0.277567,-11.301301,0.866202,-240.800003,-46.900002,-9.52,1729472373981.0,0.0
0.375673,-10.377672,-0.914058,-259.279999,-34.299999,-14.49,1729472374002.0,0.0
0.598206,-9.387043,-2.294717,-240.660004,-20.51,3.22,1729472374021.0,0.0
1.079163,-10.908878,-3.182454,-202.580002,-15.61,0.14,1729472374040.0,0.0
0.973879,-12.973885,-3.048456,-147.490005,-3.5,-6.3,1729472374064.0,0.0
0.277567,-12.533605,-1.976472,-64.330002,9.17,-7.56,1729472374143.0,0.0
-0.212961,-9.741181,-0.392423,-13.58,21.91,-9.31,1729472374149.0,0.0
-0.366102,-8.65484,-0.392423,-69.790001,24.57,-24.639999,1729472374152.0,0.0
-0.655633,-11.755937,-0.141177,-127.889999,7.0,-32.200001,1729472374153.0,0.0
-0.514457,-11.861222,-1.306481,-94.220001,-8.68,-28.139999,1729472374161.0,0.0
-0.409173,-9.286544,-2.486143,-29.4,-1.75,-29.610001,1729472374179.0,0.0
-0.574277,-7.927422,-1.854438,-18.690001,13.65,-19.530001,1729472374201.0,0.0
-0.428315,-8.097312,-1.201197,-54.950001,24.639999,-11.76,1729472374220.0,0.0
-0.899701,-11.289338,-0.074178,-113.120003,19.530001,-7.84,1729472374239.0,0.0
-0.148355,-12.947563,-1.426122,-88.059998,2.94,-10.15,1729472374260.0,0.0
0.318245,-10.344172,-3.897908,-30.59,15.54,-11.48,1729472374280.0,0.0
-0.294317,-12.057433,0.870987,63.560001,9.1,6.3,1729472374301.0,0.0
-0.636491,-8.123632,2.48375,159.529999,12.11,10.36,1729472374319.0,0.0
-3.031706,-6.750153,2.57707,70.07,15.96,5.81,1729472374340.0,0.0
-2.514857,-9.037691,1.249053,-21.07,-6.79,6.09,1729472374361.0,0.0
-1.308874,-9.966106,0.100499,-49.630001,-17.219999,4.76,1729472374379.0,0.0
-1.713261,-8.932407,-1.87358,-34.23,-10.08,10.85,1729472374401.0,0.0
-2.981457,-10.08814,-3.37388,-29.120001,-6.09,16.309999,1729472374419.0,0.0
-3.531806,-12.610175,-4.441079,-21.84,-19.74,12.74,1729472374440.0,0.0
-3.354738,-11.844472,-4.527221,29.68,-28.77,4.97,1729472374460.0,0.0
-3.349952,-10.19821,-4.115655,71.120003,-33.040001,-1.19,1729472374479.0,0.0
-3.136991,-8.173882,-3.201597,67.970001,-34.650002,-10.22,1729472374501.0,0.0
-2.701497,-7.372287,-1.74676,32.830002,-48.439999,-9.45,1729472374520.0,0.0
-1.732404,-9.169296,-5.759524,-0.07,-57.959999,-0.77,1729472374539.0,0.0
-0.270389,-8.733803,-7.336394,-24.710001,-41.369999,-9.8,1729472374560.0,0.0
0.61017,-8.587841,-7.89153,-27.719999,-10.64,1.05,1729472374580.0,0.0
1.383051,-8.80798,-8.085347,-42.349998,21.35,-0.14,1729472374601.0,0.0
1.490728,-9.238688,-6.884151,-52.779999,54.110001,3.99,1729472374620.0,0.0
0.978664,-10.009177,-3.321238,-55.439999,73.779999,-4.48,1729472374640.0,0.0
0.509671,-10.420743,-4.694718,-57.540001,70.209999,-7.91,1729472374662.0,0.0
-0.4666,-11.97847,2.648855,-21.35,48.509998,-11.27,1729472374679.0,0.0
0.48335,-8.398808,-2.679961,50.75,39.060001,-8.54,1729472374703.0,0.0
-4.395615,-7.286145,14.206188,39.130001,29.469999,2.94,1729472374719.0,0.0
-5.003392,-6.831509,6.673582,25.969999,-18.76,6.09,1729472374739.0,0.0
-3.378666,-11.133803,0.602991,-92.68,-56.490002,-7.98,1729472374761.0,0.0
-0.954736,-10.485349,-2.383251,-100.169998,-49.98,-6.72,1729472374779.0,0.0
-1.725225,-10.435099,-3.658626,-32.830002,-12.74,19.460001,1729472374801.0,0.0
-2.825923,-11.959327,-3.034099,-3.78,-0.07,14.14,1729472374821.0,0.0
-3.062813,-11.557333,-3.318845,49.279999,-9.45,13.65,1729472374839.0,0.0
-2.756532,-9.355937,-4.67079,82.040001,-21.49,7.98,1729472374860.0,0.0
-2.455036,-7.398607,-4.474578,37.310001,-20.51,4.27,1729472374880.0,0.0
-2.141576,-9.647861,-1.923829,-3.43,-31.710001,6.37,1729472374901.0,0.0
-1.052842,-8.451449,-5.465207,33.18,-29.68,5.25,1729472374920.0,0.0
-0.849452,-7.290931,-7.920243,12.25,4.69,-0.56,1729472374940.0,0.0
-0.090927,-8.38445,-8.520842,-62.02,24.780001,0.7,1729472374961.0,0.0
0.39003,-10.966305,-6.999006,-75.459999,42.279999,7.0,1729472374978.0,0.0
0.27996,-12.476178,-5.804988,-40.389999,62.510002,-0.14,1729472375001.0,0.0
-0.725025,-10.652846,-1.842474,5.39,59.920002,-13.3,1729472375019.0,0.0
-0.660419,-9.119047,-2.256432,51.450001,62.510002,-4.69,1729472375040.0,0.0
-4.912465,-10.202995,8.559127,77.489998,2.1,8.33,1729472375069.0,0.0
-5.17089,-5.67099,5.924629,83.860001,-13.79,-7.14,1729472375079.0,0.0
-2.773281,-9.444471,-0.55992,-64.190002,-64.050003,-17.99,1729472375102.0,0.0
-1.725225,-11.74158,-4.405186,-92.75,-55.580002,-17.15,1729472375120.0,0.0
-2.141576,-12.179466,-3.632305,-17.01,-43.049999,-2.45,1729472375139.0,0.0
-2.529213,-11.148161,-3.428915,30.380001,-39.34,-13.02,1729472375159.0,0.0
-2.431108,-9.267403,-4.070191,52.779999,-37.029999,-19.74,1729472375179.0,0.0
-2.474179,-9.229117,-0.961915,46.48,-29.190001,-5.88,1729472375201.0,0.0
-1.45005,-9.047262,-3.364309,18.059999,-43.82,-8.4,1729472375219.0,0.0
-1.356731,-8.319844,-5.864808,21.98,-17.219999,-1.47,1729472375240.0,0.0
-0.887737,-8.188239,-7.252645,-37.59,2.31,-3.64,1729472375259.0,0.0
0.155533,-10.066606,-8.717053,-59.57,18.549999,-1.61,1729472375279.0,0.0
0.488136,-10.150353,-6.774081,-29.049999,44.450001,1.33,1729472375302.0,0.0
0.095713,-9.044869,-5.345565,-2.38,65.940002,-5.6,1729472375318.0,0.0
-0.378066,-9.975677,-2.548356,-4.06,71.120003,-6.23,1729472375340.0,0.0
-0.622134,-10.399208,0.057428,-12.67,46.619999,-16.17,1729472375361.0,0.0
0.095713,-9.253045,-1.579263,28.84,41.93,-7.28,1729472375379.0,0.0
-3.706482,-8.724231,12.586248,16.24,21.77,-9.45,1729472375401.0,0.0
-4.902894,-7.281359,6.403193,69.370003,-20.02,5.39,1729472375420.0,0.0
-2.615355,-9.346365,-0.332602,-41.860001,-54.529999,-12.11,1729472375439.0,0.0
-0.265603,-10.796415,-2.182254,-87.779999,-52.920002,-13.37,1729472375469.0,0.0
-1.062413,-11.844472,-3.696911,-33.880001,-29.610001,3.78,1729472375480.0,0.0
-2.711068,-11.703296,-2.598605,11.76,-15.05,0.7,1729472375503.0,0.0
-3.237489,-10.616954,-2.541178,40.670002,-21.77,-4.62,1729472375518.0,0.0
-3.345166,-8.429914,-2.691926,42.139999,-27.65,-7.21,1729472375540.0,0.0
-2.773281,-9.54497,-1.981257,22.190001,-41.09,-12.67,1729472375560.0,0.0
-1.509871,-8.171489,-3.792624,35.139999,-42.560001,-12.11,1729472375578.0,0.0
-0.545564,-6.508478,-7.209574,4.55,-24.01,-11.83,1729472375602.0,0.0
-0.495314,-8.853443,-8.882158,-57.330002,1.33,-2.17,1729472375619.0,0.0
0.392423,-9.664611,-10.004392,-39.060001,26.530001,1.05,1729472375639.0,0.0
0.366102,-8.271988,-8.496914,6.58,61.110001,10.64,1729472375661.0,0.0
-0.277567,-7.929814,-7.178468,-5.81,86.379997,7.91,1729472375678.0,0.0
-1.158126,-12.339786,0.5001,-40.810001,83.160004,0.63,1729472375699.0,0.0
-0.275175,-10.066606,-2.823531,28.139999,69.090004,1.4,1729472375719.0,0.0
-5.520242,-9.147761,16.807186,91.209999,38.290001,10.92,1729472375738.0,0.0
-6.58744,-5.261817,11.026128,115.43,-12.67,13.02,1729472375770.0,0.0
-3.809374,-9.174082,0.748954,-76.440002,-67.199997,-15.61,1729472375784.0,0.0
-0.961915,-11.028521,-2.98385,-151.130005,-69.580002,-22.26,1729472375800.0,0.0
-1.002593,-11.964113,-4.051049,-87.43,-44.170002,3.71,1729472375819.0,0.0
-1.933401,-12.289536,-2.919244,-21.280001,-24.43,-0.28,1729472375839.0,0.0
-2.17029,-10.652846,-3.751946,33.459999,-19.67,-2.03,1729472375859.0,0.0
-1.385444,-7.858029,-3.388237,52.990002,-26.67,9.52,1729472375880.0,0.0
-0.935594,-9.408579,-2.333002,8.68,-41.720001,6.72,1729472375900.0,0.0
-0.346959,-9.427721,-5.374279,16.73,-43.049999,4.34,1729472375918.0,0.0
-0.222532,-7.877172,-7.405786,7.14,-10.43,5.46,1729472375938.0,0.0
-0.502493,-10.322637,-8.458629,-33.529999,16.030001,12.25,1729472375960.0,0.0
0.215354,-10.456635,-8.403593,-6.37,36.189999,8.05,1729472375978.0,0.0
0.196211,-8.283953,-7.099504,19.040001,61.880001,9.59,1729472376003.0,0.0
0.162712,-8.719445,-6.271588,-5.18,78.540001,3.22,1729472376019.0,0.0
-0.349352,-11.765509,-0.124427,-30.940001,79.660004,-2.87,1729472376038.0,0.0
-0.693919,-10.329816,-4.414758,35.84,79.099998,3.36,1729472376063.0,0.0
-4.780859,-8.853443,14.297115,67.269997,43.400002,3.29,1729472376078.0,0.0
-7.06122,-7.372287,8.233703,105.279999,-7.63,18.41,1729472376101.0,0.0
-2.998207,-10.004392,-0.784846,-82.110001,-58.869999,-37.099998,1729472376119.0,0.0
-0.344566,-11.148161,-3.455236,-109.550003,-52.360001,-9.31,1729472376138.0,0.0
-0.911665,-11.837293,-3.754339,-41.439999,-16.52,-5.04,1729472376159.0,0.0
-2.364109,-12.050256,-3.87398,20.440001,2.24,-2.59,1729472376178.0,0.0
-1.684547,-9.107083,-3.491128,61.389999,2.94,-7.28,1729472376200.0,0.0
-1.198804,-8.985049,-4.285545,30.73,-1.33,-9.03,1729472376218.0,0.0
-0.842274,-9.4349,-5.146961,7.49,-3.15,-12.18,1729472376238.0,0.0
-0.952343,-8.910872,-3.914658,14.07,0.91,-10.85,1729472376260.0,0.0
-1.28016,-8.370094,-3.553342,21.629999,2.87,-5.95,1729472376278.0,0.0
-1.526621,-8.748159,-2.392823,4.69,2.52,-6.58,1729472376300.0,0.0
-1.375873,-9.327222,-2.072184,-3.71,-1.12,-10.29,1729472376319.0,0.0
-1.143769,-8.717053,-2.009971,2.52,-4.69,-11.48,1729472376338.0,0.0
-1.165305,-8.422735,-1.37348,-5.88,-5.81,-11.62,1729472376358.0,0.0
-1.064806,-8.530413,-1.29691,-19.32,-10.71,-9.38,1729472376378.0,0.0
-1.232304,-8.724231,0.811167,-28.700001,-15.12,-4.41,1729472376399.0,0.0
-2.069792,-9.607183,1.667797,-44.799999,-25.620001,0.07,1729472376418.0,0.0
-2.340181,-11.274981,-2.108077,-52.080002,-39.970001,2.52,1729472376438.0,0.0
-0.954736,-11.028521,-5.335995,-23.379999,-34.93,3.22,1729472376459.0,0.0
0.363709,-10.04507,-6.295516,10.57,-4.83,12.46,1729472376478.0,0.0
0.473779,-9.820145,-5.730811,29.889999,35.420002,21.77,1729472376500.0,0.0
-0.112463,-9.750752,-5.364708,34.369999,62.860001,24.92,1729472376518.0,0.0
-0.014357,-11.454442,-4.692325,23.309999,78.050003,17.219999,1729472376538.0,0.0
-0.047856,-10.222138,-5.711668,49.0,93.800003,11.69,1729472376559.0,0.0
-4.345366,-8.355737,10.58824,111.93,48.02,26.67,1729472376578.0,0.0
-6.139983,-5.309673,8.743374,124.669998,19.67,23.17,1729472376599.0,0.0
-3.969693,-8.233703,0.914058,-53.060001,-38.150002,-12.04,1729472376618.0,0.0
-1.744368,-9.260223,-1.866402,-69.790001,-38.290001,1.19,1729472376638.0,0.0
-2.337788,-10.533205,-2.770889,-51.66,-24.639999,11.13,1729472376658.0,0.0
-3.672983,-12.25843,-2.502892,-21.98,-19.389999,7.0,1729472376679.0,0.0
-3.45045,-11.473583,-3.711268,19.879999,-24.219999,-7.91,1729472376699.0,0.0
-3.065206,-10.167104,-2.210968,31.85,-26.040001,-7.84,1729472376718.0,0.0
-2.021935,-8.484949,-2.275574,-0.98,-34.23,-14.35,1729472376739.0,0.0
-1.533799,-7.822137,-1.663012,-40.110001,-41.580002,-11.97,1729472376758.0,0.0
-1.529014,-9.549755,-1.837688,-71.75,-54.670002,-12.32,1729472376778.0,0.0
-0.772882,-11.114661,-5.242674,-42.139999,-61.040001,-12.88,1729472376799.0,0.0
-0.315853,-9.671788,-5.596812,4.34,-32.830002,-3.78,1729472376818.0,0.0
0.107677,-8.815158,-6.496514,16.73,-3.08,-1.47,1729472376838.0,0.0
0.693919,-9.071191,-6.144768,-14.42,21.280001,-2.24,1729472376862.0,0.0
-0.026321,-10.174281,-3.706482,-32.060001,44.310001,-0.91,1729472376878.0,0.0
0.038285,-9.817751,-4.003192,12.39,52.009998,-0.63,1729472376900.0,0.0
0.01675,-10.837094,-1.579263,28.280001,53.48,-1.96,1729472376920.0,0.0
-1.249053,-9.355937,-0.918844,21.280001,49.84,-6.44,1729472376939.0,0.0
-1.481157,-10.205389,-3.28056,-2.66,50.75,-4.83,1729472376959.0,0.0
-4.847858,-12.751352,9.329616,13.3,12.04,1.19,1729472376979.0,0.0
-5.225924,-9.970891,4.208975,75.25,1.89,-0.28,1729472377000.0,0.0
-1.744368,-9.817751,-1.660619,-8.47,-33.459999,-29.4,1729472377019.0,0.0
-0.674776,-10.34178,-1.727618,-2.94,-11.34,-11.48,1729472377040.0,0.0
-2.718246,-11.389835,-0.425922,12.04,16.1,-10.29,1729472377063.0,0.0
-3.005385,-10.916058,-0.495314,39.060001,17.85,-15.12,1729472377078.0,0.0
-2.036292,-9.556933,-0.122034,54.670002,5.39,-18.059999,1729472377118.0,0.0
-1.861616,-9.080762,-0.375673,30.309999,-9.45,-18.9,1729472377120.0,0.0
-2.330609,-8.925228,-0.01675,5.04,-23.940001,-20.93,1729472377141.0,0.0
-2.036292,-8.606983,-2.289931,-6.02,-40.880001,-20.299999,1729472377159.0,0.0
-0.911665,-7.446464,-3.182454,3.5,-47.389999,-9.38,1729472377179.0,0.0
-0.586242,-9.640682,-3.775874,-11.9,-49.07,-0.35,1729472377200.0,0.0
-0.334995,-8.898908,-6.484549,46.41,-44.939999,14.77,1729472377219.0,0.0
-0.043071,-7.549356,-7.982457,2.31,14.0,5.95,1729472377238.0,0.0
0.004786,-9.334401,-6.936793,-26.809999,41.720001,18.059999,1729472377259.0,0.0
-0.267996,-10.188639,-5.501099,-4.2,58.869999,22.610001,1729472377280.0,0.0
-0.284746,-8.334201,-5.943772,12.11,74.199997,18.549999,1729472377301.0,0.0
-0.552742,-10.427922,-2.182254,-8.05,78.75,19.110001,1729472377318.0,0.0
0.117248,-9.870394,-4.673182,-5.32,81.970001,16.030001,1729472377338.0,0.0
-5.254639,-6.865008,17.831314,40.18,41.299999,18.41,1729472377359.0,0.0
-8.652447,-5.429315,10.540384,64.050003,1.82,60.34,1729472377379.0,0.0
-1.813759,-9.253045,-3.651447,-189.630005,-85.190002,-15.61,1729472377401.0,0.0
2.411965,-11.294124,-3.522235,-124.459999,-64.959999,25.9,1729472377418.0,0.0
-1.584049,-11.559726,-0.07657,-21.0,-5.46,34.23,1729472377438.0,0.0
-4.15394,-9.724431,2.155933,57.889999,8.4,50.189999,1729472377459.0,0.0
-3.885944,-10.057034,1.079163,22.75,-5.95,42.07,1729472377478.0,0.0
-3.742374,-11.727223,-0.875773,-53.970001,-19.879999,15.68,1729472377502.0,0.0
-3.713661,-13.074384,-3.002992,-52.5,-34.509998,0.91,1729472377519.0,0.0
-3.287738,-11.729616,-2.675175,-25.83,-38.990002,-15.05,1729472377538.0,0.0
-2.940779,-9.98525,-3.311667,-19.809999,-42.77,-31.360001,1729472377558.0,0.0
-2.773281,-8.99462,-2.349752,-30.030001,-41.299999,-25.9,1729472377580.0,0.0
-2.467,-9.966106,-2.096112,-26.18,-42.91,-29.610001,1729472377599.0,0.0
-2.328217,-9.54497,-3.239882,16.66,-42.84,-16.940001,1729472377618.0,0.0
-2.041078,-8.054241,-4.127619,22.75,-27.09,-15.54,1729472377638.0,0.0
-1.902294,-8.539984,-4.108476,-8.68,-17.360001,-7.7,1729472377658.0,0.0
-1.29691,-9.992428,-5.005785,-15.61,-11.69,-6.51,1729472377678.0,0.0
-0.854238,-10.241282,-5.213961,4.69,1.47,-4.41,1729472377701.0,0.0
-0.66999,-9.205189,-4.68754,31.5,18.549999,-4.34,1729472377719.0,0.0
-0.935594,-8.269595,-3.208775,34.02,30.24,-2.73,1729472377738.0,0.0
-1.18684,-8.595018,-2.536392,13.65,32.27,-2.03,1729472377760.0,0.0
-0.562313,-8.54477,-4.211368,-3.29,24.85,-1.26,1729472377778.0,0.0
0.492921,-9.068797,-5.134997,-17.92,27.23,-0.42,1729472377799.0,0.0
0.667598,-10.033106,-6.118448,-23.73,45.920002,4.83,1729472377823.0,0.0
-0.878166,-11.447264,-3.632305,7.63,63.349998,8.68,1729472377839.0,0.0
-2.261217,-9.260223,-5.240282,55.16,90.720001,17.639999,1729472377859.0,0.0
-8.563912,-7.171289,9.427721,81.900002,51.029999,31.08,1729472377879.0,0.0
-4.733003,-11.200804,0.023928,-61.18,-28.139999,-18.34,1729472377899.0,0.0
0.27996,-10.181459,-1.739582,-43.259998,-35.91,-13.79,1729472377918.0,0.0
-2.057827,-10.068997,-0.710668,5.11,14.63,8.75,1729472377938.0,0.0
-4.924429,-10.894521,-0.497707,27.09,36.330002,6.65,1729472377959.0,0.0
-4.242475,-9.88475,-1.057628,48.650002,20.299999,7.28,1729472377978.0,0.0
-3.019742,-9.059227,-2.086541,21.280001,6.93,0.91,1729472377999.0,0.0
-2.09372,-9.499505,-2.368894,-15.26,-2.24,-4.62,1729472378018.0,0.0
-1.706082,-11.057234,-3.26381,-31.85,-9.59,-9.24,1729472378038.0,0.0
-2.158326,-10.983055,-3.393023,-26.6,-9.59,-17.57,1729472378062.0,0.0
-3.062813,-9.614362,-1.366302,-19.6,-11.13,-18.620001,1729472378078.0,0.0
-2.837888,-8.29113,-0.200997,-61.529999,-27.719999,-25.9,1729472378100.0,0.0
-2.033899,-7.322037,-1.430908,-132.720001,-46.970001,-34.509998,1729472378118.0,0.0
-1.651048,-7.465607,-3.845266,-176.75,-43.259998,-27.719999,1729472378138.0,0.0
-1.237089,-9.243474,-5.020142,-197.190002,-34.09,-26.530001,1729472378159.0,0.0
-0.428315,-11.306087,-6.84108,-124.110001,-19.879999,-18.27,1729472378178.0,0.0
-0.844666,-9.698111,-5.709275,-10.64,2.24,2.59,1729472378199.0,0.0
-1.538585,-7.377072,-3.37388,42.209999,29.75,11.41,1729472378218.0,0.0
-1.028914,-6.876972,-2.957529,-26.880001,28.84,9.38,1729472378238.0,0.0
-0.227318,-6.632904,-4.201797,-117.110001,15.4,8.54,1729472378260.0,0.0
0.212961,-6.821937,-6.02752,-182.279999,11.83,14.14,1729472378279.0,0.0
-0.038285,-6.920043,-6.955935,-196.839996,16.450001,26.18,1729472378299.0,0.0
-0.598206,-7.925028,-6.656832,-169.259995,21.559999,33.599998,1729472378318.0,0.0
-1.086342,-8.283953,-7.412964,-124.32,25.969999,40.950001,1729472378337.0,0.0
-1.29691,-7.369894,-6.774081,-91.209999,37.73,40.040001,1729472378360.0,0.0
-2.347359,-6.376873,-6.692725,-86.379997,37.450001,41.509998,1729472378378.0,0.0
-2.316252,-6.673582,-7.659425,-97.230003,22.190001,34.369999,1729472378399.0,0.0
-1.847259,-7.216753,-8.724231,-104.230003,15.190001,26.389999,1729472378418.0,0.0
-1.765903,-7.178468,-9.083155,-89.809998,17.639999,23.1,1729472378437.0,0.0
-2.196611,-6.573084,-8.846266,-60.689999,22.75,19.389999,1729472378459.0,0.0
-2.419144,-6.848258,-7.67139,-37.59,26.25,16.309999,1729472378478.0,0.0
-3.464807,-5.493921,-5.431707,-36.119999,27.23,11.41,1729472378499.0,0.0
-4.855037,-6.415157,-7.207181,-59.290001,17.92,1.89,1729472378519.0,0.0
-3.830909,-8.571091,-8.757731,-48.650002,1.12,-6.79,1729472378538.0,0.0
-3.381058,-6.939186,-8.592626,5.39,-0.42,-6.86,1729472378558.0,0.0
-3.414558,-5.350351,-8.41795,48.790001,16.870001,-8.19,1729472378577.0,0.0
-2.222932,-5.453243,-7.82453,34.16,11.2,-2.94,1729472378599.0,0.0
-0.789631,-6.075377,-6.556334,26.32,10.15,-2.38,1729472378617.0,0.0
0.138784,-5.347959,-4.110869,24.360001,-0.07,3.29,1729472378638.0,0.0
0.658026,-6.211767,-5.508278,1.61,-12.11,-7.28,1729472378659.0,0.0
0.031107,-5.99402,-7.094719,-12.39,-21.35,-4.97,1729472378677.0,0.0
-1.509871,-6.178268,-9.111869,-19.809999,-20.02,-8.4,1729472378699.0,0.0
-2.818745,-6.898508,-8.784052,-39.549999,-9.38,-16.309999,1729472378718.0,0.0
-2.584249,-7.769495,-10.315458,-53.900002,-16.73,-31.85,1729472378738.0,0.0
-3.04367,-7.960921,-10.987842,-14.91,-3.29,-31.85,1729472378758.0,0.0
-4.292724,-4.285545,-10.243673,6.09,12.18,-34.369999,1729472378778.0,0.0
-4.082155,-1.947758,-6.879365,93.449997,17.57,-18.83,1729472378798.0,0.0
-3.189633,-1.339981,-7.001399,35.209999,6.65,4.34,1729472378818.0,0.0
-1.56012,-5.426922,-6.06102,-19.32,3.85,8.4,1729472378838.0,0.0
-3.529413,-5.776274,-8.29113,-15.82,14.07,24.5,1729472378858.0,0.0
-3.531806,-3.098706,-8.056634,31.219999,28.700001,33.950001,1729472378877.0,0.0
0.59342,-6.814759,-9.085547,17.15,-13.09,31.639999,1729472378899.0,0.0
1.524228,-5.898308,-4.345366,6.09,-14.7,45.009998,1729472378917.0,0.0
1.761117,-6.740582,-6.829116,-18.129999,-6.86,16.1,1729472378937.0,0.0
1.5003,-7.80778,-9.310472,-28.700001,-9.31,15.12,1729472378958.0,0.0
0.748954,-9.119047,-9.343972,-17.290001,-0.49,5.95,1729472378977.0,0.0
-1.749153,-7.71446,-7.472785,3.57,22.68,-2.8,1729472378999.0,0.0
-2.569891,-6.920043,-7.322037,-1.12,16.940001,-10.64,1729472379019.0,0.0
-1.926222,-7.932207,-8.520842,-5.04,3.01,-5.25,1729472379038.0,0.0
-2.76371,-6.352944,-7.724032,6.79,16.379999,-5.81,1729472379067.0,0.0
-3.948158,-6.094519,-7.702496,0.7,19.110001,-8.75,1729472379262.0,0.0
-4.529613,-6.91765,-6.98465,-13.16,13.58,-12.46,1729472379262.0,0.0
-5.063213,-7.334002,-6.721439,-13.16,9.8,-17.639999,1729472379263.0,0.0
-5.235496,-5.776274,-7.558927,6.44,2.66,-18.969999,1729472379273.0,0.0
-4.534399,-4.977071,-7.427321,2.52,-5.18,-20.299999,1729472379273.0,0.0
-4.189832,-6.336195,-6.300302,-24.219999,-9.17,-30.59,1729472379273.0,0.0
-3.957729,-8.12124,-7.4345,-52.150002,-14.7,-49.77,1729472379273.0,0.0
2.414358,-3.964907,-13.840086,-28.35,-18.059999,-77.489998,1729472379274.0,0.0
-0.217747,-4.448257,-7.13779,148.330002,-46.759998,7.42,1729472379274.0,0.0
-3.333202,0.22014,-6.372087,105.279999,10.78,-30.1,1729472379274.0,0.0
-1.68694,-1.65344,-10.124033,-3.22,-10.08,2.52,1729472379285.0,0.0
0.409173,-5.426922,-12.229716,-17.57,-23.59,33.810001,1729472379299.0,0.0
-0.449851,-5.192425,-8.922836,15.54,15.68,40.459999,1729472379318.0,0.0
-0.842274,-4.292724,-14.388042,17.219999,33.810001,42.490002,1729472379338.0,0.0
0.825524,-4.953143,-7.810174,7.98,17.15,58.59,1729472379360.0,0.0
1.852045,-8.161918,-7.173682,-19.6,34.860001,20.790001,1729472379380.0,0.0
0.789631,-8.626125,-5.635098,-9.31,35.630001,24.57,1729472379402.0,0.0
0.823131,-9.839286,-3.646662,-3.29,24.780001,4.55,1729472379419.0,0.0
-1.421337,-7.743174,-3.61077,1.54,13.79,-5.32,1729472379441.0,0.0
-2.335395,-6.728617,-6.223732,-24.5,-3.85,-13.51,1729472379460.0,0.0
-1.383051,-7.975278,-9.815358,-49.91,-24.01,-10.29,1729472379478.0,0.0
-2.115255,-6.458229,-8.295916,-18.76,-2.24,-4.06,1729472379503.0,0.0
-2.955136,-6.661618,-9.722038,-7.35,5.95,-3.85,1729472379518.0,0.0
-3.069991,-8.267202,-8.614161,-24.290001,8.05,-7.91,1729472379539.0,0.0
-4.639683,-6.506085,-7.336394,12.81,15.33,-10.08,1729472379559.0,0.0
-5.034499,-6.130411,-7.563712,9.59,8.82,-18.200001,1729472379582.0,0.0
-4.431508,-6.946364,-6.991827,-18.200001,-1.4,-26.18,1729472379600.0,0.0
-4.345366,-7.611568,-6.778866,-21.49,-4.76,-37.450001,1729472379619.0,0.0
-4.424329,-8.532805,-8.961121,-22.610001,-3.92,-50.75,1729472379638.0,0.0
-3.223132,-4.534399,-16.017555,-14.56,0.84,-61.18,1729472379659.0,0.0
1.859223,-11.806188,2.172683,179.130005,-8.75,-17.15,1729472379679.0,0.0
-3.902694,4.031906,-3.519842,114.239998,20.58,6.93,1729472379700.0,0.0
-4.173083,-1.033699,-11.157731,71.540001,16.940001,-21.210001,1729472379719.0,0.0
-0.241675,-3.507878,-8.425128,-9.38,-52.5,57.540001,1729472379739.0,0.0
1.519442,-6.85783,-13.708481,-22.33,-12.88,24.290001,1729472379760.0,0.0
-1.129412,-3.534199,-11.703296,9.87,28.700001,42.0,1729472379778.0,0.0
1.227518,-2.660819,-3.778267,18.620001,28.77,44.310001,1729472379800.0,0.0
2.024328,-8.664411,-8.523234,-57.470001,14.0,28.42,1729472379819.0,0.0
2.658426,-8.279166,-8.539984,-46.130001,6.3,28.35,1729472379838.0,0.0
0.019143,-9.573684,-2.804388,-12.67,19.879999,3.64,1729472379868.0,0.0
-2.127219,-8.568698,-3.15374,-38.990002,10.01,-10.29,1729472379879.0,0.0
-2.761317,-8.812766,-7.314859,-37.310001,-21.139999,-15.190001,1729472379901.0,0.0
-2.682354,-7.04447,-7.271788,-30.17,-24.01,-14.35,1729472379989.0,0.0
-2.689533,-7.118648,-9.114261,-39.130001,-18.549999,-18.969999,1729472379990.0,0.0
-2.323431,-8.729016,-10.004392,-45.639999,-14.07,-20.65,1729472379991.0,0.0
-3.139383,-6.833901,-8.882158,8.89,1.75,-17.219999,1729472380089.0,0.0
-4.106083,-7.042077,-8.920443,-2.38,10.15,-21.98,1729472380089.0,0.0
-4.007978,-8.202596,-9.188439,-1.19,13.37,-27.65,1729472380089.0,0.0
-3.326023,-3.924229,-13.469198,39.48,13.58,-24.290001,1729472380089.0,0.0
-1.11027,-6.455836,-3.744767,158.130005,10.22,14.0,1729472380090.0,0.0
-5.95095,2.342573,-7.441679,80.220001,52.990002,28.210001,1729472380090.0,0.0
-1.696511,-7.590034,0.569492,52.009998,-9.1,1.26,1729472380099.0,0.0
-3.759124,-4.603791,-10.705488,-9.1,-5.6,41.02,1729472380117.0,0.0
-2.311467,-5.17089,-6.60419,5.53,-21.35,21.0,1729472380137.0,0.0
1.019342,-5.852845,-7.355537,5.6,-20.09,30.450001,1729472380158.0,0.0
1.689333,-4.733003,-10.533205,-13.37,-4.27,34.02,1729472380177.0,0.0
2.567499,-7.635497,-11.925828,-22.540001,17.219999,23.1,1729472380198.0,0.0
1.433301,-7.525427,-4.007978,-38.290001,29.190001,20.58,1729472380218.0,0.0
-1.131805,-11.124231,-3.536592,-70.349998,32.060001,-22.68,1729472380237.0,0.0
-1.294517,-9.154939,-5.989235,-8.54,10.64,-17.780001,1729472380258.0,0.0
-1.830509,-6.204589,-5.694918,-27.09,-18.27,-20.860001,1729472380277.0,0.0
-3.491128,-9.767502,-7.396214,-76.510002,1.54,-47.32,1729472380299.0,0.0
-2.237289,-7.865208,-9.257831,-56.490002,-30.1,-41.580002,1729472380318.0,0.0
-3.122634,-9.229117,-10.277173,-46.830002,-6.51,-54.32,1729472380338.0,0.0
-2.45025,-5.496314,-13.684553,-10.01,8.33,-57.889999,1729472380358.0,0.0
-1.562513,-3.37388,-4.929214,121.449997,5.88,-18.059999,1729472380378.0,0.0
-5.532206,1.440479,-8.286345,103.18,43.259998,9.59,1729472380402.0,0.0
-3.56052,-2.864209,-6.618547,21.49,12.88,23.52,1729472380418.0,0.0
-0.827917,-7.903493,-6.108876,-14.28,-8.05,38.5,1729472380441.0,0.0
-1.660619,-7.63789,-6.943972,23.799999,3.57,28.630001,1729472380461.0,0.0
-3.907479,-3.862016,-9.217153,69.370003,14.21,30.030001,1729472380478.0,0.0
-1.208375,-5.249853,-3.751946,26.74,-2.17,30.73,1729472380501.0,0.0
-0.916451,-5.577669,-2.225325,-36.889999,-7.7,21.91,1729472380518.0,0.0
-0.918844,-7.087541,-12.457035,-47.25,-0.56,15.190001,1729472380538.0,0.0
2.842674,-4.87418,-6.092126,-43.82,-31.780001,26.880001,1729472380558.0,0.0
3.919443,-10.322637,-9.690931,-37.869999,-8.33,3.01,1729472380578.0,0.0
0.777667,-8.073383,-6.458229,-18.83,24.99,8.75,1729472380612.0,0.0
-2.656033,-8.410772,-4.773681,-19.040001,30.309999,-10.01,1729472380618.0,0.0
-4.35733,-8.865408,-7.51107,-59.010002,10.36,-28.0,1729472380638.0,0.0
-3.038885,-10.255639,-8.472985,-41.650002,-11.83,-35.700001,1729472380658.0,0.0
-2.919244,-7.52782,-9.968499,-13.3,-6.3,-37.450001,1729472380678.0,0.0
-3.766303,-7.156933,-9.396614,2.38,17.57,-40.110001,1729472380702.0,0.0
-2.545963,-4.84068,-9.786645,26.18,13.37,-28.98,1729472380719.0,0.0
-3.163311,-1.062413,-7.657032,105.419998,23.799999,7.84,1729472380738.0,0.0
-4.546363,1.210768,-7.740781,72.099998,26.950001,24.15,1729472380759.0,0.0
-2.464607,-5.249853,-8.506484,-19.530001,6.93,15.26,1729472380778.0,0.0
-1.416551,-8.432307,-9.147761,-15.47,2.24,12.11,1729472380800.0,0.0
-2.132005,-6.463014,-7.987241,50.959999,22.4,-6.65,1729472380821.0,0.0
-2.024328,-4.835894,-8.260024,81.900002,21.49,-11.41,1729472380838.0,0.0
1.816152,-5.443672,-9.516255,67.900002,-3.29,-13.58,1729472380859.0,0.0
5.178068,-4.319045,-6.771688,63.279999,-23.59,-0.49,1729472380878.0,0.0
5.022535,-5.02732,-1.246661,66.709999,13.440001,15.96,1729472380901.0,0.0
0.942772,-5.022535,-6.326623,19.460001,49.700001,6.51,1729472380919.0,0.0
-2.079363,-7.915457,-6.932007,-44.799999,70.910004,9.8,1729472380938.0,0.0
-2.514857,-8.377272,-7.936993,-136.220001,41.720001,5.39,1729472380958.0,0.0
-2.0004,-12.019149,-7.652246,-118.790001,8.33,5.39,1729472380977.0,0.0
-3.220739,-15.991233,-6.829116,-37.099998,15.05,-15.75,1729472380999.0,0.0
-3.976871,-14.459827,-8.288737,84.279999,22.190001,-42.349998,1729472381018.0,0.0
-2.98385,-7.635497,-8.475377,178.220001,1.89,-28.700001,1729472381038.0,0.0
-1.591227,-3.54377,-6.338587,225.259995,-16.379999,-11.34,1729472381063.0,0.0
-1.598405,-4.139583,-5.54417,214.690002,-0.77,4.27,1729472381077.0,0.0
-2.177469,-5.793024,-5.501099,148.889999,17.15,18.200001,1729472381099.0,0.0
-2.26361,-7.635497,-4.807181,133.630005,3.22,29.82,1729472381118.0,0.0
-1.359123,-9.583255,-4.252046,145.180008,-21.559999,21.210001,1729472381138.0,0.0
0.086142,-8.078169,-5.168497,127.190002,-31.219999,8.26,1729472381158.0,0.0
0.019143,-7.147361,-4.692325,92.190002,-23.59,7.84,1729472381177.0,0.0
-2.354537,-10.152746,-3.598805,30.309999,8.68,12.81,1729472381199.0,0.0
-2.385644,-11.806188,-2.330609,12.46,2.87,12.25,1729472381218.0,0.0
-2.07697,-10.928021,-2.163112,-17.219999,3.22,0.56,1729472381238.0,0.0
-1.854438,-9.686146,-3.125026,-30.450001,5.67,-9.17,1729472381258.0,0.0
-1.600798,-9.006584,-1.162912,-109.199997,3.64,-22.68,1729472381277.0,0.0
-0.70349,-1.667797,-1.244268,-245.0,8.89,-21.98,1729472381300.0,0.0
-0.488136,-1.021735,-4.680361,-269.290009,-38.009998,19.530001,1729472381317.0,0.0
1.349552,-17.03211,-3.192025,-179.270004,-96.879997,12.25,1729472381339.0,0.0
1.045663,-5.962914,-10.475778,-142.029999,-49.700001,24.360001,1729472381358.0,0.0
-0.868595,-5.008178,-13.476377,-25.76,-32.759998,47.32,1729472381380.0,0.0
-1.363909,-7.826923,-13.859229,-38.920002,14.77,33.32,1729472381401.0,0.0
-1.519442,-8.319844,-14.373686,36.82,24.57,30.450001,1729472381419.0,0.0
-2.057827,-6.946364,-8.949157,141.399994,51.52,-3.78,1729472381437.0,0.0
-2.65364,-5.192425,-3.790231,173.039993,67.970001,-32.130001,1729472381459.0,0.0
-0.622134,-3.024528,-4.744967,131.600006,19.460001,-40.529999,1729472381478.0,0.0
-0.141177,-4.898108,0.267996,73.639999,12.67,-45.080002,1729472381499.0,0.0
-0.519243,-3.859623,-7.57089,-24.219999,9.66,-43.330002,1729472381517.0,0.0
2.715853,-6.116055,-9.755538,-6.93,-13.51,-12.95,1729472381538.0,0.0
1.753939,-12.490535,1.751546,-68.949997,26.74,-6.16,1729472381559.0,0.0
-3.694518,-15.450456,-0.416351,-131.25,96.669998,-19.32,1729472381577.0,0.0
-6.283553,-14.797215,-1.222732,-49.209999,44.450001,-33.110001,1729472381599.0,0.0
-3.562913,-11.619547,-3.89073,76.650002,-76.580002,-29.33,1729472381617.0,0.0
-2.232504,-8.049455,-4.158726,67.830002,-69.090004,-9.8,1729472381637.0,0.0
-4.089334,-9.253045,-5.943772,22.68,-1.4,1.33,1729472381658.0,0.0
-4.534399,-9.267403,-5.285746,-21.35,2.73,-3.43,1729472381677.0,0.0
-3.440879,-10.028319,-4.828716,-1.82,-26.040001,2.66,1729472381703.0,0.0
-0.861416,-5.266603,-3.809374,-38.779999,-59.43,-3.36,1729472381719.0,0.0
-0.177069,-2.366502,-5.134997,-113.889999,-45.360001,17.219999,1729472381736.0,0.0
-0.289532,-6.707082,-8.415558,-169.050003,-67.129997,11.34,1729472381757.0,0.0
-0.256032,-4.709075,-10.872985,-156.169998,-27.65,35.349998,1729472381778.0,0.0
0.11007,-3.797409,-11.921042,-69.860001,-35.700001,78.470001,1729472381798.0,0.0
-0.265603,-3.352344,-11.236694,-41.09,0.84,80.989998,1729472381817.0,0.0
-2.002793,-7.235896,-10.372886,-7.98,28.49,76.790001,1729472381838.0,0.0
-1.993221,-5.907879,-13.246667,59.639999,29.33,54.529999,1729472381859.0,0.0
-0.81356,-6.565905,-8.248059,183.259995,59.290001,15.68,1729472381877.0,0.0
-0.114855,-11.119448,2.490928,181.580002,39.060001,-10.57,1729472381899.0,0.0
1.741975,-9.410972,-3.56052,113.610001,3.71,-88.059998,1729472381917.0,0.0
2.031506,-6.73101,-8.642875,159.880005,-29.4,-69.090004,1729472381937.0,0.0
2.39043,-7.740781,-6.582655,196.350006,-30.52,-55.02,1729472381958.0,0.0
2.112862,-5.9342,-1.852045,173.180008,18.83,-35.98,1729472381977.0,0.0
-1.600798,-6.999006,-3.598805,119.279999,53.27,-8.54,1729472381999.0,0.0
-4.996214,-8.365308,3.086741,12.04,61.529999,6.16,1729472382017.0,0.0
-7.085148,-10.724631,1.323231,-93.870003,29.610001,-23.379999,1729472382038.0,0.0
-6.601797,-13.091133,-3.869194,-113.75,-30.1,-18.83,1729472382061.0,0.0
-3.833302,-15.256638,-5.65424,-54.740002,-66.639999,-17.43,1729472382077.0,0.0
-2.268396,-12.576675,-4.036692,-17.780001,-42.630001,-27.93,1729472382100.0,0.0
-3.029313,-10.116854,-2.921637,12.53,10.57,-27.370001,1729472382118.0,0.0
-3.199204,-10.380065,-2.964707,-4.97,0.07,-34.369999,1729472382137.0,0.0
-1.208375,-6.903293,-2.012364,-101.639999,-27.93,-36.82,1729472382158.0,0.0
0.059821,-1.447658,-4.831109,-165.970001,-27.860001,-0.28,1729472382177.0,0.0
-1.213161,-1.445265,-7.977671,-315.209991,-29.68,-0.91,1729472382201.0,0.0
-0.399601,-12.818351,-8.750552,-235.759995,-40.740002,10.5,1729472382217.0,0.0
1.875973,-9.317651,-8.386844,-120.75,-51.380001,20.16,1729472382237.0,0.0
-0.191426,-3.979264,-12.751352,3.15,-20.09,34.09,1729472382258.0,0.0
-2.732604,-5.288138,-10.549955,37.099998,26.460001,34.93,1729472382277.0,0.0
-2.134398,-5.635098,-11.861222,50.470001,20.299999,33.599998,1729472382298.0,0.0
-0.275175,-5.130211,-13.086348,124.949997,12.74,29.82,1729472382317.0,0.0
0.55992,-3.445665,-8.015956,182.350006,35.91,20.440001,1729472382337.0,0.0
-0.741775,-5.596812,-4.036692,216.229996,53.830002,13.3,1729472382359.0,0.0
0.071785,-6.776474,-3.799802,204.610001,25.200001,-21.280001,1729472382378.0,0.0
0.437887,-6.269196,-6.853044,183.050003,10.15,-26.18,1729472382398.0,0.0
0.021535,-7.099504,-4.788038,134.190002,-5.46,-11.55,1729472382417.0,0.0
0.198604,-9.77468,-1.995614,118.860001,10.22,-10.08,1729472382437.0,0.0
0.019143,-8.216952,-1.730011,138.600006,-17.5,-0.84,1729472382458.0,0.0
-2.337788,-9.521042,-3.220739,118.650002,-14.98,-11.62,1729472382476.0,0.0
-4.73061,-9.315259,-3.09392,55.510002,31.219999,10.78,1729472382500.0,0.0
-5.472386,-10.731809,-0.29671,58.380001,29.190001,13.3,1729472382518.0,0.0
-3.826123,-13.256237,-0.162712,16.799999,-10.5,4.62,1729472382536.0,0.0
-3.101098,-14.124832,-0.086142,-67.900002,-16.309999,-24.780001,1729472382558.0,0.0
-3.117848,-13.196418,-0.899701,-111.300003,-11.13,-40.040001,1729472382577.0,0.0
-2.268396,-9.966106,-0.468993,-151.199997,-15.4,-56.630001,1729472382598.0,0.0
0.009571,-4.352544,-0.614955,-214.059998,-42.490002,-51.52,1729472382617.0,0.0
1.978864,0.318245,-4.522435,-289.23999,-69.300003,-15.89,1729472382636.0,0.0
0.282353,-3.452843,-8.216952,-374.98999,-37.380001,-2.17,1729472382658.0,0.0
-4.151547,-9.233903,-9.008978,-299.880005,4.41,4.27,1729472382677.0,0.0
-1.165305,-12.167502,-8.750552,-88.690002,-48.509998,-13.65,1729472382698.0,0.0
0.952343,-4.424329,-9.96132,-23.17,-73.220001,28.84,1729472382717.0,0.0
-0.583849,-4.173083,-11.722438,-15.33,-14.49,-0.07,1729472382741.0,0.0
-2.665605,-6.022735,-9.635897,0.28,17.5,16.379999,1729472382758.0,0.0
-2.445465,-5.405386,-10.499706,53.549999,5.74,21.280001,1729472382778.0,0.0
-2.117648,-4.206582,-10.707881,107.870003,16.66,20.23,1729472382799.0,0.0
-0.818345,-3.115455,-10.363315,125.510002,20.790001,11.34,1729472382817.0,0.0
-0.442672,-6.896115,-4.235296,173.389999,22.4,16.59,1729472382837.0,0.0
0.490529,-8.427521,-4.113262,163.029999,9.66,-14.63,1729472382858.0,0.0
1.256232,-8.037491,-8.315059,193.550003,-11.34,-34.23,1729472382876.0,0.0
0.624527,-8.037491,-6.063413,210.839996,9.31,-5.88,1729472382908.0,0.0
0.27996,-7.582855,-3.412165,204.190002,33.459999,-9.17,1729472382917.0,0.0
-0.619741,-7.946564,-4.795217,248.220001,37.099998,16.24,1729472382936.0,0.0
-1.706082,-9.647861,-0.851845,315.350006,31.15,32.619999,1729472382957.0,0.0
-2.074577,-9.272188,0.155533,313.73999,38.360001,26.67,1729472382976.0,0.0
-3.175276,-8.200203,1.892723,276.920013,31.5,35.560001,1729472382998.0,0.0
-4.539185,-9.628718,5.015356,164.990005,28.700001,26.530001,1729472383016.0,0.0
-5.45085,-10.241282,5.321638,-57.82,22.540001,-7.84,1729472383038.0,0.0
-5.185246,-10.758131,1.627119,-243.110001,-10.43,-31.5,1729472383061.0,0.0
-3.213561,-9.944571,-1.205983,-301.420013,-40.670002,-40.740002,1729472383077.0,0.0
-1.026521,-8.989835,-1.864009,-257.390015,-53.689999,-38.009998,1729472383098.0,0.0
-0.131605,-9.205189,-4.740182,-185.009995,-56.0,-32.200001,1729472383116.0,0.0
-1.122234,-11.284552,-5.261817,-110.18,-31.360001,-21.77,1729472383136.0,0.0
-2.646462,-11.746366,-4.338188,-73.849998,10.78,-26.389999,1729472383157.0,0.0
-2.694318,-9.24108,-2.330609,-116.760002,13.23,-42.490002,1729472383176.0,0.0
-0.461815,-2.249253,-2.584249,-200.270004,-23.24,-42.700001,1729472383200.0,0.0
-0.16989,-3.493521,-7.360322,-282.799988,-46.27,-35.700001,1729472383217.0,0.0
-1.028914,-6.029913,-10.925629,-343.209991,-3.01,-10.5,1729472383237.0,0.0
-1.079163,-7.89153,-10.557133,-233.169998,-17.710001,-4.55,1729472383256.0,0.0
-1.978864,-10.614561,-9.49472,-98.209999,-1.4,8.19,1729472383276.0,0.0
-1.598405,-8.700303,-8.657232,-15.47,2.87,-3.78,1729472383298.0,0.0
-1.502693,-4.225725,-8.891729,9.17,9.38,2.31,1729472383316.0,0.0
-1.411765,-6.541977,-8.879765,28.280001,14.49,9.38,1729472383337.0,0.0
0.61017,-7.668997,-6.410372,59.709999,4.9,3.22,1729472383357.0,0.0
-1.162912,-8.38445,-6.039484,147.630005,13.37,22.469999,1729472383377.0,0.0
-2.155933,-7.133004,-6.235696,210.559998,28.0,3.5,1729472383398.0,0.0
-1.74676,-5.912664,-4.622933,216.369995,-7.42,17.639999,1729472383416.0,0.0
-1.665405,-8.52802,-5.924629,209.020004,-16.799999,15.68,1729472383436.0,0.0
-0.672383,-9.49472,-5.405386,225.960007,-10.99,4.27,1729472383458.0,0.0
-0.241675,-10.353743,-5.867201,292.670013,-17.99,11.9,1729472383477.0,0.0
-0.473779,-9.401401,-4.639683,345.029999,-15.96,15.4,1729472383498.0,0.0
-0.777667,-10.499706,-4.211368,441.980011,-4.69,26.25,1729472383516.0,0.0
-1.548156,-11.717653,-3.220739,533.679993,-21.559999,39.130001,1729472383538.0,0.0
-0.830309,-8.068598,1.636691,591.919983,-30.940001,37.450001,1729472383557.0,0.0
-0.224925,-5.024928,6.321837,515.76001,-0.35,29.120001,1729472383576.0,0.0
-0.961915,-3.278167,7.877172,323.470001,4.69,15.26,1729472383597.0,0.0
-2.160719,-4.398008,8.059027,109.340004,-11.48,12.32,1729472383616.0,0.0
-2.160719,-6.769295,7.836494,-8.54,-25.9,-1.61,1729472383636.0,0.0
-2.440679,-9.174082,6.788438,-8.12,-33.880001,-1.12,1729472383656.0,0.0
-1.866402,-8.889337,5.223531,70.769997,-35.560001,0.91,1729472383677.0,0.0
-1.555335,-7.893922,5.221139,160.229996,-20.440001,9.59,1729472383700.0,0.0
-1.131805,-5.876772,6.474977,198.729996,-12.46,10.64,1729472383716.0,0.0
-2.208575,-4.510471,7.700103,145.180008,-0.84,10.22,1729472383735.0,0.0
-2.270789,-5.814559,7.066005,41.23,-10.5,-1.82,1729472383757.0,0.0
-1.648655,-7.920243,6.381658,-9.24,-11.62,-8.26,1729472383776.0,0.0
-1.622334,-8.408379,5.541777,-17.5,-0.77,-15.82,1729472383796.0,0.0
-1.526621,-6.565905,6.568298,15.47,7.42,-16.379999,1729472383816.0,0.0
-1.739582,-5.300103,7.243074,45.220001,15.47,-7.84,1729472383836.0,0.0
-0.942772,-5.489135,6.599405,10.64,6.23,-16.799999,1729472383857.0,0.0
-0.102891,-6.250053,7.860423,-3.01,6.3,-12.53,1729472383877.0,0.0
-0.753739,-5.996413,8.075776,28.49,9.17,-5.81,1729472383898.0,0.0
-0.758525,-6.192625,6.266802,7.63,2.03,-10.85,1729472383916.0,0.0
-1.765903,-3.811767,7.740781,29.75,6.58,-8.12,1729472383936.0,0.0
-7.039684,-3.218346,8.047063,63.700001,1.89,16.870001,1729472383957.0,0.0
-3.278167,-3.986443,6.778866,68.949997,-10.43,8.82,1729472383976.0,0.0
-1.581656,-3.180061,7.532606,44.380001,26.6,6.44,1729472384006.0,0.0
-2.108077,-6.046663,8.087741,-42.77,13.93,1.26,1729472384016.0,0.0
-1.514657,-8.087741,9.174082,-60.130001,8.33,-1.96,1729472384038.0,0.0
-0.945165,-8.846266,7.278966,11.97,5.53,-1.47,1729472384060.0,0.0
-0.473779,-6.116055,6.843473,101.5,19.389999,-2.73,1729472384140.0,0.0
-1.538585,-4.371687,7.4345,118.440002,23.030001,-5.11,1729472384141.0,0.0
-2.294717,-4.139583,7.700103,87.43,20.719999,-7.91,1729472384141.0,0.0
-2.522035,-4.010371,8.767302,57.82,21.35,-11.06,1729472384141.0,0.0
-3.0006,-4.084548,9.042477,43.400002,15.61,-9.8,1729472384157.0,0.0
-1.990828,-3.900301,8.973085,34.369999,10.22,-7.84,1729472384177.0,0.0
-1.753939,-3.443272,8.709875,29.33,5.25,-3.85,1729472384199.0,0.0
-2.127219,-2.861816,8.061419,16.940001,2.03,2.52,1729472384216.0,0.0
-2.840281,-1.567299,7.534998,4.41,6.3,8.89,1729472384236.0,0.0
-3.393023,-1.476372,7.15454,-27.719999,11.27,15.47,1729472384258.0,0.0
-3.488736,-2.919244,7.515855,-85.050003,18.41,15.61,1729472384278.0,0.0
-2.87378,-4.41715,7.767102,-140.350006,23.799999,11.34,1729472384299.0,0.0
-2.225325,-5.568098,8.568698,-178.850006,26.6,8.12,1729472384317.0,0.0
-1.715654,-5.501099,9.030513,-209.720001,21.210001,6.51,1729472384337.0,0.0
-1.952543,-6.460621,9.028119,-236.040009,2.94,11.9,1729472384359.0,0.0
-2.524428,-7.908278,7.712067,-256.690002,-16.73,8.82,1729472384378.0,0.0
-2.565106,-8.523234,6.745367,-274.540009,-26.950001,-0.21,1729472384401.0,0.0
-3.20399,-8.140383,3.907479,-307.019989,-36.75,-14.56,1729472384418.0,0.0
-3.541377,-9.365508,1.289732,-311.779999,-30.73,-20.790001,1729472384437.0,0.0
-1.998007,-10.454242,1.198804,-281.540009,-20.440001,-28.139999,1729472384458.0,0.0
-1.462015,-10.750952,2.100898,-204.75,-9.94,-24.639999,1729472384478.0,0.0
-1.761117,-10.712667,2.993421,-67.199997,-12.18,-18.34,1729472384499.0,0.0
-2.364109,-10.652846,2.065006,45.220001,-13.79,-7.42,1729472384517.0,0.0
-2.175076,-9.753145,1.548156,153.509995,-8.33,1.12,1729472384538.0,0.0
-1.801795,-8.489735,2.24686,243.320007,2.17,11.55,1729472384566.0,0.0
-2.294717,-7.307681,4.321437,288.540009,16.799999,22.120001,1729472384593.0,0.0
-2.804388,-6.809973,5.522634,279.230011,17.92,20.09,1729472384604.0,0.0
-3.177669,-6.52762,5.663811,258.720001,12.18,19.18,1729472384617.0,0.0
-3.445665,-6.015556,5.383851,258.51001,12.32,19.460001,1729472384637.0,0.0
-2.909672,-5.960521,5.185246,241.570007,19.389999,18.059999,1729472384659.0,0.0
-2.292324,-7.549356,6.479764,171.430008,27.440001,4.13,1729472384678.0,0.0
-2.481357,-7.862815,7.79103,98.629997,25.549999,-15.190001,1729472384699.0,0.0
-2.347359,-6.999006,8.506484,76.93,23.17,-18.129999,1729472384722.0,0.0
-2.172683,-6.096912,8.587841,56.490002,16.17,-23.52,1729472384738.0,0.0
-1.646262,-5.501099,7.963314,38.639999,5.25,-26.6,1729472384758.0,0.0
-1.813759,-4.663611,8.650054,45.220001,1.61,-24.85,1729472384778.0,0.0
-1.892723,-3.754339,8.453842,48.93,-4.55,-19.950001,1729472384798.0,0.0
-1.988436,-3.620341,8.73141,35.700001,-7.77,-15.54,1729472384818.0,0.0
-2.237289,-3.378666,8.549555,-8.75,-12.53,-8.33,1729472384838.0,0.0
-2.254039,-3.275774,7.795816,-49.490002,-13.37,-8.33,1729472384858.0,0.0
-2.428715,-2.919244,7.678568,-80.360001,-8.12,-2.73,1729472384877.0,0.0
-2.888137,-3.708875,7.513463,-111.790001,-1.96,1.82,1729472384899.0,0.0
-2.689533,-5.28096,7.087541,-149.729996,0.91,2.03,1729472384917.0,0.0
-2.409572,-6.656832,6.996613,-190.259995,2.94,-0.28,1729472384937.0,0.0
-2.318645,-6.977471,6.817152,-238.0,3.36,-4.2,1729472384958.0,0.0
-2.548356,-7.704889,7.307681,-281.470001,-3.92,-7.91,1729472384978.0,0.0
-2.9671,-7.668997,6.118448,-334.670013,-21.629999,-17.92,1729472384999.0,0.0
-3.192025,-9.530612,3.495914,-333.410004,-44.029999,-25.76,1729472385018.0,0.0
-2.469393,-10.442278,0.579063,-285.529999,-42.490002,-25.83,1729472385037.0,0.0
-1.459622,-11.24866,-0.019143,-192.080002,-27.93,-29.049999,1729472385061.0,0.0
-1.383051,-11.315658,0.509671,-68.599998,-18.9,-20.370001,1729472385077.0,0.0
-1.677369,-10.396815,1.698904,59.150002,-6.09,-7.49,1729472385099.0,0.0
-1.72044,-9.499505,2.586641,148.889999,-0.91,0.91,1729472385117.0,0.0
-1.993221,-8.190632,2.897708,200.759995,2.8,7.14,1729472385138.0,0.0
-2.143969,-6.802795,4.900501,236.669998,11.83,15.54,1729472385158.0,0.0
-2.510071,-6.173482,5.101498,242.479996,15.61,23.73,1729472385177.0,0.0
-2.376073,-6.139983,5.268995,239.680008,18.620001,26.950001,1729472385202.0,0.0
-2.667997,-6.702296,4.591826,213.990005,21.700001,22.75,1729472385218.0,0.0
-2.816352,-8.109276,4.912465,166.740005,25.83,17.99,1729472385237.0,0.0
-2.321038,-8.872586,5.24746,121.379997,28.280001,1.75,1729472385260.0,0.0
-2.400001,-7.508677,6.855437,100.800003,31.99,-5.95,1729472385277.0,0.0
-2.108077,-6.211767,7.767102,85.540001,27.299999,-9.38,1729472385299.0,0.0
-1.79701,-5.649454,8.159525,64.120003,17.639999,-13.16,1729472385318.0,0.0
-1.830509,-4.76411,8.238488,55.02,11.97,-10.15,1729472385337.0,0.0
-2.199004,-3.833302,8.721838,41.580002,7.42,-7.0,1729472385358.0,0.0
-2.667997,-2.749353,8.073383,10.64,2.66,-0.56,1729472385378.0,0.0
-2.9671,-3.208775,7.334002,-45.779999,-0.42,3.5,1729472385398.0,0.0
-2.684747,-4.859823,7.073184,-110.110001,1.19,0.14,1729472385417.0,0.0
-2.667997,-5.871986,7.869993,-162.190002,4.76,-2.03,1729472385438.0,0.0
-2.751746,-5.87438,8.714661,-209.229996,-0.35,-3.92,1729472385458.0,0.0
-2.955136,-6.640083,9.109475,-254.169998,-11.83,-3.5,1729472385477.0,0.0
-2.385644,-8.901299,4.82393,-319.130005,-32.549999,-13.79,1729472385499.0,0.0
-2.471786,-10.174281,2.277967,-326.339996,-41.23,-27.51,1729472385517.0,0.0
-2.15354,-10.131211,0.964308,-295.399994,-24.01,-34.439999,1729472385538.0,0.0
-2.055435,-9.702895,0.748954,-249.059998,-4.06,-31.5,1729472385558.0,0.0
-1.87358,-9.753145,1.057628,-214.899994,5.04,-30.52,1729472385577.0,0.0
-1.919044,-9.784252,1.002593,-184.800003,4.34,-25.129999,1729472385598.0,0.0
-1.974079,-10.095319,-0.09332,-132.089996,-0.63,-20.299999,1729472385618.0,0.0
-1.706082,-12.634104,-1.397408,-15.89,-7.7,-9.24,1729472385637.0,0.0
-1.440479,-12.567105,0.892523,173.809998,-9.52,7.91,1729472385657.0,0.0
-1.727618,-8.195417,2.792424,333.76001,-0.7,21.700001,1729472385678.0,0.0
-1.933401,-5.996413,4.163511,379.959991,-5.11,32.130001,1729472385700.0,0.0
-1.404587,-7.087541,4.275974,360.5,-18.200001,31.5,1729472385718.0,0.0
-1.902294,-8.930015,4.835894,377.160004,-17.01,36.889999,1729472385738.0,0.0
-1.981257,-9.554541,5.345565,388.640015,-11.27,27.719999,1729472385757.0,0.0
-1.22034,-7.255038,5.493921,371.559998,8.96,13.93,1729472385777.0,0.0
-2.0004,-5.95095,6.245267,293.649994,26.25,6.02,1729472385798.0,0.0
-3.268596,-5.067998,6.869793,154.630005,23.870001,-18.9,1729472385817.0,0.0
-3.354738,-4.338188,6.285945,67.129997,20.58,-23.17,1729472385837.0,0.0
-2.675175,-3.601198,8.453842,40.32,27.51,-23.450001,1729472385860.0,0.0
-1.892723,-3.213561,7.420143,9.38,18.34,-15.33,1729472385877.0,0.0
-2.378466,-3.352344,7.475177,-10.22,14.14,-0.98,1729472385898.0,0.0
-3.35713,-3.022135,7.302894,-20.370001,7.42,11.13,1729472385917.0,0.0
-3.09392,-2.811567,8.425128,-21.700001,6.58,19.67,1729472385938.0,0.0
-2.909672,-2.964707,9.035298,-49.209999,3.64,23.52,1729472385958.0,0.0
-2.792424,-3.323631,8.800802,-105.07,-2.8,26.809999,1729472385977.0,0.0
-2.76371,-4.713861,8.941978,-162.190002,-9.52,29.82,1729472385998.0,0.0
-2.074577,-5.79781,8.908479,-203.979996,-17.219999,26.530001,1729472386016.0,0.0
-1.773082,-6.049056,8.188239,-219.240005,-21.139999,22.960001,1729472386044.0,0.0
-2.347359,-6.821937,5.776274,-246.75,-24.85,16.17,1729472386064.0,0.0
-3.536592,-8.848659,2.883351,-293.929993,-18.27,-0.07,1729472386077.0,0.0
-3.211168,-9.958927,1.895115,-305.059998,-2.1,-13.37,1729472386099.0,0.0
-2.301895,-9.805787,2.510071,-262.850006,15.4,-10.22,1729472386117.0,0.0
-2.036292,-9.131011,3.751946,-210.0,19.74,-6.09,1729472386137.0,0.0
-3.366701,-9.820145,2.952743,-137.759995,0.14,0.35,1729472386160.0,0.0
-3.486342,-14.584253,1.866402,-28.42,-22.75,-0.63,1729472386178.0,0.0
-1.787439,-12.576675,3.24706,166.460007,-23.309999,5.81,1729472386199.0,0.0
-1.998007,-6.958328,4.110869,308.070007,-3.71,13.65,1729472386219.0,0.0
-2.337788,-6.003592,4.63729,317.869995,-9.66,16.17,1729472386239.0,0.0
-1.478764,-8.252845,3.23031,295.26001,-15.12,5.74,1729472386258.0,0.0
-1.607977,-8.618947,3.34038,332.220001,5.53,9.03,1729472386278.0,0.0
-2.845066,-7.056434,3.845266,326.410004,30.73,-2.38,1729472386299.0,0.0
-3.931407,-6.317052,5.769095,258.089996,45.990002,-12.81,1729472386318.0,0.0
-4.4674,-5.118248,8.118847,148.889999,43.330002,-36.610001,1729472386338.0,0.0
-3.955336,-3.828516,9.480364,86.449997,33.950001,-31.15,1729472386359.0,0.0
-2.490928,-3.402594,8.638089,63.84,17.290001,-24.5,1729472386379.0,0.0
-2.524428,-3.287738,8.286345,44.240002,6.3,-12.11,1729472386400.0,0.0
-2.935993,-3.285345,7.506285,9.24,-1.4,-8.4,1729472386421.0,0.0
-2.847459,-1.469193,6.664011,-63.420002,0.49,-1.4,1729472386441.0,0.0
-3.723232,-1.191626,6.9344,-109.480003,7.98,7.91,1729472386460.0,0.0
-4.283153,-2.971886,7.987241,-161.0,11.62,8.75,1729472386479.0,0.0
-3.78066,-4.63729,8.350951,-225.190002,11.9,7.98,1729472386500.0,0.0
-3.316452,-6.798009,7.104291,-318.220001,5.04,1.96,1729472386521.0,0.0
-2.467,-9.016156,6.58744,-405.51001,-2.59,-10.99,1729472386539.0,0.0
-1.952543,-9.286544,5.704489,-414.959991,-15.4,-13.93,1729472386562.0,0.0
-3.706482,-10.691131,2.830709,-405.51001,-21.91,-16.870001,1729472386581.0,0.0
-3.902694,-11.203196,-0.993021,-402.570007,-25.41,-42.0,1729472386600.0,0.0
-2.897708,-11.863614,-1.418944,-338.799988,-12.25,-44.240002,1729472386619.0,0.0
-1.964507,-11.117055,-0.165105,-259.910004,-0.63,-46.48,1729472386639.0,0.0
-2.115255,-10.887343,-0.710668,-194.949997,-0.56,-42.490002,1729472386662.0,0.0
-2.459821,-13.500306,-0.385244,-62.299999,-8.05,-37.029999,1729472386679.0,0.0
-3.086741,-14.124832,2.299503,162.399994,-17.219999,-20.370001,1729472386711.0,0.0
-2.002793,-9.533006,1.301696,381.779999,-34.720001,-4.97,1729472386720.0,0.0
-1.813759,-7.250252,0.899701,502.529999,-31.5,21.49,1729472386739.0,0.0
-2.218147,-6.946364,1.74676,529.27002,-20.719999,25.48,1729472386764.0,0.0
-3.105884,-7.848458,3.342773,496.160004,11.27,20.02,1729472386778.0,0.0
-3.361916,-7.592427,4.151547,427.420013,29.610001,-4.83,1729472386799.0,0.0
-3.428915,-6.838687,5.12782,320.529999,39.27,-24.85,1729472386819.0,0.0
-4.498507,-4.749753,6.506085,202.160004,42.279999,-42.77,1729472386839.0,0.0
-3.895515,-0.569492,8.233703,99.050003,44.170002,-41.299999,1729472386860.0,0.0
-2.411965,-0.48335,7.944171,-0.91,29.4,-30.73,1729472386879.0,0.0
-1.878366,-2.151148,7.353144,-80.150002,16.799999,-15.82,1729472386902.0,0.0
-1.844866,-3.072384,6.91765,-135.380005,14.84,-1.47,1729472386918.0,0.0
-1.753939,-3.924229,6.216553,-187.039993,15.05,6.16,1729472386940.0,0.0
-2.096112,-4.869394,5.986843,-242.059998,24.99,7.84,1729472386959.0,0.0
-2.440679,-6.206983,5.520242,-313.390015,30.17,3.43,1729472386978.0,0.0
-2.428715,-9.131011,8.513663,-370.440002,33.040001,-5.11,1729472387001.0,0.0
-2.761317,-9.628718,7.051648,-415.450012,22.120001,-6.93,1729472387018.0,0.0
-3.242275,-10.619347,6.089733,-469.140015,-0.14,-19.389999,1729472387038.0,0.0
-3.132205,-10.006784,2.411965,-528.01001,-21.280001,-47.18,1729472387062.0,0.0
-2.143969,-9.473185,-2.971886,-534.659973,-41.790001,-65.309998,1729472387079.0,0.0
-1.660619,-9.994821,-6.963113,-467.459991,-33.740002,-54.040001,1729472387100.0,0.0
-1.931008,-10.616954,-7.240681,-316.540009,9.45,-38.5,1729472387120.0,0.0
-1.70369,-11.559726,-6.766902,-213.430008,22.889999,-31.290001,1729472387138.0,0.0
-1.581656,-13.801801,-4.924429,-84.07,25.27,-27.93,1729472387159.0,0.0
-2.378466,-13.459626,-2.519642,93.800003,25.059999,-25.27,1729472387179.0,0.0
-2.364109,-11.112268,-2.787638,298.059998,3.71,-15.96,1729472387201.0,0.0
-1.854438,-8.276773,-2.656033,450.799988,-12.67,0.98,1729472387219.0,0.0
-2.622534,-7.295716,-0.9667,552.580017,-12.88,31.85,1729472387239.0,0.0
-3.409772,-7.432107,-1.067199,611.450012,-17.99,52.220001,1729472387259.0,0.0
-2.699104,-8.717053,0.306281,654.150024,-10.85,52.709999,1729472387279.0,0.0
-1.251446,-8.793623,2.679961,590.659973,30.24,20.58,1729472387302.0,0.0
-1.579263,-9.695717,3.254239,427.700012,36.82,-9.94,1729472387318.0,0.0
-2.440679,-8.305488,3.78066,317.940002,43.259998,-32.130001,1729472387338.0,0.0
-3.632305,-3.634698,6.486942,273.420013,54.880001,-36.610001,1729472387360.0,0.0
-4.187439,-1.136591,8.16431,205.169998,46.549999,-34.580002,1729472387378.0,0.0
-2.62732,-0.028714,8.130811,96.110001,33.110001,-29.540001,1729472387401.0,0.0
-2.414358,0.193819,8.059027,-23.309999,22.049999,-14.0,1729472387420.0,0.0
-2.639283,-1.61037,7.240681,-135.309998,12.6,6.16,1729472387444.0,0.0
-3.074777,-4.591826,7.350751,-246.330002,6.51,12.81,1729472387459.0,0.0
-3.232704,-7.45125,7.070791,-301.279999,1.75,10.64,1729472387479.0,0.0
-3.605984,-9.255438,6.922436,-368.619995,2.73,0.91,1729472387500.0,0.0
-3.314059,-9.303294,6.084948,-442.26001,-6.44,-20.440001,1729472387518.0,0.0
-3.089134,-8.350951,4.015156,-492.450012,-11.9,-32.060001,1729472387539.0,0.0
-2.610569,-8.719445,0.971486,-504.0,-20.299999,-44.66,1729472387560.0,0.0
-2.129612,-9.475577,-2.388037,-493.01001,-26.110001,-58.869999,1729472387578.0,0.0
-1.732404,-9.824929,-3.974478,-419.860016,-21.0,-47.32,1729472387603.0,0.0
-1.749153,-11.243874,-4.95075,-304.850006,-10.92,-29.049999,1729472387618.0,0.0
-1.938186,-13.978869,-4.85743,-164.710007,-3.64,-21.77,1729472387638.0,0.0
-2.591427,-14.486149,-2.952743,20.440001,3.36,-18.200001,1729472387659.0,0.0
-2.806781,-11.734402,-1.440479,215.110001,-7.07,-9.59,1729472387678.0,0.0
-2.651247,-8.305488,-0.684347,365.820007,-21.700001,8.96,1729472387700.0,0.0
-2.433501,-6.91765,-0.468993,458.360016,-34.509998,32.060001,1729472387719.0,0.0
-1.931008,-6.85783,-0.236889,499.660004,-38.360001,48.720001,1729472387738.0,0.0
-2.969493,-7.99442,3.479164,496.51001,-22.610001,54.810001,1729472387759.0,0.0
-2.761317,-9.525827,3.304488,389.059998,-3.22,25.059999,1729472387779.0,0.0
-1.603191,-9.990034,3.158526,276.5,17.290001,5.11,1729472387799.0,0.0
-2.615355,-6.372087,4.141976,167.160004,34.439999,-14.49,1729472387818.0,0.0
-4.189832,-3.211168,6.494121,80.919998,49.91,-5.39,1729472387839.0,0.0
-3.876373,-4.658825,6.405586,-23.799999,33.25,-12.46,1729472387859.0,0.0
-2.285146,-7.171289,6.001199,-67.340004,20.58,-16.450001,1729472387878.0,0.0
-1.926222,-6.427122,5.886343,-46.200001,25.620001,-5.88,1729472387900.0,0.0
-2.447858,-5.228317,5.778666,-24.360001,23.17,6.51,1729472387918.0,0.0
-2.852244,-4.924429,6.865008,-34.509998,17.43,13.65,1729472387938.0,0.0
-3.579663,-5.407779,7.855636,-85.190002,6.58,12.81,1729472387959.0,0.0
-4.240082,-7.630712,8.283953,-156.309998,-10.15,10.15,1729472387978.0,0.0
-3.651447,-10.174281,7.424929,-205.800003,-28.0,-0.91,1729472387999.0,0.0
-2.275574,-10.423136,4.965107,-202.720001,-38.43,-13.23,1729472388019.0,0.0
-2.165504,-9.29133,4.065405,-165.899994,-29.610001,-12.67,1729472388038.0,0.0
-2.895315,-8.487342,3.285345,-171.570007,-19.25,-21.139999,1729472388063.0,0.0
-2.964707,-9.174082,2.029114,-189.559998,-17.92,-24.99,1729472388085.0,0.0
-2.122434,-11.200804,2.148755,-158.970001,-16.940001,-25.129999,1729472388099.0,0.0
-2.127219,-10.552348,2.306681,-39.34,-11.34,-19.25,1729472388118.0,0.0
-2.639283,-8.956335,1.880759,31.780001,-7.56,-14.56,1729472388142.0,0.0
-3.799802,-8.571091,1.859223,83.580002,-4.9,-3.71,1729472388159.0,0.0
-4.534399,-8.204988,3.031706,123.340004,-1.4,7.0,1729472388178.0,0.0
-4.130012,-6.752545,3.165704,149.449997,0.14,15.05,1729472388201.0,0.0
-4.187439,-6.45105,2.656033,150.430008,11.76,23.030001,1729472388219.0,0.0
-4.127619,-7.420143,2.519642,85.470001,24.360001,16.59,1729472388238.0,0.0
-3.285345,-8.705089,2.404787,-8.82,30.24,7.77,1729472388261.0,0.0
-2.696711,-10.9352,3.665804,-45.290001,29.26,4.69,1729472388279.0,0.0
-2.232504,-11.880364,3.378666,-25.690001,23.379999,-4.76,1729472388300.0,0.0
-1.641476,-10.719845,4.307081,9.87,22.75,-11.97,1729472388320.0,0.0
-0.29671,-8.987441,-1.354338,32.34,14.56,-18.200001,1729472388338.0,0.0
-0.591027,-6.084948,6.123233,21.629999,1.05,-13.93,1729472388360.0,0.0
-1.840081,-8.274381,1.727618,81.760002,-24.85,-2.94,1729472388379.0,0.0
-1.318445,-6.4678,2.76371,135.240005,7.77,0.63,1729472388403.0,0.0
-3.955336,-4.175476,4.517649,94.360001,33.950001,13.72,1729472388422.0,0.0
-5.651847,-5.529813,5.180461,-8.96,29.469999,6.79,1729472388445.0,0.0
-4.051049,-8.209774,5.692525,-55.439999,14.63,5.74,1729472388461.0,0.0
-2.435893,-8.638089,7.269395,-40.529999,10.85,8.26,1729472388481.0,0.0
-2.708675,-7.800602,7.975278,-41.09,-5.6,10.36,1729472388504.0,0.0
-3.249453,-8.578269,8.188239,-96.599998,-30.870001,5.46,1729472388521.0,0.0
-3.562913,-9.674182,5.556134,-151.550003,-59.920002,-7.07,1729472388542.0,0.0
-4.383651,-12.416357,2.096112,-122.43,-65.870003,-15.05,1729472388561.0,0.0
-2.529213,-11.60519,1.708475,-57.540001,-44.939999,-24.08,1729472388582.0,0.0
-1.70369,-9.12144,2.062613,6.3,-20.719999,-22.26,1729472388601.0,0.0
-1.631905,-7.652246,3.120241,15.4,-8.26,-20.58,1729472388622.0,0.0
-1.61037,-7.695317,3.050849,1.54,-4.97,-18.200001,1729472388640.0,0.0
-2.084148,-8.216952,3.570091,8.4,-0.84,-11.34,1729472388661.0,0.0
-2.816352,-8.370094,3.969693,24.01,1.47,-6.3,1729472388682.0,0.0
-3.254239,-8.4347,4.189832,28.49,3.01,-4.76,1729472388703.0,0.0
-2.993421,-8.446664,4.280759,27.93,2.59,-4.06,1729472388722.0,0.0
-2.691926,-8.391629,3.917051,32.27,-0.49,-3.43,1729472388740.0,0.0
-2.751746,-8.245667,4.228118,45.43,-2.38,-0.28,1729472388762.0,0.0
-3.259024,-8.102098,4.070191,60.41,-2.94,2.1,1729472388782.0,0.0
-3.412165,-7.51107,3.909872,72.379997,1.4,6.86,1729472388806.0,0.0
-3.785445,-7.393822,4.149154,66.080002,10.29,8.61,1729472388821.0,0.0
-3.969693,-7.896315,4.199404,20.299999,16.030001,2.94,1729472388840.0,0.0
-3.316452,-9.882358,3.929015,-28.700001,16.24,-5.25,1729472388862.0,0.0
-2.29711,-11.12184,3.656233,-35.0,11.13,-15.12,1729472388880.0,0.0
-1.299303,-10.640882,1.847259,9.17,14.35,-16.24,1729472388903.0,0.0
-0.856631,-8.551948,4.797609,35.77,18.620001,-21.07,1729472388922.0,0.0
-0.504886,-7.616355,3.160919,55.720001,9.59,-20.790001,1729472388940.0,0.0
-0.806381,-6.38405,4.079762,81.970001,16.940001,-12.18,1729472388960.0,0.0
-2.835495,-4.917251,3.909872,97.510002,25.41,-0.49,1729472388982.0,0.0
-4.555934,-4.694718,5.290531,71.400002,29.960001,6.65,1729472389001.0,0.0
-5.15414,-5.376673,5.491528,22.610001,25.059999,8.82,1729472389022.0,0.0
-3.998406,-6.618547,5.723632,-9.17,19.040001,12.6,1729472389040.0,0.0
-2.723032,-7.939385,6.884151,-30.799999,13.02,14.35,1729472389063.0,0.0
-3.151347,-8.35813,7.56132,-77.840004,2.73,9.59,1729472389141.0,0.0
-3.479164,-9.138189,10.080962,-137.199997,-18.690001,0.14,1729472389144.0,0.0
-3.996014,-10.018748,8.520842,-212.449997,-51.66,-18.9,1729472389156.0,0.0
-3.134598,-10.152746,1.990828,-241.009995,-75.389999,-34.369999,1729472389157.0,0.0
-1.619941,-12.332609,-1.234696,-162.75,-59.709999,-36.540001,1729472389171.0,0.0
-0.760918,-11.85165,-0.837488,-53.900002,-20.440001,-34.23,1729472389180.0,0.0
-1.715654,-8.886944,1.68694,24.780001,17.639999,-27.790001,1729472389203.0,0.0
-3.206382,-7.235896,3.842873,38.5,30.73,-21.07,1729472389220.0,0.0
-3.787838,-8.047063,4.333402,11.9,21.49,-22.82,1729472389242.0,0.0
-3.158526,-8.331808,3.658626,-1.4,12.53,-23.799999,1729472389261.0,0.0
-2.909672,-8.149954,2.318645,6.65,12.39,-19.809999,1729472389281.0,0.0
-3.017349,-8.666803,1.265803,27.65,9.73,-16.17,1729472389304.0,0.0
-2.579463,-9.717253,0.614955,76.019997,8.61,-15.61,1729472389320.0,0.0
-2.06022,-9.920642,1.387837,157.919998,16.73,-8.61,1729472389339.0,0.0
-1.256232,-8.764909,2.87378,251.300003,34.09,-5.32,1729472389360.0,0.0
-1.416551,-6.357729,6.185446,303.660004,52.290001,-5.18,1729472389379.0,0.0
-1.505085,-6.618547,6.431907,284.410004,52.990002,-11.13,1729472389401.0,0.0
-0.509671,-7.228717,6.398407,262.779999,48.439999,-14.77,1729472389421.0,0.0
0.502493,-5.414958,7.216753,273.350006,60.41,-18.969999,1729472389446.0,0.0
-0.399601,-1.172483,8.788837,249.550003,76.160004,-17.01,1729472389467.0,0.0
-1.31366,-0.655633,9.336794,163.029999,55.299999,-5.18,1729472389479.0,0.0
-1.469193,-4.127619,10.298709,97.160004,31.57,0.35,1729472389500.0,0.0
-1.124627,-4.905287,9.75793,87.709999,25.620001,-4.27,1729472389520.0,0.0
-1.947758,-4.158726,9.54497,66.639999,21.35,-8.89,1729472389541.0,0.0
-2.962314,-5.063213,9.12144,15.05,10.85,-21.210001,1729472389560.0,0.0
-4.395615,-4.969893,10.798808,-17.08,1.05,-32.27,1729472389580.0,0.0
-5.546563,-2.928815,12.114861,-43.889999,-11.27,-34.16,1729472389602.0,0.0
-5.343173,-4.354938,11.167303,-82.599998,-47.040001,-28.91,1729472389620.0,0.0
-4.058227,-3.684947,6.565905,-91.699997,-57.610001,-23.870001,1729472389643.0,0.0
-2.888137,-4.48415,5.034499,-65.660004,-44.52,-12.32,1729472389660.0,0.0
-2.421536,-4.347759,6.242875,-58.799999,-21.629999,-18.34,1729472389681.0,0.0
-3.696911,-4.771288,6.470192,-62.580002,-5.04,-15.33,1729472389700.0,0.0
-4.713861,-5.680561,8.204988,-76.019997,6.09,-18.200001,1729472389719.0,0.0
-3.225525,-5.010571,6.80758,-157.919998,6.16,-34.790001,1729472389739.0,0.0
-2.048256,-4.541577,6.26441,-210.630005,9.87,-39.900002,1729472389761.0,0.0
-2.218147,-5.958128,7.599605,-235.479996,10.22,-35.91,1729472389802.0,0.0
-0.473779,-6.15434,7.709675,-234.290009,-3.29,-21.139999,1729472389824.0,0.0
0.715454,-4.603791,5.278566,-252.350006,-8.54,-13.23,1729472389924.0,0.0
-0.162712,-4.113262,4.125226,-273.769989,-3.22,7.91,1729472389926.0,0.0
-2.54357,-5.630312,1.057628,-323.820007,3.01,20.16,1729472389927.0,0.0
-3.567699,-10.052249,-3.318845,-332.779999,-7.56,8.75,1729472389928.0,0.0
-2.991028,-12.600604,-8.082954,-262.98999,-9.03,5.95,1729472389931.0,0.0
-3.196811,-16.235302,-8.439486,-89.809998,19.950001,10.5,1729472389939.0,0.0
-2.301895,-15.840486,-5.180461,90.720001,18.48,10.5,1729472389965.0,0.0
-0.526421,-12.476178,-2.313859,266.140015,23.59,24.290001,1729472389978.0,0.0
-0.119641,-9.068797,1.78026,404.950012,27.51,11.69,1729472390001.0,0.0
-0.581456,-5.04407,3.955336,490.279999,27.65,-7.56,1729472390018.0,0.0
-2.706282,-0.200997,8.52802,541.799988,33.810001,16.73,1729472390039.0,0.0
-4.505685,1.155733,13.289737,529.76001,4.83,52.990002,1729472390062.0,0.0
-3.728018,-1.619941,11.799009,219.309998,-42.84,38.5,1729472390078.0,0.0
-1.804188,-6.111269,7.657032,66.919998,-63.700001,34.09,1729472390099.0,0.0
-0.595813,-9.899107,6.742974,37.939999,-37.66,24.43,1729472390125.0,0.0
-2.486143,-5.257031,8.599805,37.869999,6.09,-11.34,1729472390138.0,0.0
-3.586841,-1.885544,9.217153,11.06,14.63,-15.47,1729472390161.0,0.0
-2.462214,-2.48375,9.767502,-17.57,4.76,-5.25,1729472390179.0,0.0
-2.586641,-4.003192,10.375278,-36.889999,-4.76,0.56,1729472390203.0,0.0
-2.651247,-5.386244,10.707881,-62.790001,-14.07,1.05,1729472390221.0,0.0
-2.474179,-5.594419,9.408579,-105.279999,-20.719999,-7.07,1729472390240.0,0.0
-2.727818,-5.716454,5.953342,-156.869995,-23.030001,-13.72,1729472390261.0,0.0
-3.948158,-7.068398,7.582855,-171.990005,-4.55,-20.370001,1729472390279.0,0.0
-3.862016,-5.575277,9.463614,-174.089996,-0.35,-25.41,1729472390301.0,0.0
-2.974278,-3.893122,11.021341,-186.479996,-2.45,-23.450001,1729472390319.0,0.0
-1.31366,-2.273181,10.193424,-241.360001,-26.460001,-17.08,1729472390339.0,0.0
-0.16989,-1.823331,4.029513,-295.329987,-48.720001,7.42,1729472390360.0,0.0
-2.368894,-4.070191,-0.490529,-366.940002,-5.67,16.17,1729472390380.0,0.0
-3.120241,-4.244867,-4.721039,-392.839996,18.34,1.82,1729472390401.0,0.0
-2.952743,-8.88455,-9.016156,-371.839996,28.280001,29.33,1729472390420.0,0.0
-3.728018,-15.062819,-11.973685,-295.329987,46.830002,28.84,1729472390446.0,0.0
-3.962514,-20.128426,-10.796415,-110.949997,62.790001,11.06,1729472390462.0,0.0
-1.246661,-16.52244,-6.355337,133.559998,5.25,10.01,1729472390482.0,0.0
0.509671,-9.602397,-2.986243,387.100006,5.74,40.18,1729472390502.0,0.0
0.258425,-5.419744,0.665205,510.790009,44.170002,22.33,1729472390520.0,0.0
-1.158126,-2.213361,4.015156,492.799988,60.900002,6.02,1729472390541.0,0.0
-3.239882,-0.961915,8.733803,437.080017,35.07,22.26,1729472390561.0,0.0
-3.739982,0.540778,12.081362,394.730011,-6.93,42.07,1729472390580.0,0.0
-4.046263,-2.361716,13.591233,337.26001,-23.030001,58.240002,1729472390604.0,0.0
-3.218346,-5.594419,9.736395,215.529999,-42.490002,38.57,1729472390623.0,0.0
-1.885544,-6.762117,8.551948,138.600006,-37.939999,35.07,1729472390641.0,0.0
-2.87378,-2.888137,9.999605,36.049999,5.25,-1.82,1729472390663.0,0.0
-3.361916,-2.900101,10.380065,-46.130001,0.7,-8.68,1729472390681.0,0.0
-3.192025,-4.04387,9.815358,-73.849998,-5.67,-8.54,1729472390713.0,0.0
-2.981457,-4.819145,11.018949,-52.290001,-5.88,-4.41,1729472390722.0,0.0
-2.974278,-4.725825,11.126624,-64.889999,-9.87,-6.44,1729472390742.0,0.0
-2.840281,-4.532006,9.437292,-132.369995,-17.639999,-12.53,1729472390762.0,0.0
-3.529413,-5.321638,8.322237,-221.830002,-20.93,-24.92,1729472390781.0,0.0
-4.534399,-5.022535,9.013763,-295.820007,-20.299999,-42.139999,1729472390804.0,0.0
-4.26401,-5.886343,8.848659,-300.160004,-38.990002,-22.4,1729472390821.0,0.0
-1.768296,-4.553542,6.67119,-271.110016,-38.639999,-17.15,1729472390845.0,0.0
-0.497707,-3.718446,5.62074,-256.899994,-33.18,7.14,1729472390861.0,0.0
-1.660619,-3.314059,1.852045,-317.660004,-35.209999,19.460001,1729472390881.0,0.0
-3.419343,-2.725425,-3.038885,-385.420013,-8.33,0.14,1729472390903.0,0.0
-3.696911,-7.075576,-7.578069,-399.0,19.460001,5.46,1729472390922.0,0.0
-2.835495,-13.761123,-10.872985,-327.110016,11.76,15.12,1729472390942.0,0.0
-2.952743,-20.394028,-12.935599,-139.860001,32.48,11.2,1729472390962.0,0.0
-0.784846,-14.187045,-7.238289,102.830002,25.129999,0.14,1729472390982.0,0.0
-0.086142,-7.60439,-4.599005,464.170013,34.650002,25.059999,1729472391002.0,0.0
-0.457029,-3.586841,-1.476372,563.429993,65.800003,17.01,1729472391022.0,0.0
-1.457229,-0.691526,2.457429,547.049988,72.379997,2.03,1729472391041.0,0.0
-3.314059,1.615155,8.4347,526.609985,53.619999,15.54,1729472391065.0,0.0
-4.292724,3.804588,14.586647,516.320007,35.490002,32.970001,1729472391281.0,0.0
-5.91745,-0.887737,14.603395,338.380005,31.57,40.810001,1729472391281.0,0.0
-3.182454,-3.201597,9.181261,116.480003,-28.35,18.83,1729472391282.0,0.0
-1.969293,-6.343372,8.688338,35.420002,-10.29,28.280001,1729472391284.0,0.0
-2.251646,-5.625526,9.399008,0.28,4.06,9.24,1729472391285.0,0.0
-2.725425,-4.283153,9.71486,-8.33,11.48,-7.56,1729472391285.0,0.0
-2.227718,-2.081756,10.844273,5.74,13.93,-8.82,1729472391285.0,0.0
-2.519642,-0.971486,12.12204,-10.22,7.28,-1.05,1729472391285.0,0.0
-2.849852,-2.718246,12.21536,-61.18,-18.41,5.81,1729472391285.0,0.0
-2.852244,-4.534399,11.040483,-108.360001,-35.98,6.3,1729472391286.0,0.0
-2.830709,-4.778467,8.659625,-153.440002,-41.16,-4.9,1729472391286.0,0.0
-4.304688,-5.022535,5.704489,-209.720001,-34.650002,-17.57,1729472391303.0,0.0
-5.47717,-7.499106,6.814759,-203.139999,-23.379999,-25.76,1729472391321.0,0.0
-4.957928,-8.008778,10.004392,-205.660004,-29.82,-27.370001,1729472391341.0,0.0
-2.481357,-5.283352,8.039884,-230.720001,-29.26,-35.209999,1729472391410.0,0.0
-0.416351,-3.136991,6.178268,-245.279999,-25.9,-20.440001,1729472391462.0,0.0
-0.241675,-2.041078,2.065006,-295.119995,-46.48,15.26,1729472391468.0,0.0
-2.242075,-4.118048,-2.775674,-350.630005,-26.110001,11.41,1729472391472.0,0.0
-3.87398,-7.085148,-6.058627,-362.179993,13.79,-10.22,1729472391474.0,0.0
-4.663611,-11.641083,-8.506484,-288.610016,26.67,5.81,1729472391475.0,0.0
-4.290331,-15.689737,-8.449057,-144.270004,30.380001,14.42,1729472391484.0,0.0
-2.651247,-15.45524,-5.644669,22.82,25.969999,19.040001,1729472391569.0,0.0
-1.182054,-12.067005,-2.148755,187.529999,31.99,29.469999,1729472391588.0,0.0
-0.799203,-8.630912,1.031307,290.360016,36.470001,21.35,1729472391588.0,0.0
-0.739382,-7.21436,2.323431,339.98999,29.26,10.22,1729472391589.0,0.0
-1.572084,-6.565905,5.134997,347.480011,26.880001,5.67,1729472391591.0,0.0
-1.478764,-2.854637,6.168696,376.670013,10.22,14.49,1729472391607.0,0.0
-2.79721,-1.428515,10.365707,410.549988,23.799999,37.869999,1729472391624.0,0.0
-4.567898,-2.926422,10.576276,304.149994,14.98,34.580002,1729472391656.0,0.0
-4.197011,-6.410372,9.229117,176.820007,-12.88,15.26,1729472391718.0,0.0
-2.443072,-6.250053,9.537791,127.82,5.95,5.67,1729472391722.0,0.0
-2.761317,-1.875973,11.794223,62.02,25.969999,-7.28,1729472391722.0,0.0
-3.347559,-2.091327,11.873186,-51.869999,2.87,-16.940001,1729472391725.0,0.0
-3.330809,-4.608576,10.492528,-101.080002,-20.790001,-11.34,1729472391742.0,0.0
-2.562713,-4.912465,10.102496,-61.740002,-22.610001,-10.92,1729472391763.0,0.0
-2.531606,-3.718446,9.801002,-31.290001,-24.780001,-4.34,1729472391783.0,0.0
-2.510071,-3.002992,8.269595,-62.439999,-25.129999,-3.85,1729472391803.0,0.0
-3.570091,-2.952743,6.60419,-139.720001,-23.59,-3.78,1729472391823.0,0.0
-5.254639,-5.197211,8.953942,-207.759995,-12.88,-18.27,1729472391843.0,0.0
-5.60399,-5.761917,8.626125,-259.0,-38.080002,-17.92,1729472391868.0,0.0
-2.727818,-6.611369,8.063812,-263.619995,-54.389999,-13.440001,1729472391883.0,0.0
0.047856,-5.441278,2.9336,-272.649994,-42.560001,-7.49,1729472391914.0,0.0
-1.378266,-6.431907,-1.11027,-297.290009,-34.790001,8.96,1729472391929.0,0.0
-3.728018,-6.640083,-2.835495,-315.420013,-6.3,1.19,1729472391944.0,0.0
-5.06082,-9.84168,-4.211368,-250.389999,15.89,1.75,1729472391963.0,0.0
-4.376472,-12.335001,-6.058627,-164.990005,20.65,2.94,1729472391984.0,0.0
-3.723232,-13.890336,-6.250053,-52.779999,27.719999,9.38,1729472392003.0,0.0
-2.143969,-12.847065,-5.615955,85.889999,31.01,13.23,1729472392027.0,0.0
-1.251446,-11.270195,-2.54357,218.75,37.799999,26.6,1729472392044.0,0.0
-1.251446,-8.396415,1.06002,321.299988,24.85,18.549999,1729472392066.0,0.0
0.028714,-6.271588,4.811966,392.839996,39.48,7.77,1729472392083.0,0.0
-1.430908,-2.979064,8.161918,401.869995,54.389999,1.05,1729472392105.0,0.0
-3.168097,-0.5001,11.552547,398.230011,35.98,19.6,1729472392122.0,0.0
-4.232903,-1.20359,12.299109,342.790009,0.21,46.130001,1729472392142.0,0.0
-2.902494,-3.383451,10.932807,239.610001,-24.01,41.369999,1729472392164.0,0.0
-1.698904,-3.433701,9.927821,125.93,-18.059999,27.790001,1729472392182.0,0.0
-2.222932,-2.962314,10.394422,21.35,-9.66,22.889999,1729472392205.0,0.0
-3.196811,-4.998606,10.851451,-47.880001,-14.21,14.14,1729472392223.0,0.0
-3.412165,-5.371887,11.413764,-71.190002,-18.9,-4.69,1729472392243.0,0.0
-3.330809,-4.807181,10.506885,-88.480003,-21.35,-10.64,1729472392265.0,0.0
-4.051049,-3.06042,6.458229,-150.360001,-23.59,-20.02,1729472392283.0,0.0
-5.716454,-7.123433,8.331808,-176.75,-13.09,-16.799999,1729472392304.0,0.0
-3.912265,-6.886543,8.539984,-243.740005,-20.790001,-36.68,1729472392323.0,0.0
-1.155733,-5.465207,8.233703,-298.269989,-42.560001,-41.650002,1729472392345.0,0.0
1.232304,-3.165704,3.457629,-304.98999,-42.84,-20.790001,1729472392365.0,0.0
0.445065,-5.302495,0.272782,-252.350006,-34.580002,10.78,1729472392382.0,0.0
-2.572284,-6.9344,-1.086342,-239.960007,3.01,6.86,1729472392412.0,0.0
-4.962714,-6.441479,-1.445265,-217.839996,29.75,13.09,1729472392423.0,0.0
-5.254639,-9.631111,-3.089134,-171.009995,33.740002,22.049999,1729472392445.0,0.0
-5.230711,-15.400207,-5.558527,-153.020004,29.120001,2.38,1729472392464.0,0.0
-5.761917,-18.474985,-6.9009,-84.489998,34.16,-8.47,1729472392483.0,0.0
-2.275574,-17.635103,-6.472585,136.360001,-7.7,-30.52,1729472392505.0,0.0
0.595813,-9.329616,-3.074777,381.5,11.76,-7.07,1729472392523.0,0.0
-0.823131,2.122434,5.391029,539.97998,77.769997,-1.47,1729472392545.0,0.0
-1.849652,4.996214,11.332408,435.190002,64.889999,-2.8,1729472392565.0,0.0
-2.299503,2.610569,14.696717,203.910004,20.51,1.68,1729472392585.0,0.0
-2.861816,-4.603791,13.397413,73.010002,-31.85,18.690001,1729472392605.0,0.0
-2.218147,-9.853643,10.607382,105.279999,-64.120003,34.93,1729472392625.0,0.0
-2.720639,-9.257831,10.360922,179.410004,-34.860001,33.32,1729472392644.0,0.0
-3.567699,-5.845665,10.671989,167.229996,-23.030001,8.05,1729472392665.0,0.0
-2.823531,-4.924429,10.758131,61.389999,-30.59,-16.59,1729472392684.0,0.0
-2.0004,-4.04387,9.848858,-46.41,-37.310001,-32.34,1729472392705.0,0.0
-2.120041,-3.615555,8.750552,-112.279999,-33.810001,-37.59,1729472392725.0,0.0
-3.314059,-3.859623,6.893722,-118.650002,-26.809999,-29.82,1729472392745.0,0.0
-3.335595,-4.429115,7.905886,-105.699997,-1.4,-19.389999,1729472392766.0,0.0
-2.586641,-3.103491,8.678767,-176.889999,1.26,-21.77,1729472392785.0,0.0
-0.253639,-1.98365,4.503292,-254.240005,-27.440001,-15.54,1729472392806.0,0.0
0.066999,-3.117848,4.130012,-282.799988,-31.92,9.8,1729472392825.0,0.0
-1.667797,-3.455236,2.464607,-276.290009,-6.23,21.07,1729472392846.0,0.0
-2.95035,-3.89073,-0.055035,-279.720001,10.57,44.380001,1729472392866.0,0.0
-2.785245,-6.166305,-2.038685,-294.630005,15.05,50.259998,1729472392886.0,0.0
-3.795017,-11.526227,-4.429115,-317.940002,22.4,47.25,1729472392907.0,0.0
-5.132604,-16.893328,-6.262017,-289.660004,37.869999,36.400002,1729472392925.0,0.0
-5.233103,-19.59004,-5.850451,-151.619995,36.75,24.219999,1729472392945.0,0.0
-3.505485,-16.240088,-4.017549,46.060001,20.93,10.71,1729472392965.0,0.0
-1.90708,-10.997414,-2.105684,222.25,15.4,-3.29,1729472392985.0,0.0
-1.457229,-7.645068,0.222532,301.0,25.83,-1.54,1729472393007.0,0.0
-0.978664,-7.020542,2.622534,309.75,19.110001,4.27,1729472393026.0,0.0
-0.68674,-6.690332,4.587041,292.320007,12.6,-3.22,1729472393045.0,0.0
-1.227518,-5.788238,4.881358,313.25,19.040001,-3.92,1729472393069.0,0.0
-2.07697,-3.519842,6.046663,341.179993,20.16,4.55,1729472393085.0,0.0
-2.270789,-1.727618,9.413363,340.899994,16.940001,20.16,1729472393107.0,0.0
-3.404987,-2.924029,10.916058,259.910004,16.379999,25.27,1729472393130.0,0.0
-3.847659,-6.295516,9.801002,162.680008,-9.59,16.379999,1729472393147.0,0.0
-2.914458,-4.941179,9.753145,111.510002,0.98,5.53,1729472393166.0,0.0
-3.019742,-3.074777,10.459028,29.120001,6.09,-1.12,1729472393187.0,0.0
-3.376273,-3.991228,10.595419,-22.4,-5.67,-1.54,1729472393216.0,0.0
-3.251846,-4.761717,10.839487,-26.32,-16.799999,-2.03,1729472393225.0,0.0
-2.974278,-3.704089,10.815558,-13.65,-17.360001,-3.15,1729472393247.0,0.0
-2.615355,-3.866802,10.004392,-39.970001,-29.190001,-1.12,1729472393266.0,0.0
-2.921637,-3.742374,8.109276,-107.309998,-31.15,-3.78,1729472393286.0,0.0
-4.235296,-4.146761,6.71426,-175.630005,-21.35,-9.73,1729472393306.0,0.0
-5.4341,-6.498906,8.559127,-213.149994,-12.53,-19.460001,1729472393326.0,0.0
-4.414758,-7.128219,8.989835,-262.5,-38.290001,-21.35,1729472393345.0,0.0
-1.0002,-5.242674,6.372087,-284.619995,-44.450001,-25.34,1729472393367.0,0.0
0.918844,-3.105884,2.328217,-266.350006,-39.060001,-7.7,1729472393386.0,0.0
-0.823131,-4.785645,0.387637,-238.419998,-21.700001,25.200001,1729472393405.0,0.0
-3.335595,-5.283352,-1.383051,-264.179993,7.7,13.09,1729472393425.0,0.0
-5.185246,-7.556533,-1.90708,-254.029999,26.67,17.639999,1729472393448.0,0.0
-4.795217,-11.801401,-4.070191,-234.149994,21.77,19.460001,1729472393465.0,0.0
-4.31426,-15.390635,-6.008378,-170.660004,19.809999,11.34,1729472393486.0,0.0
-2.727818,-15.902699,-5.52742,68.32,4.83,0.91,1729472393505.0,0.0
-0.105284,-11.710474,-2.620141,256.690002,-4.2,6.93,1729472393524.0,0.0
0.933201,-6.910471,0.653241,398.720001,34.509998,16.799999,1729472393545.0,0.0
0.179462,-4.012764,5.486742,446.459991,51.240002,0.35,1729472393566.0,0.0
-1.445265,-1.646262,8.898908,412.649994,37.240002,-7.84,1729472393585.0,0.0
-3.208775,-1.689333,10.322637,393.679993,16.870001,20.65,1729472393607.0,0.0
-3.448057,-3.529413,10.892128,373.799988,-4.97,37.099998,1729472393626.0,0.0
-2.464607,-4.354938,10.774881,310.170013,2.8,28.139999,1729472393645.0,0.0
-2.651247,-2.225325,10.767702,163.449997,9.38,9.94,1729472393665.0,0.0
-3.208775,-1.378266,10.04507,-11.48,-2.24,-4.2,1729472393685.0,0.0
-3.177669,-5.008178,9.150154,-110.739998,-22.82,-7.98,1729472393706.0,0.0
-3.098706,-5.599205,10.195816,-90.090004,-15.47,-12.81,1729472393725.0,0.0
-3.249453,-4.268795,11.272588,-60.619999,-9.59,-11.83,1729472393747.0,0.0
-2.883351,-3.692125,9.085547,-83.440002,-20.65,-9.1,1729472393765.0,0.0
-2.455036,-3.306881,5.955735,-147.419998,-23.1,-14.77,1729472393784.0,0.0
-5.321638,-4.649254,5.615955,-201.110001,-5.67,-12.95,1729472393806.0,0.0
-5.927022,-5.575277,8.322237,-194.669998,-8.26,-15.75,1729472393824.0,0.0
-2.811567,-7.144968,7.886744,-205.100006,-26.110001,-13.93,1729472393845.0,0.0
-0.827917,-6.855437,6.254838,-242.970001,-17.780001,-14.84,1729472393865.0,0.0
0.674776,-5.182854,2.656033,-250.529999,-36.959999,-11.27,1729472393884.0,0.0
-0.923629,-6.374479,1.5003,-219.449997,-16.73,7.49,1729472393906.0,0.0
-3.634698,-6.649654,-0.057428,-222.880005,7.56,10.22,1729472393924.0,0.0
-4.424329,-7.60439,-0.880559,-198.029999,15.190001,17.08,1729472393945.0,0.0
-4.108476,-9.578469,-1.40698,-172.199997,16.309999,18.200001,1729472393966.0,0.0
-3.462414,-12.335001,-2.840281,-151.479996,8.96,11.9,1729472393985.0,0.0
-3.062813,-15.203994,-5.795416,-81.410004,12.67,4.34,1729472394006.0,0.0
-2.667997,-15.507884,-5.381458,60.060001,15.26,-1.05,1729472394025.0,0.0
-0.875773,-11.710474,-2.868994,239.119995,15.05,11.83,1729472394044.0,0.0
0.234497,-7.314859,1.414158,424.059998,44.240002,14.28,1729472394070.0,0.0
-1.012164,-2.715853,5.931807,486.5,74.620003,4.34,1729472394145.0,0.0
-3.206382,-0.081356,11.337193,463.820007,59.920002,5.74,1729472394145.0,0.0
-4.414758,0.26321,12.346965,417.410004,18.41,32.060001,1729472394146.0,0.0
-3.548556,-1.45005,12.882957,332.079987,-2.17,39.549999,1729472394150.0,0.0
-2.397608,-3.900301,10.602598,189.699997,-17.360001,31.85,1729472394165.0,0.0
-3.04367,-5.771489,9.066404,5.81,-34.720001,20.370001,1729472394184.0,0.0
-2.68714,-6.23091,8.965906,-23.66,-28.49,1.96,1729472394206.0,0.0
-2.581856,-4.981857,9.671788,-16.379999,-17.780001,-11.97,1729472394227.0,0.0
-2.608176,-3.737589,9.75793,-24.08,-18.76,-14.28,1729472394244.0,0.0
-2.277967,-4.290331,10.805987,-56.98,-24.639999,-11.97,1729472394265.0,0.0
-2.210968,-4.929214,8.906086,-106.260002,-31.5,-14.07,1729472394284.0,0.0
-4.500899,-4.591826,6.585048,-187.529999,-24.15,-21.139999,1729472394307.0,0.0
-7.429714,-7.32443,10.722239,-259.0,-7.14,-41.16,1729472394325.0,0.0
-7.9011,-4.675575,15.048461,-409.640015,-54.740002,-58.170002,1729472394345.0,0.0
-4.804788,1.119841,9.308081,-466.059998,-109.059998,-17.85,1729472394365.0,0.0
1.452443,-3.335595,-4.795217,-362.809998,-102.900002,-29.33,1729472394384.0,0.0
1.469193,-4.95075,-7.018148,-262.360016,-64.68,-5.11,1729472394405.0,0.0
-0.27996,-5.319244,-6.692725,-147.979996,4.69,15.190001,1729472394424.0,0.0
-3.440879,-6.166305,-2.979064,-135.940002,68.32,24.99,1729472394452.0,0.0
-4.015156,-9.131011,-0.612563,-168.139999,54.040001,42.0,1729472394466.0,0.0
-2.589034,-10.590633,1.227518,-151.199997,34.580002,52.220001,1729472394484.0,0.0
-2.957529,-10.15514,1.976472,-76.160004,15.68,55.580002,1729472394507.0,0.0
-3.735196,-9.789038,3.120241,-89.040001,-18.34,45.150002,1729472394525.0,0.0
-3.469593,-9.798609,2.234896,-110.040001,-55.16,30.309999,1729472394545.0,0.0
-3.775874,-9.38465,0.815953,-129.149994,-63.07,32.130001,1729472394566.0,0.0
-4.177868,-10.119246,-1.177269,-152.180008,-70.489998,20.860001,1729472394585.0,0.0
-3.749553,-9.530612,-2.050649,-188.930008,-71.540001,2.03,1729472394606.0,0.0
-3.022135,-9.509077,-3.60359,-212.520004,-75.669998,-5.04,1729472394625.0,0.0
-2.112862,-8.77448,-5.568098,-223.720001,-78.470001,-9.45,1729472394645.0,0.0
-1.201197,-8.688338,-6.288338,-236.180008,-69.790001,-11.34,1729472394666.0,0.0
-0.550349,-8.973085,-6.053841,-260.679993,-45.080002,-16.52,1729472394685.0,0.0
-0.803988,-11.521441,-6.67119,-263.130005,-23.379999,-27.02,1729472394707.0,0.0
-1.261017,-11.487941,-6.829116,-173.320007,3.15,-28.280001,1729472394726.0,0.0
-1.758725,-9.439686,-6.865008,-70.489998,4.9,-21.700001,1729472394745.0,0.0
-1.933401,-7.398607,-6.915257,-63.0,19.6,-26.460001,1729472394767.0,0.0
-2.227718,-8.386844,-7.063612,-96.599998,26.25,-21.77,1729472394786.0,0.0
-2.103291,-9.686146,-7.365108,-128.589996,27.860001,-16.379999,1729472394806.0,0.0
-1.65344,-9.095119,-7.101898,-91.279999,27.719999,-18.83,1729472394826.0,0.0
-1.897508,-8.303094,-6.625726,-42.700001,31.15,-17.99,1729472394846.0,0.0
-2.09372,-7.927422,-6.522834,-22.68,31.219999,-18.48,1729472394867.0,0.0
-1.852045,-7.982457,-6.728617,-13.440001,26.040001,-17.780001,1729472394886.0,0.0
-1.61037,-7.960921,-6.522834,-2.59,27.790001,-14.7,1729472394909.0,0.0
-1.462015,-7.82453,-6.575477,14.7,29.26,-11.62,1729472394928.0,0.0
-1.9669,-6.798009,-1.808974,27.719999,26.530001,-7.63,1729472394946.0,0.0
-3.07717,-8.525627,-3.213561,-8.4,7.7,-18.27,1729472394967.0,0.0
-2.658426,-9.693325,-6.18784,-31.780001,-13.37,-26.67,1729472394987.0,0.0
-2.007578,-8.355737,-7.989635,-3.01,-16.379999,-28.630001,1729472395008.0,0.0
-2.758924,-6.223732,-7.575676,24.780001,-1.68,-20.790001,1729472395026.0,0.0
-3.605984,-6.223732,-6.254838,5.46,10.01,-15.82,1729472395047.0,0.0
-3.438486,-5.843273,-5.919843,-10.71,7.35,-8.05,1729472395072.0,0.0
-2.651247,-6.876972,-6.809973,-17.85,1.61,-2.66,1729472395086.0,0.0
-2.443072,-7.776673,-7.391429,-21.42,-2.31,-0.63,1729472395108.0,0.0
-2.691926,-8.061419,-7.858029,-8.96,-0.07,-7.07,1729472395127.0,0.0
-2.366502,-7.444071,-8.30788,-5.46,3.08,-13.93,1729472395147.0,0.0
-0.851845,-5.816952,-7.802995,9.87,3.43,-9.66,1729472395172.0,0.0
-0.270389,-5.520242,-6.965507,30.309999,7.21,1.33,1729472395186.0,0.0
-0.588634,-5.075177,-6.647261,39.200001,14.7,10.29,1729472395208.0,0.0
-0.248854,-5.115855,-6.446264,32.759998,14.77,19.74,1729472395226.0,0.0
-0.167498,-6.216553,-6.932007,0.77,14.0,22.469999,1729472395247.0,0.0
-0.303888,-7.45125,-6.678369,-20.440001,14.77,20.299999,1729472395266.0,0.0
-0.234497,-8.023134,-6.757331,-23.52,13.09,14.84,1729472395286.0,0.0
0.105284,-8.432307,-6.963113,-13.37,11.76,8.4,1729472395308.0,0.0
-0.129212,-8.271988,-6.24766,-0.63,13.51,3.71,1729472395326.0,0.0
-1.201197,-8.712267,-5.927022,6.44,12.18,-1.19,1729472395347.0,0.0
-2.069792,-9.399008,-5.32403,12.95,6.58,-7.14,1729472395367.0,0.0
-2.871387,-10.250853,-5.003392,16.52,-1.89,-19.389999,1729472395386.0,0.0
-2.541178,-7.843673,-5.35753,16.030001,-12.88,-32.060001,1729472395409.0,0.0
-1.725225,-5.977271,-5.938986,-24.57,-17.92,-33.18,1729472395428.0,0.0
-1.514657,-6.690332,-6.695118,-38.290001,-19.530001,-20.16,1729472395446.0,0.0
-2.239682,-7.539784,-6.915257,-24.43,-14.63,-9.59,1729472395467.0,0.0
-2.694318,-7.271788,-7.424929,-4.06,-12.95,-5.32,1729472395486.0,0.0
-2.344966,-6.479764,-7.750352,11.34,-12.53,0.84,1729472395508.0,0.0
-1.636691,-5.833702,-8.054241,21.0,-10.78,8.12,1729472395527.0,0.0
-1.167697,-5.144568,-8.099705,33.740002,-3.99,16.52,1729472395546.0,0.0
-0.902094,-5.575277,-7.384251,40.32,3.29,26.880001,1729472395567.0,0.0
-0.61017,-6.084948,-6.817152,32.48,7.42,29.33,1729472395588.0,0.0
-0.591027,-7.04447,-6.486942,22.82,7.7,28.139999,1729472395607.0,0.0
-0.502493,-7.769495,-6.65444,12.88,6.79,19.040001,1729472395626.0,0.0
-0.655633,-7.941778,-6.537192,6.44,6.44,9.52,1729472395646.0,0.0
-0.746561,-8.566305,-6.319445,5.39,4.62,1.89,1729472395667.0,0.0
-0.744168,-8.829515,-6.142376,3.92,3.43,-7.28,1729472395686.0,0.0
-0.758525,-8.764909,-6.180661,3.29,0.91,-15.33,1729472395709.0,0.0
-0.964308,-9.073583,-5.711668,0.35,-0.35,-21.84,1729472395726.0,0.0
-1.533799,-9.71486,-5.522634,3.29,-3.78,-28.91,1729472395746.0,0.0
-1.770689,-7.448857,-6.106483,10.5,-6.37,-32.27,1729472395768.0,0.0
-1.737189,-6.403193,-5.929415,7.07,-3.78,-20.58,1729472395786.0,0.0
-2.866602,-7.881958,-5.608776,-1.68,0.98,-9.87,1729472395808.0,0.0
-4.024727,-8.611769,-5.548956,-12.11,-1.33,-8.82,1729472395826.0,0.0
-3.9673,-8.315059,-6.649654,-19.879999,-6.09,-12.6,1729472395846.0,0.0
-2.914458,-7.489535,-7.192825,-2.73,-8.05,-9.45,1729472395866.0,0.0
-2.730211,-7.348359,-7.592427,24.57,-1.96,-6.09,1729472395887.0,0.0
-1.978864,-6.975078,-7.57089,39.060001,1.96,-0.7,1729472395909.0,0.0
-1.11027,-6.051448,-6.520442,32.689999,5.25,3.15,1729472395927.0,0.0
-0.930808,-6.06102,-6.058627,36.75,6.51,10.5,1729472395946.0,0.0
-0.244068,-5.828916,-5.101498,53.970001,5.67,17.01,1729472395967.0,0.0
0.236889,-5.843273,-5.199604,43.82,0.98,21.280001,1729472395986.0,0.0
-0.064606,-7.221539,-5.623133,6.44,-3.01,19.67,1729472396008.0,0.0
-0.550349,-8.650054,-6.862615,-31.15,-2.1,10.01,1729472396026.0,0.0
-0.418744,-10.49492,-6.965507,-29.120001,-1.19,1.82,1729472396047.0,0.0
-0.646062,-10.734202,-6.147161,1.19,3.5,-9.03,1729472396071.0,0.0
-1.124627,-9.903893,-4.048656,17.710001,3.71,-21.42,1729472396087.0,0.0
-1.138984,-9.853643,-4.457829,-2.87,-10.57,-38.009998,1729472396107.0,0.0
-1.529014,-9.090333,-5.388636,-16.17,-13.02,-44.52,1729472396126.0,0.0
-1.811367,-8.939585,-6.15434,-14.49,-10.78,-41.439999,1729472396146.0,0.0
-1.85683,-4.261617,-6.116055,6.09,-3.36,-27.860001,1729472396166.0,0.0
-3.050849,-4.041477,-5.45085,6.3,4.06,0.91,1729472396186.0,0.0
-3.63709,-6.4678,-4.381258,-12.67,-0.42,17.290001,1729472396217.0,0.0
-4.132405,-8.130811,-5.62074,-14.42,-8.47,19.530001,1729472396226.0,0.0
-3.337988,-8.489735,-7.087541,-22.26,-16.59,16.1,1729472396246.0,0.0
-2.098505,-7.590034,-6.661618,-13.79,-15.190001,8.61,1729472396266.0,0.0
-1.756332,-7.176075,-6.89133,11.69,-10.78,12.88,1729472396286.0,0.0
-1.07677,-5.898308,-6.711867,11.2,-7.49,13.23,1729472396307.0,0.0
-0.837488,-6.695118,-5.99402,15.33,-3.43,22.190001,1729472396325.0,0.0
-0.143569,-7.159326,-5.929415,7.42,-4.2,21.84,1729472396345.0,0.0
0.253639,-7.467999,-5.345565,6.51,-4.97,20.16,1729472396367.0,0.0
-0.095713,-8.087741,-6.419943,-12.88,-5.39,11.76,1729472396385.0,0.0
-0.174676,-8.752945,-6.675975,-42.84,-5.6,1.61,1729472396407.0,0.0
-0.736989,-9.540184,-6.680761,-47.459999,-4.83,-6.3,1729472396426.0,0.0
-1.320838,-9.430114,-6.343372,-22.120001,-1.05,-18.969999,1729472396446.0,0.0
-1.751546,-8.84148,-5.970093,-14.0,-0.21,-25.059999,1729472396466.0,0.0
-1.725225,-7.690532,-6.422336,-15.190001,-0.35,-27.370001,1729472396494.0,0.0
-2.304288,-7.467999,-4.900501,-20.790001,1.68,-21.42,1729472396508.0,0.0
-2.522035,-7.936993,-5.35753,-33.740002,-3.64,-20.440001,1729472396526.0,0.0
-1.258625,-5.369494,-6.577869,-16.1,-10.36,-7.77,1729472396547.0,0.0
-2.885744,-6.441479,-5.536992,-26.530001,-3.01,6.23,1729472396566.0,0.0
-4.508078,-9.073583,-5.855237,-53.830002,-5.88,4.62,1729472396586.0,0.0
-3.113062,-7.518249,-6.652047,-40.25,-17.57,2.52,1729472396607.0,0.0
-2.658426,-6.62094,-7.01097,-31.780001,-18.549999,3.15,1729472396626.0,0.0
-2.742175,-7.288538,-8.087741,-25.620001,-15.82,4.9,1729472396647.0,0.0
-1.753939,-5.888737,-7.628319,-1.68,-14.0,11.27,1729472396667.0,0.0
-1.730011,-5.685347,-7.056434,27.65,-6.37,21.98,1729472396686.0,0.0
-1.277767,-5.845665,-6.850651,35.84,-2.03,28.35,1729472396708.0,0.0
-0.564706,-5.407779,-6.970293,24.15,-0.84,31.08,1729472396727.0,0.0
-0.399601,-7.080362,-7.874779,-19.110001,-0.77,25.34,1729472396746.0,0.0
-0.5001,-7.554141,-8.38445,-33.810001,1.68,19.67,1729472396767.0,0.0
-0.878166,-8.389235,-8.77448,-28.84,7.14,15.4,1729472396787.0,0.0
-1.512264,-8.85105,-8.152347,-9.17,15.4,8.96,1729472396808.0,0.0
-1.957329,-8.676375,-6.912865,6.93,20.299999,0.91,1729472396828.0,0.0
-2.67039,-8.592626,-4.271189,5.04,20.440001,-5.81,1729472396848.0,0.0
-3.101098,-8.836694,-6.07777,-19.110001,7.7,-17.710001,1729472396868.0,0.0
-4.23051,-8.719445,-4.115655,-29.960001,1.68,-21.559999,1729472396887.0,0.0
-3.677768,-8.927622,-6.192625,-43.049999,-11.34,-32.41,1729472396910.0,0.0
-3.448057,-6.9344,-6.520442,-10.36,-10.5,-22.049999,1729472396929.0,0.0
