acc_x,acc_y,acc_z,gyr_x,gyr_y,gyr_z,timestamp,label
-4.395615,-2.313859,-9.288938,41.16,21.84,-19.950001,1729425672565.0,0.0
-4.175476,-2.59382,-9.01137,30.309999,18.76,-17.85,1729425672566.0,0.0
-3.651447,-2.553142,-8.504091,18.549999,12.04,-11.13,1729425672567.0,0.0
-3.196811,-2.385644,-8.346166,10.01,11.9,-5.95,1729425672570.0,0.0
-2.895315,-2.995814,-8.420342,19.040001,16.1,0.21,1729425672581.0,0.0
-2.658426,-3.553342,-8.465806,39.830002,18.27,7.35,1729425672601.0,0.0
-2.56032,-3.381058,-8.233703,57.470001,20.58,15.47,1729425672620.0,0.0
-2.495714,-3.323631,-7.89153,61.740002,21.77,21.98,1729425672640.0,0.0
-2.397608,-3.534199,-7.752745,42.420002,22.120001,21.42,1729425672660.0,0.0
-2.467,-4.070191,-7.513463,25.34,22.049999,23.73,1729425672680.0,0.0
-2.567499,-4.225725,-7.551748,14.14,18.9,22.82,1729425672702.0,0.0
-3.031706,-4.034299,-8.300702,0.77,15.05,20.23,1729425672721.0,0.0
-3.656233,-4.086941,-8.69791,-21.0,17.15,19.6,1729425672739.0,0.0
-4.223332,-4.62054,-8.927622,-23.870001,21.07,17.360001,1729425672761.0,0.0
-4.405186,-5.056034,-8.906086,-17.5,19.67,13.58,1729425672779.0,0.0
-4.287938,-4.886144,-8.953942,-6.86,15.33,11.62,1729425672800.0,0.0
-4.130012,-4.409972,-8.556733,4.55,15.47,10.57,1729425672820.0,0.0
-4.046263,-4.285545,-8.673983,12.04,18.76,6.58,1729425672839.0,0.0
-4.012764,-4.204189,-8.657232,11.27,21.629999,2.31,1729425672860.0,0.0
-3.931407,-3.84048,-8.671589,6.58,20.370001,0.91,1729425672880.0,0.0
-3.531806,-3.728018,-8.650054,-0.63,10.57,0.21,1729425672900.0,0.0
-3.065206,-3.885944,-8.793623,-14.91,0.7,-0.91,1729425672920.0,0.0
-2.699104,-4.290331,-8.939585,-25.48,-1.61,-0.28,1729425672940.0,0.0
-2.639283,-4.06062,-8.721838,-23.24,0.7,1.19,1729425672960.0,0.0
-2.799603,-3.663411,-8.465806,-13.3,3.01,3.85,1729425672979.0,0.0
-2.785245,-3.493521,-8.566305,-11.83,0.77,3.5,1729425673001.0,0.0
-2.859423,-4.005585,-8.867801,-12.04,0.35,3.99,1729425673020.0,0.0
-2.924029,-4.26401,-9.353544,-11.55,0.91,2.52,1729425673039.0,0.0
-3.036492,-4.216154,-9.62154,-7.7,3.15,-0.07,1729425673061.0,0.0
-2.974278,-3.768696,-9.497113,2.8,2.31,1.96,1729425673079.0,0.0
-3.010171,-3.60359,-9.176475,10.01,1.96,3.29,1729425673103.0,0.0
-2.943172,-3.445665,-8.633304,-0.56,4.9,0.98,1729425673122.0,0.0
-2.9336,-4.041477,-8.62134,-1.4,7.07,1.05,1729425673140.0,0.0
-2.648855,-4.156333,-9.142976,7.21,4.62,2.31,1729425673160.0,0.0
-2.431108,-3.589234,-9.334401,21.91,0.21,7.42,1729425673180.0,0.0
-2.536392,-3.440879,-9.123833,18.83,5.81,6.44,1729425673202.0,0.0
-2.904887,-3.725625,-8.566305,-1.12,11.34,1.82,1729425673220.0,0.0
-3.026921,-4.254438,-8.939585,-7.14,10.64,1.82,1729425673239.0,0.0
-2.98385,-4.386044,-9.279366,-1.96,6.79,-1.47,1729425673260.0,0.0
-2.998207,-4.204189,-9.375079,11.06,7.98,1.61,1729425673282.0,0.0
-3.254239,-3.68734,-9.437292,19.67,14.56,3.36,1729425673301.0,0.0
-3.469593,-3.515057,-9.332008,15.68,16.870001,5.18,1729425673321.0,0.0
-3.388237,-3.909872,-9.171689,11.06,11.27,7.98,1729425673339.0,0.0
-3.072384,-3.567699,-8.666803,5.04,8.26,9.17,1729425673360.0,0.0
-3.014957,-3.749553,-8.446664,8.12,9.52,11.2,1729425673381.0,0.0
-2.720639,-4.113262,-8.556733,8.12,9.8,5.6,1729425673399.0,0.0
-2.624927,-4.156333,-8.65484,-4.48,7.63,3.43,1729425673422.0,0.0
-2.667997,-3.964907,-8.616554,-3.5,9.45,2.17,1729425673439.0,0.0
-2.727818,-4.101298,-8.666803,-7.63,6.58,-0.56,1729425673464.0,0.0
-2.605784,-4.220939,-8.650054,-10.5,3.57,-1.19,1729425673481.0,0.0
-2.57707,-4.290331,-8.571091,-6.23,2.45,-0.35,1729425673502.0,0.0
-2.617748,-3.938586,-8.695518,-1.26,1.96,-0.49,1729425673519.0,0.0
-2.821138,-3.720839,-8.922836,-0.14,3.78,-1.26,1729425673540.0,0.0
-3.036492,-3.826123,-9.250652,-5.95,5.11,-2.94,1729425673562.0,0.0
-3.299703,-3.759124,-9.420543,-13.23,7.49,-1.82,1729425673581.0,0.0
-3.759124,-3.68734,-9.815358,-13.72,14.0,-0.28,1729425673602.0,0.0
-3.979264,-3.270989,-10.042676,-18.549999,21.210001,-1.19,1729425673619.0,0.0
-4.070191,-3.053242,-10.631311,-21.98,26.950001,1.19,1729425673639.0,0.0
-3.964907,-2.766103,-11.069198,-22.610001,32.27,4.62,1729425673661.0,0.0
-4.122833,-2.914458,-10.997414,-18.83,42.98,9.87,1729425673679.0,0.0
-4.053442,-3.672983,-10.650455,-19.6,48.790001,8.54,1729425673701.0,0.0
-3.266203,-3.436093,-8.690732,-17.290001,42.349998,10.71,1729425673720.0,0.0
-2.737389,-3.218346,-8.092526,11.48,33.32,16.450001,1729425673741.0,0.0
-2.404787,-3.15374,-8.379664,12.46,37.73,8.47,1729425673760.0,0.0
-2.275574,-2.359323,-7.956135,-12.32,41.02,1.82,1729425673783.0,0.0
-2.055435,-1.816152,-7.76471,-54.040001,34.509998,-0.07,1729425673801.0,0.0
-1.545763,-3.069991,-8.700303,-79.800003,22.889999,-1.68,1729425673819.0,0.0
-0.894916,-4.139583,-8.982656,-92.75,13.58,-1.19,1729425673841.0,0.0
-0.107677,-4.316652,-9.071191,-76.370003,10.22,-1.54,1729425673862.0,0.0
0.11007,-3.239882,-9.01137,-39.900002,13.65,7.77,1729425673880.0,0.0
0.021535,-2.945565,-9.913465,-4.48,19.950001,13.65,1729425673902.0,0.0
0.253639,-2.737389,-10.51167,16.52,14.07,19.809999,1729425673919.0,0.0
0.930808,-2.232504,-9.729217,14.77,0.56,23.17,1729425673941.0,0.0
1.40698,-2.28036,-8.920443,6.79,-6.02,26.880001,1729425673960.0,0.0
1.739582,-2.904887,-8.599805,8.05,-14.98,30.940001,1729425673981.0,0.0
1.756332,-3.718446,-8.946764,14.56,-15.68,32.27,1729425674000.0,0.0
1.115055,-3.522235,-9.032906,22.960001,-7.07,32.619999,1729425674019.0,0.0
0.399601,-3.287738,-8.640482,37.240002,-2.94,33.040001,1729425674041.0,0.0
-0.212961,-3.376273,-8.537591,24.15,-1.47,24.780001,1729425674060.0,0.0
-0.602991,-4.792823,-9.767502,5.95,-10.22,16.66,1729425674080.0,0.0
-0.507278,-4.453043,-10.348958,16.17,-15.96,11.9,1729425674101.0,0.0
-1.318445,-1.574477,-9.846465,16.030001,-2.94,8.61,1729425674119.0,0.0
-6.084948,-2.433501,-4.4674,51.52,37.450001,23.379999,1729425674141.0,0.0
-5.773881,-2.758924,-10.317852,17.57,16.66,4.62,1729425674161.0,0.0
-2.433501,-3.515057,-11.447264,-7.91,-72.870003,11.97,1729425674179.0,0.0
0.258425,-3.814159,-11.432907,-5.81,-70.139999,10.78,1729425674200.0,0.0
-0.351745,-3.972085,-10.537991,-36.400002,-14.14,1.33,1729425674219.0,0.0
-3.115455,-4.993821,-10.662418,-2.66,26.950001,8.47,1729425674239.0,0.0
-4.591826,-4.041477,-10.004392,47.110001,30.450001,9.73,1729425674262.0,0.0
-4.98425,-2.261217,-9.710074,70.629997,18.620001,21.07,1729425674280.0,0.0
-4.421937,-1.909473,-10.080962,54.950001,10.43,27.440001,1729425674299.0,0.0
-3.584448,-2.859423,-10.317852,35.07,13.16,27.16,1729425674322.0,0.0
-3.034099,-3.620341,-9.245867,39.900002,14.84,27.02,1729425674339.0,0.0
-2.572284,-3.165704,-8.224132,51.59,15.47,23.73,1729425674360.0,0.0
-2.368894,-2.105684,-7.822137,51.59,13.65,18.969999,1729425674379.0,0.0
-2.65364,-1.962115,-6.884151,26.74,9.38,9.31,1729425674402.0,0.0
-2.646462,-2.610569,-6.518049,-14.21,-6.65,-0.07,1729425674420.0,0.0
-2.234896,-3.002992,-6.943972,-19.389999,-23.24,-4.9,1729425674441.0,0.0
-1.629512,-2.452643,-7.441679,-27.93,-41.509998,-10.64,1729425674462.0,0.0
-1.476372,-1.799403,-7.877172,-53.830002,-40.670002,-13.51,1729425674478.0,0.0
-1.529014,-2.847459,-9.62154,-83.300003,-39.759998,-14.63,1729425674500.0,0.0
-1.261017,-3.565305,-11.535798,-103.529999,-48.790001,-18.200001,1729425674519.0,0.0
-1.612763,-3.948158,-13.03849,-96.110001,-29.469999,-17.57,1729425674539.0,0.0
-2.742175,-4.529613,-11.9689,-71.400002,0.7,-14.98,1729425674561.0,0.0
-3.809374,-4.981857,-11.239087,-40.040001,26.74,-12.46,1729425674578.0,0.0
-3.493521,-4.307081,-10.770095,-24.85,18.620001,-5.25,1729425674600.0,0.0
-2.258825,-3.361916,-10.595419,0.63,4.9,3.08,1729425674620.0,0.0
-1.849652,-3.07717,-10.301102,21.0,15.82,6.09,1729425674639.0,0.0
-2.227718,-3.457629,-9.853643,39.060001,31.99,10.22,1729425674660.0,0.0
-2.354537,-3.180061,-9.188439,51.59,33.670002,12.95,1729425674679.0,0.0
-1.938186,-3.302095,-8.800802,48.299999,24.92,9.73,1729425674699.0,0.0
-1.619941,-3.507878,-8.283953,24.01,18.129999,0.35,1729425674719.0,0.0
-1.825724,-3.488736,-7.625926,14.63,14.14,-8.82,1729425674740.0,0.0
-2.376073,-3.381058,-7.300502,8.96,14.42,-31.99,1729425674759.0,0.0
-2.222932,-3.309274,-7.625926,-11.76,-4.27,-45.990002,1729425674780.0,0.0
-1.493121,-2.474179,-8.638089,-34.580002,-22.469999,-56.07,1729425674800.0,0.0
-1.646262,-1.148555,-9.200402,-59.920002,-19.110001,-54.459999,1729425674818.0,0.0
-2.634498,-0.071785,-9.219545,-68.040001,-8.75,-41.720001,1729425674840.0,0.0
-3.292524,-0.150748,-9.992428,-34.580002,-7.0,-9.94,1729425674859.0,0.0
-3.270989,-0.811167,-10.786844,-3.15,-3.71,19.530001,1729425674879.0,0.0
-2.775674,-1.706082,-10.018748,4.13,6.23,40.389999,1729425674900.0,0.0
-1.514657,-1.055235,-10.604989,-23.940001,-1.96,39.619999,1729425674919.0,0.0
-0.887737,-1.174876,-11.736795,-6.86,-6.16,55.93,1729425674939.0,0.0
-1.01695,-1.275374,-11.306087,-3.99,19.25,52.920002,1729425674961.0,0.0
-2.323431,-3.048456,-9.590433,6.44,36.82,61.810001,1729425674981.0,0.0
-2.541178,-4.551149,-9.889536,16.450001,33.32,54.32,1729425675001.0,0.0
-2.316252,-4.725825,-9.741181,40.670002,21.700001,42.630001,1729425675020.0,0.0
-2.132005,-4.323831,-8.963513,42.279999,21.91,22.26,1729425675039.0,0.0
-2.199004,-4.249653,-8.695518,18.620001,19.6,2.52,1729425675059.0,0.0
-1.761117,-3.629912,-8.147561,-7.42,10.5,-26.110001,1729425675078.0,0.0
-1.859223,-2.986243,-8.343772,-3.43,5.53,-30.1,1729425675101.0,0.0
-1.847259,-2.041078,-8.642875,2.17,2.94,-31.08,1729425675121.0,0.0
-1.854438,-0.775275,-8.882158,7.28,-0.84,-22.120001,1729425675138.0,0.0
-1.885544,0.234497,-8.583055,-1.82,-1.26,-14.98,1729425675161.0,0.0
-1.921437,-0.447458,-8.650054,-22.75,-7.35,-5.81,1729425675179.0,0.0
-1.036092,-1.768296,-9.698111,-45.290001,-22.4,-4.34,1729425675199.0,0.0
-0.442672,-2.167897,-10.193424,-48.299999,-23.52,2.94,1729425675220.0,0.0
-0.557528,-2.208575,-11.641083,-37.380001,-11.62,9.52,1729425675238.0,0.0
-1.550549,-1.801795,-10.485349,-20.65,6.72,15.12,1729425675261.0,0.0
-2.694318,-2.232504,-9.667004,-10.29,21.35,20.09,1729425675279.0,0.0
-2.888137,-3.146562,-9.879964,-17.219999,15.190001,19.25,1729425675300.0,0.0
-2.548356,-3.900301,-9.437292,-8.26,4.83,18.129999,1729425675320.0,0.0
-2.663212,-4.019942,-9.343972,9.03,5.04,14.0,1729425675339.0,0.0
-2.916851,-3.795017,-9.523434,17.57,5.32,8.26,1729425675360.0,0.0
-2.888137,-3.649055,-9.851252,20.16,-0.14,-0.35,1729425675378.0,0.0
-2.498107,-3.208775,-10.128819,23.379999,-7.07,-6.58,1729425675401.0,0.0
-2.036292,-2.885744,-10.037891,15.82,-5.81,-19.32,1729425675418.0,0.0
-2.081756,-2.770889,-9.990034,12.6,-1.82,-25.9,1729425675438.0,0.0
-2.012364,-2.268396,-9.781858,11.13,-1.4,-30.24,1729425675461.0,0.0
-1.90708,-1.741975,-9.339187,15.33,-5.95,-29.190001,1729425675480.0,0.0
-1.952543,-1.028914,-9.040084,19.6,-5.81,-25.9,1729425675499.0,0.0
-1.909473,-0.512064,-8.666803,5.46,-5.18,-24.360001,1729425675519.0,0.0
-1.514657,-0.337388,-8.908479,-10.22,-10.64,-19.460001,1729425675540.0,0.0
-1.174876,0.492921,-8.786445,-16.1,-15.12,-9.66,1729425675560.0,0.0
-1.631905,0.507278,-8.812766,-17.219999,-11.76,2.87,1729425675579.0,0.0
-1.916651,-0.569492,-9.958927,-16.66,-10.5,10.15,1729425675599.0,0.0
-2.012364,-1.225125,-9.956534,-17.5,-8.75,18.41,1729425675618.0,0.0
-1.990828,-1.655833,-10.571491,-18.690001,-1.4,25.9,1729425675641.0,0.0
-2.266003,-2.555535,-10.040283,-16.1,4.83,31.219999,1729425675658.0,0.0
-2.600998,-3.517449,-8.82473,-13.09,5.6,30.450001,1729425675680.0,0.0
-3.07717,-4.254438,-8.372486,5.25,0.56,27.23,1729425675699.0,0.0
-3.278167,-3.809374,-8.638089,18.83,-6.51,20.299999,1729425675718.0,0.0
-3.002992,-3.503092,-10.894521,19.809999,-13.65,12.95,1729425675738.0,0.0
-2.541178,-3.292524,-11.035697,8.82,-16.24,-3.99,1729425675760.0,0.0
-2.354537,-3.371487,-11.284552,-2.38,-9.45,-11.55,1729425675779.0,0.0
-1.971686,-3.134598,-11.143374,-3.22,-6.72,-20.16,1729425675810.0,0.0
-1.978864,-2.524428,-10.310673,-0.56,0.21,-22.75,1729425675821.0,0.0
-2.146362,-2.208575,-9.901501,3.22,5.46,-24.01,1729425675839.0,0.0
-2.084148,-1.775474,-9.475577,7.84,5.18,-22.190001,1729425675860.0,0.0
-1.651048,-1.397408,-8.953942,7.84,1.82,-19.74,1729425675879.0,0.0
-1.036092,-0.648455,-9.126225,0.63,-2.31,-17.639999,1729425675899.0,0.0
-1.328017,0.375673,-8.216952,-9.1,1.33,-10.5,1729425675920.0,0.0
-1.708475,-0.232104,-9.442079,-23.24,5.6,-7.0,1729425675940.0,0.0
-1.696511,-0.952343,-10.502099,-25.27,1.75,4.06,1729425675960.0,0.0
-1.895115,-1.06002,-11.045268,-26.809999,13.440001,15.68,1729425675978.0,0.0
-2.17029,-1.923829,-11.062018,-26.18,23.940001,21.280001,1729425675999.0,0.0
-2.213361,-2.991028,-9.820145,-0.49,23.66,28.559999,1729425676020.0,0.0
-2.749353,-3.412165,-7.838887,21.210001,27.02,29.960001,1729425676038.0,0.0
-3.479164,-3.914658,-7.903493,23.309999,24.710001,21.98,1729425676061.0,0.0
-3.397808,-2.9336,-10.057034,19.809999,14.98,12.67,1729425676078.0,0.0
-2.691926,-3.268596,-10.246067,-6.09,-0.07,-4.34,1729425676099.0,0.0
-1.974079,-3.838088,-10.064213,-14.63,-3.22,-11.69,1729425676120.0,0.0
-1.923829,-3.378666,-9.255438,-9.1,2.8,-20.440001,1729425676140.0,0.0
-2.06022,-2.612962,-9.480364,5.88,2.66,-24.5,1729425676158.0,0.0
-2.012364,-1.978864,-9.750752,22.610001,-1.61,-25.41,1729425676177.0,0.0
-2.163112,-1.67019,-9.767502,22.960001,2.24,-27.02,1729425676202.0,0.0
-2.24686,-2.151148,-9.683753,3.78,4.97,-31.85,1729425676217.0,0.0
-1.792224,-2.409572,-9.602397,1.68,-1.47,-31.710001,1729425676239.0,0.0
-1.215554,-1.18684,-8.843873,9.52,-5.18,-30.799999,1729425676259.0,0.0
-0.973879,-0.212961,-8.4012,2.24,-6.3,-27.860001,1729425676278.0,0.0
-1.057628,0.579063,-8.106883,-16.17,-7.14,-23.52,1729425676299.0,0.0
-2.103291,0.026321,-9.638289,-21.210001,-1.33,-9.94,1729425676319.0,0.0
-1.775474,-0.787239,-11.22473,-38.43,-4.55,-7.49,1729425676339.0,0.0
-1.469193,-1.557728,-11.535798,-32.900002,-0.91,9.38,1729425676359.0,0.0
-1.531406,-2.213361,-11.052447,-14.63,12.6,16.030001,1729425676377.0,0.0
-2.160719,-2.629712,-9.868,3.57,22.68,20.09,1729425676401.0,0.0
-3.065206,-3.651447,-8.927622,6.37,25.34,18.83,1729425676419.0,0.0
-2.770889,-3.517449,-10.377672,4.55,15.190001,9.52,1729425676439.0,0.0
-2.380858,-2.861816,-10.722239,-1.75,13.93,3.85,1729425676461.0,0.0
-1.72044,-3.57727,-10.657632,-7.49,9.66,-3.43,1729425676479.0,0.0
-1.091127,-3.443272,-9.131011,-5.6,11.06,-9.66,1729425676500.0,0.0
-1.275374,-2.522035,-8.382057,6.65,13.51,-13.72,1729425676520.0,0.0
-1.253839,-2.18704,-8.762517,15.4,5.67,-16.030001,1729425676538.0,0.0
-1.033699,-2.007578,-8.748159,21.35,-1.4,-15.05,1729425676558.0,0.0
-1.064806,-1.854438,-8.867801,17.710001,-0.56,-18.129999,1729425676579.0,0.0
-1.22034,-1.813759,-9.595219,7.63,-1.68,-20.23,1729425676602.0,0.0
-1.20359,-1.493121,-9.810574,11.48,-6.3,-17.85,1729425676619.0,0.0
-1.172483,-0.760918,-9.729217,-0.63,-6.3,-18.129999,1729425676638.0,0.0
-1.11027,-0.29671,-9.781858,-18.690001,-7.0,-16.030001,1729425676660.0,0.0
-1.765903,0.217747,-9.619147,-28.700001,0.07,-7.49,1729425676677.0,0.0
-2.112862,-0.746561,-10.423136,-32.619999,4.55,0.35,1729425676700.0,0.0
-1.428515,-1.07677,-10.356135,-24.290001,-3.01,10.78,1729425676719.0,0.0
-0.729811,-1.225125,-10.626525,-12.81,3.01,20.299999,1729425676737.0,0.0
-0.638884,-1.990828,-10.219746,-10.29,12.53,28.0,1729425676759.0,0.0
-1.007378,-2.426322,-9.157332,1.54,15.82,32.130001,1729425676780.0,0.0
-1.552942,-3.254239,-8.171489,13.37,16.1,31.710001,1729425676799.0,0.0
-1.739582,-3.314059,-8.408379,20.23,10.22,26.389999,1729425676818.0,0.0
-1.761117,-2.471786,-8.99462,15.75,2.52,16.379999,1729425676839.0,0.0
-1.725225,-2.754139,-9.035298,-15.47,-5.81,2.8,1729425676858.0,0.0
-1.643869,-3.735196,-8.965906,-36.049999,-13.58,-7.56,1729425676878.0,0.0
-1.684547,-3.842873,-9.183653,-25.969999,-18.41,-18.059999,1729425676899.0,0.0
-1.76351,-3.393023,-9.595219,-1.54,-20.860001,-23.379999,1729425676918.0,0.0
-1.789831,-2.17029,-9.789038,24.99,-20.93,-23.940001,1729425676938.0,0.0
-1.904687,-1.430908,-9.396614,35.560001,-20.02,-22.540001,1729425676958.0,0.0
-1.957329,-1.665405,-9.377472,26.950001,-21.98,-25.48,1729425676978.0,0.0
-1.885544,-2.28036,-9.336794,14.91,-26.040001,-28.91,1729425677010.0,0.0
-1.74676,-1.399801,-9.332008,8.33,-31.360001,-32.130001,1729425677019.0,0.0
-2.388037,-0.478565,-8.571091,2.03,-26.530001,-26.32,1729425677037.0,0.0
-2.813959,-0.179462,-8.283953,-3.57,-29.469999,-21.07,1729425677058.0,0.0
-2.880959,0.416351,-9.24826,-12.53,-38.360001,-10.01,1729425677078.0,0.0
-2.100898,-0.990629,-10.269995,-17.99,-46.48,3.22,1729425677098.0,0.0
-2.057827,-1.354338,-10.636096,-19.32,-38.990002,13.23,1729425677117.0,0.0
-2.567499,-1.519442,-10.760524,-19.950001,-27.440001,18.41,1729425677139.0,0.0
-2.916851,-2.053042,-10.636096,-21.559999,-21.77,21.559999,1729425677159.0,0.0
-3.026921,-2.608176,-10.009177,-14.35,-19.879999,22.33,1729425677177.0,0.0
-3.235096,-3.270989,-9.454042,2.38,-18.620001,22.4,1729425677199.0,0.0
-3.314059,-3.534199,-9.092726,13.440001,-16.450001,18.27,1729425677219.0,0.0
-3.393023,-2.742175,-9.934999,19.110001,-13.440001,12.74,1729425677237.0,0.0
-3.314059,-2.117648,-10.482956,12.11,-14.7,5.11,1729425677259.0,0.0
-3.038885,-2.864209,-10.540384,-11.27,-14.35,-3.15,1729425677279.0,0.0
-2.79721,-3.431308,-10.41835,-17.08,-13.3,-11.06,1729425677299.0,0.0
-2.892922,-2.98385,-9.980463,1.12,-6.65,-15.61,1729425677319.0,0.0
-3.180061,-2.244468,-9.777073,16.030001,-1.61,-20.02,1729425677339.0,0.0
-3.282953,-1.627119,-9.480364,13.02,-0.49,-23.24,1729425677360.0,0.0
-3.189633,-1.4668,-9.810574,0.84,-0.63,-25.83,1729425677378.0,0.0
-3.261417,-1.679761,-9.597611,1.05,0.7,-23.24,1729425677399.0,0.0
-3.620341,-1.043271,-8.267202,8.61,2.17,-20.23,1729425677417.0,0.0
-3.725625,-0.954736,-8.099705,7.35,-0.98,-13.09,1729425677440.0,0.0
-3.34038,-0.777667,-8.102098,3.5,-9.52,-10.5,1729425677461.0,0.0
-2.859423,-0.512064,-8.360522,-4.69,-13.51,-6.44,1729425677477.0,0.0
-2.754139,-0.653241,-9.226725,-13.09,-12.95,-1.12,1729425677573.0,0.0
-2.957529,-1.222732,-9.580862,-20.09,-8.82,3.64,1729425677587.0,0.0
-3.089134,-1.442872,-9.480364,-23.73,-5.74,9.31,1729425677588.0,0.0
-3.273381,-1.454836,-9.903893,-22.049999,-1.82,14.91,1729425677588.0,0.0
-3.56052,-2.048256,-9.812965,-18.27,0.77,18.690001,1729425677591.0,0.0
-3.818945,-2.656033,-9.439686,-5.6,4.2,20.93,1729425677604.0,0.0
-4.156333,-2.68714,-9.116654,5.81,6.37,21.139999,1729425677618.0,0.0
-4.345366,-2.70389,-9.382257,5.18,5.46,15.61,1729425677636.0,0.0
-4.197011,-2.799603,-10.13839,4.55,1.26,10.22,1729425677657.0,0.0
-3.919443,-2.811567,-10.356135,-2.59,-2.03,1.54,1729425677677.0,0.0
-3.644269,-3.005385,-10.336994,-11.69,-0.84,-6.79,1729425677698.0,0.0
-3.696911,-2.773281,-9.79143,-8.68,3.36,-12.46,1729425677717.0,0.0
-3.821337,-2.349752,-9.298509,-4.69,4.13,-19.67,1729425677737.0,0.0
-3.531806,-2.139183,-9.372685,-0.14,-0.42,-23.309999,1729425677758.0,0.0
-3.541377,-1.615155,-8.980263,16.73,-2.73,-22.120001,1729425677777.0,0.0
-3.68734,-1.557728,-8.997013,6.02,0.21,-25.690001,1729425677799.0,0.0
-3.498307,-1.923829,-9.145369,-2.03,-3.36,-25.059999,1729425677818.0,0.0
-3.189633,-1.674976,-8.853443,15.82,-4.2,-18.83,1729425677837.0,0.0
-3.115455,-0.5001,-8.042276,30.870001,-3.43,-12.32,1729425677858.0,0.0
-3.23031,0.289532,-7.77428,19.530001,-4.76,-6.65,1729425677876.0,0.0
-2.849852,-0.167498,-8.963513,-4.48,-11.2,-1.47,1729425677898.0,0.0
-2.318645,-0.66999,-9.497113,-20.299999,-17.780001,3.43,1729425677918.0,0.0
-2.306681,-1.246661,-10.392029,-17.85,-10.29,9.94,1729425677937.0,0.0
-2.842674,-1.392623,-9.142976,-15.33,-2.03,12.74,1729425677957.0,0.0
-3.436093,-1.684547,-10.135997,-2.59,6.72,17.639999,1729425677977.0,0.0
-2.998207,-1.775474,-10.41835,-8.33,3.5,15.12,1729425677998.0,0.0
-2.909672,-2.155933,-9.32483,-5.53,7.07,16.799999,1729425678017.0,0.0
-3.574877,-2.840281,-8.468199,-0.42,13.93,14.21,1729425678037.0,0.0
-4.244867,-3.304488,-8.910872,6.51,12.18,10.78,1729425678057.0,0.0
-4.292724,-3.218346,-9.186047,18.059999,5.67,7.14,1729425678077.0,0.0
-3.61077,-2.794817,-10.131211,13.72,-3.01,-1.12,1729425678099.0,0.0
-3.393023,-2.833102,-10.109675,8.33,-5.39,-5.81,1729425678119.0,0.0
-3.835695,-2.845066,-9.79143,4.55,3.36,-10.78,1729425678138.0,0.0
-3.869194,-2.478964,-9.623933,1.33,1.68,-14.63,1729425678157.0,0.0
-3.505485,-2.258825,-9.274581,2.31,-3.29,-16.24,1729425678176.0,0.0
-3.445665,-2.167897,-9.008978,8.54,-1.05,-16.030001,1729425678198.0,0.0
-3.680161,-2.069792,-8.666803,10.71,5.53,-17.290001,1729425678219.0,0.0
-3.615555,-1.552942,-8.504091,10.15,5.74,-15.82,1729425678245.0,0.0
-3.302095,-1.071985,-8.539984,25.690001,0.07,-8.75,1729425678399.0,0.0
-2.952743,-0.344566,-8.207381,14.91,-1.19,-8.05,1729425678400.0,0.0
-2.854637,-0.662812,-8.99462,-6.79,-2.87,-5.67,1729425678403.0,0.0
-2.634498,-0.847059,-9.458827,-19.25,-3.64,-3.92,1729425678406.0,0.0
-3.232704,-0.969093,-8.925228,-16.940001,3.29,2.94,1729425678407.0,0.0
-3.433701,-1.540978,-9.219545,-10.36,3.36,6.51,1729425678409.0,0.0
-3.156133,-1.189233,-8.571091,-3.71,-3.01,12.25,1729425678410.0,0.0
-3.68734,-1.308874,-8.463413,0.35,3.92,18.129999,1729425678411.0,0.0
-4.570292,-2.445465,-8.863015,-3.85,6.23,20.790001,1729425678417.0,0.0
-4.551149,-2.423929,-10.19821,-0.98,0.14,21.42,1729425678435.0,0.0
-4.462614,-2.182254,-11.102697,-4.62,1.05,18.48,1729425678459.0,0.0
-4.242475,-2.773281,-11.684153,-9.17,4.48,12.53,1729425678476.0,0.0
-3.677768,-2.773281,-11.34198,-6.86,7.07,10.01,1729425678497.0,0.0
-3.364309,-2.768496,-10.573883,-6.09,13.86,5.04,1729425678516.0,0.0
-3.381058,-2.787638,-9.499505,-7.42,21.210001,-3.57,1729425678536.0,0.0
-3.09392,-2.672783,-8.752945,-3.71,17.01,-9.59,1729425678556.0,0.0
-2.550749,-2.148755,-8.441878,6.86,8.4,-13.02,1729425678578.0,0.0
-2.402394,-1.607977,-8.23131,10.36,8.12,-15.12,1729425678598.0,0.0
-2.675175,-1.512264,-8.300702,6.65,10.08,-16.1,1729425678615.0,0.0
-2.921637,-1.562513,-8.365308,-0.42,7.63,-15.89,1729425678636.0,0.0
-2.718246,-1.887937,-8.49452,-8.26,1.89,-15.75,1729425678656.0,0.0
-2.462214,-2.294717,-8.769694,0.7,-4.34,-13.02,1729425678676.0,0.0
-2.309074,-1.383051,-8.475377,7.98,-5.11,-11.83,1729425678698.0,0.0
-2.672783,-0.624527,-7.846066,3.85,-4.41,-5.46,1729425678716.0,0.0
-2.945565,-0.926022,-8.860621,-8.4,-6.44,-1.12,1729425678736.0,0.0
-2.830709,-1.459622,-10.193424,-18.41,-12.25,2.03,1729425678757.0,0.0
-2.830709,-2.177469,-10.202995,-15.68,-5.32,12.95,1729425678777.0,0.0
-3.416951,-2.40718,-8.944371,3.15,5.11,19.530001,1729425678799.0,0.0
-4.156333,-2.148755,-8.458629,13.02,21.98,19.460001,1729425678817.0,0.0
-4.666004,-2.270789,-9.894321,7.63,-4.69,21.139999,1729425678837.0,0.0
-4.570292,-2.239682,-10.183852,-13.09,1.54,11.55,1729425678857.0,0.0
-4.445865,-3.06042,-10.657632,-15.89,-4.48,6.44,1729425678876.0,0.0
-3.955336,-3.220739,-10.427922,-1.12,-5.32,3.92,1729425678902.0,0.0
-3.503092,-2.667997,-10.293922,12.11,-1.68,1.89,1729425678921.0,0.0
-3.354738,-2.414358,-9.915856,18.059999,4.97,-4.83,1729425678936.0,0.0
-3.337988,-2.038685,-9.245867,17.92,8.54,-11.55,1729425678956.0,0.0
-3.04367,-1.830509,-9.099905,13.16,4.62,-17.219999,1729425678976.0,0.0
-2.620141,-1.67019,-9.047262,17.57,-1.19,-19.67,1729425679002.0,0.0
-2.778067,-1.356731,-8.84148,27.370001,1.68,-17.15,1729425679017.0,0.0
-3.074777,-1.208375,-9.008978,16.799999,7.7,-20.16,1729425679037.0,0.0
-3.065206,-1.409373,-8.688338,-0.21,6.93,-19.879999,1729425679057.0,0.0
-2.926422,-1.572084,-8.611769,15.190001,2.59,-12.53,1729425679078.0,0.0
-2.689533,0.251246,-8.559127,31.85,0.14,-7.42,1729425679098.0,0.0
-3.15374,1.287339,-7.996813,-3.78,0.77,2.31,1729425679117.0,0.0
-3.215954,-0.098106,-9.420543,-23.799999,-4.9,10.5,1729425679135.0,0.0
-2.868994,-1.526621,-10.387242,-27.790001,-7.42,16.24,1729425679156.0,0.0
-3.014957,-2.234896,-10.296316,-18.549999,2.73,24.43,1729425679176.0,0.0
-3.400201,-2.196611,-9.415757,-7.84,12.39,28.49,1729425679198.0,0.0
-3.821337,-2.328217,-8.927622,5.11,13.86,31.15,1729425679216.0,0.0
-3.802195,-2.431108,-8.980263,12.04,8.19,30.66,1729425679238.0,0.0
-3.818945,-2.54357,-9.41815,11.06,6.16,30.24,1729425679257.0,0.0
-3.895515,-2.455036,-10.164711,3.08,7.28,27.16,1729425679276.0,0.0
-4.084548,-2.59382,-10.061819,-12.39,8.12,19.67,1729425679299.0,0.0
-3.9673,-3.574877,-9.805787,-28.42,5.53,10.43,1729425679317.0,0.0
-3.570091,-4.24726,-9.320045,-20.299999,2.31,1.75,1729425679336.0,0.0
-3.601198,-3.799802,-9.06162,3.08,3.36,-6.02,1729425679357.0,0.0
-3.663411,-2.962314,-9.071191,21.700001,4.41,-13.16,1729425679376.0,0.0
-3.486342,-2.311467,-9.116654,26.389999,-0.42,-17.85,1729425679397.0,0.0
-3.117848,-1.9669,-9.317651,16.59,-1.96,-22.68,1729425679419.0,0.0
-3.017349,-2.675175,-9.789038,-1.68,0.07,-28.35,1729425679436.0,0.0
-2.823531,-2.565106,-9.906286,0.91,0.56,-30.1,1729425679459.0,0.0
-2.888137,-2.266003,-9.430114,19.040001,4.34,-29.26,1729425679483.0,0.0
-2.940779,-1.40698,-8.405986,21.84,3.08,-28.07,1729425679499.0,0.0
-2.711068,-0.545564,-8.114061,24.5,-3.92,-21.49,1729425679516.0,0.0
-2.581856,0.490529,-7.960921,5.25,-7.7,-16.24,1729425679536.0,0.0
-2.56032,-0.038285,-8.745767,-21.77,-7.42,-10.15,1729425679556.0,0.0
-2.656033,-1.253839,-10.119246,-32.970001,-2.17,-2.1,1729425679576.0,0.0
-2.122434,-1.741975,-10.736595,-23.309999,-4.06,3.92,1729425679597.0,0.0
-1.931008,-1.596013,-9.62154,-10.57,1.68,12.46,1729425679616.0,0.0
-2.462214,-1.935793,-9.427721,-9.24,15.82,14.7,1729425679635.0,0.0
-3.146562,-2.347359,-8.992228,-7.98,19.18,17.360001,1729425679656.0,0.0
-3.534199,-2.591427,-9.111869,6.86,14.14,20.860001,1729425679675.0,0.0
-3.699304,-2.782853,-9.360723,11.76,7.0,20.58,1729425679698.0,0.0
-3.739982,-3.199204,-9.822537,5.95,3.29,17.290001,1729425679716.0,0.0
-3.737589,-3.268596,-9.968499,2.45,4.06,9.73,1729425679735.0,0.0
-3.830909,-3.268596,-9.533006,2.66,5.04,1.82,1729425679756.0,0.0
-3.771089,-3.038885,-9.284152,7.28,2.1,-10.71,1729425679776.0,0.0
-3.665804,-2.423929,-9.095119,8.26,1.05,-18.200001,1729425679796.0,0.0
-3.455236,-2.088934,-9.363115,5.18,-2.1,-23.52,1729425679816.0,0.0
-3.058028,-1.916651,-9.997212,4.27,-4.13,-26.25,1729425679837.0,0.0
-2.876173,-1.622334,-10.073784,5.18,-2.03,-27.16,1729425679856.0,0.0
-2.706282,-1.682154,-10.329816,7.77,0.7,-26.880001,1729425679876.0,0.0
-2.270789,-1.081556,-9.492328,12.46,-1.96,-25.620001,1729425679897.0,0.0
-2.055435,-0.0335,-8.441878,9.94,-3.15,-21.77,1729425679918.0,0.0
-2.275574,0.038285,-7.475177,-5.81,-2.94,-16.59,1729425679936.0,0.0
-3.098706,-0.550349,-7.353144,-14.07,-2.52,-5.04,1729425679956.0,0.0
-3.086741,-1.232304,-9.60479,-20.02,-4.34,3.36,1729425679975.0,0.0
-2.11047,-1.040878,-9.872787,-30.380001,-12.32,11.48,1729425679998.0,0.0
-2.177469,-1.284946,-10.741381,-25.690001,0.28,22.75,1729425680016.0,0.0
-2.665605,-1.885544,-10.839487,-32.060001,16.17,23.73,1729425680034.0,0.0
-3.237489,-2.569891,-9.638289,-13.16,18.549999,33.040001,1729425680059.0,0.0
-3.512664,-3.189633,-8.870193,9.31,15.54,35.279999,1729425680075.0,0.0
-3.706482,-3.158526,-9.425328,22.75,12.39,35.139999,1729425680095.0,0.0
-4.022335,-2.931208,-9.38465,10.29,10.22,20.23,1729425680115.0,0.0
-3.900301,-3.445665,-9.293723,-11.13,5.11,9.8,1729425680136.0,0.0
-3.469593,-3.792624,-9.217153,-12.25,-0.56,-0.35,1729425680158.0,0.0
-3.299703,-3.270989,-8.889337,7.91,-2.73,-5.81,1729425680175.0,0.0
-3.433701,-2.347359,-8.690732,19.879999,-2.31,-10.57,1729425680196.0,0.0
-3.452843,-2.127219,-8.9683,13.440001,-3.99,-14.63,1729425680216.0,0.0
-3.050849,-2.196611,-9.487542,7.56,-8.68,-17.639999,1729425680235.0,0.0
-2.579463,-2.151148,-9.899107,9.52,-9.94,-19.18,1729425680256.0,0.0
-2.502892,-1.67019,-9.21476,9.94,-6.79,-18.76,1729425680274.0,0.0
-2.656033,-1.074377,-8.542377,0.7,-5.32,-18.059999,1729425680295.0,0.0
-2.426322,-1.287339,-8.80798,-0.91,-11.62,-14.0,1729425680315.0,0.0
-1.964507,-0.538385,-8.863015,5.04,-16.66,-9.38,1729425680334.0,0.0
-2.545963,0.708275,-8.329416,2.45,-10.29,0.49,1729425680355.0,0.0
-3.125026,-0.385244,-9.322437,-18.620001,-4.62,5.6,1729425680375.0,0.0
-2.854637,-1.162912,-9.200402,-28.49,-14.0,11.76,1729425680396.0,0.0
-3.074777,-1.387837,-9.946963,-29.049999,-6.37,19.530001,1729425680417.0,0.0
-3.306881,-2.120041,-10.38485,-38.150002,3.15,16.59,1729425680435.0,0.0
-3.388237,-2.045863,-9.659825,-30.1,8.68,22.190001,1729425680460.0,0.0
-3.412165,-2.598605,-9.303294,-14.14,7.28,21.98,1729425680475.0,0.0
-3.5007,-3.108276,-9.576077,6.79,8.12,21.91,1729425680506.0,0.0
-3.711268,-2.548356,-9.712467,16.24,9.73,17.360001,1729425680516.0,0.0
-3.888337,-2.132005,-9.724431,4.34,9.8,7.42,1729425680534.0,0.0
-3.718446,-2.615355,-9.566505,-17.43,5.88,-5.67,1729425680555.0,0.0
-3.395415,-3.416951,-9.781858,-23.17,1.68,-15.96,1729425680576.0,0.0
-3.385844,-2.821138,-9.58804,-6.23,2.17,-23.309999,1729425680598.0,0.0
-3.538985,-2.009971,-9.312866,10.78,3.71,-26.809999,1729425680615.0,0.0
-3.426522,-1.696511,-9.054441,9.17,0.77,-29.889999,1729425680634.0,0.0
-3.199204,-1.830509,-9.303294,4.2,-0.7,-31.710001,1729425680655.0,0.0
-3.050849,-1.739582,-9.322437,3.71,-2.31,-33.110001,1729425680675.0,0.0
-3.132205,-1.304088,-8.985049,5.04,-2.24,-31.01,1729425680695.0,0.0
-3.275774,-0.775275,-8.51127,-4.34,-2.52,-29.960001,1729425680714.0,0.0
-3.146562,-0.334995,-8.305488,-9.87,-8.26,-24.85,1729425680734.0,0.0
-3.335595,1.289732,-7.683353,-6.86,-12.25,-16.030001,1729425680755.0,0.0
-3.058028,0.055035,-9.68136,-20.16,-13.23,-10.71,1729425680774.0,0.0
-2.56032,-0.969093,-11.038091,-32.830002,-20.719999,-1.26,1729425680796.0,0.0
-2.428715,-1.378266,-11.251052,-27.16,-7.56,2.38,1729425680815.0,0.0
-2.45025,-1.174876,-10.772489,-17.219999,2.87,9.17,1729425680834.0,0.0
-2.59382,-1.177269,-10.152746,-8.82,9.45,13.09,1729425680855.0,0.0
-2.811567,-1.579263,-9.276974,2.24,11.76,17.01,1729425680874.0,0.0
-3.29731,-2.053042,-8.626125,18.41,12.04,22.26,1729425680897.0,0.0
-3.694518,-2.120041,-9.090333,25.83,10.71,22.68,1729425680917.0,0.0
-4.015156,-2.014757,-9.662218,22.960001,9.03,20.09,1729425680935.0,0.0
-3.850052,-2.67039,-10.499706,5.32,6.44,10.99,1729425680955.0,0.0
-3.328416,-3.404987,-10.167104,-7.28,4.13,1.89,1729425680976.0,0.0
-3.175276,-3.069991,-9.207582,-1.05,7.28,-7.28,1729425680995.0,0.0
-3.613162,-2.316252,-8.219346,4.76,8.96,-16.59,1729425681014.0,0.0
-3.4672,-2.117648,-8.484949,5.88,0.14,-21.629999,1729425681035.0,0.0
-3.103491,-1.811367,-8.798409,10.01,-4.69,-23.66,1729425681056.0,0.0
-3.17049,-1.730011,-8.865408,9.1,-2.52,-25.620001,1729425681074.0,0.0
-3.125026,-1.708475,-9.135797,8.68,-4.97,-24.710001,1729425681097.0,0.0
-2.739782,-0.849452,-8.271988,9.17,-11.48,-21.49,1729425681114.0,0.0
-2.725425,-0.452243,-8.590233,-0.91,-15.47,-18.83,1729425681134.0,0.0
-2.859423,0.710668,-8.037491,-9.03,-17.92,-13.58,1729425681155.0,0.0
-3.134598,-0.236889,-9.506684,-14.56,-14.21,-5.53,1729425681174.0,0.0
-2.385644,-0.715454,-10.375278,-11.13,-24.219999,1.68,1729425681195.0,0.0
-2.402394,-0.33021,-10.851451,-3.36,-9.59,10.64,1729425681215.0,0.0
-3.105884,-1.069592,-10.853845,-4.13,4.06,15.12,1729425681234.0,0.0
-3.323631,-1.65344,-9.987641,-0.56,6.86,20.860001,1729425681256.0,0.0
-3.517449,-1.885544,-9.068797,20.02,8.4,28.07,1729425681276.0,0.0
-4.103691,-1.813759,-8.853443,30.940001,13.09,30.309999,1729425681295.0,0.0
-4.642076,-2.086541,-8.910872,26.74,12.67,29.540001,1729425681314.0,0.0
-4.811966,-2.510071,-9.446864,17.85,7.98,27.16,1729425681334.0,0.0
-4.472186,-3.022135,-9.911072,7.56,3.22,18.76,1729425681355.0,0.0
-4.139583,-3.17049,-9.427721,-1.26,0.35,9.73,1729425681374.0,0.0
-4.074977,-3.199204,-9.12144,-2.87,0.07,9.73,1729425681396.0,0.0
-3.902694,-2.830709,-9.01137,-3.57,-3.22,-10.99,1729425681414.0,0.0
-3.759124,-2.378466,-9.099905,5.53,-6.72,-17.57,1729425681434.0,0.0
-3.436093,-1.986043,-9.406186,12.67,-9.59,-23.309999,1729425681460.0,0.0
-3.163311,-2.230111,-9.84168,4.34,-10.29,-27.23,1729425681474.0,0.0
-2.921637,-2.344966,-10.049855,-1.4,-9.1,-30.030001,1729425681497.0,0.0
-2.914458,-1.978864,-9.485149,3.99,-3.5,-29.540001,1729425681515.0,0.0
-3.101098,-1.253839,-8.915657,20.860001,0.35,-24.92,1729425681535.0,0.0
-3.058028,-0.332602,-8.403593,12.18,-1.4,-22.26,1729425681554.0,0.0
-2.864209,0.605384,-7.936993,-2.38,-5.88,-15.82,1729425681574.0,0.0
-3.507878,0.055035,-8.590233,-10.29,-1.12,-6.37,1729425681596.0,0.0
-2.962314,-1.045663,-9.899107,-19.460001,-9.31,-3.36,1729425681614.0,0.0
-2.792424,-0.681954,-9.805787,-9.1,-8.54,8.61,1729425681635.0,0.0
-3.180061,-0.746561,-10.437491,-8.47,4.55,13.02,1729425681654.0,0.0
-3.522235,-1.727618,-10.423136,-17.290001,9.1,14.84,1729425681674.0,0.0
-3.476771,-2.311467,-9.712467,-5.18,9.38,20.790001,1729425681696.0,0.0
-3.759124,-2.199004,-8.870193,18.129999,11.62,25.620001,1729425681714.0,0.0
-4.405186,-2.505285,-8.200203,24.92,14.42,25.690001,1729425681733.0,0.0
-4.591826,-2.959922,-8.571091,19.879999,9.94,22.4,1729425681755.0,0.0
-4.292724,-2.938386,-9.437292,10.36,3.57,14.98,1729425681774.0,0.0
-3.883551,-3.462414,-9.51147,-10.99,-3.43,-0.21,1729425681795.0,0.0
-3.63709,-3.333202,-9.317651,-10.22,-3.01,-8.47,1729425681815.0,0.0
-3.756732,-2.720639,-9.020942,-4.27,-1.47,-15.82,1729425681834.0,0.0
-3.704089,-2.433501,-9.111869,3.15,-3.99,-20.09,1729425681854.0,0.0
-3.510271,-2.242075,-9.41815,11.76,-6.93,-21.49,1729425681874.0,0.0
-3.481557,-2.316252,-9.798609,10.01,-3.78,-23.870001,1729425681895.0,0.0
-3.558127,-2.287539,-9.920642,7.0,2.38,-24.219999,1729425681915.0,0.0
-3.579663,-1.940579,-9.463614,8.96,4.48,-23.450001,1729425681934.0,0.0
-3.249453,-1.371087,-8.992228,7.56,2.87,-22.469999,1729425681954.0,0.0
-3.125026,0.112463,-7.843673,4.55,2.59,-17.710001,1729425681974.0,0.0
-3.895515,0.710668,-7.288538,-2.87,3.43,-6.86,1729425681996.0,0.0
-3.359523,-0.533599,-8.688338,-11.83,-8.89,-2.31,1729425682014.0,0.0
-2.828316,-0.531207,-9.150154,-3.43,-13.3,9.94,1729425682034.0,0.0
-2.888137,-0.540778,-9.944571,-6.09,-4.55,16.309999,1729425682056.0,0.0
-2.696711,-1.452443,-10.437491,-18.620001,-3.57,20.65,1729425682074.0,0.0
-2.378466,-2.203789,-9.98525,-15.12,-2.17,23.66,1729425682095.0,0.0
-2.921637,-2.931208,-8.843873,-6.72,5.74,24.85,1729425682114.0,0.0
-3.488736,-3.259024,-8.25763,17.360001,11.97,24.219999,1729425682133.0,0.0
-3.979264,-3.273381,-8.537591,34.09,8.61,21.77,1729425682154.0,0.0
-4.256832,-2.756532,-9.047262,35.0,2.8,17.01,1729425682174.0,0.0
-4.443472,-2.68714,-9.595219,17.08,-0.35,10.15,1729425682196.0,0.0
-4.388437,-3.053242,-9.896714,-8.61,-3.78,-0.14,1729425682214.0,0.0
-4.046263,-3.61077,-9.860823,-19.530001,-5.46,-7.84,1729425682234.0,0.0
-3.795017,-3.517449,-9.719646,-6.09,-5.11,-12.25,1729425682254.0,0.0
-3.742374,-2.76371,-9.169296,14.14,-3.15,-16.52,1729425682274.0,0.0
-3.684947,-2.275574,-9.159724,26.110001,-3.92,-18.549999,1729425682295.0,0.0
-3.548556,-2.146362,-9.303294,19.389999,-3.36,-21.210001,1729425682314.0,0.0
-3.45045,-2.273181,-9.686146,9.1,-0.91,-22.610001,1729425682333.0,0.0
-3.452843,-2.26361,-9.616754,7.42,3.01,-21.77,1729425682354.0,0.0
-3.68734,-2.24686,-9.016156,14.84,7.07,-19.040001,1729425682373.0,0.0
-3.998406,-1.828116,-8.240881,22.889999,8.61,-15.82,1729425682395.0,0.0
-3.845266,-1.275374,-8.056634,18.969999,5.74,-12.46,1729425682414.0,0.0
-3.787838,-0.241675,-6.905686,7.98,1.82,-6.09,1729425682433.0,0.0
-3.168097,-1.287339,-9.650253,-1.96,-2.45,0.63,1729425682457.0,0.0
-2.414358,-1.895115,-10.561919,-8.82,-12.39,2.38,1729425682475.0,0.0
-2.179861,-2.117648,-10.547562,-17.01,-4.69,4.69,1729425682496.0,0.0
-2.091327,-2.323431,-10.997414,-23.799999,4.13,5.6,1729425682568.0,0.0
-2.569891,-2.701497,-10.061819,-16.52,17.290001,6.3,1729425682575.0,0.0
-3.562913,-2.811567,-7.936993,-14.07,29.33,3.08,1729425682577.0,0.0
-4.546363,-3.359523,-7.57089,-9.87,26.67,-0.49,1729425682580.0,0.0
-4.589434,-3.598805,-9.379865,-3.78,12.74,-7.63,1729425682595.0,0.0
-4.338188,-2.959922,-9.97807,1.54,5.25,-12.53,1729425682615.0,0.0
-4.228118,-2.495714,-10.021141,-6.86,4.27,-14.91,1729425682633.0,0.0
-3.790231,-2.878566,-9.980463,-27.51,3.36,-19.74,1729425682654.0,0.0
-3.598805,-3.211168,-9.786645,-28.700001,5.18,-18.549999,1729425682673.0,0.0
-3.45045,-2.866602,-9.468399,-19.32,6.86,-19.110001,1729425682696.0,0.0
-3.237489,-2.498107,-9.023334,-4.48,4.41,-18.059999,1729425682714.0,0.0
-3.019742,-2.318645,-9.145369,17.5,0.98,-14.42,1729425682733.0,0.0
-3.005385,-2.124826,-8.84148,30.870001,3.57,-11.55,1729425682754.0,0.0
-3.208775,-1.974079,-8.729016,22.26,9.31,-12.67,1729425682775.0,0.0
-3.369094,-1.596013,-8.018349,4.27,4.34,-10.78,1729425682795.0,0.0
-3.079563,-1.246661,-8.193025,13.16,-5.46,-5.67,1729425682814.0,0.0
-2.778067,0.011964,-7.676175,8.26,-12.67,-3.15,1729425682833.0,0.0
-2.995814,0.351745,-8.513663,-5.88,-10.85,4.41,1729425682853.0,0.0
-2.85703,-0.940379,-9.430114,-19.6,-15.33,2.73,1729425682873.0,0.0
-2.708675,-1.658226,-9.51147,-28.49,-15.75,7.35,1729425682895.0,0.0
-2.792424,-2.706282,-10.076177,-32.34,-11.48,9.73,1729425682913.0,0.0
-2.498107,-3.029313,-10.815558,-22.049999,-9.59,11.9,1729425682933.0,0.0
-2.720639,-2.301895,-9.98525,6.79,2.24,19.879999,1729425682954.0,0.0
-3.854837,-2.088934,-8.695518,14.91,13.86,23.17,1729425682973.0,0.0
-4.570292,-3.189633,-9.176475,-0.7,11.13,21.559999,1729425682995.0,0.0
-4.498507,-4.096512,-9.944571,-2.17,0.91,18.690001,1729425683014.0,0.0
-4.244867,-3.584448,-9.832108,8.4,-1.68,14.63,1729425683033.0,0.0
-4.218546,-3.498307,-9.786645,14.42,0.7,11.69,1729425683054.0,0.0
-3.940979,-3.723232,-9.913465,17.08,0.98,3.99,1729425683073.0,0.0
-3.333202,-3.242275,-9.645468,26.18,-2.8,-0.77,1729425683095.0,0.0
-2.79721,-2.132005,-9.150154,32.34,-2.03,-3.57,1729425683114.0,0.0
-2.87378,-1.90708,-8.946764,17.15,5.04,-8.47,1729425683134.0,0.0
-2.912065,-2.553142,-9.284152,3.43,6.79,-11.34,1729425683154.0,0.0
-2.816352,-2.550749,-9.473185,8.61,8.05,-10.92,1729425683173.0,0.0
-3.184847,-1.354338,-8.233703,17.780001,12.67,-6.44,1729425683195.0,0.0
-3.519842,-0.784846,-8.348558,3.64,12.6,-5.88,1729425683213.0,0.0
-2.806781,-1.457229,-8.906086,-13.65,-1.54,-10.43,1729425683233.0,0.0
-2.244468,-0.677169,-9.188439,-14.91,-6.09,-5.25,1729425683254.0,0.0
-2.242075,-0.442672,-9.908678,-14.28,-2.94,3.92,1729425683273.0,0.0
-2.311467,-1.402194,-9.891929,-17.15,-2.66,2.52,1729425683294.0,0.0
-2.859423,-1.842474,-9.300901,-21.42,4.97,6.79,1729425683314.0,0.0
-3.589234,-2.696711,-8.666803,-32.27,11.55,5.67,1729425683333.0,0.0
-3.639483,-3.608376,-9.317651,-42.07,9.8,-1.12,1729425683354.0,0.0
-3.206382,-2.928815,-10.047462,-30.450001,5.18,1.47,1729425683374.0,0.0
-3.462414,-2.452643,-9.956534,-7.63,10.64,7.0,1729425683394.0,0.0
-4.12044,-2.660819,-10.305886,-8.75,17.290001,5.04,1729425683414.0,0.0
-4.220939,-3.524628,-9.889536,-13.72,14.28,2.52,1729425683433.0,0.0
-4.09412,-3.24706,-9.174082,-1.05,10.43,-1.75,1729425683457.0,0.0
-3.759124,-3.007778,-9.628718,7.07,4.62,-15.05,1729425683473.0,0.0
-3.438486,-2.758924,-9.542577,1.82,3.99,-25.200001,1729425683495.0,0.0
-3.232704,-3.287738,-8.831908,-7.56,3.64,-32.41,1729425683513.0,0.0
-2.971886,-3.337988,-8.740981,-8.12,5.6,-34.369999,1729425683533.0,0.0
-2.900101,-1.969293,-8.439486,6.02,6.09,-31.639999,1729425683554.0,0.0
-2.883351,-1.244268,-8.717053,26.18,5.25,-25.48,1729425683573.0,0.0
-2.598605,-1.11027,-8.248059,26.880001,0.07,-23.1,1729425683594.0,0.0
-2.366502,-1.591227,-8.281559,20.16,-6.65,-18.83,1729425683615.0,0.0
-1.98365,-1.545763,-8.944371,4.48,-12.39,-19.530001,1729425683633.0,0.0
-2.268396,-0.861416,-9.573684,-3.36,-6.65,-10.29,1729425683654.0,0.0
-2.45025,-0.66999,-10.674382,4.48,-2.1,-1.61,1729425683673.0,0.0
-2.656033,-0.995414,-10.30828,21.210001,0.49,11.13,1729425683694.0,0.0
-2.909672,-1.067199,-9.609575,31.01,5.6,21.139999,1729425683713.0,0.0
-3.029313,-1.40698,-9.38465,25.76,7.0,27.93,1729425683733.0,0.0
-2.962314,-2.103291,-9.820145,14.56,7.42,32.27,1729425683753.0,0.0
-3.069991,-2.754139,-10.009177,2.66,13.3,32.060001,1729425683773.0,0.0
-3.711268,-3.416951,-10.392029,-0.07,21.139999,30.380001,1729425683796.0,0.0
-3.883551,-3.651447,-9.789038,9.94,23.379999,17.710001,1729425683813.0,0.0
-3.881158,-3.23031,-8.587841,9.66,19.040001,6.93,1729425683834.0,0.0
-3.704089,-3.266203,-8.52802,-2.03,12.11,-5.95,1729425683853.0,0.0
-3.352344,-4.005585,-8.726624,-8.26,5.11,-18.200001,1729425683873.0,0.0
-3.005385,-4.240082,-9.188439,-7.49,0.28,-29.049999,1729425683894.0,0.0
-2.581856,-3.596412,-9.456435,-5.39,-2.59,-40.110001,1729425683913.0,0.0
-2.572284,-2.964707,-9.391829,-9.87,0.35,-49.349998,1729425683933.0,0.0
-2.656033,-2.861816,-9.578469,-20.58,5.32,-54.950001,1729425683953.0,0.0
-2.318645,-1.9669,-8.896514,-28.42,4.41,-55.369999,1729425683973.0,0.0
-2.486143,-1.615155,-7.575676,-12.67,4.2,-43.189999,1729425683994.0,0.0
-2.366502,-1.335195,-8.262416,5.04,0.56,-33.740002,1729425684013.0,0.0
-2.100898,-0.61017,-7.752745,11.83,-6.65,-21.559999,1729425684033.0,0.0
-1.909473,-0.064606,-8.477771,-4.13,-10.71,-7.84,1729425684053.0,0.0
-1.48355,-1.06002,-9.523434,-23.379999,-18.549999,-0.56,1729425684073.0,0.0
-1.531406,-1.916651,-10.145569,-31.290001,-12.46,9.17,1729425684105.0,0.0
-2.199004,-2.37368,-10.652846,-23.73,-3.15,20.65,1729425684113.0,0.0
-2.541178,-2.581856,-9.75793,-10.22,3.29,32.060001,1729425684133.0,0.0
-3.163311,-2.859423,-9.279366,4.48,10.43,36.049999,1729425684154.0,0.0
-3.431308,-2.526821,-10.025927,1.4,8.4,34.580002,1729425684172.0,0.0
-3.56052,-2.289931,-9.970891,-4.41,9.59,33.32,1729425684195.0,0.0
-3.531806,-2.531606,-10.392029,-0.77,10.01,31.43,1729425684213.0,0.0
-3.354738,-2.54357,-10.059426,18.76,8.82,31.780001,1729425684232.0,0.0
-3.395415,-2.505285,-9.489935,35.98,10.99,31.57,1729425684253.0,0.0
-3.591627,-3.113062,-9.131011,40.599998,13.37,29.33,1729425684273.0,0.0
-3.292524,-4.017549,-9.205189,44.099998,10.01,21.210001,1729425684293.0,0.0
-2.919244,-3.881158,-8.865408,52.360001,6.51,11.27,1729425684313.0,0.0
-2.943172,-3.282953,-8.178668,49.560001,8.26,-1.19,1729425684333.0,0.0
-3.165704,-2.833102,-8.135597,26.460001,7.0,-15.26,1729425684354.0,0.0
-3.148954,-2.646462,-8.822337,2.1,-0.28,-26.6,1729425684372.0,0.0
-3.081956,-2.397608,-9.492328,-11.62,-6.3,-31.290001,1729425684393.0,0.0
-3.069991,-1.562513,-9.789038,-21.07,-5.74,-32.759998,1729425684413.0,0.0
-3.558127,-1.765903,-8.77448,-16.52,-3.22,-24.5,1729425684432.0,0.0
-3.433701,-2.596212,-9.461221,-12.53,-9.59,-27.93,1729425684457.0,0.0
-2.572284,-1.438086,-9.221939,-20.58,-21.77,-23.1,1729425684472.0,0.0
-2.15354,-1.478764,-9.164511,-26.32,-22.469999,-24.710001,1729425684494.0,0.0
-2.18704,-1.871187,-8.839087,-37.240002,-19.389999,-19.530001,1729425684515.0,0.0
-2.07697,-2.658426,-9.142976,-40.18,-21.629999,-13.65,1729425684532.0,0.0
-1.722832,-2.213361,-9.535398,-38.779999,-21.98,-11.27,1729425684554.0,0.0
-1.478764,-2.428715,-9.32483,-24.5,-19.18,-6.02,1729425684573.0,0.0
-1.050449,-2.524428,-9.908678,-15.05,-19.18,-4.34,1729425684594.0,0.0
-0.76331,-2.029114,-10.107283,-11.83,-15.68,0.7,1729425684614.0,0.0
-0.689133,-2.120041,-10.947165,-12.04,-8.4,5.46,1729425684632.0,0.0
-0.959522,-1.988436,-11.069198,-13.440001,1.82,9.94,1729425684653.0,0.0
-1.734797,-1.988436,-11.093125,12.74,14.7,22.75,1729425684673.0,0.0
-2.447858,-1.213161,-10.999805,33.459999,25.83,33.389999,1729425684694.0,0.0
-3.024528,-0.768096,-10.389636,34.369999,33.389999,44.240002,1729425684713.0,0.0
-3.613162,-2.897708,-10.076177,30.940001,36.610001,42.91,1729425684733.0,0.0
-4.029513,-3.034099,-9.183653,24.08,36.119999,38.920002,1729425684754.0,0.0
-4.21376,-2.213361,-8.539984,21.139999,34.860001,35.07,1729425684772.0,0.0
-4.266403,-3.850052,-8.238488,22.960001,25.48,26.25,1729425684793.0,0.0
-4.010371,-4.086941,-7.925028,16.309999,12.81,7.42,1729425684814.0,0.0
-3.924229,-3.806981,-7.67139,11.27,5.95,-8.75,1729425684832.0,0.0
-3.761517,-3.208775,-8.133204,2.31,-1.26,-23.73,1729425684853.0,0.0
-3.56052,-2.385644,-8.628519,-3.15,-8.61,-31.780001,1729425684873.0,0.0
-3.383451,-1.588834,-9.327222,-11.55,-12.81,-34.720001,1729425684894.0,0.0
-3.074777,-1.57687,-9.659825,-23.379999,-15.26,-34.580002,1729425684912.0,0.0
-2.548356,-2.103291,-9.975677,-28.139999,-17.08,-33.670002,1729425684933.0,0.0
-2.033899,-1.397408,-9.183653,-17.360001,-17.92,-28.07,1729425684953.0,0.0
-1.655833,-0.667598,-9.126225,-4.27,-17.85,-18.690001,1729425684973.0,0.0
-1.311267,-0.993021,-8.989835,-7.35,-19.110001,-14.42,1729425684994.0,0.0
-1.361516,-1.399801,-9.322437,-10.5,-13.3,-6.72,1729425685012.0,0.0
-1.619941,-1.459622,-9.513863,-17.99,-5.81,-3.5,1729425685032.0,0.0
-1.655833,-1.607977,-10.131211,-10.43,-4.27,5.88,1729425685053.0,0.0
-1.383051,-1.442872,-10.473385,-0.98,-5.25,12.53,1729425685073.0,0.0
-1.864009,-1.22034,-11.006985,1.75,9.03,22.26,1729425685094.0,0.0
-2.928815,-2.117648,-10.191031,16.940001,22.33,33.599998,1729425685113.0,0.0
-3.39063,-1.859223,-10.844273,40.459999,23.66,48.369999,1729425685132.0,0.0
-4.058227,-2.62732,-8.327023,74.830002,31.710001,66.010002,1729425685153.0,0.0
-4.462614,-4.539185,-7.819745,98.209999,27.65,71.470001,1729425685172.0,0.0
-4.175476,-5.754738,-8.362915,114.590004,22.469999,62.23,1729425685194.0,0.0
-3.804588,-6.960721,-7.515855,150.430008,11.83,56.07,1729425685213.0,0.0
-3.596412,-7.094719,-7.283752,201.949997,10.5,46.759998,1729425685232.0,0.0
-3.869194,-6.872187,-8.391629,257.670013,6.23,42.84,1729425685253.0,0.0
-3.799802,-6.850651,-9.308081,295.75,-3.08,35.420002,1729425685273.0,0.0
-3.59402,-7.853244,-9.513863,341.179993,-9.52,37.66,1729425685293.0,0.0
-3.218346,-8.915657,-9.233903,395.640015,-14.07,43.82,1729425685312.0,0.0
-2.993421,-6.987042,-8.49452,406.559998,-11.76,46.130001,1729425685332.0,0.0
-3.316452,-5.63749,-5.726025,377.51001,6.44,42.700001,1729425685353.0,0.0
-3.677768,-6.690332,-2.62732,281.049988,11.27,18.76,1729425685372.0,0.0
-3.993621,-9.154939,-0.990629,199.289993,1.89,3.57,1729425685392.0,0.0
-4.113262,-9.762716,-1.904687,187.809998,-5.74,16.59,1729425685412.0,0.0
-3.792624,-8.437093,-1.538585,215.180008,-14.98,22.540001,1729425685433.0,0.0
-3.220739,-7.750352,-1.976472,234.639999,-17.08,30.870001,1729425685455.0,0.0
-3.136991,-9.454042,-0.425922,271.880005,-23.17,43.610001,1729425685472.0,0.0
-3.316452,-10.085747,0.801596,344.049988,-24.85,53.619999,1729425685493.0,0.0
-2.916851,-8.551948,2.68714,367.850006,-30.030001,60.830002,1729425685512.0,0.0
-2.59382,-6.774081,3.682554,339.640015,-17.5,51.310001,1729425685533.0,0.0
-3.285345,-6.125626,3.730411,291.549988,-1.89,45.709999,1729425685553.0,0.0
-4.558327,-7.030113,2.715853,272.089996,2.66,46.41,1729425685572.0,0.0
-4.405186,-6.9344,3.998406,273.980011,-1.82,38.709999,1729425685593.0,0.0
-4.024727,-4.383651,5.69731,217.0,18.129999,8.61,1729425685612.0,0.0
-5.185246,-4.917251,7.958528,127.120003,25.059999,-4.76,1729425685633.0,0.0
-5.812167,-5.091926,7.893922,46.549999,14.28,-10.01,1729425685653.0,0.0
-4.84068,-5.335995,7.633104,13.23,-1.26,-18.48,1729425685673.0,0.0
-4.091727,-5.328816,5.893522,2.52,-5.88,-12.67,1729425685694.0,0.0
-3.795017,-5.118248,5.87438,16.309999,0.49,-8.75,1729425685712.0,0.0
-4.378866,-5.35753,6.04427,37.939999,17.639999,-6.02,1729425685733.0,0.0
-4.924429,-4.76411,6.489335,52.290001,31.360001,-3.71,1729425685752.0,0.0
-5.266603,-5.441278,7.089933,47.040001,28.630001,-7.7,1729425685773.0,0.0
-4.917251,-5.082355,7.144968,38.5,21.210001,-12.95,1729425685793.0,0.0
-4.689932,-4.175476,7.267002,29.889999,24.360001,-12.32,1729425685812.0,0.0
-4.969893,-4.625326,7.228717,21.210001,26.18,-14.49,1729425685832.0,0.0
-4.625326,-4.225725,7.37468,20.51,24.639999,-14.98,1729425685852.0,0.0
-4.019942,-3.275774,7.209574,25.76,21.139999,-7.77,1729425685872.0,0.0
-3.48395,-2.282753,6.951149,20.370001,22.26,0.84,1729425685895.0,0.0
-3.979264,-2.85703,6.534799,11.69,28.77,10.78,1729425685912.0,0.0
-5.300103,-3.419343,6.903293,8.75,35.91,25.34,1729425685932.0,0.0
-6.63769,-5.17089,7.695317,6.65,32.970001,23.799999,1729425685953.0,0.0
-7.735995,-6.357729,7.755138,12.18,24.219999,21.210001,1729425685972.0,0.0
-7.836494,-6.407979,7.144968,27.16,10.99,11.55,1729425686003.0,0.0
-5.989235,-4.938786,6.91765,38.57,-5.53,-1.26,1729425686012.0,0.0
-6.317052,-5.405386,6.235696,37.450001,8.4,-6.3,1729425686032.0,0.0
-8.374879,-6.175875,5.096712,42.420002,34.23,-11.83,1729425686052.0,0.0
-8.836694,-4.960321,5.233103,56.84,28.700001,-19.879999,1729425686073.0,0.0
-7.587641,-3.244668,6.202196,60.970001,9.66,-21.07,1729425686093.0,0.0
-6.242875,-2.414358,6.829116,36.540001,-1.54,-31.780001,1729425686112.0,0.0
-5.836094,-2.35693,7.223931,13.3,-5.39,-23.799999,1729425686132.0,0.0
-5.680561,-2.323431,7.056434,-25.34,-7.21,-7.49,1729425686152.0,0.0
-6.415157,-4.453043,6.632904,-40.389999,-10.36,-0.98,1729425686172.0,0.0
-6.427122,-4.074977,5.706882,-33.25,-14.98,3.29,1729425686195.0,0.0
-4.479364,-1.569692,5.802595,-13.16,-33.040001,8.47,1729425686212.0,0.0
-3.29731,-1.694118,5.075177,-27.23,-32.759998,9.87,1729425686232.0,0.0
-3.266203,-2.457429,4.541577,-38.009998,-18.200001,22.889999,1729425686253.0,0.0
-4.460221,-4.216154,4.965107,-31.780001,-0.98,38.009998,1729425686271.0,0.0
-5.711668,-5.644669,5.651847,-13.440001,7.49,39.27,1729425686293.0,0.0
-6.800402,-7.274181,7.233503,6.16,8.47,25.83,1729425686312.0,0.0
-7.398607,-8.073383,7.673782,11.83,3.15,8.61,1729425686333.0,0.0
-6.24766,-6.326623,7.927422,15.12,-15.4,-7.28,1729425686352.0,0.0
-5.087141,-4.520042,8.073383,9.31,-21.91,-12.67,1729425686373.0,0.0
-6.218946,-4.237689,7.896315,-5.88,-7.21,-8.54,1729425686392.0,0.0
-7.003791,-3.960121,6.771688,-23.870001,-4.9,-14.07,1729425686411.0,0.0
-5.759524,-3.330809,6.970293,-21.98,-23.1,-22.33,1729425686441.0,0.0
-4.893322,-2.885744,7.575676,-26.18,-31.01,-23.24,1729425686455.0,0.0
-4.283153,-1.87358,7.166504,-36.119999,-24.01,-19.950001,1729425686471.0,0.0
-3.639483,-0.777667,5.618347,-45.639999,-18.620001,1.54,1729425686493.0,0.0
-4.132405,-2.230111,6.312266,-42.630001,-11.62,14.42,1729425686512.0,0.0
-5.651847,-4.584648,6.379266,-44.939999,0.77,16.59,1729425686532.0,0.0
-6.994221,-5.381458,5.800202,-23.309999,12.11,21.210001,1729425686553.0,0.0
-5.931807,-1.667797,6.005985,1.47,-1.54,25.34,1729425686572.0,0.0
-4.280759,-0.622134,6.496514,-15.61,-21.42,29.889999,1729425686595.0,0.0
-4.022335,-2.519642,6.089733,-50.400002,-13.51,38.920002,1729425686613.0,0.0
-5.546563,-5.314459,6.319445,-52.57,2.17,58.170002,1729425686631.0,0.0
-6.489335,-8.056634,6.530013,-40.599998,7.07,50.610001,1729425686653.0,0.0
-6.518049,-10.363315,7.288538,-20.23,-2.52,41.580002,1729425686672.0,0.0
-6.711867,-11.593226,7.022934,1.19,0.35,17.43,1729425686692.0,0.0
-6.278766,-9.657433,6.683154,31.710001,0.35,-0.63,1729425686713.0,0.0
-4.570292,-5.941379,6.039484,49.209999,-7.63,-15.68,1729425686732.0,0.0
-4.185047,-3.409772,5.893522,43.049999,3.57,-12.25,1729425686753.0,0.0
-6.001199,-3.838088,5.735595,18.83,25.690001,-12.53,1729425686771.0,0.0
-6.549156,-3.826123,5.991628,7.14,22.82,-20.790001,1729425686793.0,0.0
-5.115855,-3.771089,6.415157,0.49,7.35,-27.65,1729425686812.0,0.0
-4.522435,-3.419343,6.314659,-5.46,5.74,-20.299999,1729425686832.0,0.0
-4.424329,-1.737189,6.197411,-4.41,18.200001,-9.66,1729425686853.0,0.0
-4.67079,-0.923629,6.427122,-12.46,24.780001,8.4,1729425686871.0,0.0
-5.460421,-2.371287,7.164111,-25.690001,24.15,15.4,1729425686895.0,0.0
-6.738188,-3.996014,5.912664,-38.920002,29.82,17.639999,1729425686912.0,0.0
-5.599205,-2.163112,5.551349,-27.860001,14.07,26.25,1729425686931.0,0.0
-3.742374,-1.217947,5.809773,-30.59,-5.67,31.85,1729425686952.0,0.0
-4.053442,-3.105884,5.718846,-44.799999,15.33,42.84,1729425686971.0,0.0
-6.15434,-5.355137,6.556334,-43.82,35.560001,60.130001,1729425686994.0,0.0
-7.585248,-8.006385,6.955935,-32.060001,32.619999,58.52,1729425687011.0,0.0
-9.102298,-10.817951,7.018148,-29.68,31.85,30.870001,1729425687032.0,0.0
-10.841879,-12.279965,6.242875,-24.5,12.46,17.08,1729425687052.0,0.0
-7.503892,-10.10489,7.23111,52.639999,-11.97,9.24,1729425687072.0,0.0
-4.766503,-4.591826,7.317252,65.099998,3.29,-51.799999,1729425687094.0,0.0
-7.664211,-5.752346,6.85783,53.48,18.549999,-21.629999,1729425687112.0,0.0
-8.764909,-5.812167,6.443871,47.18,8.82,-43.68,1729425687131.0,0.0
-5.876772,-1.445265,6.565905,62.580002,-23.379999,-40.32,1729425687153.0,0.0
-6.147161,-1.261017,5.996413,32.689999,-14.28,-41.369999,1729425687171.0,0.0
-6.494121,-1.971686,5.553742,6.51,-10.71,-36.330002,1729425687193.0,0.0
-5.876772,-1.931008,5.453243,-12.11,-20.16,-28.0,1729425687212.0,0.0
-5.309673,-2.986243,5.493921,-19.879999,-22.610001,-16.59,1729425687231.0,0.0
-5.601598,-3.926622,6.319445,-7.98,-17.01,-10.29,1729425687252.0,0.0
-6.707082,-3.826123,6.092126,4.97,-0.14,2.94,1729425687272.0,0.0
-5.580062,-2.072184,5.288138,5.81,-9.24,5.88,1729425687293.0,0.0
-3.385844,-1.521835,4.907679,-11.06,-28.98,8.12,1729425687311.0,0.0
-2.761317,-2.584249,4.98425,-26.389999,-12.81,17.360001,1729425687333.0,0.0
-4.378866,-4.328616,5.563312,-24.57,18.41,34.720001,1729425687351.0,0.0
-6.23091,-5.826523,6.07777,-10.64,34.09,44.799999,1729425687371.0,0.0
-7.298109,-7.905886,6.920043,2.87,34.720001,38.5,1729425687394.0,0.0
-8.094919,-9.466006,7.401,14.63,25.76,24.57,1729425687411.0,0.0
-7.649854,-8.549555,7.113862,38.920002,11.41,6.72,1729425687431.0,0.0
-5.852845,-5.577669,6.994221,59.43,1.19,-7.14,1729425687457.0,0.0
-5.919843,-4.639683,6.769295,50.889999,10.22,-10.22,1729425687473.0,0.0
-8.209774,-5.745167,5.233103,32.970001,19.460001,-27.23,1729425687493.0,0.0
-6.745367,-4.45065,5.924629,45.990002,-2.52,-41.439999,1729425687563.0,0.0
-6.520442,-3.524628,6.345766,38.57,0.49,-51.52,1729425687566.0,0.0
-6.163911,-2.124826,6.094519,27.02,2.45,-48.02,1729425687567.0,0.0
-5.730811,0.043071,5.352744,9.87,0.63,-38.849998,1729425687602.0,0.0
-6.927221,-0.502493,6.405586,2.87,4.9,-22.75,1729425687611.0,0.0
-7.477571,-1.217947,5.580062,-10.78,12.81,-0.07,1729425687632.0,0.0
-5.776274,-0.308674,5.242674,-18.059999,-7.98,5.46,1729425687653.0,0.0
-4.321437,-0.78006,5.833702,-36.610001,-17.15,14.63,1729425687671.0,0.0
-4.821537,-2.486143,5.623133,-52.009998,2.31,30.24,1729425687693.0,0.0
-5.905487,-4.053442,6.352944,-35.0,15.33,48.93,1729425687712.0,0.0
-6.556334,-4.943572,7.23111,-17.360001,16.17,50.400002,1729425687731.0,0.0
-8.224132,-8.894121,7.802995,-4.48,21.35,34.16,1729425687753.0,0.0
-8.908479,-10.217353,7.99442,20.299999,9.73,13.37,1729425687771.0,0.0
-5.986843,-6.309873,7.257431,49.84,-13.79,-7.84,1729425687792.0,0.0
-5.737988,-4.512863,7.223931,63.77,-5.32,-20.65,1729425687815.0,0.0
-7.477571,-5.163712,6.400801,43.049999,10.36,-27.719999,1729425687834.0,0.0
-7.412964,-4.68754,6.087341,34.790001,-0.77,-41.790001,1729425687853.0,0.0
-6.585048,-3.945765,5.960521,32.900002,-13.79,-49.77,1729425687873.0,0.0
-5.943772,-2.579463,6.053841,25.76,-15.33,-47.459999,1729425687894.0,0.0
-5.721239,-1.299303,5.395815,17.780001,-7.0,-35.279999,1729425687913.0,0.0
-5.869594,0.004786,5.314459,0.7,2.1,-24.219999,1729425687933.0,0.0
-6.556334,-0.614955,6.348158,-16.66,-0.21,-12.11,1729425687953.0,0.0
-7.554141,-2.411965,6.082555,-33.670002,1.26,-5.95,1729425687973.0,0.0
-6.711867,-1.770689,5.395815,-31.360001,-8.19,0.07,1729425687994.0,0.0
-4.26401,-1.052842,6.132804,-29.190001,-33.529999,7.49,1729425688014.0,0.0
-2.981457,-1.543371,6.111269,-45.57,-24.639999,15.68,1729425688033.0,0.0
-4.0008,-3.586841,6.580262,-45.639999,1.96,36.75,1729425688058.0,0.0
-6.063413,-5.106283,6.640083,-31.57,23.17,48.790001,1729425688076.0,0.0
-7.018148,-7.099504,8.181061,-1.89,11.41,39.689999,1729425688092.0,0.0
-8.092526,-9.566505,7.817351,3.85,11.48,19.950001,1729425688112.0,0.0
-8.255238,-8.762517,8.085347,31.08,5.81,3.01,1729425688140.0,0.0
-6.525227,-5.505885,7.867601,44.939999,-12.81,-14.0,1729425688229.0,0.0
-5.249853,-3.493521,7.329216,35.349998,-17.219999,-20.65,1729425688229.0,0.0
-6.266802,-3.550949,6.410372,13.16,1.19,-23.59,1729425688229.0,0.0
-7.484749,-4.328616,5.733203,-2.1,5.81,-31.01,1729425688230.0,0.0
-6.836295,-4.443472,5.103891,2.87,-12.6,-41.580002,1729425688234.0,0.0
-5.613562,-2.914458,5.668597,17.85,-22.049999,-45.57,1729425688290.0,0.0
-4.922036,-1.40698,6.142376,18.549999,-18.41,-36.470001,1729425688291.0,0.0
-4.780859,-0.339781,5.364708,-5.11,-2.45,-24.92,1729425688297.0,0.0
-4.87418,0.009571,5.589634,-20.51,0.84,-3.92,1729425688311.0,0.0
-5.515456,-1.651048,6.252446,-39.34,4.06,1.68,1729425688332.0,0.0
-6.896115,-3.579663,7.135397,-48.720001,9.38,10.22,1729425688353.0,0.0
-6.518049,-2.167897,6.343372,-37.939999,0.28,14.0,1729425688372.0,0.0
-4.744967,-1.071985,6.125626,-33.040001,-18.34,22.049999,1729425688397.0,0.0
-3.9673,-2.825923,4.548756,-60.619999,-14.56,27.790001,1729425688412.0,0.0
-4.651647,-4.45065,4.378866,-72.099998,12.46,46.34,1729425688434.0,0.0
-5.71406,-7.168896,6.084948,-45.150002,18.059999,54.950001,1729425688457.0,0.0
-8.317451,-11.456835,7.317252,-25.200001,33.389999,41.09,1729425688472.0,0.0
-9.824929,-12.296716,8.664411,26.530001,21.42,27.51,1729425688493.0,0.0
-8.508877,-8.276773,8.752945,70.209999,-3.92,-2.31,1729425688512.0,0.0
-6.38405,-4.457829,6.9344,57.889999,-15.05,-32.41,1729425688531.0,0.0
-6.379266,-4.271189,6.589834,26.74,-7.91,-37.869999,1729425688551.0,0.0
-7.606783,-6.017949,5.06082,-15.47,0.91,-61.599998,1729425688571.0,0.0
-6.546762,-5.359922,5.206782,6.02,-27.23,-66.919998,1729425688592.0,0.0
-4.438686,-2.821138,6.113662,39.27,-35.560001,-62.580002,1729425688612.0,0.0
-4.31426,-0.141177,6.733403,45.43,-15.26,-42.209999,1729425688631.0,0.0
-4.63729,0.411566,6.754939,26.6,1.05,-28.139999,1729425688653.0,0.0
-4.996214,1.339981,5.659025,-17.639999,10.01,-6.79,1729425688671.0,0.0
-5.819345,-1.706082,5.931807,-47.25,4.83,8.89,1729425688693.0,0.0
-6.757331,-4.551149,4.618148,-70.980003,10.43,3.92,1729425688713.0,0.0
-5.54417,-2.29711,4.271189,-40.459999,-1.96,18.549999,1729425688732.0,0.0
-3.433701,-0.083749,4.76411,-19.460001,-10.36,31.43,1729425688752.0,0.0
-5.161318,-2.787638,4.575077,-63.279999,36.75,49.0,1729425688773.0,0.0
-7.573284,-5.661418,5.173282,-64.260002,47.25,61.599998,1729425688794.0,0.0
-8.394022,-9.317651,7.405786,-39.200001,25.83,55.16,1729425688812.0,0.0
-9.219545,-12.531212,8.006385,-24.5,12.46,24.710001,1729425688832.0,0.0
-9.162118,-11.492726,8.496914,19.809999,-1.12,10.43,1729425688853.0,0.0
-7.32443,-7.558927,8.193025,51.799999,-14.84,-9.87,1729425688871.0,0.0
-5.35753,-5.051248,6.886543,39.689999,-23.030001,-22.75,1729425688893.0,0.0
-5.218746,-5.347959,5.895915,17.5,-14.98,-26.460001,1729425688912.0,0.0
-6.374479,-6.941578,4.21376,-3.01,-2.66,-39.900002,1729425688933.0,0.0
-6.300302,-6.309873,4.058227,19.460001,-9.31,-44.52,1729425688954.0,0.0
-5.45085,-4.584648,5.474778,53.549999,-14.14,-46.130001,1729425688972.0,0.0
-5.051248,-3.424129,5.496314,57.049999,-2.38,-50.400002,1729425688993.0,0.0
-4.993821,-2.043471,6.285945,54.040001,8.96,-43.470001,1729425689012.0,0.0
-4.991428,-0.22014,6.273981,36.330002,19.74,-30.24,1729425689033.0,0.0
-5.639884,0.167498,6.9344,10.08,21.77,-14.7,1729425689052.0,0.0
-6.908078,-2.146362,6.616155,-28.210001,17.08,-6.23,1729425689073.0,0.0
-6.774081,-2.964707,5.99402,-54.110001,6.86,-2.87,1729425689094.0,0.0
-4.409972,-1.682154,6.740582,-38.990002,-33.529999,11.62,1729425689112.0,0.0
-3.158526,-1.832902,6.721439,-50.119999,-34.439999,29.190001,1729425689133.0,0.0
-3.790231,-4.469792,6.570691,-65.449997,-14.28,44.450001,1729425689153.0,0.0
-5.661418,-7.334002,6.355337,-63.07,6.86,48.580002,1729425689173.0,0.0
-7.523034,-10.693524,7.668997,-32.27,8.12,40.389999,1729425689193.0,0.0
-9.152546,-12.016755,6.699903,-7.28,8.61,12.46,1729425689212.0,0.0
-8.298308,-7.755138,5.977271,45.709999,-3.92,-3.22,1729425689231.0,0.0
-6.017949,-3.326023,6.309873,66.010002,-17.290001,-4.97,1729425689252.0,0.0
-5.721239,-4.0008,6.278766,28.139999,-4.9,-14.49,1729425689272.0,0.0
-7.84128,-7.257431,4.704289,-4.97,6.93,-39.060001,1729425689293.0,0.0
-6.396015,-6.202196,4.843073,18.41,-24.43,-45.779999,1729425689313.0,0.0
-4.34058,-3.869194,6.022735,39.619999,-38.220001,-40.32,1729425689332.0,0.0
-3.902694,-2.931208,6.336195,26.950001,-21.77,-43.049999,1729425689352.0,0.0
-4.376472,-2.586641,6.005985,10.29,-1.33,-35.349998,1729425689372.0,0.0
-4.570292,-2.009971,5.230711,-4.69,8.05,-22.75,1729425689393.0,0.0
-5.233103,-3.086741,6.252446,-17.01,9.87,-10.71,1729425689412.0,0.0
-6.836295,-4.448257,5.532206,-30.24,15.47,-5.74,1729425689437.0,0.0
-6.975078,-3.034099,4.68754,-30.17,16.66,3.29,1729425689455.0,0.0
-5.12782,-2.055435,5.252246,-19.460001,-20.790001,13.440001,1729425689471.0,0.0
-3.481557,-1.842474,5.381458,-40.25,-31.360001,17.43,1729425689493.0,0.0
-3.964907,-4.354938,6.063413,-37.52,-9.73,41.720001,1729425689512.0,0.0
-5.668597,-7.164111,6.223732,-24.92,15.96,47.040001,1729425689532.0,0.0
-7.207181,-9.365508,7.288538,-2.94,21.35,41.02,1729425689554.0,0.0
-8.415558,-11.674582,7.695317,13.72,8.89,14.84,1729425689571.0,0.0
-7.499106,-9.250652,7.085148,40.110001,-4.06,-6.09,1729425689595.0,0.0
-5.003392,-4.706682,7.709675,59.709999,-13.16,-13.440001,1729425689619.0,0.0
-4.912465,-4.833502,7.255038,29.610001,-3.64,-25.690001,1729425689635.0,0.0
-6.723832,-6.573084,6.125626,7.07,7.0,-38.57,1729425689651.0,0.0
-5.668597,-4.869394,5.99402,23.17,-14.35,-39.130001,1729425689673.0,0.0
-4.426722,-3.383451,6.647261,28.35,-21.91,-38.920002,1729425689692.0,0.0
-4.615755,-3.062813,5.809773,8.75,-6.23,-42.07,1729425689713.0,0.0
-4.87418,-2.143969,5.319244,9.38,8.05,-30.799999,1729425689732.0,0.0
-5.254639,-1.801795,5.9677,4.9,16.450001,-20.65,1729425689754.0,0.0
-6.489335,-4.108476,6.738188,-24.85,19.530001,-12.95,1729425689772.0,0.0
-7.293324,-4.342973,5.010571,-34.720001,25.34,-9.03,1729425689794.0,0.0
-6.118448,-2.792424,5.402994,-9.38,-4.06,11.41,1729425689812.0,0.0
-3.924229,-1.337588,5.123034,-12.53,-30.66,21.49,1729425689832.0,0.0
-3.036492,-1.832902,5.278566,-23.030001,-17.99,35.349998,1729425689854.0,0.0
-4.362115,-4.644469,5.867201,-25.27,10.01,46.48,1729425689873.0,0.0
-6.498906,-7.929814,7.41775,-11.41,23.940001,48.16,1729425689897.0,0.0
-7.393822,-10.310673,9.200402,12.25,11.48,31.710001,1729425689915.0,0.0
-7.204789,-10.743774,8.781659,28.559999,-2.1,11.27,1729425689932.0,0.0
-5.4676,-7.350751,8.240881,44.52,-12.95,1.05,1729425689953.0,0.0
-4.649254,-4.68754,7.896315,38.990002,-10.64,-3.36,1729425689972.0,0.0
-6.709475,-5.783452,6.659225,10.99,7.14,-15.68,1729425689994.0,0.0
-6.833901,-5.230711,6.001199,1.26,-8.68,-28.210001,1729425690012.0,0.0
-5.424529,-3.24706,5.84088,-1.12,-28.139999,-28.91,1729425690033.0,0.0
-5.288138,-3.5007,5.943772,-22.610001,-23.799999,-34.650002,1729425690054.0,0.0
-5.259424,-2.696711,4.756931,-34.580002,-14.07,-19.879999,1729425690073.0,0.0
-5.307281,-2.48375,4.833502,-27.719999,-7.77,-11.9,1729425690095.0,0.0
-6.118448,-3.275774,5.65424,-23.379999,-3.78,-6.16,1729425690113.0,0.0
-6.503692,-2.124826,4.814359,-15.47,7.21,3.57,1729425690134.0,0.0
-5.371887,-0.265603,5.347959,-11.76,-9.66,22.33,1729425690155.0,0.0
-3.680161,-0.535992,5.474778,-34.720001,-32.060001,30.380001,1729425690175.0,0.0
-2.971886,-2.416751,5.101498,-57.75,-23.309999,45.5,1729425690196.0,0.0
-3.60359,-4.668397,5.192425,-62.790001,2.1,62.790001,1729425690215.0,0.0
-5.290531,-7.79103,6.4678,-51.869999,17.15,71.470001,1729425690234.0,0.0
-7.4345,-13.016955,7.647461,-27.860001,21.98,53.130001,1729425690254.0,0.0
-8.422735,-14.122439,7.477571,9.59,16.17,27.719999,1729425690274.0,0.0
-6.896115,-9.456435,6.116055,61.110001,1.05,13.3,1729425690298.0,0.0
-5.056034,-5.132604,6.125626,67.480003,-4.55,1.82,1729425690314.0,0.0
-6.565905,-6.025128,6.039484,39.619999,17.43,-18.41,1729425690339.0,0.0
-7.188039,-5.888737,5.630312,25.76,13.86,-36.540001,1729425690354.0,0.0
-5.635098,-4.608576,6.309873,33.040001,-19.32,-41.860001,1729425690375.0,0.0
-4.917251,-3.349952,6.367301,31.08,-17.57,-41.23,1729425690396.0,0.0
-4.591826,-2.557927,6.360123,20.65,-2.52,-36.259998,1729425690414.0,0.0
-4.567898,-1.404587,5.441278,-2.03,5.67,-29.75,1729425690434.0,0.0
-4.651647,-1.124627,5.491528,-9.52,5.88,-10.71,1729425690459.0,0.0
-5.053641,-2.498107,5.592027,-17.57,7.0,-3.22,1729425690474.0,0.0
-5.974878,-3.617948,5.101498,-21.559999,12.81,8.47,1729425690495.0,0.0
-5.611169,-2.368894,5.656632,-7.21,8.89,20.440001,1729425690515.0,0.0
-4.304688,-1.402194,6.570691,-2.31,-6.51,31.360001,1729425690534.0,0.0
-3.60359,-1.804188,6.716653,-25.969999,-1.89,39.549999,1729425690554.0,0.0
-4.790431,-4.666004,7.338787,-49.560001,11.69,53.549999,1729425690574.0,0.0
-7.121039,-8.903693,8.389235,-63.98,16.309999,54.740002,1729425690597.0,0.0
-8.860621,-13.122239,9.686146,-59.779999,5.04,31.01,1729425690615.0,0.0
-9.12144,-13.820943,7.89153,-44.240002,-11.48,-8.68,1729425690634.0,0.0
-6.549156,-8.700303,5.501099,-13.09,-32.41,-26.74,1729425690654.0,0.0
-4.771288,-5.130211,5.680561,11.41,-28.559999,-17.01,1729425690674.0,0.0
-6.211767,-4.82393,4.350152,22.049999,10.85,-44.240002,1729425690695.0,0.0
-6.281159,-2.854637,5.493921,49.209999,-1.12,-29.75,1729425690714.0,0.0
-5.4341,-1.739582,6.005985,33.950001,-15.12,-30.799999,1729425690735.0,0.0
-5.034499,-2.335395,6.18784,2.24,-16.24,-32.970001,1729425690755.0,0.0
-4.938786,-3.069991,5.515456,-25.969999,-17.08,-28.07,1729425690773.0,0.0
-4.185047,-2.478964,5.146961,-19.67,-21.210001,-12.25,1729425690795.0,0.0
-4.003192,-2.718246,6.45105,-3.08,-11.69,6.02,1729425690814.0,0.0
-5.443672,-4.890929,6.056234,-16.59,11.9,3.29,1729425690833.0,0.0
-6.754939,-5.812167,4.998606,-17.43,20.790001,8.68,1729425690854.0,0.0
-5.924629,-3.936193,5.816952,-4.06,-0.14,21.07,1729425690875.0,0.0
-4.383651,-3.366701,5.989235,-18.48,-22.75,20.299999,1729425690895.0,0.0
-3.795017,-4.601398,6.108876,-42.139999,-22.190001,25.83,1729425690914.0,0.0
-4.831109,-6.257231,5.769095,-48.299999,-7.77,35.349998,1729425690935.0,0.0
-6.372087,-8.161918,6.455836,-36.610001,3.08,40.18,1729425690955.0,0.0
-6.936793,-9.219545,6.886543,-29.540001,-2.45,19.18,1729425690974.0,0.0
-6.707082,-10.485349,6.831509,-22.960001,-17.360001,0.28,1729425690996.0,0.0
-4.711468,-7.460821,6.740582,-1.68,-24.360001,-10.64,1729425691015.0,0.0
-4.644469,-6.238089,6.125626,11.13,-3.01,-23.52,1729425691034.0,0.0
-6.144768,-6.515656,5.381458,-6.79,9.8,-35.209999,1729425691056.0,0.0
-5.907879,-5.9342,5.711668,5.53,-5.74,-40.110001,1729425691074.0,0.0
-4.685147,-4.268795,6.369694,19.809999,-13.440001,-44.380001,1729425691096.0,0.0
-4.39083,-2.991028,6.843473,18.27,-6.93,-39.549999,1729425691115.0,0.0
-4.685147,-2.091327,6.675975,7.28,0.98,-28.91,1729425691134.0,0.0
-4.603791,-2.311467,6.680761,-1.47,-1.96,-17.43,1729425691154.0,0.0
-5.091926,-4.019942,6.326623,-19.18,-0.49,-13.23,1729425691174.0,0.0
-5.481956,-4.278367,5.300103,-23.940001,3.85,-5.46,1729425691195.0,0.0
-4.625326,-2.926422,6.108876,-1.19,-11.13,13.23,1729425691214.0,0.0
-3.519842,-2.155933,5.718846,-9.52,-17.219999,22.26,1729425691234.0,0.0
-3.85723,-3.438486,5.474778,-29.960001,-5.04,36.470001,1729425691255.0,0.0
-5.000999,-5.254639,4.73061,-35.700001,10.01,50.889999,1729425691275.0,0.0
-6.065805,-8.128418,4.448257,-19.389999,11.41,54.110001,1729425691296.0,0.0
-6.960721,-11.609976,4.697111,-2.17,11.2,31.01,1729425691314.0,0.0
-7.573284,-12.787244,5.300103,36.959999,10.22,21.07,1729425691334.0,0.0
-5.812167,-9.08794,8.157133,69.580002,8.12,-2.03,1729425691355.0,0.0
-5.45085,-9.202796,8.193025,34.16,7.56,-40.389999,1729425691374.0,0.0
-6.34098,-10.762917,5.91745,2.52,13.23,-68.599998,1729425691395.0,0.0
-5.292924,-7.786245,5.426922,55.650002,2.38,-71.82,1729425691415.0,0.0
-4.223332,-3.270989,6.532406,110.110001,2.94,-72.519997,1729425691434.0,0.0
-3.948158,0.301496,6.532406,102.970001,10.99,-67.340004,1729425691460.0,0.0
-4.249653,1.447658,6.202196,61.040001,12.46,-51.450001,1729425691474.0,0.0
-4.144369,1.485943,6.053841,20.51,2.03,-31.85,1729425691496.0,0.0
-3.787838,0.234497,6.161518,-14.56,-8.82,-9.87,1729425691514.0,0.0
-4.079762,-2.957529,5.833702,-37.799999,-9.52,-1.26,1729425691534.0,0.0
-5.003392,-5.103891,4.867002,-35.420002,4.76,10.99,1729425691554.0,0.0
-4.551149,-2.998207,5.20439,-2.31,5.18,30.24,1729425691574.0,0.0
-3.278167,-1.275374,6.398407,13.3,-7.07,43.82,1729425691597.0,0.0
-3.266203,-2.931208,6.879365,-20.719999,3.01,49.349998,1729425691614.0,0.0
-5.300103,-6.673582,6.352944,-46.619999,19.110001,58.73,1729425691634.0,0.0
-6.802795,-9.221939,5.95095,-18.76,18.27,70.629997,1729425691661.0,0.0
-7.905886,-12.966705,7.278966,23.17,10.92,47.599998,1729425691673.0,0.0
-8.640482,-12.449856,6.458229,47.670002,9.03,-0.49,1729425691696.0,0.0
-5.546563,-7.814958,7.575676,107.239998,-17.08,-24.08,1729425691714.0,0.0
-5.101498,-5.034499,8.233703,107.169998,7.49,-51.380001,1729425691734.0,0.0
-6.628119,-4.666004,6.34098,81.269997,33.740002,-65.800003,1729425691754.0,0.0
-5.845665,-2.864209,5.778666,77.489998,8.68,-64.82,1729425691774.0,0.0
-3.914658,-0.12682,6.723832,58.099998,-9.8,-69.510002,1729425691795.0,0.0
-3.45045,1.162912,6.69751,21.42,3.01,-56.630001,1729425691814.0,0.0
-4.273581,1.191626,6.582655,-13.58,21.700001,-41.09,1729425691833.0,0.0
-4.790431,0.617348,5.924629,-34.16,18.48,-17.92,1729425691854.0,0.0
-4.378866,-0.897308,5.943772,-37.380001,4.06,-0.77,1729425691874.0,0.0
-4.589434,-3.505485,6.329016,-31.99,5.81,8.89,1729425691896.0,0.0
-5.711668,-5.429315,5.886343,-21.210001,21.91,15.05,1729425691914.0,0.0
-5.726025,-3.175276,6.001199,5.88,18.200001,30.309999,1729425691934.0,0.0
-4.177868,-1.691726,6.360123,16.030001,-3.85,38.360001,1729425691956.0,0.0
-3.07717,-1.512264,5.816952,-16.379999,-1.89,44.380001,1729425691974.0,0.0
-4.12044,-3.998406,6.151947,-31.5,15.47,60.27,1729425691995.0,0.0
-7.166504,-8.178668,7.692925,-25.690001,33.18,67.900002,1729425692014.0,0.0
-8.836694,-11.825329,9.662218,2.03,28.98,45.080002,1729425692033.0,0.0
-9.623933,-12.504892,9.209974,1.68,19.32,3.22,1729425692055.0,0.0
-7.740781,-7.62114,8.243275,31.5,-7.91,-9.1,1729425692075.0,0.0
-5.376673,-4.194618,7.585248,42.07,-17.219999,-28.139999,1729425692095.0,0.0
-5.680561,-4.699504,5.931807,21.98,-2.59,-39.549999,1729425692113.0,0.0
-6.429514,-3.818945,5.053641,25.620001,6.16,-42.420002,1729425692133.0,0.0
-5.393422,-1.655833,5.773881,44.170002,-4.76,-42.630001,1729425692154.0,0.0
-4.73061,-1.61037,6.836295,25.059999,-2.1,-54.740002,1729425692172.0,0.0
-5.285746,-1.198804,7.013363,8.68,3.57,-45.779999,1729425692194.0,0.0
-4.926822,-0.897308,7.831708,7.35,-0.56,-32.41,1729425692213.0,0.0
-4.441079,-0.217747,7.613962,-10.92,-1.26,-25.34,1729425692235.0,0.0
-4.409972,-0.445065,7.721639,-26.040001,-0.98,-6.86,1729425692255.0,0.0
-5.572884,-2.79721,6.809973,-44.52,7.0,4.13,1729425692273.0,0.0
-6.551548,-4.304688,5.816952,-38.639999,11.41,10.5,1729425692295.0,0.0
-4.625326,-0.722632,6.38405,-20.65,-1.89,21.210001,1729425692314.0,0.0
-3.431308,-0.399601,5.812167,-52.080002,-16.799999,37.240002,1729425692336.0,0.0
-3.979264,-2.67039,4.977071,-80.360001,-1.89,49.91,1729425692355.0,0.0
-5.515456,-5.190032,5.407779,-72.029999,7.42,62.439999,1729425692381.0,0.0
-7.015756,-8.252845,7.537392,-29.4,14.0,73.080002,1729425692395.0,0.0
-9.147761,-11.210374,8.214561,-11.27,22.049999,45.639999,1729425692414.0,0.0
-9.95175,-10.992627,8.331808,16.66,5.32,32.41,1729425692434.0,0.0
-7.953743,-8.126025,8.276773,36.82,-30.1,6.16,1729425692459.0,0.0
-5.381458,-6.032306,7.69771,30.309999,-47.810001,-21.42,1729425692473.0,0.0
-4.95075,-4.850252,7.111469,18.9,-33.389999,-26.32,1729425692497.0,0.0
-6.348158,-5.321638,6.479764,6.93,-13.02,-34.299999,1729425692580.0,0.0
-6.628119,-5.807381,5.426922,10.5,-14.7,-49.139999,1729425692580.0,0.0
-5.276174,-5.144568,5.558527,34.720001,-22.469999,-59.010002,1729425692581.0,0.0
-4.862216,-4.101298,6.309873,45.5,-13.37,-66.150002,1729425692581.0,0.0
-5.058427,-1.868794,6.594619,49.560001,-3.22,-58.380001,1729425692597.0,0.0
-4.39083,1.251446,5.589634,33.25,1.82,-46.34,1729425692615.0,0.0
-4.359723,2.67039,5.479564,4.06,7.21,-18.9,1729425692634.0,0.0
-6.185446,-1.20359,5.989235,-64.75,13.02,-9.73,1729425692654.0,0.0
-6.474977,-2.313859,4.199404,-80.290001,16.52,-1.82,1729425692674.0,0.0
-4.498507,-0.732204,5.221139,-54.740002,-16.59,24.219999,1729425692696.0,0.0
-2.37368,-0.557528,5.706882,-63.209999,-32.130001,38.849998,1729425692714.0,0.0
-2.380858,-2.380858,5.496314,-90.019997,-5.11,55.790001,1729425692734.0,0.0
-4.419543,-5.534599,5.326423,-88.760002,23.24,76.019997,1729425692755.0,0.0
-7.015756,-10.937593,6.589834,-61.740002,34.369999,79.449997,1729425692775.0,0.0
-9.183653,-15.582061,6.496514,-26.25,30.309999,52.5,1729425692796.0,0.0
-9.932607,-15.256638,8.487342,55.23,10.85,39.34,1729425692814.0,0.0
-8.575876,-9.583255,8.949157,93.239998,-15.75,2.87,1729425692835.0,0.0
-6.391229,-5.663811,7.939385,72.239998,-31.85,-24.99,1729425692855.0,0.0
-5.558527,-4.448257,6.977471,38.360001,-31.15,-38.5,1729425692874.0,0.0
-6.597012,-6.04427,6.223732,4.69,-18.9,-57.82,1729425692895.0,0.0
-6.415157,-4.744967,4.931608,11.2,-24.15,-71.610001,1729425692915.0,0.0
-4.788038,-3.141776,6.058627,39.689999,-30.66,-58.939999,1729425692934.0,0.0
-4.316652,-2.18704,6.345766,16.1,-23.870001,-71.400002,1729425692954.0,0.0
-3.728018,-0.59342,6.221339,13.3,-15.190001,-53.41,1729425692974.0,0.0
-3.735196,1.765903,6.9344,10.22,2.45,-19.25,1729425692995.0,0.0
-4.151547,0.844666,7.147361,-22.889999,2.45,0.7,1729425693015.0,0.0
-4.603791,-1.756332,6.096912,-59.639999,-6.09,13.3,1729425693034.0,0.0
-3.878766,-1.799403,4.632504,-66.989998,-12.11,24.219999,1729425693057.0,0.0
-2.768496,-1.210768,5.534599,-43.259998,-21.84,54.670002,1729425693073.0,0.0
-2.495714,-1.820938,5.807381,-58.099998,-6.44,66.989998,1729425693097.0,0.0
-4.302295,-4.929214,5.943772,-76.370003,14.56,77.349998,1729425693115.0,0.0
-6.73101,-10.370493,7.444071,-49.490002,26.32,85.75,1729425693134.0,0.0
-9.353544,-15.92902,7.810174,-24.780001,41.369999,51.170002,1729425693155.0,0.0
-10.490135,-16.271194,9.119047,29.889999,24.92,30.030001,1729425693174.0,0.0
-8.16431,-11.873186,8.961121,75.809998,-19.809999,-9.8,1729425693195.0,0.0
-5.213961,-7.972885,7.69771,83.300003,-35.139999,-42.91,1729425693215.0,0.0
-4.342973,-5.010571,5.84088,79.519997,-19.460001,-41.23,1729425693233.0,0.0
-5.704489,-3.838088,4.888536,66.5,3.5,-36.049999,1729425693255.0,0.0
-6.960721,-3.59402,5.412565,66.779999,4.13,-49.349998,1729425693274.0,0.0
-5.699703,-1.672583,5.010571,70.139999,-13.02,-64.889999,1729425693296.0,0.0
-4.055835,-1.694118,6.580262,53.830002,-17.99,-71.330002,1729425693314.0,0.0
-3.787838,0.009571,7.123433,24.57,-5.32,-59.639999,1729425693334.0,0.0
-3.079563,2.251646,6.297909,-2.24,2.94,-37.59,1729425693354.0,0.0
-2.806781,2.787638,6.436693,-24.5,4.76,-5.6,1729425693374.0,0.0
-3.414558,-0.409173,7.4345,-55.299999,11.55,4.76,1729425693395.0,0.0
-4.790431,-3.462414,6.719046,-78.75,28.559999,15.61,1729425693414.0,0.0
-4.704289,-2.117648,5.072784,-63.349998,23.24,40.459999,1729425693434.0,0.0
-3.333202,-0.832702,5.264209,-41.93,-3.43,60.970001,1729425693458.0,0.0
-3.132205,-1.90708,4.979464,-70.349998,5.04,67.480003,1729425693474.0,0.0
-5.015356,-4.934,5.379066,-81.199997,25.690001,83.230003,1729425693495.0,0.0
-7.71446,-11.49512,8.46102,-64.400002,37.939999,82.18,1729425693515.0,0.0
-10.712667,-17.3025,9.174082,-52.290001,43.049999,44.66,1729425693533.0,0.0
-11.430513,-16.993828,10.566705,13.58,17.08,21.84,1729425693554.0,0.0
-8.671589,-10.133603,8.673983,60.130001,-19.879999,-17.57,1729425693575.0,0.0
-5.800202,-5.118248,5.759524,60.900002,-29.75,-31.01,1729425693595.0,0.0
-6.67119,-4.656433,4.649254,49.77,-8.05,-43.75,1729425693614.0,0.0
-7.274181,-5.613562,4.017549,38.639999,-6.65,-81.970001,1729425693634.0,0.0
-4.713861,-2.921637,5.197211,59.57,-32.970001,-86.519997,1729425693654.0,0.0
-3.792624,-0.751346,5.06082,52.57,-24.639999,-81.550003,1729425693674.0,0.0
-3.658626,0.543171,6.486942,40.529999,-16.73,-59.43,1729425693703.0,0.0
-3.342773,2.344966,6.087341,8.4,-3.43,-41.509998,1729425693715.0,0.0
-2.849852,2.012364,5.850451,-22.82,-5.32,-15.05,1729425693733.0,0.0
-2.782853,-0.844666,6.534799,-57.260002,-7.49,0.21,1729425693754.0,0.0
-3.725625,-2.742175,5.134997,-81.059998,9.1,16.24,1729425693774.0,0.0
-4.051049,-2.065006,5.460421,-54.880001,11.62,48.860001,1729425693795.0,0.0
-3.455236,-1.06002,5.639884,-45.639999,2.73,70.279999,1729425693814.0,0.0
-3.907479,-3.400201,6.508478,-70.139999,4.76,77.07,1729425693834.0,0.0
-6.348158,-7.814958,7.436893,-85.050003,19.809999,85.610001,1729425693854.0,0.0
-8.669197,-13.615161,8.10449,-78.540001,23.799999,68.809998,1729425693874.0,0.0
-9.958927,-15.026926,7.393822,-64.68,11.2,42.07,1729425693895.0,0.0
-9.860823,-12.442677,6.199803,-13.16,-10.01,15.68,1729425693913.0,0.0
-7.271788,-7.398607,5.900701,9.8,-31.01,-17.08,1729425693934.0,0.0
-4.37408,-6.410372,5.632704,6.16,-43.259998,-15.61,1729425693954.0,0.0
-5.702096,-8.123632,5.553742,8.54,-4.41,-29.889999,1729425693974.0,0.0
-7.317252,-6.855437,5.570491,22.469999,22.540001,-75.669998,1729425693995.0,0.0
-5.017749,-4.266403,6.156733,47.389999,-37.240002,-61.599998,1729425694013.0,0.0
-3.349952,-2.754139,5.95095,29.960001,-36.959999,-72.449997,1729425694034.0,0.0
-2.940779,-1.694118,6.994221,21.84,-20.440001,-60.900002,1729425694054.0,0.0
-3.050849,-0.514457,6.848258,4.2,-2.45,-41.23,1729425694073.0,0.0
-2.969493,0.074178,5.833702,-21.42,1.68,-26.110001,1729425694095.0,0.0
-2.54357,-0.870987,5.103891,-45.290001,-6.44,-5.67,1729425694114.0,0.0
-3.113062,-4.197011,5.362316,-56.560001,-3.22,3.85,1729425694133.0,0.0
-4.197011,-4.649254,4.036692,-50.68,19.460001,9.73,1729425694153.0,0.0
-4.476971,-2.660819,4.948357,-0.91,21.49,42.349998,1729425694174.0,0.0
-3.570091,-1.100698,5.855237,9.1,8.33,54.529999,1729425694194.0,0.0
-4.108476,-3.98405,7.530212,-17.92,11.9,62.93,1729425694213.0,0.0
-6.67119,-9.887143,8.300702,-41.369999,23.59,62.299999,1729425694234.0,0.0
-9.315259,-15.311671,8.403593,-34.509998,24.639999,49.0,1729425694254.0,0.0
-10.004392,-14.416756,6.460621,-1.19,6.51,26.040001,1729425694273.0,0.0
-8.922836,-9.741181,4.986642,31.92,-9.03,-15.61,1729425694295.0,0.0
-3.708875,-6.07777,6.18784,40.740002,-35.700001,-26.25,1729425694313.0,0.0
-3.976871,-8.099705,5.65424,31.43,4.27,-54.810001,1729425694333.0,0.0
-6.041877,-7.546963,5.264209,48.580002,35.0,-75.739998,1729425694354.0,0.0
-5.134997,-3.998406,6.872187,85.610001,6.72,-54.950001,1729425694373.0,0.0
-3.656233,-1.586441,7.238289,65.099998,-6.09,-61.459999,1729425694395.0,0.0
-3.081956,-0.787239,6.685547,25.620001,-0.77,-56.07,1729425694420.0,0.0
-3.242275,-0.547956,5.776274,2.31,9.59,-36.540001,1729425694433.0,0.0
-3.613162,-0.526421,5.589634,-7.35,15.82,-14.91,1729425694457.0,0.0
-4.096512,-2.081756,6.534799,-6.16,17.99,-7.35,1729425694473.0,0.0
-5.515456,-3.914658,6.513263,0.07,31.5,-4.83,1729425694495.0,0.0
-5.69731,-1.574477,5.541777,28.700001,41.650002,8.75,1729425694514.0,0.0
-4.613362,0.294317,6.649654,52.5,17.43,38.990002,1729425694534.0,0.0
-3.079563,0.617348,6.472585,12.32,4.76,52.290001,1729425694554.0,0.0
-4.108476,-5.28096,7.391429,-27.299999,19.6,63.98,1729425694573.0,0.0
-7.240681,-11.614761,7.21436,-41.299999,38.080002,63.560001,1729425694599.0,0.0
-8.712267,-17.534603,8.269595,5.88,27.440001,49.0,1729425694614.0,0.0
-7.853244,-16.50569,7.501499,54.810001,9.38,3.08,1729425694633.0,0.0
-6.309873,-7.362715,7.068398,114.520004,-3.5,-13.51,1729425694655.0,0.0
-4.211368,-5.338387,6.446264,87.010002,-5.95,-42.279999,1729425694673.0,0.0
-5.213961,-5.615955,5.666204,27.93,3.85,-58.310001,1729425694695.0,0.0
-5.946165,-5.051248,4.95075,17.01,3.85,-54.950001,1729425694714.0,0.0
-4.783253,-2.782853,5.659025,40.25,-8.33,-54.599998,1729425694733.0,0.0
-4.682754,-0.33021,6.288338,28.98,-5.46,-52.009998,1729425694753.0,0.0
-4.496114,0.287139,6.374479,13.3,-3.01,-33.950001,1729425694774.0,0.0
-4.041477,0.665205,6.257231,-17.780001,-3.22,-26.32,1729425694793.0,0.0
-3.78066,0.562313,6.975078,-34.650002,-9.59,-1.54,1729425694813.0,0.0
-4.725825,-1.404587,7.795816,-51.73,-0.07,11.48,1729425694834.0,0.0
-6.025128,-2.581856,6.348158,-66.010002,14.21,21.49,1729425694853.0,0.0
-5.199604,-0.792024,5.194818,-66.5,-2.59,40.670002,1729425694873.0,0.0
-3.562913,0.351745,4.287938,-87.57,-30.450001,56.77,1729425694894.0,0.0
-2.907279,-1.275374,4.144369,-122.010002,-24.43,66.43,1729425694913.0,0.0
-4.261617,-4.268795,4.108476,-145.039993,4.06,81.340004,1729425694933.0,0.0
-7.9681,-13.8688,6.853044,-125.090004,19.460001,79.940002,1729425694953.0,0.0
-10.459028,-21.262623,6.570691,-106.470001,21.91,29.190001,1729425694973.0,0.0
-8.961121,-14.378471,6.704689,0.91,-5.25,13.16,1729425694995.0,0.0
-5.615955,-6.632904,6.092126,85.889999,-36.540001,-27.790001,1729425695015.0,0.0
-4.721039,-5.113462,5.900701,77.629997,-14.0,-44.240002,1729425695033.0,0.0
-6.60419,-5.639884,5.462814,56.139999,20.51,-69.510002,1729425695054.0,0.0
-7.477571,-5.257031,6.285945,64.050003,12.6,-74.970001,1729425695073.0,0.0
-5.838487,-2.471786,5.855237,68.669998,-16.030001,-81.690002,1729425695097.0,0.0
-4.414758,0.047856,6.888937,60.900002,-29.049999,-65.519997,1729425695113.0,0.0
-3.847659,1.39023,6.750153,25.76,-20.370001,-51.099998,1729425695133.0,0.0
-3.938586,1.323231,6.498906,-11.83,-3.99,-34.16,1729425695154.0,0.0
-4.378866,0.897308,5.982057,-40.880001,-0.63,-11.9,1729425695173.0,0.0
-4.323831,-0.253639,6.159126,-55.93,-10.99,6.93,1729425695195.0,0.0
-4.991428,-2.0004,5.087141,-68.459999,-7.91,23.1,1729425695213.0,0.0
-4.800002,-0.918844,4.323831,-61.32,-4.62,42.209999,1729425695233.0,0.0
-3.883551,-1.026521,5.343173,-49.490002,-24.99,73.5,1729425695253.0,0.0
-3.031706,-4.015156,5.922236,-75.32,-29.469999,75.18,1729425695273.0,0.0
-4.82393,-9.908678,7.642675,-91.279999,-15.54,86.590004,1729425695294.0,0.0
-7.334002,-16.922041,7.192825,-69.93,1.19,82.599998,1729425695313.0,0.0
-6.850651,-17.702101,7.015756,-21.35,-3.29,57.049999,1729425695333.0,0.0
-5.773881,-14.627325,5.259424,46.48,-16.17,-7.98,1729425695353.0,0.0
-5.15414,-8.944371,4.206582,86.800003,-3.43,-30.24,1729425695374.0,0.0
-4.520042,-5.347959,5.010571,98.769997,-5.6,-39.060001,1729425695403.0,0.0
-5.024928,-5.072784,6.221339,71.260002,6.02,-56.630001,1729425695423.0,0.0
-5.819345,-3.893122,6.470192,49.07,16.940001,-71.330002,1729425695434.0,0.0
-5.867201,-2.426322,6.922436,41.02,1.75,-55.09,1729425695457.0,0.0
-4.589434,-1.366302,7.54457,21.07,-23.379999,-53.34,1729425695472.0,0.0
-3.613162,-1.031307,7.020542,-5.46,-26.110001,-43.119999,1729425695495.0,0.0
-3.440879,-0.409173,6.52762,-14.49,-15.68,-23.1,1729425695513.0,0.0
-3.474378,0.052642,6.396015,-26.880001,-5.39,-8.05,1729425695533.0,0.0
-3.85723,-1.574477,6.946364,-41.439999,-8.26,7.21,1729425695553.0,0.0
-5.000999,-3.694518,6.070591,-57.119999,-2.8,12.81,1729425695572.0,0.0
-4.867002,-2.720639,5.345565,-49.98,-1.61,33.740002,1729425695593.0,0.0
-3.369094,-1.70369,5.326423,-49.84,-32.619999,58.59,1729425695615.0,0.0
-2.352145,-4.570292,6.096912,-72.519997,-43.400002,65.239998,1729425695632.0,0.0
-4.364508,-10.217353,5.769095,-85.050003,-13.02,69.230003,1729425695653.0,0.0
-7.082755,-17.8361,6.479764,-15.82,8.54,43.540001,1729425695673.0,0.0
-7.049256,-15.314064,6.159126,49.700001,9.1,11.13,1729425695703.0,0.0
-6.833901,-9.466006,5.278566,90.790001,13.09,-14.42,1729425695713.0,0.0
-5.505885,-5.259424,4.943572,91.349998,0.14,-34.299999,1729425695734.0,0.0
-4.338188,-5.362316,5.484349,59.57,-5.32,-46.48,1729425695753.0,0.0
-5.438886,-5.9342,5.582455,20.440001,22.33,-74.830002,1729425695773.0,0.0
-6.419943,-4.175476,6.778866,35.630001,18.76,-53.760002,1729425695804.0,0.0
-5.218746,-2.129612,7.039684,41.02,-0.84,-53.060001,1729425695812.0,0.0
-4.287938,-1.244268,7.200003,18.549999,-6.37,-54.389999,1729425695833.0,0.0
-3.723232,-0.918844,6.666404,-12.67,-5.74,-37.099998,1729425695854.0,0.0
-3.266203,-0.492921,5.539384,-37.52,0.07,-20.93,1729425695872.0,0.0
-3.273381,-1.438086,5.570491,-44.380001,2.1,-1.12,1729425695894.0,0.0
-4.07737,-4.122833,6.460621,-46.200001,4.55,7.56,1729425695913.0,0.0
-5.453243,-5.347959,5.596812,-34.860001,20.440001,14.35,1729425695932.0,0.0
-5.146961,-2.76371,5.783452,-0.42,16.59,38.290001,1729425695953.0,0.0
-3.37388,-1.272982,5.833702,-0.84,-11.13,51.450001,1729425695973.0,0.0
-2.411965,-3.416951,6.630512,-32.689999,-12.74,55.510002,1729425695996.0,0.0
-5.749953,-9.23151,6.374479,-50.610001,24.290001,76.650002,1729425696013.0,0.0
-7.290931,-13.811372,7.508677,-21.42,23.799999,66.57,1729425696033.0,0.0
-7.745567,-16.642082,6.723832,3.36,8.89,20.440001,1729425696053.0,0.0
-6.89133,-13.344771,6.034698,60.549999,3.85,-2.31,1729425696073.0,0.0
-5.326423,-7.401,5.742774,100.519997,2.59,-30.380001,1729425696103.0,0.0
-4.232903,-3.802195,5.481956,89.669998,9.1,-41.720001,1729425696112.0,0.0
-5.190032,-5.441278,6.278766,58.52,28.559999,-53.48,1729425696133.0,0.0
-6.608976,-5.123034,6.623333,34.720001,36.259998,-70.699997,1729425696153.0,0.0
-5.91745,-2.876173,6.685547,63.420002,10.08,-49.139999,1729425696172.0,0.0
-4.146761,-2.09372,7.073184,56.77,-4.83,-55.369999,1729425696193.0,0.0
-4.558327,-1.945365,6.094519,28.210001,10.15,-45.360001,1729425696212.0,0.0
-4.551149,-0.42353,6.338587,7.7,16.940001,-28.91,1729425696232.0,0.0
-4.369294,-0.270389,6.087341,-19.879999,11.48,-20.02,1729425696253.0,0.0
-4.232903,-1.146162,6.80758,-28.700001,1.26,-8.4,1729425696272.0,0.0
-5.012963,-3.101098,7.54457,-24.15,6.72,9.03,1729425696295.0,0.0
-5.4676,-3.37388,6.21416,-17.710001,13.79,17.08,1729425696312.0,0.0
-3.168097,-2.158326,6.106483,-2.59,-6.93,40.32,1729425696333.0,0.0
-2.368894,-4.232903,7.573284,-29.33,-23.59,55.369999,1729425696353.0,0.0
-4.627719,-9.437292,7.623533,-45.290001,-2.94,62.439999,1729425696372.0,0.0
-6.513263,-14.208582,7.003791,-18.9,5.46,55.16,1729425696394.0,0.0
-6.721439,-14.277972,7.267002,32.549999,-2.17,28.98,1729425696412.0,0.0
-7.207181,-10.521241,7.566105,78.610001,-1.12,3.85,1729425696432.0,0.0
-6.865008,-5.721239,7.046863,91.629997,-1.54,-21.0,1729425696457.0,0.0
-5.441278,-4.187439,5.891129,60.200001,-17.01,-40.110001,1729425696472.0,0.0
-5.412565,-5.539384,5.024928,25.41,-16.66,-56.0,1729425696494.0,0.0
-5.182854,-3.675375,5.63749,43.959999,-9.31,-51.66,1729425696512.0,0.0
-4.622933,-0.689133,6.599405,68.18,1.12,-39.689999,1729425696532.0,0.0
-4.797609,-0.098106,6.405586,46.48,14.49,-41.439999,1729425696552.0,0.0
-4.706682,-0.459422,6.403193,21.139999,18.690001,-30.799999,1729425696573.0,0.0
-4.508078,-1.06002,5.87438,-6.65,22.540001,-22.190001,1729425696596.0,0.0
-3.969693,-1.256232,6.831509,-11.69,15.54,-6.44,1729425696614.0,0.0
-4.232903,-2.088934,7.652246,-15.61,16.870001,6.3,1729425696632.0,0.0
-5.922236,-3.74716,7.393822,-21.280001,29.26,17.219999,1729425696653.0,0.0
-5.07757,-3.089134,6.494121,-19.25,19.879999,26.880001,1729425696673.0,0.0
-2.928815,-3.785445,6.206983,-28.280001,-26.32,29.68,1729425696695.0,0.0
-2.842674,-7.228717,6.771688,-27.860001,-22.33,40.950001,1729425696712.0,0.0
-4.9675,-10.887343,7.676175,-0.49,5.11,43.400002,1729425696732.0,0.0
-6.350551,-10.995021,7.197611,47.32,19.389999,32.34,1729425696753.0,0.0
-6.869793,-8.348558,6.833901,82.389999,19.25,14.21,1729425696773.0,0.0
-7.003791,-5.290531,7.506285,91.209999,17.85,-12.81,1729425696795.0,0.0
-6.496514,-4.627719,7.446464,75.040001,11.69,-34.369999,1729425696815.0,0.0
-6.056234,-5.338387,6.211767,48.16,9.52,-49.700001,1729425696832.0,0.0
-5.599205,-3.661019,6.285945,57.189999,12.74,-50.400002,1729425696852.0,0.0
-5.45085,-1.256232,7.063612,60.060001,26.040001,-53.549999,1729425696873.0,0.0
-5.754738,-0.306281,6.953543,32.619999,31.639999,-54.950001,1729425696894.0,0.0
-5.589634,-0.179462,7.216753,6.02,21.35,-51.869999,1729425696912.0,0.0
-4.723432,0.928415,7.319644,-10.78,6.65,-38.360001,1729425696940.0,0.0
-4.414758,0.973879,6.489335,-30.17,6.93,-19.809999,1729425696953.0,0.0
-4.881358,-0.705883,7.326823,-41.369999,3.15,1.82,1729425696971.0,0.0
-5.996413,-2.935993,7.030113,-55.580002,4.62,11.55,1729425696995.0,0.0
-5.98445,-1.852045,7.479963,-39.619999,1.26,29.469999,1729425697012.0,0.0
-4.412365,-1.828116,6.874579,-53.200001,-29.190001,31.57,1729425697033.0,0.0
-3.572484,-3.261417,6.415157,-80.150002,-36.189999,37.170002,1729425697053.0,0.0
-4.070191,-6.539584,7.082755,-67.129997,-28.0,47.110001,1729425697073.0,0.0
-5.4676,-8.248059,7.678568,-37.939999,-6.51,52.080002,1729425697093.0,0.0
-6.809973,-8.49452,7.757531,-10.78,5.25,43.610001,1729425697113.0,0.0
-8.374879,-8.267202,8.539984,8.89,-3.01,34.509998,1729425697131.0,0.0
-7.795816,-6.130411,7.645068,16.24,-18.549999,12.95,1729425697153.0,0.0
-6.192625,-4.201797,7.293324,17.43,-22.26,-5.67,1729425697173.0,0.0
-6.099305,-4.319045,6.369694,3.43,-7.63,-23.799999,1729425697193.0,0.0
-6.259624,-4.627719,4.883751,3.57,-3.15,-33.670002,1729425697216.0,0.0
-4.991428,-3.929015,5.233103,26.880001,-8.96,-32.060001,1729425697244.0,0.0
-4.792823,-2.579463,6.04427,34.439999,9.45,-37.939999,1729425697252.0,0.0
-5.201996,-1.344766,6.704689,25.48,21.559999,-35.209999,1729425697272.0,0.0
-4.409972,0.502493,7.022934,-4.06,12.53,-29.190001,1729425697293.0,0.0
-3.383451,-0.112463,6.975078,-43.119999,4.55,-10.99,1729425697313.0,0.0
-3.778267,-3.321238,6.632904,-74.269997,3.99,3.5,1729425697331.0,0.0
-6.149554,-4.510471,5.304887,-50.610001,27.440001,31.85,1729425697353.0,0.0
-5.089533,-1.37348,5.510671,-19.32,12.11,42.490002,1729425697371.0,0.0
-3.818945,-1.148555,5.28096,-46.130001,-7.42,40.740002,1729425697393.0,0.0
-4.599005,-4.618148,5.391029,-68.739998,-3.64,54.040001,1729425697414.0,0.0
-6.202196,-7.834101,6.474977,-57.82,4.76,64.400002,1729425697431.0,0.0
-7.252645,-9.042477,7.795816,-34.860001,10.5,57.049999,1729425697454.0,0.0
-27.603601,-10.700702,7.377072,-34.09,-5.46,15.82,1729425697472.0,0.0
5.161318,-6.551548,7.798209,-63.490002,-202.720001,0.42,1729425697494.0,0.0
-2.105684,-8.647661,7.56132,-61.740002,-6.23,55.439999,1729425697567.0,0.0
-7.161718,-13.77548,4.515256,-34.93,75.110001,-16.73,1729425697570.0,0.0
-8.202596,-6.812366,5.9677,89.040001,95.690002,-63.77,1729425697570.0,0.0
-7.661818,-2.553142,6.726225,111.93,35.630001,-29.75,1729425697571.0,0.0
-5.489135,-0.351745,6.71426,71.400002,-6.58,-51.939999,1729425697597.0,0.0
-4.802395,-0.047856,6.195018,17.85,-4.06,-56.700001,1729425697613.0,0.0
-4.749753,-1.0002,5.812167,-26.25,-3.5,-50.470001,1729425697633.0,0.0
-4.498507,-2.129612,5.742774,-47.459999,-7.56,-32.41,1729425697656.0,0.0
-4.436293,-2.725425,6.630512,-37.099998,-7.63,-17.57,1729425697671.0,0.0
-4.998606,-3.87398,6.915257,-3.71,1.82,4.69,1729425697692.0,0.0
-6.26441,-3.52702,5.733203,-0.42,15.75,16.17,1729425697712.0,0.0
-5.711668,-2.40718,5.76431,3.01,0.14,26.950001,1729425697731.0,0.0
-3.828516,-2.775674,5.795416,-22.960001,-28.84,23.030001,1729425697752.0,0.0
-3.45045,-5.388636,6.099305,-45.290001,-24.639999,29.889999,1729425697772.0,0.0
-4.905287,-9.365508,6.623333,-30.940001,-4.69,37.170002,1729425697792.0,0.0
-6.67119,-10.9352,6.912865,3.08,15.12,30.59,1729425697811.0,0.0
-6.989435,-9.789038,7.257431,45.43,13.72,16.309999,1729425697832.0,0.0
-7.329216,-8.530413,7.460821,60.48,9.73,-7.56,1729425697852.0,0.0
-6.541977,-6.379266,6.62094,57.959999,4.76,-21.91,1729425697872.0,0.0
-5.134997,-5.795416,6.82433,49.139999,0.42,-39.689999,1729425697893.0,0.0
-5.472386,-6.484549,6.809973,33.040001,12.74,-56.630001,1729425697912.0,0.0
-6.092126,-4.845466,7.302894,44.310001,21.210001,-58.380001,1729425697931.0,0.0
-5.986843,-2.813959,7.601997,52.220001,16.52,-55.580002,1729425697952.0,0.0
-5.515456,-1.531406,5.972485,30.66,7.84,-56.490002,1729425697971.0,0.0
-4.677969,-0.16989,5.417351,16.870001,-0.07,-38.080002,1729425697992.0,0.0
-4.206582,-0.528814,5.168497,-6.23,0.42,-26.809999,1729425698012.0,0.0
-4.759324,-2.232504,5.99402,-21.77,3.08,-1.82,1729425698032.0,0.0
-5.721239,-3.321238,5.13739,-17.15,15.05,8.05,1729425698052.0,0.0
-5.455636,-2.0004,4.333402,-4.9,17.360001,19.389999,1729425698072.0,0.0
-4.244867,-0.918844,5.111069,-1.33,-3.43,34.16,1729425698092.0,0.0
-3.28056,-1.07677,5.252246,-24.5,-2.31,39.48,1729425698113.0,0.0
-4.091727,-3.907479,6.525227,-32.41,12.67,60.41,1729425698131.0,0.0
-6.60419,-8.185846,7.659425,-22.120001,34.09,67.690002,1729425698152.0,0.0
-8.831908,-11.01177,9.470792,3.36,36.540001,54.810001,1729425698172.0,0.0
-18.549162,-11.282159,8.563912,19.110001,18.9,30.17,1729425698193.0,0.0
-3.895515,-13.619946,7.513463,10.15,-89.32,24.57,1729425698217.0,0.0
-8.212167,-6.491727,5.367101,33.459999,-8.33,-54.389999,1729425698263.0,0.0
-8.800802,-5.206782,5.314459,104.650002,45.150002,-52.5,1729425698313.0,0.0
-6.161518,-2.864209,6.185446,105.419998,1.54,-61.740002,1729425698313.0,0.0
-5.422136,-0.981057,6.427122,85.75,11.55,-65.449997,1729425698314.0,0.0
-5.721239,0.299103,6.192625,59.849998,26.110001,-57.049999,1729425698331.0,0.0
-5.532206,-0.086142,5.419744,23.17,21.280001,-41.439999,1729425698352.0,0.0
-5.089533,-1.131805,6.30748,-13.72,0.35,-23.799999,1729425698370.0,0.0
-5.455636,-1.904687,6.350551,-20.58,3.85,-10.15,1729425698390.0,0.0
-5.419744,-0.641276,5.216353,-22.469999,13.37,9.66,1729425698410.0,0.0
-4.141976,-0.289532,5.946165,-33.32,-7.98,26.32,1729425698430.0,0.0
-2.921637,-1.308874,6.585048,-65.660004,-19.950001,34.369999,1729425698453.0,0.0
-3.931407,-5.340781,7.286145,-81.340004,-3.15,49.490002,1729425698469.0,0.0
-6.448657,-9.607183,8.078169,-64.68,15.190001,51.240002,1729425698491.0,0.0
-7.927422,-11.595619,9.303294,-32.900002,11.2,40.810001,1729425698511.0,0.0
-8.477771,-10.411172,9.116654,-4.27,-3.5,17.5,1729425698529.0,0.0
-7.848458,-6.754939,8.23131,25.41,-19.530001,4.55,1729425698550.0,0.0
-6.491727,-3.988836,8.068598,17.85,-25.27,-13.65,1729425698569.0,0.0
-7.070791,-4.601398,7.056434,-19.6,-13.93,-31.710001,1729425698590.0,0.0
-7.463214,-4.347759,6.159126,-42.630001,-15.68,-42.77,1729425698612.0,0.0
-6.778866,-3.294917,5.24746,-41.369999,-34.93,-37.310001,1729425698630.0,0.0
-5.321638,-2.179861,5.070391,-37.380001,-47.110001,-34.23,1729425698651.0,0.0
-4.711468,-1.098306,5.079963,-38.290001,-42.349998,-19.6,1729425698671.0,0.0
-4.304688,-0.224925,5.974878,-52.990002,-29.889999,-3.78,1729425698691.0,0.0
-5.003392,-2.402394,6.642475,-63.349998,-21.0,6.65,1729425698711.0,0.0
-5.13739,-2.230111,4.991428,-68.040001,-11.55,12.88,1729425698732.0,0.0
-3.742374,-2.09372,6.151947,-39.48,-31.639999,36.259998,1729425698752.0,0.0
-2.038685,-2.258825,5.362316,-50.82,-36.610001,40.32,1729425698770.0,0.0
-2.0004,-4.515256,5.364708,-58.240002,-13.16,50.959999,1729425698793.0,0.0
-3.711268,-6.235696,4.445865,-44.939999,16.24,69.160004,1729425698813.0,0.0
-5.532206,-10.461421,7.546963,-1.12,28.700001,72.519997,1729425698831.0,0.0
-7.953743,-14.359328,8.142776,11.76,43.470001,38.220001,1729425698856.0,0.0
-9.753145,-14.165509,9.84168,56.77,29.68,25.41,1729425698870.0,0.0
-8.487342,-8.673983,9.556933,81.410004,-10.43,-2.59,1729425698891.0,0.0
-5.735595,-4.505685,7.817351,56.91,-35.139999,-27.790001,1729425698911.0,0.0
-5.680561,-5.309673,5.910272,10.85,-26.530001,-38.009998,1729425698931.0,0.0
-6.819544,-7.04447,3.823731,-12.46,-14.35,-63.700001,1729425698951.0,0.0
-5.67099,-5.118248,4.146761,35.77,-24.15,-60.41,1729425698979.0,0.0
-4.369294,-3.012564,5.726025,60.970001,-17.639999,-70.209999,1729425698993.0,0.0
-5.039285,-0.009571,5.771489,53.200001,2.73,-53.549999,1729425699012.0,0.0
-4.701896,1.770689,5.058427,12.95,11.48,-33.040001,1729425699031.0,0.0
-4.441079,1.246661,5.699703,-18.969999,2.87,-11.55,1729425699053.0,0.0
-4.900501,-2.158326,6.589834,-49.139999,-1.33,-4.27,1729425699070.0,0.0
-5.659025,-3.907479,5.52742,-54.110001,9.17,7.0,1729425699091.0,0.0
-4.929214,-2.383251,5.754738,-21.280001,-0.7,35.91,1729425699111.0,0.0
-3.177669,-1.801795,5.651847,-26.18,-13.79,40.32,1729425699132.0,0.0
-2.598605,-3.208775,5.192425,-57.330002,-4.13,47.389999,1729425699153.0,0.0
-3.713661,-5.802595,4.945964,-71.82,19.040001,62.09,1729425699173.0,0.0
-6.235696,-11.456835,6.774081,-48.93,36.470001,68.32,1729425699191.0,0.0
-9.023334,-16.735401,7.207181,-21.700001,48.509998,31.780001,1729425699211.0,0.0
-10.167104,-15.273388,9.209974,49.77,30.030001,14.91,1729425699230.0,0.0
-8.595018,-8.693125,9.224331,93.379997,-7.77,-13.37,1729425699252.0,0.0
-5.733203,-4.295116,7.542177,73.360001,-27.51,-40.25,1729425699270.0,0.0
-5.307281,-4.771288,5.702096,34.509998,-16.450001,-50.889999,1729425699294.0,0.0
-6.266802,-5.491528,4.268795,9.1,-2.8,-69.510002,1729425699310.0,0.0
-5.532206,-4.436293,4.603791,42.98,-9.38,-66.010002,1729425699332.0,0.0
-4.800002,-0.947558,6.312266,56.07,-6.09,-80.220001,1729425699351.0,0.0
-4.342973,1.521835,6.302694,50.610001,4.41,-41.02,1729425699370.0,0.0
-3.713661,2.610569,6.04427,20.23,7.56,-26.530001,1729425699393.0,0.0
-4.024727,0.827917,7.034898,-16.24,9.66,-6.02,1729425699413.0,0.0
-5.4006,-2.213361,6.606583,-48.509998,16.73,4.76,1729425699430.0,0.0
-5.819345,-2.196611,4.831109,-49.84,19.040001,22.469999,1729425699456.0,0.0
-4.500899,-0.942772,5.307281,-26.110001,-6.79,50.119999,1729425699472.0,0.0
-2.909672,-1.052842,5.551349,-50.049999,-17.43,54.670002,1729425699494.0,0.0
-3.232704,-3.584448,5.283352,-74.340004,3.29,68.879997,1729425699511.0,0.0
-5.178068,-7.082755,6.003592,-69.019997,28.0,86.169998,1729425699530.0,0.0
-7.946564,-13.35913,7.441679,-47.459999,38.150002,73.5,1729425699551.0,0.0
-9.944571,-16.448263,8.099705,-16.799999,34.720001,43.119999,1729425699571.0,0.0
-9.939785,-12.940384,9.085547,36.889999,-1.54,23.379999,1729425699594.0,0.0
-7.345965,-8.018349,8.499306,59.010002,-33.529999,-14.35,1729425699611.0,0.0
-5.407779,-4.74736,6.726225,41.09,-38.709999,-33.670002,1729425699630.0,0.0
-5.383851,-4.524827,4.993821,10.64,-21.629999,-44.66,1729425699651.0,0.0
-6.151947,-5.570491,4.113262,-0.63,-15.61,-58.799999,1729425699671.0,0.0
-4.012764,-2.646462,4.565506,41.860001,-21.210001,-50.959999,1729425699699.0,0.0
-3.67059,-0.246461,5.04407,49.07,1.19,-43.68,1729425699710.0,0.0
-3.751946,1.45005,5.123034,36.119999,19.110001,-20.23,1729425699732.0,0.0
-4.146761,1.442872,5.826523,12.53,31.92,-4.41,1729425699751.0,0.0
-5.618347,-0.629312,6.51087,-13.3,39.200001,12.53,1729425699771.0,0.0
-7.123433,-2.218147,6.142376,-31.57,43.889999,26.18,1729425699793.0,0.0
-7.006185,-1.648655,6.051448,-35.07,26.18,39.200001,1729425699810.0,0.0
-5.185246,-2.07697,6.577869,-48.02,-5.04,49.279999,1729425699830.0,0.0
-4.256832,-4.974678,6.920043,-78.190002,-11.27,52.220001,1729425699851.0,0.0
-5.804988,-10.040283,7.209574,-85.330002,5.53,60.549999,1729425699873.0,0.0
-7.817351,-15.048461,6.869793,-58.73,17.219999,48.439999,1729425699892.0,0.0
-8.575876,-14.859427,6.171089,2.03,14.14,22.610001,1729425699911.0,0.0
-8.214561,-10.372886,6.946364,76.090004,10.15,-0.49,1729425699930.0,0.0
-7.645068,-6.534799,6.943972,77.699997,7.14,-41.02,1729425699950.0,0.0
-6.659225,-4.323831,5.67099,57.049999,-9.45,-53.830002,1729425699970.0,0.0
-6.329016,-5.525027,5.91745,37.939999,-16.24,-59.990002,1729425699991.0,0.0
-5.831308,-2.833102,5.946165,38.57,-13.93,-71.610001,1729425700010.0,0.0
-5.225924,-1.607977,6.652047,52.709999,-11.69,-57.82,1729425700029.0,0.0
-5.345565,-0.588634,5.87438,18.129999,-4.13,-55.510002,1729425700050.0,0.0
-4.867002,0.275175,5.991628,10.36,-7.35,-35.07,1729425700069.0,0.0
-4.309474,1.572084,5.625526,-6.37,-3.43,-21.98,1729425700089.0,0.0
-4.139583,1.366302,6.135197,-27.299999,-2.8,1.33,1729425700110.0,0.0
-4.84068,-0.935594,6.329016,-51.029999,0.28,15.82,1729425700130.0,0.0
-5.898308,-2.337788,5.290531,-64.75,9.24,30.940001,1729425700150.0,0.0
-5.209175,-1.641476,5.539384,-48.509998,-5.6,56.420002,1729425700170.0,0.0
-3.866802,-2.361716,7.013363,-56.77,-23.799999,66.709999,1729425700192.0,0.0
-4.673182,-6.046663,7.015756,-89.32,-11.62,69.160004,1729425700211.0,0.0
-7.192825,-10.51167,6.98465,-85.959999,5.95,75.18,1729425700232.0,0.0
-8.190632,-13.268202,6.814759,-53.760002,-0.35,58.59,1729425700251.0,0.0
-8.317451,-12.468999,6.388836,-8.12,-10.64,35.209999,1729425700270.0,0.0
-8.240881,-10.736595,7.190433,42.630001,-17.290001,10.01,1729425700292.0,0.0
-7.365108,-8.267202,7.032506,56.560001,-26.040001,-23.59,1729425700312.0,0.0
-5.702096,-5.123034,6.312266,65.730003,-39.130001,-30.940001,1729425700333.0,0.0
-5.376673,-5.429315,5.690133,49.07,-29.049999,-37.310001,1729425700352.0,0.0
-6.257231,-5.513064,4.685147,45.360001,-19.530001,-54.32,1729425700372.0,0.0
-5.158926,-2.861816,4.802395,66.849998,-17.360001,-48.23,1729425700393.0,0.0
-4.639683,-1.533799,4.907679,53.34,-6.37,-57.189999,1729425700411.0,0.0
-4.469792,-0.547956,5.503492,38.920002,0.63,-43.959999,1729425700431.0,0.0
-4.192225,0.739382,5.79781,13.79,10.15,-33.459999,1729425700454.0,0.0
-4.632504,0.528814,6.759724,-11.9,12.74,-14.56,1729425700473.0,0.0
-5.297709,-0.662812,6.723832,-37.310001,10.57,-0.91,1729425700492.0,0.0
-5.221139,-0.299103,6.750153,-48.299999,5.18,18.620001,1729425700512.0,0.0
-4.06062,0.332602,7.396214,-59.010002,-11.97,39.549999,1729425700531.0,0.0
-3.113062,0.715454,6.977471,-102.970001,-17.710001,51.310001,1729425700551.0,0.0
-3.148954,-0.806381,6.556334,-155.610001,-9.66,66.709999,1729425700571.0,0.0
-5.082355,-4.871787,6.800402,-208.039993,-3.36,81.410004,1729425700596.0,0.0
-7.448857,-9.401401,5.508278,-235.619995,-4.2,89.110001,1729425700612.0,0.0
-8.913264,-12.739388,4.101298,-254.380005,-12.88,67.199997,1729425700631.0,0.0
-9.092726,-13.55534,3.282953,-238.210007,-43.82,42.84,1729425700652.0,0.0
-7.910671,-11.954542,3.955336,-198.589996,-79.800003,18.129999,1729425700671.0,0.0
-6.305088,-10.937593,4.17069,-182.070007,-93.099998,-8.82,1729425700693.0,0.0
-5.95095,-9.035298,2.85703,-193.130005,-67.129997,-24.290001,1729425700713.0,0.0
-6.515656,-8.85823,3.371487,-200.339996,-55.510002,-43.610001,1729425700730.0,0.0
-6.149554,-9.10469,4.350152,-229.669998,-55.09,-76.019997,1729425700753.0,0.0
-5.515456,-8.898908,0.887737,-250.110001,-48.650002,-84.349998,1729425700771.0,0.0
-4.737789,-11.023734,0.502493,-203.559998,-31.15,-92.610001,1729425700792.0,0.0
-4.220939,-11.375479,0.141177,-159.949997,-6.93,-94.360001,1729425700813.0,0.0
-3.323631,-10.15514,-1.45005,-68.389999,20.09,-76.019997,1729425700832.0,0.0
-2.770889,-9.281759,-1.981257,26.110001,41.860001,-61.459999,1729425700851.0,0.0
-2.335395,-8.547162,-2.70389,84.489998,59.709999,-58.029999,1729425700873.0,0.0
-2.050649,-8.26481,-1.892723,110.879997,72.309998,-50.259998,1729425700891.0,0.0
-1.952543,-7.499106,-0.746561,115.220001,79.379997,-35.84,1729425700911.0,0.0
-1.713261,-6.415157,0.569492,112.980003,79.099998,-22.540001,1729425700931.0,0.0
-1.761117,-5.288138,1.359123,98.559998,72.169998,-8.89,1729425700952.0,0.0
-1.859223,-4.773681,1.698904,85.260002,57.260002,2.1,1729425700972.0,0.0
-2.053042,-5.242674,3.022135,103.25,42.209999,17.85,1729425700991.0,0.0
-2.026721,-4.802395,3.519842,115.779999,30.380001,38.639999,1729425701019.0,0.0
-2.737389,-3.0006,3.943372,97.090004,24.5,57.260002,1729425701030.0,0.0
-4.488935,-5.369494,5.151747,19.67,26.040001,66.010002,1729425701050.0,0.0
-7.539784,-10.645668,7.910671,-30.1,16.309999,59.639999,1729425701073.0,0.0
-9.501899,-11.858829,5.529813,-78.610001,16.030001,47.18,1729425701092.0,0.0
-8.595018,-11.693724,4.400401,-72.800003,-20.58,33.529999,1729425701112.0,0.0
-6.750153,-11.253445,1.765903,-66.220001,-33.25,6.72,1729425701132.0,0.0
-5.355137,-11.700903,-0.528814,-58.52,-5.74,-24.92,1729425701151.0,0.0
-4.634897,-11.203196,0.378066,-37.310001,12.46,-41.650002,1729425701173.0,0.0
-4.627719,-11.004591,1.655833,-25.34,31.57,-51.310001,1729425701194.0,0.0
-4.443472,-10.135997,1.768296,-38.150002,46.759998,-61.040001,1729425701211.0,0.0
-3.751946,-9.413363,1.270589,-45.080002,48.509998,-65.590004,1729425701231.0,0.0
-2.823531,-8.573483,0.174676,-48.299999,48.23,-61.32,1729425701252.0,0.0
-2.440679,-8.176274,0.055035,-33.110001,50.959999,-52.360001,1729425701272.0,0.0
-2.749353,-8.628519,1.634298,28.700001,40.25,-35.0,1729425701293.0,0.0
-2.433501,-5.151747,3.529413,94.779999,28.98,-14.49,1729425701313.0,0.0
-2.24686,-3.038885,4.627719,107.730003,19.67,-1.4,1729425701331.0,0.0
-2.981457,-3.833302,6.01077,42.490002,0.84,13.72,1729425701353.0,0.0
-3.897908,-5.95095,5.180461,-51.029999,-11.55,10.15,1729425701372.0,0.0
-4.007978,-7.467999,3.249453,-105.559998,-32.619999,17.99,1729425701394.0,0.0
-2.885744,-7.977671,2.0004,-86.099998,-64.400002,33.880001,1729425701412.0,0.0
-2.117648,-8.068598,1.172483,-69.720001,-73.919998,41.790001,1729425701434.0,0.0
-2.467,-7.886744,-0.287139,-84.840004,-57.82,45.5,1729425701456.0,0.0
-4.110869,-9.698111,-1.696511,-106.959999,-29.190001,44.450001,1729425701473.0,0.0
-6.092126,-13.194024,-2.378466,-105.419998,-6.51,41.93,1729425701505.0,0.0
-6.893722,-15.400207,-3.725625,-73.5,9.66,33.110001,1729425701513.0,0.0
-6.721439,-14.871392,-4.740182,-15.54,29.4,16.59,1729425701533.0,0.0
-6.312266,-13.186846,-4.185047,52.779999,47.529999,-8.12,1729425701554.0,0.0
-6.372087,-12.638889,-2.378466,122.010002,57.049999,-23.59,1729425701572.0,0.0
-6.367301,-10.382458,-0.366102,134.330002,61.110001,-41.09,1729425701594.0,0.0
-5.596812,-6.546762,2.684747,122.150002,61.529999,-50.610001,1729425701613.0,0.0
-4.934,-4.601398,5.237889,87.989998,35.279999,-54.740002,1729425701633.0,0.0
-3.359523,-4.4339,5.460421,54.599998,6.58,-47.25,1729425701653.0,0.0
-1.98365,-4.515256,4.900501,-13.37,-9.73,-50.610001,1729425701673.0,0.0
-1.804188,-4.326223,5.005785,-48.369999,-8.68,-31.99,1729425701696.0,0.0
-2.041078,-3.74716,4.319045,-55.860001,-12.11,-13.02,1729425701713.0,0.0
-2.321038,-4.194618,3.177669,-85.959999,-24.99,7.63,1729425701737.0,0.0
-2.871387,-6.178268,0.648455,-126.279999,-38.009998,21.139999,1729425701754.0,0.0
-3.017349,-8.946764,-0.535992,-121.520004,-48.790001,27.09,1729425701773.0,0.0
-2.605784,-9.162118,-0.827917,-86.590004,-65.239998,43.049999,1729425701794.0,0.0
-2.098505,-9.090333,-1.002593,-17.57,-72.449997,63.77,1729425701812.0,0.0
-3.225525,-9.396614,0.021535,18.200001,-56.560001,79.660004,1729425701834.0,0.0
-6.106483,-11.889936,1.885544,-1.96,-26.880001,76.790001,1729425701855.0,0.0
-8.513663,-13.734802,-1.251446,-94.150002,-0.21,37.939999,1729425701873.0,0.0
-8.159525,-14.711074,-4.735396,-141.119995,-2.66,4.69,1729425701893.0,0.0
-5.99402,-13.926227,-5.953342,-108.080002,-8.54,-14.42,1729425701914.0,0.0
-4.596612,-13.186846,-5.213961,-34.580002,16.450001,-32.34,1729425701933.0,0.0
-5.046463,-11.507084,-3.306881,28.700001,52.009998,-38.220001,1729425701952.0,0.0
-5.173282,-9.623933,-1.277767,73.639999,75.18,-48.369999,1729425701973.0,0.0
-4.297509,-8.12124,0.29671,75.389999,67.760002,-51.310001,1729425701994.0,0.0
-3.024528,-5.953342,1.844866,46.48,56.98,-48.650002,1729425702012.0,0.0
-2.081756,-3.778267,3.507878,14.7,44.869999,-37.170002,1729425702032.0,0.0
-1.414158,-4.445865,6.486942,-4.2,20.370001,-28.559999,1729425702053.0,0.0
-1.316052,-5.759524,7.001399,-12.25,-15.47,-19.6,1729425702073.0,0.0
-1.454836,-7.499106,4.426722,20.58,-37.52,7.84,1729425702094.0,0.0
-2.285146,-7.195218,2.507678,19.32,-43.75,22.960001,1729425702114.0,0.0
-3.321238,-7.013363,2.452643,15.12,-46.970001,35.77,1729425702134.0,0.0
-4.098906,-6.281159,1.634298,-29.120001,-61.810001,46.27,1729425702153.0,0.0
-4.194618,-6.82433,-0.815953,-90.790001,-69.370003,45.849998,1729425702172.0,0.0
-4.232903,-9.990034,-4.333402,-121.590004,-64.120003,46.34,1729425702196.0,0.0
-4.749753,-14.244473,-5.804988,-91.980003,-37.939999,43.75,1729425702213.0,0.0
-6.297909,-17.603996,-4.792823,-11.27,7.42,36.68,1729425702232.0,0.0
-7.566105,-15.151353,-3.95055,57.959999,40.599998,16.799999,1729425702253.0,0.0
-7.558927,-11.375479,-3.199204,87.989998,49.420002,-2.73,1729425702273.0,0.0
-6.209375,-10.593026,-2.79721,88.340004,42.700001,-25.9,1729425702295.0,0.0
-4.934,-10.277173,-2.309074,49.209999,40.25,-57.540001,1729425702312.0,0.0
-4.015156,-9.116654,-0.562313,45.009998,40.18,-60.619999,1729425702333.0,0.0
-3.304488,-7.542177,0.803988,44.310001,42.139999,-58.170002,1729425702352.0,0.0
-2.569891,-5.491528,2.878566,38.849998,32.830002,-53.060001,1729425702372.0,0.0
-1.842474,-4.165904,3.534199,36.889999,14.7,-37.59,1729425702393.0,0.0
-1.478764,-3.634698,4.35733,15.26,-6.37,-22.889999,1729425702412.0,0.0
-2.167897,-4.792823,4.232903,-11.83,-18.549999,-0.56,1729425702433.0,0.0
-3.290131,-5.651847,3.656233,-36.119999,-24.780001,15.68,1729425702456.0,0.0
-3.95055,-5.936593,3.184847,-58.029999,-42.77,31.219999,1729425702472.0,0.0
-3.986443,-6.589834,1.899901,-95.129997,-65.449997,40.25,1729425702494.0,0.0
-3.816552,-7.867601,-0.997807,-140.139999,-69.019997,40.599998,1729425702566.0,0.0
-4.177868,-12.837494,-5.630312,-150.220001,-46.970001,32.549999,1729425702574.0,0.0
-5.134997,-16.733009,-7.953743,-116.900002,-3.85,15.05,1729425702574.0,0.0
-5.556134,-17.694923,-7.04447,-13.37,45.57,5.95,1729425702576.0,0.0
-4.802395,-14.328221,-4.649254,77.559998,62.790001,-6.02,1729425702597.0,0.0
-3.629912,-11.088341,-2.660819,115.709999,67.550003,-19.6,1729425702613.0,0.0
-3.613162,-9.387043,-1.79701,99.330002,77.769997,-44.66,1729425702632.0,0.0
-3.168097,-6.707082,0.172283,15.05,80.080002,-52.849998,1729425702652.0,0.0
-3.005385,-4.06062,3.268596,33.529999,45.779999,-15.68,1729425702671.0,0.0
-1.586441,-3.048456,5.711668,79.730003,10.01,-4.2,1729425702694.0,0.0
-1.548156,-2.462214,6.759724,58.52,-0.28,2.94,1729425702713.0,0.0
-3.426522,-4.82393,6.017949,27.440001,-1.75,16.73,1729425702732.0,0.0
-5.271388,-5.991628,3.756732,-52.639999,-10.36,17.290001,1729425702755.0,0.0
-5.814559,-7.403394,2.065006,-116.059998,-38.57,23.73,1729425702771.0,0.0
-4.74736,-8.300702,-1.615155,-165.339996,-80.43,20.93,1729425702792.0,0.0
-3.48395,-10.377672,-6.151947,-168.910004,-102.269997,17.08,1729425702813.0,0.0
-3.175276,-13.433307,-7.661818,-124.669998,-93.519997,17.08,1729425702832.0,0.0
-3.684947,-13.85205,-8.350951,-49.630001,-52.080002,19.950001,1729425702852.0,0.0
-5.02732,-13.763516,-7.152147,52.150002,-9.17,24.08,1729425702872.0,0.0
-6.041877,-12.363714,-6.056234,83.300003,28.210001,13.16,1729425702893.0,0.0
-6.003592,-12.184253,-4.216154,120.540001,48.509998,-6.58,1729425702912.0,0.0
-5.680561,-12.591033,-1.409373,174.300003,42.349998,-21.98,1729425702933.0,0.0
-5.891129,-10.69831,0.863809,144.830002,50.400002,-43.330002,1729425702952.0,0.0
-4.742575,-7.02772,0.758525,60.970001,42.91,-65.800003,1729425702971.0,0.0
-3.218346,-5.369494,1.184447,27.719999,22.33,-62.720001,1729425702993.0,0.0
-2.098505,-4.917251,2.182254,36.189999,13.23,-52.150002,1729425703012.0,0.0
-1.68694,-4.067799,3.218346,49.07,17.43,-34.23,1729425703031.0,0.0
-1.921437,-3.050849,4.034299,41.93,19.6,-13.86,1729425703059.0,0.0
-2.519642,-3.194418,3.739982,15.96,14.56,9.66,1729425703072.0,0.0
-3.591627,-4.82393,2.689533,-39.41,5.95,24.01,1729425703095.0,0.0
-4.326223,-5.678168,1.586441,-93.239998,-2.66,32.549999,1729425703113.0,0.0
-3.54377,-6.422336,0.562313,-100.379997,-33.880001,43.259998,1729425703132.0,0.0
-2.696711,-8.281559,-0.490529,-93.800003,-64.470001,54.18,1729425703153.0,0.0
-3.103491,-11.612368,-1.552942,-88.199997,-61.32,57.119999,1729425703173.0,0.0
-4.941179,-14.502897,-2.589034,-87.080002,-32.200001,55.510002,1729425703195.0,0.0
-6.178268,-13.651052,-5.491528,-73.639999,-4.13,52.220001,1729425703213.0,0.0
-5.922236,-13.57209,-6.819544,-25.76,2.24,37.029999,1729425703233.0,0.0
-5.063213,-13.098311,-6.348158,-15.190001,18.41,12.25,1729425703253.0,0.0
-5.472386,-12.918849,-3.421736,56.98,44.450001,-11.9,1729425703273.0,0.0
-6.008378,-12.411572,-0.497707,123.550003,55.439999,-19.6,1729425703295.0,0.0
-5.9342,-9.963714,1.916651,120.190002,46.619999,-34.580002,1729425703313.0,0.0
-4.986642,-7.834101,1.976472,89.529999,38.360001,-48.790001,1729425703333.0,0.0
-3.919443,-6.331409,2.849852,49.0,20.93,-53.900002,1729425703354.0,0.0
-2.366502,-6.597012,4.503292,67.129997,-14.84,-46.900002,1729425703373.0,0.0
-1.268196,-6.190232,5.706882,79.239998,-36.470001,-35.349998,1729425703396.0,0.0
-1.416551,-5.194818,5.381458,77.139999,-30.940001,-15.96,1729425703414.0,0.0
-2.624927,-4.893322,4.811966,48.02,-23.940001,2.17,1729425703434.0,0.0
-3.821337,-5.221139,3.921836,-36.889999,-27.719999,11.55,1729425703456.0,0.0
-3.639483,-6.802795,1.392623,-113.959999,-53.34,11.48,1729425703473.0,0.0
-3.249453,-8.506484,-0.646062,-151.410004,-71.540001,17.15,1729425703505.0,0.0
-3.06042,-9.379865,-2.828316,-144.270004,-68.949997,22.540001,1729425703514.0,0.0
-3.785445,-11.203196,-5.362316,-101.779999,-54.810001,28.91,1729425703535.0,0.0
-4.503292,-10.930414,-6.321837,-20.58,-11.34,41.439999,1729425703555.0,0.0
-4.737789,-12.040684,-6.116055,43.75,14.0,39.41,1729425703574.0,0.0
-6.266802,-13.387842,-3.63709,67.410004,42.700001,17.15,1729425703597.0,0.0
-6.711867,-10.872985,-1.725225,85.400002,59.010002,3.01,1729425703614.0,0.0
-6.12084,-9.616754,1.045663,112.139999,36.400002,-14.35,1729425703635.0,0.0
-5.843273,-9.013763,2.199004,95.410004,31.85,-30.73,1729425703655.0,0.0
-5.79781,-8.520842,2.801995,47.599998,30.030001,-43.75,1729425703674.0,0.0
-5.489135,-7.168896,3.249453,-18.969999,17.92,-57.330002,1729425703696.0,0.0
-4.462614,-6.946364,2.617748,-57.260002,-0.28,-64.540001,1729425703715.0,0.0
-3.175276,-7.688138,2.433501,-69.510002,-25.620001,-61.110001,1729425703734.0,0.0
-1.739582,-8.350951,2.045863,-56.349998,-42.91,-48.439999,1729425703755.0,0.0
-0.540778,-8.252845,1.557728,-40.25,-48.439999,-31.360001,1729425703779.0,0.0
-0.021535,-8.128418,0.957129,-12.95,-43.75,-11.9,1729425703796.0,0.0
-0.358923,-8.456236,-0.172283,-1.33,-32.549999,3.36,1729425703814.0,0.0
-1.490728,-8.549555,-0.861416,-21.42,-13.37,9.52,1729425703834.0,0.0
-2.610569,-8.310273,-0.971486,-38.220001,1.4,12.11,1729425703854.0,0.0
-2.266003,-7.305287,-0.993021,-34.720001,-7.07,18.83,1729425703874.0,0.0
-1.696511,-6.675975,-1.328017,-21.0,-23.799999,41.509998,1729425703896.0,0.0
-2.533999,-8.013563,-1.804188,-13.86,-3.85,53.900002,1729425703914.0,0.0
-5.017749,-10.913664,-2.208575,-15.89,34.369999,57.260002,1729425703934.0,0.0
-7.936993,-12.504892,-2.136791,-29.469999,63.84,48.790001,1729425703955.0,0.0
-9.731609,-12.244074,-2.660819,-23.24,65.309998,33.25,1729425703974.0,0.0
-7.920243,-10.468598,-3.290131,-12.04,31.360001,2.73,1729425703995.0,0.0
-5.948557,-11.715261,-2.734996,17.360001,8.75,-22.889999,1729425704014.0,0.0
-5.508278,-12.658032,-1.485943,28.700001,27.440001,-30.799999,1729425704034.0,0.0
-5.070391,-11.550155,-0.277567,32.34,40.599998,-41.23,1729425704054.0,0.0
-4.275974,-9.743573,0.81356,31.290001,34.16,-49.91,1729425704074.0,0.0
-2.914458,-8.82473,1.316052,20.51,15.33,-49.700001,1729425704095.0,0.0
-1.347159,-8.315059,1.100698,16.450001,0.28,-46.27,1729425704114.0,0.0
-0.540778,-7.944171,0.914058,15.54,5.11,-38.009998,1729425704134.0,0.0
-0.914058,-7.013363,1.502693,12.67,20.719999,-30.030001,1729425704153.0,0.0
-1.356731,-5.804988,1.667797,-0.14,22.120001,-19.18,1729425704173.0,0.0
-1.229911,-5.551349,1.51705,-11.06,2.66,-0.49,1729425704195.0,0.0
-2.273181,-6.733403,0.940379,-3.15,-9.03,28.91,1729425704214.0,0.0
-3.163311,-6.386444,0.614955,21.84,-11.34,42.07,1729425704233.0,0.0
-3.352344,-5.094319,0.598206,37.799999,-30.52,62.510002,1729425704255.0,0.0
-3.110669,-4.780859,0.100499,2.73,-38.009998,68.669998,1729425704274.0,0.0
-3.795017,-7.178468,-1.734797,-73.849998,-26.389999,69.370003,1729425704296.0,0.0
-6.4343,-13.040883,-3.515057,-138.320007,-0.84,57.470001,1729425704314.0,0.0
-9.107083,-18.072989,-5.206782,-133.279999,25.34,42.07,1729425704333.0,0.0
-8.659625,-15.543776,-6.348158,-84.699997,23.1,9.66,1729425704354.0,0.0
-6.166305,-12.464212,-5.876772,5.46,8.47,-6.72,1729425704374.0,0.0
-5.45085,-12.349358,-2.663212,66.709999,11.48,-24.08,1729425704397.0,0.0
-5.98445,-11.47837,0.409173,91.07,28.0,-29.26,1729425704414.0,0.0
-5.919843,-9.422935,2.196611,86.800003,21.98,-38.920002,1729425704433.0,0.0
-5.020142,-7.221539,2.48375,66.989998,4.13,-41.720001,1729425704456.0,0.0
-3.361916,-8.647661,2.423929,83.440002,-23.870001,-38.990002,1729425704473.0,0.0
-2.364109,-8.018349,1.938186,75.18,-35.630001,-38.5,1729425704497.0,0.0
-2.40718,-7.058826,1.395016,72.660004,-25.059999,-28.91,1729425704513.0,0.0
-2.433501,-5.716454,1.79701,55.439999,-26.18,-19.040001,1729425704534.0,0.0
-1.071985,-5.371887,0.981057,7.56,-46.759998,3.71,1729425704554.0,0.0
-1.261017,-6.685547,-0.287139,-44.52,-35.77,10.01,1729425704573.0,0.0
-2.335395,-6.999006,-1.155733,-68.32,-17.43,18.549999,1729425704596.0,0.0
-2.122434,-6.13759,-1.914258,-43.400002,-29.4,37.869999,1729425704613.0,0.0
-1.471586,-5.663811,-2.036292,-25.059999,-43.540001,54.880001,1729425704633.0,0.0
-2.098505,-5.864808,-2.658426,-31.43,-26.110001,72.870003,1729425704654.0,0.0
-4.529613,-7.501499,-2.053042,-36.610001,3.36,77.769997,1729425704674.0,0.0
-6.515656,-9.083155,-2.244468,-15.89,16.870001,94.919998,1729425704695.0,0.0
-8.425128,-9.987641,-1.564906,-57.119999,7.21,63.91,1729425704713.0,0.0
-8.867801,-11.643474,-2.163112,-75.389999,8.61,45.290001,1729425704733.0,0.0
-7.932207,-13.500306,-5.123034,-102.550003,1.4,4.41,1729425704753.0,0.0
-6.833901,-14.316258,-5.749953,-90.370003,3.22,-22.960001,1729425704773.0,0.0
-6.470192,-14.97907,-2.48375,-23.309999,2.45,-35.279999,1729425704794.0,0.0
-6.422336,-12.58864,-0.478565,17.5,17.15,-51.59,1729425704813.0,0.0
-6.051448,-10.743774,0.849452,27.58,25.48,-65.940002,1729425704833.0,0.0
-4.835894,-9.535398,0.287139,3.71,20.58,-80.010002,1729425704854.0,0.0
-2.861816,-8.070991,1.624727,-31.639999,5.32,-87.290001,1729425704873.0,0.0
-1.464408,-8.700303,1.524228,39.549999,-14.49,-57.82,1729425704894.0,0.0
-0.787239,-6.71426,1.90708,69.370003,-18.34,-38.849998,1729425704916.0,0.0
-1.162912,-4.582255,2.699104,60.27,-1.82,-25.83,1729425704933.0,0.0
-2.416751,-4.615755,3.058028,23.17,-2.03,-11.06,1729425704954.0,0.0
-3.488736,-4.955536,2.11047,-50.68,-6.16,0.07,1729425704973.0,0.0
-3.668197,-4.776074,0.31346,-105.699997,-21.35,10.5,1729425704995.0,0.0
-2.794817,-5.517848,-1.938186,-111.510002,-48.509998,24.92,1729425705013.0,0.0
-2.194218,-6.625726,-3.345166,-91.209999,-57.260002,40.670002,1729425705033.0,0.0
-3.244668,-9.379865,-4.051049,-44.029999,-39.830002,56.139999,1729425705053.0,0.0
-5.484349,-10.375278,-4.792823,1.75,-8.26,67.340004,1729425705073.0,0.0
-7.085148,-12.189038,-4.666004,34.02,13.440001,70.139999,1729425705095.0,0.0
-8.286345,-13.69173,-5.242674,-13.65,16.799999,34.650002,1729425705113.0,0.0
-7.448857,-13.153346,-6.867401,-35.490002,26.530001,0.91,1729425705132.0,0.0
-6.032306,-14.627325,-5.118248,26.950001,11.97,-22.049999,1729425705154.0,0.0
-5.438886,-13.902299,-1.978864,94.989998,19.25,-27.299999,1729425705174.0,0.0
-5.398208,-11.018949,-0.062213,127.82,43.470001,-34.580002,1729425705197.0,0.0
-4.82393,-7.432107,0.42353,96.459999,52.849998,-53.060001,1729425705220.0,0.0
-3.201597,-7.197611,0.524028,27.65,24.99,-65.029999,1729425705234.0,0.0
-2.014757,-7.702496,2.029114,5.25,15.05,-57.75,1729425705255.0,0.0
-1.852045,-6.80758,2.081756,33.529999,16.870001,-33.459999,1729425705273.0,0.0
-1.701297,-4.302295,2.009971,51.029999,13.93,-13.23,1729425705294.0,0.0
-1.959722,-3.23031,2.340181,25.129999,8.68,0.84,1729425705313.0,0.0
-2.641676,-4.48415,1.878366,-19.950001,-5.11,16.870001,1729425705333.0,0.0
-3.644269,-6.072984,0.665205,-63.77,-12.11,28.42,1729425705354.0,0.0
-4.106083,-6.831509,-0.512064,-66.639999,-22.82,41.23,1729425705373.0,0.0
-3.61077,-6.920043,-1.804188,-51.869999,-48.860001,52.43,1729425705395.0,0.0
-3.306881,-7.405786,-2.854637,-48.23,-57.049999,59.5,1729425705413.0,0.0
-4.426722,-11.3683,-3.835695,-42.77,-36.889999,58.59,1729425705434.0,0.0
-6.771688,-13.497912,-4.4339,-58.380001,-6.09,47.740002,1729425705458.0,0.0
-8.157133,-14.13201,-5.383851,-40.389999,15.4,39.060001,1729425705474.0,0.0
-7.281359,-13.172488,-6.678369,-22.33,18.83,6.16,1729425705496.0,0.0
-5.496314,-12.985848,-4.496114,-2.66,23.379999,-21.49,1729425705515.0,0.0
-5.443672,-12.806387,-1.524228,87.5,44.240002,-31.780001,1729425705534.0,0.0
-5.615955,-10.171888,1.198804,110.32,61.810001,-39.48,1729425705555.0,0.0
-5.529813,-7.52782,2.294717,87.010002,54.670002,-46.759998,1729425705575.0,0.0
-4.529613,-6.520442,1.57687,32.27,38.150002,-56.490002,1729425705596.0,0.0
-3.254239,-8.056634,2.9671,6.16,8.05,-66.290001,1729425705615.0,0.0
-2.048256,-8.147561,1.957329,27.51,-2.52,-48.860001,1729425705635.0,0.0
-1.5003,-6.183054,2.285146,34.509998,-9.73,-34.580002,1729425705655.0,0.0
-1.564906,-4.051049,2.598605,17.01,-17.710001,-15.54,1729425705674.0,0.0
-1.782653,-3.960121,2.048256,-28.139999,-31.15,-1.19,1729425705698.0,0.0
-2.909672,-6.130411,0.758525,-77.0,-36.189999,9.24,1729425705715.0,0.0
-3.730411,-6.613762,-0.997807,-95.269997,-38.57,18.549999,1729425705734.0,0.0
-3.431308,-5.525027,-2.634498,-77.07,-58.029999,36.75,1729425705755.0,0.0
-3.029313,-5.881558,-3.605984,-66.989998,-65.940002,49.560001,1729425705774.0,0.0
-3.850052,-8.702696,-4.76411,-73.779999,-51.59,50.470001,1729425705796.0,0.0
-6.795617,-11.145767,-5.54417,-54.529999,-4.76,56.490002,1729425705815.0,0.0
-8.063812,-11.956935,-4.189832,-29.82,2.17,50.82,1729425705834.0,0.0
-7.989635,-11.80858,-4.960321,-25.059999,13.65,18.83,1729425705855.0,0.0
-6.673582,-12.098111,-5.694918,-33.599998,9.87,-22.4,1729425705875.0,0.0
