acc_x,acc_y,acc_z,gyr_x,gyr_y,gyr_z,timestamp,label
-2.562713,-10.4016,3.706482,155.960007,-58.380001,16.52,1729429270268.0,0.0
-4.512863,-5.599205,0.928415,126.139999,-118.090004,27.16,1729429270272.0,0.0
-2.323431,-7.69771,-4.003192,17.92,-168.139999,15.75,1729429270273.0,0.0
-6.814759,-11.839686,-10.459028,-31.15,-168.699997,20.09,1729429270284.0,0.0
-16.986649,-12.830315,-12.859028,-17.360001,-109.199997,19.110001,1729429270304.0,0.0
-20.2026,-5.240282,-20.200209,-111.650002,-9.66,-44.099998,1729429270324.0,0.0
-3.65384,-2.737389,-14.488542,23.309999,78.190002,-12.46,1729429270342.0,0.0
-6.606583,-8.659625,-13.253844,-25.9,121.520004,-17.780001,1729429270363.0,0.0
-3.835695,-3.718446,-3.936193,-47.389999,141.539993,7.84,1729429270384.0,0.0
1.136591,-6.108876,2.778067,12.67,131.740005,15.75,1729429270404.0,0.0
5.355137,-4.883751,16.161125,98.769997,62.23,38.990002,1729429270424.0,0.0
2.87378,-11.066804,4.704289,97.370003,-32.619999,36.330002,1729429270443.0,0.0
-2.210968,-8.903693,0.038285,15.96,-100.099998,-11.27,1729429270463.0,0.0
2.139183,-4.457829,-4.218546,30.66,-148.399994,13.09,1729429270484.0,0.0
-7.331609,-8.705089,-3.086741,-53.130001,-142.869995,25.41,1729429270503.0,0.0
-17.407784,-10.411172,-13.988441,-112.489998,-114.099998,19.67,1729429270523.0,0.0
-20.949162,-8.817552,-26.026733,-232.610001,-2.17,-17.5,1729429270543.0,0.0
-7.781459,-7.67139,-17.010576,-48.580002,108.919998,-12.32,1729429270563.0,0.0
-5.036892,1.789831,-12.485749,-79.309998,149.940002,-23.73,1729429270584.0,0.0
-5.635098,-6.273981,-9.674182,-188.789993,156.729996,-34.02,1729429270603.0,0.0
-1.440479,-4.036692,-6.652047,-23.1,154.350006,-4.34,1729429270623.0,0.0
-0.87338,-6.601797,3.479164,44.52,141.680008,16.379999,1729429270643.0,0.0
0.452243,-6.876972,5.187639,92.610001,81.269997,11.83,1729429270663.0,0.0
2.610569,-7.192825,4.95075,57.75,11.83,-3.5,1729429270687.0,0.0
0.878166,-8.542377,-2.151148,25.48,-60.060001,-7.84,1729429270703.0,0.0
-4.24726,-7.877172,-6.716653,25.9,-105.559998,-5.18,1729429270724.0,0.0
-5.546563,-5.242674,-8.525627,-126.349998,-99.050003,-22.33,1729429270743.0,0.0
-5.594419,-8.695518,-8.518449,-351.75,-97.230003,-38.080002,1729429270763.0,0.0
-6.020342,-10.581062,-10.143176,-367.149994,-86.660004,-38.990002,1729429270784.0,0.0
-6.381658,-6.774081,-8.740981,-199.220001,-60.689999,-32.27,1729429270803.0,0.0
-6.924829,-3.019742,-9.078369,-58.029999,-41.439999,-8.68,1729429270824.0,0.0
-6.530013,-2.349752,-10.169496,15.190001,-24.85,25.27,1729429270843.0,0.0
-4.438686,-2.778067,-10.4016,37.029999,-9.59,49.07,1729429270863.0,0.0
-3.553342,-4.369294,-11.12184,22.889999,1.12,51.869999,1729429270883.0,0.0
-2.720639,-3.084348,-10.423136,33.25,-0.28,43.82,1729429270914.0,0.0
-2.545963,-3.847659,-11.279767,50.049999,19.110001,46.34,1729429270923.0,0.0
-2.222932,-2.462214,-10.810772,64.82,22.049999,46.41,1729429270942.0,0.0
-2.378466,-3.821337,-10.559525,48.23,38.43,41.509998,1729429270963.0,0.0
-3.113062,-3.795017,-8.846266,52.080002,45.709999,38.639999,1729429270985.0,0.0
-3.26381,-3.649055,-8.453842,47.32,45.220001,31.639999,1729429271004.0,0.0
-3.366701,-4.744967,-8.449057,49.420002,37.799999,23.870001,1729429271026.0,0.0
-3.550949,-3.199204,-7.353144,79.870003,26.950001,18.129999,1729429271042.0,0.0
-3.438486,-3.163311,-6.91765,69.230003,17.639999,20.58,1729429271063.0,0.0
-3.457629,-4.625326,-8.26481,65.660004,13.02,21.42,1729429271083.0,0.0
-3.54377,-6.096912,-8.669197,84.07,15.05,12.81,1729429271103.0,0.0
-4.354938,-3.220739,-7.116255,80.5,21.629999,-3.57,1729429271123.0,0.0
-3.945765,-4.524827,-6.85783,23.73,17.01,-10.01,1729429271143.0,0.0
-3.546163,-6.367301,-7.152147,0.77,10.99,-11.83,1729429271163.0,0.0
-3.938586,-7.465607,-7.826923,9.8,10.01,-18.9,1729429271184.0,0.0
-4.051049,-3.74716,-6.642475,52.849998,7.28,-24.15,1729429271204.0,0.0
-4.558327,-2.852244,-6.293124,36.330002,11.06,-16.66,1729429271223.0,0.0
-3.491128,-5.465207,-7.156933,-17.01,5.11,-10.71,1729429271243.0,0.0
-3.400201,-6.4343,-6.735795,-2.03,7.28,-1.54,1729429271264.0,0.0
-3.799802,-4.888536,-6.455836,12.46,9.66,1.75,1729429271284.0,0.0
-3.476771,-5.493921,-6.972685,4.55,5.18,4.62,1729429271303.0,0.0
-3.34038,-6.039484,-7.298109,-7.7,3.64,1.26,1729429271324.0,0.0
-3.180061,-5.965307,-7.305287,-2.31,2.52,-2.1,1729429271342.0,0.0
-3.39063,-4.809574,-7.21436,4.97,2.66,-3.78,1729429271363.0,0.0
-3.644269,-5.022535,-7.475177,-1.26,-1.05,1.19,1729429271384.0,0.0
-3.964907,-6.151947,-7.467999,-10.57,3.99,-0.21,1729429271403.0,0.0
-3.54377,-5.321638,-8.193025,-17.5,3.22,-3.22,1729429271423.0,0.0
-3.349952,-5.831308,-8.566305,-16.24,3.43,-0.91,1729429271443.0,0.0
-2.775674,-6.223732,-8.23131,6.93,4.9,0.7,1729429271463.0,0.0
-2.928815,-5.771489,-7.173682,24.99,8.89,1.33,1729429271483.0,0.0
-3.323631,-6.166305,-6.716653,23.450001,7.49,0.7,1729429271509.0,0.0
-2.947958,-6.293124,-7.499106,33.950001,1.82,-0.98,1729429271523.0,0.0
-3.28056,-5.553742,-7.881958,57.540001,6.37,0.63,1729429271544.0,0.0
-4.082155,-6.034698,-7.360322,41.369999,10.85,-1.61,1729429271563.0,0.0
-3.460021,-5.82413,-7.798209,19.67,7.77,-1.19,1729429271585.0,0.0
-3.608376,-6.726225,-6.757331,54.040001,10.01,5.74,1729429271602.0,0.0
-3.589234,-7.290931,-6.652047,76.650002,13.23,-0.84,1729429271624.0,0.0
-3.148954,-7.743174,-6.678369,93.239998,13.65,0.91,1729429271643.0,0.0
-3.708875,-6.719046,-5.381458,82.459999,12.25,1.89,1729429271663.0,0.0
-3.84048,-7.831708,-6.84108,26.809999,12.18,-0.07,1729429271685.0,0.0
-3.464807,-9.52822,-7.243074,50.75,10.43,0.42,1729429271705.0,0.0
-3.507878,-7.783852,-6.233303,114.870003,11.06,0.91,1729429271724.0,0.0
-4.613362,-4.783253,-4.656433,116.620003,21.559999,5.39,1729429271744.0,0.0
-4.84068,-5.089533,-5.182854,-48.439999,22.120001,3.78,1729429271764.0,0.0
-3.797409,-8.365308,-7.264609,-184.800003,18.690001,6.3,1729429271787.0,0.0
-2.907279,-10.679168,-6.513263,-148.050003,16.030001,7.63,1729429271804.0,0.0
-2.541178,-8.647661,-6.01077,-94.639999,17.15,-7.7,1729429271824.0,0.0
-2.591427,-7.01097,-6.314659,-76.370003,13.23,-9.87,1729429271844.0,0.0
-2.823531,-7.372287,-7.977671,-39.130001,7.63,0.63,1729429271864.0,0.0
-2.964707,-6.623333,-7.939385,55.860001,6.16,24.290001,1729429271885.0,0.0
-3.538985,-6.12084,-7.62114,131.669998,5.46,47.810001,1729429271904.0,0.0
-3.493521,-8.729016,-8.082954,145.25,-0.56,59.150002,1729429271924.0,0.0
-3.227918,-10.057034,-9.889536,218.610001,-2.24,63.0,1729429271944.0,0.0
-6.07777,-2.919244,-2.067399,229.880005,31.08,54.18,1729429271964.0,0.0
-4.713861,-5.898308,-3.536592,13.93,5.67,31.219999,1729429271988.0,0.0
-2.629712,-6.283553,-5.76431,-85.889999,-0.07,26.950001,1729429272006.0,0.0
-1.287339,-4.448257,-5.300103,-81.059998,3.22,28.07,1729429272028.0,0.0
-3.878766,-3.34038,-5.209175,-63.07,16.66,42.91,1729429272045.0,0.0
-4.359723,-5.79781,-4.685147,-127.120003,2.59,47.670002,1729429272064.0,0.0
-2.840281,-9.678967,-8.60459,-153.300003,-9.94,35.209999,1729429272087.0,0.0
-2.682354,-7.015756,-6.623333,-60.900002,0.28,20.299999,1729429272107.0,0.0
-5.187639,-5.807381,-4.053442,-29.68,-0.91,12.46,1729429272125.0,0.0
-4.943572,-6.046663,-4.436293,-46.970001,-19.18,6.93,1729429272145.0,0.0
-4.508078,-6.518049,-7.377072,-26.18,-28.98,1.05,1729429272165.0,0.0
-4.776074,-6.484549,-8.4347,-7.91,-24.85,-7.63,1729429272187.0,0.0
-5.422136,-6.034698,-7.609176,-4.83,-12.6,-17.5,1729429272205.0,0.0
-4.737789,-5.4006,-6.580262,-23.309999,-7.84,-26.389999,1729429272230.0,0.0
-4.481757,-5.800202,-6.403193,-18.059999,-8.82,-20.51,1729429272244.0,0.0
-4.740182,-5.860023,-7.030113,9.45,-8.05,-14.49,1729429272265.0,0.0
-5.613562,-4.381258,-6.273981,24.08,-3.64,-13.51,1729429272288.0,0.0
-5.259424,-5.369494,-6.278766,-21.98,-3.85,-11.76,1729429272306.0,0.0
-4.965107,-7.532606,-5.807381,-47.32,-2.87,-9.8,1729429272325.0,0.0
-3.206382,-5.730811,-6.125626,-33.529999,-4.48,-8.26,1729429272345.0,0.0
-3.620341,-6.405586,-5.479564,-17.5,-5.46,1.61,1729429272364.0,0.0
-3.244668,-7.106683,-6.364908,-15.82,-4.9,8.4,1729429272386.0,0.0
-3.605984,-6.630512,-8.025528,-10.99,1.19,15.05,1729429272405.0,0.0
-3.644269,-6.788438,-6.982256,-9.73,6.93,17.99,1729429272425.0,0.0
-4.084548,-5.551349,-5.525027,2.1,-1.4,17.360001,1729429272446.0,0.0
-4.409972,-5.788238,-7.135397,10.36,-10.08,19.110001,1729429272469.0,0.0
-4.682754,-6.704689,-7.738388,3.43,-9.31,13.86,1729429272488.0,0.0
-4.922036,-6.9679,-9.777073,2.24,-1.96,-2.94,1729429272505.0,0.0
-6.056234,-5.582455,-9.844072,24.360001,15.89,-23.870001,1729429272526.0,0.0
-5.417351,-4.816752,-11.743973,24.57,34.650002,-39.759998,1729429272544.0,0.0
-4.48415,-6.687939,-8.468199,39.41,53.619999,-48.369999,1729429272565.0,0.0
-0.504886,-6.51087,-6.553941,43.889999,51.029999,-66.779999,1729429272586.0,0.0
-7.178468,-14.931213,-0.275175,-21.84,35.209999,-90.860001,1729429272604.0,0.0
-7.910671,-8.465806,-4.130012,221.270004,24.08,-107.520004,1729429272625.0,0.0
-0.823131,-4.862216,-4.089334,355.600006,-0.28,-44.52,1729429272646.0,0.0
-1.978864,-3.972085,-4.900501,288.470001,-0.28,-4.83,1729429272664.0,0.0
-8.913264,-1.919044,-10.140782,163.589996,27.58,18.83,1729429272686.0,0.0
-0.105284,-0.727418,-4.149154,62.93,5.04,-0.91,1729429272705.0,0.0
-2.163112,-14.880964,-1.323231,28.91,-1.12,49.91,1729429272725.0,0.0
-6.721439,-7.405786,0.859023,-14.42,35.77,20.58,1729429272744.0,0.0
-4.242475,-9.925428,-3.56052,-188.930008,7.56,-5.32,1729429272764.0,0.0
-3.225525,-7.429714,-2.139183,-234.080002,5.95,1.89,1729429272785.0,0.0
-3.058028,-8.944371,-2.502892,-248.149994,-13.58,15.68,1729429272806.0,0.0
-1.883151,-9.513863,-6.530013,-217.559998,-32.27,14.56,1729429272825.0,0.0
-3.885944,-6.853044,-8.023134,-146.020004,-22.120001,10.92,1729429272844.0,0.0
-2.959922,-7.393822,-10.688738,-111.440002,-15.89,22.33,1729429272864.0,0.0
0.308674,-7.84128,-10.102496,-53.689999,-18.690001,27.860001,1729429272886.0,0.0
-3.311667,-5.168497,-8.671589,4.97,-2.8,21.559999,1729429272904.0,0.0
-3.007778,-6.573084,-6.431907,-27.370001,-3.92,14.35,1729429272925.0,0.0
-4.328616,-6.338587,-5.635098,-14.98,-7.84,7.21,1729429272944.0,0.0
-4.45065,-5.347959,-7.872386,11.69,-18.690001,-3.57,1729429272964.0,0.0
-4.795217,-4.797609,-9.01137,6.72,-8.33,-11.62,1729429272986.0,0.0
-4.228118,-5.766702,-10.492528,6.93,4.62,-22.75,1729429273005.0,0.0
-4.491328,-3.538985,-10.006784,56.279999,17.08,-32.689999,1729429273027.0,0.0
-2.325824,-2.493321,-8.437093,53.830002,31.99,-35.139999,1729429273044.0,0.0
-1.122234,-8.370094,-6.58744,37.099998,33.880001,-44.66,1729429273064.0,0.0
-3.929015,-13.739587,-3.811767,64.190002,27.860001,-78.68,1729429273087.0,0.0
-7.49432,-11.212767,-4.414758,107.309998,4.62,-115.43,1729429273106.0,0.0
-1.320838,-7.712067,-3.089134,224.279999,-5.11,-116.830002,1729429273125.0,0.0
-2.404787,0.148355,-5.635098,226.309998,-10.08,-69.720001,1729429273144.0,0.0
-3.07717,-5.163712,-1.067199,80.57,-22.469999,-49.420002,1729429273164.0,0.0
-7.018148,-8.281559,-4.285545,-9.73,-11.06,16.450001,1729429273188.0,0.0
-3.34038,-9.686146,-3.766303,-73.43,-17.639999,24.92,1729429273204.0,0.0
-2.773281,-7.80778,-2.787638,-49.139999,3.22,30.66,1729429273225.0,0.0
-2.605784,-9.664611,-4.331009,-99.959999,-8.4,37.869999,1729429273244.0,0.0
-3.206382,-9.334401,-2.900101,-81.970001,-10.78,46.830002,1729429273264.0,0.0
-2.443072,-7.101898,-6.080163,-105.489998,-22.190001,44.170002,1729429273285.0,0.0
-2.029114,-7.353144,-9.891929,-108.010002,-20.51,43.049999,1729429273305.0,0.0
-1.251446,-6.73101,-12.435498,-60.830002,-9.66,55.790001,1729429273324.0,0.0
0.16989,-5.484349,-11.373087,-40.670002,7.91,49.77,1729429273344.0,0.0
-1.294517,-5.680561,-9.853643,-33.25,26.950001,47.18,1729429273364.0,0.0
-5.271388,-5.223531,-5.62074,-14.7,35.349998,42.07,1729429273387.0,0.0
-7.176075,-7.99442,-9.131011,3.01,32.759998,24.360001,1729429273406.0,0.0
-6.501299,-8.12124,-10.564312,9.17,38.779999,-19.879999,1729429273425.0,0.0
-1.737189,-3.598805,-6.053841,41.720001,44.869999,-60.060001,1729429273444.0,0.0
0.01675,-7.018148,0.586242,-42.07,16.450001,-90.300003,1729429273464.0,0.0
-8.133204,-16.460228,-8.583055,-53.48,4.83,-111.090004,1729429273486.0,0.0
-2.191825,-10.439885,-5.072784,240.029999,4.69,-98.629997,1729429273505.0,0.0
-1.988436,2.581856,1.136591,324.029999,-13.16,-66.849998,1729429273524.0,0.0
-5.288138,-13.722836,4.070191,100.590004,-22.68,-9.1,1729429273552.0,0.0
0.306281,-11.846866,-2.562713,-2.03,-63.279999,-5.95,1729429273566.0,0.0
-5.82413,-5.893522,-0.806381,30.17,-31.5,49.279999,1729429273585.0,0.0
-4.479364,-9.576077,-4.445865,-109.690002,-39.759998,45.5,1729429273604.0,0.0
-4.701896,-10.904092,-9.262616,-148.610001,-38.009998,43.68,1729429273625.0,0.0
-3.266203,-7.123433,-7.735995,-60.060001,-24.08,40.459999,1729429273644.0,0.0
-2.143969,-7.178468,-9.466006,-83.019997,-20.860001,41.369999,1729429273665.0,0.0
-2.445465,-8.556733,-10.880164,-94.150002,-9.52,40.810001,1729429273687.0,0.0
-1.660619,-7.575676,-11.619547,-25.48,3.85,32.41,1729429273705.0,0.0
-1.134198,-6.216553,-9.932607,50.68,26.18,32.060001,1729429273725.0,0.0
-2.055435,-5.953342,-6.573084,39.34,46.41,24.290001,1729429273744.0,0.0
-1.952543,-6.029913,-7.719246,-21.49,49.420002,17.57,1729429273764.0,0.0
-0.847059,-8.989835,-8.678767,-91.07,51.099998,8.4,1729429273787.0,0.0
-1.01695,-7.645068,-7.874779,-78.540001,61.18,-3.64,1729429273805.0,0.0
-2.730211,-5.563312,-3.744767,-47.529999,61.040001,-12.81,1729429273826.0,0.0
-5.675776,-6.836295,3.383451,-37.450001,27.09,-1.96,1729429273845.0,0.0
-9.487542,-7.317252,2.421536,-96.110001,-22.33,-17.01,1729429273864.0,0.0
-2.084148,-5.319244,-12.619746,-119.629997,-53.27,-36.68,1729429273887.0,0.0
-2.9336,-5.493921,-17.25943,-101.919998,-15.190001,-26.040001,1729429273908.0,0.0
-4.106083,-9.765109,-19.3029,-20.440001,14.56,-41.16,1729429273927.0,0.0
-2.904887,-7.992027,-11.81815,148.889999,35.98,-73.779999,1729429273946.0,0.0
-0.227318,0.086142,-4.115655,244.509995,48.580002,-91.629997,1729429273968.0,0.0
-3.773481,2.938386,-6.589834,133.559998,51.73,-51.799999,1729429273986.0,0.0
-2.452643,-6.537192,-3.536592,3.15,29.049999,-30.52,1729429274006.0,0.0
-0.346959,-6.455836,-2.624927,-39.34,-7.98,-27.860001,1729429274032.0,0.0
-6.506085,-7.195218,-2.916851,11.13,-15.82,6.23,1729429274046.0,0.0
-7.405786,-5.314459,-5.06082,40.810001,-1.82,40.529999,1729429274066.0,0.0
-4.56072,-9.585647,-5.613562,-24.780001,-13.09,64.610001,1729429274087.0,0.0
-3.718446,-10.167104,-7.128219,-47.950001,-15.190001,50.119999,1729429274109.0,0.0
-3.330809,-8.183454,-5.60399,-7.77,-10.29,39.619999,1729429274126.0,0.0
-4.139583,-9.60479,-5.95095,-5.46,-5.39,42.279999,1729429274146.0,0.0
-2.85703,-8.685946,-6.826723,-43.400002,-5.88,33.950001,1729429274166.0,0.0
-1.430908,-6.391229,-8.312666,-54.529999,-11.13,27.370001,1729429274188.0,0.0
0.399601,-4.74736,-12.902101,-35.209999,-18.620001,36.400002,1729429274208.0,0.0
0.133998,-6.348158,-11.91147,63.07,-9.38,47.110001,1729429274226.0,0.0
-0.825524,-5.76431,-8.250452,67.269997,29.469999,25.9,1729429274246.0,0.0
-3.163311,-3.519842,-4.936393,35.84,22.190001,18.059999,1729429274271.0,0.0
-5.235496,-2.907279,-9.832108,7.42,-2.31,10.15,1729429274288.0,0.0
-4.292724,-7.128219,-10.975878,-22.610001,4.27,-29.82,1729429274307.0,0.0
-4.45065,-8.063812,-8.037491,23.52,30.17,-55.93,1729429274326.0,0.0
-2.151148,-7.925028,-2.76371,81.550003,32.34,-83.650002,1729429274346.0,0.0
-4.161119,-4.565506,-1.167697,90.510002,19.74,-74.830002,1729429274366.0,0.0
-7.073184,-0.892523,-7.082755,24.710001,11.97,-59.779999,1729429274387.0,0.0
-4.072584,-7.310073,-2.457429,26.530001,3.85,-22.4,1729429274406.0,0.0
-1.765903,-17.144573,3.929015,-13.51,-26.74,-27.51,1729429274428.0,0.0
-4.005585,-12.208181,-4.914857,101.709999,-38.43,0.14,1729429274446.0,0.0
-5.821737,-5.288138,-1.696511,21.49,-9.31,22.4,1729429274466.0,0.0
-4.019942,-11.033305,-5.905487,-99.470001,-31.639999,29.540001,1729429274486.0,0.0
-2.938386,-12.375679,-6.218946,-88.970001,-36.119999,22.75,1729429274506.0,0.0
-2.852244,-8.367701,-8.49452,-59.779999,-36.540001,-8.54,1729429274526.0,0.0
-2.086541,-6.039484,-11.542977,-65.730003,-24.08,-9.8,1729429274545.0,0.0
-2.031506,-5.429315,-10.743774,-4.13,4.06,23.450001,1729429274566.0,0.0
-1.830509,-5.551349,-9.176475,2.87,23.030001,26.25,1729429274586.0,0.0
-0.478565,-4.73061,-11.215159,2.52,30.24,24.15,1729429274605.0,0.0
2.287539,-4.460221,-11.081161,17.710001,32.34,21.91,1729429274627.0,0.0
0.019143,-4.733003,-7.487142,6.02,66.849998,14.98,1729429274646.0,0.0
-7.712067,-5.778666,0.540778,15.4,67.830002,12.11,1729429274665.0,0.0
-8.219346,-7.264609,-3.806981,-82.809998,7.42,-38.57,1729429274687.0,0.0
-1.866402,-5.084748,-13.239488,-69.93,-30.73,-62.580002,1729429274706.0,0.0
-0.710668,-8.652447,-9.41815,59.57,4.97,-49.139999,1729429274726.0,0.0
-3.002992,-9.966106,-2.244468,60.549999,14.07,-59.709999,1729429274746.0,0.0
-1.940579,-2.557927,-6.477371,76.93,-8.19,-51.73,1729429274765.0,0.0
-2.419144,-10.365707,-6.963113,187.809998,-0.35,-36.540001,1729429274788.0,0.0
-3.505485,-3.208775,-7.312466,64.82,-19.74,-55.93,1729429274806.0,0.0
-5.958128,-8.925228,-4.431508,13.37,-19.18,2.8,1729429274826.0,0.0
-0.052642,-1.868794,-2.76371,-63.279999,-23.450001,-10.92,1729429274846.0,0.0
-1.682154,-8.202596,-8.980263,-62.299999,-9.38,26.460001,1729429274866.0,0.0
-3.534199,-11.351551,-5.45085,-21.49,-4.34,42.77,1729429274887.0,0.0
-2.813959,-9.657433,-4.438686,-26.530001,-7.56,7.98,1729429274907.0,0.0
-2.443072,-6.635297,-5.446064,-84.489998,-16.17,-9.52,1729429274926.0,0.0
-1.899901,-6.130411,-8.408379,-91.910004,-25.690001,-2.59,1729429274945.0,0.0
-2.644069,-7.740781,-10.585848,-82.25,-11.83,5.95,1729429274968.0,0.0
-2.24686,-5.333601,-9.798609,-37.450001,3.36,3.85,1729429274987.0,0.0
1.074377,-1.26341,-10.727024,-18.200001,13.58,14.84,1729429275006.0,0.0
2.409572,-5.067998,-11.05484,8.19,19.32,38.290001,1729429275030.0,0.0
0.535992,-3.878766,-10.537991,9.31,58.380001,34.09,1729429275047.0,0.0
-2.778067,-2.845066,-12.641282,25.27,76.93,39.48,1729429275065.0,0.0
-9.595219,-4.046263,4.400401,37.52,86.309998,42.349998,1729429275088.0,0.0
-7.738388,-10.765309,-4.912465,-136.009995,27.370001,-31.57,1729429275106.0,0.0
2.464607,-8.176274,-9.24108,-17.99,-20.370001,-62.790001,1729429275125.0,0.0
-0.614955,-4.599005,-6.218946,163.800003,13.440001,-26.950001,1729429275145.0,0.0
-6.029913,-6.324231,-2.672783,140.699997,28.559999,-13.93,1729429275165.0,0.0
-3.598805,-7.113862,-5.132604,52.290001,-5.25,-29.75,1729429275187.0,0.0
-4.517649,-9.954143,-3.692125,7.42,-12.81,-12.25,1729429275268.0,0.0
0.667598,-14.258829,3.878766,96.529999,-38.5,-3.15,1729429275272.0,0.0
-7.149754,-2.201397,-8.324631,-40.810001,-8.47,24.290001,1729429275274.0,0.0
-2.359323,-15.842879,-5.611169,-138.389999,-35.349998,23.24,1729429275311.0,0.0
-4.165904,-12.282358,-6.948757,-58.450001,-12.46,3.15,1729429275312.0,0.0
-2.742175,-9.722038,-6.04427,-95.900002,-13.72,-45.220001,1729429275325.0,0.0
-1.737189,-4.529613,-5.546563,-12.25,-12.6,-38.290001,1729429275345.0,0.0
-3.007778,-6.297909,-6.805188,-11.2,2.52,-27.440001,1729429275365.0,0.0
-2.68714,-8.719445,-9.678967,-110.529999,-3.43,-5.46,1729429275387.0,0.0
-1.438086,-3.756732,-12.071791,-68.110001,13.440001,-20.65,1729429275406.0,0.0
-0.361316,-0.445065,-11.626726,-15.12,34.509998,4.69,1729429275426.0,0.0
-0.339781,-3.378666,-8.9348,-23.52,62.09,31.85,1729429275445.0,0.0
0.260818,-5.785845,-7.293324,-63.91,71.330002,30.66,1729429275465.0,0.0
3.194418,-7.652246,-9.942179,-62.510002,62.860001,18.969999,1729429275486.0,0.0
4.677969,-4.414758,-11.062018,-31.57,63.700001,-4.06,1729429275507.0,0.0
-6.123233,-7.458428,-2.251646,33.810001,73.010002,13.3,1729429275527.0,0.0
-9.875179,-14.486149,-5.881558,15.4,43.400002,-42.0,1729429275545.0,0.0
1.749153,-0.66999,-5.582455,179.690002,-10.29,-70.699997,1729429275566.0,0.0
-2.952743,-2.469393,-5.979663,171.990005,14.7,-16.17,1729429275586.0,0.0
-1.90708,-3.383451,-2.825923,182.139999,-13.02,5.39,1729429275622.0,0.0
-2.376073,-5.611169,-0.504886,271.809998,-31.08,26.880001,1729429275633.0,0.0
-8.049455,-2.005185,-4.907679,88.900002,-22.469999,44.099998,1729429275652.0,0.0
-1.775474,-11.040483,-5.812167,19.110001,-60.200001,50.610001,1729429275665.0,0.0
0.26321,-8.269595,-4.225725,50.470001,-31.780001,72.800003,1729429275694.0,0.0
-4.532006,-15.483955,-5.106283,15.89,-23.1,59.779999,1729429275707.0,0.0
-4.512863,-12.342178,-7.049256,-54.740002,-35.560001,13.37,1729429275725.0,0.0
-2.189433,-10.080962,-5.71406,-96.459999,-27.23,-10.71,1729429275746.0,0.0
-1.928615,-8.362915,-6.345766,-127.470001,-18.41,-17.5,1729429275765.0,0.0
-2.526821,-8.927622,-6.352944,-116.620003,-10.64,-10.15,1729429275788.0,0.0
-1.794617,-7.776673,-7.178468,-118.160004,-6.16,-16.940001,1729429275805.0,0.0
-1.182054,-5.414958,-7.855636,-161.559998,2.66,-24.360001,1729429275833.0,0.0
-0.215354,-4.074977,-10.633704,-181.089996,1.82,-12.53,1729429275845.0,0.0
1.619941,-2.213361,-13.500306,-157.639999,19.32,-0.98,1729429275865.0,0.0
2.371287,-5.623133,-12.320643,-15.96,35.490002,35.209999,1729429275887.0,0.0
0.244068,-1.490728,-10.097712,124.949997,80.220001,33.18,1729429275905.0,0.0
-5.551349,-4.141976,-2.98385,93.449997,86.590004,37.450001,1729429275928.0,0.0
-4.61097,-9.631111,-5.661418,-24.99,51.939999,-16.52,1729429275951.0,0.0
-2.591427,-11.550155,2.146362,138.600006,-1.05,-17.08,1729429276041.0,0.0
-4.091727,-3.098706,-1.194018,181.440002,-5.95,-56.91,1729429276041.0,0.0
-5.991628,-3.730411,-5.816952,14.63,-34.509998,-13.37,1729429276042.0,0.0
-2.177469,-9.217153,-9.162118,-82.110001,-27.93,-18.200001,1729429276042.0,0.0
-1.117448,-3.74716,-8.944371,-10.22,-14.42,5.04,1729429276048.0,0.0
-0.976272,-9.97807,-5.4006,77.559998,-25.9,29.75,1729429276066.0,0.0
-1.741975,-8.944371,-4.761717,89.669998,-21.42,40.32,1729429276088.0,0.0
-2.885744,-9.092726,-5.785845,10.36,-44.029999,41.23,1729429276109.0,0.0
-3.235096,-11.64826,-6.592227,38.360001,-31.639999,33.18,1729429276131.0,0.0
-3.251846,-11.547763,-6.74776,-28.210001,-26.110001,17.85,1729429276146.0,0.0
-3.347559,-12.859028,-7.039684,-101.709999,-28.91,-11.69,1729429276165.0,0.0
-1.758725,-6.216553,-7.4345,-105.699997,-32.34,-40.599998,1729429276186.0,0.0
-2.313859,-7.838887,-9.205189,-95.129997,-13.51,-25.34,1729429276206.0,0.0
-2.11047,-7.357929,-8.932407,-70.769997,3.78,-16.940001,1729429276226.0,0.0
-1.813759,-5.32403,-7.920243,-58.170002,15.33,-10.22,1729429276245.0,0.0
-1.105484,-4.338188,-8.88455,-97.720001,19.530001,-14.49,1729429276265.0,0.0
-0.399601,-4.862216,-7.563712,-98.980003,19.74,3.29,1729429276286.0,0.0
-0.614955,-4.046263,-6.455836,-94.779999,21.07,3.36,1729429276306.0,0.0
-1.387837,-4.893322,-7.960921,-44.799999,12.74,13.65,1729429276325.0,0.0
-0.217747,-3.354738,-12.763316,-5.46,14.07,15.82,1729429276346.0,0.0
-0.229711,-3.232704,-11.983256,41.650002,40.459999,26.950001,1729429276366.0,0.0
-2.584249,-3.625126,-5.209175,63.490002,53.830002,19.809999,1729429276387.0,0.0
-5.692525,-7.88435,-5.929415,13.79,23.73,-14.07,1729429276407.0,0.0
-1.914258,-6.486942,-7.207181,33.950001,-2.24,-55.439999,1729429276437.0,0.0
-2.294717,-3.218346,-4.232903,90.650002,-1.33,-42.420002,1729429276449.0,0.0
-2.624927,-6.752545,-7.980063,38.57,0.91,-23.17,1729429276466.0,0.0
-3.081956,-5.17089,-7.867601,128.449997,-5.25,-2.17,1729429276488.0,0.0
-2.323431,-6.716653,-5.848059,163.869995,-8.19,14.21,1729429276510.0,0.0
-1.710868,-12.509676,-2.148755,81.550003,-26.25,13.93,1729429276528.0,0.0
0.301496,-7.389036,-6.173482,23.66,-20.58,27.299999,1729429276551.0,0.0
-1.9669,-6.558727,-1.445265,-19.25,-11.27,22.540001,1729429276567.0,0.0
-5.465207,-12.03829,-7.290931,-59.639999,-49.420002,37.099998,1729429276587.0,0.0
-0.59342,-11.755937,-7.130611,66.150002,-54.040001,10.5,1729429276609.0,0.0
-4.199404,-5.907879,-6.628119,14.49,-15.190001,4.41,1729429276628.0,0.0
-4.409972,-9.458827,-8.267202,-71.959999,-25.41,1.68,1729429276647.0,0.0
-1.138984,-7.944171,-7.386643,-49.560001,-24.219999,1.89,1729429276667.0,0.0
-2.330609,-7.56132,-7.295716,-23.66,-5.32,4.9,1729429276688.0,0.0
-2.230111,-7.79103,-7.91785,-24.15,-2.73,-0.56,1729429276707.0,0.0
-1.337588,-7.152147,-7.082755,-7.91,-0.14,-3.57,1729429276728.0,0.0
-1.414158,-6.788438,-7.293324,-15.4,1.26,-9.73,1729429276747.0,0.0
-1.342373,-6.204589,-7.264609,-22.049999,-0.7,-7.98,1729429276767.0,0.0
-1.964507,-6.601797,-6.826723,-14.35,5.81,-1.89,1729429276790.0,0.0
-2.445465,-6.709475,-6.915257,-20.860001,7.98,-5.39,1729429276808.0,0.0
-2.734996,-6.776474,-7.013363,-21.77,6.58,-6.58,1729429276829.0,0.0
-2.816352,-6.570691,-7.336394,-15.54,5.25,-6.93,1729429276847.0,0.0
-2.773281,-6.202196,-7.534998,-6.16,6.09,-3.78,1729429276867.0,0.0
-3.081956,-6.235696,-7.039684,4.9,10.99,2.52,1729429276888.0,0.0
-2.971886,-6.491727,-6.618547,5.74,9.45,3.57,1729429276908.0,0.0
-2.778067,-6.721439,-6.618547,1.96,4.83,1.54,1729429276927.0,0.0
-2.730211,-6.518049,-7.003791,-1.12,1.19,-1.89,1729429276947.0,0.0
-2.739782,-6.333801,-6.953543,-2.73,-1.26,-2.8,1729429276967.0,0.0
-2.799603,-6.532406,-6.98465,-3.57,-0.21,-0.42,1729429276990.0,0.0
-2.809174,-6.51087,-6.745367,-3.57,-0.42,1.05,1729429277008.0,0.0
-2.823531,-7.209574,-6.721439,4.9,-1.75,2.38,1729429277030.0,0.0
-2.701497,-6.936793,-7.046863,5.81,-4.9,-1.05,1729429277046.0,0.0
-2.665605,-6.431907,-6.855437,11.62,-5.32,-0.98,1729429277066.0,0.0
-2.76371,-6.642475,-6.597012,2.8,-5.81,0.63,1729429277087.0,0.0
-2.74696,-7.101898,-6.463014,-7.91,-7.91,1.61,1729429277108.0,0.0
-2.790031,-6.833901,-6.795617,-8.75,-9.24,0.21,1729429277128.0,0.0
-2.816352,-6.111269,-7.745567,-8.54,-8.68,-0.28,1729429277148.0,0.0
-2.404787,-6.350551,-8.080563,-29.540001,-4.06,-0.98,1729429277168.0,0.0
-1.945365,-6.288338,-8.872586,-33.25,0.35,-1.4,1729429277191.0,0.0
-1.741975,-4.541577,-9.322437,-51.869999,8.47,-4.48,1729429277207.0,0.0
-1.004985,-4.321437,-10.363315,-62.369999,17.290001,3.43,1729429277229.0,0.0
-0.918844,-4.778467,-11.916256,-49.420002,41.509998,12.46,1729429277248.0,0.0
-1.562513,-5.328816,-9.401401,-55.650002,61.529999,5.74,1729429277269.0,0.0
-4.211368,-8.4012,-3.550949,-68.949997,46.48,-3.43,1729429277289.0,0.0
-3.948158,-7.49432,-7.240681,-56.77,27.440001,-35.0,1729429277307.0,0.0
-3.0006,-7.776673,-1.840081,51.799999,-4.27,-23.73,1729429277328.0,0.0
-0.985843,-3.04367,-9.932607,87.709999,-3.43,-31.92,1729429277346.0,0.0
-2.620141,-5.812167,-8.815158,51.939999,1.96,-12.18,1729429277367.0,0.0
-2.306681,-6.843473,-7.657032,49.490002,7.28,-14.49,1729429277388.0,0.0
-3.716053,-2.924029,-5.515456,85.260002,11.34,-7.28,1729429277407.0,0.0
-2.974278,-8.726624,-4.847858,21.280001,-2.94,-8.4,1729429277427.0,0.0
3.031706,-7.106683,-7.889136,75.949997,-41.860001,-11.83,1729429277447.0,0.0
0.258425,1.622334,-8.606983,195.300003,-21.559999,24.5,1729429277467.0,0.0
-5.424529,-4.914857,-5.989235,110.18,-23.1,50.959999,1729429277490.0,0.0
-2.888137,-13.421343,-6.862615,63.209999,-39.970001,27.09,1729429277507.0,0.0
-1.835295,-12.526425,-6.474977,89.110001,-29.049999,10.22,1729429277527.0,0.0
-3.165704,-10.277173,-6.104091,29.540001,-15.05,-14.49,1729429277547.0,0.0
-1.612763,-10.660025,-7.085148,12.04,-29.889999,-28.630001,1729429277568.0,0.0
-3.194418,-7.692925,-4.941179,98.419998,0.91,-3.29,1729429277596.0,0.0
-4.709075,-7.204789,-4.472186,93.519997,13.51,0.35,1729429277606.0,0.0
-3.931407,-7.879565,-4.029513,59.57,3.29,7.0,1729429277628.0,0.0
-2.991028,-8.059027,-3.744767,57.119999,-0.42,8.19,1729429277646.0,0.0
-2.931208,-7.869993,-3.330809,40.110001,-1.68,1.54,1729429277666.0,0.0
-2.679961,-8.099705,-3.598805,8.19,-10.71,-4.06,1729429277690.0,0.0
-2.651247,-9.24826,-5.233103,23.1,-22.610001,-4.41,1729429277707.0,0.0
-3.120241,-9.202796,-4.969893,102.760002,-20.93,11.27,1729429277727.0,0.0
-3.562913,-9.341579,-2.742175,186.479996,-10.36,14.84,1729429277746.0,0.0
-4.163511,-8.353344,-0.768096,174.930008,-7.14,11.27,1729429277766.0,0.0
-4.266403,-10.238889,-3.519842,110.389999,-29.82,-3.08,1729429277788.0,0.0
-2.471786,-10.849058,-3.218346,184.589996,-50.959999,-0.14,1729429277806.0,0.0
-3.701697,-9.303294,-0.370888,299.25,4.48,13.09,1729429277826.0,0.0
-3.448057,-12.16511,-0.047856,269.98999,-19.530001,-10.15,1729429277845.0,0.0
-1.351945,-12.406786,0.119641,292.880005,-14.49,-17.08,1729429277873.0,0.0
-0.823131,-9.683753,0.729811,308.559998,19.879999,-25.9,1729429277886.0,0.0
-1.98365,-12.715459,-2.596212,257.670013,17.780001,-37.939999,1729429277907.0,0.0
-0.502493,-10.090532,0.885344,305.970001,37.310001,-49.0,1729429277927.0,0.0
-2.249253,-6.860222,4.871787,372.679993,65.099998,-46.970001,1729429277946.0,0.0
-2.158326,-6.534799,5.295317,322.350006,44.799999,-60.41,1729429277967.0,0.0
-1.773082,-6.317052,4.663611,280.700012,34.16,-71.959999,1729429277988.0,0.0
-1.976472,-5.4006,5.489135,278.600006,37.029999,-70.07,1729429278009.0,0.0
-2.56032,-4.608576,6.551548,272.929993,35.84,-62.02,1729429278032.0,0.0
-3.460021,-3.457629,8.437093,247.380005,31.5,-54.32,1729429278049.0,0.0
-3.529413,-2.679961,9.35833,176.680008,14.63,-42.91,1729429278067.0,0.0
-3.5007,-2.734996,9.784252,88.410004,-8.54,-25.83,1729429278090.0,0.0
-4.424329,-1.842474,5.448457,45.5,-25.690001,-10.64,1729429278110.0,0.0
-3.273381,2.24686,9.647861,17.639999,-17.219999,15.89,1729429278128.0,0.0
-4.419543,1.160519,3.677768,-192.570007,-5.95,56.84,1729429278318.0,0.0
-1.74676,0.574277,3.696911,-398.929993,12.11,41.23,1729429278320.0,0.0
-3.955336,-0.681954,1.024128,-601.090027,8.75,77.279999,1729429278321.0,0.0
-4.953143,-9.142976,1.232304,-741.159973,-36.540001,67.480003,1729429278325.0,0.0
-0.964308,-9.068797,-7.551748,-748.929993,-46.34,10.57,1729429278331.0,0.0
-0.634098,-10.040283,0.614955,-590.309998,-2.38,4.13,1729429278332.0,0.0
-2.06022,-4.922036,0.746561,-484.470001,-21.98,3.36,1729429278333.0,0.0
-4.216154,-10.502099,-8.415558,-371.630005,-52.779999,2.31,1729429278334.0,0.0
-2.778067,-20.997021,-11.392227,-50.610001,-44.450001,-3.36,1729429278342.0,0.0
-3.213561,-12.03829,-4.429115,314.160004,44.939999,10.57,1729429278343.0,0.0
-6.18784,-5.718846,2.947958,539.48999,63.139999,22.120001,1729429278356.0,0.0
-4.503292,-5.304887,6.008378,562.940002,8.89,15.47,1729429278373.0,0.0
-4.268795,-8.539984,5.876772,540.820007,-11.83,-2.94,1729429278389.0,0.0
-1.301696,-10.356135,2.266003,569.380005,-1.33,-34.09,1729429278409.0,0.0
1.591227,-9.351151,5.259424,583.52002,69.230003,-61.110001,1729429278429.0,0.0
-2.079363,-6.108876,9.836893,453.809998,69.090004,-78.82,1729429278448.0,0.0
0.674776,-3.929015,9.090333,331.730011,20.370001,-61.950001,1729429278469.0,0.0
-0.902094,-0.859023,11.550155,283.5,17.43,-48.09,1729429278490.0,0.0
-2.646462,0.282353,8.743374,152.880005,-11.2,-46.549999,1729429278511.0,0.0
-5.79781,9.348758,2.971886,64.75,-10.29,-12.46,1729429278529.0,0.0
-6.259624,3.04367,3.852444,-40.810001,19.32,41.439999,1729429278550.0,0.0
-2.74696,1.141376,5.446064,-238.279999,51.450001,40.18,1729429278579.0,0.0
-0.480957,-2.935993,10.293922,-418.040009,69.580002,58.52,1729429278609.0,0.0
-4.201797,-2.612962,3.665804,-610.820007,27.51,91.489998,1729429278613.0,0.0
-4.843073,-8.62134,1.359123,-721.419983,-42.560001,103.669998,1729429278630.0,0.0
-2.414358,-15.522241,-1.270589,-726.109985,-44.450001,41.93,1729429278649.0,0.0
-3.0006,-11.971292,0.789631,-557.409973,-13.79,11.13,1729429278669.0,0.0
-3.718446,-14.325829,-2.718246,-234.779999,-13.440001,38.220001,1729429278690.0,0.0
-5.627919,-16.240088,-0.007178,171.779999,2.24,33.810001,1729429278710.0,0.0
-5.285746,-2.237289,7.070791,441.350006,24.639999,-4.9,1729429278836.0,0.0
-3.754339,-6.728617,5.982057,492.380005,35.91,-10.78,1729429278839.0,0.0
-3.460021,-7.271788,4.644469,420.070007,5.39,-16.73,1729429278840.0,0.0
-3.211168,-4.768896,5.094319,411.320007,30.799999,-25.200001,1729429278842.0,0.0
-4.661219,-6.987042,11.858829,429.589996,69.440002,-38.709999,1729429278843.0,0.0
-3.591627,-7.068398,11.693724,386.399994,72.870003,-61.880001,1729429278852.0,0.0
-2.074577,-3.474378,8.9683,242.759995,18.48,-75.809998,1729429278868.0,0.0
-3.620341,9.195618,1.246661,197.820007,3.36,-65.309998,1729429278889.0,0.0
-10.497313,10.183852,1.179662,75.32,19.809999,2.66,1729429279183.0,0.0
-6.405586,-2.019542,10.648061,-66.919998,41.299999,40.040001,1729429279184.0,0.0
-1.978864,-3.677768,6.589834,-223.440002,16.379999,45.990002,1729429279185.0,0.0
-3.811767,1.598405,4.728218,-252.699997,52.009998,77.349998,1729429279190.0,0.0
-3.974478,-5.4341,11.200804,-414.329987,40.670002,96.809998,1729429279191.0,0.0
-7.357929,-13.316057,2.78046,-595.630005,-43.400002,75.949997,1729429279193.0,0.0
-3.012564,-12.751352,-1.421337,-572.039978,-14.28,45.849998,1729429279194.0,0.0
-4.448257,-3.524628,9.585647,-527.450012,34.509998,36.610001,1729429279213.0,0.0
-4.737789,-5.601598,-7.881958,-518.349976,2.31,20.51,1729429279214.0,0.0
-4.0008,-16.101303,-4.146761,-191.240005,-80.080002,-37.939999,1729429279215.0,0.0
-9.370294,-12.8686,-1.770689,251.720001,-9.8,-3.15,1729429279216.0,0.0
-7.302894,-5.508278,0.739382,434.209991,12.53,-36.189999,1729429279217.0,0.0
-4.890929,-4.754539,5.058427,507.429993,37.310001,-35.139999,1729429279218.0,0.0
-4.84068,-5.977271,5.335995,527.72998,27.58,-40.25,1729429279223.0,0.0
-4.893322,-5.096712,6.235696,549.640015,49.209999,-51.869999,1729429279224.0,0.0
-6.257231,-7.410572,10.279566,481.390015,58.66,-81.269997,1729429279226.0,0.0
-4.816752,-8.391629,12.004791,281.540009,11.9,-100.940002,1729429279230.0,0.0
-2.222932,-2.85703,10.920842,199.149994,-15.26,-93.800003,1729429279248.0,0.0
-1.17009,1.454836,7.456036,169.119995,-38.849998,-77.349998,1729429279272.0,0.0
-1.258625,3.735196,6.147161,129.710007,-35.98,-44.029999,1729429279291.0,0.0
-5.893522,4.084548,-0.122034,70.279999,-25.969999,-1.82,1729429279310.0,0.0
-7.728817,4.015156,2.730211,-30.73,23.73,20.65,1729429279331.0,0.0
-3.371487,3.505485,7.999206,-202.440002,51.310001,43.75,1729429279351.0,0.0
-0.284746,1.825724,4.567898,-542.289978,68.459999,81.480003,1729429279371.0,0.0
-7.810174,-4.9675,7.645068,-734.650024,20.51,158.410004,1729429279391.0,0.0
-5.381458,-12.134004,-2.445465,-993.650024,-80.919998,71.889999,1729429279410.0,0.0
-5.036892,-9.516255,4.991428,-1024.660034,-74.760002,29.469999,1729429279431.0,0.0
-5.807381,-17.982061,-15.63231,-752.780029,-75.949997,-9.87,1729429279450.0,0.0
-7.168896,-10.741381,-10.722239,-385.0,-27.299999,-14.84,1729429279470.0,0.0
-7.410572,-20.566309,-6.068198,103.809998,-30.66,-27.299999,1729429279491.0,0.0
-4.632504,-6.472585,-5.71406,395.850006,-6.02,-74.620003,1729429279510.0,0.0
-5.319244,-3.921836,2.744568,626.780029,-4.06,16.52,1729429279532.0,0.0
-4.364508,-3.658626,4.024727,702.309998,-4.76,-5.74,1729429279552.0,0.0
-5.465207,-5.340781,5.991628,733.599976,14.21,-23.24,1729429279571.0,0.0
-6.855437,-6.491727,4.692325,712.530029,31.360001,-26.950001,1729429279592.0,0.0
-5.4006,-10.066606,9.944571,563.640015,53.060001,-84.279999,1729429279611.0,0.0
-3.426522,-11.284552,10.664811,301.0,-10.22,-97.230003,1729429279633.0,0.0
-1.897508,-3.376273,9.784252,252.699997,-18.34,-95.480003,1729429279652.0,0.0
-0.849452,1.301696,7.501499,178.5,-50.189999,-86.590004,1729429279682.0,0.0
-1.777867,0.543171,6.793223,82.18,-64.610001,-45.150002,1729429279692.0,0.0
-8.906086,13.423735,-4.974678,-21.07,-64.190002,0.84,1729429279711.0,0.0
-9.631111,5.335995,-0.222532,-45.009998,7.0,47.740002,1729429279733.0,0.0
-4.419543,1.335195,11.921042,-279.579987,60.200001,41.23,1729429279751.0,0.0
-2.507678,0.256032,11.4018,-525.909973,61.389999,83.090004,1729429279771.0,0.0
-4.350152,-3.050849,6.726225,-785.049988,-13.86,111.860001,1729429279796.0,0.0
-6.757331,-5.132604,2.239682,-1062.670044,-54.599998,92.400002,1729429279812.0,0.0
-4.981857,-3.991228,-17.338394,-1121.75,-135.869995,-28.139999,1729429279833.0,0.0
-7.121039,-11.464014,-21.652653,-846.789978,-68.25,-32.34,1729429279852.0,0.0
-2.567499,-17.584854,-17.149361,-266.209991,-51.799999,21.0,1729429279871.0,0.0
-2.344966,-12.083755,-6.396015,226.100006,54.880001,-0.84,1729429279893.0,0.0
-7.582855,-4.108476,0.55992,461.51001,78.330002,-31.08,1729429279919.0,0.0
-6.960721,-3.732803,7.793423,530.530029,-2.17,28.77,1729429279931.0,0.0
-4.201797,-5.98445,4.536791,530.599976,-39.830002,-7.21,1729429279953.0,0.0
-4.517649,-4.890929,5.623133,668.849976,25.83,-25.48,1729429279971.0,0.0
-6.429514,-9.24108,7.944171,646.799988,79.239998,-30.66,1729429279993.0,0.0
-4.599005,-12.571891,10.24846,449.330017,50.82,-67.830002,1729429280012.0,0.0
-2.309074,-8.492127,10.083356,342.929993,25.690001,-90.860001,1729429280036.0,0.0
-2.481357,-4.572684,9.923036,287.279999,6.58,-83.650002,1729429280053.0,0.0
-1.11027,0.643669,7.896315,227.360001,-10.71,-87.919998,1729429280073.0,0.0
-4.469792,2.361716,7.003791,155.539993,-21.700001,-54.670002,1729429280093.0,0.0
-8.609376,3.708875,-4.740182,55.02,-28.07,-26.880001,1729429280112.0,0.0
-9.638289,5.158926,2.488536,-25.200001,37.380001,9.31,1729429280132.0,0.0
-2.959922,1.548156,11.722438,-248.290009,47.32,19.040001,1729429280152.0,0.0
1.036092,-1.68694,7.183254,-463.119995,61.670002,27.02,1729429280173.0,0.0
-4.816752,-4.59422,8.95155,-584.849976,-1.47,112.699997,1729429280203.0,0.0
-9.066404,-7.300502,6.242875,-698.179993,-12.46,104.160004,1729429280286.0,0.0
-5.355137,-12.162716,-2.569891,-734.789978,-117.669998,31.43,1729429280290.0,0.0
-5.448457,-14.177474,-13.289737,-538.440002,-21.49,-12.39,1729429280306.0,0.0
-4.735396,-9.394222,8.353344,-31.5,-17.43,0.84,1729429280307.0,0.0
-9.796216,-8.11167,5.915058,253.470001,30.1,-13.3,1729429280308.0,0.0
-5.158926,-6.015556,0.567099,209.720001,-49.209999,-47.810001,1729429280317.0,0.0
-3.254239,-9.267403,0.105284,350.700012,-2.66,-27.51,1729429280332.0,0.0
-4.024727,-5.058427,3.345166,526.75,56.279999,-39.619999,1729429280351.0,0.0
-5.843273,-1.629512,7.525427,587.440002,80.010002,-23.799999,1729429280372.0,0.0
-6.819544,-6.582655,9.992428,520.169983,56.420002,-44.939999,1729429280395.0,0.0
-5.268995,-8.453842,11.801401,306.950012,21.700001,-77.699997,1729429280414.0,0.0
-4.326223,-8.123632,9.669396,171.289993,-16.309999,-70.699997,1729429280434.0,0.0
-2.684747,-2.254039,9.463614,177.309998,-15.82,-76.090004,1729429280454.0,0.0
-1.459622,1.165305,7.302894,131.529999,-31.15,-73.080002,1729429280473.0,0.0
-2.986243,1.708475,6.948757,72.239998,-38.5,-45.150002,1729429280497.0,0.0
-6.470192,1.567299,4.022335,13.37,-43.889999,-23.450001,1729429280514.0,0.0
-10.442278,0.923629,3.127419,34.650002,-17.290001,23.52,1729429280534.0,0.0
-5.513064,2.347359,7.733603,-43.049999,19.809999,28.91,1729429280553.0,0.0
-2.600998,-1.177269,7.381857,-235.550003,24.15,67.199997,1729429280573.0,0.0
-1.847259,1.545763,-0.368495,-367.920013,36.75,80.010002,1729429280597.0,0.0
-7.319644,-11.13859,10.463813,-420.48999,15.47,101.709999,1729429280614.0,0.0
-3.629912,-15.519848,13.28495,-527.72998,-25.9,62.93,1729429280638.0,0.0
-4.900501,-14.256437,8.477771,-577.359985,-21.07,50.330002,1729429280653.0,0.0
-6.60419,-5.058427,4.106083,-558.809998,-27.02,28.139999,1729429280673.0,0.0
-5.668597,-5.139783,-2.787638,-494.619995,-40.529999,12.32,1729429280697.0,0.0
-2.775674,-13.737194,-8.420342,-267.75,-56.700001,-6.51,1729429280713.0,0.0
-6.082555,-14.981462,-2.859423,165.339996,-21.0,10.15,1729429280733.0,0.0
-6.881758,-7.436893,2.864209,455.140015,20.51,-21.700001,1729429280753.0,0.0
-6.350551,-3.146562,5.410172,504.700012,41.23,-14.56,1729429280772.0,0.0
-4.859823,-4.618148,5.094319,475.230011,11.83,-30.66,1729429280796.0,0.0
-4.249653,-4.910072,7.293324,505.26001,30.59,-21.07,1729429280813.0,0.0
-5.242674,-4.232903,7.702496,537.669983,51.029999,-16.59,1729429280834.0,0.0
-6.530013,-5.398208,11.344372,406.070007,38.360001,-56.630001,1729429280852.0,0.0
-3.869194,-8.499306,10.585848,219.589996,-7.42,-63.630001,1729429280874.0,0.0
-4.350152,-3.821337,10.289137,165.550003,-14.42,-64.959999,1729429280896.0,0.0
-2.467,0.55992,7.84128,94.5,-36.68,-63.420002,1729429280913.0,0.0
-3.132205,-1.11027,4.412365,35.77,-49.98,-39.48,1729429280934.0,0.0
-10.119246,1.801795,1.426122,13.37,-36.82,-14.84,1729429280953.0,0.0
-6.084948,2.476572,3.620341,49.07,9.45,24.15,1729429280974.0,0.0
-4.61097,0.098106,7.420143,-95.620003,20.719999,42.77,1729429280994.0,0.0
-2.019542,-3.046063,6.709475,-246.190002,25.059999,50.119999,1729429281013.0,0.0
-6.125626,-0.497707,4.54397,-367.709991,36.400002,82.32,1729429281036.0,0.0
-5.733203,-11.320443,22.935204,-426.369995,13.79,105.139999,1729429281053.0,0.0
-6.635297,-8.322237,5.625526,-642.039978,-45.5,51.939999,1729429281073.0,0.0
-5.735595,-4.965107,3.598805,-764.330017,-29.889999,43.400002,1729429281094.0,0.0
-5.881558,-5.551349,0.457029,-788.549988,-41.439999,11.55,1729429281114.0,0.0
-2.342573,-9.844072,-6.716653,-630.419983,-77.279999,-14.49,1729429281133.0,0.0
-3.510271,-13.411771,-11.425728,-238.139999,-42.139999,3.85,1729429281152.0,0.0
-7.281359,-16.615761,-7.743174,180.600006,8.47,4.9,1729429281177.0,0.0
-6.419943,-9.21476,-1.366302,489.369995,45.220001,-38.220001,1729429281289.0,0.0
-5.56092,-5.211568,3.285345,628.530029,57.119999,-26.389999,1729429281293.0,0.0
-4.063013,-5.197211,4.285545,622.22998,37.869999,-37.869999,1729429281295.0,0.0
-4.031906,-5.730811,8.303094,571.059998,55.16,-70.419998,1729429281296.0,0.0
-4.898108,-4.948357,10.246067,441.48999,24.780001,-78.959999,1729429281299.0,0.0
-3.567699,-3.259024,11.679367,354.549988,5.11,-62.860001,1729429281307.0,0.0
-1.813759,-4.756931,9.568897,226.169998,-37.170002,-56.139999,1729429281313.0,0.0
-1.65344,-1.318445,7.767102,178.360001,-35.0,-64.050003,1729429281332.0,0.0
-3.498307,1.07677,6.884151,102.900002,-37.240002,-46.060001,1729429281658.0,0.0
-9.810574,3.95055,1.244268,48.790001,-40.32,-22.82,1729429281660.0,0.0
-6.953543,1.043271,4.515256,59.5,3.15,-1.54,1729429281660.0,0.0
-5.242674,2.9671,7.740781,-45.709999,23.450001,10.5,1729429281660.0,0.0
-1.842474,-0.808774,8.281559,-182.070007,3.29,44.939999,1729429281661.0,0.0
-0.753739,0.397209,4.443472,-309.820007,25.48,49.279999,1729429281661.0,0.0
-8.133204,-3.601198,4.76411,-391.579987,15.47,85.470001,1729429281661.0,0.0
-5.156533,-5.668597,8.312666,-482.929993,10.64,62.860001,1729429281662.0,0.0
-5.458029,-3.378666,2.976671,-597.940002,-14.63,53.41,1729429281662.0,0.0
-0.648455,-9.717253,4.613362,-560.210022,-45.080002,38.43,1729429281663.0,0.0
-6.678369,-2.76371,-0.248854,-444.290009,-17.08,36.959999,1729429281663.0,0.0
-5.551349,-16.761723,-7.183254,-347.480011,-41.720001,5.74,1729429281663.0,0.0
-4.917251,-10.403993,0.653241,64.400002,2.8,-12.95,1729429281663.0,0.0
-8.142776,-8.566305,-2.09372,246.610001,10.01,-6.93,1729429281664.0,0.0
-4.728218,-8.379664,1.840081,330.679993,6.3,-28.0,1729429281664.0,0.0
-3.976871,-6.661618,3.414558,431.339996,31.360001,-33.459999,1729429281688.0,0.0
-3.749553,-3.436093,8.240881,532.210022,53.830002,-41.02,1729429281689.0,0.0
-5.079963,-2.517249,9.643075,522.970032,46.759998,-21.210001,1729429281692.0,0.0
-6.297909,-4.87418,10.08814,436.450012,20.860001,-33.389999,1729429281714.0,0.0
-5.814559,-6.501299,9.750752,265.790009,-8.33,-56.77,1729429281733.0,0.0
-3.54377,-4.381258,9.422935,198.309998,-12.95,-45.57,1729429281754.0,0.0
-3.548556,-3.811767,9.288938,181.580002,-20.299999,-55.16,1729429281773.0,0.0
-2.59382,-3.696911,9.099905,142.589996,-32.689999,-65.590004,1729429281795.0,0.0
-2.63689,-2.041078,9.250652,101.849998,-38.43,-63.349998,1729429281814.0,0.0
-1.725225,0.760918,7.759924,67.199997,-43.400002,-60.41,1729429281842.0,0.0
-2.811567,-1.85683,8.054241,54.459999,-39.970001,-37.450001,1729429281856.0,0.0
-8.154739,-1.268196,2.675175,29.33,-33.529999,-29.82,1729429281873.0,0.0
-7.317252,5.919843,2.964707,34.09,-0.98,-9.73,1729429281894.0,0.0
-1.832902,2.545963,6.477371,23.17,20.440001,9.52,1729429281913.0,0.0
-3.144169,-3.452843,6.987042,-63.84,20.65,45.57,1729429281935.0,0.0
-4.429115,-3.455236,5.659025,-199.360001,31.290001,49.139999,1729429281956.0,0.0
-3.09392,0.198604,10.506885,-309.049988,52.920002,51.59,1729429281974.0,0.0
-4.115655,0.035892,12.143576,-434.910004,33.529999,72.169998,1729429281995.0,0.0
-3.644269,0.540778,11.992826,-613.340027,-3.99,90.580002,1729429282015.0,0.0
-4.771288,-3.74716,3.096312,-817.109985,-42.84,76.370003,1729429282037.0,0.0
-4.601398,-3.742374,-1.040878,-949.47998,-40.740002,43.889999,1729429282054.0,0.0
-3.010171,-6.506085,-8.913264,-873.109985,-89.040001,-4.27,1729429282075.0,0.0
-5.386244,-12.289536,-12.547962,-559.440002,-69.090004,18.129999,1729429282095.0,0.0
-5.9342,-17.304893,-12.827922,-145.320007,-27.299999,19.67,1729429282117.0,0.0
-5.702096,-15.349957,-9.095119,202.440002,38.779999,3.92,1729429282137.0,0.0
-5.702096,-3.062813,-1.617548,387.799988,82.529999,-20.860001,1729429282154.0,0.0
-5.364708,-5.778666,7.728817,386.679993,70.279999,52.5,1729429282175.0,0.0
-2.09372,-13.217952,2.718246,299.179993,-56.349998,-18.129999,1729429282195.0,0.0
-2.175076,-10.028319,1.651048,482.649994,-14.77,-21.77,1729429282214.0,0.0
-4.630112,-10.167104,5.254639,609.280029,49.490002,-33.25,1729429282234.0,0.0
-5.424529,-9.305687,6.683154,446.390015,34.439999,-60.760002,1729429282254.0,0.0
-1.919044,-6.297909,6.979864,359.799988,-6.44,-51.450001,1729429282274.0,0.0
-3.969693,-3.656233,9.296116,389.970001,19.110001,-45.57,1729429282295.0,0.0
-3.615555,-4.608576,8.140383,308.910004,-18.200001,-59.43,1729429282319.0,0.0
-3.172883,-3.113062,8.135597,282.869995,-16.24,-69.090004,1729429282335.0,0.0
-4.68754,2.194218,9.12144,234.360001,-12.25,-49.700001,1729429282354.0,0.0
-5.630312,-1.378266,5.230711,108.150002,-31.710001,-22.960001,1729429282375.0,0.0
-7.338787,0.387637,5.953342,70.980003,-7.98,-18.9,1729429282396.0,0.0
-4.364508,0.208176,6.664011,21.629999,-3.15,-13.16,1729429282414.0,0.0
-3.06042,-1.07677,7.276574,-0.91,-3.71,3.71,1729429282436.0,0.0
-2.725425,-3.168097,7.549356,-15.68,-2.17,13.09,1729429282453.0,0.0
-3.579663,-4.091727,8.449057,0.49,2.24,18.34,1729429282474.0,0.0
-3.409772,-3.646662,7.630712,7.0,7.42,14.0,1729429282496.0,0.0
-4.383651,-2.845066,8.597411,7.63,10.57,3.29,1729429282515.0,0.0
-3.828516,-2.730211,8.549555,3.01,11.27,-2.17,1729429282535.0,0.0
-4.208975,-1.952543,8.79123,-1.61,11.55,-0.84,1729429282554.0,0.0
-4.328616,-1.775474,9.164511,-15.33,8.89,1.4,1729429282574.0,0.0
-3.991228,-1.335195,8.685946,-30.1,5.25,6.79,1729429282595.0,0.0
-4.381258,-1.459622,8.176274,-55.93,4.06,16.73,1729429282614.0,0.0
-4.369294,-0.368495,9.250652,-88.620003,11.9,31.710001,1729429282634.0,0.0
-3.929015,-1.045663,10.552348,-140.559998,3.5,43.82,1729429282653.0,0.0
-4.127619,-4.579862,11.736795,-199.639999,-25.969999,41.299999,1729429282674.0,0.0
-4.63729,-5.931807,9.954143,-208.320007,-51.310001,36.610001,1729429282694.0,0.0
-6.221339,-7.355537,11.92822,-182.210007,-45.080002,26.389999,1729429282714.0,0.0
-6.266802,-0.533599,11.152946,-249.270004,-43.330002,31.01,1729429282736.0,0.0
-7.472785,-1.842474,10.116854,-285.529999,-94.709999,77.0,1729429282754.0,0.0
-6.130411,1.540978,-2.079363,-288.890015,-123.480003,74.480003,1729429282774.0,0.0
-7.80778,-14.648861,-5.496314,-146.369995,-123.340004,48.720001,1729429282796.0,0.0
-2.823531,-16.208981,-0.078963,91.209999,-40.740002,-12.53,1729429282814.0,0.0
-1.050449,-10.021141,6.539584,386.399994,68.25,-16.73,1729429282835.0,0.0
-3.452843,-2.385644,10.499706,310.450012,109.129997,-101.080002,1729429282854.0,0.0
-2.964707,-7.549356,7.661818,10.71,36.049999,-64.050003,1729429282873.0,0.0
-0.545564,-10.908878,4.479364,-138.880005,-2.87,-64.050003,1729429282896.0,0.0
0.107677,-8.116454,5.386244,-5.67,60.900002,-82.809998,1729429282914.0,0.0
-2.148755,-4.431508,5.338387,112.770004,70.209999,-99.540001,1729429282934.0,0.0
-1.770689,1.344766,6.51087,140.210007,70.559998,-84.279999,1729429282953.0,0.0
-2.316252,1.337588,8.420342,71.82,50.049999,-56.77,1729429282974.0,0.0
-2.667997,0.327817,9.004191,-33.18,28.07,-25.83,1729429282996.0,0.0
-3.302095,-2.507678,9.77468,-61.459999,5.04,2.59,1729429283014.0,0.0
-3.256632,-0.875773,9.96132,-49.420002,4.13,16.799999,1729429283038.0,0.0
-5.079963,-2.794817,8.839087,-73.5,-5.67,37.029999,1729429283054.0,0.0
-6.82433,-1.320838,11.877973,-122.919998,-27.440001,41.650002,1729429283074.0,0.0
-9.375079,-2.931208,11.830115,-222.180008,-22.610001,46.200001,1729429283102.0,0.0
-6.285945,-7.659425,6.156733,-368.690002,-56.279999,48.790001,1729429283114.0,0.0
-4.989035,-8.549555,1.148555,-350.769989,-68.529999,18.34,1729429283134.0,0.0
-3.668197,-9.059227,7.377072,-168.0,-1.89,20.09,1729429283154.0,0.0
-6.585048,-4.089334,6.072984,-107.660004,28.630001,-7.98,1729429283173.0,0.0
-3.326023,-4.031906,4.62054,-267.470001,-11.69,-10.29,1729429283197.0,0.0
-3.421736,-9.576077,3.06042,-250.460007,-14.35,-6.93,1729429283214.0,0.0
-1.861616,-11.832507,-0.227318,-192.220001,5.67,2.52,1729429283234.0,0.0
-5.520242,-14.670395,-4.005585,-112.0,17.5,-5.88,1729429283254.0,0.0
-3.656233,-11.672189,-5.331209,27.790001,0.42,-17.43,1729429283274.0,0.0
-5.149354,-9.29133,0.346959,209.020004,17.43,-16.66,1729429283305.0,0.0
-5.546563,-7.228717,3.469593,281.820007,13.79,-23.73,1729429283313.0,0.0
-4.685147,-6.788438,2.423929,260.610016,1.33,-45.639999,1729429283408.0,0.0
-3.06042,-5.534599,2.48375,252.279999,3.08,-46.830002,1729429283408.0,0.0
-2.270789,-1.954936,9.717253,292.459991,21.559999,-21.49,1729429283408.0,0.0
-5.773881,-5.489135,10.559525,234.290009,-3.29,-13.3,1729429283409.0,0.0
-1.024128,-8.843873,6.046663,119.770004,-45.080002,-35.91,1729429283424.0,0.0
0.933201,-1.70369,3.412165,96.529999,28.42,-13.09,1729429283435.0,0.0
-3.012564,-3.07717,5.778666,27.719999,32.48,-2.45,1729429283453.0,0.0
-3.184847,-5.046463,6.709475,-45.360001,22.960001,21.0,1729429283472.0,0.0
-4.718646,2.239682,10.564312,-62.790001,36.400002,41.23,1729429283541.0,0.0
-7.018148,-5.553742,7.668997,-120.540001,-3.78,80.360001,1729429283543.0,0.0
-8.252845,-11.365908,-1.301696,-359.730011,-92.050003,38.43,1729429283545.0,0.0
-4.508078,-6.520442,2.0004,-289.799988,-11.9,32.549999,1729429283553.0,0.0
-2.536392,-7.850852,8.140383,-186.479996,44.099998,29.68,1729429283574.0,0.0
-2.555535,-10.782058,3.318845,-207.619995,28.42,10.64,1729429283593.0,0.0
-0.504886,-7.989635,0.734596,-235.270004,12.74,8.82,1729429283612.0,0.0
-5.309673,-8.585447,-1.026521,-167.020004,13.65,4.83,1729429283633.0,0.0
-4.041477,-8.487342,-1.438086,-103.110001,14.56,-3.01,1729429283653.0,0.0
-7.216753,-10.956735,-3.742374,-43.540001,9.94,-15.190001,1729429283672.0,0.0
-4.555934,-11.531013,-3.361916,55.650002,-8.12,-23.73,1729429283695.0,0.0
-4.295116,-9.777073,-1.215554,170.100006,8.68,-38.57,1729429283713.0,0.0
-3.649055,-6.30748,2.536392,264.040009,23.66,-36.330002,1729429283734.0,0.0
-3.383451,-5.489135,8.906086,287.0,7.7,-21.700001,1729429283754.0,0.0
-3.802195,-7.831708,6.802795,259.630005,-30.799999,-23.66,1729429283773.0,0.0
-2.830709,-7.070791,4.986642,242.899994,-13.09,-22.540001,1729429283795.0,0.0
-2.713461,-6.666404,5.407779,219.660004,9.87,-27.02,1729429283814.0,0.0
-2.072184,-6.675975,7.159326,176.539993,24.85,-14.21,1729429283834.0,0.0
-3.639483,-2.818745,5.867201,72.379997,43.82,-19.18,1729429283854.0,0.0
-2.591427,-4.895715,7.869993,-50.540001,10.5,26.950001,1729429283873.0,0.0
-5.541777,-3.275774,10.140782,-16.52,7.35,46.900002,1729429283894.0,0.0
-8.506484,-5.496314,12.059827,-14.42,-19.110001,36.049999,1729429283914.0,0.0
-1.978864,-8.379664,8.614161,-38.150002,-49.700001,39.48,1729429283934.0,0.0
-4.673182,-6.513263,2.007578,-84.910004,-17.360001,33.810001,1729429283954.0,0.0
-7.843673,-10.597812,-0.973879,-189.559998,-9.52,20.09,1729429283973.0,0.0
-3.787838,-9.607183,7.999206,-134.960007,11.76,17.219999,1729429283995.0,0.0
-3.541377,-7.221539,17.611174,-47.810001,38.779999,-1.05,1729429284013.0,0.0
-6.211767,-9.738789,7.68096,-195.580002,-38.5,21.700001,1729429284037.0,0.0
-1.308874,-9.107083,0.665205,-261.869995,-53.060001,22.610001,1729429284053.0,0.0
-3.101098,-9.98525,-0.533599,-198.309998,-38.57,-20.23,1729429284073.0,0.0
-7.135397,-13.567304,-2.87378,-97.160004,14.98,3.5,1729429284094.0,0.0
-3.371487,-10.765309,-1.459622,-18.059999,24.360001,0.28,1729429284121.0,0.0
-4.74736,-10.179067,-1.835295,44.73,8.75,-3.36,1729429284134.0,0.0
-5.178068,-8.961121,-1.804188,119.139999,-6.72,-10.85,1729429284153.0,0.0
-3.206382,-8.166703,-0.964308,210.279999,-22.889999,-45.220001,1729429284175.0,0.0
-2.165504,-3.972085,2.124826,339.98999,40.529999,-25.620001,1729429284195.0,0.0
-3.0006,-0.899701,8.776874,350.140015,50.540001,3.99,1729429284214.0,0.0
-3.89073,2.919244,13.127025,215.600006,29.049999,27.93,1729429284234.0,0.0
-6.235696,-5.63749,7.235896,63.84,-36.540001,35.349998,1729429284254.0,0.0
-1.299303,-9.846465,4.668397,59.920002,-13.09,30.940001,1729429284273.0,0.0
-1.5003,-7.932207,6.84108,123.410004,18.9,14.7,1729429284296.0,0.0
-3.452843,-1.787439,8.616554,97.650002,46.200001,15.82,1729429284314.0,0.0
-3.26381,-2.447858,9.437292,-23.1,13.93,39.970001,1729429284334.0,0.0
-5.230711,0.926022,10.030712,-84.139999,-10.01,67.269997,1729429284354.0,0.0
-7.625926,-6.594619,17.185251,-70.209999,-50.189999,63.98,1729429284374.0,0.0
-3.917051,-2.402394,14.325829,-120.75,-72.870003,54.880001,1729429284399.0,0.0
-9.473185,-7.633104,0.722632,-255.360001,-97.860001,56.700001,1729429284415.0,0.0
-4.931608,-11.444871,-0.598206,-261.799988,-64.400002,25.620001,1729429284434.0,0.0
-5.130211,-2.522035,10.557133,-10.57,56.630001,11.13,1729429284454.0,0.0
-2.952743,-4.67079,7.250252,-56.139999,26.389999,14.42,1729429284475.0,0.0
1.105484,-6.362515,1.237089,-250.880005,-15.75,-3.22,1729429284496.0,0.0
-2.931208,-8.061419,-1.256232,-285.25,20.440001,14.0,1729429284515.0,0.0
-6.774081,-11.641083,-4.098906,-193.759995,7.28,6.93,1729429284537.0,0.0
-6.793223,-12.514462,-2.67039,23.52,11.06,-2.94,1729429284555.0,0.0
-6.702296,-8.9683,2.09372,231.770004,24.290001,-25.690001,1729429284576.0,0.0
-7.704889,-4.945964,2.457429,274.26001,32.759998,-32.689999,1729429284597.0,0.0
-6.463014,-3.620341,2.498107,209.580002,10.64,-46.759998,1729429284615.0,0.0
-2.411965,-5.087141,5.113462,179.479996,2.94,-34.790001,1729429284636.0,0.0
-2.09372,1.301696,12.782458,225.470001,44.799999,-7.42,1729429284656.0,0.0
-7.221539,-6.063413,9.966106,210.490005,-6.65,0.63,1729429284675.0,0.0
1.531406,-8.365308,10.542776,147.630005,-14.21,-17.15,1729429284698.0,0.0
0.129212,2.15354,3.964907,84.349998,52.43,-15.47,1729429284716.0,0.0
-3.986443,-3.625126,7.216753,-28.91,14.42,19.110001,1729429284738.0,0.0
-4.4339,-3.546163,8.176274,-15.61,16.379999,38.5,1729429284756.0,0.0
-8.55434,3.026921,15.050854,31.710001,24.08,39.619999,1729429284776.0,0.0
-6.9009,-6.915257,17.163717,-96.25,-57.610001,59.290001,1729429284797.0,0.0
-8.865408,-3.859623,9.353544,-287.839996,-66.43,21.629999,1729429284816.0,0.0
-11.179268,-9.829715,-10.846665,-380.23999,-83.650002,19.74,1729429284840.0,0.0
1.234696,-3.567699,5.237889,-179.970001,35.77,-28.98,1729429284856.0,0.0
-10.305886,-2.242075,11.739187,9.31,104.019997,-2.66,1729429284875.0,0.0
-5.063213,-6.879365,8.161918,-131.320007,15.96,-25.549999,1729429284898.0,0.0
0.832702,-9.38465,8.073383,-192.570007,2.8,-42.420002,1729429284916.0,0.0
-3.565305,-9.504292,-0.5001,-150.710007,38.920002,-34.369999,1729429284936.0,0.0
-3.809374,-13.196418,-1.371087,-95.059998,51.099998,-47.740002,1729429284956.0,0.0
-4.436293,-12.390036,-0.662812,38.639999,42.349998,-45.43,1729429284976.0,0.0
-5.264209,-7.307681,2.801995,196.210007,56.560001,-55.790001,1729429284996.0,0.0
-6.45105,-7.724032,1.964507,210.0,24.290001,-78.540001,1729429285016.0,0.0
-5.115855,-6.766902,2.067399,188.089996,15.82,-79.870003,1729429285041.0,0.0
-2.409572,-4.074977,8.054241,198.309998,25.83,-69.93,1729429285055.0,0.0
-3.952943,-1.222732,10.995021,117.040001,5.95,-37.59,1729429285076.0,0.0
-3.474378,-6.850651,4.649254,77.349998,-56.07,-41.369999,1729429285096.0,0.0
1.26341,-7.609176,6.955935,171.570007,-24.219999,-31.85,1729429285117.0,0.0
-1.048056,-1.440479,6.065805,140.770004,46.48,-42.139999,1729429285136.0,0.0
-2.823531,0.112463,6.9679,12.46,36.889999,-9.17,1729429285155.0,0.0
-8.772088,-2.244468,10.456635,-52.5,4.2,31.92,1729429285175.0,0.0
-6.15434,-0.387637,11.985649,-62.650002,-15.96,37.029999,1729429285197.0,0.0
-4.086941,-7.534998,14.490934,-43.330002,-47.810001,43.82,1729429285277.0,0.0
-3.419343,-5.982057,12.516854,-91.139999,-28.98,30.66,1729429285278.0,0.0
-7.475177,2.213361,-5.601598,-308.839996,-17.710001,38.150002,1729429285278.0,0.0
-4.536791,-18.206987,0.870987,-236.809998,-62.369999,30.940001,1729429285279.0,0.0
-5.936593,-3.730411,8.877372,-14.77,100.730003,16.870001,1729429285310.0,0.0
-5.087141,-3.952943,8.702696,-138.460007,27.93,3.71,1729429285317.0,0.0
-5.072784,-10.226924,-1.215554,-292.459991,-19.67,5.32,1729429285337.0,0.0
0.09332,-15.859629,-2.383251,-224.070007,7.7,-53.34,1729429285355.0,0.0
-0.131605,-13.663017,0.200997,-67.830002,73.010002,-8.89,1729429285375.0,0.0
-6.163911,-11.088341,-1.074377,17.5,63.98,-9.1,1729429285399.0,0.0
-5.773881,-8.961121,1.981257,72.730003,27.299999,-30.1,1729429285416.0,0.0
-4.697111,-9.853643,-1.100698,113.260002,-17.780001,-79.660004,1729429285436.0,0.0
-2.888137,-5.680561,1.497907,204.75,-1.05,-71.120003,1729429285455.0,0.0
-1.009771,-6.345766,7.611568,231.350006,3.92,-54.950001,1729429285474.0,0.0
-2.675175,-1.5003,7.905886,186.270004,-11.62,-23.17,1729429285499.0,0.0
-3.737589,-6.192625,7.087541,163.100006,-29.68,-0.56,1729429285516.0,0.0
1.308874,-9.202796,3.452843,121.730003,-7.14,-13.65,1729429285535.0,0.0
-0.495314,-6.223732,2.751746,128.589996,48.299999,-23.1,1729429285555.0,0.0
-2.474179,0.16989,8.379664,104.510002,83.790001,-6.02,1729429285574.0,0.0
-9.013763,-0.358923,13.481163,-66.080002,40.25,35.98,1729429285596.0,0.0
-4.692325,-7.745567,11.882757,-154.979996,-56.349998,40.810001,1729429285615.0,0.0
-2.445465,-6.472585,10.980663,-26.110001,-52.990002,45.43,1729429285635.0,0.0
-3.565305,-6.283553,7.484749,-14.49,-47.18,41.790001,1729429285655.0,0.0
2.11047,1.859223,10.030712,-113.190002,-16.309999,48.23,1729429285675.0,0.0
-10.947165,-5.24746,5.754738,-307.860016,-73.57,72.800003,1729429285706.0,0.0
-9.49472,-11.255837,-9.499505,-378.630005,-129.080002,31.290001,1729429285715.0,0.0
-1.359123,-8.453842,7.594819,-90.580002,66.360001,20.16,1729429285738.0,0.0
-5.979663,-7.441679,8.178668,-103.669998,25.129999,20.790001,1729429285754.0,0.0
5.647062,-10.487741,-1.911865,-162.680008,-8.12,7.77,1729429285775.0,0.0
-3.67059,-11.143374,-6.798009,-165.759995,42.420002,-5.6,1729429285796.0,0.0
-6.357729,-11.006985,-6.965507,-83.860001,17.99,9.31,1729429285815.0,0.0
-5.95095,-12.547962,-0.602991,61.599998,9.1,-21.84,1729429285835.0,0.0
-4.795217,-10.095319,1.710868,213.710007,11.34,-42.490002,1729429285855.0,0.0
-5.149354,-7.975278,0.488136,274.470001,9.66,-58.240002,1729429285875.0,0.0
-1.366302,-4.941179,3.692125,292.809998,17.57,-48.09,1729429285896.0,0.0
-0.272782,-1.942972,9.923036,266.070007,38.080002,-20.65,1729429285916.0,0.0
-5.529813,-0.887737,11.200804,116.059998,-0.91,3.08,1729429285937.0,0.0
-3.550949,-11.75833,5.015356,11.27,-66.779999,-11.13,1729429286043.0,0.0
-0.210568,-11.703296,6.400801,79.870003,-16.24,-19.950001,1729429286044.0,0.0
-0.401994,-4.354938,5.783452,132.860001,45.220001,-35.560001,1729429286047.0,0.0
-0.531207,-2.175076,4.749753,23.799999,36.889999,-6.93,1729429286051.0,0.0
-4.036692,-2.036292,8.468199,-46.200001,27.93,25.059999,1729429286052.0,0.0
-3.443272,-1.409373,9.226725,-57.68,10.5,45.150002,1729429286055.0,0.0
-4.218546,-0.985843,12.268002,-13.09,-5.32,79.029999,1729429286075.0,0.0
-3.986443,-7.221539,14.49572,9.59,-33.529999,65.169998,1729429286100.0,0.0
-10.289137,-6.075377,3.680161,-127.540001,-55.510002,54.18,1729429286115.0,0.0
-10.583455,-15.495919,-6.45105,-290.709991,-73.220001,22.960001,1729429286134.0,0.0
0.512064,-11.734402,16.780865,-150.149994,80.57,-0.63,1729429286161.0,0.0
-6.336195,-10.475778,9.540184,-132.789993,46.27,21.98,1729429286174.0,0.0
-3.002992,-8.032705,5.120641,-185.430008,12.74,-15.82,1729429286197.0,0.0
0.803988,-9.573684,-2.151148,-232.190002,2.31,-11.55,1729429286215.0,0.0
-5.28096,-5.723632,-2.572284,-236.669998,35.0,15.61,1729429286234.0,0.0
-4.398008,-6.84108,-2.019542,-255.5,26.6,10.43,1729429286254.0,0.0
-4.453043,-9.348758,-3.129812,-267.75,-1.12,18.48,1729429286274.0,0.0
-4.268795,-13.055241,-3.658626,-173.669998,-12.6,-15.26,1729429286295.0,0.0
-5.893522,-13.787444,-5.156533,-15.82,-23.59,-28.42,1729429286314.0,0.0
-5.517848,-12.844672,-5.211568,158.199997,-23.52,-58.73,1729429286335.0,0.0
-3.730411,-10.133603,-4.118048,297.149994,-14.77,-70.699997,1729429286356.0,0.0
-3.017349,-7.733603,-2.304288,409.290009,33.040001,-72.309998,1729429286374.0,0.0
-1.768296,-2.935993,2.639283,476.630005,62.510002,-54.880001,1729429286395.0,0.0
-2.409572,-0.416351,12.045469,424.970001,73.57,-35.560001,1729429286415.0,0.0
-4.9675,-2.486143,11.255837,134.610001,24.710001,-4.06,1729429286435.0,0.0
-2.459821,-7.767102,6.242875,-4.2,-36.959999,-4.62,1729429286456.0,0.0
0.351745,-8.970692,5.190032,-19.25,-9.8,0.84,1729429286476.0,0.0
-0.734596,-4.926822,2.273181,-14.49,35.560001,-5.04,1729429286498.0,0.0
-2.404787,-4.905287,4.924429,-46.130001,37.73,24.219999,1729429286517.0,0.0
-3.388237,-5.441278,6.053841,-35.490002,31.57,40.389999,1729429286537.0,0.0
-3.814159,-4.888536,8.109276,-10.71,27.790001,50.610001,1729429286557.0,0.0
-4.893322,-2.194218,8.439486,-16.379999,18.41,71.260002,1729429286577.0,0.0
-6.005985,-8.118847,9.963714,-42.700001,-21.91,75.32,1729429286598.0,0.0
-5.321638,-13.347164,15.670596,-134.399994,-22.26,50.610001,1729429286616.0,0.0
-8.202596,-4.453043,8.327023,-363.440002,-22.82,39.060001,1729429286637.0,0.0
-8.616554,-7.482357,-2.74696,-489.790009,-79.590004,38.639999,1729429286656.0,0.0
0.528814,-9.047262,6.262017,-399.769989,-9.73,-0.07,1729429286676.0,0.0
-3.646662,-8.032705,2.964707,-269.01001,-2.87,16.66,1729429286698.0,0.0
-5.69731,-11.607583,-3.842873,-223.509995,-24.219999,8.68,1729429286717.0,0.0
-4.555934,-14.993427,-6.376873,-133.419998,-16.799999,-17.219999,1729429286738.0,0.0
-3.940979,-11.779866,-4.936393,3.15,17.08,-12.6,1729429286758.0,0.0
-5.419744,-10.413565,-2.78046,116.340004,35.0,-8.96,1729429286777.0,0.0
-4.814359,-9.023334,-2.904887,137.690002,19.25,-37.170002,1729429286800.0,0.0
-5.218746,-10.018748,-3.371487,141.119995,-6.72,-55.02,1729429286817.0,0.0
-3.558127,-12.019149,-3.242275,182.559998,-17.5,-62.510002,1729429286837.0,0.0
-2.438286,-11.172089,-2.871387,281.679993,13.86,-76.580002,1729429286856.0,0.0
-2.012364,-7.412964,-1.789831,421.679993,46.060001,-73.989998,1729429286882.0,0.0
-1.878366,-3.290131,2.120041,513.799988,76.160004,-72.590004,1729429286900.0,0.0
-3.409772,-1.014557,7.436893,456.330017,83.160004,-54.950001,1729429286918.0,0.0
-3.259024,-2.017149,9.348758,259.980011,36.189999,-39.759998,1729429286938.0,0.0
-2.801995,-3.940979,8.60459,103.599998,5.88,-25.129999,1729429286956.0,0.0
-2.11047,-4.23051,6.393622,58.170002,4.97,-14.91,1729429286978.0,0.0
-1.612763,-5.860023,5.776274,56.07,17.08,-6.79,1729429287008.0,0.0
-1.473979,-6.896115,7.192825,78.120003,20.440001,3.64,1729429287017.0,0.0
-2.155933,-3.945765,10.415956,113.470001,30.450001,5.11,1729429287040.0,0.0
-3.337988,0.634098,8.860621,43.610001,16.870001,27.09,1729429287056.0,0.0
-7.250252,-8.472985,12.772887,-135.729996,-34.369999,61.740002,1729429287360.0,0.0
-2.555535,-8.405986,13.457234,-104.019997,-52.290001,72.590004,1729429287361.0,0.0
-4.307081,-11.47837,10.633704,-42.349998,-32.27,33.32,1729429287361.0,0.0
-5.735595,-7.956135,6.333801,-98.699997,-42.139999,17.639999,1729429287367.0,0.0
-5.730811,-5.041678,6.975078,-209.020004,-22.469999,1.47,1729429287368.0,0.0
-8.647661,-10.033106,8.130811,-202.789993,27.299999,25.83,1729429287368.0,0.0
-3.349952,-3.952943,3.184847,-242.339996,-7.35,3.08,1729429287368.0,0.0
-2.244468,-9.875179,6.199803,-328.51001,-52.990002,-14.28,1729429287368.0,0.0
-3.249453,-10.655239,-2.98385,-331.170013,-62.439999,9.66,1729429287368.0,0.0
-3.359523,-10.076177,-1.847259,-324.799988,-65.519997,-3.92,1729429287368.0,0.0
-3.828516,-6.826723,4.62054,-311.570007,-58.869999,-15.68,1729429287369.0,0.0
-4.601398,-5.773881,-0.380459,-325.98999,-59.779999,-8.89,1729429287369.0,0.0
-5.295317,-7.460821,-7.006185,-371.630005,-78.889999,-17.5,1729429287369.0,0.0
-5.347959,-6.12084,-12.811172,-399.839996,-109.129997,-27.790001,1729429287369.0,0.0
-3.67059,-10.655239,-12.179466,-305.130005,-100.449997,-40.18,1729429287377.0,0.0
-1.825724,-9.123833,-6.204589,-86.239998,-69.090004,-19.25,1729429287395.0,0.0
-2.914458,-6.975078,-2.18704,213.639999,-17.43,2.31,1729429287416.0,0.0
-3.9338,-7.159326,-1.213161,365.820007,22.82,14.77,1729429287436.0,0.0
-2.773281,-9.614362,-0.270389,420.070007,16.66,25.129999,1729429287455.0,0.0
-3.055635,-5.20439,5.907879,620.27002,91.840004,-5.95,1729429287476.0,0.0
-4.728218,-4.381258,8.047063,506.170013,98.910004,-12.18,1729429287496.0,0.0
-4.036692,-6.403193,8.054241,266.559998,73.709999,-18.27,1729429287515.0,0.0
-2.115255,-10.195816,5.931807,140.139999,51.59,-26.950001,1729429287537.0,0.0
-2.938386,-5.367101,7.855636,93.099998,73.989998,-25.83,1729429287555.0,0.0
-3.768696,-5.752346,7.695317,-31.15,44.380001,-17.85,1729429287575.0,0.0
-3.139383,-7.188039,5.828916,-96.879997,16.799999,-6.3,1729429287596.0,0.0
-3.649055,-7.515855,5.879165,-50.959999,13.440001,-1.82,1729429287615.0,0.0
-2.947958,-9.267403,5.223531,49.0,14.7,-10.08,1729429287636.0,0.0
-3.56052,-7.645068,6.424729,117.879997,31.780001,-23.1,1729429287656.0,0.0
-3.452843,-6.884151,6.71426,86.379997,25.83,-26.25,1729429287676.0,0.0
-2.782853,-5.759524,5.60399,37.310001,19.460001,-21.98,1729429287697.0,0.0
-2.809174,-2.165504,6.692725,36.400002,24.99,-11.83,1729429287717.0,0.0
-5.304887,-3.570091,9.891929,36.400002,16.52,17.360001,1729429287736.0,0.0
-3.515057,-8.889337,7.391429,-83.090004,-29.610001,9.73,1729429287756.0,0.0
-3.196811,-9.602397,6.656832,-80.919998,-26.460001,10.57,1729429287776.0,0.0
-2.526821,-9.221939,7.566105,-183.680008,-15.82,-8.96,1729429287797.0,0.0
-2.074577,-8.01117,5.666204,-412.649994,-40.110001,-12.88,1729429287816.0,0.0
-3.065206,-9.561719,2.230111,-537.390015,-48.439999,-6.09,1729429287837.0,0.0
-2.462214,-9.233903,-0.681954,-566.02002,-28.280001,-20.93,1729429287856.0,0.0
-4.04387,-10.107283,2.084148,-575.539978,3.29,-36.400002,1729429287876.0,0.0
-4.039084,-7.240681,2.103291,-604.72998,8.61,-62.650002,1729429287898.0,0.0
-3.689733,-4.041477,0.191426,-632.940002,-6.02,-66.5,1729429287919.0,0.0
-4.706682,-3.242275,-4.888536,-607.530029,-17.710001,-63.77,1729429287937.0,0.0
-6.283553,-5.91745,-9.174082,-466.549988,-18.9,-30.380001,1729429287962.0,0.0
-4.582255,-8.786445,-10.82513,-237.580002,-16.309999,-1.75,1729429287977.0,0.0
-3.199204,-5.737988,-9.755538,32.34,-4.97,14.98,1729429288001.0,0.0
-3.957729,-7.314859,-8.889337,327.950012,26.74,39.060001,1729429288018.0,0.0
-3.290131,-7.810174,-6.396015,442.679993,28.280001,44.73,1729429288041.0,0.0
-3.041277,-6.096912,-4.005585,521.5,28.0,55.650002,1729429288058.0,0.0
-2.354537,-5.079963,-2.711068,548.169983,19.389999,59.57,1729429288079.0,0.0
-2.349752,-7.920243,0.181855,550.200012,22.26,47.459999,1729429288100.0,0.0
-3.287738,-9.430114,1.423729,551.880005,29.960001,23.1,1729429288117.0,0.0
-1.244268,-5.699703,3.254239,567.559998,37.73,9.24,1729429288140.0,0.0
-5.142176,-2.959922,8.678767,485.23999,72.660004,26.67,1729429288159.0,0.0
-4.481757,-10.547562,8.176274,210.770004,-0.63,7.91,1729429288177.0,0.0
-1.232304,-14.122439,4.723432,12.39,-33.740002,-2.45,1729429288206.0,0.0
-3.68734,-10.662418,5.508278,-19.32,-9.31,-0.21,1729429288218.0,0.0
-4.354938,-8.281559,4.680361,-166.880005,-9.8,-2.03,1729429288239.0,0.0
-4.206582,-9.925428,4.0008,-405.230011,-16.73,-14.84,1729429288258.0,0.0
-3.665804,-13.385449,4.95075,-587.22998,-9.52,-31.01,1729429288277.0,0.0
-3.110669,-10.202995,2.222932,-660.309998,-3.71,-70.0,1729429288300.0,0.0
-4.163511,-10.674382,2.433501,-624.330017,7.0,-102.550003,1729429288318.0,0.0
0.490529,-4.256832,-2.617748,-631.960022,-32.900002,-134.539993,1729429288340.0,0.0
-4.85743,-3.378666,-3.110669,-413.980011,-48.720001,-77.489998,1729429288357.0,0.0
-7.487142,-1.083949,-5.99402,-263.059998,-33.389999,-54.32,1729429288381.0,0.0
-3.067599,-2.847459,-11.236694,-123.620003,-39.900002,-12.6,1729429288403.0,0.0
-2.294717,-5.972485,-14.187045,59.150002,-15.75,35.490002,1729429288418.0,0.0
-2.254039,-6.209375,-11.68176,266.279999,14.77,59.779999,1729429288438.0,0.0
-2.45025,-6.396015,-7.79103,458.920013,41.509998,76.019997,1729429288458.0,0.0
-2.854637,-6.465407,-4.457829,594.159973,46.900002,87.150002,1729429288478.0,0.0
-2.648855,-5.13739,-1.660619,623.140015,48.09,73.010002,1729429288500.0,0.0
-2.825923,-6.970293,1.756332,605.080017,43.470001,51.66,1729429288517.0,0.0
-2.732604,-9.150154,4.4674,579.25,43.189999,20.93,1729429288537.0,0.0
-2.435893,-7.271788,4.362115,565.320007,41.509998,0.98,1729429288558.0,0.0
-1.674976,-6.979864,10.461421,503.649994,58.310001,1.61,1729429288577.0,0.0
-6.273981,-7.879565,10.51167,149.660004,28.98,-7.42,1729429288598.0,0.0
-2.036292,-10.502099,2.237289,-216.649994,-55.580002,10.57,1729429288617.0,0.0
-1.715654,-11.475977,2.538785,-389.619995,-27.02,14.35,1729429288639.0,0.0
-5.656632,-12.68196,2.624927,-576.169983,-10.78,-8.4,1729429288658.0,0.0
-2.708675,-10.370493,-0.007178,-525.559998,-15.96,-69.650002,1729429288678.0,0.0
-7.125826,-10.011569,1.603191,-400.049988,51.310001,-66.5,1729429288700.0,0.0
-2.804388,-6.484549,2.270789,-581.630005,8.26,-122.779999,1729429288717.0,0.0
0.464208,-6.431907,-1.162912,-608.22998,-40.32,-115.5,1729429288739.0,0.0
-3.993621,-4.242475,-4.460221,-477.540009,-47.810001,-83.93,1729429288758.0,0.0
-4.503292,-0.598206,-9.686146,-250.880005,-34.09,-45.57,1729429288777.0,0.0
-2.06022,-4.800002,-10.566705,23.309999,-16.73,15.12,1729429288799.0,0.0
-1.928615,-8.166703,-10.621738,220.850006,1.12,48.09,1729429288820.0,0.0
-2.400001,-7.006185,-8.288737,370.160004,12.81,56.209999,1729429288839.0,0.0
-2.830709,-7.317252,-5.039285,480.899994,16.450001,71.82,1729429288859.0,0.0
-2.529213,-7.302894,-2.428715,521.01001,7.63,63.490002,1729429288877.0,0.0
-3.072384,-7.128219,-0.342174,522.27002,9.59,59.639999,1729429288900.0,0.0
-2.914458,-7.353144,1.639083,500.290009,16.030001,49.560001,1729429288922.0,0.0
-3.005385,-8.745767,3.318845,466.480011,18.129999,35.630001,1729429288938.0,0.0
-3.091527,-7.664211,5.096712,434.980011,21.700001,28.07,1729429288957.0,0.0
-4.103691,-6.9344,6.884151,387.450012,23.52,28.49,1729429288979.0,0.0
-3.778267,-8.717053,5.079963,239.259995,18.41,24.639999,1729429289000.0,0.0
-0.078963,-9.889536,2.201397,-26.460001,0.21,17.639999,1729429289017.0,0.0
-1.045663,-8.501699,2.818745,-114.590004,11.13,29.4,1729429289041.0,0.0
-4.405186,-9.858429,4.618148,-250.669998,-0.42,36.610001,1729429289057.0,0.0
-6.955935,-14.333008,2.155933,-428.610016,-18.620001,7.84,1729429289077.0,0.0
-5.850451,-13.349558,0.885344,-598.919983,-5.81,-47.040001,1729429289218.0,0.0
-4.699504,-7.776673,1.840081,-677.179993,0.35,-83.720001,1729429289220.0,0.0
-3.842873,-10.724631,2.916851,-656.530029,-5.81,-118.090004,1729429289221.0,0.0
-2.136791,-7.314859,1.868794,-693.840027,-27.02,-155.259995,1729429289223.0,0.0
-1.150948,-1.464408,-4.646862,-634.340027,-42.98,-137.199997,1729429289224.0,0.0
-4.677969,-0.885344,-6.108876,-443.23999,-41.23,-78.610001,1729429289226.0,0.0
-4.132405,-0.198604,-10.332209,-210.910004,-36.259998,-31.99,1729429289227.0,0.0
-3.038885,-6.788438,-13.493127,30.309999,-29.540001,23.940001,1729429289236.0,0.0
-1.536192,-5.989235,-14.117653,220.990005,-2.8,26.18,1729429289268.0,0.0
-2.400001,-4.998606,-11.339586,378.0,28.77,43.189999,1729429289276.0,0.0
-3.347559,-4.089334,-7.814958,482.160004,48.09,58.73,1729429289298.0,0.0
-3.823731,-6.769295,-4.031906,585.059998,41.23,83.650002,1729429289316.0,0.0
-2.708675,-6.058627,0.614955,658.0,23.799999,56.630001,1729429289336.0,0.0
-3.141776,-6.786045,3.957729,636.929993,41.02,17.360001,1729429289356.0,0.0
-2.139183,-7.568498,4.510471,582.539978,22.33,7.63,1729429289376.0,0.0
-2.165504,-7.898707,7.446464,524.859985,35.420002,-4.83,1729429289400.0,0.0
-2.615355,-4.754539,9.245867,331.799988,71.82,-6.09,1729429289418.0,0.0
-3.333202,-7.635497,9.279366,28.77,-2.1,3.64,1729429289437.0,0.0
-3.67059,-8.95155,5.175675,-134.960007,-43.259998,16.24,1729429289457.0,0.0
-3.038885,-9.253045,2.510071,-173.320007,-34.23,32.200001,1729429289476.0,0.0
-4.015156,-11.399406,2.778067,-301.420013,-17.639999,13.09,1729429289498.0,0.0
-4.962714,-11.085947,0.849452,-482.369995,-10.43,0.28,1729429289518.0,0.0
-3.378666,-8.202596,0.937986,-464.519989,9.87,-7.07,1729429289538.0,0.0
-3.885944,-8.831908,6.367301,-438.410004,30.309999,-31.99,1729429289559.0,0.0
-3.845266,-5.024928,5.297709,-554.330017,-4.2,-67.760002,1729429289577.0,0.0
-1.847259,-3.565305,-0.875773,-590.72998,-64.190002,-85.470001,1729429289597.0,0.0
-3.878766,-4.508078,-4.352544,-490.559998,-68.25,-61.110001,1729429289616.0,0.0
-6.101698,-2.462214,-8.678767,-364.209991,-53.689999,-42.139999,1729429289638.0,0.0
-5.115855,-7.805387,-12.512069,-202.160004,-40.040001,-17.01,1729429289657.0,0.0
-2.734996,-8.729016,-13.540984,37.73,-25.83,9.59,1729429289676.0,0.0
-4.161119,-7.814958,-9.413363,410.339996,32.41,21.280001,1729429289698.0,0.0
-5.056034,-7.71446,-5.726025,626.919983,30.450001,47.110001,1729429289716.0,0.0
-4.261617,-5.611169,-3.383451,789.179993,30.870001,37.240002,1729429289738.0,0.0
-2.924029,-5.182854,0.856631,888.299988,37.59,-4.06,1729429289756.0,0.0
-2.526821,-2.270789,6.245267,874.440002,87.150002,-25.549999,1729429289776.0,0.0
-2.842674,-2.519642,9.174082,678.299988,91.699997,-15.12,1729429289799.0,0.0
-0.825524,-8.13799,7.106683,420.700012,52.360001,-22.049999,1729429289817.0,0.0
-2.045863,-6.783652,9.65504,229.949997,71.889999,-18.48,1729429289837.0,0.0
-4.240082,-3.041277,8.671589,24.57,38.709999,-20.51,1729429289856.0,0.0
-2.65364,-4.07737,8.633304,-94.290001,6.72,7.77,1729429289877.0,0.0
-3.156133,-9.126225,8.343772,-150.220001,-34.860001,14.98,1729429289898.0,0.0
-2.574677,-11.10509,7.238289,-221.970001,-42.91,-6.44,1729429289916.0,0.0
-3.672983,-10.13839,5.838487,-390.179993,-35.630001,-13.37,1729429289938.0,0.0
-3.739982,-8.035098,4.252046,-489.089996,-53.900002,-1.33,1729429289956.0,0.0
-3.323631,-7.927422,5.850451,-368.130005,-34.860001,-3.36,1729429289976.0,0.0
-3.651447,-4.448257,4.977071,-307.369995,-4.83,-17.85,1729429289998.0,0.0
-5.98445,-9.334401,-5.67099,-351.540009,5.18,-10.36,1729429290017.0,0.0
-2.902494,-13.287343,-6.156733,-355.880005,-31.43,-47.529999,1729429290042.0,0.0
-0.928415,-12.777672,-2.656033,-119.910004,9.1,-25.620001,1729429290056.0,0.0
-1.947758,-7.070791,0.971486,-3.85,36.119999,-25.76,1729429290076.0,0.0
-3.022135,-6.788438,-1.887937,-5.46,-9.8,-21.700001,1729429290101.0,0.0
-1.947758,-8.886944,-3.739982,113.889999,-21.07,-2.8,1729429290118.0,0.0
-2.352145,-8.432307,-1.584049,333.269989,17.219999,8.26,1729429290138.0,0.0
-3.424129,-6.965507,2.347359,483.769989,51.170002,11.9,1729429290156.0,0.0
-3.364309,-7.307681,4.005585,524.159973,34.09,-0.49,1729429290176.0,0.0
-2.641676,-6.324231,4.479364,515.619995,46.900002,0.84,1729429290197.0,0.0
-2.493321,-6.13759,6.733403,468.649994,61.040001,-2.03,1729429290278.0,0.0
-2.708675,-8.269595,6.812366,371.630005,55.510002,-17.57,1729429290279.0,0.0
-1.739582,-7.164111,9.827322,319.76001,57.260002,-36.68,1729429290279.0,0.0
-1.758725,-2.079363,11.617154,274.75,74.059998,-19.110001,1729429290286.0,0.0
-4.893322,-4.766503,11.279767,52.709999,7.63,-24.219999,1729429290299.0,0.0
-0.949951,-6.922436,9.382257,-71.400002,-28.630001,-14.84,1729429290316.0,0.0
-1.931008,-7.362715,8.472985,-84.559998,-38.360001,-4.62,1729429290336.0,0.0
-2.995814,-8.760124,7.929814,-285.179993,-50.68,-25.969999,1729429290357.0,0.0
-1.753939,-6.417551,6.565905,-460.25,-59.639999,-16.450001,1729429290376.0,0.0
-2.39043,-5.577669,6.979864,-533.119995,-50.119999,-3.43,1729429290397.0,0.0
-5.065606,-4.85743,-0.964308,-592.27002,-34.369999,3.08,1729429290417.0,0.0
-4.194618,-8.513663,-6.4678,-598.919983,-36.889999,-29.889999,1729429290436.0,0.0
-3.589234,-13.426127,-5.118248,-312.899994,0.35,-37.310001,1729429290456.0,0.0
-5.565705,-7.867601,5.000999,-99.959999,82.949997,-5.74,1729429290481.0,0.0
-4.098906,-8.930015,5.852845,-196.770004,43.259998,-25.27,1729429290497.0,0.0
-1.942972,-10.834702,0.177069,-269.01001,-18.549999,-50.259998,1729429290516.0,0.0
-1.198804,-7.750352,-3.35713,-105.559998,-32.48,-30.870001,1729429290537.0,0.0
-1.799403,-5.522634,-3.771089,98.209999,1.26,5.18,1729429290556.0,0.0
-2.600998,-7.479963,-0.5001,216.509995,9.52,28.77,1729429290576.0,0.0
-4.115655,-9.690931,0.449851,291.130005,-8.96,33.110001,1729429290598.0,0.0
-2.629712,-9.279366,1.184447,387.940002,-21.35,35.77,1729429290616.0,0.0
-1.232304,-8.001599,0.949951,459.339996,-7.49,33.040001,1729429290637.0,0.0
-1.512264,-8.202596,2.639283,488.040009,15.4,29.120001,1729429290657.0,0.0
-4.76411,-10.655239,6.254838,475.929993,47.670002,20.09,1729429290675.0,0.0
-1.787439,-8.492127,7.678568,364.559998,67.900002,-3.36,1729429290698.0,0.0
-4.780859,-3.960121,13.009777,235.059998,55.580002,-19.110001,1729429290717.0,0.0
-6.9344,-5.723632,11.241481,53.130001,-25.76,8.54,1729429290737.0,0.0
-1.155733,-5.716454,7.133004,57.82,-46.27,-1.61,1729429290756.0,0.0
-2.524428,-4.563113,6.836295,98.139999,-20.65,-3.29,1729429290778.0,0.0
-2.524428,-5.503492,7.178468,34.790001,-13.02,-3.22,1729429290797.0,0.0
-2.648855,-8.709875,7.664211,-130.690002,-19.110001,2.24,1729429290817.0,0.0
-1.20359,-9.614362,7.207181,-371.839996,-22.889999,-5.74,1729429290837.0,0.0
-2.536392,-4.929214,2.67039,-570.01001,-43.049999,14.56,1729429290856.0,0.0
-4.752146,-6.190232,-1.931008,-574.630005,-21.139999,-1.12,1729429290876.0,0.0
-1.548156,-11.574083,3.474378,-593.809998,-21.07,-15.4,1729429290897.0,0.0
-1.074377,-9.06162,4.84068,-645.820007,13.79,-50.959999,1729429290916.0,0.0
-0.792024,-4.457829,0.071785,-654.01001,-22.960001,-75.040001,1729429290936.0,0.0
-1.086342,-2.54357,-4.0008,-431.619995,-66.709999,-46.48,1729429290961.0,0.0
-4.431508,-6.936793,-7.776673,-105.840004,-14.91,15.68,1729429290977.0,0.0
-2.041078,-12.696317,-7.322037,186.550003,-9.17,12.88,1729429290997.0,0.0
-3.976871,-8.262416,-1.457229,346.98999,38.150002,21.91,1729429291017.0,0.0
-2.9671,-7.963314,-0.981057,359.309998,7.28,33.810001,1729429291039.0,0.0
-2.053042,-8.327023,0.62692,370.720001,6.09,33.110001,1729429291055.0,0.0
-3.294917,-9.489935,1.019342,415.100006,22.120001,19.460001,1729429291076.0,0.0
-2.646462,-11.126624,2.443072,508.899994,35.209999,2.94,1729429291096.0,0.0
-2.785245,-7.499106,5.046463,584.150024,70.209999,-29.4,1729429291116.0,0.0
-2.658426,-6.314659,6.843473,536.830017,74.059998,-37.73,1729429291136.0,0.0
-0.617348,-5.687739,5.462814,429.309998,68.879997,-40.25,1729429291156.0,0.0
-1.684547,4.835894,11.964113,333.619995,90.580002,-21.98,1729429291183.0,0.0
-7.623533,-0.672383,10.143176,32.48,13.440001,32.689999,1729429291369.0,0.0
-0.272782,-9.008978,5.666204,-56.700001,-27.370001,28.630001,1729429291370.0,0.0
-3.550949,-9.726824,7.295716,-42.630001,19.809999,22.68,1729429291370.0,0.0
-3.493521,-11.227123,7.960921,-240.589996,12.11,17.92,1729429291370.0,0.0
-2.555535,-8.149954,9.152546,-473.480011,-0.49,4.2,1729429291371.0,0.0
-2.045863,-2.895315,5.015356,-630.280029,-20.65,2.73,1729429291371.0,0.0
-4.331009,-7.271788,3.639483,-669.690002,-24.01,-14.28,1729429291371.0,0.0
-3.249453,-9.954143,6.082555,-702.940002,-22.120001,-37.939999,1729429291371.0,0.0
-3.201597,-6.661618,0.050249,-668.640015,-17.15,-71.889999,1729429291376.0,0.0
-4.713861,-5.582455,-4.108476,-504.140015,-46.48,-61.599998,1729429291377.0,0.0
-4.139583,-4.369294,-8.228917,-329.0,-42.209999,-42.560001,1729429291398.0,0.0
-3.622734,-6.67119,-10.954341,-87.010002,-29.889999,-6.72,1729429291417.0,0.0
-3.627519,-10.210175,-9.626326,202.789993,-3.01,36.470001,1729429291440.0,0.0
-4.345366,-8.580662,-4.890929,405.790009,26.040001,43.82,1729429291459.0,0.0
-3.694518,-6.800402,-1.976472,504.0,18.48,57.959999,1729429291474.0,0.0
-2.364109,-8.362915,-0.363709,515.059998,18.34,41.299999,1729429291496.0,0.0
-2.545963,-10.660025,1.701297,515.619995,18.48,17.01,1729429291516.0,0.0
-1.430908,-9.74836,2.512464,546.210022,26.67,-8.82,1729429291536.0,0.0
-1.643869,-7.444071,4.182654,570.5,55.369999,-19.67,1729429291556.0,0.0
-1.26341,-5.962914,5.297709,527.799988,57.610001,-22.26,1729429291575.0,0.0
-0.827917,-5.773881,6.759724,443.799988,59.990002,-24.57,1729429291597.0,0.0
-6.065805,-4.68754,7.410572,324.940002,58.029999,-34.509998,1729429291615.0,0.0
-2.955136,3.716053,12.251251,197.75,49.420002,-13.3,1729429291644.0,0.0
-9.592826,-3.23031,12.660425,-44.170002,1.33,28.98,1729429291657.0,0.0
0.0335,-10.837094,8.063812,-329.769989,-57.959999,18.76,1729429291675.0,0.0
-2.871387,-5.180461,11.631511,-673.330017,-44.869999,-0.07,1729429291697.0,0.0
-5.946165,-4.180261,3.038885,-824.25,-70.769997,33.18,1729429291715.0,0.0
-1.615155,-13.433307,-7.405786,-652.609985,-80.639999,-10.85,1729429291736.0,0.0
-0.988236,-11.650653,-4.110869,-380.940002,8.82,-42.77,1729429291755.0,0.0
-4.182654,-8.492127,0.732204,-281.190002,47.529999,-14.07,1729429291775.0,0.0
-4.62054,-11.691331,-1.840081,-323.190002,-5.32,-37.52,1729429291798.0,0.0
-1.478764,-12.198609,-4.876573,-170.589996,-38.150002,-50.82,1729429291815.0,0.0
-3.031706,-5.977271,-1.51705,82.809998,7.0,-14.42,1729429291944.0,0.0
-5.580062,-7.781459,1.909473,103.459999,-5.04,-3.22,1729429291946.0,0.0
-4.721039,-9.786645,-1.756332,40.670002,-50.959999,-18.83,1729429291947.0,0.0
-4.024727,-9.370294,-2.603391,122.150002,-44.73,-5.32,1729429291947.0,0.0
-4.862216,-7.109076,-0.490529,246.75,-15.96,23.030001,1729429291947.0,0.0
-5.079963,-7.501499,0.693919,344.610016,-18.129999,28.42,1729429291947.0,0.0
-3.275774,-9.839286,2.395216,479.080017,-7.0,23.52,1729429291962.0,0.0
-2.663212,-9.667004,3.785445,590.099976,29.75,8.61,1729429291976.0,0.0
-1.380659,-8.061419,5.118248,655.76001,57.330002,-7.42,1729429291997.0,0.0
-2.452643,-5.462814,7.855636,664.720032,100.870003,-14.35,1729429292038.0,0.0
-2.239682,-5.362316,7.439285,444.779999,85.959999,-30.52,1729429292063.0,0.0
-3.381058,-4.058227,8.872586,255.009995,72.099998,-44.029999,1729429292065.0,0.0
-3.531806,-2.067399,10.451849,93.239998,54.599998,-44.029999,1729429292075.0,0.0
-3.024528,-2.435893,9.399008,6.93,25.76,-30.59,1729429292127.0,0.0
-4.122833,-2.292324,9.336794,14.77,14.35,-15.190001,1729429292139.0,0.0
-3.773481,-4.036692,8.480164,15.89,-1.96,-17.290001,1729429292144.0,0.0
-4.299902,-3.479164,8.556733,29.82,0.49,-15.89,1729429292154.0,0.0
-4.362115,-3.661019,8.128418,3.5,-5.6,-14.35,1729429292175.0,0.0
-4.09412,-2.493321,7.606783,-13.93,-5.81,-10.5,1729429292196.0,0.0
-3.907479,-3.534199,7.003791,-25.27,-10.22,-6.72,1729429292215.0,0.0
-3.804588,-3.785445,7.427321,-7.42,-3.64,-7.49,1729429292238.0,0.0
-3.888337,-3.771089,8.896514,-13.58,-1.75,-10.71,1729429292254.0,0.0
-3.407379,-4.321437,8.02792,-30.870001,-11.48,-6.93,1729429292275.0,0.0
-3.201597,-3.809374,7.491928,-15.96,-8.47,-5.04,1729429292295.0,0.0
-2.675175,-3.85723,7.13779,-8.33,-4.97,-6.93,1729429292317.0,0.0
-2.222932,-4.359723,7.534998,-14.14,1.54,-7.14,1729429292336.0,0.0
-2.457429,-5.74756,7.539784,-48.720001,3.43,-9.03,1729429292354.0,0.0
-0.878166,-7.087541,5.371887,-134.190002,-6.79,-25.83,1729429292375.0,0.0
-7.286145,-4.400401,7.963314,-206.289993,-1.75,-25.83,1729429292399.0,0.0
-7.590034,-8.279166,5.769095,-328.579987,2.1,-5.88,1729429292416.0,0.0
-1.722832,-5.525027,4.240082,-600.950012,18.620001,-42.279999,1729429292435.0,0.0
-2.249253,-7.092326,1.545763,-892.710022,22.540001,-32.830002,1729429292456.0,0.0
-1.880759,-10.8682,-1.237089,-1062.949951,39.619999,-59.080002,1729429292474.0,0.0
-2.203789,-14.266008,0.33021,-1058.890015,52.639999,-153.020004,1729429292496.0,0.0
-4.17069,-11.088341,0.70349,-661.150024,-0.63,-139.160004,1729429292523.0,0.0
-6.640083,-8.463413,0.854238,-155.330002,-20.93,-95.480003,1729429292535.0,0.0
-4.878965,-5.367101,-1.241875,46.200001,-37.869999,-62.439999,1729429292556.0,0.0
-3.026921,-6.18784,-8.927622,0.77,-57.189999,-46.830002,1729429292575.0,0.0
-1.107877,-8.673983,-13.136597,14.91,-41.23,-21.210001,1729429292596.0,0.0
-1.086342,-9.525827,-9.430114,180.320007,-4.48,28.630001,1729429292614.0,0.0
-2.215754,-9.923036,-3.759124,378.700012,12.25,46.830002,1729429292636.0,0.0
-2.711068,-8.037491,-1.658226,531.299988,10.71,51.59,1729429292657.0,0.0
-1.995614,-6.716653,-0.22014,568.400024,8.89,42.77,1729429292675.0,0.0
-2.009971,-8.714661,2.859423,557.340027,-0.42,28.98,1729429292706.0,0.0
-1.416551,-7.448857,3.584448,551.599976,15.26,11.06,1729429292715.0,0.0
-1.464408,-6.379266,4.23051,517.369995,32.830002,6.65,1729429292736.0,0.0
-0.760918,-5.201996,2.67039,448.839996,43.119999,12.81,1729429292755.0,0.0
-2.388037,-2.902494,9.45165,353.149994,72.870003,13.16,1729429292774.0,0.0
-9.186047,-6.173482,11.085947,145.389999,38.779999,39.34,1729429292797.0,0.0
-2.275574,-10.315458,8.018349,85.120003,1.68,13.09,1729429292816.0,0.0
-2.160719,-6.52762,8.585447,160.300003,32.060001,-7.35,1729429292835.0,0.0
-2.385644,-2.002793,8.932407,129.360001,41.16,-16.24,1729429292854.0,0.0
-2.792424,-0.528814,8.245667,17.43,28.07,1.33,1729429292875.0,0.0
-2.883351,-5.453243,7.848458,-82.599998,11.48,9.17,1729429292897.0,0.0
-4.768896,-9.186047,7.836494,-181.860001,9.87,0.98,1729429292916.0,0.0
-4.768896,-10.078569,4.862216,-393.329987,-9.1,-7.7,1729429292935.0,0.0
-2.148755,-11.12184,5.07757,-567.349976,7.84,-17.92,1729429292955.0,0.0
-2.368894,-6.26441,7.56132,-732.27002,7.63,-1.26,1729429292975.0,0.0
-4.577469,-8.745767,6.084948,-921.340027,-24.360001,-36.959999,1729429292997.0,0.0
-5.721239,-4.082155,0.452243,-951.369995,-42.91,-101.709999,1729429293016.0,0.0
-5.04407,-3.012564,-4.9675,-819.559998,-91.139999,-139.229996,1729429293040.0,0.0
-5.132604,-8.085347,-9.51147,-453.670013,-96.389999,-82.32,1729429293055.0,0.0
-4.673182,-4.599005,-14.629718,-271.600006,-71.82,-79.660004,1729429293074.0,0.0
-4.831109,-9.217153,-18.477375,-95.269997,-44.66,-59.290001,1729429293101.0,0.0
-1.878366,-8.599805,-15.156138,213.919998,-5.67,-33.810001,1729429293116.0,0.0
-3.182454,-4.740182,-9.676575,480.200012,41.299999,1.26,1729429293135.0,0.0
-4.165904,-3.132205,-6.290731,662.970032,45.150002,66.43,1729429293154.0,0.0
-2.895315,-5.821737,-1.20359,810.25,24.92,65.169998,1729429293175.0,0.0
-3.196811,-4.938786,3.0006,914.830017,40.040001,33.950001,1729429293197.0,0.0
-2.132005,-3.790231,3.785445,876.960022,44.66,-19.25,1729429293214.0,0.0
-0.961915,-0.397209,3.924229,746.409973,73.709999,-10.57,1729429293240.0,0.0
-3.706482,4.436293,9.549755,531.299988,124.599998,17.43,1729429293254.0,0.0
-7.23111,-1.409373,12.777672,168.559998,56.0,48.09,1729429293274.0,0.0
-3.383451,-12.143576,10.614561,22.26,-5.88,41.299999,1729429293296.0,0.0
-5.395815,-12.899707,11.727223,89.040001,10.78,21.0,1729429293315.0,0.0
-4.333402,-8.889337,8.319844,61.110001,13.86,-18.48,1729429293335.0,0.0
-2.318645,-5.718846,5.895915,6.65,18.83,-26.110001,1729429293354.0,0.0
-2.859423,-6.259624,6.443871,-43.610001,32.619999,-9.87,1729429293374.0,0.0
-3.680161,-8.200203,6.226124,-185.779999,27.860001,-13.440001,1729429293397.0,0.0
-5.807381,-9.408579,3.225525,-363.790009,10.01,-17.710001,1729429293415.0,0.0
-4.091727,-14.373686,3.565305,-426.019989,28.35,-28.139999,1729429293435.0,0.0
-2.531606,-7.944171,3.608376,-541.23999,50.189999,-36.82,1729429293454.0,0.0
-0.602991,-5.726025,11.009377,-731.98999,46.48,-59.779999,1729429293474.0,0.0
-4.441079,-6.757331,10.492528,-884.799988,-31.219999,-103.599998,1729429293496.0,0.0
-7.482357,-7.872386,3.108276,-735.909973,-87.220001,-164.430008,1729429293514.0,0.0
-6.946364,-2.029114,-0.521635,-485.450012,-88.690002,-143.289993,1729429293535.0,0.0
-3.4672,1.124627,-12.15554,-315.140015,-89.809998,-108.849998,1729429293554.0,0.0
-3.433701,-5.639884,-15.022141,-175.699997,-68.040001,-37.240002,1729429293574.0,0.0
-3.282953,-13.055241,-12.277573,76.720001,-22.75,12.46,1729429293596.0,0.0
-2.48375,-9.303294,-8.585447,415.309998,-1.96,29.540001,1729429293614.0,0.0
-4.359723,-2.964707,-2.177469,769.369995,28.280001,104.440002,1729429293635.0,0.0
-3.081956,-4.041477,3.254239,838.530029,30.73,102.410004,1729429293655.0,0.0
-4.503292,-8.88455,4.455436,777.700012,14.42,50.610001,1729429293674.0,0.0
-3.912265,-10.238889,5.362316,753.830017,38.009998,3.5,1729429293695.0,0.0
-0.457029,-6.886543,1.397408,644.840027,102.340004,-29.960001,1729429293715.0,0.0
-5.883951,1.639083,16.039089,414.610016,116.480003,-41.509998,1729429293734.0,0.0
-3.940979,-1.727618,11.69851,70.840004,15.33,8.12,1729429293754.0,0.0
-3.215954,-9.348758,8.130811,-18.549999,-35.77,15.12,1729429293776.0,0.0
-3.972085,-7.070791,7.503892,47.670002,-9.31,2.59,1729429293795.0,0.0
-4.979464,-8.374879,5.67099,-61.32,-9.52,-13.58,1729429293814.0,0.0
-4.960321,-9.798609,6.498906,-254.029999,-8.96,-33.389999,1729429293835.0,0.0
-4.204189,-9.320045,7.800602,-467.809998,9.94,-54.110001,1729429293854.0,0.0
0.354138,-7.819745,10.82513,-782.039978,27.65,-59.57,1729429293874.0,0.0
-2.041078,-1.655833,11.52862,-1189.719971,9.03,-98.559998,1729429293906.0,0.0
-5.024928,-0.765703,7.738388,-1392.51001,-58.380001,-211.190002,1729429293914.0,0.0
-6.939186,0.306281,3.838088,-1050.349976,-101.779999,-214.759995,1729429293934.0,0.0
-4.673182,-4.627719,-5.249853,-444.98999,-139.160004,-125.720001,1729429293954.0,0.0
-6.065805,-7.458428,-13.392628,-72.870003,-112.840004,-65.660004,1729429293974.0,0.0
-6.494121,-6.099305,-16.130018,8.89,-66.709999,-41.650002,1729429293995.0,0.0
-3.991228,-6.888937,-17.697317,86.449997,-32.689999,-16.309999,1729429294015.0,0.0
-1.85683,-6.802795,-9.470792,361.200012,3.99,33.670002,1729429294038.0,0.0
-4.371687,-4.644469,-2.785245,811.440002,68.389999,102.970001,1729429294055.0,0.0
-5.706882,-4.520042,1.433301,908.950012,60.830002,106.260002,1729429294074.0,0.0
-3.268596,-7.688138,2.400001,969.780029,-10.5,31.780001,1729429294095.0,0.0
-0.346959,-4.584648,6.573084,995.190002,71.330002,-18.48,1729429294114.0,0.0
-2.380858,-4.847858,4.275974,777.700012,103.389999,-28.139999,1729429294134.0,0.0
-2.199004,2.490928,14.002798,442.119995,107.730003,-39.41,1729429294343.0,0.0
-8.109276,-3.9673,12.282358,36.959999,-0.63,43.75,1729429294344.0,0.0
-2.596212,-10.846665,8.539984,80.639999,-31.85,-0.21,1729429294346.0,0.0
-4.21376,-1.854438,8.623734,132.440002,11.55,-13.86,1729429294361.0,0.0
-2.325824,-7.556533,5.632704,-32.060001,-18.690001,-7.49,1729429294362.0,0.0
-2.641676,-5.675776,8.176274,-43.400002,10.71,-13.02,1729429294363.0,0.0
-2.368894,-7.085148,9.530612,-98.489998,13.72,-17.639999,1729429294366.0,0.0
-4.615755,-5.577669,4.558327,-343.070007,-16.870001,-3.36,1729429294375.0,0.0
-4.161119,-10.325029,4.12044,-497.769989,0.98,-7.91,1729429294377.0,0.0
-3.972085,-12.997812,7.664211,-626.640015,31.43,-21.77,1729429294379.0,0.0
-2.084148,-5.962914,9.372685,-818.789978,22.190001,-51.029999,1729429294380.0,0.0
-4.56072,-3.440879,5.481956,-910.48999,-49.349998,-140.350006,1729429294382.0,0.0
-8.772088,-1.177269,1.129412,-753.27002,-66.639999,-143.919998,1729429294394.0,0.0
-8.281559,-6.003592,-7.142576,-512.679993,-88.690002,-146.440002,1729429294414.0,0.0
-7.197611,-9.68136,-12.923635,-172.619995,-83.370003,-99.050003,1729429294443.0,0.0
-2.09372,-4.917251,-11.34198,72.029999,-53.830002,-77.419998,1729429294453.0,0.0
-3.37388,-3.409772,-11.566904,182.839996,-12.32,-34.23,1729429294474.0,0.0
-3.199204,-7.726424,-9.88475,337.190002,7.84,22.889999,1729429294496.0,0.0
-1.493121,-6.975078,-4.979464,612.289978,36.189999,45.220001,1729429294516.0,0.0
-4.278367,-5.290531,2.940779,823.549988,82.739998,62.510002,1729429294535.0,0.0
-1.986043,-4.876573,1.981257,881.02002,54.040001,2.03,1729429294555.0,0.0
-0.401994,-2.952743,3.759124,908.460022,114.449997,-17.01,1729429294574.0,0.0
0.521635,-2.021935,9.865608,819.280029,170.589996,-34.09,1729429294598.0,0.0
-10.731809,8.204988,20.398813,413.420013,152.529999,2.73,1729429294616.0,0.0
-0.894916,-6.132804,11.059627,40.810001,-17.99,34.720001,1729429294635.0,0.0
-2.761317,-10.368099,9.334401,92.330002,23.379999,3.64,1729429294656.0,0.0
-4.12044,-12.591033,6.463014,-56.77,18.059999,-17.639999,1729429294676.0,0.0
-4.589434,-11.794223,4.59422,-216.300003,18.76,-19.950001,1729429294698.0,0.0
-4.055835,-11.284552,8.042276,-429.029999,43.189999,-42.07,1729429294716.0,0.0
-1.478764,-4.254438,12.076575,-799.119995,31.780001,-41.299999,1729429294737.0,0.0
1.311267,-4.532006,8.712267,-1130.430054,-23.24,-78.470001,1729429294756.0,0.0
-4.814359,-3.488736,8.906086,-1158.01001,-43.889999,-149.589996,1729429294776.0,0.0
-8.29113,-2.06022,4.364508,-861.140015,-126.0,-181.300003,1729429294799.0,0.0
-7.125826,-6.087341,-7.800602,-428.540009,-132.440002,-168.350006,1729429294816.0,0.0
-6.022735,-9.131011,-17.599211,-79.590004,-80.919998,-83.93,1729429294836.0,0.0
-3.402594,-9.516255,-14.196616,145.389999,-16.24,-19.879999,1729429294856.0,0.0
-3.505485,-7.159326,-8.329416,282.660004,24.15,24.43,1729429294876.0,0.0
-2.421536,-7.470392,-6.812366,389.549988,40.670002,49.560001,1729429294899.0,0.0
-1.304088,-6.226124,-2.883351,509.880005,58.170002,60.900002,1729429294917.0,0.0
-2.811567,-6.726225,1.789831,618.099976,63.98,63.279999,1729429294936.0,0.0
-3.108276,-7.365108,3.546163,661.220032,55.93,31.5,1729429294956.0,0.0
-1.5003,-2.598605,3.63709,603.330017,75.739998,0.77,1729429294976.0,0.0
-1.342373,1.67019,6.281159,463.26001,104.720001,33.110001,1729429295000.0,0.0
-3.002992,-4.524827,9.745967,284.059998,47.25,56.91,1729429295016.0,0.0
-1.768296,-9.958927,10.616954,250.740005,32.200001,59.010002,1729429295044.0,0.0
-6.446264,-10.078569,13.96212,190.960007,31.85,29.75,1729429295056.0,0.0
-3.838088,-11.370694,9.789038,77.980003,-9.73,10.22,1729429295076.0,0.0
-1.761117,-7.657032,5.556134,22.889999,-13.16,-8.05,1729429295107.0,0.0
-2.091327,-5.417351,5.082355,14.49,2.73,-5.67,1729429295117.0,0.0
-4.486543,-7.707282,7.743174,-42.700001,3.29,-0.7,1729429295136.0,0.0
-4.998606,-7.475177,6.618547,-197.119995,-15.26,-3.36,1729429295156.0,0.0
-5.359922,-8.891729,3.677768,-389.690002,-19.879999,-19.040001,1729429295176.0,0.0
-5.465207,-7.846066,0.717847,-536.409973,8.12,-8.26,1729429295197.0,0.0
0.51685,-5.82413,5.515456,-663.669983,0.28,-27.860001,1729429295289.0,0.0
-4.804788,-4.76411,3.139383,-768.179993,-2.03,-46.200001,1729429295337.0,0.0
-5.168497,-4.4674,0.48335,-938.77002,-42.07,-119.840004,1729429295339.0,0.0
-8.987441,-7.410572,-13.964513,-918.890015,-95.269997,-173.529999,1729429295342.0,0.0
-1.971686,-5.04407,-10.152746,-550.830017,-98.209999,-169.470001,1729429295345.0,0.0
-5.536992,-5.369494,-9.052048,37.310001,-50.049999,-78.190002,1729429295346.0,0.0
-3.175276,-7.298109,-10.640882,112.629997,-1.47,-35.84,1729429295357.0,0.0
-1.646262,-6.613762,-8.367701,158.130005,-0.98,-5.81,1729429295375.0,0.0
-2.167897,-6.515656,-4.680361,509.73999,54.599998,64.75,1729429295396.0,0.0
-2.498107,-5.907879,-0.904487,634.900024,59.709999,74.690002,1729429295415.0,0.0
-2.512464,-5.709275,1.021735,689.5,68.110001,55.650002,1729429295436.0,0.0
-2.354537,-6.912865,2.514857,682.780029,74.550003,19.809999,1729429295456.0,0.0
-1.95015,-9.566505,4.173083,669.130005,79.379997,-13.79,1729429295476.0,0.0
1.639083,-6.872187,7.707282,672.700012,117.809998,-42.98,1729429295496.0,0.0
-8.161918,2.646462,17.434107,435.26001,141.610001,4.06,1729429295516.0,0.0
-1.895115,-6.809973,10.700702,64.260002,-23.030001,10.36,1729429295536.0,0.0
-1.383051,-11.940186,5.414958,1.19,-41.93,8.75,1729429295556.0,0.0
-4.091727,-7.68096,5.584848,21.139999,9.73,-4.2,1729429295576.0,0.0
-5.446064,-9.126225,4.82393,-194.389999,1.82,-8.89,1729429295596.0,0.0
-2.928815,-7.575676,6.759724,-484.540009,5.95,-22.610001,1729429295615.0,0.0
-2.67039,-11.9689,3.211168,-725.409973,3.15,-14.0,1729429295636.0,0.0
-1.828116,-10.593026,6.293124,-893.410034,-11.06,-62.09,1729429295656.0,0.0
-5.65424,-4.041477,3.960121,-837.830017,-33.18,-105.629997,1729429295676.0,0.0
-4.551149,-8.95155,-4.462614,-665.700012,-88.129997,-154.0,1729429295697.0,0.0
-3.720839,-6.970293,-7.740781,-332.220001,-69.790001,-102.900002,1729429295716.0,0.0
-4.13719,-6.312266,-10.432706,-73.360001,-46.27,-59.5,1729429295736.0,0.0
-3.871587,-10.250853,-11.270195,121.730003,-16.52,-13.37,1729429295766.0,0.0
-2.610569,-10.04507,-9.059227,325.640015,4.69,15.82,1729429295775.0,0.0
-3.254239,-5.726025,-5.192425,526.75,40.740002,51.799999,1729429295796.0,0.0
-2.861816,-4.783253,-1.440479,616.840027,46.900002,60.689999,1729429295816.0,0.0
-3.735196,-7.853244,2.737389,649.530029,42.139999,36.049999,1729429295836.0,0.0
-2.995814,-6.23091,3.60359,661.359985,48.16,-0.28,1729429295855.0,0.0
-2.447858,-6.570691,5.804988,673.609985,67.900002,-21.210001,1729429295875.0,0.0
-1.452443,-2.959922,8.626125,612.570007,86.239998,-22.960001,1729429295898.0,0.0
-3.972085,-1.272982,11.8349,408.309998,64.260002,5.67,1729429295915.0,0.0
-3.512664,-5.630312,11.94497,206.009995,3.08,31.290001,1729429295937.0,0.0
-1.70369,-12.401999,11.9689,137.199997,-14.77,7.91,1729429295962.0,0.0
-0.894916,-5.702096,7.685746,136.220001,-1.75,-18.34,1729429296001.0,0.0
-2.203789,-4.821537,6.649654,0.91,-9.66,-11.55,1729429296148.0,0.0
-2.744568,-4.991428,4.977071,-59.709999,-4.9,5.25,1729429296148.0,0.0
-2.699104,-6.932007,4.627719,-110.110001,2.31,4.9,1729429296149.0,0.0
-3.148954,-7.168896,6.573084,-254.520004,14.07,-1.82,1729429296149.0,0.0
-2.493321,-7.814958,4.809574,-492.380005,3.85,-2.31,1729429296149.0,0.0
-1.842474,-3.627519,7.786245,-661.5,10.43,15.89,1729429296149.0,0.0
-0.224925,-0.885344,4.73061,-745.98999,2.17,-11.34,1729429296149.0,0.0
-3.790231,-3.046063,3.629912,-862.539978,3.43,-18.549999,1729429296150.0,0.0
-4.709075,-14.361722,-1.679761,-832.369995,-84.489998,-92.959999,1729429296159.0,0.0
-6.680761,-12.473784,-1.89033,-461.860016,-81.059998,-84.980003,1729429296174.0,0.0
-6.972685,-7.491928,-5.525027,-287.420013,-68.18,-82.18,1729429296195.0,0.0
-4.558327,-7.836494,-11.521441,-229.809998,-67.970001,-78.400002,1729429296214.0,0.0
-3.471986,-10.004392,-11.624333,-8.82,-36.82,-30.940001,1729429296235.0,0.0
-2.943172,-9.820145,-6.979864,273.700012,12.39,8.33,1729429296254.0,0.0
-3.735196,-7.9011,-3.177669,455.700012,39.759998,37.240002,1729429296274.0,0.0
-2.79721,-7.161718,-1.789831,475.860016,38.5,40.950001,1729429296295.0,0.0
-2.029114,-7.975278,0.935594,453.110016,23.450001,32.970001,1729429296314.0,0.0
-1.706082,-8.126025,2.739782,470.049988,25.83,18.969999,1729429296335.0,0.0
-1.895115,-7.573284,4.189832,443.519989,47.32,7.07,1729429296354.0,0.0
-2.876173,-9.183653,3.538985,372.399994,33.529999,-9.17,1729429296374.0,0.0
-2.091327,-8.91805,4.290331,370.440002,18.690001,-10.78,1729429296395.0,0.0
-2.172683,-5.017749,6.216553,418.25,43.259998,-2.66,1729429296415.0,0.0
-4.685147,-4.833502,11.057234,359.589996,45.57,-3.15,1729429296435.0,0.0
-5.563312,-5.886343,10.559525,208.809998,7.91,-0.49,1729429296454.0,0.0
-2.215754,-6.295516,7.326823,186.899994,2.87,-16.59,1729429296474.0,0.0
-2.041078,-4.890929,7.9346,243.460007,30.17,-22.049999,1729429296495.0,0.0
-2.469393,-3.567699,7.444071,212.100006,39.41,-35.77,1729429296514.0,0.0
-3.168097,-0.849452,8.492127,192.990005,52.360001,-36.610001,1729429296536.0,0.0
-4.35733,-1.354338,9.123833,156.029999,46.689999,-34.650002,1729429296557.0,0.0
-2.787638,-3.211168,8.338986,133.839996,46.34,-36.68,1729429296575.0,0.0
-3.23031,-3.739982,8.85105,133.070007,55.09,-37.52,1729429296607.0,0.0
-3.395415,-3.833302,8.908479,88.620003,50.889999,-47.110001,1729429296614.0,0.0
-2.62732,-1.464408,8.913264,67.690002,44.380001,-44.170002,1729429296636.0,0.0
-0.916451,-4.007978,10.193424,-19.879999,23.52,-24.01,1729429296657.0,0.0
-1.45005,-6.563512,10.052249,-95.059998,5.67,-16.870001,1729429296674.0,0.0
-5.06082,-3.232704,5.946165,-227.009995,-18.200001,-8.4,1729429296699.0,0.0
-8.054241,-5.661418,1.885544,-363.860016,-26.460001,10.22,1729429296716.0,0.0
-1.615155,-4.130012,3.227918,-506.029999,-9.87,-26.74,1729429296735.0,0.0
-1.885544,-5.776274,7.56132,-735.48999,-11.97,-8.47,1729429296755.0,0.0
-2.507678,-10.387242,6.812366,-917.97998,-47.040001,-8.68,1729429296775.0,0.0
-2.794817,-3.900301,-6.379266,-885.220032,-69.580002,-53.970001,1729429296796.0,0.0
-3.306881,-10.554741,7.546963,-770.840027,-49.0,-90.790001,1729429296815.0,0.0
-3.9338,-7.357929,1.758725,-624.400024,-112.349998,-120.82,1729429296835.0,0.0
-8.84148,-10.224532,-6.18784,-449.820007,-135.800003,-131.880005,1729429296855.0,0.0
-6.479764,-13.246667,-13.421343,-138.460007,-137.550003,-125.720001,1729429296875.0,0.0
-3.010171,-6.080163,-7.489535,182.070007,-86.870003,-63.349998,1729429296897.0,0.0
-4.697111,-5.458029,-1.9669,197.680008,-56.560001,-21.42,1729429296915.0,0.0
-4.161119,-11.284552,-2.758924,48.580002,-85.540001,-33.740002,1729429296935.0,0.0
-2.457429,-11.035697,-3.452843,18.690001,-77.980003,-42.420002,1729429296955.0,0.0
-2.35693,-7.408179,-3.069991,-3.64,-44.240002,-24.219999,1729429297048.0,0.0
-0.993021,-9.676575,-3.041277,-55.369999,-51.099998,-16.59,1729429297056.0,0.0
-1.038485,-9.348758,-1.74676,7.77,-40.670002,-2.73,1729429297056.0,0.0
-1.844866,-8.575876,-1.758725,6.44,-41.439999,2.17,1729429297057.0,0.0
-1.65344,-9.54497,-3.524628,-42.209999,-45.5,-2.73,1729429297057.0,0.0
-1.402194,-9.408579,-4.728218,-62.16,-41.369999,-1.61,1729429297079.0,0.0
-1.663012,-8.930015,-4.027121,-38.43,-31.92,5.46,1729429297095.0,0.0
-2.416751,-9.24826,-4.185047,-33.810001,-30.17,6.86,1729429297116.0,0.0
-3.156133,-9.245867,-4.055835,-56.0,-27.370001,0.84,1729429297172.0,0.0
-3.007778,-9.250652,-4.855037,-67.550003,-26.530001,-2.87,1729429297174.0,0.0
-2.95035,-9.389436,-5.733203,-48.860001,-18.690001,-4.34,1729429297176.0,0.0
-2.85703,-8.738588,-4.766503,-3.43,-8.19,0.98,1729429297196.0,0.0
-3.366701,-9.119047,-4.613362,16.379999,-2.8,3.92,1729429297214.0,0.0
-3.632305,-9.006584,-5.383851,11.2,3.36,-0.63,1729429297234.0,0.0
-3.68734,-7.948956,-4.589434,19.040001,9.66,-0.56,1729429297255.0,0.0
-3.986443,-8.671589,-5.02732,21.77,9.45,-2.59,1729429297273.0,0.0
-3.421736,-8.365308,-5.02732,45.639999,14.0,-1.96,1729429297295.0,0.0
-2.359323,-7.283752,-4.488935,50.189999,17.99,-0.35,1729429297318.0,0.0
-3.275774,-8.532805,-3.546163,27.790001,15.96,1.89,1729429297334.0,0.0
-3.400201,-8.939585,-3.570091,25.27,11.97,-1.82,1729429297353.0,0.0
-2.67039,-9.073583,-2.471786,25.969999,10.36,-5.46,1729429297374.0,0.0
-2.79721,-9.169296,-2.074577,8.89,-0.07,-12.46,1729429297395.0,0.0
-3.105884,-9.186047,-3.17049,-17.780001,-7.0,-17.219999,1729429297414.0,0.0
-3.113062,-9.365508,-3.948158,-20.65,-6.58,-14.07,1729429297436.0,0.0
-3.553342,-9.329616,-3.701697,-11.41,2.52,-10.36,1729429297454.0,0.0
-3.026921,-8.367701,-3.18724,2.59,5.25,-6.23,1729429297475.0,0.0
-3.412165,-7.594819,-2.67039,12.95,4.69,1.47,1729429297497.0,0.0
-3.493521,-8.501699,-3.239882,-5.32,-0.28,1.4,1729429297514.0,0.0
-3.273381,-9.085547,-4.881358,-24.639999,-0.35,-1.47,1729429297534.0,0.0
-2.909672,-9.609575,-5.79781,-8.54,4.55,-3.43,1729429297554.0,0.0
-2.840281,-8.539984,-4.618148,35.349998,13.72,3.01,1729429297574.0,0.0
-2.904887,-8.695518,-3.223132,37.59,14.91,3.01,1729429297596.0,0.0
-2.919244,-9.044869,-2.562713,5.81,10.43,-3.57,1729429297614.0,0.0
-2.490928,-8.805587,-3.242275,-26.18,5.04,-9.73,1729429297634.0,0.0
-2.218147,-8.238488,-4.302295,-33.599998,3.08,-10.01,1729429297654.0,0.0
-2.036292,-8.245667,-2.610569,-20.23,2.87,-4.27,1729429297674.0,0.0
-2.464607,-8.286345,-1.931008,-20.440001,-2.03,-1.05,1729429297695.0,0.0
-2.677568,-8.571091,-2.596212,-55.860001,-11.83,-5.11,1729429297715.0,0.0
-2.301895,-8.65484,-4.632504,-90.019997,-21.07,-8.26,1729429297735.0,0.0
-2.148755,-8.394022,-5.149354,-66.010002,-22.4,-4.62,1729429297754.0,0.0
-2.411965,-7.659425,-4.625326,-16.379999,-18.34,5.88,1729429297774.0,0.0
-3.084348,-8.370094,-4.910072,9.1,-14.91,12.46,1729429297795.0,0.0
-3.48395,-9.119047,-5.290531,3.78,-10.64,12.04,1729429297814.0,0.0
-3.821337,-8.915657,-6.644868,-1.12,-3.64,8.89,1729429297834.0,0.0
-4.110869,-8.925228,-8.003991,-3.08,11.9,6.3,1729429297854.0,0.0
-3.084348,-9.296116,-8.128418,3.64,28.0,7.77,1729429297874.0,0.0
-4.017549,-9.353544,-6.135197,11.06,41.860001,4.9,1729429297894.0,0.0
-5.62074,-8.760124,-7.910671,-13.93,43.400002,-1.47,1729429297915.0,0.0
-4.539185,-9.501899,-10.358529,-15.05,76.300003,-10.08,1729429297934.0,0.0
-3.055635,-8.049455,-5.69731,-28.0,108.360001,-0.63,1729429297953.0,0.0
-1.306481,-7.398607,-0.239282,-23.309999,96.459999,-2.38,1729429297974.0,0.0
-0.4666,-9.580862,-2.232504,32.619999,73.290001,-6.09,1729429297994.0,0.0
2.467,-0.492921,10.466206,81.480003,41.09,8.33,1729429298013.0,0.0
-2.76371,-10.121639,1.253839,-18.27,-29.33,22.4,1729429298039.0,0.0
-6.436693,-12.832708,-6.601797,-34.299999,-45.220001,4.55,1729429298054.0,0.0
-0.399601,-8.805587,-6.943972,-3.85,-38.849998,-0.35,1729429298074.0,0.0
-0.12682,-7.542177,-5.221139,-16.309999,-34.09,-3.99,1729429298095.0,0.0
-1.830509,-7.245467,-3.096312,-20.440001,-45.639999,-1.4,1729429298114.0,0.0
-3.39063,-8.985049,-4.701896,-66.779999,-61.810001,-14.91,1729429298134.0,0.0
-2.402394,-7.113862,-5.682954,-106.330002,-61.880001,-28.559999,1729429298154.0,0.0
-3.237489,-8.645268,-7.831708,-90.230003,-60.060001,-19.6,1729429298174.0,0.0
-3.888337,-6.850651,-6.91765,6.02,-40.529999,-9.1,1729429298196.0,0.0
-4.307081,-7.932207,-6.888937,59.990002,-27.93,1.68,1729429298214.0,0.0
-4.850252,-6.869793,-5.156533,49.560001,-16.24,3.85,1729429298234.0,0.0
-5.757132,-8.810372,-8.274381,-17.01,-12.04,-6.51,1729429298254.0,0.0
-6.240481,-7.877172,-11.636297,-71.470001,12.18,-19.25,1729429298276.0,0.0
-2.840281,-7.9011,-12.263215,-89.879997,41.439999,-10.43,1729429298295.0,0.0
-5.240282,-6.302694,-7.436893,-45.5,87.709999,-2.87,1729429298314.0,0.0
-1.957329,-8.080563,-4.508078,-21.0,100.870003,-3.85,1729429298335.0,0.0
-1.768296,-6.553941,1.866402,-40.950001,81.900002,-12.11,1729429298354.0,0.0
1.761117,-8.420342,-5.927022,-42.279999,35.98,-9.73,1729429298374.0,0.0
3.845266,-3.101098,3.507878,57.540001,32.200001,10.43,1729429298398.0,0.0
-0.739382,-9.020942,1.265803,106.120003,-11.06,44.029999,1729429298414.0,0.0
-6.98465,-13.318451,-3.979264,2.17,-44.310001,-0.21,1729429298435.0,0.0
-1.356731,-9.609575,-8.341379,-18.76,-58.799999,-11.83,1729429298454.0,0.0
-2.146362,-8.453842,-8.726624,-41.790001,-47.25,-21.210001,1729429298474.0,0.0
-2.371287,-5.757132,-7.001399,-12.67,-35.139999,-11.55,1729429298495.0,0.0
-0.045464,-4.895715,-4.725825,17.43,-41.16,4.55,1729429298514.0,0.0
-0.777667,-4.508078,-4.072584,75.32,-45.220001,21.91,1729429298534.0,0.0
-3.756732,-7.343572,-3.938586,48.439999,-45.849998,23.24,1729429298554.0,0.0
-5.795416,-9.506684,-4.505685,-6.51,-52.360001,15.33,1729429298574.0,0.0
-4.34058,-9.41815,-7.69771,-1.96,-54.740002,7.28,1729429298597.0,0.0
-5.453243,-8.69791,-10.260423,-4.27,-34.09,-0.56,1729429298614.0,0.0
-6.783652,-9.896714,-15.117853,-45.150002,1.89,-6.86,1729429298642.0,0.0
-3.845266,-6.922436,-9.521042,-114.870003,53.549999,-24.639999,1729429298654.0,0.0
-4.613362,-5.010571,-8.044669,-110.809998,97.93,-21.700001,1729429298676.0,0.0
-2.392823,-6.872187,-7.946564,-74.129997,94.849998,-7.14,1729429298696.0,0.0
-1.320838,-6.915257,-2.287539,-16.309999,91.139999,1.89,1729429298714.0,0.0
-0.799203,-6.068198,-4.644469,1.33,71.959999,8.54,1729429298734.0,0.0
1.316052,-7.109076,-0.325424,13.440001,53.619999,20.23,1729429298755.0,0.0
1.579263,-6.412765,5.125426,69.230003,7.42,32.27,1729429298774.0,0.0
-2.273181,-9.035298,-0.421137,84.910004,-36.889999,33.25,1729429298795.0,0.0
-3.419343,-9.174082,-5.773881,2.73,-63.349998,7.49,1729429298815.0,0.0
-1.09352,-10.619347,-10.423136,-58.59,-76.510002,-5.04,1729429298836.0,0.0
-1.445265,-7.920243,-9.095119,-53.48,-55.09,-18.969999,1729429298855.0,0.0
-1.710868,-5.974878,-6.202196,3.64,-46.48,-10.78,1729429298874.0,0.0
-2.378466,-4.876573,-5.185246,35.139999,-50.189999,-1.54,1729429298895.0,0.0
-4.0008,-6.068198,-7.209574,1.4,-50.959999,-1.68,1729429298917.0,0.0
-5.517848,-8.55434,-8.319844,-55.16,-43.470001,-9.73,1729429298937.0,0.0
-4.354938,-6.597012,-10.863414,-25.620001,-32.830002,-10.43,1729429298954.0,0.0
-5.659025,-8.563912,-13.9358,9.17,10.92,-7.77,1729429298975.0,0.0
-3.558127,-4.666004,-11.629118,-17.92,47.950001,-4.69,1729429298996.0,0.0
-4.015156,-6.932007,-8.757731,-70.980003,75.040001,10.57,1729429299015.0,0.0
-5.197211,-9.12144,-3.866802,-18.690001,94.080002,3.92,1729429299039.0,0.0
-3.957729,-4.364508,-3.751946,-19.110001,80.150002,-9.17,1729429299056.0,0.0
-0.937986,-6.805188,-6.446264,-79.940002,50.470001,-8.75,1729429299076.0,0.0
-0.823131,-7.953743,-5.87438,12.18,46.27,-1.33,1729429299101.0,0.0
2.304288,-5.592027,0.435494,98.489998,29.540001,12.67,1729429299117.0,0.0
-0.162712,-5.580062,2.062613,81.760002,-13.23,15.26,1729429299136.0,0.0
-4.271189,-10.124033,-4.331009,17.5,-49.560001,1.68,1729429299156.0,0.0
-1.844866,-9.018548,-7.865208,3.15,-66.849998,-12.46,1729429299176.0,0.0
-1.612763,-7.202396,-7.592427,-13.02,-59.360001,-20.65,1729429299197.0,0.0
-1.316052,-7.054041,-6.872187,-10.29,-57.400002,-13.16,1729429299216.0,0.0
-2.414358,-6.470192,-5.613562,26.18,-55.860001,-1.75,1729429299237.0,0.0
-5.534599,-7.446464,-7.956135,-20.790001,-51.869999,-9.94,1729429299256.0,0.0
-4.132405,-6.853044,-9.480364,-84.699997,-40.459999,-19.25,1729429299276.0,0.0
-3.785445,-7.99442,-14.512468,-56.279999,-22.4,-11.2,1729429299297.0,0.0
-3.491128,-1.72044,-13.385449,-31.780001,25.969999,-10.85,1729429299316.0,0.0
-3.302095,-4.656433,-11.136196,-39.130001,53.619999,26.110001,1729429299336.0,0.0
-5.505885,-8.645268,-7.721639,-36.470001,78.120003,33.529999,1729429299361.0,0.0
-6.056234,-7.759924,-5.010571,26.880001,94.989998,9.66,1729429299376.0,0.0
-3.268596,-5.972485,-2.517249,-42.0,65.519997,-5.6,1729429299397.0,0.0
-0.856631,-9.107083,-8.786445,-72.099998,34.650002,-15.4,1729429299416.0,0.0
1.01695,-6.295516,-3.897908,40.599998,40.040001,-3.22,1729429299436.0,0.0
0.861416,-4.208975,3.52702,96.389999,16.24,11.2,1729429299455.0,0.0
-1.643869,-8.894121,-2.727818,75.879997,-31.290001,21.07,1729429299476.0,0.0
-5.008178,-10.04507,-5.592027,7.14,-50.259998,-7.63,1729429299497.0,0.0
-1.194018,-6.738188,-8.295916,-0.07,-63.0,-9.38,1729429299516.0,0.0
-0.787239,-7.058826,-7.740781,-14.63,-55.510002,-0.21,1729429299536.0,0.0
-0.844666,-7.089933,-6.302694,46.200001,-51.310001,17.43,1729429299555.0,0.0
-1.871187,-6.817152,-6.597012,102.129997,-49.560001,30.17,1729429299575.0,0.0
-7.590034,-8.755339,-4.771288,-46.549999,-32.41,5.81,1729429299598.0,0.0
-3.326023,-9.159724,-12.380465,-105.980003,-40.880001,-8.75,1729429299615.0,0.0
-6.941578,-7.496714,-12.387643,-66.709999,5.32,-22.540001,1729429299636.0,0.0
-0.193819,-1.914258,-10.856236,22.190001,21.98,-1.05,1729429299656.0,0.0
-3.326023,-5.836094,-7.424929,78.260002,48.09,21.91,1729429299675.0,0.0
-6.12084,-5.613562,-4.297509,3.64,58.799999,5.53,1729429299696.0,0.0
-5.352744,-9.671788,-6.707082,-111.860001,40.18,-6.37,1729429299716.0,0.0
-5.07757,-5.67099,-6.888937,-85.050003,48.16,-29.190001,1729429299736.0,0.0
-2.586641,-6.436693,-8.499306,-52.639999,43.119999,-14.98,1729429299755.0,0.0
-2.098505,-6.728617,-11.057234,-3.01,48.93,-9.52,1729429299776.0,0.0
-1.112662,-5.424529,-7.609176,27.23,67.620003,-3.57,1729429299797.0,0.0
0.528814,-5.156533,-0.655633,37.450001,59.5,0.84,1729429299816.0,0.0
0.16989,-5.192425,4.015156,36.189999,25.620001,-0.14,1729429299836.0,0.0
-3.282953,-9.377472,-3.76391,44.939999,-20.23,-8.33,1729429299855.0,0.0
-1.088734,-6.319445,-6.563512,29.610001,-38.290001,-18.27,1729429299875.0,0.0
-0.11007,-6.116055,-7.972885,-14.77,-43.259998,-14.84,1729429299897.0,0.0
-0.433101,-5.003392,-5.807381,-4.69,-39.130001,-4.41,1729429299916.0,0.0
-2.074577,-5.709275,-4.527221,15.33,-49.07,14.98,1729429299936.0,0.0
-3.349952,-8.458629,-7.223931,28.35,-60.130001,15.75,1729429299956.0,0.0
-6.463014,-8.997013,-8.300702,4.97,-51.029999,-5.39,1729429299976.0,0.0
-4.642076,-6.305088,-10.370493,-25.76,-40.389999,-15.12,1729429299999.0,0.0
-4.98425,-7.156933,-12.16511,-46.830002,-17.780001,-16.450001,1729429300016.0,0.0
-5.067998,-4.256832,-12.531212,-51.380001,13.93,-18.34,1729429300039.0,0.0
-2.926422,-3.723232,-13.667803,-56.420002,39.619999,0.56,1729429300056.0,0.0
-5.721239,-7.68096,-12.765708,-43.610001,82.879997,13.58,1729429300078.0,0.0
-5.855237,-9.209974,-4.371687,10.71,108.360001,5.6,1729429300098.0,0.0
-4.443472,-4.275974,-0.653241,-7.56,86.449997,-16.309999,1729429300116.0,0.0
-0.782453,-7.779066,-8.283953,-74.620003,41.790001,-18.41,1729429300136.0,0.0
1.026521,-5.721239,-6.479764,-17.780001,46.41,-14.98,1729429300155.0,0.0
0.751346,-5.481956,0.057428,76.93,32.48,6.79,1729429300176.0,0.0
0.404387,-3.823731,3.177669,113.400002,-7.7,18.059999,1729429300198.0,0.0
-2.57707,-8.513663,-3.412165,81.269997,-53.619999,17.219999,1729429300272.0,0.0
-1.926222,-7.310073,-7.322037,49.0,-72.590004,8.61,1729429300272.0,0.0
-1.048056,-8.099705,-7.453642,-3.64,-72.239998,5.46,1729429300272.0,0.0
-1.813759,-7.298109,-5.245068,14.49,-67.550003,9.38,1729429300283.0,0.0
-2.720639,-7.601997,-6.18784,57.75,-76.510002,13.58,1729429300302.0,0.0
-6.075377,-8.788837,-9.147761,14.56,-67.830002,2.03,1729429300316.0,0.0
-5.359922,-9.497113,-12.086146,-81.480003,-49.209999,-25.620001,1729429300336.0,0.0
-4.101298,-6.302694,-13.397413,-107.520004,-18.83,-40.110001,1729429300355.0,0.0
-1.914258,-2.766103,-12.727424,-58.799999,10.92,-22.190001,1729429300376.0,0.0
-4.62054,-3.785445,-9.815358,22.469999,49.700001,8.05,1729429300398.0,0.0
-6.537192,-7.881958,-7.798209,13.51,74.620003,17.639999,1729429300415.0,0.0
-5.91745,-7.491928,-9.84168,-9.59,88.340004,-3.57,1729429300437.0,0.0
-2.330609,-7.063612,-6.503692,-16.450001,82.32,-9.73,1729429300455.0,0.0
-2.019542,-5.838487,-6.886543,-25.41,75.040001,-23.379999,1729429300475.0,0.0
1.306481,-7.123433,-1.241875,22.33,54.670002,-5.04,1729429300497.0,0.0
-1.014557,-4.292724,2.522035,85.120003,29.26,-2.59,1729429300516.0,0.0
0.452243,-8.913264,0.043071,105.980003,-24.43,15.33,1729429300536.0,0.0
-2.924029,-9.238688,-4.759324,41.790001,-47.529999,-8.12,1729429300555.0,0.0
-1.586441,-7.77428,-7.372287,20.65,-56.07,-3.57,1729429300575.0,0.0
-0.12682,-7.972885,-6.943972,-20.299999,-53.060001,-2.38,1729429300597.0,0.0
-1.239482,-7.357929,-4.807181,42.77,-52.57,12.88,1729429300615.0,0.0
-3.318845,-6.989435,-4.383651,92.959999,-59.010002,21.98,1729429300636.0,0.0
-4.125226,-9.305687,-6.005985,69.300003,-64.120003,15.190001,1729429300656.0,0.0
-5.592027,-9.537791,-6.903293,-9.17,-58.380001,-0.35,1729429300675.0,0.0
-4.63729,-9.554541,-8.671589,-63.630001,-52.43,-13.72,1729429300697.0,0.0
-3.938586,-6.817152,-7.996813,-51.59,-36.68,-19.110001,1729429300715.0,0.0
-3.512664,-6.092126,-8.236095,-15.75,-25.48,-12.53,1729429300736.0,0.0
-2.931208,-5.807381,-7.867601,22.82,-17.360001,-2.73,1729429300755.0,0.0
-3.651447,-5.900701,-7.702496,46.41,-6.09,4.41,1729429300775.0,0.0
-4.790431,-7.336394,-9.915856,3.01,6.23,2.31,1729429300796.0,0.0
-5.546563,-7.04447,-12.492928,-74.970001,34.580002,-10.57,1729429300816.0,0.0
-4.345366,-8.350951,-9.066404,-122.849998,62.299999,-7.49,1729429300836.0,0.0
-4.737789,-6.98465,-11.442478,-63.490002,95.970001,-12.88,1729429300855.0,0.0
-2.06022,-5.84088,-9.79143,-42.139999,118.090004,-8.47,1729429300875.0,0.0
-0.701097,-9.628718,-3.393023,19.530001,111.510002,0.21,1729429300898.0,0.0
-1.572084,-1.978864,-0.150748,114.660004,98.910004,-10.5,1729429300916.0,0.0
2.057827,-5.479564,5.565705,-18.48,18.620001,4.55,1729429300936.0,0.0
-1.811367,-9.336794,-2.151148,24.290001,-24.710001,22.960001,1729429300954.0,0.0
-3.917051,-11.846866,-6.506085,-3.64,-43.119999,-4.9,1729429300976.0,0.0
0.59342,-6.802795,-7.951349,-1.96,-53.48,-11.69,1729429300997.0,0.0
-1.179662,-6.4343,-6.752545,-6.3,-45.990002,-5.04,1729429301016.0,0.0
-2.478964,-7.171289,-5.699703,21.629999,-48.16,3.01,1729429301040.0,0.0
-3.728018,-7.345965,-6.52762,43.889999,-49.630001,5.95,1729429301055.0,0.0
-5.041678,-7.448857,-7.355537,8.4,-43.82,1.33,1729429301075.0,0.0
-4.488935,-8.133204,-9.482756,-56.0,-37.240002,-12.25,1729429301101.0,0.0
-3.78066,-8.525627,-9.597611,-35.279999,-22.190001,-15.68,1729429301115.0,0.0
-3.213561,-5.627919,-7.9681,22.610001,-5.95,-14.14,1729429301135.0,0.0
-2.648855,-4.596612,-8.52802,39.130001,1.4,-3.15,1729429301155.0,0.0
-3.017349,-5.814559,-12.220145,5.32,16.59,7.0,1729429301175.0,0.0
-4.407579,-5.151747,-15.773487,-120.050003,57.959999,2.17,1729429301198.0,0.0
-5.522634,-10.774881,-17.381464,-169.330002,95.059998,16.66,1729429301215.0,0.0
-5.314459,-11.595619,-5.225924,-30.1,139.720001,7.42,1729429301235.0,0.0
-5.115855,-7.185646,-2.160719,114.730003,133.350006,-2.38,1729429301255.0,0.0
2.715853,-10.344172,-2.723032,-52.150002,69.650002,-26.530001,1729429301276.0,0.0
1.361516,-6.21416,4.115655,62.299999,38.5,-13.09,1729429301297.0,0.0
-0.323031,-7.312466,1.122234,115.5,-14.28,-2.45,1729429301315.0,0.0
0.102891,-7.922636,-3.038885,116.340004,-60.060001,-0.35,1729429301336.0,0.0
-0.428315,-10.272388,-8.090133,123.270004,-81.620003,-1.19,1729429301355.0,0.0
-1.586441,-9.968499,-7.410572,212.380005,-79.590004,-3.29,1729429301374.0,0.0
-3.022135,-6.683154,-5.285746,329.140015,-68.669998,16.379999,1729429301398.0,0.0
-3.708875,-8.056634,-5.010571,314.160004,-56.560001,36.049999,1729429301415.0,0.0
-2.598605,-11.655439,-4.890929,324.940002,-44.240002,32.41,1729429301435.0,0.0
-1.904687,-11.770294,-3.239882,392.140015,-7.63,34.790001,1729429301455.0,0.0
-1.689333,-11.574083,-1.22034,392.700012,14.21,22.889999,1729429301475.0,0.0
-0.770489,-10.535598,1.198804,326.200012,27.51,9.73,1729429301497.0,0.0
-0.150748,-9.006584,3.012564,220.710007,34.439999,-3.01,1729429301515.0,0.0
-0.007178,-8.276773,2.208575,101.43,44.380001,-5.39,1729429301535.0,0.0
-0.849452,-8.580662,1.107877,-9.66,36.259998,-6.09,1729429301554.0,0.0
-1.344766,-6.400801,1.440479,-90.230003,33.529999,5.04,1729429301575.0,0.0
-3.290131,-8.006385,-0.392423,-169.680008,35.490002,22.68,1729429301596.0,0.0
-2.986243,-12.811172,-2.189433,-92.330002,-16.17,21.139999,1729429301615.0,0.0
-2.809174,-10.15514,0.815953,109.760002,7.98,33.18,1729429301636.0,0.0
-4.555934,-8.238488,2.380858,126.419998,16.73,26.040001,1729429301654.0,0.0
-3.416951,-8.130811,1.105484,10.85,7.14,14.07,1729429301674.0,0.0
-3.012564,-9.044869,1.399801,-55.369999,1.33,13.37,1729429301696.0,0.0
-2.275574,-9.200402,1.11027,-56.07,-2.66,14.56,1729429301715.0,0.0
-2.981457,-9.346365,0.265603,-23.379999,-5.04,19.25,1729429301735.0,0.0
-3.775874,-9.334401,0.756132,19.530001,-4.9,21.210001,1729429301755.0,0.0
-4.512863,-8.516055,0.921237,50.470001,-4.97,26.530001,1729429301774.0,0.0
-4.608576,-8.827123,1.201197,57.470001,-4.34,29.33,1729429301795.0,0.0
-5.905487,-11.303694,1.251446,42.77,0.28,22.889999,1729429301815.0,0.0
-7.329216,-14.187045,2.11047,36.189999,3.92,6.72,1729429301835.0,0.0
-7.159326,-9.796216,1.270589,10.29,31.85,-19.67,1729429301854.0,0.0
-6.946364,-7.668997,-0.531207,-77.07,41.16,-35.91,1729429301875.0,0.0
-5.099105,-12.445071,-3.15374,-166.110001,45.849998,-59.920002,1729429301895.0,0.0
-2.842674,-17.398212,-4.532006,-92.959999,48.02,-78.260002,1729429301915.0,0.0
6.855437,-0.861416,-8.327023,40.389999,53.130001,-77.07,1729429301936.0,0.0
-5.912664,-5.190032,17.431713,332.01001,57.119999,9.03,1729429301954.0,0.0
-1.354338,-0.375673,12.911672,155.050003,-17.57,6.37,1729429301974.0,0.0
-4.59422,-3.668197,5.613562,-74.059998,-57.889999,4.2,1729429301996.0,0.0
-3.723232,-9.58804,1.954936,-180.460007,-68.879997,25.549999,1729429302014.0,0.0
-3.211168,-12.189038,-1.629512,-126.209999,-59.360001,35.209999,1729429302038.0,0.0
-3.395415,-10.593026,-2.550749,-55.510002,-42.209999,40.880001,1729429302055.0,0.0
-2.65364,-10.549955,-1.830509,-1.68,-34.369999,35.98,1729429302074.0,0.0
-2.227718,-8.51127,0.665205,70.279999,-16.24,37.310001,1729429302098.0,0.0
-3.160919,-6.812366,2.591427,97.230003,-9.24,45.43,1729429302115.0,0.0
-4.405186,-8.29113,1.98365,49.98,-25.83,44.450001,1729429302135.0,0.0
-4.821537,-9.243474,1.062413,20.16,-21.700001,38.009998,1729429302154.0,0.0
-6.142376,-11.679367,0.933201,-3.71,-18.200001,27.51,1729429302182.0,0.0
-6.836295,-13.201202,0.930808,-22.190001,-3.78,6.16,1729429302196.0,0.0
-5.99402,-10.731809,-0.454636,-82.459999,25.9,-17.5,1729429302214.0,0.0
-6.616155,-13.596018,-3.048456,-158.339996,40.389999,-41.860001,1729429302237.0,0.0
-5.139783,-10.872985,-6.259624,-127.68,70.980003,-62.860001,1729429302254.0,0.0
-3.68734,-5.350351,-3.34038,14.91,92.120003,-92.190002,1729429302276.0,0.0
