acc_x,acc_y,acc_z,gyr_x,gyr_y,gyr_z,timestamp,label
-7.415358,-5.101498,-5.99402,31.780001,-8.89,22.4,1729417602513.0,0.0
-7.410572,-5.089533,-6.221339,20.860001,-3.71,13.79,1729417602517.0,0.0
-7.312466,-5.091926,-6.329016,16.52,0.07,5.53,1729417602517.0,0.0
-7.23111,-5.041678,-6.104091,25.620001,4.55,-0.63,1729417602522.0,0.0
-6.948757,-4.862216,-5.809773,38.150002,7.14,-2.73,1729417602543.0,0.0
-6.54437,-4.673182,-5.809773,52.009998,7.07,0.07,1729417602563.0,0.0
-6.175875,-4.462614,-5.656632,62.09,7.28,2.1,1729417602581.0,0.0
-6.149554,-4.733003,-5.673382,58.380001,11.41,1.26,1729417602602.0,0.0
-6.072984,-5.264209,-6.601797,59.57,17.290001,0.28,1729417602624.0,0.0
-6.386444,-6.015556,-5.599205,91.910004,22.960001,4.13,1729417602644.0,0.0
-6.324231,-5.998806,-4.811966,126.910004,25.129999,5.18,1729417602662.0,0.0
-6.108876,-5.486742,-4.4674,142.380005,28.559999,3.36,1729417602683.0,0.0
-6.166305,-5.441278,-4.333402,128.169998,33.950001,-2.24,1729417602702.0,0.0
-6.448657,-5.601598,-4.335794,84.840004,33.389999,-8.68,1729417602722.0,0.0
-6.541977,-5.924629,-4.228118,42.0,25.41,-11.2,1729417602744.0,0.0
-6.199803,-6.025128,-4.04387,17.15,17.780001,-10.85,1729417602763.0,0.0
-5.843273,-5.752346,-4.053442,-1.12,14.28,-10.08,1729417602782.0,0.0
-6.005985,-6.068198,-4.697111,-14.07,20.16,-10.5,1729417602802.0,0.0
-6.305088,-6.814759,-4.981857,-22.610001,25.620001,-11.97,1729417602822.0,0.0
-6.431907,-7.264609,-4.886144,-16.17,22.4,-9.03,1729417602843.0,0.0
-6.034698,-7.054041,-4.996214,-0.49,18.549999,-6.37,1729417602863.0,0.0
-5.757132,-6.721439,-4.98425,15.54,19.74,-4.55,1729417602882.0,0.0
-5.931807,-6.486942,-4.833502,17.15,22.33,-5.18,1729417602903.0,0.0
-6.099305,-6.520442,-4.773681,5.74,23.52,-8.61,1729417602923.0,0.0
-6.003592,-6.740582,-4.814359,-6.16,20.440001,-9.66,1729417602943.0,0.0
-5.773881,-7.046863,-4.979464,-6.44,19.879999,-11.13,1729417602963.0,0.0
-5.692525,-7.106683,-5.020142,0.98,22.75,-10.78,1729417602982.0,0.0
-5.678168,-6.989435,-5.230711,10.15,25.200001,-9.59,1729417603002.0,0.0
-5.69731,-6.908078,-5.398208,14.49,26.530001,-9.03,1729417603022.0,0.0
-5.647062,-7.123433,-5.656632,16.379999,28.700001,-10.01,1729417603043.0,0.0
-5.680561,-7.353144,-5.276174,22.4,30.870001,-12.95,1729417603064.0,0.0
-5.675776,-7.750352,-5.556134,29.120001,35.279999,-16.030001,1729417603083.0,0.0
-5.812167,-8.070991,-5.831308,23.030001,42.420002,-28.210001,1729417603102.0,0.0
-5.702096,-8.425128,-5.855237,11.62,40.110001,-37.240002,1729417603124.0,0.0
-4.998606,-8.487342,-6.623333,13.79,35.349998,-43.330002,1729417603145.0,0.0
-4.742575,-8.717053,-7.147361,22.26,45.57,-51.240002,1729417603166.0,0.0
-4.807181,-9.293723,-6.592227,39.41,50.259998,-57.470001,1729417603184.0,0.0
-4.139583,-9.968499,-6.745367,72.519997,49.490002,-62.09,1729417603202.0,0.0
-3.9673,-10.030712,-6.233303,103.879997,56.77,-65.590004,1729417603223.0,0.0
-3.739982,-10.159925,-7.549356,124.599998,65.940002,-73.080002,1729417603243.0,0.0
-3.751946,-9.745967,-6.240481,143.639999,63.700001,-84.07,1729417603262.0,0.0
-3.515057,-10.348958,-5.355137,160.860001,46.27,-91.769997,1729417603283.0,0.0
-3.158526,-11.358729,-4.35733,198.309998,35.139999,-102.760002,1729417603304.0,0.0
-3.074777,-11.394621,-2.76371,277.480011,28.280001,-106.470001,1729417603323.0,0.0
-2.825923,-10.683953,-1.067199,384.089996,19.18,-114.029999,1729417603345.0,0.0
-2.395216,-7.322037,0.284746,447.929993,15.82,-112.349998,1729417603363.0,0.0
-1.832902,-4.07737,1.72044,454.580017,4.41,-99.260002,1729417603382.0,0.0
-0.691526,-1.794617,1.062413,407.75,-8.47,-83.93,1729417603404.0,0.0
-0.342174,-1.28016,2.031506,338.730011,-2.66,-70.489998,1729417603424.0,0.0
-1.17009,0.61017,1.648655,253.75,31.85,-44.029999,1729417603444.0,0.0
-1.864009,2.29711,1.512264,154.699997,76.370003,22.540001,1729417603617.0,0.0
-2.78046,2.615355,3.366701,115.5,89.739998,68.669998,1729417603635.0,0.0
-7.030113,5.723632,11.466407,77.699997,124.879997,109.550003,1729417603654.0,0.0
-15.357137,1.789831,7.944171,31.15,112.139999,101.290001,1729417603655.0,0.0
-14.318651,-12.909278,5.623133,-220.639999,34.93,13.86,1729417603656.0,0.0
-6.769295,-17.225931,1.359123,-266.559998,-97.510002,35.630001,1729417603657.0,0.0
-3.842873,-11.55494,-0.337388,-144.619995,-122.5,106.260002,1729417603658.0,0.0
-0.569492,-23.46641,-8.997013,-141.820007,-46.200001,10.5,1729417603659.0,0.0
-0.133998,-12.698709,-2.033899,62.720001,60.060001,-3.71,1729417603662.0,0.0
-3.976871,-4.914857,2.447858,157.430008,108.220001,35.279999,1729417603663.0,0.0
-2.660819,-2.321038,8.348558,-10.57,91.699997,-81.269997,1729417603665.0,0.0
-3.914658,0.294317,15.608383,-96.949997,41.23,-20.51,1729417603681.0,0.0
-4.445865,3.893122,12.117253,-33.389999,7.84,63.84,1729417603703.0,0.0
-4.139583,-1.926222,4.527221,-37.66,-45.080002,72.800003,1729417603721.0,0.0
-1.806581,-8.322237,5.895915,-133.630005,-67.199997,35.98,1729417603748.0,0.0
-1.806581,-12.741781,-1.998007,-136.5,-98.139999,110.949997,1729417603763.0,0.0
-3.223132,-20.949162,-7.300502,-162.680008,-72.519997,67.900002,1729417603782.0,0.0
-3.385844,-28.063025,-9.049655,-93.449997,16.1,-20.440001,1729417603802.0,0.0
-5.051248,-12.782458,0.90688,163.029999,59.57,11.13,1729417603822.0,0.0
-3.273381,-3.771089,-1.911865,104.230003,75.809998,-40.529999,1729417603843.0,0.0
-1.473979,-2.476572,7.886744,15.54,27.65,-74.129997,1729417603898.0,0.0
-2.684747,2.26361,16.316658,16.73,30.309999,-21.35,1729417603900.0,0.0
-7.264609,2.921637,15.47917,78.889999,4.13,62.650002,1729417603905.0,0.0
-7.625926,-3.081956,7.085148,-83.790001,-28.91,21.91,1729417603924.0,0.0
-5.245068,-9.580862,5.462814,-152.389999,-97.370003,37.029999,1729417603944.0,0.0
-0.976272,-6.982256,1.952543,-113.120003,-157.289993,87.989998,1729417603965.0,0.0
-0.837488,-12.208181,-8.566305,-83.160004,-119.419998,127.190002,1729417603983.0,0.0
-2.366502,-21.853649,-12.626925,-160.649994,-49.560001,35.630001,1729417604005.0,0.0
-5.742774,-27.945776,-6.82433,-124.18,74.269997,-41.580002,1729417604025.0,0.0
-7.188039,-10.803595,2.342573,149.660004,88.900002,7.07,1729417604045.0,0.0
-3.797409,-7.408179,-0.945165,124.529999,34.439999,-68.040001,1729417604065.0,0.0
-2.275574,-5.71406,4.900501,59.360001,53.41,-78.889999,1729417604083.0,0.0
-4.448257,-0.119641,13.148561,30.1,69.510002,-71.190002,1729417604104.0,0.0
-7.802995,4.299902,18.139988,60.060001,26.18,-14.0,1729417604124.0,0.0
-8.126025,-0.87338,7.965706,4.55,-34.369999,52.220001,1729417604144.0,0.0
-3.024528,-7.618747,4.831109,-107.520004,-100.870003,15.61,1729417604167.0,0.0
-0.457029,-8.38445,2.498107,-135.869995,-148.050003,88.410004,1729417604184.0,0.0
-1.39023,-9.956534,-3.823731,-114.309998,-115.43,106.610001,1729417604205.0,0.0
-4.4339,-17.405392,-8.568698,-130.759995,-14.42,34.299999,1729417604224.0,0.0
-6.920043,-22.657637,-8.001599,-125.510002,59.290001,-36.189999,1729417604256.0,0.0
-6.297909,-13.703696,2.261217,88.480003,39.34,8.05,1729417604267.0,0.0
-5.103891,-7.008578,0.382852,154.630005,18.34,31.08,1729417604385.0,0.0
-3.998406,-7.436893,-0.071785,44.73,23.450001,-45.639999,1729417604391.0,0.0
-2.866602,-10.870593,-0.622134,14.0,43.68,-59.5,1729417604392.0,0.0
-3.570091,-5.876772,5.771489,33.25,59.849998,-48.650002,1729417604397.0,0.0
-5.12782,-5.74756,5.828916,-14.7,53.619999,-43.68,1729417604398.0,0.0
-5.79781,-8.039884,6.386444,-46.900002,35.209999,-44.099998,1729417604399.0,0.0
-4.259224,-5.245068,7.403394,21.84,-18.969999,-3.36,1729417604403.0,0.0
-4.197011,-4.445865,3.850052,-44.240002,-21.84,-1.26,1729417604423.0,0.0
-4.682754,-6.675975,0.083749,-180.600006,-28.280001,-32.759998,1729417604510.0,0.0
-3.921836,-11.057234,-2.522035,-230.790009,-54.599998,-49.420002,1729417604512.0,0.0
-2.443072,-13.797016,-2.67039,-167.369995,-81.129997,-57.82,1729417604514.0,0.0
-2.677568,-13.048061,-1.131805,-151.690002,-52.920002,-63.84,1729417604515.0,0.0
-3.962514,-9.131011,5.340781,-346.570007,-75.599998,-88.199997,1729417604523.0,0.0
-2.85703,-5.970093,4.778467,-439.110016,-99.470001,-75.599998,1729417604545.0,0.0
-0.978664,-7.21436,-3.287738,-330.890015,-65.730003,-44.799999,1729417604563.0,0.0
-1.70369,-6.245267,-3.148954,-248.710007,-48.580002,-59.010002,1729417604581.0,0.0
-2.864209,-4.941179,-7.611568,-308.070007,-38.290001,-71.610001,1729417604602.0,0.0
-2.39043,-4.275974,-8.116454,-352.309998,-33.040001,-91.699997,1729417604635.0,0.0
-3.885944,-9.52822,-3.991228,-306.459991,-68.32,-48.23,1729417604652.0,0.0
-3.151347,-6.350551,-5.728417,-304.709991,-63.490002,-50.400002,1729417604664.0,0.0
-2.842674,-3.804588,-8.008778,-236.110001,-26.809999,-32.41,1729417604682.0,0.0
-2.038685,-1.789831,-9.939785,-279.860016,-29.469999,-46.48,1729417604702.0,0.0
-3.086741,-3.294917,-10.41835,-294.980011,-12.53,-40.18,1729417604725.0,0.0
-2.318645,-3.718446,-10.794022,-249.899994,-24.43,-18.76,1729417604746.0,0.0
-1.210768,-7.255038,-12.547962,-168.419998,-24.360001,-14.35,1729417604764.0,0.0
-1.129412,-5.996413,-12.923635,-59.990002,7.14,-1.68,1729417604784.0,0.0
-1.811367,-2.478964,-10.815558,-6.09,31.639999,9.1,1729417604804.0,0.0
-1.962115,-1.277767,-7.623533,-2.45,18.48,11.41,1729417604823.0,0.0
-1.679761,-2.787638,-7.424929,-38.150002,11.34,7.49,1729417604845.0,0.0
-1.768296,-3.144169,-10.188639,-47.18,23.309999,11.27,1729417604863.0,0.0
-2.313859,-4.465007,-10.021141,-45.779999,20.58,6.02,1729417604883.0,0.0
-1.744368,-3.54377,-8.729016,-47.529999,2.52,8.96,1729417604903.0,0.0
-2.493321,-1.713261,-8.571091,-56.91,9.94,6.09,1729417604923.0,0.0
-2.433501,0.246461,-8.547162,-53.830002,-0.84,7.77,1729417604946.0,0.0
-1.744368,-1.753939,-9.549755,-37.73,-10.64,6.23,1729417604965.0,0.0
-1.861616,-2.907279,-10.518847,-41.16,-10.78,1.12,1729417604983.0,0.0
-1.832902,-1.318445,-9.999605,-35.490002,-11.2,2.24,1729417605003.0,0.0
-1.923829,-1.284946,-9.468399,-21.49,-15.05,4.13,1729417605024.0,0.0
-1.957329,-1.607977,-9.095119,-6.86,-8.82,-2.66,1729417605043.0,0.0
-2.316252,-2.562713,-9.650253,-7.14,-9.45,-0.28,1729417605064.0,0.0
-2.007578,-2.89053,-10.219746,0.7,-13.3,-1.96,1729417605083.0,0.0
-2.160719,-2.612962,-10.360922,16.030001,-3.64,-4.48,1729417605104.0,0.0
-2.098505,-1.433301,-10.478169,44.799999,3.36,3.99,1729417605123.0,0.0
-1.978864,0.210568,-10.396815,38.639999,1.54,2.59,1729417605146.0,0.0
-1.591227,-0.971486,-10.399208,2.31,-3.92,-18.27,1729417605166.0,0.0
-3.919443,-3.134598,-7.908278,-37.029999,8.61,-34.790001,1729417605182.0,0.0
-0.569492,2.105684,-11.614761,-16.379999,32.970001,-18.48,1729417605204.0,0.0
-0.732204,1.663012,-9.016156,-50.400002,-3.29,-47.040001,1729417605224.0,0.0
-3.696911,-3.345166,-9.497113,-58.099998,-4.13,-35.560001,1729417605244.0,0.0
-5.644669,-0.957129,-8.590233,-65.870003,-0.42,-36.75,1729417605264.0,0.0
-6.429514,-0.165105,-7.690532,-19.67,1.61,-3.29,1729417605284.0,0.0
-4.369294,-0.323031,-7.673782,12.53,-18.059999,10.08,1729417605305.0,0.0
-3.0006,-2.813959,-9.224331,40.459999,-13.02,18.549999,1729417605324.0,0.0
-0.911665,-2.237289,-10.729417,38.57,8.96,23.52,1729417605345.0,0.0
-3.474378,-1.112662,-11.483156,10.71,35.0,27.09,1729417605363.0,0.0
-2.175076,-2.251646,-10.875379,22.540001,-1.12,19.110001,1729417605383.0,0.0
-2.285146,-0.294317,-7.121039,49.139999,-9.87,14.42,1729417605403.0,0.0
-3.5007,-1.942972,-8.212167,3.57,-3.5,10.71,1729417605423.0,0.0
1.138984,-1.98365,-12.401999,22.120001,-27.719999,12.11,1729417605445.0,0.0
4.144369,-2.005185,-8.159525,72.029999,-49.349998,19.74,1729417605463.0,0.0
-0.492921,-7.54457,-8.212167,30.030001,-3.08,9.45,1729417605484.0,0.0
-2.160719,-2.309074,-10.951948,3.99,36.68,-18.27,1729417605506.0,0.0
-2.273181,0.739382,-10.566705,25.27,-1.19,6.51,1729417605522.0,0.0
-2.397608,-0.145962,-11.64826,-6.86,17.43,-6.51,1729417605546.0,0.0
-0.68674,-1.533799,-10.722239,7.98,-11.48,-7.21,1729417605564.0,0.0
0.849452,-0.756132,-10.135997,-6.16,-23.870001,-14.14,1729417605583.0,0.0
-2.849852,-5.503492,-9.145369,-9.03,7.14,-38.43,1729417605603.0,0.0
-4.917251,-2.938386,-6.960721,27.719999,7.14,-28.139999,1729417605626.0,0.0
-8.066205,2.749353,-12.404392,78.190002,32.759998,30.380001,1729417605643.0,0.0
-9.320045,2.70389,-11.129018,65.660004,60.830002,24.219999,1729417605663.0,0.0
-4.177868,-0.380459,-10.229317,60.060001,-23.379999,41.369999,1729417605684.0,0.0
-0.887737,-6.460621,-8.492127,45.990002,-41.509998,23.17,1729417605704.0,0.0
-0.90688,-1.619941,-9.188439,56.139999,-2.66,30.380001,1729417605722.0,0.0
-1.519442,-0.894916,-8.185846,59.639999,-2.66,26.530001,1729417605745.0,0.0
-2.11047,-4.668397,-9.877571,3.29,2.59,8.33,1729417605766.0,0.0
-1.880759,-6.039484,-8.772088,19.809999,6.86,13.23,1729417605783.0,0.0
-0.722632,-6.774081,-8.38445,43.540001,-20.93,4.13,1729417605803.0,0.0
-0.40678,-5.702096,-9.485149,30.66,11.13,-6.02,1729417605823.0,0.0
-1.052842,-2.754139,-10.260423,76.93,34.299999,13.02,1729417605843.0,0.0
-1.74676,-2.342573,-10.585848,156.589996,39.200001,44.099998,1729417605870.0,0.0
-2.644069,-6.084948,-8.628519,197.399994,27.790001,48.790001,1729417605883.0,0.0
-2.883351,-8.317451,-6.405586,188.229996,29.469999,38.920002,1729417605903.0,0.0
-2.770889,-5.333601,-6.630512,194.460007,25.200001,48.790001,1729417605923.0,0.0
-2.067399,-2.644069,-10.485349,286.019989,5.74,63.630001,1729417605946.0,0.0
-1.021735,-2.725425,-11.715261,371.48999,-35.630001,58.799999,1729417605965.0,0.0
-1.753939,-7.389036,-6.728617,367.429993,-18.83,60.619999,1729417605983.0,0.0
-3.608376,-4.998606,-6.367301,216.020004,42.560001,59.080002,1729417606004.0,0.0
-6.250053,-7.88435,-6.484549,179.690002,85.330002,61.529999,1729417606023.0,0.0
-5.785845,-6.888937,-7.106683,219.940002,54.389999,80.849998,1729417606046.0,0.0
-5.173282,-3.976871,-4.713861,262.850006,50.68,99.330002,1729417606066.0,0.0
-4.835894,-1.639083,0.260818,218.680008,69.160004,78.470001,1729417606084.0,0.0
-4.443472,-2.565106,6.869793,121.520004,56.279999,68.739998,1729417606104.0,0.0
-2.500499,-7.293324,7.429714,19.67,4.55,56.91,1729417606125.0,0.0
-2.493321,-17.240288,1.629512,-39.549999,-22.540001,37.240002,1729417606147.0,0.0
-4.053442,-16.606188,3.692125,-30.309999,-26.18,-0.28,1729417606167.0,0.0
-5.56092,-12.23211,0.78006,18.059999,-39.759998,29.33,1729417606185.0,0.0
-4.603791,-11.255837,-9.178867,-41.02,-79.730003,-0.77,1729417606204.0,0.0
-4.922036,-14.531611,-17.7691,-83.230003,-70.980003,-32.48,1729417606226.0,0.0
-7.111469,-14.902499,-8.91805,7.49,44.450001,-49.490002,1729417606246.0,0.0
-6.769295,-10.51167,-5.101498,106.68,72.519997,-41.299999,1729417606264.0,0.0
-3.055635,-7.185646,-7.530212,71.120003,30.17,-57.189999,1729417606284.0,0.0
1.545763,-3.682554,-0.552742,56.07,17.219999,-62.510002,1729417606305.0,0.0
-0.090927,1.268196,16.05584,27.370001,2.38,-5.46,1729417606324.0,0.0
-3.302095,-1.531406,10.760524,-1.12,-7.14,28.139999,1729417606347.0,0.0
-6.4343,-8.863015,1.124627,-89.32,112.489998,-52.080002,1729417606366.0,0.0
-6.577869,-10.269995,-2.40718,-139.229996,-92.82,-10.29,1729417606385.0,0.0
-1.304088,-10.593026,-9.875179,-104.790001,-202.229996,0.63,1729417606406.0,0.0
-1.971686,-13.301701,-16.541582,-52.779999,-132.860001,-3.36,1729417606427.0,0.0
-6.640083,-14.397614,-15.349957,-26.950001,91.0,-25.129999,1729417606448.0,0.0
-8.738588,-13.270595,-4.601398,77.910004,111.580002,-21.42,1729417606466.0,0.0
-4.486543,-9.777073,-6.13759,99.610001,30.870001,-28.91,1729417606485.0,0.0
-0.291924,-5.845665,-5.4006,70.349998,20.299999,-52.5,1729417606506.0,0.0
1.318445,-3.529413,1.335195,58.450001,31.08,-22.889999,1729417606527.0,0.0
-1.59362,-2.914458,12.416357,9.52,33.740002,-3.15,1729417606547.0,0.0
-4.204189,-5.065606,9.128618,-29.889999,51.029999,6.86,1729417606567.0,0.0
-6.788438,-6.704689,-0.200997,-61.110001,69.720001,2.24,1729417606588.0,0.0
-5.960521,-8.925228,-0.89013,-72.239998,-32.619999,-17.360001,1729417606606.0,0.0
-1.751546,-8.827123,-1.095913,-112.139999,-165.130005,7.7,1729417606628.0,0.0
-1.354338,-7.927422,-10.746166,-203.419998,-198.589996,11.13,1729417606646.0,0.0
-4.249653,-9.963714,-13.526627,-194.529999,-17.290001,-20.719999,1729417606666.0,0.0
-7.855636,-13.694124,-14.342579,-135.380005,85.400002,-29.120001,1729417606686.0,0.0
-5.962914,-12.873385,-8.343772,-124.669998,22.190001,-29.82,1729417606705.0,0.0
-2.292324,-9.96132,-9.217153,-72.519997,-14.0,-14.28,1729417606725.0,0.0
-2.512464,-8.597411,-7.771888,-26.809999,37.939999,-34.299999,1729417606746.0,0.0
-5.596812,-7.989635,-6.585048,0.98,125.790001,-39.48,1729417606766.0,0.0
-5.04407,-9.71486,-6.008378,38.43,131.529999,-45.009998,1729417606786.0,0.0
-2.002793,-3.60359,1.887937,52.43,30.380001,-5.88,1729417606806.0,0.0
0.081356,-4.34058,7.312466,45.080002,-35.209999,3.43,1729417606826.0,0.0
0.244068,-4.34058,2.179861,-42.700001,-25.76,-6.09,1729417606848.0,0.0
-1.440479,-5.180461,-1.892723,-84.699997,25.76,-26.880001,1729417606866.0,0.0
-2.261217,-5.333601,-2.842674,-77.419998,-31.15,-26.880001,1729417606887.0,0.0
-1.639083,-4.491328,-2.160719,-86.730003,-131.740005,-10.78,1729417606906.0,0.0
-1.806581,-6.987042,-14.981462,-162.259995,-135.869995,-15.190001,1729417606926.0,0.0
-5.491528,-14.249258,-12.780065,-159.460007,-20.16,-41.860001,1729417606946.0,0.0
-8.906086,-15.187245,-19.432112,-120.190002,105.769997,-38.57,1729417606966.0,0.0
-0.940379,-6.417551,-10.509278,13.58,23.73,15.190001,1729417606985.0,0.0
1.813759,-5.905487,-8.362915,49.0,-39.34,26.389999,1729417607007.0,0.0
-0.70349,-10.313066,-7.147361,25.059999,76.370003,4.69,1729417607025.0,0.0
-2.411965,-11.437693,-5.54417,86.169998,164.149994,-31.85,1729417607045.0,0.0
-3.424129,-0.232104,4.141976,46.130001,71.540001,0.35,1729417607065.0,0.0
-2.237289,-1.579263,3.651447,44.799999,-20.719999,5.67,1729417607085.0,0.0
0.78006,-3.091527,-3.864408,-55.510002,-48.93,-41.439999,1729417607105.0,0.0
-0.674776,-7.140182,-3.955336,-54.110001,-72.099998,-8.75,1729417607126.0,0.0
-0.562313,-5.32403,-6.675975,-84.209999,-96.32,-43.959999,1729417607146.0,0.0
-1.65344,-2.182254,-7.271788,-66.080002,-88.199997,-5.95,1729417607168.0,0.0
-5.166104,-6.884151,-19.685753,-38.920002,-0.14,39.619999,1729417607185.0,0.0
-8.590233,-11.119448,-18.367306,-78.120003,134.119995,25.34,1729417607204.0,0.0
-7.128219,-13.615161,-10.746166,-83.230003,72.870003,17.360001,1729417607225.0,0.0
-1.708475,-10.25803,-9.585647,56.279999,0.7,39.48,1729417607246.0,0.0
0.969093,-7.728817,-8.843873,120.470001,15.54,33.529999,1729417607266.0,0.0
0.411566,-8.020741,-4.776074,115.080002,86.449997,16.17,1729417607287.0,0.0
-2.0004,-5.62074,6.735795,83.160004,90.440002,1.4,1729417607306.0,0.0
-0.899701,-0.425922,1.119841,-5.6,-28.77,-5.81,1729417607325.0,0.0
0.519243,-4.713861,-5.429315,-45.080002,-80.779999,-43.470001,1729417607346.0,0.0
-0.734596,-5.32403,-2.163112,-98.07,-100.169998,-37.799999,1729417607365.0,0.0
-0.631705,-4.931608,-5.414958,-81.059998,-120.610001,-44.170002,1729417607384.0,0.0
-2.524428,-5.158926,-15.58924,-43.889999,-88.059998,8.54,1729417607405.0,0.0
-5.948557,-6.704689,-16.173088,-91.139999,-88.059998,9.1,1729417607425.0,0.0
-7.73121,-10.963913,-19.209579,-163.380005,77.07,-2.94,1729417607445.0,0.0
-5.398208,-12.933208,-11.296515,-74.760002,35.420002,7.07,1729417607518.0,0.0
-1.51705,-9.422935,-6.570691,101.290001,4.62,37.380001,1729417607518.0,0.0
-0.217747,-4.98425,-5.151747,151.899994,14.42,38.920002,1729417607518.0,0.0
-0.928415,-2.299503,-0.452243,98.209999,43.470001,23.1,1729417607534.0,0.0
-2.634498,-4.934,3.192025,-15.05,43.610001,2.31,1729417607554.0,0.0
-3.098706,-8.176274,-1.854438,-111.370003,18.690001,-32.130001,1729417607567.0,0.0
-2.514857,-8.587841,-6.848258,-118.93,-24.639999,-45.080002,1729417607583.0,0.0
-1.328017,-4.192225,-7.121039,-102.410004,-79.099998,-33.670002,1729417607605.0,0.0
0.39003,-0.081356,-12.385249,-150.360001,-81.129997,-46.549999,1729417607633.0,0.0
0.547956,-4.350152,-14.368899,-227.080002,-60.619999,-67.480003,1729417607646.0,0.0
-0.818345,-5.35753,-8.492127,-183.399994,-26.880001,-51.099998,1729417607664.0,0.0
-5.965307,-3.845266,-6.367301,-88.690002,36.75,-27.58,1729417607684.0,0.0
-8.563912,-2.026721,-15.371492,-61.18,73.290001,-52.990002,1729417607704.0,0.0
-7.673782,-1.648655,-15.68256,-51.170002,19.879999,-7.63,1729417607725.0,0.0
-3.141776,-3.869194,-10.41835,-10.92,-19.6,17.710001,1729417607746.0,0.0
-0.162712,-2.761317,-10.612168,29.120001,-4.62,46.200001,1729417607766.0,0.0
-0.256032,-1.39023,-7.74796,60.970001,36.610001,70.980003,1729417607785.0,0.0
-1.79701,-5.627919,-5.230711,25.969999,52.360001,52.57,1729417607804.0,0.0
-1.787439,-10.375278,-3.905087,-22.33,18.48,8.54,1729417607824.0,0.0
-0.011964,-12.086146,-4.74736,-32.27,-38.5,-21.49,1729417607845.0,0.0
0.993021,-10.329816,-4.941179,9.45,-57.75,-46.48,1729417607865.0,0.0
-0.490529,-6.74776,-5.606383,22.049999,-24.92,-86.309998,1729417607884.0,0.0
-2.411965,-4.268795,-6.262017,1.05,-21.0,-117.040001,1729417607905.0,0.0
-2.995814,-1.569692,-8.623734,-52.150002,-77.139999,-142.800003,1729417607924.0,0.0
-1.964507,3.235096,-16.060625,-96.669998,-74.410004,-119.209999,1729417607945.0,0.0
-2.237289,6.185446,-20.422741,-4.55,-22.4,-27.16,1729417607966.0,0.0
-5.630312,0.512064,-10.236496,82.879997,74.199997,58.310001,1729417607984.0,0.0
-3.909872,-3.23031,-8.334201,30.17,45.5,55.790001,1729417608004.0,0.0
-1.682154,-0.81356,-8.575876,40.459999,16.66,108.360001,1729417608025.0,0.0
-1.148555,-3.491128,-6.171089,51.170002,28.210001,107.449997,1729417608045.0,0.0
-4.661219,-8.788837,-3.091527,-35.560001,78.470001,92.959999,1729417608067.0,0.0
-5.197211,-15.651453,-3.034099,-80.5,34.509998,9.1,1729417608085.0,0.0
-1.205983,-14.299508,-5.206782,-58.029999,-86.940002,-29.540001,1729417608106.0,0.0
0.89013,-8.123632,-7.180861,34.02,-93.519997,-38.639999,1729417608124.0,0.0
-1.184447,-1.959722,-10.224532,16.1,-17.92,-70.980003,1729417608152.0,0.0
-4.331009,-0.349352,-11.076375,-26.67,0.98,-92.82,1729417608172.0,0.0
-3.299703,2.318645,-11.822936,-98.629997,-59.010002,-97.580002,1729417608186.0,0.0
-0.734596,3.206382,-16.321442,-47.880001,-72.099998,-40.110001,1729417608257.0,0.0
-2.481357,0.567099,-12.835101,70.07,18.34,55.23,1729417608259.0,0.0
-4.386044,-2.35693,-7.365108,85.260002,63.420002,83.370003,1729417608260.0,0.0
-3.376273,-3.538985,-9.750752,37.939999,21.98,81.550003,1729417608265.0,0.0
-1.038485,-4.4339,-8.276773,83.720001,-3.43,109.199997,1729417608283.0,0.0
-3.287738,-9.032906,-4.046263,25.76,46.34,77.279999,1729417608304.0,0.0
-3.878766,-12.887742,-4.211368,-6.09,11.13,12.6,1729417608325.0,0.0
-1.672583,-8.468199,-7.034898,1.68,-54.040001,-16.73,1729417608346.0,0.0
-1.61037,-4.007978,-8.207381,30.870001,-38.5,-22.190001,1729417608364.0,0.0
-3.385844,-3.306881,-9.590433,-15.12,-7.42,-55.299999,1729417608384.0,0.0
-3.448057,-3.371487,-11.243874,-78.68,-49.700001,-92.540001,1729417608404.0,0.0
-1.507478,0.806381,-11.643474,-93.870003,-78.959999,-84.699997,1729417608425.0,0.0
-1.241875,4.737789,-15.007784,4.9,-29.960001,-21.559999,1729417608445.0,0.0
-5.513064,2.517249,-10.631311,113.889999,71.190002,75.949997,1729417608465.0,0.0
-7.9681,-3.828516,-7.67139,41.439999,83.230003,72.940002,1729417608484.0,0.0
-4.936393,-5.982057,-8.894121,9.24,10.92,75.389999,1729417608505.0,0.0
-1.055235,-4.302295,-9.829715,65.800003,-22.4,101.919998,1729417608525.0,0.0
-1.995614,-7.192825,-4.302295,76.860001,26.25,85.889999,1729417608545.0,0.0
-4.979464,-10.279566,-3.974478,1.89,66.010002,41.369999,1729417608565.0,0.0
-3.919443,-11.215159,-4.929214,-25.48,-10.15,-19.6,1729417608584.0,0.0
-1.272982,-6.087341,-9.24826,3.99,-44.66,-43.540001,1729417608604.0,0.0
-2.519642,-4.575077,-9.363115,-22.190001,-5.46,-67.970001,1729417608625.0,0.0
-3.259024,-5.309673,-9.253045,-45.220001,-15.54,-96.32,1729417608645.0,0.0
-2.019542,-2.196611,-11.291731,-73.639999,-50.189999,-100.239998,1729417608665.0,0.0
-1.208375,4.826324,-12.753745,-66.010002,-44.380001,-79.449997,1729417608685.0,0.0
-3.61077,3.775874,-13.186846,37.52,42.700001,6.16,1729417608704.0,0.0
-6.355337,-3.739982,-7.288538,52.150002,80.43,46.619999,1729417608726.0,0.0
-5.412565,-4.642076,-9.492328,20.440001,38.220001,57.119999,1729417608746.0,0.0
-2.773281,-1.636691,-9.987641,61.880001,6.65,89.040001,1729417608767.0,0.0
-3.058028,-4.888536,-6.254838,79.169998,36.82,94.43,1729417608786.0,0.0
-5.501099,-9.836893,-2.234896,25.27,66.290001,67.480003,1729417608806.0,0.0
-4.838287,-12.583855,-2.816352,-34.02,14.35,1.61,1729417608827.0,0.0
-1.40698,-9.123833,-7.501499,-27.51,-57.540001,-31.780001,1729417608847.0,0.0
-0.588634,-5.663811,-9.085547,27.440001,-42.0,-31.780001,1729417608872.0,0.0
-2.852244,-5.484349,-7.858029,-1.12,6.93,-55.580002,1729417608887.0,0.0
-1.801795,-5.568098,-10.085747,-61.880001,-55.580002,-105.07,1729417608908.0,0.0
-0.107677,-2.371287,-12.086146,-64.889999,-92.68,-108.5,1729417608927.0,0.0
-1.4668,-0.12682,-11.514263,-40.670002,-41.369999,-90.93,1729417608949.0,0.0
-3.61077,-1.902294,-11.301301,58.799999,36.82,-56.84,1729417608968.0,0.0
-5.259424,-2.017149,-10.506885,134.470001,51.029999,10.85,1729417608986.0,0.0
-4.23051,-3.711268,-7.499106,171.149994,2.8,37.52,1729417609006.0,0.0
-2.29711,-6.233303,-6.319445,154.910004,-30.309999,30.66,1729417609027.0,0.0
-1.557728,-8.453842,-8.080563,161.770004,-22.610001,32.060001,1729417609052.0,0.0
-2.146362,-9.602397,-8.181061,255.710007,-0.91,40.389999,1729417609067.0,0.0
-3.402594,-7.860423,-9.372685,407.959991,27.65,59.779999,1729417609086.0,0.0
-3.833302,-5.941379,-8.161918,457.23999,53.619999,40.040001,1729417609107.0,0.0
-9.085547,-7.932207,7.243074,238.910004,42.349998,23.52,1729417609127.0,0.0
-4.912465,-2.48375,-2.644069,-134.259995,-8.96,-47.389999,1729417609147.0,0.0
-1.189233,-12.260822,-12.619746,-98.419998,31.290001,-19.950001,1729417609172.0,0.0
-1.897508,-12.272788,-8.827123,0.56,19.040001,7.28,1729417609186.0,0.0
-2.909672,-8.336594,-10.246067,87.989998,140.070007,24.57,1729417609207.0,0.0
-4.302295,-5.632704,-3.474378,90.510002,139.160004,15.61,1729417609227.0,0.0
-3.345166,-7.45125,0.866202,17.710001,68.739998,11.55,1729417609247.0,0.0
-2.160719,-9.339187,0.356531,-13.79,32.549999,8.47,1729417609267.0,0.0
-0.394816,-5.919843,4.491328,11.62,23.379999,10.29,1729417609287.0,0.0
-1.667797,-2.897708,8.463413,29.4,-27.93,39.060001,1729417609307.0,0.0
-2.868994,-4.809574,2.069792,-58.799999,-5.32,13.16,1729417609326.0,0.0
-1.909473,-7.862815,-6.680761,-172.550003,16.309999,-43.82,1729417609347.0,0.0
-3.273381,-9.932607,-12.722638,-166.039993,-130.899994,-17.639999,1729417609368.0,0.0
-5.063213,-12.246466,-13.450057,-64.050003,-94.57,-15.68,1729417609387.0,0.0
-5.855237,-13.296914,-17.790636,41.580002,91.840004,-25.34,1729417609406.0,0.0
-5.345565,-8.755339,-9.367901,74.199997,50.75,23.73,1729417609427.0,0.0
-1.634298,-6.254838,-8.525627,62.09,30.309999,22.960001,1729417609448.0,0.0
-0.234497,-6.647261,-5.508278,54.389999,51.240002,14.35,1729417609467.0,0.0
-0.208176,-6.642475,-1.351945,25.969999,94.360001,13.23,1729417609486.0,0.0
-2.57707,-4.790431,11.454442,5.25,68.529999,20.58,1729417609506.0,0.0
-3.23031,-6.912865,9.169296,-42.77,-30.73,18.41,1729417609530.0,0.0
-2.579463,-8.178668,1.59362,-118.020004,-17.5,-25.620001,1729417609548.0,0.0
-1.024128,-5.726025,-7.640282,-128.940002,-70.209999,-51.310001,1729417609566.0,0.0
-0.574277,-2.433501,-10.837094,-25.549999,-178.990005,-15.61,1729417609586.0,0.0
-4.144369,-7.793423,-9.973285,34.720001,-109.340004,17.639999,1729417609606.0,0.0
-7.932207,-10.750952,-18.831514,-74.269997,72.449997,6.3,1729417609632.0,0.0
-8.611769,-11.346765,-14.282759,-140.279999,60.549999,5.25,1729417609652.0,0.0
-3.811767,-10.451849,-8.913264,-28.700001,-12.46,29.68,1729417609667.0,0.0
-1.332802,-8.066205,-8.975478,60.060001,8.4,32.970001,1729417609686.0,0.0
-1.875973,-6.972685,-6.297909,50.189999,62.16,12.46,1729417609707.0,0.0
-3.558127,-7.113862,-4.474578,9.94,111.580002,1.47,1729417609728.0,0.0
-4.228118,-8.324631,-0.973879,19.32,82.739998,-0.63,1729417609750.0,0.0
-3.254239,-4.31426,3.354738,41.369999,-3.92,19.18,1729417609767.0,0.0
-2.120041,-1.85683,2.096112,38.709999,-52.920002,27.860001,1729417609789.0,0.0
-1.974079,-3.084348,-2.586641,-66.639999,-31.360001,-6.51,1729417609806.0,0.0
-1.277767,-7.915457,-10.29153,-154.770004,-23.1,-49.77,1729417609826.0,0.0
-1.701297,-10.167104,-4.969893,-111.230003,-106.260002,-27.65,1729417609850.0,0.0
-1.624727,-7.9346,-3.912265,-49.420002,-122.57,-1.12,1729417609868.0,0.0
-2.536392,-6.58744,-13.677374,-62.369999,-65.239998,-18.48,1729417609887.0,0.0
-7.972885,-15.20878,-16.00559,-33.389999,81.199997,-17.57,1729417609906.0,0.0
-5.807381,-12.500106,-11.511869,70.629997,27.16,10.5,1729417609926.0,0.0
-1.531406,-5.008178,-10.059426,178.220001,-7.28,26.460001,1729417609947.0,0.0
-0.378066,-1.847259,-6.848258,175.490005,15.68,25.41,1729417609966.0,0.0
-1.07677,-4.240082,-4.311867,99.889999,72.449997,2.17,1729417609986.0,0.0
-3.058028,-6.06102,1.009771,65.870003,95.480003,-0.56,1729417610007.0,0.0
-5.237889,-5.199604,4.21376,106.260002,39.130001,37.59,1729417610026.0,0.0
-3.787838,-7.228717,-1.256232,113.82,12.32,16.940001,1729417610047.0,0.0
-3.634698,-6.393622,-4.898108,41.93,8.89,14.0,1729417610067.0,0.0
-2.210968,-7.74796,-5.47717,90.440002,-33.950001,28.630001,1729417610086.0,0.0
-0.40678,-11.181661,-4.675575,184.309998,-58.52,34.02,1729417610106.0,0.0
-1.648655,-10.834702,-4.208975,175.630005,-25.620001,46.549999,1729417610127.0,0.0
-3.555735,-8.781659,-5.070391,66.989998,54.25,12.81,1729417610147.0,0.0
-5.508278,-7.941778,-3.431308,-1.4,74.269997,12.67,1729417610170.0,0.0
-5.438886,-8.870193,-3.175276,3.01,27.370001,11.34,1729417610192.0,0.0
-4.024727,-9.674182,-3.002992,4.2,-19.460001,-2.59,1729417610205.0,0.0
-2.706282,-10.368099,-0.681954,-7.49,-39.130001,-14.49,1729417610227.0,0.0
-2.632105,-9.79143,-2.603391,-33.740002,-29.26,-19.74,1729417610246.0,0.0
-3.132205,-8.760124,-4.883751,-46.48,-11.27,-21.139999,1729417610266.0,0.0
-3.962514,-7.738388,-4.972286,-70.0,-3.36,-26.389999,1729417610285.0,0.0
-4.498507,-7.716853,-2.902494,-100.449997,-10.57,-23.59,1729417610306.0,0.0
-4.141976,-8.214561,-4.692325,-114.169998,-37.099998,-26.18,1729417610326.0,0.0
-3.591627,-7.881958,-4.63729,-104.860001,-44.799999,-37.939999,1729417610346.0,0.0
-3.512664,-6.427122,-5.180461,-149.800003,-43.540001,-46.27,1729417610367.0,0.0
-3.742374,-5.529813,-6.589834,-231.559998,-40.040001,-61.459999,1729417610386.0,0.0
-3.859623,-7.960921,-8.630912,-250.460007,-26.880001,-66.43,1729417610408.0,0.0
-3.524628,-7.45125,-7.920243,-230.509995,-31.360001,-68.389999,1729417610428.0,0.0
-3.002992,-6.130411,-6.271588,-175.979996,-30.309999,-52.639999,1729417610448.0,0.0
-2.699104,-5.855237,-5.379066,-139.649994,-24.92,-49.279999,1729417610468.0,0.0
-3.110669,-4.893322,-7.037291,-159.669998,-14.56,-52.43,1729417610487.0,0.0
-3.069991,-4.208975,-9.525827,-169.539993,-6.51,-58.66,1729417610507.0,0.0
-3.022135,-6.752545,-7.278966,-97.230003,-10.57,-40.32,1729417610527.0,0.0
-2.299503,-5.656632,-7.628319,-71.959999,-32.759998,-34.720001,1729417610552.0,0.0
-2.634498,-4.615755,-7.771888,-71.260002,-27.23,-34.299999,1729417610569.0,0.0
-3.227918,-5.149354,-10.090532,-80.639999,1.68,-42.07,1729417610587.0,0.0
-3.629912,-5.721239,-10.133603,-70.279999,10.36,-38.779999,1729417610609.0,0.0
-3.574877,-4.228118,-7.578069,-52.57,-13.09,-26.460001,1729417610628.0,0.0
-2.993421,-2.440679,-7.877172,-65.029999,-21.77,-26.25,1729417610648.0,0.0
-3.292524,-5.338387,-9.32483,-60.689999,0.77,-20.51,1729417610670.0,0.0
-3.220739,-7.195218,-9.987641,-43.82,12.53,-20.16,1729417610688.0,0.0
-2.388037,-3.361916,-7.712067,-35.07,0.84,-10.22,1729417610708.0,0.0
-1.959722,-0.172283,-6.199803,-39.060001,-10.71,6.58,1729417610729.0,0.0
-2.68714,-3.17049,-9.181261,-80.080002,22.889999,-12.25,1729417610749.0,0.0
-3.524628,-3.806981,-10.219746,-85.260002,11.48,-20.09,1729417610768.0,0.0
-3.323631,-1.091127,-11.598011,-78.260002,-6.58,-1.89,1729417610788.0,0.0
-3.742374,-1.165305,-11.990433,-88.830002,-12.67,-12.81,1729417610808.0,0.0
-2.646462,-2.177469,-9.008978,-72.379997,-21.49,-10.92,1729417610829.0,0.0
-2.344966,-2.103291,-6.197411,-87.080002,4.2,-19.530001,1729417610850.0,0.0
-1.548156,-2.651247,-9.767502,-81.830002,24.639999,-16.309999,1729417610869.0,0.0
-1.844866,0.5001,-10.126426,-77.840004,-0.84,-2.17,1729417610888.0,0.0
-0.648455,-2.325824,-12.957134,-44.799999,11.48,-13.79,1729417610912.0,0.0
-1.265803,-2.725425,-11.509477,-12.04,19.74,4.27,1729417610929.0,0.0
-1.529014,-3.019742,-8.465806,-8.47,11.55,8.75,1729417610949.0,0.0
-0.815953,-3.811767,-8.25763,-15.96,-1.26,4.2,1729417610968.0,0.0
-1.713261,-1.67019,-8.915657,-15.82,6.09,5.53,1729417610988.0,0.0
-3.103491,-0.18664,-10.406385,-27.719999,14.98,8.96,1729417611007.0,0.0
-2.699104,-1.67019,-12.047862,-30.030001,1.89,6.51,1729417611028.0,0.0
-3.110669,-3.225525,-10.372886,-10.36,-13.16,8.61,1729417611048.0,0.0
-3.089134,-0.674776,-8.008778,15.05,-20.93,12.11,1729417611068.0,0.0
-3.407379,-1.490728,-7.161718,32.619999,-19.32,-0.14,1729417611088.0,0.0
-3.354738,-0.937986,-9.336794,51.170002,-1.12,0.91,1729417611108.0,0.0
-3.61077,-2.012364,-11.200804,67.690002,-0.28,14.28,1729417611128.0,0.0
-3.775874,-4.675575,-10.880164,74.620003,-9.31,10.78,1729417611148.0,0.0
-2.98385,1.885544,-7.467999,108.639999,-4.83,53.41,1729417611173.0,0.0
-1.691726,1.009771,-8.575876,91.419998,-11.06,36.610001,1729417611188.0,0.0
-2.050649,-2.854637,-9.535398,51.59,-11.27,25.76,1729417611208.0,0.0
-2.244468,-5.4341,-10.133603,30.450001,-3.57,9.87,1729417611228.0,0.0
-1.974079,-4.479364,-11.413764,62.860001,-9.31,19.32,1729417611250.0,0.0
-1.481157,-3.07717,-12.299109,60.41,-14.14,8.47,1729417611269.0,0.0
-1.811367,-2.916851,-11.215159,38.709999,-0.77,-5.18,1729417611288.0,0.0
-2.500499,-3.110669,-9.06162,35.07,2.31,-3.78,1729417611308.0,0.0
-2.706282,-3.062813,-7.367501,40.18,-10.43,3.36,1729417611328.0,0.0
-3.091527,-1.481157,-6.037091,47.25,-21.280001,11.83,1729417611351.0,0.0
-3.541377,-2.108077,-6.226124,68.949997,-4.2,9.1,1729417611369.0,0.0
-4.084548,-2.56032,-6.702296,71.260002,25.690001,-9.52,1729417611389.0,0.0
-4.536791,-2.266003,-6.372087,7.84,17.99,-5.95,1729417611407.0,0.0
-3.022135,-2.608176,-5.74756,-71.82,-20.370001,-13.72,1729417611428.0,0.0
-1.294517,-4.622933,-8.30788,-93.169998,-43.540001,-14.7,1729417611451.0,0.0
-0.320638,-5.168497,-12.825529,-113.260002,-27.860001,-33.110001,1729417611468.0,0.0
-1.998007,-5.807381,-11.64826,-118.090004,7.28,-27.51,1729417611488.0,0.0
-2.359323,-0.787239,-10.41835,-36.540001,15.47,-27.58,1729417611508.0,0.0
-3.26381,0.894916,-11.822936,-50.470001,21.77,-12.18,1729417611529.0,0.0
-3.615555,-3.270989,-11.789437,-98.559998,30.52,-42.07,1729417611552.0,0.0
-4.063013,-5.395815,-8.066205,-112.629997,25.129999,-37.52,1729417611568.0,0.0
-3.964907,-6.266802,-6.805188,-46.060001,13.93,-19.879999,1729417611587.0,0.0
-3.503092,0.055035,-8.176274,7.49,15.4,5.32,1729417611607.0,0.0
-4.900501,1.182054,-8.927622,1.54,16.17,-1.26,1729417611630.0,0.0
-4.371687,-0.543171,-10.289137,-20.23,2.17,-0.14,1729417611648.0,0.0
-2.155933,-2.210968,-9.614362,-18.48,-23.799999,3.08,1729417611668.0,0.0
-2.065006,-2.550749,-10.114462,-27.370001,-0.49,-3.78,1729417611689.0,0.0
-1.98365,-2.079363,-10.317852,-13.23,4.83,-3.57,1729417611708.0,0.0
-1.454836,-2.498107,-10.30828,4.55,3.99,-8.05,1729417611727.0,0.0
-1.799403,-2.737389,-8.669197,3.29,-0.84,-11.69,1729417611750.0,0.0
-2.124826,-2.837888,-8.829515,-10.92,0.35,-15.05,1729417611768.0,0.0
-2.134398,-3.160919,-11.3683,-5.95,5.95,-6.72,1729417611788.0,0.0
-2.897708,-1.249053,-12.349358,21.280001,20.440001,12.25,1729417611808.0,0.0
-2.861816,-1.119841,-10.975878,38.709999,24.01,24.639999,1729417611828.0,0.0
-3.069991,-1.969293,-8.913264,17.43,15.61,17.290001,1729417611849.0,0.0
-2.78046,-2.048256,-8.348558,10.08,18.9,13.51,1729417611869.0,0.0
-2.244468,-2.471786,-8.688338,5.95,9.45,9.03,1729417611887.0,0.0
-1.591227,-2.201397,-9.38465,-3.01,13.79,2.66,1729417611908.0,0.0
-1.191626,-2.115255,-9.140583,10.22,4.97,7.7,1729417611928.0,0.0
-2.124826,-2.48375,-7.506285,6.58,10.99,-1.05,1729417611948.0,0.0
-2.091327,-2.871387,-7.9011,4.76,2.03,-1.89,1729417611968.0,0.0
-1.395016,-2.285146,-9.138189,11.48,-9.73,2.31,1729417611989.0,0.0
-2.084148,-2.184647,-10.162319,2.66,-2.66,-6.3,1729417612009.0,0.0
-3.773481,-3.122634,-9.154939,-12.67,1.19,-20.719999,1729417612028.0,0.0
-3.084348,-1.244268,-10.334601,-17.01,7.77,-26.389999,1729417612049.0,0.0
-0.861416,-0.39003,-10.281959,8.54,-15.82,-15.33,1729417612068.0,0.0
-0.59342,-0.655633,-9.79143,-17.780001,-9.66,-26.950001,1729417612087.0,0.0
-1.284946,-0.547956,-9.461221,-30.940001,14.42,-27.02,1729417612107.0,0.0
-2.553142,-5.115855,-9.236296,-13.37,-9.45,-26.530001,1729417612128.0,0.0
-4.182654,-4.536791,-9.762716,-39.619999,5.46,-40.670002,1729417612148.0,0.0
-6.065805,3.536592,-10.145569,27.09,20.02,13.58,1729417612172.0,0.0
-6.262017,0.734596,-7.491928,48.790001,33.040001,23.73,1729417612187.0,0.0
-2.900101,-2.935993,-8.547162,-3.01,-9.87,15.75,1729417612207.0,0.0
-0.705883,-4.563113,-11.129018,-18.200001,-11.69,19.809999,1729417612235.0,0.0
-0.90688,-1.988436,-11.619547,3.57,14.84,20.02,1729417612260.0,0.0
-1.957329,0.153141,-9.915856,26.880001,19.6,29.889999,1729417612268.0,0.0
-1.933401,-1.213161,-8.640482,11.62,-14.49,17.780001,1729417612288.0,0.0
-1.679761,-4.692325,-10.822738,-32.549999,-25.549999,-2.73,1729417612309.0,0.0
-3.306881,-4.962714,-6.661618,-29.75,3.78,10.15,1729417612328.0,0.0
-2.100898,-1.304088,-8.874979,-0.21,-22.33,22.540001,1729417612361.0,0.0
-0.028714,0.583849,-9.88475,13.02,-40.740002,18.48,1729417612369.0,0.0
-2.414358,-2.28036,-9.619147,-16.59,-12.11,18.48,1729417612388.0,0.0
-4.015156,-3.871587,-8.370094,4.83,24.01,13.16,1729417612408.0,0.0
-1.87358,-2.775674,-9.796216,21.84,-25.34,17.85,1729417612428.0,0.0
-1.20359,-4.804788,-10.202995,3.99,-26.67,6.65,1729417612526.0,0.0
-3.184847,-2.426322,-9.504292,55.299999,26.25,20.860001,1729417612527.0,0.0
-4.04387,-0.751346,-9.422935,126.559998,24.15,42.139999,1729417612527.0,0.0
-4.558327,-2.656033,-8.130811,138.180008,12.95,42.91,1729417612532.0,0.0
-3.897908,-5.539384,-8.786445,170.800003,-1.33,43.75,1729417612533.0,0.0
-1.741975,-4.041477,-10.80838,223.160004,-51.939999,53.760002,1729417612550.0,0.0
0.971486,-1.95015,-12.294323,216.300003,-114.379997,51.66,1729417612569.0,0.0
2.014757,-2.012364,-8.216952,143.850006,-134.610001,45.990002,1729417612588.0,0.0
-0.095713,-4.185047,-2.337788,79.169998,-107.239998,51.170002,1729417612608.0,0.0
-1.4668,-4.56072,-3.680161,68.040001,-2.1,26.67,1729417612629.0,0.0
-1.844866,-3.215954,-11.20798,-1.26,72.239998,4.06,1729417612649.0,0.0
-4.208975,-4.192225,-10.097712,-81.550003,63.139999,6.86,1729417612670.0,0.0
-4.024727,-6.826723,-8.953942,-130.059998,41.299999,-15.26,1729417612690.0,0.0
-4.15394,-6.726225,-6.393622,-137.199997,39.48,-37.240002,1729417612710.0,0.0
-6.802795,-4.431508,-3.895515,-164.850006,48.02,-53.060001,1729417612730.0,0.0
-8.12124,-8.051848,-13.39502,-168.419998,44.380001,-52.57,1729417612751.0,0.0
-4.752146,-3.031706,-14.136796,6.93,2.59,-31.85,1729417612771.0,0.0
-3.141776,-0.535992,-10.643275,33.810001,-38.849998,39.48,1729417612789.0,0.0
-3.326023,-3.960121,-6.69751,6.02,4.2,7.07,1729417612810.0,0.0
-3.806981,-4.455436,-8.571091,-11.41,38.57,-25.969999,1729417612830.0,0.0
-4.338188,-1.701297,-6.850651,0.56,14.56,-19.74,1729417612852.0,0.0
-3.273381,-4.242475,-12.425928,-18.690001,-15.190001,-29.4,1729417612870.0,0.0
-1.57687,-5.429315,-12.490535,-25.34,-23.17,-48.02,1729417612890.0,0.0
-2.067399,-3.914658,-7.338787,26.530001,-27.09,-2.45,1729417612910.0,0.0
-2.045863,-1.67019,-7.905886,55.860001,-18.9,-3.85,1729417612930.0,0.0
-2.440679,-2.165504,-9.131011,31.99,1.47,-14.07,1729417612955.0,0.0
-2.792424,-3.993621,-9.705289,-15.26,-1.54,-33.389999,1729417612970.0,0.0
-3.254239,-6.484549,-7.858029,-32.27,-15.54,-38.360001,1729417612990.0,0.0
-1.90708,-4.778467,-10.375278,-21.77,-25.969999,-49.77,1729417613011.0,0.0
-2.718246,-1.892723,-7.661818,36.189999,-21.139999,-25.969999,1729417613030.0,0.0
-3.627519,-1.605584,-7.276574,44.380001,-14.98,-18.059999,1729417613051.0,0.0
-3.436093,-3.132205,-8.26481,0.7,-12.53,-36.259998,1729417613070.0,0.0
-4.931608,-1.596013,-8.965906,19.809999,6.51,-7.0,1729417613089.0,0.0
-5.288138,-2.09372,-6.805188,-8.12,-10.29,-3.64,1729417613109.0,0.0
-4.041477,-3.531806,-6.343372,-25.129999,-41.720001,-1.12,1729417613130.0,0.0
-2.536392,-2.371287,-7.195218,-3.01,-40.18,1.68,1729417613151.0,0.0
-2.792424,-1.335195,-11.703296,-21.629999,13.02,14.28,1729417613174.0,0.0
-3.943372,-2.148755,-11.748759,-70.769997,46.41,-3.01,1729417613190.0,0.0
-3.859623,-5.436492,-10.851451,-71.400002,40.880001,10.57,1729417613210.0,0.0
-1.909473,-5.312066,-10.442278,-66.779999,3.5,6.37,1729417613230.0,0.0
-0.653241,-2.847459,-12.708281,-39.619999,11.2,22.120001,1729417613250.0,0.0
-1.619941,-3.907479,-10.595419,40.599998,44.52,37.799999,1729417613270.0,0.0
-3.488736,-0.004786,-7.664211,63.0,80.43,70.349998,1729417613289.0,0.0
-4.883751,-3.708875,-5.190032,42.139999,44.66,53.549999,1729417613310.0,0.0
-3.0006,-5.938986,-5.046463,-28.98,3.22,10.15,1729417613329.0,0.0
-0.574277,-9.504292,-7.633104,-41.439999,-49.700001,-2.8,1729417613352.0,0.0
-0.007178,-12.14836,-12.289536,-9.94,-37.52,-36.330002,1729417613370.0,0.0
-1.545763,-6.833901,-11.894722,61.950001,34.580002,-28.700001,1729417613389.0,0.0
-3.852444,0.526421,-7.178468,132.580002,61.32,28.0,1729417613409.0,0.0
-3.759124,-2.658426,-9.013763,77.980003,4.34,-6.93,1729417613430.0,0.0
-2.761317,-5.929415,-9.657433,38.849998,-7.35,-18.690001,1729417613450.0,0.0
-2.086541,-8.006385,-11.016556,47.389999,-18.41,-11.2,1729417613471.0,0.0
-2.06022,-6.369694,-7.89153,37.310001,-23.52,-21.35,1729417613490.0,0.0
-2.866602,-1.775474,-7.121039,39.549999,-21.77,-10.22,1729417613509.0,0.0
-2.641676,-1.371087,-8.762517,110.040001,-23.379999,-1.68,1729417613530.0,0.0
-2.988636,1.103091,-10.207782,92.540001,-13.51,10.01,1729417613551.0,0.0
-4.584648,-2.57707,-8.078169,90.019997,18.34,32.970001,1729417613570.0,0.0
-3.895515,-7.367501,-7.386643,73.57,-2.87,6.16,1729417613588.0,0.0
-2.883351,-7.640282,-6.699903,93.870003,-31.85,8.05,1729417613610.0,0.0
-2.548356,-5.460421,-5.970093,137.410004,-35.349998,2.87,1729417613630.0,0.0
-3.869194,-5.221139,-5.532206,143.360001,-21.35,2.38,1729417613650.0,0.0
-5.300103,-6.67119,-7.690532,108.080002,-17.15,-4.2,1729417613671.0,0.0
-4.252046,-8.102098,-7.558927,104.860001,-53.48,-2.87,1729417613691.0,0.0
-2.656033,-7.563712,-7.125826,130.199997,-72.029999,16.66,1729417613709.0,0.0
-3.002992,-5.371887,-6.606583,116.129997,-38.009998,6.23,1729417613730.0,0.0
-4.048656,-7.089933,-6.058627,35.209999,-10.01,-5.32,1729417613751.0,0.0
-3.383451,-7.551748,-5.582455,14.35,6.79,1.82,1729417613769.0,0.0
-2.969493,-5.718846,-6.563512,-32.900002,46.34,-12.53,1729417613790.0,0.0
-3.598805,-5.838487,-6.369694,-133.139999,74.199997,-26.460001,1729417613809.0,0.0
-3.811767,-7.611568,-5.814559,-204.610001,57.119999,-25.48,1729417613830.0,0.0
-2.328217,-8.846266,-7.073184,-198.729996,40.670002,-25.620001,1729417613852.0,0.0
-1.672583,-8.657232,-6.139983,-141.75,36.610001,-16.030001,1729417613870.0,0.0
-2.737389,-6.78126,-4.527221,-102.620003,21.07,-8.89,1729417613889.0,0.0
-3.108276,-7.173682,-5.685347,-68.32,22.540001,-19.040001,1729417613909.0,0.0
-3.505485,-7.958528,-5.788238,-30.59,2.17,-26.950001,1729417613930.0,0.0
-2.87378,-6.431907,-6.541977,-8.47,-13.58,-30.940001,1729417613950.0,0.0
-2.651247,-3.476771,-7.367501,-6.44,-24.85,-16.52,1729417613970.0,0.0
-2.172683,-2.227718,-10.035499,-11.2,-21.700001,-19.530001,1729417613988.0,0.0
-2.189433,-3.041277,-12.916457,7.49,-11.62,-10.22,1729417614009.0,0.0
-3.062813,-4.134798,-10.427922,37.099998,8.82,20.93,1729417614030.0,0.0
-3.957729,-4.792823,-8.4012,-5.88,42.349998,23.52,1729417614050.0,0.0
-3.694518,-6.951149,-7.389036,-55.09,33.32,15.12,1729417614070.0,0.0
-1.122234,-8.755339,-7.893922,-41.650002,-1.89,10.01,1729417614089.0,0.0
-1.083949,-6.491727,-7.795816,48.720001,-10.22,30.030001,1729417614109.0,0.0
-2.744568,-4.342973,-5.955735,54.25,30.17,32.34,1729417614129.0,0.0
-4.948357,-5.556134,-5.431707,8.19,48.509998,20.860001,1729417614150.0,0.0
-4.366901,-6.319445,-6.556334,-44.450001,20.719999,-5.18,1729417614173.0,0.0
-3.201597,-6.479764,-5.948557,-21.91,-30.24,-5.81,1729417614189.0,0.0
-2.096112,-8.006385,-7.735995,19.460001,-44.59,-22.33,1729417614210.0,0.0
-1.591227,-4.515256,-8.413164,-3.43,-31.92,-48.16,1729417614229.0,0.0
-1.942972,-0.526421,-11.064411,-3.36,-28.91,-32.200001,1729417614255.0,0.0
-1.624727,-0.174676,-10.947165,35.0,-23.870001,-5.81,1729417614276.0,0.0
-3.407379,-3.876373,-8.432307,44.52,17.5,25.200001,1729417614288.0,0.0
-4.481757,-2.411965,-8.003991,-40.110001,62.720001,24.99,1729417614309.0,0.0
-4.563113,-5.374279,-9.879964,-116.199997,30.940001,13.16,1729417614331.0,0.0
-2.65364,-9.157332,-10.877771,-117.25,-3.29,1.82,1729417614350.0,0.0
-1.284946,-9.329616,-9.475577,-64.540001,-19.25,14.56,1729417614370.0,0.0
-1.134198,-7.393822,-7.695317,15.47,5.74,22.82,1729417614390.0,0.0
-3.103491,-4.405186,-9.150154,50.75,48.790001,12.88,1729417614409.0,0.0
-3.996014,-5.804988,-5.091926,70.07,34.720001,8.68,1729417614430.0,0.0
-4.079762,-4.086941,-3.103491,21.700001,-17.92,2.24,1729417614451.0,0.0
-3.565305,-3.739982,-6.874579,-32.830002,-38.709999,-16.799999,1729417614471.0,0.0
-2.723032,-2.804388,-7.130611,-50.68,-44.240002,-30.450001,1729417614490.0,0.0
-3.108276,-4.134798,-8.748159,-41.439999,-37.029999,-22.4,1729417614510.0,0.0
-3.67059,-5.505885,-8.281559,-31.43,-18.76,-33.110001,1729417614530.0,0.0
-3.668197,-4.211368,-8.678767,-20.370001,-17.01,-27.790001,1729417614552.0,0.0
-2.105684,-0.684347,-12.047862,-53.060001,-29.4,-37.029999,1729417614571.0,0.0
-2.230111,-2.871387,-11.641083,-69.160004,-14.14,-12.11,1729417614590.0,0.0
-2.091327,-5.879165,-13.69173,-83.580002,15.47,-11.06,1729417614610.0,0.0
-2.725425,-8.513663,-10.846665,-41.369999,25.27,5.67,1729417614631.0,0.0
-2.244468,-7.458428,-10.387242,49.560001,28.630001,24.780001,1729417614651.0,0.0
-2.143969,-4.945964,-9.633504,150.570007,27.370001,42.420002,1729417614671.0,0.0
-2.684747,-3.737589,-5.735595,157.570007,53.41,33.389999,1729417614690.0,0.0
-3.771089,-6.013163,-8.829515,123.129997,66.57,39.549999,1729417614711.0,0.0
-3.010171,-4.981857,-8.51127,177.800003,50.119999,45.57,1729417614730.0,0.0
-3.98405,-6.049056,-3.783052,182.350006,38.009998,57.75,1729417614762.0,0.0
-4.780859,-6.896115,-6.673582,108.43,58.799999,19.389999,1729417614772.0,0.0
-4.366901,-7.269395,-8.664411,84.0,64.82,20.09,1729417614794.0,0.0
-2.553142,-7.049256,-6.594619,117.599998,8.47,35.84,1729417614814.0,0.0
-1.550549,-7.936993,-7.264609,119.629997,25.41,27.440001,1729417614834.0,0.0
-1.612763,-8.523234,-5.54417,67.900002,55.510002,13.3,1729417614853.0,0.0
-1.543371,-7.369894,-3.036492,68.809998,40.880001,23.309999,1729417614874.0,0.0
-1.749153,-4.39083,-0.229711,61.110001,9.03,26.880001,1729417614893.0,0.0
-2.667997,-2.586641,-1.122234,30.24,18.34,20.09,1729417614912.0,0.0
-3.053242,-5.106283,0.875773,-31.219999,-14.0,5.39,1729417614932.0,0.0
-3.031706,-8.551948,-0.232104,-135.169998,-84.0,2.73,1729417614954.0,0.0
-1.871187,-9.473185,-10.671989,-159.039993,-90.720001,-26.460001,1729417614972.0,0.0
-3.397808,-11.765509,-19.357935,-73.220001,-46.619999,-43.889999,1729417614997.0,0.0
-6.530013,-6.800402,-14.718252,85.610001,97.93,2.45,1729417615011.0,0.0
-4.342973,-6.278766,-5.099105,164.360001,4.83,20.860001,1729417615032.0,0.0
-0.870987,-4.189832,-7.082755,62.09,-39.759998,5.74,1729417615055.0,0.0
0.105284,-6.262017,-7.04447,19.389999,-0.98,0.35,1729417615073.0,0.0
-0.885344,-8.551948,-7.245467,25.129999,71.190002,0.35,1729417615092.0,0.0
-1.978864,-6.778866,-4.498507,32.549999,109.550003,6.37,1729417615112.0,0.0
-2.907279,-5.4341,5.4341,51.869999,49.700001,33.040001,1729417615132.0,0.0
-2.931208,-7.889136,4.919643,16.66,-33.459999,28.07,1729417615152.0,0.0
-3.634698,-9.571291,-4.73061,-83.790001,38.43,-21.91,1729417615177.0,0.0
-4.811966,-9.74836,-8.432307,-90.019997,42.0,-34.790001,1729417615192.0,0.0
-2.232504,-6.943972,-6.415157,-29.4,-81.830002,-3.99,1729417615211.0,0.0
0.942772,-3.869194,-5.907879,-5.67,-138.809998,6.58,1729417615234.0,0.0
0.756132,-3.036492,-11.265409,-46.759998,-124.18,-3.01,1729417615253.0,0.0
-0.825524,-5.678168,-17.577675,-54.110001,13.23,-32.759998,1729417615274.0,0.0
-7.542177,-13.13181,-9.090333,44.029999,110.879997,-11.83,1729417615293.0,0.0
-9.410972,-13.476377,-5.024928,96.459999,64.959999,10.08,1729417615311.0,0.0
-1.131805,-6.448657,-5.099105,170.240005,-63.490002,25.27,1729417615332.0,0.0
-0.452243,-6.664011,-6.45105,182.419998,-34.790001,22.26,1729417615352.0,0.0
-1.87358,-7.721639,-6.776474,129.570007,77.980003,-5.6,1729417615373.0,0.0
-3.864408,-9.205189,-6.039484,108.919998,115.639999,0.63,1729417615391.0,0.0
-3.328416,-7.288538,-3.462414,175.490005,52.360001,33.529999,1729417615412.0,0.0
-1.895115,-4.194618,0.162712,241.009995,8.54,59.290001,1729417615431.0,0.0
-1.842474,-3.948158,2.926422,217.699997,2.17,45.290001,1729417615453.0,0.0
-2.088934,-8.013563,1.603191,156.589996,20.09,19.110001,1729417615472.0,0.0
-2.699104,-10.9017,-0.684347,89.599998,22.26,-1.89,1729417615491.0,0.0
-3.608376,-9.611969,-1.816152,86.309998,8.05,17.360001,1729417615513.0,0.0
-3.601198,-9.116654,-3.510271,75.389999,7.91,14.98,1729417615533.0,0.0
-3.335595,-9.47797,-3.333202,53.689999,2.38,6.93,1729417615552.0,0.0
-3.287738,-9.489935,-3.148954,29.610001,11.41,8.47,1729417615573.0,0.0
-3.206382,-8.985049,-1.418944,-5.32,11.13,3.15,1729417615591.0,0.0
-3.464807,-10.281959,1.196411,-34.299999,-12.53,-4.97,1729417615611.0,0.0
-3.696911,-10.899307,2.493321,-72.449997,-36.049999,-19.809999,1729417615631.0,0.0
-4.488935,-11.892329,-0.023928,-78.959999,-22.75,-17.219999,1729417615656.0,0.0
-3.634698,-8.846266,-1.78026,-53.060001,15.54,-12.04,1729417615672.0,0.0
-2.778067,-7.23111,-2.045863,-65.519997,-31.5,-6.16,1729417615691.0,0.0
-2.624927,-8.274381,-3.101098,-122.919998,-37.939999,-25.76,1729417615714.0,0.0
-3.04367,-9.877571,-3.582055,-186.619995,-25.27,-50.82,1729417615733.0,0.0
-3.799802,-9.269794,-2.301895,-228.479996,-37.099998,-52.5,1729417615752.0,0.0
-3.206382,-9.334401,-3.084348,-193.270004,-50.119999,-40.810001,1729417615774.0,0.0
-2.273181,-8.252845,-4.962714,-158.830002,-38.990002,-39.970001,1729417615793.0,0.0
-2.024328,-7.049256,-7.281359,-174.369995,-24.57,-57.82,1729417615811.0,0.0
-2.981457,-6.486942,-5.096712,-235.339996,-15.190001,-75.739998,1729417615832.0,0.0
-3.665804,-8.386844,-4.914857,-270.829987,-4.76,-52.57,1729417615852.0,0.0
-2.505285,-8.535198,-6.281159,-209.160004,-16.379999,-57.540001,1729417615872.0,0.0
-2.433501,-7.200003,-7.37468,-162.119995,-18.129999,-52.009998,1729417615894.0,0.0
-2.545963,-6.752545,-5.635098,-148.610001,-23.870001,-50.330002,1729417615913.0,0.0
-2.773281,-6.979864,-5.644669,-128.940002,-19.879999,-35.420002,1729417615932.0,0.0
-1.818545,-6.317052,-7.932207,-109.690002,-24.639999,-56.07,1729417615952.0,0.0
-2.644069,-3.48395,-7.704889,-164.080002,-27.93,-50.189999,1729417615972.0,0.0
-2.299503,-6.116055,-9.583255,-160.649994,-15.96,-51.869999,1729417615991.0,0.0
-1.351945,-6.211767,-10.195816,-114.449997,-13.93,-45.990002,1729417616013.0,0.0
-1.359123,-3.48395,-9.753145,-59.849998,-5.04,-42.0,1729417616031.0,0.0
-2.572284,-2.569891,-8.025528,-91.910004,-1.75,-34.369999,1729417616052.0,0.0
-2.78046,-4.103691,-7.927422,-114.029999,-15.12,-22.889999,1729417616072.0,0.0
-1.225125,-2.404787,-7.822137,-72.590004,-35.0,-6.44,1729417616091.0,0.0
0.040678,-0.847059,-12.019149,-41.23,-13.65,1.19,1729417616112.0,0.0
-2.304288,-0.875773,-11.54537,-29.540001,18.76,-5.25,1729417616133.0,0.0
-4.539185,-0.490529,-8.630912,-52.150002,-13.65,-14.14,1729417616154.0,0.0
-2.931208,-2.029114,-6.630512,-44.59,-76.720001,-12.6,1729417616174.0,0.0
-0.937986,-4.828716,-9.96132,-11.83,-59.779999,10.92,1729417616192.0,0.0
-1.789831,-6.135197,-10.253245,14.49,-13.65,2.38,1729417616210.0,0.0
-2.199004,-4.515256,-12.153147,75.32,-3.85,34.16,1729417616232.0,0.0
-1.440479,-2.22054,-12.928421,113.400002,14.28,36.959999,1729417616252.0,0.0
-2.63689,-5.070391,-10.607382,119.910004,38.990002,46.689999,1729417616272.0,0.0
-2.421536,-7.460821,-8.181061,87.43,30.24,29.889999,1729417616290.0,0.0
-1.148555,-7.506285,-5.438886,68.110001,-0.35,30.73,1729417616312.0,0.0
1.308874,-6.427122,-5.613562,38.009998,-47.25,14.21,1729417616331.0,0.0
0.205783,-5.9677,-8.324631,1.33,-28.630001,-16.66,1729417616352.0,0.0
-5.587241,-5.551349,-9.123833,46.759998,20.719999,-24.15,1729417616374.0,0.0
-7.379465,-4.515256,-8.530413,72.800003,-11.69,-13.23,1729417616390.0,0.0
-2.758924,-2.59382,-6.888937,35.139999,-50.119999,23.59,1729417616411.0,0.0
-1.895115,-2.849852,-7.721639,16.799999,17.290001,3.29,1729417616431.0,0.0
-3.699304,-3.361916,-6.999006,3.85,64.610001,-2.31,1729417616451.0,0.0
-4.161119,-4.965107,-7.54457,-40.529999,78.75,-10.78,1729417616471.0,0.0
-3.771089,-4.744967,-10.076177,-105.279999,46.200001,-20.93,1729417616491.0,0.0
-3.148954,-5.111069,-11.093125,-118.230003,-1.05,-25.200001,1729417616510.0,0.0
-2.730211,-2.254039,-9.547362,-79.870003,-23.66,-14.0,1729417616531.0,0.0
-2.199004,-1.605584,-6.317052,-40.880001,-32.830002,-2.66,1729417616553.0,0.0
-1.615155,-2.225325,-6.589834,-77.209999,-12.95,-20.16,1729417616571.0,0.0
-2.136791,-1.167697,-9.23151,-122.290001,12.6,-28.0,1729417616590.0,0.0
-3.266203,-0.818345,-12.564712,-127.959999,26.530001,-35.420002,1729417616612.0,0.0
-4.515256,-2.596212,-12.552748,-51.380001,-6.16,-28.700001,1729417616632.0,0.0
-2.804388,-2.11047,-10.092925,24.5,-45.360001,0.84,1729417616651.0,0.0
-1.485943,-1.519442,-8.834301,60.200001,-44.029999,19.74,1729417616671.0,0.0
-2.610569,-4.027121,-10.490135,62.23,1.33,21.49,1729417616690.0,0.0
-3.017349,-6.266802,-10.234102,102.900002,17.43,28.49,1729417616710.0,0.0
-2.244468,-4.266403,-10.997414,131.389999,16.309999,43.400002,1729417616731.0,0.0
-2.474179,-4.232903,-9.97807,176.610001,23.24,57.889999,1729417616752.0,0.0
-2.766103,-4.692325,-5.898308,134.119995,32.34,49.700001,1729417616772.0,0.0
-1.115055,-9.092726,-2.711068,87.709999,-10.57,30.870001,1729417616792.0,0.0
0.172283,-11.598011,-1.825724,7.7,-66.57,6.72,1729417616810.0,0.0
-0.334995,-8.908479,-7.278966,-50.470001,-39.619999,-19.67,1729417616830.0,0.0
-3.206382,-5.71406,-8.982656,-1.4,27.02,-32.130001,1729417616851.0,0.0
-6.228518,-2.682354,-9.212367,45.920002,5.46,-8.47,1729417616872.0,0.0
-5.130211,-3.292524,-7.893922,20.93,-39.689999,-2.59,1729417616890.0,0.0
-2.79721,-5.156533,-10.085747,-28.0,-2.38,-12.74,1729417616910.0,0.0
-3.503092,-5.84088,-10.51167,-2.24,10.57,-11.62,1729417616930.0,0.0
-3.036492,-5.62074,-9.530612,40.810001,5.11,2.59,1729417616951.0,0.0
-3.103491,-3.330809,-6.491727,10.01,-3.78,-0.14,1729417616972.0,0.0
-3.031706,-2.768496,-5.352744,-60.130001,-10.78,-4.62,1729417616990.0,0.0
-3.129812,-4.015156,-8.532805,-101.080002,-4.83,-10.71,1729417617010.0,0.0
-4.472186,-3.627519,-9.269794,-79.660004,7.35,-13.440001,1729417617031.0,0.0
-2.876173,-3.014957,-9.559326,-89.879997,-0.63,-22.120001,1729417617051.0,0.0
-1.945365,-3.486342,-9.114261,-109.480003,8.05,-31.92,1729417617071.0,0.0
-2.309074,-2.495714,-9.169296,-118.440002,25.129999,-44.029999,1729417617090.0,0.0
-3.385844,-0.904487,-9.674182,-88.059998,33.25,-36.68,1729417617110.0,0.0
-4.61097,-0.48335,-7.508677,-31.15,16.66,-21.91,1729417617132.0,0.0
-3.845266,-1.868794,-8.35813,5.32,0.98,-16.940001,1729417617151.0,0.0
-2.85703,-3.046063,-10.052249,11.55,-2.45,-4.76,1729417617173.0,0.0
-2.177469,-6.336195,-10.380065,35.560001,-12.32,13.79,1729417617191.0,0.0
-1.648655,-4.541577,-11.375479,95.690002,-13.09,39.900002,1729417617211.0,0.0
-1.37348,-2.885744,-11.117055,188.369995,10.01,66.849998,1729417617230.0,0.0
-1.777867,-2.067399,-11.56451,173.460007,55.369999,70.07,1729417617251.0,0.0
-3.366701,-6.501299,-3.39063,84.139999,68.599998,64.190002,1729417617272.0,0.0
-1.471586,-14.29233,-2.129612,16.379999,-27.65,22.120001,1729417617290.0,0.0
1.753939,-14.455042,-6.975078,-18.620001,-91.139999,-9.45,1729417617311.0,0.0
0.990629,-8.12124,-8.894121,23.309999,-53.970001,-9.1,1729417617330.0,0.0
-9.420543,-3.096312,-4.862216,94.779999,21.700001,-5.81,1729417617351.0,0.0
-6.183054,-2.344966,-9.174082,-2.94,-29.469999,-2.31,1729417617370.0,0.0
-1.615155,-4.95075,-11.743973,-52.080002,-24.99,1.89,1729417617390.0,0.0
-3.649055,-6.745367,-10.274779,-7.07,38.080002,1.33,1729417617410.0,0.0
-4.919643,-6.910471,-8.403593,47.459999,55.439999,-10.08,1729417617430.0,0.0
-4.335794,-3.548556,-6.855437,22.049999,18.27,-6.93,1729417617522.0,0.0
-3.177669,-1.899901,-7.491928,-45.43,-8.4,-20.299999,1729417617525.0,0.0
-3.09392,-1.806581,-7.9681,-97.860001,-12.6,-28.49,1729417617525.0,0.0
-3.378666,-4.323831,-7.336394,-85.540001,-3.43,-16.59,1729417617526.0,0.0
-3.306881,-4.13719,-6.965507,-96.599998,2.24,-35.490002,1729417617559.0,0.0
-2.833102,-1.01695,-8.638089,-110.669998,4.13,-42.700001,1729417617560.0,0.0
-2.931208,-0.009571,-10.375278,-98.489998,11.83,-40.740002,1729417617571.0,0.0
-3.972085,-1.404587,-9.487542,-85.75,7.0,-44.170002,1729417617589.0,0.0
-2.888137,-1.658226,-8.910872,-83.230003,-11.9,-48.790001,1729417617610.0,0.0
-2.014757,0.129212,-8.997013,-87.639999,-27.370001,-36.68,1729417617640.0,0.0
-1.433301,-2.074577,-10.29153,-43.400002,-8.4,-24.15,1729417617651.0,0.0
-2.182254,-4.917251,-12.210573,-20.02,29.68,-11.83,1729417617671.0,0.0
-2.146362,-6.056234,-10.765309,5.18,13.37,-0.14,1729417617690.0,0.0
-0.490529,-2.940779,-11.794223,95.059998,5.32,39.830002,1729417617710.0,0.0
-0.799203,-1.167697,-11.344372,114.800003,30.17,45.779999,1729417617730.0,0.0
-1.957329,-3.656233,-8.432307,91.840004,55.16,48.16,1729417617751.0,0.0
-1.725225,-10.135997,-3.797409,73.150002,20.51,10.92,1729417617770.0,0.0
-1.239482,-10.470992,-2.62732,32.689999,-26.67,4.97,1729417617790.0,0.0
-0.930808,-8.161918,-6.903293,17.780001,-36.82,-10.36,1729417617810.0,0.0
-1.775474,-5.991628,-9.111869,14.35,-3.22,-21.0,1729417617830.0,0.0
-5.233103,-3.668197,-7.491928,17.85,4.97,2.38,1729417617851.0,0.0
-5.103891,-4.204189,-8.578269,28.77,-24.01,-8.05,1729417617871.0,0.0
-2.608176,-3.558127,-11.24866,-2.45,-11.48,-6.93,1729417617890.0,0.0
-2.24686,-4.352544,-11.799009,18.27,3.71,-5.53,1729417617910.0,0.0
-3.345166,-4.910072,-11.047661,63.490002,6.37,-2.73,1729417617930.0,0.0
-3.692125,-5.45085,-8.350951,94.150002,-37.59,-1.4,1729417617951.0,0.0
-1.911865,-3.692125,-6.441479,66.57,-75.110001,7.07,1729417617970.0,0.0
-2.199004,-3.110669,-3.809374,34.369999,-62.369999,5.67,1729417617990.0,0.0
-4.067799,-4.977071,-5.54417,-4.83,-27.58,-0.56,1729417618010.0,0.0
-4.309474,-5.259424,-9.52822,-5.18,-7.7,-4.69,1729417618030.0,0.0
-3.026921,-5.175675,-8.633304,18.690001,1.75,-0.21,1729417618051.0,0.0
-2.309074,-4.098906,-7.850852,4.27,3.29,7.07,1729417618071.0,0.0
-2.445465,-2.720639,-7.075576,-10.15,6.58,6.23,1729417618095.0,0.0
-2.95035,-3.649055,-8.135597,-21.98,14.07,5.46,1729417618110.0,0.0
-3.120241,-4.127619,-7.752745,7.14,22.889999,14.98,1729417618130.0,0.0
-3.091527,-4.15394,-7.898707,27.65,28.35,20.23,1729417618151.0,0.0
-3.132205,-5.297709,-9.47797,40.040001,36.470001,18.129999,1729417618188.0,0.0
-3.821337,-5.886343,-9.734003,55.299999,37.73,14.14,1729417618198.0,0.0
-3.038885,-7.582855,-10.028319,120.889999,24.92,8.19,1729417618216.0,0.0
-3.553342,-9.54497,-7.860423,231.910004,7.91,12.18,1729417618285.0,0.0
-2.505285,-7.625926,-6.144768,329.070007,-4.55,25.129999,1729417618286.0,0.0
-2.096112,-4.725825,-5.508278,345.799988,7.35,33.880001,1729417618290.0,0.0
-4.266403,-4.161119,-3.225525,234.570007,31.710001,35.209999,1729417618292.0,0.0
-4.17069,-7.271788,-3.833302,92.400002,27.860001,21.91,1729417618310.0,0.0
-4.249653,-10.236496,-3.737589,33.880001,7.21,38.43,1729417618332.0,0.0
-3.412165,-9.049655,-4.74736,-4.62,6.23,28.280001,1729417618354.0,0.0
-2.431108,-4.587041,-6.977471,-1.26,11.55,41.16,1729417618370.0,0.0
-3.017349,-5.448457,-5.771489,69.300003,25.41,60.27,1729417618389.0,0.0
-4.398008,-6.075377,-2.804388,24.08,35.07,37.869999,1729417618410.0,0.0
-5.13739,-10.777272,0.212961,-99.330002,14.0,8.05,1729417618429.0,0.0
-3.302095,-12.593425,-6.91765,-207.550003,0.42,-2.8,1729417618450.0,0.0
-2.976671,-12.471392,-6.709475,-59.849998,-4.27,15.96,1729417618470.0,0.0
-3.491128,-7.970492,-5.656632,46.060001,-5.46,5.81,1729417618489.0,0.0
-4.697111,-6.180661,-4.21376,84.209999,4.9,12.6,1729417618508.0,0.0
-5.182854,-6.54437,-4.163511,64.050003,1.26,11.62,1729417618529.0,0.0
-4.565506,-8.298308,-5.431707,10.99,11.27,7.49,1729417618549.0,0.0
-4.091727,-8.932407,-5.661418,-1.61,19.32,7.21,1729417618569.0,0.0
-4.017549,-8.705089,-5.343173,6.58,29.4,7.98,1729417618588.0,0.0
-3.725625,-8.224132,-5.520242,-13.93,29.26,7.98,1729417618608.0,0.0
-2.589034,-8.559127,-5.510671,-33.32,19.530001,0.56,1729417618629.0,0.0
-1.792224,-8.717053,-5.134997,-15.26,9.73,3.08,1729417618649.0,0.0
-2.292324,-8.819944,-2.677568,22.889999,8.61,-1.96,1729417618669.0,0.0
-2.701497,-8.580662,-2.062613,36.68,5.25,-9.66,1729417618688.0,0.0
-2.562713,-8.616554,-3.835695,49.209999,1.61,-14.91,1729417618708.0,0.0
-3.010171,-7.896315,-5.345565,66.150002,-1.82,-16.940001,1729417618728.0,0.0
-3.694518,-6.843473,-4.831109,57.260002,-6.3,-14.98,1729417618749.0,0.0
-3.859623,-7.329216,-4.027121,41.09,-23.66,-1.82,1729417618769.0,0.0
-3.991228,-8.248059,-4.307081,40.740002,-20.860001,1.89,1729417618788.0,0.0
-2.916851,-7.700103,-5.54417,77.139999,-23.309999,15.05,1729417618809.0,0.0
-4.457829,-6.422336,-3.278167,134.119995,-42.630001,29.68,1729417618829.0,0.0
-8.860621,-5.529813,-4.85743,119.139999,2.45,8.96,1729417618849.0,0.0
-6.063413,-8.77448,-8.047063,100.379997,38.990002,-3.5,1729417618869.0,0.0
-4.725825,-6.905686,-3.888337,56.139999,-21.0,43.400002,1729417618890.0,0.0
-4.608576,-7.054041,-1.150948,-7.77,-11.97,45.990002,1729417618909.0,0.0
-5.101498,-10.351351,-2.914458,-46.060001,20.16,37.380001,1729417618930.0,0.0
-4.345366,-11.643474,-2.880959,-27.16,10.29,15.47,1729417618951.0,0.0
-2.981457,-11.794223,-2.447858,-0.14,8.12,7.21,1729417618970.0,0.0
-2.969493,-10.683953,-2.914458,4.13,8.47,6.02,1729417618991.0,0.0
-3.555735,-9.360723,-2.825923,42.91,15.4,7.07,1729417619011.0,0.0
-3.945765,-8.908479,-1.919044,60.830002,12.53,0.28,1729417619031.0,0.0
-4.175476,-9.133404,-1.892723,36.889999,8.89,1.96,1729417619051.0,0.0
-4.59422,-8.757731,-1.885544,45.080002,10.78,2.94,1729417619071.0,0.0
-4.577469,-7.879565,-1.753939,53.900002,12.18,-4.76,1729417619089.0,0.0
-4.362115,-7.487142,-2.488536,41.650002,11.41,-9.24,1729417619109.0,0.0
-3.696911,-7.946564,-2.268396,22.889999,7.35,-17.99,1729417619130.0,0.0
-3.041277,-8.465806,-1.174876,6.72,6.58,-19.74,1729417619150.0,0.0
-2.744568,-7.817351,0.339781,12.95,2.87,-13.72,1729417619172.0,0.0
-2.667997,-7.192825,0.488136,10.64,10.29,-24.5,1729417619189.0,0.0
-3.144169,-9.193225,-0.12682,-26.950001,2.73,-26.6,1729417619209.0,0.0
-4.31426,-10.356135,-1.646262,-57.189999,-15.54,-15.4,1729417619230.0,0.0
-3.98405,-8.788837,-3.67059,-12.53,-34.860001,5.74,1729417619250.0,0.0
-7.54457,-7.362715,-3.948158,49.560001,-36.82,13.51,1729417619271.0,0.0
-7.578069,-8.848659,-7.566105,109.690002,37.59,-11.27,1729417619289.0,0.0
-5.632704,-7.384251,-6.171089,142.940002,14.28,15.54,1729417619310.0,0.0
-5.273781,-6.687939,-1.993221,108.43,-5.46,39.200001,1729417619329.0,0.0
-6.135197,-7.874779,-1.033699,14.14,10.57,42.139999,1729417619351.0,0.0
-3.488736,-12.246466,-2.055435,-0.77,13.79,28.630001,1729417619370.0,0.0
-3.261417,-11.598011,0.710668,68.040001,0.56,12.32,1729417619389.0,0.0
-4.034299,-10.284351,2.754139,79.239998,-4.62,4.27,1729417619409.0,0.0
-4.06062,-9.626326,2.141576,88.269997,-10.78,0.42,1729417619431.0,0.0
-3.711268,-8.84148,1.964507,102.970001,-19.18,-3.5,1729417619452.0,0.0
-3.9673,-8.585447,1.395016,93.870003,-17.219999,-6.23,1729417619471.0,0.0
-4.474578,-7.965706,0.756132,73.919998,-6.09,-11.13,1729417619490.0,0.0
-3.98405,-7.037291,1.098306,41.860001,-5.67,-19.18,1729417619510.0,0.0
-2.866602,-5.395815,2.818745,-5.6,-11.13,-23.799999,1729417619531.0,0.0
-2.210968,-5.101498,3.940979,-72.449997,-1.89,-31.01,1729417619554.0,0.0
-2.871387,-7.317252,1.883151,-177.589996,12.81,-33.459999,1729417619569.0,0.0
-5.091926,-12.344571,-1.227518,-206.850006,6.37,-17.08,1729417619589.0,0.0
-4.122833,-10.949556,-3.78066,-91.980003,-38.709999,9.73,1729417619611.0,0.0
-3.924229,-7.759924,-3.132205,18.129999,-65.309998,36.119999,1729417619630.0,0.0
-7.338787,-6.979864,-2.928815,22.75,-17.99,3.92,1729417619656.0,0.0
-7.302894,-9.329616,-4.09412,4.41,3.36,-18.76,1729417619674.0,0.0
-5.340781,-9.860823,-3.802195,8.19,-30.799999,3.43,1729417619690.0,0.0
-7.087541,-9.399008,-2.191825,72.800003,-1.12,20.23,1729417619710.0,0.0
-4.465007,-11.057234,-0.100499,107.870003,-28.77,28.139999,1729417619729.0,0.0
-2.380858,-10.296316,2.366502,132.160004,-16.66,2.45,1729417619752.0,0.0
-3.565305,-10.451849,1.284946,157.149994,22.540001,-2.59,1729417619769.0,0.0
-4.017549,-8.712267,2.835495,191.169998,10.15,1.4,1729417619789.0,0.0
-3.266203,-8.516055,3.416951,211.119995,-8.05,-0.42,1729417619809.0,0.0
-3.641876,-8.745767,3.785445,225.119995,-5.74,-3.78,1729417619830.0,0.0
-4.503292,-8.252845,3.215954,232.960007,0.91,5.67,1729417619855.0,0.0
-4.754539,-7.310073,3.282953,247.380005,2.31,0.56,1729417619872.0,0.0
-5.481956,-8.032705,3.275774,263.339996,8.89,-8.26,1729417619888.0,0.0
-6.73101,-6.955935,3.960121,288.049988,21.07,-18.48,1729417619909.0,0.0
-6.410372,-6.960721,4.127619,293.019989,5.88,-34.93,1729417619929.0,0.0
-4.979464,-4.819145,5.414958,290.5,-13.440001,-42.349998,1729417619950.0,0.0
-3.668197,-3.012564,6.07777,251.089996,-24.219999,-32.34,1729417619969.0,0.0
-3.058028,-0.708275,7.817351,199.779999,-14.0,-26.110001,1729417619988.0,0.0
-3.37388,5.249853,9.939785,86.870003,-12.95,-19.18,1729417620186.0,0.0
-3.139383,-3.634698,5.663811,4.69,15.05,-10.64,1729417620187.0,0.0
-3.507878,-5.266603,3.455236,-31.780001,38.849998,-0.63,1729417620191.0,0.0
-4.666004,-5.845665,5.783452,-13.79,53.970001,7.35,1729417620195.0,0.0
-7.04447,-5.271388,8.501699,-7.07,54.25,11.97,1729417620196.0,0.0
-7.295716,-8.166703,8.097312,-8.05,40.880001,-9.45,1729417620197.0,0.0
-5.888737,-6.242875,7.709675,21.42,-2.94,-5.39,1729417620197.0,0.0
-4.579862,-3.737589,7.350751,26.809999,-15.54,-11.13,1729417620198.0,0.0
-4.323831,-3.548556,6.087341,0.28,-5.6,-16.24,1729417620238.0,0.0
-4.776074,-3.012564,6.953543,-21.07,8.54,-22.75,1729417620250.0,0.0
-5.496314,-0.598206,7.267002,-49.77,41.860001,-29.049999,1729417620251.0,0.0
-5.146961,-0.667598,6.202196,-78.82,47.25,-17.780001,1729417620251.0,0.0
-3.845266,-4.63729,4.65404,-272.860016,25.41,-60.34,1729417620274.0,0.0
-2.294717,-9.547362,2.536392,-392.0,7.84,-104.300003,1729417620290.0,0.0
-2.699104,-13.301701,2.696711,-408.450012,33.25,-75.32,1729417620308.0,0.0
-4.811966,-11.892329,4.73061,-291.619995,48.02,-46.130001,1729417620329.0,0.0
-7.877172,-8.88455,3.625126,-197.539993,61.389999,-34.16,1729417620350.0,0.0
-6.329016,-7.908278,4.407579,-151.270004,-12.32,-39.830002,1729417620369.0,0.0
-3.330809,-8.437093,3.012564,-192.850006,-69.580002,-47.880001,1729417620389.0,0.0
-1.481157,-10.545169,0.428315,-220.779999,-47.950001,-48.23,1729417620440.0,0.0
-2.124826,-9.346365,0.404387,-226.029999,-14.28,-49.84,1729417620441.0,0.0
-2.845066,-9.690931,-1.342373,-239.960007,10.78,-59.43,1729417620452.0,0.0
-3.397808,-10.281959,-1.51705,-206.360001,12.67,-51.240002,1729417620472.0,0.0
-3.479164,-8.066205,-1.138984,-191.940002,-3.36,-47.529999,1729417620489.0,0.0
-3.232704,-7.953743,-3.326023,-220.009995,-4.97,-54.040001,1729417620509.0,0.0
-2.67039,-7.475177,-4.127619,-232.399994,-8.4,-54.529999,1729417620530.0,0.0
-1.706082,-6.465407,-5.252246,-245.559998,-30.450001,-52.43,1729417620551.0,0.0
-1.660619,-7.829315,-6.257231,-248.639999,-36.889999,-50.889999,1729417620600.0,0.0
-2.196611,-8.126025,-6.087341,-240.449997,-25.27,-51.240002,1729417620602.0,0.0
-3.287738,-8.094919,-3.737589,-229.949997,-38.290001,-47.599998,1729417620650.0,0.0
-3.103491,-5.505885,-6.350551,-252.0,-46.900002,-59.360001,1729417620651.0,0.0
-3.201597,-4.668397,-6.585048,-228.479996,-75.110001,-49.490002,1729417620652.0,0.0
-2.773281,-7.676175,-12.476178,-68.389999,-48.720001,-17.43,1729417620670.0,0.0
-3.658626,-6.76451,-12.99542,140.630005,6.51,34.860001,1729417620690.0,0.0
-4.902894,-6.60419,-9.233903,224.210007,32.130001,64.610001,1729417620710.0,0.0
-4.649254,-8.839087,-7.121039,225.399994,30.450001,49.98,1729417620730.0,0.0
-3.67059,-15.153747,-4.694718,288.890015,12.39,36.959999,1729417620752.0,0.0
-1.545763,-16.07259,-1.452443,501.619995,-12.6,45.290001,1729417620771.0,0.0
-1.079163,-1.624727,-0.009571,540.820007,10.78,91.419998,1729417620789.0,0.0
-2.591427,-3.469593,2.132005,468.649994,16.59,67.129997,1729417620811.0,0.0
-2.883351,-8.377272,0.993021,209.089996,57.189999,-9.38,1729417620831.0,0.0
-5.024928,-12.784851,-0.741775,80.43,84.910004,1.82,1729417620852.0,0.0
-5.283352,-10.057034,-1.052842,109.129997,55.790001,2.17,1729417620875.0,0.0
-5.087141,-7.21436,-0.394816,124.949997,23.309999,19.879999,1729417620890.0,0.0
-4.163511,-7.54457,-0.4666,64.540001,1.19,2.38,1729417620910.0,0.0
-3.122634,-8.343772,-0.385244,-18.129999,-14.49,-15.190001,1729417620931.0,0.0
-2.519642,-8.879765,-0.59342,-81.059998,-29.4,-20.93,1729417620951.0,0.0
-2.689533,-9.810574,1.244268,-57.959999,-31.01,-17.639999,1729417620971.0,0.0
-2.651247,-9.020942,1.634298,-16.52,-32.200001,-9.38,1729417620991.0,0.0
-1.627119,-8.750552,0.251246,15.190001,-41.09,-4.41,1729417621010.0,0.0
-0.801596,-8.592626,-0.11007,25.34,-44.380001,-1.33,1729417621031.0,0.0
-1.191626,-7.302894,-0.287139,4.48,-31.99,6.44,1729417621052.0,0.0
-2.366502,-7.04447,0.452243,6.16,-8.68,13.58,1729417621071.0,0.0
-2.833102,-9.908678,-1.033699,43.959999,6.3,8.82,1729417621090.0,0.0
-3.878766,-11.169697,-0.473779,56.0,23.870001,3.92,1729417621111.0,0.0
-5.52742,-11.143374,1.603191,68.599998,37.310001,16.799999,1729417621132.0,0.0
-5.67099,-8.355737,1.538585,50.049999,31.780001,21.0,1729417621151.0,0.0
-4.352544,-6.407979,-0.78006,1.68,12.6,10.01,1729417621175.0,0.0
-4.237689,-12.344571,-0.887737,22.120001,10.85,-2.38,1729417621190.0,0.0
-5.304887,-12.014362,0.064606,112.910004,44.310001,12.81,1729417621210.0,0.0
-5.785845,-7.740781,2.572284,161.770004,44.170002,20.51,1729417621233.0,0.0
-5.010571,-5.230711,4.95075,82.040001,19.040001,0.28,1729417621251.0,0.0
-3.680161,-6.680761,4.658825,-29.469999,-1.68,-16.799999,1729417621271.0,0.0
-1.342373,-9.868,2.105684,-66.57,-5.67,-14.91,1729417621291.0,0.0
-2.155933,-7.216753,4.718646,-20.440001,-8.68,6.37,1729417621310.0,0.0
-3.4672,-7.82453,5.166104,-18.620001,13.02,4.55,1729417621330.0,0.0
-4.197011,-9.296116,4.287938,-36.75,7.98,-4.06,1729417621352.0,0.0
-3.842873,-9.96132,2.392823,-57.189999,-12.95,-11.34,1729417621371.0,0.0
-3.675375,-9.470792,1.129412,-108.360001,-20.65,-26.18,1729417621390.0,0.0
-4.13719,-9.571291,-0.303888,-122.150002,-18.76,-22.120001,1729417621411.0,0.0
-3.869194,-9.250652,-2.041078,-108.360001,-24.360001,-24.5,1729417621431.0,0.0
-3.797409,-9.174082,-3.579663,-91.559998,-15.4,-16.309999,1729417621451.0,0.0
-4.438686,-9.504292,-3.737589,-62.369999,10.57,-13.3,1729417621471.0,0.0
-5.079963,-9.712467,-3.096312,-22.82,21.35,-3.01,1729417621490.0,0.0
-5.218746,-10.269995,-1.799403,24.92,8.19,6.51,1729417621511.0,0.0
-4.776074,-10.313066,-0.081356,68.599998,-2.1,1.12,1729417621531.0,0.0
-4.608576,-11.4353,1.12702,102.269997,3.36,2.45,1729417621551.0,0.0
-4.436293,-10.344172,1.538585,135.100006,7.7,4.41,1729417621571.0,0.0
-4.632504,-8.188239,2.041078,152.600006,14.42,14.91,1729417621590.0,0.0
-4.517649,-7.872386,1.770689,133.910004,17.99,10.15,1729417621612.0,0.0
-3.371487,-8.195417,2.474179,119.419998,14.28,6.23,1729417621632.0,0.0
-2.533999,-7.245467,3.926622,125.510002,-4.9,12.32,1729417621651.0,0.0
-2.768496,-6.530013,4.934,104.370003,3.5,5.25,1729417621671.0,0.0
-3.507878,-6.577869,5.666204,62.650002,15.68,-0.77,1729417621690.0,0.0
-3.244668,-7.987241,4.256832,18.059999,0.28,-7.63,1729417621710.0,0.0
-2.584249,-8.394022,3.318845,0.21,-14.42,-6.37,1729417621730.0,0.0
-1.694118,-7.456036,3.022135,-5.53,-14.77,0.35,1729417621751.0,0.0
-1.146162,-7.578069,3.570091,-8.19,-18.34,2.45,1729417621771.0,0.0
-1.600798,-7.769495,4.041477,-28.98,-6.51,-5.81,1729417621790.0,0.0
-3.627519,-6.855437,3.26381,-52.779999,17.639999,-0.7,1729417621810.0,0.0
-5.125426,-8.559127,4.577469,-68.110001,3.15,0.98,1729417621831.0,0.0
-3.249453,-8.360522,3.046063,-79.029999,-56.560001,7.07,1729417621852.0,0.0
-4.639683,-11.272588,0.586242,-54.880001,-62.23,22.610001,1729417621871.0,0.0
-8.439486,-10.389636,-1.131805,-33.810001,10.78,15.12,1729417621890.0,0.0
-7.482357,-8.932407,-3.790231,-79.169998,9.03,-11.83,1729417621910.0,0.0
-2.739782,-10.057034,-1.919044,-55.23,-47.740002,-16.59,1729417621931.0,0.0
-2.785245,-11.763116,2.462214,12.32,-8.75,-3.5,1729417621961.0,0.0
-5.970093,-7.211967,4.929214,71.889999,63.560001,-1.12,1729417621971.0,0.0
-3.318845,-6.54437,4.146761,48.369999,-8.89,-10.01,1729417621990.0,0.0
-1.12702,-7.566105,3.127419,-15.190001,-23.940001,-20.790001,1729417622011.0,0.0
-1.493121,-9.413363,2.517249,-54.18,12.53,-24.57,1729417622030.0,0.0
-3.498307,-9.915856,2.347359,-43.889999,48.650002,-20.65,1729417622051.0,0.0
-4.905287,-9.442079,2.335395,-20.65,45.920002,-13.09,1729417622071.0,0.0
-5.048856,-10.277173,2.352145,-1.61,20.58,-12.32,1729417622090.0,0.0
-4.723432,-9.88475,2.385644,5.46,5.39,-14.14,1729417622110.0,0.0
-4.424329,-11.253445,2.433501,-5.6,-9.38,-22.68,1729417622131.0,0.0
-3.859623,-11.684153,1.883151,4.55,-9.1,-26.389999,1729417622153.0,0.0
-3.129812,-12.875778,1.06002,69.160004,-18.549999,-16.66,1729417622174.0,0.0
-2.203789,-9.095119,1.579263,158.690002,-25.620001,0.28,1729417622191.0,0.0
-1.794617,-5.316852,2.354537,205.029999,-35.98,21.210001,1729417622210.0,0.0
-1.270589,-5.046463,4.460221,179.759995,-44.099998,5.6,1729417622230.0,0.0
-0.897308,-5.290531,4.271189,99.400002,-36.330002,-3.64,1729417622251.0,0.0
-0.72024,-5.668597,3.134598,49.349998,-24.219999,-11.48,1729417622271.0,0.0
-0.959522,-5.678168,2.739782,19.460001,-0.28,-16.379999,1729417622290.0,0.0
-2.021935,-6.843473,2.679961,-50.889999,25.76,-32.759998,1729417622311.0,0.0
-2.861816,-7.018148,2.469393,-58.52,49.0,-21.77,1729417622330.0,0.0
-3.215954,-8.015956,1.878366,-59.220001,52.220001,-15.12,1729417622351.0,0.0
-4.941179,-12.268002,6.56112,-59.220001,53.48,0.84,1729417622371.0,0.0
-6.379266,-15.98884,7.673782,55.23,33.32,15.47,1729417622390.0,0.0
-6.355337,-9.008978,6.446264,87.360001,10.71,23.450001,1729417622411.0,0.0
-4.381258,-6.113662,4.910072,-5.67,-21.77,-8.75,1729417622431.0,0.0
-3.007778,-7.099504,3.991228,-95.620003,-32.689999,-25.620001,1729417622451.0,0.0
-2.830709,-7.556533,4.232903,-94.010002,-26.460001,-21.559999,1729417622525.0,0.0
-3.507878,-7.915457,4.072584,-68.739998,-14.21,-13.09,1729417622525.0,0.0
-5.197211,-8.173882,3.084348,-66.43,1.47,1.19,1729417622525.0,0.0
-5.802595,-9.437292,0.07657,-100.239998,11.55,-10.71,1729417622531.0,0.0
-4.493721,-7.592427,0.184247,-130.339996,4.27,-19.879999,1729417622551.0,0.0
-3.330809,-6.951149,1.74676,-100.800003,-15.47,-6.86,1729417622570.0,0.0
-3.005385,-7.539784,3.366701,-86.870003,-12.32,-9.73,1729417622589.0,0.0
-3.139383,-10.066606,2.56032,-108.360001,-4.41,-22.26,1729417622617.0,0.0
-3.115455,-10.746166,0.660419,-176.680008,-3.08,-34.509998,1729417622630.0,0.0
-2.251646,-9.016156,0.744168,-198.589996,-23.73,-37.73,1729417622651.0,0.0
-1.72044,-8.724231,0.102891,-200.690002,-33.880001,-34.650002,1729417622673.0,0.0
-1.875973,-10.597812,-1.70369,-183.75,-24.639999,-35.98,1729417622690.0,0.0
-2.383251,-9.786645,-2.912065,-167.930008,-9.66,-37.799999,1729417622710.0,0.0
-2.739782,-8.51127,-3.208775,-164.5,-6.86,-38.360001,1729417622731.0,0.0
-3.046063,-10.9017,-2.943172,-160.789993,-16.59,-49.98,1729417622751.0,0.0
-2.340181,-12.55514,-3.462414,-127.82,-16.030001,-45.43,1729417622771.0,0.0
-1.026521,-13.57209,-1.868794,-53.060001,-37.240002,-30.799999,1729417622791.0,0.0
0.038285,-8.896514,-2.065006,33.810001,-44.869999,-1.68,1729417622810.0,0.0
0.665205,-6.197411,-2.340181,46.619999,-23.450001,15.33,1729417622831.0,0.0
0.253639,-7.015756,-2.610569,20.440001,-10.99,-2.66,1729417622852.0,0.0
-0.988236,-8.982656,-4.37408,6.51,24.710001,2.8,1729417622872.0,0.0
-1.942972,-11.777473,-4.488935,77.07,30.24,9.45,1729417622890.0,0.0
-2.057827,-9.458827,-5.225924,137.410004,21.49,34.09,1729417622911.0,0.0
-1.825724,-3.862016,-1.813759,162.470001,22.469999,43.75,1729417622931.0,0.0
-2.914458,-5.185246,2.959922,161.070007,9.73,50.889999,1729417622951.0,0.0
-3.739982,-8.623734,6.838687,203.630005,-38.009998,50.330002,1729417622972.0,0.0
-4.558327,-8.580662,7.534998,129.850006,-44.66,38.920002,1729417622992.0,0.0
-4.103691,-7.592427,0.181855,-59.220001,-29.960001,23.73,1729417623014.0,0.0
-3.562913,-9.097511,-6.580262,-213.990005,-25.34,-9.45,1729417623033.0,0.0
-3.56052,-15.290136,-9.308081,-228.619995,-39.41,-36.82,1729417623053.0,0.0
-3.259024,-17.661423,-10.566705,-69.650002,-2.52,-11.83,1729417623073.0,0.0
-2.421536,-10.889735,-5.982057,162.119995,41.16,38.709999,1729417623094.0,0.0
-1.761117,-6.783652,0.275175,237.160004,36.049999,27.370001,1729417623112.0,0.0
-2.787638,-5.776274,5.254639,142.869995,35.209999,-23.870001,1729417623133.0,0.0
-4.912465,-8.154739,5.548956,-31.08,51.170002,-28.559999,1729417623154.0,0.0
-4.491328,-11.351551,1.682154,-127.75,8.19,-54.740002,1729417623175.0,0.0
-2.541178,-10.990234,-0.59342,-134.610001,-32.900002,-50.889999,1729417623192.0,0.0
-1.086342,-8.764909,-2.019542,-126.629997,-40.459999,-51.240002,1729417623212.0,0.0
-2.218147,-8.504091,-2.103291,-128.240005,-19.950001,-47.040001,1729417623234.0,0.0
-3.625126,-9.286544,-2.0004,-152.529999,-2.52,-47.740002,1729417623256.0,0.0
-3.649055,-9.667004,-2.809174,-149.380005,-9.45,-47.740002,1729417623274.0,0.0
-3.215954,-8.4347,-3.09392,-164.990005,-17.639999,-50.82,1729417623293.0,0.0
-2.550749,-6.920043,-2.182254,-214.550003,-34.02,-60.689999,1729417623312.0,0.0
-2.15354,-6.530013,-2.569891,-263.899994,-43.400002,-57.82,1729417623337.0,0.0
-1.785046,-6.183054,-4.007978,-298.619995,-53.689999,-50.68,1729417623353.0,0.0
-1.421337,-5.656632,-5.053641,-320.73999,-59.5,-65.660004,1729417623374.0,0.0
-1.40698,-3.007778,-6.135197,-363.369995,-52.779999,-67.410004,1729417623392.0,0.0
-1.545763,-3.579663,-6.845865,-338.519989,-58.450001,-55.860001,1729417623414.0,0.0
-1.004985,-4.438686,-10.317852,-292.529999,-62.860001,-51.59,1729417623433.0,0.0
-0.89013,-6.111269,-14.172688,-233.660004,-53.900002,-41.02,1729417623454.0,0.0
-0.51685,-6.888937,-14.172688,-119.699997,-41.09,-21.07,1729417623474.0,0.0
-0.622134,-5.02732,-11.930614,17.710001,-17.43,10.57,1729417623493.0,0.0
-1.440479,-4.051049,-9.970891,66.080002,5.67,20.65,1729417623512.0,0.0
-1.696511,-4.59422,-9.834501,70.769997,11.13,20.790001,1729417623533.0,0.0
-1.330409,-4.776074,-10.033106,84.629997,4.2,23.24,1729417623554.0,0.0
-2.256432,-4.776074,-2.928815,106.959999,-11.34,34.790001,1729417623574.0,0.0
-1.397408,-6.118448,-9.298509,97.300003,-6.51,16.870001,1729417623591.0,0.0
-1.696511,-7.999206,-11.162518,92.959999,11.97,9.73,1729417623613.0,0.0
-1.753939,-6.597012,-9.568897,121.590004,8.26,30.59,1729417623632.0,0.0
-1.689333,-5.948557,-8.087741,163.169998,10.64,37.66,1729417623653.0,0.0
-1.971686,-6.69751,-6.101698,151.479996,25.41,33.599998,1729417623673.0,0.0
-2.354537,-8.688338,-6.455836,136.289993,34.650002,30.870001,1729417623692.0,0.0
-2.447858,-9.29133,-6.065805,160.089996,36.049999,33.32,1729417623714.0,0.0
-2.498107,-8.260024,-5.54417,184.729996,36.330002,37.869999,1729417623734.0,0.0
-2.794817,-8.676375,-5.161318,181.089996,41.299999,33.599998,1729417623755.0,0.0
-3.120241,-9.891929,-5.45085,208.320007,46.549999,38.990002,1729417623774.0,0.0
-3.349952,-7.735995,-5.613562,238.979996,51.52,51.170002,1729417623792.0,0.0
-4.012764,-6.472585,-5.809773,260.890015,54.950001,58.310001,1729417623812.0,0.0
-4.625326,-7.903493,-4.189832,275.450012,34.09,62.860001,1729417623832.0,0.0
-3.531806,-7.996813,-3.409772,239.470001,-1.96,45.220001,1729417623853.0,0.0
-2.658426,-5.678168,-2.275574,161.350006,-26.110001,34.650002,1729417623872.0,0.0
-2.301895,-6.108876,-1.990828,109.199997,-48.23,43.540001,1729417623894.0,0.0
-2.017149,-6.254838,4.61097,27.370001,-77.980003,29.33,1729417623912.0,0.0
-0.734596,-7.077969,3.443272,-113.68,-101.220001,38.779999,1729417623933.0,0.0
1.426122,-10.222138,-2.548356,-217.490005,-45.290001,3.78,1729417623953.0,0.0
0.323031,-9.631111,-2.876173,-321.230011,-1.61,-7.0,1729417623972.0,0.0
-1.457229,-7.590034,-3.979264,-396.269989,14.14,-20.790001,1729417623991.0,0.0
-2.055435,-6.85783,-5.929415,-431.899994,33.459999,-51.73,1729417624011.0,0.0
-2.103291,-8.068598,-8.4012,-393.610016,31.15,-59.990002,1729417624032.0,0.0
-1.476372,-8.16431,-10.181459,-312.970001,20.790001,-65.449997,1729417624053.0,0.0
-1.485943,-6.98465,-11.184053,-263.410004,24.290001,-53.130001,1729417624073.0,0.0
-4.74736,-6.405586,-7.958528,-308.559998,35.279999,-59.990002,1729417624091.0,0.0
-6.927221,-11.645866,-5.821737,-228.899994,21.280001,-74.410004,1729417624113.0,0.0
-3.948158,-9.06162,-10.054641,-78.610001,-59.010002,-45.290001,1729417624132.0,0.0
-1.651048,-1.816152,-8.865408,-59.150002,-59.220001,-25.27,1729417624152.0,0.0
-3.062813,-3.876373,-11.437693,-25.129999,-3.92,-16.73,1729417624176.0,0.0
-5.151747,-6.18784,-8.666803,-65.800003,37.029999,-45.150002,1729417624191.0,0.0
-4.905287,-5.493921,-9.554541,-51.799999,11.9,-42.420002,1729417624212.0,0.0
-1.399801,-1.45005,-10.492528,-28.84,-44.029999,-41.369999,1729417624233.0,0.0
-1.021735,0.859023,-10.29153,-47.950001,-47.389999,-58.450001,1729417624252.0,0.0
-2.347359,3.464807,-12.880564,-50.889999,19.530001,-24.43,1729417624273.0,0.0
-4.668397,0.244068,-8.690732,19.32,51.939999,57.049999,1729417624293.0,0.0
-3.460021,-3.522235,-8.568698,24.08,21.84,78.120003,1729417624311.0,0.0
-1.679761,-3.110669,-8.532805,36.330002,-2.31,93.239998,1729417624332.0,0.0
-1.009771,-3.20399,-7.080362,45.220001,0.77,81.830002,1729417624354.0,0.0
-2.37368,-6.994221,-6.424729,14.77,20.23,56.91,1729417624373.0,0.0
-2.907279,-9.396614,-6.381658,-3.08,9.03,25.83,1729417624391.0,0.0
-2.28036,-10.559525,-6.76451,-4.97,-14.28,3.43,1729417624413.0,0.0
-1.277767,-9.023334,-8.743374,3.08,-23.799999,-18.27,1729417624431.0,0.0
-2.24686,-5.685347,-8.501699,27.23,-2.87,-22.889999,1729417624452.0,0.0
-3.495914,-4.82393,-9.071191,10.22,9.87,-46.619999,1729417624472.0,0.0
-3.103491,-5.424529,-9.142976,-15.05,-18.690001,-73.360001,1729417624492.0,0.0
-2.11047,-3.601198,-8.276773,-18.83,-53.549999,-80.220001,1729417624512.0,0.0
-1.062413,-0.468993,-10.559525,-44.73,-54.950001,-95.690002,1729417624532.0,0.0
-1.222732,4.546363,-14.505291,2.17,-8.68,-41.580002,1729417624552.0,0.0
-2.646462,6.393622,-13.58884,66.290001,33.529999,39.34,1729417624573.0,0.0
-3.172883,-2.160719,-7.23111,24.92,15.68,45.43,1729417624590.0,0.0
-1.871187,-3.902694,-7.889136,9.1,-4.9,56.91,1729417624611.0,0.0
-2.088934,-2.512464,-10.459028,28.91,25.41,80.709999,1729417624631.0,0.0
-5.099105,-4.254438,-7.293324,41.720001,66.080002,98.489998,1729417624658.0,0.0
-7.13779,-8.796017,-5.498707,7.7,65.800003,67.340004,1729417624672.0,0.0
-4.632504,-10.461421,-5.65424,-22.82,-9.94,18.41,1729417624695.0,0.0
-0.851845,-8.444271,-6.843473,-7.49,-67.970001,10.15,1729417624712.0,0.0
0.72024,-5.448457,-9.750752,9.45,-46.900002,-7.07,1729417624734.0,0.0
-1.765903,-5.943772,-9.635897,19.040001,13.79,-21.139999,1729417624754.0,0.0
-3.311667,-4.333402,-10.411172,7.91,31.85,-25.129999,1729417624772.0,0.0
-2.641676,-3.48395,-10.411172,6.72,-9.1,-22.4,1729417624793.0,0.0
-0.708275,-3.931407,-10.626525,5.67,-47.389999,-31.57,1729417624812.0,0.0
-0.208176,-3.012564,-10.937593,-5.95,-43.610001,-31.85,1729417624834.0,0.0
-1.339981,-4.173083,-9.351151,-12.25,-13.440001,-35.630001,1729417624855.0,0.0
-3.084348,-5.003392,-6.326623,1.89,2.38,-26.040001,1729417624873.0,0.0
-3.364309,-3.144169,-8.422735,61.25,3.22,-7.35,1729417624892.0,0.0
-3.416951,-4.132405,-8.487342,52.57,5.04,-7.91,1729417624912.0,0.0
-3.349952,-5.711668,-7.269395,-6.3,-6.23,-29.75,1729417624934.0,0.0
-2.924029,-6.786045,-8.537591,-26.6,-30.17,-29.540001,1729417624955.0,0.0
-3.09392,-7.164111,-7.424929,12.04,-32.970001,-26.809999,1729417624973.0,0.0
-3.67059,-5.611169,-9.769895,61.25,-7.98,-17.639999,1729417624992.0,0.0
-3.885944,-3.938586,-9.308081,91.629997,8.82,-9.17,1729417625015.0,0.0
-3.347559,-4.261617,-8.145168,92.470001,-8.54,-3.01,1729417625035.0,0.0
-2.313859,-5.151747,-7.566105,72.800003,-15.4,-8.89,1729417625054.0,0.0
-2.328217,-5.407779,-6.271588,34.02,-3.15,-16.379999,1729417625075.0,0.0
-2.641676,-5.094319,-6.613762,-17.43,21.77,-21.77,1729417625093.0,0.0
-2.462214,-5.52742,-9.970891,-40.32,41.09,-24.01,1729417625113.0,0.0
-1.923829,-4.974678,-10.619347,-22.049999,35.139999,-21.35,1729417625134.0,0.0
-1.866402,-3.929015,-8.362915,-33.599998,28.210001,-11.69,1729417625155.0,0.0
-1.275374,-3.546163,-7.79103,-42.0,27.51,-14.07,1729417625177.0,0.0
-0.990629,-2.732604,-8.736196,-67.059998,28.84,-8.19,1729417625194.0,0.0
-1.67019,-6.056234,-10.681561,-80.290001,34.23,-15.68,1729417625215.0,0.0
-1.392623,-10.363315,-8.11167,-11.2,15.61,-13.09,1729417625235.0,0.0
-1.651048,-7.793423,-6.472585,68.669998,1.89,28.630001,1729417625256.0,0.0
-1.954936,-4.283153,-7.690532,120.540001,21.139999,15.33,1729417625273.0,0.0
-3.275774,-4.017549,-8.535198,81.900002,65.590004,14.42,1729417625294.0,0.0
-3.821337,-7.597212,-9.583255,68.809998,41.580002,10.92,1729417625314.0,0.0
-2.691926,-11.430513,-7.659425,153.160004,-1.4,18.9,1729417625334.0,0.0
-0.90688,-11.739187,-9.174082,269.360016,-11.13,25.83,1729417625357.0,0.0
-0.33021,-8.779266,-9.638289,418.320007,-2.31,34.650002,1729417625377.0,0.0
-1.004985,-4.867002,-8.286345,520.169983,30.17,50.400002,1729417625395.0,0.0
-2.813959,-3.854837,-4.558327,533.400024,27.58,59.150002,1729417625415.0,0.0
-4.161119,-5.800202,-3.804588,479.360016,12.25,58.939999,1729417625435.0,0.0
-5.146961,-7.657032,-1.689333,381.079987,-23.17,33.670002,1729417625455.0,0.0
-3.132205,-9.200402,-2.344966,380.940002,-61.740002,40.18,1729417625473.0,0.0
-2.557927,-6.417551,-0.76331,403.480011,-56.209999,37.59,1729417625493.0,0.0
-3.436093,-6.345766,2.749353,397.390015,-11.06,20.09,1729417625512.0,0.0
-3.397808,-9.06162,2.74696,261.519989,80.57,2.31,1729417625534.0,0.0
-4.682754,-9.643075,8.688338,229.25,85.75,-3.5,1729417625555.0,0.0
-4.141976,-5.513064,6.4343,138.039993,103.529999,2.87,1729417625574.0,0.0
-3.062813,-5.536992,4.886144,-9.24,69.580002,-17.290001,1729417625593.0,0.0
-2.809174,-7.508677,5.180461,-48.23,74.199997,-24.43,1729417625614.0,0.0
-3.503092,-6.668797,7.101898,-45.639999,52.5,-34.16,1729417625633.0,0.0
-3.56052,-5.158926,6.618547,-83.93,46.060001,-9.94,1729417625654.0,0.0
-3.055635,-5.632704,7.389036,-163.169998,23.17,-9.52,1729417625673.0,0.0
-2.251646,-5.300103,6.855437,-225.470001,-21.139999,-0.91,1729417625695.0,0.0
-2.105684,-8.762517,2.160719,-185.779999,-44.59,22.049999,1729417625712.0,0.0
-3.084348,-10.973484,2.388037,-134.190002,-21.98,-2.8,1729417625735.0,0.0
-5.869594,-10.971091,3.847659,-131.809998,7.77,-17.290001,1729417625754.0,0.0
-5.816952,-10.564312,5.249853,-156.100006,23.379999,-27.719999,1729417625774.0,0.0
-2.876173,-9.044869,2.574677,-182.770004,-25.690001,-11.62,1729417625793.0,0.0
-0.789631,-8.26481,-1.064806,-186.970001,-49.98,-5.04,1729417625812.0,0.0
-1.002593,-8.372486,-0.351745,-185.850006,-13.3,-25.83,1729417625835.0,0.0
-4.331009,-8.779266,0.976272,-237.160004,39.970001,-40.950001,1729417625855.0,0.0
-5.197211,-10.231709,-1.45005,-270.480011,25.200001,-45.57,1729417625874.0,0.0
-4.520042,-9.497113,-2.986243,-232.050003,-13.86,-43.330002,1729417625894.0,0.0
-3.658626,-8.118847,-4.110869,-215.740005,-15.82,-52.57,1729417625914.0,0.0
-3.457629,-7.568498,-3.433701,-254.520004,-28.07,-73.220001,1729417625933.0,0.0
-2.782853,-7.779066,-5.998806,-304.360016,-20.860001,-70.910004,1729417625953.0,0.0
-2.388037,-9.535398,-5.469993,-273.209991,-28.139999,-67.760002,1729417625974.0,0.0
-1.701297,-8.472985,-8.628519,-234.710007,-38.920002,-62.720001,1729417625993.0,0.0
-1.811367,-8.008778,-4.496114,-139.020004,-26.74,-34.09,1729417626013.0,0.0
-1.794617,-7.032506,-3.957729,-96.040001,-29.68,-38.849998,1729417626033.0,0.0
-1.808974,-4.788038,-6.166305,-136.710007,-19.18,-48.02,1729417626055.0,0.0
-2.029114,-5.340781,-9.221939,-154.979996,4.34,-42.91,1729417626074.0,0.0
-2.392823,-7.389036,-9.207582,-145.740005,6.79,-41.23,1729417626094.0,0.0
-2.213361,-6.302694,-8.114061,-152.460007,-9.87,-39.48,1729417626113.0,0.0
-1.78026,-5.158926,-6.9344,-144.059998,-28.210001,-34.650002,1729417626133.0,0.0
-1.428515,-4.280759,-8.195417,-147.770004,-18.059999,-25.34,1729417626155.0,0.0
-1.897508,-4.945964,-9.523434,-157.779999,-1.4,-16.940001,1729417626177.0,0.0
-1.854438,-1.033699,-12.117253,-162.75,12.81,-13.09,1729417626194.0,0.0
-3.06042,-2.78046,-8.520842,-150.919998,-16.59,-1.54,1729417626213.0,0.0
-1.995614,-5.508278,-6.407979,-141.820007,-32.130001,-10.22,1729417626233.0,0.0
-1.433301,-2.902494,-8.090133,-117.739998,-21.210001,1.96,1729417626253.0,0.0
-1.904687,-0.133998,-12.686745,-104.160004,-11.27,-2.31,1729417626274.0,0.0
-2.596212,-1.732404,-12.990634,-73.779999,-8.26,-5.46,1729417626295.0,0.0
-2.012364,-1.028914,-11.619547,-45.290001,-27.65,8.33,1729417626313.0,0.0
-2.359323,0.334995,-6.345766,-37.66,-23.1,11.97,1729417626334.0,0.0
-1.069592,1.359123,-1.533799,-62.790001,-7.14,-0.49,1729417626354.0,0.0
1.328017,-2.48375,-12.684352,75.040001,8.82,13.58,1729417626373.0,0.0
-3.041277,-3.797409,-14.163116,-82.459999,17.85,9.66,1729417626394.0,0.0
-1.875973,-3.5007,-11.980864,-18.41,-15.33,2.45,1729417626412.0,0.0
-2.177469,-1.938186,-10.133603,-3.08,0.49,14.49,1729417626433.0,0.0
-2.895315,-0.184247,-9.006584,-1.75,3.08,21.0,1729417626455.0,0.0
-2.249253,-1.088734,-10.815558,1.05,-3.92,20.790001,1729417626473.0,0.0
-2.773281,-5.826523,-11.397014,24.43,-9.31,7.28,1729417626492.0,0.0
-1.835295,-1.655833,-11.129018,64.68,-8.54,25.34,1729417626513.0,0.0
-3.108276,-1.251446,-8.580662,26.389999,1.05,-3.15,1729417626534.0,0.0
-2.868994,1.079163,-8.085347,46.34,-6.58,15.12,1729417626553.0,0.0
-2.612962,-1.464408,-10.042676,18.48,-2.59,-1.47,1729417626575.0,0.0
-2.801995,-4.850252,-10.289137,14.7,-8.26,-9.52,1729417626591.0,0.0
-2.007578,-3.182454,-9.860823,67.059998,-10.78,9.1,1729417626613.0,0.0
-2.553142,-2.318645,-8.178668,100.169998,-11.2,24.85,1729417626633.0,0.0
-2.734996,-1.730011,-9.41815,125.020004,0.63,30.24,1729417626656.0,0.0
-2.892922,-3.232704,-9.367901,152.809998,-1.19,31.92,1729417626675.0,0.0
-4.015156,-6.058627,-7.82453,197.470001,-14.56,49.279999,1729417626699.0,0.0
-3.115455,-5.4676,-8.276773,295.190002,-30.030001,67.480003,1729417626714.0,0.0
-2.806781,-5.194818,-4.051049,308.630005,-50.400002,53.060001,1729417626735.0,0.0
-1.65344,-4.321437,-5.362316,150.779999,-66.43,3.5,1729417626756.0,0.0
-1.39023,-5.034499,-6.388836,42.07,-49.209999,-4.69,1729417626774.0,0.0
-1.107877,-5.45085,-7.76471,-55.02,-39.619999,-21.84,1729417626793.0,0.0
-0.387637,-6.556334,-10.561919,-85.050003,-21.49,-36.610001,1729417626815.0,0.0
-1.366302,-5.395815,-10.762917,-78.330002,-5.11,-26.25,1729417626833.0,0.0
-1.974079,-4.778467,-9.980463,-15.12,9.52,-12.25,1729417626854.0,0.0
-2.22054,-4.800002,-9.597611,-4.34,16.52,-12.25,1729417626873.0,0.0
-3.34038,-4.429115,-5.589634,5.6,16.940001,-5.81,1729417626895.0,0.0
-4.9675,-3.888337,-4.912465,14.7,-13.440001,24.5,1729417626913.0,0.0
-3.517449,-2.794817,-5.804988,8.68,-20.16,8.12,1729417626936.0,0.0
-4.800002,-3.639483,-6.920043,-42.490002,-8.89,7.42,1729417626956.0,0.0
-6.886543,-5.300103,-6.522834,-94.080002,-9.73,-21.559999,1729417626974.0,0.0
-5.249853,-5.886343,-12.021541,-101.220001,-20.790001,-37.939999,1729417626996.0,0.0
-4.156333,-3.979264,-11.729616,-81.550003,-19.67,-39.830002,1729417627014.0,0.0
-3.900301,-3.713661,-12.289536,-34.439999,11.13,-0.42,1729417627036.0,0.0
-3.74716,-4.402793,-9.540184,-11.97,28.84,11.13,1729417627056.0,0.0
-3.988836,-5.292924,-9.657433,-14.21,36.959999,21.84,1729417627075.0,0.0
-3.737589,-5.862415,-10.480563,-14.49,38.360001,28.559999,1729417627095.0,0.0
-2.691926,-6.135197,-10.305886,21.139999,14.56,36.259998,1729417627115.0,0.0
-1.550549,-5.257031,-4.558327,68.949997,-8.47,19.809999,1729417627135.0,0.0
-1.768296,-5.146961,-5.448457,3.43,13.09,-22.190001,1729417627156.0,0.0
-2.9336,-6.522834,-6.278766,6.3,21.559999,-36.119999,1729417627177.0,0.0
-3.917051,-3.969693,-5.553742,42.98,13.37,-24.08,1729417627195.0,0.0
-4.692325,-2.45025,-5.206782,8.61,-3.78,-20.790001,1729417627215.0,0.0
-3.52702,-4.110869,-9.028119,-38.920002,-9.31,-43.119999,1729417627237.0,0.0
-2.79721,-5.412565,-10.463813,-11.41,-20.719999,-44.240002,1729417627255.0,0.0
-2.969493,-4.584648,-9.51147,51.869999,-13.09,-26.67,1729417627274.0,0.0
-3.730411,-2.921637,-8.69791,68.949997,14.77,-21.629999,1729417627295.0,0.0
-3.940979,-1.928615,-9.597611,12.74,33.32,-21.35,1729417627314.0,0.0
-3.182454,-4.68754,-13.62234,-20.719999,16.450001,-2.52,1729417627334.0,0.0
-1.904687,-8.475377,-10.880164,36.68,-7.63,14.42,1729417627355.0,0.0
-1.739582,-9.107083,-6.817152,102.690002,-0.98,55.439999,1729417627374.0,0.0
-0.854238,-6.008378,-4.381258,138.320007,-10.15,53.060001,1729417627396.0,0.0
-1.490728,-3.278167,-2.880959,93.940002,-8.75,33.670002,1729417627417.0,0.0
-3.18724,-5.091926,-5.192425,12.53,35.209999,10.08,1729417627435.0,0.0
-5.819345,-8.025528,-5.347959,-29.120001,53.900002,-4.83,1729417627519.0,0.0
-5.534599,-8.640482,-6.285945,33.529999,-10.43,-0.56,1729417627526.0,0.0
-2.952743,-9.018548,-7.657032,89.389999,-24.85,-8.47,1729417627527.0,0.0
-1.878366,-8.25763,-8.408379,156.729996,-27.790001,-15.68,1729417627529.0,0.0
-1.646262,-6.60419,-10.152746,223.580002,-18.059999,-13.23,1729417627555.0,0.0
-2.014757,-4.333402,-8.078169,231.910004,0.91,1.33,1729417627558.0,0.0
-2.24686,-4.807181,-5.663811,180.740005,5.25,14.0,1729417627575.0,0.0
-2.100898,-5.656632,-4.656433,99.260002,-1.05,10.78,1729417627595.0,0.0
-1.914258,-6.506085,-4.31426,59.920002,6.3,7.28,1729417627615.0,0.0
-2.768496,-7.144968,-5.015356,35.630001,25.620001,5.81,1729417627638.0,0.0
-3.706482,-7.176075,-4.62054,-21.42,56.420002,7.14,1729417627655.0,0.0
-5.793024,-7.075576,-4.67079,-126.489998,28.91,5.67,1729417627674.0,0.0
-3.902694,-7.659425,-6.479764,-166.740005,-13.02,-3.01,1729417627696.0,0.0
-2.529213,-7.278966,-6.865008,-174.720001,-12.39,7.56,1729417627714.0,0.0
-3.48395,-8.470592,-7.238289,-159.880005,33.040001,4.06,1729417627734.0,0.0
-4.187439,-6.106483,-6.74776,-202.089996,59.360001,-18.969999,1729417627756.0,0.0
-4.036692,-5.312066,-5.572884,-232.680008,38.290001,-15.75,1729417627774.0,0.0
-1.473979,-6.041877,-9.394222,-241.430008,5.6,-28.210001,1729417627794.0,0.0
-1.292124,-7.025328,-8.73141,-183.610001,-2.03,-11.27,1729417627814.0,0.0
-1.978864,-8.965906,-9.396614,-111.160004,14.63,-12.46,1729417627834.0,0.0
-2.39043,-9.267403,-8.848659,-30.870001,22.68,-25.690001,1729417627855.0,0.0
-2.900101,-6.766902,-7.661818,46.970001,13.51,-10.15,1729417627874.0,0.0
-2.615355,-3.371487,-8.906086,74.340004,11.9,-0.91,1729417627893.0,0.0
-2.845066,-1.988436,-8.812766,47.599998,14.28,-1.12,1729417627915.0,0.0
-3.220739,-4.972286,-10.090532,-9.66,12.25,-21.0,1729417627934.0,0.0
-2.885744,-8.327023,-9.516255,-43.82,-8.26,-44.170002,1729417627955.0,0.0
-2.218147,-5.740381,-8.748159,-27.09,-24.710001,-27.09,1729417627975.0,0.0
-1.641476,-1.859223,-8.559127,41.650002,-14.7,-8.68,1729417627994.0,0.0
-2.172683,-1.414158,-7.862815,56.420002,-1.54,-0.56,1729417628021.0,0.0
-2.739782,-3.546163,-7.865208,16.66,1.33,-12.25,1729417628034.0,0.0
-2.9336,-5.319244,-9.372685,5.88,7.49,-5.46,1729417628055.0,0.0
-2.440679,-5.182854,-8.784052,29.889999,-4.55,-14.42,1729417628075.0,0.0
-2.440679,-3.87398,-8.817552,50.119999,-16.799999,-4.41,1729417628094.0,0.0
-2.06022,-4.201797,-6.948757,51.939999,-25.969999,-12.32,1729417628114.0,0.0
-1.682154,-6.065805,-7.910671,39.830002,-28.91,-2.52,1729417628135.0,0.0
-2.179861,-7.542177,-8.394022,96.669998,-16.52,1.68,1729417628155.0,0.0
-2.916851,-7.293324,-8.405986,125.860001,3.64,3.01,1729417628200.0,0.0
-3.448057,-7.642675,-6.51087,186.059998,-6.72,18.059999,1729417628203.0,0.0
-2.794817,-6.324231,-6.664011,220.220001,-24.780001,35.630001,1729417628262.0,0.0
-2.105684,-4.859823,-7.367501,195.020004,-10.43,38.009998,1729417628263.0,0.0
-2.610569,-8.221739,-5.529813,193.970001,3.57,41.16,1729417628263.0,0.0
-2.837888,-12.090932,-5.489135,269.360016,-3.29,39.060001,1729417628274.0,0.0
-3.127419,-8.638089,-4.39083,335.649994,10.71,42.279999,1729417628292.0,0.0
-4.012764,-6.678369,-1.440479,337.890015,-19.74,51.310001,1729417628314.0,0.0
-3.845266,-9.937392,-2.421536,352.589996,-57.610001,44.66,1729417628333.0,0.0
-4.883751,-11.308479,-3.68734,433.649994,-69.090004,35.490002,1729417628357.0,0.0
-3.773481,-11.861222,-3.292524,534.380005,-47.389999,32.549999,1729417628374.0,0.0
-4.826324,-9.181261,-2.725425,492.799988,7.63,2.8,1729417628393.0,0.0
-4.98425,-6.71426,1.036092,294.769989,-1.75,-30.030001,1729417628413.0,0.0
-4.95075,-8.726624,5.048856,92.260002,-11.41,-22.26,1729417628433.0,0.0
-4.197011,-6.893722,9.040084,34.509998,-2.59,-52.920002,1729417628455.0,0.0
-1.244268,-6.23091,0.478565,7.0,65.870003,-63.77,1729417628473.0,0.0
-3.744767,-9.590433,-0.684347,-14.84,124.809998,-43.259998,1729417628493.0,0.0
-5.553742,-7.853244,4.62054,-18.27,105.419998,-47.32,1729417628513.0,0.0
-5.335995,-9.226725,2.57707,-37.029999,68.739998,-27.23,1729417628533.0,0.0
-4.299902,-8.769694,4.780859,12.88,59.990002,-31.5,1729417628554.0,0.0
-3.67059,-7.257431,5.659025,-15.05,-0.77,-36.330002,1729417628574.0,0.0
-2.557927,-7.826923,6.589834,-37.380001,-37.029999,-19.32,1729417628593.0,0.0
-2.127219,-8.982656,5.67099,-18.9,-47.810001,-12.25,1729417628614.0,0.0
-3.409772,-7.582855,6.4343,-28.07,-26.32,-18.76,1729417628639.0,0.0
-4.429115,-6.197411,4.599005,-91.840004,1.54,-18.9,1729417628656.0,0.0
-3.570091,-7.022934,2.749353,-150.149994,-5.67,-25.059999,1729417628674.0,0.0
-1.942972,-8.10449,1.598405,-175.0,-34.93,-30.309999,1729417628693.0,0.0
-1.61037,-8.195417,-0.411566,-199.570007,-29.120001,-33.18,1729417628713.0,0.0
-2.325824,-8.798409,-1.024128,-217.490005,16.17,-44.66,1729417628742.0,0.0
-3.713661,-9.21476,-0.124427,-245.350006,27.440001,-52.5,1729417628753.0,0.0
-3.366701,-9.899107,-0.595813,-245.770004,-6.65,-43.540001,1729417628773.0,0.0
-2.323431,-8.477771,-1.452443,-244.229996,-26.32,-37.66,1729417628794.0,0.0
-2.452643,-7.549356,-3.014957,-264.73999,-13.51,-58.869999,1729417628812.0,0.0
-3.136991,-9.812965,-3.797409,-279.160004,5.11,-61.950001,1729417628833.0,0.0
-2.349752,-9.942179,-6.80758,-269.640015,-14.21,-70.139999,1729417628854.0,0.0
-2.151148,-9.765109,-5.233103,-193.270004,-31.57,-37.869999,1729417628873.0,0.0
-1.375873,-9.341579,-4.311867,-122.849998,-39.900002,-38.360001,1729417628892.0,0.0
-1.043271,-8.329416,-5.156533,-115.919998,-19.67,-40.529999,1729417628913.0,0.0
-1.009771,-5.903094,-6.412765,-134.399994,-12.32,-44.939999,1729417628934.0,0.0
-1.18684,-7.025328,-6.175875,-114.870003,-1.33,-38.639999,1729417628956.0,0.0
-1.22034,-7.281359,-6.116055,-124.949997,-6.79,-40.599998,1729417628974.0,0.0
-1.079163,-6.656832,-6.484549,-141.820007,-13.93,-37.799999,1729417628996.0,0.0
-0.887737,-5.814559,-7.259824,-155.470001,-16.450001,-34.720001,1729417629015.0,0.0
-0.885344,-5.922236,-8.870193,-168.279999,-9.94,-31.01,1729417629034.0,0.0
-1.351945,-6.142376,-7.587641,-162.75,-0.35,-21.91,1729417629054.0,0.0
-1.134198,-2.775674,-7.164111,-175.559998,-3.15,-20.65,1729417629074.0,0.0
-2.823531,-4.883751,-9.736395,-214.059998,6.86,-29.889999,1729417629096.0,0.0
-2.189433,-6.54437,-11.586047,-135.309998,-13.37,-17.85,1729417629114.0,0.0
-1.06002,-3.945765,-10.372886,-81.900002,-40.599998,-4.83,1729417629135.0,0.0
-1.380659,-3.383451,-8.54477,-61.25,-53.200001,5.74,1729417629156.0,0.0
-1.028914,-4.26401,-11.212767,-35.560001,-9.66,0.49,1729417629177.0,0.0
-2.165504,-2.74696,-6.594619,-22.26,-7.91,7.35,1729417629194.0,0.0
-2.057827,-3.046063,-8.453842,-52.080002,-0.35,6.23,1729417629214.0,0.0
-1.844866,0.847059,-7.149754,-64.959999,2.87,9.31,1729417629234.0,0.0
-2.438286,-0.902094,-9.662218,-99.190002,19.950001,5.32,1729417629256.0,0.0
-1.404587,-2.526821,-12.382857,-104.650002,-14.56,11.76,1729417629279.0,0.0
0.050249,-4.012764,-11.566904,-87.5,-40.18,-3.57,1729417629295.0,0.0
-0.835095,-3.821337,-10.408779,-68.599998,-16.73,-4.48,1729417629316.0,0.0
-1.761117,-2.041078,-9.422935,-39.48,-6.37,1.33,1729417629336.0,0.0
-2.258825,-1.514657,-9.650253,-39.200001,-0.84,1.12,1729417629357.0,0.0
-1.945365,-1.789831,-10.573883,-33.25,-9.03,2.94,1729417629376.0,0.0
-1.028914,-2.18704,-10.652846,-36.330002,-15.190001,-0.56,1729417629396.0,0.0
-1.730011,-1.866402,-10.30828,-20.09,-3.36,4.62,1729417629415.0,0.0
-1.892723,-0.588634,-10.246067,-19.25,-1.61,6.02,1729417629435.0,0.0
-1.696511,-0.746561,-10.167104,-15.190001,-4.55,6.16,1729417629461.0,0.0
-2.055435,-1.631905,-10.157533,-14.91,-1.4,1.96,1729417629477.0,0.0
-2.321038,-1.923829,-9.662218,-0.63,-2.87,-0.14,1729417629496.0,0.0
-2.713461,-0.98345,-8.669197,20.790001,-2.24,2.31,1729417629515.0,0.0
-2.9336,-1.430908,-8.322237,46.41,-8.4,0.14,1729417629535.0,0.0
-2.651247,-1.471586,-10.006784,55.510002,-12.74,-6.86,1729417629555.0,0.0
-3.29731,-2.378466,-10.305886,62.650002,-13.51,6.44,1729417629576.0,0.0
-2.995814,-4.307081,-10.782058,70.0,-13.23,-0.77,1729417629594.0,0.0
-1.663012,-3.055635,-12.610175,105.559998,-16.59,23.73,1729417629618.0,0.0
-0.787239,-1.28016,-12.224932,155.889999,-13.93,27.23,1729417629636.0,0.0
-1.667797,-1.95015,-10.135997,196.279999,-4.83,35.77,1729417629658.0,0.0
-1.792224,-3.929015,-11.169697,227.570007,10.57,33.389999,1729417629676.0,0.0
-1.708475,-4.646862,-11.420943,247.800003,12.53,34.860001,1729417629696.0,0.0
-0.612563,-4.347759,-11.734402,286.230011,-0.63,40.950001,1729417629715.0,0.0
0.579063,-2.447858,-10.253245,318.149994,-13.23,38.290001,1729417629735.0,0.0
0.083749,-4.09412,-7.642675,210.839996,19.110001,28.630001,1729417629756.0,0.0
-0.337388,-7.513463,-6.800402,157.639999,59.080002,12.95,1729417629776.0,0.0
-0.031107,-7.501499,-5.525027,151.550003,74.690002,19.25,1729417629795.0,0.0
-1.253839,-5.74756,-0.997807,135.309998,54.529999,18.620001,1729417629816.0,0.0
-10.018748,-3.199204,19.334007,56.630001,22.82,32.48,1729417629835.0,0.0
-7.329216,-7.819745,-1.78026,1.19,8.12,16.379999,1729417629856.0,0.0
-3.352344,-4.797609,-3.816552,-66.709999,-42.420002,-30.030001,1729417629876.0,0.0
-2.701497,-5.651847,-5.458029,-84.419998,-118.020004,31.08,1729417629894.0,0.0
-1.899901,-8.84148,-8.537591,-89.529999,-81.830002,-12.11,1729417629914.0,0.0
-4.651647,-14.433505,-13.919049,-47.040001,-48.02,-2.38,1729417629937.0,0.0
-7.592427,-12.074183,-16.060625,-1.05,13.93,-16.450001,1729417629958.0,0.0
-7.147361,-8.286345,-14.124832,102.129997,66.360001,-0.77,1729417629977.0,0.0
-2.924029,-5.647062,-7.585248,124.739998,9.31,15.190001,1729417629997.0,0.0
0.064606,-4.532006,-6.381658,38.220001,-25.34,8.05,1729417630015.0,0.0
0.894916,-6.489335,-7.869993,-13.86,29.120001,2.66,1729417630036.0,0.0
0.349352,-7.649854,-6.455836,10.22,78.260002,-4.48,1729417630056.0,0.0
-2.545963,-6.235696,4.649254,73.010002,84.419998,20.16,1729417630075.0,0.0
-3.95055,-7.02772,6.680761,62.790001,24.780001,21.0,1729417630095.0,0.0
-4.235296,-8.269595,-0.071785,-49.07,21.77,-20.370001,1729417630123.0,0.0
-3.486342,-10.033106,-5.319244,-65.590004,12.88,-32.48,1729417630136.0,0.0
-1.344766,-7.57089,-5.563312,-31.43,-111.790001,-11.55,1729417630156.0,0.0
0.18664,-4.881358,-8.535198,-14.91,-135.169998,1.26,1729417630178.0,0.0
-2.287539,-10.001998,-13.785051,-14.91,-64.260002,-15.05,1729417630194.0,0.0
-7.302894,-14.577076,-19.527826,-67.340004,104.019997,-50.959999,1729417630215.0,0.0
-7.178468,-11.014162,-11.456835,19.25,74.059998,-20.23,1729417630235.0,0.0
-1.29691,-6.948757,-7.606783,157.779999,-19.389999,19.950001,1729417630257.0,0.0
1.103091,-4.199404,-8.429914,131.389999,46.900002,16.52,1729417630276.0,0.0
0.679562,-4.599005,-6.687939,59.43,123.970001,7.63,1729417630295.0,0.0
-2.909672,-5.668597,6.362515,43.75,136.710007,21.700001,1729417630315.0,0.0
-5.422136,-7.487142,10.865808,81.410004,34.860001,39.41,1729417630335.0,0.0
-3.940979,-6.037091,5.312066,16.59,-12.32,3.85,1729417630358.0,0.0
-2.22054,-8.305488,-2.105684,-65.449997,-28.77,-33.670002,1729417630375.0,0.0
-0.835095,-7.070791,-5.505885,-103.529999,-88.690002,-52.920002,1729417630394.0,0.0
-0.655633,-6.482157,-15.000606,-36.889999,-140.210007,-10.92,1729417630415.0,0.0
-4.84068,-10.269995,-13.296914,-43.540001,-27.16,3.85,1729417630435.0,0.0
-7.920243,-12.263215,-16.500904,-51.52,109.690002,-12.67,1729417630456.0,0.0
-5.723632,-12.701102,-9.171689,5.6,33.459999,7.07,1729417630475.0,0.0
-0.583849,-8.087741,-8.597411,42.139999,4.34,-1.12,1729417630494.0,0.0
1.067199,-5.388636,-10.030712,82.599998,63.07,1.12,1729417630514.0,0.0
0.545564,-3.101098,-4.606184,75.32,115.919998,9.52,1729417630534.0,0.0
-2.701497,-4.721039,7.420143,75.529999,96.949997,35.98,1729417630555.0,0.0
-3.713661,-5.084748,11.827723,59.779999,16.940001,43.470001,1729417630574.0,0.0
-2.579463,-7.365108,6.053841,4.13,-38.290001,23.17,1729417630593.0,0.0
-2.213361,-6.711867,0.031107,-92.82,-38.150002,-6.37,1729417630614.0,0.0
-1.18684,-7.293324,-9.327222,-113.889999,-78.610001,-27.02,1729417630634.0,0.0
-1.68694,-10.554741,-20.269602,-107.940002,-114.169998,-20.299999,1729417630654.0,0.0
-6.003592,-13.75873,-10.368099,-90.300003,-33.459999,-2.24,1729417630674.0,0.0
-8.090133,-13.639089,-15.117853,-23.52,102.760002,-14.49,1729417630694.0,0.0
-3.326023,-11.174481,-9.918249,107.239998,1.89,12.18,1729417630714.0,0.0
1.265803,-5.505885,-9.918249,94.849998,-10.5,12.74,1729417630734.0,0.0
0.550349,-7.068398,-8.556733,47.040001,116.199997,-14.21,1729417630755.0,0.0
-3.055635,-7.702496,3.996014,59.080002,146.860001,-12.95,1729417630776.0,0.0
-4.941179,-4.144369,9.200402,78.120003,46.48,23.66,1729417630796.0,0.0
-1.931008,-4.333402,5.742774,92.470001,-34.650002,21.42,1729417630816.0,0.0
-0.89013,-6.597012,3.672983,37.099998,-37.240002,10.85,1729417630835.0,0.0
-0.524028,-7.331609,0.167498,3.57,-54.740002,7.35,1729417630856.0,0.0
-1.045663,-7.444071,-4.82393,-17.5,-79.379997,13.37,1729417630874.0,0.0
-2.545963,-10.523634,-13.457234,-94.919998,-58.029999,8.4,1729417630894.0,0.0
-5.314459,-14.407186,-16.130018,-154.630005,1.05,-3.57,1729417630914.0,0.0
-7.506285,-14.000405,-13.296914,-47.950001,57.119999,-5.95,1729417630936.0,0.0
-4.292724,-10.19821,-7.977671,136.779999,30.309999,15.05,1729417630957.0,0.0
-1.612763,-6.281159,-5.580062,136.430008,-32.830002,12.04,1729417630976.0,0.0
-1.12702,-5.312066,-6.228518,32.34,7.0,-6.44,1729417630996.0,0.0
-1.07677,-7.982457,-8.815158,-2.66,93.099998,-32.970001,1729417631021.0,0.0
-3.699304,-9.753145,-4.158726,31.639999,133.559998,-6.79,1729417631035.0,0.0
-5.769095,-9.382257,1.911865,66.57,113.470001,14.77,1729417631059.0,0.0
-3.634698,-8.84148,0.16989,88.480003,58.380001,26.32,1729417631077.0,0.0
-1.61037,-8.760124,1.744368,186.690002,4.62,32.27,1729417631094.0,0.0
-1.619941,-8.506484,2.928815,216.790009,-5.88,39.48,1729417631114.0,0.0
-2.055435,-11.002198,1.452443,241.290009,-8.89,32.900002,1729417631137.0,0.0
-1.143769,-11.897114,-2.22054,304.709991,-8.82,42.98,1729417631157.0,0.0
-0.212961,-10.561919,-1.160519,436.23999,-0.84,95.480003,1729417631178.0,0.0
0.193819,-8.690732,1.471586,475.089996,-5.46,106.330002,1729417631196.0,0.0
-0.239282,-5.948557,3.574877,380.940002,4.41,74.480003,1729417631216.0,0.0
-1.993221,-9.920642,4.268795,257.600006,28.98,59.920002,1729417631237.0,0.0
-1.804188,-12.756138,1.019342,222.669998,59.290001,14.91,1729417631258.0,0.0
-2.364109,-8.437093,2.435893,250.110001,51.099998,19.460001,1729417631275.0,0.0
-4.414758,-5.436492,5.704489,196.210007,74.340004,54.110001,1729417631296.0,0.0
-5.417351,-2.957529,4.591826,135.380005,80.43,30.1,1729417631316.0,0.0
-7.420143,-6.563512,3.39063,95.199997,77.419998,21.629999,1729417631335.0,0.0
-8.312666,-9.188439,3.735196,136.430008,70.419998,21.42,1729417631358.0,0.0
-5.699703,-3.103491,7.668997,178.570007,-19.530001,26.67,1729417631376.0,0.0
-4.419543,-2.691926,7.929814,67.550003,-8.75,-5.11,1729417631396.0,0.0
-5.307281,-3.888337,6.24766,3.29,23.52,-0.28,1729417631417.0,0.0
-5.601598,-3.792624,5.479564,9.17,20.02,0.63,1729417631437.0,0.0
-4.843073,-4.603791,5.113462,0.07,6.51,-11.13,1729417631458.0,0.0
-4.393222,-5.271388,6.439085,-9.66,9.1,-24.92,1729417631475.0,0.0
-5.029713,-5.79781,7.326823,-15.05,19.879999,-25.129999,1729417631496.0,0.0
-4.945964,-6.23091,6.9009,-18.34,14.7,-26.530001,1729417631517.0,0.0
-4.73061,-6.793223,6.374479,-9.24,0.07,-25.549999,1729417631537.0,0.0
-4.606184,-6.180661,6.171089,7.63,-12.32,-23.799999,1729417631558.0,0.0
-4.563113,-5.919843,9.609575,52.290001,-40.040001,-22.4,1729417631577.0,0.0
-4.414758,-3.290131,12.035898,87.989998,-76.860001,-8.68,1729417631597.0,0.0
-2.840281,0.37328,6.585048,28.559999,-80.150002,-19.74,1729417631618.0,0.0
-4.816752,-5.194818,4.898108,-57.610001,-17.92,-38.290001,1729417631639.0,0.0
-5.008178,-8.489735,4.323831,-76.300003,4.27,-45.5,1729417631657.0,0.0
-4.721039,-4.728218,8.346166,20.02,-47.32,-14.77,1729417631678.0,0.0
-4.54397,-2.292324,9.736395,-2.1,-41.860001,-4.13,1729417631697.0,0.0
-3.692125,-1.981257,6.400801,-74.830002,-31.43,-3.15,1729417631716.0,0.0
-3.005385,-4.074977,4.285545,-106.470001,-24.08,18.620001,1729417631741.0,0.0
-2.610569,-7.022934,3.507878,-82.739998,-23.450001,29.120001,1729417631757.0,0.0
-3.383451,-9.238688,5.108676,-44.939999,-9.66,42.77,1729417631777.0,0.0
-3.775874,-11.100305,9.777073,14.84,-6.37,56.560001,1729417631798.0,0.0
-3.333202,-8.224132,9.24108,50.68,6.72,37.099998,1729417631817.0,0.0
-4.115655,-5.123034,8.38445,86.590004,39.549999,37.73,1729417631837.0,0.0
-3.168097,-5.728417,6.041877,61.110001,35.490002,28.0,1729417631858.0,0.0
-2.397608,-6.513263,7.381857,37.59,16.870001,7.14,1729417631877.0,0.0
-3.806981,-7.200003,8.26481,34.23,40.950001,-2.03,1729417631898.0,0.0
-6.489335,-5.012963,9.822537,45.709999,65.309998,-10.64,1729417631917.0,0.0
-7.470392,-4.134798,9.693325,34.93,24.290001,-19.389999,1729417631937.0,0.0
-5.383851,-3.079563,8.157133,25.059999,-25.620001,-41.16,1729417631958.0,0.0
-3.756732,-3.718446,6.403193,32.970001,-56.630001,-31.639999,1729417631977.0,0.0
-4.048656,-1.792224,6.080163,29.26,-44.799999,-27.09,1729417631997.0,0.0
-4.522435,-0.744168,4.953143,-27.719999,-31.57,-19.530001,1729417632017.0,0.0
-4.56072,-5.395815,5.941379,-32.27,-58.73,-13.3,1729417632038.0,0.0
-3.433701,-7.858029,6.07777,-17.85,-63.420002,-9.31,1729417632058.0,0.0
-4.007978,-5.067998,5.496314,-12.04,-51.52,12.46,1729417632077.0,0.0
-3.337988,-5.460421,6.149554,-44.170002,-65.239998,1.05,1729417632096.0,0.0
-2.87378,-6.151947,6.989435,-64.400002,-76.860001,-0.98,1729417632116.0,0.0
-3.101098,-5.915058,9.913465,-75.459999,-82.669998,14.14,1729417632137.0,0.0
-1.124627,-4.711468,8.894121,-153.860001,-85.190002,15.12,1729417632168.0,0.0
-1.792224,-6.309873,7.298109,-168.559998,-33.040001,25.969999,1729417632181.0,0.0
-1.926222,-8.319844,7.283752,-77.139999,-27.370001,50.610001,1729417632197.0,0.0
-1.904687,-7.470392,3.541377,18.34,26.32,73.919998,1729417632217.0,0.0
-3.352344,-8.279166,4.321437,101.57,82.879997,49.209999,1729417632237.0,0.0
-3.48395,-6.994221,7.642675,122.709999,97.720001,19.040001,1729417632259.0,0.0
-4.677969,-8.729016,10.628918,118.860001,81.199997,1.61,1729417632277.0,0.0
-3.668197,-11.002198,6.396015,128.169998,96.739998,-21.07,1729417632298.0,0.0
-4.558327,-3.285345,7.271788,168.559998,100.099998,-3.29,1729417632317.0,0.0
-4.752146,1.222732,8.79123,109.900002,60.130001,-35.84,1729417632337.0,0.0
-3.371487,-6.046663,6.223732,62.439999,39.619999,-62.23,1729417632369.0,0.0
-4.089334,-3.584448,6.479764,66.709999,35.84,-35.07,1729417632376.0,0.0
-6.001199,2.868994,8.547162,51.029999,32.27,-8.82,1729417632397.0,0.0
-6.381658,0.911665,9.10469,3.5,-12.11,-10.43,1729417632416.0,0.0
-4.244867,-4.156333,5.525027,-89.18,-69.230003,-24.5,1729417632437.0,0.0
-4.053442,-7.255038,4.855037,-79.870003,-74.900002,-20.23,1729417632531.0,0.0
-6.309873,-5.503492,6.183054,-45.290001,-82.599998,-2.66,1729417632543.0,0.0
-3.127419,-3.936193,6.860222,-56.77,-112.139999,-7.77,1729417632544.0,0.0
-1.268196,-4.843073,6.541977,-95.620003,-104.790001,1.54,1729417632545.0,0.0
-3.218346,-5.996413,6.991827,-147.839996,-69.230003,22.4,1729417632546.0,0.0
-2.545963,-6.786045,7.611568,-177.169998,-79.660004,30.52,1729417632557.0,0.0
-1.557728,-6.707082,8.642875,-220.149994,-79.660004,39.970001,1729417632577.0,0.0
-0.579063,-10.159925,6.376873,-246.889999,-44.099998,43.259998,1729417632595.0,0.0
-1.813759,-14.167902,4.811966,-84.349998,60.27,54.950001,1729417632616.0,0.0
-4.342973,-6.250053,5.800202,109.760002,85.260002,23.450001,1729417632637.0,0.0
-3.17049,-2.275574,6.819544,171.009995,68.949997,22.75,1729417632657.0,0.0
-2.115255,-9.671788,8.975478,123.970001,93.169998,0.35,1729417632676.0,0.0
-4.771288,-6.999006,5.089533,140.0,151.690002,-6.65,1729417632696.0,0.0
-7.042077,0.344566,7.082755,135.800003,133.699997,6.79,1729417632716.0,0.0
-4.955536,-1.241875,8.437093,61.32,17.639999,-39.689999,1729417632737.0,0.0
-2.656033,-4.867002,7.484749,2.94,-1.19,-51.029999,1729417632758.0,0.0
-3.244668,-3.165704,6.941578,10.29,3.85,-6.37,1729417632777.0,0.0
-5.020142,-2.48375,6.721439,-28.49,13.440001,0.07,1729417632796.0,0.0
-6.812366,-4.34058,4.859823,-80.080002,-1.19,-9.87,1729417632816.0,0.0
-6.324231,-6.628119,3.20399,-111.790001,-51.450001,-6.93,1729417632836.0,0.0
-4.388437,-8.638089,4.443472,-102.480003,-99.959999,3.64,1729417632857.0,0.0
-3.936193,-6.774081,5.948557,-64.889999,-93.660004,20.93,1729417632876.0,0.0
-3.931407,-4.752146,4.599005,-95.550003,-90.440002,25.83,1729417632896.0,0.0
-2.998207,-7.051648,4.85743,-154.559998,-104.720001,21.280001,1729417632916.0,0.0
-1.081556,-7.530212,5.682954,-236.460007,-125.440002,9.73,1729417632937.0,0.0
-1.004985,-8.346166,6.692725,-292.390015,-134.820007,20.23,1729417632957.0,0.0
-2.694318,-8.118847,4.558327,-285.179993,-106.190002,32.970001,1729417632976.0,0.0
-2.335395,-7.37468,5.402994,-247.380005,-92.610001,40.950001,1729417632996.0,0.0
-2.828316,-8.946764,5.438886,-285.110016,-69.300003,47.670002,1729417633017.0,0.0
-3.177669,-9.889536,4.237689,-355.529999,-44.099998,27.719999,1729417633037.0,0.0
-3.359523,-9.317651,2.091327,-408.309998,-9.17,17.43,1729417633065.0,0.0
-3.323631,-7.539784,0.318245,-409.920013,6.16,2.17,1729417633076.0,0.0
-2.78046,-5.572884,-0.870987,-436.450012,8.89,-16.030001,1729417633096.0,0.0
-2.270789,-6.199803,-3.883551,-446.880005,17.219999,-15.75,1729417633117.0,0.0
-2.555535,-6.556334,-6.192625,-439.880005,42.420002,-25.83,1729417633136.0,0.0
-3.818945,-6.721439,-7.034898,-396.549988,21.629999,-34.580002,1729417633157.0,0.0
-3.304488,-8.102098,-8.937192,-361.619995,-25.34,-60.619999,1729417633180.0,0.0
-2.021935,-7.738388,-10.822738,-295.890015,-35.490002,-45.57,1729417633196.0,0.0
-1.488336,-6.379266,-12.535997,-204.610001,-23.030001,-22.960001,1729417633218.0,0.0
-1.691726,-5.948557,-9.47797,-123.129997,-0.84,-14.07,1729417633238.0,0.0
-2.349752,-6.448657,-9.159724,-103.389999,17.780001,-6.23,1729417633259.0,0.0
-2.009971,-6.441479,-9.49472,-69.720001,13.23,-13.09,1729417633277.0,0.0
-2.538785,-3.900301,-7.283752,-53.200001,3.71,1.19,1729417633297.0,0.0
-2.321038,-3.091527,-9.202796,-63.84,9.59,-1.33,1729417633318.0,0.0
-2.768496,-6.242875,-7.982457,-58.099998,-2.1,-0.49,1729417633337.0,0.0
-2.488536,-7.130611,-8.535198,-20.299999,-8.89,9.17,1729417633358.0,0.0
-2.146362,-4.814359,-8.937192,10.92,2.24,13.3,1729417633378.0,0.0
-2.754139,-4.56072,-9.789038,-2.59,15.47,9.73,1729417633398.0,0.0
-2.847459,-4.869394,-10.650455,1.26,18.690001,-0.21,1729417633418.0,0.0
-2.900101,-2.519642,-8.599805,72.940002,13.65,43.259998,1729417633439.0,0.0
-3.031706,-1.115055,-8.147561,93.660004,34.299999,78.540001,1729417633461.0,0.0
-4.766503,-0.849452,-5.848059,20.370001,63.630001,81.480003,1729417633480.0,0.0
-4.498507,-4.895715,-7.68096,-26.67,24.360001,30.940001,1729417633498.0,0.0
-4.254438,-4.115655,-4.555934,-40.389999,-12.04,46.060001,1729417633518.0,0.0
-1.146162,-9.686146,-6.357729,-107.520004,-75.599998,-21.700001,1729417633538.0,0.0
0.275175,-13.208381,-11.310873,-136.919998,-69.300003,-44.310001,1729417633559.0,0.0
-0.421137,-7.786245,-12.311072,-5.25,-16.309999,-27.02,1729417633579.0,0.0
-3.644269,-3.428915,-8.638089,74.690002,58.869999,-20.790001,1729417633597.0,0.0
-4.168297,-2.823531,-6.125626,30.66,26.809999,-16.59,1729417633619.0,0.0
-2.986243,-2.036292,-6.4678,10.5,-24.43,-6.51,1729417633638.0,0.0
-2.342573,-4.273581,-9.308081,-26.74,-32.619999,-18.76,1729417633660.0,0.0
-2.105684,-8.015956,-12.806387,-5.32,-5.11,-40.040001,1729417633678.0,0.0
-2.57707,-6.56112,-11.877973,55.650002,13.16,-22.75,1729417633698.0,0.0
-2.438286,-1.189233,-6.630512,93.519997,-2.1,-3.71,1729417633718.0,0.0
-2.943172,0.167498,-8.269595,70.489998,-13.86,16.66,1729417633738.0,0.0
-2.431108,-4.462614,-9.939785,-14.84,14.49,-32.759998,1729417633760.0,0.0
-2.218147,-7.738388,-9.999605,-21.49,-3.08,-37.240002,1729417633784.0,0.0
-1.612763,-5.826523,-8.212167,-4.34,-38.5,-26.18,1729417633798.0,0.0
-2.177469,-4.287938,-4.445865,-19.32,-44.450001,-35.490002,1729417633817.0,0.0
-2.562713,-4.859823,-5.63749,-45.290001,-25.41,-45.43,1729417633838.0,0.0
-2.498107,-5.625526,-12.181859,-11.62,9.66,-44.73,1729417633860.0,0.0
-3.902694,-3.290131,-10.286745,29.68,7.98,-19.6,1729417633878.0,0.0
-3.76391,-1.572084,-6.735795,22.610001,-28.77,9.38,1729417633898.0,0.0
-1.189233,-4.536791,-8.212167,-15.68,-46.619999,-4.41,1729417633918.0,0.0
-1.404587,-8.51127,-7.877172,-6.58,-17.639999,-16.309999,1729417633938.0,0.0
-2.727818,-5.345565,-7.676175,34.720001,-23.379999,-13.16,1729417633960.0,0.0
-3.404987,-2.926422,-8.013563,81.550003,-24.57,3.71,1729417633978.0,0.0
-3.28056,-4.926822,-8.405986,76.019997,-14.35,8.05,1729417633998.0,0.0
-3.668197,-6.419943,-8.848659,88.620003,-3.01,12.39,1729417634018.0,0.0
-3.701697,-5.391029,-7.503892,104.230003,-15.47,19.18,1729417634038.0,0.0
-2.155933,-5.347959,-5.800202,102.480003,-30.799999,27.16,1729417634058.0,0.0
-2.026721,-6.240481,-7.034898,81.129997,-5.39,26.530001,1729417634078.0,0.0
-3.783052,-8.458629,-8.355737,85.959999,30.59,10.08,1729417634098.0,0.0
-4.185047,-9.119047,-6.515656,121.660004,7.7,14.49,1729417634119.0,0.0
-1.765903,-7.097112,-5.831308,178.430008,-13.16,33.389999,1729417634138.0,0.0
-2.988636,-6.63769,-4.680361,183.610001,31.360001,41.369999,1729417634169.0,0.0
-4.139583,-8.539984,-3.917051,143.639999,68.669998,37.799999,1729417634182.0,0.0
-3.440879,-9.202796,-4.027121,113.540001,70.840004,45.009998,1729417634197.0,0.0
-3.156133,-7.91785,-5.314459,102.970001,77.489998,48.02,1729417634217.0,0.0
-4.0008,-6.427122,-6.149554,80.849998,73.779999,45.290001,1729417634238.0,0.0
-5.099105,-7.472785,-7.91785,38.709999,38.290001,30.309999,1729417634259.0,0.0
-3.56052,-7.008578,-6.128019,-8.89,-21.49,26.110001,1729417634279.0,0.0
-3.180061,-8.470592,-5.292924,1.12,-12.32,17.290001,1729417634297.0,0.0
-3.718446,-7.345965,-4.694718,16.030001,3.15,0.77,1729417634318.0,0.0
-4.132405,-6.51087,-6.178268,4.62,-0.21,-1.75,1729417634338.0,0.0
-4.115655,-6.673582,-8.202596,-49.84,-12.25,-18.129999,1729417634359.0,0.0
-3.464807,-6.759724,-6.680761,-96.25,-20.860001,-24.01,1729417634378.0,0.0
-0.942772,-8.472985,-8.080563,-75.529999,-4.41,-13.02,1729417634397.0,0.0
-2.210968,-4.618148,-7.04447,-55.510002,48.580002,1.75,1729417634417.0,0.0
-3.144169,-3.333202,-7.793423,-88.900002,65.519997,7.98,1729417634438.0,0.0
-2.108077,-6.508478,-10.260423,-118.160004,68.459999,0.28,1729417634469.0,0.0
-1.292124,-8.9683,-10.614561,-56.209999,52.849998,0.49,1729417634478.0,0.0
-2.644069,-8.980263,-5.063213,74.900002,22.68,38.150002,1729417634498.0,0.0
-3.381058,-7.628319,-1.028914,164.779999,-7.21,48.16,1729417634517.0,0.0
-3.404987,-5.668597,-1.409373,152.600006,-6.93,26.6,1729417634537.0,0.0
-3.515057,-7.152147,-3.208775,83.230003,-5.67,13.16,1729417634558.0,0.0
-5.257031,-6.345766,-1.586441,49.07,-20.65,27.93,1729417634578.0,0.0
-5.015356,-9.963714,-2.366502,40.25,-13.440001,16.17,1729417634597.0,0.0
-5.647062,-12.086146,-6.62094,-20.09,19.460001,-7.0,1729417634618.0,0.0
