acc_x,acc_y,acc_z,gyr_x,gyr_y,gyr_z,timestamp,label
-5.867201,3.117848,-9.437292,-105.07,-105.840004,-1.05,1729428074988.0,0.0
-5.419744,3.529413,-14.184652,-283.360016,-117.529999,20.299999,1729428074988.0,0.0
-4.488935,-13.043276,-19.063618,-168.979996,-107.520004,-2.31,1729428074988.0,0.0
-5.989235,-3.850052,-13.789837,66.360001,-59.290001,-50.68,1729428075002.0,0.0
-9.128618,6.005985,-6.022735,43.959999,-26.6,-27.02,1729428075021.0,0.0
-6.551548,-1.043271,-11.023734,25.969999,-23.870001,26.950001,1729428075041.0,0.0
-3.878766,-2.081756,-10.076177,71.610001,-20.719999,12.25,1729428075061.0,0.0
-3.275774,-3.622734,-12.167502,66.43,-14.35,2.45,1729428075082.0,0.0
-5.32403,-6.62094,-15.263817,71.959999,11.76,-17.15,1729428075103.0,0.0
-5.972485,-5.888737,-14.534004,145.25,46.689999,-44.380001,1729428075121.0,0.0
-4.055835,-0.42353,-13.976478,260.26001,62.16,-59.57,1729428075141.0,0.0
-4.575077,4.455436,-9.142976,310.799988,76.019997,-52.990002,1729428075161.0,0.0
-6.762117,6.570691,0.100499,191.169998,66.919998,-1.19,1729428075182.0,0.0
-6.551548,-4.646862,-3.182454,-61.32,45.5,-12.11,1729428075201.0,0.0
-5.970093,-3.962514,-18.190239,-157.360001,36.540001,-31.639999,1729428075221.0,0.0
-0.887737,-12.94517,-21.879971,165.059998,17.92,-25.41,1729428075241.0,0.0
-3.5007,-2.206182,-1.887937,678.720032,107.800003,15.33,1729428075261.0,0.0
-9.018548,0.007178,3.797409,625.169983,144.550003,61.110001,1729428075282.0,0.0
-3.921836,-8.867801,-6.089733,-81.269997,12.6,-49.420002,1729428075302.0,0.0
-1.847259,-10.748559,-9.085547,-68.25,25.41,-29.889999,1729428075321.0,0.0
-2.98385,-9.506684,-6.185446,114.940002,58.029999,-9.52,1729428075341.0,0.0
-2.256432,-6.405586,-3.448057,226.660004,55.439999,-16.24,1729428075361.0,0.0
-2.299503,-6.297909,-2.423929,225.119995,38.709999,-8.19,1729428075382.0,0.0
-2.11047,-8.889337,-3.572484,200.479996,-0.63,-7.0,1729428075402.0,0.0
-3.574877,-9.750752,-4.766503,244.089996,2.8,5.46,1729428075421.0,0.0
-2.828316,-10.143176,-3.639483,377.299988,15.05,4.2,1729428075441.0,0.0
-3.795017,-7.453642,-0.078963,476.420013,57.049999,-0.49,1729428075461.0,0.0
-4.206582,-7.348359,1.837688,458.080017,53.970001,-6.65,1729428075482.0,0.0
-4.496114,-8.52802,3.024528,382.059998,48.16,-3.01,1729428075503.0,0.0
-2.433501,-9.74836,1.911865,355.73999,44.099998,-14.0,1729428075522.0,0.0
-2.39043,-7.178468,4.902894,348.670013,65.870003,-11.69,1729428075541.0,0.0
-3.125026,-6.075377,6.470192,280.209991,55.93,-14.49,1729428075560.0,0.0
-2.818745,-5.381458,7.405786,194.669998,42.630001,-15.05,1729428075583.0,0.0
-3.139383,-7.252645,6.285945,100.590004,17.639999,-5.53,1729428075602.0,0.0
-2.641676,-9.300901,3.491128,56.84,3.5,-3.22,1729428075621.0,0.0
-2.63689,-7.410572,4.957928,98.840004,23.870001,-9.66,1729428075641.0,0.0
-3.632305,-5.103891,7.159326,109.480003,31.08,-16.940001,1729428075663.0,0.0
-3.337988,-5.304887,7.094719,63.630001,19.74,-18.34,1729428075684.0,0.0
-3.534199,-6.283553,6.089733,5.67,7.98,-15.47,1729428075704.0,0.0
-2.85703,-7.259824,5.558527,-6.09,3.85,-15.61,1729428075722.0,0.0
-3.227918,-6.826723,5.757132,11.27,5.53,-13.3,1729428075741.0,0.0
-3.436093,-6.041877,6.570691,14.56,3.5,-10.15,1729428075761.0,0.0
-3.601198,-6.022735,6.862615,-6.23,-6.02,-5.39,1729428075783.0,0.0
-3.613162,-7.283752,5.24746,-34.790001,-17.92,-3.15,1729428075801.0,0.0
-3.366701,-7.056434,5.589634,-13.79,-12.11,-2.73,1729428075820.0,0.0
-3.838088,-5.02732,6.673582,-10.29,-0.63,-4.69,1729428075843.0,0.0
-4.132405,-6.611369,5.979663,-91.209999,-11.13,-10.64,1729428075861.0,0.0
-3.321238,-8.181061,6.54437,-136.360001,-13.23,-2.59,1729428075883.0,0.0
-3.239882,-7.463214,6.463014,-180.809998,-16.030001,-3.29,1729428075903.0,0.0
-2.435893,-5.178068,5.149354,-272.299988,-19.879999,-0.35,1729428075920.0,0.0
-2.837888,-4.756931,3.347559,-405.860016,-29.68,14.56,1729428075941.0,0.0
-3.136991,-8.169096,-0.148355,-571.200012,-53.48,36.540001,1729428075962.0,0.0
-3.251846,-8.504091,-2.383251,-600.950012,-44.380001,42.279999,1729428075985.0,0.0
-3.098706,-9.209974,-3.938586,-577.429993,-38.220001,39.200001,1729428076001.0,0.0
-4.718646,-9.339187,-4.919643,-522.200012,-34.860001,28.42,1729428076021.0,0.0
-5.649454,-9.265009,-6.51087,-434.980011,-46.130001,15.190001,1729428076043.0,0.0
-6.364908,-9.013763,-6.82433,-336.48999,-48.23,5.04,1729428076062.0,0.0
-6.338587,-7.733603,-7.252645,-260.610016,-38.849998,-8.68,1729428076082.0,0.0
-5.216353,-6.661618,-7.188039,-209.789993,-35.98,-19.809999,1729428076102.0,0.0
-4.285545,-5.405386,-6.872187,-164.850006,-29.049999,-22.75,1729428076120.0,0.0
-3.163311,-4.67079,-6.491727,-136.850006,-26.460001,-24.639999,1729428076142.0,0.0
-1.868794,-5.187639,-7.408179,-118.300003,-26.25,-31.92,1729428076160.0,0.0
-1.074377,-4.711468,-8.051848,-99.260002,-22.469999,-37.170002,1729428076184.0,0.0
-1.689333,-3.488736,-8.286345,-98.349998,-14.42,-29.610001,1729428076201.0,0.0
-2.502892,-3.531806,-8.420342,-121.239998,-10.08,-15.12,1729428076221.0,0.0
-2.790031,-3.249453,-8.439486,-132.440002,-10.36,-2.38,1729428076242.0,0.0
-2.998207,-3.39063,-9.272188,-123.480003,-9.17,5.39,1729428076262.0,0.0
-2.706282,-3.208775,-9.379865,-91.489998,-6.51,6.09,1729428076283.0,0.0
-3.620341,-2.691926,-9.250652,-22.610001,2.38,4.48,1729428076301.0,0.0
-4.058227,-2.244468,-9.169296,-32.48,7.56,3.15,1729428076320.0,0.0
-4.168297,-2.519642,-8.595018,-57.470001,6.3,6.3,1729428076342.0,0.0
-3.601198,-2.988636,-8.688338,-63.700001,0.56,8.19,1729428076362.0,0.0
-3.048456,-5.051248,-7.783852,-22.190001,-5.32,12.74,1729428076382.0,0.0
-3.335595,-7.999206,-4.460221,136.779999,-24.780001,9.8,1729428076401.0,0.0
-6.54437,-5.84088,-1.813759,233.240005,-31.92,-1.33,1729428076421.0,0.0
-5.668597,-8.539984,-12.576675,111.230003,-41.299999,-16.1,1729428076441.0,0.0
-3.84048,-4.718646,-16.47937,189.210007,-18.549999,-5.67,1729428076461.0,0.0
-5.4341,-5.438886,-12.634104,388.779999,41.509998,43.259998,1729428076482.0,0.0
-3.926622,-3.323631,-2.56032,438.059998,70.209999,33.389999,1729428076501.0,0.0
-6.331409,-4.718646,-1.964507,242.059998,51.450001,9.87,1729428076522.0,0.0
-9.025726,-18.833906,-8.037491,110.669998,-33.810001,-21.49,1729428076540.0,0.0
-6.664011,-5.54417,-9.796216,228.899994,26.74,-21.07,1729428076562.0,0.0
-13.727623,-21.707689,4.146761,205.029999,14.42,-19.460001,1729428076582.0,0.0
6.541977,-6.206983,-4.62054,717.640015,-31.57,-12.11,1729428076601.0,0.0
-19.817356,3.37388,4.151547,650.299988,147.210007,-79.029999,1729428076620.0,0.0
-1.194018,-12.476178,-6.766902,-49.84,-97.160004,-18.059999,1729428076641.0,0.0
-2.184647,-10.317852,-7.936993,45.849998,-56.349998,13.16,1729428076660.0,0.0
-12.404392,-6.23091,0.07657,131.320007,11.48,3.99,1729428076682.0,0.0
-5.742774,-4.469792,-4.989035,98.07,-6.37,-22.4,1729428076704.0,0.0
-12.129218,-9.224331,-4.182654,-2.45,68.739998,-41.439999,1729428076721.0,0.0
-7.525427,-6.489335,-3.749553,-98.840004,78.400002,-55.790001,1729428076742.0,0.0
-5.546563,-4.862216,-1.026521,-141.399994,82.389999,-43.82,1729428076760.0,0.0
1.588834,-6.13759,4.003192,-223.300003,44.450001,-31.639999,1729428076781.0,0.0
6.357729,-6.094519,7.664211,-276.5,26.6,-0.07,1729428076801.0,0.0
4.194618,-8.176274,3.574877,-314.440002,-5.11,13.440001,1729428076822.0,0.0
1.938186,-9.958927,-4.055835,-357.980011,-24.85,7.14,1729428076840.0,0.0
-0.715454,-20.432314,-7.850852,-230.089996,-60.27,-1.75,1729428076860.0,0.0
-2.143969,-4.534399,3.065206,-129.360001,-31.360001,-14.84,1729428076883.0,0.0
-2.979064,-9.174082,-6.52762,-397.73999,-88.480003,-40.389999,1729428076901.0,0.0
-1.141376,-4.845466,-8.748159,-416.220001,-91.910004,-50.610001,1729428076923.0,0.0
-6.240481,-6.218946,-2.68714,-350.209991,-71.75,-27.16,1729428076940.0,0.0
-7.771888,-5.996413,-10.767702,-209.300003,-72.029999,-17.43,1729428076960.0,0.0
-6.69751,-4.900501,-7.489535,-70.699997,-35.139999,-10.5,1729428076983.0,0.0
-5.020142,-1.179662,-4.821537,-146.020004,-44.310001,-9.8,1729428077001.0,0.0
-4.323831,1.507478,-5.513064,-223.089996,-70.279999,13.02,1729428077020.0,0.0
-4.07737,-2.864209,-11.062018,-184.940002,-83.510002,38.990002,1729428077040.0,0.0
-3.926622,-3.065206,-10.765309,-112.629997,-93.239998,25.27,1729428077061.0,0.0
-5.510671,-1.627119,-11.4353,-48.439999,-81.410004,22.75,1729428077083.0,0.0
-4.771288,-3.146562,-12.184253,-58.73,-63.07,19.67,1729428077102.0,0.0
-6.525227,-2.830709,-15.11546,7.56,-40.950001,25.969999,1729428077119.0,0.0
-8.870193,-3.795017,-10.181459,52.360001,-8.4,26.18,1729428077142.0,0.0
-7.855636,-3.814159,-9.982857,-14.49,1.19,2.87,1729428077160.0,0.0
-6.132804,-3.816552,-11.574083,-7.7,16.030001,-10.15,1729428077181.0,0.0
-6.285945,-4.443472,-13.323236,37.869999,47.670002,-13.23,1729428077202.0,0.0
-5.144568,-4.596612,-7.616355,99.889999,60.27,-34.02,1729428077221.0,0.0
-4.345366,-1.141376,1.581656,153.930008,70.349998,-51.310001,1729428077240.0,0.0
-4.098906,4.515256,-12.291929,174.229996,48.16,-19.110001,1729428077260.0,0.0
-6.01077,-8.362915,-1.45005,-20.58,51.939999,10.64,1729428077283.0,0.0
-2.486143,-24.492931,-26.909683,-7.21,37.52,-15.26,1729428077301.0,0.0
3.019742,-13.390236,-2.945565,413.839996,105.559998,-29.68,1729428077320.0,0.0
-12.641282,5.74756,5.71406,638.679993,123.129997,18.969999,1729428077340.0,0.0
-5.000999,-5.52742,-3.23031,381.709991,22.68,7.63,1729428077362.0,0.0
-3.347559,-8.176274,-3.981657,373.450012,34.299999,29.82,1729428077382.0,0.0
-9.365508,-5.520242,1.564906,373.589996,40.459999,39.200001,1729428077401.0,0.0
-6.183054,-5.740381,0.234497,235.339996,-4.06,0.91,1729428077420.0,0.0
-3.909872,-5.91745,-2.416751,120.68,-28.559999,-9.94,1729428077441.0,0.0
-3.60359,-6.400801,-0.768096,75.669998,-23.870001,8.96,1729428077460.0,0.0
-2.411965,-7.590034,-2.778067,1.96,-32.060001,11.55,1729428077484.0,0.0
-3.510271,-8.226524,-2.701497,24.99,-21.210001,29.26,1729428077501.0,0.0
-4.228118,-9.332008,-2.792424,46.689999,-17.43,42.139999,1729428077520.0,0.0
-5.407779,-10.226924,-1.722832,30.309999,-11.06,44.170002,1729428077541.0,0.0
-5.340781,-10.217353,-0.835095,-6.44,-9.1,26.25,1729428077561.0,0.0
-4.692325,-8.863015,-0.918844,-43.119999,-6.37,4.83,1729428077581.0,0.0
-3.682554,-8.671589,-2.435893,-72.660004,-12.32,-14.42,1729428077601.0,0.0
-2.222932,-7.566105,-4.23051,-63.84,-13.16,-19.950001,1729428077620.0,0.0
-2.79721,-7.79103,-3.716053,-49.560001,-10.15,0.56,1729428077641.0,0.0
-3.878766,-9.446864,-2.775674,-71.610001,-7.07,9.73,1729428077659.0,0.0
-4.76411,-10.234102,-2.330609,-108.360001,2.38,8.68,1729428077682.0,0.0
-5.048856,-10.566705,-2.845066,-156.100006,12.74,-2.38,1729428077704.0,0.0
-4.73061,-8.829515,-3.761517,-187.110001,12.6,-20.16,1729428077721.0,0.0
-4.328616,-7.362715,-5.333601,-199.220001,5.46,-32.27,1729428077741.0,0.0
-3.725625,-6.58744,-6.262017,-185.990005,0.14,-35.0,1729428077761.0,0.0
-2.979064,-6.300302,-6.958328,-169.680008,2.52,-28.280001,1729428077781.0,0.0
-2.648855,-6.628119,-7.719246,-170.029999,11.83,-18.969999,1729428077801.0,0.0
-3.182454,-6.218946,-6.668797,-217.210007,25.9,-9.45,1729428077822.0,0.0
-3.704089,-8.563912,-8.250452,-279.440002,17.08,-14.07,1729428077841.0,0.0
-3.110669,-9.365508,-8.719445,-221.830002,15.54,-13.86,1729428077861.0,0.0
-4.558327,-8.760124,-9.164511,-89.809998,34.790001,-18.690001,1729428077881.0,0.0
-5.089533,-7.135397,-10.298709,48.369999,50.330002,-28.35,1729428077900.0,0.0
-4.61097,-5.716454,-8.867801,165.199997,66.849998,-22.4,1729428077921.0,0.0
-3.536592,-4.577469,-7.396214,222.949997,72.379997,-16.17,1729428077940.0,0.0
-3.314059,-4.486543,-5.907879,203.630005,76.510002,-8.19,1729428077960.0,0.0
-3.534199,-5.453243,-5.860023,105.139999,70.699997,0.7,1729428077982.0,0.0
-3.282953,-6.999006,-8.068598,91.279999,62.439999,-0.35,1729428078000.0,0.0
-3.493521,-7.312466,-7.814958,120.330002,66.709999,4.48,1729428078022.0,0.0
-3.974478,-5.594419,-6.74776,119.980003,72.590004,2.38,1729428078041.0,0.0
-2.684747,-5.769095,-7.223931,73.220001,72.590004,-7.91,1729428078061.0,0.0
-0.653241,-5.197211,-6.939186,43.889999,80.709999,-0.21,1729428078081.0,0.0
1.330409,-6.087341,-5.067998,-8.19,80.43,6.86,1729428078100.0,0.0
2.897708,-7.623533,-5.608776,-63.84,69.860001,9.24,1729428078119.0,0.0
3.172883,-8.496914,-6.551548,-85.959999,67.830002,18.549999,1729428078140.0,0.0
3.962514,-8.745767,-7.898707,-91.0,66.080002,18.059999,1729428078159.0,0.0
3.438486,-7.939385,-7.879565,-91.419998,67.340004,20.93,1729428078181.0,0.0
2.122434,-8.525627,-8.341379,-120.330002,68.599998,17.57,1729428078201.0,0.0
1.567299,-7.463214,-7.834101,-147.0,65.590004,12.46,1729428078221.0,0.0
1.550549,-7.209574,-9.712467,-152.180008,56.420002,6.44,1729428078240.0,0.0
1.272982,-7.401,-9.877571,-81.480003,57.119999,12.88,1729428078260.0,0.0
0.471386,-6.21416,-8.843873,5.53,67.410004,20.16,1729428078285.0,0.0
-1.545763,-5.333601,-7.67139,21.84,64.68,28.07,1729428078301.0,0.0
-2.311467,-5.836094,-9.066404,-101.010002,46.970001,20.23,1729428078319.0,0.0
-2.22054,-5.599205,-9.779467,-125.650002,35.700001,22.4,1729428078340.0,0.0
-2.959922,-5.331209,-9.4349,-95.340004,37.099998,24.219999,1729428078360.0,0.0
-3.689733,-5.498707,-9.726824,-40.459999,39.34,25.76,1729428078382.0,0.0
-4.584648,-4.07737,-8.676375,-3.01,44.59,25.620001,1729428078402.0,0.0
-4.907679,-4.240082,-7.357929,-31.360001,46.689999,25.48,1729428078422.0,0.0
-3.412165,-5.596812,-7.609176,-59.080002,39.830002,21.700001,1729428078439.0,0.0
-3.546163,-5.036892,-7.156933,-37.240002,37.939999,12.6,1729428078459.0,0.0
-3.862016,-4.309474,-6.422336,-22.469999,36.959999,0.07,1729428078482.0,0.0
-3.505485,-4.474578,-6.788438,-29.75,31.5,-6.51,1729428078501.0,0.0
-3.835695,-4.945964,-7.310073,-54.670002,28.84,-10.36,1729428078520.0,0.0
-2.737389,-3.957729,-8.255238,-68.599998,23.24,-13.23,1729428078540.0,0.0
-2.689533,-4.986642,-8.585447,-40.740002,21.77,-7.42,1729428078559.0,0.0
-3.04367,-4.76411,-7.211967,-10.78,23.309999,-11.13,1729428078583.0,0.0
-2.854637,-4.173083,-7.633104,-21.559999,19.460001,-13.93,1729428078601.0,0.0
-2.572284,-3.471986,-8.372486,-39.619999,13.79,-11.13,1729428078622.0,0.0
-1.643869,-3.708875,-8.116454,-28.77,8.75,-3.57,1729428078639.0,0.0
-1.208375,-4.591826,-8.226524,-8.12,0.28,2.31,1729428078660.0,0.0
-0.480957,-4.431508,-8.628519,1.12,-5.32,-0.49,1729428078681.0,0.0
-0.162712,-4.462614,-9.332008,-10.08,-7.42,-4.27,1729428078704.0,0.0
0.0335,-4.297509,-9.54497,-21.42,-8.4,-6.37,1729428078720.0,0.0
-0.174676,-4.558327,-10.021141,-17.780001,-9.66,-6.44,1729428078739.0,0.0
-0.007178,-3.926622,-10.200603,6.16,-12.74,-6.16,1729428078759.0,0.0
-0.026321,-3.737589,-10.514063,18.83,-14.07,-2.87,1729428078787.0,0.0
-0.935594,-4.005585,-10.150353,-11.06,-7.7,-3.57,1729428078801.0,0.0
-1.61037,-4.800002,-10.033106,-39.200001,0.42,-9.59,1729428078822.0,0.0
-2.395216,-4.761717,-9.693325,-22.75,10.08,-19.950001,1729428078839.0,0.0
-2.160719,-4.189832,-10.035499,15.89,16.030001,-30.380001,1729428078859.0,0.0
-0.9667,-3.689733,-9.729217,47.25,20.370001,-31.92,1729428078882.0,0.0
-1.014557,-2.600998,-9.516255,52.220001,24.99,-28.280001,1729428078901.0,0.0
-1.392623,-2.768496,-9.726824,2.8,29.33,-24.92,1729428078919.0,0.0
-1.421337,-3.766303,-10.693524,-32.060001,35.560001,-27.09,1729428078939.0,0.0
-1.165305,-3.701697,-10.449455,13.440001,41.860001,-31.710001,1729428078960.0,0.0
-1.655833,-3.574877,-10.990234,86.309998,50.540001,-31.710001,1729428078980.0,0.0
-2.036292,-3.376273,-11.152946,89.110001,63.349998,-30.309999,1729428078999.0,0.0
-0.945165,-5.237889,-3.495914,77.07,62.93,-27.23,1729428079019.0,0.0
0.993021,-11.724831,-3.012564,134.330002,14.07,-32.689999,1729428079039.0,0.0
0.222532,-0.567099,-2.976671,181.229996,-5.6,-52.009998,1729428079061.0,0.0
2.734996,-3.9338,-6.582655,127.82,-37.240002,-25.83,1729428079082.0,0.0
3.914658,-7.616355,-3.15374,246.960007,-64.400002,1.68,1729428079113.0,0.0
-3.237489,-4.333402,-2.706282,262.220001,-81.269997,-0.14,1729428079119.0,0.0
-6.673582,-6.084948,-13.036098,44.450001,-97.580002,-14.77,1729428079140.0,0.0
-9.84168,-3.60359,-17.998812,-76.580002,-42.560001,-17.219999,1729428079159.0,0.0
1.435694,-7.865208,-16.735401,47.18,10.85,33.18,1729428079180.0,0.0
-1.825724,-0.717847,-11.712867,164.430008,68.739998,73.779999,1729428079201.0,0.0
6.565905,-4.223332,-9.77468,28.139999,65.730003,70.139999,1729428079219.0,0.0
10.224532,-11.954542,0.425922,-32.41,58.099998,67.550003,1729428079240.0,0.0
11.196017,-13.000205,11.100305,76.019997,16.870001,53.48,1729428079260.0,0.0
3.895515,-13.294522,6.656832,69.090004,-43.68,4.48,1729428079281.0,0.0
3.15374,-9.568897,1.210768,12.11,-118.650002,6.09,1729428079299.0,0.0
0.933201,-6.721439,-13.811372,-89.529999,-189.559998,-11.2,1729428079320.0,0.0
-11.679367,-8.49452,-22.669601,-143.430008,-137.550003,-2.52,1729428079339.0,0.0
-16.553547,-2.230111,-29.048864,-139.369995,-24.85,-0.28,1729428079360.0,0.0
-2.134398,3.495914,-15.393027,13.09,72.800003,29.120001,1729428079381.0,0.0
0.11007,-5.316852,-8.209774,-58.939999,93.730003,34.860001,1729428079400.0,0.0
5.362316,-5.35753,-6.324231,-94.220001,78.050003,27.370001,1729428079420.0,0.0
9.004191,-8.683553,5.173282,-19.32,59.360001,42.349998,1729428079441.0,0.0
6.594619,-14.660825,6.936793,37.939999,1.26,30.52,1729428079461.0,0.0
0.162712,-8.446664,5.041678,-8.33,-71.470001,-19.950001,1729428079481.0,0.0
2.727818,-6.065805,-2.749353,-75.739998,-148.820007,-39.27,1729428079504.0,0.0
-1.222732,-2.081756,-19.877178,-147.279999,-170.729996,-35.139999,1729428079519.0,0.0
-16.900507,-8.23131,-22.437496,-258.089996,-98.139999,-29.190001,1729428079540.0,0.0
-11.294124,-4.151547,-19.898712,-125.720001,-6.3,-27.65,1729428079561.0,0.0
0.964308,4.110869,-10.765309,33.110001,40.110001,-1.26,1729428079580.0,0.0
0.358923,-2.129612,-12.23211,-105.769997,49.209999,0.42,1729428079601.0,0.0
2.885744,-6.293124,-7.566105,-53.27,55.09,3.57,1729428079618.0,0.0
5.501099,-10.001998,3.534199,111.790001,41.509998,6.93,1729428079638.0,0.0
2.548356,-4.027121,2.945565,60.27,-30.24,-41.23,1729428079659.0,0.0
1.368695,-5.419744,-0.210568,-65.870003,-91.559998,-36.189999,1729428079681.0,0.0
3.63709,-6.580262,-11.097912,-107.870003,-141.190002,-37.310001,1729428079702.0,0.0
-8.379664,-4.151547,-14.565112,-113.959999,-114.239998,-33.459999,1729428079719.0,0.0
-17.737993,-4.017549,-25.536201,-106.68,-60.48,-41.720001,1729428079740.0,0.0
-3.270989,0.653241,-11.509477,100.239998,14.98,-19.110001,1729428079760.0,0.0
-0.528814,-1.287339,-12.906885,7.7,35.209999,-11.76,1729428079779.0,0.0
-1.430908,-3.601198,-15.615561,-55.93,55.860001,-9.8,1729428079801.0,0.0
0.856631,-3.168097,-0.981057,26.110001,65.519997,-8.19,1729428079819.0,0.0
0.447458,-7.776673,-5.412565,-38.849998,39.759998,-33.18,1729428079838.0,0.0
2.74696,-2.962314,-3.536592,-120.82,16.1,-76.300003,1729428079859.0,0.0
2.069792,-3.35713,-6.321837,-123.900002,-7.28,-77.139999,1729428079882.0,0.0
1.823331,-3.23031,-6.699903,-103.529999,-17.219999,-57.189999,1729428079901.0,0.0
2.041078,-2.0004,-6.661618,-139.229996,-30.309999,-57.189999,1729428079920.0,0.0
1.095913,0.069392,-7.946564,-171.220001,-48.09,-49.91,1729428079989.0,0.0
-2.411965,-3.443272,-8.324631,-181.369995,-59.990002,-28.280001,1729428080025.0,0.0
-2.56032,-5.548956,-13.031311,-107.449997,-68.949997,-2.94,1729428080026.0,0.0
-1.469193,-3.306881,-13.85205,-54.810001,-82.32,-8.89,1729428080026.0,0.0
-1.20359,-2.234896,-18.520447,6.93,-75.25,-27.09,1729428080039.0,0.0
-1.643869,-4.575077,-16.744972,103.879997,-57.889999,-23.24,1729428080059.0,0.0
-0.801596,-4.608576,-12.086146,408.23999,-1.12,-4.9,1729428080082.0,0.0
-2.667997,-4.256832,-10.49492,554.049988,3.64,5.32,1729428080100.0,0.0
-5.166104,-6.197411,-12.96192,645.820007,-0.07,24.85,1729428080118.0,0.0
-10.408779,-0.885344,-12.143576,587.580017,30.52,39.970001,1729428080138.0,0.0
-2.09372,-6.364908,-3.270989,561.190002,42.77,11.48,1729428080160.0,0.0
-6.692725,-9.355937,-0.409173,506.309998,83.300003,-25.83,1729428080180.0,0.0
-6.78126,-11.34198,0.052642,398.790009,77.489998,-56.279999,1729428080199.0,0.0
-2.684747,-11.239087,-2.287539,409.920013,94.57,-38.150002,1729428080219.0,0.0
-5.28096,-8.566305,-0.160319,430.080017,125.650002,-52.080002,1729428080241.0,0.0
-2.67039,-1.40698,4.563113,380.660004,148.259995,-41.439999,1729428080258.0,0.0
-1.021735,-1.227518,5.836094,242.270004,112.699997,-35.630001,1729428080280.0,0.0
1.048056,-6.556334,8.831908,219.520004,112.770004,-3.08,1729428080300.0,0.0
-2.084148,-5.804988,9.238688,259.0,95.480003,2.73,1729428080318.0,0.0
-2.155933,-8.020741,6.376873,314.160004,71.330002,3.71,1729428080339.0,0.0
-3.244668,-6.094519,7.233503,386.399994,92.610001,2.8,1729428080358.0,0.0
-4.778467,-5.955735,8.487342,348.950012,95.410004,-18.200001,1729428080380.0,0.0
-4.642076,-6.63769,7.281359,302.119995,79.519997,-10.29,1729428080400.0,0.0
-2.311467,-5.084748,7.858029,316.049988,81.900002,-2.87,1729428080418.0,0.0
-3.141776,-5.242674,10.303494,249.550003,67.550003,3.36,1729428080438.0,0.0
-2.806781,-7.030113,10.444671,156.800003,43.189999,3.08,1729428080458.0,0.0
-1.622334,-5.216353,9.638289,131.110001,26.389999,-10.15,1729428080482.0,0.0
-1.588834,-4.302295,9.32483,112.349998,8.19,-30.870001,1729428080499.0,0.0
-2.349752,-3.440879,10.504492,100.099998,-5.53,-36.049999,1729428080519.0,0.0
-1.914258,-3.87398,11.227123,78.75,-24.219999,-42.700001,1729428080538.0,0.0
-0.973879,-3.318845,10.231709,58.939999,-31.85,-55.23,1729428080559.0,0.0
-0.399601,-0.42353,8.255238,52.920002,-27.719999,-57.470001,1729428080580.0,0.0
-1.311267,4.73061,8.085347,54.389999,-27.16,-36.189999,1729428080603.0,0.0
-4.74736,4.218546,6.881758,38.360001,-43.82,7.0,1729428080849.0,0.0
-4.890929,-0.911665,3.572484,24.5,-26.74,20.790001,1729428080849.0,0.0
-4.675575,-7.499106,9.690931,-43.330002,-13.65,12.74,1729428080850.0,0.0
-6.723832,-6.391229,9.4349,16.52,-8.47,4.41,1729428080850.0,0.0
-2.354537,-2.70389,8.757731,13.58,-28.07,-21.42,1729428080850.0,0.0
-4.867002,-0.81356,9.071191,9.94,-45.920002,-34.09,1729428080850.0,0.0
-1.677369,4.326223,9.865608,11.41,-22.889999,-14.21,1729428080850.0,0.0
-1.459622,6.175875,10.159925,7.35,-22.26,25.690001,1729428080851.0,0.0
0.756132,-0.524028,6.752545,-63.560001,-38.5,27.58,1729428080863.0,0.0
-1.674976,-5.245068,7.233503,-65.379997,-17.99,27.440001,1729428080863.0,0.0
-2.768496,-3.881158,8.152347,-26.950001,11.9,-6.37,1729428080864.0,0.0
-2.435893,-4.156333,10.004392,-2.8,20.65,-11.83,1729428080864.0,0.0
-2.699104,-3.541377,8.54477,-13.58,7.84,-31.85,1729428080994.0,0.0
-5.072784,-1.40698,10.633704,30.030001,3.29,-23.73,1729428080995.0,0.0
2.801995,5.639884,9.073583,70.489998,-5.67,2.73,1729428080995.0,0.0
-8.236095,0.634098,7.458428,90.580002,-25.059999,-2.87,1729428080995.0,0.0
-3.689733,1.323231,9.190832,59.290001,21.210001,11.06,1729428080995.0,0.0
0.98345,-3.084348,7.716853,-11.9,10.08,15.26,1729428080995.0,0.0
-1.732404,-4.895715,9.619147,-7.63,18.690001,6.44,1729428080996.0,0.0
-2.770889,-0.942772,10.186246,-0.84,18.129999,-14.42,1729428081002.0,0.0
-2.419144,-1.904687,11.009377,-18.059999,-2.52,-13.79,1729428081017.0,0.0
-1.270589,-4.539185,9.200402,-29.049999,-19.32,-34.299999,1729428081039.0,0.0
-4.393222,-1.842474,9.607183,21.77,-12.88,-28.77,1729428081086.0,0.0
-3.546163,5.491528,7.228717,31.43,-12.81,-19.32,1729428081087.0,0.0
2.538785,5.185246,7.211967,33.880001,-14.77,28.559999,1729428081100.0,0.0
-7.077969,-1.138984,9.516255,23.309999,-12.04,25.48,1729428081119.0,0.0
-3.656233,-2.194218,8.310273,-28.84,2.45,26.74,1729428081139.0,0.0
-0.622134,-3.54377,8.35813,-31.360001,3.43,27.23,1729428081158.0,0.0
-1.584049,-4.481757,9.334401,-22.75,11.83,8.47,1729428081181.0,0.0
-2.443072,-1.811367,9.834501,-23.1,13.86,-10.64,1729428081200.0,0.0
-2.914458,-1.734797,10.978271,-27.860001,1.89,-9.45,1729428081220.0,0.0
0.222532,-5.268995,7.946564,-35.560001,-9.59,-29.610001,1729428081240.0,0.0
-4.596612,1.579263,9.482756,17.290001,6.23,-25.48,1729428081262.0,0.0
-2.457429,6.238089,9.236296,16.799999,-4.06,8.4,1729428081281.0,0.0
-6.07777,-4.345366,10.82513,16.309999,-23.66,25.059999,1729428081301.0,0.0
-5.843273,-1.569692,10.286745,33.880001,-23.66,19.879999,1729428081319.0,0.0
-3.672983,-1.225125,8.559127,-20.58,0.91,20.370001,1729428081339.0,0.0
-0.401994,-2.876173,9.425328,-44.66,-4.34,28.42,1729428081359.0,0.0
-1.672583,-3.615555,9.097511,-33.599998,-3.85,9.38,1729428081381.0,0.0
-2.787638,-1.289732,10.013963,-73.43,0.63,0.49,1729428081400.0,0.0
-2.359323,0.222532,9.202796,-201.460007,-13.72,-5.95,1729428081421.0,0.0
-0.904487,-1.998007,6.948757,-318.01001,-17.01,8.68,1729428081440.0,0.0
-0.495314,0.18664,7.463214,-387.660004,-18.059999,22.75,1729428081459.0,0.0
-2.529213,1.241875,6.013163,-446.880005,-13.65,63.139999,1729428081485.0,0.0
-3.270989,-2.143969,3.177669,-572.179993,-26.880001,77.419998,1729428081500.0,0.0
-3.309274,-9.071191,4.962714,-719.880005,-44.869999,81.620003,1729428081522.0,0.0
-4.699504,-8.664411,1.777867,-886.690002,-49.139999,50.049999,1729428081542.0,0.0
-3.87398,-7.867601,-15.182461,-933.450012,-82.459999,-49.209999,1729428081560.0,0.0
1.237089,-11.964113,-11.526227,-676.900024,-82.32,-66.709999,1729428081580.0,0.0
0.495314,-14.467006,-9.530612,-196.279999,17.780001,-51.099998,1729428081601.0,0.0
2.254039,-10.054641,3.144169,-97.93,9.66,-54.18,1729428081620.0,0.0
-4.493721,-8.300702,7.185646,-155.119995,-48.439999,-66.290001,1729428081642.0,0.0
-2.175076,-11.789437,-3.175276,-143.5,-117.599998,-73.57,1729428081660.0,0.0
0.437887,-5.891129,-5.716454,-61.389999,-104.860001,-63.630001,1729428081716.0,0.0
-6.477371,-10.10489,-10.686346,-36.330002,-77.910004,-20.440001,1729428081724.0,0.0
-8.848659,-10.782058,-17.111074,-52.080002,-30.030001,-25.059999,1729428081724.0,0.0
-1.172483,-0.622134,-11.112268,31.290001,33.529999,-7.14,1729428081764.0,0.0
-3.254239,-3.414558,-9.052048,-0.7,66.5,26.950001,1729428081764.0,0.0
-3.005385,-6.833901,-12.748959,-18.76,89.739998,50.400002,1729428081801.0,0.0
-0.995414,-7.487142,-5.249853,37.59,123.199997,64.889999,1729428081806.0,0.0
-0.052642,-11.519048,6.707082,91.0,114.449997,73.989998,1729428081819.0,0.0
2.579463,-11.873186,11.748759,26.389999,54.110001,39.549999,1729428081839.0,0.0
2.160719,-11.80858,5.536992,-58.59,-21.210001,12.46,1729428081904.0,0.0
2.945565,-10.51167,1.411765,-48.23,-78.82,12.32,1729428081907.0,0.0
2.318645,-6.02752,-7.467999,-26.880001,-130.199997,1.47,1729428081908.0,0.0
-11.748759,-10.786844,-20.20978,-115.639999,-117.32,4.9,1729428081919.0,0.0
-18.020348,-9.396614,-17.840885,-84.07,21.07,-27.719999,1729428081938.0,0.0
-1.87358,1.071985,-8.95155,106.68,69.090004,-5.95,1729428081959.0,0.0
-3.23031,-8.059027,-13.53859,-79.519997,89.809998,-20.16,1729428081980.0,0.0
1.61037,-3.936193,-5.953342,-94.010002,100.940002,-30.870001,1729428081999.0,0.0
-0.241675,-12.043077,-0.550349,-81.900002,80.849998,-33.810001,1729428082019.0,0.0
2.459821,-9.568897,-0.68674,-56.77,47.389999,-68.110001,1729428082038.0,0.0
2.988636,-6.98465,0.495314,-97.370003,8.33,-85.470001,1729428082058.0,0.0
1.840081,-6.491727,-1.086342,-118.580002,-27.65,-79.309998,1729428082083.0,0.0
1.801795,-5.630312,-5.051248,-166.460007,-57.330002,-73.290001,1729428082099.0,0.0
1.071985,-4.290331,-7.946564,-204.259995,-67.900002,-64.260002,1729428082118.0,0.0
0.902094,-2.146362,-10.779665,-229.040009,-63.700001,-52.639999,1729428082138.0,0.0
-0.129212,-1.864009,-10.810772,-270.200012,-49.560001,-40.599998,1729428082158.0,0.0
-0.973879,-2.294717,-10.24846,-217.699997,-42.490002,-24.01,1729428082180.0,0.0
-2.285146,-5.352744,-9.786645,-101.849998,-40.950001,-15.82,1729428082200.0,0.0
-3.555735,-7.164111,-9.734003,8.26,-40.740002,-25.41,1729428082218.0,0.0
-2.787638,-4.536791,-12.01197,58.59,-38.849998,-38.990002,1729428082241.0,0.0
-1.933401,-3.976871,-12.973885,91.629997,-20.790001,-24.360001,1729428082260.0,0.0
-1.643869,-5.572884,-12.382857,289.380005,5.6,7.98,1729428082281.0,0.0
-1.701297,-6.896115,-13.732409,527.869995,10.43,28.559999,1729428082300.0,0.0
-0.993021,-3.524628,-12.358929,656.179993,25.059999,26.67,1729428082319.0,0.0
-2.634498,-4.902894,-7.877172,613.130005,46.619999,31.92,1729428082340.0,0.0
-2.287539,-7.238289,-3.842873,486.920013,49.07,8.19,1729428082359.0,0.0
-3.290131,-8.422735,-0.196211,497.279999,45.709999,12.81,1729428082382.0,0.0
-4.362115,-8.62134,1.545763,563.359985,49.0,-38.150002,1729428082399.0,0.0
-2.447858,-8.705089,2.072184,547.190002,74.690002,-55.299999,1729428082420.0,0.0
-2.22054,-9.353544,8.30788,498.959991,115.290001,-66.919998,1729428082440.0,0.0
-0.655633,-5.891129,7.889136,367.429993,108.919998,-65.660004,1729428082459.0,0.0
-2.65364,-6.573084,4.500899,306.880005,75.529999,-60.060001,1729428082482.0,0.0
-1.306481,-2.902494,2.318645,393.820007,113.75,-62.16,1729428082500.0,0.0
-2.830709,-1.818545,7.834101,400.329987,150.430008,-73.220001,1729428082519.0,0.0
-2.65364,-2.277967,11.16491,342.579987,120.68,-69.510002,1729428082538.0,0.0
-1.177269,-5.35753,11.68176,294.559998,85.959999,-59.150002,1729428082559.0,0.0
-1.399801,-4.922036,11.509477,274.470001,73.779999,-56.77,1729428082582.0,0.0
-1.636691,0.641276,10.79163,246.259995,65.870003,-52.920002,1729428082813.0,0.0
-1.205983,-1.928615,9.102298,183.399994,41.02,-35.77,1729428082814.0,0.0
-0.830309,-2.801995,8.422735,179.270004,48.720001,-32.130001,1729428082814.0,0.0
-1.773082,-0.988236,9.875179,149.169998,57.049999,-32.549999,1729428082814.0,0.0
-1.854438,-2.014757,10.143176,92.120003,41.580002,-27.23,1729428082814.0,0.0
-2.859423,-1.131805,12.222539,81.199997,24.01,-23.030001,1729428082821.0,0.0
-3.019742,-1.359123,12.351749,44.59,-9.73,-23.52,1729428082822.0,0.0
-2.864209,-1.964507,9.473185,3.71,-39.48,-22.26,1729428082831.0,0.0
-3.692125,2.07697,8.425128,-11.55,-44.73,-10.36,1729428082831.0,0.0
-3.005385,3.39063,6.532406,-78.190002,-39.200001,17.43,1729428082831.0,0.0
-3.378666,2.584249,5.211568,-213.430008,-42.84,32.759998,1729428082832.0,0.0
-4.316652,1.339981,7.159326,-304.01001,-36.540001,60.130001,1729428082832.0,0.0
-1.923829,-2.175076,7.334002,-352.799988,-38.5,70.279999,1729428082838.0,0.0
-0.043071,-0.442672,6.338587,-342.790009,-22.33,99.75,1729428082858.0,0.0
-0.471386,-4.225725,3.381058,-276.98999,-31.780001,119.07,1729428082894.0,0.0
-6.702296,-17.350357,4.84068,-218.330002,-41.860001,103.389999,1729428082902.0,0.0
-6.989435,-25.447668,-3.742374,-215.880005,-64.470001,56.98,1729428082921.0,0.0
0.155533,-18.221344,1.787439,-4.9,8.96,-89.18,1729428082941.0,0.0
-0.191426,-3.771089,9.032906,110.599998,37.939999,-127.050003,1729428082961.0,0.0
0.124427,-4.603791,7.006185,-31.85,-11.41,-121.660004,1729428082981.0,0.0
6.309873,0.435494,4.082155,-28.84,-11.83,-110.669998,1729428083000.0,0.0
4.867002,13.349558,9.262616,119.559998,24.780001,-49.139999,1729428083020.0,0.0
-3.156133,14.809179,17.525034,68.459999,-21.210001,68.949997,1729428083041.0,0.0
-9.339187,1.954936,17.333607,-12.95,-90.300003,137.270004,1729428083060.0,0.0
-4.048656,-9.068797,6.793223,-67.690002,-116.340004,111.790001,1729428083082.0,0.0
0.363709,-10.107283,6.415157,-101.849998,-23.17,132.720001,1729428083104.0,0.0
-4.938786,-18.776478,6.862615,-167.020004,-41.650002,126.139999,1729428083130.0,0.0
-5.52742,-26.962326,-5.833702,-69.370003,-43.68,46.900002,1729428083140.0,0.0
-5.974878,-23.270203,-4.055835,125.720001,45.990002,-77.980003,1729428083161.0,0.0
-3.29731,-2.864209,4.168297,169.050003,85.120003,-189.839996,1729428083182.0,0.0
2.971886,-3.433701,-0.832702,-55.720001,29.75,-162.190002,1729428083201.0,0.0
7.441679,12.533605,10.703095,82.599998,110.18,-87.639999,1729428083223.0,0.0
-5.070391,16.778471,24.571896,185.220001,79.449997,32.34,1729428083240.0,0.0
-9.253045,7.740781,21.774687,18.48,-48.580002,96.739998,1729428083261.0,0.0
-3.098706,-6.546762,13.143774,-68.529999,-106.540001,123.340004,1729428083282.0,0.0
0.227318,-9.343972,2.981457,-73.57,-89.529999,118.510002,1729428083302.0,0.0
-0.619741,-9.671788,8.226524,-43.330002,-7.21,123.900002,1729428083321.0,0.0
-2.598605,-12.354142,10.741381,-148.680008,-8.05,101.360001,1729428083342.0,0.0
-5.036892,-21.209978,7.190433,-158.899994,-52.009998,68.669998,1729428083360.0,0.0
-5.838487,-21.15016,-2.311467,-33.459999,-24.219999,-6.79,1729428083381.0,0.0
-2.98385,-19.769501,-2.088934,71.330002,20.299999,-126.910004,1729428083406.0,0.0
-1.658226,-9.171689,2.498107,92.75,58.380001,-165.339996,1729428083529.0,0.0
-0.59342,-5.45085,4.197011,-31.780001,47.040001,-163.240005,1729428083531.0,0.0
2.524428,-4.558327,-4.431508,-226.729996,6.44,-187.110001,1729428083532.0,0.0
5.414958,14.543575,6.908078,60.970001,115.43,-93.870003,1729428083533.0,0.0
-3.397808,15.180067,16.730616,177.520004,60.970001,0.56,1729428083534.0,0.0
-8.248059,8.200203,16.917257,127.889999,-6.93,61.740002,1729428083537.0,0.0
-5.582455,-2.500499,11.222338,-50.889999,-72.029999,134.190002,1729428083540.0,0.0
-2.40718,-8.910872,4.486543,-92.190002,-60.48,167.860001,1729428083559.0,0.0
-0.035892,-11.499906,6.168696,-10.64,-5.46,158.830002,1729428083646.0,0.0
-2.244468,-14.208582,8.003991,5.95,6.79,145.460007,1729428083649.0,0.0
-4.833502,-15.579668,8.51127,-57.330002,-1.33,108.5,1729428083650.0,0.0
-4.070191,-13.878372,1.849652,-157.149994,-23.1,53.970001,1729428083653.0,0.0
-3.907479,-18.786051,-1.462015,-189.0,-33.670002,14.56,1729428083660.0,0.0
-2.306681,-19.67618,-2.48375,-97.230003,-9.24,-61.32,1729428083683.0,0.0
-3.148954,-10.296316,2.924029,-25.9,42.84,-111.300003,1729428083704.0,0.0
-0.215354,-2.359323,7.128219,-102.129997,35.84,-106.82,1729428083721.0,0.0
0.713061,-2.335395,12.028719,-151.619995,-4.69,-66.5,1729428083750.0,0.0
1.402194,3.89073,15.457633,-77.629997,-21.49,-27.58,1729428083762.0,0.0
-0.059821,1.555335,12.827922,-94.5,-49.07,24.290001,1729428083783.0,0.0
-0.787239,-5.596812,8.094919,-226.169998,-95.059998,57.119999,1729428083802.0,0.0
-1.768296,-7.539784,5.259424,-302.049988,-96.040001,78.75,1729428083820.0,0.0
-2.54357,-9.288938,1.722832,-297.220001,-98.419998,75.949997,1729428083842.0,0.0
-5.668597,-11.755937,-2.502892,-250.320007,-82.459999,70.279999,1729428083862.0,0.0
-7.594819,-15.220744,-6.642475,-250.320007,-20.299999,32.200001,1729428083883.0,0.0
-6.659225,-17.855244,-8.078169,-231.979996,-8.61,-20.09,1729428083901.0,0.0
-7.353144,-12.289536,0.356531,-111.230003,66.639999,-32.200001,1729428083922.0,0.0
-3.888337,-7.965706,-5.414958,-161.070007,83.230003,-59.080002,1729428083941.0,0.0
-0.232104,-10.121639,-9.001799,-189.559998,89.459999,-76.090004,1729428083960.0,0.0
1.232304,1.18684,0.835095,-158.550003,134.399994,-40.18,1729428083984.0,0.0
3.402594,-6.324231,12.193825,-222.040009,77.699997,11.2,1729428084001.0,0.0
6.106483,-5.761917,10.415956,-126.209999,21.35,38.5,1729428084022.0,0.0
2.335395,-11.74158,3.007778,-96.809998,-43.82,42.77,1729428084040.0,0.0
0.342174,-15.457633,2.459821,-84.489998,-93.940002,43.68,1729428084060.0,0.0
-3.59402,-12.490535,-5.71406,-175.0,-121.940002,4.2,1729428084082.0,0.0
-6.838687,-13.35913,-14.72543,-287.140015,-102.760002,-28.280001,1729428084102.0,0.0
-12.177074,-8.410772,-19.24308,-266.839996,-18.76,-47.25,1729428084120.0,0.0
-4.871787,-3.730411,-17.714066,-116.760002,56.07,-24.08,1729428084141.0,0.0
-3.787838,-5.056034,-11.696117,-128.869995,101.639999,-33.599998,1729428084162.0,0.0
-1.086342,-2.833102,-8.860621,-225.75,105.980003,-49.07,1729428084183.0,0.0
1.459622,-4.630112,-0.090927,-260.679993,106.68,-42.91,1729428084202.0,0.0
2.885744,-4.096512,-2.646462,-240.449997,38.990002,-36.259998,1729428084221.0,0.0
4.244867,-4.067799,-3.038885,-238.419998,3.22,-37.73,1729428084241.0,0.0
3.244668,-4.462614,-3.242275,-234.710007,-33.110001,-36.68,1729428084261.0,0.0
1.040878,-4.694718,-5.455636,-217.770004,-61.459999,-38.990002,1729428084282.0,0.0
0.760918,-1.68694,-8.961121,-223.089996,-81.199997,-44.450001,1729428084302.0,0.0
0.662812,-0.832702,-12.808779,-233.309998,-83.510002,-36.189999,1729428084322.0,0.0
-0.875773,-1.974079,-11.85165,-177.169998,-69.93,-21.07,1729428084342.0,0.0
-1.765903,-4.24726,-14.591432,-69.019997,-53.619999,-8.05,1729428084361.0,0.0
-1.490728,-2.969493,-11.069198,-3.71,-42.209999,-22.889999,1729428084381.0,0.0
-1.971686,-3.907479,-12.488142,14.07,-38.080002,-27.65,1729428084401.0,0.0
-1.416551,-1.715654,-12.861421,71.959999,-28.559999,-27.09,1729428084420.0,0.0
-1.117448,-3.06042,-11.973685,123.129997,-17.01,-15.75,1729428084440.0,0.0
-1.155733,-4.292724,-10.916058,180.809998,-10.71,-11.97,1729428084461.0,0.0
-1.004985,-4.091727,-11.645866,249.059998,-8.33,-15.68,1729428084482.0,0.0
-1.091127,-5.850451,-15.337994,382.130005,2.59,-13.440001,1729428084501.0,0.0
-1.086342,-4.110869,-16.694723,533.400024,29.049999,-12.6,1729428084522.0,0.0
-2.656033,0.748954,-6.888937,515.130005,78.889999,17.15,1729428084742.0,0.0
-3.17049,-5.529813,-5.223531,326.899994,58.029999,16.799999,1729428084744.0,0.0
-0.145962,-9.836893,-7.257431,321.019989,2.24,-10.85,1729428084746.0,0.0
-1.95015,-5.816952,-0.488136,465.5,58.869999,12.46,1729428084757.0,0.0
-5.197211,-5.04407,1.454836,413.980011,56.349998,2.87,1729428084758.0,0.0
-2.852244,-9.466006,-2.770889,270.480011,32.759998,-2.17,1729428084766.0,0.0
-3.586841,-11.516656,-1.926222,216.020004,37.170002,-3.92,1729428084769.0,0.0
-3.579663,-12.143576,-2.311467,218.889999,70.629997,-9.17,1729428084770.0,0.0
-5.015356,-8.451449,0.76331,138.460007,98.07,-25.76,1729428084780.0,0.0
-2.500499,-5.891129,2.615355,-40.040001,93.660004,-29.960001,1729428084781.0,0.0
2.742175,-4.290331,5.386244,-158.130005,71.400002,-20.65,1729428084783.0,0.0
3.471986,-4.041477,11.9689,-155.960007,40.459999,23.940001,1729428084784.0,0.0
3.522235,-9.296116,9.68136,-117.669998,-17.710001,42.77,1729428084786.0,0.0
3.04367,-9.58804,3.811767,-150.149994,-63.349998,32.830002,1729428084800.0,0.0
2.579463,-9.762716,-1.521835,-184.100006,-97.370003,29.4,1729428084821.0,0.0
-4.845466,-10.724631,-3.395415,-157.080002,-120.190002,12.53,1729428084841.0,0.0
-10.710274,-8.382057,-11.475977,-201.809998,-85.889999,7.91,1729428084860.0,0.0
-11.404193,-10.79163,-20.073389,-264.809998,-21.91,-27.790001,1729428084883.0,0.0
-3.567699,-10.975878,-16.419548,-91.840004,57.610001,-20.93,1729428084902.0,0.0
-2.239682,-3.567699,-8.386844,27.440001,105.209999,-22.049999,1729428084922.0,0.0
-0.650848,-9.066404,-8.793623,-83.510002,104.440002,-34.09,1729428084982.0,0.0
4.905287,-5.350351,2.467,-84.139999,127.68,-32.759998,1729428084991.0,0.0
4.479364,-6.56112,15.538989,-29.33,88.059998,24.57,1729428084992.0,0.0
2.538785,-11.064411,7.128219,-29.469999,-3.36,21.700001,1729428085006.0,0.0
0.725025,-11.935399,3.065206,-28.98,-65.590004,15.33,1729428085021.0,0.0
2.567499,-12.098111,-1.787439,-33.459999,-107.870003,-10.5,1729428085041.0,0.0
1.868794,-5.553742,-14.371292,-94.080002,-136.360001,-6.37,1729428085061.0,0.0
-9.736395,-13.127025,-15.38585,-84.629997,-78.120003,12.11,1729428085083.0,0.0
-18.027527,-7.463214,-18.731016,-16.799999,40.110001,27.719999,1729428085103.0,0.0
-3.436093,-4.4339,-13.174881,-21.98,84.629997,0.84,1729428085121.0,0.0
-3.555735,-4.156333,-13.134203,-29.82,116.760002,-15.96,1729428085141.0,0.0
2.603391,-2.364109,0.445065,-96.459999,150.220001,-7.42,1729428085162.0,0.0
-1.832902,-10.423136,10.243673,-45.57,111.790001,27.719999,1729428085183.0,0.0
3.672983,-10.449455,11.241481,-53.760002,27.93,6.23,1729428085204.0,0.0
3.720839,-10.380065,0.210568,-92.75,-60.34,-24.5,1729428085222.0,0.0
4.945964,-9.846465,-3.883551,-64.190002,-97.440002,-28.280001,1729428085242.0,0.0
2.129612,-8.970692,-2.043471,7.07,-117.25,-14.91,1729428085262.0,0.0
-6.072984,-7.953743,-8.62134,-54.389999,-138.039993,-11.41,1729428085329.0,0.0
-9.980463,-7.243074,-18.022739,-178.5,-114.520004,-20.02,1729428085333.0,0.0
-12.825529,-4.551149,-18.994226,-212.869995,-34.580002,-21.559999,1729428085334.0,0.0
-2.883351,-0.392423,-17.19243,12.53,32.200001,-6.44,1729428085395.0,0.0
-2.227718,1.342373,-9.927821,-38.080002,60.689999,-6.72,1729428085396.0,0.0
-0.787239,-1.550549,-5.197211,-213.570007,64.75,-13.37,1729428085397.0,0.0
0.057428,-12.79203,-6.989435,-180.600006,51.310001,-8.75,1729428085403.0,0.0
3.084348,-5.843273,-5.381458,-141.539993,38.5,-47.740002,1729428085421.0,0.0
3.486342,-6.833901,-3.596412,-149.589996,16.379999,-49.98,1729428085443.0,0.0
0.650848,-2.132005,-7.025328,-142.309998,-55.93,-33.040001,1729428085532.0,0.0
0.949951,-2.792424,-10.526026,-176.75,-63.700001,-21.84,1729428085536.0,0.0
-0.050249,-2.201397,-10.889735,-190.050003,-60.689999,-18.129999,1729428085537.0,0.0
-0.600598,-3.129812,-10.727024,-176.330002,-56.630001,-14.63,1729428085543.0,0.0
-3.110669,-7.606783,-12.059827,-72.590004,-52.150002,-13.79,1729428085563.0,0.0
-1.124627,-3.342773,-11.042876,30.24,-46.759998,-31.01,1729428085586.0,0.0
-1.993221,-5.402994,-13.179667,60.549999,-38.920002,-31.780001,1729428085602.0,0.0
-1.366302,-2.667997,-13.524234,98.489998,-20.370001,-41.720001,1729428085621.0,0.0
-0.748954,-2.277967,-9.004191,207.899994,-11.34,-7.0,1729428085641.0,0.0
-2.409572,-5.845665,-12.394822,338.100006,-10.85,17.57,1729428085661.0,0.0
-2.928815,-5.807381,-19.613966,581.210022,10.08,52.779999,1729428085683.0,0.0
-2.337788,-0.445065,-19.606789,773.849976,54.389999,77.349998,1729428085706.0,0.0
-4.299902,1.205983,-5.180461,723.23999,97.370003,81.970001,1729428085721.0,0.0
-4.443472,-5.623133,-2.344966,518.840027,62.720001,52.150002,1729428085742.0,0.0
-3.105884,-6.350551,6.699903,449.890015,51.029999,48.580002,1729428085762.0,0.0
-7.525427,-8.556733,-1.435694,377.160004,14.98,9.31,1729428085785.0,0.0
-3.952943,-10.58824,-0.430708,198.520004,19.32,-14.42,1729428085804.0,0.0
-5.414958,-11.708081,0.172283,130.899994,21.07,-32.130001,1729428085823.0,0.0
-3.215954,-9.607183,0.37328,36.400002,51.73,-34.93,1729428085842.0,0.0
-2.624927,-8.226524,1.004985,-89.18,70.279999,-19.110001,1729428085863.0,0.0
-3.48395,-9.458827,3.445665,-206.149994,38.709999,-27.65,1729428085883.0,0.0
-1.78026,-9.372685,0.758525,-276.5,33.880001,-26.18,1729428085904.0,0.0
3.158526,-8.327023,-5.850451,-285.529999,19.25,-54.389999,1729428085922.0,0.0
2.225325,-11.184053,-2.610569,-201.039993,40.459999,-41.23,1729428085943.0,0.0
-0.052642,-12.976277,3.550949,-194.110001,40.110001,-27.16,1729428085963.0,0.0
0.547956,-0.143569,3.050849,-321.019989,33.529999,-47.880001,1729428085983.0,0.0
-1.607977,-7.204789,-5.479564,-537.73999,-23.870001,-54.950001,1729428086002.0,0.0
1.931008,-8.750552,-6.02752,-421.049988,-35.420002,-63.209999,1729428086023.0,0.0
-0.011964,-8.542377,-3.536592,-304.290009,-20.790001,-53.970001,1729428086043.0,0.0
-0.90688,-7.659425,-3.113062,-268.799988,-43.189999,-62.93,1729428086061.0,0.0
-2.699104,-3.268596,-4.347759,-302.399994,-58.66,-74.410004,1729428086083.0,0.0
-2.962314,-3.850052,-8.685946,-376.040009,-82.18,-85.540001,1729428086103.0,0.0
-1.540978,-4.237689,-15.426528,-283.429993,-88.199997,-81.690002,1729428086121.0,0.0
-1.799403,-0.815953,-12.59821,0.98,-43.259998,-55.790001,1729428086142.0,0.0
-3.113062,1.59362,-8.420342,34.09,-25.549999,-28.0,1729428086162.0,0.0
-3.388237,-1.598405,-5.618347,-76.580002,-29.75,-8.82,1729428086184.0,0.0
0.421137,-2.675175,-7.678568,-122.919998,-53.689999,-21.0,1729428086203.0,0.0
-0.215354,-3.677768,-9.84168,-73.919998,-64.260002,-27.299999,1729428086223.0,0.0
-0.658026,-1.344766,-12.24168,-70.840004,-64.68,-43.610001,1729428086241.0,0.0
0.284746,1.840081,-13.098311,-71.190002,-56.07,-31.639999,1729428086262.0,0.0
1.014557,0.011964,-11.724831,-137.199997,-38.990002,-19.74,1729428086283.0,0.0
-6.893722,-13.677374,-11.77508,-208.180008,-37.939999,-50.959999,1729428086303.0,0.0
-5.65424,0.880559,-11.420943,-87.639999,-49.139999,-112.139999,1729428086323.0,0.0
-1.411765,4.278367,-9.229117,57.470001,-35.490002,-53.760002,1729428086342.0,0.0
-2.218147,-2.964707,-13.938192,-31.5,-27.02,-17.57,1729428086362.0,0.0
-2.112862,-5.278566,-15.728023,20.370001,-7.28,-25.76,1729428086384.0,0.0
-2.756532,-2.191825,-10.157533,104.860001,10.29,-52.009998,1729428086404.0,0.0
-3.558127,-1.086342,-10.461421,76.580002,11.41,-48.439999,1729428086421.0,0.0
-2.462214,-0.89013,-13.950156,121.660004,20.860001,-36.400002,1729428086443.0,0.0
-2.699104,0.691526,-11.94497,250.389999,38.360001,-15.89,1729428086462.0,0.0
-3.259024,0.725025,-11.559726,345.100006,54.25,4.13,1729428086484.0,0.0
-1.959722,-3.378666,-13.337594,262.290009,64.82,4.55,1729428086502.0,0.0
-2.40718,-5.807381,-9.226725,226.940002,68.949997,11.97,1729428086523.0,0.0
-0.66999,-7.329216,-11.593226,345.940002,57.959999,-21.210001,1729428086541.0,0.0
-5.895915,-7.128219,-1.928615,425.459991,79.239998,-9.8,1729428086561.0,0.0
-11.94497,-0.667598,-0.684347,190.960007,55.860001,-42.139999,1729428086588.0,0.0
-1.423729,-5.546563,-12.052648,-40.599998,25.200001,-77.209999,1729428086602.0,0.0
-1.940579,-7.015756,-18.362522,14.98,98.489998,-37.099998,1729428086622.0,0.0
-2.416751,-3.113062,-8.903693,107.309998,176.610001,9.45,1729428086642.0,0.0
0.952343,-2.689533,-6.74776,63.420002,182.0,34.720001,1729428086662.0,0.0
1.529014,-5.036892,8.374879,-24.15,182.350006,60.970001,1729428086684.0,0.0
6.257231,-9.530612,13.42852,-87.080002,90.510002,69.510002,1729428086706.0,0.0
4.240082,-12.665211,8.451449,-47.670002,15.89,49.420002,1729428086721.0,0.0
2.969493,-11.370694,2.658426,-15.68,-59.779999,35.98,1729428086741.0,0.0
3.084348,-10.906486,-0.509671,29.960001,-114.520004,23.59,1729428086762.0,0.0
-4.079762,-8.762517,-6.85783,-100.099998,-140.070007,17.710001,1729428086784.0,0.0
-15.756737,-0.961915,-24.246473,-250.460007,-129.080002,-10.08,1729428086802.0,0.0
-7.960921,-1.112662,-20.724236,-229.389999,-0.77,7.56,1729428086822.0,0.0
-2.660819,0.512064,-15.297315,-69.230003,53.41,24.92,1729428086842.0,0.0
-1.136591,-2.043471,-9.396614,-194.180008,62.16,9.45,1729428086861.0,0.0
0.174676,-3.567699,-6.862615,-191.240005,52.920002,5.53,1729428086884.0,0.0
3.282953,-11.923435,-3.711268,-180.180008,38.709999,2.52,1729428086903.0,0.0
1.756332,-8.563912,-3.072384,-137.130005,9.59,-35.91,1729428086921.0,0.0
2.522035,-2.256432,-5.182854,-170.869995,-20.790001,-50.540001,1729428086943.0,0.0
2.108077,-2.067399,-7.609176,-227.570007,-40.670002,-38.639999,1729428086963.0,0.0
0.4666,-1.605584,-7.439285,-150.570007,-47.529999,-10.5,1729428086982.0,0.0
-0.868595,-1.655833,-7.9011,-135.240005,-57.82,-1.05,1729428087002.0,0.0
-1.478764,-2.132005,-9.946963,-139.229996,-70.910004,1.54,1729428087021.0,0.0
-1.055235,-2.337788,-14.275579,-101.290001,-71.400002,-1.47,1729428087042.0,0.0
-1.383051,-4.414758,-12.859028,-24.99,-58.869999,-5.95,1729428087061.0,0.0
-1.761117,-4.496114,-11.559726,24.639999,-49.209999,-26.32,1729428087084.0,0.0
-2.713461,-3.328416,-10.356135,69.510002,-46.200001,-38.360001,1729428087103.0,0.0
-1.993221,-0.808774,-10.844273,120.889999,-47.459999,-31.43,1729428087121.0,0.0
-3.019742,-3.706482,-13.040883,184.869995,-41.369999,-5.74,1729428087142.0,0.0
-4.261617,-4.139583,-16.500904,318.709991,-17.43,1.68,1729428087162.0,0.0
-3.917051,-6.080163,-15.708879,549.570007,14.7,20.790001,1729428087184.0,0.0
-3.067599,0.18664,-11.267801,639.309998,45.990002,21.629999,1729428087202.0,0.0
-5.407779,-2.22054,-5.936593,506.799988,66.779999,24.710001,1729428087221.0,0.0
-3.756732,-8.310273,-7.008578,389.059998,12.39,-8.68,1729428087243.0,0.0
-1.777867,-8.334201,-4.883751,476.630005,31.57,-12.39,1729428087261.0,0.0
-4.783253,-2.244468,4.539185,495.880005,77.769997,-3.57,1729428087282.0,0.0
-3.929015,-7.410572,-0.933201,349.019989,23.450001,-23.450001,1729428087303.0,0.0
-3.156133,-10.473385,-1.124627,328.790009,36.119999,-9.87,1729428087322.0,0.0
-4.651647,-11.4018,-0.380459,326.059998,64.959999,-20.860001,1729428087342.0,0.0
-3.737589,-6.180661,2.864209,333.059998,106.68,-18.41,1729428087363.0,0.0
-2.600998,-2.70389,2.225325,308.910004,108.57,-23.309999,1729428087383.0,0.0
-1.9669,-0.550349,6.259624,264.25,104.160004,-13.37,1729428087402.0,0.0
-2.529213,-2.713461,10.152746,229.600006,97.370003,4.9,1729428087422.0,0.0
-4.149154,-2.462214,11.562119,297.360016,94.639999,17.01,1729428087442.0,0.0
-5.489135,-3.122634,13.337594,345.23999,85.470001,21.98,1729428087462.0,0.0
-3.579663,-11.442478,10.633704,289.660004,57.82,5.11,1729428087483.0,0.0
-2.691926,-10.492528,11.016556,304.149994,65.309998,7.98,1729428087502.0,0.0
-4.481757,-11.712867,11.724831,249.479996,30.52,3.08,1729428087522.0,0.0
-4.218546,-11.083554,10.877771,144.830002,1.05,-28.139999,1729428087543.0,0.0
-3.601198,-8.482556,9.674182,102.620003,-22.960001,-55.650002,1729428087562.0,0.0
-2.629712,-7.635497,9.463614,70.699997,-41.439999,-75.949997,1729428087582.0,0.0
-1.445265,-5.094319,7.343572,72.660004,-46.619999,-84.629997,1729428087602.0,0.0
-0.256032,-3.646662,7.879565,89.040001,-47.25,-83.090004,1729428087622.0,0.0
1.232304,-3.09392,7.568498,85.400002,-45.5,-83.93,1729428087642.0,0.0
1.112662,-1.899901,5.79781,55.650002,-39.34,-85.68,1729428087661.0,0.0
-0.045464,-1.65344,7.259824,24.780001,-42.209999,-65.239998,1729428087683.0,0.0
-0.985843,-0.22014,7.125826,22.190001,-48.16,-48.860001,1729428087704.0,0.0
-2.533999,-0.753739,9.456435,49.490002,-47.25,-27.299999,1729428087722.0,0.0
-3.881158,2.78046,1.904687,51.52,-33.950001,-21.559999,1729428087742.0,0.0
-4.658825,-5.132604,6.585048,-3.43,-8.75,7.49,1729428087761.0,0.0
-2.419144,-8.650054,7.113862,-62.439999,-19.6,-19.6,1729428087783.0,0.0
-3.969693,-5.816952,7.958528,-14.91,-8.19,-19.32,1729428087801.0,0.0
-0.413958,-1.440479,9.131011,30.309999,-18.41,-14.28,1729428087821.0,0.0
-3.629912,-1.06002,10.135997,39.689999,-36.400002,3.43,1729428087841.0,0.0
-3.129812,1.619941,13.318451,-0.07,-28.42,30.940001,1729428087861.0,0.0
-1.064806,0.045464,10.260423,-86.379997,-63.279999,52.080002,1729428087882.0,0.0
0.11007,-4.826324,8.078169,-130.899994,-71.68,56.630001,1729428087903.0,0.0
0.638884,-6.38405,6.482157,-125.230003,-57.68,39.48,1729428087921.0,0.0
-0.815953,-3.689733,7.288538,-125.860001,-27.860001,21.280001,1729428087941.0,0.0
-0.495314,-1.411765,6.853044,-121.940002,-17.15,26.25,1729428087961.0,0.0
0.782453,-4.204189,5.855237,-126.699997,-6.86,37.310001,1729428087984.0,0.0
0.650848,-6.518049,10.624132,-195.789993,-5.6,32.759998,1729428088001.0,0.0
-3.457629,-12.875778,8.281559,-243.110001,-54.529999,23.379999,1729428088022.0,0.0
2.663212,-13.019348,8.439486,-81.900002,-57.82,-6.44,1729428088042.0,0.0
-0.035892,-5.931807,8.997013,145.949997,-28.280001,9.94,1729428088061.0,0.0
-7.944171,-3.862016,11.315658,116.900002,-26.809999,22.26,1729428088082.0,0.0
2.947958,-2.603391,8.001599,-104.440002,-65.590004,-32.970001,1729428088102.0,0.0
2.866602,-3.541377,7.128219,-161.350006,-65.870003,-7.56,1729428088120.0,0.0
-1.825724,-2.196611,9.255438,-182.559998,-41.93,0.21,1729428088140.0,0.0
-3.823731,0.782453,9.870394,-329.980011,-42.560001,25.27,1729428088162.0,0.0
-4.067799,-0.918844,3.960121,-501.059998,-86.519997,48.369999,1729428088181.0,0.0
-0.33021,-3.438486,-8.638089,-664.789978,-110.110001,26.389999,1729428088202.0,0.0
3.18724,-5.199604,-16.883757,-705.25,-95.970001,24.780001,1729428088222.0,0.0
2.510071,-9.059227,-11.655439,-556.289978,-19.879999,73.989998,1729428088241.0,0.0
1.842474,-3.175276,-2.440679,-570.220032,5.32,53.619999,1729428088261.0,0.0
0.394816,-9.207582,-14.450255,-638.679993,-62.02,-5.95,1729428088282.0,0.0
3.105884,-12.624532,-12.744174,-408.940002,-47.389999,10.08,1729428088301.0,0.0
1.947758,-7.817351,-9.293723,-166.600006,-6.72,-1.19,1729428088322.0,0.0
-1.447658,-8.190632,-8.11167,-107.029999,-4.48,7.7,1729428088340.0,0.0
-1.098306,-11.777473,-10.473385,-131.949997,-22.68,2.87,1729428088362.0,0.0
-1.634298,-10.612168,-12.076575,-56.77,-13.58,4.76,1729428088382.0,0.0
-1.751546,-4.677969,-7.482357,73.360001,7.35,18.549999,1729428088402.0,0.0
-2.725425,-7.195218,-3.87398,73.43,0.28,37.799999,1729428088421.0,0.0
-1.289732,-10.001998,-4.783253,37.240002,-19.110001,16.1,1729428088441.0,0.0
0.454636,-9.686146,-10.777272,21.84,-6.86,-6.09,1729428088460.0,0.0
0.918844,-6.185446,-3.945765,12.74,22.049999,5.11,1729428088483.0,0.0
0.555135,-7.554141,-4.091727,-113.120003,15.47,13.51,1729428088502.0,0.0
-0.323031,-10.91845,-3.522235,-115.290001,-2.94,3.92,1729428088521.0,0.0
-0.538385,-12.933208,-3.282953,-58.240002,-30.24,-25.27,1729428088541.0,0.0
-0.624527,-8.298308,-2.088934,-89.040001,-46.759998,-62.439999,1729428088561.0,0.0
-0.732204,-6.314659,-4.718646,-202.300003,-74.410004,-87.5,1729428088583.0,0.0
-1.691726,-2.787638,-7.401,-235.619995,-79.730003,-85.400002,1729428088601.0,0.0
-0.782453,1.354338,-13.344771,-231.979996,-71.75,-73.43,1729428088621.0,0.0
-0.859023,-1.191626,-15.905092,-174.089996,-55.23,-40.950001,1729428088642.0,0.0
-2.718246,-2.462214,-11.904292,-99.75,-23.940001,-29.26,1729428088661.0,0.0
-3.646662,-0.921237,-8.322237,-72.590004,-11.2,-30.030001,1729428088682.0,0.0
-2.411965,-1.131805,-8.956335,-86.870003,-14.35,-30.940001,1729428088704.0,0.0
-1.031307,-1.069592,-11.653046,-66.989998,-15.4,-26.040001,1729428088720.0,0.0
-0.732204,-1.76351,-10.815558,-16.799999,-9.17,-17.08,1729428088741.0,0.0
-1.040878,-1.11027,-9.60479,-12.67,-4.06,-19.530001,1729428088760.0,0.0
-0.997807,-1.799403,-8.970692,-17.639999,-8.75,-19.18,1729428088782.0,0.0
-0.756132,-0.318245,-12.318252,8.4,-16.52,-17.290001,1729428088808.0,0.0
-2.495714,0.102891,-17.486748,73.989998,-19.32,7.28,1729428088820.0,0.0
-3.292524,0.241675,-18.094524,65.379997,27.370001,31.780001,1729428088841.0,0.0
-3.56052,1.196411,-11.480762,23.799999,70.279999,61.32,1729428088863.0,0.0
-2.610569,-0.648455,-4.969893,93.449997,76.93,74.760002,1729428088884.0,0.0
-3.163311,-3.352344,-5.941379,72.590004,65.870003,71.400002,1729428088902.0,0.0
-1.627119,-6.271588,-8.743374,10.85,56.0,62.93,1729428088922.0,0.0
-0.066999,-5.367101,-7.456036,49.560001,54.110001,56.209999,1729428088942.0,0.0
-0.20339,-5.292924,-4.082155,63.77,46.41,49.07,1729428088961.0,0.0
1.148555,-5.869594,-4.046263,8.96,17.43,28.139999,1729428088982.0,0.0
1.112662,-7.515855,-4.254438,-8.68,-8.33,15.33,1729428089000.0,0.0
0.011964,-10.033106,-6.118448,-59.849998,-28.91,-14.49,1729428089021.0,0.0
0.366102,-3.579663,-5.307281,-129.080002,-44.310001,-54.459999,1729428089041.0,0.0
-0.043071,-2.467,-10.593026,-181.580002,-52.360001,-75.599998,1729428089062.0,0.0
-0.825524,-3.314059,-16.11566,-132.440002,-42.139999,-75.669998,1729428089082.0,0.0
-2.065006,0.830309,-10.942378,-49.209999,-21.35,-67.550003,1729428089103.0,0.0
-3.15374,0.267996,-10.624132,-65.940002,-14.14,-62.790001,1729428089121.0,0.0
-3.022135,-0.074178,-7.800602,3.36,-12.95,-48.23,1729428089142.0,0.0
-1.067199,-0.361316,-13.619946,-7.91,-16.379999,-42.630001,1729428089161.0,0.0
-0.859023,-2.720639,-11.176874,12.53,-6.86,-34.23,1729428089184.0,0.0
-1.172483,-0.272782,-8.530413,7.42,-4.48,-36.119999,1729428089202.0,0.0
-1.734797,-1.301696,-6.556334,-2.87,-13.72,-30.59,1729428089223.0,0.0
-1.878366,-2.108077,-7.101898,-17.08,-29.120001,-28.559999,1729428089243.0,0.0
-0.827917,-0.133998,-9.755538,-95.760002,-48.439999,-35.98,1729428089263.0,0.0
0.002393,1.086342,-12.777672,-98.279999,-39.619999,-31.15,1729428089284.0,0.0
-0.957129,2.935993,-9.23151,-97.860001,-24.710001,-9.45,1729428089304.0,0.0
-2.794817,-1.39023,-8.958728,-145.320007,-27.719999,-2.52,1729428089322.0,0.0
-3.730411,0.969093,-11.306087,-147.279999,-36.889999,-20.23,1729428089343.0,0.0
-5.630312,4.125226,-10.377672,-124.459999,-31.15,-9.52,1729428089362.0,0.0
-5.003392,0.89013,-11.22473,-96.25,-17.99,26.040001,1729428089386.0,0.0
-4.158726,-0.37328,-12.06222,-18.27,-9.38,49.91,1729428089403.0,0.0
-1.222732,0.586242,-11.672189,56.279999,-0.14,53.34,1729428089423.0,0.0
-0.600598,1.28016,-12.634104,159.039993,11.83,60.830002,1729428089443.0,0.0
-2.742175,1.050449,-12.789637,211.680008,29.049999,74.480003,1729428089462.0,0.0
-2.24686,2.696711,-10.135997,225.960007,41.299999,78.68,1729428089487.0,0.0
1.194018,-2.883351,-7.740781,139.160004,40.459999,51.869999,1729428089503.0,0.0
3.862016,-8.035098,-6.087341,21.91,34.860001,13.09,1729428089527.0,0.0
0.256032,-8.322237,-10.164711,-6.09,28.700001,-28.84,1729428089543.0,0.0
-1.497907,-7.245467,-14.041083,98.209999,25.76,-40.810001,1729428089563.0,0.0
-1.737189,-2.155933,-13.184454,260.820007,44.73,-38.080002,1729428089594.0,0.0
-3.211168,3.565305,-5.000999,235.410004,56.209999,-12.39,1729428089604.0,0.0
1.591227,-0.784846,-7.094719,-37.310001,35.420002,-26.460001,1729428089623.0,0.0
1.339981,-9.805787,-8.46102,-105.629997,16.73,-21.42,1729428089643.0,0.0
2.926422,-2.821138,-4.453043,-13.86,-0.63,-51.66,1729428089663.0,0.0
-1.275374,-3.041277,-4.603791,-67.410004,-20.02,-61.599998,1729428089684.0,0.0
-6.360123,0.267996,-16.788044,-104.580002,-40.389999,-67.550003,1729428089709.0,0.0
-4.527221,-1.021735,-10.96152,168.979996,-5.95,8.05,1729428089733.0,0.0
0.224925,-2.304288,-9.073583,61.459999,12.74,-6.72,1729428089743.0,0.0
-0.385244,-2.234896,-12.514462,-87.220001,10.5,-23.870001,1729428089763.0,0.0
1.033699,-2.818745,-11.669796,-100.379997,16.940001,-24.780001,1729428089785.0,0.0
0.42353,-2.182254,-7.176075,-41.790001,23.24,-23.59,1729428089803.0,0.0
-0.4666,-3.981657,-6.867401,-7.84,10.5,-18.690001,1729428089823.0,0.0
0.777667,-6.240481,-7.058826,11.69,-7.63,-24.780001,1729428089843.0,0.0
0.457029,-5.79781,-6.477371,46.130001,-19.809999,-34.02,1729428089864.0,0.0
0.758525,-7.472785,-5.63749,93.590004,-36.959999,-36.119999,1729428089886.0,0.0
-0.926022,-6.932007,-6.338587,159.669998,-53.760002,-31.57,1729428089903.0,0.0
-1.727618,-7.058826,-6.623333,268.660004,-63.490002,-8.4,1729428089922.0,0.0
-2.921637,-3.98405,-12.55514,372.75,-63.279999,19.110001,1729428090000.0,0.0
-5.067998,-4.254438,-18.259628,306.25,-29.82,48.02,1729428090000.0,0.0
-5.17089,-8.338986,-22.669601,237.089996,12.32,34.580002,1729428090000.0,0.0
-3.814159,-3.661019,-14.902499,381.98999,65.660004,54.040001,1729428090020.0,0.0
-7.67139,-3.007778,-7.556533,475.440002,122.150002,91.489998,1729428090024.0,0.0
-3.259024,-8.77448,-12.58864,363.649994,108.010002,8.47,1729428090043.0,0.0
0.514457,-7.058826,-4.512863,240.800003,180.880005,-10.43,1729428090063.0,0.0
0.978664,-8.659625,9.650253,200.270004,158.199997,-13.37,1729428090084.0,0.0
4.201797,-0.90688,13.816156,222.949997,127.82,4.76,1729428090114.0,0.0
3.955336,-1.469193,14.713466,90.090004,52.779999,26.110001,1729428090124.0,0.0
3.014957,-5.182854,9.353544,-33.529999,-21.629999,50.82,1729428090143.0,0.0
1.404587,-5.63749,3.136991,-82.459999,-48.790001,81.269997,1729428090163.0,0.0
0.634098,-8.154739,-4.895715,-119.349998,-69.230003,100.379997,1729428090184.0,0.0
-1.916651,-11.858829,-4.462614,-73.220001,-80.220001,126.419998,1729428090204.0,0.0
-6.948757,-12.796815,-13.318451,-151.619995,-78.120003,105.559998,1729428090223.0,0.0
-10.710274,-26.254049,-20.851057,-108.989998,-39.130001,53.619999,1729428090243.0,0.0
-7.518249,-17.21636,-15.938592,151.970001,66.779999,-11.27,1729428090262.0,0.0
-7.099504,-13.545769,-2.084148,255.639999,128.309998,-62.93,1729428090284.0,0.0
-4.457829,-6.273981,-1.038485,89.599998,108.849998,-103.32,1729428090304.0,0.0
1.457229,0.636491,2.395216,37.310001,79.730003,-73.5,1729428090327.0,0.0
3.005385,2.443072,6.522834,105.980003,63.700001,10.5,1729428090345.0,0.0
0.911665,-6.783652,8.063812,87.709999,36.68,65.379997,1729428090363.0,0.0
-1.823331,-6.893722,1.143769,25.27,5.46,85.050003,1729428090386.0,0.0
-1.378266,-10.439885,-2.409572,-2.45,-20.09,77.139999,1729428090403.0,0.0
-1.033699,-8.441878,-2.67039,94.779999,-28.91,74.970001,1729428090423.0,0.0
-4.122833,-8.712267,1.902294,140.839996,-38.709999,85.82,1729428090443.0,0.0
-9.394222,-8.901299,2.007578,75.32,-67.550003,81.760002,1729428090463.0,0.0
-5.996413,-9.391829,-1.962115,-41.369999,-8.12,46.060001,1729428090485.0,0.0
-4.689932,-12.268002,-4.486543,-96.389999,-32.689999,44.66,1729428090503.0,0.0
-10.092925,-9.305687,-4.354938,-75.18,-14.14,4.83,1729428090523.0,0.0
-7.68096,-15.058033,-6.759724,-107.379997,26.040001,-15.05,1729428090543.0,0.0
-5.778666,-14.098512,-5.407779,7.14,41.860001,-38.920002,1729428090563.0,0.0
-5.297709,-10.430314,0.770489,79.519997,52.920002,-66.5,1729428090583.0,0.0
-1.507478,-1.988436,5.60399,-3.85,35.700001,-77.980003,1729428090605.0,0.0
3.17049,3.330809,8.008778,-107.660004,-1.61,-34.369999,1729428090623.0,0.0
3.409772,-2.993421,7.314859,-162.610001,-36.400002,40.810001,1729428090785.0,0.0
-1.423729,-10.238889,0.9667,-153.860001,-68.389999,96.25,1729428090787.0,0.0
-2.907279,-13.670196,-2.842674,-106.959999,-67.760002,84.489998,1729428090789.0,0.0
-3.364309,-10.985448,-3.771089,-22.4,-61.040001,78.68,1729428090790.0,0.0
-3.89073,-9.863215,-7.537392,18.76,-54.670002,60.27,1729428090791.0,0.0
-5.929415,-11.200804,-8.145168,28.91,-36.540001,47.040001,1729428090792.0,0.0
-8.130811,-14.105689,-8.300702,62.02,-9.8,36.610001,1729428090793.0,0.0
-11.004591,-15.45524,-3.917051,130.759995,22.889999,13.72,1729428090795.0,0.0
-9.207582,-7.290931,1.957329,120.959999,43.049999,-47.459999,1729428090802.0,0.0
-5.278566,-6.977471,0.820738,27.23,34.299999,-56.84,1729428090821.0,0.0
-6.362515,-6.412765,-2.184647,-49.98,33.950001,-58.939999,1729428090849.0,0.0
-6.530013,-7.716853,-3.445665,-45.990002,46.200001,-51.52,1729428090862.0,0.0
-5.307281,-13.167704,-0.29671,4.13,47.740002,-61.25,1729428090885.0,0.0
-0.184247,-4.218546,-3.586841,-33.18,46.130001,-76.370003,1729428090903.0,0.0
0.562313,-10.863414,1.442872,2.03,38.639999,-70.980003,1729428090922.0,0.0
-5.213961,-7.343572,1.785046,73.360001,43.959999,-45.5,1729428090942.0,0.0
-0.803988,-3.787838,1.368695,6.86,38.220001,-46.130001,1729428090963.0,0.0
-0.196211,-4.027121,1.146162,-3.15,29.610001,-7.21,1729428090985.0,0.0
-0.433101,-9.585647,-0.904487,73.150002,17.85,27.93,1729428091003.0,0.0
-0.248854,-7.111469,3.0006,152.389999,30.17,49.279999,1729428091023.0,0.0
-0.880559,-9.427721,0.689133,151.339996,-1.33,61.389999,1729428091043.0,0.0
-2.462214,-10.126426,1.067199,226.800003,-11.76,68.739998,1729428091063.0,0.0
-6.448657,-10.085747,2.426322,217.839996,-25.34,60.619999,1729428091085.0,0.0
-8.496914,-13.81855,2.500499,129.710007,-26.25,41.509998,1729428091107.0,0.0
-15.66581,-18.42234,0.904487,10.64,11.69,-7.14,1729428091124.0,0.0
-3.742374,-10.253245,-1.701297,4.27,12.81,-33.25,1729428091144.0,0.0
-12.040684,-11.413764,-1.969293,-37.939999,-9.52,-85.889999,1729428091163.0,0.0
-2.11047,-12.102897,-2.213361,-35.560001,2.45,-78.050003,1729428091184.0,0.0
-4.386044,-9.336794,-1.773082,43.959999,33.32,-85.400002,1729428091205.0,0.0
1.476372,-0.772882,5.517848,26.880001,23.1,-88.760002,1729428091224.0,0.0
2.081756,1.87358,6.125626,-20.93,8.75,-39.130001,1729428091243.0,0.0
1.488336,-3.9338,9.573684,-49.84,-18.549999,21.49,1729428091263.0,0.0
-1.100698,-4.311867,8.248059,-57.470001,-37.799999,55.580002,1729428091284.0,0.0
-4.773681,-10.049855,5.087141,-57.68,-45.43,88.550003,1729428091306.0,0.0
-3.869194,-10.626525,2.053042,-17.290001,-70.419998,94.290001,1729428091326.0,0.0
-7.015756,-13.615161,1.138984,-10.85,-75.040001,63.630001,1729428091344.0,0.0
-7.470392,-18.623339,-4.579862,-28.84,-62.650002,33.950001,1729428091365.0,0.0
-8.506484,-17.661423,-5.783452,11.83,-21.139999,1.68,1729428091389.0,0.0
-7.848458,-14.672788,-5.733203,28.0,26.25,-58.099998,1729428091408.0,0.0
-5.98445,-11.96172,-0.830309,62.580002,54.670002,-98.419998,1729428091425.0,0.0
-6.800402,-6.673582,0.870987,21.210001,63.700001,-117.599998,1729428091445.0,0.0
-3.036492,-7.709675,4.003192,-45.290001,43.330002,-113.050003,1729428091466.0,0.0
3.845266,9.150154,6.072984,-64.959999,17.92,-71.120003,1729428091486.0,0.0
3.113062,-2.847459,10.760524,-13.65,-20.02,-3.71,1729428091506.0,0.0
-3.285345,-11.16491,6.106483,-91.559998,-52.990002,35.279999,1729428091525.0,0.0
-0.459422,-10.478169,1.828116,-87.360001,-28.700001,32.130001,1729428091548.0,0.0
-1.088734,-10.255639,-1.019342,-71.959999,-15.89,43.049999,1729428091568.0,0.0
-2.924029,-13.952549,-2.744568,-11.62,-26.460001,44.66,1729428091586.0,0.0
-2.828316,-10.054641,-1.794617,109.059998,-18.76,46.200001,1729428091607.0,0.0
-6.74776,-10.820344,-0.875773,155.960007,-11.69,47.670002,1729428091625.0,0.0
-7.724032,-11.447264,-5.673382,48.02,0.98,19.32,1729428091644.0,0.0
-6.800402,-15.75913,-3.565305,-35.490002,30.1,-17.08,1729428091667.0,0.0
-7.951349,-13.950156,3.148954,6.51,55.09,-58.73,1729428091690.0,0.0
-7.936993,-10.147961,4.938786,-45.5,45.080002,-101.639999,1729428091708.0,0.0
-2.256432,2.904887,4.290331,-106.889999,15.75,-109.550003,1729428091726.0,0.0
6.01077,3.960121,10.004392,-0.07,10.01,-67.410004,1729428091745.0,0.0
-2.019542,-6.582655,12.102897,-60.34,-25.129999,18.059999,1729428091764.0,0.0
0.270389,-8.946764,5.946165,-133.279999,-47.18,25.41,1729428091785.0,0.0
-0.0335,-9.868,-1.773082,-128.309998,-46.130001,37.170002,1729428091807.0,0.0
-0.727418,-13.643874,-4.37408,-44.029999,-42.279999,52.080002,1729428091825.0,0.0
-3.871587,-18.96312,-5.094319,39.619999,-46.41,36.610001,1729428091847.0,0.0
-4.723432,-12.222539,-4.871787,75.529999,-45.360001,15.82,1729428091867.0,0.0
-10.267602,-14.811572,-6.71426,0.14,-14.98,-2.17,1729428091889.0,0.0
-7.599605,-15.94577,-3.326023,-20.65,35.139999,-39.48,1729428091906.0,0.0
-7.192825,-11.662617,-0.342174,16.030001,51.310001,-89.599998,1729428091926.0,0.0
-7.068398,-8.001599,-5.008178,-30.450001,58.52,-124.669998,1729428091946.0,0.0
2.014757,10.595419,2.383251,-40.040001,59.849998,-108.080002,1729428091965.0,0.0
-2.368894,-9.542577,10.466206,-39.34,-16.59,-7.35,1729428091986.0,0.0
-0.677169,-7.336394,3.558127,-110.25,-42.420002,-3.99,1729428092005.0,0.0
1.246661,-9.875179,-2.718246,-106.889999,-29.33,13.37,1729428092026.0,0.0
2.935993,-8.26481,-3.739982,-23.030001,-24.01,38.990002,1729428092046.0,0.0
-1.368695,-15.026926,-1.808974,95.550003,-28.559999,67.410004,1729428092064.0,0.0
-4.962714,-7.496714,-2.488536,91.559998,-61.950001,53.060001,1729428092085.0,0.0
-8.889337,-13.052847,-5.297709,41.09,-38.220001,46.200001,1729428092105.0,0.0
-9.731609,-16.596617,-8.405986,-23.59,13.79,0.49,1729428092124.0,0.0
-7.745567,-14.778071,-5.651847,-6.65,59.5,-50.540001,1729428092144.0,0.0
-8.599805,-13.619946,-2.603391,-14.35,76.440002,-93.029999,1729428092165.0,0.0
-4.398008,-7.310073,-3.754339,-69.790001,88.970001,-127.400002,1729428092185.0,0.0
9.801002,-0.935594,11.306087,-3.57,58.170002,-76.230003,1729428092208.0,0.0
0.531207,-3.079563,15.63231,83.090004,29.82,-28.559999,1729428092226.0,0.0
-0.825524,-9.719646,5.225924,-103.110001,-35.209999,-7.49,1729428092244.0,0.0
3.536592,-5.816952,-1.490728,-94.010002,-24.15,9.1,1729428092264.0,0.0
0.454636,-12.41875,-0.157926,-8.12,-5.32,63.209999,1729428092286.0,0.0
0.39003,-10.621738,0.004786,62.299999,-20.93,73.5,1729428092305.0,0.0
-5.412565,-12.100503,-4.13719,60.060001,-85.050003,57.400002,1729428092324.0,0.0
-9.312866,-13.624733,-8.324631,30.309999,-49.139999,49.490002,1729428092344.0,0.0
-7.657032,-15.634703,-10.746166,-38.779999,-3.43,-3.85,1729428092364.0,0.0
-8.539984,-16.340586,-7.606783,-27.370001,49.560001,-44.799999,1729428092386.0,0.0
-7.802995,-13.237095,-1.935793,48.509998,72.239998,-87.43,1729428092406.0,0.0
-6.592227,-6.305088,-4.254438,-24.43,77.910004,-136.850006,1729428092424.0,0.0
10.028319,1.629512,11.430513,13.02,50.470001,-86.099998,1729428092444.0,0.0
3.615555,0.40678,13.921442,66.779999,18.690001,-21.559999,1729428092465.0,0.0
0.775275,-5.886343,8.611769,-25.76,-29.190001,24.219999,1729428092485.0,0.0
1.115055,-9.540184,4.141976,-120.190002,-35.700001,43.400002,1729428092505.0,0.0
0.937986,-9.461221,-1.751546,-120.470001,-60.900002,54.529999,1729428092524.0,0.0
1.253839,-16.606188,-6.013163,-13.65,-80.709999,76.160004,1729428092545.0,0.0
-5.271388,-21.212372,-3.976871,-2.45,-88.970001,41.650002,1729428092564.0,0.0
-9.470792,-16.534405,-6.51087,36.82,-25.129999,14.35,1729428092586.0,0.0
-12.445071,-11.755937,-9.815358,-62.369999,33.25,-36.189999,1729428092605.0,0.0
-6.501299,-14.447863,-9.097511,-84.349998,68.25,-79.940002,1729428092624.0,0.0
-3.239882,-8.219346,-8.702696,-93.590004,97.160004,-127.889999,1729428092644.0,0.0
8.422735,-2.421536,7.9681,1.68,67.970001,-87.849998,1729428092664.0,0.0
3.85723,0.234497,12.000006,105.629997,60.200001,-47.18,1729428092685.0,0.0
-3.830909,-7.9681,3.644269,28.0,-13.3,-2.59,1729428092708.0,0.0
1.311267,-3.893122,3.017349,33.18,-6.58,9.24,1729428092724.0,0.0
2.213361,-5.510671,1.74676,19.389999,-22.82,52.080002,1729428092744.0,0.0
1.631905,-4.168297,-0.284746,-6.51,-44.450001,90.160004,1729428092764.0,0.0
-0.100499,-9.052048,3.189633,27.370001,-83.93,124.459999,1729428092785.0,0.0
-7.762317,-22.269999,-2.208575,10.85,-104.440002,104.580002,1729428092804.0,0.0
-7.197611,-17.280964,-5.417351,29.540001,-74.480003,39.060001,1729428092824.0,0.0
-7.905886,-12.222539,-2.87378,91.419998,-12.25,31.290001,1729428092844.0,0.0
-6.800402,-13.53859,-3.495914,73.150002,-7.91,-11.62,1729428092864.0,0.0
-1.741975,-12.68196,-2.629712,156.449997,10.64,-30.24,1729428092892.0,0.0
-0.01675,-7.523034,1.112662,250.25,17.85,-23.59,1729428092906.0,0.0
-1.658226,-3.550949,2.354537,272.089996,-4.13,-2.38,1729428092924.0,0.0
-2.273181,-5.613562,2.148755,313.73999,-26.74,15.26,1729428092944.0,0.0
-4.256832,-9.305687,3.871587,405.440002,-12.6,28.280001,1729428092968.0,0.0
-4.108476,-11.406586,5.331209,465.920013,23.450001,4.62,1729428092985.0,0.0
-2.574677,-11.351551,6.52762,412.929993,55.860001,-19.25,1729428093006.0,0.0
-1.009771,-11.863614,6.862615,304.640015,65.519997,-48.369999,1729428093024.0,0.0
-1.153341,-9.769895,8.49452,238.139999,71.540001,-79.379997,1729428093044.0,0.0
-0.918844,-7.180861,9.485149,200.899994,61.389999,-96.25,1729428093065.0,0.0
-1.251446,-6.072984,7.927422,159.460007,43.610001,-108.989998,1729428093086.0,0.0
-2.258825,-3.828516,8.355737,125.440002,28.42,-121.239998,1729428093106.0,0.0
-3.225525,-2.124826,9.827322,105.279999,19.25,-119.419998,1729428093125.0,0.0
-2.830709,-2.732604,10.595419,68.389999,1.96,-110.599998,1729428093145.0,0.0
0.643669,8.906086,-1.100698,28.630001,-14.49,-94.709999,1729428093166.0,0.0
-5.283352,6.826723,4.407579,3.5,0.63,-3.43,1729428093187.0,0.0
-2.512464,-1.100698,4.278367,-73.43,7.84,12.53,1729428093206.0,0.0
-2.404787,-4.118048,7.908278,9.38,34.16,26.389999,1729428093225.0,0.0
-4.455436,-4.871787,11.708081,77.419998,42.700001,34.16,1729428093246.0,0.0
-7.496714,-5.340781,11.179268,34.93,26.110001,28.07,1729428093266.0,0.0
2.517249,-12.210573,3.517449,-81.129997,12.39,-65.239998,1729428093286.0,0.0
-0.90688,-5.694918,6.465407,72.730003,27.370001,29.82,1729428093306.0,0.0
-4.816752,-7.173682,9.559326,82.389999,42.349998,-35.279999,1729428093326.0,0.0
-2.378466,-5.063213,10.360922,3.92,42.07,-76.300003,1729428093346.0,0.0
-2.232504,-3.955336,10.348958,2.1,23.59,-68.949997,1729428093367.0,0.0
-1.569692,2.421536,10.083356,9.24,8.05,-59.010002,1729428093389.0,0.0
-2.218147,4.275974,8.965906,2.94,-3.85,-0.77,1729428093408.0,0.0
-5.910272,-1.115055,6.821937,-73.150002,-28.0,12.32,1729428093426.0,0.0
-4.67079,-2.806781,7.37468,-31.290001,-7.63,39.689999,1729428093446.0,0.0
-1.598405,-2.806781,7.202396,3.85,9.24,40.529999,1729428093466.0,0.0
-4.115655,-6.991827,10.114462,-0.49,7.84,31.710001,1729428093489.0,0.0
-5.907879,-6.979864,9.425328,34.16,4.55,-0.42,1729428093508.0,0.0
-2.699104,-6.498906,8.559127,19.879999,-7.28,-26.389999,1729428093526.0,0.0
0.476172,-0.4666,6.202196,27.93,11.34,-27.23,1729428093548.0,0.0
-3.20399,-3.692125,6.616155,17.360001,23.450001,-16.379999,1729428093566.0,0.0
-3.460021,-7.228717,7.987241,15.89,24.92,-24.85,1729428093587.0,0.0
-1.713261,-3.223132,10.997414,45.639999,30.66,-41.23,1729428093612.0,0.0
-0.449851,4.079762,12.189038,7.42,22.190001,-24.43,1729428093626.0,0.0
-5.087141,1.631905,9.01137,-70.910004,-11.62,35.0,1729428093646.0,0.0
-5.678168,1.694118,4.192225,-89.809998,-23.940001,64.82,1729428093666.0,0.0
-3.249453,-1.004985,6.862615,-22.120001,3.57,73.779999,1729428093690.0,0.0
-7.9011,-7.401,12.351749,47.599998,14.7,60.27,1729428093711.0,0.0
-1.20359,-7.853244,13.830515,-1.96,18.690001,-9.17,1729428093726.0,0.0
1.22034,-13.141381,7.188039,-47.529999,-26.74,-19.25,1729428093746.0,0.0
-3.364309,-10.834702,4.254438,36.889999,-19.809999,3.01,1729428093766.0,0.0
-6.647261,-0.734596,5.142176,110.599998,43.889999,-47.880001,1729428093787.0,0.0
-6.185446,-7.104291,7.666604,21.139999,31.639999,-55.580002,1729428093807.0,0.0
-2.663212,-6.094519,10.15514,31.639999,25.200001,-87.220001,1729428093826.0,0.0
-0.289532,4.919643,13.744373,29.469999,27.299999,-58.310001,1729428093846.0,0.0
-2.35693,0.736989,7.958528,-115.639999,-42.700001,-11.62,1729428093866.0,0.0
-5.831308,-1.842474,8.456236,-84.0,-59.57,34.93,1729428093887.0,0.0
-2.675175,2.175076,7.128219,4.27,-43.259998,37.73,1729428093908.0,0.0
-0.028714,0.428315,11.126624,2.38,-43.259998,55.580002,1729428093926.0,0.0
-14.122439,-22.1695,9.772287,16.59,-19.460001,44.310001,1729428093946.0,0.0
-1.90708,-8.200203,7.338787,22.469999,-3.99,-47.18,1729428093966.0,0.0
0.119641,-3.833302,9.480364,60.060001,19.809999,-7.56,1729428093987.0,0.0
-3.701697,-5.584848,7.49432,3.43,-1.75,-34.860001,1729428094006.0,0.0
-6.082555,-3.608376,5.000999,57.610001,25.200001,-47.459999,1729428094026.0,0.0
-3.979264,-5.895915,4.572684,24.639999,29.4,-47.810001,1729428094046.0,0.0
-0.497707,1.421337,8.35813,3.01,55.09,-38.639999,1729428094066.0,0.0
-2.067399,1.598405,7.37468,-62.16,28.559999,3.78,1729428094087.0,0.0
-4.051049,-0.145962,10.518847,-47.18,15.54,42.560001,1729428094117.0,0.0
-5.666204,-1.031307,7.077969,-19.460001,-1.68,48.439999,1729428094126.0,0.0
1.268196,1.904687,8.69791,7.42,15.82,55.16,1729428094146.0,0.0
-6.955935,-13.612768,12.531212,20.719999,6.37,66.709999,1729428094166.0,0.0
-10.124033,-17.967705,5.187639,28.91,-10.01,-3.43,1729428094189.0,0.0
1.562513,4.603791,8.470592,66.43,47.18,-35.07,1729428094207.0,0.0
-2.069792,-4.161119,8.30788,-21.629999,13.58,-25.549999,1729428094226.0,0.0
-3.117848,-5.613562,8.920443,-6.86,21.559999,-36.049999,1729428094246.0,0.0
1.411765,2.323431,11.255837,40.880001,0.21,-54.459999,1729428094266.0,0.0
-3.196811,5.175675,6.946364,-54.599998,-23.450001,-11.34,1729428094287.0,0.0
-6.192625,1.811367,8.090133,-88.690002,-47.810001,49.349998,1729428094306.0,0.0
-5.666204,1.895115,5.98445,-33.599998,-41.02,66.080002,1729428094326.0,0.0
-0.717847,-1.909473,6.161518,-23.799999,-12.11,73.639999,1729428094345.0,0.0
-11.523834,-17.97967,10.097712,24.85,-13.02,43.959999,1729428094368.0,0.0
-0.33021,-5.71406,13.220345,57.330002,19.950001,-29.4,1729428094397.0,0.0
-2.541178,-3.345166,11.160125,-9.52,-34.23,-19.040001,1729428094407.0,0.0
-2.423929,-5.661418,5.347959,-63.139999,-44.310001,-21.84,1729428094425.0,0.0
-6.039484,-5.563312,4.989035,16.66,-17.780001,-26.460001,1729428094446.0,0.0
-3.285345,-4.455436,3.23031,4.76,-12.74,-60.619999,1729428094465.0,0.0
0.930808,3.342773,8.633304,-8.19,28.280001,-28.84,1729428094486.0,0.0
-1.306481,1.196411,7.15454,-114.029999,5.25,0.98,1729428094507.0,0.0
-2.648855,-3.232704,9.966106,-73.290001,-3.78,50.75,1729428094526.0,0.0
-5.79781,1.543371,8.145168,23.1,5.18,54.040001,1729428094546.0,0.0
-2.199004,2.89053,8.73141,-6.72,9.66,77.209999,1729428094566.0,0.0
-15.113067,-25.299314,9.257831,-26.6,15.26,77.419998,1729428094587.0,0.0
5.443672,-12.172288,14.567505,30.940001,10.15,-26.389999,1729428094608.0,0.0
-1.935793,1.820938,9.415757,29.26,-29.4,-64.540001,1729428094626.0,0.0
0.160319,1.636691,4.539185,-16.450001,-10.5,-8.05,1729428094646.0,0.0
-4.555934,-6.398407,3.172883,-39.060001,-13.51,-1.54,1729428094665.0,0.0
-7.372287,-8.68116,6.829116,64.120003,12.67,-35.209999,1729428094687.0,0.0
-3.211168,-7.267002,9.298509,-4.06,3.36,-63.700001,1729428094711.0,0.0
-4.271189,-0.70349,10.949556,-44.029999,4.62,-46.34,1729428094725.0,0.0
-4.132405,-3.412165,8.874979,-102.900002,-47.810001,-19.040001,1729428094747.0,0.0
-2.545963,-3.306881,8.193025,-91.840004,-55.580002,-6.09,1729428094765.0,0.0
-3.156133,-1.462015,10.186246,-103.669998,-66.709999,12.95,1729428094787.0,0.0
0.375673,-0.665205,9.999605,-175.559998,-102.269997,37.66,1729428094806.0,0.0
-0.787239,-2.069792,6.666404,-278.459991,-105.349998,60.060001,1729428094825.0,0.0
0.952343,-5.362316,2.165504,-362.110016,-111.790001,49.98,1729428094846.0,0.0
-0.378066,-6.056234,3.5007,-336.48999,-69.370003,49.490002,1729428094866.0,0.0
-2.761317,-6.793223,6.02752,-359.380005,-64.82,29.960001,1729428094886.0,0.0
0.189033,-10.195816,2.086541,-416.429993,-75.389999,26.18,1729428094906.0,0.0
-2.0004,-12.658032,-3.438486,-444.709991,-52.709999,17.639999,1729428094996.0,0.0
-0.662812,-12.832708,-3.017349,-311.01001,-25.9,-10.57,1729428095000.0,0.0
-1.380659,-7.762317,1.172483,-134.960007,19.18,-4.55,1729428095001.0,0.0
-4.161119,-3.838088,6.9009,-154.210007,6.58,18.41,1729428095001.0,0.0
-1.976472,-7.817351,4.242475,-231.419998,-40.18,27.58,1729428095005.0,0.0
-1.344766,-8.322237,2.718246,-192.639999,-53.41,32.830002,1729428095026.0,0.0
-2.711068,-9.032906,1.287339,-148.820007,-59.360001,43.470001,1729428095046.0,0.0
-4.802395,-10.875379,2.711068,-167.440002,-79.029999,38.849998,1729428095066.0,0.0
-4.941179,-9.980463,-9.212367,-242.759995,-106.470001,2.38,1729428095087.0,0.0
-5.326423,-12.428321,-16.084553,-147.490005,-82.110001,-4.2,1729428095108.0,0.0
-9.38465,-12.741781,-19.360327,-96.25,13.440001,-14.49,1729428095126.0,0.0
-6.836295,-6.656832,-11.755937,-112.0,102.340004,-21.210001,1729428095145.0,0.0
-4.508078,-7.345965,-14.665611,-243.809998,129.220001,-65.309998,1729428095166.0,0.0
-0.945165,-1.801795,-10.34178,-242.339996,159.809998,-50.119999,1729428095187.0,0.0
0.722632,-3.184847,-3.091527,-273.839996,157.080002,-21.35,1729428095208.0,0.0
-2.208575,-11.662617,0.495314,-215.669998,124.040001,-0.42,1729428095226.0,0.0
1.112662,-10.674382,5.328816,-110.669998,46.759998,-12.53,1729428095247.0,0.0
1.069592,-12.043077,2.529213,-123.340004,-21.629999,-45.43,1729428095267.0,0.0
-2.005185,-10.080962,-2.720639,-222.180008,-70.559998,-72.449997,1729428095289.0,0.0
-2.522035,-7.372287,-6.532406,-307.299988,-102.059998,-91.0,1729428095308.0,0.0
-0.842274,-2.337788,-9.829715,-301.209991,-106.470001,-111.720001,1729428095327.0,0.0
0.897308,2.921637,-12.710674,-289.450012,-96.32,-94.57,1729428095347.0,0.0
0.370888,2.160719,-14.876178,-279.230011,-67.059998,-50.189999,1729428095367.0,0.0
-2.041078,2.744568,-9.336794,-126.699997,-49.91,4.41,1729428095389.0,0.0
-3.103491,-1.607977,-7.633104,-8.75,-50.889999,25.059999,1729428095408.0,0.0
-2.667997,-7.111469,-15.357137,-87.290001,-57.400002,-3.22,1729428095427.0,0.0
-1.677369,-4.055835,-14.586647,-79.449997,-40.389999,-41.720001,1729428095447.0,0.0
-1.165305,-1.95015,-11.940186,23.1,-14.56,-47.389999,1729428095467.0,0.0
-1.416551,-3.036492,-10.231709,59.990002,-5.53,-42.700001,1729428095489.0,0.0
-2.277967,-3.821337,-9.798609,87.849998,-10.57,-39.060001,1729428095508.0,0.0
-2.232504,-2.708675,-10.987842,136.430008,-16.66,-37.939999,1729428095527.0,0.0
-1.758725,-3.531806,-12.899707,266.0,-12.04,-15.33,1729428095548.0,0.0
-1.648655,-5.053641,-13.816156,377.649994,8.33,3.99,1729428095567.0,0.0
-3.213561,-0.794417,-9.530612,453.600006,42.91,30.24,1729428095588.0,0.0
-5.702096,-2.043471,-5.702096,385.700012,50.119999,64.260002,1729428095611.0,0.0
-2.634498,-6.594619,-5.32403,263.970001,22.82,55.23,1729428095627.0,0.0
-2.021935,-9.233903,-7.738388,219.660004,14.56,31.99,1729428095651.0,0.0
-3.84048,-8.597411,-6.597012,248.919998,26.530001,21.42,1729428095667.0,0.0
-4.034299,-8.173882,-5.278566,229.460007,30.73,8.82,1729428095689.0,0.0
-3.862016,-7.542177,-1.765903,181.720001,23.379999,-3.08,1729428095712.0,0.0
-4.534399,-7.386643,-3.036492,134.889999,17.43,-12.53,1729428095726.0,0.0
-3.524628,-9.341579,-3.617948,93.940002,26.880001,-22.049999,1729428095747.0,0.0
-2.711068,-8.79123,-3.28056,42.490002,21.280001,-27.790001,1729428095767.0,0.0
-2.249253,-8.638089,-3.938586,22.75,7.42,-26.460001,1729428095787.0,0.0
-3.436093,-8.707481,-3.321238,-16.59,18.48,-30.030001,1729428095808.0,0.0
-2.40718,-9.343972,-4.386044,-87.919998,24.5,-45.009998,1729428095828.0,0.0
-1.689333,-9.822537,-5.836094,-86.730003,32.970001,-49.349998,1729428095847.0,0.0
-4.302295,-6.742974,-4.87418,-70.419998,34.860001,-44.59,1729428095866.0,0.0
-0.528814,-7.767102,-7.582855,-68.25,38.220001,-40.599998,1729428095888.0,0.0
-1.509871,-9.530612,-5.551349,-42.91,51.869999,-23.450001,1729428095908.0,0.0
-1.174876,-3.620341,-1.201197,-109.550003,63.349998,-23.52,1729428095926.0,0.0
1.100698,-9.114261,-4.201797,-143.289993,17.639999,-39.970001,1729428095947.0,0.0
-0.885344,-4.701896,-4.244867,-137.059998,31.85,-8.54,1729428095966.0,0.0
0.031107,-7.082755,-7.975278,-214.410004,23.309999,-25.059999,1729428095987.0,0.0
1.055235,-7.951349,-5.998806,-288.679993,29.26,-27.299999,1729428096007.0,0.0
1.20359,-8.568698,-1.940579,-306.880005,15.54,-34.299999,1729428096027.0,0.0
2.275574,-11.822936,-3.058028,-229.110001,-13.02,-52.990002,1729428096046.0,0.0
2.28036,-8.910872,-4.74736,-145.389999,-31.85,-76.370003,1729428096066.0,0.0
0.492921,-7.76471,-5.807381,-122.57,-29.120001,-65.660004,1729428096088.0,0.0
-1.37348,-4.54397,-7.391429,-140.559998,-27.09,-57.889999,1729428096108.0,0.0
-1.440479,-2.136791,-10.107283,-152.529999,-40.880001,-49.420002,1729428096126.0,0.0
0.473779,-3.414558,-11.210374,-121.520004,-47.25,-42.279999,1729428096146.0,0.0
0.741775,-0.679562,-11.042876,-133.770004,-39.830002,-47.18,1729428096166.0,0.0
-0.131605,1.404587,-15.304493,-168.350006,-29.75,-42.77,1729428096188.0,0.0
-0.136391,0.567099,-7.843673,4.2,-6.02,-21.07,1729428096208.0,0.0
0.555135,-1.122234,-8.080563,-79.800003,-11.76,-15.68,1729428096226.0,0.0
0.746561,-4.570292,-10.004392,-108.010002,-19.809999,-19.950001,1729428096247.0,0.0
0.227318,-0.581456,-8.46102,-79.870003,-24.92,-32.549999,1729428096266.0,0.0
2.261217,0.945165,-12.969098,-125.650002,-28.07,-30.24,1729428096288.0,0.0
-0.933201,-0.09332,-12.078968,-91.840004,-11.55,-13.02,1729428096309.0,0.0
-1.287339,-1.971686,-9.734003,-96.389999,-4.83,-21.35,1729428096326.0,0.0
-1.902294,-1.265803,-10.358529,-105.0,-3.71,-40.25,1729428096346.0,0.0
-1.268196,0.392423,-9.595219,-76.370003,-2.31,-40.25,1729428096366.0,0.0
-0.112463,-1.131805,-11.425728,-68.110001,1.33,-29.75,1729428096387.0,0.0
0.224925,-0.885344,-11.913863,-19.879999,8.33,-27.23,1729428096407.0,0.0
-0.189033,0.600598,-11.559726,22.82,14.7,-31.780001,1729428096427.0,0.0
-0.789631,1.423729,-11.014162,25.27,22.469999,-35.139999,1729428096446.0,0.0
-0.22014,1.160519,-10.006784,9.52,28.700001,-33.459999,1729428096468.0,0.0
-0.141177,0.729811,-9.834501,20.51,30.17,-30.870001,1729428096488.0,0.0
-0.215354,1.794617,-9.131011,34.580002,29.049999,-30.380001,1729428096507.0,0.0
-1.619941,-0.459422,-11.751152,23.66,28.77,-30.380001,1729428096527.0,0.0
-1.225125,0.129212,-10.29153,55.299999,35.0,-34.369999,1729428096547.0,0.0
-0.815953,-0.141177,-10.9017,37.66,36.82,-33.110001,1729428096566.0,0.0
0.055035,-1.148555,-11.143374,24.290001,35.0,-26.67,1729428096587.0,0.0
0.911665,0.07657,-10.624132,48.369999,32.41,-22.469999,1729428096608.0,0.0
0.787239,-0.311067,-10.872985,75.110001,35.630001,-14.98,1729428096627.0,0.0
0.086142,-0.760918,-10.363315,80.849998,39.549999,-9.94,1729428096646.0,0.0
-0.552742,-2.129612,-12.366108,90.090004,42.91,-11.55,1729428096666.0,0.0
1.787439,-0.392423,-13.098311,120.610001,49.349998,-11.9,1729428096688.0,0.0
2.495714,0.399601,-11.205588,122.919998,59.220001,-4.41,1729428096710.0,0.0
1.567299,1.045663,-7.250252,86.940002,61.670002,9.38,1729428096726.0,0.0
-0.969093,-1.588834,-6.58744,9.45,51.799999,22.120001,1729428096746.0,0.0
-0.897308,-1.741975,-10.356135,-1.47,46.759998,22.82,1729428096766.0,0.0
0.758525,-0.229711,-9.305687,1.89,44.939999,29.469999,1729428096788.0,0.0
1.277767,0.595813,-10.30828,-42.560001,46.34,26.74,1729428096808.0,0.0
1.758725,-1.990828,-12.083755,-87.709999,49.279999,31.15,1729428096826.0,0.0
2.854637,-2.230111,-10.674382,-30.030001,56.560001,35.420002,1729428096847.0,0.0
1.631905,-0.397209,-9.456435,38.43,63.349998,47.880001,1729428096866.0,0.0
3.87398,-3.627519,-8.860621,3.71,66.290001,57.540001,1729428096887.0,0.0
3.792624,-7.386643,-9.468399,48.860001,61.18,60.619999,1729428096907.0,0.0
1.663012,-2.751746,-6.209375,80.849998,64.75,52.639999,1729428096926.0,0.0
2.519642,-5.565705,-6.175875,29.190001,56.139999,50.400002,1729428096946.0,0.0
3.270989,-9.592826,-6.795617,14.91,41.860001,35.209999,1729428096966.0,0.0
2.840281,-7.707282,-7.030113,79.590004,28.84,14.63,1729428096988.0,0.0
2.423929,-7.109076,-7.645068,94.010002,19.110001,0.49,1729428097006.0,0.0
3.342773,-4.23051,-8.965906,98.840004,11.34,-7.21,1729428097026.0,0.0
1.993221,-4.271189,-7.805387,141.680008,20.02,1.82,1729428097046.0,0.0
1.533799,-7.52782,-4.328616,201.320007,16.870001,3.01,1729428097066.0,0.0
4.388437,-6.817152,-5.965307,288.540009,3.71,-9.31,1729428097094.0,0.0
2.225325,-4.579862,-0.660419,231.070007,5.88,-1.4,1729428097109.0,0.0
4.113262,-7.89153,-4.12044,5.6,-26.530001,-28.84,1729428097127.0,0.0
4.438686,-7.058826,-5.855237,-52.639999,-28.630001,-32.970001,1729428097146.0,0.0
4.871787,-10.049855,-6.903293,-32.549999,-41.02,-38.779999,1729428097166.0,0.0
3.830909,-6.98465,-7.999206,6.37,-42.84,-50.259998,1729428097187.0,0.0
0.007178,-7.54457,-8.853443,-119.699997,-36.889999,-68.879997,1729428097207.0,0.0
1.557728,-3.146562,-11.636297,-81.550003,-32.619999,-60.760002,1729428097226.0,0.0
2.689533,-2.014757,-8.599805,47.18,-8.33,-23.59,1729428097246.0,0.0
3.895515,-3.517449,-8.432307,42.07,-0.84,-7.91,1729428097267.0,0.0
5.079963,-5.87438,-10.011569,33.459999,1.05,1.89,1729428097288.0,0.0
5.079963,-6.76451,-7.704889,152.529999,-1.26,20.860001,1729428097309.0,0.0
1.502693,-6.094519,-2.352145,379.329987,-7.14,46.27,1729428097328.0,0.0
2.409572,-5.704489,0.861416,510.860016,-35.630001,49.630001,1729428097348.0,0.0
1.883151,-8.707481,-3.290131,596.330017,-69.230003,53.27,1729428097367.0,0.0
2.754139,-8.38445,-2.976671,664.929993,-38.220001,50.470001,1729428097388.0,0.0
-0.588634,-9.58804,0.088534,650.090027,6.79,41.509998,1729428097409.0,0.0
0.196211,-10.951948,1.191626,587.22998,53.48,16.940001,1729428097429.0,0.0
1.232304,-12.007183,3.601198,486.220001,96.599998,-0.56,1729428097448.0,0.0
0.978664,-10.858629,3.56052,322.559998,118.580002,-40.599998,1729428097468.0,0.0
2.995814,-9.501899,6.005985,167.300003,111.370003,-57.049999,1729428097491.0,0.0
2.818745,-10.040283,10.021141,154.490005,107.029999,-74.900002,1729428097511.0,0.0
1.48355,-9.018548,7.192825,135.800003,84.139999,-91.07,1729428097530.0,0.0
5.070391,-5.285746,4.701896,107.379997,76.300003,-121.309998,1729428097549.0,0.0
4.0008,-7.448857,5.362316,132.509995,77.769997,-109.129997,1729428097571.0,0.0
1.765903,-1.210768,9.516255,124.529999,87.010002,-115.709999,1729428097589.0,0.0
1.921437,11.215159,13.983655,129.639999,66.220001,-95.830002,1729428097784.0,0.0
-0.964308,6.843473,13.916656,128.240005,49.84,-38.849998,1729428097809.0,0.0
-1.617548,-0.236889,10.447062,58.66,-4.34,46.830002,1729428097809.0,0.0
-0.648455,-3.455236,7.310073,42.420002,-24.360001,91.980003,1729428097809.0,0.0
0.964308,-6.45105,6.139983,38.009998,-5.74,104.230003,1729428097810.0,0.0
1.433301,-15.876379,6.407979,-45.290001,6.86,105.980003,1729428097810.0,0.0
-0.454636,-27.921848,7.008578,-74.620003,-0.63,95.059998,1729428097812.0,0.0
-0.866202,-21.250658,1.981257,-9.24,5.18,44.240002,1729428097812.0,0.0
-0.62692,-9.351151,2.0004,64.470001,34.369999,-73.290001,1729428097813.0,0.0
1.323231,-0.052642,4.462614,83.720001,56.209999,-144.970001,1729428097814.0,0.0
3.35713,7.420143,10.655239,-29.75,28.35,-147.910004,1729428097827.0,0.0
2.301895,16.065411,13.663017,8.05,33.599998,-108.43,1729428097847.0,0.0
-3.59402,10.214959,14.813965,-16.24,-14.63,53.689999,1729428097869.0,0.0
-1.663012,-0.770489,9.784252,-51.52,-45.5,91.559998,1729428097894.0,0.0
1.574477,-7.094719,5.06082,-63.07,-18.9,100.800003,1729428097910.0,0.0
-0.193819,-14.529219,8.587841,-71.75,12.32,92.68,1729428097928.0,0.0
-0.746561,-22.590637,9.997212,-45.43,8.61,58.939999,1729428097948.0,0.0
1.663012,-21.410976,0.887737,-51.59,7.42,-32.060001,1729428097968.0,0.0
1.600798,-8.939585,2.074577,-9.8,52.849998,-106.470001,1729428097991.0,0.0
-1.849652,-5.891129,8.721838,20.370001,59.5,-119.910004,1729428098008.0,0.0
-0.055035,-5.515456,6.664011,-38.639999,28.49,-125.650002,1729428098028.0,0.0
3.809374,-0.653241,4.912465,-12.81,35.84,-126.419998,1729428098048.0,0.0
3.495914,8.154739,10.372886,52.849998,56.07,-91.629997,1729428098068.0,0.0
2.306681,14.505291,14.060226,51.73,39.619999,-20.440001,1729428098090.0,0.0
-4.220939,6.376873,15.823736,8.33,-12.6,76.090004,1729428098109.0,0.0
-1.569692,-2.464607,7.508677,-20.93,-42.630001,112.699997,1729428098129.0,0.0
-0.229711,-4.780859,5.682954,-77.489998,-7.98,140.070007,1729428098149.0,0.0
-4.118048,-15.029318,9.832108,-107.660004,-14.56,143.430008,1729428098168.0,0.0
-0.868595,-25.978874,8.764909,-84.559998,-27.860001,84.559998,1729428098188.0,0.0
2.282753,-28.278379,-0.129212,-79.449997,-17.219999,-31.290001,1729428098209.0,0.0
1.787439,-13.28495,1.225125,-30.66,40.040001,-125.720001,1729428098230.0,0.0
-0.404387,-5.613562,5.740381,26.389999,58.59,-167.229996,1729428098249.0,0.0
4.34058,-0.366102,6.941578,22.4,37.380001,-154.279999,1729428098269.0,0.0
5.209175,9.872787,8.489735,109.550003,40.18,-112.419998,1729428098293.0,0.0
0.366102,14.656039,14.371292,125.580002,30.66,-27.719999,1729428098308.0,0.0
-5.503492,6.498906,14.409578,58.240002,-24.85,60.830002,1729428098329.0,0.0
-4.074977,1.0002,10.368099,38.709999,-41.439999,97.019997,1729428098348.0,0.0
-0.445065,-0.416351,7.384251,28.139999,-19.530001,133.139999,1729428098368.0,0.0
-0.916451,-3.098706,8.551948,-0.77,0.28,157.5,1729428098390.0,0.0
-2.304288,-12.074183,9.257831,-18.27,0.35,159.389999,1729428098409.0,0.0
-2.203789,-17.814566,7.881958,-40.040001,13.51,105.489998,1729428098429.0,0.0
-0.844666,-28.275988,3.270989,-59.990002,-12.25,23.030001,1729428098449.0,0.0
0.820738,-14.206188,5.630312,81.760002,34.580002,-84.629997,1729428098468.0,0.0
2.311467,-6.250053,7.156933,69.370003,28.0,-164.779999,1729428098491.0,0.0
4.752146,3.189633,7.41775,80.220001,16.66,-144.550003,1729428098509.0,0.0
2.488536,13.564911,9.518648,84.980003,23.66,-94.150002,1729428098530.0,0.0
-6.453443,13.019348,15.694524,41.650002,-1.96,-10.78,1729428098549.0,0.0
-9.250652,4.989035,13.526627,28.49,-37.52,62.439999,1729428098568.0,0.0
-1.727618,-3.129812,7.37468,7.77,-35.560001,80.849998,1729428098590.0,0.0
-0.191426,-5.87438,7.592427,-40.110001,0.21,80.779999,1729428098610.0,0.0
-4.929214,-10.427922,10.356135,-48.369999,13.09,73.849998,1729428098629.0,0.0
1.481157,-9.092726,8.327023,-91.489998,24.43,44.52,1729428098649.0,0.0
2.596212,-17.783459,4.797609,-173.110001,4.13,20.790001,1729428098668.0,0.0
5.070391,-20.894125,1.600798,-162.539993,15.4,-35.279999,1729428098690.0,0.0
4.613362,-14.481362,11.088341,-40.459999,46.130001,-108.010002,1729428098713.0,0.0
0.512064,-2.498107,13.220345,-45.920002,25.969999,-138.25,1729428098795.0,0.0
1.529014,-1.251446,7.740781,-198.940002,-46.27,-129.570007,1729428098800.0,0.0
1.45005,-2.555535,4.632504,-223.300003,-59.5,-124.32,1729428098801.0,0.0
1.722832,0.447458,6.262017,-82.110001,-7.77,-105.840004,1729428098803.0,0.0
-0.677169,2.428715,9.21476,16.799999,22.33,-61.810001,1729428098814.0,0.0
-1.914258,-0.07657,8.10449,31.290001,16.799999,2.66,1729428098831.0,0.0
-1.485943,-0.76331,6.355337,65.800003,20.65,40.459999,1729428098851.0,0.0
-0.12682,0.045464,5.091926,127.959999,41.02,76.300003,1729428098866.0,0.0
-2.021935,-2.847459,6.987042,159.180008,61.950001,101.43,1729428098923.0,0.0
-2.462214,-0.87338,8.032705,165.550003,66.779999,120.190002,1729428098927.0,0.0
-2.794817,-7.762317,9.193225,111.93,50.75,144.899994,1729428098928.0,0.0
1.366302,-22.387249,8.769694,44.450001,-1.61,140.210007,1729428098947.0,0.0
1.249053,-26.304298,6.618547,1.33,23.379999,51.029999,1729428098967.0,0.0
1.572084,-21.061625,2.244468,-0.91,12.04,-72.239998,1729428098988.0,0.0
0.622134,-7.865208,5.960521,56.07,46.689999,-123.199997,1729428099007.0,0.0
-0.51685,-0.172283,7.668997,14.07,16.379999,-153.509995,1729428099026.0,0.0
1.306481,3.768696,9.650253,30.73,-1.96,-97.510002,1729428099046.0,0.0
2.134398,14.577076,11.069198,92.330002,3.78,-63.630001,1729428099066.0,0.0
-1.323231,13.354343,12.725031,79.099998,0.98,41.650002,1729428099089.0,0.0
-6.116055,4.493721,12.873385,14.14,-20.51,91.840004,1729428099107.0,0.0
-5.958128,0.631705,7.62114,16.030001,-4.76,122.080002,1729428099134.0,0.0
-3.120241,-5.424529,8.171489,24.85,38.639999,135.520004,1729428099149.0,0.0
-3.249453,-18.374485,14.486149,30.59,40.599998,118.020004,1729428099168.0,0.0
-0.258425,-23.700909,12.528819,-8.47,21.07,46.900002,1729428099190.0,0.0
0.710668,-23.267809,6.73101,-43.610001,-7.98,-60.130001,1729428099208.0,0.0
0.18664,-11.724831,6.568298,9.59,5.39,-132.860001,1729428099227.0,0.0
-0.713061,-7.724032,8.470592,13.51,-15.05,-162.75,1729428099248.0,0.0
1.275374,-2.225325,6.946364,2.94,-35.490002,-173.25,1729428099268.0,0.0
1.806581,9.576077,7.9681,71.540001,-14.63,-148.259995,1729428099290.0,0.0
-0.497707,17.218752,10.24846,62.510002,-4.41,-58.73,1729428099310.0,0.0
-5.347959,12.660425,10.51167,-1.82,-19.67,28.42,1729428099327.0,0.0
-6.994221,5.742774,8.580662,-9.59,-12.11,87.849998,1729428099347.0,0.0
-2.163112,2.098505,6.575477,-59.709999,20.65,114.029999,1729428099369.0,0.0
-2.007578,-3.852444,9.461221,-79.239998,38.360001,142.169998,1729428099389.0,0.0
-3.546163,-14.660825,15.019747,-68.529999,15.82,140.279999,1729428099410.0,0.0
0.758525,-24.593431,14.165509,-57.82,-9.31,97.860001,1729428099427.0,0.0
2.189433,-26.306692,4.491328,-103.32,-41.580002,-15.96,1729428099447.0,0.0
1.895115,-15.347565,4.962714,-46.689999,-15.96,-115.150002,1729428099468.0,0.0
0.055035,-3.885944,4.378866,20.23,-5.67,-165.690002,1729428099491.0,0.0
2.778067,4.989035,3.955336,31.219999,-5.67,-142.240005,1729428099510.0,0.0
2.495714,15.615561,7.159326,71.050003,17.57,-74.410004,1729428099527.0,0.0
-3.548556,15.256638,13.050454,53.830002,21.210001,34.439999,1729428099549.0,0.0
-8.315059,6.723832,12.315859,11.2,-19.879999,95.059998,1729428099567.0,0.0
-4.677969,2.129612,6.376873,-3.57,-3.85,125.580002,1729428099589.0,0.0
-2.39043,-1.820938,7.692925,3.43,37.66,160.089996,1729428099610.0,0.0
-5.927022,-12.16511,15.225531,10.29,33.880001,164.639999,1729428099627.0,0.0
-0.385244,-21.449263,14.679967,-19.460001,-0.7,115.150002,1729428099647.0,0.0
2.718246,-27.723244,6.034698,-42.630001,-29.610001,2.24,1729428099668.0,0.0
2.438286,-18.053846,4.414758,40.529999,0.21,-97.650002,1729428099688.0,0.0
-1.031307,-6.463014,7.80778,77.0,12.04,-150.850006,1729428099711.0,0.0
2.07697,-2.691926,4.685147,56.84,-21.210001,-148.680008,1729428099730.0,0.0
1.631905,6.472585,5.180461,118.860001,-14.07,-136.149994,1729428099747.0,0.0
-0.052642,17.539389,7.611568,121.309998,13.16,-64.75,1729428099769.0,0.0
-4.814359,11.708081,10.322637,22.469999,-0.35,30.59,1729428099794.0,0.0
-2.794817,3.290131,8.963513,-18.76,4.41,80.989998,1729428099808.0,0.0
-1.749153,-4.529613,9.616754,-76.370003,24.780001,128.520004,1729428099826.0,0.0
-3.555735,-16.383656,15.337994,-71.330002,16.030001,120.75,1729428099853.0,0.0
1.986043,-23.954548,11.799009,-105.0,-7.28,44.240002,1729428099868.0,0.0
4.256832,-25.167709,6.008378,-85.330002,-21.629999,-49.349998,1729428099888.0,0.0
1.01695,-11.035697,7.810174,30.52,-0.14,-135.800003,1729428099908.0,0.0
-1.062413,-3.515057,7.436893,76.370003,-18.27,-170.869995,1729428099984.0,0.0
1.268196,4.74736,4.48415,61.740002,-30.52,-175.770004,1729428100024.0,0.0
-0.052642,14.105689,4.371687,67.340004,-19.110001,-109.830002,1729428100024.0,0.0
-3.232704,15.069997,6.348158,32.689999,-6.09,-17.43,1729428100027.0,0.0
-5.505885,7.092326,9.236296,-29.469999,2.59,42.84,1729428100028.0,0.0
-3.974478,1.615155,7.353144,-35.91,20.719999,91.0,1729428100028.0,0.0
-2.129612,-5.039285,8.463413,-27.09,53.48,123.550003,1729428100046.0,0.0
-4.371687,-13.526627,14.617754,-17.5,48.299999,119.139999,1729428100067.0,0.0
-0.143569,-20.494528,11.169697,-35.07,17.639999,68.459999,1729428100088.0,0.0
5.675776,-24.95714,5.883951,-56.84,0.28,-26.18,1729428100111.0,0.0
2.696711,-10.597812,7.927422,11.34,21.07,-103.879997,1729428100127.0,0.0
1.641476,2.603391,6.530013,54.18,3.78,-113.260002,1729428100147.0,0.0
1.842474,11.631511,6.568298,29.540001,-7.07,-81.690002,1729428100167.0,0.0
-2.251646,12.780065,9.257831,20.51,4.55,13.440001,1729428100189.0,0.0
-5.046463,4.704289,10.238889,-13.3,-1.19,67.059998,1729428100208.0,0.0
-2.505285,0.732204,7.403394,-24.639999,13.93,98.769997,1729428100227.0,0.0
-2.995814,-11.406586,10.569098,-48.509998,28.49,118.090004,1729428100247.0,0.0
-3.900301,-21.489941,14.754145,-94.150002,5.67,72.169998,1729428100268.0,0.0
1.490728,-25.871199,7.726424,-124.599998,-33.389999,-3.92,1729428100290.0,0.0
3.091527,-18.910479,4.606184,-63.91,-34.580002,-94.919998,1729428100308.0,0.0
-1.411765,-8.839087,8.740981,-3.22,-27.370001,-161.770004,1729428100327.0,0.0
2.490928,7.453642,5.927022,4.13,-40.880001,-171.990005,1729428100348.0,0.0
3.838088,14.012369,6.690332,46.619999,-17.92,-95.480003,1729428100366.0,0.0
1.244268,16.024733,8.870193,12.67,-7.28,-22.049999,1729428100402.0,0.0
-4.689932,9.164511,15.065211,27.790001,7.98,54.18,1729428100408.0,0.0
-6.386444,3.730411,13.69173,-2.24,-6.86,108.57,1729428100427.0,0.0
-3.369094,-1.256232,6.209375,-32.48,-5.32,138.460007,1729428100448.0,0.0
-2.98385,-10.171888,6.735795,-29.4,17.639999,159.039993,1729428100466.0,0.0
-1.756332,-25.292135,11.085947,-14.77,16.24,120.400002,1729428100488.0,0.0
4.701896,-28.309483,1.354338,-61.670002,-15.54,-33.389999,1729428100508.0,0.0
1.40698,-14.718252,4.579862,47.32,22.26,-123.550003,1729428100526.0,0.0
1.249053,-0.136391,6.276374,80.5,24.01,-166.669998,1729428100551.0,0.0
5.307281,9.052048,5.285746,113.68,20.23,-113.889999,1729428100568.0,0.0
1.423729,17.228323,8.475377,131.809998,33.950001,-49.349998,1729428100588.0,0.0
-6.412765,11.583653,14.222939,74.129997,20.440001,38.639999,1729428100608.0,0.0
-5.580062,4.252046,11.722438,-8.61,-9.8,92.540001,1729428100629.0,0.0
-2.620141,-1.39023,6.257231,-42.77,-3.57,124.459999,1729428100676.0,0.0
-1.471586,-3.565305,5.623133,-55.16,33.880001,139.789993,1729428100676.0,0.0
-1.804188,-6.479764,8.044669,-49.77,52.43,150.990005,1729428100804.0,0.0
-2.342573,-11.617154,10.51167,-32.830002,36.259998,142.380005,1729428100807.0,0.0
-2.084148,-13.576876,11.595619,-38.5,16.799999,96.879997,1729428100808.0,0.0
-0.260818,-11.172089,9.659825,-121.940002,-8.12,54.459999,1729428100809.0,0.0
-0.0335,-8.312666,6.556334,-284.970001,-30.52,30.309999,1729428100811.0,0.0
1.143769,-6.029913,5.855237,-382.970001,-56.420002,34.93,1729428100814.0,0.0
-1.708475,-6.927221,6.862615,-371.140015,-74.760002,39.830002,1729428100814.0,0.0
0.512064,-5.898308,4.819145,-418.670013,-101.779999,19.389999,1729428100825.0,0.0
-1.550549,-7.49432,3.208775,-522.200012,-81.970001,0.21,1729428100846.0,0.0
-3.371487,-12.780065,4.953143,-509.600006,-100.800003,-30.030001,1729428100866.0,0.0
-5.752346,-10.365707,4.67079,-340.410004,-88.900002,-47.389999,1729428100887.0,0.0
-1.351945,-7.556533,-2.256432,-374.920013,-75.389999,-60.830002,1729428100907.0,0.0
0.990629,-10.722239,-7.499106,-370.089996,-41.720001,-54.32,1729428100926.0,0.0
-1.153341,-10.939985,-9.145369,-178.360001,15.89,-27.719999,1729428100945.0,0.0
-1.194018,-14.012369,-9.135797,-150.710007,55.23,-31.99,1729428100966.0,0.0
0.167498,-8.30788,-8.243275,-215.949997,84.419998,-54.459999,1729428100987.0,0.0
0.878166,-7.133004,-4.957928,-319.76001,100.800003,-74.480003,1729428101006.0,0.0
2.402394,-10.760524,-1.536192,-313.880005,77.419998,-57.119999,1729428101025.0,0.0
5.649454,-5.288138,3.775874,-215.809998,67.970001,-57.75,1729428101046.0,0.0
5.312066,-9.925428,1.428515,-250.110001,18.059999,-41.93,1729428101066.0,0.0
4.426722,-10.973484,-1.402194,-259.070007,-17.99,-51.939999,1729428101088.0,0.0
2.443072,-6.515656,-3.67059,-233.589996,-42.490002,-59.849998,1729428101107.0,0.0
3.9673,-3.019742,-6.996613,-259.420013,-66.43,-63.84,1729428101126.0,0.0
3.433701,0.440279,-7.951349,-243.320007,-70.769997,-39.200001,1729428101147.0,0.0
0.275175,-6.199803,-13.328021,-177.520004,-69.230003,1.89,1729428101173.0,0.0
0.557528,-1.45005,-11.52862,-87.989998,-66.220001,0.63,1729428101192.0,0.0
-0.607777,-6.771688,-13.46202,-28.42,-54.740002,3.29,1729428101211.0,0.0
0.217747,-4.098906,-12.033505,41.299999,-44.59,-22.540001,1729428101227.0,0.0
0.452243,-2.072184,-10.80838,86.099998,-31.219999,-17.85,1729428101247.0,0.0
1.210768,-3.18724,-9.183653,70.769997,-18.83,-5.53,1729428101267.0,0.0
-0.081356,-5.783452,-9.200402,69.580002,-15.190001,-1.12,1729428101288.0,0.0
0.337388,-7.721639,-11.607583,154.279999,-17.360001,0.77,1729428101308.0,0.0
1.148555,-7.32443,-15.814165,310.519989,-6.86,2.31,1729428101327.0,0.0
1.674976,-5.618347,-14.062619,456.75,27.719999,5.18,1729428101347.0,0.0
1.600798,-1.438086,-7.142576,488.040009,57.400002,14.07,1729428101367.0,0.0
0.040678,-5.632704,-4.929214,409.079987,57.610001,24.710001,1729428101389.0,0.0
-1.177269,-7.728817,-4.694718,288.540009,42.560001,12.32,1729428101409.0,0.0
-0.492921,-11.045268,-5.52742,287.0,19.389999,6.72,1729428101427.0,0.0
-0.014357,-6.398407,2.871387,377.649994,49.630001,8.4,1729428101447.0,0.0
-3.062813,-6.111269,3.553342,363.230011,56.279999,5.81,1729428101470.0,0.0
-2.569891,-10.08814,0.490529,266.279999,26.25,-17.57,1729428101489.0,0.0
-0.545564,-11.956935,0.51685,312.549988,49.139999,-14.28,1729428101508.0,0.0
-0.990629,-7.558927,4.079762,433.440002,116.690002,-12.04,1729428101530.0,0.0
-1.141376,-4.792823,9.396614,394.450012,116.900002,-14.35,1729428101548.0,0.0
0.471386,-6.809973,6.072984,276.079987,93.660004,-19.389999,1729428101568.0,0.0
0.605384,-4.972286,6.817152,236.880005,93.590004,-11.27,1729428101590.0,0.0
1.942972,-0.55992,5.979663,240.800003,96.110001,8.75,1729428101609.0,0.0
-0.581456,-3.211168,6.977471,203.770004,75.949997,36.889999,1729428101630.0,0.0
-0.081356,-4.859823,8.456236,229.25,78.610001,45.57,1729428101649.0,0.0
-1.751546,-3.15374,10.645668,272.440002,90.93,50.540001,1729428101668.0,0.0
-1.990828,-6.319445,10.320245,211.960007,70.769997,43.189999,1729428101694.0,0.0
-2.749353,-8.178668,8.762517,160.860001,55.02,29.75,1729428101713.0,0.0
-1.880759,-3.826123,8.350951,203.699997,69.230003,15.96,1729428101728.0,0.0
-5.134997,-3.218346,11.58844,213.5,88.269997,14.84,1729428101750.0,0.0
-7.089933,-6.099305,14.299508,137.339996,61.32,-2.59,1729428101768.0,0.0
-5.383851,-5.051248,13.684553,117.599998,36.400002,-33.880001,1729428101789.0,0.0
-1.887937,-3.802195,10.772489,100.239998,21.35,-52.290001,1729428101812.0,0.0
1.368695,-3.538985,10.767702,96.459999,20.51,-53.689999,1729428101829.0,0.0
1.940579,-3.15374,10.856236,86.660004,16.450001,-45.43,1729428101849.0,0.0
2.019542,-3.546163,10.021141,82.599998,-6.44,-46.060001,1729428101869.0,0.0
1.320838,-2.579463,10.320245,89.809998,-21.559999,-52.709999,1729428101901.0,0.0
0.792024,-0.681954,9.896714,59.220001,-39.34,-65.940002,1729428101911.0,0.0
-0.026321,1.167697,9.645468,17.99,-52.290001,-59.220001,1729428101936.0,0.0
-1.478764,-0.315853,10.971091,-16.73,-73.080002,-43.470001,1729428102051.0,0.0
-3.278167,-0.863809,-4.141976,-21.07,-87.779999,-32.41,1729428102070.0,0.0
-2.498107,2.553142,8.559127,16.66,-94.849998,-19.950001,1729428102073.0,0.0
-0.409173,-0.430708,7.542177,-63.630001,-23.17,-28.91,1729428102078.0,0.0
-2.28036,-0.208176,7.898707,-123.620003,-38.220001,-3.43,1729428102090.0,0.0
-3.471986,-1.162912,8.382057,-82.529999,-11.97,6.23,1729428102119.0,0.0
-1.421337,-5.836094,10.475778,-92.540001,-25.969999,-16.030001,1729428102119.0,0.0
-1.162912,-1.265803,10.064213,18.83,-13.440001,-25.620001,1729428102156.0,0.0
-0.26321,5.407779,8.73141,109.199997,-0.7,-30.799999,1729428102156.0,0.0
0.930808,5.860023,9.394222,107.379997,10.64,-13.58,1729428102169.0,0.0
1.454836,-0.323031,6.355337,38.5,1.61,32.970001,1729428102189.0,0.0
-0.086142,-6.204589,7.054041,-63.07,-12.81,27.09,1729428102209.0,0.0
-1.320838,-2.292324,8.329416,15.68,34.09,5.18,1729428102248.0,0.0
-1.277767,-3.163311,10.317852,19.040001,38.5,9.1,1729428102250.0,0.0
-2.742175,-5.886343,12.559926,-12.74,23.379999,3.99,1729428102269.0,0.0
-4.065405,-3.165704,9.815358,-20.299999,3.99,-19.040001,1729428102289.0,0.0
-1.454836,2.785245,9.561719,68.32,7.77,14.28,1729428102310.0,0.0
-1.878366,2.074577,8.472985,96.459999,-9.1,17.43,1729428102328.0,0.0
-3.694518,-1.299303,7.822137,49.84,-6.65,26.18,1729428102348.0,0.0
0.504886,2.189433,8.013563,62.580002,27.02,13.79,1729428102372.0,0.0
0.540778,3.237489,11.198411,70.139999,53.970001,31.15,1729428102392.0,0.0
0.78006,-1.107877,8.913264,-29.469999,26.25,22.75,1729428102411.0,0.0
-0.4666,-2.565106,9.288938,-40.810001,31.15,23.030001,1729428102429.0,0.0
-1.194018,-3.206382,11.598011,-18.48,21.559999,7.28,1729428102449.0,0.0
-1.397408,-4.412365,13.69173,27.719999,8.54,-5.67,1729428102469.0,0.0
-2.050649,-0.918844,10.894521,33.25,-10.5,-30.17,1729428102490.0,0.0
-3.433701,0.413958,8.463413,27.719999,-19.530001,-24.780001,1729428102511.0,0.0
-2.227718,6.54437,6.869793,45.009998,-9.24,-6.09,1729428102530.0,0.0
-0.921237,4.24726,6.742974,61.110001,-5.32,20.65,1729428102552.0,0.0
-5.761917,-0.047856,10.784451,40.459999,2.87,24.08,1729428102572.0,0.0
-3.63709,-0.476172,10.066606,-12.32,13.79,24.57,1729428102596.0,0.0
-1.914258,-0.756132,9.946963,-40.529999,7.63,35.560001,1729428102612.0,0.0
-0.011964,0.607777,9.174082,-68.809998,8.05,27.93,1729428102632.0,0.0
-0.334995,1.713261,9.767502,-175.699997,7.28,21.84,1729428102650.0,0.0
-1.627119,-1.596013,7.702496,-360.5,-23.309999,41.860001,1729428102671.0,0.0
-1.272982,-4.058227,5.4676,-526.26001,-53.41,50.75,1729428102694.0,0.0
-1.253839,-5.99402,2.68714,-599.200012,-79.730003,45.360001,1729428102716.0,0.0
2.74696,-5.290531,2.574677,-494.130005,-99.050003,46.759998,1729428102731.0,0.0
2.648855,-6.532406,5.970093,-269.5,-61.18,56.0,1729428102751.0,0.0
-0.323031,-8.602197,7.84128,-169.680008,-54.880001,53.900002,1729428102771.0,0.0
-1.737189,-11.265409,7.360322,-180.389999,-65.029999,39.689999,1729428102796.0,0.0
-2.239682,-9.805787,5.998806,-205.800003,-62.93,24.08,1729428102873.0,0.0
-3.768696,-11.3683,3.110669,-204.960007,-71.75,25.48,1729428102912.0,0.0
-0.734596,-13.194024,2.65364,-125.230003,-59.990002,12.11,1729428102915.0,0.0
-0.244068,-10.681561,2.017149,-7.49,-25.83,1.47,1729428102920.0,0.0
-0.040678,-8.106883,3.646662,67.760002,-9.45,1.33,1729428102921.0,0.0
-1.665405,-8.870193,2.840281,111.720001,-18.129999,10.08,1729428102921.0,0.0
-0.531207,-11.772687,2.091327,251.229996,-17.710001,9.31,1729428102929.0,0.0
-2.395216,-6.515656,5.946165,408.869995,29.75,1.33,1729428102949.0,0.0
-2.770889,-6.843473,7.367501,436.940002,25.059999,-16.1,1729428102971.0,0.0
-2.074577,-6.233303,8.946764,499.589996,49.98,-31.85,1729428103271.0,0.0
-0.591027,0.136391,10.937593,488.950012,85.610001,-79.309998,1729428103280.0,0.0
-1.598405,0.433101,11.820543,368.690002,80.290001,-79.239998,1729428103281.0,0.0
-1.256232,0.445065,8.69791,233.729996,68.809998,-92.050003,1729428103283.0,0.0
-2.289931,4.919643,7.941778,179.619995,83.650002,-82.25,1729428103287.0,0.0
-3.835695,1.507478,8.843873,99.610001,64.82,-55.790001,1729428103294.0,0.0
-3.675375,0.227318,10.683953,82.110001,47.389999,-38.709999,1729428103303.0,0.0
-2.519642,-0.815953,10.719845,71.610001,27.719999,-23.799999,1729428103310.0,0.0
-1.744368,-2.213361,9.332008,36.959999,10.01,-14.98,1729428103310.0,0.0
-1.902294,-2.065006,9.111869,18.620001,3.64,-14.63,1729428103310.0,0.0
-2.165504,-1.107877,8.961121,23.030001,1.12,-18.059999,1729428103310.0,0.0
-2.146362,-0.949951,8.181061,35.279999,-0.7,-21.280001,1729428103310.0,0.0
-2.656033,-0.579063,7.819745,34.790001,0.28,-23.59,1729428103332.0,0.0
-3.244668,-0.947558,8.805587,9.52,-3.92,-26.389999,1729428103332.0,0.0
-2.452643,-0.973879,8.963513,6.44,-4.06,-31.43,1729428103333.0,0.0
-2.005185,0.246461,8.719445,5.67,-2.59,-32.27,1729428103333.0,0.0
-2.218147,1.351945,9.128618,-8.05,-3.36,-29.75,1729428103333.0,0.0
-1.974079,1.696511,9.772287,-19.32,-6.23,-25.34,1729428103333.0,0.0
-1.954936,0.447458,9.504292,-25.34,-5.81,-16.52,1729428103349.0,0.0
-2.292324,0.571885,9.628718,-29.26,-4.48,-9.73,1729428103369.0,0.0
-2.129612,0.437887,8.932407,-28.630001,-8.82,-4.34,1729428103390.0,0.0
-2.354537,0.961915,8.207381,-18.41,-4.2,-4.55,1729428103413.0,0.0
-2.443072,0.179462,8.12124,-23.799999,-1.54,-9.94,1729428103430.0,0.0
-2.876173,0.385244,8.915657,-20.02,4.34,-11.2,1729428103450.0,0.0
-2.175076,0.935594,9.006584,-31.01,1.89,-8.82,1729428103470.0,0.0
-2.311467,2.663212,9.102298,-32.900002,1.82,2.03,1729428103493.0,0.0
-2.691926,2.318645,9.365508,-33.810001,1.54,2.73,1729428103512.0,0.0
-3.680161,-1.524228,10.803595,-31.780001,-0.07,-5.74,1729428103530.0,0.0
-1.974079,-4.103691,10.951948,-6.23,4.27,-21.700001,1729428103551.0,0.0
-2.206182,-1.299303,12.256038,-12.88,10.92,-17.43,1729428103570.0,0.0
-2.309074,-3.771089,10.911271,-39.060001,-13.23,-7.63,1729428103593.0,0.0
-1.852045,-4.893322,9.348758,-12.67,-16.24,-20.23,1729428103612.0,0.0
-1.761117,-5.158926,9.052048,-9.52,-14.14,-42.84,1729428103631.0,0.0
-3.055635,-1.777867,8.066205,-35.91,-17.43,-64.260002,1729428103652.0,0.0
-2.581856,3.897908,8.286345,-60.549999,-16.940001,-50.75,1729428103671.0,0.0
-3.625126,7.659425,8.532805,-105.699997,-29.960001,-3.71,1729428103694.0,0.0
-4.613362,7.630712,9.138189,-93.379997,-32.27,45.360001,1729428103715.0,0.0
-4.816752,4.790431,11.935399,-94.5,-32.759998,75.32,1729428103731.0,0.0
-3.56052,3.821337,10.916058,-150.009995,-43.610001,106.82,1729428103753.0,0.0
-2.589034,1.062413,5.252246,-270.480011,-41.09,127.959999,1729428103771.0,0.0
-5.134997,-14.218152,7.688138,-387.380005,-46.41,133.490005,1729428103794.0,0.0
-2.778067,-30.972694,5.486742,-323.049988,-48.369999,67.970001,1729428103813.0,0.0
3.117848,-23.222343,0.387637,-128.520004,-8.47,-66.290001,1729428103832.0,0.0
-0.89013,-12.248858,6.503692,62.93,40.599998,-139.020004,1729428103852.0,0.0
-1.478764,-4.302295,7.568498,36.889999,1.4,-171.710007,1729428103872.0,0.0
-0.437887,-4.031906,3.395415,-21.35,-15.05,-171.360001,1729428103895.0,0.0
2.553142,6.769295,2.904887,-87.57,-4.76,-164.639999,1729428103913.0,0.0
0.665205,13.014563,3.897908,-32.970001,17.92,-70.279999,1729428103936.0,0.0
-4.429115,6.664011,12.933208,15.96,22.469999,58.099998,1729428103952.0,0.0
-6.250053,1.229911,14.742181,26.389999,-3.08,90.090004,1729428103973.0,0.0
-6.022735,-3.641876,11.315658,3.78,-19.74,126.910004,1729428104004.0,0.0
-2.598605,-7.692925,6.446264,-59.360001,-14.42,138.600006,1729428104013.0,0.0
-0.756132,-17.996418,8.657232,-38.43,-13.16,150.080002,1729428104032.0,0.0
-3.335595,-29.66143,8.922836,-33.599998,-24.639999,110.739998,1729428104052.0,0.0
-0.665205,-29.642288,0.433101,-59.150002,-17.219999,-51.59,1729428104073.0,0.0
0.543171,-14.455042,3.302095,26.809999,38.709999,-161.770004,1729428104094.0,0.0
-1.572084,-4.790431,5.089533,49.0,28.98,-203.0,1729428104142.0,0.0
3.175276,1.952543,5.883951,45.290001,11.83,-160.020004,1729428104204.0,0.0
3.414558,16.077375,7.783852,93.239998,26.389999,-112.489998,1729428104238.0,0.0
-3.649055,16.697117,12.545568,110.669998,29.049999,18.76,1729428104238.0,0.0
-8.587841,4.505685,12.875778,46.759998,-27.440001,75.459999,1729428104239.0,0.0
-5.316852,-0.435494,9.470792,72.660004,-9.73,103.18,1729428104239.0,0.0
-3.797409,-2.895315,7.06122,85.610001,25.48,135.380005,1729428104239.0,0.0
-4.161119,-11.009377,9.801002,38.5,37.240002,143.850006,1729428104251.0,0.0
-3.869194,-22.794027,14.816358,18.129999,16.66,112.699997,1729428104272.0,0.0
-0.416351,-23.224735,7.267002,-52.009998,-29.68,-40.810001,1729428104293.0,0.0
1.399801,-16.421942,4.85743,-59.080002,-36.119999,-122.779999,1729428104369.0,0.0
2.431108,-7.992027,3.326023,23.59,-33.740002,-164.289993,1729428104370.0,0.0
4.778467,3.481557,1.933401,81.480003,-13.02,-152.809998,1729428104372.0,0.0
2.644069,11.255837,6.053841,85.82,14.07,-100.730003,1729428104379.0,0.0
0.308674,14.493326,9.346365,41.02,20.860001,-31.780001,1729428104394.0,0.0
-3.823731,9.260223,13.004992,0.14,1.96,47.529999,1729428104415.0,0.0
-8.116454,4.776074,13.600803,48.299999,-22.75,114.169998,1729428104434.0,0.0
-9.133404,-1.536192,10.423136,69.720001,-14.49,136.990005,1729428104453.0,0.0
-3.596412,-5.702096,7.65464,5.67,12.04,148.190002,1729428104472.0,0.0
-0.870987,-5.548956,8.126025,-26.389999,35.139999,143.919998,1729428104493.0,0.0
-2.598605,-5.991628,8.77448,-61.110001,40.110001,139.229996,1729428104511.0,0.0
-3.570091,-11.133803,8.85823,-137.619995,21.0,129.080002,1729428104531.0,0.0
-2.402394,-15.74238,6.541977,-193.059998,-5.25,91.559998,1729428104550.0,0.0
-1.998007,-16.919647,6.003592,-320.529999,-17.15,57.189999,1729428104570.0,0.0
-0.117248,-9.444471,3.06042,-524.22998,-14.49,12.88,1729428104593.0,0.0
-3.510271,-4.972286,7.992027,-625.940002,-18.549999,-4.83,1729428104612.0,0.0
-7.140182,-12.279965,4.165904,-663.809998,-105.0,-41.439999,1729428104632.0,0.0
-0.937986,-10.320245,-2.067399,-529.970032,-113.470001,-111.160004,1729428104652.0,0.0
0.607777,-9.585647,-4.895715,-373.589996,-65.590004,-94.919998,1729428104672.0,0.0
-2.62732,-12.729815,-5.517848,-256.76001,-20.790001,-77.209999,1729428104694.0,0.0
-3.440879,-13.567304,-5.737988,-185.360001,25.969999,-68.879997,1729428104715.0,0.0
-1.213161,-9.913465,-8.874979,-241.850006,55.93,-92.959999,1729428104731.0,0.0
1.292124,-4.95075,-7.805387,-320.670013,73.43,-101.849998,1729428104752.0,0.0
0.880559,-4.941179,-4.065405,-419.51001,66.919998,-88.129997,1729428104772.0,0.0
0.155533,-2.361716,-2.629712,-393.26001,46.41,-71.959999,1729428104792.0,0.0
3.56052,-5.221139,-6.070591,-384.089996,12.11,-57.610001,1729428104812.0,0.0
3.881158,-5.307281,-3.9673,-331.23999,-2.17,-56.139999,1729428104832.0,0.0
4.35733,-3.993621,-4.309474,-272.299988,-17.5,-51.799999,1729428104851.0,0.0
3.562913,-6.238089,-4.09412,-250.809998,-39.900002,-41.860001,1729428104873.0,0.0
1.272982,-6.273981,-4.838287,-230.580002,-67.970001,-47.459999,1729428104892.0,0.0
0.708275,-3.479164,-8.190632,-242.759995,-87.360001,-52.920002,1729428104912.0,0.0
0.940379,-3.816552,-16.163517,-237.649994,-88.760002,-36.68,1729428104988.0,0.0
1.804188,-1.59362,-14.811572,-113.610001,-53.970001,-31.780001,1729428104988.0,0.0
1.998007,-0.765703,-11.057234,19.74,-19.25,-18.129999,1729428104988.0,0.0
2.416751,-2.349752,-7.673782,38.5,-23.1,-11.69,1729428104993.0,0.0
1.399801,-3.570091,-6.166305,56.420002,-39.830002,-20.440001,1729428105012.0,0.0
-0.392423,-4.878965,-8.836694,54.529999,-55.790001,-32.41,1729428105032.0,0.0
-0.863809,-3.550949,-13.155738,83.019997,-57.470001,-40.880001,1729428105051.0,0.0
-1.26341,-6.197411,-17.015362,201.880005,-38.709999,-27.719999,1729428105071.0,0.0
-0.789631,-4.907679,-17.020147,385.630005,-4.13,-19.110001,1729428105092.0,0.0
-0.782453,-3.132205,-12.914064,533.190002,36.049999,6.44,1729428105111.0,0.0
-0.411566,-1.598405,-10.755738,577.5,51.52,19.530001,1729428105131.0,0.0
-1.239482,-1.421337,-8.389235,493.850006,67.690002,36.959999,1729428105151.0,0.0
-2.775674,-6.173482,-5.570491,325.149994,59.010002,29.4,1729428105171.0,0.0
0.985843,-10.293922,-10.179067,349.790009,-15.33,0.91,1729428105193.0,0.0
0.382852,-8.394022,-0.533599,559.159973,74.199997,19.530001,1729428105212.0,0.0
-5.359922,-5.54417,4.634897,563.01001,66.220001,-20.299999,1729428105231.0,0.0
-1.976472,-7.587641,-1.854438,397.040009,43.049999,-40.740002,1729428105251.0,0.0
-1.014557,-10.202995,-1.880759,236.389999,37.799999,-28.98,1729428105271.0,0.0
0.215354,-7.467999,1.811367,239.820007,68.32,-27.65,1729428105292.0,0.0
-2.56032,-5.972485,0.830309,145.529999,76.650002,-8.54,1729428105318.0,0.0
-1.555335,-3.756732,5.295317,67.970001,92.470001,-0.14,1729428105331.0,0.0
1.100698,-2.991028,8.992228,-19.950001,71.400002,12.88,1729428105352.0,0.0
1.440479,-2.785245,12.933208,-114.379997,37.869999,44.380001,1729428105371.0,0.0
2.313859,-7.192825,10.147961,-193.619995,-14.07,59.990002,1729428105392.0,0.0
1.579263,-6.735795,8.817552,-274.890015,-56.98,69.720001,1729428105412.0,0.0
-1.368695,-9.698111,3.443272,-379.610016,-116.199997,63.07,1729428105431.0,0.0
2.256432,-10.782058,-2.455036,-341.179993,-146.440002,46.34,1729428105451.0,0.0
-0.859023,-10.777272,-8.16431,-246.259995,-117.809998,57.75,1729428105472.0,0.0
-7.149754,-16.53919,-8.200203,-140.279999,-84.419998,33.25,1729428105494.0,0.0
-9.52822,-15.196816,-9.724431,-139.649994,-20.299999,1.89,1729428105512.0,0.0
-4.752146,-8.128418,-13.596018,-162.190002,61.040001,-21.280001,1729428105532.0,0.0
-2.70389,-8.281559,-10.949556,-168.419998,91.910004,-36.049999,1729428105552.0,0.0
-0.631705,-9.190832,-13.103097,-170.240005,111.300003,-36.889999,1729428105572.0,0.0
1.325624,0.909273,-0.066999,-152.529999,161.979996,-15.82,1729428105592.0,0.0
0.301496,-8.79123,7.317252,-231.210007,111.300003,20.719999,1729428105612.0,0.0
0.48335,-9.688539,8.630912,-197.470001,54.459999,20.23,1729428105631.0,0.0
-1.222732,-13.012171,3.862016,-219.100006,-69.93,-11.62,1729428105651.0,0.0
2.467,-8.961121,-5.627919,-194.600006,-119.840004,-24.57,1729428105672.0,0.0
3.924229,-7.71446,-10.640882,-216.790009,-138.039993,-45.779999,1729428105693.0,0.0
0.236889,-5.242674,-9.159724,-170.240005,-118.93,-34.860001,1729428105715.0,0.0
-2.038685,-4.929214,-12.981063,-150.430008,-105.980003,-22.610001,1729428105731.0,0.0
-6.927221,-4.476971,-14.591432,-220.009995,-66.709999,-21.139999,1729428105751.0,0.0
-6.51087,-1.933401,-14.806787,-269.709991,-34.23,-19.6,1729428105771.0,0.0
-4.869394,0.57667,-13.667803,-169.259995,-5.67,-15.12,1729428105793.0,0.0
-4.13719,1.095913,-11.124231,-184.380005,10.22,-12.18,1729428105813.0,0.0
-2.261217,-0.476172,-10.380065,-210.419998,14.91,-13.440001,1729428105831.0,0.0
0.375673,-3.337988,-11.332408,-167.860001,21.07,-15.68,1729428105852.0,0.0
1.512264,-2.840281,-8.575876,-147.559998,28.630001,-28.0,1729428105871.0,0.0
2.457429,0.57667,-7.944171,-119.559998,21.91,-23.940001,1729428105893.0,0.0
1.538585,-1.584049,-7.345965,-93.590004,10.5,-2.94,1729428105912.0,0.0
-0.524028,-3.371487,-6.702296,-44.73,-8.47,4.55,1729428105941.0,0.0
-1.854438,-1.409373,-8.003991,-78.75,-24.85,-9.17,1729428105952.0,0.0
-1.706082,0.16989,-9.592826,-76.230003,-36.189999,-0.98,1729428105972.0,0.0
-1.923829,-2.620141,-13.548162,-11.83,-33.950001,10.71,1729428105994.0,0.0
-2.40718,-3.613162,-12.569498,25.83,-23.030001,-3.78,1729428106011.0,0.0
-1.727618,-2.160719,-12.263215,9.24,-14.35,-23.940001,1729428106034.0,0.0
-1.866402,-3.050849,-13.019348,71.330002,-6.3,-20.09,1729428106051.0,0.0
-2.141576,-2.859423,-12.401999,175.279999,2.8,-14.49,1729428106070.0,0.0
-1.954936,-2.701497,-12.497713,276.01001,9.59,-6.02,1729428106093.0,0.0
-2.232504,-4.981857,-13.174881,401.519989,22.049999,6.3,1729428106113.0,0.0
-2.285146,-6.625726,-13.258631,560.070007,27.93,11.55,1729428106130.0,0.0
-2.105684,-1.397408,-13.426127,680.609985,32.27,3.78,1729428106152.0,0.0
-1.72044,-0.421137,-14.548362,673.609985,60.619999,16.870001,1729428106170.0,0.0
-1.765903,-7.989635,-7.15454,602.97998,74.129997,-7.77,1729428106203.0,0.0
-4.572684,-10.207782,6.07777,604.169983,54.18,-23.379999,1729428106212.0,0.0
-5.156533,-1.744368,2.622534,560.97998,65.800003,-50.959999,1729428106231.0,0.0
-3.17049,-5.125426,2.48375,338.029999,49.279999,-58.310001,1729428106251.0,0.0
-0.468993,-9.4349,0.145962,208.949997,39.41,-58.380001,1729428106271.0,0.0
-2.383251,-8.176274,3.062813,289.940002,94.639999,-44.099998,1729428106291.0,0.0
-1.179662,-6.929615,4.139583,313.390015,112.139999,-34.09,1729428106312.0,0.0
-2.225325,-5.941379,6.001199,282.380005,110.879997,-21.42,1729428106332.0,0.0
-1.311267,-3.335595,6.159126,273.839996,108.360001,-25.200001,1729428106352.0,0.0
-2.007578,-3.326023,5.771489,277.130005,106.68,-24.780001,1729428106371.0,0.0
-2.189433,-6.12084,7.508677,302.610016,119.699997,-21.700001,1729428106392.0,0.0
-1.978864,-5.436492,10.593026,266.910004,101.150002,-26.110001,1729428106411.0,0.0
-2.002793,-2.909672,10.956735,199.149994,83.019997,-1.47,1729428106430.0,0.0
-1.971686,-3.778267,9.276974,152.460007,60.970001,19.809999,1729428106451.0,0.0
-2.59382,-1.823331,9.341579,147.139999,66.010002,33.18,1729428106471.0,0.0
-4.338188,-5.692525,9.769895,113.470001,44.66,41.09,1729428106491.0,0.0
-3.546163,-7.946564,9.619147,151.550003,34.860001,29.610001,1729428106511.0,0.0
-5.046463,-5.965307,10.679168,173.880005,36.049999,13.3,1729428106532.0,0.0
-2.634498,-7.030113,10.664811,113.610001,25.83,-4.34,1729428106550.0,0.0
-1.29691,-6.563512,10.49492,83.650002,11.76,-23.379999,1729428106572.0,0.0
-1.78026,-5.601598,12.078968,68.879997,3.57,-42.349998,1729428106593.0,0.0
-1.261017,-3.835695,11.557333,53.689999,-17.360001,-57.68,1729428106611.0,0.0
-0.430708,-3.572484,8.26481,57.400002,-37.869999,-58.869999,1729428106630.0,0.0
