acc_x,acc_y,acc_z,gyr_x,gyr_y,gyr_z,timestamp,label
-1.048056,-5.525027,-7.32443,-79.730003,64.82,-11.83,1729431735026.0,0.0
-1.445265,-5.60399,-7.140182,-73.220001,64.610001,-7.35,1729431735032.0,0.0
-1.59362,-6.101698,-7.068398,-71.400002,58.66,-6.16,1729431735032.0,0.0
-1.521835,-5.927022,-7.039684,-55.720001,49.560001,-5.53,1729431735033.0,0.0
-1.706082,-5.369494,-6.826723,-30.030001,41.509998,-2.66,1729431735038.0,0.0
-1.89033,-5.338387,-6.625726,-12.39,35.209999,-0.91,1729431735057.0,0.0
-2.002793,-5.771489,-7.018148,0.07,28.35,1.82,1729431735076.0,0.0
-2.54357,-5.596812,-6.84108,8.75,18.059999,4.27,1729431735098.0,0.0
-2.794817,-5.142176,-6.65444,5.04,13.3,5.95,1729431735118.0,0.0
-2.713461,-5.089533,-6.666404,-5.04,8.47,7.91,1729431735137.0,0.0
-2.775674,-5.412565,-6.943972,-22.469999,7.91,7.91,1729431735158.0,0.0
-2.691926,-6.084948,-7.106683,-38.080002,7.07,6.72,1729431735176.0,0.0
-2.349752,-6.092126,-7.190433,-40.880001,5.67,3.99,1729431735196.0,0.0
-2.323431,-5.539384,-7.089933,-33.740002,7.42,3.08,1729431735218.0,0.0
-2.112862,-5.355137,-6.910471,-29.33,11.34,4.41,1729431735237.0,0.0
-1.395016,-5.185246,-6.721439,-27.23,7.63,7.98,1729431735257.0,0.0
-1.174876,-5.271388,-7.290931,-31.43,1.82,11.76,1729431735277.0,0.0
-1.028914,-5.728417,-8.427521,-37.799999,-2.66,10.71,1729431735298.0,0.0
-0.689133,-6.209375,-9.420543,-34.509998,-3.36,7.49,1729431735318.0,0.0
-0.284746,-6.185446,-9.769895,-18.76,-1.12,2.66,1729431735337.0,0.0
-0.260818,-5.56092,-9.186047,3.99,0.91,-1.54,1729431735360.0,0.0
-0.717847,-5.319244,-8.846266,16.1,3.29,-4.76,1729431735376.0,0.0
-0.851845,-5.340781,-8.685946,19.25,2.8,-6.3,1729431735397.0,0.0
-0.732204,-4.388437,-8.350951,17.360001,1.61,-7.7,1729431735417.0,0.0
-0.677169,-4.431508,-8.611769,2.17,-2.1,-6.3,1729431735436.0,0.0
-0.624527,-5.051248,-9.006584,-8.4,-1.75,-3.08,1729431735458.0,0.0
-0.579063,-5.395815,-8.906086,-6.16,-1.75,-1.54,1729431735476.0,0.0
-0.55992,-5.532206,-8.944371,0.21,1.12,-1.33,1729431735496.0,0.0
-0.557528,-5.405386,-8.906086,-3.08,3.5,-3.71,1729431735518.0,0.0
-0.622134,-5.446064,-8.62134,-9.24,4.97,-4.13,1729431735537.0,0.0
-0.42353,-5.568098,-8.733803,-9.59,3.78,-4.83,1729431735557.0,0.0
-0.452243,-5.278566,-8.9348,-5.25,3.22,-5.81,1729431735577.0,0.0
-0.612563,-4.945964,-8.963513,-3.22,4.76,-5.95,1729431735596.0,0.0
-0.595813,-4.977071,-9.052048,-2.45,5.88,-4.76,1729431735619.0,0.0
-0.57667,-4.847858,-8.805587,-1.26,7.0,-3.15,1729431735637.0,0.0
-0.622134,-4.912465,-8.427521,-3.78,7.49,-2.31,1729431735656.0,0.0
-0.586242,-5.058427,-8.446664,-9.66,6.16,-2.31,1729431735676.0,0.0
-0.531207,-4.917251,-8.618947,-19.6,4.41,-3.78,1729431735696.0,0.0
-0.370888,-5.151747,-8.822337,-24.639999,4.41,-4.41,1729431735717.0,0.0
-0.138784,-5.142176,-8.906086,-16.030001,4.06,-3.99,1729431735737.0,0.0
-0.162712,-5.020142,-8.855836,-5.25,3.85,-3.29,1729431735759.0,0.0
-0.105284,-4.790431,-8.930015,-3.01,2.31,-3.78,1729431735776.0,0.0
-0.267996,-4.682754,-9.035298,-8.89,2.94,-4.55,1729431735796.0,0.0
-0.275175,-4.941179,-8.95155,-11.69,3.64,-3.5,1729431735818.0,0.0
-0.366102,-4.941179,-8.781659,-3.64,3.99,-2.38,1729431735836.0,0.0
-0.37328,-4.706682,-8.69791,5.81,3.29,-3.5,1729431735857.0,0.0
-0.382852,-4.61097,-8.760124,4.06,2.8,-3.22,1729431735876.0,0.0
-0.421137,-4.704289,-8.750552,-3.22,3.08,-2.94,1729431735896.0,0.0
-0.51685,-4.981857,-8.908479,-4.34,2.66,-2.66,1729431735917.0,0.0
-0.401994,-4.831109,-8.889337,-0.7,2.1,-3.15,1729431735938.0,0.0
-0.440279,-4.713861,-9.018548,-0.21,1.96,-3.64,1729431735956.0,0.0
-0.514457,-4.776074,-9.286544,-4.06,3.36,-4.69,1729431735976.0,0.0
-0.569492,-4.721039,-9.253045,-8.61,5.04,-5.88,1729431735996.0,0.0
-0.792024,-4.9675,-9.320045,-15.05,8.61,-6.65,1729431736017.0,0.0
-0.751346,-5.245068,-9.466006,-14.63,10.22,-8.26,1729431736036.0,0.0
-0.765703,-4.864608,-9.221939,-7.7,11.76,-11.76,1729431736057.0,0.0
-0.835095,-4.938786,-9.200402,-5.18,13.440001,-13.72,1729431736075.0,0.0
-0.729811,-4.618148,-8.894121,-1.4,15.12,-17.290001,1729431736096.0,0.0
-0.631705,-4.041477,-8.642875,2.03,14.84,-18.41,1729431736118.0,0.0
-0.256032,-4.144369,-8.312666,-3.15,12.74,-19.18,1729431736136.0,0.0
-0.37328,-4.110869,-8.133204,-7.98,9.87,-19.25,1729431736158.0,0.0
-0.746561,-4.101298,-7.922636,-10.15,5.74,-17.92,1729431736176.0,0.0
-1.064806,-4.326223,-7.812566,-14.0,2.17,-16.940001,1729431736196.0,0.0
-0.868595,-4.625326,-8.262416,-15.82,-1.05,-15.82,1729431736217.0,0.0
-0.641276,-4.778467,-8.853443,-11.55,-3.36,-15.33,1729431736244.0,0.0
-0.842274,-3.981657,-8.85823,-3.01,-5.6,-12.67,1729431736256.0,0.0
-0.935594,-4.218546,-8.781659,-3.15,-4.06,-10.5,1729431736277.0,0.0
-0.777667,-4.541577,-8.705089,0.49,-4.2,-9.59,1729431736296.0,0.0
-0.988236,-4.819145,-9.078369,27.23,-2.8,-8.75,1729431736318.0,0.0
-1.229911,-4.677969,-9.389436,43.119999,0.56,-7.49,1729431736338.0,0.0
-1.65344,-4.723432,-9.147761,44.310001,7.98,-7.07,1729431736362.0,0.0
-2.208575,-4.278367,-8.169096,41.650002,13.37,-4.76,1729431736376.0,0.0
-2.486143,-5.187639,-8.963513,51.170002,16.66,-2.45,1729431736396.0,0.0
-2.806781,-4.922036,-10.179067,74.269997,21.77,0.98,1729431736419.0,0.0
-2.718246,-6.118448,-9.013763,82.389999,21.07,9.31,1729431736437.0,0.0
-0.598206,-6.577869,-8.391629,45.57,4.69,-3.64,1729431736457.0,0.0
1.497907,-6.553941,-8.539984,13.3,-14.28,-7.07,1729431736477.0,0.0
3.194418,-7.085148,-9.619147,26.25,-24.01,-11.55,1729431736496.0,0.0
2.754139,-6.226124,-7.513463,45.709999,-24.219999,-10.5,1729431736519.0,0.0
2.749353,-5.520242,-5.675776,65.940002,-31.219999,-6.58,1729431736538.0,0.0
2.462214,-4.907679,-6.266802,40.459999,-43.470001,-9.17,1729431736557.0,0.0
4.673182,-4.177868,-7.549356,0.7,-58.73,-14.91,1729431736577.0,0.0
5.556134,-3.790231,-6.982256,-42.630001,-61.740002,-21.629999,1729431736600.0,0.0
2.713461,-3.816552,-5.414958,-52.150002,-62.790001,-28.77,1729431736618.0,0.0
1.165305,-1.61037,-4.208975,-41.09,-85.610001,-37.450001,1729431736638.0,0.0
1.584049,0.87338,-5.709275,-134.960007,-102.550003,-42.700001,1729431736658.0,0.0
2.974278,-2.940779,-9.207582,-211.680008,-101.150002,-41.790001,1729431736678.0,0.0
2.639283,-8.13799,-11.988041,-200.199997,-90.790001,-46.689999,1729431736697.0,0.0
-1.68694,-6.733403,-10.561919,-108.919998,-83.370003,-50.68,1729431736721.0,0.0
-7.068398,-2.531606,-5.249853,-65.940002,-88.550003,-48.580002,1729431736739.0,0.0
-4.541577,-5.364708,-14.112868,-146.509995,-64.889999,-58.240002,1729431736759.0,0.0
-4.371687,-4.926822,-14.907285,-92.400002,-46.060001,-38.779999,1729431736779.0,0.0
-3.335595,-0.976272,-11.641083,5.81,-31.5,-13.51,1729431736799.0,0.0
-1.78026,-1.988436,-6.726225,6.86,-19.6,8.05,1729431736822.0,0.0
-2.177469,-1.56012,-8.365308,-72.099998,-25.059999,2.03,1729431736839.0,0.0
-2.89053,-5.778666,-14.778071,-99.540001,-19.460001,-4.62,1729431736861.0,0.0
-1.651048,-6.111269,-13.237095,-36.189999,-4.2,-4.9,1729431736880.0,0.0
-2.06022,-2.476572,-9.018548,61.459999,4.97,-3.08,1729431736900.0,0.0
-1.452443,0.196211,-8.446664,51.380001,2.73,2.87,1729431736920.0,0.0
0.344566,-2.029114,-11.009377,-8.33,9.24,15.68,1729431736939.0,0.0
-1.091127,-3.787838,-12.660425,3.64,15.68,27.23,1729431736964.0,0.0
-1.122234,-2.35693,-11.009377,70.419998,28.35,40.880001,1729431736979.0,0.0
0.014357,-0.909273,-9.262616,96.32,28.630001,49.139999,1729431736998.0,0.0
0.098106,-3.416951,-9.399008,25.27,32.48,31.780001,1729431737021.0,0.0
0.964308,-6.01077,-8.788837,13.79,28.139999,16.73,1729431737040.0,0.0
-0.052642,-8.819944,-7.752745,32.130001,22.540001,-7.0,1729431737060.0,0.0
-2.85703,-7.642675,-4.019942,46.200001,13.51,-40.110001,1729431737079.0,0.0
-3.505485,-2.505285,-2.9671,37.869999,-20.790001,-45.920002,1729431737098.0,0.0
1.502693,-2.864209,-6.644868,-54.459999,-37.869999,-46.970001,1729431737121.0,0.0
2.634498,-4.788038,-10.24846,-117.25,-40.950001,-46.549999,1729431737139.0,0.0
-0.70349,-4.460221,-10.772489,-88.199997,-40.18,-46.060001,1729431737160.0,0.0
-3.9673,-4.295116,-7.80778,-31.360001,-41.650002,-46.619999,1729431737179.0,0.0
-4.926822,-2.462214,-10.29153,-20.860001,-42.77,-65.519997,1729431737199.0,0.0
-5.300103,-1.942972,-11.763116,-24.85,-33.670002,-55.16,1729431737221.0,0.0
-4.706682,1.031307,-11.423335,19.18,-27.440001,-40.32,1729431737239.0,0.0
-3.428915,3.005385,-8.386844,25.41,-23.030001,-16.17,1729431737259.0,0.0
-3.120241,0.961915,-9.382257,-5.81,-21.91,11.13,1729431737278.0,0.0
-4.505685,-1.289732,-11.274981,-35.77,-14.84,22.26,1729431737299.0,0.0
-4.029513,-2.057827,-12.476178,-13.58,-0.28,37.59,1729431737322.0,0.0
-1.959722,-0.662812,-10.9017,44.240002,15.96,53.689999,1729431737339.0,0.0
-1.378266,-0.76331,-9.233903,93.870003,27.58,79.590004,1729431737361.0,0.0
-0.691526,-2.519642,-9.183653,47.529999,33.040001,76.019997,1729431737379.0,0.0
0.090927,-6.553941,-7.769495,18.969999,38.290001,72.379997,1729431737398.0,0.0
0.411566,-6.092126,-8.216952,5.6,36.75,58.66,1729431737419.0,0.0
-0.930808,-8.312666,-6.276374,-3.92,24.57,38.990002,1729431737438.0,0.0
-0.22014,-7.082755,-7.262216,-31.01,5.04,14.56,1729431737460.0,0.0
-0.681954,-6.336195,-8.362915,-14.49,-7.56,0.56,1729431737478.0,0.0
-3.053242,-5.508278,-7.144968,-29.960001,-16.59,-9.8,1729431737499.0,0.0
-3.742374,-5.773881,-9.62154,-65.590004,-23.870001,-28.210001,1729431737521.0,0.0
-3.177669,-4.527221,-11.265409,-42.630001,-27.51,-39.34,1729431737538.0,0.0
-3.337988,-2.651247,-12.619746,-7.91,-26.18,-47.599998,1729431737560.0,0.0
-4.835894,-1.512264,-11.949757,-8.75,-12.67,-49.84,1729431737578.0,0.0
-4.163511,-2.155933,-9.844072,-7.84,-2.87,-56.279999,1729431737599.0,0.0
-4.84068,-0.772882,-7.62114,-12.95,-4.62,-59.5,1729431737621.0,0.0
-4.027121,0.868595,-9.635897,-6.09,-13.3,-56.349998,1729431737638.0,0.0
-4.065405,0.236889,-9.75793,-12.25,-6.93,-39.830002,1729431737658.0,0.0
-3.206382,0.232104,-9.200402,-6.72,-6.93,-15.33,1729431737680.0,0.0
-2.404787,0.62692,-11.260624,34.439999,3.22,21.77,1729431737700.0,0.0
-1.07677,1.663012,-11.279767,50.470001,14.49,45.290001,1729431737719.0,0.0
-0.636491,1.239482,-11.509477,63.77,21.700001,70.209999,1729431737741.0,0.0
-1.272982,-2.971886,-9.966106,39.060001,37.310001,81.480003,1729431737758.0,0.0
-1.533799,-6.278766,-8.937192,36.119999,43.82,78.400002,1729431737778.0,0.0
-1.428515,-4.749753,-5.211568,42.700001,45.849998,80.639999,1729431737798.0,0.0
-1.162912,-5.929415,-6.128019,-3.78,42.700001,74.830002,1729431737819.0,0.0
-4.232903,-9.487542,-4.663611,-76.090004,15.26,48.93,1729431737839.0,0.0
-2.754139,-12.985848,-9.013763,-146.160004,1.19,-7.98,1729431737860.0,0.0
-2.65364,-10.057034,-12.162716,-40.880001,-8.61,-38.709999,1729431737880.0,0.0
-2.06022,-4.163511,-10.269995,82.529999,-8.05,-49.84,1729431737899.0,0.0
-1.866402,-1.495514,-8.032705,60.27,-13.440001,-65.590004,1729431737921.0,0.0
-2.148755,-2.940779,-9.028119,-49.490002,-10.5,-84.980003,1729431737939.0,0.0
-4.307081,-2.445465,-9.939785,-63.91,-16.66,-85.260002,1729431737958.0,0.0
-4.462614,-2.569891,-10.286745,-18.549999,-14.07,-82.25,1729431737978.0,0.0
-3.883551,1.768296,-11.002198,33.389999,-13.02,-69.300003,1729431738000.0,0.0
-2.127219,3.658626,-10.124033,10.01,-6.09,-23.030001,1729431738020.0,0.0
-1.39023,3.012564,-10.657632,36.75,3.64,21.98,1729431738039.0,0.0
-1.794617,0.772882,-11.822936,36.75,16.309999,48.02,1729431738058.0,0.0
-1.811367,-1.184447,-12.543176,25.76,28.91,63.700001,1729431738078.0,0.0
-1.830509,-1.184447,-12.483356,41.09,42.77,67.900002,1729431738098.0,0.0
-1.564906,-6.91765,-7.235896,70.489998,52.779999,75.949997,1729431738122.0,0.0
-2.318645,-4.201797,-5.639884,84.559998,52.080002,68.669998,1729431738138.0,0.0
-1.524228,-6.159126,-4.685147,33.040001,46.41,56.91,1729431738158.0,0.0
-1.995614,-8.240881,-4.529613,-56.98,25.34,32.060001,1729431738180.0,0.0
-3.639483,-13.94537,-7.295716,-93.449997,9.24,-3.64,1729431738200.0,0.0
-0.937986,-11.490334,-9.925428,-37.869999,-4.41,-44.029999,1729431738219.0,0.0
1.339981,-2.471786,-8.449057,56.98,-17.92,-56.420002,1729431738238.0,0.0
-2.304288,-1.363909,-8.154739,56.98,-24.43,-46.200001,1729431738260.0,0.0
-2.976671,-3.711268,-9.994821,-26.530001,-20.719999,-65.099998,1729431738285.0,0.0
-2.234896,-4.9675,-9.650253,-60.689999,-15.96,-75.459999,1729431738301.0,0.0
-4.185047,-3.397808,-11.23191,0.42,-18.27,-73.919998,1729431738319.0,0.0
-2.632105,2.959922,-9.963714,22.82,-15.05,-49.91,1729431738340.0,0.0
-2.423929,1.854438,-9.927821,8.75,-0.63,-14.35,1729431738362.0,0.0
-1.241875,2.177469,-8.831908,28.77,2.59,18.690001,1729431738378.0,0.0
-2.038685,0.22014,-10.392029,5.81,7.84,35.98,1729431738401.0,0.0
-1.65344,-0.550349,-12.579069,-15.12,17.290001,50.119999,1729431738419.0,0.0
-1.105484,-1.155733,-11.789437,2.59,28.210001,58.73,1729431738440.0,0.0
-1.289732,-4.508078,-8.630912,18.549999,42.279999,76.300003,1729431738461.0,0.0
-0.555135,-3.833302,-8.85823,43.610001,50.75,77.559998,1729431738479.0,0.0
-1.105484,-4.850252,-4.436293,50.049999,48.09,80.919998,1729431738498.0,0.0
-1.9669,-6.848258,-3.120241,-58.029999,24.15,51.73,1729431738520.0,0.0
-2.196611,-11.952149,-8.293523,-165.690002,3.85,6.93,1729431738539.0,0.0
-1.172483,-13.550553,-10.423136,-117.529999,-7.49,-28.42,1729431738561.0,0.0
-0.567099,-7.219146,-11.114661,54.459999,-16.66,-46.48,1729431738581.0,0.0
-1.794617,-2.519642,-8.657232,110.949997,-21.84,-49.349998,1729431738598.0,0.0
-2.043471,-3.452843,-9.004191,4.34,-24.780001,-68.739998,1729431738621.0,0.0
-3.208775,-4.12044,-10.411172,-93.449997,-16.59,-87.5,1729431738639.0,0.0
-3.78066,-2.629712,-11.126624,-8.68,-18.549999,-91.699997,1729431738662.0,0.0
-3.792624,0.495314,-11.475977,40.670002,-15.190001,-75.32,1729431738680.0,0.0
-2.26361,2.177469,-10.411172,5.39,-2.24,-59.5,1729431738701.0,0.0
-2.354537,1.990828,-10.157533,30.52,4.76,-15.33,1729431738720.0,0.0
-1.335195,2.074577,-9.975677,64.540001,11.34,23.450001,1729431738741.0,0.0
-1.182054,1.512264,-9.662218,49.209999,19.74,45.009998,1729431738762.0,0.0
-1.083949,0.660419,-11.018949,13.58,23.52,65.449997,1729431738780.0,0.0
-0.894916,-1.062413,-10.688738,0.07,32.689999,70.279999,1729431738800.0,0.0
-0.607777,-4.436293,-8.987441,12.25,38.080002,78.959999,1729431738821.0,0.0
0.117248,-4.486543,-9.145369,36.400002,40.670002,76.090004,1729431738840.0,0.0
0.569492,-5.426922,-6.723832,43.259998,39.619999,78.68,1729431738862.0,0.0
-1.864009,-6.860222,-0.088534,-11.41,24.43,70.980003,1729431738880.0,0.0
-3.038885,-13.062418,-5.276174,-129.919998,24.43,23.1,1729431738900.0,0.0
-1.17009,-14.354543,-11.186446,-102.410004,-15.54,-6.65,1729431738922.0,0.0
-2.17029,-5.056034,-9.657433,65.169998,-25.48,-30.73,1729431738940.0,0.0
-2.871387,-2.852244,-8.051848,58.240002,-22.469999,-46.060001,1729431738960.0,0.0
-2.938386,-4.048656,-10.097712,-43.68,-16.73,-63.209999,1729431738981.0,0.0
-3.342773,-4.898108,-10.518847,-46.549999,-14.21,-72.800003,1729431739004.0,0.0
-3.433701,-1.342373,-10.267602,2.87,-15.190001,-73.849998,1729431739021.0,0.0
-3.570091,-0.234497,-9.777073,17.99,-11.76,-62.09,1729431739040.0,0.0
-2.567499,0.136391,-8.781659,-19.32,-4.48,-54.599998,1729431739060.0,0.0
-2.112862,0.514457,-9.430114,-5.39,-6.58,-31.01,1729431739078.0,0.0
-1.371087,2.043471,-10.250853,9.45,-5.39,-4.34,1729431739101.0,0.0
-1.335195,-0.162712,-10.877771,-1.05,8.82,21.629999,1729431739123.0,0.0
-0.770489,-0.894916,-11.145767,27.93,17.710001,55.299999,1729431739140.0,0.0
-1.241875,0.339781,-9.901501,49.700001,27.299999,73.5,1729431739160.0,0.0
-0.380459,-5.316852,-7.989635,40.32,33.110001,85.190002,1729431739179.0,0.0
-0.315853,-4.709075,-6.321837,54.110001,33.599998,90.580002,1729431739201.0,0.0
0.440279,-5.146961,-5.568098,13.16,30.940001,80.639999,1729431739223.0,0.0
-1.452443,-8.094919,-5.565705,-53.060001,4.41,60.549999,1729431739240.0,0.0
-2.830709,-12.646068,-9.29133,-101.639999,-6.58,16.17,1729431739259.0,0.0
0.354138,-9.920642,-8.772088,-51.799999,-17.08,-23.59,1729431739280.0,0.0
-0.973879,-3.421736,-9.552148,71.190002,-36.189999,-49.91,1729431739299.0,0.0
-2.959922,-3.381058,-10.162319,40.32,-30.380001,-55.93,1729431739322.0,0.0
-3.393023,-3.718446,-10.468598,-20.790001,-27.860001,-67.129997,1729431739339.0,0.0
-3.06042,-4.130012,-9.123833,-68.949997,-24.08,-88.059998,1729431739363.0,0.0
-4.948357,-3.854837,-10.152746,-29.960001,-23.66,-87.360001,1729431739381.0,0.0
-3.737589,-0.72024,-10.545169,34.509998,-25.9,-90.230003,1729431739401.0,0.0
-2.904887,2.971886,-9.35833,12.88,-23.17,-75.18,1729431739423.0,0.0
-3.141776,1.399801,-10.078569,-11.55,-12.88,-42.279999,1729431739441.0,0.0
-2.096112,1.591227,-9.79143,13.440001,-7.0,-2.73,1729431739469.0,0.0
-2.268396,0.48335,-9.092726,47.950001,-3.71,37.59,1729431739479.0,0.0
-2.457429,-0.26321,-10.528419,10.08,13.51,57.470001,1729431739500.0,0.0
-1.17009,-1.830509,-10.741381,-12.6,14.56,70.07,1729431739523.0,0.0
-0.727418,-1.753939,-9.944571,4.83,20.370001,82.669998,1729431739540.0,0.0
-0.866202,-3.773481,-9.487542,2.94,31.360001,85.889999,1729431739560.0,0.0
-0.234497,-2.557927,-10.054641,19.950001,34.16,87.290001,1729431739579.0,0.0
-0.40678,-6.702296,-6.156733,18.690001,35.0,86.730003,1729431739599.0,0.0
-0.722632,-10.569098,-6.396015,-25.27,23.450001,65.309998,1729431739620.0,0.0
-2.065006,-12.196217,-7.142576,-94.709999,-0.98,1.26,1729431739639.0,0.0
-2.268396,-10.121639,-8.729016,-91.279999,-13.93,-48.790001,1729431739660.0,0.0
-1.359123,-7.51107,-9.789038,-9.8,-25.620001,-58.240002,1729431739679.0,0.0
-1.715654,-4.558327,-10.368099,41.23,-22.33,-63.139999,1729431739700.0,0.0
-3.041277,-3.905087,-8.980263,32.27,-22.540001,-59.990002,1729431739720.0,0.0
-2.63689,-6.477371,-10.176675,-25.76,-14.14,-77.489998,1729431739741.0,0.0
-4.376472,-3.806981,-10.980663,-21.98,-22.75,-84.769997,1729431739762.0,0.0
-4.168297,-2.868994,-9.973285,-19.809999,-14.21,-91.07,1729431739779.0,0.0
-4.003192,-1.019342,-11.196017,19.25,-10.43,-81.059998,1729431739801.0,0.0
-2.979064,-0.244068,-10.226924,8.33,0.28,-70.07,1729431739820.0,0.0
-2.70389,0.445065,-10.899307,15.54,6.16,-49.349998,1729431739840.0,0.0
-2.380858,1.777867,-10.51167,55.369999,9.66,-18.969999,1729431739861.0,0.0
-2.309074,2.24686,-9.329616,53.27,15.54,5.95,1729431739879.0,0.0
-2.230111,-0.232104,-9.480364,47.110001,18.27,38.779999,1729431739899.0,0.0
-2.620141,-0.119641,-10.281959,14.21,26.25,36.330002,1729431739922.0,0.0
-1.052842,-1.22034,-10.892128,-3.5,26.25,50.330002,1729431739941.0,0.0
-0.595813,-0.088534,-11.035697,-1.33,34.439999,56.139999,1729431740023.0,0.0
-0.459422,-4.275974,-8.413164,12.67,41.720001,71.260002,1729431740024.0,0.0
-0.509671,-8.106883,-7.56132,40.810001,42.279999,62.439999,1729431740024.0,0.0
-0.425922,-2.471786,-5.101498,54.810001,41.580002,60.900002,1729431740024.0,0.0
-0.344566,-3.754339,-6.915257,-15.12,33.18,59.849998,1729431740039.0,0.0
-0.937986,-8.274381,-5.438886,-55.02,18.200001,57.82,1729431740060.0,0.0
-2.299503,-7.537392,-5.938986,-76.090004,-8.4,33.459999,1729431740079.0,0.0
-2.914458,-9.772287,-7.692925,-118.860001,-18.129999,5.39,1729431740098.0,0.0
-2.282753,-9.171689,-11.4353,-35.91,-20.440001,-2.94,1729431740119.0,0.0
-1.012164,-5.546563,-11.499906,73.639999,-18.969999,-8.47,1729431740141.0,0.0
-2.014757,-2.309074,-8.628519,60.27,-16.24,-12.67,1729431740159.0,0.0
-1.371087,-5.699703,-9.41815,-34.720001,-12.74,-34.720001,1729431740178.0,0.0
-2.242075,-5.977271,-11.645866,-50.889999,-13.58,-61.18,1729431740199.0,0.0
-2.428715,-4.532006,-11.375479,-4.06,-11.76,-71.190002,1729431740220.0,0.0
-2.665605,-2.15354,-9.52822,3.36,-7.14,-86.029999,1729431740239.0,0.0
-2.330609,-1.294517,-10.214959,-11.55,-3.78,-87.010002,1729431740260.0,0.0
-1.646262,-1.902294,-9.920642,-33.25,0.42,-85.540001,1729431740279.0,0.0
-2.438286,-0.993021,-10.581062,23.17,-1.12,-56.84,1729431740299.0,0.0
-2.318645,0.413958,-10.396815,65.800003,4.34,-28.98,1729431740320.0,0.0
-1.816152,2.206182,-10.028319,24.780001,14.63,-9.1,1729431740339.0,0.0
-1.631905,0.0335,-10.51167,18.690001,21.49,26.950001,1729431740362.0,0.0
-1.57687,-0.677169,-11.026128,32.970001,27.719999,43.119999,1729431740379.0,0.0
-0.952343,-0.069392,-10.700702,48.860001,32.830002,59.920002,1729431740398.0,0.0
-1.01695,-0.277567,-10.966305,41.16,43.889999,76.93,1729431740419.0,0.0
-0.622134,-1.914258,-10.186246,47.810001,54.880001,96.110001,1729431740439.0,0.0
-0.62692,-7.91785,-7.396214,66.5,60.34,97.370003,1729431740459.0,0.0
-1.244268,-4.833502,-3.620341,84.349998,63.139999,86.239998,1729431740478.0,0.0
-0.394816,-2.371287,-5.309673,4.27,53.200001,74.129997,1729431740499.0,0.0
-0.29671,-7.566105,-4.780859,-84.279999,42.490002,66.5,1729431740520.0,0.0
-2.014757,-12.330215,-5.826523,-104.019997,21.559999,45.43,1729431740540.0,0.0
-1.160519,-14.019548,-7.223931,-122.220001,6.86,-10.29,1729431740559.0,0.0
-1.938186,-10.695917,-9.157332,-46.619999,-8.47,-36.470001,1729431740578.0,0.0
0.557528,-5.032106,-9.205189,19.040001,-14.42,-55.23,1729431740598.0,0.0
0.504886,-2.986243,-9.394222,22.540001,-20.23,-48.93,1729431740620.0,0.0
-2.148755,-4.771288,-8.585447,-22.049999,-19.67,-48.439999,1729431740639.0,0.0
-1.921437,-5.431707,-9.74836,-25.549999,-23.59,-63.209999,1729431740660.0,0.0
-3.335595,-2.770889,-9.738789,-26.950001,-24.08,-76.019997,1729431740681.0,0.0
-3.565305,-2.663212,-9.652647,-17.360001,-23.24,-75.949997,1729431740751.0,0.0
-2.926422,-0.382852,-10.80838,0.14,-18.76,-71.889999,1729431740751.0,0.0
-1.875973,0.598206,-10.502099,-0.84,-14.63,-57.189999,1729431740855.0,0.0
-1.804188,1.040878,-10.033106,-22.82,-10.5,-43.540001,1729431740855.0,0.0
-1.471586,-0.272782,-11.006985,-7.14,-6.37,-20.58,1729431740856.0,0.0
-2.024328,-0.356531,-10.191031,26.74,-4.62,-3.15,1729431740856.0,0.0
-2.057827,-0.418744,-10.624132,0.77,4.9,10.99,1729431740856.0,0.0
-1.371087,-1.665405,-9.442079,-0.56,11.41,25.549999,1729431740856.0,0.0
-0.473779,-0.638884,-10.755738,24.219999,16.379999,44.380001,1729431740859.0,0.0
0.071785,-0.928415,-9.351151,25.969999,23.1,61.670002,1729431740877.0,0.0
0.880559,-6.23091,-9.066404,32.41,23.1,72.940002,1729431740897.0,0.0
0.777667,-4.34058,-8.283953,70.489998,26.460001,68.32,1729431740920.0,0.0
0.870987,-6.67119,-6.726225,28.35,27.719999,61.810001,1729431740938.0,0.0
0.62692,-8.836694,-7.118648,-12.67,22.120001,39.34,1729431740958.0,0.0
0.229711,-7.793423,-6.111269,-18.41,3.78,11.34,1729431740978.0,0.0
0.602991,-5.804988,-7.21436,-19.460001,-12.46,-4.27,1729431740997.0,0.0
-1.129412,-7.054041,-8.109276,-42.209999,-16.17,-14.56,1729431741018.0,0.0
-1.043271,-6.692725,-10.583455,-55.720001,-20.58,-29.82,1729431741038.0,0.0
-2.227718,-6.190232,-10.554741,-21.0,-16.379999,-43.540001,1729431741058.0,0.0
-2.213361,-4.701896,-13.095919,-17.43,-11.41,-61.25,1729431741077.0,0.0
-2.388037,-4.864608,-11.07159,-7.56,-11.41,-71.889999,1729431741102.0,0.0
-3.177669,-4.017549,-9.949356,11.34,-0.42,-82.389999,1729431741121.0,0.0
-2.385644,-1.832902,-10.375278,35.490002,-3.22,-86.379997,1729431741138.0,0.0
-1.237089,-0.51685,-9.592826,4.55,-1.19,-81.410004,1729431741158.0,0.0
-2.041078,0.863809,-10.521241,-2.45,2.31,-60.549999,1729431741177.0,0.0
-1.9669,1.363909,-9.265009,51.380001,2.59,-24.43,1729431741197.0,0.0
-1.12702,1.325624,-8.822337,47.389999,3.71,2.24,1729431741219.0,0.0
-1.414158,0.564706,-8.140383,19.879999,2.24,27.440001,1729431741237.0,0.0
-1.701297,-0.634098,-9.310472,-1.33,1.89,38.849998,1729431741257.0,0.0
-1.476372,-0.976272,-11.492726,-16.66,5.11,48.790001,1729431741277.0,0.0
0.162712,-1.320838,-10.817951,1.12,18.9,64.540001,1729431741298.0,0.0
-0.241675,-0.679562,-9.915856,26.6,27.09,78.190002,1729431741318.0,0.0
-0.160319,-5.668597,-8.279166,11.48,29.120001,83.230003,1729431741338.0,0.0
-0.600598,-5.17089,-7.508677,7.63,26.32,83.720001,1729431741360.0,0.0
0.227318,-8.097312,-7.140182,-32.34,24.15,68.389999,1729431741376.0,0.0
-1.684547,-8.16431,-5.115855,-81.059998,8.05,43.610001,1729431741397.0,0.0
-1.758725,-12.15554,-9.171689,-146.580002,-6.79,-0.28,1729431741419.0,0.0
-0.433101,-11.059627,-11.24866,-64.050003,-15.75,-26.18,1729431741438.0,0.0
0.409173,-5.144568,-10.329816,55.23,-19.32,-36.189999,1729431741461.0,0.0
-1.215554,-1.744368,-7.920243,63.84,-20.860001,-31.43,1729431741478.0,0.0
-0.681954,-4.783253,-8.776874,-12.18,-20.02,-35.91,1729431741497.0,0.0
-1.378266,-5.20439,-9.755538,-41.93,-22.469999,-50.400002,1729431741520.0,0.0
-2.981457,-3.768696,-10.066606,-15.4,-29.049999,-58.240002,1729431741539.0,0.0
-2.536392,-4.058227,-11.184053,2.38,-23.66,-68.669998,1729431741558.0,0.0
-2.443072,-0.854238,-11.45205,17.15,-19.040001,-71.82,1729431741578.0,0.0
-1.361516,-0.442672,-10.760524,-10.36,-8.19,-71.610001,1729431741597.0,0.0
-1.552942,0.167498,-11.059627,-7.49,-2.59,-58.52,1729431741621.0,0.0
-1.148555,0.684347,-10.722239,31.290001,5.6,-28.210001,1729431741638.0,0.0
-1.146162,0.167498,-10.004392,17.08,12.53,-3.99,1729431741660.0,0.0
-0.981057,0.368495,-10.231709,13.440001,18.620001,13.37,1729431741678.0,0.0
-0.320638,-0.650848,-11.282159,25.129999,23.52,37.66,1729431741698.0,0.0
-0.16989,-0.09332,-10.191031,32.41,33.880001,52.849998,1729431741718.0,0.0
0.191426,-0.641276,-9.128618,41.860001,36.259998,70.910004,1729431741738.0,0.0
-0.062213,-6.563512,-7.02772,43.959999,36.82,73.150002,1729431741758.0,0.0
-0.248854,-5.381458,-7.539784,67.269997,32.060001,58.799999,1729431741777.0,0.0
-0.68674,-5.245068,-4.778467,33.740002,27.93,57.470001,1729431741797.0,0.0
0.267996,-5.558527,-8.025528,-42.490002,19.389999,38.709999,1729431741818.0,0.0
0.035892,-6.874579,-7.920243,-51.240002,9.24,32.759998,1729431741840.0,0.0
-2.522035,-8.193025,-6.357729,-48.860001,-4.06,10.92,1729431741859.0,0.0
-1.938186,-8.197811,-9.798609,-66.779999,-15.68,-19.67,1729431741877.0,0.0
-1.004985,-6.412765,-10.073784,2.73,-19.110001,-33.599998,1729431741897.0,0.0
-0.327817,-3.60359,-8.836694,34.509998,-25.620001,-40.529999,1729431741921.0,0.0
-1.083949,-3.905087,-9.178867,-5.18,-26.809999,-51.66,1729431741939.0,0.0
-2.74696,-4.455436,-9.937392,-32.759998,-30.1,-58.099998,1729431741958.0,0.0
-2.849852,-3.337988,-11.219944,-13.37,-27.09,-64.330002,1729431741978.0,0.0
-1.727618,-1.091127,-11.449656,7.91,-20.51,-57.400002,1729431741998.0,0.0
-1.194018,-0.856631,-11.349157,-10.85,-9.94,-50.540001,1729431742020.0,0.0
-1.172483,0.356531,-10.985448,1.82,-2.73,-32.900002,1729431742038.0,0.0
-1.062413,0.124427,-10.552348,33.529999,2.94,-10.29,1729431742059.0,0.0
-0.847059,-0.428315,-9.657433,20.09,11.9,8.47,1729431742079.0,0.0
-1.098306,0.119641,-9.647861,22.4,15.68,25.549999,1729431742105.0,0.0
-0.320638,-0.382852,-10.490135,10.92,20.370001,41.580002,1729431742126.0,0.0
-0.193819,-0.914058,-10.403993,17.5,27.719999,55.580002,1729431742138.0,0.0
0.062213,-0.772882,-10.561919,16.17,31.15,65.660004,1729431742158.0,0.0
-0.021535,-6.549156,-7.688138,26.110001,33.110001,73.150002,1729431742178.0,0.0
-0.323031,-3.419343,-7.185646,43.82,32.619999,63.490002,1729431742197.0,0.0
0.344566,-3.847659,-7.915457,-0.49,26.389999,57.540001,1729431742219.0,0.0
-0.019143,-8.152347,-6.606583,-53.549999,17.219999,55.580002,1729431742238.0,0.0
-0.794417,-8.212167,-7.013363,-79.239998,-1.05,28.210001,1729431742258.0,0.0
-2.385644,-11.416157,-7.745567,-82.18,-10.36,0.14,1729431742277.0,0.0
-0.452243,-6.297909,-10.269995,-24.01,-22.4,-19.950001,1729431742298.0,0.0
-1.004985,-4.223332,-8.578269,71.330002,-26.950001,-27.299999,1729431742318.0,0.0
-2.07697,-4.261617,-7.345965,23.379999,-31.780001,-35.77,1729431742338.0,0.0
-2.237289,-5.4676,-9.734003,-38.779999,-35.0,-51.170002,1729431742362.0,0.0
-3.113062,-4.649254,-10.736595,-25.9,-36.470001,-57.610001,1729431742379.0,0.0
-2.78046,-3.955336,-11.590833,-4.48,-30.870001,-65.800003,1729431742397.0,0.0
-2.778067,-2.40718,-11.643474,10.15,-19.74,-66.849998,1729431742418.0,0.0
-1.756332,-1.526621,-10.956735,5.32,-7.98,-65.660004,1729431742440.0,0.0
-1.718047,-0.973879,-10.336994,18.129999,-1.82,-54.599998,1729431742458.0,0.0
-1.194018,-0.705883,-10.657632,34.299999,1.75,-38.709999,1729431742477.0,0.0
-1.153341,0.342174,-9.789038,40.529999,5.18,-22.68,1729431742497.0,0.0
-1.651048,-1.01695,-9.877571,7.49,11.9,-11.62,1729431742521.0,0.0
-1.079163,-2.476572,-10.068997,-0.84,13.65,4.48,1729431742539.0,0.0
-1.708475,-0.914058,-9.542577,20.16,19.67,11.55,1729431742560.0,0.0
-0.942772,-1.160519,-9.810574,18.059999,20.299999,29.26,1729431742577.0,0.0
-0.667598,-1.751546,-10.389636,17.57,25.41,37.939999,1729431742597.0,0.0
-0.42353,-1.332802,-9.221939,18.620001,29.82,50.82,1729431742621.0,0.0
-0.672383,-3.787838,-8.382057,-1.12,28.77,58.66,1729431742637.0,0.0
-0.586242,-7.79103,-7.13779,20.23,16.940001,53.200001,1729431742658.0,0.0
-0.777667,-2.682354,-8.020741,35.560001,10.78,42.560001,1729431742677.0,0.0
-0.667598,-4.807181,-7.161718,-5.67,9.1,45.639999,1729431742697.0,0.0
-0.449851,-4.134798,-9.020942,-35.77,6.09,47.389999,1729431742720.0,0.0
-0.758525,-7.893922,-8.152347,-6.3,5.6,46.900002,1729431742738.0,0.0
-1.524228,-3.256632,-7.262216,-23.24,-6.58,33.389999,1729431742758.0,0.0
-2.555535,-6.9009,-8.238488,-110.25,-7.84,17.710001,1729431742777.0,0.0
-2.196611,-9.803394,-9.674182,-138.669998,-12.04,-4.13,1729431742797.0,0.0
-2.196611,-7.910671,-10.595419,-37.59,-17.290001,-19.74,1729431742820.0,0.0
-0.320638,-3.716053,-10.463813,35.77,-19.950001,-24.290001,1729431742837.0,0.0
0.246461,-2.70389,-9.559326,15.96,-13.65,-26.25,1729431742857.0,0.0
-0.495314,-3.108276,-9.068797,-28.35,-9.59,-27.440001,1729431742876.0,0.0
-1.5003,-4.101298,-9.789038,-35.91,-10.99,-32.970001,1729431742896.0,0.0
-1.440479,-5.029713,-10.810772,-23.66,-9.52,-44.170002,1729431742918.0,0.0
-1.438086,-4.716253,-10.487741,-21.629999,-5.46,-63.139999,1729431742937.0,0.0
-2.222932,-3.632305,-9.683753,-21.210001,-1.54,-76.160004,1729431742958.0,0.0
-1.572084,-3.627519,-9.633504,-6.93,-0.7,-83.860001,1729431742977.0,0.0
-1.615155,-2.234896,-11.432907,5.18,1.82,-78.959999,1729431742996.0,0.0
-0.660419,-1.636691,-10.686346,-3.22,9.1,-70.910004,1729431743019.0,0.0
-1.095913,-1.581656,-10.320245,-6.16,14.14,-60.689999,1729431743036.0,0.0
-1.469193,-1.172483,-10.15514,33.040001,14.49,-44.380001,1729431743057.0,0.0
-1.191626,-0.667598,-9.908678,64.75,15.05,-27.65,1729431743075.0,0.0
-1.208375,-0.193819,-9.549755,66.919998,16.52,-10.85,1729431743096.0,0.0
-1.052842,0.435494,-8.848659,53.200001,17.219999,5.39,1729431743116.0,0.0
-1.18684,-0.832702,-8.262416,42.209999,14.77,22.33,1729431743137.0,0.0
-0.815953,-2.85703,-8.267202,15.12,9.52,21.77,1729431743157.0,0.0
-1.079163,-4.646862,-9.071191,-12.81,3.92,12.88,1729431743176.0,0.0
-1.682154,-5.364708,-9.769895,-22.26,2.31,-1.54,1729431743197.0,0.0
-2.182254,-4.871787,-9.623933,-13.79,4.62,-11.76,1729431743218.0,0.0
-1.155733,-3.302095,-10.607382,-7.63,4.27,-9.8,1729431743236.0,0.0
0.100499,-2.773281,-10.456635,-7.07,7.35,-4.83,1729431743257.0,0.0
-0.988236,-2.495714,-10.640882,-14.84,14.42,4.27,1729431743276.0,0.0
-0.258425,-1.536192,-9.942179,-3.71,19.530001,22.68,1729431743297.0,0.0
-0.457029,-5.417351,-8.281559,16.030001,23.940001,36.330002,1729431743319.0,0.0
-2.045863,-2.191825,-9.403792,54.670002,22.4,32.41,1729431743337.0,0.0
-0.272782,-2.043471,-9.77468,24.85,27.23,41.09,1729431743360.0,0.0
-0.057428,-5.156533,-10.561919,32.759998,31.290001,49.139999,1729431743377.0,0.0
-0.267996,-6.26441,-10.542776,92.400002,38.990002,44.029999,1729431743397.0,0.0
0.799203,-8.178668,-10.425529,168.279999,44.869999,41.23,1729431743418.0,0.0
1.148555,-10.073784,-9.334401,261.380005,58.450001,35.490002,1729431743438.0,0.0
0.727418,-10.411172,-8.360522,352.940002,64.959999,19.25,1729431743457.0,0.0
0.732204,-8.149954,-9.092726,480.269989,73.010002,19.809999,1729431743478.0,0.0
1.651048,-5.761917,-7.661818,597.940002,72.590004,39.48,1729431743497.0,0.0
2.366502,-4.972286,-4.76411,652.609985,84.07,57.260002,1729431743518.0,0.0
2.744568,-5.206782,-2.986243,650.720032,97.510002,63.84,1729431743538.0,0.0
2.524428,-5.245068,-1.404587,617.470032,107.660004,59.779999,1729431743558.0,0.0
0.866202,-5.919843,1.579263,585.27002,126.139999,58.029999,1729431743577.0,0.0
-0.607777,-6.209375,4.835894,522.76001,132.300003,31.780001,1729431743597.0,0.0
-2.416751,-3.144169,8.487342,398.51001,143.639999,11.76,1729431743628.0,0.0
-1.526621,-6.58744,7.913064,218.119995,124.529999,-4.27,1729431743637.0,0.0
-0.16989,-9.24108,6.034698,62.650002,98.980003,-25.27,1729431743657.0,0.0
-0.59342,-7.939385,5.989235,104.090004,104.650002,-21.280001,1729431743678.0,0.0
-2.426322,-6.022735,7.597212,139.789993,103.040001,-12.88,1729431743696.0,0.0
-4.898108,-6.570691,9.281759,113.050003,88.340004,-10.5,1729431743719.0,0.0
-4.84068,-5.407779,8.468199,77.489998,68.25,-9.94,1729431743737.0,0.0
-4.019942,-2.124826,8.001599,53.130001,50.82,0.91,1729431743758.0,0.0
-3.256632,-3.105884,6.989435,11.55,31.85,14.42,1729431743776.0,0.0
-2.909672,-3.629912,6.4343,0.07,25.76,26.460001,1729431743798.0,0.0
-3.689733,-5.69731,6.563512,2.17,21.0,40.110001,1729431743818.0,0.0
-3.905087,-5.709275,5.931807,13.58,24.57,42.98,1729431743836.0,0.0
-3.991228,-5.443672,5.79063,7.98,29.82,38.57,1729431743857.0,0.0
-3.766303,-5.596812,5.623133,5.04,33.459999,32.34,1729431743876.0,0.0
-3.988836,-6.530013,5.690133,11.62,39.41,32.549999,1729431743896.0,0.0
-4.15394,-10.380065,6.82433,26.67,39.34,15.82,1729431743920.0,0.0
-4.563113,-8.348558,8.396415,74.199997,44.380001,1.05,1729431743937.0,0.0
-4.283153,-7.389036,9.810574,63.420002,38.57,-15.89,1729431743957.0,0.0
-3.778267,-6.738188,8.171489,16.59,24.01,-33.950001,1729431743978.0,0.0
-3.862016,-3.4672,7.489535,27.58,21.42,-32.41,1729431743996.0,0.0
-3.134598,-1.942972,6.293124,18.48,16.940001,-22.889999,1729431744018.0,0.0
-3.110669,-2.825923,6.407979,10.64,17.219999,-8.19,1729431744038.0,0.0
-4.460221,-3.907479,7.456036,12.39,21.07,7.84,1729431744058.0,0.0
-6.317052,-4.338188,7.843673,3.71,15.12,11.48,1729431744075.0,0.0
-6.872187,-3.125026,6.814759,-15.26,9.66,10.5,1729431744101.0,0.0
-7.228717,-4.881358,5.850451,-37.66,-0.21,0.42,1729431744118.0,0.0
-7.085148,-8.9348,6.819544,-13.79,0.14,-7.77,1729431744136.0,0.0
-6.192625,-10.645668,11.133803,42.349998,-0.56,-29.190001,1729431744159.0,0.0
-2.62732,-2.024328,14.330614,97.650002,30.24,1.89,1729431744176.0,0.0
-5.180461,-3.251846,7.381857,-67.340004,-10.08,-12.39,1729431744196.0,0.0
-3.541377,-2.830709,5.297709,-94.779999,-8.12,7.91,1729431744218.0,0.0
-4.271189,-3.069991,2.732604,-64.540001,-3.36,23.66,1729431744237.0,0.0
-5.60399,-4.307081,3.007778,-46.759998,2.87,31.43,1729431744258.0,0.0
-3.914658,-3.218346,4.601398,-19.460001,18.83,40.950001,1729431744278.0,0.0
-3.424129,-2.947958,6.309873,-30.66,21.35,43.75,1729431744296.0,0.0
-2.505285,-0.382852,6.391229,-52.150002,24.290001,90.580002,1729431744317.0,0.0
-6.005985,-17.723637,5.216353,-104.230003,9.03,88.059998,1729431744338.0,0.0
-3.816552,-9.341579,1.85683,-50.330002,0.7,33.740002,1729431744360.0,0.0
-6.580262,-7.082755,9.755538,74.199997,32.689999,72.169998,1729431744377.0,0.0
-4.960321,-11.102697,9.901501,-36.540001,-7.0,10.22,1729431744396.0,0.0
-3.431308,-11.708081,7.250252,-67.550003,-9.31,1.61,1729431744417.0,0.0
-5.316852,-8.142776,6.439085,-7.56,2.59,-21.139999,1729431744436.0,0.0
-5.828916,0.693919,6.161518,28.42,19.6,-18.969999,1729431744458.0,0.0
-7.625926,-3.120241,5.041678,0.14,17.92,-7.84,1729431744476.0,0.0
-7.668997,-9.099905,7.628319,3.85,6.58,-22.889999,1729431744496.0,0.0
-8.130811,-10.985448,12.873385,79.870003,-2.52,-47.950001,1729431744518.0,0.0
-2.986243,-4.508078,12.212967,81.550003,-4.76,-62.299999,1729431744536.0,0.0
-1.22034,0.160319,7.771888,-36.330002,-14.35,-52.990002,1729431744558.0,0.0
-2.694318,-1.136591,-0.442672,-102.059998,-13.58,-19.530001,1729431744576.0,0.0
-8.956335,-2.87378,0.655633,-21.0,-15.75,-6.58,1729431744596.0,0.0
-7.767102,1.605584,7.267002,102.900002,15.05,16.73,1729431744617.0,0.0
-4.886144,-2.880959,5.989235,30.59,0.49,27.93,1729431744637.0,0.0
-1.39023,-0.327817,6.876972,-17.780001,15.26,57.119999,1729431744657.0,0.0
-2.766103,-3.979264,1.629512,-8.12,28.42,82.809998,1729431744676.0,0.0
-3.866802,-9.01137,2.409572,9.45,46.41,78.400002,1729431744696.0,0.0
-8.733803,-8.542377,2.79721,39.900002,38.080002,52.080002,1729431744717.0,0.0
-6.515656,-7.463214,11.332408,98.279999,39.900002,19.6,1729431744736.0,0.0
-5.687739,-6.429514,10.758131,7.14,20.51,-0.91,1729431744758.0,0.0
-5.611169,-8.300702,8.772088,-73.779999,-12.81,-21.35,1729431744776.0,0.0
-6.063413,-6.403193,6.223732,-33.670002,-7.7,-17.639999,1729431744798.0,0.0
-6.704689,-1.832902,6.652047,3.43,2.73,-25.549999,1729431744817.0,0.0
-7.441679,-1.067199,6.80758,-14.49,2.1,-18.129999,1729431744836.0,0.0
-7.99442,-9.4349,4.749753,-38.220001,-11.34,-24.639999,1729431744857.0,0.0
-9.755538,-13.289737,8.484949,50.889999,-11.55,-41.720001,1729431744876.0,0.0
-1.993221,0.870987,8.116454,110.739998,7.42,-68.529999,1729431744896.0,0.0
-4.886144,-5.257031,5.699703,-1.05,-13.09,-45.5,1729431744917.0,0.0
-4.127619,-4.237689,5.335995,-45.639999,-8.19,-58.869999,1729431744937.0,0.0
-2.541178,-0.038285,4.565506,-4.97,-4.48,-36.119999,1729431744956.0,0.0
-6.661618,-1.339981,4.151547,0.14,-1.96,-5.25,1729431745033.0,0.0
-6.372087,-2.459821,5.06082,18.48,-1.96,21.280001,1729431745037.0,0.0
-5.35753,-1.129412,6.116055,30.450001,6.16,31.5,1729431745038.0,0.0
-3.385844,3.086741,8.23131,22.190001,16.799999,58.450001,1729431745038.0,0.0
-5.996413,-5.194818,4.424329,-39.830002,-4.06,78.190002,1729431745057.0,0.0
-5.237889,-9.848858,4.938786,-30.73,-1.26,74.199997,1729431745076.0,0.0
-8.126025,-21.755543,3.955336,1.68,-11.76,36.75,1729431745096.0,0.0
-6.257231,-4.536791,13.672589,104.93,36.610001,17.360001,1729431745122.0,0.0
-6.795617,-9.489935,8.693125,-21.700001,-12.32,-18.690001,1729431745138.0,0.0
-3.986443,-5.958128,6.920043,-61.670002,-16.66,-20.23,1729431745157.0,0.0
-4.534399,-4.548756,4.285545,-23.73,-5.81,-21.35,1729431745177.0,0.0
-7.317252,-3.409772,5.752346,5.81,-0.91,-18.200001,1729431745196.0,0.0
-6.850651,-2.249253,5.656632,6.51,4.55,-19.25,1729431745217.0,0.0
-9.341579,-10.372886,5.793024,-34.369999,-15.54,-35.07,1729431745240.0,0.0
-8.114061,-11.705689,11.985649,38.220001,-22.26,-70.209999,1729431745256.0,0.0
-1.155733,1.636691,3.034099,68.949997,10.85,-68.25,1729431745276.0,0.0
-4.266403,-5.266603,5.962914,-51.52,-22.75,-68.879997,1729431745298.0,0.0
-2.67039,1.150948,4.321437,-15.68,2.59,-32.200001,1729431745317.0,0.0
-4.864608,-1.31366,2.366502,-6.37,-2.45,-13.65,1729431745336.0,0.0
-6.374479,-1.68694,4.780859,38.150002,9.73,3.36,1729431745360.0,0.0
-6.075377,-4.158726,6.295516,51.73,19.67,21.629999,1729431745376.0,0.0
-3.424129,-1.550549,6.135197,27.719999,24.01,18.9,1729431745396.0,0.0
-0.875773,4.015156,8.659625,27.370001,42.630001,49.700001,1729431745417.0,0.0
-5.793024,-6.51087,7.578069,-38.849998,18.27,73.779999,1729431745436.0,0.0
-6.757331,-5.737988,5.678168,2.8,15.75,85.889999,1729431745456.0,0.0
-12.595818,-19.874784,9.379865,0.49,-15.4,21.559999,1729431745477.0,0.0
-3.617948,-7.068398,13.067204,91.629997,41.09,1.96,1729431745495.0,0.0
-6.041877,-6.364908,6.037091,-65.099998,-13.86,-42.98,1729431745516.0,0.0
-3.694518,-2.694318,4.565506,-44.240002,-1.68,-33.389999,1729431745536.0,0.0
-6.635297,-1.978864,6.111269,18.27,4.9,-6.51,1729431745556.0,0.0
-6.56112,-4.199404,7.89153,3.29,-3.22,-12.74,1729431745575.0,0.0
-5.32403,-6.513263,7.752745,-30.799999,-11.2,-11.69,1729431745596.0,0.0
-4.345366,-5.513064,6.668797,-35.700001,-4.62,-20.23,1729431745617.0,0.0
-5.431707,-3.799802,6.345766,-17.99,4.06,-15.190001,1729431745637.0,0.0
-6.403193,-8.367701,7.556533,-2.45,0.91,-9.59,1729431745663.0,0.0
-5.223531,2.711068,3.613162,43.82,-5.11,-21.280001,1729431745675.0,0.0
-5.084748,0.334995,6.520442,4.83,2.45,21.91,1729431745698.0,0.0
-7.795816,-4.354938,3.95055,-105.489998,-33.599998,6.79,1729431745719.0,0.0
-6.209375,-1.665405,5.498707,-4.55,-8.89,29.82,1729431745736.0,0.0
-6.396015,-6.793223,6.350551,-1.33,-10.15,25.41,1729431745757.0,0.0
-6.23091,-8.30788,9.286544,21.559999,3.15,14.49,1729431745777.0,0.0
-5.599205,-7.386643,7.779066,1.96,2.31,7.21,1729431745797.0,0.0
-3.907479,-5.733203,4.204189,-23.66,-0.84,-6.86,1729431745819.0,0.0
-3.59402,-3.52702,3.235096,-2.17,7.7,-1.47,1729431745840.0,0.0
-4.579862,-3.921836,5.228317,11.34,9.38,3.85,1729431745859.0,0.0
-5.594419,-5.828916,7.211967,10.36,2.59,3.5,1729431745878.0,0.0
-5.625526,-7.384251,8.161918,-6.58,-7.42,-3.57,1729431745898.0,0.0
-7.487142,-9.817751,8.003991,-35.700001,-26.809999,-21.84,1729431745932.0,0.0
-3.833302,-5.572884,6.293124,-13.3,-21.07,-53.619999,1729431745939.0,0.0
-3.842873,-2.478964,4.776074,-17.43,-13.37,-40.040001,1729431745960.0,0.0
-4.125226,0.976272,3.998406,-27.65,-6.51,-27.09,1729431745977.0,0.0
-5.455636,-1.615155,4.201797,-22.049999,1.4,2.03,1729431745998.0,0.0
-7.046863,-3.826123,4.84068,-6.09,2.17,3.36,1729431746021.0,0.0
-5.510671,0.27996,7.958528,41.23,19.74,17.780001,1729431746039.0,0.0
-4.73061,0.100499,8.260024,5.18,10.43,32.41,1729431746058.0,0.0
-4.429115,-3.428915,7.980063,-22.120001,4.2,54.670002,1729431746077.0,0.0
-5.4676,0.179462,5.716454,-8.96,12.88,72.870003,1729431746098.0,0.0
-8.233703,-13.998013,5.69731,-36.610001,6.3,74.760002,1729431746120.0,0.0
-5.647062,-10.336994,3.809374,10.08,14.28,38.709999,1729431746141.0,0.0
-7.113862,-8.559127,8.312666,81.690002,35.349998,33.740002,1729431746160.0,0.0
-4.692325,-7.125826,8.394022,22.540001,16.17,0.14,1729431746179.0,0.0
-4.254438,-5.393422,6.946364,-5.88,16.379999,4.41,1729431746201.0,0.0
-7.030113,-5.580062,6.558727,-16.450001,3.57,1.33,1729431746221.0,0.0
-7.113862,-3.168097,7.487142,25.34,5.95,-1.68,1729431746240.0,0.0
-7.60439,-4.62054,7.41775,0.63,2.24,-3.5,1729431746259.0,0.0
-8.288737,-10.681561,5.575277,-38.150002,-11.62,-25.27,1729431746279.0,0.0
-7.341179,-12.272788,8.496914,37.450001,-23.870001,-70.559998,1729431746300.0,0.0
-5.022535,-3.101098,10.746166,123.690002,9.03,-81.550003,1729431746320.0,0.0
-1.990828,1.825724,6.041877,-19.74,-15.47,-80.989998,1729431746339.0,0.0
-2.273181,5.692525,-0.16989,-78.330002,-14.07,-50.610001,1729431746362.0,0.0
-7.353144,0.0335,1.225125,-22.049999,-9.1,-3.57,1729431746382.0,0.0
-7.77428,-0.490529,4.103691,35.98,-5.95,-1.61,1729431746400.0,0.0
-5.742774,-2.086541,5.321638,42.279999,1.68,7.0,1729431746419.0,0.0
-3.878766,-3.909872,5.06082,8.26,10.15,10.29,1729431746439.0,0.0
-1.765903,1.68694,7.534998,43.259998,43.75,50.959999,1729431746459.0,0.0
-5.87438,-4.476971,5.07757,1.47,30.030001,64.540001,1729431746478.0,0.0
-5.099105,-1.696511,6.163911,21.280001,44.170002,81.830002,1729431746500.0,0.0
-8.322237,-15.268601,6.159126,-45.360001,18.549999,59.779999,1729431746521.0,0.0
-1.071985,-6.046663,13.167704,7.7,12.18,42.630001,1729431746539.0,0.0
-4.682754,-7.484749,9.530612,8.26,12.46,20.23,1729431746559.0,0.0
-8.367701,-8.063812,5.020142,-63.07,-8.26,-20.299999,1729431746579.0,0.0
-6.309873,-4.299902,4.146761,-35.700001,3.36,-32.900002,1729431746599.0,0.0
-11.315658,-3.682554,5.850451,31.57,4.76,-18.34,1729431746621.0,0.0
-10.829915,-10.286745,8.671589,31.57,-32.689999,-61.670002,1729431746639.0,0.0
-6.053841,-5.711668,11.464014,83.370003,-16.379999,-85.82,1729431746661.0,0.0
-2.888137,-0.301496,9.693325,10.43,-33.810001,-93.590004,1729431746679.0,0.0
-0.430708,4.051049,2.256432,-63.349998,-27.09,-65.800003,1729431746698.0,0.0
-3.534199,0.131605,-0.808774,-59.43,-7.0,-21.139999,1729431746721.0,0.0
-8.023134,-2.232504,1.952543,4.13,-3.08,-16.59,1729431746739.0,0.0
-5.635098,-0.174676,6.855437,111.510002,30.73,16.870001,1729431746760.0,0.0
-5.946165,-3.684947,6.690332,55.650002,21.91,20.09,1729431746778.0,0.0
-1.916651,2.266003,10.439885,40.459999,40.950001,46.41,1729431746799.0,0.0
-4.960321,-5.300103,8.55434,-21.84,22.190001,67.269997,1729431746820.0,0.0
-5.9677,-5.469993,5.630312,-20.09,33.459999,83.790001,1729431746838.0,0.0
-9.98525,-18.534805,5.924629,-70.349998,-1.82,41.16,1729431746861.0,0.0
-10.750952,-16.871792,13.136597,55.16,13.440001,21.77,1729431746880.0,0.0
-5.084748,-1.887937,9.123833,-2.24,3.01,-25.620001,1729431746899.0,0.0
-6.460621,-7.546963,2.299503,-132.369995,-30.66,-40.389999,1729431746920.0,0.0
-5.895915,-2.414358,2.70389,-23.1,3.99,-31.08,1729431746940.0,0.0
-11.136196,-8.020741,8.662018,36.540001,5.39,-26.67,1729431746958.0,0.0
-9.085547,-12.181859,14.481362,22.469999,-39.060001,-79.379997,1729431746978.0,0.0
-5.367101,-4.599005,14.433505,25.27,-40.110001,-90.090004,1729431747000.0,0.0
-1.045663,-0.452243,7.980063,-82.389999,-57.959999,-89.25,1729431747019.0,0.0
2.481357,8.84148,1.031307,-136.990005,-41.16,-56.84,1729431747039.0,0.0
-3.192025,-1.919044,-2.033899,-129.570007,-22.120001,-6.02,1729431747060.0,0.0
-7.147361,-7.491928,1.481157,4.83,-3.92,3.57,1729431747078.0,0.0
-5.508278,0.760918,4.792823,121.239998,42.98,18.76,1729431747098.0,0.0
-2.328217,7.054041,9.468399,91.209999,49.349998,68.599998,1729431747122.0,0.0
-6.266802,0.179462,3.988836,-55.439999,9.94,85.82,1729431747139.0,0.0
-10.908878,-15.562919,11.913863,-2.73,13.86,145.600006,1729431747161.0,0.0
-6.939186,-6.276374,2.421536,-102.900002,-14.14,24.710001,1729431747179.0,0.0
-7.384251,-14.799608,7.054041,1.89,2.8,87.290001,1729431747198.0,0.0
-3.086741,-7.235896,7.049256,5.67,-14.84,-12.53,1729431747221.0,0.0
-4.82393,-4.797609,5.436492,21.629999,22.68,-17.360001,1729431747239.0,0.0
-6.391229,-4.362115,4.070191,2.59,15.05,-25.27,1729431747259.0,0.0
-9.810574,-12.823137,8.056634,54.599998,17.5,-35.209999,1729431747279.0,0.0
-6.989435,-10.595419,15.828522,131.600006,-14.28,-95.410004,1729431747299.0,0.0
-3.969693,-1.31366,12.859028,131.529999,-5.53,-83.720001,1729431747319.0,0.0
-1.268196,0.014357,6.460621,-73.010002,-45.779999,-95.690002,1729431747341.0,0.0
2.804388,4.957928,-0.129212,-99.610001,-22.75,-55.16,1729431747362.0,0.0
-5.448457,0.272782,-2.222932,-80.150002,-3.36,-10.64,1729431747379.0,0.0
-8.341379,-3.907479,3.294917,67.690002,17.780001,23.940001,1729431747398.0,0.0
-7.82453,-2.033899,5.922236,117.529999,42.98,19.6,1729431747420.0,0.0
-3.134598,4.481757,7.786245,48.299999,51.73,51.59,1729431747438.0,0.0
-4.479364,-0.0335,3.732803,-50.189999,37.029999,69.650002,1729431747460.0,0.0
-12.667603,-30.903303,5.532206,43.330002,46.619999,113.120003,1729431747479.0,0.0
-6.099305,-13.564911,7.051648,108.779999,43.259998,0.56,1729431747498.0,0.0
-5.084748,-4.189832,13.435699,149.589996,61.880001,-5.11,1729431747521.0,0.0
-6.628119,-5.292924,7.482357,-42.420002,15.89,-21.77,1729431747540.0,0.0
-6.606583,-3.68734,4.338188,-55.09,18.059999,-26.67,1729431747560.0,0.0
-7.408179,0.294317,5.300103,7.98,23.59,-16.1,1729431747578.0,0.0
-9.224331,-2.337788,7.661818,3.71,15.54,-17.57,1729431747598.0,0.0
-8.037491,-2.868994,8.370094,4.97,-1.89,-16.940001,1729431747620.0,0.0
-8.29113,-8.367701,8.032705,12.39,-15.54,-22.33,1729431747640.0,0.0
-7.355537,-7.204789,12.098111,49.139999,-25.83,-51.869999,1729431747661.0,0.0
-4.931608,-2.256432,10.631311,58.59,-9.52,-41.650002,1729431747678.0,0.0
-2.342573,-3.61077,5.213961,-70.629997,-31.15,-59.920002,1729431747705.0,0.0
-1.787439,1.155733,2.383251,-50.470001,-7.35,-29.469999,1729431747732.0,0.0
-5.819345,-0.961915,-2.103291,-47.459999,1.33,-10.22,1729431747739.0,0.0
-5.910272,-1.31366,2.100898,25.9,21.84,21.42,1729431747760.0,0.0
-5.053641,5.996413,6.704689,67.970001,33.670002,32.48,1729431747779.0,0.0
-3.661019,5.338387,8.324631,19.67,29.33,82.669998,1729431747799.0,0.0
-7.783852,-3.223132,3.029313,-93.099998,-7.42,91.699997,1729431747823.0,0.0
-11.79183,-21.841684,6.786045,-34.09,7.98,108.220001,1729431747839.0,0.0
-9.533006,-9.552148,8.396415,-4.41,23.870001,63.91,1729431747859.0,0.0
-9.973285,-18.245272,9.367901,-57.260002,-36.049999,-12.53,1729431747878.0,0.0
-5.190032,-3.115455,7.647461,27.860001,9.52,-24.5,1729431747899.0,0.0
-8.561519,-6.223732,5.101498,-46.830002,-8.89,-31.360001,1729431747921.0,0.0
-6.989435,-4.689932,3.419343,-36.259998,-5.46,-49.84,1729431747940.0,0.0
-12.935599,-13.024135,7.89153,39.970001,-7.21,-52.43,1729431747959.0,0.0
-5.766702,-7.156933,13.560125,117.599998,-27.02,-104.580002,1729431747981.0,0.0
-4.249653,-0.411566,13.306486,79.449997,-30.309999,-100.169998,1729431748001.0,0.0
-0.141177,2.971886,4.551149,-83.510002,-49.91,-76.860001,1729431748022.0,0.0
1.316052,3.912265,0.921237,-118.090004,-30.17,-31.780001,1729431748039.0,0.0
-8.204988,-2.464607,-2.706282,-111.510002,-20.16,-6.3,1729431748061.0,0.0
-7.501499,-2.404787,2.629712,82.389999,16.59,31.85,1729431748078.0,0.0
-4.960321,8.374879,6.702296,110.529999,39.34,36.189999,1729431748098.0,0.0
-2.837888,2.612962,7.243074,8.82,35.209999,89.879997,1729431748120.0,0.0
-11.657832,-14.876178,10.693524,-75.459999,11.13,99.540001,1729431748140.0,0.0
-8.575876,-2.67039,6.206983,-28.559999,24.85,57.260002,1729431748162.0,0.0
-8.870193,-16.247265,6.132804,2.03,2.45,71.82,1729431748181.0,0.0
-6.628119,-10.487741,9.312866,59.290001,14.07,-11.06,1729431748201.0,0.0
-4.828716,-3.457629,7.977671,49.279999,43.400002,-20.860001,1729431748221.0,0.0
-6.695118,-5.343173,5.118248,-63.98,13.51,-37.869999,1729431748241.0,0.0
-10.499706,-12.198609,5.558527,-4.27,13.37,-29.75,1729431748261.0,0.0
-8.736196,-9.595219,11.801401,122.57,-18.969999,-89.459999,1729431748280.0,0.0
-4.311867,-1.581656,14.167902,191.029999,-4.55,-86.870003,1729431748301.0,0.0
-1.646262,5.151747,9.98525,-16.52,-52.990002,-80.989998,1729431748321.0,0.0
0.562313,1.024128,1.569692,-126.279999,-42.630001,-19.389999,1729431748340.0,0.0
-9.427721,-4.651647,-6.338587,-168.070007,-46.27,-23.940001,1729431748364.0,0.0
-7.350751,-3.438486,-0.70349,85.82,24.43,16.870001,1729431748382.0,0.0
-5.749953,10.260423,5.730811,152.529999,56.84,7.98,1729431748401.0,0.0
-3.905087,6.458229,8.975478,49.560001,52.709999,78.889999,1729431748425.0,0.0
-4.969893,2.696711,3.294917,-91.699997,19.18,106.330002,1729431748441.0,0.0
-7.503892,-5.288138,-0.01675,-138.180008,-10.64,53.549999,1729431748461.0,0.0
-10.260423,-14.969498,13.514663,52.920002,37.099998,112.489998,1729431748481.0,0.0
-5.706882,-7.293324,12.732209,19.809999,11.2,-21.77,1729431748501.0,0.0
-5.659025,-6.357729,6.285945,-93.660004,-4.2,-61.670002,1729431748520.0,0.0
-7.142576,-4.733003,3.821337,-51.240002,4.76,-45.150002,1729431748542.0,0.0
-14.084153,-12.445071,6.833901,51.310001,-30.030001,-78.400002,1729431748560.0,0.0
-7.599605,0.830309,17.675781,211.470001,11.83,-90.790001,1729431748581.0,0.0
-1.265803,1.61037,10.597812,-24.01,-31.99,-77.699997,1729431748600.0,0.0
0.026321,0.442672,0.528814,-161.699997,-28.0,-15.4,1729431748621.0,0.0
-8.252845,-4.383651,-2.89053,-108.5,-17.5,-6.51,1729431748640.0,0.0
-7.348359,-0.392423,4.352544,120.400002,35.490002,39.970001,1729431748663.0,0.0
-8.29113,-3.172883,7.006185,97.860001,34.580002,32.41,1729431748680.0,0.0
-3.909872,2.146362,10.076177,10.99,29.26,40.599998,1729431748700.0,0.0
-1.761117,0.607777,6.223732,-35.560001,27.370001,73.43,1729431748722.0,0.0
-12.315859,-24.296721,3.419343,-54.389999,7.56,75.459999,1729431748741.0,0.0
-7.164111,1.765903,10.564312,52.080002,47.32,54.529999,1729431748761.0,0.0
-12.528819,-13.373486,6.278766,-68.739998,-13.09,30.870001,1729431748781.0,0.0
-4.460221,-8.410772,8.501699,-53.830002,-21.629999,-20.58,1729431748799.0,0.0
-9.580862,-8.315059,5.735595,-56.0,-7.91,-31.85,1729431748822.0,0.0
-13.091133,-17.213966,7.197611,-11.62,-10.15,-51.450001,1729431748840.0,0.0
-7.118648,-4.225725,14.560326,132.860001,-20.58,-117.32,1729431748860.0,0.0
-2.617748,6.424729,10.490135,79.870003,-40.529999,-117.040001,1729431748881.0,0.0
-1.368695,2.376073,3.302095,-93.099998,-54.740002,-83.160004,1729431748900.0,0.0
-1.004985,8.16431,0.538385,-109.340004,-30.940001,-46.619999,1729431748922.0,0.0
-5.644669,-1.701297,-1.636691,-38.150002,-10.64,15.47,1729431748941.0,0.0
-9.657433,-4.362115,1.986043,48.439999,6.09,26.389999,1729431748960.0,0.0
-4.723432,7.489535,7.003791,90.019997,35.420002,39.200001,1729431748980.0,0.0
-2.612962,4.517649,5.95095,8.75,34.860001,95.340004,1729431749001.0,0.0
-8.973085,-2.232504,2.191825,-82.389999,2.73,99.959999,1729431749022.0,0.0
-12.409179,-17.831314,7.106683,6.23,26.809999,112.489998,1729431749040.0,0.0
-13.689339,-12.004791,10.91845,-3.99,26.530001,77.769997,1729431749062.0,0.0
-9.556933,-17.359928,11.466407,-43.540001,-24.92,-23.940001,1729431749079.0,0.0
-4.23051,-2.421536,6.831509,7.21,13.79,-29.75,1729431749102.0,0.0
-5.52742,-3.830909,2.127219,-59.849998,-0.35,-45.009998,1729431749131.0,0.0
-9.454042,-11.315658,10.856236,-12.74,-22.190001,-52.43,1729431749141.0,0.0
-6.209375,-1.134198,14.665611,168.910004,-4.62,-95.059998,1729431749160.0,0.0
-1.09352,7.467999,8.88455,-21.42,-44.310001,-89.459999,1729431749179.0,0.0
2.141576,8.688338,-0.969093,-123.830002,-34.09,-22.82,1729431749201.0,0.0
-9.552148,-4.656433,-4.493721,-144.759995,-30.799999,4.83,1729431749222.0,0.0
-8.195417,-4.216154,0.260818,83.93,16.450001,26.18,1729431749241.0,0.0
-5.091926,9.377472,7.336394,128.240005,55.93,33.740002,1729431749260.0,0.0
-3.864408,2.091327,7.106683,-6.86,35.07,77.139999,1729431749280.0,0.0
-6.630512,-9.092726,4.252046,-52.43,22.120001,106.400002,1729431749301.0,0.0
-6.60419,-2.337788,5.070391,-56.700001,3.01,25.83,1729431749322.0,0.0
-10.650455,-13.397413,9.662218,32.060001,35.0,86.379997,1729431749341.0,0.0
-5.860023,-9.456435,11.215159,-8.19,-20.790001,-37.380001,1729431749363.0,0.0
-4.488935,-2.433501,8.736196,-6.72,11.2,-37.59,1729431749381.0,0.0
-7.903493,-11.310873,5.120641,-92.400002,-21.91,-42.98,1729431749401.0,0.0
-9.973285,-11.028521,9.516255,36.68,-28.49,-79.660004,1729431749421.0,0.0
-7.319644,0.375673,12.540783,146.930008,-12.32,-79.309998,1729431749441.0,0.0
-3.553342,2.842674,7.956135,0.28,-49.209999,-81.970001,1729431749459.0,0.0
0.22014,3.519842,-3.046063,-108.220001,-46.34,-42.490002,1729431749480.0,0.0
-8.702696,-6.379266,-3.943372,-60.619999,-16.799999,9.73,1729431749500.0,0.0
-7.401,-1.318445,1.770689,123.970001,45.290001,22.960001,1729431749522.0,0.0
-4.472186,9.619147,7.76471,108.779999,61.599998,31.639999,1729431749539.0,0.0
-5.352744,-0.160319,8.001599,-29.4,32.27,82.110001,1729431749561.0,0.0
-6.67119,-3.002992,3.443272,-63.139999,14.56,109.129997,1729431749579.0,0.0
-8.853443,-11.157731,4.74736,-81.900002,-14.14,58.66,1729431749599.0,0.0
-11.394621,-15.670596,10.212566,-1.89,8.68,58.310001,1729431749623.0,0.0
-6.053841,-7.051648,8.963513,-7.63,-6.58,-44.380001,1729431749639.0,0.0
-4.582255,-4.890929,5.898308,-48.93,8.47,-48.580002,1729431749660.0,0.0
-9.717253,-14.787644,5.426922,-52.5,-5.04,-52.360001,1729431749680.0,0.0
-7.601997,-4.175476,12.562319,116.199997,-1.96,-89.040001,1729431749700.0,0.0
-6.491727,4.249653,14.943177,138.110001,-3.01,-64.470001,1729431749723.0,0.0
-1.301696,4.271189,8.288737,-63.490002,-51.450001,-51.66,1729431749746.0,0.0
0.734596,2.557927,-0.40678,-134.399994,-38.220001,2.52,1729431749760.0,0.0
-8.80798,-7.592427,-2.993421,-91.349998,-33.040001,22.120001,1729431749779.0,0.0
-7.305287,-0.835095,2.522035,94.709999,20.790001,30.940001,1729431749801.0,0.0
-4.601398,2.098505,7.611568,112.07,47.110001,63.0,1729431749820.0,0.0
-6.228518,-3.979264,3.567699,-65.940002,8.89,100.940002,1729431749840.0,0.0
-8.925228,-6.123233,3.962514,-63.98,-8.54,73.360001,1729431749862.0,0.0
-11.279767,-11.844472,9.025726,32.689999,20.93,87.290001,1729431749879.0,0.0
-11.265409,-13.282558,11.382657,17.92,-1.4,-17.15,1729431749901.0,0.0
-4.74736,-7.91785,6.625726,-28.630001,-0.77,-61.599998,1729431749921.0,0.0
-9.379865,-16.290337,3.728018,-52.220001,-6.51,-76.510002,1729431749940.0,0.0
-7.209574,-8.135597,9.487542,101.290001,-9.1,-127.540001,1729431750020.0,0.0
-4.876573,3.828516,13.55534,184.729996,8.4,-106.050003,1729431750021.0,0.0
-0.327817,3.328416,8.4347,-10.78,-36.610001,-92.400002,1729431750021.0,0.0
1.462015,7.097112,2.213361,-102.830002,-33.18,-43.470001,1729431750071.0,0.0
-7.793423,-3.177669,-2.139183,-72.940002,-26.6,14.14,1729431750076.0,0.0
-8.288737,3.59402,0.440279,70.419998,5.53,20.790001,1729431750078.0,0.0
-3.584448,7.657032,5.271388,102.970001,55.299999,64.050003,1729431750079.0,0.0
-7.221539,1.265803,5.953342,-51.099998,15.47,65.029999,1729431750105.0,0.0
-10.399208,-12.624532,10.066606,0.98,17.92,42.630001,1729431750161.0,0.0
-10.671989,-18.321842,10.695917,7.84,37.799999,77.910004,1729431750170.0,0.0
-3.541377,-3.345166,9.65504,55.720001,32.619999,-51.939999,1729431750214.0,0.0
-5.745167,-5.158926,3.524628,-46.200001,-4.55,-57.260002,1729431750214.0,0.0
-10.506885,-11.535798,8.063812,3.15,-7.14,-66.709999,1729431750221.0,0.0
-8.01117,0.129212,14.258829,128.449997,-4.9,-76.860001,1729431750256.0,0.0
-3.728018,5.237889,9.705289,54.599998,-40.32,-67.480003,1729431750264.0,0.0
-2.328217,3.591627,0.648455,-97.790001,-46.130001,-23.309999,1729431750281.0,0.0
-3.261417,1.067199,-2.306681,-119.629997,-34.860001,-7.42,1729431750300.0,0.0
-9.970891,-3.134598,0.921237,-3.99,-8.33,41.16,1729431750323.0,0.0
-9.686146,0.870987,6.642475,47.32,3.43,34.369999,1729431750342.0,0.0
-8.719445,-0.165105,5.656632,-19.950001,-18.549999,41.93,1729431750364.0,0.0
-8.283953,-2.876173,4.955536,-64.82,-32.549999,48.16,1729431750382.0,0.0
-6.448657,-6.250053,4.713861,-66.43,-30.52,43.68,1729431750402.0,0.0
-8.353344,-9.678967,6.34098,-39.41,-16.309999,36.189999,1729431750422.0,0.0
-9.399008,-10.38485,8.315059,-17.290001,-8.96,20.93,1729431750441.0,0.0
-8.295916,-12.217752,10.346564,-41.439999,-18.059999,-11.62,1729431750467.0,0.0
-7.04447,-5.216353,11.102697,-47.389999,-25.969999,-33.459999,1729431750483.0,0.0
-6.087341,-3.634698,10.473385,-64.610001,-53.549999,-32.27,1729431750501.0,0.0
-4.144369,-4.220939,8.501699,-108.150002,-80.5,-23.940001,1729431750523.0,0.0
-3.503092,-6.496514,8.441878,-128.449997,-99.82,-25.83,1729431750541.0,0.0
-2.641676,-6.752545,7.82453,-140.630005,-109.900002,-33.25,1729431750562.0,0.0
-1.65344,-7.319644,7.690532,-157.220001,-114.239998,-39.900002,1729431750582.0,0.0
-0.830309,-8.606983,7.401,-179.199997,-122.220001,-50.75,1729431750601.0,0.0
0.409173,-9.45165,6.692725,-185.919998,-127.540001,-60.549999,1729431750622.0,0.0
0.937986,-9.623933,5.465207,-165.830002,-129.289993,-66.080002,1729431750641.0,0.0
1.160519,-8.977871,3.960121,-129.5,-119.0,-69.860001,1729431750662.0,0.0
1.39023,-7.092326,1.916651,-99.190002,-101.639999,-70.840004,1729431750748.0,0.0
1.107877,-4.783253,2.067399,-56.0,-55.02,-60.27,1729431750869.0,0.0
0.495314,-3.414558,3.189633,-37.59,-30.1,-20.09,1729431750870.0,0.0
0.200997,-3.823731,3.404987,-42.77,-8.4,0.49,1729431750871.0,0.0
-0.404387,-5.556134,3.60359,-43.049999,6.44,23.66,1729431750872.0,0.0
-1.45005,-5.659025,4.34058,-16.1,14.63,44.799999,1729431750873.0,0.0
-3.4672,-5.766702,5.096712,35.139999,16.450001,73.779999,1729431750874.0,0.0
-4.211368,-4.352544,5.120641,80.220001,11.48,87.5,1729431750876.0,0.0
-5.113462,-3.876373,6.479764,92.050003,18.059999,110.18,1729431750877.0,0.0
-7.022934,-5.948557,6.991827,27.16,8.54,107.730003,1729431750881.0,0.0
-8.449057,-9.882358,7.168896,-30.870001,-13.86,91.489998,1729431750900.0,0.0
-7.286145,-9.851252,6.369694,-17.01,-19.110001,77.419998,1729431750923.0,0.0
-6.893722,-8.518449,5.412565,-3.85,-21.280001,67.830002,1729431750941.0,0.0
-6.896115,-8.190632,2.962314,-41.23,-20.51,50.400002,1729431750960.0,0.0
-6.58744,-10.612168,1.057628,-87.150002,-16.1,24.219999,1729431750980.0,0.0
-5.754738,-12.521641,-0.756132,-74.059998,3.64,0.14,1729431751000.0,0.0
-5.587241,-14.043476,0.404387,-19.6,24.15,-26.110001,1729431751021.0,0.0
-5.678168,-13.27538,3.95055,18.690001,38.290001,-55.23,1729431751040.0,0.0
-5.235496,-10.923235,4.132405,2.8,36.889999,-79.379997,1729431751061.0,0.0
-3.907479,-10.9352,3.675375,-65.239998,25.059999,-111.020004,1729431751079.0,0.0
-2.249253,-5.675776,3.924229,-80.709999,33.040001,-110.040001,1729431751101.0,0.0
2.567499,-0.145962,5.264209,12.11,11.62,-87.639999,1729431751121.0,0.0
2.584249,2.656033,14.165509,189.070007,2.66,-28.700001,1729431751140.0,0.0
-3.103491,1.61037,13.706088,89.110001,-15.33,24.360001,1729431751160.0,0.0
-2.562713,-4.079762,7.597212,-130.690002,-49.0,23.24,1729431751180.0,0.0
1.01695,-8.855836,1.083949,-229.949997,-46.41,12.74,1729431751200.0,0.0
-0.524028,-14.77568,2.419144,-132.089996,-11.27,27.719999,1729431751220.0,0.0
-2.737389,-6.656832,-0.090927,-38.150002,11.41,52.5,1729431751241.0,0.0
-1.495514,-4.031906,-3.168097,-4.27,6.44,76.160004,1729431751261.0,0.0
-2.921637,-10.241282,-1.679761,42.630001,6.86,94.43,1729431751280.0,0.0
-3.850052,-8.044669,0.217747,206.220001,11.27,108.779999,1729431751301.0,0.0
-8.334201,-12.270394,7.458428,299.600006,28.139999,128.449997,1729431751322.0,0.0
-12.59821,-6.156733,1.892723,-2.03,14.28,61.529999,1729431751340.0,0.0
-9.812965,-20.102102,-0.734596,-216.790009,-27.299999,-9.94,1729431751363.0,0.0
-1.129412,-22.138395,3.122634,-50.330002,-21.0,-88.199997,1729431751380.0,0.0
-9.164511,-4.783253,2.227718,139.160004,27.790001,-45.709999,1729431751400.0,0.0
-5.814559,-8.472985,1.648655,-129.080002,36.049999,-106.330002,1729431751422.0,0.0
-0.540778,-10.724631,-0.921237,-209.440002,36.049999,-153.160004,1729431751440.0,0.0
5.292924,-9.836893,7.633104,92.120003,37.59,-108.709999,1729431751460.0,0.0
2.500499,8.362915,9.925428,314.019989,53.689999,-10.15,1729431751480.0,0.0
1.330409,7.286145,19.125832,178.430008,40.110001,12.95,1729431751499.0,0.0
-5.398208,-3.816552,16.677973,-158.970001,-0.07,28.84,1729431751521.0,0.0
-2.622534,-0.409173,-1.739582,-286.089996,-54.599998,4.69,1729431751541.0,0.0
1.957329,-7.881958,3.883551,-56.98,-44.170002,84.489998,1729431751561.0,0.0
-6.094519,-6.336195,2.385644,121.169998,-35.420002,117.389999,1729431751580.0,0.0
-10.837094,-10.202995,7.484749,148.330002,-34.650002,149.520004,1729431751602.0,0.0
-12.25843,-15.75913,0.62692,-77.349998,-48.509998,89.459999,1729431751622.0,0.0
-9.195618,-14.735002,-8.803195,-236.809998,-40.459999,-4.9,1729431751640.0,0.0
-5.355137,-21.647867,-3.639483,-55.09,0.84,-39.48,1729431751661.0,0.0
-5.501099,-12.765708,5.692525,156.940002,41.23,-56.490002,1729431751681.0,0.0
-7.745567,-4.199404,3.694518,104.230003,38.5,-57.330002,1729431751700.0,0.0
-5.005785,-6.922436,1.648655,-145.880005,27.93,-106.610001,1729431751723.0,0.0
4.453043,-13.78266,2.684747,-238.699997,23.66,-154.910004,1729431751740.0,0.0
3.29731,6.742974,8.070991,246.190002,56.209999,-28.84,1729431751762.0,0.0
3.424129,6.008378,18.735802,227.149994,42.349998,24.08,1729431751787.0,0.0
-2.866602,-3.706482,17.096718,-64.610001,-0.21,30.450001,1729431751801.0,0.0
-1.904687,-2.801995,2.926422,-198.589996,-46.41,35.209999,1729431751822.0,0.0
1.938186,-4.512863,2.598605,-68.25,-34.299999,97.230003,1729431751841.0,0.0
-6.455836,-8.372486,3.818945,1.47,-41.860001,96.739998,1729431751861.0,0.0
-11.676974,-13.667803,0.619741,68.110001,-54.880001,134.259995,1729431751881.0,0.0
-12.057433,-13.526627,-2.15354,-90.720001,-46.759998,84.699997,1729431751901.0,0.0
-8.338986,-13.981262,-12.863814,-253.610001,-42.209999,7.91,1729431751922.0,0.0
-6.994221,-20.20978,-10.068997,-102.129997,-7.28,-24.780001,1729431751940.0,0.0
-6.838687,-12.220145,0.179462,194.389999,56.91,-38.5,1729431751962.0,0.0
-8.166703,-9.705289,17.943777,293.369995,52.639999,-46.48,1729431751980.0,0.0
-7.188039,-3.067599,8.346166,7.77,-1.19,-88.340004,1729431752001.0,0.0
-1.74676,-7.523034,5.4676,-266.630005,-21.139999,-118.090004,1729431752022.0,0.0
6.209375,-0.066999,6.319445,-145.669998,-29.190001,-143.360001,1729431752041.0,0.0
4.599005,0.294317,16.206589,239.540009,23.379999,49.139999,1729431752062.0,0.0
-0.540778,-3.45045,9.657433,-15.68,-0.21,44.66,1729431752083.0,0.0
-2.476572,-13.37827,6.78126,-157.5,-10.71,35.0,1729431752104.0,0.0
-2.215754,-10.310673,-0.952343,-155.820007,-22.75,18.620001,1729431752123.0,0.0
-1.306481,-8.630912,1.083949,38.009998,-10.5,85.190002,1729431752142.0,0.0
-6.486942,-15.833307,9.597611,165.270004,-16.66,83.090004,1729431752163.0,0.0
-9.827322,-2.57707,-0.617348,67.129997,-21.280001,81.269997,1729431752183.0,0.0
-9.099905,-5.515456,-4.76411,-103.32,-25.969999,53.48,1729431752202.0,0.0
-7.4345,-13.435699,-8.599805,-207.410004,-34.09,4.83,1729431752223.0,0.0
-6.678369,-17.094324,-8.216952,-46.34,-9.03,-16.940001,1729431752243.0,0.0
-8.738588,-10.487741,-2.514857,173.669998,43.119999,-17.08,1729431752264.0,0.0
-7.738388,-7.355537,5.285746,201.809998,39.619999,-49.98,1729431752282.0,0.0
-4.400401,-5.249853,7.580462,110.389999,12.11,-88.480003,1729431752302.0,0.0
-4.192225,-0.959522,2.620141,-107.309998,9.24,-95.340004,1729431752324.0,0.0
4.630112,-13.730016,5.228317,-140.559998,-7.07,-92.120003,1729431752342.0,0.0
0.765703,1.184447,3.481557,83.860001,26.6,-12.39,1729431752366.0,0.0
5.907879,1.902294,12.58864,117.110001,29.610001,-10.15,1729431752382.0,0.0
1.081556,-4.089334,8.561519,-30.799999,16.799999,21.210001,1729431752401.0,0.0
-3.24706,-9.363115,9.700503,-53.060001,23.66,44.099998,1729431752424.0,0.0
-2.598605,-7.360322,3.620341,-100.590004,9.1,28.77,1729431752443.0,0.0
-1.155733,-8.870193,3.957729,-6.58,5.6,94.360001,1729431752462.0,0.0
-5.642276,-9.188439,4.558327,67.410004,-28.559999,57.119999,1729431752482.0,0.0
-8.281559,-6.092126,4.338188,143.850006,-24.85,122.43,1729431752510.0,0.0
-9.303294,-7.195218,0.236889,-12.46,-40.670002,80.360001,1729431752523.0,0.0
-9.456435,-12.55514,-5.864808,-197.960007,-46.200001,27.860001,1729431752542.0,0.0
-7.635497,-18.759729,-8.159525,-158.899994,-33.18,-9.45,1729431752562.0,0.0
-5.814559,-16.077375,-1.794617,81.480003,13.93,-31.85,1729431752582.0,0.0
-7.609176,-9.360723,7.630712,228.339996,29.540001,-43.259998,1729431752602.0,0.0
-7.15454,-7.649854,10.882557,121.520004,-9.45,-82.18,1729431752623.0,0.0
-6.465407,-3.828516,-3.979264,-147.699997,-10.78,-97.510002,1729431752642.0,0.0
-1.584049,-0.48335,-10.932807,-268.519989,22.26,-124.18,1729431752664.0,0.0
5.627919,-7.396214,3.400201,83.580002,24.08,-138.529999,1729431752683.0,0.0
3.388237,4.486543,10.633704,281.610016,46.48,29.75,1729431752701.0,0.0
4.869394,1.756332,13.416556,84.0,25.41,-5.74,1729431752722.0,0.0
-1.627119,-4.754539,9.734003,-62.299999,7.28,20.23,1729431752742.0,0.0
-5.465207,-9.300901,8.46102,-50.889999,-6.79,54.880001,1729431752762.0,0.0
-0.662812,-1.895115,5.041678,-31.219999,-17.43,69.860001,1729431752781.0,0.0
-3.574877,-12.220145,7.111469,-8.12,-42.700001,87.010002,1729431752802.0,0.0
-8.240881,-15.029318,6.869793,71.190002,-45.57,112.489998,1729431752822.0,0.0
-8.41795,-4.177868,-4.54397,-40.670002,-38.360001,76.300003,1729431752841.0,0.0
-8.843873,-15.261423,-5.970093,-104.650002,-37.52,57.68,1729431752862.0,0.0
-7.980063,-16.500904,-9.322437,-70.629997,-8.75,-2.24,1729431752881.0,0.0
-6.927221,-14.926428,-5.60399,93.940002,33.389999,-21.49,1729431752901.0,0.0
-7.156933,-10.207782,2.148755,204.470001,50.049999,-49.0,1729431752922.0,0.0
-5.096712,-8.829515,14.969498,195.020004,24.85,-74.690002,1729431752941.0,0.0
-5.000999,-2.87378,2.021935,-7.14,-3.92,-87.220001,1729431752961.0,0.0
-2.572284,-1.306481,-1.596013,-205.169998,-4.2,-103.040001,1729431752981.0,0.0
3.957729,-18.470198,9.686146,-108.360001,-18.41,-83.160004,1729431753000.0,0.0
-0.856631,3.103491,8.657232,143.639999,13.3,40.459999,1729431753021.0,0.0
1.782653,0.205783,10.533205,23.17,-8.54,5.39,1729431753041.0,0.0
-0.57667,-5.807381,5.63749,-143.919998,-5.81,24.08,1729431753061.0,0.0
-1.959722,-10.24846,3.9673,-125.370003,18.41,42.209999,1729431753080.0,0.0
-4.220939,-14.301902,4.54397,-77.489998,25.200001,31.290001,1729431753101.0,0.0
-3.469593,-4.242475,1.442872,-12.74,15.68,62.860001,1729431753121.0,0.0
-2.086541,-11.387443,8.85105,83.510002,-10.57,93.239998,1729431753141.0,0.0
-8.228917,-10.750952,3.548556,-2.38,-39.200001,35.630001,1729431753161.0,0.0
-8.437093,-7.948956,-5.740381,-99.400002,-9.45,98.209999,1729431753181.0,0.0
-5.187639,-16.902899,-9.293723,-219.589996,-20.51,-37.59,1729431753201.0,0.0
-5.297709,-18.984655,-8.925228,-10.5,5.32,-0.35,1729431753222.0,0.0
-7.109076,-9.272188,-3.579663,244.440002,74.550003,-21.91,1729431753241.0,0.0
-8.590233,-7.24786,1.990828,238.070007,66.43,-32.34,1729431753261.0,0.0
-3.725625,-6.829116,8.958728,167.509995,34.580002,-82.529999,1729431753281.0,0.0
-3.656233,-8.561519,16.548761,169.259995,25.969999,-60.200001,1729431753301.0,0.0
-6.45105,-1.392623,9.96132,-65.239998,10.36,-59.220001,1729431753321.0,0.0
-2.452643,-11.243874,1.852045,-185.919998,-33.529999,-107.870003,1729431753342.0,0.0
1.775474,-6.092126,5.970093,-6.02,4.69,-55.93,1729431753364.0,0.0
1.191626,-1.691726,6.625726,-11.97,9.1,-33.599998,1729431753382.0,0.0
3.488736,-1.083949,6.989435,-31.15,16.379999,3.01,1729431753402.0,0.0
1.488336,-6.601797,6.953543,-42.630001,20.860001,24.57,1729431753423.0,0.0
-3.95055,-11.406586,6.80758,3.71,19.6,51.73,1729431753442.0,0.0
-1.445265,-3.395415,4.591826,52.779999,13.3,74.059998,1729431753463.0,0.0
-2.701497,-11.906685,8.286345,56.77,-5.95,84.980003,1729431753482.0,0.0
-6.046663,-8.714661,6.139983,80.220001,-33.18,95.690002,1729431753503.0,0.0
-7.082755,-6.345766,2.579463,41.369999,-32.830002,112.489998,1729431753523.0,0.0
-10.353743,-14.366508,-2.079363,-81.059998,-44.52,93.940002,1729431753544.0,0.0
-10.348958,-16.984255,-3.809374,-82.459999,-24.219999,38.709999,1729431753562.0,0.0
-9.315259,-14.294723,-5.745167,-34.23,10.15,5.18,1729431753583.0,0.0
-6.419943,-12.96192,-0.624527,89.879997,29.26,-43.259998,1729431753602.0,0.0
-5.819345,-8.965906,9.631111,189.350006,41.650002,-51.939999,1729431753624.0,0.0
-6.405586,-4.95075,5.785845,65.519997,26.6,-65.660004,1729431753643.0,0.0
-5.041678,-9.202796,1.76351,-131.529999,16.940001,-86.379997,1729431753662.0,0.0
0.87338,-18.994226,4.642076,-145.110001,16.1,-102.269997,1729431753682.0,0.0
0.344566,-0.978664,4.505685,158.550003,17.639999,-61.32,1729431753702.0,0.0
3.854837,3.072384,14.735002,157.220001,5.32,-13.440001,1729431753727.0,0.0
-0.681954,-3.266203,11.440084,-47.389999,-19.18,4.9,1729431753742.0,0.0
-4.074977,-5.441278,6.757331,-104.510002,-15.54,27.51,1729431753762.0,0.0
-2.512464,-9.920642,4.508078,-125.370003,-10.43,23.030001,1729431753781.0,0.0
-3.897908,-10.140782,2.347359,-92.68,-9.24,17.01,1729431753803.0,0.0
-0.354138,-5.613562,3.34038,33.18,0.35,68.949997,1729431753824.0,0.0
-3.785445,-9.489935,6.130411,89.529999,-12.32,70.699997,1729431753843.0,0.0
-7.240681,-7.441679,2.754139,57.049999,-39.830002,70.279999,1729431753862.0,0.0
-4.639683,-7.066005,1.062413,61.389999,-29.120001,95.620003,1729431753882.0,0.0
-7.436893,-16.273586,0.832702,8.82,-25.620001,66.639999,1729431753901.0,0.0
-9.303294,-11.461621,-3.921836,24.08,-0.35,44.52,1729431753924.0,0.0
-7.719246,-15.507884,1.813759,69.160004,8.68,14.42,1729431753942.0,0.0
-6.4343,-7.965706,7.537392,130.830002,14.0,-37.240002,1729431753962.0,0.0
-7.542177,-5.754738,7.020542,73.779999,-2.31,-58.59,1729431753983.0,0.0
-7.393822,-6.972685,-1.339981,-130.130005,-1.19,-82.459999,1729431754002.0,0.0
-3.388237,-9.128618,6.752545,-91.629997,28.07,-105.910004,1729431754024.0,0.0
1.088734,-5.802595,8.470592,9.73,1.96,-103.459999,1729431754042.0,0.0
2.026721,-1.146162,8.602197,59.639999,-0.91,-43.049999,1729431754062.0,0.0
2.031506,2.428715,7.355537,-17.92,-3.64,-26.530001,1729431754082.0,0.0
0.997807,-3.113062,9.887143,-61.529999,-1.33,13.09,1729431754101.0,0.0
-3.586841,-6.245267,7.401,-104.510002,-0.7,43.540001,1729431754122.0,0.0
-3.60359,-4.09412,3.541377,-116.760002,-7.56,35.700001,1729431754142.0,0.0
-0.26321,-4.146761,1.952543,-37.66,-3.99,76.370003,1729431754162.0,0.0
-5.970093,-11.286944,3.108276,45.709999,-17.15,81.690002,1729431754183.0,0.0
-5.453243,-6.546762,5.233103,154.0,-4.55,111.020004,1729431754203.0,0.0
-8.853443,-8.169096,2.907279,58.869999,-24.639999,86.660004,1729431754222.0,0.0
-10.444671,-12.339786,-0.870987,-52.5,-15.75,70.699997,1729431754242.0,0.0
-8.913264,-14.05544,-3.852444,-118.300003,-3.01,3.29,1729431754263.0,0.0
-6.321837,-17.280964,-2.481357,-18.9,7.42,-33.670002,1729431754281.0,0.0
-5.237889,-11.942577,3.448057,145.320007,26.530001,-45.360001,1729431754303.0,0.0
-6.173482,-4.910072,4.199404,121.520004,23.030001,-67.269997,1729431754323.0,0.0
-3.323631,-9.796216,0.619741,-88.059998,21.210001,-94.010002,1729431754342.0,0.0
-2.976671,-15.354744,6.690332,-87.639999,27.93,-103.599998,1729431754372.0,0.0
0.636491,-4.65404,5.536992,91.910004,23.379999,-98.980003,1729431754383.0,0.0
2.677568,5.249853,8.965906,163.869995,17.360001,-47.040001,1729431754401.0,0.0
-0.078963,0.543171,13.383057,80.43,8.47,-0.56,1729431754423.0,0.0
-4.101298,-3.52702,9.628718,-83.370003,-0.98,9.52,1729431754443.0,0.0
-3.223132,-9.829715,7.616355,-137.970001,-7.21,12.53,1729431754462.0,0.0
-1.512264,0.425922,-0.083749,-120.68,0.63,26.32,1729431754482.0,0.0
-1.519442,-7.264609,5.347959,36.889999,-5.6,86.800003,1729431754501.0,0.0
-8.025528,-9.207582,7.152147,119.910004,-19.25,98.629997,1729431754525.0,0.0
-8.317451,-5.087141,1.150948,46.970001,-33.389999,83.650002,1729431754542.0,0.0
-7.568498,-13.296914,-1.921437,-68.459999,-46.200001,74.620003,1729431754562.0,0.0
-8.707481,-17.974882,-3.847659,-87.43,-30.17,7.77,1729431754581.0,0.0
-9.150154,-17.094324,-6.175875,-36.540001,17.360001,-14.35,1729431754602.0,0.0
-4.041477,-13.272987,1.519442,127.82,34.790001,-75.879997,1729431754622.0,0.0
-5.709275,-10.944772,13.835299,221.479996,38.220001,-61.599998,1729431754641.0,0.0
-6.972685,-1.488336,0.418744,-38.080002,21.84,-84.769997,1729431754663.0,0.0
0.638884,-4.888536,3.120241,-222.529999,15.4,-131.669998,1729431754682.0,0.0
7.67139,-2.062613,7.611568,100.800003,-9.45,-87.150002,1729431754701.0,0.0
-1.447658,4.26401,17.907885,326.690002,11.34,61.040001,1729431754724.0,0.0
-5.206782,4.039084,11.519048,-16.940001,-23.940001,17.01,1729431754742.0,0.0
-0.866202,-3.778267,4.106083,-284.899994,-46.970001,7.49,1729431754763.0,0.0
-2.244468,-16.098909,3.888337,-245.559998,-14.0,15.12,1729431754782.0,0.0
-5.096712,-9.257831,0.476172,-123.059998,-2.52,9.87,1729431754802.0,0.0
-2.411965,-4.67079,1.916651,13.02,-14.77,77.840004,1729431754823.0,0.0
-6.407979,-10.798808,5.867201,89.459999,-45.43,72.379997,1729431754842.0,0.0
-5.888737,-5.785845,2.321038,119.139999,-40.529999,95.480003,1729431754862.0,0.0
-5.551349,-13.734802,3.084348,74.340004,-49.560001,61.529999,1729431754881.0,0.0
-9.190832,-11.875579,-1.897508,17.15,-11.27,50.189999,1729431754902.0,0.0
-9.049655,-12.928421,-5.017749,-73.919998,21.629999,-2.31,1729431754923.0,0.0
-4.421937,-17.654245,0.155533,-10.57,18.200001,-62.16,1729431754943.0,0.0
-4.086941,-13.337594,12.466606,193.059998,40.110001,-33.740002,1729431755036.0,0.0
-7.192825,-3.134598,4.965107,68.389999,15.61,-52.290001,1729431755042.0,0.0
-5.223531,-6.458229,-2.464607,-212.940002,7.77,-87.5,1729431755043.0,0.0
4.268795,-19.135403,14.782858,-322.48999,13.23,-141.470001,1729431755044.0,0.0
7.228717,-4.122833,11.64826,282.799988,-1.19,-75.949997,1729431755044.0,0.0
-4.922036,5.221139,17.295322,355.459991,23.17,104.440002,1729431755061.0,0.0
-0.332602,4.252046,9.212367,-74.970001,-18.41,-0.7,1729431755085.0,0.0
-2.498107,-11.454442,6.13759,-267.329987,-2.03,18.83,1729431755103.0,0.0
-8.652447,-18.884157,1.354338,-177.240005,-26.67,-9.59,1729431755123.0,0.0
-5.426922,-11.880364,4.031906,0.63,1.47,44.240002,1729431755142.0,0.0
-4.907679,-4.974678,0.942772,-28.07,-23.66,21.210001,1729431755161.0,0.0
-4.733003,-6.89133,-3.854837,-116.620003,-32.48,19.389999,1729431755181.0,0.0
-3.35713,-10.363315,-5.522634,-139.930008,-28.49,-5.6,1729431755201.0,0.0
-3.034099,-11.480762,-4.187439,-49.209999,-11.83,-5.18,1729431755222.0,0.0
-3.055635,-8.898908,0.579063,53.060001,11.06,-6.93,1729431755241.0,0.0
-2.62732,-5.391029,5.065606,95.480003,26.6,2.73,1729431755261.0,0.0
-3.017349,-6.228518,7.006185,63.420002,26.110001,7.49,1729431755282.0,0.0
-3.615555,-9.12144,6.111269,3.85,14.56,1.19,1729431755301.0,0.0
-3.9673,-9.257831,4.596612,-9.45,4.83,8.12,1729431755322.0,0.0
-4.228118,-9.848858,1.899901,-14.98,2.73,18.129999,1729431755341.0,0.0
-4.275974,-12.229716,0.87338,-16.309999,1.26,-0.63,1729431755365.0,0.0
-2.624927,-10.327423,0.713061,51.380001,20.02,-2.59,1729431755381.0,0.0
-3.048456,-7.62114,3.716053,100.309998,34.860001,-3.08,1729431755401.0,0.0
-4.168297,-6.489335,5.347959,82.879997,28.559999,0.49,1729431755424.0,0.0
-4.393222,-6.439085,5.213961,37.099998,13.02,1.05,1729431755442.0,0.0
-3.917051,-7.556533,3.115455,8.19,2.59,5.11,1729431755461.0,0.0
-3.9338,-9.77468,2.163112,3.29,5.25,2.8,1729431755481.0,0.0
-4.689932,-10.415956,1.887937,20.58,10.71,-0.91,1729431755503.0,0.0
-4.773681,-9.516255,2.079363,43.470001,11.06,-5.25,1729431755522.0,0.0
-3.455236,-7.075576,3.031706,64.959999,13.79,-11.13,1729431755541.0,0.0
-3.079563,-5.845665,4.881358,73.989998,22.540001,-7.77,1729431755562.0,0.0
-3.845266,-7.286145,5.436492,53.760002,21.700001,-3.57,1729431755581.0,0.0
-4.297509,-6.793223,4.938786,38.150002,16.379999,-0.91,1729431755601.0,0.0
-4.007978,-5.938986,4.345366,30.940001,14.7,6.51,1729431755621.0,0.0
-4.563113,-8.762517,4.055835,19.6,12.88,6.93,1729431755641.0,0.0
-4.826324,-10.013963,5.010571,38.009998,14.21,0.77,1729431755662.0,0.0
-4.287938,-5.386244,8.114061,62.720001,11.41,-1.89,1729431755682.0,0.0
-3.692125,-4.56072,7.970492,19.18,-5.74,2.59,1729431755700.0,0.0
-3.440879,-6.872187,5.812167,-35.98,-14.84,10.99,1729431755721.0,0.0
-3.842873,-8.001599,5.388636,-34.860001,-14.0,12.74,1729431755742.0,0.0
-5.498707,-8.214561,4.074977,-20.440001,-9.8,16.799999,1729431755761.0,0.0
-5.927022,-10.181459,4.54397,-16.59,-11.62,8.4,1729431755781.0,0.0
-6.355337,-7.757531,5.383851,-21.0,-8.33,-0.84,1729431755801.0,0.0
-5.266603,-7.534998,6.190232,-57.189999,-12.81,-13.09,1729431755822.0,0.0
-5.379066,-9.209974,3.598805,-86.099998,-15.75,-23.450001,1729431755840.0,0.0
-6.099305,-13.416556,0.421137,-80.639999,-11.41,-38.990002,1729431755863.0,0.0
-6.271588,-13.899906,-1.651048,-90.650002,13.79,-70.349998,1729431755883.0,0.0
-3.244668,-14.510076,2.416751,-34.720001,24.85,-108.290001,1729431755900.0,0.0
-2.18704,-9.238688,3.98405,47.529999,27.370001,-88.480003,1729431755922.0,0.0
0.165105,-0.897308,6.324231,141.119995,10.85,-79.590004,1729431755942.0,0.0
0.287139,1.696511,13.189239,165.479996,-3.99,-25.34,1729431755962.0,0.0
-2.979064,-1.868794,9.442079,25.41,-30.1,-9.94,1729431755981.0,0.0
-2.517249,-7.006185,4.680361,-85.120003,-34.720001,-8.4,1729431756000.0,0.0
-2.524428,-11.07159,1.397408,-87.220001,-20.58,-10.64,1729431756022.0,0.0
-2.388037,-8.518449,1.184447,-5.6,0.63,0.07,1729431756041.0,0.0
-0.222532,-6.293124,2.021935,-9.94,0.77,0.84,1729431756061.0,0.0
0.945165,-6.439085,2.998207,-16.66,15.05,10.01,1729431756082.0,0.0
-0.258425,-5.893522,4.661219,-10.57,31.5,27.02,1729431756102.0,0.0
-1.701297,-7.41775,6.965507,-13.79,26.040001,39.830002,1729431756123.0,0.0
-0.949951,0.009571,2.088934,-7.98,9.87,57.889999,1729431756140.0,0.0
-2.902494,-6.171089,5.228317,39.830002,-0.07,90.160004,1729431756162.0,0.0
-6.778866,-9.958927,5.290531,100.169998,-12.04,104.019997,1729431756181.0,0.0
-8.035098,-10.475778,5.699703,94.5,-14.56,71.190002,1729431756200.0,0.0
-7.298109,-12.468999,4.17069,-12.88,-16.450001,50.330002,1729431756223.0,0.0
-7.735995,-13.29213,-2.309074,-133.139999,-8.89,-9.17,1729431756240.0,0.0
-5.163712,-16.383656,-1.765903,-70.559998,-3.5,-28.700001,1729431756263.0,0.0
-4.311867,-10.047462,1.880759,94.150002,18.620001,-17.01,1729431756281.0,0.0
-4.61097,-6.151947,5.974878,118.720001,18.9,-21.77,1729431756301.0,0.0
-4.496114,-8.977871,8.099705,12.46,2.52,-37.170002,1729431756322.0,0.0
-5.355137,-8.561519,1.51705,-109.059998,3.15,-58.029999,1729431756341.0,0.0
-1.61037,-3.792624,0.497707,-91.489998,15.54,-71.68,1729431756364.0,0.0
0.665205,-5.455636,6.01077,76.019997,6.16,-21.49,1729431756380.0,0.0
-3.18724,-3.227918,10.289137,103.32,1.33,-3.5,1729431756408.0,0.0
-7.302894,-5.907879,4.622933,-60.27,-8.4,-9.17,1729431756423.0,0.0
-4.957928,-10.222138,0.131605,-156.729996,-6.02,-56.07,1729431756441.0,0.0
-0.715454,-8.599805,5.393422,2.52,16.17,-42.349998,1729431756463.0,0.0
-3.663411,-5.907879,8.953942,82.739998,24.15,-7.0,1729431756480.0,0.0
-4.735396,-6.281159,7.207181,-25.129999,-0.63,-17.5,1729431756500.0,0.0
-3.98405,-8.224132,4.838287,-110.739998,-20.93,-29.82,1729431756534.0,0.0
-5.197211,-6.788438,4.208975,-95.410004,-20.790001,-27.02,1729431756540.0,0.0
-6.644868,-6.525227,3.574877,-106.610001,-26.32,-28.49,1729431756562.0,0.0
-6.74776,-9.29133,0.387637,-182.350006,-45.779999,-58.869999,1729431756582.0,0.0
-3.804588,-14.105689,-0.394816,-178.779999,-59.920002,-73.150002,1729431756600.0,0.0
-1.828116,-12.105289,1.557728,-80.57,-57.189999,-78.190002,1729431756624.0,0.0
-1.256232,-5.460421,3.414558,30.73,-56.420002,-35.91,1729431756641.0,0.0
-0.526421,-2.835495,3.469593,32.41,-71.050003,-7.56,1729431756661.0,0.0
0.875773,-4.189832,2.227718,-58.939999,-85.82,0.84,1729431756683.0,0.0
1.658226,-7.970492,-0.284746,-179.970001,-85.330002,12.18,1729431756702.0,0.0
1.29691,-8.482556,-0.571885,-200.690002,-59.220001,22.26,1729431756721.0,0.0
0.002393,-8.188239,-1.138984,-237.020004,-39.830002,30.309999,1729431756742.0,0.0
-0.81356,-9.487542,-4.766503,-296.23999,-35.07,24.360001,1729431756761.0,0.0
-0.524028,-12.940384,-8.671589,-359.309998,-33.670002,0.91,1729431756781.0,0.0
-0.351745,-15.797415,-7.673782,-312.829987,-19.460001,-14.63,1729431756800.0,0.0
-0.258425,-13.55534,-4.914857,-127.540001,-17.43,-1.96,1729431756823.0,0.0
-0.650848,-12.067005,-3.806981,67.550003,-6.09,4.13,1729431756840.0,0.0
-2.136791,-11.090734,-2.005185,105.0,3.43,-10.57,1729431756862.0,0.0
-2.938386,-10.798808,-0.935594,86.660004,-5.95,-19.6,1729431756881.0,0.0
-1.993221,-10.162319,-1.158126,99.959999,-15.12,-17.92,1729431756900.0,0.0
-1.435694,-9.753145,-1.521835,98.209999,-10.08,-11.41,1729431756924.0,0.0
-1.98365,-10.779665,-1.371087,66.919998,-3.08,-21.700001,1729431756942.0,0.0
-2.395216,-11.734402,-1.68694,51.310001,0.7,-31.85,1729431756960.0,0.0
-1.87358,-11.126624,-0.600598,58.029999,-1.75,-34.23,1729431756981.0,0.0
-1.160519,-10.789237,-0.59342,80.709999,-8.61,-33.529999,1729431757002.0,0.0
-1.177269,-9.745967,-0.722632,97.93,-7.98,-32.689999,1729431757033.0,0.0
-1.691726,-9.243474,1.191626,70.980003,-11.69,-34.09,1729431757040.0,0.0
-1.600798,-9.801002,-0.069392,45.43,-18.620001,-35.349998,1729431757062.0,0.0
-1.801795,-9.616754,-3.342773,10.5,-3.08,-35.98,1729431757080.0,0.0
-2.299503,-8.685946,-4.31426,-38.639999,30.24,-35.420002,1729431757103.0,0.0
-1.971686,-9.997212,-3.091527,-47.389999,42.490002,-24.780001,1729431757124.0,0.0
-0.375673,-9.616754,-3.720839,21.42,51.310001,-17.01,1729431757140.0,0.0
-0.557528,-8.451449,-3.311667,30.450001,63.279999,-16.379999,1729431757162.0,0.0
-0.550349,-9.415757,-5.364708,-38.709999,59.990002,-25.620001,1729431757182.0,0.0
-0.921237,-8.62134,-5.4341,-117.110001,72.660004,-33.810001,1729431757200.0,0.0
1.325624,-13.603197,-3.146562,-86.519997,57.330002,-30.52,1729431757221.0,0.0
1.493121,-11.373087,10.669596,120.540001,38.290001,-6.72,1729431757241.0,0.0
2.804388,-4.532006,15.672989,241.919998,23.59,19.950001,1729431757260.0,0.0
-4.651647,-1.993221,7.750352,-28.42,-23.450001,0.42,1729431757280.0,0.0
-4.517649,-6.752545,-2.124826,-327.880005,-92.190002,-35.279999,1729431757299.0,0.0
0.339781,-15.608383,-6.18784,-319.339996,-85.75,-59.920002,1729431757320.0,0.0
3.194418,-15.75913,-5.776274,-32.970001,-22.68,2.45,1729431757340.0,0.0
-0.191426,-6.312266,-0.636491,132.300003,32.060001,18.200001,1729431757364.0,0.0
-0.509671,-6.30748,0.629312,-8.4,-22.68,-5.53,1729431757381.0,0.0
0.399601,-9.38465,-2.751746,-112.419998,-66.360001,-25.76,1729431757401.0,0.0
1.529014,-11.562119,-9.619147,-40.670002,-77.349998,-27.51,1729431757422.0,0.0
-0.11007,-10.13839,-9.123833,109.900002,-30.030001,-7.21,1729431757440.0,0.0
-1.899901,-2.364109,-3.921836,112.07,17.15,20.16,1729431757460.0,0.0
-2.096112,-7.171289,3.462414,-39.830002,5.25,39.34,1729431757482.0,0.0
-1.01695,-13.837693,-3.515057,-146.300003,-55.02,-14.28,1729431757500.0,0.0
-0.019143,-12.787244,-6.85783,-41.02,-39.689999,-0.7,1729431757520.0,0.0
-2.35693,-12.01197,-8.520842,88.830002,45.080002,31.01,1729431757540.0,0.0
-2.59382,-11.050055,-9.537791,39.27,103.949997,7.21,1729431757560.0,0.0
-0.512064,-11.263017,8.657232,1.26,126.559998,3.15,1729431757579.0,0.0
3.318845,-10.176675,6.180661,-0.07,60.130001,27.719999,1729431757600.0,0.0
2.823531,-10.583455,5.802595,-91.629997,44.310001,-21.559999,1729431757621.0,0.0
1.330409,-15.187245,3.591627,-25.969999,6.79,-11.34,1729431757640.0,0.0
-3.751946,-10.358529,4.12044,82.879997,16.17,-28.210001,1729431757662.0,0.0
-1.612763,-7.23111,4.749753,132.720001,5.81,1.96,1729431757679.0,0.0
8.006385,-13.203594,-0.416351,69.650002,-62.650002,-4.13,1729431757699.0,0.0
1.794617,-9.504292,-1.050449,11.9,-91.419998,-31.360001,1729431757722.0,0.0
-8.367701,-5.503492,-6.798009,-36.119999,-94.080002,-8.75,1729431757740.0,0.0
-8.343772,-8.382057,-19.728823,-94.150002,-90.720001,-31.85,1729431757760.0,0.0
-3.589234,-7.341179,-14.256437,-64.330002,-1.05,-26.460001,1729431757780.0,0.0
1.11027,-10.047462,5.752346,32.130001,30.870001,37.73,1729431757799.0,0.0
0.765703,-12.447463,-1.079163,22.68,18.27,-1.96,1729431757821.0,0.0
-2.048256,-8.712267,-5.972485,-44.73,33.740002,-21.700001,1729431757840.0,0.0
-1.0002,-10.269995,-6.642475,9.03,80.849998,18.059999,1729431757861.0,0.0
2.785245,-11.045268,0.339781,112.139999,118.580002,14.07,1729431757880.0,0.0
5.876772,-2.727818,16.376478,126.0,104.650002,31.99,1729431757900.0,0.0
3.010171,-9.836893,9.461221,27.440001,11.06,37.869999,1729431757922.0,0.0
-5.063213,-14.177474,4.926822,-117.18,-43.610001,-42.84,1729431757939.0,0.0
-4.07737,-12.454641,-3.775874,-53.689999,-59.5,-36.189999,1729431757960.0,0.0
1.694118,-11.399406,-2.694318,28.42,-60.549999,-8.26,1729431757980.0,0.0
6.594619,-3.122634,-5.254639,-20.23,-107.099998,-15.68,1729431758000.0,0.0
-4.096512,-12.96192,1.071985,-12.32,-101.779999,-14.49,1729431758021.0,0.0
-5.819345,-5.831308,-16.230515,-110.110001,-95.970001,-27.860001,1729431758041.0,0.0
-2.62732,-6.477371,-8.848659,-35.77,9.24,23.1,1729431758060.0,0.0
1.165305,-12.440285,0.612563,87.57,28.84,59.43,1729431758079.0,0.0
0.210568,-13.35913,-0.894916,160.229996,60.970001,26.6,1729431758099.0,0.0
-4.003192,-5.316852,-3.689733,-27.440001,108.290001,9.24,1729431758121.0,0.0
-0.624527,-11.377872,-7.640282,-127.400002,80.779999,16.379999,1729431758141.0,0.0
6.85783,-17.527426,11.246266,15.82,70.07,2.59,1729431758160.0,0.0
7.80778,-0.538385,14.321043,204.330002,105.769997,57.049999,1729431758180.0,0.0
-2.658426,-7.257431,8.449057,114.870003,47.810001,47.529999,1729431758201.0,0.0
-5.194818,-9.485149,-0.732204,-145.600006,-16.870001,-29.540001,1729431758223.0,0.0
-3.366701,-13.58166,-0.480957,-201.180008,-52.779999,-26.040001,1729431758239.0,0.0
4.051049,-10.470992,-3.175276,-121.169998,-73.709999,2.94,1729431758260.0,0.0
1.26341,-7.982457,-6.951149,-4.9,-84.910004,11.83,1729431758280.0,0.0
-7.408179,-13.012171,-16.010376,82.25,-78.330002,-22.960001,1729431758299.0,0.0
-4.48415,-13.339987,-12.59821,230.930008,-58.380001,-26.389999,1729431758323.0,0.0
-2.175076,-0.325424,-8.458629,105.840004,33.740002,10.99,1729431758339.0,0.0
0.062213,-5.931807,-2.63689,-43.82,-2.59,44.66,1729431758362.0,0.0
-1.119841,-16.661224,-4.981857,-84.910004,16.24,-31.99,1729431758382.0,0.0
-0.72024,-11.24866,-4.436293,45.990002,87.290001,-2.87,1729431758400.0,0.0
-0.315853,-2.938386,12.787244,29.68,111.580002,15.26,1729431758422.0,0.0
7.752745,-1.148555,10.535598,24.290001,28.98,0.84,1729431758447.0,0.0
1.155733,-11.279767,12.007183,-6.65,18.969999,26.18,1729431758462.0,0.0
-2.732604,-12.141183,0.045464,-129.990005,-42.630001,-43.75,1729431758480.0,0.0
-4.898108,-12.488142,-2.342573,-63.77,-14.21,-8.54,1729431758501.0,0.0
-3.4672,-8.796017,-1.940579,-7.49,-15.54,0.7,1729431758522.0,0.0
-0.614955,-5.417351,0.811167,-1.82,-52.639999,20.58,1729431758539.0,0.0
-1.732404,-7.226324,-2.177469,-29.049999,-113.330002,24.43,1729431758562.0,0.0
-4.800002,-12.892529,-12.203396,-44.240002,-155.960007,-21.07,1729431758579.0,0.0
-5.587241,-8.106883,-16.197016,-7.21,-91.139999,-9.31,1729431758601.0,0.0
-5.376673,-3.125026,-10.896914,-36.259998,31.99,40.25,1729431758621.0,0.0
-0.564706,-18.285952,-2.330609,11.2,14.0,38.849998,1729431758641.0,0.0
-0.334995,-7.728817,-0.538385,130.270004,56.490002,18.200001,1729431758663.0,0.0
-2.074577,-8.425128,-1.603191,-33.389999,94.57,21.49,1729431758681.0,0.0
1.828116,-11.162518,8.422735,-88.620003,67.550003,-24.92,1729431758702.0,0.0
10.741381,-6.989435,8.740981,154.979996,48.93,23.66,1729431758722.0,0.0
0.643669,-8.80798,10.336994,151.199997,59.709999,37.799999,1729431758741.0,0.0
-4.158726,-10.363315,1.811367,-51.240002,-1.75,-20.440001,1729431758762.0,0.0
-3.883551,-13.29213,-5.056034,-126.419998,-21.42,-18.41,1729431758780.0,0.0
-0.969093,-10.255639,-0.870987,-53.34,-22.75,-13.09,1729431758801.0,0.0
-0.332602,-7.192825,-1.385444,32.619999,-49.420002,26.6,1729431758822.0,0.0
-6.484549,-6.809973,-15.218351,-1.26,-76.650002,-26.389999,1729431758841.0,0.0
-4.297509,-11.8349,-11.578869,26.18,-74.340004,-9.73,1729431758861.0,0.0
0.952343,-8.233703,-8.379664,100.099998,-27.860001,9.38,1729431758881.0,0.0
-4.438686,-6.503692,-2.179861,-4.69,24.43,7.35,1729431758902.0,0.0
-5.240282,-10.904092,-2.859423,-56.0,-20.370001,-3.43,1729431758923.0,0.0
-0.959522,-12.641282,0.090927,-9.1,1.47,6.44,1729431758941.0,0.0
0.311067,-7.992027,-5.395815,-44.170002,47.670002,-22.889999,1729431758963.0,0.0
-2.510071,-7.058826,10.849058,-116.620003,118.860001,-3.92,1729431758980.0,0.0
9.052048,-8.523234,9.906286,127.190002,41.790001,8.33,1729431759000.0,0.0
1.59362,-7.046863,6.802795,108.150002,63.349998,7.63,1729431759022.0,0.0
-1.363909,-11.906685,-2.63689,-80.290001,12.39,-13.23,1729431759041.0,0.0
1.416551,-15.570097,-4.345366,-79.309998,-11.69,-23.73,1729431759062.0,0.0
-0.256032,-9.635897,-3.192025,46.619999,5.6,-11.13,1729431759079.0,0.0
-4.125226,-3.455236,-4.98425,84.139999,-14.7,4.62,1729431759102.0,0.0
-9.097511,-9.422935,-13.64866,71.260002,-55.02,-14.56,1729431759123.0,0.0
-6.273981,-11.732009,-8.846266,59.709999,-45.920002,-51.310001,1729431759141.0,0.0
0.184247,-6.932007,-2.569891,82.879997,-15.82,-12.81,1729431759165.0,0.0
-0.658026,-3.792624,5.716454,36.259998,-11.2,-0.56,1729431759181.0,0.0
-3.766303,-8.25763,-1.993221,-114.730003,-61.459999,-10.29,1729431759200.0,0.0
-0.112463,-12.559926,-1.713261,-105.769997,-45.779999,-23.59,1729431759223.0,0.0
0.485743,-13.643874,1.141376,34.02,30.24,10.15,1729431759240.0,0.0
-2.349752,-8.422735,-1.751546,41.369999,84.419998,-6.16,1729431759261.0,0.0
2.254039,-15.058033,2.277967,60.060001,64.260002,0.49,1729431759281.0,0.0
5.259424,-10.985448,0.660419,92.400002,70.139999,-17.360001,1729431759301.0,0.0
1.715654,-7.331609,8.224132,29.540001,87.639999,-9.45,1729431759323.0,0.0
4.962714,-10.097712,3.749553,-46.060001,17.780001,-22.33,1729431759341.0,0.0
-2.438286,-9.657433,1.974079,36.610001,13.79,-13.51,1729431759364.0,0.0
-4.149154,-7.628319,4.012764,99.82,0.21,23.66,1729431759380.0,0.0
0.777667,-6.293124,5.883951,5.39,-65.940002,3.36,1729431759400.0,0.0
-1.706082,-7.393822,1.792224,-124.529999,-120.260002,4.13,1729431759420.0,0.0
-4.362115,-9.942179,-3.842873,-178.570007,-165.759995,-23.030001,1729431759441.0,0.0
-4.862216,-11.416157,-10.753345,-84.419998,-143.919998,-5.67,1729431759460.0,0.0
-6.429514,-10.999805,-13.215559,-45.639999,-71.82,-2.66,1729431759481.0,0.0
-6.185446,-10.554741,-11.205588,14.28,22.540001,9.73,1729431759499.0,0.0
-1.713261,-11.408978,-1.806581,73.010002,68.949997,23.450001,1729431759524.0,0.0
-0.55992,-10.009177,-6.630512,55.299999,89.599998,4.55,1729431759540.0,0.0
-1.371087,-9.635897,-4.677969,-65.660004,115.989998,-14.0,1729431759560.0,0.0
0.342174,-15.94577,-3.828516,-36.330002,101.57,-4.34,1729431759580.0,0.0
5.687739,-11.873186,12.813565,150.639999,95.970001,-10.36,1729431759601.0,0.0
4.773681,1.734797,21.879971,176.820007,113.68,39.48,1729431759621.0,0.0
0.069392,-6.206983,7.989635,-82.669998,-6.09,3.22,1729431759641.0,0.0
-3.515057,-16.170694,-3.460021,-219.520004,-82.18,-59.5,1729431759660.0,0.0
-0.378066,-11.408978,-0.239282,31.219999,-7.21,-0.07,1729431759681.0,0.0
5.376673,-8.185846,2.184647,74.129997,-33.880001,17.43,1729431759701.0,0.0
0.916451,-7.905886,3.993621,22.33,-80.849998,2.66,1729431759723.0,0.0
-5.108676,-9.365508,0.607777,-38.220001,-106.470001,15.26,1729431759740.0,0.0
-5.465207,-10.710274,-13.421343,-96.110001,-119.349998,-25.9,1729431759761.0,0.0
-6.008378,-10.69831,-11.619547,-96.949997,-63.0,-13.79,1729431759779.0,0.0
-4.965107,-11.047661,-13.808979,31.360001,4.48,-4.9,1729431759799.0,0.0
-2.201397,-10.686346,0.392423,171.430008,67.340004,22.540001,1729431759823.0,0.0
-0.66999,-8.451449,-2.675175,178.990005,80.919998,11.2,1729431759840.0,0.0
-2.541178,-6.642475,-5.804988,-47.950001,101.360001,-18.129999,1729431759861.0,0.0
-1.438086,-14.998212,-3.06042,-152.460007,91.209999,-23.66,1729431759881.0,0.0
3.067599,-14.998212,-3.160919,34.720001,89.18,-25.200001,1729431759899.0,0.0
7.475177,0.473779,11.837293,297.709991,131.110001,24.92,1729431759922.0,0.0
4.756931,4.067799,20.961126,201.460007,89.809998,62.16,1729431759940.0,0.0
-0.653241,-7.097112,4.847858,-185.430008,-49.0,-1.82,1729431760014.0,0.0
-3.134598,-15.94577,-3.98405,-287.910004,-81.269997,-29.120001,1729431760015.0,0.0
3.024528,-11.004591,0.488136,-90.860001,-59.639999,7.98,1729431760018.0,0.0
0.241675,-10.102496,4.244867,98.139999,-78.540001,30.59,1729431760020.0,0.0
-5.041678,-6.364908,-3.888337,65.519997,-100.099998,36.189999,1729431760048.0,0.0
-7.013363,-7.049256,-10.064213,-21.91,-95.690002,28.91,1729431760060.0,0.0
-5.886343,-9.303294,-7.491928,-169.889999,-90.93,8.96,1729431760090.0,0.0
-5.168497,-13.854443,-12.653246,-107.660004,-63.630001,0.77,1729431760101.0,0.0
-6.357729,-11.167303,-8.128418,51.66,35.490002,10.22,1729431760122.0,0.0
-3.574877,-9.226725,-1.847259,121.099998,58.52,22.540001,1729431760140.0,0.0
-2.067399,-8.049455,-6.515656,4.55,61.25,0.07,1729431760160.0,0.0
-0.758525,-10.564312,-9.044869,-108.919998,86.519997,-26.950001,1729431760180.0,0.0
-1.392623,-12.811172,3.725625,-26.74,98.209999,-5.04,1729431760200.0,0.0
1.174876,-8.760124,-0.672383,134.050003,117.25,11.97,1729431760224.0,0.0
5.206782,-3.189633,13.880764,203.490005,96.25,23.450001,1729431760240.0,0.0
3.613162,-2.215754,15.13221,35.700001,37.029999,34.299999,1729431760260.0,0.0
1.069592,-9.930215,2.28036,-164.710007,-60.549999,-1.96,1729431760279.0,0.0
-3.17049,-14.967105,-1.945365,-131.180008,-51.869999,6.72,1729431760300.0,0.0
-2.526821,-11.609976,-0.839881,-1.12,-20.51,28.98,1729431760320.0,0.0
2.323431,-7.99442,1.67019,49.279999,-25.48,47.810001,1729431760342.0,0.0
-2.457429,-12.705888,3.156133,55.720001,-81.690002,46.200001,1729431760364.0,0.0
-7.843673,-9.504292,-1.859223,-28.42,-93.239998,30.73,1729431760379.0,0.0
-9.267403,-6.826723,-12.533605,-124.529999,-79.660004,5.74,1729431760400.0,0.0
-8.286345,-11.502297,-13.48834,-182.419998,-68.669998,-18.9,1729431760421.0,0.0
-3.871587,-13.129417,-13.091133,-40.529999,-20.299999,-23.73,1729431760440.0,0.0
-2.864209,-9.075976,-0.284746,147.770004,58.52,17.639999,1729431760460.0,0.0
-3.259024,-6.238089,-8.01117,116.199997,84.699997,2.73,1729431760486.0,0.0
-3.39063,-6.541977,-7.278966,-124.879997,99.75,-40.18,1729431760500.0,0.0
-2.500499,-17.144573,0.325424,-93.519997,77.769997,-32.27,1729431760520.0,0.0
5.271388,-12.409179,14.344972,177.800003,74.269997,-6.44,1729431760541.0,0.0
4.307081,0.705883,22.370499,243.25,116.830002,25.9,1729431760560.0,0.0
0.191426,-5.06082,5.888737,-43.189999,-19.110001,16.1,1729431760580.0,0.0
-3.407379,-12.433105,-1.799403,-243.040009,-37.59,-26.74,1729431760600.0,0.0
-1.344766,-16.051056,-0.887737,-138.669998,-44.029999,-12.6,1729431760621.0,0.0
3.589234,-11.181661,2.579463,41.720001,-17.639999,32.970001,1729431760640.0,0.0
-3.014957,-7.147361,-2.26361,137.550003,-68.459999,31.360001,1729431760661.0,0.0
-9.238688,-6.915257,-8.389235,72.940002,-51.869999,32.619999,1729431760756.0,0.0
-8.941978,-4.031906,-6.017949,-145.740005,-78.400002,-2.38,1729431760756.0,0.0
-6.417551,-11.799009,-15.56531,-190.330002,-82.669998,-15.05,1729431760756.0,0.0
-5.12782,-13.344771,-13.244273,-21.91,2.31,-27.299999,1729431760757.0,0.0
-4.388437,-11.059627,-1.816152,196.139999,84.209999,15.89,1729431760762.0,0.0
-3.85723,-8.616554,-4.716253,170.169998,100.870003,-7.7,1729431760781.0,0.0
-2.18704,-8.269595,-7.585248,-43.959999,105.629997,-49.84,1729431760799.0,0.0
-0.937986,-15.172889,-3.146562,-126.840004,97.650002,-62.299999,1729431760823.0,0.0
1.124627,-15.175282,9.846465,81.900002,112.419998,-47.670002,1729431760840.0,0.0
5.891129,1.871187,18.898514,209.789993,105.349998,-10.85,1729431760861.0,0.0
3.383451,-2.916851,11.942577,77.699997,13.79,1.96,1729431760880.0,0.0
-3.704089,-7.850852,2.057827,-208.460007,-42.07,-53.900002,1729431760901.0,0.0
-4.82393,-12.483356,-3.074777,-157.289993,-41.790001,-27.440001,1729431760924.0,0.0
2.311467,-13.526627,2.65364,-3.99,-16.17,15.61,1729431760941.0,0.0
2.306681,-6.400801,3.103491,103.879997,-75.809998,8.26,1729431760962.0,0.0
-5.67099,-5.312066,-3.058028,65.169998,-91.139999,39.34,1729431760980.0,0.0
-10.176675,-3.862016,-12.306287,-117.25,-78.050003,-0.35,1729431761000.0,0.0
-8.956335,-9.911072,-16.862221,-216.649994,-72.660004,-10.15,1729431761022.0,0.0
-2.955136,-12.330215,-11.282159,-87.43,-26.25,-8.61,1729431761040.0,0.0
0.11007,-12.134004,0.078963,176.539993,46.900002,45.080002,1729431761060.0,0.0
-3.194418,-8.559127,-0.643669,199.919998,76.440002,39.34,1729431761080.0,0.0
-6.448657,-2.486143,2.48375,-74.970001,88.340004,-12.04,1729431761102.0,0.0
-3.65384,-15.761523,-9.250652,-211.539993,32.200001,-14.84,1729431761122.0,0.0
1.710868,-20.319851,6.192625,-84.349998,28.07,-56.139999,1729431761140.0,0.0
6.977471,-3.981657,9.832108,238.839996,100.239998,48.23,1729431761160.0,0.0
2.598605,-1.584049,14.921642,205.309998,66.709999,52.220001,1729431761180.0,0.0
-5.070391,-6.879365,4.027121,-116.270004,-27.299999,0.07,1729431761204.0,0.0
-6.771688,-14.08894,-2.309074,-213.360001,-44.52,-17.57,1729431761221.0,0.0
0.181855,-10.4016,-3.409772,-130.410004,-60.41,-17.01,1729431761240.0,0.0
4.285545,-9.114261,-3.905087,-4.27,-57.189999,38.150002,1729431761262.0,0.0
-2.024328,-5.754738,-7.164111,10.57,-98.699997,4.76,1729431761280.0,0.0
-10.159925,-5.795416,-14.033905,127.75,-82.040001,42.07,1729431761300.0,0.0
-12.014362,-5.534599,-12.119646,-24.99,-16.59,11.2,1729431761323.0,0.0
-9.054441,-10.152746,-9.734003,-175.770004,-16.59,0.98,1729431761340.0,0.0
0.287139,-19.848463,1.864009,-25.76,-37.029999,-1.47,1729431761362.0,0.0
0.208176,-12.047862,-4.113262,137.899994,46.759998,2.94,1729431761380.0,0.0
-6.685547,-6.908078,-1.682154,23.52,116.340004,-17.08,1729431761399.0,0.0
-4.529613,-13.840086,-5.300103,-76.230003,71.120003,-24.219999,1729431761422.0,0.0
3.45045,-22.061825,9.753145,24.219999,39.060001,-55.93,1729431761440.0,0.0
9.999605,0.894916,11.684153,213.5,90.160004,13.58,1729431761460.0,0.0
2.380858,-2.242075,13.593626,156.169998,43.189999,41.23,1729431761481.0,0.0
-4.326223,-7.779066,2.756532,-147.419998,-45.43,-17.5,1729431761502.0,0.0
-4.311867,-14.134403,-0.863809,-195.789993,-58.73,-28.0,1729431761524.0,0.0
2.581856,-11.389835,-2.9336,-111.580002,-61.950001,8.26,1729431761541.0,0.0
2.493321,-9.683753,3.469593,21.629999,-91.699997,16.66,1729431761561.0,0.0
-8.080563,-9.154939,-5.448457,131.529999,-86.099998,42.279999,1729431761580.0,0.0
-9.212367,-5.484349,-9.683753,81.900002,-83.230003,2.17,1729431761601.0,0.0
-7.04447,-10.269995,-8.767302,-24.01,-97.93,7.42,1729431761623.0,0.0
-8.54477,-12.253645,-15.141781,-111.160004,-21.210001,-28.630001,1729431761640.0,0.0
-6.520442,-13.227524,-6.276374,-18.690001,36.540001,-30.870001,1729431761662.0,0.0
-2.316252,-10.305886,-8.410772,87.360001,71.540001,-11.76,1729431761681.0,0.0
-2.89053,-8.023134,-6.058627,33.110001,109.760002,-42.560001,1729431761700.0,0.0
-2.287539,-10.238889,-5.340781,-34.93,118.860001,-45.009998,1729431761720.0,0.0
-2.892922,-11.351551,14.840286,25.41,96.809998,-37.799999,1729431761740.0,0.0
8.236095,-0.117248,13.536198,201.460007,62.93,-13.65,1729431761762.0,0.0
1.318445,-2.928815,16.364515,115.5,44.240002,19.18,1729431761781.0,0.0
-3.402594,-7.491928,1.155733,-199.289993,-66.290001,-43.189999,1729431761801.0,0.0
-3.955336,-15.960127,-5.362316,-239.259995,-56.84,-45.849998,1729431761821.0,0.0
2.155933,-12.421142,-4.474578,-76.510002,-53.830002,-18.41,1729431761840.0,0.0
4.130012,-7.628319,0.212961,108.709999,-44.029999,31.360001,1729431761862.0,0.0
-5.07757,-6.228518,-3.596412,172.339996,-65.730003,37.310001,1729431761880.0,0.0
-9.856036,-5.111069,-7.049256,98.489998,-68.809998,18.969999,1729431761901.0,0.0
-9.200402,-7.396214,-10.798808,-75.739998,-56.98,16.1,1729431761922.0,0.0
-6.556334,-12.078968,-13.057633,-216.440002,-46.060001,-12.46,1729431761940.0,0.0
0.535992,-14.084153,-0.839881,54.32,13.65,4.9,1729431761960.0,0.0
-1.416551,-9.62154,-1.22034,153.649994,94.919998,22.82,1729431761980.0,0.0
-5.974878,-8.80798,-2.105684,-48.860001,106.400002,-17.85,1729431762000.0,0.0
-2.28036,-13.804193,-4.558327,-167.509995,58.240002,-34.23,1729431762024.0,0.0
3.113062,-18.48934,3.775874,-57.330002,62.510002,-42.209999,1729431762040.0,0.0
8.599805,-3.67059,11.358729,166.389999,94.010002,1.75,1729431762060.0,0.0
4.302295,-3.24706,17.802599,165.410004,72.730003,38.57,1729431762079.0,0.0
-1.502693,-7.281359,2.715853,-93.309998,-37.869999,-20.16,1729431762101.0,0.0
-3.711268,-12.947563,-3.017349,-139.789993,-34.93,-23.24,1729431762124.0,0.0
0.31346,-11.751152,-4.515256,-57.82,-43.540001,-1.12,1729431762140.0,0.0
5.276174,-11.014162,-2.919244,37.799999,-70.349998,26.18,1729431762162.0,0.0
0.205783,-5.532206,-1.85683,98.419998,-90.580002,11.83,1729431762182.0,0.0
-9.485149,-5.965307,-5.146961,150.430008,-98.209999,45.290001,1729431762201.0,0.0
-10.334601,-6.683154,-6.34098,-19.040001,-88.340004,17.99,1729431762221.0,0.0
-8.803195,-9.820145,-11.05484,-175.699997,-106.330002,5.81,1729431762240.0,0.0
-9.245867,-14.273187,-14.782858,-146.089996,-49.420002,-10.57,1729431762260.0,0.0
-2.806781,-10.047462,-3.672983,0.14,17.57,-11.97,1729431762280.0,0.0
-2.440679,-7.140182,-6.357729,6.3,65.099998,-1.19,1729431762301.0,0.0
-2.598605,-11.246266,-4.965107,-100.800003,75.529999,-38.639999,1729431762320.0,0.0
-3.235096,-12.406786,1.007378,-46.689999,80.220001,-20.58,1729431762340.0,0.0
0.167498,-12.952348,-4.393222,42.07,84.419998,-14.56,1729431762362.0,0.0
2.916851,-7.54457,4.76411,86.029999,88.760002,-13.3,1729431762381.0,0.0
0.976272,-8.310273,13.100704,32.549999,50.82,-4.62,1729431762401.0,0.0
0.471386,-11.397014,2.388037,-108.849998,-24.01,-48.860001,1729431762421.0,0.0
-3.847659,-10.542776,-2.694318,-90.860001,-4.06,-48.790001,1729431762440.0,0.0
-4.029513,-9.308081,-2.108077,14.84,13.93,-21.42,1729431762461.0,0.0
-0.739382,-9.142976,0.157926,23.870001,-4.41,-25.549999,1729431762479.0,0.0
-0.100499,-8.039884,-0.270389,-32.41,-10.22,-27.93,1729431762500.0,0.0
-1.289732,-8.276773,-2.18704,-100.519997,-14.56,-33.670002,1729431762524.0,0.0
-1.158126,-9.616754,-4.867002,-148.050003,-29.68,-39.689999,1729431762540.0,0.0
-0.567099,-10.327423,-6.128019,-150.220001,-28.49,-34.720001,1729431762561.0,0.0
-0.308674,-9.781858,-8.446664,-119.489998,-12.88,-30.030001,1729431762581.0,0.0
0.143569,-8.757731,-8.066205,-91.910004,2.8,-24.780001,1729431762599.0,0.0
0.404387,-8.477771,-6.769295,-80.010002,18.690001,-20.65,1729431762623.0,0.0
-0.588634,-7.889136,-3.61077,-73.639999,30.66,-11.48,1729431762640.0,0.0
-1.225125,-11.184053,-6.132804,0.21,34.439999,-8.4,1729431762660.0,0.0
-0.244068,-9.095119,-4.85743,70.769997,20.440001,-23.24,1729431762680.0,0.0
0.409173,-6.070591,-2.916851,97.93,18.620001,-14.0,1729431762700.0,0.0
0.911665,-4.529613,-4.218546,35.07,8.96,-9.45,1729431762723.0,0.0
0.291924,-6.415157,-3.512664,-55.93,9.66,-10.85,1729431762739.0,0.0
-0.928415,-4.737789,-1.095913,-101.849998,15.47,4.83,1729431762760.0,0.0
1.107877,-7.353144,-2.56032,-50.259998,-25.27,20.02,1729431762779.0,0.0
1.969293,-8.573483,-4.019942,-78.120003,-22.960001,32.200001,1729431762799.0,0.0
0.689133,-7.99442,-4.831109,-105.139999,-7.56,35.07,1729431762822.0,0.0
0.409173,-8.030313,-5.838487,-129.850006,2.52,38.220001,1729431762839.0,0.0
0.366102,-7.484749,-6.300302,-145.039993,5.67,48.02,1729431762859.0,0.0
0.102891,-8.721838,-7.537392,-133.770004,10.29,61.18,1729431762879.0,0.0
0.70349,-6.943972,-11.002198,-126.279999,2.45,67.269997,1729431762898.0,0.0
0.892523,-6.453443,-9.927821,-38.150002,10.43,104.860001,1729431762922.0,0.0
-0.87338,-3.299703,-12.468999,46.830002,38.360001,158.550003,1729431762941.0,0.0
-1.189233,-6.774081,-11.870793,60.830002,52.990002,168.630005,1729431762959.0,0.0
-1.387837,-8.556733,-9.975677,82.949997,81.760002,174.649994,1729431762978.0,0.0
-1.622334,-5.898308,-8.305488,111.93,82.389999,167.930008,1729431763005.0,0.0
-4.106083,-2.981457,-3.582055,92.120003,82.879997,167.580002,1729431763021.0,0.0
-6.977471,-3.278167,-4.144369,47.670002,62.510002,150.570007,1729431763039.0,0.0
-6.575477,-6.783652,-7.508677,2.38,39.060001,130.059998,1729431763060.0,0.0
-5.529813,-8.413164,-9.60479,-3.99,31.290001,97.510002,1729431763078.0,0.0
-5.192425,-7.405786,-8.640482,4.76,32.619999,62.580002,1729431763098.0,0.0
-4.242475,-5.785845,-7.649854,-17.780001,33.599998,16.66,1729431763119.0,0.0
-2.809174,-5.879165,-6.939186,-46.130001,24.99,-28.77,1729431763141.0,0.0
-1.828116,-7.070791,-8.932407,-68.459999,20.790001,-67.830002,1729431763162.0,0.0
-0.875773,-5.656632,-7.592427,-78.959999,19.25,-103.18,1729431763183.0,0.0
0.650848,-5.931807,-6.204589,-67.550003,12.32,-117.459999,1729431763201.0,0.0
0.98345,-5.352744,-4.199404,-58.170002,0.91,-121.590004,1729431763221.0,0.0
-1.138984,-7.389036,-4.402793,-39.619999,-15.96,-137.270004,1729431763241.0,0.0
-2.706282,-6.113662,-7.826923,-43.889999,-39.830002,-144.759995,1729431763261.0,0.0
-3.287738,-5.072784,-9.84168,-53.619999,-40.389999,-140.139999,1729431763280.0,0.0
-1.17009,-6.34098,-6.771688,-86.590004,-34.93,-113.959999,1729431763300.0,0.0
-1.74676,-7.262216,-8.863015,-165.339996,-22.26,-131.740005,1729431763321.0,0.0
-1.261017,-7.089933,-8.4347,-85.959999,-28.84,-116.270004,1729431763341.0,0.0
-2.07697,-8.410772,-3.9673,-13.09,-22.33,-85.190002,1729431763364.0,0.0
-2.103291,-8.635696,-6.094519,-24.43,-25.200001,-73.290001,1729431763379.0,0.0
-1.452443,-6.853044,-6.439085,2.38,-24.01,-36.82,1729431763399.0,0.0
-2.517249,-6.257231,-5.489135,29.33,-10.92,14.07,1729431763422.0,0.0
-3.376273,-6.288338,-6.388836,13.72,-3.15,54.880001,1729431763441.0,0.0
-2.266003,-8.372486,-7.745567,4.13,-1.4,91.349998,1729431763460.0,0.0
-1.605584,-8.726624,-8.829515,-3.78,6.02,111.860001,1729431763482.0,0.0
-1.756332,-7.156933,-12.686745,-2.45,21.84,122.43,1729431763499.0,0.0
0.696311,-4.977071,-11.96172,15.89,24.01,133.979996,1729431763523.0,0.0
-0.138784,-4.139583,-6.448657,20.65,50.68,157.919998,1729431763540.0,0.0
-3.409772,-5.182854,-7.704889,-7.21,45.150002,159.740005,1729431763561.0,0.0
-0.830309,-8.200203,-9.84168,-15.75,17.5,147.910004,1729431763580.0,0.0
1.426122,-5.819345,-9.619147,52.080002,7.14,142.800003,1729431763599.0,0.0
-3.211168,-4.15394,-7.113862,83.720001,28.700001,131.320007,1729431763621.0,0.0
-2.146362,-5.07757,-7.491928,24.780001,16.379999,116.900002,1729431763639.0,0.0
-2.122434,-5.828916,-8.470592,18.9,13.65,86.169998,1729431763662.0,0.0
-2.57707,-6.317052,-8.573483,20.58,9.52,47.880001,1729431763679.0,0.0
-2.756532,-5.65424,-8.015956,18.48,6.02,0.14,1729431763701.0,0.0
-1.928615,-5.249853,-9.329616,9.59,-1.05,-43.189999,1729431763724.0,0.0
-1.071985,-4.948357,-9.23151,13.79,0.49,-81.900002,1729431763740.0,0.0
-1.564906,-3.299703,-6.199803,43.470001,4.69,-105.769997,1729431763761.0,0.0
-2.385644,-3.23031,-5.292924,45.709999,-0.63,-116.550003,1729431763780.0,0.0
-1.375873,-4.175476,-6.67119,15.96,-22.469999,-123.620003,1729431763800.0,0.0
-0.181855,-4.412365,-7.235896,-23.1,-30.799999,-137.619995,1729431763822.0,0.0
0.222532,-6.068198,-8.956335,-47.040001,-32.41,-149.240005,1729431763842.0,0.0
-0.844666,-7.243074,-10.114462,-29.049999,-21.98,-154.350006,1729431763860.0,0.0
-0.160319,-4.888536,-8.52802,-50.400002,-20.58,-161.770004,1729431763880.0,0.0
1.20359,-3.565305,-9.150154,-76.160004,-34.93,-170.380005,1729431763901.0,0.0
1.337588,-5.84088,-8.65484,-96.389999,-30.380001,-170.169998,1729431763923.0,0.0
0.480957,-7.307681,-7.13779,-110.739998,-19.32,-161.070007,1729431763940.0,0.0
-4.204189,-12.658032,-4.996214,-56.700001,-2.45,-136.149994,1729431763960.0,0.0
-5.898308,-9.705289,-5.261817,10.92,-10.78,-103.110001,1729431763980.0,0.0
-4.644469,-5.938986,-6.989435,53.970001,-24.5,-32.200001,1729431764000.0,0.0
-2.158326,-6.407979,-7.152147,90.790001,-24.290001,29.4,1729431764023.0,0.0
-2.943172,-7.288538,-8.693125,84.419998,2.8,75.18,1729431764041.0,0.0
-2.895315,-7.475177,-11.645866,63.77,21.210001,112.910004,1729431764060.0,0.0
1.842474,-5.95095,-13.385449,100.590004,8.89,149.800003,1729431764081.0,0.0
3.893122,-1.524228,-7.659425,140.419998,17.08,196.699997,1729431764099.0,0.0
-2.739782,0.760918,-9.032906,57.959999,86.940002,219.800003,1729431764119.0,0.0
-4.63729,-7.802995,-10.265208,-0.77,71.260002,212.240005,1729431764140.0,0.0
-0.772882,-11.279767,-12.935599,-20.09,24.290001,205.800003,1729431764159.0,0.0
3.814159,-9.52822,-9.293723,67.199997,1.33,167.649994,1729431764179.0,0.0
1.371087,-4.34058,-8.95155,149.240005,46.34,126.349998,1729431764200.0,0.0
-3.211168,-3.613162,-4.354938,94.150002,54.529999,93.870003,1729431764223.0,0.0
-4.749753,-5.948557,-3.730411,-15.26,29.469999,37.380001,1729431764240.0,0.0
-3.553342,-6.977471,-6.817152,-18.9,-4.13,5.39,1729431764262.0,0.0
-1.935793,-5.577669,-11.844472,10.29,-26.110001,-27.790001,1729431764280.0,0.0
-1.141376,-2.947958,-8.590233,-16.030001,-13.93,-73.150002,1729431764299.0,0.0
-0.337388,-5.089533,-6.463014,-66.43,6.16,-119.629997,1729431764323.0,0.0
2.146362,-7.221539,-3.620341,-31.08,-14.35,-145.740005,1729431764339.0,0.0
0.851845,-5.982057,-9.647861,-0.14,-43.75,-153.930008,1729431764363.0,0.0
-3.900301,-3.936193,-9.298509,-61.810001,-5.74,-189.070007,1729431764388.0,0.0
-3.883551,-5.290531,-7.427321,-101.150002,3.78,-190.470001,1729431764399.0,0.0
-0.282353,-4.541577,-7.489535,-73.290001,-39.619999,-191.520004,1729431764422.0,0.0
-1.107877,-8.46102,-5.953342,-18.059999,-44.170002,-187.809998,1729431764441.0,0.0
0.416351,-3.07717,-9.401401,-72.730003,-41.369999,-193.199997,1729431764462.0,0.0
2.68714,-7.350751,-5.989235,-89.949997,-48.369999,-138.529999,1729431764482.0,0.0
0.875773,-14.670395,-4.208975,-45.43,-18.690001,-106.330002,1729431764501.0,0.0
-4.194618,-14.074582,-5.034499,75.25,-1.19,-73.779999,1729431764521.0,0.0
-6.345766,-7.41775,-3.151347,144.550003,-2.87,-8.68,1729431764542.0,0.0
-3.165704,-3.713661,-5.302495,91.419998,-30.799999,59.290001,1729431764560.0,0.0
-0.131605,-5.345565,-8.317451,5.74,-17.780001,106.400002,1729431764580.0,0.0
0.490529,-9.370294,-10.485349,-27.93,23.309999,152.949997,1729431764602.0,0.0
0.81356,-7.415358,-9.150154,36.119999,39.200001,208.669998,1729431764621.0,0.0
2.964707,-3.096312,-11.904292,49.349998,28.700001,226.940002,1729431764642.0,0.0
1.081556,-5.254639,-10.870593,73.43,54.389999,252.630005,1729431764662.0,0.0
-1.722832,-8.702696,-5.773881,71.959999,86.870003,249.270004,1729431764682.0,0.0
-0.222532,-11.643474,-8.69791,72.870003,45.360001,207.130005,1729431764700.0,0.0
1.648655,-8.815158,-11.985649,98.980003,23.799999,168.910004,1729431764721.0,0.0
0.122034,-5.312066,-7.300502,190.470001,52.220001,129.5,1729431764743.0,0.0
-4.697111,-2.591427,-3.524628,147.699997,62.720001,90.230003,1729431764762.0,0.0
-7.111469,-2.876173,-3.716053,19.460001,31.08,28.49,1729431764781.0,0.0
-3.972085,-5.98445,-7.826923,-87.080002,-15.4,-32.759998,1729431764802.0,0.0
-0.614955,-6.78126,-10.277173,-139.649994,-40.810001,-94.150002,1729431764822.0,0.0
0.9667,-8.556733,-7.439285,-153.089996,-16.940001,-152.669998,1729431764841.0,0.0
0.452243,-9.489935,-6.4678,-136.919998,-8.75,-198.100006,1729431764862.0,0.0
-2.651247,-6.848258,-5.352744,-6.44,-9.87,-229.600006,1729431764881.0,0.0
-3.598805,-0.421137,-8.886944,-54.599998,-48.509998,-239.119995,1729431764901.0,0.0
-2.526821,-2.878566,-8.386844,-160.369995,-24.710001,-248.779999,1729431764922.0,0.0
-1.007378,-1.952543,-11.538191,-150.009995,-11.55,-240.100006,1729431764942.0,0.0
-0.404387,-9.073583,-4.991428,6.79,-15.26,-165.199997,1729431765030.0,0.0
0.519243,-11.270195,-4.833502,18.969999,-36.889999,-158.410004,1729431765034.0,0.0
-2.79721,-12.019149,-3.644269,-0.21,-7.14,-138.039993,1729431765036.0,0.0
-3.572484,-8.166703,-4.185047,6.79,-7.14,-87.779999,1729431765038.0,0.0
-1.387837,-6.216553,-4.309474,95.900002,-34.09,3.08,1729431765044.0,0.0
0.602991,-7.556533,-5.230711,154.979996,-21.280001,87.220001,1729431765061.0,0.0
0.658026,-7.302894,-6.73101,124.32,0.07,146.300003,1729431765080.0,0.0
-0.847059,-7.726424,-9.62154,62.650002,45.57,191.589996,1729431765106.0,0.0
0.461815,-9.760324,-9.542577,9.03,67.199997,218.540009,1729431765125.0,0.0
2.907279,-9.068797,-11.042876,37.029999,40.040001,254.520004,1729431765141.0,0.0
3.342773,-5.185246,-9.97807,77.279999,43.400002,268.940002,1729431765161.0,0.0
0.468993,-4.876573,-8.865408,106.330002,120.889999,264.670013,1729431765181.0,0.0
-1.351945,-7.848458,-7.661818,61.529999,101.290001,256.200012,1729431765201.0,0.0
-0.232104,-7.989635,-7.496714,47.040001,64.610001,218.470001,1729431765222.0,0.0
-1.990828,-5.67099,-5.024928,91.139999,55.93,165.059998,1729431765241.0,0.0
-5.946165,-4.426722,-3.378666,34.509998,55.02,105.699997,1729431765262.0,0.0
-7.508677,-6.314659,-5.264209,-50.119999,14.0,42.209999,1729431765281.0,0.0
-4.539185,-8.315059,-8.717053,-84.699997,-22.049999,-20.16,1729431765301.0,0.0
-1.866402,-6.896115,-11.246266,-63.209999,-35.0,-78.959999,1729431765322.0,0.0
-1.268196,-5.276174,-10.124033,-31.57,-5.67,-134.960007,1729431765342.0,0.0
-0.976272,-5.405386,-8.015956,-54.670002,1.26,-166.600006,1729431765364.0,0.0
-0.607777,-5.649454,-9.779467,-87.989998,-6.16,-200.970001,1729431765381.0,0.0
-0.234497,-6.082555,-9.427721,-0.49,1.12,-225.889999,1729431765401.0,0.0
-2.270789,-4.218546,-5.103891,63.07,-14.07,-213.990005,1729431765424.0,0.0
-4.960321,-2.426322,-7.661818,-9.03,-32.060001,-220.220001,1729431765441.0,0.0
-5.881558,-5.795416,-7.238289,-64.120003,-42.209999,-209.160004,1729431765461.0,0.0
-1.995614,-4.907679,-7.84128,-98.07,-51.66,-194.529999,1729431765481.0,0.0
0.854238,-11.574083,-0.622134,-53.900002,-81.199997,-142.660004,1729431765500.0,0.0
-0.028714,-11.79183,-4.41715,-123.129997,-50.259998,-129.779999,1729431765522.0,0.0
-0.196211,-14.935998,-5.548956,-18.27,-32.900002,-74.760002,1729431765541.0,0.0
2.254039,-12.047862,-5.498707,78.75,-32.130001,-9.45,1729431765561.0,0.0
1.124627,-8.226524,-6.419943,229.809998,8.96,86.870003,1729431765581.0,0.0
-0.308674,-6.314659,-8.382057,260.190002,60.27,133.839996,1729431765601.0,0.0
-0.653241,-6.350551,-6.525227,174.229996,100.590004,173.809998,1729431765621.0,0.0
1.569692,-4.613362,-7.716853,18.9,101.57,184.660004,1729431765643.0,0.0
2.285146,-6.151947,-7.042077,-44.450001,90.93,206.289993,1729431765661.0,0.0
1.619941,-4.689932,-6.585048,-113.120003,130.690002,211.050003,1729431765682.0,0.0
-0.985843,-5.816952,-7.32443,-143.149994,108.57,204.470001,1729431765701.0,0.0
-2.155933,-7.034898,-8.599805,-171.919998,48.509998,172.410004,1729431765724.0,0.0
-2.598605,-10.535598,-8.389235,-133.279999,31.08,129.149994,1729431765741.0,0.0
-2.957529,-9.001799,-8.013563,-41.02,10.78,76.300003,1729431765762.0,0.0
-3.115455,-6.24766,-7.513463,23.309999,-4.2,22.540001,1729431765780.0,0.0
-2.615355,-5.52742,-8.712267,7.35,-11.9,-38.5,1729431765802.0,0.0
-1.122234,-5.402994,-12.06222,-13.23,-20.09,-96.529999,1729431765822.0,0.0
-0.208176,-4.711468,-13.737194,15.54,-9.03,-137.759995,1729431765841.0,0.0
0.437887,-5.938986,-8.271988,67.760002,12.18,-165.759995,1729431765862.0,0.0
0.485743,-5.74756,-5.161318,78.68,17.219999,-198.029999,1729431765881.0,0.0
-1.012164,-6.845865,-9.879964,97.510002,-28.35,-220.990005,1729431765901.0,0.0
-3.536592,-8.377272,-2.749353,65.519997,0.7,-244.020004,1729431765922.0,0.0
-6.716653,-6.695118,-4.591826,31.43,-2.66,-251.440002,1729431765943.0,0.0
-3.859623,-6.635297,-3.658626,108.919998,-89.599998,-211.610001,1729431765962.0,0.0
1.052842,-6.06102,-0.674776,101.919998,-148.190002,-154.0,1729431765980.0,0.0
2.084148,-6.553941,0.07657,47.529999,-142.800003,-118.370003,1729431766002.0,0.0
0.01675,-6.91765,-3.802195,29.960001,-100.449997,-67.690002,1729431766021.0,0.0
-0.248854,-9.803394,-5.070391,54.810001,-87.360001,-16.309999,1729431766041.0,0.0
1.828116,-10.277173,-3.998406,32.619999,-62.439999,17.08,1729431766061.0,0.0
2.876173,-11.64826,-3.024528,43.119999,-11.55,60.760002,1729431766082.0,0.0
3.110669,-11.038091,-2.65364,41.790001,24.219999,90.090004,1729431766102.0,0.0
2.15354,-11.066804,-1.978864,40.740002,61.389999,113.260002,1729431766123.0,0.0
0.732204,-9.480364,-1.847259,-7.42,78.400002,123.340004,1729431766140.0,0.0
-0.605384,-6.762117,-3.37388,-77.910004,98.279999,137.130005,1729431766161.0,0.0
-1.916651,-5.422136,-8.504091,-103.529999,87.57,173.180008,1729431766181.0,0.0
-1.117448,-6.879365,-6.393622,-88.620003,58.099998,198.940002,1729431766200.0,0.0
-0.435494,-5.292924,-9.133404,-107.309998,32.48,229.600006,1729431766222.0,0.0
-1.569692,-3.06042,-11.416157,-173.880005,14.49,234.220001,1729431766242.0,0.0
-3.833302,-14.261222,-9.564112,-142.520004,28.139999,185.850006,1729431766261.0,0.0
-2.385644,-11.657832,-9.425328,-30.73,-17.15,146.509995,1729431766282.0,0.0
-2.091327,-5.54417,-6.656832,129.289993,-35.700001,107.520004,1729431766300.0,0.0
-5.12782,-1.902294,-6.568298,94.639999,-19.18,55.510002,1729431766322.0,0.0
-4.347759,-4.421937,-8.391629,-3.85,-46.970001,3.57,1729431766340.0,0.0
-3.017349,-6.644868,-10.430314,-60.34,-56.91,-49.84,1729431766363.0,0.0
-3.548556,-6.144768,-11.399406,-48.16,-37.869999,-100.169998,1729431766381.0,0.0
-2.289931,-4.642076,-8.516055,-33.389999,-36.75,-140.910004,1729431766400.0,0.0
-1.103091,-4.912465,-5.240282,-40.18,-34.439999,-185.220001,1729431766430.0,0.0
-0.583849,-5.371887,-7.846066,-13.09,-44.73,-214.830002,1729431766442.0,0.0
-2.273181,-5.838487,-12.002398,109.480003,-55.439999,-194.25,1729431766461.0,0.0
-3.866802,-5.965307,-3.23031,128.589996,-56.630001,-170.660004,1729431766481.0,0.0
-4.749753,-5.972485,-0.253639,23.66,-59.57,-176.190002,1729431766501.0,0.0
-4.378866,-6.486942,-4.532006,-45.220001,-81.340004,-146.860001,1729431766522.0,0.0
-2.222932,-7.393822,-7.228717,-32.34,-71.330002,-80.849998,1729431766541.0,0.0
-1.28016,-11.703296,-0.878166,5.25,-34.790001,8.82,1729431766562.0,0.0
-1.806581,-9.671788,-4.347759,-76.370003,10.29,17.57,1729431766581.0,0.0
-1.87358,-11.423335,-7.903493,11.83,11.2,60.900002,1729431766602.0,0.0
-0.990629,-12.904492,-5.685347,83.300003,7.56,91.629997,1729431766622.0,0.0
-1.667797,-12.327823,-6.039484,127.400002,49.560001,93.309998,1729431766641.0,0.0
-2.261217,-9.597611,-4.292724,143.710007,81.269997,94.709999,1729431766663.0,0.0
-2.816352,-8.77448,-2.935993,116.760002,85.75,97.93,1729431766681.0,0.0
-3.287738,-6.948757,-2.651247,-0.35,76.580002,96.529999,1729431766701.0,0.0
-3.259024,-3.646662,-5.391029,-87.43,45.639999,98.840004,1729431766723.0,0.0
-2.337788,-6.218946,-12.399607,-87.5,20.719999,132.300003,1729431766742.0,0.0
0.739382,-4.661219,-5.297709,-59.360001,12.81,150.289993,1729431766762.0,0.0
-3.031706,-4.084548,-9.820145,-31.57,56.700001,176.399994,1729431766783.0,0.0
-5.716454,-8.350951,-7.592427,-31.360001,47.599998,151.690002,1729431766802.0,0.0
-3.125026,-7.499106,-7.668997,-23.24,19.040001,116.270004,1729431766823.0,0.0
-3.416951,-5.383851,-7.79103,56.07,5.81,71.050003,1729431766843.0,0.0
-3.493521,-5.278566,-6.051448,-14.28,8.4,17.92,1729431766862.0,0.0
-3.457629,-7.207181,-8.298308,-70.419998,-0.14,-33.599998,1729431766882.0,0.0
-2.679961,-7.255038,-9.444471,-78.889999,-4.9,-89.25,1729431766903.0,0.0
-3.835695,-5.974878,-4.287938,-81.129997,9.87,-138.039993,1729431766923.0,0.0
-2.986243,-5.98445,-5.548956,-103.459999,-8.89,-189.699997,1729431766942.0,0.0
-2.127219,-4.67079,-11.79183,-104.090004,-31.15,-203.0,1729431766963.0,0.0
-4.292724,-7.171289,-7.525427,-90.160004,-9.73,-207.059998,1729431766982.0,0.0
-5.307281,-9.205189,-4.651647,-101.709999,-8.96,-216.440002,1729431767003.0,0.0
-4.132405,-6.032306,-8.882158,-44.52,-29.82,-206.710007,1729431767024.0,0.0
-2.620141,-0.59342,-10.497313,-45.709999,-30.450001,-166.180008,1729431767042.0,0.0
0.11007,5.694918,-21.190838,-122.150002,-4.69,-123.970001,1729431767062.0,0.0
3.546163,-9.382257,3.428915,-2.59,5.18,-6.37,1729431767083.0,0.0
-4.07737,-22.284357,7.867601,-161.350006,83.440002,-38.5,1729431767104.0,0.0
