acc_x,acc_y,acc_z,gyr_x,gyr_y,gyr_z,timestamp,label
-5.525027,-8.130811,-10.025927,681.380005,14.49,89.949997,1729473252522.0,0.0
-7.140182,-4.259224,-3.790231,690.76001,56.630001,71.889999,1729473252523.0,0.0
-9.994821,-5.115855,1.265803,588.140015,75.32,53.549999,1729473252524.0,0.0
-10.150353,-7.484749,3.474378,459.76001,49.209999,15.75,1729473252528.0,0.0
-6.312266,-6.558727,5.395815,322.839996,27.719999,-19.18,1729473252541.0,0.0
-4.625326,-6.472585,6.053841,177.380005,33.950001,-36.259998,1729473252561.0,0.0
-4.304688,-6.742974,4.881358,52.009998,22.26,-47.740002,1729473252585.0,0.0
-3.902694,-6.915257,3.921836,-46.27,16.030001,-46.900002,1729473252602.0,0.0
-3.649055,-7.183254,3.76391,-111.300003,6.09,-48.23,1729473252621.0,0.0
-3.574877,-7.463214,3.194418,-131.110001,-6.93,-37.099998,1729473252640.0,0.0
-3.505485,-7.551748,2.610569,-119.419998,-9.87,-27.370001,1729473252662.0,0.0
-3.663411,-7.879565,1.497907,-96.949997,-10.5,-22.190001,1729473252682.0,0.0
-3.672983,-8.166703,0.784846,-66.57,-5.95,-14.98,1729473252702.0,0.0
-3.728018,-8.650054,0.555135,-50.189999,-1.19,-11.55,1729473252723.0,0.0
-4.017549,-9.286544,0.555135,-30.380001,4.27,-9.59,1729473252741.0,0.0
-4.268795,-9.506684,0.803988,-8.89,10.36,-9.52,1729473252761.0,0.0
-4.338188,-9.176475,0.849452,1.75,15.68,-10.71,1729473252782.0,0.0
-4.26401,-8.68116,0.746561,-2.31,17.99,-12.88,1729473252802.0,0.0
-4.185047,-8.520842,0.595813,-15.12,18.9,-14.28,1729473252821.0,0.0
-3.969693,-8.709875,0.531207,-30.940001,18.549999,-14.77,1729473252840.0,0.0
-3.835695,-8.987441,0.51685,-39.27,17.85,-14.0,1729473252861.0,0.0
-3.862016,-9.250652,0.562313,-37.240002,18.129999,-11.76,1729473252882.0,0.0
-3.859623,-9.032906,0.562313,-29.190001,17.01,-10.08,1729473252901.0,0.0
-3.735196,-8.796017,0.552742,-23.309999,14.98,-7.7,1729473252921.0,0.0
-3.809374,-8.712267,0.569492,-23.1,13.02,-6.16,1729473252941.0,0.0
-3.885944,-8.839087,0.643669,-22.82,10.92,-4.9,1729473252961.0,0.0
-3.876373,-8.817552,0.662812,-22.610001,9.52,-3.99,1729473252982.0,0.0
-3.823731,-8.752945,0.751346,-23.59,8.82,-3.78,1729473253003.0,0.0
-3.771089,-8.992228,0.638884,-26.040001,7.56,-2.38,1729473253021.0,0.0
-3.859623,-9.147761,0.624527,-24.15,8.05,-0.98,1729473253041.0,0.0
-3.986443,-9.315259,0.571885,-17.92,7.63,0.77,1729473253061.0,0.0
-4.12044,-9.377472,0.581456,-10.22,7.7,1.19,1729473253082.0,0.0
-4.208975,-9.29133,0.445065,-4.13,7.14,0.07,1729473253103.0,0.0
-4.168297,-9.178867,0.437887,-0.35,6.02,-0.7,1729473253121.0,0.0
-4.13719,-9.195618,0.471386,0.49,4.06,-1.19,1729473253140.0,0.0
-4.079762,-9.135797,0.401994,1.05,2.24,-1.96,1729473253168.0,0.0
-4.039084,-9.092726,0.358923,0.91,0.42,-1.96,1729473253183.0,0.0
-3.929015,-9.018548,0.282353,1.26,-1.54,-1.89,1729473253203.0,0.0
-3.859623,-9.01137,0.20339,3.22,-3.08,-1.61,1729473253222.0,0.0
-3.845266,-9.018548,0.088534,3.57,-3.43,-0.91,1729473253241.0,0.0
-3.981657,-9.12144,-0.031107,0.35,-3.71,-1.19,1729473253261.0,0.0
-4.067799,-9.262616,-0.141177,-1.96,-4.55,-0.98,1729473253282.0,0.0
-4.027121,-9.298509,-0.260818,-1.68,-5.32,-1.33,1729473253302.0,0.0
-4.027121,-9.351151,-0.409173,-1.75,-4.76,-2.17,1729473253321.0,0.0
-4.036692,-9.341579,-0.437887,-3.64,-3.36,-3.99,1729473253342.0,0.0
-3.986443,-9.310472,-0.413958,-4.41,-1.96,-5.18,1729473253361.0,0.0
-4.015156,-9.394222,-0.217747,-6.02,-1.26,-6.09,1729473253382.0,0.0
-4.04387,-9.24826,-0.337388,-6.86,-0.63,-7.35,1729473253403.0,0.0
-3.986443,-9.157332,-0.33021,-6.3,0.14,-7.7,1729473253431.0,0.0
-3.960121,-9.095119,-0.155533,-7.0,0.21,-8.12,1729473253442.0,0.0
-3.95055,-9.171689,-0.141177,-8.4,-0.21,-8.26,1729473253462.0,0.0
-3.902694,-9.080762,-0.102891,-7.35,-0.21,-8.26,1729473253482.0,0.0
-3.89073,-8.9683,-0.129212,-7.0,-0.21,-7.98,1729473253504.0,0.0
-3.902694,-9.078369,-0.095713,-9.73,0.21,-7.63,1729473253522.0,0.0
-3.938586,-9.334401,-0.055035,-13.02,0.7,-7.56,1729473253543.0,0.0
-3.929015,-9.38465,-0.021535,-10.36,1.89,-7.14,1729473253563.0,0.0
-3.864408,-9.320045,-0.141177,-6.93,3.36,-8.33,1729473253589.0,0.0
-3.895515,-9.372685,-0.133998,-6.37,5.04,-10.36,1729473253605.0,0.0
-3.888337,-9.504292,-0.224925,-9.87,5.53,-14.56,1729473253623.0,0.0
-3.826123,-9.631111,-0.392423,-12.04,6.16,-17.780001,1729473253644.0,0.0
-3.811767,-9.540184,-0.476172,-12.18,6.86,-19.530001,1729473253663.0,0.0
-3.87398,-9.664611,-0.552742,-13.23,7.42,-21.280001,1729473253684.0,0.0
-3.826123,-9.870394,-0.636491,-16.73,7.77,-25.200001,1729473253705.0,0.0
-3.680161,-9.95175,-0.725025,-24.780001,6.51,-27.719999,1729473253722.0,0.0
-3.414558,-9.963714,-0.806381,-31.5,4.41,-30.309999,1729473253752.0,0.0
-3.148954,-9.963714,-0.973879,-33.25,3.57,-32.48,1729473253764.0,0.0
-2.878566,-9.542577,-0.954736,-35.209999,3.64,-35.349998,1729473253784.0,0.0
-2.701497,-9.315259,-1.217947,-44.939999,3.15,-35.490002,1729473253804.0,0.0
-2.471786,-9.042477,-1.37348,-63.420002,0.63,-39.060001,1729473253824.0,0.0
-2.378466,-8.724231,-1.258625,-83.790001,0.35,-39.689999,1729473253843.0,0.0
-2.143969,-8.556733,-1.550549,-106.050003,-3.29,-39.41,1729473253863.0,0.0
-1.998007,-8.362915,-1.954936,-132.789993,-6.72,-40.110001,1729473253888.0,0.0
-1.880759,-7.989635,-2.490928,-154.0,-7.0,-39.34,1729473253905.0,0.0
-1.615155,-7.367501,-3.227918,-175.770004,-9.52,-38.290001,1729473253923.0,0.0
-0.758525,-5.965307,-4.182654,-231.139999,-22.75,-35.420002,1729473253942.0,0.0
-0.607777,-5.458029,-4.888536,-273.769989,-32.130001,-32.060001,1729473253962.0,0.0
-1.37348,-5.335995,-6.144768,-310.799988,-31.780001,-27.370001,1729473253983.0,0.0
-2.179861,-5.666204,-7.293324,-321.929993,-31.15,-25.83,1729473254004.0,0.0
-2.610569,-6.252446,-8.38445,-285.529999,-31.85,-22.190001,1729473254022.0,0.0
-3.058028,-5.924629,-10.724631,-217.350006,-31.01,-13.79,1729473254042.0,0.0
-6.573084,-6.283553,-4.776074,-165.970001,-21.210001,-2.8,1729473254063.0,0.0
-7.372287,-9.008978,-6.711867,-132.860001,-28.139999,-33.110001,1729473254084.0,0.0
-4.625326,-8.480164,-7.743174,-97.370003,-68.25,-34.650002,1729473254105.0,0.0
-1.861616,-5.778666,-9.882358,-49.139999,-73.010002,-44.52,1729473254123.0,0.0
-3.089134,-3.474378,-11.12184,-30.17,-39.549999,-27.790001,1729473254142.0,0.0
-3.632305,-4.130012,-11.868401,-14.91,-9.8,-14.7,1729473254162.0,0.0
-1.945365,-4.067799,-12.387643,32.900002,-0.42,12.32,1729473254184.0,0.0
-0.574277,-3.412165,-10.877771,76.510002,11.55,27.790001,1729473254203.0,0.0
-0.363709,-3.924229,-8.865408,71.610001,24.360001,31.99,1729473254222.0,0.0
-0.531207,-6.058627,-7.178468,43.889999,26.74,26.880001,1729473254242.0,0.0
-0.023928,-7.905886,-5.517848,38.360001,18.620001,15.05,1729473254262.0,0.0
0.284746,-7.963314,-4.924429,73.709999,2.59,-4.9,1729473254284.0,0.0
-0.442672,-5.690133,-4.969893,82.040001,-8.33,-14.63,1729473254303.0,0.0
-1.916651,-2.926422,-5.821737,33.880001,-18.969999,-16.450001,1729473254322.0,0.0
-2.909672,-3.342773,-6.955935,-60.27,-31.710001,-23.73,1729473254342.0,0.0
-2.388037,-4.87418,-7.668997,-136.080002,-53.760002,-36.400002,1729473254363.0,0.0
-3.163311,-6.118448,-8.269595,-122.779999,-59.849998,-37.170002,1729473254384.0,0.0
-5.924629,-5.35753,-9.38465,-47.599998,-43.68,-26.809999,1729473254404.0,0.0
-8.047063,-3.957729,-12.449856,26.74,-20.23,0.14,1729473254422.0,0.0
-7.922636,-4.845466,-12.823137,23.24,2.73,22.82,1729473254443.0,0.0
-3.239882,-6.18784,-11.327622,7.77,4.69,22.120001,1729473254462.0,0.0
-1.607977,-5.979663,-12.095718,47.950001,11.97,25.9,1729473254483.0,0.0
-2.584249,-5.022535,-10.135997,115.639999,42.91,35.84,1729473254503.0,0.0
-2.59382,-4.323831,-9.233903,133.0,56.91,43.470001,1729473254521.0,0.0
-1.160519,-6.793223,-8.142776,127.400002,57.82,49.349998,1729473254542.0,0.0
-0.275175,-9.195618,-3.223132,143.850006,65.379997,44.799999,1729473254562.0,0.0
0.129212,-8.032705,-0.105284,154.0,59.709999,30.73,1729473254587.0,0.0
-1.777867,-5.120641,0.145962,95.059998,29.889999,8.89,1729473254604.0,0.0
-4.072584,-6.199803,-3.208775,-53.060001,-15.82,-21.07,1729473254622.0,0.0
-1.284946,-3.701697,-6.958328,-133.559998,-80.779999,-64.610001,1729473254642.0,0.0
-1.986043,-0.856631,-6.879365,-190.960007,-82.809998,-60.060001,1729473254663.0,0.0
-5.685347,-3.754339,-8.860621,-209.720001,-68.949997,-47.529999,1729473254683.0,0.0
-8.513663,-4.436293,-13.907085,-150.779999,-37.450001,-22.33,1729473254704.0,0.0
-8.578269,-3.718446,-14.718252,-91.489998,-8.89,18.969999,1729473254722.0,0.0
-4.740182,-5.536992,-12.619746,-63.0,2.17,35.560001,1729473254742.0,0.0
-3.125026,-5.443672,-9.722038,-3.22,17.43,44.099998,1729473254762.0,0.0
-2.39043,-6.082555,-8.472985,48.369999,27.09,46.549999,1729473254783.0,0.0
-1.167697,-6.73101,-7.625926,55.16,28.49,42.700001,1729473254803.0,0.0
-0.0335,-7.331609,-6.963113,49.420002,24.219999,36.540001,1729473254822.0,0.0
0.212961,-9.162118,-5.094319,59.150002,19.74,22.540001,1729473254842.0,0.0
0.236889,-8.51127,-5.132604,57.610001,12.32,-2.17,1729473254863.0,0.0
-0.007178,-5.235496,-3.661019,20.370001,-6.65,-22.26,1729473254883.0,0.0
-1.854438,-3.845266,-5.431707,-23.309999,-21.139999,-33.599998,1729473254903.0,0.0
-3.419343,-3.349952,-6.580262,-59.990002,-27.16,-40.529999,1729473254922.0,0.0
-1.722832,-3.505485,-9.19801,-106.470001,-45.080002,-54.529999,1729473254942.0,0.0
-3.493521,-3.639483,-10.906486,-107.940002,-36.259998,-45.290001,1729473254962.0,0.0
-6.13759,-2.455036,-11.133803,-14.98,-17.290001,-10.85,1729473254983.0,0.0
-8.496914,-2.689533,-12.540783,44.450001,4.48,22.469999,1729473255003.0,0.0
-8.702696,-3.68734,-10.966305,35.0,23.450001,33.110001,1729473255022.0,0.0
-4.522435,-5.307281,-9.643075,-1.54,17.710001,22.610001,1729473255042.0,0.0
-3.065206,-5.343173,-10.415956,7.28,22.4,17.99,1729473255062.0,0.0
-3.35713,-3.708875,-9.592826,45.57,37.66,20.860001,1729473255083.0,0.0
-2.323431,-4.21376,-8.953942,47.529999,38.290001,27.790001,1729473255104.0,0.0
-1.328017,-6.005985,-5.922236,48.650002,36.610001,30.380001,1729473255122.0,0.0
-1.454836,-7.489535,-3.213561,46.549999,32.41,21.210001,1729473255143.0,0.0
-1.167697,-9.123833,-2.87378,1.12,11.97,-5.18,1729473255162.0,0.0
-1.191626,-9.274581,-3.443272,-46.689999,-15.33,-36.119999,1729473255183.0,0.0
-3.163311,-7.195218,-6.084948,-70.910004,-30.030001,-63.560001,1729473255210.0,0.0
-2.237289,-3.519842,-7.700103,-72.800003,-45.360001,-68.459999,1729473255222.0,0.0
-2.189433,-3.433701,-7.68096,-108.639999,-46.689999,-65.239998,1729473255242.0,0.0
-5.240282,-5.728417,-10.100104,-140.210007,-31.290001,-63.349998,1729473255263.0,0.0
-6.245267,-2.443072,-12.196217,-43.82,-31.290001,-40.110001,1729473255283.0,0.0
-5.910272,-0.428315,-12.569498,15.33,-4.9,-14.35,1729473255303.0,0.0
-3.919443,1.148555,-11.468799,53.830002,9.38,19.67,1729473255323.0,0.0
-2.63689,1.196411,-9.35833,56.07,21.84,40.459999,1729473255342.0,0.0
-2.70389,-0.179462,-8.772088,30.52,25.059999,48.790001,1729473255362.0,0.0
-2.708675,-1.591227,-8.693125,11.48,25.620001,48.509998,1729473255383.0,0.0
-1.828116,-2.428715,-9.107083,10.78,21.700001,50.259998,1729473255405.0,0.0
-1.722832,-4.108476,-8.487342,2.45,24.92,51.099998,1729473255423.0,0.0
-1.555335,-5.668597,-8.659625,-16.17,27.58,42.98,1729473255442.0,0.0
-1.033699,-8.733803,-7.379465,-17.710001,25.200001,36.540001,1729473255462.0,0.0
-1.227518,-9.186047,-5.039285,-15.61,20.440001,17.219999,1729473255483.0,0.0
-2.548356,-8.786445,-5.285746,-25.549999,8.12,-4.13,1729473255505.0,0.0
-4.086941,-8.161918,-5.259424,-41.790001,-8.89,-22.610001,1729473255522.0,0.0
-5.161318,-6.826723,-8.549555,-58.939999,-20.719999,-37.59,1729473255543.0,0.0
-3.428915,-4.216154,-8.693125,-42.98,-29.540001,-42.630001,1729473255564.0,0.0
-4.323831,-3.048456,-9.992428,-33.32,-20.860001,-42.490002,1729473255587.0,0.0
-3.787838,-2.354537,-10.51167,-20.65,-17.360001,-40.810001,1729473255605.0,0.0
-3.488736,-0.887737,-10.815558,7.56,-13.16,-24.43,1729473255623.0,0.0
-3.864408,0.239282,-10.497313,46.060001,-1.47,-0.56,1729473255643.0,0.0
-3.443272,0.861416,-9.817751,48.790001,5.18,20.51,1729473255663.0,0.0
-2.411965,-0.488136,-8.398808,43.959999,5.88,36.610001,1729473255685.0,0.0
-2.175076,-0.978664,-8.669197,54.670002,6.51,46.759998,1729473255707.0,0.0
-1.438086,-2.163112,-9.915856,55.02,6.3,56.560001,1729473255723.0,0.0
-1.387837,-4.503292,-9.762716,49.630001,14.35,59.5,1729473255743.0,0.0
-1.117448,-7.336394,-9.501899,32.48,22.4,48.650002,1729473255764.0,0.0
-1.201197,-9.38465,-6.319445,22.540001,26.6,29.540001,1729473255784.0,0.0
-3.239882,-8.712267,-4.019942,10.57,21.559999,1.68,1729473255805.0,0.0
-5.405386,-7.06122,-4.943572,-28.42,3.08,-25.9,1729473255823.0,0.0
-4.663611,-7.331609,-8.987441,-62.299999,-20.299999,-42.349998,1729473255843.0,0.0
-4.596612,-5.644669,-8.410772,-58.66,-21.210001,-48.860001,1729473255864.0,0.0
-4.285545,-4.09412,-10.360922,-57.330002,-14.35,-56.630001,1729473255886.0,0.0
-3.101098,-2.423929,-10.573883,-8.96,-11.13,-40.670002,1729473255906.0,0.0
-3.85723,-0.507278,-10.963913,15.33,3.78,-22.610001,1729473255929.0,0.0
-3.251846,0.205783,-11.356337,44.310001,9.73,4.69,1729473255943.0,0.0
-1.897508,0.543171,-9.339187,60.970001,14.28,28.700001,1729473255963.0,0.0
-2.179861,-0.756132,-8.159525,37.939999,19.530001,37.450001,1729473255984.0,0.0
-3.168097,-2.06022,-8.688338,9.8,21.98,38.150002,1729473256005.0,0.0
-2.679961,-4.206582,-9.413363,14.49,16.799999,37.240002,1729473256023.0,0.0
-1.359123,-3.613162,-8.714661,45.150002,15.4,38.5,1729473256043.0,0.0
-1.447658,-4.259224,-7.24786,60.130001,20.440001,38.57,1729473256063.0,0.0
-1.988436,-6.647261,-5.929415,41.509998,19.25,32.200001,1729473256084.0,0.0
-3.553342,-9.049655,-3.900301,6.3,12.32,12.46,1729473256105.0,0.0
-5.455636,-8.420342,-4.656433,-32.130001,0.35,-16.59,1729473256123.0,0.0
-5.257031,-6.642475,-7.355537,-48.369999,-23.030001,-29.26,1729473256143.0,0.0
-4.338188,-6.680761,-8.453842,-68.599998,-32.34,-38.43,1729473256163.0,0.0
-4.627719,-6.199803,-10.463813,-92.540001,-21.84,-51.66,1729473256184.0,0.0
-3.627519,-5.745167,-10.566705,-59.290001,-21.98,-50.049999,1729473256206.0,0.0
-4.199404,-2.24686,-11.504691,-3.08,-13.51,-44.939999,1729473256223.0,0.0
-3.235096,-0.260818,-11.169697,26.460001,3.71,-21.0,1729473256243.0,0.0
-1.880759,-0.26321,-10.018748,27.58,11.97,-0.84,1729473256264.0,0.0
-1.875973,-0.878166,-9.207582,21.42,20.58,11.83,1729473256285.0,0.0
-2.215754,-1.141376,-9.276974,28.98,25.690001,19.879999,1729473256305.0,0.0
-1.454836,-1.088734,-9.487542,40.599998,19.809999,26.460001,1729473256323.0,0.0
-1.119841,-1.684547,-8.106883,42.139999,22.049999,33.529999,1729473256344.0,0.0
-1.064806,-3.783052,-7.573284,31.85,23.52,35.209999,1729473256364.0,0.0
-1.636691,-6.659225,-6.987042,14.56,22.4,27.93,1729473256384.0,0.0
-2.696711,-7.826923,-5.525027,0.7,17.99,10.99,1729473256404.0,0.0
-4.663611,-7.192825,-3.694518,-6.72,2.73,0.35,1729473256422.0,0.0
-5.998806,-6.374479,-7.080362,-47.810001,-21.49,-20.09,1729473256444.0,0.0
-6.879365,-5.036892,-9.609575,-104.720001,-26.389999,-41.299999,1729473256463.0,0.0
-4.733003,-7.293324,-11.894722,-112.980003,-31.360001,-44.59,1729473256484.0,0.0
-3.034099,-5.491528,-11.799009,-30.450001,-20.09,-39.900002,1729473256504.0,0.0
-4.108476,-1.332802,-10.600205,39.970001,0.42,-21.559999,1729473256522.0,0.0
-3.495914,-0.311067,-10.956735,43.189999,7.35,0.28,1729473256544.0,0.0
-2.048256,-1.76351,-10.202995,38.920002,11.06,19.879999,1729473256563.0,0.0
-2.603391,-2.739782,-8.173882,46.689999,30.799999,27.790001,1729473256590.0,0.0
-2.299503,-2.665605,-6.84108,59.920002,24.5,26.950001,1729473256604.0,0.0
-1.514657,-0.777667,-7.008578,46.200001,15.89,24.780001,1729473256623.0,0.0
-0.66999,-4.701896,-7.623533,23.66,3.99,24.85,1729473256643.0,0.0
0.193819,-4.811966,-7.197611,24.99,-0.07,22.540001,1729473256663.0,0.0
-0.949951,-5.036892,-6.443871,19.18,0.35,25.620001,1729473256684.0,0.0
-2.115255,-7.896315,-7.149754,-28.0,-1.75,11.69,1729473256704.0,0.0
-3.002992,-9.006584,-8.059027,-48.580002,-10.22,-4.48,1729473256724.0,0.0
-3.964907,-6.412765,-8.042276,-32.060001,-10.99,-18.83,1729473256743.0,0.0
-4.704289,-4.862216,-7.465607,-20.440001,-19.389999,-18.690001,1729473256763.0,0.0
-5.910272,-5.417351,-7.491928,-50.330002,-20.860001,-23.940001,1729473256784.0,0.0
-5.721239,-5.534599,-11.018949,-83.790001,-19.389999,-36.959999,1729473256805.0,0.0
-3.876373,-4.871787,-12.117253,-53.41,-18.200001,-32.619999,1729473256823.0,0.0
-3.739982,-3.452843,-11.799009,3.85,0.7,-27.58,1729473256843.0,0.0
-3.448057,-1.210768,-10.951948,47.32,15.12,-13.65,1729473256862.0,0.0
-1.828116,-0.37328,-8.760124,59.639999,21.07,4.48,1729473256883.0,0.0
-1.519442,-1.674976,-7.307681,13.72,25.690001,11.41,1729473256904.0,0.0
-1.880759,-3.400201,-8.382057,2.52,27.16,11.34,1729473256922.0,0.0
-1.22034,-2.955136,-9.308081,12.81,25.969999,11.69,1729473256942.0,0.0
0.392423,-6.484549,-10.140782,54.459999,18.200001,13.72,1729473256962.0,0.0
1.265803,-5.364708,-8.566305,113.68,26.040001,16.450001,1729473256983.0,0.0
-0.081356,-4.802395,-6.111269,154.350006,37.029999,24.360001,1729473257003.0,0.0
-3.081956,-6.283553,-2.282753,105.840004,38.009998,11.62,1729473257023.0,0.0
-6.15434,-8.449057,-3.024528,34.509998,18.969999,-8.05,1729473257042.0,0.0
-6.769295,-8.130811,-5.87438,9.03,-15.33,-23.940001,1729473257071.0,0.0
-4.768896,-6.376873,-8.700303,10.57,-45.290001,-25.27,1729473257085.0,0.0
-4.895715,-9.159724,-9.059227,47.950001,-39.549999,-11.9,1729473257115.0,0.0
-5.058427,-8.721838,-8.815158,91.349998,-15.190001,-21.139999,1729473257148.0,0.0
-4.388437,-7.76471,-8.458629,156.449997,-25.9,-6.58,1729473257153.0,0.0
-3.354738,-7.085148,-7.719246,196.979996,-29.120001,-5.95,1729473257163.0,0.0
-3.122634,-7.657032,-7.267002,215.600006,-21.77,-6.09,1729473257185.0,0.0
-3.194418,-7.858029,-6.845865,243.180008,-15.33,-6.51,1729473257202.0,0.0
-3.07717,-7.489535,-6.431907,292.390015,-14.07,-1.82,1729473257221.0,0.0
-3.019742,-8.224132,-4.74736,405.019989,-15.61,12.67,1729473257248.0,0.0
-2.476572,-8.551948,-3.826123,482.929993,-21.49,19.389999,1729473257261.0,0.0
-1.562513,-8.015956,-2.304288,531.929993,-21.42,27.790001,1729473257283.0,0.0
-0.662812,-7.905886,-0.148355,543.27002,-19.25,31.639999,1729473257302.0,0.0
-1.179662,-6.293124,3.751946,467.950012,9.17,28.84,1729473257321.0,0.0
-2.947958,-6.190232,5.455636,324.799988,16.309999,18.690001,1729473257341.0,0.0
-2.842674,-8.281559,5.292924,184.240005,-2.87,2.73,1729473257362.0,0.0
-1.885544,-9.181261,4.783253,94.57,-3.57,-2.94,1729473257385.0,0.0
-2.395216,-9.303294,4.587041,65.660004,8.96,-10.29,1729473257402.0,0.0
-3.206382,-8.252845,5.395815,72.519997,11.9,-11.13,1729473257422.0,0.0
-3.220739,-7.74796,6.221339,97.860001,5.11,-10.64,1729473257442.0,0.0
-3.034099,-7.24786,6.357729,104.440002,0.98,-11.27,1729473257498.0,0.0
-3.199204,-6.142376,5.249853,94.989998,-5.53,-12.53,1729473257499.0,0.0
-3.366701,-5.682954,4.606184,110.669998,-3.22,-4.13,1729473257503.0,0.0
-5.869594,-1.306481,7.633104,124.949997,11.13,5.11,1729473257521.0,0.0
-5.606383,-1.801795,6.812366,26.6,0.77,23.379999,1729473257542.0,0.0
-3.383451,-7.008578,4.161119,-30.030001,-16.52,22.68,1729473257564.0,0.0
-3.495914,-9.559326,3.912265,-17.710001,6.09,22.82,1729473257586.0,0.0
-5.553742,-9.956534,6.403193,-1.12,17.290001,7.35,1729473257605.0,0.0
-4.986642,-7.724032,6.687939,10.92,20.16,-8.33,1729473257622.0,0.0
-4.199404,-5.955735,6.218946,43.400002,26.530001,-7.35,1729473257643.0,0.0
-4.704289,-5.108676,7.420143,43.889999,23.17,-2.24,1729473257664.0,0.0
-4.587041,-5.613562,8.025528,12.74,15.47,-1.05,1729473257685.0,0.0
-3.629912,-7.302894,7.094719,-5.46,5.53,-2.66,1729473257705.0,0.0
-2.804388,-7.879565,6.611369,2.17,4.13,-8.61,1729473257733.0,0.0
-2.490928,-7.056434,7.23111,19.040001,7.98,-14.77,1729473257745.0,0.0
-1.519442,-6.285945,6.642475,24.01,2.94,-17.710001,1729473257764.0,0.0
-1.385444,-5.151747,6.367301,45.849998,3.22,-12.67,1729473257785.0,0.0
-2.041078,-3.548556,6.017949,62.93,3.57,-2.45,1729473257805.0,0.0
-4.424329,-1.462015,7.128219,53.760002,8.47,11.48,1729473257825.0,0.0
-5.005785,-1.497907,7.676175,-36.959999,3.85,29.33,1729473257843.0,0.0
-4.582255,-1.739582,8.520842,-143.639999,-0.84,30.450001,1729473257863.0,0.0
-6.288338,-5.678168,12.732209,-290.429993,-11.48,28.07,1729473257885.0,0.0
-4.790431,-10.128819,4.622933,-451.080017,-88.620003,-21.210001,1729473257904.0,0.0
-2.203789,-14.488542,-0.547956,-348.040009,-77.489998,-10.71,1729473257924.0,0.0
-0.868595,-13.708481,-0.997807,-158.550003,-25.76,-23.1,1729473257943.0,0.0
-2.79721,-10.028319,1.222732,-28.0,9.94,-25.83,1729473257967.0,0.0
-4.376472,-6.802795,4.656433,3.15,26.809999,-25.549999,1729473257984.0,0.0
-4.9675,-5.663811,5.156533,-36.82,13.86,-19.809999,1729473258004.0,0.0
-3.981657,-7.848458,4.345366,-48.860001,-11.34,-17.780001,1729473258023.0,0.0
-3.062813,-8.757731,4.469792,2.59,-14.14,-9.52,1729473258043.0,0.0
-3.548556,-8.477771,4.565506,66.290001,-8.33,-0.91,1729473258064.0,0.0
-3.589234,-7.970492,4.510471,87.57,-4.27,-3.5,1729473258084.0,0.0
-4.266403,-6.845865,5.266603,68.18,4.34,-5.95,1729473258103.0,0.0
-5.300103,-6.982256,6.704689,15.96,4.2,-14.42,1729473258123.0,0.0
-3.641876,-7.9681,5.845665,-25.690001,-6.86,-21.210001,1729473258143.0,0.0
-2.002793,-8.611769,3.424129,-9.87,-11.2,-5.74,1729473258180.0,0.0
-2.751746,-9.38465,2.457429,23.73,-2.8,-7.0,1729473258255.0,0.0
-2.498107,-10.715059,2.959922,26.25,6.09,-12.04,1729473258255.0,0.0
-2.160719,-10.983055,3.728018,51.939999,13.72,-21.280001,1729473258255.0,0.0
-2.828316,-9.128618,5.223531,92.959999,21.35,-22.190001,1729473258255.0,0.0
-3.012564,-7.429714,5.594419,104.160004,15.26,-25.969999,1729473258263.0,0.0
-1.79701,-6.709475,5.876772,91.769997,8.33,-24.290001,1729473258284.0,0.0
-1.177269,-5.800202,4.409972,84.489998,-0.07,-16.52,1729473258303.0,0.0
-1.442872,-5.369494,3.108276,95.129997,4.55,-0.84,1729473258323.0,0.0
-2.464607,-3.969693,3.632305,82.32,18.27,9.94,1729473258343.0,0.0
-4.802395,-3.431308,5.225924,37.310001,29.540001,22.610001,1729473258363.0,0.0
-6.295516,-4.022335,5.541777,-34.299999,26.950001,27.58,1729473258384.0,0.0
-5.936593,-5.699703,6.991827,-121.800003,26.530001,26.74,1729473258404.0,0.0
-4.728218,-7.491928,8.73141,-227.5,10.22,10.71,1729473258423.0,0.0
-3.859623,-10.710274,8.427521,-324.940002,-30.59,-4.27,1729473258443.0,0.0
-2.06022,-12.650853,3.282953,-315.48999,-72.590004,-15.190001,1729473258463.0,0.0
-1.225125,-13.660624,-3.24706,-161.490005,-70.139999,-20.02,1729473258484.0,0.0
-2.230111,-10.963913,-0.547956,66.5,14.14,-16.030001,1729473258514.0,0.0
-2.526821,-7.350751,2.840281,100.029999,38.290001,-22.75,1729473258522.0,0.0
-2.928815,-4.778467,5.623133,77.559998,34.790001,-7.7,1729473258543.0,0.0
-4.089334,-6.608976,5.936593,48.16,9.73,-1.82,1729473258563.0,0.0
-3.759124,-8.102098,4.905287,56.209999,-11.13,1.96,1729473258587.0,0.0
-3.35713,-7.503892,4.828716,107.730003,-1.54,10.92,1729473258603.0,0.0
-4.108476,-6.625726,5.804988,119.139999,5.53,14.42,1729473258623.0,0.0
-4.584648,-6.656832,5.804988,87.639999,3.15,12.95,1729473258643.0,0.0
-4.603791,-7.140182,4.182654,67.129997,1.05,14.77,1729473258663.0,0.0
-4.185047,-8.468199,4.141976,54.529999,8.26,8.68,1729473258685.0,0.0
-3.316452,-9.786645,3.783052,5.18,15.61,-6.79,1729473258708.0,0.0
-2.572284,-9.659825,3.103491,-76.720001,22.469999,-25.200001,1729473258724.0,0.0
-1.919044,-9.095119,4.438686,-151.759995,26.67,-38.779999,1729473258745.0,0.0
-0.784846,-7.111469,3.737589,-192.360001,14.7,-35.490002,1729473258764.0,0.0
-0.01675,-7.391429,2.431108,-129.710007,-0.77,-6.23,1729473258785.0,0.0
-1.105484,-6.707082,3.069991,-30.1,5.53,19.809999,1729473258805.0,0.0
-3.416951,-4.256832,6.262017,-32.830002,7.21,25.690001,1729473258824.0,0.0
-5.843273,-7.077969,5.886343,-175.559998,-27.790001,35.98,1729473258844.0,0.0
-6.192625,-12.787244,2.376073,-267.890015,-65.029999,8.82,1729473258864.0,0.0
-3.924229,-15.653846,0.102891,-264.529999,-79.169998,-11.41,1729473258885.0,0.0
-2.313859,-14.983855,-0.72024,-175.979996,-58.869999,-28.49,1729473258905.0,0.0
-2.900101,-12.270394,-1.155733,-70.559998,-32.130001,-38.639999,1729473258924.0,0.0
-3.354738,-10.236496,-1.31366,-0.84,-13.58,-36.889999,1729473258944.0,0.0
-2.536392,-8.501699,-1.057628,58.939999,-9.03,-25.9,1729473258964.0,0.0
-1.471586,-6.965507,0.157926,121.449997,-1.82,-5.74,1729473258985.0,0.0
-1.287339,-6.305088,1.825724,156.309998,2.94,7.98,1729473259006.0,0.0
-2.624927,-6.740582,1.959722,148.75,7.35,15.54,1729473259024.0,0.0
-4.041477,-8.212167,2.70389,142.869995,5.53,19.32,1729473259044.0,0.0
-4.603791,-9.162118,3.850052,164.570007,0.07,20.16,1729473259064.0,0.0
-4.828716,-9.420543,3.251846,194.529999,9.66,17.5,1729473259085.0,0.0
-4.053442,-8.224132,2.086541,212.240005,18.690001,8.47,1729473259105.0,0.0
-4.563113,-6.668797,4.287938,181.020004,46.34,3.78,1729473259124.0,0.0
-4.658825,-6.979864,5.426922,67.900002,36.470001,-7.07,1729473259144.0,0.0
-3.242275,-11.684153,4.266403,-1.12,9.17,-10.71,1729473259164.0,0.0
-1.971686,-11.114661,4.319045,56.0,5.74,-17.15,1729473259185.0,0.0
-2.287539,-8.312666,5.441278,105.489998,15.12,-18.549999,1729473259205.0,0.0
-2.206182,-6.740582,5.369494,93.730003,9.17,-20.23,1729473259224.0,0.0
-0.643669,-6.608976,0.62692,69.160004,4.55,-17.43,1729473259244.0,0.0
-3.471986,-3.711268,9.437292,5.53,17.57,-6.37,1729473259265.0,0.0
-4.31426,-8.580662,3.682554,-25.059999,-35.700001,-14.49,1729473259292.0,0.0
-2.56032,-7.707282,2.9671,35.630001,-0.35,-0.49,1729473259305.0,0.0
-3.711268,-5.300103,4.37408,56.279999,24.43,-1.26,1729473259324.0,0.0
-3.804588,-5.103891,5.142176,10.85,28.35,3.43,1729473259344.0,0.0
-2.974278,-5.742774,6.80758,-45.5,25.48,4.06,1729473259366.0,0.0
-2.895315,-5.749953,7.152147,-83.790001,22.960001,14.07,1729473259385.0,0.0
-3.790231,-5.462814,9.253045,-132.930008,14.28,22.960001,1729473259406.0,0.0
-5.864808,-8.626125,8.209774,-211.539993,-23.030001,16.940001,1729473259424.0,0.0
-3.5007,-11.052447,5.469993,-240.100006,-56.84,0.56,1729473259445.0,0.0
-2.158326,-9.968499,2.108077,-233.449997,-47.740002,-7.98,1729473259465.0,0.0
-2.694318,-10.451849,-0.282353,-196.979996,-38.080002,-26.530001,1729473259487.0,0.0
-3.522235,-11.650653,-1.258625,-121.730003,-20.860001,-25.83,1729473259507.0,0.0
-3.122634,-12.083755,-0.157926,-35.139999,-1.47,-27.440001,1729473259524.0,0.0
-1.885544,-9.513863,1.234696,30.309999,10.5,-25.129999,1729473259545.0,0.0
-1.722832,-6.963113,2.732604,58.450001,17.57,-18.200001,1729473259565.0,0.0
-2.493321,-7.278966,2.955136,39.48,14.77,-10.01,1729473259590.0,0.0
-3.292524,-10.250853,2.689533,27.440001,2.59,-9.66,1729473259606.0,0.0
-3.211168,-10.238889,1.916651,71.470001,5.04,-9.24,1729473259625.0,0.0
-3.713661,-7.178468,3.156133,102.760002,34.93,-6.23,1729473259647.0,0.0
-4.589434,-6.128019,4.479364,59.290001,35.279999,-7.98,1729473259666.0,0.0
-4.529613,-7.334002,3.955336,7.14,17.57,-6.65,1729473259687.0,0.0
-3.515057,-9.927821,3.024528,15.61,5.46,-1.68,1729473259710.0,0.0
-2.471786,-10.272388,2.244468,45.920002,4.97,-2.38,1729473259725.0,0.0
-2.615355,-9.025726,1.462015,83.440002,13.23,1.33,1729473259747.0,0.0
-3.462414,-9.310472,1.622334,94.290001,24.08,0.14,1729473259767.0,0.0
-2.218147,-10.856236,3.345166,43.259998,25.76,-19.74,1729473259788.0,0.0
-0.995414,-10.365707,4.733003,19.6,23.450001,-31.99,1729473259807.0,0.0
0.224925,-8.240881,3.988836,34.790001,12.39,-27.51,1729473259826.0,0.0
0.488136,-5.312066,5.702096,70.699997,2.17,-12.18,1729473259847.0,0.0
-0.217747,-3.471986,5.304887,113.959999,-12.25,8.19,1729473259867.0,0.0
-2.813959,-1.624727,5.225924,94.989998,0.21,32.200001,1729473259888.0,0.0
-5.582455,-1.911865,4.220939,2.45,6.58,44.240002,1729473259908.0,0.0
-6.563512,-4.15394,7.178468,-130.759995,13.37,53.619999,1729473259928.0,0.0
-6.707082,-8.499306,5.113462,-357.140015,-10.85,18.969999,1729473259949.0,0.0
-3.136991,-14.380865,0.495314,-468.369995,-70.349998,-21.35,1729473259969.0,0.0
-0.911665,-18.678373,-3.330809,-367.709991,-70.419998,-19.110001,1729473259987.0,0.0
-1.050449,-16.429121,-4.443472,-133.630005,-30.52,-32.48,1729473260014.0,0.0
-2.914458,-11.877973,-3.237489,48.02,17.15,-37.170002,1729473260027.0,0.0
-3.002992,-8.360522,0.89013,109.129997,36.889999,-40.810001,1729473260047.0,0.0
-2.124826,-5.481956,2.572284,94.150002,28.210001,-27.299999,1729473260067.0,0.0
-2.756532,-5.898308,2.48375,38.990002,11.55,-6.02,1729473260088.0,0.0
-3.95055,-8.60459,2.081756,44.170002,9.87,3.92,1729473260107.0,0.0
-3.086741,-8.214561,2.249253,72.169998,9.31,11.9,1729473260126.0,0.0
-2.550749,-6.005985,2.835495,87.080002,22.049999,20.790001,1729473260147.0,0.0
-2.888137,-6.396015,3.412165,57.189999,22.190001,35.0,1729473260166.0,0.0
-3.393023,-7.834101,3.400201,-10.5,12.11,33.040001,1729473260187.0,0.0
-4.31426,-10.408779,3.598805,-31.219999,0.14,31.5,1729473260209.0,0.0
-4.065405,-10.906486,2.555535,20.719999,-8.47,29.68,1729473260228.0,0.0
-3.790231,-11.10509,1.459622,98.629997,0.56,32.830002,1729473260248.0,0.0
-3.45045,-10.746166,1.122234,128.800003,8.05,21.49,1729473260266.0,0.0
-3.850052,-9.516255,1.813759,118.860001,22.889999,13.3,1729473260289.0,0.0
-4.663611,-10.08814,3.629912,72.730003,28.35,2.1,1729473260310.0,0.0
-3.907479,-11.272588,4.754539,19.6,10.22,-19.6,1729473260328.0,0.0
-2.189433,-10.750952,5.508278,23.450001,-0.7,-26.18,1729473260346.0,0.0
-1.818545,-8.796017,5.300103,52.920002,-2.1,-24.5,1729473260367.0,0.0
-1.095913,-7.657032,3.550949,66.919998,-16.17,-19.950001,1729473260388.0,0.0
-1.344766,-6.802795,3.084348,80.849998,-18.41,-7.28,1729473260409.0,0.0
-2.285146,-5.809773,2.9671,88.480003,-1.12,4.34,1729473260426.0,0.0
-3.440879,-5.458029,4.402793,46.759998,11.48,9.87,1729473260446.0,0.0
-4.304688,-5.642276,5.386244,-42.279999,11.34,8.05,1729473260466.0,0.0
-4.398008,-7.695317,5.458029,-136.009995,-0.21,3.71,1729473260490.0,0.0
-3.661019,-9.317651,5.359922,-214.690002,-12.74,-10.99,1729473260507.0,0.0
-3.036492,-10.097712,3.955336,-259.279999,-26.950001,-22.26,1729473260527.0,0.0
-2.876173,-12.045469,0.701097,-245.630005,-37.310001,-31.5,1729473260547.0,0.0
-2.361716,-12.650853,-1.452443,-157.710007,-33.110001,-33.950001,1729473260567.0,0.0
-2.663212,-12.332609,-1.777867,-30.030001,0.7,-28.91,1729473260590.0,0.0
-2.404787,-9.619147,1.45005,46.34,18.549999,-29.049999,1729473260609.0,0.0
-2.708675,-5.946165,3.376273,59.290001,21.84,-22.26,1729473260627.0,0.0
-3.888337,-6.065805,2.837888,41.09,14.91,-6.65,1729473260646.0,0.0
-4.156333,-7.908278,2.428715,3.29,-0.56,-1.54,1729473260669.0,0.0
-2.522035,-10.214959,0.72024,2.31,-14.28,1.4,1729473260687.0,0.0
-0.978664,-9.688539,1.225125,51.52,-6.16,7.56,1729473260708.0,0.0
-2.096112,-7.834101,2.854637,109.620003,17.639999,19.389999,1729473260726.0,0.0
-4.735396,-6.309873,5.690133,73.849998,12.32,23.73,1729473260746.0,0.0
-4.350152,-7.539784,4.675575,28.84,-12.88,21.77,1729473260768.0,0.0
-3.699304,-9.772287,1.521835,18.76,-15.75,15.12,1729473260790.0,0.0
-3.184847,-10.937593,1.502693,49.700001,-4.34,8.82,1729473260809.0,0.0
-3.402594,-10.085747,1.993221,82.110001,18.690001,6.16,1729473260826.0,0.0
-4.04387,-9.944571,2.991028,62.299999,32.27,-3.92,1729473260848.0,0.0
-3.036492,-10.403993,4.364508,3.85,21.84,-20.65,1729473260866.0,0.0
-1.316052,-10.521241,4.572684,-4.97,9.87,-25.690001,1729473260887.0,0.0
-0.533599,-9.602397,4.677969,44.939999,6.44,-22.610001,1729473260909.0,0.0
-1.335195,-8.269595,4.926822,90.160004,1.82,-17.85,1729473260926.0,0.0
-1.9669,-6.757331,4.275974,99.120003,-3.5,-12.88,1729473260946.0,0.0
-2.103291,-5.862415,3.464807,85.050003,-4.2,-6.58,1729473260967.0,0.0
-2.754139,-5.761917,4.220939,44.450001,0.49,-0.77,1729473260989.0,0.0
-3.105884,-6.541977,4.328616,-38.290001,-0.14,-1.89,1729473261009.0,0.0
-2.438286,-7.848458,4.589434,-128.309998,-5.74,-5.04,1729473261027.0,0.0
-2.28036,-9.329616,4.242475,-185.919998,-14.63,-11.48,1729473261047.0,0.0
-3.148954,-12.528819,0.607777,-194.389999,-22.960001,-17.99,1729473261067.0,0.0
-3.538985,-13.227524,1.56012,-111.230003,-23.030001,-29.33,1729473261088.0,0.0
-4.204189,-12.476178,0.212961,-11.97,-9.31,-33.529999,1729473261108.0,0.0
-2.833102,-9.879964,2.804388,94.849998,-2.45,-19.32,1729473261126.0,0.0
-2.806781,-7.475177,4.54397,140.070007,1.33,-15.61,1729473261146.0,0.0
-3.443272,-6.522834,3.921836,110.459999,-12.11,-4.62,1729473261168.0,0.0
-2.770889,-7.702496,2.37368,65.870003,-15.96,-2.73,1729473261189.0,0.0
-1.282553,-7.068398,2.249253,63.07,1.19,-1.96,1729473261207.0,0.0
-1.68694,-5.242674,3.615555,86.099998,27.09,8.4,1729473261227.0,0.0
-2.57707,-4.759324,6.728617,81.410004,35.07,15.26,1729473261246.0,0.0
-3.462414,-4.979464,8.597411,45.290001,22.75,21.91,1729473261269.0,0.0
-3.354738,-7.453642,6.369694,5.18,-5.32,24.710001,1729473261289.0,0.0
-2.428715,-9.669396,4.307081,14.49,-12.11,25.549999,1729473261307.0,0.0
-2.632105,-10.906486,3.261417,52.709999,-6.44,17.92,1729473261326.0,0.0
-2.976671,-9.377472,3.632305,88.830002,9.45,15.26,1729473261347.0,0.0
-3.546163,-8.626125,4.539185,75.32,19.950001,6.65,1729473261365.0,0.0
-2.794817,-9.611969,5.393422,10.99,10.99,-8.89,1729473261387.0,0.0
-1.756332,-10.348958,5.364708,-13.65,2.1,-13.23,1729473261407.0,0.0
-0.902094,-9.796216,4.878965,35.349998,-7.07,-14.77,1729473261427.0,0.0
-0.320638,-7.465607,5.237889,88.550003,-7.28,-9.73,1729473261446.0,0.0
-1.67019,-5.522634,6.199803,130.479996,-5.88,5.74,1729473261466.0,0.0
-3.376273,-4.869394,6.333801,96.25,-10.08,9.38,1729473261487.0,0.0
-3.270989,-5.716454,5.446064,10.85,-15.47,4.62,1729473261507.0,0.0
-1.952543,-7.082755,4.56072,-57.330002,-16.66,-3.15,1729473261525.0,0.0
-1.732404,-8.516055,5.099105,-78.050003,-10.64,-7.28,1729473261545.0,0.0
-2.378466,-9.32483,6.283553,-93.730003,-4.97,-14.84,1729473261566.0,0.0
-2.98385,-8.77448,6.422336,-117.32,-8.4,-23.17,1729473261590.0,0.0
-3.443272,-9.712467,4.733003,-116.900002,-8.12,-23.870001,1729473261607.0,0.0
-2.050649,-10.313066,3.883551,-65.940002,-15.190001,-32.900002,1729473261626.0,0.0
-2.830709,-7.79103,6.525227,22.4,4.83,-22.469999,1729473261647.0,0.0
-3.598805,-5.443672,7.350751,45.57,-1.96,-20.23,1729473261667.0,0.0
-3.196811,-5.223531,6.652047,24.92,-17.290001,-7.14,1729473261687.0,0.0
-3.227918,-5.108676,5.752346,4.41,-17.5,4.69,1729473261710.0,0.0
-4.529613,-6.180661,5.556134,3.36,-18.059999,15.33,1729473261727.0,0.0
-4.280759,-7.925028,5.726025,40.110001,-12.18,21.139999,1729473261746.0,0.0
-3.842873,-5.730811,5.376673,72.449997,17.15,20.65,1729473261766.0,0.0
-3.795017,-4.04387,4.4674,25.76,26.040001,25.34,1729473261786.0,0.0
-3.424129,-7.477571,3.347559,-41.93,14.63,25.620001,1729473261808.0,0.0
-3.07717,-12.928421,2.242075,-58.029999,16.030001,17.780001,1729473261826.0,0.0
-1.758725,-13.923835,3.290131,-33.880001,28.42,-0.14,1729473261847.0,0.0
-1.392623,-10.846665,5.611169,23.52,42.139999,-8.54,1729473261867.0,0.0
-0.87338,-8.200203,6.843473,43.540001,25.690001,-14.7,1729473261888.0,0.0
0.150748,-7.278966,6.333801,43.75,3.36,-13.16,1729473261906.0,0.0
-0.20339,-7.202396,5.647062,47.740002,-5.95,-10.71,1729473261927.0,0.0
-1.11027,-7.049256,4.697111,58.66,-8.54,-7.28,1729473261945.0,0.0
-1.383051,-6.666404,4.869394,85.260002,-4.83,-0.91,1729473261965.0,0.0
-2.663212,-6.496514,5.723632,102.760002,2.31,2.31,1729473261988.0,0.0
-3.706482,-6.991827,6.257231,102.760002,1.12,-2.45,1729473262007.0,0.0
-3.725625,-6.563512,6.778866,112.559998,5.25,-6.44,1729473262025.0,0.0
-3.826123,-6.07777,7.489535,124.18,10.01,-6.3,1729473262045.0,0.0
-3.845266,-5.749953,7.652246,123.970001,11.06,-6.51,1729473262066.0,0.0
-3.510271,-6.314659,7.405786,91.840004,15.82,-13.51,1729473262086.0,0.0
-3.17049,-5.998806,7.001399,83.230003,23.799999,-16.799999,1729473262107.0,0.0
-3.196811,-5.584848,7.288538,82.389999,30.799999,-19.110001,1729473262126.0,0.0
-3.326023,-5.955735,8.056634,75.949997,29.4,-22.82,1729473262145.0,0.0
-2.845066,-5.63749,8.116454,76.790001,28.35,-28.49,1729473262167.0,0.0
-2.143969,-4.26401,8.571091,70.559998,27.719999,-29.68,1729473262186.0,0.0
-2.292324,-3.24706,8.52802,49.98,18.059999,-25.059999,1729473262208.0,0.0
-2.383251,-2.641676,8.030313,42.490002,11.76,-15.33,1729473262225.0,0.0
-3.28056,-1.801795,7.941778,28.0,9.24,-5.18,1729473262245.0,0.0
-3.828516,-0.954736,7.69771,10.15,9.17,9.1,1729473262267.0,0.0
-3.862016,-0.772882,7.62114,-19.74,10.78,22.120001,1729473262288.0,0.0
-4.063013,-2.584249,8.537591,-71.190002,8.61,29.889999,1729473262308.0,0.0
-3.859623,-4.673182,8.793623,-128.100006,-2.8,31.15,1729473262326.0,0.0
-3.431308,-6.252446,8.62134,-173.389999,-14.0,30.52,1729473262345.0,0.0
-2.816352,-8.161918,7.226324,-207.270004,-25.48,21.91,1729473262366.0,0.0
-2.158326,-8.279166,5.919843,-232.259995,-26.25,10.22,1729473262387.0,0.0
-1.540978,-9.052048,7.118648,-251.860001,-17.99,-3.57,1729473262408.0,0.0
-3.651447,-7.384251,5.285746,-337.190002,-16.52,-28.139999,1729473262425.0,0.0
-4.491328,-9.533006,1.823331,-403.970001,-16.870001,-47.32,1729473262446.0,0.0
-2.124826,-11.152946,-0.952343,-440.720001,-9.03,-70.139999,1729473262528.0,0.0
0.524028,-11.765509,-0.308674,-394.309998,4.41,-69.510002,1729473262528.0,0.0
0.409173,-10.07139,1.337588,-313.600006,17.08,-60.900002,1729473262528.0,0.0
-1.495514,-9.140583,1.20359,-254.660004,19.18,-52.920002,1729473262529.0,0.0
-2.428715,-9.600004,-1.488336,-202.509995,7.56,-46.34,1729473262545.0,0.0
-1.959722,-10.226924,-3.261417,-119.279999,0.63,-34.790001,1729473262566.0,0.0
-2.074577,-11.464014,-2.529213,7.63,10.01,-20.02,1729473262589.0,0.0
-2.969493,-11.222338,-1.040878,142.380005,21.77,-7.84,1729473262606.0,0.0
-3.242275,-9.79143,-0.181855,244.020004,20.16,-1.4,1729473262626.0,0.0
-3.404987,-9.635897,0.930808,296.100006,15.33,2.8,1729473262645.0,0.0
-3.546163,-9.200402,1.586441,300.369995,11.55,-3.92,1729473262665.0,0.0
-3.689733,-8.02792,2.210968,276.220001,14.56,-4.83,1729473262686.0,0.0
-3.302095,-8.331808,2.136791,226.240005,18.34,-8.61,1729473262709.0,0.0
-2.931208,-8.819944,2.344966,159.600006,22.540001,-16.59,1729473262725.0,0.0
-2.041078,-8.214561,2.17029,120.260002,28.07,-17.85,1729473262745.0,0.0
-1.911865,-9.164511,2.79721,140.350006,34.369999,-12.32,1729473262765.0,0.0
-0.193819,-8.786445,2.974278,200.619995,33.389999,-2.8,1729473262786.0,0.0
0.241675,-7.097112,5.730811,258.649994,59.849998,0.07,1729473262806.0,0.0
0.07657,-5.362316,6.209375,258.369995,63.630001,-11.41,1729473262825.0,0.0
0.325424,-6.886543,5.9342,223.720001,55.09,-18.549999,1729473262844.0,0.0
1.143769,-8.030313,6.183054,230.020004,49.700001,-22.68,1729473262865.0,0.0
2.146362,-5.130211,8.422735,256.130005,77.279999,-26.18,1729473262886.0,0.0
0.904487,-3.134598,9.930215,196.559998,78.68,-27.58,1729473262906.0,0.0
-0.09332,-4.125226,9.109475,112.770004,54.740002,-29.82,1729473262925.0,0.0
0.681954,-4.036692,8.480164,81.269997,43.049999,-32.060001,1729473262945.0,0.0
-0.351745,-1.706082,9.700503,72.029999,42.420002,-31.780001,1729473262965.0,0.0
-1.493121,-2.952743,10.779665,23.450001,23.66,-21.280001,1729473262986.0,0.0
-3.273381,-4.955536,12.157932,-51.869999,-5.32,-32.759998,1729473263006.0,0.0
-4.98425,-5.525027,12.957134,-71.050003,-37.170002,-24.92,1729473263026.0,0.0
-3.943372,-3.797409,10.896914,-84.629997,-58.240002,-23.940001,1729473263046.0,0.0
-3.072384,-2.813959,7.238289,-116.129997,-64.82,-15.96,1729473263067.0,0.0
-4.096512,-4.364508,3.61077,-129.990005,-56.490002,-2.66,1729473263086.0,0.0
-3.649055,-4.09412,5.063213,-112.910004,5.74,-5.11,1729473263106.0,0.0
-3.440879,-4.125226,7.65464,-164.779999,30.870001,-16.799999,1729473263126.0,0.0
-5.680561,-5.694918,10.207782,-245.630005,32.060001,-28.07,1729473263145.0,0.0
-5.812167,-5.347959,9.633504,-305.76001,-3.78,-28.559999,1729473263166.0,0.0
-2.646462,-4.048656,7.197611,-320.950012,-8.05,-16.870001,1729473263187.0,0.0
-0.727418,-2.179861,-0.602991,-350.980011,9.73,8.26,1729473263207.0,0.0
-1.442872,-8.901299,-6.82433,-334.110016,1.61,22.889999,1729473263225.0,0.0
-3.902694,-12.739388,-9.693325,-279.440002,17.43,-4.48,1729473263246.0,0.0
-6.67119,-17.63271,-9.836893,-56.209999,33.599998,4.2,1729473263265.0,0.0
-3.615555,-14.802001,-6.778866,167.720001,41.09,22.540001,1729473263287.0,0.0
-0.696311,-10.080962,-1.634298,384.579987,77.699997,50.540001,1729473263309.0,0.0
-0.246461,-4.316652,6.762117,539.700012,96.459999,23.940001,1729473263326.0,0.0
-3.206382,3.917051,14.134403,498.610016,99.82,-1.75,1729473263345.0,0.0
-7.176075,1.081556,14.519648,318.779999,27.58,39.830002,1729473263365.0,0.0
-3.165704,-7.211967,9.894321,163.660004,-76.790001,30.309999,1729473263386.0,0.0
1.732404,-8.88455,7.166504,145.180008,-36.610001,32.759998,1729473263407.0,0.0
-1.210768,-1.014557,9.793823,122.919998,17.99,6.3,1729473263425.0,0.0
-2.605784,-3.658626,9.274581,-28.49,0.21,14.07,1729473263445.0,0.0
-2.347359,-3.787838,8.865408,-78.82,-0.77,-0.84,1729473263465.0,0.0
-4.512863,-4.383651,12.203396,-76.160004,-4.2,4.83,1729473263498.0,0.0
-4.828716,-3.754339,11.973685,-92.470001,-21.559999,-0.91,1729473263506.0,0.0
-3.605984,-4.962714,7.534998,-142.100006,-37.450001,0.07,1729473263525.0,0.0
-4.003192,-6.025128,2.988636,-196.979996,-34.369999,-14.7,1729473263544.0,0.0
-5.809773,-11.770294,4.881358,-148.889999,-12.95,-17.15,1729473263565.0,0.0
-4.395615,-9.719646,7.929814,-152.529999,-3.57,-33.389999,1729473263590.0,0.0
-3.562913,-5.879165,9.635897,-156.729996,9.59,-43.049999,1729473263607.0,0.0
-2.562713,-3.749553,8.506484,-163.240005,-2.24,-31.5,1729473263626.0,0.0
-0.653241,-1.658226,3.792624,-226.660004,-30.940001,-16.870001,1729473263644.0,0.0
0.409173,-2.581856,-1.849652,-294.559998,-44.240002,2.66,1729473263665.0,0.0
0.031107,-8.329416,-6.245267,-332.5,-30.030001,2.03,1729473263687.0,0.0
-1.777867,-12.457035,-8.865408,-299.73999,9.66,-9.45,1729473263710.0,0.0
-4.575077,-15.266209,-9.387043,-130.339996,50.540001,1.89,1729473263727.0,0.0
-4.031906,-15.701703,-8.317451,103.110001,42.139999,10.15,1729473263747.0,0.0
0.071785,-8.73141,-1.619941,430.98999,45.080002,41.790001,1729473263765.0,0.0
0.859023,-2.349752,7.410572,578.690002,63.91,17.710001,1729473263788.0,0.0
-2.321038,3.608376,16.290337,511.910004,79.379997,-9.03,1729473263806.0,0.0
-6.951149,0.693919,14.72543,278.600006,18.48,19.74,1729473263825.0,0.0
-3.26381,-5.501099,8.279166,91.840004,-79.660004,33.810001,1729473263844.0,0.0
1.564906,-8.472985,7.872386,60.27,-55.720001,31.92,1729473263865.0,0.0
-0.198604,-5.240282,8.587841,69.510002,-3.99,22.82,1729473263887.0,0.0
-4.220939,-3.067599,10.475778,50.470001,5.88,10.36,1729473263906.0,0.0
-4.493721,-2.981457,11.473583,5.11,-2.87,16.66,1729473263924.0,0.0
-3.773481,-3.778267,11.306087,-43.470001,-17.5,14.28,1729473263944.0,0.0
-3.471986,-5.769095,9.437292,-98.349998,-29.049999,6.93,1729473263966.0,0.0
-3.684947,-6.719046,5.644669,-176.820007,-31.57,-11.2,1729473263985.0,0.0
-5.087141,-9.016156,5.067998,-190.889999,-16.24,-21.07,1729473264006.0,0.0
-4.280759,-8.760124,5.855237,-155.190002,-2.03,-21.91,1729473264024.0,0.0
-4.285545,-7.678568,9.068797,-149.800003,11.27,-28.07,1729473264044.0,0.0
-3.333202,-5.359922,8.599805,-175.630005,-11.41,-33.599998,1729473264064.0,0.0
-0.643669,-4.534399,3.156133,-197.470001,-33.040001,-17.290001,1729473264085.0,0.0
0.799203,-5.74756,-2.201397,-227.990005,-45.009998,-2.1,1729473264106.0,0.0
-0.0335,-9.956534,-4.728218,-226.029999,-32.34,3.01,1729473264124.0,0.0
-2.033899,-11.069198,-5.541777,-175.770004,2.73,-6.37,1729473264145.0,0.0
-3.641876,-11.97847,-6.116055,-32.970001,36.75,5.81,1729473264174.0,0.0
-3.491128,-12.650853,-4.13719,111.370003,45.43,12.11,1729473264190.0,0.0
-1.770689,-11.13859,-0.638884,240.029999,29.610001,15.68,1729473264207.0,0.0
0.224925,-7.865208,3.876373,371.839996,35.139999,15.190001,1729473264224.0,0.0
-0.507278,-2.39043,8.355737,417.690002,61.599998,2.03,1729473264245.0,0.0
-3.146562,-0.021535,12.849458,356.579987,58.029999,2.24,1729473264264.0,0.0
-3.991228,-2.48375,11.942577,196.630005,1.4,21.629999,1729473264287.0,0.0
-1.596013,-5.115855,8.85823,88.410004,-34.720001,27.719999,1729473264305.0,0.0
-0.358923,-6.417551,8.590233,62.93,-15.26,21.49,1729473264324.0,0.0
-1.162912,-4.515256,8.487342,68.110001,4.34,17.08,1729473264344.0,0.0
-3.235096,-4.036692,9.872787,57.610001,10.64,21.700001,1729473264364.0,0.0
-3.799802,-4.577469,10.41835,10.29,-0.35,10.29,1729473264388.0,0.0
-4.34058,-5.094319,10.932807,-23.030001,-8.96,10.22,1729473264405.0,0.0
-3.60359,-5.871986,8.551948,-67.269997,-20.370001,4.97,1729473264425.0,0.0
-3.136991,-6.197411,5.017749,-172.759995,-30.66,-12.04,1729473264444.0,0.0
-5.194818,-8.188239,4.12044,-185.220001,-16.17,-13.3,1729473264464.0,0.0
-3.775874,-9.150154,6.312266,-148.399994,-2.52,-20.299999,1729473264485.0,0.0
-3.517449,-5.977271,9.38465,-189.139999,10.29,-30.380001,1729473264506.0,0.0
-3.17049,-3.201597,8.190632,-226.309998,-6.51,-37.170002,1729473264523.0,0.0
-2.388037,-5.206782,5.091926,-248.850006,-37.59,-13.86,1729473264544.0,0.0
-0.366102,-7.257431,0.744168,-257.880005,-53.130001,-12.67,1729473264564.0,0.0
0.191426,-9.186047,-2.859423,-232.399994,-42.91,-0.63,1729473264588.0,0.0
-0.806381,-11.624333,-3.629912,-171.360001,-12.95,-0.7,1729473264605.0,0.0
-2.486143,-11.875579,-4.223332,-91.07,15.26,-1.89,1729473264624.0,0.0
-3.52702,-12.356536,-4.498507,30.940001,31.99,2.24,1729473264644.0,0.0
-3.005385,-12.047862,-3.699304,153.160004,32.619999,-0.28,1729473264664.0,0.0
-1.249053,-10.231709,-0.641276,283.779999,26.18,4.55,1729473264685.0,0.0
-0.282353,-6.403193,3.601198,393.399994,50.119999,10.85,1729473264705.0,0.0
-1.217947,-1.820938,8.128418,443.660004,70.489998,0.07,1729473264724.0,0.0
-3.74716,0.741775,12.765708,343.279999,63.560001,0.7,1729473264744.0,0.0
-2.909672,-4.563113,10.911271,149.869995,6.02,8.33,1729473264764.0,0.0
-0.612563,-5.936593,9.133404,62.860001,-23.73,19.389999,1729473264785.0,0.0
-0.571885,-3.756732,8.946764,70.349998,6.3,20.16,1729473264804.0,0.0
-1.942972,-3.771089,8.705089,41.439999,3.08,22.33,1729473264824.0,0.0
-2.945565,-5.584848,8.236095,7.0,-0.7,23.030001,1729473264844.0,0.0
-3.227918,-6.025128,9.607183,1.33,3.43,15.12,1729473264864.0,0.0
-4.096512,-5.888737,10.839487,-13.09,1.05,10.71,1729473264885.0,0.0
-4.268795,-6.142376,8.518449,-76.230003,-17.92,-2.1,1729473264905.0,0.0
-4.977071,-6.051448,5.615955,-140.0,-17.219999,-6.51,1729473264924.0,0.0
-4.189832,-7.834101,4.201797,-159.039993,-1.33,-13.72,1729473264943.0,0.0
-3.347559,-8.123632,6.192625,-196.910004,4.34,-26.880001,1729473264964.0,0.0
-3.486342,-7.45125,8.941978,-207.339996,-4.69,-31.08,1729473264985.0,0.0
-3.574877,-5.458029,9.032906,-202.720001,-8.4,-22.82,1729473265004.0,0.0
-2.751746,-5.417351,7.331609,-194.389999,-25.76,-14.07,1729473265024.0,0.0
-0.964308,-5.151747,2.136791,-222.110001,-38.639999,-12.32,1729473265044.0,0.0
-0.339781,-6.379266,-1.409373,-227.710007,-34.439999,5.18,1729473265064.0,0.0
-1.615155,-11.483156,-3.651447,-215.25,-14.28,2.38,1729473265084.0,0.0
-3.081956,-12.863814,-4.876573,-128.589996,22.610001,-1.96,1729473265106.0,0.0
-3.797409,-14.019548,-6.860222,23.1,37.799999,0.35,1729473265123.0,0.0
-3.055635,-12.574283,-4.807181,189.070007,46.48,0.56,1729473265144.0,0.0
-1.423729,-9.205189,-0.442672,346.220001,47.18,13.58,1729473265174.0,0.0
-0.526421,-5.223531,6.379266,465.779999,63.139999,3.5,1729473265185.0,0.0
-2.146362,0.11007,11.629118,452.549988,78.540001,-10.5,1729473265205.0,0.0
-4.737789,1.909473,13.560125,303.869995,50.889999,8.89,1729473265224.0,0.0
-3.189633,-2.756532,11.794223,129.570007,-36.119999,14.49,1729473265244.0,0.0
0.378066,-6.068198,9.592826,84.07,-57.470001,34.09,1729473265264.0,0.0
-0.162712,-4.718646,9.415757,84.279999,-22.540001,40.599998,1729473265286.0,0.0
-1.562513,-4.158726,10.595419,37.59,-14.21,31.780001,1729473265305.0,0.0
-2.122434,-5.314459,9.068797,-43.82,-21.559999,21.35,1729473265323.0,0.0
-2.660819,-6.319445,8.020741,-123.059998,-22.610001,2.59,1729473265344.0,0.0
-5.627919,-5.448457,8.408379,-195.649994,-15.75,-13.37,1729473265365.0,0.0
-6.970293,-7.066005,6.707082,-198.800003,-14.63,-14.98,1729473265384.0,0.0
-4.993821,-6.702296,5.123034,-212.449997,-14.42,-19.74,1729473265406.0,0.0
-3.60359,-8.638089,6.704689,-173.460007,-30.1,-18.969999,1729473265424.0,0.0
-1.485943,-8.611769,6.149554,-97.580002,-28.630001,-8.75,1729473265443.0,0.0
-1.014557,-5.541777,5.139783,-104.160004,-12.18,-10.85,1729473265464.0,0.0
-0.741775,-3.443272,1.899901,-158.690002,-23.73,0.21,1729473265485.0,0.0
-1.76351,-6.735795,-0.421137,-211.75,-23.1,12.74,1729473265504.0,0.0
-3.041277,-11.507084,-2.672783,-237.860001,-8.96,-6.79,1729473265530.0,0.0
-2.979064,-14.256437,-3.213561,-154.770004,-10.01,-11.34,1729473265543.0,0.0
-2.433501,-12.088539,-4.658825,-20.23,23.66,3.71,1729473265566.0,0.0
-2.682354,-11.10509,-4.713861,113.120003,46.619999,0.42,1729473265589.0,0.0
-1.624727,-10.542776,-1.349552,231.490005,20.16,-6.58,1729473265606.0,0.0
1.086342,-7.190433,4.115655,359.730011,27.719999,1.4,1729473265623.0,0.0
-0.646062,-3.728018,8.671589,410.549988,74.620003,0.91,1729473265644.0,0.0
-3.369094,-0.380459,10.389636,352.029999,63.700001,-15.82,1729473265664.0,0.0
-3.960121,-2.306681,11.346765,251.720001,22.68,7.35,1729473265686.0,0.0
-0.930808,-3.436093,10.100104,148.960007,-0.21,13.93,1729473265710.0,0.0
-0.404387,-2.761317,9.667004,85.470001,9.17,21.35,1729473265724.0,0.0
-3.383451,-4.472186,9.899107,22.75,9.73,21.84,1729473265745.0,0.0
-3.59402,-5.903094,10.301102,-72.730003,-3.85,14.7,1729473265764.0,0.0
-3.182454,-6.096912,10.255639,-124.18,-10.08,5.74,1729473265787.0,0.0
-3.120241,-5.706882,8.298308,-193.970001,-18.200001,-9.17,1729473265808.0,0.0
-6.551548,-7.01097,7.211967,-273.48999,-21.91,-14.07,1729473265826.0,0.0
-6.539584,-11.667403,8.599805,-250.180008,-56.77,-25.48,1729473265845.0,0.0
-2.620141,-6.175875,11.542977,-251.369995,-44.799999,-12.04,1729473265866.0,0.0
-0.174676,-2.615355,5.005785,-204.960007,-45.849998,3.29,1729473265887.0,0.0
-0.100499,-5.015356,-4.381258,-206.220001,-57.400002,8.19,1729473265906.0,0.0
-0.89013,-8.707481,-5.613562,-232.680008,-46.34,-9.03,1729473265925.0,0.0
-2.423929,-11.030912,-6.707082,-193.339996,4.41,-2.38,1729473265948.0,0.0
-3.895515,-13.304093,-6.321837,-63.98,36.82,-7.49,1729473265967.0,0.0
-2.89053,-13.122239,-5.529813,88.410004,31.710001,-4.41,1729473265987.0,0.0
-1.158126,-10.102496,-3.402594,255.990005,51.450001,19.389999,1729473266007.0,0.0
-0.90688,-5.71406,5.989235,416.220001,80.5,22.049999,1729473266026.0,0.0
-2.361716,0.038285,12.13161,455.910004,84.07,-5.11,1729473266045.0,0.0
-5.953342,1.275374,14.988641,303.589996,71.82,4.55,1729473266066.0,0.0
-5.503492,-4.165904,11.760723,90.230003,-17.5,14.28,1729473266087.0,0.0
0.404387,-7.176075,8.240881,17.360001,-54.950001,7.49,1729473266107.0,0.0
0.449851,-5.694918,9.284152,40.740002,-5.18,20.860001,1729473266127.0,0.0
-2.285146,-3.783052,9.573684,33.880001,4.27,11.97,1729473266146.0,0.0
-3.529413,-4.718646,9.365508,-18.620001,-4.97,17.710001,1729473266167.0,0.0
-3.225525,-6.386444,9.97807,-61.810001,-14.7,7.84,1729473266187.0,0.0
-3.428915,-6.78126,10.322637,-93.660004,-20.51,-2.59,1729473266208.0,0.0
-4.407579,-5.749953,7.867601,-154.559998,-24.5,-13.37,1729473266228.0,0.0
-7.283752,-8.520842,8.066205,-199.430008,-32.970001,-15.82,1729473266252.0,0.0
-3.761517,-10.514063,9.255438,-186.270004,-57.82,-24.639999,1729473266266.0,0.0
-0.854238,-6.912865,12.473784,-179.270004,-46.48,-20.58,1729473266286.0,0.0
1.241875,-2.488536,5.886343,-152.039993,-54.110001,-2.17,1729473266306.0,0.0
0.043071,-3.196811,-2.682354,-194.809998,-71.959999,23.1,1729473266326.0,0.0
-0.902094,-6.025128,-5.343173,-222.880005,-33.25,-2.1,1729473266347.0,0.0
-5.888737,-13.390236,-6.355337,-228.410004,29.889999,-15.47,1729473266366.0,0.0
-4.520042,-14.352149,-5.230711,-31.85,6.23,-22.960001,1729473266388.0,0.0
-1.813759,-10.712667,-3.213561,151.830002,36.610001,12.88,1729473266406.0,0.0
-1.052842,-7.733603,-1.423729,301.700012,76.370003,15.61,1729473266425.0,0.0
-1.378266,-5.302495,2.48375,370.369995,79.449997,10.29,1729473266445.0,0.0
-1.947758,-3.639483,8.946764,390.459991,54.670002,8.05,1729473266465.0,0.0
-2.591427,-0.839881,13.55534,359.23999,54.529999,4.76,1729473266487.0,0.0
-5.517848,-1.672583,13.708481,249.199997,42.07,21.700001,1729473266506.0,0.0
-2.926422,-5.225924,10.58824,103.25,-19.809999,19.879999,1729473266526.0,0.0
-0.569492,-7.130611,9.851252,38.290001,-20.16,16.24,1729473266545.0,0.0
-2.837888,-4.587041,10.353743,12.18,-15.75,12.18,1729473266566.0,0.0
-4.070191,-6.549156,10.727024,3.36,-34.369999,8.89,1729473266589.0,0.0
-2.591427,-6.345766,9.77468,16.59,-39.759998,4.13,1729473266607.0,0.0
-1.588834,-4.199404,10.616954,13.37,-36.82,-3.99,1729473266627.0,0.0
-1.421337,-3.852444,9.303294,-30.24,-49.209999,-6.72,1729473266645.0,0.0
-2.09372,-5.197211,7.628319,-75.599998,-51.52,-10.78,1729473266667.0,0.0
-2.608176,-4.364508,7.4345,-98.769997,-22.26,-19.25,1729473266686.0,0.0
-2.622534,-6.046663,7.226324,-149.029999,-6.3,-29.4,1729473266711.0,0.0
-1.70369,-7.819745,8.250452,-192.220001,-25.9,-28.559999,1729473266725.0,0.0
0.717847,-6.049056,6.479764,-179.130005,-21.629999,-28.559999,1729473266745.0,0.0
0.789631,-3.0006,5.051248,-145.460007,-12.25,0.98,1729473266765.0,0.0
-1.160519,-2.62732,4.158726,-138.460007,-9.87,14.84,1729473266788.0,0.0
-3.038885,-5.955735,2.952743,-186.479996,-3.5,11.34,1729473266807.0,0.0
-4.041477,-10.346564,1.651048,-228.830002,-13.37,3.78,1729473266825.0,0.0
-5.335995,-16.197016,-0.973879,-171.570007,-31.15,-12.81,1729473266845.0,0.0
-3.893122,-19.010977,-5.498707,-1.19,-49.139999,-43.049999,1729473266865.0,0.0
-1.485943,-14.632111,-4.807181,269.149994,-14.21,-51.73,1729473266888.0,0.0
0.789631,-6.881758,0.337388,585.130005,42.279999,-39.060001,1729473266908.0,0.0
-0.909273,1.840081,7.317252,730.450012,104.019997,-22.26,1729473266924.0,0.0
-2.842674,12.026326,13.607983,590.940002,82.040001,-14.07,1729473266945.0,0.0
-0.339781,7.542177,12.370893,178.289993,9.87,18.9,1729473266965.0,0.0
0.210568,-0.68674,7.63789,-148.330002,-14.14,13.23,1729473266986.0,0.0
-1.938186,-7.080362,7.006185,-208.25,-3.92,11.2,1729473267006.0,0.0
-2.127219,-7.719246,7.757531,-59.709999,17.92,15.47,1729473267025.0,0.0
-1.536192,-3.972085,10.645668,50.049999,50.82,14.07,1729473267045.0,0.0
-1.383051,-2.18704,10.502099,-43.82,39.900002,2.45,1729473267065.0,0.0
-2.378466,-3.414558,8.188239,-187.740005,23.24,1.96,1729473267088.0,0.0
-4.058227,-4.393222,6.281159,-329.070007,17.99,-8.61,1729473267106.0,0.0
-4.493721,-6.113662,5.625526,-403.549988,6.51,-15.05,1729473267125.0,0.0
-3.56052,-7.733603,4.735396,-429.730011,-19.110001,-13.02,1729473267145.0,0.0
-1.990828,-8.427521,3.613162,-377.369995,-22.469999,3.92,1729473267165.0,0.0
-1.694118,-7.704889,2.931208,-283.920013,-3.36,22.469999,1729473267187.0,0.0
-1.933401,-6.465407,3.335595,-222.180008,-8.12,29.120001,1729473267208.0,0.0
-2.871387,-6.819544,2.553142,-218.540009,-13.65,38.220001,1729473267225.0,0.0
-3.699304,-7.546963,1.899901,-256.339996,-16.379999,28.280001,1729473267244.0,0.0
-4.424329,-7.740781,1.275374,-319.480011,-31.08,22.120001,1729473267265.0,0.0
-3.306881,-7.719246,-1.423729,-374.640015,-48.93,4.48,1729473267286.0,0.0
-2.254039,-8.298308,-4.249653,-407.610016,-53.34,14.49,1729473267306.0,0.0
-1.447658,-8.683553,-6.252446,-434.420013,-56.139999,9.17,1729473267324.0,0.0
-1.17009,-8.69791,-7.999206,-434.630005,-46.759998,-0.7,1729473267345.0,0.0
-1.545763,-8.422735,-10.619347,-397.459991,-24.219999,0.7,1729473267365.0,0.0
-1.344766,-7.329216,-12.193825,-319.549988,-16.309999,17.85,1729473267386.0,0.0
-1.301696,-8.556733,-11.351551,-245.839996,-0.28,19.460001,1729473267407.0,0.0
-1.165305,-10.260423,-11.179268,-124.040001,15.96,24.15,1729473267425.0,0.0
-1.4668,-6.886543,-9.75793,-17.290001,34.93,35.700001,1729473267445.0,0.0
-2.208575,-4.240082,-8.559127,15.33,47.740002,38.360001,1729473267519.0,0.0
-2.541178,-4.766503,-8.190632,-14.7,48.23,35.420002,1729473267519.0,0.0
-1.9669,-6.13759,-9.023334,-34.02,40.32,32.900002,1729473267519.0,0.0
-1.696511,-6.125626,-9.781858,-22.26,42.77,29.049999,1729473267525.0,0.0
-1.871187,-5.455636,-10.207782,-3.15,52.779999,21.91,1729473267545.0,0.0
-1.572084,-5.568098,-11.009377,-3.78,58.869999,15.190001,1729473267572.0,0.0
-1.852045,-7.341179,-9.820145,-4.76,68.459999,9.31,1729473267590.0,0.0
-4.929214,-3.053242,2.467,6.23,75.32,15.26,1729473267607.0,0.0
-7.077969,-5.656632,-2.914458,19.389999,45.779999,-2.59,1729473267626.0,0.0
-3.146562,-6.072984,-8.274381,-67.830002,-20.370001,1.75,1729473267645.0,0.0
-1.562513,-6.343372,-11.799009,-18.200001,-19.25,31.15,1729473267665.0,0.0
-2.56032,-5.474778,-8.729016,10.15,25.27,50.259998,1729473267687.0,0.0
-2.325824,-4.718646,-7.752745,56.84,24.290001,68.040001,1729473267717.0,0.0
-2.294717,-3.885944,-7.640282,59.5,21.98,74.059998,1729473267727.0,0.0
-2.617748,-4.369294,-7.685746,46.060001,20.370001,76.93,1729473267746.0,0.0
-2.455036,-5.347959,-7.941778,38.360001,15.12,72.239998,1729473267765.0,0.0
-2.261217,-5.369494,-7.846066,35.279999,11.27,63.560001,1729473267787.0,0.0
-2.232504,-5.431707,-7.020542,35.77,7.49,51.73,1729473267807.0,0.0
-2.720639,-4.309474,-7.367501,50.189999,0.21,39.619999,1729473267825.0,0.0
-3.529413,-5.87438,-9.640682,28.91,4.06,14.49,1729473267859.0,0.0
-2.995814,-6.652047,-8.420342,23.870001,2.73,-11.76,1729473267866.0,0.0
-2.632105,-6.802795,-6.948757,3.64,6.93,-42.349998,1729473267887.0,0.0
-2.531606,-6.448657,-6.295516,-28.49,5.67,-69.720001,1729473267911.0,0.0
-2.239682,-7.546963,-8.748159,-48.23,-2.03,-92.75,1729473267927.0,0.0
-0.380459,-8.446664,-10.760524,-31.99,-3.01,-115.150002,1729473267948.0,0.0
0.674776,-6.049056,-6.180661,0.84,6.65,-115.360001,1729473267967.0,0.0
0.425922,-5.690133,-8.149954,59.010002,24.219999,-114.449997,1729473267989.0,0.0
2.301895,-2.596212,-9.262616,119.699997,8.12,-85.120003,1729473268014.0,0.0
2.237289,-4.993821,-4.773681,142.800003,2.52,-80.989998,1729473268026.0,0.0
-1.495514,-12.289536,-8.147561,120.889999,29.049999,-88.410004,1729473268048.0,0.0
-2.591427,-7.99442,-2.65364,180.529999,12.81,-24.92,1729473268067.0,0.0
-3.151347,-8.238488,-2.376073,273.279999,-11.97,-43.82,1729473268091.0,0.0
-4.290331,-7.113862,-4.180261,154.419998,-15.12,15.05,1729473268244.0,0.0
-3.940979,-9.619147,-4.067799,40.040001,-8.68,21.210001,1729473268245.0,0.0
-3.026921,-12.382857,-3.680161,-55.09,-18.200001,2.94,1729473268363.0,0.0
-2.672783,-12.468999,-3.529413,-108.57,-0.56,-1.47,1729473268364.0,0.0
-2.900101,-13.095919,-4.460221,-68.25,6.86,-5.39,1729473268364.0,0.0
-2.452643,-11.219944,-4.82393,-18.83,4.76,-5.39,1729473268364.0,0.0
-0.842274,-4.756931,-4.4674,-14.07,1.19,5.18,1729473268364.0,0.0
-0.789631,-2.861816,-4.141976,-140.350006,4.34,12.46,1729473268365.0,0.0
-2.048256,-9.939785,-4.431508,-318.079987,13.65,23.030001,1729473268365.0,0.0
0.540778,-9.020942,-7.786245,-205.520004,-32.759998,29.960001,1729473268365.0,0.0
1.634298,-2.184647,-7.776673,-46.549999,-51.450001,69.230003,1729473268365.0,0.0
0.899701,-0.806381,-10.214959,-48.93,-33.110001,77.489998,1729473268365.0,0.0
-1.926222,-4.867002,-10.564312,-84.489998,8.26,83.860001,1729473268366.0,0.0
-0.550349,-5.268995,-10.889735,-51.939999,-7.98,91.840004,1729473268386.0,0.0
0.031107,-4.165904,-10.839487,-17.5,-3.85,87.43,1729473268408.0,0.0
-1.641476,-6.793223,-8.867801,-9.38,27.16,56.700001,1729473268428.0,0.0
-1.268196,-6.668797,-9.700503,23.379999,16.24,27.58,1729473268446.0,0.0
-1.454836,-6.541977,-8.626125,62.790001,24.92,-1.61,1729473268467.0,0.0
-1.773082,-6.812366,-7.67139,75.18,31.5,-22.889999,1729473268487.0,0.0
-0.713061,-5.761917,-7.975278,74.199997,13.93,-42.700001,1729473268507.0,0.0
0.071785,-4.945964,-6.819544,17.99,9.66,-70.349998,1729473268526.0,0.0
-0.145962,-6.238089,-6.601797,-47.459999,21.210001,-87.639999,1729473268548.0,0.0
-0.153141,-7.707282,-8.075776,-53.760002,-1.54,-80.989998,1729473268568.0,0.0
-0.624527,-8.360522,-7.867601,-21.700001,6.09,-74.340004,1729473268591.0,0.0
-1.136591,-5.623133,-5.414958,42.700001,18.27,-57.68,1729473268609.0,0.0
-3.479164,-5.919843,-1.744368,116.129997,18.549999,-7.28,1729473268627.0,0.0
-6.202196,-10.023535,-4.821537,74.269997,-5.39,3.43,1729473268646.0,0.0
-6.190232,-9.990034,-5.304887,21.49,-19.18,28.07,1729473268667.0,0.0
-5.194818,-7.913064,-4.749753,-30.799999,-23.1,36.470001,1729473268687.0,0.0
-4.307081,-8.846266,-5.398208,-66.5,-30.870001,41.720001,1729473268709.0,0.0
-3.211168,-9.556933,-7.006185,-59.010002,-41.23,29.26,1729473268727.0,0.0
-1.823331,-5.56092,-8.752945,-50.119999,-39.34,31.710001,1729473268748.0,0.0
0.083749,-0.272782,-10.13839,-112.0,-37.799999,49.0,1729473268766.0,0.0
0.674776,-4.838287,-10.537991,-162.470001,-31.710001,43.75,1729473268789.0,0.0
0.854238,-10.664811,-9.523434,-73.010002,-12.88,40.18,1729473268807.0,0.0
0.866202,-6.111269,-10.15514,4.27,-6.86,41.23,1729473268829.0,0.0
-0.358923,-4.618148,-10.334601,26.880001,10.57,43.959999,1729473268846.0,0.0
-1.68694,-6.664011,-9.686146,40.529999,28.0,38.849998,1729473268867.0,0.0
-2.127219,-7.752745,-10.052249,48.23,26.880001,19.460001,1729473268887.0,0.0
-2.495714,-8.889337,-10.923235,63.420002,30.1,-4.83,1729473268907.0,0.0
-3.278167,-8.441878,-12.543176,146.860001,50.189999,-22.960001,1729473268927.0,0.0
-2.598605,-5.65424,-8.286345,211.119995,58.73,-45.080002,1729473268948.0,0.0
-1.323231,-3.194418,0.902094,163.380005,42.07,-64.610001,1729473268967.0,0.0
-1.385444,-7.558927,-4.613362,-26.32,-9.31,-119.0,1729473268987.0,0.0
-0.746561,-10.516455,-9.315259,-18.34,-28.35,-138.600006,1729473269007.0,0.0
-0.617348,-9.750752,-6.987042,82.32,-44.170002,-133.070007,1729473269027.0,0.0
0.172283,-9.092726,-9.743573,206.149994,-40.040001,-106.82,1729473269048.0,0.0
0.98345,-5.448457,-6.948757,226.240005,-30.59,-77.910004,1729473269066.0,0.0
0.172283,-2.919244,-6.635297,202.089996,24.360001,-41.650002,1729473269087.0,0.0
-0.746561,-4.462614,-3.744767,186.690002,52.709999,15.82,1729473269109.0,0.0
-1.09352,-6.084948,0.574277,122.150002,62.09,27.23,1729473269128.0,0.0
-3.565305,-8.310273,3.694518,-6.44,72.590004,20.65,1729473269149.0,0.0
-4.919643,-9.640682,0.421137,-134.119995,51.73,1.75,1729473269167.0,0.0
-4.273581,-11.633904,-4.548756,-125.440002,-29.82,16.59,1729473269187.0,0.0
-1.730011,-10.703095,-6.625726,-47.880001,-67.970001,23.73,1729473269207.0,0.0
-0.59342,-8.922836,-6.252446,67.199997,-34.299999,41.439999,1729473269228.0,0.0
-1.402194,-8.573483,-5.123034,120.400002,16.940001,50.540001,1729473269246.0,0.0
-2.376073,-9.078369,-3.26381,67.269997,43.330002,44.380001,1729473269266.0,0.0
-2.196611,-9.975677,-2.59382,-38.360001,22.26,24.780001,1729473269287.0,0.0
-0.701097,-10.408779,-3.218346,-144.550003,-18.690001,4.97,1729473269307.0,0.0
-1.136591,-8.346166,-5.623133,-241.290009,-5.88,-14.28,1729473269328.0,0.0
-0.863809,-6.532406,-4.235296,-325.079987,13.23,-43.540001,1729473269345.0,0.0
-1.801795,-7.910671,-7.578069,-313.179993,3.64,-12.04,1729473269366.0,0.0
0.875773,-4.453043,-8.748159,-251.860001,-23.379999,-11.55,1729473269387.0,0.0
1.552942,-2.885744,-10.514063,-144.550003,-9.24,31.5,1729473269406.0,0.0
-1.153341,-7.130611,-5.259424,-2.87,2.87,76.93,1729473269426.0,0.0
-2.498107,-6.52762,-3.931407,31.85,15.82,54.25,1729473269445.0,0.0
-2.852244,-3.684947,-4.809574,-36.470001,-15.190001,66.360001,1729473269466.0,0.0
-2.009971,-4.034299,-6.920043,-62.299999,-46.130001,75.25,1729473269487.0,0.0
-0.658026,-6.362515,-11.286944,-10.08,-60.41,70.699997,1729473269507.0,0.0
-0.547956,-5.374279,-11.705689,-15.54,-42.0,58.799999,1729473269525.0,0.0
-0.856631,-6.867401,-11.016556,-0.14,-19.460001,35.209999,1729473269553.0,0.0
-1.074377,-5.960521,-11.129018,21.77,-10.85,14.91,1729473269566.0,0.0
-1.06002,-4.486543,-12.626925,31.92,-0.42,-10.29,1729473269595.0,0.0
-0.667598,-3.553342,-12.866207,43.470001,18.620001,-35.98,1729473269615.0,0.0
0.784846,-2.48375,-9.21476,58.310001,37.869999,-53.970001,1729473269626.0,0.0
2.029114,-5.06082,-7.106683,12.95,36.259998,-66.010002,1729473269646.0,0.0
0.799203,-10.707881,-9.944571,-119.770004,32.759998,-123.550003,1729473269667.0,0.0
-1.933401,-14.871392,-9.559326,-86.519997,51.52,-128.309998,1729473269687.0,0.0
-2.672783,-10.435099,-5.852845,41.860001,47.810001,-117.809998,1729473269711.0,0.0
-2.859423,-6.999006,-4.706682,160.440002,24.219999,-91.980003,1729473269728.0,0.0
-1.940579,-2.600998,-3.038885,114.520004,4.55,-61.459999,1729473269747.0,0.0
-2.615355,-5.012963,-4.331009,34.580002,-1.12,-26.880001,1729473269767.0,0.0
-3.15374,-8.221739,-4.721039,-35.84,6.86,-3.15,1729473269789.0,0.0
-3.565305,-10.265208,-6.369694,-60.060001,-2.59,10.85,1729473269808.0,0.0
-3.802195,-9.88475,-6.613762,-58.310001,-10.85,18.41,1729473269828.0,0.0
-3.620341,-8.202596,-6.022735,-46.619999,-19.32,29.26,1729473269847.0,0.0
-3.902694,-7.704889,-5.297709,-25.620001,-40.18,33.810001,1729473269868.0,0.0
-1.586441,-4.945964,-9.667004,-16.450001,-67.480003,24.360001,1729473269889.0,0.0
0.332602,-2.924029,-13.189239,-5.88,-74.690002,33.040001,1729473269909.0,0.0
-0.681954,-6.582655,-9.171689,1.47,-26.460001,37.52,1729473269928.0,0.0
0.658026,-0.971486,-10.920842,25.620001,-17.710001,45.990002,1729473269947.0,0.0
1.430908,-4.232903,-8.671589,44.240002,-15.4,54.670002,1729473269970.0,0.0
0.832702,-4.187439,-7.905886,51.450001,-1.19,41.369999,1729473269988.0,0.0
0.557528,-4.742575,-11.353944,53.27,0.77,18.27,1729473270008.0,0.0
1.684547,-6.388836,-12.124433,73.220001,3.71,-6.65,1729473270027.0,0.0
0.557528,-7.587641,-4.910072,148.050003,36.189999,-5.95,1729473270049.0,0.0
0.59342,-5.613562,-6.381658,195.160004,31.92,-32.34,1729473270067.0,0.0
1.055235,-6.836295,-6.82433,239.610001,8.33,-39.549999,1729473270090.0,0.0
0.392423,-6.250053,-5.393422,128.240005,17.99,-62.23,1729473270110.0,0.0
-1.22034,-8.580662,-3.555735,79.519997,24.99,-46.200001,1729473270127.0,0.0
-2.562713,-9.80818,-2.98385,138.600006,2.59,-29.049999,1729473270147.0,0.0
-3.488736,-10.851451,-2.732604,205.169998,0.98,-9.73,1729473270167.0,0.0
-3.34038,-9.927821,-3.065206,193.899994,-14.7,-4.55,1729473270188.0,0.0
-3.342773,-9.595219,-2.065006,106.75,-17.43,-9.31,1729473270209.0,0.0
-4.024727,-10.246067,-1.234696,-41.720001,7.35,-25.48,1729473270227.0,0.0
-4.649254,-11.760723,-1.51705,-157.430008,20.02,-46.549999,1729473270246.0,0.0
-4.082155,-11.22473,-2.859423,-191.449997,-8.96,-48.369999,1729473270269.0,0.0
-2.354537,-7.817351,-2.56032,-190.539993,-28.07,-42.07,1729473270288.0,0.0
-1.062413,-3.617948,-3.797409,-209.369995,-38.920002,-19.460001,1729473270309.0,0.0
-1.289732,-4.240082,-5.134997,-208.600006,-48.650002,13.02,1729473270331.0,0.0
-2.371287,-8.88455,-9.281759,-127.400002,-38.920002,25.83,1729473270348.0,0.0
0.20339,-5.163712,-8.073383,-65.940002,-55.860001,14.49,1729473270369.0,0.0
0.557528,-3.534199,-10.420743,-34.93,-57.889999,70.489998,1729473270389.0,0.0
1.301696,-4.498507,-11.24866,-70.489998,-17.92,42.349998,1729473270409.0,0.0
0.538385,-6.022735,-10.164711,-38.360001,9.94,56.349998,1729473270427.0,0.0
0.715454,-4.807181,-8.937192,8.33,13.16,71.050003,1729473270447.0,0.0
0.138784,-4.835894,-8.29113,-8.75,22.4,59.290001,1729473270468.0,0.0
-0.658026,-6.235696,-8.140383,-38.220001,22.610001,49.700001,1729473270489.0,0.0
-0.76331,-8.671589,-7.429714,-5.95,18.129999,31.710001,1729473270508.0,0.0
-1.371087,-8.200203,-9.018548,65.590004,15.96,14.84,1729473270527.0,0.0
-1.923829,-6.881758,-11.236694,147.279999,24.360001,-2.8,1729473270548.0,0.0
-1.998007,-6.879365,-8.334201,214.970001,35.560001,-6.79,1729473270568.0,0.0
0.401994,-5.752346,-4.996214,239.399994,18.76,-17.219999,1729473270591.0,0.0
1.85683,-6.520442,-4.587041,185.009995,-19.530001,-29.82,1729473270609.0,0.0
0.619741,-9.308081,-2.739782,81.340004,-2.38,-48.93,1729473270626.0,0.0
-1.351945,-10.24846,-3.574877,-24.43,39.27,-68.669998,1729473270646.0,0.0
-2.991028,-13.51227,-4.201797,-8.47,31.08,-64.120003,1729473270667.0,0.0
-1.981257,-8.803195,-4.067799,35.91,-13.93,-33.389999,1729473270688.0,0.0
-1.624727,-7.482357,-2.35693,142.800003,-27.719999,-0.84,1729473270709.0,0.0
-2.019542,-7.238289,-1.311267,130.270004,-0.98,-8.33,1729473270726.0,0.0
-3.63709,-9.040084,-2.29711,45.779999,19.040001,0.63,1729473270748.0,0.0
-4.283153,-11.612368,-2.665605,-39.970001,2.31,-0.77,1729473270768.0,0.0
-3.5007,-11.854043,-2.347359,-123.410004,-11.48,-17.92,1729473270788.0,0.0
-2.955136,-11.492726,-2.160719,-172.059998,-13.440001,-28.77,1729473270809.0,0.0
-2.445465,-10.470992,-2.952743,-170.589996,-26.74,-41.09,1729473270828.0,0.0
-1.639083,-6.642475,-3.541377,-161.419998,-48.439999,-42.209999,1729473270848.0,0.0
-0.562313,-2.59382,-5.314459,-165.619995,-61.810001,-22.610001,1729473270869.0,0.0
0.040678,0.457029,-8.719445,-192.360001,-72.169998,15.190001,1729473270888.0,0.0
-0.976272,-4.768896,-12.354142,-220.220001,-35.349998,12.53,1729473270909.0,0.0
0.16989,-8.063812,-9.934999,-141.539993,-30.73,26.040001,1729473270929.0,0.0
0.57667,-2.749353,-8.700303,28.35,-15.4,57.889999,1729473270949.0,0.0
-1.378266,-2.053042,-7.984849,19.530001,11.9,60.200001,1729473270967.0,0.0
-1.603191,-4.110869,-8.989835,-57.68,7.7,53.48,1729473270989.0,0.0
-0.619741,-7.188039,-9.296116,-64.330002,0.21,58.170002,1729473271009.0,0.0
-0.210568,-7.489535,-9.619147,-20.790001,6.3,50.470001,1729473271028.0,0.0
-1.179662,-6.843473,-9.008978,20.719999,19.6,42.209999,1729473271049.0,0.0
-1.78026,-7.281359,-9.920642,46.060001,23.1,26.32,1729473271067.0,0.0
-1.804188,-7.039684,-15.89552,93.309998,33.950001,7.84,1729473271089.0,0.0
-2.048256,-8.178668,-11.05484,177.380005,69.090004,-1.19,1729473271109.0,0.0
-0.693919,-6.738188,-4.362115,190.259995,78.260002,-15.33,1729473271128.0,0.0
2.124826,-4.828716,-1.351945,139.020004,41.369999,-43.889999,1729473271149.0,0.0
3.881158,-6.046663,-3.23031,70.349998,16.450001,-75.18,1729473271167.0,0.0
1.356731,-5.891129,-7.463214,-26.950001,25.690001,-82.739998,1729473271188.0,0.0
-2.514857,-13.730016,-5.56092,49.349998,57.049999,-76.160004,1729473271209.0,0.0
-2.428715,-11.947363,-3.376273,100.940002,20.440001,-79.730003,1729473271228.0,0.0
-1.545763,-6.742974,-2.981457,182.630005,-29.120001,-54.670002,1729473271247.0,0.0
-2.24686,-4.402793,-2.734996,166.320007,-44.73,-42.209999,1729473271268.0,0.0
-3.175276,-7.302894,-4.118048,105.769997,-21.91,4.9,1729473271289.0,0.0
-4.412365,-10.267602,-2.072184,32.41,-10.36,19.530001,1729473271310.0,0.0
-5.407779,-12.179466,-4.649254,-40.18,21.49,16.379999,1729473271328.0,0.0
-4.225725,-13.083955,-4.850252,-67.900002,-12.39,13.23,1729473271347.0,0.0
-2.29711,-13.081561,-3.407379,-38.709999,-30.1,9.45,1729473271367.0,0.0
-2.206182,-12.602997,-2.749353,-0.35,-18.549999,-4.9,1729473271387.0,0.0
-2.63689,-9.944571,-3.134598,-27.790001,-5.53,-25.690001,1729473271410.0,0.0
-1.639083,-3.342773,-1.124627,-183.190002,-21.210001,-36.049999,1729473271426.0,0.0
-0.074178,3.259024,-2.737389,-375.690002,-44.66,-18.83,1729473271447.0,0.0
0.794417,2.600998,-11.162518,-444.429993,-76.440002,4.06,1729473271468.0,0.0
0.588634,-7.769495,-12.626925,-225.889999,-50.68,62.09,1729473271489.0,0.0
3.988836,-6.546762,-13.265808,-23.52,-57.889999,68.32,1729473271509.0,0.0
2.050649,0.342174,-11.77508,-13.51,-10.08,98.279999,1729473271526.0,0.0
-0.758525,-4.953143,-9.803394,-28.77,18.9,78.260002,1729473271547.0,0.0
0.038285,-6.352944,-8.573483,-41.369999,2.24,68.389999,1729473271568.0,0.0
-1.488336,-8.477771,-7.913064,-42.560001,7.21,48.580002,1729473271591.0,0.0
-1.926222,-7.341179,-7.357929,-1.96,1.05,21.84,1729473271608.0,0.0
-3.335595,-4.890929,-8.200203,25.549999,5.81,13.93,1729473271626.0,0.0
-3.845266,-4.551149,-8.580662,-11.9,8.54,11.62,1729473271654.0,0.0
-2.770889,-7.496714,-8.946764,-47.950001,5.39,15.75,1729473271666.0,0.0
-1.459622,-8.630912,-9.186047,-40.040001,7.07,15.61,1729473271688.0,0.0
-1.861616,-7.542177,-9.32483,-6.37,20.09,13.72,1729473271710.0,0.0
-1.938186,-6.575477,-8.688338,3.08,24.5,10.08,1729473271727.0,0.0
-1.385444,-6.199803,-8.451449,5.6,15.33,10.01,1729473271747.0,0.0
-1.792224,-6.202196,-7.101898,21.210001,15.190001,7.77,1729473271769.0,0.0
-2.340181,-5.254639,-5.711668,53.760002,6.02,15.47,1729473271789.0,0.0
-2.648855,-3.87398,-5.687739,67.340004,-10.71,24.780001,1729473271809.0,0.0
-2.502892,-3.744767,-7.814958,53.34,-30.450001,35.0,1729473271827.0,0.0
-2.440679,-4.419543,-9.60479,31.15,-36.259998,43.68,1729473271848.0,0.0
-2.28036,-6.013163,-9.482756,27.51,-29.82,42.07,1729473271868.0,0.0
-2.218147,-6.333801,-9.968499,46.970001,-23.17,39.900002,1729473271888.0,0.0
-2.507678,-5.883951,-10.573883,58.029999,-10.5,29.190001,1729473271907.0,0.0
-1.785046,-6.345766,-11.389835,78.120003,7.98,-3.08,1729473271930.0,0.0
-0.311067,-5.886343,-10.152746,102.690002,16.870001,-26.25,1729473271950.0,0.0
0.459422,-3.87398,-5.20439,63.84,27.23,-49.630001,1729473271969.0,0.0
-0.392423,-5.398208,-4.036692,-10.78,39.34,-84.349998,1729473271990.0,0.0
-0.299103,-7.343572,-8.836694,-22.540001,30.17,-103.389999,1729473272008.0,0.0
1.258625,-7.267002,-9.858429,58.66,6.09,-96.459999,1729473272027.0,0.0
1.892723,-6.915257,-7.829315,125.160004,18.76,-90.019997,1729473272048.0,0.0
2.852244,-5.402994,-9.387043,160.440002,22.540001,-95.760002,1729473272068.0,0.0
1.830509,-4.287938,-5.795416,191.729996,22.540001,-62.439999,1729473272091.0,0.0
-0.72024,-5.970093,-3.929015,241.710007,44.869999,-38.360001,1729473272109.0,0.0
-4.010371,-6.350551,0.124427,210.699997,72.660004,-28.700001,1729473272129.0,0.0
-8.070991,-8.944371,4.685147,211.539993,74.550003,12.67,1729473272148.0,0.0
-7.111469,-11.964113,-1.847259,180.880005,-13.72,-4.9,1729473272168.0,0.0
-1.89033,-11.748759,-2.524428,101.57,-81.129997,-1.89,1729473272190.0,0.0
-0.882952,-11.014162,-3.974478,48.369999,-57.889999,0.77,1729473272210.0,0.0
-1.871187,-9.690931,-3.239882,11.83,10.29,7.91,1729473272230.0,0.0
-3.39063,-8.985049,-1.495514,2.1,54.810001,26.18,1729473272250.0,0.0
-3.723232,-8.865408,-1.61037,-6.93,29.4,34.369999,1729473272270.0,0.0
-2.151148,-8.171489,-2.730211,-54.950001,-26.32,30.870001,1729473272289.0,0.0
-0.447458,-7.140182,-3.57727,-134.889999,-56.420002,31.92,1729473272309.0,0.0
0.416351,-7.448857,-5.974878,-191.169998,-56.0,26.530001,1729473272328.0,0.0
0.392423,-7.860423,-7.60439,-233.449997,-47.810001,24.780001,1729473272348.0,0.0
1.09352,-6.429514,-7.578069,-294.980011,-30.940001,-1.12,1729473272372.0,0.0
2.9671,0.9667,-8.54477,-449.049988,-17.360001,-33.599998,1729473272389.0,0.0
2.510071,-1.103091,-14.438292,-623.419983,15.61,-32.48,1729473272410.0,0.0
3.304488,-12.459428,-18.101704,-548.450012,4.97,-16.379999,1729473272429.0,0.0
4.87418,-12.193825,-14.534004,-173.529999,12.67,31.639999,1729473272448.0,0.0
0.952343,-7.709675,-5.690133,132.720001,77.209999,6.37,1729473272529.0,0.0
-6.709475,-7.223931,3.127419,151.410004,86.099998,-3.64,1729473272534.0,0.0
-8.123632,-4.754539,-1.706082,12.25,21.559999,-30.940001,1729473272535.0,0.0
0.272782,-6.85783,-12.457035,-90.510002,-74.830002,-32.900002,1729473272539.0,0.0
1.330409,-5.745167,-16.816757,-80.919998,-52.5,-35.0,1729473272548.0,0.0
-2.411965,-2.940779,-12.825529,3.29,12.25,-10.22,1729473272568.0,0.0
-3.754339,-2.754139,-9.422935,45.709999,18.27,4.27,1729473272592.0,0.0
-1.371087,-4.275974,-7.9681,44.73,-3.64,10.36,1729473272611.0,0.0
-0.397209,-3.464807,-8.970692,27.65,-8.26,8.75,1729473272628.0,0.0
-1.036092,-4.235296,-8.415558,10.43,-8.26,6.72,1729473272648.0,0.0
-1.457229,-4.773681,-7.446464,25.969999,-5.25,9.59,1729473272669.0,0.0
-1.387837,-4.15394,-7.542177,37.450001,-8.05,2.52,1729473272689.0,0.0
-0.696311,-5.379066,-7.534998,68.18,-28.700001,5.25,1729473272710.0,0.0
-1.569692,-5.35753,-8.243275,103.18,-27.09,-4.27,1729473272732.0,0.0
-2.105684,-3.538985,-9.458827,135.029999,-20.860001,-5.95,1729473272748.0,0.0
-1.426122,-3.139383,-9.126225,123.620003,-31.15,-4.9,1729473272768.0,0.0
-1.368695,-4.405186,-7.925028,79.519997,-23.73,-15.05,1729473272789.0,0.0
-1.526621,-4.728218,-6.575477,44.029999,-21.280001,-19.460001,1729473272809.0,0.0
-1.622334,-3.376273,-5.860023,12.95,-28.98,-18.549999,1729473272828.0,0.0
-2.239682,-4.900501,-6.324231,-26.18,-41.650002,-12.88,1729473272848.0,0.0
-2.833102,-6.240481,-8.161918,-76.370003,-44.450001,-18.969999,1729473272868.0,0.0
-3.014957,-4.893322,-9.868,-85.82,-45.920002,-19.25,1729473272889.0,0.0
-1.98365,-5.151747,-10.449455,-97.019997,-37.799999,-26.040001,1729473272909.0,0.0
-1.205983,-6.281159,-10.497313,-68.32,-30.17,-20.58,1729473272928.0,0.0
-1.146162,-6.465407,-9.504292,-15.26,-21.629999,-20.440001,1729473272948.0,0.0
-1.222732,-4.902894,-9.044869,21.91,-19.18,-21.700001,1729473272968.0,0.0
-1.344766,-4.326223,-8.295916,6.72,-16.52,-24.219999,1729473272989.0,0.0
-1.143769,-5.47717,-8.063812,-39.689999,-16.030001,-30.309999,1729473273010.0,0.0
-1.06002,-6.273981,-8.166703,-52.709999,-17.99,-34.02,1729473273028.0,0.0
-1.229911,-5.965307,-8.343772,-39.48,-19.389999,-37.869999,1729473273048.0,0.0
-1.564906,-5.79063,-8.49452,-30.380001,-19.6,-39.200001,1729473273070.0,0.0
-1.631905,-5.848059,-8.599805,-34.23,-19.809999,-41.23,1729473273089.0,0.0
-1.639083,-6.108876,-8.970692,-45.080002,-18.690001,-43.68,1729473273109.0,0.0
-1.643869,-6.26441,-9.437292,-45.080002,-14.98,-44.869999,1729473273128.0,0.0
-1.624727,-5.98445,-9.432507,-32.900002,-10.29,-45.43,1729473273149.0,0.0
-1.895115,-5.941379,-9.597611,-19.32,-5.32,-43.959999,1729473273168.0,0.0
-2.85703,-3.902694,-7.453642,-15.82,-0.35,-45.290001,1729473273190.0,0.0
-4.04387,-5.020142,-7.836494,-31.360001,1.4,-41.720001,1729473273211.0,0.0
-2.880959,-5.252246,-8.760124,-28.700001,-11.62,-40.389999,1729473273228.0,0.0
-2.581856,-4.103691,-9.296116,-5.25,-12.25,-38.080002,1729473273249.0,0.0
-2.806781,-3.893122,-9.212367,-0.49,-7.84,-32.970001,1729473273270.0,0.0
-1.727618,-3.225525,-9.777073,20.23,-8.47,-24.08,1729473273289.0,0.0
-0.765703,-1.811367,-9.504292,50.959999,-4.76,-7.98,1729473273309.0,0.0
-0.241675,-1.052842,-8.985049,54.32,1.12,10.43,1729473273328.0,0.0
0.088534,-0.952343,-8.611769,31.780001,5.67,25.129999,1729473273348.0,0.0
0.303888,-2.392823,-8.645268,0.77,7.28,33.32,1729473273367.0,0.0
0.071785,-4.039084,-9.099905,-13.72,8.33,33.670002,1729473273389.0,0.0
0.004786,-5.623133,-9.671788,0.28,6.93,30.450001,1729473273409.0,0.0
-0.210568,-5.881558,-10.786844,18.27,12.6,19.950001,1729473273430.0,0.0
-0.641276,-6.273981,-10.059426,30.17,19.530001,11.97,1729473273449.0,0.0
-2.019542,-6.76451,-7.623533,17.710001,26.32,-1.33,1729473273470.0,0.0
-2.478964,-7.269395,-8.463413,-4.69,21.139999,-16.450001,1729473273490.0,0.0
-2.18704,-7.04447,-8.496914,-4.2,15.96,-22.4,1729473273508.0,0.0
-2.974278,-5.91745,-6.951149,4.2,14.63,-26.880001,1729473273527.0,0.0
-3.328416,-5.362316,-7.453642,-9.1,5.32,-33.32,1729473273547.0,0.0
-2.914458,-4.517649,-8.575876,0.14,-1.33,-30.24,1729473273567.0,0.0
-2.811567,-4.342973,-9.233903,12.95,-1.33,-21.210001,1729473273592.0,0.0
-2.048256,-3.4672,-8.781659,35.84,0.63,-7.0,1729473273609.0,0.0
-1.619941,-3.397808,-8.60459,42.84,2.17,4.06,1729473273627.0,0.0
-1.09352,-4.371687,-9.420543,43.82,2.24,9.59,1729473273648.0,0.0
-0.105284,-3.943372,-8.341379,83.090004,-0.42,21.77,1729473273668.0,0.0
-0.248854,-0.947558,-7.389036,89.599998,3.99,23.799999,1729473273688.0,0.0
0.026321,-1.842474,-7.726424,19.32,-1.19,28.210001,1729473273712.0,0.0
0.222532,-4.630112,-8.099705,-33.459999,-4.69,27.16,1729473273727.0,0.0
-0.538385,-6.939186,-8.937192,-28.91,-3.29,19.6,1729473273747.0,0.0
-1.131805,-7.719246,-9.54497,-15.96,-0.28,3.36,1729473273769.0,0.0
-1.014557,-6.831509,-9.60479,5.46,2.52,-8.26,1729473273788.0,0.0
-1.337588,-7.039684,-9.169296,1.89,7.56,-18.27,1729473273809.0,0.0
-1.667797,-7.668997,-8.561519,-0.14,9.87,-24.219999,1729473273827.0,0.0
-2.038685,-7.37468,-8.087741,4.55,10.29,-28.700001,1729473273848.0,0.0
-2.189433,-6.881758,-7.312466,7.07,7.56,-28.49,1729473273868.0,0.0
-2.62732,-6.233303,-6.946364,5.67,3.08,-24.360001,1729473273888.0,0.0
-2.691926,-6.30748,-7.264609,-9.52,-2.1,-23.870001,1729473273908.0,0.0
-2.428715,-5.472386,-7.436893,-4.9,-6.02,-15.61,1729473273930.0,0.0
-2.175076,-5.816952,-7.690532,-4.13,-7.91,-10.78,1729473273947.0,0.0
-1.689333,-5.723632,-8.29113,3.43,-6.93,-3.99,1729473273968.0,0.0
-1.28016,-4.577469,-8.152347,17.290001,-3.92,3.64,1729473273988.0,0.0
-1.258625,-3.924229,-8.530413,20.440001,0.56,11.76,1729473274009.0,0.0
-0.287139,-3.041277,-8.305488,38.290001,-0.35,22.82,1729473274028.0,0.0
0.294317,-1.990828,-8.348558,36.959999,0.84,27.370001,1729473274047.0,0.0
0.102891,-2.667997,-8.465806,4.62,1.96,32.830002,1729473274068.0,0.0
-0.409173,-4.776074,-8.587841,-32.970001,3.71,29.540001,1729473274089.0,0.0
-1.048056,-6.635297,-9.427721,-44.310001,4.55,23.17,1729473274110.0,0.0
-1.004985,-7.558927,-9.638289,-28.559999,7.7,14.7,1729473274129.0,0.0
-1.021735,-7.606783,-7.865208,-3.36,11.2,4.83,1729473274149.0,0.0
-1.866402,-7.848458,-8.425128,-4.41,10.57,-9.17,1729473274167.0,0.0
-1.835295,-7.779066,-8.006385,-14.7,6.3,-18.620001,1729473274188.0,0.0
-1.964507,-7.592427,-8.039884,-12.32,3.99,-25.200001,1729473274209.0,0.0
-1.957329,-5.996413,-7.142576,2.31,3.01,-21.42,1729473274227.0,0.0
-2.952743,-5.611169,-6.276374,-13.58,0.84,-16.66,1729473274249.0,0.0
-3.773481,-6.625726,-7.281359,-36.889999,-4.97,-16.59,1729473274267.0,0.0
-2.727818,-6.130411,-7.980063,-19.040001,-15.61,-9.31,1729473274290.0,0.0
-2.232504,-5.331209,-8.633304,7.7,-15.82,-4.41,1729473274309.0,0.0
-1.574477,-4.529613,-9.274581,24.15,-12.6,2.52,1729473274328.0,0.0
-0.66999,-3.285345,-9.693325,33.880001,-7.56,10.99,1729473274347.0,0.0
0.20339,-2.301895,-9.23151,44.099998,-0.77,21.42,1729473274367.0,0.0
0.66999,-1.337588,-8.796017,49.98,4.9,32.830002,1729473274388.0,0.0
0.248854,-1.916651,-7.927422,23.24,10.01,39.34,1729473274410.0,0.0
-0.602991,-4.280759,-8.432307,-25.059999,12.6,36.68,1729473274428.0,0.0
-0.358923,-6.845865,-9.21476,-45.080002,9.17,27.93,1729473274447.0,0.0
-0.315853,-7.503892,-10.171888,-26.25,12.46,16.24,1729473274469.0,0.0
-1.038485,-6.881758,-8.441878,-2.38,22.4,7.42,1729473274488.0,0.0
-1.385444,-8.252845,-8.614161,-16.59,19.6,-8.05,1729473274508.0,0.0
-1.586441,-7.176075,-7.951349,-11.41,17.290001,-13.51,1729473274533.0,0.0
-2.383251,-6.977471,-7.092326,-8.4,15.96,-18.76,1729473274548.0,0.0
-4.034299,-6.592227,-6.659225,-14.07,11.34,-18.620001,1729473274569.0,0.0
-4.113262,-6.726225,-8.913264,-37.799999,2.8,-25.76,1729473274593.0,0.0
-3.129812,-5.809773,-10.30828,-12.88,-0.42,-19.879999,1729473274611.0,0.0
-2.660819,-3.938586,-9.79143,23.870001,11.13,-13.09,1729473274628.0,0.0
-1.392623,-4.168297,-9.219545,28.559999,18.48,5.46,1729473274647.0,0.0
-0.526421,-4.431508,-8.178668,32.549999,23.66,21.35,1729473274667.0,0.0
-0.18664,-4.185047,-6.185446,47.670002,24.290001,28.139999,1729473274689.0,0.0
0.653241,-3.828516,-5.63749,59.639999,11.9,31.710001,1729473274709.0,0.0
1.289732,-2.799603,-5.474778,54.459999,-2.17,31.01,1729473274728.0,0.0
0.722632,-2.385644,-6.305088,15.54,-7.98,29.26,1729473274748.0,0.0
-0.167498,-5.812167,-8.616554,-63.700001,-14.98,17.15,1729473274769.0,0.0
-0.136391,-8.669197,-10.368099,-77.419998,-14.28,0.91,1729473274788.0,0.0
-0.586242,-7.652246,-10.91845,-30.52,-3.85,-13.3,1729473274811.0,0.0
-1.282553,-6.52762,-9.652647,14.56,12.25,-24.85,1729473274829.0,0.0
-2.163112,-6.331409,-8.623734,0.49,16.17,-26.460001,1729473274850.0,0.0
-2.06022,-6.369694,-8.013563,-10.08,12.88,-23.940001,1729473274869.0,0.0
-2.792424,-5.718846,-5.996413,-12.04,11.41,-17.85,1729473274890.0,0.0
-4.577469,-7.147361,-6.317052,-30.870001,5.88,-19.040001,1729473274910.0,0.0
-3.65384,-6.501299,-6.991827,-22.190001,-11.55,-17.57,1729473274929.0,0.0
-2.981457,-5.374279,-7.60439,-7.77,-18.690001,-15.61,1729473274951.0,0.0
-2.758924,-5.761917,-8.106883,-17.290001,-19.18,-15.47,1729473274969.0,0.0
-1.402194,-5.95095,-9.403792,-2.87,-21.77,-14.07,1729473274990.0,0.0
-0.418744,-3.775874,-9.200402,29.4,-17.85,-9.03,1729473275011.0,0.0
0.433101,-2.0004,-9.245867,80.360001,-15.61,6.72,1729473275028.0,0.0
0.622134,0.744168,-8.336594,74.199997,-6.93,19.32,1729473275049.0,0.0
-0.011964,-1.249053,-8.094919,-3.22,-1.4,28.42,1729473275071.0,0.0
-0.026321,-6.12084,-9.028119,-67.830002,-2.31,24.780001,1729473275091.0,0.0
0.105284,-8.298308,-9.60479,-45.43,-2.17,17.01,1729473275110.0,0.0
-0.358923,-7.793423,-9.305687,1.68,4.9,5.53,1729473275129.0,0.0
-1.057628,-7.920243,-9.348758,7.49,7.77,-10.57,1729473275150.0,0.0
-1.428515,-8.015956,-8.896514,-7.63,9.38,-25.27,1729473275170.0,0.0
-1.713261,-7.62114,-8.288737,3.22,9.17,-31.43,1729473275190.0,0.0
-2.467,-6.991827,-7.144968,12.6,8.82,-31.780001,1729473275210.0,0.0
-3.596412,-6.711867,-6.623333,2.8,4.55,-35.84,1729473275228.0,0.0
-3.393023,-6.254838,-7.066005,-8.33,-6.58,-39.200001,1729473275253.0,0.0
-2.251646,-5.639884,-7.60439,-6.09,-17.360001,-34.860001,1729473275271.0,0.0
-1.928615,-5.4341,-8.463413,-0.07,-17.01,-29.610001,1729473275289.0,0.0
-1.253839,-5.142176,-8.786445,20.370001,-12.95,-20.65,1729473275310.0,0.0
-0.70349,-3.962514,-8.616554,48.02,-6.37,-5.11,1729473275328.0,0.0
0.248854,-2.37368,-8.666803,88.830002,-2.94,15.12,1729473275350.0,0.0
0.98345,-0.933201,-8.405986,85.540001,6.44,28.07,1729473275370.0,0.0
0.62692,-2.665605,-7.953743,27.16,13.16,37.310001,1729473275389.0,0.0
0.29671,-6.094519,-8.11167,-36.540001,14.56,29.960001,1729473275409.0,0.0
0.76331,-7.192825,-8.635696,-38.990002,11.06,17.99,1729473275430.0,0.0
0.457029,-8.056634,-8.724231,7.35,11.2,15.05,1729473275448.0,0.0
-1.129412,-8.616554,-6.628119,15.54,19.530001,0.21,1729473275470.0,0.0
-2.151148,-8.719445,-7.836494,-14.35,12.04,-24.780001,1729473275490.0,0.0
-1.751546,-8.008778,-8.501699,-1.26,-4.69,-23.799999,1729473275509.0,0.0
-2.325824,-6.752545,-7.307681,17.360001,0.98,-21.139999,1729473275527.0,0.0
-3.986443,-6.601797,-6.661618,-1.89,4.97,-20.93,1729473275550.0,0.0
-4.122833,-6.352944,-7.341179,-25.059999,-5.39,-19.18,1729473275569.0,0.0
-3.337988,-6.02752,-7.910671,-32.060001,-13.51,-14.49,1729473275594.0,0.0
-2.730211,-5.785845,-8.133204,-10.78,-12.46,-3.5,1729473275610.0,0.0
-2.105684,-4.855037,-9.090333,35.84,-9.17,13.02,1729473275628.0,0.0
-0.973879,-3.120241,-8.439486,83.860001,-2.66,34.09,1729473275650.0,0.0
0.040678,-2.134398,-7.879565,84.769997,2.45,46.27,1729473275668.0,0.0
0.684347,-3.120241,-7.556533,36.959999,3.78,49.630001,1729473275689.0,0.0
0.581456,-4.625326,-6.733403,-23.870001,5.11,42.91,1729473275710.0,0.0
0.011964,-7.166504,-7.188039,-44.59,2.8,38.57,1729473275728.0,0.0
0.119641,-9.463614,-7.776673,-38.220001,-1.47,23.450001,1729473275748.0,0.0
-0.478565,-8.839087,-9.396614,4.69,3.71,17.15,1729473275768.0,0.0
-1.031307,-7.49432,-7.905886,33.32,11.69,10.08,1729473275791.0,0.0
-1.438086,-8.018349,-8.248059,1.75,9.66,-0.56,1729473275809.0,0.0
-1.363909,-7.642675,-7.712067,1.96,10.01,-2.73,1729473275828.0,0.0
-3.242275,-7.307681,-6.300302,-5.74,15.61,-6.02,1729473275848.0,0.0
-4.584648,-7.944171,-6.778866,-34.790001,11.27,-15.33,1729473275870.0,0.0
-3.644269,-6.941578,-7.298109,-32.34,-7.28,-17.15,1729473275889.0,0.0
-2.95035,-6.321837,-7.62114,-8.12,-12.18,-17.639999,1729473275909.0,0.0
-2.823531,-5.190032,-7.755138,2.52,-10.01,-16.1,1729473275928.0,0.0
-1.921437,-5.108676,-8.439486,-14.56,-10.57,-15.33,1729473275948.0,0.0
-0.636491,-6.101698,-8.831908,-16.52,-8.82,-14.21,1729473275968.0,0.0
0.153141,-3.371487,-8.035098,20.790001,-4.13,-9.73,1729473275990.0,0.0
0.165105,-1.988436,-7.628319,61.18,-3.71,7.14,1729473276009.0,0.0
0.258425,-0.459422,-6.649654,55.23,-3.71,20.790001,1729473276029.0,0.0
-0.607777,-2.500499,-7.357929,-10.64,1.05,28.139999,1729473276049.0,0.0
-0.818345,-6.020342,-8.602197,-68.809998,-3.29,23.73,1729473276069.0,0.0
-1.234696,-7.15454,-9.956534,-66.5,-0.28,13.65,1729473276091.0,0.0
-1.70369,-6.999006,-10.911271,-38.080002,7.63,6.02,1729473276109.0,0.0
-2.256432,-6.431907,-9.652647,-17.57,17.219999,3.78,1729473276129.0,0.0
-1.706082,-7.523034,-9.195618,-26.880001,20.23,0.21,1729473276148.0,0.0
-1.531406,-7.838887,-8.12124,14.77,26.040001,10.01,1729473276169.0,0.0
-2.139183,-7.580462,-7.02772,25.27,26.6,11.62,1729473276189.0,0.0
-2.74696,-7.769495,-4.790431,-4.2,19.74,2.17,1729473276210.0,0.0
-3.349952,-7.226324,-5.551349,-58.029999,5.67,-12.88,1729473276228.0,0.0
-3.931407,-10.521241,-7.135397,-50.75,-5.74,-20.02,1729473276249.0,0.0
-2.445465,-6.429514,-7.202396,1.96,-16.52,-27.51,1729473276269.0,0.0
-1.887937,-4.065405,-8.142776,2.87,-19.530001,-24.639999,1729473276290.0,0.0
-1.801795,-5.481956,-8.85105,-46.48,-14.35,-29.889999,1729473276309.0,0.0
-0.691526,-5.099105,-9.41815,-50.330002,-10.78,-27.860001,1729473276328.0,0.0
0.11007,-4.54397,-8.762517,-16.24,-4.83,-20.02,1729473276348.0,0.0
0.27996,-3.383451,-9.159724,55.580002,-2.52,0.91,1729473276369.0,0.0
0.157926,-1.098306,-7.958528,103.669998,4.55,20.51,1729473276389.0,0.0
-1.134198,-1.552942,-7.62114,58.380001,12.11,34.860001,1729473276410.0,0.0
-1.785046,-5.82413,-9.042477,-15.54,11.41,36.540001,1729473276428.0,0.0
-1.299303,-8.815158,-11.830115,-18.620001,13.86,27.65,1729473276448.0,0.0
-1.438086,-9.547362,-11.854043,68.32,31.43,22.75,1729473276468.0,0.0
-1.859223,-8.705089,-8.516055,179.339996,45.080002,21.84,1729473276490.0,0.0
-2.175076,-8.078169,-7.453642,310.799988,48.720001,14.35,1729473276509.0,0.0
-2.146362,-7.355537,-7.159326,385.630005,41.02,13.3,1729473276528.0,0.0
-2.036292,-7.013363,-6.008378,442.75,35.630001,18.690001,1729473276549.0,0.0
-1.868794,-7.075576,-4.381258,473.480011,38.43,20.58,1729473276575.0,0.0
-1.598405,-7.546963,-2.584249,471.23999,37.099998,20.860001,1729473276592.0,0.0
-0.928415,-7.872386,-0.90688,429.660004,31.639999,13.23,1729473276611.0,0.0
-0.368495,-8.209774,0.452243,375.76001,31.01,8.82,1729473276630.0,0.0
-0.088534,-8.793623,1.847259,329.140015,32.619999,-2.17,1729473276648.0,0.0
-0.303888,-9.157332,2.778067,300.579987,36.540001,-8.4,1729473276668.0,0.0
-0.605384,-8.46102,3.720839,293.790009,42.490002,-13.440001,1729473276689.0,0.0
-1.134198,-5.929415,5.563312,289.869995,47.18,-16.52,1729473276740.0,0.0
-1.569692,-4.725825,6.195018,270.269989,49.139999,-17.85,1729473276751.0,0.0
-2.067399,-3.878766,6.623333,229.740005,50.400002,-15.61,1729473276769.0,0.0
-2.749353,-5.197211,7.219146,167.089996,49.279999,-12.81,1729473276791.0,0.0
-3.120241,-6.884151,7.465607,92.470001,43.610001,-11.83,1729473276810.0,0.0
-2.787638,-6.379266,8.193025,17.57,31.290001,-13.09,1729473276830.0,0.0
-3.117848,-6.245267,8.415558,6.72,31.780001,-11.9,1729473276851.0,0.0
-3.002992,-6.958328,7.977671,-5.46,27.440001,-8.68,1729473276871.0,0.0
-2.400001,-7.802995,7.235896,-27.370001,10.08,-9.94,1729473276891.0,0.0
-2.06022,-7.915457,6.970293,-12.6,3.85,-11.34,1729473276912.0,0.0
-1.67019,-7.518249,6.472585,-7.84,5.95,-17.15,1729473276930.0,0.0
-1.548156,-6.281159,6.623333,-8.47,10.57,-17.15,1729473276951.0,0.0
-1.964507,-5.584848,6.999006,-21.280001,9.94,-14.63,1729473276970.0,0.0
-2.07697,-5.510671,6.491727,-40.25,4.27,-11.48,1729473276991.0,0.0
-2.239682,-6.463014,6.017949,-36.470001,-0.7,-5.81,1729473277011.0,0.0
-2.526821,-6.843473,5.486742,-12.88,3.5,-1.05,1729473277030.0,0.0
-2.816352,-6.065805,5.359922,11.83,17.219999,3.36,1729473277051.0,0.0
-3.416951,-5.101498,6.283553,13.23,29.540001,10.15,1729473277070.0,0.0
-3.921836,-6.209375,7.355537,-5.88,31.99,15.4,1729473277091.0,0.0
-3.598805,-7.348359,7.446464,-3.15,14.7,22.82,1729473277112.0,0.0
-3.132205,-6.977471,6.970293,44.450001,14.84,31.99,1729473277131.0,0.0
-2.533999,-5.826523,6.482157,67.410004,15.33,40.740002,1729473277151.0,0.0
-1.543371,-6.075377,6.429514,47.740002,9.73,45.009998,1729473277170.0,0.0
-0.770489,-6.52762,6.647261,12.74,3.22,45.990002,1729473277191.0,0.0
-1.208375,-9.049655,7.089933,-6.86,-6.79,48.860001,1729473277211.0,0.0
-1.351945,-10.083356,6.455836,-2.87,-16.24,37.73,1729473277230.0,0.0
-1.567299,-9.489935,6.063413,18.48,-13.58,25.129999,1729473277251.0,0.0
-2.78046,-9.183653,6.422336,20.860001,-15.61,9.66,1729473277270.0,0.0
-3.029313,-8.41795,6.30748,-0.63,-19.460001,-9.94,1729473277295.0,0.0
-2.708675,-6.762117,6.025128,-22.610001,-16.73,-20.299999,1729473277312.0,0.0
-3.371487,-6.771688,6.324231,-49.77,-20.51,-26.18,1729473277329.0,0.0
-4.335794,-7.915457,6.211767,-60.130001,-26.18,-31.08,1729473277351.0,0.0
-4.821537,-7.692925,6.226124,-37.029999,-16.24,-35.139999,1729473277370.0,0.0
-4.969893,-6.963113,6.410372,-15.89,-3.5,-42.630001,1729473277391.0,0.0
-4.785645,-6.24766,6.455836,-14.42,4.97,-49.0,1729473277412.0,0.0
-4.455436,-6.479764,6.156733,-15.33,10.43,-48.790001,1729473277429.0,0.0
-3.909872,-5.627919,6.491727,2.31,21.280001,-39.060001,1729473277449.0,0.0
-3.299703,-5.429315,6.84108,14.14,25.41,-28.84,1729473277527.0,0.0
-2.069792,-4.991428,7.15454,16.59,23.450001,-19.040001,1729473277527.0,0.0
-1.064806,-4.110869,7.757531,25.27,24.290001,-1.33,1729473277527.0,0.0
0.265603,-4.015156,7.76471,18.059999,16.24,15.61,1729473277534.0,0.0
1.514657,-4.910072,6.987042,5.11,4.76,31.219999,1729473277552.0,0.0
0.612563,-6.515656,7.058826,3.64,-5.39,43.330002,1729473277570.0,0.0
-0.320638,-6.163911,6.71426,3.85,-15.05,46.970001,1729473277593.0,0.0
-1.055235,-5.809773,6.802795,-7.49,-21.0,52.150002,1729473277612.0,0.0
-2.801995,-8.717053,7.073184,-41.509998,-42.209999,48.580002,1729473277630.0,0.0
-4.053442,-11.143374,5.627919,-66.360001,-52.150002,30.66,1729473277650.0,0.0
-5.242674,-12.299109,5.12782,-69.300003,-41.16,5.74,1729473277670.0,0.0
-4.474578,-12.729815,3.29731,-45.150002,-26.25,-30.1,1729473277690.0,0.0
-3.412165,-9.693325,3.354738,13.65,12.74,-50.470001,1729473277723.0,0.0
-4.180261,-6.446264,4.701896,51.869999,43.610001,-57.330002,1729473277729.0,0.0
-5.12782,-8.013563,4.792823,36.610001,44.73,-64.190002,1729473277749.0,0.0
-4.019942,-5.118248,7.712067,32.759998,61.810001,-64.330002,1729473277769.0,0.0
-3.783052,-3.471986,8.319844,16.450001,52.080002,-48.93,1729473277790.0,0.0
-1.95015,-3.426522,7.365108,-4.41,28.35,-30.030001,1729473277810.0,0.0
-0.629312,-2.68714,7.271788,7.7,22.33,-6.16,1729473277829.0,0.0
-0.433101,-2.718246,7.49432,8.26,12.67,18.059999,1729473277849.0,0.0
-0.311067,-4.058227,7.147361,1.33,-2.17,39.060001,1729473277869.0,0.0
-0.744168,-6.802795,7.357929,2.1,-20.16,51.66,1729473277890.0,0.0
-0.0335,-5.855237,7.190433,0.84,-24.360001,57.82,1729473277911.0,0.0
-0.083749,-4.759324,6.630512,-25.690001,-29.26,65.309998,1729473277929.0,0.0
-2.227718,-7.992027,6.659225,-62.650002,-50.259998,68.809998,1729473277949.0,0.0
-3.89073,-12.973885,6.34098,-66.779999,-62.02,52.849998,1729473277969.0,0.0
-3.921836,-13.730016,5.395815,-52.360001,-51.170002,21.07,1729473277990.0,0.0
-3.519842,-13.919049,3.847659,-14.98,-33.040001,-11.27,1729473278013.0,0.0
-2.641676,-10.147961,3.139383,13.37,0.14,-42.209999,1729473278030.0,0.0
-3.151347,-7.307681,4.878965,21.42,22.33,-53.689999,1729473278050.0,0.0
-4.256832,-9.219545,4.845466,4.34,17.15,-63.420002,1729473278069.0,0.0
-3.529413,-6.991827,6.18784,20.93,26.32,-75.599998,1729473278090.0,0.0
-4.704289,-3.220739,8.489735,44.099998,47.040001,-61.110001,1729473278110.0,0.0
-4.350152,-2.361716,7.594819,-8.96,19.950001,-49.420002,1729473278134.0,0.0
-3.050849,-3.158526,6.025128,-30.1,6.86,-25.690001,1729473278149.0,0.0
-2.239682,-3.304488,5.625526,-8.26,10.36,-3.99,1729473278169.0,0.0
-2.043471,-3.596412,5.673382,14.0,17.290001,17.92,1729473278190.0,0.0
-1.792224,-4.814359,6.568298,15.54,22.82,32.549999,1729473278214.0,0.0
-0.765703,-6.4343,7.173682,3.01,20.299999,38.080002,1729473278313.0,0.0
-0.086142,-7.008578,7.704889,7.63,17.780001,47.950001,1729473278316.0,0.0
-0.122034,-7.133004,7.956135,14.28,12.67,52.43,1729473278317.0,0.0
0.090927,-7.716853,7.79103,4.06,3.43,51.310001,1729473278318.0,0.0
-0.291924,-10.059426,7.542177,-4.13,-10.85,44.52,1729473278319.0,0.0
-1.268196,-11.96172,7.075576,4.41,-23.17,29.75,1729473278328.0,0.0
-1.682154,-10.509278,6.618547,13.58,-25.129999,8.05,1729473278348.0,0.0
-2.868994,-9.58804,6.73101,-1.75,-31.43,-9.31,1729473278371.0,0.0
-3.215954,-9.789038,5.740381,-28.77,-40.880001,-28.559999,1729473278389.0,0.0
-3.591627,-9.24826,4.804788,-27.65,-36.610001,-44.59,1729473278410.0,0.0
-4.986642,-7.152147,5.328816,-8.05,-22.469999,-52.920002,1729473278430.0,0.0
-4.711468,-6.833901,5.132604,-8.82,-4.76,-60.619999,1729473278449.0,0.0
-4.24726,-6.175875,4.843073,3.01,7.14,-57.75,1729473278469.0,0.0
-4.744967,-4.508078,5.424529,17.85,23.799999,-45.57,1729473278490.0,0.0
-4.740182,-4.476971,5.209175,7.49,29.469999,-33.950001,1729473278510.0,0.0
-3.661019,-5.216353,5.132604,1.68,30.309999,-22.190001,1729473278528.0,0.0
-2.813959,-4.699504,5.242674,25.83,42.700001,-3.15,1729473278550.0,0.0
-1.818545,-4.376472,6.570691,34.439999,50.189999,17.219999,1729473278569.0,0.0
-0.011964,-4.572684,7.489535,17.290001,44.66,29.469999,1729473278592.0,0.0
0.847059,-5.663811,8.633304,-2.87,33.040001,41.650002,1729473278619.0,0.0
0.425922,-7.326823,9.025726,-6.3,13.37,50.119999,1729473278631.0,0.0
-0.198604,-7.587641,9.379865,8.75,-2.66,51.939999,1729473278649.0,0.0
-0.251246,-6.460621,8.678767,1.61,-18.129999,48.650002,1729473278670.0,0.0
-0.442672,-7.525427,7.472785,-36.610001,-39.970001,43.400002,1729473278690.0,0.0
-0.98345,-9.942179,5.737988,-52.990002,-57.470001,33.950001,1729473278711.0,0.0
-2.124826,-10.798808,6.209375,-25.690001,-54.529999,21.91,1729473278730.0,0.0
-4.546363,-10.363315,5.539384,-8.75,-47.18,3.43,1729473278749.0,0.0
-5.056034,-10.021141,4.902894,-12.04,-32.34,-27.93,1729473278769.0,0.0
-4.831109,-8.85105,4.87418,-15.33,-11.13,-47.880001,1729473278791.0,0.0
-4.618148,-8.475377,4.386044,-7.21,4.62,-60.27,1729473278810.0,0.0
-4.4674,-8.573483,3.534199,28.91,21.98,-63.84,1729473278828.0,0.0
-4.369294,-6.759724,4.48415,59.080002,45.220001,-67.199997,1729473278849.0,0.0
-4.465007,-4.345366,6.096912,45.57,56.0,-59.360001,1729473278870.0,0.0
-3.431308,-3.318845,6.9679,3.43,46.41,-44.029999,1729473278891.0,0.0
-2.021935,-4.067799,6.903293,-18.34,30.799999,-24.290001,1729473278913.0,0.0
-0.849452,-3.440879,7.365108,-4.76,27.16,-1.61,1729473278931.0,0.0
0.507278,-2.955136,8.032705,2.31,21.280001,19.809999,1729473278949.0,0.0
1.165305,-4.512863,8.193025,-11.48,4.06,36.959999,1729473278970.0,0.0
0.430708,-6.092126,8.082954,-8.75,-13.93,49.560001,1729473278991.0,0.0
0.37328,-4.462614,8.252845,-3.43,-19.18,61.18,1729473279011.0,0.0
-0.457029,-4.532006,7.326823,-43.470001,-35.91,69.230003,1729473279031.0,0.0
-3.225525,-10.193424,7.02772,-75.949997,-58.52,71.68,1729473279049.0,0.0
-3.646662,-11.782259,4.606184,-50.470001,-65.590004,49.91,1729473279070.0,0.0
-4.685147,-14.024333,4.773681,0.84,-40.599998,36.82,1729473279091.0,0.0
-3.440879,-12.610175,2.09372,4.13,-16.940001,-13.3,1729473279110.0,0.0
-3.888337,-9.461221,4.426722,16.24,23.1,-29.540001,1729473279131.0,0.0
-4.73061,-9.147761,5.242674,-1.19,27.23,-52.849998,1729473279150.0,0.0
-3.9338,-9.997212,5.233103,13.3,28.559999,-59.150002,1729473279171.0,0.0
-3.546163,-8.62134,5.678168,69.370003,40.110001,-64.959999,1729473279192.0,0.0
-3.771089,-6.032306,6.74776,84.629997,45.5,-63.98,1729473279223.0,0.0
-3.29731,-3.416951,9.06162,36.470001,35.700001,-57.959999,1729473279230.0,0.0
-1.986043,-4.402793,7.872386,-19.6,5.25,-48.299999,1729473279251.0,0.0
-0.665205,-4.529613,6.975078,-4.9,-8.4,-28.07,1729473279270.0,0.0
-1.083949,-2.536392,7.202396,31.85,-9.73,-3.64,1729473279290.0,0.0
-1.658226,-2.036292,6.831509,15.96,-19.879999,20.370001,1729473279313.0,0.0
-2.036292,-5.082355,6.601797,-9.87,-31.43,35.139999,1729473279334.0,0.0
-1.117448,-5.460421,5.682954,1.54,-26.460001,46.130001,1729473279349.0,0.0
-0.79681,-3.940979,6.348158,19.6,-9.03,60.41,1729473279370.0,0.0
-2.758924,-8.367701,8.126025,-30.52,-19.950001,75.459999,1729473279391.0,0.0
-2.926422,-13.435699,6.80758,-33.529999,-36.330002,56.349998,1729473279411.0,0.0
-2.538785,-15.981662,7.037291,18.969999,-23.940001,33.18,1729473279430.0,0.0
-1.998007,-13.143774,5.484349,29.82,-9.24,-13.93,1729473279451.0,0.0
-1.105484,-9.891929,5.314459,-6.58,-2.31,-49.490002,1729473279470.0,0.0
-1.375873,-8.559127,5.962914,-45.57,-1.61,-66.989998,1729473279498.0,0.0
-1.557728,-9.186047,5.687739,-36.259998,-8.19,-71.75,1729473279511.0,0.0
-1.210768,-9.102298,4.498507,26.460001,-5.11,-78.050003,1729473279530.0,0.0
-2.605784,-5.06082,6.742974,72.239998,16.24,-74.970001,1729473279549.0,0.0
-3.314059,-2.533999,8.078169,7.63,8.05,-73.290001,1729473279570.0,0.0
-3.125026,-3.165704,7.133004,-62.650002,-7.0,-61.18,1729473279593.0,0.0
-2.837888,-4.192225,5.745167,-50.610001,-3.22,-42.91,1729473279611.0,0.0
-2.813959,-3.60359,5.704489,9.73,10.36,-23.59,1729473279629.0,0.0
-3.113062,-1.933401,6.683154,54.110001,26.32,4.34,1729473279649.0,0.0
-3.541377,-3.352344,7.56132,31.219999,21.280001,21.210001,1729473279670.0,0.0
-2.801995,-5.895915,6.908078,2.31,10.99,33.110001,1729473279691.0,0.0
-1.387837,-7.034898,7.599605,10.15,19.32,45.639999,1729473279715.0,0.0
-0.224925,-8.200203,7.661818,10.64,13.86,52.990002,1729473279774.0,0.0
0.375673,-9.387043,7.487142,0.77,2.52,48.23,1729473279776.0,0.0
0.746561,-9.645468,7.563712,1.12,-5.18,35.91,1729473279777.0,0.0
0.614955,-9.750752,7.77428,12.67,-14.7,22.26,1729473279790.0,0.0
0.710668,-9.164511,7.396214,23.17,-24.639999,7.77,1729473279811.0,0.0
0.81356,-7.905886,6.9679,16.52,-31.780001,-3.99,1729473279829.0,0.0
0.358923,-7.953743,6.845865,-0.77,-38.709999,-12.32,1729473279849.0,0.0
-0.385244,-7.867601,6.04427,-6.79,-41.580002,-21.49,1729473279870.0,0.0
-1.806581,-8.377272,6.288338,3.99,-37.799999,-28.139999,1729473279890.0,0.0
-2.775674,-8.085347,5.388636,5.81,-31.710001,-41.509998,1729473279910.0,0.0
-3.785445,-6.766902,5.970093,7.7,-9.94,-46.34,1729473279930.0,0.0
-3.742374,-6.405586,5.481956,-9.31,4.41,-54.670002,1729473279949.0,0.0
-3.201597,-7.549356,4.634897,10.85,17.57,-53.900002,1729473279971.0,0.0
-4.027121,-5.32403,5.855237,58.450001,41.09,-47.529999,1729473279990.0,0.0
-4.718646,-3.215954,7.006185,54.459999,50.189999,-35.209999,1729473280011.0,0.0
-3.708875,-3.182454,7.054041,18.549999,42.420002,-21.77,1729473280029.0,0.0
-1.847259,-2.009971,8.075776,8.96,39.27,1.19,1729473280049.0,0.0
0.5001,-2.096112,9.41815,-9.24,31.43,39.900002,1729473280070.0,0.0
2.589034,-4.4339,9.470792,-40.040001,4.83,60.41,1729473280090.0,0.0
2.68714,-6.312266,9.463614,-57.68,-19.18,76.370003,1729473280110.0,0.0
1.864009,-6.436693,8.997013,-81.550003,-40.389999,81.129997,1729473280130.0,0.0
0.315853,-10.202995,7.76471,-118.090004,-70.0,73.57,1729473280151.0,0.0
-0.875773,-14.974284,5.245068,-106.959999,-90.790001,41.09,1729473280169.0,0.0
-1.672583,-15.63231,3.524628,-49.0,-67.830002,1.61,1729473280191.0,0.0
-3.699304,-13.385449,3.04367,7.49,-35.139999,-42.490002,1729473280210.0,0.0
-2.912065,-7.37468,4.046263,7.0,7.63,-64.82,1729473280230.0,0.0
-2.531606,-8.896514,3.979264,-11.69,10.92,-78.470001,1729473280250.0,0.0
-3.218346,-8.592626,4.548756,12.46,25.76,-79.099998,1729473280269.0,0.0
-3.723232,-5.498707,5.656632,68.18,50.259998,-74.690002,1729473280290.0,0.0
-3.936193,-3.259024,7.611568,65.800003,54.25,-66.57,1729473280320.0,0.0
-3.558127,-1.205983,8.204988,17.290001,41.299999,-50.75,1729473280329.0,0.0
-2.426322,-2.036292,7.649854,2.24,27.93,-20.02,1729473280350.0,0.0
-1.540978,-1.18684,7.192825,15.82,21.629999,7.49,1729473280369.0,0.0
-1.438086,-1.438086,8.224132,29.610001,22.33,43.400002,1729473280389.0,0.0
-0.849452,-2.825923,7.56132,15.33,4.69,78.260002,1729473280411.0,0.0
0.270389,-4.192225,9.135797,29.75,5.46,104.370003,1729473280429.0,0.0
-1.268196,-7.757531,9.745967,16.24,-10.5,119.0,1729473280449.0,0.0
-1.718047,-12.404392,7.601997,3.08,-33.32,108.5,1729473280470.0,0.0
-1.696511,-14.23251,8.001599,-2.24,-24.01,80.779999,1729473280490.0,0.0
-2.057827,-13.060026,5.601598,-44.52,-17.15,32.900002,1729473280511.0,0.0
-2.388037,-11.887544,3.783052,-98.139999,-9.31,-7.7,1729473280529.0,0.0
-1.808974,-10.229317,3.022135,-128.729996,9.38,-34.790001,1729473280549.0,0.0
-1.454836,-8.090133,3.0006,-154.490005,30.870001,-50.959999,1729473280569.0,0.0
-2.132005,-7.216753,3.328416,-198.800003,44.939999,-55.790001,1729473280593.0,0.0
-2.65364,-8.788837,4.079762,-231.070007,46.689999,-59.150002,1729473280610.0,0.0
-2.679961,-9.693325,4.811966,-212.589996,42.700001,-53.619999,1729473280629.0,0.0
-3.0006,-9.568897,4.771288,-148.190002,39.549999,-43.049999,1729473280655.0,0.0
-2.679961,-8.721838,4.766503,-98.419998,29.610001,-41.16,1729473280669.0,0.0
-2.079363,-8.965906,4.797609,-63.630001,13.37,-36.82,1729473280691.0,0.0
-2.196611,-9.396614,4.919643,-34.509998,2.8,-33.25,1729473280713.0,0.0
-1.452443,-8.77448,5.142176,-28.42,-8.19,-28.91,1729473280728.0,0.0
-0.799203,-9.040084,4.228118,-44.170002,-16.799999,-27.09,1729473280749.0,0.0
-0.42353,-9.420543,3.907479,-46.689999,-20.23,-25.690001,1729473280770.0,0.0
-0.160319,-8.319844,4.527221,-37.869999,-11.76,-16.52,1729473280790.0,0.0
0.081356,-7.798209,4.067799,-46.130001,-14.14,-12.04,1729473280810.0,0.0
0.799203,-8.484949,2.610569,-61.18,-20.09,-3.43,1729473280829.0,0.0
2.029114,-9.578469,1.098306,-56.98,-22.75,0.91,1729473280850.0,0.0
2.419144,-9.585647,0.574277,-30.1,-11.27,4.9,1729473280869.0,0.0
1.158126,-6.661618,-2.019542,-11.13,10.71,6.37,1729473280891.0,0.0
-5.740381,-10.224532,5.17089,-0.35,18.83,32.060001,1729473280910.0,0.0
-4.563113,-12.607781,4.218546,8.68,-30.17,3.01,1729473280930.0,0.0
-1.59362,-10.353743,3.457629,26.389999,-51.310001,-1.47,1729473280951.0,0.0
-2.148755,-7.707282,3.172883,31.57,-41.790001,0.84,1729473280969.0,0.0
-3.759124,-7.9681,2.455036,-15.33,-43.540001,6.65,1729473280991.0,0.0
-3.361916,-9.578469,1.311267,-71.959999,-55.23,3.85,1729473281012.0,0.0
-1.380659,-10.829915,-0.339781,-90.510002,-66.5,-1.82,1729473281030.0,0.0
-0.411566,-9.939785,-0.98345,-76.650002,-68.32,-9.45,1729473281049.0,0.0
0.071785,-8.95155,-0.81356,-71.120003,-64.75,-13.93,1729473281071.0,0.0
0.646062,-8.563912,-1.026521,-73.43,-59.779999,-15.54,1729473281091.0,0.0
0.354138,-8.484949,0.014357,-78.330002,-55.510002,-12.25,1729473281111.0,0.0
-0.488136,-8.566305,2.09372,-74.620003,-56.07,-5.25,1729473281130.0,0.0
0.009571,-9.659825,-0.870987,-64.959999,-69.720001,-0.35,1729473281150.0,0.0
1.933401,-12.375679,-4.890929,-38.080002,-68.110001,-6.09,1729473281171.0,0.0
3.089134,-12.363714,-6.242875,4.55,-31.08,-5.74,1729473281191.0,0.0
2.347359,-10.923235,-5.005785,16.379999,25.41,-12.18,1729473281212.0,0.0
0.708275,-11.212767,-2.155933,-6.58,57.82,-15.54,1729473281231.0,0.0
0.339781,-12.110075,-1.481157,-4.83,65.099998,-26.18,1729473281251.0,0.0
-0.701097,-9.779467,4.663611,63.07,66.779999,-19.389999,1729473281270.0,0.0
-2.615355,-6.252446,7.393822,65.870003,52.920002,-13.72,1729473281291.0,0.0
-4.024727,-7.932207,3.790231,-26.389999,29.960001,-15.89,1729473281322.0,0.0
-1.926222,-10.131211,3.4672,-11.34,-25.690001,-3.15,1729473281330.0,0.0
-1.31366,-9.028119,2.371287,20.860001,-4.27,-0.21,1729473281350.0,0.0
-1.057628,-9.150154,0.569492,-22.049999,-13.79,-4.13,1729473281375.0,0.0
-0.591027,-10.528419,-0.782453,-38.709999,-12.39,1.33,1729473281391.0,0.0
0.009571,-11.243874,-1.579263,-17.08,-12.04,5.81,1729473281414.0,0.0
0.239282,-10.470992,-1.820938,18.34,-3.85,7.98,1729473281431.0,0.0
0.476172,-9.647861,-1.808974,39.200001,6.86,9.94,1729473281450.0,0.0
0.392423,-9.468399,-1.359123,25.83,9.66,11.2,1729473281471.0,0.0
0.057428,-9.375079,-0.789631,4.13,6.72,10.78,1729473281491.0,0.0
-0.066999,-9.4349,0.009571,-3.43,0.84,10.22,1729473281513.0,0.0
0.241675,-9.253045,0.052642,-2.24,-5.11,6.09,1729473281531.0,0.0
0.16989,-9.171689,-0.40678,1.54,-6.51,5.53,1729473281552.0,0.0
0.42353,-9.41815,-1.811367,-9.59,-7.28,3.15,1729473281571.0,0.0
1.529014,-11.093125,-3.402594,-16.799999,-5.53,4.48,1729473281594.0,0.0
2.254039,-11.822936,-3.436093,5.04,14.42,4.62,1729473281612.0,0.0
1.052842,-10.526026,-0.70349,24.219999,47.950001,-0.35,1729473281630.0,0.0
-0.959522,-10.406385,1.895115,14.28,54.740002,-7.77,1729473281651.0,0.0
-0.863809,-11.219944,1.213161,22.469999,42.209999,-9.17,1729473281670.0,0.0
-0.401994,-7.65464,5.058427,50.82,49.349998,-18.690001,1729473281693.0,0.0
-5.927022,-6.405586,9.396614,68.32,20.02,28.0,1729473281712.0,0.0
-6.139983,-8.059027,5.891129,5.32,-12.32,5.11,1729473281730.0,0.0
-2.136791,-9.975677,0.705883,-82.529999,-51.029999,-13.79,1729473281750.0,0.0
0.449851,-10.281959,-1.18684,-76.860001,-53.060001,-2.66,1729473281770.0,0.0
-0.480957,-10.033106,-0.909273,-38.849998,-26.18,14.21,1729473281792.0,0.0
-2.041078,-10.473385,-0.595813,-30.940001,-19.040001,16.17,1729473281813.0,0.0
-1.057628,-10.191031,-1.765903,-22.68,-27.09,11.9,1729473281830.0,0.0
-0.356531,-9.343972,-0.394816,-8.61,-31.15,17.01,1729473281851.0,0.0
-0.165105,-9.013763,-1.261017,-0.91,-33.389999,23.379999,1729473281871.0,0.0
0.55992,-10.497313,-3.907479,-11.9,-31.01,20.440001,1729473281891.0,0.0
1.617548,-10.815558,-4.95075,-26.25,-12.74,8.96,1729473281912.0,0.0
1.761117,-10.722239,-4.733003,-25.34,17.360001,6.86,1729473281930.0,0.0
0.89013,-10.650455,-3.007778,-17.360001,38.639999,4.69,1729473281950.0,0.0
0.205783,-10.834702,-1.464408,-8.82,49.630001,-2.17,1729473281970.0,0.0
-0.803988,-10.492528,0.648455,7.21,50.189999,-9.1,1729473281991.0,0.0
-2.124826,-8.68116,3.007778,16.379999,39.200001,-7.35,1729473282012.0,0.0
-3.220739,-8.480164,4.067799,2.94,35.139999,-1.4,1729473282030.0,0.0
-3.902694,-9.305687,4.352544,-38.220001,11.76,-3.78,1729473282050.0,0.0
-4.225725,-11.150554,3.359523,-29.190001,-13.79,2.87,1729473282070.0,0.0
-2.158326,-11.310873,-0.07657,2.24,-17.290001,-0.49,1729473282092.0,0.0
-0.648455,-10.274779,-1.09352,9.17,-12.6,-2.94,1729473282111.0,0.0
-0.638884,-9.492328,-1.194018,8.54,1.05,4.2,1729473282131.0,0.0
-0.770489,-10.356135,-1.852045,2.52,5.6,4.62,1729473282150.0,0.0
-0.564706,-10.408779,-1.426122,14.07,4.2,5.95,1729473282170.0,0.0
-0.272782,-9.183653,-1.021735,39.830002,3.15,6.37,1729473282192.0,0.0
-0.70349,-8.154739,-0.361316,33.18,3.15,6.3,1729473282211.0,0.0
-1.210768,-8.626125,0.234497,-3.64,-11.27,4.27,1729473282230.0,0.0
-1.438086,-9.662218,0.600598,-29.469999,-28.49,0.42,1729473282250.0,0.0
-1.268196,-9.987641,0.746561,-22.75,-41.369999,-1.89,1729473282271.0,0.0
-1.038485,-9.533006,-0.232104,-12.74,-49.349998,-5.39,1729473282291.0,0.0
-0.299103,-9.461221,-1.864009,-18.34,-50.610001,-6.58,1729473282311.0,0.0
1.459622,-12.287145,-4.785645,-29.889999,-41.369999,-4.34,1729473282330.0,0.0
1.426122,-12.220145,-4.893322,21.84,9.8,-3.71,1729473282350.0,0.0
0.232104,-10.021141,-2.048256,50.400002,50.610001,-3.5,1729473282371.0,0.0
-0.722632,-10.636096,-0.457029,28.630001,62.02,-11.34,1729473282391.0,0.0
-0.897308,-11.073983,0.636491,24.639999,56.98,-15.33,1729473282421.0,0.0
-2.143969,-9.269794,3.316452,51.029999,48.16,-11.13,1729473282430.0,0.0
-2.596212,-8.219346,4.163511,49.700001,40.040001,-14.7,1729473282452.0,0.0
-3.921836,-7.733603,5.589634,17.710001,18.200001,-7.14,1729473282530.0,0.0
-4.091727,-8.705089,4.180261,-6.44,-6.09,-2.45,1729473282535.0,0.0
-2.309074,-9.98525,0.5001,-20.790001,-26.530001,-6.37,1729473282537.0,0.0
-0.90688,-10.509278,-0.68674,-14.42,-27.93,-4.48,1729473282539.0,0.0
-0.947558,-9.659825,-0.619741,-1.33,-15.190001,1.54,1729473282550.0,0.0
-1.368695,-9.585647,-0.808774,-10.29,-12.25,2.31,1729473282571.0,0.0
-0.878166,-9.753145,-0.976272,-22.049999,-20.02,3.64,1729473282594.0,0.0
-0.12682,-9.401401,-0.658026,-5.32,-25.549999,7.98,1729473282611.0,0.0
-0.148355,-8.633304,0.430708,5.88,-25.549999,12.67,1729473282630.0,0.0
-0.39003,-8.669197,-1.330409,-11.55,-23.870001,14.63,1729473282650.0,0.0
0.811167,-11.889936,-4.792823,-54.18,-11.97,7.28,1729473282670.0,0.0
1.674976,-12.698709,-5.197211,-17.08,9.73,2.31,1729473282691.0,0.0
0.770489,-10.731809,-2.828316,49.0,43.75,2.73,1729473282712.0,0.0
-0.464208,-9.083155,-0.61017,47.950001,63.0,-4.55,1729473282729.0,0.0
-0.892523,-10.191031,-0.208176,1.26,60.130001,-13.93,1729473282749.0,0.0
-1.256232,-10.963913,0.696311,-11.69,56.84,-17.710001,1729473282770.0,0.0
-2.486143,-10.506885,3.06042,13.93,52.080002,-13.58,1729473282790.0,0.0
-2.981457,-8.609376,5.089533,54.040001,38.009998,-11.69,1729473282812.0,0.0
-4.558327,-7.216753,7.76471,48.02,20.09,2.87,1729473282829.0,0.0
-4.4674,-8.109276,5.108676,0.7,-14.91,-2.87,1729473282850.0,0.0
-2.368894,-10.167104,0.748954,-44.869999,-41.93,-6.51,1729473282870.0,0.0
-0.433101,-11.253445,-0.959522,-42.98,-43.68,-4.62,1729473282891.0,0.0
-0.397209,-10.19821,-0.911665,-20.860001,-24.92,4.13,1729473282911.0,0.0
-0.751346,-9.650253,-1.117448,-17.780001,-20.23,1.68,1729473282930.0,0.0
-0.265603,-9.815358,-0.894916,-14.14,-24.5,6.16,1729473282950.0,0.0
-0.011964,-9.480364,0.751346,4.34,-27.790001,9.1,1729473282970.0,0.0
-0.595813,-8.848659,-1.629512,6.44,-29.190001,12.53,1729473282990.0,0.0
0.358923,-10.600205,-4.23051,-50.68,-30.66,0.35,1729473283012.0,0.0
1.328017,-12.193825,-5.386244,-35.77,-16.799999,0.42,1729473283029.0,0.0
1.562513,-10.899307,-4.493721,19.67,14.28,-0.07,1729473283051.0,0.0
0.547956,-9.549755,-2.309074,34.23,41.650002,-2.8,1729473283071.0,0.0
-0.153141,-10.492528,-1.320838,5.04,48.02,-10.99,1729473283090.0,0.0
-0.366102,-11.076375,-0.564706,-6.58,50.470001,-13.51,1729473283112.0,0.0
-1.663012,-11.026128,1.782653,14.21,52.990002,-9.45,1729473283130.0,0.0
-2.658426,-9.430114,3.182454,40.880001,50.400002,-9.59,1729473283150.0,0.0
-4.740182,-7.307681,8.068598,43.470001,37.099998,-0.21,1729473283170.0,0.0
-6.092126,-7.922636,5.735595,8.61,3.43,11.06,1729473283190.0,0.0
-3.622734,-10.080962,1.495514,-44.170002,-28.630001,-9.59,1729473283221.0,0.0
-0.658026,-11.145767,-1.083949,-48.369999,-41.650002,-7.84,1729473283230.0,0.0
-0.375673,-10.210175,-0.978664,-12.32,-18.969999,2.38,1729473283251.0,0.0
-1.299303,-9.547362,-1.009771,-0.49,-8.19,4.69,1729473283270.0,0.0
-0.947558,-9.786645,-1.399801,-9.17,-16.030001,2.03,1729473283291.0,0.0
0.038285,-10.135997,-1.631905,11.06,-20.370001,6.65,1729473283311.0,0.0
-1.055235,-8.501699,1.07677,30.940001,-15.54,8.12,1729473283330.0,0.0
-1.261017,-8.585447,-1.11027,-8.12,-25.129999,6.3,1729473283350.0,0.0
0.318245,-10.509278,-3.558127,-57.610001,-34.720001,-5.67,1729473283371.0,0.0
1.737189,-11.88515,-4.63729,-45.080002,-20.58,-5.25,1729473283391.0,0.0
1.581656,-11.222338,-3.881158,7.77,12.04,-3.15,1729473283411.0,0.0
0.117248,-9.887143,-1.153341,29.82,39.759998,-4.9,1729473283430.0,0.0
-0.514457,-10.356135,-1.177269,3.08,45.920002,-14.35,1729473283450.0,0.0
-0.835095,-10.937593,0.930808,5.18,42.349998,-14.63,1729473283470.0,0.0
-1.753939,-10.595419,2.39043,29.82,42.560001,-14.28,1729473283491.0,0.0
-3.433701,-7.779066,7.929814,42.07,36.959999,-15.82,1729473283511.0,0.0
-6.104091,-7.925028,6.896115,32.060001,4.34,11.41,1729473283530.0,0.0
-4.606184,-9.71486,2.663212,-21.07,-28.139999,-13.93,1729473283550.0,0.0
-1.251446,-10.932807,-0.854238,-54.599998,-52.5,-15.61,1729473283570.0,0.0
0.028714,-10.372886,-1.033699,-24.5,-33.599998,-6.65,1729473283595.0,0.0
-1.103091,-9.470792,-0.79681,2.73,-13.23,2.8,1729473283611.0,0.0
-1.550549,-9.257831,-0.909273,-5.88,-13.86,1.12,1729473283630.0,0.0
-0.624527,-9.303294,-1.160519,-5.53,-24.5,4.83,1729473283650.0,0.0
0.009571,-8.618947,0.241675,12.18,-29.82,12.39,1729473283670.0,0.0
0.370888,-9.729217,-2.823531,3.92,-40.740002,15.54,1729473283692.0,0.0
1.375873,-11.10509,-5.218746,-16.450001,-29.540001,8.89,1729473283713.0,0.0
1.933401,-11.440084,-5.771489,-26.32,0.28,0.77,1729473283730.0,0.0
1.246661,-10.82513,-3.979264,-9.73,32.970001,-2.1,1729473283750.0,0.0
0.088534,-10.985448,-2.531606,-11.76,53.200001,-9.24,1729473283770.0,0.0
-0.354138,-11.55494,-1.85683,-11.34,57.049999,-20.65,1729473283791.0,0.0
-1.607977,-10.600205,1.596013,35.139999,53.760002,-15.61,1729473283812.0,0.0
-2.502892,-7.879565,3.26381,66.709999,58.59,-14.63,1729473283830.0,0.0
-6.575477,-6.429514,10.604989,32.689999,29.610001,4.34,1729473283850.0,0.0
-6.522834,-9.032906,5.632704,-11.62,-15.54,4.34,1729473283871.0,0.0
-2.660819,-10.959127,-0.272782,-65.800003,-52.779999,-19.950001,1729473283892.0,0.0
0.42353,-10.832308,-1.868794,-54.110001,-54.389999,-11.13,1729473283912.0,0.0
0.248854,-9.856036,-1.555335,-23.52,-24.290001,0.49,1729473283930.0,0.0
-0.870987,-9.980463,-1.840081,-32.41,-15.4,1.33,1729473283951.0,0.0
-0.289532,-10.040283,-2.194218,-17.57,-19.6,0.91,1729473283971.0,0.0
0.425922,-8.047063,-0.636491,29.120001,-11.9,9.59,1729473283991.0,0.0
-0.081356,-8.88455,-1.160519,28.0,-14.98,16.030001,1729473284013.0,0.0
0.579063,-10.727024,-4.175476,8.4,-17.290001,11.9,1729473284030.0,0.0
1.490728,-11.755937,-4.991428,-1.61,0.14,6.44,1729473284049.0,0.0
1.028914,-11.274981,-2.691926,-7.0,28.84,-4.69,1729473284070.0,0.0
-0.071785,-12.174682,-2.522035,5.74,42.420002,-10.78,1729473284091.0,0.0
-0.825524,-11.131411,0.306281,35.560001,48.509998,-18.620001,1729473284111.0,0.0
-1.674976,-10.085747,1.399801,79.590004,53.130001,-15.54,1729473284130.0,0.0
-3.452843,-6.932007,7.599605,68.669998,52.290001,-17.290001,1729473284150.0,0.0
-6.197411,-7.022934,8.992228,20.719999,15.96,3.92,1729473284170.0,0.0
-4.945964,-9.645468,3.629912,-43.610001,-27.58,-13.37,1729473284191.0,0.0
-1.328017,-10.997414,0.241675,-61.810001,-55.16,-17.290001,1729473284211.0,0.0
0.014357,-10.210175,-0.66999,-35.279999,-39.830002,-7.7,1729473284229.0,0.0
-1.11027,-9.556933,-1.098306,-17.639999,-23.24,-0.56,1729473284250.0,0.0
-1.272982,-10.224532,-2.287539,-26.74,-25.27,-2.24,1729473284271.0,0.0
0.248854,-9.475577,-2.667997,-6.23,-31.92,0.7,1729473284292.0,0.0
0.885344,-8.513663,-1.672583,37.799999,-23.940001,12.74,1729473284311.0,0.0
0.660419,-9.114261,-3.792624,49.700001,-16.450001,16.799999,1729473284329.0,0.0
1.550549,-9.958927,-4.910072,-23.52,10.22,3.29,1729473284349.0,0.0
1.68694,-11.672189,-3.510271,-64.68,24.43,-2.45,1729473284370.0,0.0
0.696311,-13.110275,-2.787638,-17.57,42.490002,-4.55,1729473284392.0,0.0
-0.354138,-10.583455,-0.62692,43.189999,56.139999,-16.940001,1729473284411.0,0.0
-1.37348,-9.590433,0.265603,71.75,60.549999,-16.17,1729473284431.0,0.0
-2.371287,-7.676175,5.022535,48.16,51.450001,-23.309999,1729473284451.0,0.0
-5.690133,-7.190433,9.346365,19.879999,21.07,1.12,1729473284471.0,0.0
-6.582655,-9.470792,5.290531,-33.740002,-16.799999,-12.53,1729473284491.0,0.0
-2.742175,-11.12184,0.602991,-61.25,-57.189999,-23.309999,1729473284511.0,0.0
-0.09332,-10.183852,-0.698704,-23.450001,-50.959999,-10.99,1729473284531.0,0.0
-0.679562,-8.896514,-0.449851,0.91,-26.74,3.29,1729473284550.0,0.0
-1.770689,-9.700503,-0.411566,-6.02,-16.030001,9.73,1729473284570.0,0.0
-1.150948,-11.715261,-1.244268,8.61,-24.92,10.71,1729473284597.0,0.0
-0.095713,-13.117454,-1.540978,81.199997,-25.690001,11.97,1729473284612.0,0.0
-0.808774,-11.365908,-0.200997,186.619995,-4.06,19.18,1729473284629.0,0.0
-2.196611,-9.38465,1.567299,275.799988,3.71,27.790001,1729473284649.0,0.0
-1.292124,-8.331808,2.682354,304.01001,-14.21,29.82,1729473284670.0,0.0
-0.136391,-10.100104,2.603391,295.26001,-39.970001,24.01,1729473284690.0,0.0
0.512064,-10.293922,2.682354,337.470001,-40.110001,28.280001,1729473284710.0,0.0
0.48335,-8.941978,2.885744,402.779999,-16.66,37.939999,1729473284729.0,0.0
-0.153141,-6.884151,4.275974,399.420013,8.47,23.1,1729473284749.0,0.0
-0.567099,-6.24766,6.381658,319.059998,20.23,17.57,1729473284770.0,0.0
0.387637,-6.118448,6.393622,206.639999,28.77,17.57,1729473284790.0,0.0
0.287139,-5.312066,7.159326,122.290001,43.400002,-13.65,1729473284812.0,0.0
-0.382852,-3.172883,8.592626,78.75,52.080002,-27.299999,1729473284829.0,0.0
-1.359123,-1.418944,9.396614,40.040001,48.580002,-23.24,1729473284849.0,0.0
-2.189433,-3.608376,10.157533,15.05,36.259998,-22.610001,1729473284869.0,0.0
-1.464408,-4.615755,10.19821,10.78,26.389999,-26.110001,1729473284890.0,0.0
-1.261017,-4.027121,10.497313,12.04,18.200001,-26.460001,1729473284911.0,0.0
-1.801795,-3.52702,10.612168,7.0,8.26,-25.41,1729473284929.0,0.0
-1.287339,-3.457629,8.55434,-9.45,1.68,-27.09,1729473284950.0,0.0
-1.770689,-2.529213,8.135597,-5.95,1.68,-22.610001,1729473284969.0,0.0
-2.59382,-3.359523,7.704889,4.2,1.68,-16.24,1729473284991.0,0.0
-2.423929,-5.257031,7.350751,0.28,1.75,-13.86,1729473285011.0,0.0
-2.548356,-3.572484,5.998806,9.59,12.88,-16.870001,1729473285029.0,0.0
-3.615555,-3.993621,6.738188,17.639999,25.200001,-12.74,1729473285049.0,0.0
-3.469593,-0.600598,8.872586,15.190001,30.870001,-7.91,1729473285069.0,0.0
-4.302295,-3.476771,9.308081,-1.61,21.49,5.6,1729473285090.0,0.0
-3.641876,-4.400401,9.79143,-7.98,13.3,9.03,1729473285113.0,0.0
-3.069991,-3.182454,9.375079,-8.61,6.44,14.0,1729473285129.0,0.0
-2.239682,-1.375873,9.006584,-19.950001,3.99,21.139999,1729473285149.0,0.0
-1.801795,-1.691726,8.606983,-51.799999,3.29,33.389999,1729473285169.0,0.0
-1.959722,-5.927022,6.922436,-73.639999,-0.28,34.860001,1729473285191.0,0.0
-1.493121,-6.905686,7.195218,-26.32,9.24,31.360001,1729473285221.0,0.0
-2.15354,-4.917251,8.609376,30.380001,18.620001,24.99,1729473285229.0,0.0
-2.122434,-3.046063,9.396614,27.09,16.17,24.780001,1729473285249.0,0.0
-1.636691,-3.818945,8.252845,-13.72,6.16,20.860001,1729473285269.0,0.0
