acc_x,acc_y,acc_z,gyr_x,gyr_y,gyr_z,timestamp,label
-0.875773,-4.613362,-9.028119,6.93,-5.25,-3.29,1729475415793.0,0.0
-0.954736,-4.4339,-8.796017,12.53,-5.18,-2.87,1729475415793.0,0.0
-1.048056,-4.342973,-8.906086,7.28,-7.91,-1.96,1729475415794.0,0.0
-1.11027,-4.713861,-8.877372,0.7,-6.02,-0.28,1729475415810.0,0.0
-1.095913,-4.82393,-8.784052,-0.14,-4.76,-1.12,1729475415831.0,0.0
-0.978664,-4.831109,-9.279366,2.31,-7.0,-2.66,1729475415851.0,0.0
-0.892523,-4.63729,-9.001799,-0.28,-1.89,-4.27,1729475415871.0,0.0
-0.937986,-4.682754,-8.922836,0.91,-1.68,-4.62,1729475415892.0,0.0
-0.870987,-4.275974,-9.049655,3.57,-5.04,-3.92,1729475415912.0,0.0
-0.885344,-4.400401,-9.183653,2.66,-4.55,-2.03,1729475415930.0,0.0
-0.98345,-4.615755,-9.028119,1.75,-3.43,-2.31,1729475415950.0,0.0
-1.198804,-4.565506,-8.786445,0.21,-0.98,-3.85,1729475415971.0,0.0
-1.37348,-4.649254,-8.702696,0.28,-0.77,-4.55,1729475415991.0,0.0
-1.375873,-4.512863,-8.714661,2.52,-2.94,-4.76,1729475416010.0,0.0
-1.45005,-4.465007,-8.676375,0.98,-2.24,-4.34,1729475416034.0,0.0
-1.825724,-4.606184,-8.793623,-2.73,0.56,-2.94,1729475416051.0,0.0
-2.139183,-4.855037,-8.788837,-5.18,2.45,-1.89,1729475416071.0,0.0
-2.359323,-5.039285,-8.798409,-5.04,3.64,-1.05,1729475416092.0,0.0
-2.435893,-5.182854,-8.855836,-1.33,2.17,0.7,1729475416109.0,0.0
-2.40718,-5.405386,-8.793623,-1.33,2.45,1.05,1729475416131.0,0.0
-2.428715,-5.721239,-8.432307,-2.24,4.83,-0.91,1729475416151.0,0.0
-2.364109,-5.74756,-8.334201,0.63,3.29,-3.08,1729475416171.0,0.0
-1.971686,-5.374279,-8.513663,10.64,-2.94,-5.53,1729475416191.0,0.0
-1.782653,-4.900501,-9.042477,22.469999,-7.84,-5.32,1729475416211.0,0.0
-2.342573,-4.244867,-8.848659,28.630001,-0.14,-4.41,1729475416231.0,0.0
-2.435893,-4.517649,-8.128418,25.200001,9.52,-0.7,1729475416251.0,0.0
-1.942972,-5.036892,-8.025528,17.639999,-5.67,-0.7,1729475416270.0,0.0
-1.658226,-5.254639,-8.41795,11.34,-14.42,-1.54,1729475416291.0,0.0
-2.208575,-4.996214,-8.729016,8.12,-3.43,-6.86,1729475416311.0,0.0
-2.943172,-4.632504,-8.382057,12.11,9.52,-8.68,1729475416332.0,0.0
-2.761317,-4.328616,-7.858029,15.33,0.14,-8.33,1729475416351.0,0.0
-2.038685,-4.725825,-8.133204,12.81,-24.780001,-4.48,1729475416371.0,0.0
-1.813759,-5.103891,-8.707481,-2.24,-24.92,-6.86,1729475416393.0,0.0
-2.421536,-5.072784,-8.489735,-10.85,-7.7,-12.04,1729475416411.0,0.0
-2.495714,-4.584648,-8.12124,-7.77,-7.21,-17.15,1729475416431.0,0.0
-1.708475,-4.228118,-8.609376,-3.57,-33.25,-16.17,1729475416451.0,0.0
-0.9667,-4.333402,-9.166903,-10.78,-43.119999,-13.440001,1729475416470.0,0.0
-1.311267,-4.706682,-9.24826,-20.58,-26.530001,-12.88,1729475416493.0,0.0
-1.969293,-4.735396,-8.908479,-18.83,-12.11,-13.3,1729475416511.0,0.0
-1.734797,-4.35733,-8.843873,-14.84,-23.66,-14.21,1729475416531.0,0.0
-1.100698,-4.208975,-9.322437,-20.58,-38.009998,-15.12,1729475416550.0,0.0
-1.473979,-4.725825,-9.468399,-29.049999,-27.23,-17.710001,1729475416572.0,0.0
-1.919044,-5.108676,-9.073583,-14.77,-10.71,-22.469999,1729475416591.0,0.0
-1.600798,-4.931608,-8.870193,5.88,-17.5,-28.49,1729475416611.0,0.0
-0.959522,-4.486543,-9.224331,23.52,-31.08,-32.41,1729475416632.0,0.0
-0.818345,-4.173083,-9.853643,18.48,-30.870001,-37.380001,1729475416650.0,0.0
-1.205983,-4.175476,-9.485149,-5.95,-16.17,-40.599998,1729475416670.0,0.0
-1.519442,-4.59422,-8.688338,-29.82,-8.26,-41.860001,1729475416691.0,0.0
-1.29691,-5.075177,-8.427521,-38.57,-13.72,-43.889999,1729475416711.0,0.0
-0.588634,-5.094319,-9.016156,-33.880001,-26.67,-46.830002,1729475416730.0,0.0
-0.200997,-4.790431,-9.810574,-35.07,-29.4,-46.970001,1729475416750.0,0.0
-0.20339,-4.500899,-9.633504,-45.43,-19.6,-45.849998,1729475416771.0,0.0
-0.459422,-4.666004,-9.274581,-53.41,-12.39,-41.580002,1729475416794.0,0.0
-0.189033,-5.091926,-8.896514,-47.389999,-11.76,-36.189999,1729475416812.0,0.0
0.344566,-5.28096,-8.748159,-22.120001,-12.74,-28.700001,1729475416831.0,0.0
0.693919,-5.321638,-9.245867,13.09,-12.67,-23.1,1729475416850.0,0.0
0.725025,-4.675575,-9.437292,35.560001,-6.09,-18.620001,1729475416870.0,0.0
0.301496,-4.074977,-9.102298,35.279999,8.33,-15.12,1729475416891.0,0.0
-0.710668,-4.237689,-8.752945,7.28,24.219999,-9.1,1729475416910.0,0.0
-1.033699,-4.82393,-8.867801,-1.19,29.68,-6.09,1729475416931.0,0.0
-1.189233,-5.008178,-8.822337,5.39,27.440001,-6.16,1729475416950.0,0.0
-1.284946,-4.553542,-8.908479,8.89,23.870001,-8.89,1729475416971.0,0.0
-1.505085,-4.118048,-8.788837,1.33,23.030001,-10.43,1729475416994.0,0.0
-1.770689,-4.189832,-8.408379,-14.07,23.17,-10.43,1729475417009.0,0.0
-1.832902,-4.862216,-8.484949,-22.33,17.15,-9.66,1729475417033.0,0.0
-1.581656,-5.266603,-8.54477,-15.75,9.59,-10.22,1729475417050.0,0.0
-1.543371,-5.28096,-8.303094,-0.42,7.91,-11.48,1729475417071.0,0.0
-1.631905,-4.962714,-8.367701,10.43,5.67,-14.63,1729475417093.0,0.0
-1.581656,-5.429315,-8.477771,31.5,2.94,-14.42,1729475417110.0,0.0
-1.438086,-6.228518,-8.721838,72.660004,-0.7,-10.64,1729475417130.0,0.0
-1.339981,-6.032306,-8.717053,107.379997,-3.22,-8.47,1729475417150.0,0.0
-1.205983,-5.276174,-7.948956,102.690002,1.33,-10.36,1729475417171.0,0.0
-0.882952,-5.266603,-8.01117,74.690002,-3.43,-7.84,1729475417193.0,0.0
-0.031107,-4.051049,-8.159525,35.77,-12.6,-7.21,1729475417210.0,0.0
0.619741,-3.684947,-8.537591,-13.440001,-15.26,-0.7,1729475417230.0,0.0
0.803988,-5.491528,-9.339187,-66.080002,-6.09,1.68,1729475417249.0,0.0
1.105484,-7.022934,-9.887143,-33.880001,-5.18,0.56,1729475417270.0,0.0
1.117448,-6.860222,-8.989835,55.369999,5.74,1.26,1729475417294.0,0.0
0.725025,-6.183054,-8.944371,164.919998,5.88,3.36,1729475417309.0,0.0
0.435494,-4.177868,-8.729016,184.100006,-1.33,-2.94,1729475417331.0,0.0
0.586242,-1.85683,-8.042276,43.889999,6.58,-14.21,1729475417351.0,0.0
0.607777,-4.709075,-9.710074,-110.18,15.12,-1.05,1729475417370.0,0.0
0.823131,-11.346765,-12.382857,-98.139999,33.950001,14.07,1729475417391.0,0.0
1.002593,-14.165509,-13.643874,140.910004,33.32,23.379999,1729475417410.0,0.0
1.129412,-9.226725,-9.145369,423.779999,56.98,9.1,1729475417430.0,0.0
0.708275,-5.352744,-6.479764,523.950012,72.449997,-0.91,1729475417450.0,0.0
0.059821,-6.448657,-4.706682,506.799988,72.730003,0.07,1729475417470.0,0.0
0.851845,-8.882158,-5.070391,512.539978,56.98,-6.37,1729475417493.0,0.0
1.052842,-8.262416,-2.48375,552.090027,62.860001,-1.4,1729475417509.0,0.0
-0.184247,-6.12084,-0.531207,571.059998,63.07,2.17,1729475417531.0,0.0
-1.596013,-5.424529,3.510271,535.429993,61.529999,-6.16,1729475417551.0,0.0
-0.957129,-1.249053,6.798009,406.630005,42.07,-10.71,1729475417570.0,0.0
-3.146562,-1.940579,5.039285,79.870003,30.380001,8.82,1729475417593.0,0.0
-2.938386,-9.317651,2.854637,-148.610001,-25.200001,1.68,1729475417610.0,0.0
-0.440279,-15.256638,1.191626,-209.580002,-32.830002,-0.77,1729475417631.0,0.0
0.471386,-14.986248,3.529413,1.61,11.97,14.91,1729475417651.0,0.0
0.227318,-8.549555,5.192425,163.029999,36.330002,4.62,1729475417671.0,0.0
-0.40678,-4.283153,5.694918,117.529999,32.200001,3.57,1729475417690.0,0.0
-0.921237,-4.283153,5.20439,-8.75,12.74,7.42,1729475417710.0,0.0
-1.378266,-8.743374,2.411965,-128.589996,-7.7,5.95,1729475417729.0,0.0
-0.665205,-11.633904,2.54357,-139.649994,-14.14,-2.31,1729475417750.0,0.0
-0.62692,-10.030712,4.321437,-39.900002,-3.71,21.91,1729475417770.0,0.0
-1.215554,-6.087341,5.761917,17.85,-3.85,14.77,1729475417790.0,0.0
-1.732404,-3.285345,5.62074,-44.310001,-18.200001,26.530001,1729475417809.0,0.0
-1.689333,-3.041277,4.158726,-206.570007,-32.759998,37.52,1729475417831.0,0.0
-1.828116,-4.692325,1.344766,-447.860016,-48.580002,32.200001,1729475417849.0,0.0
-2.328217,-7.233503,-3.658626,-684.460022,-68.879997,17.92,1729475417870.0,0.0
-2.376073,-9.454042,-6.687939,-783.090027,-92.050003,4.27,1729475417891.0,0.0
-0.504886,-7.133004,-13.119846,-811.440002,-86.239998,-9.87,1729475417910.0,0.0
1.349552,-10.444671,-15.826129,-540.400024,-35.560001,-17.43,1729475417930.0,0.0
0.803988,-8.908479,-15.797415,-196.630005,-6.3,-0.91,1729475417950.0,0.0
1.115055,-5.948557,-12.256038,6.02,20.02,0.14,1729475417970.0,0.0
-0.248854,-3.845266,-8.757731,20.58,49.700001,22.82,1729475417991.0,0.0
-0.748954,-2.536392,-5.69731,-78.470001,42.0,3.15,1729475418010.0,0.0
-1.244268,-2.847459,-4.74736,-225.75,16.17,-17.01,1729475418034.0,0.0
-1.875973,-6.556334,-9.535398,-236.949997,-14.77,-7.21,1729475418050.0,0.0
-1.986043,-5.979663,-13.055241,-82.599998,-6.93,14.56,1729475418070.0,0.0
-1.78026,-3.144169,-10.944772,15.82,20.51,20.16,1729475418091.0,0.0
-1.864009,-3.194418,-7.310073,2.87,27.23,32.200001,1729475418109.0,0.0
-1.588834,-5.84088,-4.161119,-88.690002,5.53,7.42,1729475418131.0,0.0
0.528814,-6.814759,-6.477371,-88.760002,-57.889999,-14.21,1729475418149.0,0.0
-0.014357,-5.288138,-8.714661,-17.01,-48.509998,-24.01,1729475418170.0,0.0
-1.945365,-3.211168,-9.990034,9.8,-34.23,-26.530001,1729475418191.0,0.0
-1.878366,-1.782653,-10.963913,-42.630001,-42.560001,-26.74,1729475418210.0,0.0
-2.306681,-1.179662,-9.970891,-118.160004,-29.75,-31.08,1729475418230.0,0.0
-3.163311,-2.266003,-10.554741,-114.590004,-29.4,-18.41,1729475418249.0,0.0
-2.979064,-1.115055,-11.13859,-47.599998,-30.66,-3.08,1729475418271.0,0.0
-3.835695,-1.371087,-10.944772,14.21,-9.17,17.219999,1729475418290.0,0.0
-2.435893,-2.632105,-7.180861,46.34,-6.65,25.83,1729475418311.0,0.0
-1.663012,-0.978664,-11.626726,18.690001,-22.540001,17.5,1729475418330.0,0.0
-3.053242,-1.514657,-13.344771,4.41,4.2,15.68,1729475418350.0,0.0
-1.887937,-0.4666,-10.650455,-14.63,9.03,16.17,1729475418370.0,0.0
-0.299103,-2.720639,-8.178668,-28.91,1.61,22.049999,1729475418392.0,0.0
0.79681,-6.534799,-6.754939,-34.439999,-7.91,18.620001,1729475418409.0,0.0
0.55992,-8.973085,-7.69771,-49.490002,-14.07,-11.13,1729475418430.0,0.0
-2.888137,-8.408379,-8.530413,5.18,-6.44,-31.01,1729475418449.0,0.0
-2.847459,-6.104091,-10.490135,119.699997,-10.08,-38.709999,1729475418469.0,0.0
-1.90708,-1.423729,-9.678967,131.389999,-18.83,-28.77,1729475418492.0,0.0
-2.656033,0.600598,-8.269595,-11.2,-10.22,-32.200001,1729475418509.0,0.0
-4.859823,-1.160519,-7.489535,-147.630005,-25.34,-29.33,1729475418530.0,0.0
-4.553542,-3.859623,-13.45245,-108.639999,-39.200001,-17.780001,1729475418551.0,0.0
-1.971686,0.899701,-12.234503,41.439999,-11.83,3.71,1729475418569.0,0.0
-1.799403,2.634498,-10.777272,113.120003,20.93,21.42,1729475418590.0,0.0
-3.254239,0.732204,-9.975677,5.95,38.990002,21.700001,1729475418610.0,0.0
-2.56032,-2.624927,-8.446664,-71.959999,20.299999,13.37,1729475418629.0,0.0
-0.275175,-6.072984,-9.372685,-45.57,-8.68,15.47,1729475418651.0,0.0
0.488136,-7.130611,-10.51167,13.58,10.5,-0.14,1729475418670.0,0.0
0.732204,-5.508278,-7.018148,68.389999,20.02,-14.49,1729475418690.0,0.0
-0.157926,-2.143969,-6.293124,86.590004,6.37,-13.86,1729475418710.0,0.0
-3.330809,-2.931208,-7.334002,43.889999,12.6,-4.69,1729475418729.0,0.0
-2.646462,-5.678168,-10.518847,9.24,-29.889999,-5.95,1729475418750.0,0.0
-2.141576,-7.738388,-10.566705,81.830002,-30.24,3.57,1729475418769.0,0.0
-3.010171,-3.842873,-13.866407,110.18,2.52,-10.22,1729475418792.0,0.0
-3.830909,0.332602,-9.300901,88.480003,22.889999,-5.53,1729475418808.0,0.0
-2.988636,-1.488336,-6.056234,31.639999,32.549999,2.03,1729475418831.0,0.0
-0.722632,0.37328,-8.49452,-26.18,-19.950001,21.07,1729475418850.0,0.0
-1.871187,-2.251646,-10.380065,-28.559999,3.78,35.490002,1729475418869.0,0.0
-3.900301,-5.513064,-10.217353,6.65,17.639999,36.540001,1729475418890.0,0.0
-2.206182,-1.794617,-7.271788,-5.25,20.58,8.96,1729475418910.0,0.0
-0.090927,-5.103891,-4.723432,-81.760002,-7.91,-9.94,1729475418930.0,0.0
0.741775,-9.025726,-7.647461,-78.470001,-43.889999,-20.58,1729475418950.0,0.0
-1.545763,-7.980063,-7.989635,27.58,-17.219999,-33.389999,1729475418971.0,0.0
-1.9669,-5.199604,-9.178867,75.669998,-27.370001,-47.18,1729475418990.0,0.0
-3.960121,-0.447458,-8.657232,20.299999,-20.370001,-45.920002,1729475419009.0,0.0
-5.292924,-1.801795,-12.100503,-24.5,-24.780001,-27.790001,1729475419032.0,0.0
-5.302495,-1.311267,-13.914263,-25.200001,-13.16,3.99,1729475419050.0,0.0
-4.845466,-1.205983,-13.019348,21.77,18.83,27.16,1729475419069.0,0.0
-1.564906,-3.962514,-7.846066,82.809998,2.45,31.219999,1729475419090.0,0.0
-0.217747,-0.555135,-11.32523,49.209999,0.28,19.460001,1729475419108.0,0.0
-1.756332,0.421137,-10.392029,-11.2,47.25,20.860001,1729475419130.0,0.0
-2.615355,-5.192425,-5.407779,-87.220001,50.189999,22.889999,1729475419149.0,0.0
1.672583,-9.968499,-3.811767,-120.470001,-18.200001,8.96,1729475419170.0,0.0
3.912265,-11.724831,-5.69731,-67.620003,-41.650002,-10.08,1729475419190.0,0.0
-2.055435,-7.609176,-9.915856,7.91,8.61,-44.029999,1729475419209.0,0.0
-6.599405,-4.34058,-9.590433,37.170002,34.299999,-47.670002,1729475419230.0,0.0
-1.775474,-3.395415,-8.537591,31.219999,-9.94,-37.450001,1729475419249.0,0.0
1.043271,-2.18704,-6.69751,74.129997,-69.580002,-19.530001,1729475419269.0,0.0
-1.749153,-0.40678,-10.593026,45.220001,-20.16,-23.24,1729475419290.0,0.0
-5.268995,-1.639083,-13.493127,-65.660004,-3.64,-24.08,1729475419309.0,0.0
-6.778866,-2.634498,-13.74198,-66.709999,26.25,-5.53,1729475419331.0,0.0
-4.790431,-3.225525,-10.79163,37.73,12.39,17.01,1729475419350.0,0.0
-2.053042,-0.882952,-11.274981,93.029999,23.17,19.18,1729475419369.0,0.0
-2.426322,0.519243,-12.624532,74.620003,37.170002,24.15,1729475419392.0,0.0
-2.462214,1.399801,-3.806981,-2.17,73.779999,23.309999,1729475419409.0,0.0
-2.062613,-4.386044,-6.872187,-76.790001,26.040001,34.23,1729475419429.0,0.0
0.818345,-7.336394,-5.017749,-130.830002,-10.71,20.58,1729475419448.0,0.0
3.20399,-11.217552,-4.096512,-80.220001,-20.440001,11.41,1729475419469.0,0.0
0.380459,-9.073583,-9.437292,-45.779999,-17.5,-26.74,1729475419491.0,0.0
-4.371687,-7.288538,-9.205189,25.620001,23.799999,-42.349998,1729475419510.0,0.0
-2.986243,-4.369294,-7.9011,43.400002,-25.549999,-47.459999,1729475419530.0,0.0
-0.119641,-4.197011,-10.29153,67.760002,-66.5,-35.349998,1729475419549.0,0.0
-5.223531,-1.014557,-14.459827,12.95,-29.82,-39.41,1729475419570.0,0.0
-7.60439,-0.256032,-14.112868,-70.349998,27.93,-23.17,1729475419592.0,0.0
-7.290931,-1.603191,-11.837293,24.43,31.219999,14.07,1729475419609.0,0.0
-2.689533,-2.050649,-9.219545,122.989998,7.14,34.860001,1729475419637.0,0.0
-0.299103,1.641476,-11.727223,100.029999,-3.57,29.4,1729475419648.0,0.0
-1.694118,2.069792,-8.535198,31.99,56.209999,37.170002,1729475419670.0,0.0
-3.440879,-2.95035,-7.02772,-9.8,65.800003,50.610001,1729475419694.0,0.0
-1.667797,-5.414958,-9.489935,-68.32,17.5,39.830002,1729475419709.0,0.0
2.072184,-9.377472,-2.538785,-81.269997,10.5,25.129999,1729475419729.0,0.0
4.68754,-11.971292,-3.797409,-65.379997,-39.689999,-2.45,1729475419749.0,0.0
-0.327817,-9.736395,-8.709875,-12.88,-1.54,-47.32,1729475419769.0,0.0
-2.775674,-6.290731,-8.752945,53.830002,-5.11,-60.830002,1729475419790.0,0.0
-0.323031,-4.31426,-8.714661,102.900002,-50.470001,-43.959999,1729475419810.0,0.0
-1.478764,-0.947558,-7.049256,87.779999,-72.099998,-29.190001,1729475419829.0,0.0
-5.056034,-0.124427,-15.991233,-12.11,-4.27,-32.200001,1729475419848.0,0.0
-9.97807,-4.345366,-11.899508,-87.709999,42.349998,-11.83,1729475419870.0,0.0
-5.111069,-4.41715,-9.559326,57.82,8.47,17.08,1729475419892.0,0.0
-0.009571,-0.284746,-11.444871,96.18,-22.4,19.18,1729475419912.0,0.0
0.26321,1.844866,-8.673983,49.209999,29.33,23.030001,1729475419930.0,0.0
-2.388037,-1.552942,-6.008378,-17.08,68.459999,35.279999,1729475419949.0,0.0
-2.706282,-5.62074,-10.363315,-72.660004,35.490002,31.85,1729475419971.0,0.0
0.323031,-6.795617,-3.584448,-113.82,8.82,14.21,1729475419994.0,0.0
4.189832,-11.102697,-2.440679,-61.32,-33.810001,11.06,1729475420010.0,0.0
1.646262,-10.04507,-8.628519,-29.120001,-28.0,-25.059999,1729475420033.0,0.0
-3.251846,-7.65464,-8.843873,37.73,14.42,-51.52,1729475420051.0,0.0
-2.711068,-4.835894,-8.599805,75.739998,-31.08,-48.02,1729475420070.0,0.0
0.045464,-2.249253,-11.822936,56.77,-77.0,-38.150002,1729475420092.0,0.0
-2.885744,0.973879,-11.119448,-23.030001,-40.25,-29.190001,1729475420110.0,0.0
-6.994221,-2.088934,-14.127225,-54.670002,39.130001,-13.79,1729475420132.0,0.0
-8.587841,-3.924229,-13.237095,-4.69,45.639999,15.4,1729475420151.0,0.0
-2.009971,-1.579263,-8.798409,101.220001,23.59,36.889999,1729475420171.0,0.0
0.117248,-0.849452,-9.504292,113.68,-12.46,35.139999,1729475420191.0,0.0
-1.808974,-0.370888,-7.82453,46.48,63.07,37.029999,1729475420210.0,0.0
-3.725625,-3.78066,-8.190632,9.45,76.580002,44.310001,1729475420234.0,0.0
-2.15354,-5.005785,-7.625926,-72.730003,20.65,27.790001,1729475420251.0,0.0
1.598405,-9.549755,-3.419343,-81.199997,8.96,17.57,1729475420270.0,0.0
4.656433,-10.942378,-3.101098,-48.93,-27.16,-1.26,1729475420293.0,0.0
0.069392,-8.310273,-8.432307,21.35,-7.7,-42.07,1729475420311.0,0.0
-3.481557,-5.529813,-8.346166,53.760002,9.94,-49.420002,1729475420332.0,0.0
-1.895115,-3.804588,-7.927422,49.209999,-37.450001,-38.150002,1729475420355.0,0.0
0.634098,-3.038885,-9.647861,0.84,-81.199997,-26.74,1729475420371.0,0.0
-2.897708,-2.388037,-12.574283,-86.169998,-42.84,-28.0,1729475420394.0,0.0
-7.243074,-4.35733,-16.362122,-86.029999,51.170002,-17.57,1729475420412.0,0.0
-7.972885,-3.574877,-11.705689,53.760002,39.200001,15.68,1729475420431.0,0.0
-3.337988,-3.172883,-6.690332,145.880005,23.940001,37.73,1729475420451.0,0.0
-0.066999,-1.160519,-9.229117,97.650002,-12.04,23.66,1729475420471.0,0.0
-2.165504,-1.998007,-7.752745,-15.75,62.510002,18.48,1729475420493.0,0.0
-3.002992,-4.993821,-8.353344,-59.920002,46.619999,22.26,1729475420511.0,0.0
-0.160319,-5.728417,-6.486942,-101.5,7.35,9.66,1729475420532.0,0.0
2.935993,-7.633104,-4.197011,-90.370003,-8.54,2.87,1729475420551.0,0.0
3.113062,-8.51127,-5.551349,-34.439999,-19.18,-6.37,1729475420572.0,0.0
-1.392623,-6.312266,-7.688138,8.89,-9.03,-32.900002,1729475420593.0,0.0
-3.227918,-4.558327,-7.819745,-9.52,-7.56,-41.720001,1729475420612.0,0.0
-1.598405,-1.663012,-10.004392,-97.230003,-59.290001,-45.5,1729475420632.0,0.0
-1.935793,-0.981057,-14.543575,-150.360001,-58.099998,-24.780001,1729475420651.0,0.0
-5.912664,-3.481557,-12.918849,-97.580002,19.530001,7.7,1729475420672.0,0.0
-7.300502,-2.414358,-13.914263,12.04,26.6,17.43,1729475420693.0,0.0
-5.012963,-1.351945,-10.128819,80.290001,27.09,29.190001,1729475420713.0,0.0
-0.674776,-1.430908,-6.151947,26.040001,-1.33,9.87,1729475420801.0,0.0
0.497707,-2.266003,-5.958128,-52.849998,-16.52,6.37,1729475420807.0,0.0
-0.842274,-2.184647,-6.936793,-66.639999,5.39,2.73,1729475420838.0,0.0
-1.335195,-2.074577,-9.509077,-57.610001,-10.36,9.45,1729475420838.0,0.0
-0.555135,-4.158726,-10.423136,-63.700001,-17.43,12.81,1729475420839.0,0.0
-0.416351,-5.821737,-9.62154,-42.490002,-10.71,3.99,1729475420839.0,0.0
-2.091327,-5.793024,-9.848858,-9.03,0.98,-12.11,1729475420850.0,0.0
-3.223132,-5.972485,-9.186047,41.580002,11.97,-20.440001,1729475420871.0,0.0
-1.354338,-4.694718,-9.391829,83.300003,-17.710001,-22.960001,1729475420892.0,0.0
-0.782453,-1.442872,-9.35833,83.93,-25.34,-18.200001,1729475420911.0,0.0
-3.570091,-0.428315,-11.4353,28.35,8.4,-6.79,1729475420931.0,0.0
-5.69731,-2.139183,-12.97867,-10.43,25.83,0.84,1729475420951.0,0.0
-4.917251,-2.596212,-11.042876,17.780001,25.41,8.68,1729475420973.0,0.0
-0.854238,-1.337588,-7.278966,51.59,-6.16,7.77,1729475421009.0,0.0
1.074377,-0.002393,-8.023134,25.129999,-21.42,4.62,1729475421014.0,0.0
-1.787439,-1.325624,-8.317451,-6.09,19.110001,15.12,1729475421034.0,0.0
-3.907479,-3.52702,-9.245867,-10.5,38.290001,20.790001,1729475421051.0,0.0
-2.813959,-4.847858,-9.430114,-5.11,5.39,19.67,1729475421072.0,0.0
0.29671,-4.969893,-8.260024,-24.01,-8.47,1.89,1729475421092.0,0.0
1.864009,-6.860222,-7.475177,-9.38,-18.83,-3.5,1729475421110.0,0.0
-0.725025,-7.953743,-8.310273,46.200001,0.14,-11.27,1729475421132.0,0.0
-2.237289,-4.070191,-8.341379,100.519997,5.04,-30.030001,1729475421151.0,0.0
-3.213561,-2.404787,-7.838887,81.830002,-27.299999,-17.360001,1729475421171.0,0.0
-5.046463,-2.818745,-13.466805,7.35,-0.49,-12.18,1729475421192.0,0.0
-6.446264,-4.295116,-14.136796,-15.12,25.9,0.63,1729475421211.0,0.0
-4.254438,-3.649055,-9.712467,60.900002,23.309999,10.5,1729475421231.0,0.0
-0.143569,-0.653241,-9.073583,136.289993,-6.58,20.65,1729475421253.0,0.0
0.205783,1.06002,-7.049256,114.099998,3.08,23.73,1729475421281.0,0.0
-1.868794,-1.349552,-5.831308,7.49,45.920002,28.559999,1729475421292.0,0.0
-2.679961,-6.269196,-6.678369,-64.120003,18.27,26.040001,1729475421311.0,0.0
0.323031,-7.200003,-5.13739,-66.919998,-24.08,15.96,1729475421331.0,0.0
1.928615,-9.772287,-7.738388,-26.110001,-39.759998,4.69,1729475421351.0,0.0
-0.528814,-8.599805,-7.688138,-38.849998,-14.7,-32.34,1729475421371.0,0.0
-2.189433,-7.688138,-9.999605,-21.35,-26.25,-48.720001,1729475421392.0,0.0
-4.06062,-6.156733,-9.054441,13.3,-33.32,-49.07,1729475421411.0,0.0
-4.922036,-4.299902,-13.624733,45.150002,-15.89,-41.439999,1729475421432.0,0.0
-4.883751,-2.622534,-13.48834,49.420002,3.43,-18.9,1729475421455.0,0.0
-2.672783,-3.680161,-8.477771,60.689999,30.24,-2.94,1729475421544.0,0.0
-1.086342,-2.758924,-9.930215,91.419998,19.18,16.24,1729475421545.0,0.0
-2.103291,-1.990828,-6.946364,91.980003,56.98,16.59,1729475421545.0,0.0
-3.318845,-2.749353,-3.744767,30.24,59.849998,13.72,1729475421545.0,0.0
-1.976472,-5.283352,-4.843073,-15.26,10.71,15.54,1729475421552.0,0.0
1.277767,-6.235696,-5.362316,-20.370001,-24.290001,12.25,1729475421570.0,0.0
1.643869,-9.45165,-6.238089,-3.22,-32.27,8.54,1729475421595.0,0.0
-1.22034,-9.085547,-6.52762,-31.92,-10.22,-30.17,1729475421610.0,0.0
-2.07697,-7.805387,-7.087541,-12.95,-32.619999,-40.18,1729475421631.0,0.0
-2.201397,-6.309873,-7.475177,-25.41,-52.920002,-43.400002,1729475421650.0,0.0
-4.438686,-3.945765,-13.138988,-54.32,-19.110001,-39.200001,1729475421678.0,0.0
-5.54417,-4.998606,-15.239887,4.41,-9.66,-10.85,1729475421693.0,0.0
-4.658825,-4.031906,-12.162716,86.870003,31.219999,8.4,1729475421711.0,0.0
-2.421536,-3.058028,-6.989435,110.949997,39.41,20.51,1729475421735.0,0.0
-0.713061,-2.347359,-8.539984,52.290001,15.82,13.3,1729475421751.0,0.0
-1.885544,-4.587041,-5.9342,8.12,37.59,13.65,1729475421772.0,0.0
-1.244268,-5.716454,-3.854837,-18.9,28.84,15.54,1729475421793.0,0.0
0.995414,-3.725625,-4.034299,-45.080002,-0.35,10.85,1729475421812.0,0.0
1.438086,-7.975278,-5.642276,-57.75,-20.09,17.92,1729475421832.0,0.0
-1.17009,-11.330014,-8.061419,-64.330002,-23.379999,-4.69,1729475421852.0,0.0
-3.151347,-10.231709,-7.197611,-9.66,-9.59,-31.08,1729475421872.0,0.0
-1.071985,-6.881758,-6.896115,43.330002,-48.02,-32.970001,1729475421895.0,0.0
-2.225325,-4.766503,-6.601797,3.64,-52.779999,-44.52,1729475421913.0,0.0
-5.383851,-4.515256,-13.998013,-38.360001,-14.14,-35.91,1729475421933.0,0.0
-6.295516,-5.649454,-15.096318,15.33,-2.17,-6.16,1729475421952.0,0.0
-5.302495,-4.524827,-12.265609,126.910004,40.670002,18.549999,1729475421972.0,0.0
-2.438286,-3.443272,-6.173482,157.289993,44.939999,22.82,1729475421994.0,0.0
-0.87338,-0.894916,-8.516055,63.209999,18.76,11.06,1729475422012.0,0.0
-1.332802,-1.875973,-7.793423,-14.63,42.98,16.309999,1729475422036.0,0.0
-1.648655,-5.374279,-2.811567,-61.32,41.299999,26.25,1729475422052.0,0.0
0.473779,-6.776474,-3.9338,-66.779999,7.28,31.43,1729475422073.0,0.0
2.95035,-11.277373,-4.04387,-39.759998,-10.64,31.710001,1729475422093.0,0.0
-1.064806,-12.227324,-5.979663,-39.27,-24.710001,-9.59,1729475422112.0,0.0
-3.732803,-10.537991,-6.302694,-9.73,-29.120001,-41.09,1729475422134.0,0.0
-1.744368,-6.625726,-9.23151,40.32,-66.779999,-38.290001,1729475422156.0,0.0
-4.106083,-4.096512,-8.848659,19.530001,-52.220001,-39.970001,1729475422173.0,0.0
-7.106683,-4.156333,-16.02952,-20.02,3.57,-23.870001,1729475422194.0,0.0
-6.850651,-5.364708,-16.125233,23.450001,14.56,2.03,1729475422213.0,0.0
-3.773481,-5.558527,-9.279366,135.029999,45.639999,22.049999,1729475422235.0,0.0
-0.693919,-4.419543,-6.685547,179.830002,35.700001,20.299999,1729475422254.0,0.0
-0.535992,-2.761317,-4.912465,109.830002,35.700001,-3.43,1729475422274.0,0.0
-1.050449,-2.675175,-1.935793,-5.74,37.450001,-2.59,1729475422295.0,0.0
0.222532,-5.737988,-3.223132,-86.379997,-2.94,7.56,1729475422313.0,0.0
1.567299,-6.58744,-2.835495,-113.260002,-22.4,12.32,1729475422334.0,0.0
0.136391,-11.679367,-7.606783,-80.080002,-40.529999,14.56,1729475422353.0,0.0
-3.366701,-11.181661,-6.283553,-93.029999,-21.91,-34.369999,1729475422373.0,0.0
-0.949951,-10.035499,-7.463214,16.1,-77.139999,-42.700001,1729475422398.0,0.0
-3.57727,-4.007978,-9.154939,19.67,-50.049999,-58.170002,1729475422413.0,0.0
-5.82413,-4.309474,-15.304493,46.689999,-27.58,-21.77,1729475422433.0,0.0
-6.948757,-6.223732,-14.679967,59.290001,18.83,0.28,1729475422453.0,0.0
-6.111269,-5.87438,-10.954341,101.989998,58.029999,7.56,1729475422473.0,0.0
-2.411965,-4.335794,-6.776474,115.080002,50.610001,2.8,1729475422494.0,0.0
-0.550349,-1.299303,-8.360522,22.610001,38.639999,-13.86,1729475422514.0,0.0
-0.023928,-1.524228,-5.099105,-42.560001,49.279999,4.55,1729475422533.0,0.0
0.043071,-4.26401,0.997807,-90.370003,47.599998,20.93,1729475422553.0,0.0
0.662812,-7.386643,-2.057827,-91.629997,-0.21,28.77,1729475422574.0,0.0
0.902094,-14.199009,-4.158726,-39.830002,-35.279999,19.32,1729475422594.0,0.0
-1.713261,-13.679767,-6.910471,-39.200001,-35.0,-28.210001,1729475422613.0,0.0
-1.435694,-8.970692,-6.690332,21.07,-45.290001,-37.52,1729475422634.0,0.0
-2.282753,-6.79083,-5.07757,23.309999,-52.57,-39.689999,1729475422653.0,0.0
-5.618347,-3.184847,-10.236496,-38.360001,-24.08,-41.16,1729475422674.0,0.0
-7.049256,-5.577669,-16.350157,-20.16,-16.309999,-17.5,1729475422695.0,0.0
-5.036892,-5.213961,-13.014563,39.900002,23.309999,0.63,1729475422713.0,0.0
-1.753939,-4.62054,-6.903293,130.199997,56.139999,16.379999,1729475422733.0,0.0
0.0335,-2.385644,-6.429514,62.23,36.959999,1.89,1729475422754.0,0.0
-0.40678,-1.957329,-6.163911,-18.9,55.650002,5.6,1729475422773.0,0.0
-0.861416,-4.771288,0.662812,-77.489998,55.860001,21.629999,1729475422794.0,0.0
-0.239282,-6.417551,-1.591227,-98.980003,15.05,24.290001,1729475422814.0,0.0
0.940379,-9.798609,-1.371087,-71.050003,-18.620001,28.0,1729475422833.0,0.0
-0.327817,-13.27538,-7.109076,-54.529999,-53.41,5.46,1729475422854.0,0.0
-2.914458,-10.906486,-8.520842,-56.98,-25.27,-37.59,1729475422873.0,0.0
-1.117448,-6.951149,-8.329416,10.36,-55.580002,-26.809999,1729475422894.0,0.0
-1.490728,-5.955735,-9.561719,35.77,-51.240002,-23.66,1729475422912.0,0.0
-5.32403,-5.462814,-10.289137,24.08,-1.33,-14.28,1729475422934.0,0.0
-6.135197,-5.575277,-13.667803,34.720001,10.15,-2.52,1729475422953.0,0.0
-4.565506,-4.744967,-12.105289,42.279999,25.059999,7.28,1729475422973.0,0.0
-2.40718,-3.883551,-8.937192,59.920002,39.48,14.77,1729475422995.0,0.0
-0.51685,-5.472386,-7.750352,70.769997,28.98,19.6,1729475423012.0,0.0
-1.045663,-6.522834,-8.310273,42.07,50.119999,7.7,1729475423036.0,0.0
-2.163112,-5.458029,-1.564906,-4.62,69.860001,3.43,1729475423054.0,0.0
-0.413958,-6.202196,-3.17049,-55.23,13.79,10.43,1729475423073.0,0.0
0.880559,-6.970293,-1.40698,-79.449997,1.89,5.88,1729475423093.0,0.0
0.39003,-10.96152,-6.26441,-72.940002,-32.34,6.44,1729475423112.0,0.0
-2.916851,-11.16491,-8.087741,-73.709999,-11.2,-30.870001,1729475423133.0,0.0
-2.74696,-8.394022,-7.319644,-2.45,-21.0,-33.810001,1729475423152.0,0.0
1.325624,-6.278766,-6.530013,78.68,-59.010002,-22.610001,1729475423173.0,0.0
1.146162,-5.656632,-7.750352,101.080002,-64.120003,-17.08,1729475423194.0,0.0
-3.055635,-5.201996,-10.370493,60.689999,-13.440001,-17.780001,1729475423212.0,0.0
-5.410172,-4.895715,-9.96132,1.75,8.82,-7.21,1729475423234.0,0.0
-5.776274,-6.041877,-8.056634,-46.689999,3.22,-2.45,1729475423252.0,0.0
-5.149354,-7.267002,-6.080163,-56.279999,-2.8,1.12,1729475423273.0,0.0
-3.634698,-8.085347,-5.048856,-20.719999,-19.6,-4.62,1729475423294.0,0.0
-2.423929,-7.846066,-4.800002,17.360001,-31.08,-13.440001,1729475423312.0,0.0
-2.366502,-8.12124,-6.429514,42.07,-40.18,-25.27,1729475423333.0,0.0
-2.775674,-7.793423,-7.89153,67.690002,-33.389999,-33.529999,1729475423353.0,0.0
-1.22034,-7.606783,-10.652846,144.759995,-33.110001,-20.790001,1729475423373.0,0.0
-0.12682,-8.420342,-10.210175,239.680008,-17.92,9.24,1729475423394.0,0.0
-0.512064,-9.157332,-8.025528,273.420013,30.030001,7.28,1729475423413.0,0.0
-1.72044,-8.673983,-6.269196,222.110001,52.709999,-3.57,1729475423433.0,0.0
-2.254039,-7.946564,-5.414958,160.789993,50.259998,-10.29,1729475423452.0,0.0
-1.933401,-8.408379,-6.082555,123.270004,41.09,-17.57,1729475423473.0,0.0
-1.600798,-9.583255,-5.489135,130.199997,38.57,-21.91,1729475423495.0,0.0
-0.866202,-10.238889,-4.910072,167.860001,49.209999,-28.91,1729475423512.0,0.0
-1.272982,-9.10469,-2.720639,201.25,72.940002,-29.889999,1729475423533.0,0.0
-1.660619,-8.405986,-1.11027,219.240005,70.139999,-29.960001,1729475423552.0,0.0
-1.473979,-7.977671,-0.222532,204.680008,54.389999,-28.49,1729475423573.0,0.0
-1.435694,-7.740781,2.916851,167.300003,25.969999,-27.09,1729475423593.0,0.0
-1.457229,-6.836295,2.143969,105.07,3.5,-25.969999,1729475423612.0,0.0
-1.414158,-7.69771,2.115255,107.239998,-4.06,-21.91,1729475423632.0,0.0
-1.359123,-7.372287,1.725225,122.639999,-14.7,-6.93,1729475423653.0,0.0
-1.277767,-7.353144,2.591427,137.339996,-18.200001,12.53,1729475423672.0,0.0
-1.124627,-8.204988,3.742374,127.260002,-13.72,30.17,1729475423693.0,0.0
-0.911665,-9.882358,3.168097,109.550003,-11.97,31.92,1729475423719.0,0.0
-0.583849,-10.559525,1.51705,139.300003,13.02,20.16,1729475423734.0,0.0
-0.629312,-9.430114,1.871187,136.5,22.960001,24.01,1729475423753.0,0.0
-0.591027,-8.9683,1.691726,116.340004,33.18,15.75,1729475423774.0,0.0
-0.607777,-8.382057,1.552942,89.879997,44.029999,11.48,1729475423794.0,0.0
-1.150948,-9.300901,3.189633,71.120003,47.810001,11.06,1729475423812.0,0.0
-1.801795,-10.813165,4.642076,60.130001,42.84,2.24,1729475423833.0,0.0
-1.68694,-11.322837,5.424529,62.02,37.52,-8.26,1729475423852.0,0.0
-1.887937,-10.794022,5.335995,52.150002,28.280001,-19.25,1729475423873.0,0.0
-2.414358,-10.382458,5.367101,26.6,13.440001,-30.73,1729475423894.0,0.0
-2.737389,-8.176274,5.04407,26.040001,7.0,-25.969999,1729475423913.0,0.0
-2.919244,-6.778866,4.405186,37.380001,8.47,-18.129999,1729475423934.0,0.0
-1.684547,-4.23051,1.849652,12.53,9.52,-20.02,1729475423953.0,0.0
-3.261417,-5.056034,3.943372,22.960001,17.710001,37.310001,1729475423973.0,0.0
-3.192025,-9.425328,5.958128,-14.63,30.1,-29.68,1729475423994.0,0.0
-1.004985,-7.372287,6.592227,-43.470001,26.6,-13.23,1729475424014.0,0.0
-0.622134,-4.539185,6.955935,29.960001,18.83,11.06,1729475424036.0,0.0
-2.416751,-5.974878,6.470192,6.79,-0.91,24.57,1729475424054.0,0.0
-2.723032,-8.84148,5.065606,-37.869999,-15.61,27.719999,1729475424074.0,0.0
-4.634897,-11.921042,3.510271,-30.24,-20.23,23.17,1729475424095.0,0.0
-5.218746,-13.552947,2.117648,23.940001,-10.71,7.42,1729475424112.0,0.0
-2.651247,-12.318252,2.266003,61.110001,17.710001,-17.08,1729475424136.0,0.0
-1.51705,-9.592826,4.065405,62.510002,31.360001,-30.030001,1729475424154.0,0.0
-0.550349,-6.750153,5.201996,26.950001,28.77,-34.439999,1729475424175.0,0.0
-1.380659,-5.814559,5.391029,-0.63,19.67,-22.33,1729475424199.0,0.0
-4.048656,-8.288737,5.051248,-24.08,0.56,-19.18,1729475424216.0,0.0
-1.9669,-7.336394,5.541777,-24.01,-0.63,-27.65,1729475424235.0,0.0
-0.717847,-5.158926,4.587041,19.040001,11.83,-7.42,1729475424256.0,0.0
-0.476172,-4.086941,5.431707,24.290001,18.200001,12.39,1729475424275.0,0.0
-2.141576,-6.168696,7.467999,-4.34,15.05,21.91,1729475424297.0,0.0
-2.388037,-8.817552,8.23131,-48.369999,-13.86,16.73,1729475424315.0,0.0
-0.993021,-9.487542,6.551548,13.51,-16.59,32.689999,1729475424335.0,0.0
-1.495514,-7.269395,4.599005,29.26,-18.200001,24.219999,1729475424354.0,0.0
-3.862016,-9.918249,4.130012,30.799999,-6.23,26.6,1729475424376.0,0.0
-4.146761,-11.873186,4.527221,-0.14,-5.32,8.54,1729475424399.0,0.0
-4.326223,-11.050055,3.036492,4.27,2.24,-13.86,1729475424414.0,0.0
-1.768296,-10.609775,2.39043,-6.23,7.35,-23.1,1729475424440.0,0.0
-0.792024,-9.035298,3.349952,28.630001,23.379999,-25.41,1729475424454.0,0.0
-3.28056,-8.930015,4.328616,19.879999,20.02,-28.280001,1729475424475.0,0.0
-1.457229,-8.370094,6.742974,6.44,16.66,-42.209999,1729475424497.0,0.0
-0.208176,-1.665405,3.87398,19.32,25.34,-21.77,1729475424514.0,0.0
-2.87378,-4.134798,5.551349,7.84,17.43,-1.96,1729475424535.0,0.0
-3.393023,-7.343572,7.008578,-66.57,1.75,5.6,1729475424555.0,0.0
-3.931407,-9.169296,7.786245,-51.380001,-18.76,13.02,1729475424575.0,0.0
-1.524228,-8.599805,8.408379,22.610001,-10.5,27.860001,1729475424595.0,0.0
-0.629312,-6.020342,6.113662,36.959999,-15.68,17.360001,1729475424614.0,0.0
-2.074577,-8.365308,3.672983,13.02,-11.41,28.84,1729475424636.0,0.0
-3.455236,-13.373486,4.21376,-12.25,-4.9,3.78,1729475424654.0,0.0
-3.799802,-11.755937,3.622734,20.93,5.74,-19.67,1729475424675.0,0.0
-1.272982,-9.207582,3.902694,15.12,7.91,-35.84,1729475424695.0,0.0
-1.316052,-8.38445,3.471986,13.23,12.88,-25.969999,1729475424717.0,0.0
-3.716053,-9.698111,2.770889,-11.34,2.73,-29.75,1729475424735.0,0.0
0.617348,-5.632704,3.172883,-5.32,18.200001,-42.84,1729475424754.0,0.0
-2.074577,-1.825724,4.323831,46.200001,37.59,7.91,1729475424774.0,0.0
-1.959722,-1.332802,5.704489,-20.719999,34.580002,-14.07,1729475424799.0,0.0
-5.704489,-8.822337,8.477771,-67.690002,1.61,27.23,1729475424839.0,0.0
-2.330609,-8.886944,8.932407,-31.99,-6.93,23.940001,1729475424841.0,0.0
-1.131805,-8.571091,8.12124,49.490002,-6.02,42.91,1729475424855.0,0.0
-1.241875,-5.927022,5.414958,22.82,-15.33,26.25,1729475424874.0,0.0
-3.211168,-8.446664,4.110869,12.04,1.4,43.610001,1729475424895.0,0.0
-5.268995,-12.899707,5.419744,-14.77,-3.64,19.25,1729475424914.0,0.0
-4.438686,-11.650653,4.783253,-6.37,0.42,-0.63,1729475424934.0,0.0
-3.570091,-11.906685,3.115455,-1.61,-4.97,-18.969999,1729475424954.0,0.0
-1.756332,-9.561719,3.412165,4.48,3.15,-21.42,1729475424975.0,0.0
-2.617748,-10.526026,3.146562,2.03,3.15,-34.299999,1729475424995.0,0.0
-0.677169,-10.13839,4.345366,-7.28,13.51,-49.0,1729475425014.0,0.0
0.27996,-1.837688,3.9673,20.370001,28.84,-39.619999,1729475425038.0,0.0
-2.505285,-0.043071,4.804788,38.920002,32.48,-3.15,1729475425054.0,0.0
-3.847659,-4.039084,7.499106,-43.959999,4.48,8.54,1729475425075.0,0.0
-3.909872,-8.042276,8.530413,-75.389999,-22.4,25.83,1729475425095.0,0.0
-1.17009,-9.265009,9.190832,-17.710001,-17.710001,41.720001,1729475425113.0,0.0
-0.768096,-6.26441,6.309873,24.57,-18.76,34.09,1729475425134.0,0.0
-4.919643,-10.387242,4.426722,25.9,-16.59,43.540001,1729475425154.0,0.0
-4.572684,-13.46202,5.017749,-8.26,-11.69,15.12,1729475425174.0,0.0
-4.407579,-13.014563,4.419543,6.65,-2.38,-10.22,1729475425195.0,0.0
-2.840281,-11.626726,3.625126,9.59,-2.94,-34.299999,1729475425215.0,0.0
-1.004985,-8.690732,3.136991,10.36,2.73,-37.52,1729475425234.0,0.0
-2.239682,-8.496914,2.349752,11.83,-1.82,-38.5,1729475425254.0,0.0
-1.588834,-9.030513,3.194418,10.36,5.32,-43.75,1729475425275.0,0.0
0.272782,-1.509871,1.957329,29.33,33.18,-27.09,1729475425295.0,0.0
-1.18684,-1.289732,6.104091,38.080002,39.48,-11.34,1729475425314.0,0.0
-5.268995,-6.606583,9.195618,-50.959999,7.63,28.84,1729475425335.0,0.0
-2.847459,-8.398808,8.997013,-57.260002,-17.01,25.200001,1729475425354.0,0.0
-1.225125,-9.939785,7.661818,-3.15,-20.93,38.43,1729475425374.0,0.0
-0.748954,-6.30748,5.084748,24.92,-18.76,29.75,1729475425395.0,0.0
-3.783052,-8.092526,4.699504,29.75,-1.33,40.810001,1729475425414.0,0.0
-5.257031,-12.540783,4.98425,-21.84,-9.31,20.16,1729475425435.0,0.0
-4.352544,-11.624333,4.364508,-14.98,-0.14,-1.47,1729475425454.0,0.0
-4.146761,-11.956935,3.184847,0.35,-4.2,-18.48,1729475425474.0,0.0
-1.306481,-9.035298,3.321238,9.45,1.19,-28.700001,1729475425495.0,0.0
-1.964507,-8.88455,3.806981,33.880001,6.51,-25.549999,1729475425514.0,0.0
-2.510071,-10.351351,4.316652,0.84,2.73,-40.32,1729475425534.0,0.0
0.086142,-6.441479,5.261817,-0.28,19.25,-50.82,1729475425554.0,0.0
-1.945365,-1.383051,4.426722,23.52,31.15,-14.56,1729475425575.0,0.0
-1.385444,-0.260818,4.364508,-9.24,26.67,-19.6,1729475425594.0,0.0
-5.271388,-6.376873,7.867601,-42.91,2.17,26.25,1729475425614.0,0.0
-2.995814,-8.343772,9.480364,-39.549999,-14.28,27.370001,1729475425636.0,0.0
-0.98345,-6.087341,7.140182,27.860001,-9.87,36.470001,1729475425653.0,0.0
-2.935993,-6.771688,4.622933,28.98,-10.29,58.939999,1729475425674.0,0.0
-5.328816,-11.856436,4.419543,-52.220001,-21.49,25.41,1729475425696.0,0.0
-4.833502,-14.103296,4.101298,-38.639999,-7.35,6.37,1729475425716.0,0.0
-4.271189,-12.722638,3.022135,19.32,5.6,-17.92,1729475425781.0,0.0
-1.787439,-9.688539,3.488736,26.110001,7.07,-39.130001,1729475425802.0,0.0
-1.90708,-9.583255,4.010371,29.049999,10.57,-30.66,1729475425804.0,0.0
-2.419144,-11.102697,3.393023,-4.06,-5.04,-50.400002,1729475425805.0,0.0
-1.146162,-8.683553,4.723432,12.18,7.0,-56.91,1729475425817.0,0.0
-0.543171,-0.16989,2.017149,31.360001,26.25,-39.549999,1729475425834.0,0.0
-2.268396,-0.59342,4.828716,30.52,30.66,-8.54,1729475425853.0,0.0
-3.227918,-2.974278,7.015756,-47.389999,20.370001,6.51,1729475425876.0,0.0
-4.800002,-7.745567,8.597411,-66.989998,-13.16,27.51,1729475425895.0,0.0
-1.256232,-9.06162,8.468199,-29.4,-12.74,37.59,1729475425914.0,0.0
-1.160519,-8.547162,7.147361,12.53,-17.43,35.209999,1729475425936.0,0.0
-4.457829,-10.463813,4.331009,26.530001,-12.88,43.540001,1729475425954.0,0.0
-4.981857,-13.201202,4.910072,-11.06,-10.57,9.73,1729475425974.0,0.0
-4.577469,-11.696117,4.95075,19.6,0.98,-16.379999,1729475425996.0,0.0
-3.567699,-10.430314,4.017549,15.61,-2.87,-31.99,1729475426014.0,0.0
-1.244268,-8.283953,3.601198,8.89,-0.84,-36.400002,1729475426038.0,0.0
-2.335395,-8.549555,3.081956,18.620001,-0.49,-34.720001,1729475426056.0,0.0
-2.806781,-10.794022,3.328416,3.85,-0.28,-45.290001,1729475426076.0,0.0
1.07677,-3.795017,0.638884,8.4,22.4,-55.09,1729475426097.0,0.0
-2.06022,-3.510271,5.168497,63.139999,39.619999,-14.84,1729475426116.0,0.0
-0.768096,-0.543171,6.235696,-4.9,43.82,-19.67,1729475426136.0,0.0
-4.290331,-5.936593,8.930015,-49.700001,4.41,22.26,1729475426156.0,0.0
-3.046063,-8.717053,9.312866,-62.09,-22.75,26.389999,1729475426176.0,0.0
-0.358923,-9.037691,8.169096,4.76,-20.51,45.990002,1729475426198.0,0.0
-1.770689,-6.118448,4.414758,28.700001,-29.540001,29.610001,1729475426216.0,0.0
-3.158526,-8.346166,4.302295,31.639999,-5.6,53.060001,1729475426237.0,0.0
-5.647062,-14.935998,5.237889,-17.710001,-6.09,8.05,1729475426256.0,0.0
-4.735396,-13.959727,4.290331,-12.25,-0.7,-27.23,1729475426277.0,0.0
-1.612763,-9.099905,2.833102,7.14,5.04,-39.900002,1729475426297.0,0.0
-2.282753,-7.831708,2.940779,28.210001,6.44,-35.98,1729475426317.0,0.0
-2.431108,-9.38465,3.268596,7.7,-0.77,-43.119999,1729475426337.0,0.0
0.021535,-2.359323,0.909273,13.79,26.110001,-34.93,1729475426367.0,0.0
-1.785046,-1.974079,5.465207,30.799999,33.459999,-7.56,1729475426376.0,0.0
-1.569692,-1.641476,6.912865,-36.540001,31.780001,0.63,1729475426396.0,0.0
-4.529613,-6.520442,7.893922,-77.559998,-10.64,24.92,1729475426416.0,0.0
-1.679761,-8.190632,8.662018,-52.639999,-17.57,39.48,1729475426436.0,0.0
-1.165305,-8.985049,7.209574,10.5,-18.41,42.209999,1729475426455.0,0.0
-2.565106,-7.60439,5.443672,31.5,-13.72,45.220001,1729475426480.0,0.0
-4.905287,-11.196017,4.13719,9.66,-3.57,28.280001,1729475426498.0,0.0
-4.905287,-15.144175,5.163712,-8.33,1.47,3.85,1729475426516.0,0.0
-4.627719,-12.248858,4.326223,8.75,7.91,-25.969999,1729475426538.0,0.0
-1.935793,-9.169296,3.84048,4.27,2.52,-44.52,1729475426557.0,0.0
-2.426322,-8.695518,3.26381,16.17,3.92,-34.369999,1729475426576.0,0.0
-1.864009,-10.19821,4.37408,7.0,-5.32,-46.549999,1729475426599.0,0.0
-0.729811,-3.156133,2.775674,43.82,20.65,-32.759998,1729475426617.0,0.0
-1.835295,-2.268396,5.075177,26.18,18.48,-31.290001,1729475426637.0,0.0
-1.512264,-2.06022,6.185446,-47.459999,22.469999,-4.9,1729475426656.0,0.0
-3.54377,-6.338587,7.410572,-73.57,-10.22,11.41,1729475426676.0,0.0
-2.536392,-8.444271,8.65484,-41.580002,-22.4,33.529999,1729475426697.0,0.0
-0.210568,-7.357929,8.35813,32.759998,-16.17,44.029999,1729475426715.0,0.0
-2.691926,-5.905487,5.036892,17.15,-26.880001,31.219999,1729475426736.0,0.0
-3.304488,-8.133204,4.168297,6.79,-12.32,56.209999,1729475426757.0,0.0
-5.132604,-13.785051,4.639683,-29.75,-17.08,21.77,1729475426776.0,0.0
-4.948357,-14.668003,4.259224,-35.700001,-10.15,-4.55,1729475426796.0,0.0
-3.665804,-12.600604,3.23031,2.59,-0.07,-29.610001,1729475426816.0,0.0
-1.438086,-8.46102,2.902494,24.219999,7.84,-37.73,1729475426838.0,0.0
-2.376073,-8.346166,3.369094,33.459999,5.74,-37.799999,1729475426855.0,0.0
-2.18704,-10.320245,3.876373,-4.97,-0.07,-49.490002,1729475426877.0,0.0
1.227518,-3.39063,1.205983,-1.05,12.95,-46.689999,1729475426898.0,0.0
-1.098306,-0.545564,4.862216,55.580002,31.290001,-10.08,1729475426916.0,0.0
-2.723032,-4.67079,7.173682,-51.450001,9.52,11.9,1729475426937.0,0.0
-3.558127,-7.750352,7.814958,-75.459999,-19.32,18.200001,1729475426956.0,0.0
-0.827917,-8.827123,8.678767,-23.450001,-15.61,38.849998,1729475426977.0,0.0
-0.375673,-6.54437,6.869793,18.76,-15.82,38.5,1729475426996.0,0.0
-3.694518,-8.906086,4.04387,13.3,-22.26,46.619999,1729475427016.0,0.0
-5.505885,-14.251652,4.208975,1.4,-17.15,24.43,1729475427039.0,0.0
-5.000999,-14.85225,4.711468,18.059999,2.31,-7.84,1729475427055.0,0.0
-3.512664,-11.353944,3.538985,26.32,8.05,-38.220001,1729475427078.0,0.0
-0.902094,-7.310073,2.749353,25.48,13.3,-40.32,1729475427096.0,0.0
-2.275574,-7.4345,2.586641,24.290001,8.33,-32.830002,1729475427114.0,0.0
-3.151347,-10.530812,3.199204,0.49,1.54,-42.209999,1729475427136.0,0.0
-1.17009,-4.630112,2.782853,29.540001,25.969999,-32.759998,1729475427155.0,0.0
-2.962314,-4.041477,5.343173,39.759998,32.41,-27.23,1729475427177.0,0.0
-1.033699,-2.354537,6.819544,-35.630001,31.08,-15.26,1729475427196.0,0.0
-3.199204,-5.687739,8.303094,-66.080002,0.49,13.23,1729475427216.0,0.0
-2.359323,-7.314859,8.925228,-62.439999,-22.540001,25.27,1729475427235.0,0.0
-0.629312,-7.91785,7.496714,-5.88,-25.48,43.189999,1729475427257.0,0.0
-2.134398,-7.77428,4.280759,16.66,-26.25,46.130001,1729475427276.0,0.0
-3.809374,-12.610175,3.570091,-9.31,-17.639999,21.0,1729475427296.0,0.0
-4.388437,-15.500705,4.541577,-14.28,-4.06,-4.69,1729475427316.0,0.0
-3.371487,-12.351749,4.211368,3.57,8.96,-32.759998,1729475427335.0,0.0
-1.622334,-7.877172,3.172883,6.79,11.06,-41.299999,1729475427355.0,0.0
-2.423929,-8.161918,2.474179,7.14,5.53,-37.029999,1729475427378.0,0.0
-2.751746,-10.530812,2.979064,-20.719999,-4.69,-49.91,1729475427396.0,0.0
-1.153341,-5.20439,2.947958,29.960001,21.559999,-31.219999,1729475427415.0,0.0
-1.835295,-2.277967,5.199604,48.509998,29.610001,-30.309999,1729475427437.0,0.0
-1.347159,-2.24686,7.039684,-19.389999,24.43,-10.36,1729475427455.0,0.0
-3.014957,-5.79781,8.355737,-71.82,-9.17,9.03,1729475427477.0,0.0
-1.651048,-7.951349,8.638089,-63.349998,-24.710001,29.120001,1729475427498.0,0.0
0.277567,-7.642675,6.759724,-1.12,-23.59,38.220001,1729475427514.0,0.0
-1.256232,-7.300502,3.74716,20.23,-22.469999,33.880001,1729475427535.0,0.0
-2.744568,-9.590433,3.141776,27.299999,-2.38,48.369999,1729475427555.0,0.0
-4.962714,-15.620347,5.156533,5.11,2.8,14.98,1729475427575.0,0.0
-3.768696,-13.828122,3.945765,-3.99,3.36,-22.120001,1729475427597.0,0.0
-1.572084,-9.174082,3.34038,10.5,5.81,-42.209999,1729475427615.0,0.0
-2.191825,-7.695317,3.76391,39.689999,6.93,-31.290001,1729475427637.0,0.0
-3.314059,-9.509077,3.383451,7.56,-4.69,-48.720001,1729475427656.0,0.0
-1.241875,-5.199604,1.354338,24.57,15.12,-30.73,1729475427676.0,0.0
-2.754139,-3.012564,4.220939,51.52,27.860001,-28.630001,1729475427696.0,0.0
-1.792224,-2.861816,7.396214,0.49,37.310001,-13.16,1729475427715.0,0.0
-1.485943,-4.0008,8.549555,-64.610001,12.95,2.59,1729475427738.0,0.0
-2.67039,-6.898508,8.532805,-81.900002,-22.120001,28.280001,1729475427755.0,0.0
-0.20339,-6.79083,7.166504,-41.09,-26.389999,45.009998,1729475427775.0,0.0
-0.325424,-6.443871,4.811966,1.54,-24.85,53.689999,1729475427796.0,0.0
-3.89073,-10.377672,2.725425,-12.18,-22.469999,49.77,1729475427815.0,0.0
-5.024928,-15.981662,3.859623,-8.4,-11.83,37.73,1729475427836.0,0.0
-4.278367,-15.972091,4.627719,7.07,5.46,-3.08,1729475427855.0,0.0
-3.244668,-12.528819,3.692125,29.33,9.45,-25.690001,1729475427875.0,0.0
-0.854238,-7.566105,3.519842,30.380001,13.58,-38.57,1729475427896.0,0.0
-1.945365,-7.106683,3.515057,30.309999,11.69,-29.049999,1729475427915.0,0.0
-2.29711,-9.695717,4.567898,-19.25,-0.77,-50.470001,1729475427937.0,0.0
-2.505285,-6.242875,3.574877,41.09,20.65,-23.24,1729475427954.0,0.0
-2.050649,-3.065206,4.871787,34.16,24.219999,-36.119999,1729475427975.0,0.0
-1.974079,-4.625326,7.250252,-27.790001,17.08,-5.74,1729475427996.0,0.0
-2.069792,-5.848059,7.762317,-69.090004,-8.4,-0.49,1729475428014.0,0.0
-1.682154,-7.082755,7.692925,-39.34,-20.790001,25.620001,1729475428038.0,0.0
-0.387637,-6.798009,7.073184,-5.6,-21.84,33.040001,1729475428056.0,0.0
-0.923629,-6.867401,6.080163,-8.12,-26.530001,37.099998,1729475428074.0,0.0
-2.041078,-8.472985,5.848059,-22.75,-27.790001,42.209999,1729475428096.0,0.0
-4.089334,-11.533404,3.345166,-36.119999,-37.52,29.33,1729475428114.0,0.0
-3.699304,-13.167704,2.708675,-14.35,-25.549999,17.710001,1729475428135.0,0.0
-3.330809,-11.751152,2.189433,21.210001,-10.92,1.33,1729475428154.0,0.0
-2.742175,-8.228917,2.536392,41.16,1.12,-12.81,1729475428174.0,0.0
-2.632105,-5.87438,5.513064,34.93,4.83,0.91,1729475428196.0,0.0
-2.610569,-5.821737,6.369694,-10.22,-11.9,-1.33,1729475428216.0,0.0
-2.574677,-6.778866,6.159126,-52.009998,-34.02,5.39,1729475428235.0,0.0
-1.497907,-7.252645,6.415157,-63.77,-44.66,21.91,1729475428254.0,0.0
-1.98365,-6.91765,7.396214,-45.709999,-55.23,26.6,1729475428276.0,0.0
-3.194418,-6.259624,8.073383,-53.27,-68.529999,32.619999,1729475428297.0,0.0
-4.031906,-7.003791,7.941778,-74.830002,-84.349998,49.77,1729475428315.0,0.0
-4.299902,-9.336794,5.424529,-124.879997,-101.709999,40.670002,1729475428336.0,0.0
-3.213561,-12.660425,1.404587,-184.940002,-101.5,13.16,1729475428355.0,0.0
-2.18704,-14.603395,-1.811367,-216.089996,-77.699997,-13.51,1729475428375.0,0.0
-1.261017,-15.460027,-2.715853,-163.380005,-36.889999,-31.01,1729475428396.0,0.0
-0.334995,-15.084354,-2.517249,-94.849998,6.16,-60.619999,1729475428414.0,0.0
-0.404387,-13.617554,-2.337788,-84.139999,27.58,-78.050003,1729475428436.0,0.0
-0.040678,-11.499906,-2.744568,-70.699997,45.990002,-82.459999,1729475428455.0,0.0
0.457029,-8.520842,-3.081956,-55.02,66.709999,-83.650002,1729475428475.0,0.0
0.421137,-6.618547,-1.986043,-41.650002,85.75,-74.620003,1729475428495.0,0.0
0.227318,-5.412565,-0.710668,-24.710001,100.029999,-60.760002,1729475428514.0,0.0
-0.579063,-5.192425,0.823131,-13.86,104.370003,-39.41,1729475428535.0,0.0
-0.725025,-5.85763,0.660419,-7.28,92.190002,-19.74,1729475428554.0,0.0
-2.275574,-12.552748,2.17029,10.85,72.029999,4.06,1729475428576.0,0.0
-3.180061,-12.198609,5.201996,32.41,51.099998,-13.23,1729475428595.0,0.0
-1.725225,-10.719845,4.809574,34.439999,12.95,-20.23,1729475428614.0,0.0
-0.973879,-9.253045,3.041277,11.69,5.46,-37.099998,1729475428636.0,0.0
1.012164,-5.07757,2.739782,20.65,3.22,-21.49,1729475428654.0,0.0
3.038885,-2.177469,4.539185,22.4,2.52,0.63,1729475428674.0,0.0
3.196811,-3.388237,4.134798,-2.52,-5.67,31.92,1729475428696.0,0.0
1.103091,-5.539384,3.232704,-50.119999,-6.23,57.610001,1729475428714.0,0.0
-0.545564,-7.980063,1.464408,-64.82,-18.34,71.330002,1729475428735.0,0.0
-1.591227,-10.097712,0.284746,-38.360001,-29.889999,86.590004,1729475428754.0,0.0
-3.974478,-14.318651,-0.035892,-11.13,-29.75,83.300003,1729475428774.0,0.0
-7.049256,-19.963318,-2.600998,-34.509998,-20.860001,39.759998,1729475428795.0,0.0
-5.65424,-16.718651,-4.675575,-60.48,-0.84,3.36,1729475428814.0,0.0
-3.438486,-13.306486,-2.282753,3.15,31.01,-12.25,1729475428834.0,0.0
-2.981457,-10.906486,-1.265803,-1.61,48.439999,-42.349998,1729475428854.0,0.0
-2.002793,-9.382257,0.344566,9.24,41.09,-46.689999,1729475428874.0,0.0
-0.811167,-9.597611,1.514657,25.27,32.830002,-44.310001,1729475428895.0,0.0
-0.086142,-9.415757,1.014557,-2.45,26.460001,-60.48,1729475428914.0,0.0
1.12702,-6.305088,3.661019,54.040001,19.389999,-43.540001,1729475428935.0,0.0
2.201397,-2.931208,4.867002,56.77,19.389999,-31.92,1729475428954.0,0.0
2.502892,-3.359523,4.508078,44.170002,-14.63,7.56,1729475428974.0,0.0
1.021735,-4.309474,3.196811,-28.630001,-31.710001,37.73,1729475428995.0,0.0
-0.181855,-6.104091,-0.650848,-45.220001,-37.029999,68.529999,1729475429013.0,0.0
-1.100698,-9.250652,-3.259024,-35.07,-29.120001,78.889999,1729475429039.0,0.0
-3.902694,-15.136996,-2.447858,-19.74,-18.41,76.510002,1729475429055.0,0.0
-6.305088,-18.922441,-0.708275,-13.51,-2.38,46.759998,1729475429074.0,0.0
-6.020342,-17.821743,-0.957129,-24.780001,-1.4,6.79,1729475429095.0,0.0
-3.345166,-12.614961,-1.351945,7.0,17.57,-24.43,1729475429114.0,0.0
-2.435893,-11.96172,-0.777667,17.5,24.219999,-48.09,1729475429135.0,0.0
-2.325824,-10.025927,0.12682,-14.56,23.59,-61.459999,1729475429154.0,0.0
-0.701097,-10.875379,0.492921,8.54,28.280001,-58.310001,1729475429175.0,0.0
0.29671,-7.814958,1.572084,-1.05,25.83,-68.389999,1729475429195.0,0.0
0.70349,-6.218946,4.278367,42.700001,25.76,-54.670002,1729475429213.0,0.0
1.490728,-2.991028,5.47717,31.639999,0.77,-38.849998,1729475429236.0,0.0
2.878566,-2.830709,4.244867,23.17,-26.880001,-2.8,1729475429253.0,0.0
1.868794,-3.148954,1.689333,-31.219999,-48.23,51.73,1729475429274.0,0.0
0.145962,-5.941379,-0.524028,-43.259998,-49.700001,82.18,1729475429295.0,0.0
-1.895115,-12.794422,-0.59342,-48.650002,-47.529999,88.690002,1729475429314.0,0.0
-4.993821,-19.233507,-2.835495,-45.849998,-38.080002,65.800003,1729475429334.0,0.0
-6.518049,-19.776678,-3.756732,-20.65,-28.49,33.389999,1729475429354.0,0.0
-4.67079,-15.125031,-4.400401,29.889999,12.53,-1.61,1729475429374.0,0.0
-3.871587,-13.031311,-1.799403,30.24,36.259998,-35.0,1729475429395.0,0.0
-2.589034,-12.648461,-0.696311,5.74,44.799999,-63.0,1729475429414.0,0.0
-1.976472,-9.353544,-0.567099,-41.09,55.16,-73.919998,1729475429434.0,0.0
-0.162712,-9.676575,1.751546,11.62,54.740002,-58.029999,1729475429453.0,0.0
0.701097,-6.924829,4.603791,36.400002,44.310001,-60.48,1729475429474.0,0.0
0.545564,-4.596612,6.190232,52.920002,25.9,-44.869999,1729475429495.0,0.0
1.222732,-4.15394,5.431707,21.210001,-13.37,-26.18,1729475429514.0,0.0
2.514857,-4.156333,3.163311,-26.110001,-45.360001,-2.59,1729475429534.0,0.0
2.900101,-3.26381,1.677369,-14.0,-49.700001,41.93,1729475429554.0,0.0
1.308874,-4.740182,0.473779,-4.97,-41.369999,78.330002,1729475429574.0,0.0
-1.988436,-11.803794,-1.677369,-44.939999,-38.57,82.599998,1729475429595.0,0.0
-5.35753,-19.989641,-2.203789,-38.009998,-32.27,73.080002,1729475429613.0,0.0
-6.458229,-19.673786,-4.130012,-9.24,-9.94,39.619999,1729475429634.0,0.0
-5.13739,-15.105889,-3.438486,42.630001,26.6,-5.32,1729475429654.0,0.0
-4.055835,-13.016955,-0.31346,60.900002,41.16,-27.65,1729475429674.0,0.0
-2.907279,-11.406586,1.543371,31.43,38.290001,-59.010002,1729475429695.0,0.0
-2.18704,-10.372886,0.440279,-24.290001,36.259998,-67.900002,1729475429715.0,0.0
-0.722632,-8.008778,-0.440279,-40.670002,26.460001,-73.010002,1729475429734.0,0.0
1.339981,-8.221739,1.569692,14.77,22.82,-63.209999,1729475429753.0,0.0
1.844866,-4.962714,3.9338,45.779999,25.620001,-54.32,1729475429774.0,0.0
1.31366,-4.244867,7.209574,50.610001,6.86,-31.57,1729475429795.0,0.0
1.344766,-5.347959,4.914857,-24.15,-33.529999,-16.24,1729475429813.0,0.0
1.651048,-4.955536,2.289931,-56.91,-49.700001,10.64,1729475429836.0,0.0
1.294517,-3.972085,-0.119641,-37.450001,-52.080002,49.490002,1729475429853.0,0.0
0.42353,-6.51087,-2.306681,-23.59,-42.07,68.599998,1729475429873.0,0.0
-1.612763,-10.035499,-4.675575,-26.110001,-33.880001,81.410004,1729475429896.0,0.0
-5.491528,-19.640289,-1.921437,14.77,-11.83,86.940002,1729475429914.0,0.0
-5.991628,-18.606588,-3.333202,-15.26,-7.98,2.1,1729475429934.0,0.0
-3.072384,-12.811172,-1.928615,48.02,36.259998,-20.790001,1729475429954.0,0.0
-3.101098,-11.691331,-0.011964,19.389999,42.139999,-61.459999,1729475429974.0,0.0
-2.057827,-11.887544,-0.42353,-13.58,39.619999,-67.620003,1729475429995.0,0.0
-0.827917,-7.69771,1.143769,-0.63,35.0,-72.519997,1729475430014.0,0.0
0.480957,-5.910272,2.665605,52.639999,31.360001,-59.290001,1729475430037.0,0.0
1.146162,-4.070191,4.151547,42.07,12.67,-55.369999,1729475430053.0,0.0
1.68694,-4.26401,4.689932,-0.28,-11.97,-30.030001,1729475430075.0,0.0
2.536392,-6.539584,4.158726,-35.630001,-37.310001,-13.86,1729475430094.0,0.0
2.799603,-5.74756,2.744568,-31.99,-46.689999,11.34,1729475430112.0,0.0
2.376073,-3.962514,0.61017,-4.62,-49.279999,48.16,1729475430134.0,0.0
0.918844,-4.677969,-2.603391,-14.0,-42.07,72.239998,1729475430153.0,0.0
-2.282753,-9.62154,-3.369094,-32.48,-30.59,87.849998,1729475430174.0,0.0
-5.773881,-16.85265,-3.18724,-5.53,-17.43,92.120003,1729475430195.0,0.0
-8.25763,-23.49991,-1.194018,-8.47,-14.98,40.18,1729475430213.0,0.0
-4.692325,-16.208981,-3.414558,-20.23,12.53,-8.96,1729475430234.0,0.0
-2.591427,-13.634303,-2.935993,30.799999,37.099998,-39.34,1729475430254.0,0.0
-1.952543,-12.112469,-1.940579,-52.5,43.119999,-76.090004,1729475430273.0,0.0
-0.07657,-6.924829,-2.665605,-39.689999,44.939999,-83.160004,1729475430294.0,0.0
1.481157,-7.250252,1.440479,77.07,51.450001,-57.889999,1729475430313.0,0.0
1.270589,-5.008178,5.615955,92.050003,42.700001,-59.990002,1729475430333.0,0.0
1.045663,-1.87358,6.18784,41.790001,12.11,-40.110001,1729475430354.0,0.0
2.720639,-2.723032,4.881358,-4.55,-30.870001,-10.85,1729475430373.0,0.0
3.09392,-3.570091,2.89053,-51.380001,-51.240002,21.139999,1729475430396.0,0.0
2.28036,-3.809374,0.155533,-44.170002,-52.990002,62.439999,1729475430413.0,0.0
0.600598,-5.819345,-2.586641,-39.27,-46.48,93.730003,1729475430434.0,0.0
-4.070191,-14.821144,-2.400001,-59.57,-40.389999,102.620003,1729475430453.0,0.0
-8.796017,-24.803999,-1.95015,-45.080002,-24.57,61.389999,1729475430473.0,0.0
-5.151747,-20.733807,-3.479164,0.49,-8.68,15.05,1729475430494.0,0.0
-2.825923,-12.354142,-4.029513,36.959999,31.57,-27.58,1729475430513.0,0.0
-3.115455,-12.416357,-1.629512,35.139999,51.310001,-56.77,1729475430534.0,0.0
-1.655833,-12.143576,-0.533599,-28.700001,44.59,-77.139999,1729475430553.0,0.0
0.416351,-6.704689,-2.108077,-14.0,47.880001,-68.32,1729475430573.0,0.0
1.844866,-5.075177,5.47717,84.980003,46.549999,-58.029999,1729475430594.0,0.0
0.756132,-3.464807,6.240481,49.84,13.09,-39.759998,1729475430613.0,0.0
1.514657,-4.565506,4.319045,-11.06,-25.34,-17.92,1729475430634.0,0.0
2.304288,-5.285746,1.964507,-60.060001,-49.560001,4.13,1729475430652.0,0.0
2.210968,-4.725825,0.411566,-23.379999,-47.810001,43.610001,1729475430673.0,0.0
1.134198,-4.443472,-1.557728,2.73,-36.189999,73.360001,1729475430693.0,0.0
-1.878366,-10.363315,-2.330609,-16.73,-27.51,91.139999,1729475430713.0,0.0
-4.819145,-15.728023,-4.809574,-39.549999,-21.139999,77.279999,1729475430808.0,0.0
-6.709475,-22.99024,-0.311067,-23.59,-14.21,46.130001,1729475430808.0,0.0
-4.338188,-17.022539,-3.376273,-24.99,8.19,-7.28,1729475430808.0,0.0
-3.218346,-12.607781,-3.07717,24.15,33.880001,-36.400002,1729475430809.0,0.0
-2.498107,-11.344372,-1.227518,-2.03,39.830002,-65.590004,1729475430813.0,0.0
-0.868595,-11.124231,0.014357,-35.209999,31.780001,-72.940002,1729475430840.0,0.0
0.564706,-6.632904,-0.882952,-14.63,36.400002,-65.590004,1729475430853.0,0.0
1.682154,-5.065606,3.010171,53.41,34.580002,-52.920002,1729475430873.0,0.0
1.761117,-3.249453,4.685147,52.990002,13.58,-37.73,1729475430895.0,0.0
1.502693,-4.515256,4.742575,11.69,-14.14,-10.92,1729475430913.0,0.0
1.998007,-6.953543,1.454836,-64.610001,-49.07,6.79,1729475430933.0,0.0
2.237289,-5.924629,-0.425922,-26.74,-58.310001,55.16,1729475430953.0,0.0
1.055235,-6.190232,-2.184647,7.91,-42.77,71.400002,1729475430974.0,0.0
-2.15354,-9.772287,-3.237489,-4.27,-33.32,83.790001,1729475430994.0,0.0
-6.690332,-19.209579,-1.986043,1.26,-9.31,77.559998,1729475431015.0,0.0
-7.54457,-22.669601,-2.667997,-45.57,-14.14,16.24,1729475431037.0,0.0
-3.110669,-13.643874,-4.012764,-14.35,20.02,-15.47,1729475431070.0,0.0
-2.043471,-12.337393,-1.679761,52.920002,45.360001,-42.07,1729475431074.0,0.0
-1.98365,-10.928021,-1.612763,-20.860001,42.139999,-63.91,1729475431096.0,0.0
0.026321,-10.207782,-0.937986,-37.73,32.970001,-70.699997,1729475431111.0,0.0
1.11027,-9.001799,-0.323031,9.17,40.740002,-55.23,1729475431137.0,0.0
1.306481,-6.910471,2.63689,69.160004,42.420002,-59.010002,1729475431154.0,0.0
0.468993,-5.051248,5.257031,73.989998,30.450001,-44.450001,1729475431182.0,0.0
0.803988,-4.31426,5.304887,33.529999,-4.97,-29.469999,1729475431200.0,0.0
1.818545,-5.070391,3.242275,-26.950001,-42.490002,-5.81,1729475431228.0,0.0
2.050649,-5.132604,1.071985,-42.209999,-55.580002,24.5,1729475431237.0,0.0
1.584049,-5.352744,-1.40698,-15.96,-51.59,58.310001,1729475431256.0,0.0
-1.701297,-10.540384,-4.402793,-10.22,-33.810001,85.540001,1729475431273.0,0.0
-5.410172,-17.09911,-5.831308,-20.09,0.28,73.010002,1729475431293.0,0.0
-5.615955,-23.84687,-0.29671,-16.379999,10.36,21.0,1729475431312.0,0.0
-1.536192,-15.404992,-3.385844,-29.82,23.799999,-13.16,1729475431340.0,0.0
-1.119841,-12.729815,-2.641676,27.440001,44.73,-54.040001,1729475431354.0,0.0
-1.631905,-10.030712,-2.711068,-7.0,52.220001,-69.860001,1729475431373.0,0.0
0.234497,-8.484949,1.691726,68.739998,51.240002,-53.549999,1729475431394.0,0.0
0.947558,-5.69731,5.663811,115.57,48.23,-48.09,1729475431413.0,0.0
-0.323031,-3.936193,7.326823,68.32,20.93,-41.299999,1729475431435.0,0.0
0.105284,-3.017349,4.268795,-27.370001,-29.26,-24.639999,1729475431454.0,0.0
2.261217,-5.048856,1.603191,-63.209999,-60.760002,7.84,1729475431475.0,0.0
2.79721,-5.869594,0.636491,-51.310001,-66.010002,41.369999,1729475431502.0,0.0
1.974079,-5.029713,-1.138984,11.97,-52.43,78.330002,1729475431658.0,0.0
0.040678,-7.4345,-3.495914,28.07,-34.580002,99.120003,1729475431658.0,0.0
-4.084548,-15.976876,-6.072984,-26.460001,-11.2,91.209999,1729475431658.0,0.0
-6.539584,-24.725035,-0.543171,-37.170002,5.04,38.849998,1729475431659.0,0.0
-2.261217,-13.552947,-3.433701,12.95,33.670002,-23.030001,1729475431659.0,0.0
-2.586641,-12.081362,-1.617548,26.880001,53.970001,-64.610001,1729475431659.0,0.0
-2.553142,-12.117253,0.112463,-11.55,43.049999,-77.07,1729475431662.0,0.0
-0.976272,-7.022934,1.189233,31.710001,42.07,-70.349998,1729475431663.0,0.0
0.086142,-5.012963,4.319045,96.949997,37.799999,-61.110001,1729475431673.0,0.0
-0.349352,-4.319045,5.338387,20.09,17.01,-52.990002,1729475431695.0,0.0
-0.459422,-4.890929,4.39083,-101.080002,-21.77,-43.189999,1729475431717.0,0.0
2.18704,-6.082555,0.215354,-116.760002,-47.32,-27.299999,1729475431735.0,0.0
3.424129,-6.139983,-0.122034,-44.380001,-44.73,13.86,1729475431755.0,0.0
3.218346,-3.936193,-0.619741,19.460001,-37.939999,48.16,1729475431778.0,0.0
1.852045,-4.37408,-1.823331,44.380001,-26.74,79.449997,1729475431797.0,0.0
0.11007,-8.583055,-2.179861,11.2,-13.51,98.559998,1729475431815.0,0.0
-2.672783,-18.245272,-1.158126,-26.74,-11.27,90.230003,1729475431835.0,0.0
-4.051049,-19.350756,-4.441079,-73.010002,-33.040001,35.77,1729475431855.0,0.0
-3.333202,-12.349358,-6.257231,12.46,24.219999,-10.5,1729475431875.0,0.0
-5.240282,-14.833108,-2.98385,16.52,45.360001,-34.790001,1729475431896.0,0.0
-2.70389,-14.459827,-1.012164,-3.71,35.91,-71.75,1729475431915.0,0.0
-0.973879,-9.188439,-0.275175,25.76,50.259998,-77.629997,1729475431938.0,0.0
0.861416,-5.71406,2.845066,87.919998,43.889999,-68.669998,1729475431955.0,0.0
2.311467,-1.59362,4.634897,91.769997,29.75,-52.709999,1729475431975.0,0.0
2.129612,-2.172683,5.95095,50.75,-1.19,-18.48,1729475431997.0,0.0
0.844666,-5.924629,3.37388,-51.939999,-33.810001,7.77,1729475432014.0,0.0
0.181855,-8.032705,0.887737,-89.040001,-53.760002,22.26,1729475432038.0,0.0
0.547956,-6.508478,-1.607977,-25.48,-50.68,53.200001,1729475432061.0,0.0
0.588634,-6.74776,-3.936193,12.74,-35.420002,63.349998,1729475432076.0,0.0
-2.038685,-11.12184,-4.831109,-6.02,-19.879999,73.709999,1729475432096.0,0.0
-6.101698,-18.869801,-2.24686,24.08,14.21,66.989998,1729475432115.0,0.0
-5.962914,-20.834309,1.112662,-12.88,6.37,2.45,1729475432135.0,0.0
-2.395216,-13.055241,-1.564906,-32.619999,14.63,-26.6,1729475432155.0,0.0
-1.119841,-9.95175,-1.868794,-10.78,27.51,-53.900002,1729475432176.0,0.0
-0.363709,-11.349157,-0.725025,-40.810001,27.58,-53.200001,1729475432196.0,0.0
-0.007178,-8.630912,0.078963,-13.23,34.16,-53.34,1729475432216.0,0.0
0.090927,-6.910471,1.361516,63.0,42.0,-40.389999,1729475432237.0,0.0
0.490529,-4.527221,3.031706,65.519997,31.01,-32.41,1729475432254.0,0.0
-0.375673,-5.022535,4.304688,26.460001,9.52,-7.7,1729475432275.0,0.0
-1.79701,-8.01117,3.376273,-71.82,-21.629999,-8.89,1729475432296.0,0.0
-2.026721,-10.241282,-0.349352,-133.419998,-52.360001,-16.309999,1729475432315.0,0.0
-1.057628,-10.889735,-2.120041,-72.519997,-56.77,-7.7,1729475432335.0,0.0
-0.303888,-9.566505,-1.969293,29.540001,-38.080002,1.12,1729475432355.0,0.0
-0.074178,-7.099504,-0.782453,87.360001,-23.379999,15.75,1729475432375.0,0.0
-0.035892,-7.257431,0.162712,79.730003,-25.83,30.66,1729475432395.0,0.0
-0.399601,-9.879964,0.425922,44.380001,-40.18,41.16,1729475432414.0,0.0
-0.579063,-11.49512,0.241675,42.560001,-50.119999,45.920002,1729475432435.0,0.0
-0.870987,-12.847065,0.007178,59.849998,-47.459999,44.59,1729475432455.0,0.0
-0.167498,-10.920842,-0.294317,75.529999,-41.509998,32.200001,1729475432476.0,0.0
0.0335,-10.798808,0.368495,105.279999,-20.51,38.639999,1729475432496.0,0.0
0.090927,-9.786645,0.739382,102.410004,-9.8,25.83,1729475432514.0,0.0
0.114855,-9.092726,1.261017,100.449997,14.14,24.92,1729475432536.0,0.0
-0.143569,-10.490135,0.897308,36.259998,12.11,14.28,1729475432554.0,0.0
-0.449851,-12.971491,0.337388,28.84,6.44,19.18,1729475432575.0,0.0
-0.524028,-11.715261,1.074377,89.25,22.26,12.81,1729475432596.0,0.0
-1.433301,-9.281759,1.756332,108.5,32.689999,1.26,1729475432615.0,0.0
-1.552942,-9.126225,1.969293,58.59,32.41,-5.46,1729475432635.0,0.0
-0.775275,-11.148161,1.282553,13.09,27.370001,-13.37,1729475432654.0,0.0
-0.519243,-11.47837,2.132005,39.689999,31.92,-13.58,1729475432674.0,0.0
-0.681954,-9.32483,3.720839,86.660004,36.889999,-17.219999,1729475432695.0,0.0
-1.107877,-7.893922,3.830909,91.629997,33.670002,-19.879999,1729475432715.0,0.0
-1.672583,-8.202596,4.017549,69.370003,25.27,-21.84,1729475432735.0,0.0
-3.457629,-9.710074,9.085547,60.549999,9.8,-11.41,1729475432755.0,0.0
-2.9671,-7.951349,4.383651,106.400002,-11.41,-4.2,1729475432775.0,0.0
-2.084148,-6.867401,5.278566,156.029999,6.93,3.08,1729475432795.0,0.0
-2.663212,-5.965307,4.845466,75.110001,-3.43,-6.86,1729475432814.0,0.0
-1.998007,-8.300702,7.659425,18.76,-2.59,3.36,1729475432836.0,0.0
-0.964308,-12.222539,3.469593,-22.120001,-7.14,-6.44,1729475432854.0,0.0
-0.318245,-11.519048,2.488536,24.639999,1.68,-26.25,1729475432875.0,0.0
-1.103091,-8.760124,3.433701,95.199997,19.460001,-25.34,1729475432896.0,0.0
-1.442872,-6.161518,4.541577,95.760002,27.93,-28.559999,1729475432914.0,0.0
-1.368695,-5.525027,5.132604,71.050003,26.32,-23.66,1729475432935.0,0.0
-1.332802,-6.580262,6.020342,42.91,19.950001,-20.370001,1729475432955.0,0.0
-1.107877,-7.9011,6.675975,24.15,11.2,-13.86,1729475432975.0,0.0
-0.650848,-7.575676,6.245267,25.059999,5.88,-10.57,1729475432995.0,0.0
-0.485743,-6.721439,6.226124,37.029999,3.15,-6.16,1729475433015.0,0.0
-1.272982,-6.652047,6.424729,36.959999,1.96,-2.87,1729475433038.0,0.0
-1.641476,-6.343372,6.309873,17.290001,3.85,3.57,1729475433054.0,0.0
-1.691726,-5.173282,5.936593,-11.97,5.18,12.32,1729475433077.0,0.0
-1.725225,-4.13719,5.52742,-50.959999,3.5,27.790001,1729475433095.0,0.0
-1.447658,-3.081956,6.369694,-108.989998,-2.03,42.91,1729475433113.0,0.0
-0.693919,-3.026921,7.228717,-193.830002,-14.98,60.900002,1729475433135.0,0.0
-1.325624,-7.472785,6.369694,-316.540009,-40.040001,64.190002,1729475433154.0,0.0
-2.115255,-15.381063,0.741775,-405.790009,-68.669998,43.540001,1729475433174.0,0.0
-1.806581,-13.13181,1.028914,-311.640015,-64.190002,35.91,1729475433197.0,0.0
-3.029313,-11.794223,-2.438286,-210.979996,-33.529999,2.1,1729475433214.0,0.0
-2.433501,-17.611174,-8.293523,-136.009995,-34.299999,-24.92,1729475433235.0,0.0
-0.045464,-12.720245,-4.084548,118.860001,32.549999,-10.64,1729475433254.0,0.0
-1.361516,-5.625526,3.194418,252.770004,63.07,-8.82,1729475433274.0,0.0
-3.120241,-5.12782,4.103691,218.119995,34.369999,-10.57,1729475433295.0,0.0
-2.435893,-8.169096,2.878566,163.940002,16.799999,-0.42,1729475433315.0,0.0
-1.540978,-7.690532,1.859223,141.119995,25.059999,1.33,1729475433334.0,0.0
-3.294917,-6.91765,3.139383,123.059998,26.18,9.1,1729475433354.0,0.0
-3.199204,-7.058826,4.388437,77.0,19.040001,10.36,1729475433382.0,0.0
-2.500499,-9.71486,5.946165,26.389999,9.38,7.28,1729475433395.0,0.0
-1.74676,-12.760924,6.728617,-21.139999,-10.99,-3.15,1729475433416.0,0.0
-0.705883,-12.504892,5.831308,4.97,-22.960001,-7.28,1729475433436.0,0.0
-0.820738,-9.549755,4.744967,60.48,-26.74,-13.02,1729475433454.0,0.0
-0.930808,-7.838887,3.68734,76.300003,-21.139999,-17.43,1729475433476.0,0.0
-1.024128,-8.518449,3.249453,66.150002,-10.43,-20.02,1729475433496.0,0.0
-2.141576,-7.556533,3.974478,104.300003,9.52,-17.290001,1729475433515.0,0.0
-2.964707,-6.776474,4.563113,97.580002,18.969999,-15.82,1729475433535.0,0.0
-2.287539,-6.872187,4.910072,56.560001,22.68,-14.98,1729475433555.0,0.0
-2.134398,-7.113862,5.379066,18.200001,22.540001,-11.97,1729475433575.0,0.0
-1.926222,-6.556334,5.76431,2.66,17.57,-5.39,1729475433597.0,0.0
-2.136791,-6.034698,6.23091,-8.12,11.27,2.94,1729475433616.0,0.0
-1.239482,-7.274181,5.192425,-48.93,4.55,8.12,1729475433637.0,0.0
-0.241675,-7.290931,5.252246,-95.900002,3.78,18.129999,1729475433657.0,0.0
-0.990629,-6.204589,5.240282,-134.190002,-1.33,25.969999,1729475433676.0,0.0
-2.85703,-8.683553,3.270989,-149.660004,-11.62,28.210001,1729475433696.0,0.0
-2.376073,-10.722239,4.402793,-123.199997,-15.96,22.469999,1729475433717.0,0.0
-0.854238,-10.080962,8.616554,-87.220001,-15.12,26.110001,1729475433737.0,0.0
-1.569692,-9.585647,8.4012,-159.110001,-38.709999,2.59,1729475433757.0,0.0
-2.624927,-14.696717,-0.404387,-192.850006,-65.660004,-10.22,1729475433775.0,0.0
-0.997807,-15.713666,-3.809374,-26.6,-36.959999,-27.719999,1729475433800.0,0.0
-1.038485,-5.386244,1.512264,185.220001,27.860001,-21.559999,1729475433815.0,0.0
-2.569891,-3.716053,4.09412,182.419998,47.18,-10.01,1729475433836.0,0.0
-3.103491,-5.496314,4.804788,104.860001,33.599998,1.89,1729475433858.0,0.0
-2.998207,-8.082954,3.201597,57.75,23.59,4.83,1729475433876.0,0.0
-3.407379,-10.320245,3.215954,55.02,26.67,6.79,1729475433897.0,0.0
-2.261217,-11.313265,4.859823,29.960001,25.9,-10.29,1729475433916.0,0.0
-0.784846,-12.277573,7.515855,35.07,16.870001,-16.66,1729475433937.0,0.0
0.497707,-11.272588,7.908278,59.920002,-0.98,-23.59,1729475433956.0,0.0
-0.454636,-8.88455,6.60419,93.029999,-20.58,-25.27,1729475433977.0,0.0
-2.038685,-5.642276,4.381258,116.410004,-22.049999,-23.030001,1729475433998.0,0.0
-3.699304,-3.699304,3.436093,91.910004,-9.73,-14.0,1729475434016.0,0.0
-4.067799,-3.620341,3.905087,24.360001,5.88,-9.24,1729475434040.0,0.0
-2.218147,-5.28096,5.132604,-31.219999,16.940001,-3.85,1729475434057.0,0.0
-0.988236,-6.965507,5.295317,-65.309998,17.360001,5.11,1729475434076.0,0.0
-0.87338,-7.927422,4.354938,-77.489998,12.25,17.01,1729475434101.0,0.0
-1.409373,-7.436893,3.737589,-45.009998,18.129999,30.799999,1729475434115.0,0.0
-2.404787,-7.846066,6.508478,-34.509998,17.710001,34.509998,1729475434137.0,0.0
-3.878766,-7.348359,8.743374,-64.75,-1.26,32.830002,1729475434157.0,0.0
-4.053442,-8.635696,9.097511,-103.599998,-28.77,38.709999,1729475434176.0,0.0
-1.526621,-14.05544,6.503692,-141.399994,-57.049999,8.82,1729475434199.0,0.0
-0.866202,-13.77548,3.139383,-83.300003,-49.77,-4.13,1729475434217.0,0.0
-2.462214,-11.069198,0.399601,33.18,-23.24,-11.2,1729475434237.0,0.0
-1.440479,-8.784052,-0.193819,87.779999,11.97,-24.15,1729475434256.0,0.0
-1.521835,-6.608976,2.445465,125.370003,39.830002,-23.24,1729475434277.0,0.0
-2.622534,-5.008178,4.474578,118.160004,47.110001,-10.99,1729475434297.0,0.0
-2.600998,-4.524827,5.876772,62.02,38.290001,1.26,1729475434316.0,0.0
-2.677568,-6.76451,5.233103,-9.38,20.370001,8.68,1729475434337.0,0.0
-2.739782,-11.267801,4.713861,-67.690002,5.32,-2.52,1729475434356.0,0.0
-1.07677,-14.773287,4.407579,-75.809998,2.24,-21.210001,1729475434377.0,0.0
0.358923,-13.713267,5.364708,-11.34,6.93,-35.98,1729475434400.0,0.0
0.217747,-9.394222,7.460821,67.550003,1.68,-38.57,1729475434416.0,0.0
-2.557927,-4.342973,5.661418,111.020004,-7.49,-33.810001,1729475434437.0,0.0
-4.244867,-2.9671,4.807181,62.860001,-8.54,-17.92,1729475434457.0,0.0
-4.682754,-2.799603,4.084548,9.66,3.29,-6.86,1729475434478.0,0.0
-2.617748,-5.326423,4.634897,-34.860001,15.54,2.73,1729475434497.0,0.0
-1.20359,-8.377272,4.718646,-60.900002,18.27,9.94,1729475434516.0,0.0
-1.129412,-9.803394,3.634698,-46.759998,14.07,18.690001,1729475434537.0,0.0
-1.012164,-9.353544,3.184847,8.12,18.76,23.030001,1729475434557.0,0.0
-1.162912,-7.927422,5.218746,39.900002,22.82,25.059999,1729475434578.0,0.0
-1.957329,-6.699903,8.123632,12.04,13.16,23.1,1729475434599.0,0.0
-4.622933,-2.998207,12.392428,-57.189999,-19.389999,34.23,1729475434616.0,0.0
-4.149154,-7.580462,7.977671,-162.610001,-59.010002,38.43,1729475434638.0,0.0
-1.579263,-12.492928,2.124826,-229.529999,-73.849998,0.7,1729475434656.0,0.0
-2.333002,-13.332808,0.770489,-121.870003,-50.470001,7.21,1729475434677.0,0.0
-2.48375,-10.523634,-1.217947,-8.19,-12.32,-10.64,1729475434699.0,0.0
-1.708475,-9.688539,-0.349352,52.290001,25.200001,-15.4,1729475434716.0,0.0
-1.957329,-7.802995,2.301895,95.900002,49.07,-13.37,1729475434736.0,0.0
-2.65364,-5.441278,3.471986,97.510002,57.260002,-5.18,1729475434757.0,0.0
-3.192025,-7.951349,5.668597,36.75,46.34,1.96,1729475434776.0,0.0
-1.832902,-12.571891,5.974878,-49.07,10.01,-10.08,1729475434796.0,0.0
-0.533599,-14.895321,7.13779,-9.03,-7.0,-20.02,1729475434818.0,0.0
1.349552,-11.877973,6.616155,71.050003,-16.24,-23.66,1729475434842.0,0.0
0.021535,-8.286345,5.185246,132.720001,-25.27,-24.43,1729475434856.0,0.0
-2.656033,-6.063413,3.5007,129.360001,-20.09,-27.299999,1729475434877.0,0.0
-4.517649,-4.948357,3.515057,70.980003,-4.9,-27.93,1729475434897.0,0.0
-4.890929,-4.876573,3.739982,12.95,11.62,-23.940001,1729475434916.0,0.0
-2.76371,-5.541777,4.54397,-17.08,24.219999,-14.21,1729475434937.0,0.0
-1.320838,-5.907879,5.448457,-38.290001,24.290001,-1.12,1729475434956.0,0.0
-0.942772,-6.563512,5.034499,-60.060001,13.02,15.61,1729475434976.0,0.0
-1.122234,-8.195417,3.330809,-64.050003,3.15,24.01,1729475434997.0,0.0
-1.091127,-8.810372,3.285345,-31.43,5.32,30.1,1729475435016.0,0.0
-1.411765,-7.738388,6.151947,-2.52,11.62,35.490002,1729475435039.0,0.0
-4.280759,-4.232903,12.160326,-72.800003,-12.11,31.43,1729475435056.0,0.0
-5.52742,-8.767302,7.585248,-175.070007,-60.619999,42.07,1729475435076.0,0.0
-0.937986,-16.594225,3.795017,-186.199997,-78.68,-3.57,1729475435097.0,0.0
-1.837688,-11.002198,1.387837,-45.990002,-51.240002,-5.32,1729475435116.0,0.0
-2.414358,-7.846066,0.265603,88.480003,-3.85,-17.85,1729475435136.0,0.0
-1.773082,-8.315059,1.038485,83.440002,22.33,-20.02,1729475435156.0,0.0
-2.344966,-7.733603,3.084348,105.559998,35.630001,-16.450001,1729475435177.0,0.0
-2.926422,-5.838487,4.177868,124.739998,38.57,-3.36,1729475435197.0,0.0
-3.144169,-5.788238,4.553542,74.900002,34.650002,-1.33,1729475435216.0,0.0
-2.76371,-9.159724,5.28096,-34.09,19.32,-8.96,1729475435237.0,0.0
-1.019342,-13.191631,4.788038,-79.660004,7.56,-22.4,1729475435257.0,0.0
0.526421,-14.141582,6.252446,-19.32,1.75,-28.559999,1729475435276.0,0.0
0.074178,-10.083356,6.034698,87.989998,-7.35,-28.91,1729475435298.0,0.0
-1.895115,-5.948557,4.87418,130.270004,-10.43,-26.6,1729475435315.0,0.0
-3.706482,-4.149154,4.271189,84.559998,-7.35,-23.52,1729475435336.0,0.0
-4.125226,-3.471986,3.759124,19.18,4.48,-15.89,1729475435356.0,0.0
-3.105884,-4.728218,4.67079,-13.440001,17.219999,-4.83,1729475435376.0,0.0
-2.033899,-6.199803,5.551349,-28.700001,21.210001,8.4,1729475435397.0,0.0
-1.68694,-7.503892,4.759324,-34.509998,14.84,21.49,1729475435423.0,0.0
-0.784846,-7.365108,4.675575,-15.96,13.72,32.48,1729475435439.0,0.0
-1.148555,-6.903293,6.9009,-15.05,12.95,39.27,1729475435456.0,0.0
-4.086941,-3.146562,14.266008,-94.849998,-13.23,41.23,1729475435477.0,0.0
-5.371887,-10.978271,7.410572,-218.050003,-70.07,47.529999,1729475435498.0,0.0
-1.028914,-16.922041,2.132005,-246.190002,-89.949997,-16.1,1729475435517.0,0.0
-2.663212,-13.593626,-1.119841,-45.5,-50.75,3.64,1729475435538.0,0.0
-2.002793,-8.221739,-0.866202,81.410004,-6.09,-20.09,1729475435558.0,0.0
-1.65344,-5.785845,1.383051,107.660004,29.82,-13.23,1729475435577.0,0.0
-2.971886,-5.773881,3.18724,84.0,39.060001,-9.8,1729475435599.0,0.0
-3.474378,-6.833901,2.947958,42.139999,38.639999,-9.8,1729475435616.0,0.0
-3.172883,-8.537591,3.275774,6.02,37.450001,0.14,1729475435637.0,0.0
-2.428715,-10.451849,4.63729,-17.639999,30.1,-2.59,1729475435658.0,0.0
-1.509871,-11.576476,5.237889,-7.07,15.54,-11.48,1729475435677.0,0.0
-0.926022,-12.01197,6.656832,28.98,4.62,-18.690001,1729475435698.0,0.0
0.397209,-10.741381,5.673382,38.080002,-5.25,-23.52,1729475435718.0,0.0
-0.308674,-7.913064,5.314459,72.730003,-10.85,-23.309999,1729475435801.0,0.0
-2.033899,-7.441679,4.12044,101.290001,-7.98,-25.200001,1729475435808.0,0.0
-3.347559,-7.549356,3.443272,77.489998,4.41,-27.93,1729475435810.0,0.0
-3.888337,-6.283553,4.622933,58.310001,22.190001,-26.67,1729475435812.0,0.0
-4.24726,-4.041477,5.627919,46.689999,29.82,-17.15,1729475435816.0,0.0
-3.524628,-3.651447,6.460621,8.33,25.34,-4.76,1729475435838.0,0.0
-2.486143,-4.393222,6.415157,-39.48,12.11,8.26,1729475435858.0,0.0
-2.091327,-5.17089,4.898108,-58.170002,3.43,28.35,1729475435879.0,0.0
-2.031506,-8.410772,5.266603,-91.0,2.31,35.630001,1729475435900.0,0.0
-0.265603,-12.117253,2.321038,-181.369995,-12.32,19.809999,1729475435918.0,0.0
-0.768096,-13.13181,3.354738,-84.0,1.54,33.110001,1729475435939.0,0.0
-3.859623,-5.611169,9.482756,16.17,5.67,24.57,1729475435958.0,0.0
-4.682754,-6.173482,8.9348,-22.049999,-27.09,41.09,1729475435978.0,0.0
-1.636691,-11.593226,4.991428,-140.0,-56.349998,-3.57,1729475435999.0,0.0
-1.4668,-13.383057,2.361716,-116.199997,-48.509998,0.21,1729475436019.0,0.0
-0.940379,-10.727024,0.863809,34.580002,-7.91,-17.639999,1729475436041.0,0.0
-1.655833,-9.690931,1.837688,104.370003,11.62,-20.02,1729475436058.0,0.0
-2.861816,-7.513463,2.411965,139.020004,26.809999,-21.77,1729475436079.0,0.0
-3.065206,-4.87418,2.68714,138.669998,37.799999,-15.26,1729475436098.0,0.0
-3.476771,-4.256832,4.228118,110.389999,49.700001,-3.78,1729475436117.0,0.0
-3.57727,-6.240481,5.103891,-10.85,43.540001,-8.75,1729475436142.0,0.0
-1.773082,-11.313265,5.623133,-110.18,24.85,-13.3,1729475436158.0,0.0
0.208176,-15.146567,6.91765,-71.470001,3.29,-18.969999,1729475436179.0,0.0
-0.102891,-12.698709,7.094719,59.290001,-11.9,-18.41,1729475436200.0,0.0
-1.438086,-7.4345,5.216353,144.690002,-20.440001,-17.639999,1729475436217.0,0.0
-3.519842,-4.285545,3.979264,130.759995,-16.59,-15.89,1729475436238.0,0.0
-5.029713,-3.215954,4.259224,59.080002,-3.08,-13.93,1729475436258.0,0.0
-4.575077,-4.931608,4.156333,-19.18,11.13,-12.46,1729475436279.0,0.0
-2.447858,-7.252645,4.642076,-60.060001,20.02,-9.52,1729475436299.0,0.0
-1.519442,-7.147361,5.596812,-38.990002,22.540001,4.34,1729475436318.0,0.0
-1.409373,-6.522834,4.206582,-22.4,21.280001,20.65,1729475436339.0,0.0
-0.638884,-7.554141,2.979064,-56.91,17.85,19.389999,1729475436357.0,0.0
-0.997807,-7.953743,5.087141,-27.370001,20.719999,35.420002,1729475436378.0,0.0
-4.931608,-2.684747,14.266008,-84.0,0.7,36.82,1729475436401.0,0.0
-6.685547,-9.183653,7.159326,-203.419998,-61.459999,53.060001,1729475436418.0,0.0
-1.596013,-18.211773,2.39043,-258.51001,-88.199997,-20.58,1729475436440.0,0.0
-1.06002,-16.677973,-0.990629,-82.599998,-52.360001,-1.4,1729475436460.0,0.0
-1.294517,-9.698111,-1.136591,97.790001,-2.45,-29.610001,1729475436479.0,0.0
-1.495514,-6.326623,1.773082,156.940002,31.639999,-21.07,1729475436501.0,0.0
-2.87378,-5.45085,3.921836,149.869995,35.77,-21.91,1729475436519.0,0.0
-3.98405,-5.108676,4.591826,135.380005,32.759998,-7.49,1729475436538.0,0.0
-4.165904,-5.108676,3.988836,91.07,33.740002,-0.98,1729475436558.0,0.0
-4.163511,-7.810174,4.386044,-10.01,28.139999,-4.34,1729475436578.0,0.0
-2.043471,-12.086146,4.733003,-85.470001,16.309999,-17.290001,1729475436601.0,0.0
0.294317,-14.555541,6.206983,-44.52,6.09,-25.620001,1729475436618.0,0.0
0.337388,-11.918649,7.21436,66.849998,-9.66,-27.860001,1729475436639.0,0.0
-1.277767,-8.331808,5.096712,140.770004,-21.49,-24.85,1729475436657.0,0.0
-2.95035,-4.867002,4.223332,131.460007,-17.639999,-27.370001,1729475436680.0,0.0
-4.627719,-3.522235,5.151747,69.790001,-6.58,-19.950001,1729475436698.0,0.0
-3.048456,-6.4343,4.603791,-29.960001,3.15,-19.6,1729475436718.0,0.0
-1.249053,-8.279166,4.520042,-25.059999,12.39,-10.22,1729475436738.0,0.0
-1.569692,-7.37468,5.268995,5.18,19.460001,4.62,1729475436757.0,0.0
-2.414358,-3.960121,5.005785,16.52,20.16,14.63,1729475436779.0,0.0
-3.299703,-4.821537,3.598805,12.88,27.790001,28.35,1729475436799.0,0.0
-1.605584,-7.702496,4.072584,-101.57,22.75,11.76,1729475436819.0,0.0
-1.715654,-10.581062,3.962514,-113.470001,24.219999,35.0,1729475436840.0,0.0
-1.875973,-8.362915,8.073383,-57.049999,24.15,26.74,1729475436859.0,0.0
-4.833502,-5.338387,11.487941,-71.540001,-12.39,49.560001,1729475436879.0,0.0
-3.024528,-10.542776,8.690732,-166.949997,-55.93,31.01,1729475436898.0,0.0
-0.086142,-14.390435,4.9675,-186.830002,-76.790001,6.3,1729475436918.0,0.0
-1.51705,-11.875579,2.902494,-98.559998,-61.040001,-1.61,1729475436940.0,0.0
-3.160919,-12.074183,-2.806781,-14.21,-39.689999,-15.12,1729475436957.0,0.0
-1.476372,-11.045268,-1.617548,108.779999,11.41,-22.540001,1729475436978.0,0.0
-3.189633,-7.410572,2.459821,205.029999,51.029999,-23.1,1729475437000.0,0.0
-4.400401,-4.022335,4.302295,205.660004,57.75,-19.110001,1729475437018.0,0.0
-4.603791,-4.055835,5.56092,148.259995,58.66,-8.05,1729475437042.0,0.0
-3.823731,-8.248059,5.771489,-47.459999,31.290001,-14.21,1729475437057.0,0.0
-1.409373,-12.495319,5.575277,-83.440002,13.58,-20.93,1729475437078.0,0.0
0.038285,-13.227524,6.616155,-16.799999,-3.29,-24.43,1729475437100.0,0.0
-0.612563,-10.114462,6.965507,88.269997,-18.200001,-20.93,1729475437116.0,0.0
-2.275574,-7.04447,6.345766,119.07,-27.09,-20.51,1729475437143.0,0.0
-3.062813,-4.878965,4.821537,68.529999,-24.710001,-21.559999,1729475437161.0,0.0
-3.54377,-3.905087,3.986443,15.47,-12.74,-16.73,1729475437178.0,0.0
-3.541377,-5.448457,4.354938,-16.24,3.36,-11.48,1729475437200.0,0.0
-2.244468,-7.362715,4.989035,-41.16,14.14,-7.14,1729475437219.0,0.0
-1.895115,-7.152147,5.12782,-34.16,16.309999,1.61,1729475437238.0,0.0
-2.648855,-5.508278,5.010571,-2.87,19.67,14.77,1729475437257.0,0.0
-2.469393,-6.254838,4.85743,-46.830002,21.280001,15.54,1729475437278.0,0.0
-0.973879,-8.391629,3.503092,-162.539993,10.08,9.38,1729475437300.0,0.0
-1.550549,-10.382458,3.07717,-133.070007,8.89,33.529999,1729475437318.0,0.0
-1.859223,-7.365108,6.774081,-43.470001,17.639999,29.68,1729475437340.0,0.0
-4.352544,-3.282953,10.782058,-73.290001,-10.43,47.529999,1729475437357.0,0.0
-2.550749,-14.297115,5.905487,-227.710007,-75.529999,10.57,1729475437379.0,0.0
-1.445265,-17.053648,0.935594,-173.669998,-72.239998,1.68,1729475437400.0,0.0
-2.191825,-12.595818,0.579063,2.94,-34.02,-10.78,1729475437417.0,0.0
-2.313859,-10.614561,-1.275374,82.110001,-5.81,-24.5,1729475437439.0,0.0
-2.232504,-9.332008,0.957129,152.389999,26.040001,-29.190001,1729475437464.0,0.0
-3.538985,-6.85783,2.065006,183.259995,42.420002,-30.17,1729475437479.0,0.0
-4.304688,-4.74736,3.256632,178.779999,52.709999,-20.93,1729475437499.0,0.0
-4.713861,-4.26401,4.881358,86.730003,52.080002,-22.68,1729475437520.0,0.0
-2.995814,-8.446664,5.814559,-46.34,30.940001,-22.4,1729475437538.0,0.0
0.059821,-13.222737,6.491727,-68.529999,5.6,-26.880001,1729475437557.0,0.0
0.351745,-12.744174,6.465407,40.950001,-13.93,-23.940001,1729475437580.0,0.0
-1.344766,-9.102298,5.06082,134.820007,-23.1,-18.200001,1729475437598.0,0.0
-2.955136,-5.575277,3.61077,120.75,-16.59,-21.35,1729475437618.0,0.0
-4.108476,-2.572284,2.782853,52.080002,-2.52,-16.940001,1729475437638.0,0.0
-4.639683,-2.87378,3.783052,-7.28,9.87,-1.54,1729475437659.0,0.0
-1.605584,-6.226124,3.704089,-56.560001,20.02,6.09,1729475437679.0,0.0
-0.442672,-6.886543,4.790431,-70.07,23.870001,34.16,1729475437700.0,0.0
-0.619741,-6.678369,5.915058,-75.18,20.09,47.18,1729475437717.0,0.0
-3.335595,-5.876772,10.889735,-138.809998,-6.23,50.82,1729475437738.0,0.0
-6.015556,-7.996813,9.236296,-225.610001,-59.709999,59.010002,1729475437760.0,0.0
-3.125026,-15.445671,3.213561,-284.269989,-82.739998,18.34,1729475437780.0,0.0
-1.567299,-16.630117,-1.418944,-217.699997,-70.699997,-5.04,1729475437801.0,0.0
-2.469393,-12.373285,-3.955336,-35.420002,-20.51,-9.59,1729475437820.0,0.0
-1.971686,-8.949157,-0.870987,74.690002,21.0,-12.53,1729475437840.0,0.0
-1.883151,-7.101898,1.785046,106.82,37.52,-15.82,1729475437860.0,0.0
-3.28056,-7.063612,3.369094,123.900002,34.299999,-7.84,1729475437880.0,0.0
-3.850052,-7.200003,3.158526,124.18,27.440001,0.84,1729475437912.0,0.0
-4.192225,-7.448857,2.770889,102.410004,23.17,-1.26,1729475437919.0,0.0
-4.591826,-9.169296,4.051049,76.580002,24.15,-4.48,1729475437941.0,0.0
-2.842674,-11.358729,5.568098,26.530001,16.450001,-20.93,1729475437960.0,0.0
-0.502493,-13.174881,5.656632,38.920002,4.62,-35.84,1729475437980.0,0.0
0.157926,-11.547763,5.953342,82.25,-10.92,-38.920002,1729475438001.0,0.0
-0.504886,-8.501699,5.180461,138.110001,-17.43,-38.57,1729475438018.0,0.0
-2.043471,-5.565705,3.376273,169.680008,-11.83,-37.59,1729475438043.0,0.0
-3.517449,-3.835695,3.215954,130.759995,0.56,-34.23,1729475438059.0,0.0
-4.240082,-3.084348,3.37388,64.120003,17.780001,-25.27,1729475438079.0,0.0
-3.45045,-3.512664,4.520042,-1.61,28.98,-14.56,1729475438101.0,0.0
-2.120041,-4.95075,5.307281,-48.02,30.309999,2.94,1729475438119.0,0.0
-1.234696,-5.833702,4.579862,-68.529999,25.200001,25.27,1729475438139.0,0.0
-1.304088,-6.30748,4.666004,-67.269997,20.58,42.98,1729475438158.0,0.0
-1.959722,-6.853044,5.175675,-96.32,15.75,50.119999,1729475438183.0,0.0
-3.558127,-6.259624,8.645268,-177.660004,-1.12,49.98,1729475438199.0,0.0
-6.319445,-7.252645,9.004191,-267.049988,-39.200001,56.209999,1729475438219.0,0.0
-3.67059,-15.940985,4.48415,-312.410004,-67.620003,24.08,1729475438241.0,0.0
-1.497907,-16.199409,-0.210568,-232.75,-63.139999,1.47,1729475438260.0,0.0
-1.72044,-12.99542,-2.718246,-49.279999,-22.960001,-5.46,1729475438280.0,0.0
-1.37348,-10.571491,-0.399601,42.209999,13.3,-13.440001,1729475438300.0,0.0
-1.9669,-7.142576,2.012364,100.169998,43.75,-17.639999,1729475438318.0,0.0
-3.354738,-6.30748,3.014957,103.949997,35.91,-8.54,1729475438339.0,0.0
-3.531806,-7.460821,2.916851,91.629997,20.65,-2.45,1729475438360.0,0.0
-3.912265,-8.575876,2.608176,76.650002,13.86,-3.36,1729475438379.0,0.0
-4.816752,-9.580862,2.59382,61.25,11.2,-6.44,1729475438399.0,0.0
-3.749553,-11.353944,4.304688,32.130001,9.38,-18.549999,1729475438420.0,0.0
-1.782653,-12.052648,5.079963,20.16,4.62,-29.610001,1729475438441.0,0.0
-0.693919,-10.79163,5.630312,47.32,-3.22,-35.77,1729475438458.0,0.0
-0.586242,-9.461221,6.448657,79.029999,-16.66,-31.92,1729475438479.0,0.0
-0.937986,-7.613962,4.831109,109.900002,-23.799999,-29.75,1729475438501.0,0.0
-2.15354,-6.068198,3.404987,124.18,-15.96,-24.15,1729475438518.0,0.0
-3.474378,-4.613362,3.337988,93.449997,-1.33,-19.879999,1729475438539.0,0.0
-4.31426,-4.701896,3.615555,35.07,11.34,-11.9,1729475438560.0,0.0
-3.26381,-6.656832,3.718446,-28.77,14.56,-7.42,1729475438579.0,0.0
-2.151148,-8.13799,4.508078,-45.920002,14.63,3.43,1729475438602.0,0.0
-1.911865,-7.755138,4.503292,-31.57,7.98,11.9,1729475438618.0,0.0
-2.361716,-7.733603,2.98385,-12.04,7.35,20.58,1729475438640.0,0.0
-1.825724,-7.633104,4.953143,-41.720001,14.21,19.950001,1729475438658.0,0.0
-2.778067,-7.905886,4.728218,-81.129997,8.19,30.309999,1729475438679.0,0.0
-2.313859,-7.357929,6.175875,-94.639999,4.62,23.59,1729475438701.0,0.0
-4.780859,-5.819345,9.131011,-115.080002,-16.379999,35.77,1729475438718.0,0.0
-4.441079,-9.537791,5.216353,-163.169998,-37.59,36.68,1729475438739.0,0.0
-1.892723,-13.469198,4.199404,-188.509995,-56.209999,10.85,1729475438758.0,0.0
-1.301696,-12.844672,2.600998,-134.050003,-43.959999,7.14,1729475438780.0,0.0
-2.103291,-10.336994,1.512264,-73.849998,-30.73,-5.95,1729475438798.0,0.0
-2.665605,-10.633704,-1.335195,-32.830002,-17.15,-7.98,1729475438818.0,0.0
-1.840081,-11.016556,-1.0002,31.57,2.31,-16.59,1729475438839.0,0.0
-2.517249,-8.688338,0.899701,94.989998,29.82,-10.22,1729475438858.0,0.0
-3.639483,-7.56132,1.775474,101.639999,34.09,-12.6,1729475438878.0,0.0
-3.924229,-8.446664,2.175076,85.330002,32.060001,-10.08,1729475438901.0,0.0
-3.546163,-9.650253,2.665605,65.730003,30.52,-17.43,1729475438918.0,0.0
-2.266003,-11.298907,3.481557,65.590004,25.200001,-25.9,1729475438940.0,0.0
-0.830309,-11.803794,5.261817,80.5,13.58,-33.25,1729475438959.0,0.0
-0.387637,-9.980463,5.371887,113.470001,-1.75,-35.209999,1729475438980.0,0.0
-1.954936,-7.226324,4.287938,161.770004,-14.42,-33.18,1729475439001.0,0.0
-3.160919,-4.898108,4.575077,160.089996,-7.14,-29.610001,1729475439018.0,0.0
-4.017549,-4.122833,4.926822,111.020004,2.24,-18.690001,1729475439041.0,0.0
-3.704089,-4.608576,4.498507,33.110001,7.91,-18.969999,1729475439060.0,0.0
-2.344966,-6.020342,4.606184,-13.16,14.91,-11.62,1729475439079.0,0.0
-1.59362,-6.642475,4.9675,-14.77,20.440001,-0.14,1729475439102.0,0.0
-1.756332,-6.345766,5.168497,-19.25,21.559999,12.53,1729475439117.0,0.0
-1.789831,-7.166504,4.441079,-40.110001,18.690001,22.120001,1729475439139.0,0.0
-1.607977,-8.451449,3.888337,-68.040001,16.52,25.690001,1729475439161.0,0.0
-1.438086,-8.324631,4.304688,-103.739998,15.47,23.66,1729475439180.0,0.0
-1.536192,-7.489535,5.589634,-154.839996,5.32,22.82,1729475439202.0,0.0
-3.148954,-4.809574,7.755138,-210.630005,-14.7,32.34,1729475439218.0,0.0
-4.268795,-6.752545,6.506085,-268.170013,-41.16,48.23,1729475439239.0,0.0
-3.811767,-12.997812,3.278167,-368.200012,-68.529999,1.33,1729475439260.0,0.0
-3.553342,-17.924635,-2.18704,-300.51001,-73.849998,-3.43,1729475439280.0,0.0
-1.935793,-14.321043,-3.601198,-77.769997,-34.509998,-17.85,1729475439300.0,0.0
-2.828316,-8.243275,-0.129212,109.340004,3.64,-14.28,1729475439318.0,0.0
-3.828516,-7.089933,2.175076,105.0,30.309999,-20.51,1729475439340.0,0.0
-3.998406,-8.013563,3.196811,43.330002,21.84,-22.120001,1729475439359.0,0.0
-3.601198,-9.559326,2.775674,-8.61,6.93,-23.52,1729475439380.0,0.0
-3.266203,-9.997212,1.976472,-2.66,1.89,-25.34,1729475439400.0,0.0
-2.656033,-9.221939,1.715654,44.799999,-0.91,-22.889999,1729475439418.0,0.0
-2.270789,-9.075976,1.600798,88.340004,6.58,-14.63,1729475439439.0,0.0
-1.866402,-9.513863,1.141376,91.489998,7.49,-15.4,1729475439459.0,0.0
-1.426122,-10.705488,0.571885,89.739998,16.940001,-14.28,1729475439481.0,0.0
-0.861416,-11.45205,0.490529,96.879997,30.030001,-22.82,1729475439501.0,0.0
-0.153141,-11.308479,1.268196,115.220001,48.790001,-24.780001,1729475439518.0,0.0
-0.052642,-11.542977,2.134398,127.959999,62.650002,-32.970001,1729475439540.0,0.0
0.165105,-11.174481,1.081556,156.029999,72.870003,-45.150002,1729475439560.0,0.0
-0.485743,-10.937593,0.902094,175.699997,92.120003,-64.330002,1729475439578.0,0.0
-0.923629,-8.60459,4.015156,175.699997,96.879997,-74.620003,1729475439599.0,0.0
-1.806581,-4.993821,6.798009,207.479996,93.169998,-51.66,1729475439620.0,0.0
-1.473979,-0.452243,8.798409,220.850006,88.129997,-34.790001,1729475439638.0,0.0
-0.512064,-1.464408,6.783652,129.779999,50.610001,-15.96,1729475439658.0,0.0
-0.509671,-4.168297,6.111269,31.08,26.809999,-0.63,1729475439679.0,0.0
-1.344766,-5.443672,7.767102,-21.559999,23.940001,17.01,1729475439699.0,0.0
-2.940779,-6.386444,8.85105,-91.559998,17.219999,20.370001,1729475439718.0,0.0
-4.362115,-6.896115,8.908479,-167.089996,-18.34,24.219999,1729475439739.0,0.0
-5.800202,-9.037691,6.195018,-177.449997,-28.0,15.47,1729475439758.0,0.0
-5.62074,-7.111469,6.290731,-211.399994,-36.189999,-22.68,1729475439779.0,0.0
-4.144369,-8.190632,5.582455,-184.869995,-29.190001,15.4,1729475439799.0,0.0
-1.521835,-9.265009,3.323631,-188.789993,-27.09,-3.5,1729475439819.0,0.0
0.244068,-8.999406,1.971686,-221.270004,-39.830002,-0.28,1729475439838.0,0.0
-0.12682,-8.449057,2.878566,-235.339996,-34.790001,24.290001,1729475439858.0,0.0
-1.476372,-6.448657,1.734797,-245.350006,-29.889999,32.619999,1729475439877.0,0.0
-3.199204,-6.190232,0.636491,-228.759995,-20.16,30.380001,1729475439899.0,0.0
-4.180261,-7.171289,-1.804188,-244.020004,-17.57,25.969999,1729475439918.0,0.0
-4.606184,-7.834101,-4.177868,-268.029999,-22.120001,22.120001,1729475439939.0,0.0
-5.599205,-10.959127,-7.070791,-254.520004,-39.41,11.41,1729475439957.0,0.0
-6.443871,-20.666809,-11.083554,-144.830002,-48.93,-19.18,1729475439979.0,0.0
-3.52702,-16.096518,-8.913264,144.339996,3.15,-46.759998,1729475439999.0,0.0
-2.464607,-10.801201,-4.701896,362.529999,81.690002,-45.639999,1729475440019.0,0.0
-2.813959,-7.623533,-2.435893,433.230011,94.220001,-63.630001,1729475440041.0,0.0
-2.423929,-4.426722,-2.079363,449.470001,95.690002,-49.77,1729475440060.0,0.0
-1.567299,-2.488536,0.141177,468.720001,86.800003,-14.21,1729475440078.0,0.0
0.473779,0.327817,4.493721,443.380005,64.050003,-13.16,1729475440313.0,0.0
0.662812,-0.543171,10.834702,364.630005,113.610001,-42.560001,1729475440313.0,0.0
-2.050649,-2.096112,11.286944,170.100006,91.559998,-42.98,1729475440314.0,0.0
-2.230111,-2.957529,8.238488,-3.29,39.970001,5.11,1729475440320.0,0.0
-2.557927,-4.388437,9.329616,-66.43,24.99,24.57,1729475440320.0,0.0
-3.900301,-5.180461,8.930015,-59.290001,16.73,20.440001,1729475440321.0,0.0
-3.826123,-7.668997,9.688539,-46.130001,9.31,30.59,1729475440322.0,0.0
-3.299703,-8.769694,8.91805,-92.540001,-4.41,28.91,1729475440322.0,0.0
-4.536791,-8.788837,6.98465,-123.270004,-26.950001,22.960001,1729475440322.0,0.0
-3.974478,-8.480164,6.45105,-138.529999,-29.610001,6.72,1729475440322.0,0.0
-2.883351,-9.710074,7.508677,-174.369995,-36.68,6.72,1729475440323.0,0.0
0.488136,-7.817351,0.468993,-207.619995,-65.870003,-9.1,1729475440323.0,0.0
-0.504886,-6.549156,1.615155,-182.419998,-44.240002,12.04,1729475440338.0,0.0
-1.502693,-5.556134,0.239282,-179.410004,-45.990002,34.02,1729475440358.0,0.0
-3.062813,-5.982057,0.70349,-169.889999,-17.01,52.57,1729475440393.0,0.0
-3.510271,-7.06122,0.023928,-209.720001,-21.98,36.82,1729475440399.0,0.0
-4.273581,-9.942179,-1.105484,-276.149994,-39.34,33.040001,1729475440417.0,0.0
-4.797609,-12.959527,-2.871387,-296.730011,-65.730003,21.559999,1729475440439.0,0.0
-5.788238,-16.051056,-5.618347,-234.430008,-66.709999,-6.44,1729475440458.0,0.0
-5.910272,-19.494326,-10.281959,-56.560001,-43.82,-47.880001,1729475440478.0,0.0
-3.328416,-15.591633,-9.640682,190.889999,17.290001,-66.220001,1729475440499.0,0.0
-2.871387,-10.047462,-4.347759,401.170013,73.849998,-56.349998,1729475440527.0,0.0
-3.409772,-6.07777,1.06002,494.200012,80.709999,-68.669998,1729475440549.0,0.0
-2.400001,-1.897508,2.723032,470.890015,70.769997,-59.920002,1729475440637.0,0.0
-1.45005,-1.074377,2.723032,400.399994,74.410004,-37.029999,1729475440653.0,0.0
0.023928,-2.165504,4.814359,291.410004,51.450001,-39.130001,1729475440654.0,0.0
-1.459622,-3.665804,6.350551,165.479996,75.32,-41.02,1729475440670.0,0.0
-1.399801,-4.254438,7.738388,49.560001,65.590004,-26.25,1729475440672.0,0.0
-2.541178,-1.921437,9.600004,30.940001,58.869999,10.85,1729475440673.0,0.0
-4.182654,-4.010371,11.4353,39.689999,36.189999,21.07,1729475440681.0,0.0
-4.13719,-7.192825,11.715261,-30.940001,3.64,27.93,1729475440699.0,0.0
-3.227918,-9.705289,9.822537,-114.590004,-18.620001,29.120001,1729475440751.0,0.0
-3.716053,-10.181459,7.860423,-150.080002,-42.700001,16.030001,1729475440754.0,0.0
-4.185047,-7.814958,7.822137,-141.539993,-47.110001,-1.75,1729475440851.0,0.0
-3.728018,-7.147361,7.424929,-147.490005,-40.18,-4.13,1729475440852.0,0.0
-2.127219,-8.848659,6.116055,-194.039993,-65.309998,-21.210001,1729475440853.0,0.0
0.579063,-8.341379,0.387637,-246.540009,-69.650002,-11.9,1729475440866.0,0.0
0.679562,-7.788638,-0.244068,-252.279999,-61.18,5.88,1729475440866.0,0.0
-0.792024,-5.06082,-0.914058,-202.930008,-28.35,34.439999,1729475440866.0,0.0
-3.778267,-6.092126,1.615155,-147.070007,-2.24,40.389999,1729475440879.0,0.0
-4.070191,-6.250053,0.217747,-205.940002,-14.63,18.549999,1729475440899.0,0.0
-4.036692,-7.60439,-1.706082,-310.100006,-44.450001,30.1,1729475440919.0,0.0
-5.103891,-11.25823,-4.936393,-320.73999,-70.629997,11.48,1729475440940.0,0.0
-7.082755,-20.078175,-14.857035,-211.610001,-91.419998,-32.41,1729475440960.0,0.0
-3.503092,-22.8706,-12.935599,46.970001,-49.420002,-94.010002,1729475440979.0,0.0
-0.878166,-12.074183,-8.930015,324.380005,88.199997,-30.870001,1729475441008.0,0.0
-1.986043,-6.690332,-2.086541,545.859985,126.419998,-49.98,1729475441022.0,0.0
-3.163311,-2.323431,0.27996,590.869995,128.869995,-47.040001,1729475441050.0,0.0
-3.696911,0.945165,1.423729,556.849976,122.5,3.08,1729475441063.0,0.0
-2.378466,1.471586,4.62054,429.940002,91.419998,-9.31,1729475441091.0,0.0
-1.012164,-0.638884,10.265208,203.979996,88.900002,-52.990002,1729475441310.0,0.0
-1.598405,-2.816352,10.521241,-6.79,62.790001,-28.210001,1729475441310.0,0.0
-1.885544,-6.963113,9.24108,-63.209999,32.830002,2.94,1729475441311.0,0.0
-1.440479,-6.391229,9.102298,-30.1,27.51,8.05,1729475441311.0,0.0
-2.713461,-5.965307,10.150353,44.799999,20.370001,20.93,1729475441311.0,0.0
-3.438486,-6.757331,9.671788,20.51,3.01,17.290001,1729475441312.0,0.0
-3.457629,-7.77428,9.202796,-64.82,-11.27,22.610001,1729475441312.0,0.0
-4.807181,-7.872386,7.673782,-119.349998,-36.75,19.6,1729475441312.0,0.0
-4.335794,-8.243275,7.865208,-147.910004,-43.75,-2.87,1729475441312.0,0.0
-2.696711,-10.370493,7.523034,-221.479996,-55.23,-9.73,1729475441312.0,0.0
0.059821,-9.159724,3.06042,-301.980011,-85.050003,-17.15,1729475441313.0,0.0
1.473979,-6.226124,-0.531207,-268.380005,-75.389999,-0.77,1729475441319.0,0.0
-1.251446,-5.510671,0.430708,-178.009995,-47.25,19.74,1729475441338.0,0.0
-4.04387,-5.611169,0.150748,-147.559998,-19.110001,32.060001,1729475441366.0,0.0
-4.850252,-5.496314,-1.287339,-199.710007,-8.33,19.6,1729475441378.0,0.0
-4.498507,-7.006185,-1.78026,-262.290009,-28.0,25.27,1729475441398.0,0.0
-3.809374,-9.288938,-3.613162,-307.579987,-53.130001,29.33,1729475441418.0,0.0
-3.756732,-13.445271,-5.941379,-278.390015,-68.529999,11.69,1729475441440.0,0.0
-4.929214,-20.659632,-11.172089,-146.930008,-56.84,-22.610001,1729475441458.0,0.0
-3.199204,-20.791235,-10.363315,89.459999,-8.33,-60.27,1729475441609.0,0.0
-1.938186,-11.820543,-6.826723,358.190002,68.25,-44.799999,1729475441610.0,0.0
-2.782853,-6.896115,-1.509871,508.76001,93.730003,-56.279999,1729475441610.0,0.0
-3.428915,-3.022135,2.383251,504.839996,78.190002,-56.139999,1729475441611.0,0.0
-2.95035,-1.081556,3.591627,429.309998,65.449997,-37.52,1729475441612.0,0.0
-1.038485,-3.395415,2.758924,288.959991,50.470001,-31.57,1729475441614.0,0.0
0.222532,-6.936793,5.718846,85.400002,40.18,-42.630001,1729475441615.0,0.0
-0.89013,-8.571091,6.379266,71.75,66.290001,-24.639999,1729475441833.0,0.0
-1.914258,-3.732803,7.865208,98.840004,77.910004,-29.049999,1729475441834.0,0.0
-2.818745,0.976272,8.922836,80.639999,64.75,3.64,1729475441834.0,0.0
-3.711268,-1.627119,9.844072,35.420002,32.830002,36.75,1729475441834.0,0.0
-2.498107,-6.058627,10.810772,-37.450001,11.62,37.73,1729475441834.0,0.0
-1.787439,-8.635696,10.217353,-90.720001,-2.8,44.170002,1729475441834.0,0.0
-3.869194,-9.303294,7.724032,-114.309998,-25.41,54.110001,1729475441834.0,0.0
-5.65424,-9.664611,6.534799,-114.870003,-35.490002,25.059999,1729475441835.0,0.0
-4.256832,-9.504292,7.101898,-162.190002,-37.099998,7.14,1729475441835.0,0.0
-3.448057,-10.774881,7.034898,-228.339996,-55.93,0.14,1729475441836.0,0.0
-0.150748,-9.549755,-0.579063,-252.559998,-76.090004,-11.06,1729475441836.0,0.0
0.911665,-7.767102,-1.39023,-226.380005,-53.900002,-1.26,1729475441849.0,0.0
-1.852045,-6.324231,-0.701097,-203.279999,-37.099998,21.629999,1729475441859.0,0.0
-3.605984,-5.185246,0.01675,-168.350006,0.77,45.57,1729475441879.0,0.0
-4.261617,-4.902894,0.854238,-193.970001,1.54,37.310001,1729475441901.0,0.0
-4.706682,-6.209375,-1.055235,-289.519989,-9.1,32.34,1729475441930.0,0.0
-5.718846,-10.186246,-4.555934,-356.649994,-50.049999,20.790001,1729475441945.0,0.0
-6.721439,-19.42972,-12.306287,-286.579987,-94.220001,-15.05,1729475441965.0,0.0
-3.926622,-24.366114,-11.251052,-83.860001,-65.029999,-70.699997,1729475441981.0,0.0
-1.509871,-13.942977,-9.678967,207.690002,50.68,-48.16,1729475442116.0,0.0
-2.172683,-7.829315,-3.969693,441.559998,106.470001,-50.400002,1729475442121.0,0.0
-3.065206,-4.381258,-0.863809,480.059998,106.540001,-52.709999,1729475442121.0,0.0
-3.086741,-2.847459,1.442872,456.470001,88.620003,-23.450001,1729475442121.0,0.0
-1.773082,-1.885544,1.48355,366.100006,65.660004,-22.889999,1729475442122.0,0.0
-0.449851,-3.29731,2.734996,266.910004,57.889999,-31.99,1729475442122.0,0.0
-0.878166,-4.929214,6.989435,185.009995,66.919998,-20.51,1729475442123.0,0.0
-2.117648,-5.95095,9.84168,126.419998,67.690002,-16.59,1729475442140.0,0.0
-2.871387,-6.479764,9.269794,79.449997,42.84,-9.66,1729475442181.0,0.0
-3.146562,-6.312266,8.051848,43.75,19.460001,6.3,1729475442181.0,0.0
-2.63689,-7.76471,7.865208,28.0,-1.47,9.59,1729475442202.0,0.0
-2.706282,-6.860222,8.233703,11.06,1.4,7.42,1729475442220.0,0.0
-2.995814,-5.47717,7.855636,-24.99,-0.63,17.5,1729475442244.0,0.0
-3.471986,-5.166104,7.946564,-72.660004,-15.75,20.860001,1729475442262.0,0.0
-3.881158,-5.919843,6.989435,-100.029999,-24.5,26.32,1729475442284.0,0.0
-4.577469,-7.992027,7.585248,-170.869995,-38.709999,7.21,1729475442302.0,0.0
-3.921836,-11.114661,5.17089,-287.279999,-60.830002,-4.41,1729475442328.0,0.0
-1.09352,-12.315859,0.528814,-298.76001,-86.169998,-5.81,1729475442343.0,0.0
0.66999,-12.124433,-0.428315,-191.589996,-54.32,3.15,1729475442360.0,0.0
0.557528,-11.181661,-1.138984,-143.080002,-44.450001,-5.53,1729475442381.0,0.0
-1.727618,-7.989635,0.401994,-146.789993,-31.43,7.42,1729475442402.0,0.0
-3.345166,-4.955536,1.995614,-128.520004,-15.4,20.299999,1729475442420.0,0.0
-4.398008,-4.149154,0.514457,-154.699997,-13.02,1.68,1729475442450.0,0.0
-6.226124,-7.661818,-3.261417,-199.850006,-22.190001,-9.1,1729475442460.0,0.0
-6.209375,-12.459428,-6.52762,-189.910004,-65.800003,-27.16,1729475442481.0,0.0
-3.759124,-15.397814,-8.640482,-105.980003,-71.889999,-26.18,1729475442503.0,0.0
-0.5001,-13.48834,-8.135597,69.370003,1.68,-29.960001,1729475442520.0,0.0
-1.385444,-10.502099,-4.828716,362.179993,95.480003,-22.82,1729475442542.0,0.0
-2.132005,-6.415157,0.437887,469.700012,108.150002,-20.23,1729475442560.0,0.0
-2.175076,-3.333202,4.819145,459.480011,93.449997,-25.059999,1729475442581.0,0.0
-2.557927,-1.012164,5.766702,353.98999,93.800003,-35.0,1729475442601.0,0.0
-2.227718,-1.469193,6.836295,239.960007,70.910004,-30.450001,1729475442621.0,0.0
-1.9669,-3.582055,7.479963,125.440002,51.240002,-6.72,1729475442641.0,0.0
-2.179861,-6.963113,8.606983,72.449997,39.900002,-1.75,1729475442659.0,0.0
-2.790031,-6.750153,9.492328,55.02,36.049999,2.17,1729475442682.0,0.0
-3.09392,-6.13759,8.12124,66.43,25.83,17.219999,1729475442701.0,0.0
-2.490928,-5.91745,7.489535,52.639999,22.75,17.290001,1729475442720.0,0.0
-2.292324,-6.166305,8.482556,12.6,14.84,17.219999,1729475442741.0,0.0
-2.091327,-6.405586,10.222138,-14.49,7.84,27.299999,1729475442761.0,0.0
-3.333202,-5.493921,10.057034,-42.07,-13.72,30.309999,1729475442781.0,0.0
-4.003192,-5.180461,7.750352,-53.130001,-34.09,33.950001,1729475442801.0,0.0
-4.292724,-6.429514,7.767102,-111.230003,-43.400002,28.700001,1729475442820.0,0.0
-5.12782,-9.446864,7.903493,-276.98999,-79.730003,8.96,1729475442840.0,0.0
-1.995614,-10.784451,-0.830309,-468.580017,-117.110001,-25.200001,1729475442862.0,0.0
0.102891,-12.332609,-1.117448,-330.820007,-91.279999,-17.43,1729475442880.0,0.0
0.567099,-11.724831,-3.37388,-239.050003,-60.34,-19.74,1729475442903.0,0.0
-0.849452,-6.352944,-2.533999,-180.320007,-25.200001,12.32,1729475442922.0,0.0
-2.62732,-4.469792,0.600598,-85.540001,15.05,18.549999,1729475442940.0,0.0
-3.443272,-3.605984,-0.009571,-116.410004,24.5,12.04,1729475442960.0,0.0
-4.505685,-5.111069,-1.727618,-188.020004,5.04,27.299999,1729475442981.0,0.0
-5.398208,-9.49472,-4.646862,-233.309998,-30.380001,13.3,1729475443004.0,0.0
-5.656632,-17.001005,-9.083155,-170.380005,-55.720001,-17.08,1729475443020.0,0.0
-3.438486,-19.669003,-8.216952,-17.639999,-41.02,-45.639999,1729475443043.0,0.0
-1.68694,-13.086348,-6.252446,213.990005,53.970001,-23.379999,1729475443060.0,0.0
-1.5003,-9.035298,-2.945565,408.730011,87.779999,-30.309999,1729475443080.0,0.0
-1.725225,-5.862415,-1.177269,444.779999,96.459999,-31.710001,1729475443101.0,0.0
-1.459622,-4.041477,0.378066,420.279999,88.269997,-28.98,1729475443120.0,0.0
-1.067199,-2.469393,0.933201,355.040009,87.919998,-27.719999,1729475443140.0,0.0
-1.071985,-3.208775,5.405386,295.329987,94.290001,-19.32,1729475443164.0,0.0
-3.282953,-4.771288,10.992627,209.369995,88.550003,-15.33,1729475443181.0,0.0
-4.35733,-7.082755,11.282159,102.059998,32.41,0.21,1729475443202.0,0.0
-2.866602,-7.60439,9.403792,44.240002,12.81,-1.4,1729475443221.0,0.0
-1.356731,-6.592227,7.57089,29.469999,7.98,3.85,1729475443240.0,0.0
-1.933401,-4.68754,6.977471,23.799999,13.3,4.69,1729475443260.0,0.0
-2.478964,-4.156333,7.860423,-24.08,8.12,12.81,1729475443281.0,0.0
-3.168097,-4.754539,9.224331,-75.32,-8.19,25.200001,1729475443302.0,0.0
-3.565305,-4.76411,7.188039,-117.040001,-22.120001,32.130001,1729475443319.0,0.0
-4.701896,-7.161718,7.042077,-185.710007,-30.799999,20.02,1729475443341.0,0.0
-4.658825,-10.822738,6.465407,-318.149994,-67.129997,4.76,1729475443360.0,0.0
-2.775674,-14.153545,4.809574,-349.230011,-94.849998,-1.4,1729475443381.0,0.0
0.48335,-10.978271,-1.952543,-260.329987,-78.400002,3.22,1729475443401.0,0.0
0.722632,-9.671788,-1.545763,-170.520004,-51.170002,4.69,1729475443420.0,0.0
-0.971486,-6.742974,-1.07677,-186.410004,-38.150002,14.77,1729475443441.0,0.0
-2.495714,-4.007978,-0.504886,-166.320007,-15.12,30.940001,1729475443460.0,0.0
-4.223332,-5.039285,-0.902094,-168.279999,-0.35,22.82,1729475443481.0,0.0
-4.744967,-7.381857,-2.536392,-223.860001,-23.24,18.41,1729475443500.0,0.0
-4.752146,-13.490734,-8.003991,-258.929993,-47.25,14.77,1729475443520.0,0.0
-3.964907,-20.307888,-11.117055,-117.809998,-44.029999,-27.299999,1729475443540.0,0.0
-1.861616,-18.029919,-9.937392,82.879997,17.57,-49.700001,1729475443560.0,0.0
-1.849652,-11.770294,-5.458029,341.600006,85.75,-34.860001,1729475443581.0,0.0
-2.481357,-6.924829,-2.033899,468.160004,104.440002,-41.16,1729475443601.0,0.0
-2.888137,-4.295116,-0.29671,485.100006,98.349998,-42.490002,1729475443619.0,0.0
-2.589034,-2.955136,2.318645,435.959991,78.260002,-38.779999,1729475443640.0,0.0
-1.715654,-2.158326,4.259224,326.899994,66.639999,-34.02,1729475443659.0,0.0
-0.528814,-3.416951,7.257431,229.949997,66.010002,-40.389999,1729475443681.0,0.0
-1.978864,-2.924029,7.475177,135.940002,62.369999,-26.18,1729475443701.0,0.0
-2.299503,-2.586641,8.30788,108.709999,45.290001,-4.41,1729475443720.0,0.0
-3.129812,-2.957529,11.129018,75.459999,32.48,19.74,1729475443740.0,0.0
-3.902694,-3.926622,10.435099,11.76,1.75,39.970001,1729475443760.0,0.0
-2.184647,-6.443871,9.279366,-48.93,-11.9,43.400002,1729475443781.0,0.0
-3.541377,-7.135397,7.020542,-117.599998,-35.560001,51.310001,1729475443801.0,0.0
-4.902894,-8.695518,6.362515,-137.550003,-43.889999,42.700001,1729475443819.0,0.0
-4.804788,-10.420743,7.56132,-205.100006,-46.060001,16.1,1729475443840.0,0.0
-2.991028,-12.009576,5.955735,-304.079987,-77.910004,-4.55,1729475443860.0,0.0
-0.117248,-10.408779,-0.79681,-263.76001,-73.57,-6.86,1729475443880.0,0.0
1.584049,-8.477771,-3.65384,-204.470001,-54.040001,-1.54,1729475443902.0,0.0
-0.327817,-5.326423,-1.725225,-185.289993,-18.27,34.93,1729475443920.0,0.0
-2.782853,-4.010371,-0.382852,-143.779999,15.4,54.32,1729475443941.0,0.0
-5.276174,-4.98425,0.131605,-164.009995,16.799999,38.220001,1729475443960.0,0.0
-5.737988,-7.9681,-1.509871,-223.649994,-14.14,32.200001,1729475443980.0,0.0
-5.539384,-12.01197,-4.905287,-272.790009,-45.150002,24.43,1729475444003.0,0.0
-5.046463,-17.864815,-9.554541,-216.720001,-62.860001,-7.84,1729475444020.0,0.0
-3.15374,-21.427727,-9.262616,-40.18,-31.01,-50.470001,1729475444045.0,0.0
-1.816152,-13.830515,-7.633104,195.020004,48.16,-49.560001,1729475444060.0,0.0
-1.938186,-9.525827,-4.031906,422.380005,90.090004,-48.09,1729475444080.0,0.0
-2.172683,-6.118448,-1.22034,491.26001,98.629997,-49.07,1729475444101.0,0.0
-1.722832,-4.232903,1.548156,494.339996,79.660004,-32.900002,1729475444119.0,0.0
-1.445265,-1.071985,3.208775,414.399994,79.660004,-31.219999,1729475444141.0,0.0
-2.163112,-1.062413,4.910072,307.860016,88.059998,-33.389999,1729475444160.0,0.0
-2.737389,-4.725825,8.336594,164.149994,66.220001,-35.77,1729475444181.0,0.0
-2.656033,-6.07777,8.88455,9.66,39.48,-3.15,1729475444200.0,0.0
-2.632105,-6.001199,9.695717,8.89,27.370001,3.08,1729475444219.0,0.0
-3.498307,-5.62074,8.999406,6.86,1.12,12.88,1729475444241.0,0.0
-2.651247,-7.310073,8.422735,2.38,-9.1,17.85,1729475444259.0,0.0
-1.923829,-7.52782,7.57089,-29.75,-14.77,14.14,1729475444279.0,0.0
-3.007778,-6.479764,7.262216,-65.099998,-22.26,23.24,1729475444301.0,0.0
-4.393222,-5.793024,5.740381,-87.220001,-32.060001,23.309999,1729475444320.0,0.0
-4.278367,-7.355537,7.82453,-137.199997,-36.119999,6.3,1729475444340.0,0.0
-4.041477,-9.078369,7.008578,-266.769989,-58.52,2.31,1729475444360.0,0.0
-2.971886,-10.695917,4.134798,-320.809998,-88.900002,-10.01,1729475444379.0,0.0
-0.124427,-11.203196,-2.318645,-240.380005,-74.269997,-3.99,1729475444403.0,0.0
0.928415,-9.631111,-1.931008,-188.300003,-53.34,3.08,1729475444421.0,0.0
-0.301496,-7.470392,-0.792024,-185.360001,-36.189999,20.65,1729475444439.0,0.0
-2.309074,-5.702096,-0.071785,-165.059998,-13.51,31.5,1729475444461.0,0.0
-3.625126,-5.20439,0.035892,-169.610001,-9.45,14.84,1729475444487.0,0.0
-4.441079,-7.034898,-1.938186,-209.020004,-17.92,18.9,1729475444501.0,0.0
-5.046463,-11.289338,-8.73141,-238.630005,-40.740002,9.52,1729475444520.0,0.0
-4.055835,-20.408382,-8.853443,-77.209999,-45.220001,-32.759998,1729475444541.0,0.0
-1.971686,-17.309679,-8.260024,131.25,27.09,-45.360001,1729475444559.0,0.0
-1.572084,-10.695917,-4.953143,375.619995,85.540001,-35.209999,1729475444579.0,0.0
-1.887937,-6.503692,-1.586441,488.600006,105.629997,-34.09,1729475444600.0,0.0
-2.268396,-3.912265,2.54357,489.580017,91.629997,-29.049999,1729475444619.0,0.0
-2.218147,-1.667797,5.288138,412.790009,70.769997,-33.32,1729475444640.0,0.0
-1.72044,-1.311267,6.4678,288.610016,65.590004,-40.880001,1729475444660.0,0.0
-1.024128,-2.845066,6.216553,149.869995,55.93,-33.110001,1729475444679.0,0.0
-1.404587,-4.086941,5.35753,59.010002,39.48,-2.8,1729475444700.0,0.0
-2.711068,-4.792823,7.453642,48.720001,40.25,15.47,1729475444720.0,0.0
-4.347759,-5.096712,9.257831,40.32,28.84,21.91,1729475444740.0,0.0
-3.783052,-6.369694,10.303494,20.860001,8.19,30.380001,1729475444760.0,0.0
-2.859423,-7.73121,9.60479,-6.93,-2.73,36.68,1729475444780.0,0.0
-3.232704,-7.769495,7.903493,-60.34,-17.01,35.77,1729475444800.0,0.0
-4.046263,-9.126225,6.977471,-98.840004,-35.07,29.68,1729475444819.0,0.0
-4.285545,-9.640682,8.030313,-178.919998,-46.200001,6.58,1729475444840.0,0.0
-3.23031,-9.777073,5.998806,-296.940002,-71.889999,-13.440001,1729475444859.0,0.0
-0.760918,-8.506484,-0.76331,-310.869995,-73.010002,-18.969999,1729475444881.0,0.0
0.141177,-9.308081,-1.040878,-232.75,-46.549999,-18.620001,1729475444901.0,0.0
-0.653241,-8.508877,-1.378266,-241.430008,-29.33,-4.55,1729475444920.0,0.0
-1.665405,-6.101698,0.464208,-245.279999,-23.450001,32.27,1729475444939.0,0.0
-2.088934,-5.087141,0.232104,-241.080002,-10.78,24.57,1729475444959.0,0.0
-2.660819,-5.52742,-2.469393,-266.980011,-9.59,17.57,1729475444980.0,0.0
-3.833302,-9.176475,-7.410572,-270.339996,-21.98,24.08,1729475445000.0,0.0
-4.584648,-14.510076,-9.083155,-203.419998,-37.099998,-3.01,1729475445021.0,0.0
-3.091527,-16.618155,-8.233703,-79.940002,-31.08,-20.719999,1729475445042.0,0.0
-2.478964,-14.959927,-8.023134,88.410004,27.93,-8.47,1729475445059.0,0.0
-2.22054,-12.272788,-6.171089,255.430008,57.189999,-32.830002,1729475445081.0,0.0
-2.490928,-8.956335,-3.649055,351.959991,79.660004,-33.529999,1729475445102.0,0.0
-3.0006,-6.393622,0.124427,407.75,82.529999,-26.809999,1729475445119.0,0.0
-2.723032,-3.574877,1.773082,425.670013,74.269997,-13.23,1729475445140.0,0.0
-2.419144,-3.5007,4.515256,405.369995,66.709999,-14.42,1729475445159.0,0.0
-0.739382,-3.034099,5.06082,297.709991,42.560001,-32.619999,1729475445179.0,0.0
-0.583849,-3.931407,4.252046,202.300003,36.400002,-10.78,1729475445209.0,0.0
-1.529014,-4.878965,4.424329,140.979996,40.459999,28.0,1729475445218.0,0.0
-3.349952,-8.147561,6.269196,104.510002,36.75,29.960001,1729475445239.0,0.0
-3.632305,-11.16491,7.130611,27.51,14.42,14.63,1729475445259.0,0.0
-2.433501,-12.124433,7.728817,17.08,15.68,18.48,1729475445279.0,0.0
-2.337788,-9.054441,8.817552,22.26,15.89,8.75,1729475445300.0,0.0
-2.651247,-5.692525,9.810574,0.49,6.58,1.82,1729475445320.0,0.0
-3.156133,-4.725825,8.396415,-31.01,-8.19,10.15,1729475445339.0,0.0
-3.141776,-5.814559,7.259824,-49.279999,-20.51,5.88,1729475445359.0,0.0
-3.292524,-6.82433,7.599605,-93.660004,-28.139999,8.47,1729475445380.0,0.0
-3.675375,-7.970492,7.740781,-197.680008,-41.16,-8.68,1729475445400.0,0.0
-3.361916,-8.10449,7.41775,-315.839996,-68.18,-14.77,1729475445425.0,0.0
-1.217947,-7.37468,1.849652,-341.179993,-84.629997,-5.74,1729475445440.0,0.0
-1.332802,-10.480563,0.191426,-278.179993,-59.080002,-4.55,1729475445459.0,0.0
-1.086342,-10.944772,-2.244468,-282.170013,-78.260002,-17.360001,1729475445479.0,0.0
-1.014557,-4.211368,-3.113062,-267.959991,-39.830002,39.549999,1729475445500.0,0.0
-2.481357,-4.402793,-1.40698,-161.839996,16.030001,53.34,1729475445519.0,0.0
-5.302495,-6.874579,-3.689733,-234.080002,-3.71,29.33,1729475445539.0,0.0
-5.443672,-10.018748,-4.862216,-263.269989,-32.27,27.51,1729475445561.0,0.0
-4.053442,-11.62194,-5.47717,-232.050003,-42.139999,23.450001,1729475445581.0,0.0
-2.440679,-11.633904,-5.575277,-154.630005,-31.92,14.35,1729475445599.0,0.0
-2.24686,-11.236694,-5.522634,-87.989998,-14.63,1.05,1729475445619.0,0.0
-2.76371,-11.626726,-5.474778,-36.189999,-5.95,-11.06,1729475445641.0,0.0
-2.778067,-11.870793,-5.924629,16.940001,-3.5,-22.68,1729475445660.0,0.0
-2.533999,-11.394621,-4.986642,80.43,4.62,-27.93,1729475445679.0,0.0
-1.871187,-9.853643,-3.620341,156.800003,11.06,-24.15,1729475445699.0,0.0
-1.868794,-8.118847,-1.710868,204.399994,21.629999,-24.219999,1729475445719.0,0.0
-2.177469,-6.422336,-1.28016,205.800003,21.35,-24.92,1729475445805.0,0.0
-2.732604,-5.986843,0.509671,168.350006,21.139999,-14.0,1729475445806.0,0.0
-2.864209,-5.721239,1.071985,71.470001,2.1,-9.73,1729475445806.0,0.0
-3.012564,-6.738188,0.98345,-34.580002,-15.33,-3.99,1729475445806.0,0.0
-3.23031,-8.219346,-0.569492,-120.82,-26.67,-1.19,1729475445818.0,0.0
-3.345166,-9.454042,-2.347359,-155.610001,-35.279999,-1.26,1729475445839.0,0.0
-2.85703,-10.289137,-2.9336,-144.339996,-34.860001,0.7,1729475445859.0,0.0
-2.333002,-10.128819,-2.981457,-98.07,-28.559999,2.17,1729475445879.0,0.0
-2.35693,-9.664611,-2.883351,-78.82,-23.24,1.12,1729475445899.0,0.0
-2.474179,-9.166903,-3.397808,-69.440002,-22.26,0.7,1729475445919.0,0.0
-2.818745,-8.956335,-3.503092,-67.410004,-21.629999,3.85,1729475445940.0,0.0
-2.74696,-8.583055,-3.835695,-75.949997,-22.4,2.66,1729475445958.0,0.0
-2.74696,-7.999206,-3.833302,-106.190002,-19.950001,1.19,1729475445979.0,0.0
-2.78046,-7.578069,-5.173282,-154.279999,-20.440001,-1.54,1729475446001.0,0.0
-2.706282,-7.606783,-6.185446,-195.369995,-21.559999,-3.43,1729475446019.0,0.0
-2.443072,-8.149954,-6.422336,-221.059998,-20.860001,-0.56,1729475446042.0,0.0
-1.981257,-9.403792,-7.209574,-209.720001,-14.14,-3.5,1729475446059.0,0.0
-1.79701,-10.25803,-7.793423,-149.029999,-3.92,-8.26,1729475446079.0,0.0
-1.526621,-8.822337,-7.9011,-67.059998,7.91,-11.2,1729475446100.0,0.0
-1.722832,-6.443871,-6.67119,-19.32,18.200001,-7.91,1729475446118.0,0.0
-1.969293,-5.194818,-6.417551,-35.630001,19.32,-5.67,1729475446139.0,0.0
-2.065006,-5.034499,-6.106483,-91.699997,17.92,-3.57,1729475446159.0,0.0
-2.160719,-5.13739,-6.195018,-177.169998,13.79,-9.24,1729475446179.0,0.0
-1.392623,-5.290531,-9.078369,-249.339996,1.54,-15.4,1729475446199.0,0.0
-1.270589,-4.74736,-9.487542,-246.75,-0.7,-12.95,1729475446218.0,0.0
-1.648655,-4.453043,-10.51167,-197.399994,6.86,-8.54,1729475446239.0,0.0
-1.928615,-4.512863,-11.581261,-128.800003,12.95,1.12,1729475446259.0,0.0
-2.160719,-4.034299,-10.533205,-66.989998,24.710001,10.71,1729475446278.0,0.0
-4.15394,-3.455236,-8.60459,-71.82,46.200001,11.13,1729475446299.0,0.0
-4.299902,-4.216154,-10.236496,-132.720001,22.4,-8.12,1729475446318.0,0.0
-3.61077,-7.556533,-7.144968,-118.230003,2.87,-13.93,1729475446341.0,0.0
-1.919044,-7.613962,-11.073983,-27.02,-8.68,-29.889999,1729475446358.0,0.0
-2.57707,-4.833502,-10.358529,46.48,21.210001,-41.509998,1729475446380.0,0.0
-2.615355,-2.419144,-8.537591,33.459999,18.200001,-49.0,1729475446400.0,0.0
-2.045863,-2.282753,-8.77448,5.32,7.77,-43.400002,1729475446419.0,0.0
-1.416551,-2.696711,-9.695717,-12.11,3.78,-37.66,1729475446439.0,0.0
-1.464408,-1.818545,-8.817552,-10.43,10.71,-30.24,1729475446460.0,0.0
-2.026721,0.066999,-7.82453,7.07,13.93,-15.96,1729475446479.0,0.0
-1.581656,1.572084,-8.070991,11.97,5.32,6.23,1729475446499.0,0.0
-0.471386,0.244068,-8.415558,-4.69,-17.92,21.139999,1729475446526.0,0.0
-0.981057,-1.895115,-10.004392,-46.200001,-16.379999,32.060001,1729475446541.0,0.0
-2.210968,-2.287539,-11.361122,-78.470001,1.75,26.950001,1729475446559.0,0.0
-3.397808,-3.9673,-10.729417,-20.860001,6.3,31.780001,1729475446579.0,0.0
-3.962514,-5.982057,-8.087741,16.379999,10.15,21.0,1729475446600.0,0.0
-3.321238,-5.240282,-9.375079,3.08,4.34,-2.8,1729475446617.0,0.0
-2.275574,-4.697111,-10.449455,12.04,-5.74,-14.77,1729475446639.0,0.0
-1.976472,-4.228118,-10.671989,18.549999,0.84,-22.190001,1729475446659.0,0.0
-2.234896,-3.854837,-10.794022,16.940001,6.72,-29.960001,1729475446679.0,0.0
-1.818545,-1.945365,-8.79123,17.639999,11.48,-37.099998,1729475446699.0,0.0
-1.682154,-1.969293,-7.776673,3.85,2.45,-37.240002,1729475446717.0,0.0
-1.682154,-1.342373,-8.695518,-14.14,1.05,-38.57,1729475446738.0,0.0
-1.363909,1.306481,-8.061419,-14.77,0.14,-29.26,1729475446759.0,0.0
-0.973879,1.311267,-8.85823,-2.31,-8.19,-5.74,1729475446779.0,0.0
-0.39003,0.244068,-10.112068,-12.25,-22.190001,15.12,1729475446801.0,0.0
-0.768096,-0.471386,-10.38485,-29.049999,-14.14,27.16,1729475446818.0,0.0
-2.333002,-2.98385,-11.085947,-43.400002,-5.39,31.15,1729475446839.0,0.0
-3.433701,-4.115655,-11.56451,-31.5,-3.71,25.9,1729475446858.0,0.0
-3.227918,-4.26401,-8.939585,31.710001,9.52,19.040001,1729475446880.0,0.0
-2.536392,-4.618148,-8.379664,12.95,2.73,5.88,1729475446900.0,0.0
-1.371087,-5.448457,-9.903893,-14.7,-11.55,-13.02,1729475446918.0,0.0
-1.162912,-5.757132,-10.669596,1.61,-9.87,-26.460001,1729475446939.0,0.0
-1.892723,-3.926622,-10.277173,22.33,7.98,-43.470001,1729475446960.0,0.0
-2.359323,-1.229911,-8.542377,16.1,10.78,-52.43,1729475446979.0,0.0
-2.376073,-1.536192,-9.133404,-17.08,5.74,-53.34,1729475447000.0,0.0
-1.421337,0.825524,-8.786445,-42.07,-6.09,-43.75,1729475447018.0,0.0
-1.342373,-0.514457,-8.403593,-10.85,-5.74,-21.91,1729475447042.0,0.0
-1.167697,0.002393,-9.12144,26.040001,-11.06,-3.08,1729475447058.0,0.0
-1.452443,0.5001,-9.224331,68.599998,-8.33,21.77,1729475447079.0,0.0
-2.603391,-0.244068,-10.061819,24.92,-5.53,30.52,1729475447099.0,0.0
-3.414558,-2.09372,-9.868,-19.040001,-11.27,36.470001,1729475447118.0,0.0
-3.701697,-1.864009,-12.114861,0.63,0.49,41.860001,1729475447138.0,0.0
-3.09392,-2.031506,-9.734003,17.92,9.73,42.279999,1729475447159.0,0.0
-2.29711,-3.818945,-7.666604,-6.23,6.93,31.99,1729475447179.0,0.0
-0.909273,-6.436693,-10.205389,-27.440001,-9.38,12.74,1729475447200.0,0.0
-1.801795,-5.99402,-11.787045,30.66,9.1,-17.219999,1729475447219.0,0.0
-2.536392,-3.538985,-8.99462,36.75,23.59,-39.41,1729475447242.0,0.0
-2.656033,-2.395216,-7.458428,0.42,10.85,-47.110001,1729475447259.0,0.0
-1.529014,-2.462214,-8.650054,-24.43,-7.49,-48.09,1729475447280.0,0.0
-1.39023,0.902094,-7.312466,-29.82,-3.78,-35.279999,1729475447301.0,0.0
-1.634298,-0.289532,-7.779066,-13.440001,-14.14,-6.37,1729475447319.0,0.0
-1.440479,-1.275374,-9.626326,-17.92,-28.35,8.75,1729475447340.0,0.0
-1.543371,-0.880559,-11.813366,7.63,-24.360001,24.01,1729475447358.0,0.0
-2.646462,-0.315853,-12.746566,-24.5,-5.39,24.85,1729475447378.0,0.0
-3.847659,-1.835295,-11.918649,-12.95,1.82,39.130001,1729475447400.0,0.0
-3.773481,-2.648855,-10.358529,18.200001,12.74,40.389999,1729475447418.0,0.0
-3.517449,-3.407379,-8.142776,0.91,17.710001,35.490002,1729475447440.0,0.0
-2.45025,-6.013163,-9.480364,-28.700001,0.28,15.05,1729475447460.0,0.0
-0.923629,-7.250252,-9.4349,9.73,-6.3,-2.87,1729475447478.0,0.0
-1.268196,-5.039285,-8.937192,35.07,10.71,-27.790001,1729475447499.0,0.0
-2.555535,-3.515057,-9.698111,20.440001,15.68,-43.75,1729475447519.0,0.0
-1.67019,-1.332802,-8.463413,-15.89,5.39,-50.189999,1729475447540.0,0.0
-1.162912,0.069392,-7.9346,-41.09,-7.63,-37.240002,1729475447560.0,0.0
-1.70369,0.978664,-8.195417,-20.299999,-1.82,-10.01,1729475447578.0,0.0
-1.660619,-0.337388,-8.80798,1.89,-14.77,9.94,1729475447600.0,0.0
-1.347159,-0.167498,-11.267801,-1.4,-19.74,15.47,1729475447617.0,0.0
-1.868794,-1.069592,-11.92822,4.06,-13.16,20.790001,1729475447637.0,0.0
-3.26381,-2.165504,-9.839286,-9.1,7.21,22.33,1729475447657.0,0.0
-4.520042,-2.785245,-10.657632,24.15,14.35,33.040001,1729475447679.0,0.0
-3.924229,-2.723032,-8.626125,34.369999,14.21,28.630001,1729475447700.0,0.0
-2.414358,-4.185047,-8.250452,-28.559999,-1.47,14.98,1729475447717.0,0.0
-0.897308,-6.171089,-10.262815,-47.740002,-14.49,-0.07,1729475447738.0,0.0
-0.787239,-6.45105,-11.490334,7.77,-3.85,-13.93,1729475447757.0,0.0
-2.129612,-4.615755,-10.669596,46.200001,18.690001,-36.470001,1729475447779.0,0.0
-2.682354,-2.524428,-8.575876,22.889999,22.33,-52.779999,1729475447800.0,0.0
-1.739582,-1.189233,-7.982457,-13.65,6.09,-58.310001,1729475447818.0,0.0
-1.069592,0.894916,-8.207381,-19.389999,2.59,-39.41,1729475447838.0,0.0
-1.469193,0.528814,-7.652246,-0.49,2.1,-12.53,1729475447857.0,0.0
-1.148555,0.435494,-9.06162,29.190001,-6.86,22.120001,1729475447878.0,0.0
-1.4668,-0.198604,-11.033305,21.07,-15.190001,25.059999,1729475447899.0,0.0
-2.854637,-0.270389,-11.145767,-19.110001,-1.4,27.58,1729475447916.0,0.0
-5.015356,-2.557927,-11.222338,-3.92,6.58,38.360001,1729475447938.0,0.0
-5.120641,-2.335395,-9.722038,22.82,13.37,40.529999,1729475447957.0,0.0
-3.720839,-2.447858,-8.764909,0.56,9.24,41.23,1729475447978.0,0.0
-2.385644,-5.261817,-9.351151,-61.810001,-6.09,22.33,1729475447999.0,0.0
-0.882952,-7.704889,-10.200603,-25.34,-13.65,9.38,1729475448017.0,0.0
-0.485743,-5.237889,-10.571491,40.810001,4.48,-15.12,1729475448040.0,0.0
-2.203789,-3.311667,-10.121639,45.009998,22.82,-34.720001,1729475448057.0,0.0
-2.495714,-2.294717,-7.623533,-3.92,16.52,-49.630001,1729475448080.0,0.0
-1.445265,-2.167897,-8.343772,-28.42,-2.24,-46.619999,1729475448098.0,0.0
-0.957129,1.189233,-8.51127,-26.32,-2.94,-34.93,1729475448116.0,0.0
-2.036292,1.086342,-8.181061,4.34,1.61,1.05,1729475448138.0,0.0
-1.79701,-0.272782,-9.188439,-1.96,-15.190001,18.27,1729475448158.0,0.0
-1.708475,-0.636491,-10.537991,-0.49,-19.74,28.630001,1729475448177.0,0.0
-2.426322,-1.859223,-11.842079,4.97,-13.02,30.030001,1729475448199.0,0.0
-4.603791,-2.883351,-10.691131,-6.65,9.73,28.700001,1729475448216.0,0.0
-4.532006,-2.531606,-9.834501,11.27,10.57,33.670002,1729475448238.0,0.0
-3.122634,-4.35733,-9.272188,-9.45,1.33,24.710001,1729475448257.0,0.0
-1.447658,-5.625526,-9.542577,-24.85,-9.45,9.73,1729475448277.0,0.0
-0.744168,-5.402994,-11.05484,7.14,-2.17,-7.56,1729475448301.0,0.0
