acc_x,acc_y,acc_z,gyr_x,gyr_y,gyr_z,timestamp,label
-3.491128,-4.675575,-7.537392,-12.11,16.940001,0.7,1729421784471.0,0.0
-3.507878,-4.742575,-7.343572,-22.610001,17.85,-2.52,1729421784471.0,0.0
-3.469593,-5.046463,-8.054241,-18.690001,13.23,-5.67,1729421784472.0,0.0
-3.249453,-4.675575,-8.070991,-9.45,7.7,-5.39,1729421784478.0,0.0
-2.947958,-4.551149,-7.925028,-5.32,7.21,-3.08,1729421784495.0,0.0
-2.70389,-4.792823,-8.039884,-1.61,4.41,-3.01,1729421784515.0,0.0
-2.56032,-4.587041,-8.090133,4.48,4.27,-3.43,1729421784536.0,0.0
-2.452643,-4.139583,-7.956135,7.42,4.76,-4.34,1729421784556.0,0.0
-2.505285,-4.206582,-7.795816,3.99,3.08,-3.29,1729421784577.0,0.0
-2.490928,-4.48415,-8.204988,-3.29,0.49,-2.87,1729421784596.0,0.0
-2.464607,-4.333402,-8.360522,-9.66,-0.98,-4.13,1729421784615.0,0.0
-2.536392,-4.185047,-8.707481,-13.440001,-2.24,-3.29,1729421784635.0,0.0
-2.498107,-4.271189,-8.889337,-13.79,-3.64,-3.43,1729421784656.0,0.0
-2.400001,-4.237689,-8.79123,-19.74,-1.47,-3.15,1729421784677.0,0.0
-2.333002,-4.333402,-8.958728,-21.49,-0.14,-2.52,1729421784695.0,0.0
-2.383251,-4.455436,-9.126225,-16.309999,1.82,-2.73,1729421784716.0,0.0
-2.323431,-4.539185,-9.083155,-5.88,4.34,-3.22,1729421784735.0,0.0
-2.402394,-4.395615,-7.862815,12.95,3.43,0.28,1729421784756.0,0.0
-2.476572,-4.139583,-8.157133,23.870001,-1.68,-0.56,1729421784777.0,0.0
-2.469393,-3.988836,-8.669197,10.15,-5.46,-2.8,1729421784795.0,0.0
-2.505285,-4.163511,-8.145168,-13.65,-5.67,-1.82,1729421784815.0,0.0
-2.505285,-4.728218,-8.386844,-20.719999,-9.17,-1.89,1729421784836.0,0.0
-2.433501,-5.072784,-8.702696,-4.2,-12.95,-4.76,1729421784855.0,0.0
-2.54357,-4.524827,-8.60459,11.55,-8.96,-3.85,1729421784876.0,0.0
-2.885744,-4.21376,-9.066404,12.6,-2.17,-4.76,1729421784895.0,0.0
-3.306881,-4.292724,-9.114261,2.45,2.8,-3.71,1729421784915.0,0.0
-3.553342,-4.493721,-8.913264,-4.9,2.1,-2.59,1729421784935.0,0.0
-3.586841,-4.493721,-8.26481,-2.52,-1.4,-1.96,1729421784957.0,0.0
-3.790231,-4.189832,-8.085347,7.7,2.66,-6.3,1729421784977.0,0.0
-4.17069,-3.866802,-8.377272,11.13,10.92,-7.91,1729421784995.0,0.0
-4.579862,-3.713661,-8.496914,7.98,11.48,-9.1,1729421785016.0,0.0
-4.668397,-3.797409,-8.408379,4.83,10.01,-7.77,1729421785036.0,0.0
-4.529613,-4.125226,-8.520842,1.61,2.87,-6.93,1729421785055.0,0.0
-4.17069,-4.063013,-8.563912,5.32,-7.28,-6.93,1729421785076.0,0.0
-3.926622,-3.366701,-8.84148,9.45,-9.73,-8.68,1729421785098.0,0.0
-3.438486,-3.211168,-9.521042,-5.95,-3.57,-12.95,1729421785116.0,0.0
-2.773281,-3.565305,-9.597611,-24.92,-3.64,-9.24,1729421785135.0,0.0
-2.227718,-3.986443,-9.437292,-15.4,-9.8,-5.67,1729421785157.0,0.0
-1.935793,-4.481757,-9.982857,-6.44,-10.43,-12.67,1729421785177.0,0.0
-1.78026,-4.957928,-10.734202,-7.7,2.52,-18.76,1729421785195.0,0.0
-1.677369,-4.570292,-10.449455,1.75,14.91,-16.1,1729421785215.0,0.0
-1.773082,-6.369694,-9.456435,15.68,11.55,-18.200001,1729421785236.0,0.0
-2.510071,-9.676575,-0.698704,79.309998,32.200001,-21.98,1729421785256.0,0.0
-3.498307,-5.111069,-1.177269,89.529999,20.58,-39.830002,1729421785279.0,0.0
-3.105884,-1.988436,-10.463813,88.550003,-71.260002,-68.949997,1729421785295.0,0.0
-1.371087,-4.555934,-10.930414,9.31,-85.190002,-3.92,1729421785317.0,0.0
0.177069,-7.092326,-9.781858,5.95,-61.459999,-1.05,1729421785336.0,0.0
0.143569,-7.929814,-6.798009,73.080002,-31.219999,5.95,1729421785355.0,0.0
-0.155533,-6.948757,-6.034698,135.380005,-10.64,-17.290001,1729421785382.0,0.0
-0.478565,-5.709275,-5.807381,162.539993,-23.1,-20.370001,1729421785396.0,0.0
-0.351745,-5.237889,-4.728218,159.320007,-57.470001,-10.71,1729421785414.0,0.0
-0.562313,-6.415157,-5.118248,106.610001,-80.989998,-9.1,1729421785435.0,0.0
-0.880559,-7.410572,-3.883551,2.45,-68.110001,-15.190001,1729421785456.0,0.0
-1.885544,-9.832108,-4.376472,-42.07,-45.849998,-20.440001,1729421785479.0,0.0
-2.632105,-9.461221,-7.159326,-3.99,-49.77,-32.970001,1729421785498.0,0.0
-2.723032,-6.271588,-7.996813,18.83,-76.230003,-29.33,1729421785516.0,0.0
-3.321238,-3.661019,-11.507084,-28.91,-70.139999,-11.06,1729421785535.0,0.0
-4.979464,-7.484749,-12.440285,-49.349998,-13.93,-1.96,1729421785562.0,0.0
-5.012963,-10.100104,-10.956735,-88.550003,54.389999,-9.73,1729421785577.0,0.0
-4.883751,-10.310673,-8.322237,-61.599998,7.77,-15.54,1729421785604.0,0.0
-4.139583,-7.41775,-10.566705,12.32,-11.69,-19.67,1729421785616.0,0.0
-3.239882,-3.943372,-8.877372,70.840004,29.4,-20.02,1729421785636.0,0.0
-2.234896,-4.398008,-3.306881,35.630001,31.15,-8.12,1729421785656.0,0.0
-0.801596,-6.407979,-1.701297,-28.98,1.26,-7.14,1729421785682.0,0.0
1.514657,-7.353144,1.98365,-59.5,-52.43,-6.44,1729421785695.0,0.0
0.581456,-7.226324,-2.641676,-41.02,-60.200001,-14.21,1729421785715.0,0.0
-1.947758,-4.618148,-2.878566,-9.52,7.84,-17.85,1729421785736.0,0.0
-3.541377,-6.297909,-4.826324,-6.65,-1.4,-10.15,1729421785758.0,0.0
-4.003192,-6.147161,-5.338387,-70.559998,-78.82,-9.73,1729421785780.0,0.0
-4.426722,-6.805188,-9.554541,-118.510002,-108.639999,-10.43,1729421785798.0,0.0
-5.036892,-3.850052,-12.796815,-141.75,-78.330002,-8.96,1729421785816.0,0.0
-6.45105,-4.500899,-11.897114,-67.830002,2.45,20.58,1729421785837.0,0.0
-7.585248,-6.123233,-12.239288,2.45,55.299999,27.51,1729421785857.0,0.0
-6.606583,-5.883951,-10.408779,-4.55,15.89,13.79,1729421785878.0,0.0
-4.311867,-4.819145,-9.537791,-47.389999,-36.330002,5.11,1729421785896.0,0.0
-2.598605,-3.364309,-10.128819,-56.700001,-53.830002,-5.67,1729421785917.0,0.0
-2.098505,-5.139783,-9.209974,-27.370001,33.040001,-0.14,1729421785948.0,0.0
-2.538785,-5.749953,-6.300302,-6.58,67.900002,6.72,1729421785958.0,0.0
-2.505285,-6.831509,-4.223332,-6.86,40.740002,1.89,1729421785980.0,0.0
-1.811367,-7.523034,-5.340781,-20.58,-0.21,-2.24,1729421785996.0,0.0
-0.418744,-6.374479,-5.017749,8.82,-43.540001,-9.66,1729421786017.0,0.0
-0.334995,-4.627719,-3.34038,60.200001,-43.189999,1.33,1729421786037.0,0.0
-1.74676,-5.860023,-3.85723,51.310001,-18.620001,-3.99,1729421786059.0,0.0
-2.720639,-7.4345,-5.036892,-7.7,-5.11,-15.68,1729421786078.0,0.0
-3.773481,-6.273981,-5.20439,-31.57,-35.139999,-15.190001,1729421786100.0,0.0
-4.409972,-4.888536,-8.135597,-40.32,-72.239998,-21.77,1729421786118.0,0.0
-5.182854,-5.735595,-13.143774,-39.48,-62.93,-6.65,1729421786139.0,0.0
-6.336195,-6.699903,-13.655839,-15.96,-1.4,8.4,1729421786159.0,0.0
-7.805387,-6.833901,-13.052847,39.900002,72.239998,6.09,1729421786181.0,0.0
-7.444071,-6.250053,-11.423335,56.07,64.82,-10.22,1729421786198.0,0.0
-4.716253,-4.331009,-9.736395,45.920002,8.47,-10.22,1729421786219.0,0.0
-3.689733,-2.799603,-9.236296,57.68,24.639999,-7.35,1729421786239.0,0.0
-3.448057,-3.409772,-7.893922,67.620003,69.580002,0.7,1729421786260.0,0.0
-3.113062,-4.218546,-2.754139,45.779999,79.800003,13.58,1729421786283.0,0.0
-2.359323,-6.589834,-0.899701,6.3,43.68,15.82,1729421786299.0,0.0
-1.086342,-8.80798,-1.799403,-3.92,-18.27,6.09,1729421786319.0,0.0
-0.430708,-5.800202,-2.143969,4.62,-54.599998,3.5,1729421786339.0,0.0
-1.584049,-4.551149,-2.723032,32.34,-30.450001,5.6,1729421786359.0,0.0
-2.321038,-5.522634,-4.699504,-7.56,-35.349998,-1.05,1729421786381.0,0.0
-2.926422,-6.350551,-4.424329,-90.300003,-79.660004,-7.7,1729421786399.0,0.0
-3.388237,-5.228317,-6.709475,-167.369995,-98.840004,-17.92,1729421786418.0,0.0
-4.275974,-5.237889,-13.313664,-143.009995,-82.809998,-11.55,1729421786437.0,0.0
-6.041877,-5.63749,-13.194024,-37.66,-25.620001,14.35,1729421786458.0,0.0
-8.657232,-7.51107,-12.533605,36.959999,62.580002,25.200001,1729421786479.0,0.0
-8.865408,-5.508278,-11.770294,2.8,69.790001,4.13,1729421786497.0,0.0
-6.630512,-3.309274,-9.420543,-22.26,10.5,8.33,1729421786518.0,0.0
-3.768696,-3.689733,-8.001599,-11.62,-57.470001,-0.42,1729421786539.0,0.0
-2.079363,-4.685147,-7.724032,-14.0,-17.710001,7.7,1729421786557.0,0.0
-2.589034,-4.876573,-7.539784,-11.83,52.009998,-0.84,1729421786580.0,0.0
-3.512664,-5.615955,-6.783652,-11.41,82.32,-5.74,1729421786598.0,0.0
-3.629912,-7.168896,-4.689932,3.85,55.439999,-6.93,1729421786617.0,0.0
-2.947958,-4.701896,-1.914258,-9.31,3.64,-11.76,1729421786640.0,0.0
-2.57707,-4.479364,-5.134997,-2.8,-39.48,-19.530001,1729421786657.0,0.0
-2.45025,-4.462614,-6.242875,-0.07,-49.84,-21.700001,1729421786678.0,0.0
-2.498107,-5.333601,-6.776474,-7.0,-31.710001,-19.25,1729421786700.0,0.0
-2.852244,-4.845466,-6.874579,-0.77,-35.630001,-17.360001,1729421786717.0,0.0
-3.59402,-4.275974,-5.053641,12.18,-46.48,-18.129999,1729421786737.0,0.0
-4.479364,-1.672583,-6.037091,-47.950001,-54.529999,-24.01,1729421786758.0,0.0
-5.395815,-0.617348,-10.523634,-110.18,-52.920002,-4.76,1729421786780.0,0.0
-6.338587,-4.718646,-13.110275,-113.75,-42.0,29.120001,1729421786797.0,0.0
-7.515855,-9.10469,-11.983256,-70.139999,1.54,38.290001,1729421786817.0,0.0
-8.537591,-6.106483,-13.323236,-61.599998,57.610001,26.67,1729421786839.0,0.0
-7.192825,-4.445865,-10.504492,18.76,51.799999,16.24,1729421786859.0,0.0
-5.328816,-2.813959,-7.171289,60.689999,-2.24,22.540001,1729421786879.0,0.0
-2.921637,-2.67039,-8.362915,23.59,-18.76,12.04,1729421786896.0,0.0
-2.545963,-4.481757,-8.930015,9.66,13.79,10.78,1729421786919.0,0.0
-2.976671,-4.579862,-8.015956,-1.19,50.540001,9.38,1729421786937.0,0.0
-3.61077,-4.876573,-5.115855,-6.09,59.010002,-4.2,1729421786958.0,0.0
-3.5007,-5.338387,-5.486742,-18.83,33.880001,-14.77,1729421786981.0,0.0
-2.711068,-5.680561,-4.895715,-0.49,-17.15,-23.450001,1729421786998.0,0.0
-2.512464,-4.493721,-6.094519,21.35,-39.34,-26.32,1729421787018.0,0.0
-3.407379,-5.386244,-6.278766,56.490002,-16.450001,-35.07,1729421787037.0,0.0
-4.400401,-5.297709,-4.342973,36.610001,7.35,-49.77,1729421787058.0,0.0
-5.233103,-5.134997,-5.733203,0.35,-18.41,-53.900002,1729421787077.0,0.0
-5.094319,-2.945565,-9.147761,-40.25,-74.410004,-57.889999,1729421787099.0,0.0
-5.113462,-1.811367,-12.045469,-43.259998,-72.940002,-26.809999,1729421787117.0,0.0
-6.204589,-5.525027,-11.215159,-0.7,-3.15,3.08,1729421787137.0,0.0
-7.893922,-7.640282,-11.667403,19.530001,78.610001,1.61,1729421787159.0,0.0
-7.960921,-5.089533,-10.394422,19.530001,79.449997,-0.98,1729421787179.0,0.0
-5.63749,-3.45045,-9.310472,-7.42,2.03,1.19,1729421787198.0,0.0
-3.129812,-4.223332,-9.111869,-14.84,-37.170002,3.22,1729421787217.0,0.0
-3.290131,-3.443272,-8.822337,-4.13,48.299999,8.68,1729421787239.0,0.0
-4.809574,-3.199204,-9.535398,0.28,91.419998,17.57,1729421787257.0,0.0
-5.034499,-5.079963,-8.590233,-20.440001,88.690002,23.17,1729421787281.0,0.0
-3.311667,-6.78126,-4.61097,-6.79,32.060001,23.450001,1729421787297.0,0.0
-1.612763,-5.570491,-3.972085,22.049999,-28.210001,18.549999,1729421787317.0,0.0
-0.174676,-6.369694,-4.804788,39.41,-68.599998,-11.41,1729421787338.0,0.0
0.002393,-4.07737,-3.290131,-0.35,-35.630001,-13.37,1729421787357.0,0.0
-1.339981,-4.424329,-5.070391,-20.51,-6.51,-26.040001,1729421787381.0,0.0
-2.158326,-4.139583,-7.350751,-19.040001,-7.77,-36.259998,1729421787397.0,0.0
-2.840281,-3.474378,-8.094919,8.33,-64.889999,-36.119999,1729421787418.0,0.0
-3.622734,-0.72024,-6.989435,-50.540001,-81.480003,-37.380001,1729421787438.0,0.0
-5.76431,-0.782453,-11.095518,-125.090004,-17.360001,-19.18,1729421787457.0,0.0
-8.346166,-5.682954,-14.459827,-103.599998,48.650002,5.53,1729421787478.0,0.0
-9.537791,-9.186047,-13.612768,8.68,76.019997,17.85,1729421787497.0,0.0
-8.051848,-4.582255,-10.743774,48.93,32.27,16.799999,1729421787517.0,0.0
-5.142176,-1.182054,-9.19801,29.190001,-21.700001,23.309999,1729421787537.0,0.0
-2.045863,-3.208775,-9.425328,4.2,-51.029999,23.379999,1729421787557.0,0.0
-2.299503,-3.979264,-8.733803,-43.119999,40.32,29.75,1729421787581.0,0.0
-3.259024,-5.283352,-7.65464,-53.549999,92.260002,24.57,1729421787604.0,0.0
-3.541377,-6.522834,-5.587241,-31.780001,73.010002,17.01,1729421787617.0,0.0
-2.957529,-6.216553,-4.811966,14.0,16.52,2.03,1729421787639.0,0.0
-2.469393,-4.919643,-4.900501,45.150002,-24.5,-11.62,1729421787657.0,0.0
-1.954936,-3.617948,-5.032106,21.49,-30.030001,-22.960001,1729421787681.0,0.0
-2.043471,-3.529413,-5.704489,-3.57,-35.630001,-29.610001,1729421787697.0,0.0
-2.409572,-2.995814,-7.202396,-1.26,-41.580002,-29.68,1729421787717.0,0.0
-2.689533,-2.175076,-8.683553,13.02,-65.029999,-35.279999,1729421787739.0,0.0
-3.704089,0.37328,-6.766902,-23.870001,-62.650002,-19.25,1729421787757.0,0.0
-6.410372,-0.437887,-12.064612,-57.189999,-10.15,14.98,1729421787779.0,0.0
-8.248059,-3.95055,-14.828322,-63.77,34.23,29.68,1729421787797.0,0.0
-9.432507,-4.905287,-12.693924,-23.66,48.580002,52.150002,1729421787818.0,0.0
-7.74796,-3.522235,-12.457035,-20.860001,28.210001,24.92,1729421787838.0,0.0
-4.596612,-1.536192,-9.521042,-8.61,-7.56,36.540001,1729421787859.0,0.0
-3.445665,-3.864408,-9.044869,36.049999,-6.72,30.52,1729421787880.0,0.0
-2.878566,-4.780859,-8.551948,2.8,46.27,25.969999,1729421787896.0,0.0
-2.955136,-6.415157,-6.876972,-1.96,54.459999,12.11,1729421787917.0,0.0
-2.378466,-7.111469,-6.606583,-3.43,24.99,-19.6,1729421787937.0,0.0
-1.866402,-6.518049,-4.460221,11.9,1.12,-35.139999,1729421787959.0,0.0
-1.655833,-5.115855,-4.031906,20.299999,-18.48,-51.029999,1729421787979.0,0.0
-1.933401,-4.070191,-6.025128,21.84,-34.509998,-57.189999,1729421787999.0,0.0
-2.184647,-3.237489,-6.759724,12.67,-41.369999,-59.080002,1729421788019.0,0.0
-2.725425,-1.265803,-9.217153,38.290001,-49.630001,-41.369999,1729421788038.0,0.0
-3.134598,1.165305,-7.657032,34.509998,-61.25,-32.549999,1729421788059.0,0.0
-4.977071,0.859023,-7.54457,1.26,-24.85,3.92,1729421788082.0,0.0
-7.750352,-1.552942,-11.437693,-18.690001,17.219999,26.18,1729421788098.0,0.0
-9.152546,-3.29731,-13.672589,-49.07,25.27,19.040001,1729421788119.0,0.0
-8.463413,-3.409772,-14.770894,-46.900002,13.37,33.529999,1729421788138.0,0.0
-5.565705,-2.825923,-9.79143,14.98,-8.96,42.0,1729421788159.0,0.0
-4.838287,-2.498107,-9.856036,4.9,43.470001,31.01,1729421788181.0,0.0
-4.405186,-3.512664,-8.214561,-29.540001,68.25,30.66,1729421788199.0,0.0
-4.35733,-5.419744,-8.329416,-9.73,62.93,36.959999,1729421788218.0,0.0
-3.285345,-7.551748,-5.742774,0.77,40.599998,13.440001,1729421788241.0,0.0
-2.299503,-6.936793,-4.814359,-23.799999,20.02,-1.89,1729421788259.0,0.0
-1.514657,-7.075576,-4.24726,5.32,-12.18,-24.290001,1729421788282.0,0.0
-1.51705,-6.250053,-4.393222,28.42,-19.32,-34.650002,1729421788298.0,0.0
-1.990828,-5.015356,-4.443472,42.420002,-17.92,-46.27,1729421788323.0,0.0
-2.718246,-4.689932,-5.261817,42.349998,-26.950001,-46.759998,1729421788338.0,0.0
-2.754139,-2.026721,-6.845865,35.279999,-57.540001,-50.330002,1729421788359.0,0.0
-3.012564,-0.162712,-8.853443,48.02,-98.139999,-37.52,1729421788384.0,0.0
-3.397808,3.165704,-10.652846,-35.0,-98.910004,-15.75,1729421788399.0,0.0
-5.551349,-0.150748,-10.552348,-84.769997,-18.27,23.030001,1729421788418.0,0.0
-8.346166,-5.556134,-13.150953,-43.959999,49.77,23.17,1729421788438.0,0.0
-9.595219,-4.37408,-14.000405,-7.42,68.669998,22.960001,1729421788458.0,0.0
-8.630912,-1.019342,-14.397614,43.75,17.92,43.68,1729421788491.0,0.0
-5.47717,-2.155933,-8.827123,30.870001,-14.0,42.07,1729421788499.0,0.0
-4.453043,-4.567898,-8.793623,-28.98,42.420002,32.830002,1729421788520.0,0.0
-4.421937,-5.166104,-8.982656,-30.870001,56.07,39.200001,1729421788538.0,0.0
-4.055835,-6.56112,-8.762517,14.91,56.490002,29.4,1729421788559.0,0.0
-3.349952,-6.668797,-5.627919,41.16,49.77,19.74,1729421788582.0,0.0
-2.62732,-6.185446,-2.349752,46.830002,30.380001,-2.17,1729421788598.0,0.0
-2.112862,-6.352944,-4.472186,25.620001,-5.74,-22.68,1729421788620.0,0.0
-1.57687,-5.376673,-4.644469,3.08,-33.459999,-38.080002,1729421788638.0,0.0
-1.325624,-5.515456,-5.242674,6.65,-38.080002,-49.0,1729421788660.0,0.0
-1.445265,-3.416951,-6.005985,25.27,-46.619999,-55.16,1729421788690.0,0.0
-1.887937,-1.526621,-7.592427,73.220001,-64.330002,-51.380001,1729421788698.0,0.0
-2.914458,1.969293,-10.052249,49.209999,-68.529999,-28.280001,1729421788718.0,0.0
-5.264209,1.287339,-8.496914,-5.32,-37.029999,4.27,1729421788738.0,0.0
-8.647661,-4.151547,-12.591033,-86.169998,45.920002,19.950001,1729421788759.0,0.0
-10.054641,-5.728417,-15.278172,-113.190002,73.919998,10.01,1729421788781.0,0.0
-9.29133,-4.333402,-13.043276,-18.9,25.27,35.77,1729421788799.0,0.0
-6.707082,-1.842474,-11.748759,28.07,-19.040001,24.85,1729421788818.0,0.0
-3.493521,-2.87378,-8.092526,-18.83,6.79,33.880001,1729421788838.0,0.0
-3.397808,-4.48415,-8.764909,-14.63,35.84,45.080002,1729421788860.0,0.0
-3.436093,-6.903293,-8.147561,21.84,64.050003,32.970001,1729421788879.0,0.0
-3.081956,-7.020542,-4.716253,35.0,62.580002,20.299999,1729421788899.0,0.0
-2.751746,-7.039684,-4.074977,42.0,21.49,1.75,1729421788918.0,0.0
-1.727618,-6.522834,-2.864209,31.99,-21.77,-30.73,1729421788938.0,0.0
-1.306481,-5.199604,-4.228118,8.12,-43.470001,-37.66,1729421788959.0,0.0
-1.131805,-5.000999,-4.443472,6.72,-56.98,-51.799999,1729421788981.0,0.0
-1.667797,-3.115455,-5.972485,5.53,-57.610001,-56.139999,1729421788997.0,0.0
-2.610569,-0.940379,-8.190632,13.02,-68.879997,-58.799999,1729421789018.0,0.0
-3.759124,3.352344,-9.592826,-52.080002,-64.75,-35.98,1729421789038.0,0.0
-5.793024,0.760918,-10.537991,-65.519997,-29.68,8.82,1729421789061.0,0.0
-8.518449,-4.881358,-12.902101,-51.029999,22.33,20.16,1729421789079.0,0.0
-9.391829,-3.625126,-16.438692,-60.900002,55.02,21.700001,1729421789098.0,0.0
-10.064213,-3.09392,-11.253445,17.99,37.310001,60.060001,1729421789119.0,0.0
-6.886543,-1.277767,-11.667403,-20.09,23.799999,22.610001,1729421789139.0,0.0
-4.591826,-4.864608,-9.253045,-25.83,14.07,60.27,1729421789159.0,0.0
-3.696911,-3.570091,-7.238289,10.08,34.790001,49.07,1729421789181.0,0.0
-4.919643,-6.795617,-7.999206,10.64,74.550003,47.599998,1729421789198.0,0.0
-4.173083,-8.405986,-6.329016,-9.45,71.75,2.52,1729421789218.0,0.0
-2.766103,-9.190832,-5.735595,11.76,7.77,-21.77,1729421789239.0,0.0
-1.103091,-6.257231,-4.307081,20.23,-58.240002,-46.060001,1729421789258.0,0.0
-0.179462,-4.804788,-4.608576,0.35,-69.860001,-68.599998,1729421789280.0,0.0
-0.533599,-6.685547,-7.534998,-21.0,-38.150002,-84.139999,1729421789298.0,0.0
-1.234696,-4.668397,-6.577869,-27.370001,-7.56,-95.690002,1729421789320.0,0.0
-2.254039,-1.792224,-5.776274,31.01,-10.71,-79.379997,1729421789338.0,0.0
-3.019742,-0.244068,-8.295916,101.150002,-34.720001,-59.5,1729421789358.0,0.0
-3.921836,0.20339,-8.566305,146.089996,-45.57,-26.74,1729421789392.0,0.0
-5.54417,-0.028714,-10.856236,102.550003,-31.85,2.59,1729421789398.0,0.0
-8.29113,-3.481557,-10.243673,29.540001,27.58,23.17,1729421789470.0,0.0
-10.423136,-5.486742,-11.810973,-17.710001,76.650002,16.66,1729421789471.0,0.0
-9.724431,-5.84088,-11.75833,11.06,58.66,32.34,1729421789471.0,0.0
-6.443871,-7.15454,-11.088341,108.43,-23.030001,30.309999,1729421789484.0,0.0
-3.342773,-0.4666,-8.764909,141.680008,-35.0,38.009998,1729421789515.0,0.0
-2.744568,-1.552942,-9.781858,114.870003,21.280001,31.710001,1729421789518.0,0.0
-3.536592,-2.325824,-8.977871,7.91,78.120003,43.470001,1729421789537.0,0.0
-4.63729,-4.948357,-6.829116,-68.040001,119.699997,38.220001,1729421789557.0,0.0
-4.613362,-8.145168,-4.615755,-71.120003,105.139999,17.15,1729421789580.0,0.0
-3.596412,-9.619147,-4.945964,0.35,39.619999,23.17,1729421789599.0,0.0
-1.605584,-8.315059,-3.783052,51.73,-36.889999,13.16,1729421789618.0,0.0
-0.356531,-7.238289,0.157926,5.88,-49.490002,3.5,1729421789638.0,0.0
0.397209,-6.903293,-0.650848,-77.419998,-42.91,-16.59,1729421789657.0,0.0
-0.964308,-6.652047,-3.304488,-82.879997,-40.040001,-24.57,1729421789681.0,0.0
-2.392823,-5.87438,-5.381458,-57.400002,-37.170002,-40.389999,1729421789698.0,0.0
-3.632305,-2.021935,-7.496714,-62.299999,-54.670002,-38.5,1729421789717.0,0.0
-5.943772,-0.710668,-8.195417,-74.129997,-81.690002,-14.49,1729421789738.0,0.0
-8.786445,-2.909672,-13.603197,-105.910004,-22.75,-7.14,1729421789758.0,0.0
-10.949556,-4.278367,-13.316057,-109.550003,29.610001,6.44,1729421789780.0,0.0
-11.722438,-1.885544,-14.289936,-58.450001,57.400002,29.120001,1729421789799.0,0.0
-9.274581,-2.069792,-14.00519,-12.74,6.09,17.92,1729421789818.0,0.0
-4.936393,-2.421536,-10.437491,-20.719999,-9.94,31.360001,1729421789837.0,0.0
-3.452843,-3.864408,-8.336594,-21.77,-4.34,38.360001,1729421789858.0,0.0
-2.74696,-6.290731,-9.399008,-43.82,34.369999,30.24,1729421789879.0,0.0
-2.239682,-8.819944,-5.484349,-42.279999,41.299999,17.780001,1729421789896.0,0.0
-1.502693,-9.183653,-2.986243,-42.139999,24.92,1.75,1729421789919.0,0.0
-1.098306,-8.197811,-4.520042,-7.21,-14.21,-23.73,1729421789938.0,0.0
-0.937986,-6.850651,-5.187639,11.9,-33.950001,-54.459999,1729421789958.0,0.0
-1.162912,-5.876772,-6.470192,9.8,-16.870001,-67.900002,1729421789979.0,0.0
-1.749153,-3.125026,-5.771489,32.689999,-25.620001,-74.760002,1729421789999.0,0.0
-2.086541,-0.129212,-7.908278,64.82,-45.920002,-78.190002,1729421790019.0,0.0
-3.445665,4.37408,-10.351351,49.209999,-42.700001,-42.560001,1729421790037.0,0.0
-5.534599,2.024328,-10.951948,38.080002,-15.61,-13.440001,1729421790058.0,0.0
-7.838887,-0.002393,-11.002198,-14.49,54.880001,21.84,1729421790078.0,0.0
-10.171888,-1.655833,-10.152746,3.57,59.150002,40.740002,1729421790099.0,0.0
-9.351151,-0.631705,-11.277373,-12.53,19.460001,43.470001,1729421790117.0,0.0
-6.946364,0.387637,-15.21596,-36.470001,-19.18,61.18,1729421790153.0,0.0
-5.056034,-3.821337,-7.812566,-4.55,-9.24,74.129997,1729421790158.0,0.0
-5.156533,-5.881558,-8.886944,-29.68,72.800003,59.5,1729421790251.0,0.0
-5.233103,-8.563912,-7.398607,-28.700001,71.82,42.07,1729421790253.0,0.0
-3.768696,-9.444471,-5.335995,-44.52,31.710001,3.64,1729421790254.0,0.0
-2.340181,-10.021141,-3.29731,-40.740002,-10.78,-17.08,1729421790257.0,0.0
-1.304088,-7.310073,-3.067599,-20.93,-41.02,-41.650002,1729421790258.0,0.0
-1.301696,-5.9677,-4.878965,13.72,-44.73,-61.18,1729421790279.0,0.0
-2.35693,-4.242475,-6.26441,21.84,-15.54,-63.07,1729421790302.0,0.0
-3.048456,-3.306881,-6.541977,25.34,-24.710001,-83.860001,1729421790319.0,0.0
-3.448057,-0.129212,-8.836694,-8.96,-39.200001,-79.800003,1729421790337.0,0.0
-3.735196,0.227318,-9.475577,7.42,-72.590004,-65.029999,1729421790357.0,0.0
-3.87398,1.665405,-11.066804,6.93,-79.660004,-42.560001,1729421790382.0,0.0
-6.345766,-0.119641,-11.75833,45.57,-11.76,10.5,1729421790396.0,0.0
-9.116654,-1.816152,-12.717852,26.110001,65.029999,20.51,1729421790417.0,0.0
-11.176874,-2.282753,-13.318451,-25.41,90.300003,48.720001,1729421790436.0,0.0
-8.006385,-2.76371,-13.543377,-8.54,12.53,51.73,1729421790457.0,0.0
-5.039285,-3.550949,-9.269794,48.369999,-14.42,61.670002,1729421790479.0,0.0
-3.584448,-4.517649,-8.181061,64.400002,10.5,58.73,1729421790497.0,0.0
-3.419343,-6.001199,-8.16431,3.85,70.349998,51.029999,1729421790516.0,0.0
-3.337988,-8.38445,-5.087141,-15.89,86.800003,24.43,1729421790536.0,0.0
-3.402594,-9.111869,-2.524428,-10.29,67.199997,2.8,1729421790556.0,0.0
-2.828316,-9.181261,-4.469792,30.309999,7.28,-33.740002,1729421790578.0,0.0
-1.978864,-5.474778,-3.9673,44.310001,-45.990002,-57.049999,1729421790596.0,0.0
-1.749153,-4.055835,-5.070391,46.060001,-55.720001,-68.389999,1729421790616.0,0.0
-1.859223,-2.277967,-6.072984,9.52,-52.5,-76.230003,1729421790636.0,0.0
-2.498107,-1.61037,-8.26481,8.19,-51.869999,-68.949997,1729421790656.0,0.0
-3.704089,0.787239,-9.616754,-2.24,-52.849998,-48.580002,1729421790679.0,0.0
-5.74756,1.789831,-7.611568,-50.75,-18.9,-22.33,1729421790696.0,0.0
-8.023134,1.217947,-9.836893,-126.910004,12.88,-4.34,1729421790716.0,0.0
-8.781659,-0.882952,-14.47897,-151.479996,-7.21,18.34,1729421790736.0,0.0
-7.300502,-2.476572,-17.618353,-90.230003,-32.48,38.220001,1729421790756.0,0.0
-6.049056,-2.837888,-16.228123,-16.309999,8.47,64.260002,1729421790778.0,0.0
-5.91745,-2.620141,-8.281559,49.279999,80.709999,77.139999,1729421790796.0,0.0
-6.089733,-0.878166,-6.802795,30.52,107.379997,67.059998,1729421790816.0,0.0
-4.644469,-6.448657,-7.922636,-30.940001,56.91,55.16,1729421790837.0,0.0
-2.95035,-9.509077,-6.802795,-110.18,21.0,17.5,1729421790856.0,0.0
-1.330409,-11.58844,-5.553742,-55.02,-4.62,-12.25,1729421790878.0,0.0
-0.459422,-9.597611,-3.550949,33.25,-24.57,-38.290001,1729421790895.0,0.0
-0.849452,-5.733203,-5.352744,87.989998,-26.389999,-65.239998,1729421790915.0,0.0
-2.172683,-3.146562,-4.98425,92.190002,-3.78,-66.709999,1729421790936.0,0.0
-3.718446,-4.216154,-6.886543,75.040001,5.67,-58.310001,1729421790956.0,0.0
-3.708875,-4.931608,-7.439285,55.650002,-39.48,-72.099998,1729421790978.0,0.0
-2.847459,-1.806581,-9.262616,82.25,-73.5,-51.59,1729421790996.0,0.0
-3.029313,0.449851,-8.724231,150.080002,-82.739998,-14.28,1729421791016.0,0.0
-3.787838,0.433101,-12.528819,170.029999,-51.73,-4.62,1729421791035.0,0.0
-6.649654,0.270389,-10.813165,74.900002,29.610001,27.719999,1729421791056.0,0.0
-9.221939,-3.481557,-11.131411,48.790001,92.120003,24.01,1729421791077.0,0.0
-10.205389,-5.391029,-11.131411,26.25,71.400002,16.66,1729421791096.0,0.0
-7.245467,-5.213961,-10.593026,16.870001,-8.61,17.01,1729421791116.0,0.0
-3.816552,-6.333801,-11.200804,21.42,-80.43,10.78,1729421791138.0,0.0
-1.339981,-6.795617,-10.370493,27.299999,-51.450001,10.99,1729421791157.0,0.0
-2.572284,-3.378666,-10.399208,73.849998,32.200001,10.71,1729421791178.0,0.0
-5.032106,-3.682554,-10.746166,75.110001,181.369995,4.27,1729421791197.0,0.0
-6.635297,-5.120641,-8.063812,92.120003,187.110001,23.309999,1729421791216.0,0.0
-5.235496,-5.142176,-2.79721,138.180008,103.459999,30.59,1729421791238.0,0.0
-2.591427,-5.898308,-0.76331,133.770004,10.92,30.940001,1729421791261.0,0.0
-0.33021,-7.51107,0.880559,101.639999,-37.869999,29.4,1729421791278.0,0.0
1.430908,-8.389235,0.521635,103.949997,-35.91,25.129999,1729421791296.0,0.0
0.160319,-7.972885,-0.598206,172.130005,15.47,25.27,1729421791316.0,0.0
-3.251846,-6.640083,-1.136591,267.26001,38.220001,46.27,1729421791337.0,0.0
-4.608576,-7.867601,-5.185246,351.75,9.38,69.790001,1729421791356.0,0.0
-5.974878,-11.468799,-3.498307,404.600006,-9.38,93.309998,1729421791385.0,0.0
-7.034898,-13.124631,-2.54357,341.670013,23.799999,60.48,1729421791397.0,0.0
-7.63789,-9.140583,-1.990828,162.190002,70.419998,11.83,1729421791416.0,0.0
-7.168896,-8.829515,-3.17049,46.830002,29.26,29.4,1729421791437.0,0.0
-5.371887,-8.044669,-2.770889,-31.57,-33.529999,18.76,1729421791458.0,0.0
-4.06062,-8.4347,-3.486342,-63.139999,-36.75,6.79,1729421791477.0,0.0
-3.864408,-8.973085,-1.488336,-89.879997,-8.75,-4.62,1729421791497.0,0.0
-4.141976,-5.326423,-4.015156,-199.289993,-3.22,-30.309999,1729421791516.0,0.0
-3.438486,-7.046863,-7.597212,-268.23999,-39.830002,-41.439999,1729421791536.0,0.0
-3.565305,-7.554141,-4.359723,-252.559998,-76.580002,-20.09,1729421791558.0,0.0
-3.56052,-8.003991,-2.62732,-196.0,-62.23,-25.34,1729421791578.0,0.0
-3.431308,-6.508478,-5.130211,-161.559998,-31.57,-38.709999,1729421791596.0,0.0
-3.237489,-3.476771,-9.899107,-173.460007,-33.880001,-38.360001,1729421791617.0,0.0
-4.790431,-1.636691,-7.274181,-179.970001,-9.94,7.49,1729421791637.0,0.0
-5.063213,-2.395216,-5.142176,-239.540009,-3.85,-18.129999,1729421791658.0,0.0
-5.76431,-6.01077,-9.439686,-311.850006,-17.290001,-22.049999,1729421791680.0,0.0
-5.455636,-8.202596,-11.358729,-310.100006,-64.050003,-38.150002,1729421791698.0,0.0
-5.091926,-6.171089,-8.630912,-227.779999,-49.139999,-18.41,1729421791717.0,0.0
-3.945765,-4.974678,-9.078369,-67.970001,-33.740002,-19.18,1729421791738.0,0.0
-4.065405,-1.509871,-8.870193,-25.969999,-39.200001,3.85,1729421791757.0,0.0
-4.134798,0.799203,-10.049855,-61.740002,-20.440001,15.26,1729421791778.0,0.0
-4.661219,-1.399801,-10.951948,-104.580002,2.94,22.960001,1729421791797.0,0.0
-4.737789,-3.938586,-9.066404,-138.949997,17.99,17.43,1729421791816.0,0.0
-5.036892,-7.640282,-5.996413,-126.0,10.64,7.84,1729421791838.0,0.0
-4.027121,-5.702096,-9.138189,-79.099998,-20.93,-10.64,1729421791857.0,0.0
-3.268596,-3.87398,-10.19821,-3.71,-36.68,7.77,1729421791880.0,0.0
-3.622734,-3.335595,-8.659625,18.690001,-10.78,31.290001,1729421791897.0,0.0
-5.259424,-4.656433,-9.887143,6.51,40.950001,22.889999,1729421791916.0,0.0
-6.235696,-6.67119,-9.765109,33.740002,75.949997,9.17,1729421791936.0,0.0
-5.271388,-3.622734,-6.929615,88.830002,33.389999,26.880001,1729421791957.0,0.0
-4.443472,0.157926,-7.740781,126.07,-34.299999,49.139999,1729421791980.0,0.0
-4.706682,-1.002593,-8.95155,137.479996,-21.07,49.560001,1729421791998.0,0.0
-5.185246,-4.362115,-11.174481,119.07,31.5,42.279999,1729421792016.0,0.0
-4.821537,-10.593026,-12.035898,174.720001,45.290001,31.219999,1729421792040.0,0.0
-3.294917,-6.482157,1.153341,171.360001,11.76,31.710001,1729421792058.0,0.0
-4.596612,-3.211168,-2.895315,154.839996,-24.43,42.07,1729421792078.0,0.0
-4.228118,-7.611568,-11.320443,193.830002,-1.68,-30.1,1729421792097.0,0.0
-5.776274,-8.039884,-9.896714,208.320007,51.939999,14.42,1729421792117.0,0.0
-6.297909,-8.549555,-9.150154,294.279999,92.190002,19.6,1729421792135.0,0.0
-5.647062,-7.975278,-6.932007,377.860016,93.940002,17.92,1729421792157.0,0.0
-5.742774,-6.4678,-10.234102,386.399994,56.91,46.830002,1729421792177.0,0.0
-4.187439,-5.627919,-9.662218,320.809998,63.77,4.69,1729421792196.0,0.0
-3.397808,-7.975278,-4.749753,309.049988,102.760002,-1.89,1729421792216.0,0.0
-6.333801,-8.913264,-0.902094,324.660004,95.970001,8.19,1729421792236.0,0.0
-4.058227,-7.860423,-4.991428,409.570007,67.480003,-37.59,1729421792256.0,0.0
-5.070391,-5.828916,-0.89013,384.720001,91.910004,-16.17,1729421792279.0,0.0
-6.192625,-3.866802,1.261017,272.51001,47.950001,-13.3,1729421792296.0,0.0
-4.991428,-5.04407,1.887937,163.449997,4.34,-36.259998,1729421792318.0,0.0
-3.9673,-6.314659,0.902094,109.620003,-26.18,-38.290001,1729421792336.0,0.0
-3.546163,-10.581062,1.567299,147.419998,-21.629999,-45.57,1729421792356.0,0.0
-2.871387,-11.351551,1.306481,139.369995,-18.76,-54.110001,1729421792385.0,0.0
-0.66999,-6.26441,-0.899701,132.720001,7.98,-30.17,1729421792397.0,0.0
-0.42353,-3.881158,-0.569492,148.75,51.450001,0.42,1729421792416.0,0.0
-3.361916,-4.931608,8.513663,92.82,7.21,-3.92,1729421792435.0,0.0
-2.811567,-7.573284,4.383651,-60.27,-60.41,-12.53,1729421792457.0,0.0
-4.675575,-12.624532,3.323631,-193.479996,-15.61,-20.860001,1729421792477.0,0.0
-3.156133,-10.018748,2.067399,-226.380005,-76.93,-14.56,1729421792496.0,0.0
-1.426122,-7.869993,2.07697,-227.570007,-57.610001,-3.08,1729421792516.0,0.0
-1.741975,-8.487342,1.526621,-273.769989,-96.25,-18.690001,1729421792535.0,0.0
-2.59382,-8.267202,-0.753739,-297.360016,-70.840004,-8.19,1729421792556.0,0.0
-3.404987,-7.099504,-1.174876,-322.48999,-71.120003,-30.1,1729421792580.0,0.0
-3.85723,-7.506285,-1.591227,-361.480011,-83.019997,-32.34,1729421792595.0,0.0
-3.184847,-5.982057,-3.864408,-436.589996,-89.040001,-50.68,1729421792615.0,0.0
-2.715853,-4.991428,-3.452843,-463.330017,-97.230003,-57.189999,1729421792636.0,0.0
-4.366901,-10.04507,-3.165704,-395.429993,-116.900002,-39.619999,1729421792656.0,0.0
-4.319045,-8.623734,-8.389235,-257.950012,-94.639999,-28.84,1729421792677.0,0.0
-3.986443,-2.67039,-7.386643,-187.110001,23.52,-8.61,1729421792696.0,0.0
-5.056034,-4.689932,-9.135797,-182.770004,42.700001,0.42,1729421792715.0,0.0
-5.546563,-3.95055,-11.655439,-236.669998,-52.150002,7.49,1729421792735.0,0.0
-4.532006,-6.161518,-9.391829,-253.75,-90.160004,41.23,1729421792755.0,0.0
-2.928815,-8.365308,-8.020741,-218.259995,-107.099998,35.139999,1729421792776.0,0.0
-2.35693,-8.386844,-8.645268,-169.820007,-107.309998,33.18,1729421792795.0,0.0
-2.426322,-6.23091,-8.740981,-125.510002,-78.050003,18.690001,1729421792815.0,0.0
-3.897908,-6.221339,-12.789637,-74.620003,-38.57,13.02,1729421792835.0,0.0
-4.677969,-7.054041,-11.150554,-4.97,8.54,17.219999,1729421792855.0,0.0
-3.546163,-4.867002,-10.38485,66.849998,-12.88,37.66,1729421792877.0,0.0
-1.823331,-2.825923,-10.202995,69.230003,-54.25,66.57,1729421792894.0,0.0
-1.069592,-4.252046,-5.144568,68.669998,-70.769997,78.75,1729421792915.0,0.0
-2.069792,-2.921637,1.354338,18.76,-41.02,76.510002,1729421792935.0,0.0
-4.65404,-5.575277,-7.539784,45.639999,22.610001,52.779999,1729421792955.0,0.0
-5.785845,-9.729217,-11.47119,116.480003,35.91,0.91,1729421792976.0,0.0
-7.06122,-6.65444,-10.042676,141.190002,43.049999,55.510002,1729421792996.0,0.0
-7.192825,-5.297709,-7.977671,208.389999,6.65,57.540001,1729421793015.0,0.0
-6.34098,-5.788238,-7.82453,202.229996,-11.2,50.470001,1729421793034.0,0.0
-5.046463,-8.157133,-13.062418,207.059998,-36.119999,25.129999,1729421793058.0,0.0
-3.814159,-9.355937,-10.925629,281.75,-14.7,18.9,1729421793075.0,0.0
-4.06062,-6.522834,-8.035098,397.670013,52.150002,13.37,1729421793098.0,0.0
-5.211568,-3.988836,-10.700702,509.529999,115.220001,16.52,1729421793117.0,0.0
-6.34098,-1.9669,-10.758131,534.380005,142.869995,29.469999,1729421793135.0,0.0
-7.089933,-0.256032,-5.867201,487.76001,147.770004,50.470001,1729421793157.0,0.0
-8.798409,-3.617948,-0.851845,444.920013,124.949997,63.420002,1729421793180.0,0.0
-6.85783,-9.987641,-1.167697,451.149994,20.93,-36.610001,1729421793197.0,0.0
-6.242875,-6.666404,2.160719,579.73999,13.79,5.67,1729421793215.0,0.0
-4.082155,0.320638,4.192225,566.650024,69.790001,14.7,1729421793236.0,0.0
-7.427321,0.086142,8.513663,397.320007,65.870003,20.23,1729421793258.0,0.0
-8.585447,-3.158526,7.508677,176.820007,-34.439999,-7.56,1729421793277.0,0.0
-5.158926,-6.15434,3.409772,18.27,-67.620003,-40.32,1729421793298.0,0.0
-3.517449,-10.633704,0.926022,-18.620001,-66.779999,-43.610001,1729421793317.0,0.0
-1.954936,-11.392227,-0.119641,2.1,-28.84,-4.41,1729421793336.0,0.0
-2.414358,-8.181061,2.289931,68.599998,47.740002,-38.43,1729421793357.0,0.0
-5.592027,-6.04427,6.345766,96.459999,83.790001,-31.219999,1729421793381.0,0.0
-5.809773,-3.663411,8.274381,33.110001,32.970001,-42.0,1729421793397.0,0.0
-4.065405,-4.749753,6.343372,7.0,-3.64,-28.139999,1729421793416.0,0.0
-3.529413,-4.625326,5.180461,-11.27,3.43,-17.710001,1729421793437.0,0.0
-4.034299,-5.266603,6.142376,-56.209999,0.42,-5.67,1729421793456.0,0.0
-4.024727,-7.860423,7.298109,-130.619995,-23.870001,-20.860001,1729421793477.0,0.0
-4.254438,-7.932207,5.359922,-218.889999,-41.16,-14.7,1729421793497.0,0.0
-3.802195,-8.583055,2.715853,-234.919998,-42.560001,-1.54,1729421793515.0,0.0
-4.019942,-9.288938,2.464607,-298.619995,-49.560001,-22.120001,1729421793536.0,0.0
-4.804788,-10.126426,3.684947,-339.149994,-77.07,-22.82,1729421793555.0,0.0
-4.522435,-9.860823,2.457429,-321.160004,-75.459999,-20.65,1729421793577.0,0.0
-4.56072,-7.872386,2.624927,-261.940002,-54.32,-6.23,1729421793596.0,0.0
-4.809574,-6.721439,2.09372,-227.360001,-46.130001,3.71,1729421793617.0,0.0
-5.233103,-7.183254,0.291924,-270.619995,-32.060001,-5.32,1729421793636.0,0.0
-5.687739,-8.193025,-2.811567,-332.709991,-35.91,-24.780001,1729421793657.0,0.0
-5.651847,-8.391629,-2.876173,-346.779999,-59.010002,-37.310001,1729421793678.0,0.0
-4.599005,-7.183254,-2.801995,-346.01001,-57.540001,-37.799999,1729421793695.0,0.0
-4.76411,-6.82433,-1.392623,-330.890015,-49.139999,-44.099998,1729421793716.0,0.0
-5.156533,-9.956534,-4.917251,-271.600006,-56.349998,-43.330002,1729421793735.0,0.0
-4.584648,-6.977471,-4.225725,-263.619995,-35.700001,-45.360001,1729421793757.0,0.0
-4.156333,-3.924229,-4.462614,-281.470001,-11.76,-43.330002,1729421793781.0,0.0
-3.964907,-2.335395,-8.772088,-302.399994,-25.27,-40.670002,1729421793797.0,0.0
-4.749753,-1.79701,-12.095718,-299.73999,-76.93,-18.129999,1729421793816.0,0.0
-4.819145,-4.539185,-9.420543,-259.700012,-65.379997,8.96,1729421793837.0,0.0
-4.541577,-9.028119,-6.733403,-184.309998,-30.1,4.41,1729421793857.0,0.0
-4.278367,-7.317252,-4.491328,-118.160004,-25.83,0.7,1729421793878.0,0.0
-3.828516,-4.986642,-5.484349,-120.889999,-49.560001,-19.25,1729421793896.0,0.0
-4.216154,-4.175476,-9.643075,-114.309998,-69.090004,-8.68,1729421793916.0,0.0
-4.76411,-5.051248,-11.739187,-58.029999,-49.0,4.76,1729421793936.0,0.0
-5.352744,-7.171289,-11.916256,37.310001,6.37,16.17,1729421793958.0,0.0
-5.012963,-5.728417,-10.186246,114.520004,28.559999,24.5,1729421793977.0,0.0
-4.536791,-2.799603,-8.226524,111.230003,6.86,34.720001,1729421793996.0,0.0
-4.134798,-2.129612,-8.80798,33.529999,-3.5,35.91,1729421794017.0,0.0
-4.063013,-6.065805,-9.530612,-5.04,-12.11,23.379999,1729421794035.0,0.0
-3.737589,-7.101898,-5.005785,-15.12,-10.01,13.86,1729421794058.0,0.0
-3.893122,-7.288538,-5.536992,45.150002,-10.92,12.88,1729421794077.0,0.0
-4.194618,-5.754738,-9.095119,111.93,-26.040001,-2.03,1729421794095.0,0.0
-4.910072,-4.898108,-9.592826,146.649994,4.97,6.23,1729421794118.0,0.0
-6.094519,-5.017749,-4.924429,153.440002,41.299999,22.120001,1729421794137.0,0.0
-6.522834,-6.049056,-7.503892,171.360001,52.57,17.57,1729421794155.0,0.0
-6.577869,-6.673582,-11.57169,228.690002,15.33,22.82,1729421794177.0,0.0
-5.096712,-7.848458,-8.16431,304.98999,7.63,23.309999,1729421794196.0,0.0
-4.326223,-8.185846,-7.489535,428.26001,56.0,27.93,1729421794216.0,0.0
-4.886144,-5.338387,-8.693125,442.959991,64.470001,25.41,1729421794235.0,0.0
-4.677969,-3.48395,-6.795617,410.829987,89.529999,14.98,1729421794255.0,0.0
-6.276374,-4.488935,-2.725425,339.640015,106.540001,28.210001,1729421794276.0,0.0
-7.74796,-10.786844,-2.48375,304.220001,51.66,-15.05,1729421794296.0,0.0
-4.948357,-12.186646,-3.148954,338.519989,-4.62,-65.379997,1729421794317.0,0.0
-3.692125,-6.67119,-0.512064,414.26001,31.780001,-24.219999,1729421794337.0,0.0
-5.039285,-1.718047,3.67059,498.679993,69.860001,9.59,1729421794356.0,0.0
-6.496514,-4.175476,6.218946,470.330017,45.920002,-20.860001,1729421794381.0,0.0
-5.520242,-5.649454,4.455436,304.290009,3.01,-45.290001,1729421794396.0,0.0
-5.886343,-7.401,2.665605,157.149994,-2.52,-30.940001,1729421794481.0,0.0
-4.546363,-8.779266,1.584049,88.900002,-38.080002,-46.900002,1729421794485.0,0.0
-3.771089,-7.759924,2.859423,34.23,-14.91,-42.91,1729421794485.0,0.0
-1.811367,-5.881558,5.618347,38.220001,-49.700001,-16.17,1729421794486.0,0.0
0.744168,-3.924229,4.278367,7.56,-15.190001,-1.75,1729421794497.0,0.0
-1.524228,-3.869194,1.462015,-54.740002,25.27,-2.1,1729421794515.0,0.0
-3.055635,-5.436492,2.019542,-132.509995,16.450001,20.58,1729421794537.0,0.0
-4.457829,-7.384251,3.57727,-234.080002,13.09,11.9,1729421794556.0,0.0
-5.668597,-10.975878,2.565106,-351.890015,-30.030001,-9.94,1729421794577.0,0.0
-5.029713,-11.806188,0.323031,-406.980011,-64.120003,-3.85,1729421794596.0,0.0
-2.811567,-10.064213,0.760918,-359.589996,-91.139999,-2.59,1729421794616.0,0.0
-2.574677,-9.147761,1.356731,-317.029999,-77.419998,-7.42,1729421794636.0,0.0
-4.529613,-9.06162,1.194018,-336.630005,-29.960001,-31.5,1729421794656.0,0.0
-5.924629,-8.161918,-1.366302,-382.130005,1.05,-37.73,1729421794678.0,0.0
-5.381458,-7.659425,-2.962314,-416.079987,-35.700001,-69.230003,1729421794697.0,0.0
-4.553542,-7.862815,-4.177868,-434.070007,-102.480003,-84.629997,1729421794716.0,0.0
-4.584648,-11.653046,-4.496114,-351.26001,-133.279999,-72.239998,1729421794737.0,0.0
-3.711268,-8.135597,-2.916851,-257.950012,-77.910004,-46.900002,1729421794756.0,0.0
-3.87398,-4.718646,-4.12044,-215.669998,12.74,-36.259998,1729421794778.0,0.0
-4.335794,-3.900301,-8.178668,-185.990005,21.98,-28.42,1729421794797.0,0.0
-5.058427,-3.421736,-7.606783,-229.110001,-55.790001,-0.21,1729421794817.0,0.0
-3.517449,-5.4341,-7.834101,-260.959991,-90.440002,-0.49,1729421794837.0,0.0
-2.651247,-6.439085,-9.288938,-243.949997,-116.199997,12.81,1729421794858.0,0.0
-2.244468,-6.407979,-9.652647,-155.610001,-82.669998,20.440001,1729421794879.0,0.0
-2.76371,-5.446064,-9.142976,-65.519997,-29.889999,19.6,1729421794897.0,0.0
-3.948158,-6.245267,-9.51147,-23.940001,8.96,15.75,1729421794918.0,0.0
-4.752146,-6.455836,-9.516255,0.14,17.780001,7.21,1729421794937.0,0.0
-4.888536,-5.508278,-8.327023,28.700001,15.82,10.29,1729421794958.0,0.0
-4.852644,-3.768696,-8.729016,34.509998,15.82,18.129999,1729421794991.0,0.0
-5.4676,-2.459821,-9.650253,12.88,2.66,28.630001,1729421794997.0,0.0
-4.816752,-3.795017,-10.774881,-1.33,16.799999,24.219999,1729421795017.0,0.0
-4.599005,-7.922636,-13.373486,16.940001,-1.05,21.139999,1729421795039.0,0.0
-3.328416,-8.396415,0.945165,25.76,-22.120001,0.42,1729421795058.0,0.0
-3.125026,-3.696911,-4.84068,-41.23,-15.61,-0.35,1729421795079.0,0.0
-3.491128,-5.67099,-12.507284,65.730003,-76.370003,-42.490002,1729421795099.0,0.0
-4.333402,-2.388037,-5.199604,96.879997,-20.93,1.33,1729421795117.0,0.0
-5.565705,-2.758924,-2.74696,120.120003,5.32,23.17,1729421795138.0,0.0
-6.611369,-6.175875,-5.513064,102.690002,13.09,20.58,1729421795162.0,0.0
-6.142376,-9.116654,-11.887544,112.559998,-22.75,2.52,1729421795179.0,0.0
-5.575277,-8.949157,-12.279965,185.080002,-43.68,28.77,1729421795197.0,0.0
-5.309673,-6.565905,-8.559127,296.869995,7.28,44.66,1729421795220.0,0.0
-4.9675,-5.099105,-7.668997,406.420013,62.02,29.82,1729421795238.0,0.0
-6.405586,-5.381458,-9.635897,436.170013,87.5,49.420002,1729421795259.0,0.0
-6.666404,-5.448457,-7.9681,390.529999,101.43,28.139999,1729421795280.0,0.0
-8.001599,-8.489735,-3.141776,344.190002,82.459999,6.93,1729421795297.0,0.0
-6.446264,-10.413565,-5.252246,358.399994,-12.95,-6.79,1729421795319.0,0.0
-5.13739,-8.69791,-1.383051,392.140015,2.45,-19.389999,1729421795338.0,0.0
-4.457829,-5.417351,0.356531,413.559998,41.580002,-40.459999,1729421795358.0,0.0
-4.15394,-1.17009,0.854238,395.360016,44.52,-31.43,1729421795381.0,0.0
-7.190433,-2.895315,5.771489,330.26001,42.0,-31.01,1729421795399.0,0.0
-7.855636,-6.295516,4.323831,251.930008,-16.870001,-39.900002,1729421795418.0,0.0
-4.287938,-7.795816,4.412365,236.880005,-47.950001,-46.27,1729421795438.0,0.0
-3.952943,-9.571291,2.127219,161.490005,1.33,-27.93,1729421795458.0,0.0
-1.208375,-6.496514,3.101098,104.580002,-22.610001,-26.880001,1729421795479.0,0.0
-0.143569,-4.692325,3.026921,57.189999,16.309999,-15.05,1729421795497.0,0.0
-0.70349,-4.776074,3.828516,1.4,26.18,-0.21,1729421795517.0,0.0
-1.543371,-4.773681,3.428915,-82.18,24.43,13.93,1729421795537.0,0.0
-3.23031,-7.168896,2.610569,-182.559998,31.290001,14.35,1729421795558.0,0.0
-5.699703,-10.671989,2.067399,-302.540009,20.790001,7.07,1729421795579.0,0.0
-6.829116,-12.983455,2.029114,-385.559998,-24.360001,-2.73,1729421795599.0,0.0
-5.922236,-13.258631,1.713261,-416.5,-76.160004,-16.17,1729421795619.0,0.0
-5.288138,-10.908878,3.330809,-377.299988,-117.25,-31.639999,1729421795637.0,0.0
-4.419543,-7.666604,0.385244,-339.850006,-81.970001,-31.639999,1729421795657.0,0.0
-4.302295,-6.273981,-0.181855,-354.339996,-49.91,-58.869999,1729421795680.0,0.0
-4.551149,-5.776274,-0.150748,-433.929993,-57.330002,-78.68,1729421795698.0,0.0
-4.541577,-5.85763,-2.739782,-508.269989,-74.059998,-87.360001,1729421795717.0,0.0
-4.869394,-8.999406,-3.218346,-485.309998,-116.270004,-96.879997,1729421795736.0,0.0
-3.701697,-10.296316,-6.441479,-342.649994,-145.880005,-73.779999,1729421795758.0,0.0
-3.395415,-8.12124,-4.756931,-212.800003,-48.650002,-36.330002,1729421795780.0,0.0
-3.739982,-4.240082,-7.724032,-162.75,28.42,-38.080002,1729421795797.0,0.0
-4.625326,-2.718246,-9.513863,-178.639999,0.35,-18.549999,1729421795817.0,0.0
-4.472186,-3.144169,-7.9346,-230.369995,-81.830002,-18.76,1729421795838.0,0.0
-2.706282,-3.416951,-10.710274,-240.869995,-113.120003,-6.09,1729421795857.0,0.0
-2.017149,-4.625326,-11.41137,-160.509995,-99.470001,29.82,1729421795879.0,0.0
-2.349752,-5.417351,-6.896115,-76.090004,-31.219999,31.92,1729421795896.0,0.0
-3.388237,-5.032106,-8.269595,-58.52,28.139999,12.6,1729421795919.0,0.0
-5.185246,-4.819145,-6.597012,-67.340004,41.439999,12.32,1729421795937.0,0.0
-5.718846,-4.713861,-7.963314,-70.769997,30.24,-2.94,1729421795957.0,0.0
-5.65424,-5.955735,-9.585647,-25.969999,-4.06,4.41,1729421795989.0,0.0
-4.59422,-5.101498,-8.776874,19.6,-27.440001,21.210001,1729421795999.0,0.0
-3.486342,-2.804388,-9.279366,15.82,-36.82,36.610001,1729421796017.0,0.0
-3.072384,-1.651048,-10.205389,1.26,-25.41,51.240002,1729421796037.0,0.0
-3.462414,-3.694518,-11.306087,18.129999,-13.93,48.580002,1729421796061.0,0.0
-4.187439,-7.532606,-8.073383,30.17,3.22,35.420002,1729421796078.0,0.0
-4.412365,-10.717452,-1.275374,50.119999,26.110001,15.05,1729421796098.0,0.0
-4.474578,-7.348359,-8.729016,110.809998,-0.14,-1.47,1729421796119.0,0.0
-4.843073,-2.794817,-11.68176,282.23999,-19.6,32.200001,1729421796137.0,0.0
-5.623133,-1.641476,-7.082755,279.51001,28.98,63.98,1729421796158.0,0.0
-6.699903,-5.548956,-6.699903,310.170013,42.77,48.580002,1729421796179.0,0.0
-5.326423,-9.315259,-10.892128,372.119995,52.57,19.950001,1729421796197.0,0.0
-5.15414,-6.905686,-10.116854,421.890015,31.92,53.900002,1729421796217.0,0.0
-5.053641,-5.426922,-5.491528,424.829987,60.900002,54.040001,1729421796237.0,0.0
-5.347959,-5.113462,-2.565106,375.339996,83.790001,29.190001,1729421796259.0,0.0
-5.410172,-6.788438,-5.958128,366.450012,41.299999,17.01,1729421796280.0,0.0
-6.089733,-10.009177,-4.689932,425.880005,16.52,16.73,1729421796298.0,0.0
-6.778866,-13.440485,0.318245,547.190002,-42.349998,-36.889999,1729421796318.0,0.0
-3.912265,-7.350751,-0.01675,654.220032,-42.07,-51.73,1729421796336.0,0.0
-2.691926,-1.402194,2.589034,699.789978,50.330002,0.07,1729421796357.0,0.0
-4.673182,-0.028714,2.68714,592.27002,85.82,2.31,1729421796380.0,0.0
-9.092726,-1.241875,4.086941,340.410004,75.459999,-10.15,1729421796398.0,0.0
-8.712267,-4.457829,6.262017,123.550003,-7.63,-40.740002,1729421796417.0,0.0
-4.539185,-7.223931,4.814359,-0.49,-39.689999,-76.720001,1729421796438.0,0.0
-1.89033,-6.520442,6.211767,-28.42,-21.07,-44.240002,1729421796458.0,0.0
-2.333002,-4.144369,6.333801,0.63,31.360001,-15.190001,1729421796485.0,0.0
-2.701497,-2.615355,5.891129,-16.030001,21.07,-2.52,1729421796497.0,0.0
-2.615355,-4.0008,5.726025,-53.130001,5.95,10.08,1729421796518.0,0.0
-2.62732,-6.699903,6.080163,-129.430008,-18.059999,9.17,1729421796539.0,0.0
-3.058028,-8.453842,6.972685,-222.320007,-33.950001,7.7,1729421796558.0,0.0
-2.778067,-8.920443,3.34038,-264.459991,-66.779999,4.27,1729421796578.0,0.0
-2.476572,-9.903893,2.794817,-210.770004,-61.950001,23.24,1729421796597.0,0.0
-3.708875,-8.190632,4.565506,-235.410004,-19.460001,19.110001,1729421796619.0,0.0
-6.85783,-7.788638,6.092126,-316.75,-25.34,23.309999,1729421796638.0,0.0
-7.159326,-6.879365,4.82393,-370.720001,-46.060001,5.25,1729421796659.0,0.0
-5.441278,-5.726025,2.969493,-394.519989,-54.110001,6.58,1729421796681.0,0.0
-3.828516,-5.536992,0.12682,-410.269989,-79.309998,2.31,1729421796697.0,0.0
-3.816552,-7.599605,-3.227918,-455.769989,-65.379997,-6.58,1729421796719.0,0.0
-5.525027,-9.018548,-3.232704,-538.22998,-21.35,-30.450001,1729421796739.0,0.0
-7.458428,-6.343372,-1.069592,-572.179993,-19.809999,-62.09,1729421796758.0,0.0
-5.438886,-4.61097,-7.101898,-446.179993,-74.760002,-42.420002,1729421796781.0,0.0
-3.74716,-4.981857,-9.908678,-377.649994,-74.480003,-47.529999,1729421796798.0,0.0
-4.766503,-3.720839,-10.370493,-399.980011,-37.73,-34.509998,1729421796819.0,0.0
-5.668597,-3.684947,-11.629118,-337.190002,-43.189999,-6.79,1729421796839.0,0.0
-4.910072,-6.281159,-10.963913,-267.119995,-60.27,-9.17,1729421796859.0,0.0
-3.634698,-7.695317,-7.929814,-197.820007,-67.269997,-13.93,1729421796879.0,0.0
-2.648855,-6.939186,-8.035098,-111.93,-61.670002,-6.72,1729421796897.0,0.0
-2.136791,-2.914458,-9.066404,-69.790001,-50.82,-16.1,1729421796919.0,0.0
-3.651447,-0.684347,-10.482956,-55.439999,2.24,2.87,1729421796940.0,0.0
-5.359922,-4.646862,-10.920842,-10.92,48.509998,0.49,1729421796960.0,0.0
-5.886343,-6.242875,-9.265009,-26.809999,51.450001,-2.31,1729421796980.0,0.0
-5.288138,-5.07757,-6.905686,-17.710001,27.440001,5.95,1729421796999.0,0.0
-4.661219,-4.149154,-7.546963,15.26,-3.78,22.190001,1729421797021.0,0.0
-3.98405,-5.15414,-6.580262,73.5,-30.66,25.129999,1729421797039.0,0.0
-3.952943,-5.235496,-6.262017,96.389999,-26.389999,25.76,1729421797060.0,0.0
-4.522435,-5.532206,-9.631111,124.529999,-8.05,12.95,1729421797080.0,0.0
-5.115855,-5.405386,-9.667004,183.820007,11.41,22.120001,1729421797098.0,0.0
-5.551349,-4.003192,-7.41775,239.470001,18.48,40.389999,1729421797120.0,0.0
-6.149554,-3.067599,-10.25803,278.320007,18.83,50.049999,1729421797139.0,0.0
-6.345766,-3.945765,-10.674382,318.709991,20.02,71.68,1729421797159.0,0.0
-5.867201,-7.166504,-10.107283,372.329987,42.490002,81.269997,1729421797181.0,0.0
-5.742774,-8.329416,-7.401,421.679993,76.300003,73.779999,1729421797204.0,0.0
-6.008378,-5.371887,-8.298308,464.450012,108.57,73.080002,1729421797220.0,0.0
-6.065805,-4.072584,-9.073583,501.690002,104.300003,69.440002,1729421797238.0,0.0
-5.503492,-3.223132,-4.63729,447.299988,83.090004,53.41,1729421797259.0,0.0
-7.235896,-7.580462,0.662812,391.019989,69.790001,32.759998,1729421797280.0,0.0
-5.089533,-7.166504,-2.945565,411.950012,-26.040001,-29.049999,1729421797300.0,0.0
-4.61097,-5.912664,0.885344,463.399994,-6.23,8.05,1729421797319.0,0.0
-4.625326,-3.136991,4.728218,413.0,32.900002,4.2,1729421797340.0,0.0
-6.51087,-2.644069,4.804788,250.529999,29.120001,-9.1,1729421797359.0,0.0
-7.460821,-9.276974,1.457229,106.959999,-29.190001,-21.49,1729421797385.0,0.0
-4.395615,-10.743774,1.351945,68.739998,-83.440002,-32.060001,1729421797399.0,0.0
-3.201597,-8.73141,1.629512,91.07,-15.68,0.98,1729421797420.0,0.0
-5.82413,-8.35813,5.297709,68.529999,23.870001,-24.360001,1729421797439.0,0.0
-3.864408,-6.793223,4.09412,-0.7,-38.849998,-53.619999,1729421797459.0,0.0
-0.387637,-4.802395,5.000999,-45.709999,-7.07,-8.33,1729421797482.0,0.0
-1.002593,-1.928615,5.168497,-158.199997,17.85,-2.24,1729421797500.0,0.0
-5.436492,-6.865008,3.105884,-262.360016,-2.1,15.75,1729421797519.0,0.0
-6.853044,-11.81815,0.784846,-308.910004,-46.200001,-15.26,1729421797539.0,0.0
-5.132604,-13.950156,1.706082,-296.940002,-94.919998,-30.030001,1729421797559.0,0.0
-3.096312,-9.722038,0.827917,-315.980011,-75.32,-16.17,1729421797580.0,0.0
-2.452643,-7.159326,-0.133998,-314.649994,-51.66,-31.08,1729421797599.0,0.0
-4.204189,-7.578069,0.246461,-341.179993,-28.98,-32.130001,1729421797620.0,0.0
-6.417551,-7.058826,-1.083949,-417.130005,-12.39,-46.060001,1729421797638.0,0.0
-6.290731,-5.486742,-4.465007,-463.75,-7.21,-72.029999,1729421797659.0,0.0
-5.254639,-4.297509,-6.506085,-482.019989,-55.439999,-89.110001,1729421797681.0,0.0
-5.328816,-6.786045,-4.656433,-436.519989,-100.379997,-80.709999,1729421797699.0,0.0
-5.223531,-8.142776,-7.484749,-324.309998,-93.800003,-54.459999,1729421797719.0,0.0
-4.914857,-6.008378,-7.195218,-163.800003,-2.03,-34.299999,1729421797739.0,0.0
-5.079963,-3.476771,-8.518449,-142.029999,-2.94,-24.710001,1729421797760.0,0.0
-5.328816,-1.586441,-10.442278,-164.5,-56.630001,-14.21,1729421797781.0,0.0
-4.443472,-1.289732,-9.817751,-225.399994,-76.370003,-0.28,1729421797799.0,0.0
-2.971886,-4.39083,-7.393822,-250.809998,-77.699997,-8.54,1729421797818.0,0.0
-2.914458,-6.960721,-8.992228,-214.270004,-70.980003,2.03,1729421797838.0,0.0
-2.641676,-5.453243,-9.06162,-124.25,-61.459999,11.76,1729421797859.0,0.0
-3.031706,-2.861816,-7.88435,-51.59,-25.059999,17.639999,1729421797879.0,0.0
-4.618148,-2.426322,-8.721838,-35.209999,16.309999,20.51,1729421797898.0,0.0
-5.484349,-2.751746,-8.767302,-40.040001,28.0,19.040001,1729421797919.0,0.0
-6.108876,-4.893322,-10.114462,-24.08,6.23,26.460001,1729421797938.0,0.0
-5.673382,-6.319445,-9.154939,-11.34,-8.12,15.12,1729421797960.0,0.0
-4.941179,-6.58744,-9.410972,-5.32,1.47,6.44,1729421797981.0,0.0
-4.244867,-5.63749,-10.217353,34.650002,-5.74,6.79,1729421797998.0,0.0
-3.419343,-2.852244,-9.19801,70.559998,5.39,23.940001,1729421798019.0,0.0
-3.52702,-1.440479,-7.678568,58.029999,13.37,42.98,1729421798039.0,0.0
-3.988836,-3.165704,-2.663212,18.620001,6.65,18.41,1729421798059.0,0.0
-5.582455,-5.776274,-7.269395,28.559999,4.69,24.639999,1729421798079.0,0.0
-5.395815,-5.417351,-7.798209,95.760002,-18.83,20.23,1729421798098.0,0.0
-5.47717,-2.912065,-9.513863,129.850006,-31.85,40.389999,1729421798118.0,0.0
-5.62074,-1.234696,-9.21476,105.139999,-37.099998,45.990002,1729421798138.0,0.0
-5.924629,-4.63729,-10.073784,88.129997,-5.18,34.16,1729421798160.0,0.0
-5.594419,-8.750552,-11.765509,167.860001,5.04,24.99,1729421798181.0,0.0
-5.309673,-9.489935,-10.822738,302.119995,11.83,39.130001,1729421798198.0,0.0
-5.395815,-6.771688,-10.815558,438.339996,55.299999,41.790001,1729421798219.0,0.0
-6.367301,-5.094319,-11.770294,528.780029,106.190002,39.759998,1729421798238.0,0.0
-7.051648,-2.612962,-9.568897,506.380005,140.350006,33.810001,1729421798260.0,0.0
-7.422535,-4.924429,-4.972286,451.360016,124.110001,28.280001,1729421798281.0,0.0
-7.755138,-14.651253,-2.096112,402.01001,59.43,-6.37,1729421798298.0,0.0
-3.144169,-9.568897,-8.327023,406.700012,-50.119999,-95.129997,1729421798318.0,0.0
-3.991228,-2.143969,-2.007578,506.309998,25.83,36.400002,1729421798339.0,0.0
-4.941179,3.60359,1.698904,440.089996,50.189999,34.580002,1729421798360.0,0.0
-4.972286,-0.239282,-1.117448,223.930008,23.940001,-10.85,1729421798382.0,0.0
-7.446464,-12.653246,-0.12682,6.16,-66.709999,-106.610001,1729421798398.0,0.0
-3.684947,-11.988041,-0.557528,73.989998,-99.610001,-71.959999,1729421798418.0,0.0
0.210568,-6.147161,1.067199,242.619995,6.65,10.99,1729421798440.0,0.0
0.114855,-1.619941,1.715654,233.869995,87.010002,21.98,1729421798460.0,0.0
-3.175276,-2.342573,4.113262,84.07,73.57,13.86,1729421798479.0,0.0
-4.37408,-5.630312,3.378666,-110.459999,4.9,8.96,1729421798498.0,0.0
-3.522235,-9.293723,3.20399,-266.0,-66.43,-11.62,1729421798527.0,0.0
-2.880959,-11.732009,0.535992,-364.559998,-106.610001,11.27,1729421798539.0,0.0
-2.691926,-14.864214,3.684947,-361.690002,-114.449997,-5.67,1729421798559.0,0.0
-3.37388,-11.715261,1.177269,-350.420013,-82.32,-17.43,1729421798581.0,0.0
-4.292724,-9.032906,1.057628,-276.709991,-37.869999,-27.93,1729421798600.0,0.0
-4.953143,-6.922436,-1.002593,-293.089996,-17.360001,-37.310001,1729421798618.0,0.0
-5.309673,-5.802595,-2.325824,-381.079987,-28.42,-55.720001,1729421798641.0,0.0
-5.912664,-5.453243,-2.959922,-485.730011,-53.549999,-77.139999,1729421798659.0,0.0
-5.974878,-8.626125,-5.893522,-505.890015,-85.540001,-91.07,1729421798680.0,0.0
-4.701896,-8.420342,-5.431707,-442.470001,-109.830002,-84.559998,1729421798700.0,0.0
-4.187439,-6.982256,-5.211568,-270.200012,-40.810001,-39.970001,1729421798719.0,0.0
-3.656233,-5.864808,-8.26481,-190.680008,-0.77,-39.900002,1729421798740.0,0.0
-4.591826,-3.572484,-10.013963,-159.320007,-23.870001,-27.370001,1729421798759.0,0.0
-4.529613,-1.129412,-9.643075,-184.660004,-54.25,-2.38,1729421798780.0,0.0
-3.445665,-2.100898,-8.236095,-221.410004,-62.369999,-5.6,1729421798799.0,0.0
-3.062813,-5.359922,-9.736395,-212.449997,-69.090004,0.91,1729421798821.0,0.0
-2.663212,-5.242674,-8.626125,-157.289993,-60.549999,12.46,1729421798839.0,0.0
-2.801995,-4.086941,-8.635696,-64.470001,-36.610001,11.97,1729421798860.0,0.0
-3.878766,-2.921637,-8.647661,-32.759998,-9.03,5.6,1729421798882.0,0.0
-4.76411,-1.842474,-9.171689,-43.330002,15.12,8.05,1729421798899.0,0.0
-5.386244,-2.773281,-10.753345,-17.85,1.4,18.129999,1729421798921.0,0.0
-4.752146,-3.364309,-9.159724,14.42,-8.61,22.540001,1729421798940.0,0.0
-4.685147,-2.955136,-8.362915,34.439999,0.63,34.93,1729421798960.0,0.0
-5.106283,-3.335595,-9.877571,21.84,3.43,23.450001,1729421798982.0,0.0
-4.972286,-4.998606,-10.796415,6.3,19.389999,15.4,1729421799001.0,0.0
-4.658825,-5.819345,-10.430314,35.560001,12.67,17.85,1729421799019.0,0.0
-4.175476,-7.334002,-4.943572,66.779999,0.84,14.21,1729421799040.0,0.0
-3.60359,-5.285746,-5.343173,45.709999,-8.05,1.61,1729421799100.0,0.0
-3.735196,-6.013163,-10.648061,96.599998,-39.27,-4.83,1729421799105.0,0.0
-3.591627,-4.929214,-10.595419,147.910004,-20.51,15.4,1729421799109.0,0.0
-4.500899,-3.316452,-7.008578,173.460007,23.870001,40.810001,1729421799120.0,0.0
-6.302694,-4.481757,-5.625526,171.360001,49.349998,37.869999,1729421799139.0,0.0
-5.74756,-5.687739,-10.265208,176.610001,43.75,8.12,1729421799166.0,0.0
-5.319244,-5.766702,-11.954542,217.979996,-9.24,23.66,1729421799224.0,0.0
-4.019942,-7.264609,-8.341379,268.589996,-2.59,10.01,1729421799226.0,0.0
-4.091727,-6.687939,-7.058826,322.48999,33.880001,17.710001,1729421799228.0,0.0
-4.273581,-4.735396,-5.99402,364.980011,69.860001,5.74,1729421799294.0,0.0
-5.802595,-3.850052,-6.910471,335.160004,95.760002,11.48,1729421799296.0,0.0
-4.888536,-5.47717,-7.551748,269.5,83.650002,-5.53,1729421799297.0,0.0
-4.539185,-8.898908,-4.122833,214.970001,50.189999,2.87,1729421799300.0,0.0
-2.467,-9.367901,-6.446264,244.160004,8.26,-12.25,1729421799319.0,0.0
-2.565106,-6.537192,-4.76411,346.850006,46.060001,10.43,1729421799339.0,0.0
-5.048856,-5.953342,-4.76411,332.98999,77.349998,-8.61,1729421799361.0,0.0
-7.128219,-7.176075,3.058028,278.600006,22.120001,-29.75,1729421799385.0,0.0
-5.594419,-5.776274,2.273181,198.240005,-22.540001,-20.93,1729421799400.0,0.0
-3.28056,-5.47717,2.742175,163.240005,-21.42,1.96,1729421799492.0,0.0
-3.452843,-6.585048,1.165305,91.209999,-5.53,-17.639999,1729421799495.0,0.0
-4.599005,-8.925228,-0.646062,60.689999,-4.13,-32.830002,1729421799496.0,0.0
-4.462614,-9.827322,0.894916,95.690002,-11.48,-3.01,1729421799500.0,0.0
-4.445865,-11.382657,3.428915,110.529999,-10.36,4.55,1729421799507.0,0.0
-1.902294,-8.152347,2.629712,92.400002,-28.84,-15.12,1729421799529.0,0.0
-1.540978,-6.139983,3.574877,58.310001,18.48,7.91,1729421799541.0,0.0
-2.208575,-4.986642,2.203789,-22.82,19.110001,-3.08,1729421799560.0,0.0
-3.232704,-5.663811,1.689333,-92.120003,5.18,5.39,1729421799583.0,0.0
-4.206582,-8.228917,2.835495,-139.930008,-16.1,5.88,1729421799600.0,0.0
-4.084548,-10.102496,3.235096,-208.600006,-37.380001,-1.12,1729421799620.0,0.0
-3.062813,-9.853643,-0.342174,-297.01001,-23.450001,1.75,1729421799641.0,0.0
-2.663212,-10.272388,-1.916651,-351.890015,-26.530001,-29.190001,1729421799660.0,0.0
-4.09412,-9.45165,-0.224925,-445.480011,-62.369999,-40.459999,1729421799681.0,0.0
-4.608576,-9.753145,-1.629512,-465.779999,-55.16,-45.990002,1729421799700.0,0.0
-4.381258,-8.183454,-4.457829,-450.730011,-49.0,-72.800003,1729421799720.0,0.0
-3.897908,-7.958528,-5.455636,-395.290009,-63.630001,-75.599998,1729421799739.0,0.0
-3.61077,-5.307281,-4.13719,-357.070007,-62.23,-65.309998,1729421799760.0,0.0
-4.630112,-9.056834,-5.54417,-283.429993,-52.779999,-63.490002,1729421799782.0,0.0
-4.613362,-8.539984,-7.872386,-182.070007,-56.420002,-45.220001,1729421799800.0,0.0
-3.799802,-6.496514,-7.970492,-64.400002,-18.690001,-4.62,1729421799820.0,0.0
-4.122833,-4.926822,-7.628319,-24.15,-7.63,6.23,1729421799841.0,0.0
-4.697111,-5.142176,-9.458827,-21.98,-13.58,7.21,1729421799860.0,0.0
-4.649254,-4.862216,-7.757531,-45.009998,-18.48,8.33,1729421799881.0,0.0
-4.13719,-4.539185,-6.845865,-79.029999,-22.26,2.8,1729421799900.0,0.0
-3.572484,-4.103691,-6.936793,-114.660004,-41.790001,-5.32,1729421799921.0,0.0
-3.517449,-2.830709,-8.310273,-157.009995,-58.240002,-7.7,1729421799940.0,0.0
-3.59402,-3.192025,-9.753145,-162.190002,-56.77,-6.72,1729421799962.0,0.0
-3.553342,-3.345166,-9.327222,-137.830002,-33.110001,-1.05,1729421799983.0,0.0
-4.24726,-2.376073,-9.619147,-94.57,-9.59,11.27,1729421800000.0,0.0
-4.187439,-3.56052,-9.329616,-86.800003,-4.69,14.91,1729421800020.0,0.0
-3.598805,-4.240082,-11.485549,-65.590004,-19.950001,19.530001,1729421800039.0,0.0
-3.395415,-3.244668,-9.023334,-2.73,-8.89,32.41,1729421800063.0,0.0
-3.845266,-2.919244,-8.319844,12.6,26.74,24.360001,1729421800084.0,0.0
-4.405186,-4.73061,-8.642875,7.49,38.639999,17.43,1729421800099.0,0.0
-4.4339,-6.195018,-7.427321,14.98,24.57,13.79,1729421800119.0,0.0
-4.046263,-6.12084,-9.403792,13.23,3.15,-3.99,1729421800140.0,0.0
-3.988836,-5.510671,-9.030513,23.379999,0.7,-9.38,1729421800164.0,0.0
-4.845466,-6.474977,-4.938786,60.200001,34.299999,-14.49,1729421800205.0,0.0
-5.678168,-5.364708,-8.453842,78.470001,71.610001,-31.219999,1729421800218.0,0.0
-6.635297,-5.52742,-11.389835,101.43,24.219999,-20.09,1729421800329.0,0.0
-4.546363,-5.142176,-9.279366,80.43,-9.45,-21.280001,1729421800329.0,0.0
-3.017349,-3.601198,-5.309673,86.029999,-38.990002,-17.219999,1729421800329.0,0.0
-2.368894,-4.350152,-8.159525,63.84,-46.41,-12.67,1729421800329.0,0.0
-1.938186,-4.962714,-9.533006,61.32,-51.66,-20.790001,1729421800330.0,0.0
-1.684547,-4.295116,-5.702096,56.279999,-5.74,-11.97,1729421800330.0,0.0
-3.062813,-0.646062,-6.680761,10.01,39.200001,-6.51,1729421800339.0,0.0
-4.527221,-0.835095,-7.855636,9.17,50.259998,2.17,1729421800359.0,0.0
-5.070391,-1.986043,-9.571291,-29.469999,26.74,3.43,1729421800384.0,0.0
-4.479364,-4.204189,-9.466006,-36.470001,-6.09,13.09,1729421800399.0,0.0
-3.443272,-5.087141,-7.542177,-17.639999,-30.870001,14.28,1729421800418.0,0.0
-2.904887,-4.773681,-6.132804,-7.84,-32.619999,6.51,1729421800438.0,0.0
-3.428915,-4.577469,-8.305488,-0.28,-5.11,2.59,1729421800458.0,0.0
-4.472186,-5.249853,-9.389436,37.66,20.370001,7.84,1729421800481.0,0.0
-5.096712,-5.395815,-7.77428,55.299999,33.810001,17.92,1729421800498.0,0.0
-4.811966,-5.730811,-6.98465,56.98,7.21,11.2,1729421800518.0,0.0
-4.299902,-5.838487,-6.733403,41.23,-25.9,12.25,1729421800538.0,0.0
-3.948158,-5.259424,-7.518249,28.559999,-28.280001,10.15,1729421800569.0,0.0
-3.914658,-4.618148,-7.336394,32.48,-3.71,16.940001,1729421800580.0,0.0
-4.285545,-4.615755,-6.372087,51.240002,9.73,26.110001,1729421800598.0,0.0
-4.713861,-5.391029,-5.836094,63.98,8.68,27.370001,1729421800620.0,0.0
-5.012963,-6.391229,-6.776474,46.619999,-0.14,16.450001,1729421800638.0,0.0
-5.115855,-6.005985,-6.924829,-7.77,-7.98,12.53,1729421800663.0,0.0
-5.123034,-5.611169,-7.025328,-5.18,-6.44,14.35,1729421800681.0,0.0
-5.386244,-6.209375,-8.463413,34.369999,-11.34,13.72,1729421800698.0,0.0
-5.304887,-6.556334,-8.322237,56.139999,-3.15,8.33,1729421800718.0,0.0
-4.572684,-6.259624,-6.683154,33.18,-3.15,4.69,1729421800739.0,0.0
-4.113262,-6.549156,-6.020342,23.73,-21.84,4.69,1729421800759.0,0.0
-3.859623,-7.216753,-7.37468,48.369999,-17.57,4.06,1729421800781.0,0.0
-4.034299,-8.166703,-7.223931,113.75,-0.14,8.33,1729421800799.0,0.0
-4.331009,-8.781659,-6.60419,197.259995,34.860001,16.52,1729421800819.0,0.0
-5.24746,-8.920443,-5.864808,282.940002,51.52,22.049999,1729421800839.0,0.0
-6.250053,-8.102098,-5.067998,368.829987,21.84,32.41,1729421800860.0,0.0
-5.814559,-9.138189,-4.053442,465.920013,-18.83,37.52,1729421800882.0,0.0
-4.280759,-8.188239,-3.180061,494.899994,-27.16,23.1,1729421800899.0,0.0
-4.393222,-7.142576,-0.430708,435.679993,-6.16,5.46,1729421800919.0,0.0
-5.350351,-8.439486,0.803988,349.230011,-5.6,-13.09,1729421800939.0,0.0
-4.766503,-8.872586,1.234696,215.460007,-17.99,-24.5,1729421800959.0,0.0
-4.082155,-9.035298,2.079363,112.139999,-8.19,-37.029999,1729421800980.0,0.0
-3.562913,-8.181061,3.488736,7.77,-9.66,-51.52,1729421800999.0,0.0
-3.199204,-5.17089,3.572484,-68.739998,-14.28,-33.599998,1729421801019.0,0.0
-4.122833,-4.299902,3.376273,-123.059998,17.99,-7.28,1729421801040.0,0.0
-4.493721,-5.642276,0.212961,-193.199997,18.34,-19.110001,1729421801059.0,0.0
-4.4674,-7.360322,-2.641676,-247.100006,-1.26,-28.0,1729421801081.0,0.0
-3.996014,-8.255238,-1.265803,-234.149994,4.76,-9.17,1729421801101.0,0.0
-3.699304,-7.618747,0.337388,-266.980011,29.049999,-19.74,1729421801120.0,0.0
-3.85723,-6.12084,-4.326223,-345.940002,38.150002,-41.369999,1729421801140.0,0.0
-4.761717,-8.599805,-7.441679,-321.440002,-8.89,-41.509998,1729421801161.0,0.0
-3.799802,-8.745767,-3.20399,-226.240005,-54.599998,-17.01,1729421801184.0,0.0
-2.605784,-7.439285,-4.651647,-197.610001,-20.93,-0.42,1729421801203.0,0.0
-3.790231,-8.11167,-3.304488,-209.089996,4.06,-26.74,1729421801222.0,0.0
-5.869594,-8.571091,-6.788438,-241.990005,-7.28,-43.049999,1729421801242.0,0.0
-4.232903,-5.582455,-6.525227,-125.020004,-32.689999,-12.81,1729421801262.0,0.0
-3.562913,-4.141976,-8.484949,-109.900002,-14.07,2.66,1729421801298.0,0.0
-4.989035,-6.707082,-8.738588,-115.779999,-30.17,-13.02,1729421801302.0,0.0
-4.141976,-7.142576,-9.698111,-117.040001,-50.189999,-6.44,1729421801320.0,0.0
-3.541377,-7.391429,-8.635696,-73.220001,-52.990002,-4.83,1729421801341.0,0.0
-3.125026,-7.467999,-8.11167,-11.62,-36.68,-14.14,1729421801363.0,0.0
-3.141776,-5.883951,-7.432107,24.08,-2.38,-17.99,1729421801386.0,0.0
-3.60359,-4.673182,-7.905886,5.46,28.210001,-22.33,1729421801401.0,0.0
-4.06062,-5.493921,-6.793223,-18.690001,31.99,-26.530001,1729421801420.0,0.0
-4.304688,-7.049256,-5.989235,-25.969999,17.5,-19.32,1729421801440.0,0.0
-4.118048,-7.599605,-5.879165,3.92,-9.03,-10.85,1729421801462.0,0.0
-3.799802,-6.831509,-6.54437,42.91,-15.61,-0.35,1729421801484.0,0.0
-3.661019,-4.527221,-5.852845,49.139999,-2.45,3.15,1729421801501.0,0.0
-4.067799,-5.364708,-6.912865,6.86,18.34,0.91,1729421801524.0,0.0
-4.393222,-6.398407,-7.520642,-40.32,9.8,-8.54,1729421801540.0,0.0
-4.39083,-5.907879,-6.45105,-37.029999,-2.52,-1.05,1729421801562.0,0.0
-3.907479,-5.783452,-8.12124,-12.32,-11.41,1.05,1729421801585.0,0.0
-3.567699,-4.354938,-6.613762,-28.49,-0.84,-8.26,1729421801605.0,0.0
-3.622734,-4.87418,-8.386844,-62.16,-1.12,-14.84,1729421801620.0,0.0
-3.907479,-5.635098,-9.769895,-70.840004,-17.710001,-18.690001,1729421801641.0,0.0
-4.051049,-5.374279,-8.269595,-48.02,4.27,-6.93,1729421801661.0,0.0
-4.41715,-7.04447,-8.245667,-5.18,19.67,-4.97,1729421801686.0,0.0
-3.795017,-5.84088,-7.590034,27.02,15.12,-0.7,1729421801702.0,0.0
-3.158526,-4.584648,-6.317052,24.57,-1.26,11.41,1729421801720.0,0.0
-2.969493,-6.051448,-7.855636,0.42,-23.450001,4.62,1729421801740.0,0.0
-2.974278,-6.252446,-7.958528,-37.170002,-7.77,1.19,1729421801762.0,0.0
-2.916851,-6.149554,-7.042077,-45.57,21.07,3.29,1729421801784.0,0.0
-3.29731,-6.195018,-6.876972,-31.43,18.9,5.11,1729421801801.0,0.0
-3.692125,-6.317052,-6.898508,-6.23,11.62,3.57,1729421801821.0,0.0
-3.584448,-5.989235,-7.951349,47.880001,15.75,19.389999,1729421801843.0,0.0
-3.548556,-5.886343,-6.793223,99.610001,-2.8,16.52,1729421801863.0,0.0
-3.976871,-4.864608,-4.931608,50.610001,14.28,4.06,1729421801884.0,0.0
-5.07757,-6.367301,-3.486342,-17.710001,42.700001,-1.4,1729421801900.0,0.0
-5.28096,-7.427321,-8.094919,-46.970001,25.549999,-7.35,1729421801921.0,0.0
-4.342973,-7.960921,-7.427321,52.360001,-49.209999,4.06,1729421801941.0,0.0
-3.54377,-6.407979,-6.853044,93.660004,-37.450001,12.32,1729421801961.0,0.0
-3.431308,-4.831109,-7.896315,96.739998,-21.35,2.59,1729421801982.0,0.0
-3.993621,-5.24746,-6.24766,84.629997,14.0,13.02,1729421802002.0,0.0
-4.407579,-5.891129,-6.960721,90.090004,19.389999,13.02,1729421802022.0,0.0
-4.826324,-6.503692,-7.077969,132.020004,5.95,27.93,1729421802040.0,0.0
-4.603791,-5.716454,-5.414958,169.470001,-3.5,35.77,1729421802062.0,0.0
-4.570292,-6.465407,-5.376673,182.070007,-21.280001,38.290001,1729421802084.0,0.0
-4.709075,-7.886744,-5.04407,180.180008,-29.049999,41.650002,1729421802101.0,0.0
-4.409972,-8.853443,-4.725825,178.360001,-27.23,35.139999,1729421802121.0,0.0
-4.45065,-7.927422,-4.185047,165.619995,-18.41,28.139999,1729421802140.0,0.0
-5.17089,-8.587841,-2.861816,197.610001,-22.120001,29.68,1729421802161.0,0.0
-5.383851,-10.485349,-2.56032,242.059998,-25.9,23.450001,1729421802184.0,0.0
-5.182854,-9.600004,-1.715654,255.710007,-14.56,5.88,1729421802201.0,0.0
-5.233103,-9.24826,-0.512064,250.180008,-11.06,1.68,1729421802223.0,0.0
-5.364708,-9.743573,-0.267996,246.680008,-22.610001,-9.66,1729421802241.0,0.0
-4.974678,-9.41815,1.172483,251.089996,-17.780001,-17.92,1729421802260.0,0.0
-4.965107,-8.212167,1.969293,248.990005,-1.54,-28.700001,1729421802281.0,0.0
-5.101498,-8.161918,1.265803,267.470001,-3.08,-28.91,1729421802302.0,0.0
-4.187439,-7.826923,2.488536,266.070007,19.110001,-32.689999,1729421802320.0,0.0
-4.759324,-7.597212,3.565305,207.830002,12.95,-40.880001,1729421802342.0,0.0
-5.312066,-7.06122,3.672983,159.25,15.82,-45.43,1729421802361.0,0.0
-5.115855,-6.865008,4.232903,148.680008,25.129999,-44.66,1729421802386.0,0.0
-5.024928,-6.711867,3.842873,125.93,16.870001,-41.790001,1729421802400.0,0.0
-4.218546,-7.532606,4.161119,118.090004,15.54,-43.119999,1729421802420.0,0.0
-3.553342,-8.025528,5.024928,99.330002,14.7,-52.849998,1729421802440.0,0.0
-4.345366,-6.096912,5.745167,76.510002,22.4,-40.25,1729421802460.0,0.0
-4.304688,-5.675776,6.84108,42.560001,14.63,-29.960001,1729421802485.0,0.0
-3.661019,-7.185646,6.223732,-7.77,-15.68,-39.060001,1729421802501.0,0.0
-3.366701,-8.157133,5.84088,-5.46,-22.540001,-38.43,1729421802522.0,0.0
-3.448057,-7.056434,5.943772,23.59,-10.15,-22.960001,1729421802541.0,0.0
-3.790231,-5.946165,6.106483,7.07,-8.82,-16.1,1729421802561.0,0.0
-4.199404,-6.45105,4.4339,-38.57,-17.99,-14.49,1729421802584.0,0.0
-3.567699,-10.131211,4.015156,-34.369999,-31.360001,-22.049999,1729421802600.0,0.0
-3.440879,-8.441878,4.268795,12.39,-2.24,-8.4,1729421802619.0,0.0
-4.21376,-5.587241,4.689932,22.26,19.110001,1.96,1729421802640.0,0.0
-4.125226,-5.06082,4.847858,-29.889999,16.030001,0.21,1729421802660.0,0.0
-3.620341,-4.546363,3.024528,-105.910004,14.49,-5.18,1729421802681.0,0.0
-5.000999,-6.324231,3.510271,-139.089996,4.69,12.53,1729421802700.0,0.0
-4.027121,-8.102098,4.584648,-117.459999,-15.190001,-9.24,1729421802720.0,0.0
-3.196811,-8.504091,5.079963,-83.090004,-10.5,-1.82,1729421802739.0,0.0
-2.914458,-8.044669,4.838287,-53.619999,9.94,6.93,1729421802760.0,0.0
-2.605784,-6.463014,5.053641,-80.989998,23.799999,13.3,1729421802782.0,0.0
-1.971686,-5.69731,3.617948,-135.660004,25.34,19.32,1729421802800.0,0.0
-4.082155,-6.125626,2.916851,-169.470001,19.110001,13.02,1729421802819.0,0.0
-5.716454,-8.650054,3.282953,-138.039993,-2.59,19.809999,1729421802840.0,0.0
-5.051248,-10.329816,2.37368,-103.809998,0.07,6.65,1729421802859.0,0.0
-4.460221,-9.88475,2.952743,-89.459999,15.68,4.27,1729421802882.0,0.0
-4.197011,-8.487342,2.208575,-86.449997,9.66,9.31,1729421802899.0,0.0
-4.666004,-9.678967,1.002593,-86.239998,26.460001,6.3,1729421802919.0,0.0
-4.792823,-11.078769,1.600798,-109.480003,-5.74,-22.4,1729421802939.0,0.0
-3.692125,-10.530812,-0.062213,-87.080002,-13.440001,-14.77,1729421802960.0,0.0
-3.299703,-8.633304,0.07657,-44.799999,8.96,0.07,1729421802982.0,0.0
-3.871587,-8.501699,0.55992,-22.190001,15.61,0.7,1729421802999.0,0.0
-4.845466,-9.60479,1.509871,-42.700001,5.81,-9.45,1729421803019.0,0.0
-3.778267,-9.932607,0.705883,-61.389999,-38.5,-19.950001,1729421803039.0,0.0
-2.490928,-9.116654,-0.76331,-67.199997,-30.52,-13.93,1729421803060.0,0.0
-1.842474,-8.391629,-0.581456,-68.18,-1.82,-5.95,1729421803082.0,0.0
-2.600998,-8.941978,-0.732204,-92.050003,-3.15,-8.82,1729421803099.0,0.0
-2.921637,-7.905886,-3.105884,-107.449997,9.94,-10.57,1729421803119.0,0.0
-3.696911,-6.740582,-1.497907,-102.480003,31.01,9.03,1729421803139.0,0.0
-5.288138,-5.941379,-1.119841,-141.119995,21.84,13.58,1729421803159.0,0.0
-5.699703,-8.023134,-4.512863,-179.270004,27.93,-3.43,1729421803182.0,0.0
-5.07757,-8.882158,-5.441278,-181.020004,-7.0,-11.62,1729421803199.0,0.0
-3.881158,-8.834301,-4.54397,-162.75,-21.629999,-12.95,1729421803219.0,0.0
-3.335595,-9.097511,-4.589434,-137.690002,-19.809999,-19.32,1729421803240.0,0.0
-3.900301,-8.298308,-4.364508,-117.389999,-9.31,-9.87,1729421803260.0,0.0
-4.558327,-8.202596,-4.926822,-120.050003,-2.87,-9.24,1729421803285.0,0.0
-4.462614,-8.01117,-6.582655,-98.419998,-9.87,-10.36,1729421803300.0,0.0
-4.601398,-8.403593,-8.252845,-35.0,5.25,-15.12,1729421803320.0,0.0
-5.845665,-8.65484,-5.883951,16.24,7.63,-11.06,1729421803340.0,0.0
-4.548756,-8.070991,-3.74716,26.110001,-41.860001,5.04,1729421803361.0,0.0
-3.323631,-7.049256,-4.254438,27.370001,-43.330002,-1.33,1729421803385.0,0.0
-3.014957,-7.319644,-6.118448,37.240002,-30.380001,-5.25,1729421803400.0,0.0
-3.404987,-7.982457,-4.881358,31.5,1.54,-6.3,1729421803421.0,0.0
-4.106083,-8.736196,-3.218346,9.24,35.84,-15.89,1729421803440.0,0.0
-4.553542,-9.288938,-4.460221,16.799999,18.76,-22.469999,1729421803460.0,0.0
-3.89073,-7.802995,-4.254438,24.08,-9.45,-13.86,1729421803482.0,0.0
-3.548556,-7.625926,-2.667997,13.51,-30.59,-2.03,1729421803502.0,0.0
-2.490928,-7.582855,-3.744767,-26.880001,-57.82,-19.67,1729421803520.0,0.0
-2.445465,-8.68116,-4.027121,-42.07,-55.790001,-16.59,1729421803540.0,0.0
-2.928815,-7.235896,-5.383851,-57.75,-21.559999,-6.09,1729421803561.0,0.0
-3.304488,-7.733603,-8.015956,-53.900002,7.91,-20.860001,1729421803581.0,0.0
-3.445665,-7.743174,-7.178468,-60.970001,21.07,-14.91,1729421803600.0,0.0
-3.036492,-7.424929,-4.809574,-86.169998,22.33,-8.61,1729421803621.0,0.0
-2.825923,-6.979864,-4.436293,-98.489998,10.22,-7.14,1729421803640.0,0.0
-2.682354,-6.922436,-5.520242,-81.760002,-6.51,-8.75,1729421803661.0,0.0
-2.888137,-7.252645,-5.242674,-71.470001,-8.54,-7.07,1729421803682.0,0.0
-3.069991,-7.910671,-5.142176,-88.550003,0.91,-10.99,1729421803699.0,0.0
-3.529413,-9.320045,-3.299703,-99.540001,-7.21,-20.299999,1729421803720.0,0.0
-4.046263,-9.025726,-4.254438,-99.120003,-28.630001,-22.26,1729421803741.0,0.0
-3.321238,-8.958728,-7.357929,-65.940002,-58.380001,-36.82,1729421803760.0,0.0
-2.533999,-7.65464,-8.602197,-74.620003,-69.440002,-42.91,1729421803793.0,0.0
-2.428715,-4.814359,-4.455436,-106.190002,-38.5,-25.059999,1729421803800.0,0.0
-2.517249,-4.831109,-11.143374,-111.860001,-1.89,-31.99,1729421803820.0,0.0
-3.256632,-5.257031,-11.392227,-110.110001,5.18,-29.889999,1729421803839.0,0.0
-3.627519,-4.472186,-7.752745,-150.289993,44.939999,-21.84,1729421803861.0,0.0
-3.828516,-4.986642,-7.257431,-169.050003,38.360001,-31.08,1729421803882.0,0.0
-3.608376,-5.587241,-7.740781,-180.809998,-0.91,-37.73,1729421803899.0,0.0
-3.091527,-5.955735,-7.515855,-167.649994,-25.969999,-40.950001,1729421803920.0,0.0
-3.237489,-6.798009,-6.9344,-91.349998,-23.940001,-33.950001,1729421803939.0,0.0
-3.404987,-6.362515,-8.618947,1.33,-10.15,-19.460001,1729421803962.0,0.0
-3.809374,-3.768696,-8.755339,48.509998,-4.48,1.96,1729421803984.0,0.0
-4.15394,0.055035,-8.997013,3.43,-1.54,7.56,1729421804000.0,0.0
-4.608576,-0.047856,-8.762517,-61.740002,4.27,24.5,1729421804020.0,0.0
-3.850052,-3.388237,-9.341579,-92.540001,-4.06,16.1,1729421804040.0,0.0
-3.180061,-5.484349,-7.582855,-79.660004,-21.84,12.95,1729421804060.0,0.0
-2.648855,-5.309673,-7.609176,-57.889999,-26.74,9.03,1729421804080.0,0.0
-2.26361,-4.500899,-6.690332,-44.310001,-27.440001,7.49,1729421804100.0,0.0
-2.615355,-3.811767,-9.107083,-36.75,-24.92,1.26,1729421804120.0,0.0
-3.720839,-3.548556,-10.760524,-31.57,-4.06,9.1,1729421804141.0,0.0
-4.469792,-4.740182,-8.188239,-33.459999,30.52,11.06,1729421804160.0,0.0
-3.981657,-4.630112,-6.733403,-20.790001,26.32,15.05,1729421804192.0,0.0
-4.012764,-4.139583,-9.308081,45.709999,-13.37,28.700001,1729421804200.0,0.0
-3.9338,-2.813959,-11.050055,94.080002,-15.96,32.200001,1729421804220.0,0.0
-4.220939,-1.584049,-9.23151,61.740002,21.49,37.450001,1729421804240.0,0.0
-4.625326,-2.191825,-8.874979,-12.81,31.710001,26.110001,1729421804261.0,0.0
-4.005585,-4.283153,-10.920842,-28.07,-19.18,14.7,1729421804281.0,0.0
-3.108276,-4.981857,-11.724831,26.25,-42.630001,24.5,1729421804300.0,0.0
-2.725425,-7.298109,-9.308081,83.580002,-33.389999,17.219999,1729421804320.0,0.0
-2.038685,-5.419744,-1.919044,41.580002,-12.53,-15.26,1729421804340.0,0.0
-3.416951,-3.692125,-5.422136,20.440001,8.26,-8.68,1729421804361.0,0.0
-4.199404,-6.659225,-12.406786,115.080002,0.07,-28.280001,1729421804385.0,0.0
-4.948357,-5.812167,-10.382458,155.960007,15.190001,10.57,1729421804400.0,0.0
-5.151747,-4.699504,-8.372486,207.130005,21.35,29.960001,1729421804486.0,0.0
-4.977071,-4.771288,-9.389436,264.73999,7.35,32.689999,1729421804489.0,0.0
-4.266403,-6.369694,-12.483356,349.369995,-4.27,41.23,1729421804490.0,0.0
-3.407379,-6.553941,-11.8349,399.700012,-3.15,38.009998,1729421804490.0,0.0
-2.969493,-5.07757,-6.740582,373.869995,55.860001,25.34,1729421804500.0,0.0
-3.433701,-6.096912,-4.735396,340.480011,99.959999,15.54,1729421804520.0,0.0
-3.529413,-7.389036,-6.477371,318.220001,103.25,-2.87,1729421804540.0,0.0
-3.850052,-8.977871,-4.529613,303.170013,87.220001,-0.63,1729421804560.0,0.0
-5.398208,-10.260423,-2.07697,285.25,41.509998,-22.049999,1729421804582.0,0.0
-2.701497,-8.013563,-1.402194,351.119995,-9.1,-32.549999,1729421804601.0,0.0
-2.837888,-5.273781,1.959722,373.660004,14.7,-15.12,1729421804620.0,0.0
-3.323631,-5.316852,2.63689,341.670013,11.69,-17.780001,1729421804641.0,0.0
-4.68754,-7.204789,0.514457,250.600006,14.7,-46.130001,1729421804661.0,0.0
-5.084748,-8.451449,-0.454636,184.169998,15.89,-39.689999,1729421804692.0,0.0
-4.737789,-6.419943,1.866402,138.669998,8.4,-18.690001,1729421804701.0,0.0
-3.651447,-6.733403,2.778067,111.160004,-9.31,-16.66,1729421804720.0,0.0
-2.842674,-7.164111,4.62054,86.519997,-9.73,-6.02,1729421804741.0,0.0
-2.39043,-8.903693,5.76431,53.200001,-19.040001,-3.22,1729421804761.0,0.0
-1.768296,-9.652647,5.848059,9.66,-31.01,-10.29,1729421804782.0,0.0
1.514657,-5.678168,3.804588,-39.900002,-33.459999,4.55,1729421804800.0,0.0
0.284746,-5.520242,2.455036,-45.709999,4.34,37.66,1729421804821.0,0.0
-2.660819,-7.379465,4.010371,-94.5,7.21,25.27,1729421804841.0,0.0
-4.010371,-9.84168,0.756132,-193.759995,7.07,23.309999,1729421804862.0,0.0
-3.105884,-9.824929,0.550349,-255.360001,-21.42,27.23,1729421804885.0,0.0
-2.924029,-10.607382,1.205983,-273.350006,-37.869999,28.84,1729421804902.0,0.0
-3.742374,-11.313265,2.612962,-288.75,-36.259998,9.24,1729421804922.0,0.0
-4.754539,-9.671788,0.519243,-293.440002,-1.26,8.54,1729421804942.0,0.0
-4.82393,-7.185646,-0.78006,-304.429993,31.15,-3.5,1729421804962.0,0.0
-4.441079,-6.056234,-1.816152,-358.820007,-1.82,-25.969999,1729421804983.0,0.0
-4.326223,-7.963314,-5.455636,-428.190002,-29.889999,-37.380001,1729421805002.0,0.0
-5.235496,-10.04507,-3.723232,-444.080017,-55.02,-57.119999,1729421805022.0,0.0
-5.350351,-11.959327,-3.538985,-345.589996,-93.099998,-53.900002,1729421805042.0,0.0
-3.694518,-5.941379,-4.012764,-264.73999,-39.41,-26.25,1729421805062.0,0.0
-3.022135,-4.146761,-6.54437,-216.300003,13.37,-29.889999,1729421805083.0,0.0
-3.534199,-2.952743,-9.674182,-206.990005,14.35,-20.719999,1729421805101.0,0.0
-4.508078,-3.804588,-11.657832,-202.229996,-15.33,3.78,1729421805122.0,0.0
-3.919443,-4.766503,-8.779266,-191.449997,-50.68,10.29,1729421805142.0,0.0
-2.782853,-7.099504,-8.989835,-179.059998,-42.279999,10.22,1729421805162.0,0.0
-1.974079,-7.32443,-5.79781,-161.559998,-60.48,2.52,1729421805187.0,0.0
-1.507478,-4.474578,-8.733803,-148.889999,-59.290001,-20.299999,1729421805201.0,0.0
-2.490928,-3.364309,-8.82473,-122.080002,-25.129999,-4.13,1729421805221.0,0.0
-4.055835,-4.965107,-10.114462,-86.239998,15.54,2.87,1729421805242.0,0.0
-5.024928,-5.015356,-10.841879,-41.16,30.030001,5.81,1729421805261.0,0.0
-5.307281,-4.699504,-11.24866,32.549999,13.51,17.85,1729421805283.0,0.0
-4.34058,-2.730211,-9.887143,62.650002,-8.26,26.460001,1729421805302.0,0.0
-3.562913,-1.284946,-8.365308,38.150002,-15.89,33.599998,1729421805321.0,0.0
-3.15374,-1.148555,-10.399208,-1.47,-17.85,27.440001,1729421805342.0,0.0
-3.218346,-3.739982,-12.602997,-2.52,-14.84,26.6,1729421805362.0,0.0
-3.132205,-5.099105,-7.118648,13.79,-3.22,22.960001,1729421805386.0,0.0
-4.354938,-7.597212,0.045464,24.01,8.75,17.710001,1729421805401.0,0.0
-4.240082,-6.599405,-7.735995,31.43,17.639999,-26.950001,1729421805422.0,0.0
-4.67079,-5.678168,-13.136597,122.290001,-20.09,-26.809999,1729421805441.0,0.0
-4.804788,-2.383251,-8.477771,155.259995,-2.45,24.710001,1729421805462.0,0.0
-5.35753,-1.959722,-6.515656,146.860001,5.46,31.780001,1729421805484.0,0.0
-5.369494,-4.618148,-7.9681,157.360001,11.13,22.469999,1729421805502.0,0.0
-4.682754,-5.869594,-13.414164,183.050003,-5.88,17.639999,1729421805521.0,0.0
-3.180061,-6.175875,-7.673782,240.309998,8.26,19.74,1729421805542.0,0.0
-3.84048,-6.884151,-5.443672,287.700012,34.439999,24.01,1729421805562.0,0.0
-3.871587,-6.15434,-8.662018,319.130005,57.189999,-2.03,1729421805583.0,0.0
-4.943572,-5.4341,-9.075976,330.190002,83.300003,6.86,1729421805602.0,0.0
-4.814359,-6.099305,-4.785645,298.690002,102.620003,5.18,1729421805622.0,0.0
-5.008178,-7.822137,-2.912065,260.820007,72.309998,6.37,1729421805642.0,0.0
-3.981657,-9.41815,-4.725825,263.549988,15.54,-9.94,1729421805663.0,0.0
-3.515057,-8.279166,-3.732803,261.869995,22.82,-14.35,1729421805682.0,0.0
-4.723432,-7.925028,-2.273181,266.140015,43.049999,-15.54,1729421805701.0,0.0
-4.888536,-6.673582,-0.746561,259.209991,22.26,-34.439999,1729421805722.0,0.0
-5.024928,-6.699903,1.304088,239.190002,16.24,-10.92,1729421805741.0,0.0
-4.785645,-6.168696,1.9669,180.039993,13.3,-14.84,1729421805761.0,0.0
-4.658825,-8.11167,2.321038,128.100006,-33.810001,-31.43,1729421805785.0,0.0
-2.880959,-9.865608,0.122034,92.959999,-64.330002,-33.670002,1729421805801.0,0.0
-1.945365,-11.782259,1.524228,109.059998,-56.700001,-3.29,1729421805821.0,0.0
-1.447658,-10.631311,1.682154,95.690002,-42.560001,-8.61,1729421805842.0,0.0
0.835095,-4.721039,0.485743,74.129997,-0.56,8.12,1729421805861.0,0.0
-1.098306,-5.606383,1.765903,-46.060001,26.809999,8.47,1729421805883.0,0.0
-1.663012,-5.65424,0.693919,-166.809998,-14.21,2.1,1729421805901.0,0.0
-2.045863,-8.62134,-0.949951,-225.75,-0.21,26.110001,1729421805921.0,0.0
-2.809174,-11.284552,-1.706082,-279.160004,4.13,1.96,1729421805941.0,0.0
-3.84048,-13.524234,-1.332802,-317.869995,-11.41,-15.54,1729421805962.0,0.0
-4.632504,-14.175081,0.181855,-310.029999,-22.610001,-12.88,1729421805984.0,0.0
-4.058227,-10.619347,-0.33021,-311.360016,-18.059999,-32.549999,1729421806002.0,0.0
-4.211368,-8.606983,-1.490728,-313.670013,-15.47,-55.16,1729421806021.0,0.0
-3.864408,-8.003991,-4.089334,-300.440002,-29.889999,-66.779999,1729421806041.0,0.0
-3.768696,-7.491928,-3.52702,-265.860016,-53.27,-58.380001,1729421806061.0,0.0
-3.584448,-6.515656,-4.878965,-249.619995,-36.68,-49.349998,1729421806083.0,0.0
-4.529613,-8.267202,-3.378666,-240.309998,-30.1,-51.240002,1729421806101.0,0.0
-4.838287,-8.437093,-4.881358,-233.520004,-36.470001,-54.950001,1729421806121.0,0.0
-3.175276,-6.726225,-6.484549,-175.490005,-38.990002,-35.560001,1729421806142.0,0.0
-2.26361,-3.945765,-7.453642,-143.220001,-29.26,-16.030001,1729421806162.0,0.0
-3.407379,-3.352344,-8.49452,-142.869995,-12.67,0.42,1729421806183.0,0.0
-4.400401,-2.749353,-10.265208,-148.470001,-12.25,1.96,1729421806201.0,0.0
-3.85723,-4.268795,-10.705488,-126.349998,-12.04,16.030001,1729421806221.0,0.0
-3.098706,-4.510471,-9.870394,-119.770004,-45.150002,16.450001,1729421806242.0,0.0
-2.313859,-3.969693,-9.12144,-119.629997,-46.130001,17.57,1729421806261.0,0.0
-1.974079,-4.005585,-8.561519,-121.940002,-42.700001,5.88,1729421806284.0,0.0
-2.112862,-4.366901,-8.391629,-135.309998,-36.330002,-5.88,1729421806301.0,0.0
-2.423929,-5.216353,-10.329816,-121.309998,-22.469999,-9.24,1729421806321.0,0.0
-2.785245,-4.692325,-9.298509,-70.139999,-13.79,-5.95,1729421806342.0,0.0
-3.074777,-3.306881,-9.422935,-26.67,-0.77,4.97,1729421806361.0,0.0
-3.364309,-3.134598,-10.451849,31.5,5.6,18.34,1729421806386.0,0.0
-3.428915,-2.608176,-10.174281,73.639999,12.11,36.470001,1729421806401.0,0.0
-3.711268,-2.701497,-9.765109,65.590004,11.97,33.18,1729421806422.0,0.0
-3.74716,-4.699504,-9.183653,12.95,22.4,9.66,1729421806441.0,0.0
-3.814159,-5.551349,-8.152347,-19.040001,16.450001,-9.52,1729421806461.0,0.0
-4.244867,-5.962914,-4.804788,-14.14,14.56,-14.77,1729421806482.0,0.0
-4.527221,-4.807181,-6.549156,-14.0,15.68,-30.17,1729421806508.0,0.0
-4.627719,-5.28096,-11.404193,36.959999,-11.34,-29.889999,1729421806522.0,0.0
-3.694518,-2.689533,-9.509077,49.209999,-30.24,-17.5,1729421806541.0,0.0
-3.359523,-3.321238,-8.470592,21.98,-25.620001,-28.700001,1729421806562.0,0.0
-3.046063,-4.027121,-9.284152,7.56,-20.440001,-36.119999,1729421806585.0,0.0
-2.756532,-3.177669,-9.547362,17.710001,-19.809999,-31.639999,1729421806602.0,0.0
-2.364109,-2.021935,-8.11167,16.17,-16.379999,-33.110001,1729421806622.0,0.0
-2.876173,-3.469593,-8.793623,8.82,3.92,-25.27,1729421806641.0,0.0
-3.151347,-4.220939,-9.743573,35.700001,9.38,-19.6,1729421806662.0,0.0
-3.168097,-2.29711,-9.181261,88.830002,22.82,-0.56,1729421806685.0,0.0
-3.936193,-0.844666,-6.867401,117.949997,23.450001,15.05,1729421806702.0,0.0
-4.34058,-0.246461,-7.865208,57.189999,32.900002,16.59,1729421806721.0,0.0
-4.61097,-3.041277,-8.549555,2.66,31.15,24.85,1729421806742.0,0.0
-3.842873,-5.020142,-8.398808,-1.12,9.8,23.52,1729421806762.0,0.0
-3.409772,-6.302694,-6.958328,43.75,-7.91,33.880001,1729421806786.0,0.0
-2.739782,-6.161518,-9.219545,65.590004,-11.62,11.62,1729421806803.0,0.0
-2.924029,-5.032106,-8.422735,41.02,-3.85,16.59,1729421806822.0,0.0
-2.842674,-2.852244,-7.042077,19.32,7.42,14.14,1729421806844.0,0.0
-3.888337,-3.37388,-7.223931,4.27,19.389999,20.51,1729421806863.0,0.0
-4.699504,-5.230711,-8.551948,-19.040001,28.280001,11.83,1729421806884.0,0.0
-4.74736,-6.496514,-7.814958,-38.220001,8.12,4.2,1729421806902.0,0.0
-4.208975,-6.348158,-7.695317,-31.290001,-23.66,0.84,1729421806923.0,0.0
-3.799802,-5.752346,-7.958528,3.29,-42.84,-1.68,1729421806943.0,0.0
-3.460021,-4.780859,-8.157133,39.27,-26.530001,-1.68,1729421806963.0,0.0
-3.87398,-4.453043,-8.484949,52.990002,-4.76,3.85,1729421806985.0,0.0
-4.244867,-4.974678,-8.008778,43.400002,11.06,2.94,1729421807003.0,0.0
-4.187439,-5.245068,-7.415358,21.700001,7.35,2.24,1729421807022.0,0.0
-3.735196,-5.668597,-7.549356,17.780001,-13.86,-1.26,1729421807043.0,0.0
-3.290131,-5.266603,-8.226524,32.060001,-22.540001,-1.61,1729421807063.0,0.0
-3.335595,-4.725825,-8.35813,54.32,-12.67,-1.4,1729421807084.0,0.0
-3.888337,-6.032306,-6.874579,66.010002,19.460001,-3.29,1729421807103.0,0.0
-4.141976,-5.893522,-6.484549,32.130001,36.959999,-14.35,1729421807123.0,0.0
-4.225725,-7.034898,-8.051848,23.59,13.51,-10.99,1729421807143.0,0.0
-3.177669,-5.87438,-7.202396,36.889999,-24.92,-8.26,1729421807163.0,0.0
-2.878566,-5.737988,-7.735995,56.139999,-20.51,-3.29,1729421807185.0,0.0
-3.101098,-6.575477,-7.312466,69.93,4.76,1.82,1729421807203.0,0.0
-3.596412,-7.255038,-6.080163,95.269997,34.23,5.25,1729421807228.0,0.0
-4.019942,-7.188039,-5.9342,108.43,34.299999,3.22,1729421807243.0,0.0
-3.852444,-5.965307,-6.948757,92.190002,12.88,4.97,1729421807263.0,0.0
-3.582055,-6.977471,-7.683353,86.169998,-6.23,9.59,1729421807285.0,0.0
-2.959922,-8.078169,-7.118648,105.279999,-12.53,12.11,1729421807302.0,0.0
-2.445465,-8.228917,-5.551349,136.919998,-6.09,12.81,1729421807322.0,0.0
-2.569891,-7.441679,-4.785645,154.699997,9.73,12.95,1729421807343.0,0.0
-2.785245,-6.4343,-5.309673,153.930008,23.030001,5.39,1729421807363.0,0.0
-3.976871,-7.618747,-2.476572,147.770004,22.120001,14.7,1729421807387.0,0.0
-4.316652,-9.487542,-3.17049,147.979996,-5.6,10.78,1729421807403.0,0.0
-4.017549,-8.901299,-3.259024,133.490005,-29.889999,8.47,1729421807422.0,0.0
-3.862016,-8.518449,-3.445665,128.449997,-18.129999,10.29,1729421807443.0,0.0
-4.802395,-9.425328,-2.294717,143.360001,-26.32,13.23,1729421807463.0,0.0
-4.421937,-9.475577,-2.347359,185.149994,-33.810001,14.42,1729421807487.0,0.0
-4.965107,-8.652447,-0.567099,183.050003,4.83,7.91,1729421807504.0,0.0
-5.417351,-9.513863,-1.777867,195.300003,-0.56,12.74,1729421807524.0,0.0
-5.656632,-9.872787,-0.148355,213.779999,3.29,3.5,1729421807542.0,0.0
-5.4676,-9.281759,-0.251246,206.360001,7.0,-0.56,1729421807562.0,0.0
-5.431707,-7.82453,0.658026,194.389999,11.62,-10.36,1729421807584.0,0.0
-4.65404,-7.898707,0.734596,204.610001,3.99,-11.13,1729421807602.0,0.0
-4.048656,-8.38445,0.76331,205.800003,12.04,-16.450001,1729421807622.0,0.0
-4.962714,-7.319644,1.359123,207.619995,24.5,-21.280001,1729421807642.0,0.0
-5.673382,-7.278966,2.931208,225.050003,27.299999,-21.07,1729421807663.0,0.0
-4.603791,-7.73121,3.213561,184.520004,35.700001,-28.280001,1729421807685.0,0.0
-3.354738,-7.499106,4.41715,101.919998,30.24,-31.710001,1729421807703.0,0.0
-3.876373,-8.090133,5.819345,13.09,17.01,-33.18,1729421807722.0,0.0
-4.019942,-8.724231,3.720839,-25.129999,-3.43,-29.82,1729421807743.0,0.0
-3.859623,-8.793623,4.922036,5.46,-4.27,-24.710001,1729421807763.0,0.0
-3.165704,-7.448857,4.412365,43.049999,1.26,-29.82,1729421807783.0,0.0
-3.519842,-6.075377,4.852644,63.560001,12.53,-16.73,1729421807802.0,0.0
-4.259224,-8.327023,4.218546,12.46,-9.73,-29.540001,1729421807823.0,0.0
-3.579663,-9.726824,3.716053,6.3,-6.79,-34.23,1729421807843.0,0.0
-3.036492,-8.626125,4.228118,27.93,12.18,-38.290001,1729421807862.0,0.0
-3.148954,-6.096912,5.644669,21.139999,21.91,-28.210001,1729421807884.0,0.0
-3.316452,-6.199803,5.008178,-53.760002,14.21,-27.65,1729421807901.0,0.0
-2.761317,-6.412765,4.311867,-152.039993,3.01,-28.210001,1729421807923.0,0.0
-2.452643,-6.135197,4.505685,-218.610001,0.21,-10.57,1729421807942.0,0.0
-2.225325,-6.013163,1.787439,-289.869995,14.42,-8.33,1729421807963.0,0.0
-2.088934,-6.324231,-1.198804,-361.059998,28.07,-16.52,1729421807985.0,0.0
-2.522035,-6.06102,-2.536392,-444.5,29.26,-28.35,1729421808003.0,0.0
-3.385844,-7.893922,-3.328416,-501.619995,12.6,-30.52,1729421808022.0,0.0
-4.328616,-12.952348,-6.740582,-496.720001,-29.049999,-46.759998,1729421808042.0,0.0
-2.285146,-10.533205,-6.070591,-379.890015,-52.709999,-28.77,1729421808064.0,0.0
-2.112862,-10.597812,-5.754738,-249.690002,-17.780001,-21.700001,1729421808085.0,0.0
-3.148954,-11.526227,-6.644868,-141.050003,-10.08,-27.860001,1729421808102.0,0.0
-3.462414,-9.781858,-4.713861,-58.240002,5.6,-17.99,1729421808122.0,0.0
-3.45045,-10.930414,-4.761717,28.210001,-4.9,-13.16,1729421808142.0,0.0
-2.074577,-9.559326,-5.199604,168.630005,-8.75,4.69,1729421808163.0,0.0
-2.550749,-7.111469,-3.689733,167.160004,25.969999,1.47,1729421808184.0,0.0
-3.314059,-8.248059,-3.565305,131.039993,22.469999,-4.48,1729421808202.0,0.0
-3.37388,-9.403792,-3.830909,103.949997,-17.219999,2.8,1729421808222.0,0.0
-1.935793,-9.879964,-3.89073,144.199997,-38.849998,9.1,1729421808242.0,0.0
-1.213161,-8.391629,-2.122434,193.199997,-12.6,8.96,1729421808262.0,0.0
-1.696511,-8.389235,-0.930808,196.559998,10.15,2.24,1729421808283.0,0.0
-2.677568,-7.73121,-0.284746,140.910004,6.58,-2.17,1729421808302.0,0.0
-3.649055,-8.896514,0.514457,95.129997,-5.46,7.91,1729421808321.0,0.0
-3.493521,-7.9346,-0.172283,67.269997,-14.21,13.72,1729421808344.0,0.0
-3.972085,-6.752545,2.074577,9.31,3.43,5.32,1729421808362.0,0.0
-5.546563,-7.049256,0.256032,-97.93,5.88,12.74,1729421808388.0,0.0
-5.082355,-7.209574,-1.701297,-184.589996,-5.46,-10.99,1729421808402.0,0.0
-4.644469,-7.60439,-1.351945,-240.520004,-44.799999,-10.01,1729421808422.0,0.0
-3.440879,-7.788638,-3.98405,-261.380005,-60.130001,-2.8,1729421808442.0,0.0
-2.847459,-7.525427,-5.515456,-241.220001,-47.880001,-6.16,1729421808462.0,0.0
-3.034099,-5.551349,-5.67099,-207.830002,-33.880001,-1.96,1729421808484.0,0.0
-3.493521,-6.338587,-7.539784,-209.580002,-8.75,-6.23,1729421808502.0,0.0
-3.550949,-5.761917,-8.30788,-237.229996,-20.23,-16.24,1729421808522.0,0.0
-2.864209,-4.295116,-10.427922,-256.410004,-27.299999,-10.36,1729421808550.0,0.0
-3.213561,-7.460821,-8.891729,-264.73999,-51.310001,-15.26,1729421808563.0,0.0
-3.536592,-8.563912,-7.257431,-262.01001,-49.91,-28.42,1729421808585.0,0.0
-3.656233,-6.585048,-8.075776,-227.430008,-25.34,-39.549999,1729421808602.0,0.0
-4.177868,-5.448457,-9.243474,-167.020004,-39.970001,-39.970001,1729421808623.0,0.0
-3.48395,-4.086941,-10.253245,-134.259995,-64.68,-22.049999,1729421808642.0,0.0
-3.09392,-4.07737,-8.714661,-118.020004,-50.330002,-11.34,1729421808662.0,0.0
-2.914458,-3.333202,-9.006584,-108.919998,-27.860001,-7.35,1729421808684.0,0.0
-3.393023,-4.283153,-9.820145,-45.290001,-9.45,3.29,1729421808702.0,0.0
-3.59402,-2.354537,-9.315259,-13.65,8.12,3.01,1729421808723.0,0.0
-3.914658,-0.887737,-10.686346,-29.82,8.68,12.67,1729421808742.0,0.0
-4.010371,-2.019542,-9.647861,-59.010002,1.12,17.43,1729421808763.0,0.0
-4.520042,-4.740182,-5.213961,-77.629997,3.22,10.99,1729421808785.0,0.0
-4.699504,-4.663611,-10.265208,-89.459999,5.53,-10.92,1729421808803.0,0.0
-4.31426,-4.122833,-9.832108,-68.459999,-26.6,1.61,1729421808823.0,0.0
-3.625126,-3.85723,-8.420342,-52.990002,-32.689999,16.59,1729421808843.0,0.0
-3.871587,-5.06082,-9.298509,-29.049999,-21.280001,13.37,1729421808863.0,0.0
-4.252046,-5.249853,-10.585848,29.889999,11.69,15.05,1729421808884.0,0.0
-4.496114,-4.074977,-10.789237,74.550003,29.190001,16.379999,1729421808904.0,0.0
-3.854837,-2.474179,-9.573684,71.190002,25.48,14.07,1729421808924.0,0.0
-3.661019,-1.849652,-10.537991,65.870003,7.56,25.9,1729421808944.0,0.0
-3.306881,-2.519642,-10.80838,66.150002,-10.64,11.2,1729421808965.0,0.0
-3.608376,-8.437093,-4.986642,99.400002,9.94,12.67,1729421808985.0,0.0
-3.335595,-4.082155,0.62692,34.93,5.88,-10.71,1729421809004.0,0.0
-4.194618,-2.971886,-10.674382,59.709999,-2.52,-15.82,1729421809025.0,0.0
-5.235496,-5.151747,-9.540184,85.610001,-7.91,-10.08,1729421809044.0,0.0
-5.582455,-6.407979,-7.422535,98.419998,35.209999,23.799999,1729421809065.0,0.0
-5.410172,-4.948357,-8.539984,206.990005,-11.13,33.529999,1729421809088.0,0.0
-4.539185,-5.125426,-11.63869,254.940002,-28.630001,39.130001,1729421809104.0,0.0
-3.61077,-4.974678,-9.52822,284.829987,-29.469999,49.84,1729421809124.0,0.0
-3.591627,-6.252446,-8.829515,313.809998,12.95,53.900002,1729421809145.0,0.0
-4.118048,-4.426722,-7.685746,344.820007,66.919998,39.619999,1729421809164.0,0.0
-4.735396,-5.448457,-6.678369,334.25,104.650002,33.32,1729421809186.0,0.0
-4.895715,-7.381857,-5.441278,259.140015,87.360001,23.66,1729421809204.0,0.0
-5.611169,-10.413565,-2.352145,231.279999,55.650002,23.24,1729421809224.0,0.0
-3.907479,-9.068797,-5.326423,265.160004,-4.2,-5.11,1729421809244.0,0.0
-3.9338,-7.190433,-2.28036,284.059998,32.060001,5.74,1729421809268.0,0.0
-5.197211,-8.166703,-1.112662,242.339996,41.650002,-31.08,1729421809285.0,0.0
-4.792823,-7.977671,0.378066,244.509995,-26.25,-53.200001,1729421809304.0,0.0
-2.878566,-6.003592,0.445065,265.230011,6.16,-6.16,1729421809325.0,0.0
-3.072384,-6.029913,0.27996,218.540009,27.09,-18.27,1729421809344.0,0.0
-4.335794,-8.865408,0.543171,171.009995,-1.33,-36.049999,1729421809364.0,0.0
-4.424329,-10.346564,-0.574277,153.649994,0.84,-31.57,1729421809391.0,0.0
-3.168097,-9.597611,2.368894,181.369995,-0.56,-22.610001,1729421809403.0,0.0
-0.318245,-5.809773,4.890929,211.050003,-16.030001,-13.02,1729421809477.0,0.0
-0.069392,-2.876173,5.015356,149.309998,16.17,16.030001,1729421809478.0,0.0
-2.751746,-4.438686,3.847659,19.389999,25.129999,22.33,1729421809478.0,0.0
-5.13739,-8.075776,1.258625,-108.360001,-25.200001,14.21,1729421809487.0,0.0
-3.314059,-10.212566,1.674976,-124.040001,-73.290001,10.15,1729421809508.0,0.0
-1.48355,-11.442478,3.29731,-118.93,-54.110001,20.23,1729421809523.0,0.0
-2.261217,-10.681561,2.725425,-154.350006,-31.639999,5.88,1729421809544.0,0.0
-4.517649,-10.856236,3.806981,-184.240005,-17.15,-11.2,1729421809564.0,0.0
-4.613362,-10.004392,2.28036,-200.550003,-22.120001,-16.870001,1729421809586.0,0.0
-4.182654,-9.207582,1.782653,-191.309998,-37.450001,-9.94,1729421809604.0,0.0
-4.400401,-8.635696,2.031506,-209.369995,-33.810001,-15.33,1729421809624.0,0.0
-4.84068,-8.154739,1.201197,-231.070007,-31.57,-18.27,1729421809643.0,0.0
-4.701896,-8.169096,0.22014,-238.699997,-24.85,-14.49,1729421809664.0,0.0
-4.441079,-7.867601,-0.332602,-273.350006,-27.299999,-21.77,1729421809685.0,0.0
-4.419543,-8.365308,-1.328017,-314.299988,-36.189999,-30.450001,1729421809704.0,0.0
-4.149154,-9.080762,-3.775874,-330.610016,-43.889999,-39.549999,1729421809723.0,0.0
-3.388237,-8.030313,-5.4006,-298.059998,-36.119999,-44.66,1729421809743.0,0.0
-3.337988,-6.786045,-4.773681,-227.149994,-3.36,-32.200001,1729421809764.0,0.0
-3.584448,-6.013163,-6.766902,-226.869995,17.360001,-31.08,1729421809786.0,0.0
-4.378866,-6.549156,-6.254838,-240.589996,14.98,-37.73,1729421809806.0,0.0
-4.225725,-5.242674,-6.58744,-252.350006,-16.030001,-34.439999,1729421809824.0,0.0
-3.184847,-3.129812,-8.329416,-238.070007,-55.650002,-30.870001,1729421809843.0,0.0
-4.132405,-3.012564,-8.896514,-231.490005,-68.040001,-14.14,1729421809865.0,0.0
-3.555735,-1.497907,-11.830115,-225.190002,-89.949997,-5.81,1729421809885.0,0.0
-2.900101,-3.586841,-10.849058,-198.729996,-69.370003,14.91,1729421809905.0,0.0
-2.699104,-4.311867,-10.265208,-172.339996,-43.470001,14.14,1729421809924.0,0.0
-2.785245,-4.864608,-8.786445,-113.75,-18.129999,16.309999,1729421809944.0,0.0
-2.888137,-4.532006,-8.786445,-38.290001,-15.26,19.74,1729421809964.0,0.0
-2.837888,-3.259024,-7.767102,-11.06,-20.09,26.530001,1729421809986.0,0.0
-3.17049,-3.07717,-8.879765,-17.01,-17.219999,28.0,1729421810003.0,0.0
-3.172883,-4.187439,-10.999805,-18.549999,-14.21,29.26,1729421810023.0,0.0
-3.254239,-5.4341,-10.664811,-7.21,-13.16,30.52,1729421810044.0,0.0
-3.160919,-5.522634,-7.623533,5.95,4.13,20.440001,1729421810068.0,0.0
-4.197011,-4.577469,0.681954,21.07,12.39,24.290001,1729421810086.0,0.0
-5.52742,-3.117848,-7.042077,32.619999,-1.54,19.6,1729421810104.0,0.0
-5.453243,-7.176075,-11.904292,93.730003,-44.939999,-11.69,1729421810129.0,0.0
-4.831109,-5.032106,-10.590633,97.230003,-34.790001,20.299999,1729421810237.0,0.0
-4.541577,-3.007778,-8.793623,166.110001,-25.690001,23.17,1729421810238.0,0.0
-5.158926,0.519243,-10.817951,140.139999,-4.62,29.960001,1729421810241.0,0.0
-5.733203,-3.079563,-10.356135,115.080002,14.42,23.030001,1729421810246.0,0.0
-5.213961,-9.255438,-10.332209,141.610001,11.48,2.31,1729421810247.0,0.0
-4.603791,-9.992428,-8.006385,241.850006,21.49,14.14,1729421810248.0,0.0
-4.37408,-6.266802,-8.633304,384.019989,44.099998,20.719999,1729421810263.0,0.0
-4.962714,-2.584249,-9.035298,468.649994,60.549999,42.0,1729421810288.0,0.0
-5.290531,-1.952543,-8.575876,422.519989,78.470001,36.470001,1729421810302.0,0.0
-5.209175,-4.575077,-7.513463,322.769989,87.5,16.17,1729421810323.0,0.0
-5.69731,-9.219545,-1.935793,283.98999,92.190002,11.27,1729421810342.0,0.0
-5.039285,-13.619946,-4.905287,392.140015,-38.080002,-21.559999,1729421810362.0,0.0
-3.787838,-8.451449,-0.492921,492.23999,-27.58,-31.360001,1729421810388.0,0.0
-4.12044,-3.783052,1.426122,532.210022,60.48,5.81,1729421810403.0,0.0
-6.63769,-5.245068,3.0006,433.019989,31.99,-52.360001,1729421810422.0,0.0
-5.017749,-6.661618,5.288138,216.440002,-73.43,-40.950001,1729421810443.0,0.0
-1.584049,-7.953743,3.627519,131.039993,-72.870003,-18.9,1729421810463.0,0.0
-0.150748,-10.703095,0.973879,70.489998,-38.220001,-29.049999,1729421810485.0,0.0
-1.974079,-9.308081,2.196611,78.889999,-17.43,-38.5,1729421810503.0,0.0
-3.445665,-5.608776,3.017349,146.440002,42.77,-1.47,1729421810522.0,0.0
-5.716454,-4.709075,2.684747,131.880005,56.91,-4.97,1729421810542.0,0.0
-5.496314,-7.810174,4.158726,95.830002,-2.03,-28.630001,1729421810562.0,0.0
-3.182454,-9.97807,7.099504,66.57,-21.280001,-35.91,1729421810592.0,0.0
-0.904487,-7.776673,4.790431,49.420002,18.34,-37.450001,1729421810604.0,0.0
-2.024328,-4.469792,4.393222,61.110001,42.91,-30.870001,1729421810623.0,0.0
-3.292524,-2.522035,3.98405,52.220001,39.48,6.23,1729421810643.0,0.0
-3.67059,-5.580062,4.378866,11.34,21.98,6.23,1729421810663.0,0.0
-2.904887,-9.468399,5.891129,-58.73,-8.33,0.28,1729421810685.0,0.0
-1.289732,-10.164711,4.022335,-131.529999,-5.81,10.08,1729421810704.0,0.0
-1.036092,-7.690532,1.124627,-184.869995,24.710001,15.26,1729421810723.0,0.0
-3.464807,-8.865408,1.261017,-288.679993,6.79,25.129999,1729421810743.0,0.0
-4.76411,-11.540584,2.048256,-381.570007,-38.849998,23.59,1729421810764.0,0.0
-4.864608,-12.890135,2.09372,-446.809998,-90.160004,11.27,1729421810785.0,0.0
-4.161119,-12.378072,3.211168,-415.380005,-104.300003,-3.08,1729421810803.0,0.0
-3.206382,-9.470792,2.158326,-375.549988,-80.080002,-14.35,1729421810823.0,0.0
-4.007978,-8.329416,2.598605,-368.549988,-47.670002,-21.77,1729421810843.0,0.0
-5.704489,-9.379865,1.962115,-385.630005,-11.27,-31.639999,1729421810864.0,0.0
-6.506085,-9.966106,-0.334995,-358.190002,-34.09,-47.459999,1729421810886.0,0.0
-4.457829,-7.913064,-1.519442,-297.850006,-48.299999,-44.240002,1729421810903.0,0.0
-2.840281,-5.362316,-3.208775,-277.690002,-37.240002,-36.75,1729421810923.0,0.0
-3.09392,-5.505885,-5.388636,-272.160004,-19.879999,-24.5,1729421810945.0,0.0
-4.108476,-7.779066,-7.109076,-250.110001,-17.99,-27.02,1729421810964.0,0.0
-3.862016,-6.771688,-9.040084,-207.059998,-17.360001,-23.1,1729421810986.0,0.0
-3.196811,-3.163311,-9.12144,-170.380005,-10.99,-22.68,1729421811003.0,0.0
-5.608776,-1.253839,-10.954341,-171.220001,-18.76,-9.52,1729421811024.0,0.0
-5.446064,-0.334995,-10.686346,-220.850006,-72.099998,-8.96,1729421811045.0,0.0
-3.651447,-2.440679,-11.090734,-258.160004,-49.700001,-14.49,1729421811067.0,0.0
-2.842674,-4.189832,-11.442478,-246.610001,-66.150002,-17.85,1729421811085.0,0.0
-2.323431,-5.228317,-9.336794,-182.839996,-41.509998,-2.87,1729421811105.0,0.0
-2.62732,-5.197211,-8.255238,-97.160004,-11.06,-3.92,1729421811124.0,0.0
-3.225525,-3.584448,-8.367701,-30.73,11.83,-3.5,1729421811146.0,0.0
-3.921836,-2.376073,-9.169296,-10.15,21.91,5.67,1729421811166.0,0.0
-3.426522,-1.067199,-7.549356,-5.04,-6.51,15.96,1729421811187.0,0.0
-3.471986,-1.289732,-7.896315,21.0,-25.690001,39.830002,1729421811206.0,0.0
-3.558127,-4.725825,-10.360922,36.259998,-30.17,21.49,1729421811225.0,0.0
-3.103491,-2.868994,-9.923036,12.46,-1.89,23.1,1729421811254.0,0.0
-3.433701,-2.354537,-10.191031,43.82,10.15,39.200001,1729421811267.0,0.0
-4.113262,-6.202196,-6.675975,61.18,7.63,28.0,1729421811289.0,0.0
-4.350152,-4.381258,-3.498307,-6.09,9.52,9.03,1729421811310.0,0.0
-4.974678,-5.058427,-7.905886,6.16,-25.059999,3.36,1729421811325.0,0.0
-4.187439,-5.297709,-9.865608,141.470001,-62.650002,24.5,1729421811346.0,0.0
-3.9338,-3.084348,-11.4353,221.270004,-63.91,33.810001,1729421811367.0,0.0
-4.541577,0.545564,-8.001599,204.889999,-21.77,51.52,1729421811391.0,0.0
-6.159126,0.894916,-6.65444,156.029999,7.49,63.139999,1729421811405.0,0.0
-6.463014,-4.558327,-10.236496,162.259995,3.85,35.91,1729421811426.0,0.0
-5.508278,-8.044669,-9.848858,202.440002,-17.01,33.810001,1729421811445.0,0.0
-4.804788,-6.379266,-8.846266,284.970001,-4.62,51.939999,1729421811466.0,0.0
-5.28096,-4.843073,-8.389235,373.660004,28.210001,54.599998,1729421811487.0,0.0
-5.443672,-4.606184,-7.276574,385.839996,70.840004,40.459999,1729421811505.0,0.0
-6.180661,-5.912664,-7.578069,351.540009,82.599998,45.080002,1729421811525.0,0.0
-5.398208,-7.487142,-7.482357,344.820007,63.349998,31.710001,1729421811545.0,0.0
-6.750153,-10.521241,-1.785046,371.769989,47.25,31.780001,1729421811565.0,0.0
-4.934,-7.192825,-4.17069,443.940002,-23.450001,10.78,1729421811589.0,0.0
-5.539384,-5.201996,0.708275,491.610016,22.469999,48.650002,1729421811605.0,0.0
-5.481956,-4.316652,3.194418,432.320007,28.42,13.23,1729421811625.0,0.0
-5.946165,-2.770889,2.892922,259.910004,4.27,-8.54,1729421811645.0,0.0
-7.501499,-8.126025,2.112862,144.550003,-19.6,7.63,1729421811666.0,0.0
-6.647261,-10.959127,0.710668,103.669998,-38.849998,-27.58,1729421811688.0,0.0
-6.501299,-10.877771,2.352145,99.470001,-20.719999,-27.790001,1729421811705.0,0.0
-6.417551,-8.9348,3.883551,102.059998,-11.55,-41.860001,1729421811726.0,0.0
-5.257031,-6.360123,2.471786,77.209999,-2.38,-61.32,1729421811746.0,0.0
-3.76391,-5.149354,2.921637,62.510002,-9.1,-39.130001,1729421811766.0,0.0
-2.792424,-6.573084,2.691926,-1.26,2.59,-35.98,1729421811790.0,0.0
-4.041477,-8.317451,2.105684,-98.419998,-4.13,-27.02,1729421811806.0,0.0
-3.591627,-8.906086,1.868794,-133.699997,-21.0,-17.92,1729421811826.0,0.0
-1.76351,-8.166703,1.655833,-153.229996,-7.28,-8.75,1729421811846.0,0.0
-2.210968,-8.140383,0.449851,-218.680008,10.71,-6.65,1729421811865.0,0.0
-3.428915,-9.164511,-0.100499,-282.029999,3.99,-18.969999,1729421811888.0,0.0
-5.460421,-11.083554,1.512264,-329.700012,-23.59,-27.93,1729421811907.0,0.0
-5.529813,-10.542776,1.28016,-354.130005,-64.400002,-38.220001,1729421811925.0,0.0
-5.06082,-9.793823,1.272982,-368.690002,-39.549999,-44.310001,1729421811945.0,0.0
-5.625526,-8.523234,0.129212,-396.410004,-37.939999,-70.910004,1729421811967.0,0.0
-5.742774,-6.24766,-2.804388,-431.970001,-25.27,-83.650002,1729421811988.0,0.0
-6.250053,-3.309274,-4.106083,-469.839996,-23.799999,-97.440002,1729421812006.0,0.0
-5.15414,-6.71426,-6.206983,-353.640015,-106.190002,-66.57,1729421812026.0,0.0
-3.515057,-5.115855,-5.458029,-300.160004,-80.989998,-39.759998,1729421812045.0,0.0
-3.474378,-2.301895,-7.180861,-293.369995,-21.91,-32.830002,1729421812066.0,0.0
-4.601398,-1.378266,-10.738988,-255.009995,-33.25,-13.23,1729421812086.0,0.0
-5.20439,-1.172483,-13.617554,-242.130005,-84.769997,3.57,1729421812106.0,0.0
-3.9673,-5.809773,-10.710274,-183.680008,-87.080002,11.34,1729421812124.0,0.0
-3.041277,-6.862615,-8.745767,-155.820007,-73.849998,-0.84,1729421812147.0,0.0
-2.452643,-5.486742,-7.826923,-98.980003,-56.700001,-4.27,1729421812165.0,0.0
-2.778067,-4.618148,-8.276773,-41.23,-36.189999,-16.73,1729421812189.0,0.0
-4.019942,-3.469593,-9.561719,-27.65,-5.74,-16.030001,1729421812205.0,0.0
-5.240282,-3.299703,-10.561919,-18.76,14.98,-4.76,1729421812225.0,0.0
-5.424529,-2.337788,-9.336794,20.860001,16.52,13.93,1729421812246.0,0.0
-5.120641,-1.275374,-8.219346,70.769997,2.59,36.82,1729421812265.0,0.0
-4.666004,-0.368495,-7.255038,52.43,-13.72,40.459999,1729421812290.0,0.0
-4.838287,-1.339981,-8.114061,-11.9,-8.82,30.380001,1729421812307.0,0.0
-5.02732,-3.266203,-10.506885,-59.920002,-3.5,10.85,1729421812326.0,0.0
-4.663611,-5.458029,-11.006985,-35.630001,-6.3,12.88,1729421812345.0,0.0
-4.567898,-4.376472,-10.07139,43.68,-2.66,25.620001,1729421812365.0,0.0
-5.266603,-6.336195,-3.809374,83.510002,16.1,16.309999,1729421812391.0,0.0
-5.075177,-3.909872,-3.964907,76.230003,28.0,-3.99,1729421812405.0,0.0
-5.132604,-2.163112,-10.626525,118.440002,-31.43,3.36,1729421812425.0,0.0
-5.032106,-2.488536,-8.506484,130.759995,-46.41,23.24,1729421812446.0,0.0
-5.386244,-3.883551,-5.804988,119.279999,7.14,19.530001,1729421812465.0,0.0
-6.135197,-4.773681,-8.054241,133.139999,37.310001,6.37,1729421812488.0,0.0
-6.936793,-4.338188,-9.745967,144.759995,32.549999,14.77,1729421812505.0,0.0
-6.494121,-5.20439,-9.932607,181.089996,19.389999,17.43,1729421812524.0,0.0
-5.599205,-6.252446,-6.022735,240.800003,21.700001,26.460001,1729421812545.0,0.0
-4.768896,-5.922236,-6.352944,281.959991,33.459999,27.440001,1729421812565.0,0.0
-4.790431,-4.366901,-7.178468,263.619995,25.129999,31.92,1729421812585.0,0.0
-5.017749,-3.964907,-7.503892,184.800003,27.299999,35.420002,1729421812604.0,0.0
-5.029713,-6.290731,-6.613762,122.639999,45.080002,21.210001,1729421812624.0,0.0
-4.790431,-9.35833,-6.632904,134.539993,56.630001,0.21,1729421812644.0,0.0
-4.393222,-10.124033,-7.628319,192.5,57.540001,-6.23,1729421812664.0,0.0
-4.520042,-7.171289,-6.082555,265.790009,45.920002,1.33,1729421812685.0,0.0
-4.957928,-5.146961,-4.541577,308.910004,56.209999,14.91,1729421812703.0,0.0
-5.85763,-6.932007,-2.306681,290.01001,45.920002,5.6,1729421812723.0,0.0
-6.34098,-8.341379,0.112463,228.550003,7.84,-40.040001,1729421812744.0,0.0
-5.448457,-6.963113,-1.701297,215.740005,-20.09,-34.509998,1729421812763.0,0.0
-3.909872,-6.216553,-1.545763,299.320007,-22.540001,-1.82,1729421812784.0,0.0
-3.565305,-5.644669,0.679562,317.589996,3.57,-6.72,1729421812803.0,0.0
-5.718846,-7.499106,1.447658,246.610001,10.71,-25.549999,1729421812823.0,0.0
-6.336195,-9.06162,0.301496,196.279999,-30.030001,-26.040001,1729421812843.0,0.0
-3.512664,-7.348359,3.254239,174.229996,-41.509998,-4.97,1729421812864.0,0.0
-1.418944,-4.551149,3.488736,69.510002,-26.32,5.32,1729421812884.0,0.0
-2.222932,-6.4343,1.201197,-49.630001,-13.86,-2.03,1729421812903.0,0.0
-3.711268,-7.826923,0.904487,-130.690002,-27.440001,6.72,1729421812923.0,0.0
-3.74716,-8.886944,1.057628,-181.789993,-36.82,9.17,1729421812943.0,0.0
-3.292524,-8.874979,1.007378,-234.149994,-31.57,7.0,1729421812963.0,0.0
-3.354738,-9.446864,-0.653241,-283.360016,-7.42,-1.68,1729421812984.0,0.0
-4.187439,-10.356135,-0.746561,-309.610016,-21.42,-16.66,1729421813003.0,0.0
-4.474578,-10.966305,-1.055235,-307.230011,-32.549999,-19.879999,1729421813023.0,0.0
-4.776074,-9.537791,0.200997,-315.070007,-34.93,-31.290001,1729421813050.0,0.0
-5.508278,-7.429714,-0.959522,-343.0,-6.37,-33.529999,1729421813063.0,0.0
-5.87438,-6.67119,-2.478964,-364.700012,-5.6,-53.549999,1729421813084.0,0.0
-6.338587,-6.305088,-3.574877,-387.660004,-34.650002,-59.57,1729421813105.0,0.0
-5.627919,-6.819544,-5.182854,-364.839996,-58.869999,-56.490002,1729421813123.0,0.0
-5.491528,-5.376673,-4.354938,-311.290009,-61.740002,-31.290001,1729421813143.0,0.0
-4.412365,-4.800002,-7.499106,-219.449997,-35.490002,-7.7,1729421813164.0,0.0
-4.034299,-4.225725,-8.233703,-160.089996,-44.310001,-1.89,1729421813185.0,0.0
-4.48415,-3.026921,-9.736395,-199.430008,-77.910004,3.78,1729421813206.0,0.0
-3.835695,-0.9667,-10.949556,-272.089996,-103.949997,8.26,1729421813227.0,0.0
-3.163311,-4.220939,-13.91187,-226.940002,-67.269997,14.7,1729421813245.0,0.0
-3.17049,-6.288338,-12.067005,-122.220001,-45.709999,13.93,1729421813265.0,0.0
-3.148954,-4.883751,-8.898908,-50.889999,2.31,14.63,1729421813290.0,0.0
-3.668197,-3.326023,-7.771888,-36.330002,23.030001,-2.24,1729421813305.0,0.0
-5.142176,-3.565305,-6.809973,-65.099998,27.790001,-15.54,1729421813327.0,0.0
-5.594419,-4.086941,-8.303094,-99.400002,4.55,-29.4,1729421813347.0,0.0
-5.496314,-3.565305,-9.990034,-67.480003,-16.59,-17.57,1729421813367.0,0.0
-4.642076,-2.129612,-9.745967,-12.81,-21.91,-7.63,1729421813390.0,0.0
-4.304688,-0.79681,-8.834301,13.02,-8.89,13.23,1729421813407.0,0.0
-4.493721,-0.236889,-9.549755,29.33,7.7,20.370001,1729421813427.0,0.0
-5.161318,-1.442872,-10.116854,36.049999,23.73,21.98,1729421813448.0,0.0
-5.111069,-3.024528,-8.599805,6.79,31.15,10.01,1729421813470.0,0.0
-5.364708,-4.307081,-8.793623,-10.92,23.24,-0.21,1729421813488.0,0.0
-5.529813,-5.20439,-7.185646,11.9,34.09,-10.57,1729421813507.0,0.0
-5.946165,-4.716253,-5.17089,51.59,50.049999,-9.52,1729421813529.0,0.0
-5.936593,-3.541377,-10.502099,77.699997,37.66,-10.64,1729421813548.0,0.0
-5.642276,-3.9338,-10.765309,78.82,-6.72,-12.18,1729421813568.0,0.0
-3.9338,-2.545963,-6.865008,53.760002,-2.24,-22.33,1729421813589.0,0.0
-3.694518,-3.132205,-9.095119,35.139999,8.05,-12.18,1729421813607.0,0.0
-3.945765,-5.491528,-9.355937,25.059999,-10.71,-19.530001,1729421813628.0,0.0
-2.809174,-5.726025,-11.227123,52.639999,-7.35,-20.23,1729421813647.0,0.0
-2.48375,-2.916851,-7.094719,88.199997,-19.389999,-2.94,1729421813667.0,0.0
-2.840281,0.162712,-6.479764,72.519997,20.93,3.29,1729421813690.0,0.0
-4.771288,-1.007378,-7.207181,51.450001,46.48,14.49,1729421813710.0,0.0
-5.551349,-4.024727,-8.126025,10.01,49.490002,11.69,1729421813729.0,0.0
-5.089533,-6.45105,-7.073184,7.49,33.950001,17.85,1729421813748.0,0.0
-4.323831,-7.57089,-6.711867,83.790001,3.92,31.780001,1729421813771.0,0.0
-3.9673,-6.183054,-7.9346,180.600006,-20.65,37.939999,1729421813790.0,0.0
-3.996014,-3.95055,-8.082954,209.930008,-19.18,40.110001,1729421813809.0,0.0
-4.151547,-2.533999,-8.025528,166.110001,8.54,42.560001,1729421813829.0,0.0
-4.496114,-4.058227,-6.556334,147.350006,36.75,36.610001,1729421813847.0,0.0
-4.577469,-6.489335,-6.190232,137.619995,48.299999,17.710001,1729421813866.0,0.0
-4.804788,-7.786245,-7.496714,141.119995,44.939999,3.99,1729421813891.0,0.0
-4.929214,-8.276773,-7.283752,168.979996,18.48,2.38,1729421813908.0,0.0
-4.350152,-7.762317,-7.542177,182.979996,6.16,5.81,1729421813927.0,0.0
-3.529413,-8.4347,-6.865008,205.029999,-18.549999,1.4,1729421813947.0,0.0
-3.081956,-8.927622,-5.778666,237.160004,-5.53,0.42,1729421813967.0,0.0
-2.816352,-9.24108,-4.369294,237.930008,7.98,-13.93,1729421813990.0,0.0
-3.141776,-7.152147,-5.778666,201.039993,25.83,-23.24,1729421814007.0,0.0
-3.806981,-6.424729,-4.149154,181.649994,50.119999,-14.7,1729421814029.0,0.0
-4.780859,-5.718846,-3.95055,153.930008,49.349998,-5.39,1729421814047.0,0.0
-5.249853,-4.54397,-2.18704,141.050003,26.74,4.97,1729421814067.0,0.0
-5.12782,-3.651447,-0.598206,83.650002,18.27,5.25,1729421814087.0,0.0
-4.673182,-5.393422,-3.431308,-7.98,13.02,-4.62,1729421814107.0,0.0
-4.962714,-7.702496,-4.283153,-73.919998,-2.03,-18.549999,1729421814127.0,0.0
-4.675575,-9.38465,-3.26381,-86.870003,-22.610001,-14.63,1729421814146.0,0.0
-3.239882,-8.788837,-4.331009,-99.190002,-42.490002,-1.61,1729421814169.0,0.0
-2.794817,-9.98525,-3.09392,-119.699997,-32.41,2.59,1729421814190.0,0.0
-2.715853,-9.903893,-3.84048,-168.910004,-42.420002,-25.34,1729421814206.0,0.0
-3.079563,-9.858429,-4.642076,-197.889999,-16.17,-33.25,1729421814226.0,0.0
-3.213561,-8.834301,-2.758924,-244.020004,8.26,-45.639999,1729421814248.0,0.0
-3.778267,-8.760124,-5.694918,-331.450012,-8.47,-66.010002,1729421814267.0,0.0
-3.656233,-9.844072,-5.611169,-296.940002,-69.370003,-59.849998,1729421814289.0,0.0
-2.952743,-6.754939,-5.493921,-285.390015,-42.349998,-60.48,1729421814307.0,0.0
-3.847659,-6.171089,-5.871986,-216.440002,-10.43,-41.02,1729421814326.0,0.0
-3.897908,-6.82433,-8.338986,-112.279999,-10.15,-25.48,1729421814348.0,0.0
-4.469792,-6.025128,-6.630512,-86.660004,-13.3,-7.49,1729421814367.0,0.0
-4.881358,-5.587241,-6.293124,-83.019997,16.52,-5.46,1729421814392.0,0.0
-5.513064,-4.61097,-4.517649,-80.919998,-3.92,5.46,1729421814406.0,0.0
-4.644469,-4.07737,-7.125826,-95.129997,-40.389999,10.36,1729421814492.0,0.0
-3.479164,-3.409772,-9.209974,-89.32,-78.120003,6.51,1729421814496.0,0.0
-2.696711,-2.883351,-7.805387,-104.93,-74.480003,29.33,1729421814496.0,0.0
-2.206182,-2.940779,-9.458827,-125.440002,-63.700001,19.110001,1729421814497.0,0.0
-2.993421,-3.168097,-12.03829,-152.460007,-49.91,22.120001,1729421814506.0,0.0
-3.125026,-5.821737,-9.147761,-121.239998,-14.28,10.15,1729421814526.0,0.0
-3.491128,-6.446264,-7.925028,-66.57,-8.19,-3.36,1729421814546.0,0.0
-3.929015,-3.684947,-8.283953,-1.96,-12.67,6.65,1729421814566.0,0.0
-4.290331,-1.071985,-7.594819,37.52,-12.88,29.190001,1729421814588.0,0.0
-5.52742,-2.189433,-10.693524,39.900002,-11.27,44.170002,1729421814607.0,0.0
-5.663811,-4.510471,-11.081161,7.77,7.42,36.400002,1729421814626.0,0.0
-5.125426,-2.924029,-9.860823,-1.33,8.33,31.85,1729421814646.0,0.0
-5.113462,-0.918844,-9.322437,-27.860001,9.59,28.07,1729421814667.0,0.0
-5.211568,-3.421736,-10.8682,-46.549999,15.75,11.9,1729421814687.0,0.0
-5.376673,-9.049655,-8.695518,-23.940001,7.49,0.14,1729421814708.0,0.0
-4.082155,-7.422535,-1.325624,-28.0,3.71,-12.32,1729421814726.0,0.0
-4.816752,-4.912465,-8.867801,48.509998,-27.860001,15.82,1729421814746.0,0.0
-3.775874,-3.847659,-12.488142,144.899994,-68.669998,-1.33,1729421814766.0,0.0
-3.917051,-2.299503,-6.262017,166.460007,-13.09,40.25,1729421814788.0,0.0
-4.945964,-0.949951,-6.003592,170.100006,17.5,32.200001,1729421814805.0,0.0
-6.783652,-2.713461,-8.530413,119.489998,39.130001,17.360001,1729421814826.0,0.0
-6.752545,-6.630512,-11.887544,88.059998,26.67,-0.84,1729421814846.0,0.0
-5.730811,-8.941978,-7.853244,150.149994,8.68,10.36,1729421814866.0,0.0
-5.065606,-8.135597,-7.963314,300.089996,31.43,19.74,1729421814887.0,0.0
-4.845466,-4.596612,-11.485549,442.049988,45.009998,29.889999,1729421814906.0,0.0
-5.374279,-3.926622,-9.521042,489.440002,64.610001,51.939999,1729421814926.0,0.0
-5.166104,-5.194818,-8.166703,425.320007,95.129997,44.310001,1729421814946.0,0.0
-5.297709,-7.805387,-2.203789,374.709991,86.519997,29.4,1729421814967.0,0.0
-5.694918,-11.68176,-2.849852,439.950012,-9.66,-6.23,1729421814987.0,0.0
-3.778267,-9.97807,-0.930808,527.309998,-28.42,-33.18,1729421815008.0,0.0
-1.87358,-3.091527,-0.473779,557.340027,32.759998,-1.33,1729421815028.0,0.0
-7.951349,-0.859023,4.309474,245.210007,90.93,26.460001,1729421815217.0,0.0
-9.576077,-5.319244,0.760918,-44.029999,0.07,-22.889999,1729421815231.0,0.0
-6.216553,-9.590433,-0.535992,-180.809998,-100.379997,-70.419998,1729421815231.0,0.0
-3.625126,-13.282558,-0.988236,-169.050003,-113.050003,-58.240002,1729421815231.0,0.0
-1.347159,-11.662617,-0.758525,-71.75,-51.799999,-14.7,1729421815232.0,0.0
-2.868994,-10.042676,1.119841,6.3,21.42,-1.75,1729421815232.0,0.0
-2.758924,-6.78126,2.775674,21.84,-5.67,-25.76,1729421815233.0,0.0
-1.710868,-4.577469,4.103691,-1.96,-18.76,-2.1,1729421815233.0,0.0
-1.895115,-5.331209,1.947758,-100.940002,-6.02,0.14,1729421815234.0,0.0
-3.022135,-8.020741,-0.385244,-198.380005,-20.02,-7.49,1729421815274.0,0.0
-4.914857,-12.97867,1.732404,-290.360016,-54.740002,-18.129999,1729421815275.0,0.0
-3.65384,-12.047862,0.397209,-286.579987,-71.540001,-13.09,1729421815288.0,0.0
-2.292324,-9.52822,-0.026321,-206.149994,-52.5,-5.32,1729421815306.0,0.0
-2.555535,-7.398607,-0.658026,-152.389999,-24.360001,-5.81,1729421815326.0,0.0
-5.008178,-7.269395,0.691526,-134.190002,9.87,1.68,1729421815347.0,0.0
-6.84108,-7.173682,-0.459422,-171.990005,43.75,1.68,1729421815368.0,0.0
-8.11167,-5.836094,-0.433101,-270.200012,37.380001,-20.65,1729421815406.0,0.0
-8.267202,-4.847858,-2.366502,-367.779999,-36.119999,-41.580002,1729421815426.0,0.0
-6.948757,-6.381658,-6.357729,-407.190002,-83.230003,-49.560001,1729421815427.0,0.0
-5.833702,-9.320045,-7.097112,-322.140015,-113.75,-33.950001,1729421815450.0,0.0
-4.089334,-7.848458,-6.233303,-200.479996,-88.129997,-0.28,1729421815469.0,0.0
-2.715853,-6.819544,-8.315059,-106.540001,-15.54,8.82,1729421815490.0,0.0
-3.177669,-4.723432,-7.996813,-107.169998,10.64,-7.21,1729421815509.0,0.0
-4.606184,-1.174876,-7.228717,-184.380005,15.54,-3.99,1729421815574.0,0.0
-4.87418,-2.242075,-9.399008,-242.759995,-29.469999,-11.41,1729421815575.0,0.0
-3.218346,-5.192425,-11.755937,-265.649994,-86.099998,-14.7,1729421815636.0,0.0
-2.24686,-4.890929,-11.942577,-186.130005,-78.260002,15.82,1729421815669.0,0.0
-2.072184,-5.259424,-11.150554,-135.729996,-29.889999,5.6,1729421815670.0,0.0
-2.945565,-5.587241,-8.693125,-111.510002,20.790001,-2.87,1729421815670.0,0.0
-4.04387,-4.888536,-7.709675,-104.440002,53.900002,-14.98,1729421815670.0,0.0
-4.986642,-4.151547,-8.145168,-99.050003,45.639999,-23.450001,1729421815670.0,0.0
-5.469993,-3.232704,-9.090333,-86.800003,20.93,-12.95,1729421815709.0,0.0
-5.24746,-2.749353,-9.578469,-41.09,8.47,1.75,1729421815713.0,0.0
-5.115855,-0.89013,-8.796017,19.040001,8.33,31.92,1729421815731.0,0.0
-5.422136,-0.66999,-8.408379,65.590004,30.309999,45.990002,1729421815748.0,0.0
-5.833702,-1.311267,-9.590433,47.25,39.060001,47.740002,1729421815768.0,0.0
-5.302495,-4.59422,-10.956735,11.41,17.360001,22.960001,1729421815789.0,0.0
-3.790231,-5.288138,-9.339187,3.99,0.28,11.69,1729421815812.0,0.0
-2.615355,-4.34058,-7.424929,47.040001,-9.31,6.58,1729421815839.0,0.0
-2.711068,-2.29711,-6.087341,48.650002,11.06,-2.24,1729421815848.0,0.0
-5.005785,-4.244867,-8.590233,21.91,54.880001,-14.98,1729421815871.0,0.0
-5.776274,-6.855437,-10.748559,37.240002,48.16,-22.120001,1729421815889.0,0.0
-5.237889,-8.094919,-9.518648,125.790001,10.92,-20.23,1729421815908.0,0.0
-4.187439,-3.361916,-6.443871,121.730003,6.37,-23.66,1729421815928.0,0.0
-3.720839,-0.614955,-5.71406,77.699997,8.54,-18.129999,1729421815948.0,0.0
-3.704089,-2.969493,-7.030113,55.720001,-17.92,-13.58,1729421815969.0,0.0
-3.098706,-5.099105,-10.722239,32.200001,-32.689999,-9.52,1729421815991.0,0.0
-2.321038,-6.484549,-10.413565,79.029999,-36.75,3.92,1729421816008.0,0.0
-1.861616,-5.79781,-10.042676,133.419998,-13.02,2.52,1729421816028.0,0.0
-2.433501,-5.163712,-8.54477,191.309998,19.389999,2.03,1729421816050.0,0.0
-3.584448,-5.47717,-3.876373,228.619995,51.939999,-5.18,1729421816068.0,0.0
-4.460221,-0.605384,-3.376273,141.539993,55.299999,-10.15,1729421816089.0,0.0
-5.553742,-0.736989,-5.879165,113.959999,23.450001,24.01,1729421816108.0,0.0
-5.020142,-2.586641,-5.709275,81.059998,-16.66,32.34,1729421816128.0,0.0
-4.275974,-5.525027,-6.680761,63.349998,-28.280001,31.99,1729421816148.0,0.0
-4.383651,-8.879765,-7.211967,45.009998,-30.73,26.040001,1729421816170.0,0.0
-4.54397,-8.80798,-8.781659,-25.200001,-10.85,-0.35,1729421816190.0,0.0
-5.580062,-5.632704,-5.833702,-26.809999,14.28,3.92,1729421816208.0,0.0
-5.721239,-6.355337,-6.329016,-11.34,24.290001,-8.89,1729421816228.0,0.0
-5.383851,-7.209574,-7.113862,-18.059999,2.52,-11.06,1729421816250.0,0.0
-4.575077,-6.726225,-6.556334,-32.549999,-18.620001,-10.64,1729421816268.0,0.0
-3.778267,-5.599205,-6.470192,-45.220001,-27.58,-12.6,1729421816290.0,0.0
-3.668197,-7.341179,-7.652246,-26.110001,-26.67,-9.1,1729421816308.0,0.0
-3.548556,-6.927221,-5.501099,23.940001,14.49,0.07,1729421816328.0,0.0
-4.256832,-6.750153,-6.491727,88.760002,24.5,2.24,1729421816350.0,0.0
-4.601398,-6.62094,-7.013363,65.169998,12.39,-1.89,1729421816368.0,0.0
-4.699504,-7.635497,-6.005985,32.900002,21.280001,2.66,1729421816392.0,0.0
-4.453043,-7.750352,-5.730811,61.32,25.48,4.55,1729421816408.0,0.0
-4.388437,-6.716653,-4.666004,90.370003,13.93,3.71,1729421816429.0,0.0
-4.359723,-5.395815,-4.816752,55.580002,15.89,-0.63,1729421816449.0,0.0
