acc_x,acc_y,acc_z,gyr_x,gyr_y,gyr_z,timestamp,label
-3.981657,-7.427321,-4.943572,2.45,6.44,-5.81,1729420293405.0,0.0
-3.964907,-7.41775,-5.12782,3.01,9.38,-6.51,1729420293413.0,0.0
-4.130012,-7.51107,-5.225924,6.79,13.65,-6.86,1729420293414.0,0.0
-4.228118,-7.56132,-5.075177,9.1,14.63,-6.3,1729420293420.0,0.0
-4.199404,-7.676175,-4.977071,8.82,14.98,-7.28,1729420293440.0,0.0
-4.211368,-7.601997,-4.881358,7.28,16.870001,-8.82,1729420293460.0,0.0
-4.273581,-7.613962,-5.185246,7.35,20.23,-10.01,1729420293480.0,0.0
-4.431508,-7.707282,-5.240282,5.39,21.91,-10.78,1729420293501.0,0.0
-4.479364,-7.915457,-5.17089,3.22,20.51,-10.22,1729420293521.0,0.0
-4.536791,-8.114061,-5.003392,3.01,18.059999,-10.29,1729420293540.0,0.0
-4.541577,-8.252845,-4.828716,4.2,20.16,-10.64,1729420293560.0,0.0
-4.465007,-8.348558,-4.737789,6.37,22.469999,-11.27,1729420293580.0,0.0
-4.498507,-8.338986,-4.658825,6.72,20.299999,-12.32,1729420293601.0,0.0
-4.316652,-8.382057,-4.76411,6.44,17.360001,-14.77,1729420293621.0,0.0
-4.115655,-8.800802,-4.771288,9.38,14.84,-14.98,1729420293640.0,0.0
-4.132405,-8.953942,-4.536791,17.43,17.290001,-16.030001,1729420293660.0,0.0
-4.022335,-8.99462,-4.48415,28.84,16.59,-17.92,1729420293681.0,0.0
-3.663411,-8.886944,-4.761717,37.380001,13.23,-21.91,1729420293701.0,0.0
-3.45045,-9.052048,-4.68754,47.459999,11.69,-24.780001,1729420293723.0,0.0
-3.132205,-9.312866,-4.584648,61.32,15.05,-31.57,1729420293740.0,0.0
-2.598605,-9.23151,-5.328816,71.889999,17.08,-38.709999,1729420293760.0,0.0
-2.294717,-9.315259,-5.553742,82.949997,16.73,-40.740002,1729420293780.0,0.0
-2.050649,-9.334401,-4.639683,82.739998,11.76,-46.619999,1729420293801.0,0.0
-1.713261,-9.454042,-4.488935,79.519997,6.93,-49.0,1729420293820.0,0.0
-1.18684,-9.482756,-3.962514,83.93,5.6,-49.630001,1729420293840.0,0.0
-0.856631,-9.066404,-3.708875,82.739998,7.28,-48.23,1729420293860.0,0.0
-0.634098,-8.831908,-4.091727,83.510002,14.14,-45.849998,1729420293880.0,0.0
-0.868595,-8.688338,-3.404987,82.599998,27.02,-42.349998,1729420293902.0,0.0
-0.662812,-8.616554,-3.026921,87.010002,29.68,-35.560001,1729420293921.0,0.0
-0.043071,-8.496914,-3.108276,94.57,10.78,-23.59,1729420293940.0,0.0
0.11007,-8.228917,-2.991028,89.18,2.66,-11.48,1729420293960.0,0.0
-0.662812,-8.047063,-1.87358,77.980003,32.970001,-14.77,1729420293980.0,0.0
-2.096112,-9.138189,-0.624527,88.129997,58.380001,-17.08,1729420294001.0,0.0
-3.627519,-9.607183,-0.33021,110.18,75.459999,-13.86,1729420294020.0,0.0
-4.613362,-9.095119,-0.177069,134.259995,61.389999,-5.18,1729420294041.0,0.0
-4.589434,-7.695317,0.478565,156.729996,32.970001,11.41,1729420294060.0,0.0
-4.345366,-6.171089,2.062613,162.539993,9.66,19.110001,1729420294080.0,0.0
-4.718646,-5.936593,3.074777,168.559998,7.35,31.780001,1729420294108.0,0.0
-4.733003,-5.565705,2.304288,181.160004,30.73,39.130001,1729420294122.0,0.0
-5.268995,-4.192225,1.557728,182.210007,46.200001,55.720001,1729420294139.0,0.0
-7.657032,-4.309474,3.4672,185.570007,28.42,94.709999,1729420294160.0,0.0
-8.243275,-6.013163,6.788438,162.190002,3.71,86.099998,1729420294180.0,0.0
-7.975278,-2.318645,4.54397,-66.779999,-13.72,30.309999,1729420294201.0,0.0
-5.800202,-9.97807,-6.570691,-304.220001,9.17,-6.79,1729420294221.0,0.0
-4.996214,-26.656042,-1.239482,-167.649994,-53.689999,6.09,1729420294239.0,0.0
-0.454636,-15.321243,-0.567099,164.430008,-28.07,58.66,1729420294259.0,0.0
-1.524228,-6.910471,-1.438086,324.589996,66.639999,35.07,1729420294280.0,0.0
-4.108476,-4.161119,5.601598,147.699997,108.010002,-33.389999,1729420294300.0,0.0
-2.715853,-4.821537,5.388636,-152.600006,96.809998,-51.52,1729420294320.0,0.0
-3.081956,-1.928615,18.163916,-122.849998,-45.5,18.9,1729420294340.0,0.0
-2.998207,-6.218946,8.894121,-75.949997,-93.169998,81.900002,1729420294359.0,0.0
-1.658226,-8.992228,2.478964,-188.789993,-34.580002,4.69,1729420294380.0,0.0
-4.680361,-8.788837,5.010571,-224.559998,-104.160004,72.660004,1729420294400.0,0.0
-3.852444,-7.006185,-2.232504,-257.179993,-136.009995,43.540001,1729420294420.0,0.0
-5.156533,-10.705488,-14.304294,-305.339996,-116.340004,14.7,1729420294439.0,0.0
-5.919843,-21.365515,-11.925828,-133.0,-33.670002,4.76,1729420294460.0,0.0
-4.208975,-15.35235,-3.369094,24.43,37.59,-13.37,1729420294480.0,0.0
-3.845266,-8.992228,-1.56012,68.949997,25.34,-5.67,1729420294501.0,0.0
-2.775674,-8.535198,-3.251846,-7.84,38.43,-59.010002,1729420294520.0,0.0
-2.792424,-11.234302,-3.52702,-60.41,37.939999,-52.709999,1729420294539.0,0.0
-1.237089,-7.853244,-1.421337,-50.540001,54.25,-50.189999,1729420294559.0,0.0
-1.342373,-3.60359,6.551548,-11.9,34.650002,-19.040001,1729420294580.0,0.0
-3.771089,-3.555735,13.320844,-35.209999,-1.26,2.94,1729420294602.0,0.0
-3.302095,-8.733803,4.151547,-74.690002,-14.7,2.52,1729420294624.0,0.0
-4.632504,-11.430513,-1.995614,-199.570007,3.29,-44.310001,1729420294641.0,0.0
-2.517249,-9.915856,-0.011964,-127.050003,-120.610001,-13.16,1729420294659.0,0.0
-1.29691,-7.467999,-0.770489,-67.480003,-150.149994,7.28,1729420294680.0,0.0
-2.404787,-6.802795,-6.199803,-131.740005,-127.470001,-9.31,1729420294701.0,0.0
-4.924429,-9.722038,-15.878771,-215.389999,-41.650002,-14.14,1729420294724.0,0.0
-6.013163,-15.120246,-12.464212,-167.089996,52.150002,-32.060001,1729420294739.0,0.0
-4.934,-16.113268,-4.680361,0.63,16.309999,-5.95,1729420294760.0,0.0
-2.423929,-8.764909,-5.74756,75.599998,19.809999,-10.29,1729420294781.0,0.0
-1.48355,-6.886543,-6.4678,83.019997,52.43,-27.51,1729420294801.0,0.0
-2.175076,-6.113662,-2.947958,30.59,87.989998,-28.49,1729420294825.0,0.0
-3.486342,-5.388636,0.29671,-38.290001,96.040001,-33.32,1729420294839.0,0.0
-3.010171,-7.125826,-1.988436,-91.980003,68.110001,-29.540001,1729420294859.0,0.0
-1.28016,-9.521042,0.882952,-42.0,7.49,-2.59,1729420294880.0,0.0
-0.31346,-5.407779,4.249653,3.36,-21.210001,11.27,1729420294900.0,0.0
-2.251646,-3.546163,1.153341,-15.96,-21.210001,18.129999,1729420294920.0,0.0
-2.37368,-4.931608,-3.194418,-91.910004,20.16,-23.17,1729420294940.0,0.0
-2.471786,-7.441679,-4.491328,-141.960007,-69.580002,-4.9,1729420294960.0,0.0
-0.380459,-8.901299,-4.359723,-156.169998,-157.220001,-2.59,1729420294979.0,0.0
-2.732604,-11.54537,-7.295716,-165.619995,-88.760002,-19.879999,1729420295002.0,0.0
-4.476971,-10.707881,-15.314064,-123.970001,22.33,-58.240002,1729420295020.0,0.0
-4.701896,-8.240881,-13.251451,-0.28,43.610001,-24.639999,1729420295039.0,0.0
-1.507478,-7.020542,-5.020142,99.610001,-2.66,1.47,1729420295060.0,0.0
0.760918,-6.020342,-2.924029,90.019997,-47.880001,7.42,1729420295081.0,0.0
0.574277,-5.065606,-4.759324,37.66,-3.43,-0.07,1729420295100.0,0.0
-1.071985,-6.135197,-4.393222,25.200001,46.41,-7.0,1729420295121.0,0.0
-3.553342,-7.640282,-3.414558,22.469999,57.470001,-4.55,1729420295139.0,0.0
-4.721039,-7.633104,-4.046263,15.68,32.759998,-2.8,1729420295160.0,0.0
-4.04387,-7.310073,-5.108676,11.55,-12.25,13.58,1729420295180.0,0.0
-2.569891,-7.144968,-4.783253,-1.47,-41.299999,17.01,1729420295200.0,0.0
-2.333002,-7.846066,-4.709075,-28.559999,-31.360001,15.47,1729420295220.0,0.0
-3.287738,-9.564112,-6.147161,-20.16,-4.55,12.04,1729420295239.0,0.0
-4.268795,-9.793823,-6.855437,-15.12,7.63,9.31,1729420295259.0,0.0
-4.68754,-9.186047,-6.068198,-12.18,-6.02,12.53,1729420295279.0,0.0
-3.914658,-8.535198,-5.589634,-8.75,-20.370001,13.72,1729420295301.0,0.0
-2.586641,-6.558727,-5.156533,-36.610001,-25.76,9.38,1729420295320.0,0.0
-3.014957,-6.867401,-4.9675,-82.599998,-17.85,5.46,1729420295339.0,0.0
-4.039084,-8.312666,-4.376472,-119.980003,-13.51,0.49,1729420295360.0,0.0
-4.350152,-9.872787,-4.876573,-119.840004,-17.99,-3.36,1729420295379.0,0.0
-3.806981,-7.848458,-6.484549,-110.389999,-22.33,-9.03,1729420295400.0,0.0
-3.519842,-6.802795,-7.121039,-120.190002,-24.710001,-14.7,1729420295420.0,0.0
-3.469593,-4.888536,-8.4347,-164.5,-31.360001,-25.690001,1729420295439.0,0.0
-4.031906,-3.440879,-12.906885,-171.009995,-9.73,-26.6,1729420295459.0,0.0
-5.034499,-6.24766,-14.321043,-129.639999,30.309999,-13.440001,1729420295480.0,0.0
-5.216353,-10.224532,-10.717452,-77.699997,45.709999,-4.2,1729420295509.0,0.0
-3.589234,-7.726424,-8.152347,-28.07,35.77,7.07,1729420295521.0,0.0
-1.684547,-3.84048,-8.901299,8.47,29.190001,10.36,1729420295539.0,0.0
-1.758725,-3.393023,-8.575876,22.889999,47.32,22.33,1729420295559.0,0.0
-2.813959,-6.838687,-7.506285,-12.95,75.459999,1.33,1729420295578.0,0.0
-3.546163,-12.41875,-5.355137,-12.53,61.389999,-29.4,1729420295601.0,0.0
-2.005185,-9.74836,-5.465207,-9.24,23.73,-49.209999,1729420295624.0,0.0
-0.708275,-5.769095,-3.17049,-0.7,4.13,-67.340004,1729420295638.0,0.0
-1.26341,-3.818945,-5.706882,0.07,8.68,-70.209999,1729420295659.0,0.0
-1.205983,-1.177269,-8.733803,-28.280001,-17.01,-81.340004,1729420295679.0,0.0
-1.387837,-0.196211,-11.16491,-58.310001,-36.82,-69.650002,1729420295700.0,0.0
-1.557728,-1.06002,-9.992428,-25.059999,-28.35,-42.77,1729420295723.0,0.0
-2.658426,-0.988236,-10.420743,39.48,9.73,12.6,1729420295739.0,0.0
-5.20439,-1.799403,-8.953942,26.389999,46.619999,49.209999,1729420295760.0,0.0
-6.02752,-5.666204,-11.899508,-67.340004,49.77,39.130001,1729420295779.0,0.0
-3.388237,-8.932407,-14.203795,-64.82,-2.31,40.32,1729420295800.0,0.0
-0.631705,-5.718846,-10.585848,11.62,-5.81,63.91,1729420295819.0,0.0
-1.641476,-2.215754,-5.199604,41.580002,63.279999,73.43,1729420295839.0,0.0
-3.108276,-4.118048,-5.321638,-28.139999,79.099998,43.959999,1729420295859.0,0.0
-3.59402,-9.767502,-3.945765,-87.150002,28.210001,30.1,1729420295879.0,0.0
-2.74696,-14.067404,-4.175476,-85.120003,-29.960001,-3.85,1729420295900.0,0.0
-2.103291,-9.956534,-9.501899,-76.090004,-28.07,-34.439999,1729420295920.0,0.0
-1.679761,-4.500899,-8.051848,40.950001,-24.15,-21.210001,1729420295938.0,0.0
-2.273181,-0.995414,-6.680761,44.799999,-29.469999,-24.360001,1729420295959.0,0.0
-2.720639,-5.187639,-10.724631,-51.240002,-29.33,-54.040001,1729420295978.0,0.0
-1.665405,-5.103891,-12.540783,-67.269997,-64.959999,-69.860001,1729420296001.0,0.0
-1.191626,-1.363909,-14.612967,3.71,-27.719999,-51.66,1729420296020.0,0.0
-1.509871,4.524827,-12.717852,68.739998,15.33,-10.29,1729420296038.0,0.0
-1.895115,4.632504,-8.341379,60.48,32.27,42.490002,1729420296058.0,0.0
-1.789831,-0.442672,-9.444471,-14.91,42.77,61.040001,1729420296079.0,0.0
-2.273181,-4.074977,-12.435498,-20.23,48.439999,84.139999,1729420296100.0,0.0
-1.880759,-7.068398,-8.10449,26.18,47.18,91.980003,1729420296119.0,0.0
-2.268396,-8.573483,-5.07757,18.549999,53.970001,86.519997,1729420296147.0,0.0
-4.211368,-11.849257,-1.794617,-49.279999,59.360001,38.779999,1729420296158.0,0.0
-3.78066,-14.658432,-6.374479,-77.769997,12.04,-14.91,1729420296179.0,0.0
-1.864009,-12.736995,-9.994821,-15.33,-27.719999,-43.610001,1729420296201.0,0.0
-1.050449,-5.065606,-8.587841,84.419998,-8.33,-33.599998,1729420296219.0,0.0
-1.990828,-0.547956,-5.570491,82.040001,-13.86,-38.639999,1729420296239.0,0.0
-2.892922,-1.471586,-5.699703,-5.04,-37.099998,-68.669998,1729420296262.0,0.0
-3.115455,-3.163311,-9.004191,-87.43,-64.330002,-94.639999,1729420296281.0,0.0
-2.364109,-6.192625,-11.739187,-50.189999,-71.82,-91.769997,1729420296301.0,0.0
-2.155933,1.830509,-13.981262,-18.200001,-52.849998,-56.420002,1729420296320.0,0.0
-2.574677,6.111269,-12.964314,69.510002,10.36,-1.12,1729420296338.0,0.0
-2.24686,3.751946,-8.525627,54.880001,19.18,54.880001,1729420296358.0,0.0
-1.282553,-0.181855,-10.700702,8.89,36.049999,85.120003,1729420296380.0,0.0
-2.112862,-3.079563,-7.508677,11.06,39.34,107.590004,1729420296400.0,0.0
-3.625126,-6.664011,-7.506285,-12.18,63.07,102.760002,1729420296420.0,0.0
-4.68754,-9.97807,-4.409972,-26.18,48.23,87.010002,1729420296439.0,0.0
-3.436093,-11.779866,-6.518049,-73.57,6.72,46.759998,1729420296459.0,0.0
-2.581856,-14.019548,-7.489535,-67.830002,-24.5,15.54,1729420296479.0,0.0
-2.885744,-13.07199,-7.276574,-0.49,-6.58,-16.24,1729420296500.0,0.0
-3.211168,-5.630312,-8.181061,58.869999,9.52,-33.950001,1729420296519.0,0.0
-2.758924,-1.512264,-8.006385,59.920002,-27.93,-36.189999,1729420296538.0,0.0
-1.660619,-2.364109,-7.922636,-22.540001,-71.120003,-71.050003,1729420296560.0,0.0
-1.347159,-5.82413,-8.776874,-80.709999,-69.160004,-101.360001,1729420296578.0,0.0
-1.998007,-4.199404,-12.897314,-38.57,-52.150002,-98.209999,1729420296602.0,0.0
-3.168097,1.600798,-14.026726,26.389999,-7.84,-72.169998,1729420296622.0,0.0
-3.041277,6.168696,-13.189239,38.779999,4.83,-29.4,1729420296638.0,0.0
-0.674776,2.148755,-8.116454,43.959999,14.35,56.77,1729420296658.0,0.0
-0.856631,0.567099,-9.473185,17.710001,43.68,92.82,1729420296679.0,0.0
-2.892922,-1.710868,-7.700103,-5.39,62.369999,108.290001,1729420296699.0,0.0
-4.110869,-7.513463,-7.470392,-37.66,56.560001,98.910004,1729420296722.0,0.0
-4.31426,-10.954341,-5.812167,-60.900002,25.48,88.199997,1729420296738.0,0.0
-3.196811,-12.270394,-7.750352,-78.75,0.21,49.349998,1729420296758.0,0.0
-3.620341,-14.043476,-7.144968,-44.310001,-10.15,5.67,1729420296780.0,0.0
-4.622933,-9.688539,-8.130811,-6.23,10.01,-38.080002,1729420296800.0,0.0
-4.053442,-4.431508,-8.592626,39.41,-10.01,-51.799999,1729420296819.0,0.0
-2.991028,-1.840081,-9.035298,18.969999,-44.66,-69.650002,1729420296838.0,0.0
-2.48375,-2.878566,-8.831908,-45.5,-56.630001,-101.080002,1729420296864.0,0.0
-2.481357,-5.12782,-11.085947,-49.209999,-43.75,-106.330002,1729420296878.0,0.0
-3.010171,-2.490928,-12.851851,-21.98,-27.16,-98.840004,1729420296899.0,0.0
-3.007778,1.490728,-12.504892,4.41,1.4,-80.43,1729420296919.0,0.0
-1.792224,5.024928,-11.047661,29.889999,1.89,-34.299999,1729420296938.0,0.0
-0.172283,3.921836,-9.698111,44.869999,3.85,21.98,1729420296959.0,0.0
-0.397209,-0.289532,-9.164511,8.68,36.75,58.66,1729420296979.0,0.0
-1.299303,-4.096512,-7.850852,24.710001,59.920002,98.980003,1729420297000.0,0.0
-2.76371,-7.585248,-6.843473,21.91,69.230003,105.0,1729420297018.0,0.0
-4.010371,-9.731609,-5.024928,2.45,52.779999,87.709999,1729420297038.0,0.0
-4.558327,-12.710674,-4.290331,-40.599998,24.5,41.720001,1729420297058.0,0.0
-4.132405,-12.157932,-8.252845,-39.41,0.91,-3.43,1729420297078.0,0.0
-3.754339,-7.630712,-8.477771,34.439999,-10.15,-26.040001,1729420297100.0,0.0
-2.938386,-3.574877,-9.640682,54.950001,-13.79,-39.970001,1729420297119.0,0.0
-2.770889,-1.782653,-8.312666,25.549999,-36.68,-62.510002,1729420297138.0,0.0
-3.160919,-2.409572,-7.745567,-43.68,-42.700001,-89.110001,1729420297158.0,0.0
-2.684747,-4.563113,-10.851451,-53.34,-43.330002,-97.790001,1729420297178.0,0.0
-2.392823,-1.933401,-12.425928,-8.12,-41.02,-82.949997,1729420297199.0,0.0
-2.172683,1.832902,-11.550155,2.94,-15.96,-62.09,1729420297220.0,0.0
-1.387837,3.699304,-12.41875,6.58,0.77,-30.870001,1729420297238.0,0.0
-0.562313,3.189633,-10.719845,38.009998,16.59,35.279999,1729420297258.0,0.0
-0.047856,2.155933,-9.332008,48.23,35.630001,91.769997,1729420297278.0,0.0
-1.129412,-1.316052,-6.601797,34.23,52.220001,117.949997,1729420297299.0,0.0
-3.309274,-9.480364,-6.632904,-3.64,58.59,105.209999,1729420297318.0,0.0
-3.828516,-12.480963,-5.046463,-41.580002,16.59,69.090004,1729420297338.0,0.0
-3.393023,-10.518847,-6.865008,-48.509998,6.79,49.420002,1729420297358.0,0.0
-3.883551,-9.824929,-8.018349,0.7,-1.68,13.23,1729420297378.0,0.0
-5.017749,-9.430114,-7.106683,15.190001,-2.66,-21.700001,1729420297399.0,0.0
-3.917051,-4.476971,-9.339187,15.75,-26.460001,-51.450001,1729420297418.0,0.0
-3.337988,-1.071985,-9.102298,11.97,-50.540001,-68.25,1729420297437.0,0.0
-3.292524,-4.07737,-10.439885,-37.170002,-43.82,-92.540001,1729420297458.0,0.0
-2.842674,-3.952943,-10.504492,-48.23,-39.130001,-99.610001,1729420297478.0,0.0
-2.541178,-0.442672,-11.583653,-1.82,-32.900002,-85.400002,1729420297499.0,0.0
-2.321038,2.029114,-10.317852,-0.21,-17.92,-71.889999,1729420297519.0,0.0
-0.892523,4.673182,-12.696317,4.62,-4.41,-33.040001,1729420297538.0,0.0
-0.014357,2.737389,-10.9017,39.200001,12.95,38.43,1729420297558.0,0.0
-0.602991,0.588634,-8.949157,38.849998,46.060001,90.580002,1729420297578.0,0.0
-1.758725,-2.904887,-7.336394,31.43,61.529999,108.43,1729420297599.0,0.0
-2.782853,-7.501499,-6.608976,9.59,56.700001,104.510002,1729420297618.0,0.0
-3.711268,-10.951948,-3.192025,-13.65,32.200001,91.209999,1729420297649.0,0.0
-5.221139,-12.552748,-6.912865,-70.07,26.18,60.48,1729420297657.0,0.0
-4.912465,-12.617353,-8.446664,-11.83,-6.16,-11.97,1729420297678.0,0.0
-3.656233,-6.642475,-9.659825,37.029999,-24.15,-38.639999,1729420297699.0,0.0
-3.244668,-2.481357,-8.472985,52.220001,-36.119999,-49.07,1729420297723.0,0.0
-3.168097,-1.811367,-8.049455,-15.61,-47.110001,-78.260002,1729420297737.0,0.0
-2.811567,-5.587241,-11.662617,-54.18,-41.369999,-100.800003,1729420297758.0,0.0
-2.294717,-2.732604,-10.817951,-17.639999,-47.110001,-91.0,1729420297778.0,0.0
-2.215754,-0.138784,-10.293922,25.200001,-28.210001,-74.900002,1729420297799.0,0.0
-1.816152,3.182454,-13.406984,16.66,-5.18,-54.810001,1729420297818.0,0.0
-0.473779,5.300103,-13.258631,26.809999,0.49,-1.68,1729420297838.0,0.0
0.064606,1.284946,-10.016356,52.709999,19.74,63.209999,1729420297858.0,0.0
-0.835095,-0.945165,-9.611969,69.860001,59.150002,98.699997,1729420297878.0,0.0
-2.9671,-3.981657,-4.704289,45.920002,66.989998,109.760002,1729420297899.0,0.0
-4.350152,-8.298308,-6.888937,-37.73,70.07,84.910004,1729420297918.0,0.0
-4.445865,-11.720046,-5.185246,-38.360001,29.960001,73.43,1729420297938.0,0.0
-4.019942,-9.865608,-6.537192,-43.889999,0.42,38.779999,1729420297958.0,0.0
-3.804588,-9.092726,-9.095119,-18.620001,4.83,19.809999,1729420297979.0,0.0
-3.988836,-7.166504,-7.534998,9.31,-8.26,-22.960001,1729420297999.0,0.0
-3.548556,-4.76411,-7.405786,-1.26,-29.469999,-56.420002,1729420298018.0,0.0
-2.632105,-3.158526,-10.286745,-23.379999,-50.75,-87.150002,1729420298038.0,0.0
-2.28036,-4.740182,-8.908479,-40.670002,-56.420002,-105.559998,1729420298059.0,0.0
-2.684747,-3.694518,-11.854043,-25.129999,-29.120001,-106.959999,1729420298079.0,0.0
-3.256632,0.629312,-11.263017,9.45,-5.25,-82.389999,1729420298099.0,0.0
-2.289931,3.388237,-11.925828,13.16,-12.95,-52.709999,1729420298118.0,0.0
-0.803988,3.412165,-11.267801,24.15,-3.99,-9.38,1729420298138.0,0.0
-0.165105,1.899901,-9.408579,35.91,18.620001,38.080002,1729420298158.0,0.0
-1.287339,0.337388,-9.784252,37.799999,45.43,77.699997,1729420298186.0,0.0
-2.378466,-0.581456,-7.606783,25.83,56.84,101.150002,1729420298198.0,0.0
-3.349952,-5.769095,-7.922636,-28.35,61.459999,98.0,1729420298219.0,0.0
-4.268795,-10.894521,-4.405186,-35.84,39.549999,86.029999,1729420298238.0,0.0
-3.842873,-9.032906,-6.788438,-72.239998,12.95,62.299999,1729420298258.0,0.0
-4.828716,-12.607781,-6.257231,-42.349998,-6.72,23.52,1729420298279.0,0.0
-4.438686,-8.982656,-9.645468,-18.620001,-6.79,-35.700001,1729420298300.0,0.0
-4.063013,-3.570091,-9.243474,14.35,-27.51,-56.490002,1729420298319.0,0.0
-3.909872,-3.002992,-9.767502,-15.47,-31.219999,-77.699997,1729420298339.0,0.0
-2.388037,-4.26401,-11.370694,-36.259998,-46.34,-95.059998,1729420298413.0,0.0
-1.732404,-4.575077,-10.530812,-21.629999,-42.77,-88.550003,1729420298414.0,0.0
-1.964507,-4.053442,-10.810772,-3.01,-19.67,-97.580002,1729420298414.0,0.0
-2.732604,0.038285,-10.786844,25.690001,5.18,-87.779999,1729420298432.0,0.0
-2.158326,1.990828,-9.856036,29.26,-7.0,-61.529999,1729420298450.0,0.0
0.160319,4.402793,-11.892329,27.02,-12.25,-19.18,1729420298460.0,0.0
1.411765,2.76371,-11.119448,57.260002,10.64,40.880001,1729420298479.0,0.0
-0.282353,0.239282,-9.695717,70.349998,63.0,92.050003,1729420298500.0,0.0
-2.957529,-4.237689,-5.230711,64.260002,84.279999,109.970001,1729420298520.0,0.0
-4.548756,-6.661618,-6.02752,-13.93,76.090004,95.760002,1729420298540.0,0.0
-4.725825,-9.980463,-3.524628,-37.73,28.07,83.230003,1729420298559.0,0.0
-4.465007,-9.119047,-7.233503,-72.730003,11.41,62.93,1729420298578.0,0.0
-4.347759,-11.030912,-9.466006,-27.790001,0.35,35.98,1729420298600.0,0.0
-4.235296,-7.396214,-8.441878,6.3,-8.61,-8.05,1729420298620.0,0.0
-3.038885,-3.134598,-8.886944,28.35,-35.91,-44.799999,1729420298642.0,0.0
-2.423929,-2.11047,-9.523434,-16.450001,-52.150002,-69.160004,1729420298659.0,0.0
-2.321038,-6.30748,-10.535598,-39.130001,-39.830002,-93.449997,1729420298679.0,0.0
-2.48375,-5.960521,-10.980663,-32.759998,-30.870001,-107.449997,1729420298699.0,0.0
-2.282753,-2.120041,-9.987641,16.309999,-15.82,-98.840004,1729420298723.0,0.0
-1.473979,2.37368,-11.708081,18.690001,-16.379999,-87.849998,1729420298738.0,0.0
-0.267996,3.328416,-12.3685,10.22,-7.49,-51.73,1729420298759.0,0.0
0.653241,2.656033,-11.030912,12.25,5.6,-3.92,1729420298780.0,0.0
0.327817,-1.368695,-10.533205,24.99,38.220001,34.580002,1729420298800.0,0.0
-0.66999,-5.596812,-8.097312,60.060001,57.75,60.830002,1729420298819.0,0.0
-2.239682,-6.716653,-4.886144,66.220001,60.830002,73.57,1729420298845.0,0.0
-4.508078,-9.188439,-4.479364,16.52,55.510002,46.27,1729420298859.0,0.0
-4.84068,-8.276773,-6.305088,-11.62,31.780001,39.41,1729420298878.0,0.0
-3.323631,-5.860023,-8.611769,-0.77,-9.45,41.23,1729420298904.0,0.0
-2.565106,-4.833502,-9.066404,-16.799999,-11.48,39.34,1729420298920.0,0.0
-2.622534,-4.048656,-8.432307,-34.09,-19.74,27.93,1729420298938.0,0.0
-2.541178,-7.216753,-6.589834,-21.210001,-33.670002,-19.25,1729420298960.0,0.0
-3.529413,-6.446264,-8.525627,6.3,-21.49,-47.18,1729420298978.0,0.0
-4.261617,-4.663611,-10.265208,-19.809999,-21.559999,-68.809998,1729420299001.0,0.0
-3.28056,-2.368894,-11.799009,-30.309999,-29.049999,-74.830002,1729420299020.0,0.0
-1.694118,0.150748,-12.638889,-17.360001,-38.779999,-60.27,1729420299038.0,0.0
-0.392423,1.684547,-12.507284,-17.360001,-19.18,-33.950001,1729420299062.0,0.0
-0.004786,0.629312,-8.652447,12.18,11.34,0.35,1729420299089.0,0.0
-0.236889,-0.378066,-7.69771,2.8,23.73,26.460001,1729420299122.0,0.0
-1.284946,1.718047,-9.784252,-12.39,28.49,46.759998,1729420299132.0,0.0
-2.055435,-0.40678,-8.721838,-31.57,30.1,76.230003,1729420299243.0,0.0
-2.871387,-6.71426,-10.102496,-57.470001,45.709999,87.43,1729420299244.0,0.0
-4.496114,-10.382458,-4.943572,-55.369999,41.580002,92.190002,1729420299244.0,0.0
-4.742575,-10.181459,-4.811966,-40.040001,11.76,56.91,1729420299244.0,0.0
-4.139583,-8.386844,-8.595018,-59.920002,-5.81,12.6,1729420299244.0,0.0
-3.59402,-10.042676,-9.674182,-23.870001,-13.440001,-7.0,1729420299244.0,0.0
-3.002992,-6.209375,-10.523634,-0.21,-2.1,-17.5,1729420299258.0,0.0
-3.28056,-3.859623,-10.49492,33.110001,-4.69,-29.120001,1729420299277.0,0.0
-3.050849,-3.917051,-9.482756,1.96,-15.47,-59.709999,1729420299298.0,0.0
-1.397408,-4.56072,-10.037891,5.04,-31.85,-72.029999,1729420299318.0,0.0
-1.107877,-6.905686,-10.533205,1.75,-16.1,-82.529999,1729420299337.0,0.0
-1.79701,-4.168297,-10.896914,3.08,16.52,-95.760002,1729420299357.0,0.0
-1.799403,1.452443,-9.245867,50.82,23.450001,-72.029999,1729420299378.0,0.0
-0.739382,6.228518,-10.554741,76.510002,9.24,-21.559999,1729420299398.0,0.0
0.433101,5.151747,-9.980463,52.849998,8.68,29.4,1729420299418.0,0.0
0.131605,1.229911,-9.535398,18.969999,43.119999,63.490002,1729420299437.0,0.0
-2.452643,-2.993421,-5.783452,18.200001,65.590004,90.019997,1729420299457.0,0.0
-3.95055,-5.69731,-6.235696,-16.450001,59.43,76.580002,1729420299478.0,0.0
-4.465007,-7.546963,-7.257431,-42.139999,27.16,84.349998,1729420299500.0,0.0
-4.055835,-8.975478,-8.310273,-44.380001,5.88,71.889999,1729420299518.0,0.0
-4.438686,-11.748759,-7.688138,-14.98,1.26,39.41,1729420299538.0,0.0
-4.381258,-9.126225,-7.317252,-1.75,-7.07,-5.88,1729420299558.0,0.0
-3.156133,-6.049056,-9.176475,40.32,-28.42,-25.83,1729420299577.0,0.0
-1.902294,-3.18724,-9.999605,18.059999,-48.93,-52.220001,1729420299599.0,0.0
-1.524228,-4.175476,-9.860823,-34.23,-50.82,-80.290001,1729420299618.0,0.0
-1.706082,-4.268795,-10.767702,-14.21,-25.549999,-99.470001,1729420299637.0,0.0
-1.765903,1.813759,-11.10509,32.759998,-14.0,-69.720001,1729420299657.0,0.0
-0.5001,7.360322,-11.574083,48.299999,-15.26,-29.049999,1729420299678.0,0.0
0.736989,3.311667,-10.303494,57.400002,-1.61,40.599998,1729420299698.0,0.0
-0.294317,0.413958,-9.487542,22.68,30.870001,79.169998,1729420299720.0,0.0
-2.17029,-2.033899,-7.676175,7.42,55.23,96.529999,1729420299737.0,0.0
-3.605984,-5.793024,-8.922836,-32.759998,51.310001,86.169998,1729420299757.0,0.0
-3.945765,-8.752945,-5.716454,-64.959999,22.68,84.769997,1729420299777.0,0.0
-3.787838,-10.9352,-6.072984,-67.059998,1.4,69.650002,1729420299800.0,0.0
-5.252246,-13.51227,-5.998806,-23.24,0.49,33.950001,1729420299817.0,0.0
-4.651647,-11.052447,-10.987842,-13.65,-0.7,-16.030001,1729420299837.0,0.0
-3.416951,-6.479764,-9.236296,24.43,-32.900002,-56.77,1729420299857.0,0.0
-2.330609,-4.220939,-10.688738,-9.17,-41.580002,-87.779999,1729420299877.0,0.0
-1.730011,-4.814359,-10.468598,-36.259998,-43.189999,-112.419998,1729420299899.0,0.0
-2.440679,-5.295317,-11.997612,-27.09,-15.82,-117.599998,1729420299919.0,0.0
-3.09392,-1.265803,-11.030912,22.4,5.32,-108.290001,1729420299937.0,0.0
-1.088734,4.871787,-11.499906,34.650002,0.35,-78.470001,1729420299957.0,0.0
0.646062,2.467,-10.277173,39.970001,-0.98,-8.19,1729420299978.0,0.0
1.375873,-0.035892,-8.250452,56.490002,20.02,33.32,1729420299999.0,0.0
-0.165105,0.349352,-7.427321,83.580002,55.720001,69.090004,1729420300017.0,0.0
-2.696711,-2.35693,-3.842873,42.84,65.099998,84.489998,1729420300037.0,0.0
-4.278367,-8.173882,-3.816552,-50.330002,54.25,64.190002,1729420300058.0,0.0
-4.649254,-10.449455,-6.273981,-74.830002,21.84,62.369999,1729420300079.0,0.0
-3.529413,-8.891729,-11.956935,-71.540001,-19.18,52.709999,1729420300104.0,0.0
-3.431308,-10.939985,-9.990034,-10.36,-28.49,27.02,1729420300121.0,0.0
-4.058227,-8.262416,-9.640682,5.67,-9.8,-34.650002,1729420300140.0,0.0
-4.04387,-6.183054,-8.382057,35.91,-18.76,-65.449997,1729420300158.0,0.0
-2.854637,-2.672783,-10.916058,2.45,-43.470001,-88.410004,1729420300178.0,0.0
-1.887937,-1.081556,-11.870793,-21.07,-39.27,-96.459999,1729420300198.0,0.0
-1.270589,-0.667598,-10.279566,2.17,-17.99,-75.25,1729420300226.0,0.0
0.375673,3.395415,-11.74158,41.09,-9.8,-38.5,1729420300238.0,0.0
2.005185,5.314459,-10.368099,75.110001,-15.4,19.530001,1729420300257.0,0.0
0.528814,-0.48335,-8.54477,21.98,2.8,47.040001,1729420300280.0,0.0
-2.892922,-3.991228,-5.864808,-9.73,65.449997,78.959999,1729420300298.0,0.0
-5.230711,-4.816752,-9.600004,-43.540001,63.349998,80.5,1729420300318.0,0.0
-6.58744,-7.74796,-8.245667,-28.49,43.82,105.0,1729420300339.0,0.0
-6.642475,-6.362515,-8.805587,-31.08,28.77,87.220001,1729420300359.0,0.0
-5.666204,-9.332008,-8.729016,-9.38,18.48,80.779999,1729420300381.0,0.0
-3.536592,-8.870193,-8.705089,49.209999,2.73,52.779999,1729420300401.0,0.0
-2.088934,-6.039484,-6.79083,65.169998,-4.48,49.91,1729420300419.0,0.0
-1.557728,-7.274181,-11.303694,106.400002,-8.26,47.110001,1729420300439.0,0.0
-1.68694,-6.860222,-9.375079,146.020004,13.09,43.049999,1729420300462.0,0.0
-2.507678,-6.161518,-6.757331,195.300003,34.439999,56.420002,1729420300479.0,0.0
-2.026721,-11.006985,-9.611969,332.5,40.810001,55.09,1729420300502.0,0.0
-0.698704,-12.579069,-9.755538,494.480011,-3.5,81.830002,1729420300520.0,0.0
0.064606,-12.234503,-6.965507,637.559998,-25.549999,112.489998,1729420300538.0,0.0
1.196411,-10.817951,-9.942179,702.869995,-17.5,86.660004,1729420300558.0,0.0
0.981057,-7.597212,-4.130012,722.75,6.86,76.93,1729420300578.0,0.0
-0.772882,-6.951149,-2.909672,741.090027,45.709999,67.269997,1729420300602.0,0.0
-2.756532,-7.353144,-1.464408,728.97998,94.5,27.58,1729420300621.0,0.0
-5.166104,-5.546563,2.536392,670.460022,103.389999,31.08,1729420300639.0,0.0
-8.236095,-2.148755,9.353544,560.419983,57.470001,40.389999,1729420300659.0,0.0
-7.245467,2.019542,10.509278,382.130005,8.54,-16.24,1729420300679.0,0.0
-5.292924,0.447458,7.099504,135.240005,-15.26,-36.119999,1729420300701.0,0.0
-5.118248,-5.292924,4.936393,15.68,-29.26,-67.059998,1729420300723.0,0.0
-4.515256,-5.848059,4.558327,82.879997,-23.450001,-63.560001,1729420300740.0,0.0
-5.254639,-2.091327,7.04447,153.649994,18.620001,-46.900002,1729420300762.0,0.0
-6.372087,-0.244068,7.077969,118.93,44.029999,-41.16,1729420300782.0,0.0
-5.639884,3.201597,7.558927,72.379997,20.51,-25.200001,1729420300803.0,0.0
-3.395415,5.075177,7.01097,14.84,-26.110001,-13.23,1729420300824.0,0.0
-2.938386,-0.401994,7.113862,-43.959999,-27.93,-7.56,1729420300840.0,0.0
-3.574877,-3.974478,6.216553,-33.389999,4.48,0.56,1729420300860.0,0.0
-3.268596,0.411566,6.867401,25.27,7.21,22.610001,1729420300881.0,0.0
-3.385844,-2.715853,8.953942,2.24,0.07,35.420002,1729420300903.0,0.0
-5.328816,-8.690732,8.786445,-26.950001,12.88,25.83,1729420300921.0,0.0
-7.826923,-13.411771,10.114462,23.59,26.18,7.63,1729420300945.0,0.0
-7.752745,-4.974678,9.623933,91.910004,14.0,-4.34,1729420300961.0,0.0
-5.694918,0.275175,8.678767,39.34,-13.65,-28.42,1729420300980.0,0.0
-4.371687,-4.065405,6.02752,-61.670002,-28.630001,-62.369999,1729420301002.0,0.0
-3.591627,-0.509671,8.331808,0.56,-19.18,-53.130001,1729420301021.0,0.0
-4.505685,3.759124,10.212566,35.84,6.16,-31.360001,1729420301041.0,0.0
-5.489135,3.56052,8.317451,-16.379999,25.83,-22.68,1729420301060.0,0.0
-3.766303,2.651247,5.410172,-55.510002,-11.55,1.82,1729420301080.0,0.0
-1.909473,-0.591027,6.805188,-56.98,-51.939999,18.41,1729420301100.0,0.0
-3.285345,-3.321238,8.130811,-42.07,-4.97,16.940001,1729420301121.0,0.0
-5.833702,-1.002593,6.910471,-14.35,53.760002,37.939999,1729420301140.0,0.0
-5.125426,-0.337388,7.094719,-8.89,5.39,49.490002,1729420301160.0,0.0
-2.629712,-2.589034,7.365108,-43.68,-50.889999,53.549999,1729420301180.0,0.0
-8.80798,-11.983256,10.389636,-51.939999,-49.630001,42.84,1729420301202.0,0.0
0.933201,-9.267403,13.58884,28.07,-117.110001,17.219999,1729420301220.0,0.0
2.976671,-1.318445,10.490135,30.59,-33.32,-47.18,1729420301240.0,0.0
-4.070191,-1.368695,9.887143,-3.64,129.639999,-53.34,1729420301260.0,0.0
-8.056634,-5.111069,6.324231,-50.75,150.080002,-67.830002,1729420301280.0,0.0
-7.805387,0.315853,8.595018,63.98,51.310001,-33.740002,1729420301301.0,0.0
-5.328816,3.787838,8.475377,70.980003,-19.530001,-23.309999,1729420301320.0,0.0
-2.589034,1.270589,6.611369,-27.299999,-32.48,-34.439999,1729420301339.0,0.0
-1.887937,-0.416351,6.132804,-59.779999,-42.98,-14.56,1729420301360.0,0.0
-2.148755,-0.040678,9.425328,-5.95,-13.65,1.68,1729420301380.0,0.0
-3.716053,-0.248854,8.032705,-15.12,17.57,26.460001,1729420301399.0,0.0
-3.395415,-1.727618,4.969893,-36.610001,5.32,36.610001,1729420301420.0,0.0
-1.665405,-1.536192,3.847659,-33.670002,-30.309999,51.59,1729420301439.0,0.0
-2.038685,-3.081956,5.242674,-34.650002,-12.11,52.779999,1729420301458.0,0.0
-5.87438,-10.583455,10.497313,-4.83,28.49,36.400002,1729420301479.0,0.0
-22.492533,-11.889936,10.368099,54.810001,31.780001,18.549999,1729420301499.0,0.0
-0.011964,-5.721239,12.490535,100.660004,-193.479996,46.34,1729420301519.0,0.0
3.529413,1.825724,11.420943,30.66,-38.009998,-58.799999,1729420301539.0,0.0
-5.525027,-4.869394,6.723832,-98.489998,140.979996,-53.27,1729420301558.0,0.0
-7.467999,-2.462214,7.793423,18.690001,86.449997,-29.26,1729420301578.0,0.0
-5.218746,2.426322,8.039884,60.619999,-17.99,-2.66,1729420301601.0,0.0
-1.634298,2.732604,6.393622,-7.49,-47.389999,-15.47,1729420301620.0,0.0
-0.562313,0.382852,7.628319,-47.389999,-42.77,-2.59,1729420301640.0,0.0
-1.986043,-2.70389,7.805387,-43.75,3.29,-1.68,1729420301660.0,0.0
-4.017549,-2.151148,5.111069,-22.75,53.130001,20.790001,1729420301680.0,0.0
-3.9338,0.684347,3.914658,-5.95,28.77,40.810001,1729420301701.0,0.0
-2.825923,0.993021,4.175476,-31.15,-9.45,45.990002,1729420301726.0,0.0
-12.110075,-10.80838,10.590633,-35.279999,1.26,28.35,1729420301740.0,0.0
-7.834101,-12.856635,11.916256,21.280001,-206.919998,-8.54,1729420301760.0,0.0
9.284152,-3.907479,14.069797,101.989998,-142.660004,65.519997,1729420301780.0,0.0
-2.26361,-1.275374,11.330014,4.76,111.020004,-57.889999,1729420301800.0,0.0
-6.530013,-2.610569,7.822137,-54.810001,209.020004,-21.280001,1729420301820.0,0.0
-9.186047,-3.129812,6.9009,-18.620001,126.209999,-41.439999,1729420301840.0,0.0
-6.046663,1.512264,7.255038,26.880001,-12.6,-21.91,1729420301859.0,0.0
-1.217947,1.442872,6.9009,9.03,-83.019997,-22.82,1729420301880.0,0.0
-0.29671,0.107677,5.826523,-36.119999,-25.549999,-8.33,1729420301901.0,0.0
-2.557927,-1.445265,8.015956,-17.639999,13.02,5.88,1729420301920.0,0.0
-4.398008,-0.894916,6.630512,-28.98,42.91,18.83,1729420301939.0,0.0
-4.350152,0.074178,4.881358,-35.07,22.4,41.509998,1729420301960.0,0.0
-3.022135,-1.519442,4.744967,-50.330002,-18.690001,57.82,1729420301980.0,0.0
-13.756337,-10.545169,9.305687,-25.200001,-7.42,45.150002,1729420302001.0,0.0
-9.06162,-15.156138,14.677574,45.709999,-206.149994,-4.34,1729420302020.0,0.0
7.578069,-4.228118,12.189038,62.580002,-150.430008,62.580002,1729420302039.0,0.0
-0.899701,-2.524428,9.573684,1.68,61.599998,-38.639999,1729420302059.0,0.0
-4.036692,-2.438286,7.408179,-13.3,161.559998,-39.549999,1729420302080.0,0.0
-8.090133,-2.9671,7.826923,17.360001,154.350006,-38.220001,1729420302102.0,0.0
-6.869793,-0.138784,7.640282,45.009998,50.959999,-48.16,1729420302120.0,0.0
-3.905087,-0.052642,9.111869,21.07,-52.709999,-33.110001,1729420302139.0,0.0
-1.677369,-0.141177,7.006185,-30.940001,-40.950001,-21.35,1729420302159.0,0.0
-1.272982,1.828116,5.85763,-26.880001,-12.18,-9.52,1729420302179.0,0.0
-2.572284,0.248854,6.290731,-15.61,6.23,2.1,1729420302201.0,0.0
-4.352544,-1.079163,5.814559,-20.860001,28.35,14.07,1729420302220.0,0.0
-3.194418,1.940579,3.828516,-15.190001,6.65,44.52,1729420302239.0,0.0
-2.813959,-3.675375,6.175875,-28.210001,-5.46,46.41,1729420302260.0,0.0
-23.995224,-14.928822,5.850451,-39.41,4.34,41.860001,1729420302281.0,0.0
6.783652,-8.846266,17.64946,82.389999,-249.830002,-1.26,1729420302301.0,0.0
-2.249253,-5.343173,16.601404,23.379999,30.309999,59.57,1729420302320.0,0.0
-3.431308,-4.462614,10.095319,-47.740002,56.700001,-25.76,1729420302339.0,0.0
-5.113462,-3.926622,7.532606,-3.29,143.289993,-34.790001,1729420302359.0,0.0
-10.399208,-4.919643,5.340781,11.9,143.639999,-53.689999,1729420302380.0,0.0
-7.226324,-1.545763,5.709275,50.470001,-1.54,-54.880001,1729420302400.0,0.0
-2.242075,1.143769,9.887143,58.73,-118.020004,-41.720001,1729420302420.0,0.0
0.009571,4.072584,9.590433,14.84,-79.029999,-26.880001,1729420302439.0,0.0
-0.382852,1.976472,4.694718,-69.510002,-6.09,-11.83,1729420302460.0,0.0
-2.514857,-2.761317,3.416951,-71.400002,32.759998,-7.56,1729420302479.0,0.0
-3.804588,-3.017349,3.711268,-24.219999,39.830002,4.48,1729420302501.0,0.0
-2.928815,1.751546,3.730411,21.98,24.639999,30.66,1729420302520.0,0.0
-2.019542,4.599005,3.914658,-0.84,13.86,48.650002,1729420302539.0,0.0
-12.409179,-15.077175,9.310472,-57.68,45.639999,35.77,1729420302559.0,0.0
-13.265808,-14.321043,12.169895,72.309998,-70.489998,2.73,1729420302578.0,0.0
6.52762,-0.133998,15.830914,149.029999,-187.389999,56.0,1729420302602.0,0.0
0.145962,-0.569492,12.342178,-11.27,71.190002,-64.75,1729420302621.0,0.0
-5.924629,-6.314659,7.700103,-100.449997,148.960007,-32.549999,1729420302639.0,0.0
-9.375079,-7.460821,6.802795,-12.95,144.619995,-55.299999,1729420302660.0,0.0
-8.181061,1.371087,7.537392,79.660004,20.790001,-19.040001,1729420302680.0,0.0
-4.079762,2.376073,9.506684,38.5,-83.440002,-25.27,1729420302700.0,0.0
-1.050449,0.351745,6.082555,-59.150002,-82.949997,-27.51,1729420302723.0,0.0
-0.409173,1.184447,4.09412,-53.760002,-28.559999,-7.35,1729420302746.0,0.0
-2.215754,0.445065,5.276174,-15.47,0.98,14.28,1729420302759.0,0.0
-3.919443,-1.615155,5.108676,-15.82,31.780001,21.84,1729420302781.0,0.0
-4.125226,0.157926,4.443472,-15.33,31.99,39.41,1729420302801.0,0.0
-4.266403,-0.624527,7.41775,-17.43,4.62,65.660004,1729420302820.0,0.0
-19.551754,-13.466805,9.647861,-38.990002,8.05,41.299999,1729420302839.0,0.0
-5.108676,-11.64826,13.296914,59.639999,-222.949997,14.7,1729420302860.0,0.0
-1.521835,-2.861816,12.569498,20.860001,41.09,7.77,1729420302880.0,0.0
-3.455236,-6.314659,8.556733,-88.760002,80.709999,-49.490002,1729420302900.0,0.0
-4.98425,-6.833901,6.513263,-39.34,152.180008,-63.560001,1729420302921.0,0.0
-8.556733,-4.182654,6.757331,45.360001,121.239998,-42.91,1729420302940.0,0.0
-7.034898,0.978664,8.477771,70.980003,3.22,-27.719999,1729420302960.0,0.0
-3.644269,0.382852,7.874779,1.19,-61.950001,-44.66,1729420302981.0,0.0
-1.648655,1.232304,6.003592,-33.25,-49.84,-32.34,1729420303001.0,0.0
-1.612763,1.864009,5.453243,-26.74,-22.4,0.7,1729420303021.0,0.0
-2.538785,-1.225125,4.393222,-32.619999,4.27,2.38,1729420303040.0,0.0
-3.885944,-2.122434,4.67079,-7.98,27.370001,17.290001,1729420303060.0,0.0
-3.196811,0.880559,5.745167,21.35,14.14,34.580002,1729420303080.0,0.0
-2.500499,0.856631,6.276374,-9.73,-10.01,51.099998,1729420303102.0,0.0
-5.517848,-10.214959,11.531013,-26.809999,9.45,34.439999,1729420303122.0,0.0
-20.87977,-15.948163,8.69791,19.460001,-9.45,17.5,1729420303140.0,0.0
3.196811,-6.728617,14.900107,148.539993,-204.610001,43.189999,1729420303161.0,0.0
-4.843073,-5.228317,13.265808,55.439999,48.580002,-70.07,1729420303180.0,0.0
-10.167104,-7.690532,5.871986,-61.040001,165.970001,-70.419998,1729420303202.0,0.0
-7.578069,-0.31346,7.283752,34.509998,-10.5,-58.939999,1729420303225.0,0.0
-2.29711,2.971886,6.24766,20.440001,-130.199997,-37.310001,1729420303243.0,0.0
0.617348,2.148755,5.405386,-33.740002,-95.550003,-38.43,1729420303261.0,0.0
0.801596,3.661019,4.381258,-20.58,-10.43,-20.16,1729420303284.0,0.0
-1.134198,3.007778,6.266802,-10.78,31.639999,0.42,1729420303302.0,0.0
-2.711068,-0.368495,4.496114,-64.260002,59.920002,9.66,1729420303324.0,0.0
-3.65384,-2.596212,4.125226,-60.130001,63.349998,26.880001,1729420303343.0,0.0
-5.000999,-3.108276,7.67139,-15.96,35.91,61.110001,1729420303417.0,0.0
-7.539784,-7.360322,9.844072,-15.68,45.709999,58.59,1729420303417.0,0.0
-20.472992,-15.247066,9.152546,-11.06,50.049999,10.57,1729420303417.0,0.0
-4.003192,-9.157332,12.172288,68.809998,-204.399994,21.210001,1729420303425.0,0.0
5.187639,-2.584249,12.459428,55.369999,-174.089996,44.869999,1729420303442.0,0.0
-0.9667,-2.323431,12.437892,-4.55,54.810001,-28.210001,1729420303465.0,0.0
-8.468199,-4.429115,6.151947,-55.93,149.240005,-13.72,1729420303481.0,0.0
-8.633304,-4.031906,4.031906,-16.73,67.269997,-44.73,1729420303502.0,0.0
-4.898108,-0.732204,5.95095,36.189999,-63.560001,-27.51,1729420303522.0,0.0
-1.277767,2.347359,7.716853,26.530001,-89.739998,-25.48,1729420303541.0,0.0
0.260818,2.191825,7.192825,-21.0,-50.610001,-4.97,1729420303561.0,0.0
-1.153341,-2.038685,7.67139,-40.110001,5.95,-1.68,1729420303581.0,0.0
-3.536592,-4.048656,4.864608,-41.650002,62.09,4.41,1729420303602.0,0.0
-4.287938,-1.708475,3.242275,-2.87,55.369999,23.940001,1729420303627.0,0.0
-2.95035,0.971486,4.974678,10.78,-6.44,48.790001,1729420303641.0,0.0
-2.361716,-2.514857,7.793423,-17.5,-17.360001,62.299999,1729420303661.0,0.0
-26.9049,-17.967705,10.100104,-8.54,23.73,30.17,1729420303681.0,0.0
2.311467,-7.735995,16.110876,118.790001,-210.910004,20.16,1729420303702.0,0.0
1.617548,-3.115455,12.222539,70.699997,20.09,29.049999,1729420303725.0,0.0
-5.76431,-4.388437,9.801002,-45.220001,184.940002,-74.059998,1729420303741.0,0.0
-11.85165,-8.085347,5.4341,-87.709999,214.130005,-49.349998,1729420303761.0,0.0
-9.858429,-3.881158,6.039484,26.18,19.6,-39.48,1729420303781.0,0.0
-3.871587,0.911665,7.097112,63.0,-124.389999,-22.540001,1729420303802.0,0.0
0.57667,1.148555,6.04427,6.58,-122.779999,-27.02,1729420303822.0,0.0
-0.035892,1.103091,5.4006,-34.09,-1.96,-10.99,1729420303841.0,0.0
-2.701497,-0.397209,5.888737,-22.75,51.170002,-5.39,1729420303861.0,0.0
-4.625326,-0.380459,4.603791,-20.09,73.989998,16.309999,1729420303882.0,0.0
-4.240082,1.430908,3.795017,-11.76,45.920002,38.920002,1729420303903.0,0.0
-3.919443,-1.634298,5.807381,-34.09,4.27,47.810001,1729420303922.0,0.0
-7.793423,-12.30868,11.643474,-12.88,33.599998,27.719999,1729420303943.0,0.0
-17.163717,-11.973685,10.954341,59.290001,-5.6,19.18,1729420303961.0,0.0
-0.299103,-2.921637,14.313866,137.410004,-168.0,48.790001,1729420303982.0,0.0
-0.31346,-0.792024,11.464014,-0.84,8.82,-48.23,1729420304004.0,0.0
-5.989235,-6.273981,8.516055,-87.360001,85.540001,-32.970001,1729420304023.0,0.0
-7.728817,-6.673582,4.692325,-42.98,89.25,-47.32,1729420304040.0,0.0
-6.491727,-1.710868,6.290731,56.84,-14.7,-18.549999,1729420304062.0,0.0
-3.704089,-0.205783,6.745367,39.48,-81.059998,-28.280001,1729420304082.0,0.0
-0.952343,1.251446,5.740381,5.46,-67.129997,-31.99,1729420304103.0,0.0
-0.205783,2.428715,4.675575,-14.84,-36.119999,-4.76,1729420304122.0,0.0
-1.72044,-0.351745,6.719046,-9.1,8.12,1.4,1729420304140.0,0.0
-5.429315,-2.471786,4.649254,-14.77,87.360001,10.5,1729420304160.0,0.0
-5.446064,-0.782453,4.331009,-6.37,54.040001,27.51,1729420304182.0,0.0
-4.819145,-2.438286,7.21436,-8.4,-7.21,36.75,1729420304203.0,0.0
-6.26441,-8.042276,10.356135,-4.06,23.66,32.619999,1729420304221.0,0.0
-17.687746,-12.957134,10.090532,17.780001,62.23,8.68,1729420304241.0,0.0
-5.407779,-4.601398,13.509877,100.870003,-113.889999,23.379999,1729420304261.0,0.0
0.552742,0.413958,11.538191,40.32,-94.849998,-4.62,1729420304282.0,0.0
-2.909672,-2.971886,10.159925,-51.52,38.779999,-24.85,1729420304306.0,0.0
-6.302694,-6.757331,5.663811,-83.300003,101.5,-42.0,1729420304322.0,0.0
-7.338787,-4.331009,5.74756,14.0,53.27,-30.450001,1729420304340.0,0.0
-5.245068,0.894916,6.759724,69.370003,-50.470001,-9.17,1729420304362.0,0.0
-1.67019,3.034099,6.498906,32.549999,-74.480003,-17.01,1729420304381.0,0.0
-0.040678,1.083949,5.996413,-29.68,-54.040001,-5.25,1729420304403.0,0.0
-1.033699,-2.675175,7.197611,-36.82,4.55,-5.11,1729420304423.0,0.0
-4.189832,-3.20399,6.474977,-18.969999,67.830002,7.0,1729420304441.0,0.0
-5.938986,-0.492921,4.388437,-6.72,82.110001,27.16,1729420304461.0,0.0
-3.921836,-0.0335,3.964907,-27.299999,21.98,39.200001,1729420304481.0,0.0
-11.349157,-12.172288,11.894722,-16.030001,-7.56,31.780001,1729420304503.0,0.0
-11.832507,-11.68176,14.163116,61.040001,-155.190002,25.48,1729420304521.0,0.0
4.969893,-1.421337,14.366508,122.989998,-144.830002,58.869999,1729420304543.0,0.0
-1.701297,-0.753739,10.485349,-10.43,120.889999,-83.860001,1729420304561.0,0.0
-9.243474,-6.381658,5.860023,-112.489998,196.210007,-42.84,1729420304580.0,0.0
-8.796017,-4.948357,5.580062,-14.91,69.019997,-58.73,1729420304603.0,0.0
-4.426722,0.600598,7.338787,69.370003,-97.93,-7.56,1729420304622.0,0.0
-0.267996,1.445265,6.199803,21.700001,-107.029999,-29.75,1729420304641.0,0.0
0.504886,0.698704,4.462614,-38.360001,-41.02,-18.76,1729420304662.0,0.0
-1.464408,1.141376,6.271588,-22.469999,27.299999,-2.1,1729420304682.0,0.0
-4.555934,0.138784,6.608976,-14.07,60.900002,18.969999,1729420304701.0,0.0
-5.13739,0.117248,3.964907,-31.5,71.330002,30.73,1729420304724.0,0.0
-4.541577,-1.119841,4.859823,-37.029999,17.219999,50.049999,1729420304740.0,0.0
-5.517848,-5.067998,6.920043,-47.25,7.63,51.52,1729420304762.0,0.0
-25.270599,-16.366907,9.475577,-3.15,46.34,21.98,1729420304788.0,0.0
7.360322,-1.557728,15.311671,133.699997,-254.380005,22.82,1729420304804.0,0.0
0.985843,-1.732404,11.653046,3.99,51.450001,-35.0,1729420304823.0,0.0
-6.549156,-5.362316,8.571091,-75.110001,166.180008,-47.18,1729420304842.0,0.0
-10.490135,-6.575477,6.104091,-36.259998,163.240005,-47.740002,1729420304862.0,0.0
-8.73141,-2.021935,5.608776,43.540001,3.22,-24.08,1729420304881.0,0.0
-3.936193,-0.59342,7.056434,45.220001,-100.099998,-37.310001,1729420304905.0,0.0
-1.572084,-1.210768,7.008578,4.76,-81.340004,-41.720001,1729420304922.0,0.0
-1.088734,0.524028,5.912664,-9.8,-20.790001,-33.880001,1729420304942.0,0.0
-1.261017,3.775874,5.254639,-5.11,3.57,-2.52,1729420304962.0,0.0
-2.404787,0.806381,5.742774,-30.66,6.93,7.35,1729420304982.0,0.0
-3.682554,-1.708475,4.091727,-46.060001,53.900002,10.5,1729420305004.0,0.0
-4.429115,0.045464,3.756732,-19.389999,59.709999,35.630001,1729420305025.0,0.0
-4.584648,-0.100499,6.26441,-26.74,24.15,53.830002,1729420305043.0,0.0
-6.896115,-8.944371,10.018748,-38.779999,38.220001,53.970001,1729420305063.0,0.0
-33.458839,-18.95594,8.886944,4.27,40.25,14.21,1729420305083.0,0.0
6.06102,0.303888,12.689137,162.470001,-306.529999,32.48,1729420305104.0,0.0
-1.536192,-2.038685,10.449455,-40.389999,84.139999,-55.510002,1729420305124.0,0.0
-7.960921,-6.132804,7.245467,-78.400002,176.330002,-34.509998,1729420305144.0,0.0
-10.437491,-6.01077,5.647062,5.81,106.540001,-42.77,1729420305163.0,0.0
-6.800402,-0.122034,5.666204,69.790001,-40.810001,-11.9,1729420305182.0,0.0
-2.505285,0.674776,7.116255,41.860001,-127.190002,-27.02,1729420305206.0,0.0
-0.301496,0.672383,6.680761,-7.7,-88.900002,-28.700001,1729420305225.0,0.0
-0.655633,1.710868,5.178068,-19.32,-12.6,-9.1,1729420305244.0,0.0
-3.06042,0.284746,5.168497,-5.81,37.310001,5.88,1729420305264.0,0.0
-5.218746,-2.663212,4.398008,-24.08,62.16,10.29,1729420305283.0,0.0
-5.752346,-2.122434,3.316452,-16.73,51.310001,19.6,1729420305306.0,0.0
-4.931608,-1.095913,5.240282,-7.84,6.23,25.200001,1729420305324.0,0.0
-4.472186,-3.07717,7.9346,-9.1,3.85,38.43,1729420305343.0,0.0
-10.703095,-9.047262,10.700702,1.96,50.330002,30.24,1729420305363.0,0.0
-4.125226,-3.460021,11.777473,27.440001,12.67,1.12,1729420305385.0,0.0
-3.565305,-1.421337,10.327423,26.74,-32.689999,15.54,1729420305407.0,0.0
-4.658825,-3.065206,8.863015,-64.470001,11.69,-6.37,1729420305424.0,0.0
-5.962914,-3.644269,7.987241,-21.700001,28.139999,2.52,1729420305444.0,0.0
-6.924829,-1.674976,7.123433,15.68,30.309999,10.08,1729420305463.0,0.0
-7.781459,-2.048256,7.054041,0.49,15.05,4.13,1729420305486.0,0.0
-7.539784,-2.892922,7.601997,-4.06,-7.84,-4.41,1729420305510.0,0.0
-6.690332,-2.529213,7.956135,-5.11,-33.880001,-2.03,1729420305524.0,0.0
-5.960521,-2.443072,8.889337,-17.15,-37.869999,-0.56,1729420305543.0,0.0
-5.986843,-3.072384,8.303094,-59.010002,-28.49,-10.5,1729420305565.0,0.0
-6.525227,-3.921836,7.365108,-97.510002,-18.969999,-19.460001,1729420305584.0,0.0
-6.592227,-3.304488,7.506285,-115.010002,-21.07,-30.73,1729420305606.0,0.0
-7.211967,-1.660619,8.525627,-118.020004,-29.26,-23.66,1729420305625.0,0.0
-6.798009,-1.806581,7.71446,-127.470001,-38.150002,-26.389999,1729420305642.0,0.0
-5.666204,-4.151547,7.233503,-133.210007,-61.880001,-20.51,1729420305664.0,0.0
-4.225725,-3.316452,7.02772,-104.790001,-85.330002,0.42,1729420305686.0,0.0
-3.192025,-4.017549,8.202596,-79.099998,-110.459999,29.26,1729420305704.0,0.0
-1.423729,-5.410172,7.235896,-84.769997,-133.070007,32.48,1729420305726.0,0.0
0.461815,-7.542177,5.505885,-89.389999,-147.0,40.670002,1729420305744.0,0.0
1.210768,-7.877172,4.969893,-96.739998,-137.830002,30.870001,1729420305764.0,0.0
1.182054,-6.491727,5.754738,-117.040001,-94.639999,18.969999,1729420305785.0,0.0
1.028914,-6.45105,3.294917,-165.339996,-44.799999,-9.73,1729420305815.0,0.0
0.705883,-7.609176,1.07677,-193.199997,17.5,-24.219999,1729420305824.0,0.0
-0.22014,-6.661618,-0.100499,-219.729996,55.09,-38.709999,1729420305843.0,0.0
-2.854637,-8.207381,-0.382852,-224.070007,98.139999,-17.290001,1729420305865.0,0.0
-4.242475,-10.262815,1.631905,-165.830002,124.18,-18.34,1729420305885.0,0.0
-6.470192,-9.738789,2.883351,21.210001,87.849998,37.52,1729420305906.0,0.0
-6.336195,-5.903094,6.041877,137.899994,39.619999,51.869999,1729420305924.0,0.0
-9.755538,-6.195018,15.847664,42.91,0.07,48.790001,1729420305945.0,0.0
-8.992228,-12.289536,5.13739,-167.229996,12.81,-1.33,1729420305965.0,0.0
-6.039484,-14.419148,0.701097,-114.660004,3.15,-30.52,1729420305986.0,0.0
-3.89073,-8.853443,0.614955,-36.400002,-28.84,-10.64,1729420306003.0,0.0
-3.818945,-6.845865,2.615355,-22.049999,22.889999,-42.700001,1729420306023.0,0.0
-3.608376,-9.142976,3.163311,-78.260002,37.240002,-57.889999,1729420306045.0,0.0
-3.424129,-5.773881,6.259624,-6.44,26.460001,-10.85,1729420306063.0,0.0
0.562313,2.732604,10.152746,49.560001,-109.340004,38.43,1729420306084.0,0.0
3.921836,-5.848059,10.669596,-73.43,-86.940002,23.379999,1729420306106.0,0.0
-0.787239,-9.851252,4.878965,-97.650002,63.0,31.290001,1729420306124.0,0.0
-4.115655,-8.985049,-0.299103,-63.630001,96.739998,43.75,1729420306144.0,0.0
-5.288138,-9.932607,-1.06002,-24.99,13.02,73.220001,1729420306164.0,0.0
-5.821737,-13.014563,-3.596412,-14.21,-0.84,76.160004,1729420306185.0,0.0
-8.666803,-16.309479,-2.541178,-6.72,48.509998,27.02,1729420306203.0,0.0
-10.112068,-13.607983,0.571885,-17.780001,62.93,-5.04,1729420306225.0,0.0
-7.465607,-10.734202,4.496114,41.93,17.85,-28.91,1729420306242.0,0.0
-5.737988,-7.348359,3.431308,30.52,17.780001,-45.709999,1729420306262.0,0.0
-4.558327,-6.656832,1.880759,-11.55,30.309999,-60.060001,1729420306283.0,0.0
-2.522035,-1.844866,2.108077,-11.69,17.5,-50.259998,1729420306304.0,0.0
0.177069,1.301696,5.257031,-10.01,-38.639999,-12.95,1729420306326.0,0.0
1.718047,-4.606184,10.724631,-42.139999,-70.910004,11.83,1729420306344.0,0.0
-1.921437,-9.157332,7.24786,-89.879997,30.1,20.23,1729420306365.0,0.0
-5.491528,-8.260024,0.600598,-88.970001,102.970001,24.43,1729420306383.0,0.0
-3.948158,-7.848458,-0.614955,-45.360001,0.63,39.970001,1729420306404.0,0.0
-3.54377,-11.492726,-1.026521,-15.12,-76.580002,62.369999,1729420306424.0,0.0
-6.860222,-15.3691,-4.17069,6.37,26.67,46.200001,1729420306445.0,0.0
-10.710274,-17.465212,-1.820938,-17.99,63.07,7.91,1729420306466.0,0.0
-6.329016,-12.935599,1.550549,-0.7,3.99,-11.34,1729420306483.0,0.0
-4.694718,-10.205389,3.952943,16.59,-9.87,-27.58,1729420306505.0,0.0
-4.362115,-9.683753,1.545763,-8.33,40.740002,-61.740002,1729420306526.0,0.0
-4.802395,-10.193424,0.42353,-5.39,51.450001,-58.380001,1729420306542.0,0.0
-3.036492,-3.113062,0.940379,39.060001,15.12,-39.970001,1729420306564.0,0.0
-0.114855,0.650848,5.029713,52.290001,-15.96,-34.860001,1729420306583.0,0.0
0.555135,-3.519842,9.62154,-28.42,-32.34,-14.28,1729420306604.0,0.0
-2.469393,-8.836694,9.542577,-39.48,13.37,-2.31,1729420306623.0,0.0
-4.914857,-6.123233,2.031506,-50.610001,64.190002,9.59,1729420306643.0,0.0
-4.469792,-4.206582,0.007178,-22.68,-12.53,35.139999,1729420306662.0,0.0
-3.019742,-6.104091,0.167498,-23.799999,-76.440002,55.16,1729420306682.0,0.0
-3.503092,-11.810973,-1.935793,-26.530001,-41.16,42.560001,1729420306707.0,0.0
-9.446864,-19.240686,-4.917251,-20.93,49.349998,47.389999,1729420306727.0,0.0
-8.260024,-15.787844,-4.661219,-8.19,39.619999,10.5,1729420306742.0,0.0
-5.235496,-9.382257,3.479164,66.43,-44.029999,-12.18,1729420306763.0,0.0
-4.074977,-7.312466,3.917051,40.880001,3.71,-52.220001,1729420306782.0,0.0
-5.180461,-10.569098,1.718047,-26.950001,60.48,-64.610001,1729420306805.0,0.0
-4.07737,-5.139783,-0.122034,0.35,37.310001,-51.310001,1729420306830.0,0.0
-0.952343,0.380459,3.079563,50.889999,-12.6,-30.1,1729420306844.0,0.0
0.270389,-2.864209,10.865808,11.48,-54.950001,-18.27,1729420306862.0,0.0
-1.205983,-7.9011,10.861022,-31.92,-23.870001,-6.93,1729420306884.0,0.0
-3.838088,-6.257231,3.716053,-48.93,32.41,6.51,1729420306904.0,0.0
-3.943372,-4.890929,-0.040678,-34.509998,-15.05,25.34,1729420306923.0,0.0
-2.694318,-7.144968,-0.9667,-14.28,-73.849998,55.790001,1729420306943.0,0.0
-3.479164,-12.375679,-4.26401,-9.87,-39.830002,49.139999,1729420306965.0,0.0
-9.154939,-19.001404,-2.37368,9.31,28.280001,46.970001,1729420306984.0,0.0
-10.025927,-18.759729,-4.098906,-30.380001,43.540001,6.93,1729420307007.0,0.0
-6.089733,-11.782259,-0.861416,34.93,-7.63,-10.5,1729420307025.0,0.0
-5.101498,-7.838887,2.462214,60.34,19.25,-49.98,1729420307045.0,0.0
-5.225924,-9.894321,1.880759,18.48,48.580002,-62.580002,1729420307065.0,0.0
-4.125226,-6.020342,0.727418,19.879999,36.189999,-50.889999,1729420307085.0,0.0
-2.256432,1.282553,4.039084,27.02,6.37,-37.869999,1729420307106.0,0.0
-0.519243,-0.507278,12.100503,5.6,-62.860001,-12.67,1729420307125.0,0.0
0.72024,-6.656832,10.327423,-63.630001,-53.48,-7.14,1729420307144.0,0.0
-2.232504,-5.860023,3.24706,-74.269997,25.059999,15.61,1729420307166.0,0.0
-3.682554,-5.644669,-1.079163,-62.02,21.98,29.190001,1729420307185.0,0.0
-4.091727,-9.824929,-2.775674,-49.139999,-33.389999,55.23,1729420307206.0,0.0
-5.398208,-15.586846,-6.632904,-48.09,-7.77,50.68,1729420307225.0,0.0
-9.908678,-21.205196,-5.907879,14.0,35.560001,35.490002,1729420307246.0,0.0
-8.252845,-14.122439,-3.141776,52.709999,20.09,7.77,1729420307264.0,0.0
-6.4678,-10.171888,3.56052,74.059998,-10.29,-18.48,1729420307284.0,0.0
-5.118248,-9.561719,3.287738,46.549999,10.36,-56.349998,1729420307307.0,0.0
-4.953143,-10.234102,0.847059,11.97,36.470001,-72.730003,1729420307324.0,0.0
-2.409572,-3.596412,0.595813,43.82,12.04,-51.66,1729420307346.0,0.0
-0.66999,2.634498,4.371687,59.849998,-17.780001,-22.889999,1729420307365.0,0.0
0.564706,-2.120041,12.459428,7.49,-63.98,-9.66,1729420307387.0,0.0
-0.878166,-8.55434,9.396614,-77.980003,-7.21,-4.2,1729420307408.0,0.0
-3.055635,-7.427321,1.476372,-66.360001,53.619999,8.05,1729420307426.0,0.0
-3.675375,-6.206983,-1.883151,-38.360001,1.54,32.41,1729420307445.0,0.0
-2.28036,-8.764909,-3.261417,-29.469999,-59.920002,57.75,1729420307466.0,0.0
-3.737589,-14.919249,-6.329016,-21.700001,-11.76,56.420002,1729420307486.0,0.0
-9.638289,-19.795822,-1.753939,28.98,45.920002,41.09,1729420307508.0,0.0
-9.346365,-14.146368,-0.655633,26.460001,40.459999,10.99,1729420307525.0,0.0
-6.752545,-10.057034,2.385644,49.630001,-6.09,-18.200001,1729420307550.0,0.0
-4.943572,-9.856036,2.210968,35.209999,6.72,-53.900002,1729420307565.0,0.0
-4.993821,-9.918249,1.548156,20.790001,25.129999,-58.310001,1729420307586.0,0.0
-3.646662,-6.259624,1.493121,50.889999,7.77,-45.920002,1729420307606.0,0.0
-1.866402,0.504886,2.502892,56.560001,-1.68,-33.110001,1729420307628.0,0.0
0.105284,-1.964507,10.774881,31.219999,-33.32,-21.07,1729420307644.0,0.0
-1.452443,-7.609176,9.073583,-75.110001,-5.53,-1.61,1729420307666.0,0.0
-3.321238,-7.334002,1.507478,-69.580002,41.369999,14.98,1729420307686.0,0.0
-3.962514,-6.262017,-1.404587,-33.18,-2.38,37.66,1729420307706.0,0.0
-2.770889,-8.10449,-0.569492,-2.66,-58.66,61.599998,1729420307728.0,0.0
-5.079963,-11.68176,-1.914258,-6.02,-34.439999,67.690002,1729420307747.0,0.0
-9.243474,-16.912472,-2.62732,-14.07,26.530001,37.52,1729420307765.0,0.0
-9.355937,-17.718851,-3.986443,-55.439999,18.200001,1.05,1729420307787.0,0.0
-4.73061,-13.165311,-0.957129,7.0,-32.060001,-8.75,1729420307806.0,0.0
-4.364508,-10.152746,3.558127,59.779999,-16.52,-28.98,1729420307827.0,0.0
-4.673182,-8.427521,1.691726,20.299999,27.09,-53.41,1729420307847.0,0.0
-4.503292,-9.805787,0.631705,-8.33,33.670002,-56.700001,1729420307866.0,0.0
-2.900101,-6.266802,0.564706,5.6,23.52,-49.0,1729420307885.0,0.0
-1.215554,-0.760918,3.522235,18.48,6.23,-32.549999,1729420307906.0,0.0
-0.550349,-3.711268,10.705488,9.31,-39.27,-16.17,1729420307927.0,0.0
-1.765903,-7.269395,9.468399,-35.139999,-15.61,-3.92,1729420307945.0,0.0
-3.005385,-5.134997,2.431108,-55.23,29.960001,3.36,1729420307967.0,0.0
-2.517249,-5.455636,-0.480957,-39.900002,-14.07,27.860001,1729420307985.0,0.0
-2.833102,-8.635696,-0.375673,-10.57,-37.869999,57.540001,1729420308006.0,0.0
-6.948757,-13.172488,-2.488536,-34.16,12.95,55.439999,1729420308026.0,0.0
-9.564112,-19.819748,-6.649654,-57.189999,38.920002,19.6,1729420308046.0,0.0
-6.580262,-17.481962,-5.702096,-22.33,6.44,-7.63,1729420308065.0,0.0
-5.115855,-10.633704,1.947758,78.120003,-16.870001,-9.52,1729420308085.0,0.0
-4.608576,-7.042077,3.15374,66.919998,9.87,-37.799999,1729420308105.0,0.0
-4.381258,-9.176475,1.418944,10.5,35.700001,-56.630001,1729420308125.0,0.0
-3.802195,-8.015956,-0.325424,4.69,43.189999,-52.220001,1729420308146.0,0.0
-2.069792,-2.069792,1.775474,25.969999,17.290001,-35.77,1729420308165.0,0.0
-1.201197,-1.974079,7.690532,29.469999,-18.129999,-10.15,1729420308186.0,0.0
-1.823331,-6.606583,11.274981,-13.09,-27.299999,-6.58,1729420308208.0,0.0
-2.986243,-7.125826,4.254438,-67.059998,19.040001,-4.83,1729420308226.0,0.0
-4.039084,-6.616155,0.318245,-55.860001,6.86,13.09,1729420308244.0,0.0
-2.830709,-6.178268,-1.256232,-34.860001,-49.209999,38.990002,1729420308265.0,0.0
-2.897708,-8.652447,-2.074577,-18.690001,-62.299999,57.189999,1729420308287.0,0.0
-5.448457,-14.266008,-6.135197,-34.439999,4.69,40.810001,1729420308308.0,0.0
-8.513663,-19.69293,-3.421736,-31.219999,34.23,8.82,1729420308326.0,0.0
-5.726025,-10.975878,1.172483,63.77,-17.710001,-1.19,1729420308344.0,0.0
-4.165904,-8.145168,0.820738,58.73,14.42,-43.400002,1729420308412.0,0.0
-4.735396,-10.164711,0.37328,29.049999,54.459999,-63.77,1729420308412.0,0.0
-3.718446,-7.9011,-0.133998,42.209999,47.670002,-52.360001,1729420308413.0,0.0
-1.615155,-1.17009,1.5003,56.139999,25.200001,-35.91,1729420308430.0,0.0
-0.940379,-0.31346,8.671589,62.02,-16.73,-9.73,1729420308447.0,0.0
-0.51685,-5.623133,13.170096,0.49,-37.52,-2.03,1729420308464.0,0.0
-2.388037,-7.341179,6.656832,-71.470001,11.48,8.33,1729420308486.0,0.0
-4.106083,-6.73101,0.803988,-82.040001,29.68,12.25,1729420308507.0,0.0
-3.89073,-6.463014,-0.617348,-61.880001,-34.369999,38.5,1729420308525.0,0.0
-2.725425,-8.092526,-1.713261,-38.009998,-72.309998,59.290001,1729420308544.0,0.0
-5.996413,-14.531611,-4.850252,-27.16,-22.049999,63.0,1729420308565.0,0.0
-9.470792,-19.788643,-4.979464,-14.56,53.34,14.35,1729420308587.0,0.0
-7.805387,-14.318651,-2.998207,-5.6,14.91,6.44,1729420308607.0,0.0
-4.567898,-10.499706,1.538585,46.130001,-21.559999,-11.97,1729420308635.0,0.0
-3.787838,-9.379865,1.691726,38.709999,12.95,-40.810001,1729420308646.0,0.0
-4.110869,-8.449057,-0.155533,28.0,41.299999,-48.16,1729420308665.0,0.0
-2.701497,-4.685147,0.083749,49.279999,21.84,-33.950001,1729420308685.0,0.0
-1.146162,-1.002593,4.206582,60.34,-3.15,-11.48,1729420308705.0,0.0
-1.237089,-2.038685,10.731809,14.28,-37.59,7.77,1729420308727.0,0.0
-1.940579,-7.721639,9.018548,-79.730003,-14.42,3.15,1729420308745.0,0.0
-3.728018,-7.953743,1.361516,-99.75,36.259998,8.19,1729420308764.0,0.0
-4.579862,-7.06122,-1.698904,-59.849998,-7.98,28.07,1729420308785.0,0.0
-2.940779,-7.874779,-2.285146,-22.75,-63.84,51.380001,1729420308806.0,0.0
-4.833502,-13.390236,-3.45045,-18.34,-37.450001,50.889999,1729420308825.0,0.0
-8.525627,-18.479769,-5.02732,-26.530001,32.200001,21.139999,1729420308844.0,0.0
-8.145168,-15.761523,-4.180261,-5.32,23.52,-1.61,1729420308871.0,0.0
-5.142176,-10.79163,1.287339,54.110001,-25.200001,-8.68,1729420308884.0,0.0
-4.125226,-8.817552,2.684747,55.720001,-0.07,-38.43,1729420308907.0,0.0
-4.421937,-9.420543,0.260818,21.210001,41.09,-57.82,1729420308926.0,0.0
-3.914658,-7.927422,-0.756132,18.200001,33.740002,-52.360001,1729420308945.0,0.0
-2.404787,-4.706682,0.124427,39.549999,20.65,-37.939999,1729420308965.0,0.0
-1.698904,-1.737189,8.405986,24.219999,5.18,-14.77,1729420308985.0,0.0
-1.050449,-6.4678,11.222338,-22.120001,-33.529999,-5.67,1729420309008.0,0.0
-2.37368,-7.025328,4.699504,-75.25,8.26,5.11,1729420309026.0,0.0
-2.986243,-6.82433,-2.675175,-67.550003,14.56,14.77,1729420309107.0,0.0
-2.744568,-9.789038,-4.070191,-59.010002,-35.630001,41.369999,1729420309109.0,0.0
-6.001199,-16.709082,-6.91765,-31.92,-52.150002,54.529999,1729420309110.0,0.0
-9.958927,-19.487146,-3.986443,-19.950001,17.01,44.799999,1729420309130.0,0.0
-7.307681,-11.985649,0.212961,41.16,3.99,5.67,1729420309164.0,0.0
-5.209175,-9.422935,2.419144,51.450001,-1.19,-30.030001,1729420309342.0,0.0
-4.627719,-9.425328,0.449851,23.309999,36.189999,-59.5,1729420309342.0,0.0
-3.85723,-8.015956,-0.875773,25.549999,34.509998,-53.760002,1729420309343.0,0.0
-1.957329,-3.548556,-0.308674,49.630001,16.52,-37.310001,1729420309343.0,0.0
-0.921237,-1.0002,5.185246,52.220001,-13.23,-16.030001,1729420309343.0,0.0
-0.959522,-4.9675,11.480762,7.63,-31.219999,-1.75,1729420309345.0,0.0
-2.706282,-8.032705,3.672983,-57.540001,-6.23,3.15,1729420309345.0,0.0
-4.017549,-6.317052,0.047856,-44.170002,0.42,20.51,1729420309345.0,0.0
-3.108276,-5.941379,-1.418944,-15.05,-52.43,51.029999,1729420309346.0,0.0
-3.182454,-10.009177,-1.954936,5.18,-63.77,60.689999,1729420309346.0,0.0
-7.283752,-15.651453,-3.079563,-10.99,3.64,52.5,1729420309365.0,0.0
-10.688738,-20.630917,-3.957729,-35.77,38.43,10.92,1729420309385.0,0.0
-6.800402,-13.337594,-3.495914,-3.99,6.72,-9.73,1729420309408.0,0.0
-4.752146,-9.571291,0.622134,62.439999,-4.2,-31.710001,1729420309426.0,0.0
-4.613362,-9.592826,1.316052,51.380001,32.34,-58.380001,1729420309445.0,0.0
-4.299902,-8.9683,0.294317,31.15,34.93,-51.799999,1729420309466.0,0.0
-2.550749,-4.591826,-0.019143,31.57,21.0,-45.290001,1729420309486.0,0.0
-0.741775,-1.050449,2.842674,36.75,11.55,-28.91,1729420309513.0,0.0
-1.055235,-3.347559,9.65504,2.94,-19.110001,-12.67,1729420309526.0,0.0
-1.981257,-8.551948,11.246266,-36.049999,-21.210001,-3.08,1729420309545.0,0.0
-2.787638,-6.252446,3.689733,-69.510002,6.79,7.7,1729420309565.0,0.0
-3.175276,-4.912465,-1.440479,-48.299999,-40.040001,46.759998,1729420309589.0,0.0
-3.136991,-8.255238,-2.17029,-31.780001,-58.939999,55.23,1729420309607.0,0.0
-5.87438,-14.103296,-5.651847,-38.150002,-8.19,56.07,1729420309626.0,0.0
-9.54497,-21.248264,-4.850252,-14.98,35.700001,17.710001,1729420309645.0,0.0
-7.255038,-16.120445,-3.287738,12.18,10.36,2.73,1729420309665.0,0.0
-5.726025,-10.193424,1.411765,79.800003,-16.870001,-13.37,1729420309685.0,0.0
-5.338387,-8.989835,1.588834,58.099998,26.530001,-52.779999,1729420309707.0,0.0
-4.819145,-9.738789,-0.351745,9.03,40.740002,-64.120003,1729420309728.0,0.0
-3.072384,-6.833901,-0.947558,17.57,31.710001,-60.34,1729420309745.0,0.0
-1.665405,-1.87358,2.062613,40.599998,23.870001,-40.529999,1729420309765.0,0.0
-1.447658,-2.184647,9.516255,31.219999,-28.91,-16.309999,1729420309785.0,0.0
-1.253839,-7.688138,11.787045,-10.85,-43.959999,-8.19,1729420309806.0,0.0
-2.478964,-6.398407,4.067799,-58.310001,6.72,0.35,1729420309826.0,0.0
-3.314059,-5.974878,-0.078963,-50.119999,-9.52,17.01,1729420309845.0,0.0
-1.787439,-6.585048,-2.646462,-31.85,-55.02,44.939999,1729420309865.0,0.0
-2.770889,-11.533404,-3.35713,-12.32,-50.330002,58.939999,1729420309886.0,0.0
-8.133204,-18.013168,-4.242475,-28.630001,30.24,39.549999,1729420309907.0,0.0
-8.032705,-16.146767,-4.082155,-7.91,24.43,-7.49,1729420309926.0,0.0
-5.015356,-9.934999,0.629312,73.010002,-21.280001,-26.040001,1729420309945.0,0.0
-4.539185,-8.776874,1.591227,61.32,22.540001,-59.150002,1729420309965.0,0.0
-4.149154,-8.750552,-0.495314,21.280001,47.25,-67.340004,1729420309985.0,0.0
-2.088934,-1.919044,-0.916451,28.35,36.470001,-56.349998,1729420310006.0,0.0
-0.229711,0.155533,5.828916,57.189999,-19.6,-24.639999,1729420310025.0,0.0
-0.251246,-5.297709,13.60559,17.360001,-41.860001,-3.08,1729420310046.0,0.0
-2.029114,-7.106683,8.374879,-55.720001,0.77,1.89,1729420310066.0,0.0
-2.610569,-6.003592,1.153341,-71.470001,18.27,11.06,1729420310085.0,0.0
-2.507678,-5.479564,-1.538585,-46.830002,-38.920002,44.66,1729420310106.0,0.0
-1.615155,-8.736196,-2.957529,-19.67,-60.200001,63.420002,1729420310126.0,0.0
-6.563512,-17.503498,-5.56092,-27.23,6.3,65.800003,1729420310145.0,0.0
-10.516455,-23.997616,-3.878766,-14.14,66.5,3.57,1729420310165.0,0.0
-6.994221,-13.926227,-2.189433,37.380001,17.99,9.38,1729420310186.0,0.0
-4.479364,-8.949157,0.342174,73.919998,5.6,-26.880001,1729420310208.0,0.0
-4.778467,-9.827322,0.681954,52.290001,45.220001,-59.849998,1729420310227.0,0.0
-2.818745,-3.445665,0.244068,52.290001,42.77,-57.330002,1729420310247.0,0.0
-0.619741,1.347159,4.299902,75.949997,-4.62,-17.290001,1729420310267.0,0.0
-0.289532,-1.081556,11.480762,21.42,-33.529999,1.75,1729420310288.0,0.0
-2.438286,-7.755138,12.13161,-74.900002,-18.129999,4.62,1729420310307.0,0.0
-3.294917,-6.946364,2.74696,-116.690002,16.73,10.99,1729420310327.0,0.0
-3.309274,-5.216353,-1.526621,-73.57,-41.23,45.709999,1729420310346.0,0.0
-1.849652,-8.334201,-3.661019,-29.469999,-83.860001,69.300003,1729420310366.0,0.0
-6.625726,-17.532209,-7.640282,-42.420002,-6.72,62.93,1729420310386.0,0.0
-11.641083,-25.902304,-5.479564,-3.43,46.41,4.13,1729420310408.0,0.0
-6.537192,-13.196418,-2.18704,41.860001,-19.32,12.32,1729420310427.0,0.0
-4.187439,-8.01117,1.158126,63.490002,-17.99,-35.630001,1729420310445.0,0.0
-5.084748,-10.645668,0.236889,22.469999,54.040001,-86.519997,1729420310465.0,0.0
-4.902894,-9.188439,-0.461815,33.670002,50.330002,-67.340004,1729420310486.0,0.0
-2.40718,-1.119841,0.55992,49.91,18.48,-52.360001,1729420310509.0,0.0
-0.346959,-0.078963,6.45105,43.610001,-7.77,-38.920002,1729420310526.0,0.0
-0.191426,-3.57727,12.813565,11.76,-35.420002,-12.95,1729420310546.0,0.0
-1.26341,-4.354938,9.65504,-39.759998,-28.0,9.45,1729420310568.0,0.0
-2.11047,-5.278566,1.158126,-73.150002,-15.54,28.35,1729420310586.0,0.0
-1.72044,-6.558727,-2.65364,-50.540001,-56.139999,69.580002,1729420310623.0,0.0
-4.180261,-12.579069,-5.692525,-49.279999,-44.73,85.050003,1729420310627.0,0.0
-9.243474,-22.657637,-8.094919,-48.299999,63.84,28.0,1729420310647.0,0.0
-10.327423,-21.597616,-6.324231,0.56,51.799999,7.77,1729420310665.0,0.0
-6.752545,-11.047661,1.09352,92.190002,-27.23,4.69,1729420310686.0,0.0
-4.479364,-9.312866,0.775275,67.760002,25.27,-71.959999,1729420310707.0,0.0
-5.740381,-10.463813,0.019143,23.030001,67.970001,-84.139999,1729420310729.0,0.0
-4.019942,-7.159326,-0.275175,35.349998,44.380001,-70.910004,1729420310747.0,0.0
-1.98365,-1.5003,1.919044,49.91,27.370001,-55.860001,1729420310765.0,0.0
-1.411765,0.038285,9.923036,51.869999,-21.35,-36.330002,1729420310787.0,0.0
0.215354,-3.45045,12.641282,18.27,-65.239998,-9.73,1729420310806.0,0.0
-0.940379,-3.725625,7.310073,-34.23,-27.440001,13.79,1729420310826.0,0.0
-1.691726,-4.596612,2.495714,-61.040001,-20.02,24.639999,1729420310845.0,0.0
-1.409373,-6.989435,-0.878166,-68.459999,-55.369999,47.32,1729420310868.0,0.0
-1.708475,-11.129018,-5.12782,-63.07,-56.0,66.43,1729420310888.0,0.0
-6.080163,-19.795822,-9.265009,-52.990002,20.23,49.560001,1729420310908.0,0.0
-7.472785,-21.619152,-4.912465,-7.14,68.879997,-16.030001,1729420310927.0,0.0
-4.943572,-12.777672,-1.464408,92.540001,-0.84,-3.85,1729420310945.0,0.0
-4.529613,-10.140782,-0.59342,74.690002,41.93,-58.52,1729420310972.0,0.0
-6.096912,-7.9346,1.325624,56.700001,68.949997,-69.440002,1729420310986.0,0.0
-4.192225,-0.839881,2.541178,80.849998,40.670002,-60.970001,1729420311006.0,0.0
-2.421536,3.919443,9.88475,98.559998,-13.79,-40.459999,1729420311027.0,0.0
0.114855,0.09332,14.333008,46.48,-57.610001,-11.9,1729420311046.0,0.0
-0.411566,-2.620141,9.702895,-47.740002,-29.469999,4.62,1729420311067.0,0.0
-1.342373,-5.072784,2.974278,-86.099998,-22.190001,31.639999,1729420311086.0,0.0
-0.760918,-7.049256,-0.9667,-86.239998,-54.740002,50.259998,1729420311106.0,0.0
-1.361516,-9.566505,-4.68754,-65.169998,-55.299999,76.510002,1729420311127.0,0.0
-5.388636,-16.498512,-1.837688,-38.849998,-26.950001,65.940002,1729420311147.0,0.0
-9.083155,-21.793829,-4.658825,-62.650002,50.82,11.06,1729420311166.0,0.0
-8.650054,-17.218752,-4.606184,-15.75,37.799999,-5.6,1729420311188.0,0.0
-5.71406,-10.96152,-1.196411,64.470001,-18.83,-14.56,1729420311209.0,0.0
-5.426922,-6.029913,2.230111,70.0,7.84,-67.900002,1729420311227.0,0.0
-4.941179,-5.816952,3.366701,39.27,4.76,-80.290001,1729420311247.0,0.0
-3.828516,-6.084948,2.354537,-17.99,5.32,-74.059998,1729420311267.0,0.0
-3.017349,-6.34098,2.179861,-30.380001,-3.99,-62.369999,1729420311287.0,0.0
-2.849852,-5.869594,2.392823,-35.07,-11.97,-46.48,1729420311308.0,0.0
-2.06022,-6.903293,1.332802,-72.169998,-26.6,-49.07,1729420311328.0,0.0
-1.344766,-8.927622,1.174876,-106.540001,-44.240002,-44.52,1729420311347.0,0.0
-1.17009,-10.741381,0.464208,-94.150002,-64.400002,-27.299999,1729420311367.0,0.0
-0.942772,-9.824929,0.215354,-63.420002,-72.590004,-14.42,1729420311386.0,0.0
0.055035,-9.805787,1.409373,-22.610001,-108.43,-13.16,1729420311406.0,0.0
-0.658026,-11.093125,2.739782,-2.38,-97.300003,8.75,1729420311426.0,0.0
-1.852045,-8.276773,2.237289,-47.25,-51.450001,2.03,1729420311448.0,0.0
-1.861616,-7.960921,0.851845,-81.480003,-62.790001,0.35,1729420311467.0,0.0
-0.571885,-7.501499,-2.744568,-146.789993,-69.300003,1.96,1729420311487.0,0.0
-0.366102,-10.033106,-4.460221,-231.699997,-34.580002,-2.45,1729420311508.0,0.0
-0.461815,-10.803595,-7.164111,-234.360001,11.62,-10.15,1729420311528.0,0.0
-1.253839,-10.449455,-8.370094,-205.589996,44.59,-26.389999,1729420311547.0,0.0
-5.335995,-11.796617,-0.244068,-136.360001,80.919998,-2.1,1729420311567.0,0.0
-8.700303,-10.528419,1.160519,-160.720001,76.650002,-27.58,1729420311586.0,0.0
-3.419343,-15.290136,-5.888737,0.91,31.5,13.02,1729420311608.0,0.0
0.866202,-8.796017,-3.23031,42.420002,-0.21,22.75,1729420311634.0,0.0
2.079363,-6.951149,0.624527,43.400002,-9.24,21.07,1729420311647.0,0.0
2.414358,-8.190632,7.805387,-10.85,-1.19,17.85,1729420311667.0,0.0
-0.150748,-11.002198,4.771288,-30.380001,15.4,8.05,1729420311691.0,0.0
-3.172883,-9.52822,2.050649,-69.370003,37.799999,-24.43,1729420311707.0,0.0
-4.926822,-10.253245,-3.098706,-61.25,8.96,-24.43,1729420311730.0,0.0
-4.424329,-10.853845,-4.156333,1.82,-88.830002,-15.82,1729420311748.0,0.0
-2.579463,-7.058826,-10.231709,6.79,-111.090004,-15.26,1729420311767.0,0.0
-2.0004,-4.553542,-13.617554,-26.530001,-106.470001,-20.299999,1729420311788.0,0.0
-3.168097,-6.199803,-15.084354,-129.990005,-43.75,-28.559999,1729420311810.0,0.0
-2.321038,-11.274981,-8.037491,-75.32,30.52,-12.04,1729420311828.0,0.0
-1.454836,-11.799009,-5.158926,71.120003,-8.61,10.85,1729420311848.0,0.0
-1.598405,-9.533006,-4.395615,42.490002,70.769997,-16.450001,1729420311868.0,0.0
-2.660819,-8.338986,-3.598805,-23.59,90.440002,-26.110001,1729420311888.0,0.0
-0.806381,-7.384251,-4.498507,-31.85,67.129997,-20.440001,1729420311909.0,0.0
0.947558,-7.398607,0.256032,-17.01,8.82,10.15,1729420311928.0,0.0
0.677169,-9.382257,8.999406,-67.550003,-9.66,1.61,1729420311948.0,0.0
0.040678,-10.451849,2.206182,-75.389999,1.68,-11.34,1729420311968.0,0.0
-1.945365,-9.4349,-2.029114,-50.400002,49.91,-32.41,1729420311989.0,0.0
-3.696911,-10.353743,-3.354738,0.42,45.5,-30.17,1729420312008.0,0.0
-3.613162,-9.303294,-4.797609,13.58,-25.34,-19.809999,1729420312029.0,0.0
-1.4668,-8.717053,-4.091727,48.439999,-106.610001,-12.74,1729420312048.0,0.0
-0.976272,-6.305088,-9.430114,51.380001,-142.800003,-7.42,1729420312067.0,0.0
-1.088734,-1.332802,-12.952348,-30.450001,-91.489998,-22.82,1729420312088.0,0.0
-3.134598,-5.644669,-14.230117,-91.769997,16.24,-4.2,1729420312109.0,0.0
-4.003192,-12.098111,-7.838887,-99.540001,72.029999,2.45,1729420312129.0,0.0
-3.845266,-14.737395,-4.725825,-51.380001,4.97,21.139999,1729420312147.0,0.0
-0.174676,-9.509077,-6.518049,29.4,-6.51,15.12,1729420312168.0,0.0
0.887737,-7.776673,-8.271988,99.260002,32.759998,10.15,1729420312188.0,0.0
1.495514,-4.934,-2.24686,41.860001,57.889999,19.389999,1729420312210.0,0.0
1.189233,-8.025528,3.771089,-12.6,58.59,10.57,1729420312228.0,0.0
0.081356,-10.966305,4.189832,-57.610001,29.33,8.47,1729420312248.0,0.0
-1.624727,-10.217353,-0.581456,-4.55,26.880001,1.4,1729420312268.0,0.0
-3.328416,-7.958528,-2.632105,38.990002,58.310001,-17.57,1729420312288.0,0.0
-4.185047,-7.211967,-4.565506,35.139999,36.82,-14.35,1729420312309.0,0.0
-3.227918,-8.269595,-3.897908,11.34,-62.860001,-9.8,1729420312328.0,0.0
-0.681954,-8.836694,-7.367501,24.01,-134.399994,-4.06,1729420312348.0,0.0
-1.423729,-5.352744,-14.407186,-28.98,-140.0,-19.460001,1729420312368.0,0.0
-1.739582,-2.572284,-16.634903,-84.699997,-55.299999,-15.26,1729420312388.0,0.0
-2.505285,-9.080762,-9.801002,-37.450001,57.260002,11.62,1729420312412.0,0.0
-3.567699,-12.715459,-0.928415,-39.27,51.029999,8.4,1729420312429.0,0.0
-2.804388,-16.405191,-7.814958,51.73,14.84,20.790001,1729420312448.0,0.0
-0.375673,-8.898908,-5.965307,86.940002,14.28,13.02,1729420312468.0,0.0
0.265603,-5.199604,-4.386044,111.93,44.450001,23.17,1729420312487.0,0.0
0.569492,-6.056234,2.548356,43.470001,69.019997,20.65,1729420312513.0,0.0
0.18664,-10.076177,7.312466,-63.420002,30.24,6.02,1729420312528.0,0.0
-0.301496,-11.196017,1.871187,-44.240002,-3.43,14.91,1729420312547.0,0.0
-2.713461,-9.602397,-1.572084,0.84,38.990002,-9.52,1729420312567.0,0.0
-4.058227,-8.642875,-4.079762,21.98,67.129997,-22.4,1729420312588.0,0.0
-4.012764,-7.458428,-5.218746,-18.969999,-23.799999,-22.26,1729420312611.0,0.0
-1.816152,-7.898707,-5.45085,-40.389999,-118.090004,-25.41,1729420312628.0,0.0
-0.411566,-5.242674,-8.496914,-52.779999,-147.0,-22.049999,1729420312647.0,0.0
-1.418944,-4.850252,-18.120846,-42.349998,-120.190002,-22.960001,1729420312667.0,0.0
-2.751746,-7.077969,-10.420743,-54.389999,19.18,-10.99,1729420312687.0,0.0
-4.73061,-9.990034,-7.04447,-100.169998,101.709999,-8.12,1729420312712.0,0.0
-4.551149,-13.619946,-6.881758,-55.369999,5.67,-1.89,1729420312731.0,0.0
-1.378266,-12.837494,-7.939385,48.16,-30.66,22.049999,1729420312747.0,0.0
0.413958,-9.188439,-7.142576,123.760002,21.35,26.389999,1729420312767.0,0.0
0.464208,-6.001199,-7.513463,123.900002,80.57,22.049999,1729420312788.0,0.0
0.435494,-3.979264,-0.09332,71.68,119.910004,30.1,1729420312809.0,0.0
-0.70349,-7.281359,8.197811,8.82,60.900002,20.23,1729420312828.0,0.0
-1.584049,-10.887343,2.524428,-64.610001,-17.360001,10.01,1729420312848.0,0.0
-2.648855,-9.997212,-5.656632,-44.52,35.560001,-35.84,1729420312867.0,0.0
-3.883551,-9.470792,-7.152147,6.37,11.27,-41.790001,1729420312889.0,0.0
-2.770889,-8.116454,-5.943772,14.98,-84.629997,-37.59,1729420312910.0,0.0
-0.710668,-6.821937,-6.711867,1.75,-138.25,-42.560001,1729420312928.0,0.0
-1.667797,-5.807381,-12.973885,-23.309999,-142.380005,-45.43,1729420312948.0,0.0
-2.29711,-5.151747,-14.380865,-44.099998,-54.32,-56.560001,1729420312967.0,0.0
-4.24726,-7.267002,-8.853443,-71.470001,35.84,-27.65,1729420312987.0,0.0
-4.180261,-11.184053,-2.885744,-44.52,5.95,-24.85,1729420313016.0,0.0
-1.679761,-12.825529,-6.565905,-3.64,-56.700001,0.56,1729420313028.0,0.0
0.380459,-9.554541,-5.041678,24.710001,-37.869999,6.09,1729420313049.0,0.0
0.772882,-7.348359,-7.106683,49.77,31.43,22.82,1729420313069.0,0.0
0.725025,-4.728218,-4.986642,41.790001,81.199997,21.91,1729420313090.0,0.0
0.157926,-7.02772,0.662812,30.870001,92.400002,33.25,1729420313110.0,0.0
-0.959522,-9.789038,8.161918,-31.08,29.190001,22.610001,1729420313128.0,0.0
-0.997807,-11.315658,-1.165305,-10.08,-22.33,18.059999,1729420313148.0,0.0
-1.569692,-9.963714,-7.267002,7.07,33.389999,-25.27,1729420313168.0,0.0
-2.07697,-9.171689,-5.52742,18.620001,-25.549999,-27.93,1729420313188.0,0.0
-0.885344,-7.590034,-4.608576,19.530001,-77.629997,-26.460001,1729420313209.0,0.0
-0.837488,-4.608576,-6.675975,-12.25,-99.889999,-28.98,1729420313228.0,0.0
-2.529213,-4.407579,-14.450255,-46.830002,-70.980003,-38.709999,1729420313249.0,0.0
-4.800002,-8.879765,-13.138988,-89.669998,34.93,-25.41,1729420313268.0,0.0
-4.926822,-12.287145,-8.638089,-67.129997,63.349998,-11.55,1729420313288.0,0.0
-2.340181,-13.143774,-5.532206,34.299999,-25.690001,22.469999,1729420313310.0,0.0
0.18664,-9.678967,-4.756931,82.739998,-3.92,23.870001,1729420313328.0,0.0
0.801596,-7.133004,-5.848059,89.389999,39.200001,21.280001,1729420313424.0,0.0
0.758525,-4.900501,-5.551349,63.700001,83.93,26.950001,1729420313425.0,0.0
0.334995,-5.76431,-0.531207,35.560001,93.169998,32.619999,1729420313425.0,0.0
-1.284946,-7.786245,7.704889,-27.299999,55.93,24.85,1729420313426.0,0.0
-2.012364,-10.975878,0.689133,-30.1,-3.5,18.83,1729420313432.0,0.0
-3.058028,-9.671788,-5.761917,-42.279999,29.610001,-31.43,1729420313450.0,0.0
-3.797409,-8.542377,-7.180861,-25.549999,-10.15,-33.18,1729420313469.0,0.0
-1.832902,-7.405786,-6.407979,-13.02,-101.43,-32.689999,1729420313490.0,0.0
-0.509671,-4.713861,-7.76471,-27.16,-153.229996,-29.889999,1729420313510.0,0.0
-1.648655,-3.771089,-15.3021,-54.529999,-136.779999,-32.200001,1729420313530.0,0.0
-2.902494,-7.109076,-13.483556,-95.480003,25.549999,-15.4,1729420313550.0,0.0
-4.541577,-12.150753,-8.236095,-77.07,88.550003,-4.76,1729420313569.0,0.0
-3.771089,-13.679767,-6.135197,-3.36,18.059999,16.1,1729420313589.0,0.0
-0.899701,-10.368099,-6.831509,93.519997,-16.870001,26.67,1729420313610.0,0.0
0.535992,-7.317252,-6.702296,111.93,9.31,18.83,1729420313632.0,0.0
0.870987,-5.575277,-5.986843,80.779999,45.360001,21.559999,1729420313649.0,0.0
0.832702,-4.352544,-3.558127,15.61,91.139999,24.5,1729420313670.0,0.0
0.172283,-7.412964,2.230111,-13.09,91.419998,21.629999,1729420313690.0,0.0
-0.681954,-11.80858,4.211368,-3.78,28.35,25.27,1729420313710.0,0.0
-1.993221,-10.853845,2.151148,26.809999,-4.9,13.51,1729420313737.0,0.0
-2.995814,-7.539784,-2.392823,9.1,28.280001,-20.65,1729420313749.0,0.0
-3.103491,-8.319844,-6.429514,-29.190001,17.5,-29.75,1729420313769.0,0.0
-1.01695,-8.599805,-6.711867,-20.440001,-107.449997,-13.09,1729420313790.0,0.0
0.131605,-5.958128,-8.202596,-13.51,-151.339996,-13.16,1729420313810.0,0.0
-0.653241,-4.010371,-13.947763,-32.200001,-130.059998,-11.62,1729420313830.0,0.0
-2.818745,-7.362715,-11.483156,-80.5,45.57,2.38,1729420313850.0,0.0
-5.233103,-14.352149,-8.860621,-64.959999,138.460007,-0.77,1729420313869.0,0.0
-5.139783,-15.737594,-7.070791,17.43,24.5,19.809999,1729420313890.0,0.0
-1.304088,-10.193424,-6.360123,133.979996,-21.07,27.440001,1729420313910.0,0.0
0.449851,-6.606583,-6.704689,136.639999,-4.76,13.02,1729420313930.0,0.0
0.727418,-4.756931,-5.587241,79.099998,32.200001,13.93,1729420313949.0,0.0
0.904487,-5.407779,-1.789831,9.73,85.400002,13.79,1729420313970.0,0.0
-0.583849,-8.279166,4.649254,-25.620001,82.949997,16.870001,1729420313989.0,0.0
-2.208575,-10.406385,3.622734,-14.77,30.309999,10.36,1729420314011.0,0.0
-3.567699,-9.06162,-0.177069,-3.71,29.26,-9.38,1729420314030.0,0.0
-3.584448,-8.85823,-4.924429,-1.4,32.34,-18.059999,1729420314049.0,0.0
-2.730211,-8.561519,-4.733003,-14.77,-47.459999,-12.25,1729420314069.0,0.0
-0.272782,-7.82453,-5.67099,-7.28,-102.199997,-8.33,1729420314090.0,0.0
-0.741775,-5.536992,-10.514063,-31.08,-129.5,-16.870001,1729420314110.0,0.0
-1.256232,-4.905287,-15.333207,-43.049999,-51.73,-16.799999,1729420314130.0,0.0
-3.019742,-7.814958,-12.531212,-68.809998,42.0,1.47,1729420314149.0,0.0
-4.649254,-13.150953,-4.491328,-46.900002,88.480003,5.18,1729420314169.0,0.0
-3.905087,-14.519648,-5.613562,7.28,11.55,9.1,1729420314190.0,0.0
-0.9667,-9.674182,-5.91745,78.120003,-6.51,10.71,1729420314210.0,0.0
0.189033,-7.427321,-7.116255,92.330002,8.26,7.14,1729420314229.0,0.0
0.868595,-6.558727,-2.995814,53.830002,36.189999,6.51,1729420314249.0,0.0
1.098306,-7.948956,-0.854238,11.83,53.619999,12.81,1729420314269.0,0.0
0.229711,-8.389235,4.199404,-12.18,42.560001,10.29,1729420314290.0,0.0
-1.160519,-7.992027,2.057827,27.790001,24.43,18.620001,1729420314310.0,0.0
-3.079563,-7.197611,-0.61017,17.639999,39.830002,-8.89,1729420314330.0,0.0
-4.601398,-8.592626,-5.383851,-31.08,72.800003,-28.84,1729420314349.0,0.0
-5.271388,-8.939585,-4.534399,-32.130001,-12.11,-10.85,1729420314370.0,0.0
-1.648655,-7.795816,-6.151947,10.22,-113.889999,0.28,1729420314389.0,0.0
-0.775275,-6.070591,-7.111469,-0.98,-149.380005,-2.8,1729420314410.0,0.0
-1.239482,-3.507878,-14.409578,-78.190002,-113.610001,-20.93,1729420314430.0,0.0
-3.141776,-10.681561,-13.036098,-134.399994,63.07,-2.94,1729420314449.0,0.0
-5.888737,-18.132809,-2.931208,-41.369999,50.610001,3.36,1729420314469.0,0.0
-2.715853,-14.845071,-6.460621,100.519997,0.56,17.710001,1729420314489.0,0.0
-0.035892,-7.116255,-5.218746,140.839996,9.8,6.79,1729420314510.0,0.0
0.492921,-4.474578,-6.594619,112.559998,9.38,5.74,1729420314530.0,0.0
1.292124,-4.622933,-2.782853,30.1,38.220001,8.54,1729420314549.0,0.0
0.897308,-7.865208,-0.083749,-13.93,49.84,21.629999,1729420314569.0,0.0
-0.246461,-9.250652,6.096912,-37.170002,40.25,14.14,1729420314588.0,0.0
-0.880559,-8.937192,1.72044,10.08,4.62,15.12,1729420314610.0,0.0
-3.419343,-7.298109,-0.509671,-12.88,33.110001,-6.37,1729420314632.0,0.0
-4.479364,-7.958528,-5.06082,-48.299999,58.029999,-31.219999,1729420314648.0,0.0
-4.589434,-9.310472,-5.498707,-52.009998,-38.080002,-22.049999,1729420314668.0,0.0
-1.083949,-8.365308,-7.709675,-24.57,-125.93,-13.79,1729420314690.0,0.0
-1.28016,-6.202196,-9.805787,-42.77,-134.889999,-12.39,1729420314710.0,0.0
-2.323431,-5.666204,-18.250059,-66.220001,-71.75,-32.970001,1729420314733.0,0.0
-3.759124,-7.690532,-12.914064,-79.800003,57.610001,-6.09,1729420314749.0,0.0
-4.491328,-15.017354,-4.790431,-19.6,73.080002,3.92,1729420314769.0,0.0
-1.995614,-12.167502,-7.52782,94.150002,9.8,21.139999,1729420314789.0,0.0
0.095713,-6.661618,-6.087341,120.470001,34.23,7.49,1729420314810.0,0.0
0.114855,-4.704289,-5.848059,102.760002,50.610001,19.67,1729420314833.0,0.0
0.514457,-4.290331,-1.70369,45.43,78.889999,20.370001,1729420314856.0,0.0
-0.320638,-6.800402,4.426722,-7.63,65.519997,22.540001,1729420314871.0,0.0
-0.5001,-9.540184,5.118248,-23.799999,1.12,16.1,1729420314890.0,0.0
-2.143969,-8.980263,1.162912,-20.02,-5.32,6.58,1729420314911.0,0.0
-3.096312,-8.492127,-5.072784,-38.009998,44.799999,-32.48,1729420314930.0,0.0
-4.127619,-9.432507,-5.539384,-41.720001,-5.67,-32.689999,1729420314948.0,0.0
-2.352145,-9.181261,-6.080163,-18.27,-88.550003,-22.26,1729420314968.0,0.0
-1.141376,-6.053841,-7.367501,-41.93,-120.330002,-32.27,1729420314989.0,0.0
-1.253839,-2.134398,-15.649059,-101.849998,-115.57,-34.790001,1729420315013.0,0.0
-2.502892,-8.238488,-17.620745,-76.860001,-3.29,-15.190001,1729420315030.0,0.0
-3.735196,-14.452648,-8.216952,-60.34,104.650002,-10.01,1729420315057.0,0.0
-4.721039,-13.954943,-4.871787,-26.460001,63.630001,2.66,1729420315070.0,0.0
-1.976472,-9.181261,-3.900301,69.230003,23.379999,7.35,1729420315089.0,0.0
0.744168,-5.185246,-7.63789,91.559998,29.049999,21.49,1729420315110.0,0.0
1.268196,-3.175276,-3.728018,15.190001,65.029999,43.259998,1729420315129.0,0.0
0.449851,-6.989435,4.376472,-6.16,57.119999,51.73,1729420315148.0,0.0
0.055035,-10.451849,4.761717,-39.200001,17.219999,31.710001,1729420315169.0,0.0
-1.940579,-10.681561,-0.131605,-10.5,2.66,10.99,1729420315188.0,0.0
-3.175276,-7.936993,-4.931608,0.35,42.98,-24.08,1729420315210.0,0.0
-4.338188,-7.300502,-6.381658,1.96,10.99,-24.219999,1729420315230.0,0.0
-3.725625,-8.092526,-7.293324,-23.379999,-90.720001,-26.460001,1729420315248.0,0.0
-1.507478,-7.164111,-10.815558,-54.25,-141.610001,-45.009998,1729420315269.0,0.0
-1.529014,-4.826324,-16.512869,-92.82,-141.610001,-32.619999,1729420315289.0,0.0
-2.706282,-8.865408,-11.91147,-25.200001,0.21,-19.67,1729420315310.0,0.0
-4.26401,-11.655439,-8.181061,16.52,119.419998,-1.26,1729420315330.0,0.0
-3.771089,-11.710474,-5.029713,65.940002,43.75,21.559999,1729420315348.0,0.0
-0.830309,-8.248059,-6.642475,95.480003,-1.68,23.73,1729420315368.0,0.0
0.59342,-6.039484,-7.537392,100.730003,8.47,24.639999,1729420315388.0,0.0
1.105484,-3.960121,-6.412765,56.560001,44.240002,29.26,1729420315411.0,0.0
0.892523,-5.675776,-2.050649,24.43,85.75,31.99,1729420315430.0,0.0
-1.447658,-10.667203,5.173282,-9.52,74.480003,27.440001,1729420315448.0,0.0
-2.885744,-9.911072,3.014957,3.15,9.03,2.1,1729420315469.0,0.0
-3.799802,-8.178668,-1.9669,-38.220001,22.960001,-35.77,1729420315488.0,0.0
-3.536592,-8.379664,-5.836094,-61.950001,-9.87,-46.900002,1729420315511.0,0.0
-2.215754,-8.973085,-6.24766,-55.439999,-116.970001,-41.439999,1729420315530.0,0.0
-0.725025,-6.881758,-8.015956,-34.16,-134.610001,-43.049999,1729420315548.0,0.0
-1.117448,-2.847459,-19.211973,-53.200001,-135.589996,-37.869999,1729420315568.0,0.0
-2.07697,-7.676175,-12.619746,-37.52,-8.96,-7.07,1729420315588.0,0.0
-4.307081,-13.170096,-7.345965,-75.949997,108.080002,-2.52,1729420315609.0,0.0
-4.61097,-15.919449,-6.635297,14.7,54.18,10.36,1729420315632.0,0.0
-1.246661,-9.911072,-6.73101,140.630005,-9.73,25.690001,1729420315649.0,0.0
0.366102,-6.04427,-8.006385,153.229996,19.040001,18.34,1729420315668.0,0.0
0.5001,-2.833102,-6.269196,67.059998,48.09,21.0,1729420315688.0,0.0
0.351745,-3.905087,-2.321038,-5.32,93.099998,20.65,1729420315710.0,0.0
-1.196411,-8.425128,5.795416,-57.68,73.919998,12.18,1729420315731.0,0.0
-1.725225,-13.016955,1.612763,-40.32,16.870001,3.01,1729420315748.0,0.0
-2.266003,-9.879964,-0.935594,4.62,-12.88,-17.219999,1729420315772.0,0.0
-2.57707,-5.367101,-4.955536,-9.73,-8.61,-43.119999,1729420315788.0,0.0
-2.464607,-7.073184,-7.695317,-67.059998,-71.400002,-53.34,1729420315809.0,0.0
-0.856631,-9.035298,-7.501499,-51.099998,-119.07,-37.380001,1729420315829.0,0.0
-0.021535,-8.190632,-10.317852,19.460001,-148.259995,-18.620001,1729420315848.0,0.0
-1.892723,-9.45165,-7.49432,0.07,-82.040001,-26.809999,1729420315868.0,0.0
-3.711268,-7.960921,-12.832708,-119.0,103.879997,-43.049999,1729420315889.0,0.0
-4.295116,-9.865608,-7.121039,-28.139999,44.170002,-9.45,1729420315909.0,0.0
-1.330409,-9.183653,-4.735396,66.010002,-39.48,20.93,1729420315928.0,0.0
0.208176,-6.496514,-5.886343,43.959999,-14.35,22.049999,1729420315948.0,0.0
0.224925,-6.022735,-6.683154,-5.25,28.700001,23.1,1729420315968.0,0.0
-0.064606,-6.084948,-5.881558,-49.490002,83.230003,21.700001,1729420315988.0,0.0
-0.79681,-8.542377,-2.388037,-49.349998,87.080002,22.960001,1729420316010.0,0.0
-0.902094,-11.064411,0.715454,-9.24,19.460001,17.290001,1729420316028.0,0.0
-0.557528,-10.126426,0.007178,37.029999,-33.810001,11.69,1729420316048.0,0.0
-2.294717,-7.030113,-2.057827,11.83,-10.64,-25.9,1729420316070.0,0.0
-3.383451,-8.080563,-7.073184,-38.43,14.49,-54.25,1729420316088.0,0.0
-3.251846,-10.571491,-9.722038,-41.509998,-70.07,-56.0,1729420316110.0,0.0
-0.227318,-4.161119,-11.353944,37.099998,-121.099998,-15.54,1729420316129.0,0.0
-2.062613,-6.644868,-9.475577,64.75,-68.32,0.49,1729420316148.0,0.0
-4.287938,-8.9683,-10.956735,-47.529999,117.459999,-9.45,1729420316168.0,0.0
-5.17089,-12.05504,-6.12084,-31.92,88.760002,6.3,1729420316189.0,0.0
-1.210768,-11.676974,-6.991827,71.610001,-19.950001,34.580002,1729420316210.0,0.0
1.29691,-7.975278,-6.058627,98.910004,-1.96,32.130001,1729420316228.0,0.0
1.48355,-5.742774,-7.726424,77.349998,22.82,24.290001,1729420316248.0,0.0
1.612763,-3.175276,-4.369294,18.27,79.029999,23.309999,1729420316268.0,0.0
-0.078963,-6.867401,3.809374,4.97,82.739998,22.190001,1729420316288.0,0.0
-1.4668,-10.535598,4.646862,-11.55,32.27,9.94,1729420316309.0,0.0
-2.833102,-10.514063,-0.538385,-15.75,9.45,-10.5,1729420316329.0,0.0
-3.17049,-8.992228,-6.494121,-22.4,23.309999,-37.66,1729420316348.0,0.0
-2.952743,-7.65464,-6.723832,-5.81,-52.920002,-35.560001,1729420316370.0,0.0
-0.710668,-5.350351,-8.848659,19.18,-105.209999,-28.700001,1729420316389.0,0.0
-0.172283,-3.031706,-17.721243,31.99,-111.580002,-9.87,1729420316408.0,0.0
-2.029114,-6.305088,-2.612962,3.08,-38.639999,23.940001,1729420316429.0,0.0
-5.240282,-13.923835,-12.346965,-89.040001,149.940002,14.56,1729420316448.0,0.0
-3.294917,-12.576675,-6.800402,18.059999,-1.33,50.330002,1729420316468.0,0.0
0.454636,-10.497313,-4.826324,113.889999,-28.139999,48.650002,1729420316489.0,0.0
1.050449,-8.097312,-6.699903,106.889999,12.25,36.959999,1729420316510.0,0.0
1.033699,-5.711668,-6.833901,49.07,76.090004,17.57,1729420316528.0,0.0
0.39003,-4.74736,-1.442872,-20.51,118.230003,17.92,1729420316549.0,0.0
-2.129612,-8.982656,7.683353,-45.5,77.139999,20.16,1729420316568.0,0.0
-2.005185,-11.753544,2.921637,-20.719999,-1.89,10.08,1729420316587.0,0.0
-3.065206,-9.547362,-0.713061,-5.18,-8.05,-16.870001,1729420316610.0,0.0
-3.335595,-8.260024,-5.635098,-18.83,-5.39,-46.900002,1729420316629.0,0.0
-3.136991,-8.489735,-6.802795,-36.189999,-81.760002,-53.549999,1729420316648.0,0.0
-0.748954,-6.403193,-6.295516,-23.309999,-148.680008,-51.59,1729420316668.0,0.0
0.241675,-2.723032,-14.388042,-11.06,-170.169998,-34.02,1729420316688.0,0.0
-0.988236,-5.65424,-12.268002,3.22,-108.43,-13.58,1729420316709.0,0.0
-3.562913,-14.165509,-9.765109,-66.43,98.769997,-9.52,1729420316732.0,0.0
-6.197411,-16.764114,-5.47717,-73.919998,88.269997,-14.77,1729420316747.0,0.0
-1.938186,-11.428121,-8.037491,90.93,-3.08,11.76,1729420316768.0,0.0
0.98345,-5.278566,-8.037491,159.389999,1.54,13.93,1729420316788.0,0.0
1.663012,-2.646462,-4.457829,22.190001,60.970001,6.44,1729420316810.0,0.0
0.200997,-6.867401,5.4341,-37.240002,92.82,17.08,1729420316828.0,0.0
-1.794617,-11.593226,6.309873,-69.720001,45.43,1.19,1729420316848.0,0.0
-3.24706,-11.416157,0.674776,-35.420002,39.970001,-17.43,1729420316869.0,0.0
-2.715853,-7.65464,-4.608576,3.08,34.790001,-31.92,1729420316888.0,0.0
-1.993221,-6.664011,-6.297909,11.69,-42.0,-19.040001,1729420316910.0,0.0
-0.89013,-6.008378,-4.596612,-22.049999,-108.290001,-19.530001,1729420316929.0,0.0
0.138784,-4.809574,-7.453642,-63.07,-120.959999,-20.16,1729420316947.0,0.0
-1.019342,-5.881558,-19.278973,-79.309998,-108.43,-18.9,1729420316968.0,0.0
-2.804388,-12.160326,-10.930414,-46.200001,35.420002,-7.7,1729420316988.0,0.0
-5.338387,-15.048461,-6.125626,-11.48,107.590004,4.41,1729420317009.0,0.0
-2.87378,-11.612368,-6.903293,99.260002,14.14,17.219999,1729420317029.0,0.0
0.471386,-6.812366,-6.795617,121.239998,-2.17,16.940001,1729420317048.0,0.0
1.404587,-4.493721,-6.326623,66.919998,8.54,18.48,1729420317067.0,0.0
2.017149,-4.907679,-2.610569,-2.24,55.16,20.65,1729420317096.0,0.0
0.035892,-8.341379,8.073383,-36.82,70.489998,30.1,1729420317108.0,0.0
-2.847459,-11.22473,1.844866,-20.370001,21.559999,16.66,1729420317128.0,0.0
-3.634698,-8.437093,-3.730411,-15.4,50.400002,-24.57,1729420317149.0,0.0
-3.661019,-7.008578,-6.498906,-10.57,-8.33,-22.889999,1729420317167.0,0.0
-1.89033,-5.460421,-4.493721,-11.55,-118.370003,-15.05,1729420317188.0,0.0
-0.009571,-3.87398,-10.296316,-37.799999,-161.839996,-15.12,1729420317209.0,0.0
-1.454836,-5.307281,-18.690338,-61.670002,-127.260002,-7.49,1729420317228.0,0.0
-3.407379,-11.282159,-14.191832,-93.660004,71.82,-0.35,1729420317248.0,0.0
-6.063413,-16.110876,-5.032106,-48.580002,95.830002,8.82,1729420317268.0,0.0
-2.768496,-13.406984,-6.836295,81.129997,-1.26,21.98,1729420317290.0,0.0
0.736989,-6.599405,-6.410372,118.860001,-6.93,13.37,1729420317309.0,0.0
1.430908,-3.991228,-7.336394,74.970001,2.73,10.92,1729420317329.0,0.0
1.679761,-4.187439,-4.161119,-11.97,66.360001,14.35,1729420317348.0,0.0
0.069392,-8.798409,4.776074,-51.869999,95.129997,19.6,1729420317368.0,0.0
-2.084148,-12.985848,5.678168,-50.330002,29.469999,8.05,1729420317390.0,0.0
-2.749353,-10.363315,-0.160319,-21.0,8.96,-18.76,1729420317410.0,0.0
-2.28036,-6.601797,-5.943772,8.75,-14.49,-31.15,1729420317429.0,0.0
-2.237289,-6.754939,-5.331209,-18.549999,-80.150002,-34.509998,1729420317449.0,0.0
-0.631705,-4.596612,-10.102496,-60.060001,-117.040001,-32.060001,1729420317468.0,0.0
-1.277767,-4.34058,-19.570896,-63.84,-132.580002,-15.75,1729420317489.0,0.0
-2.919244,-11.284552,-11.408978,-29.610001,29.889999,1.75,1729420317511.0,0.0
-5.702096,-14.440684,-7.599605,-35.349998,131.110001,4.69,1729420317530.0,0.0
-3.816552,-12.660425,-6.955935,67.129997,28.139999,18.34,1729420317549.0,0.0
0.16989,-6.754939,-6.458229,125.720001,-11.13,18.200001,1729420317570.0,0.0
1.502693,-4.242475,-7.161718,94.220001,-8.26,17.290001,1729420317589.0,0.0
1.758725,-3.505485,-4.0008,4.55,42.490002,16.379999,1729420317611.0,0.0
0.397209,-7.331609,3.419343,-51.869999,92.610001,18.83,1729420317632.0,0.0
-2.512464,-11.937792,5.630312,-48.650002,55.650002,11.62,1729420317651.0,0.0
-3.854837,-10.899307,-0.071785,-7.63,18.059999,-8.12,1729420317670.0,0.0
-2.976671,-7.558927,-6.240481,0.98,13.58,-31.01,1729420317690.0,0.0
-1.205983,-6.156733,-5.63749,-9.17,-71.959999,-33.599998,1729420317710.0,0.0
0.725025,-4.570292,-10.829915,-10.57,-143.990005,-25.27,1729420317733.0,0.0
-0.646062,-5.613562,-16.273586,-11.76,-135.869995,-12.74,1729420317750.0,0.0
-3.629912,-12.12204,-13.045669,-78.050003,101.290001,-10.08,1729420317770.0,0.0
-7.499106,-17.010576,-6.867401,-54.040001,150.919998,-3.29,1729420317790.0,0.0
-2.943172,-12.825529,-6.982256,133.559998,-0.07,28.139999,1729420317826.0,0.0
1.217947,-5.745167,-5.836094,186.619995,-15.68,22.120001,1729420317830.0,0.0
2.206182,-2.230111,-6.690332,113.120003,-20.440001,13.79,1729420317849.0,0.0
2.651247,-1.677369,-2.835495,0.35,46.41,19.74,1729420317870.0,0.0
0.507278,-6.786045,6.039484,-41.650002,91.279999,30.52,1729420317890.0,0.0
-2.502892,-11.279767,7.728817,-60.130001,53.34,10.22,1729420317910.0,0.0
-4.031906,-11.01177,-0.497707,-49.91,43.049999,-15.47,1729420317930.0,0.0
-3.227918,-9.38465,-6.326623,-27.299999,28.630001,-38.920002,1729420317949.0,0.0
-2.421536,-7.439285,-4.82393,4.34,-98.0,-17.92,1729420317969.0,0.0
-0.502493,-5.4676,-11.47837,-14.56,-151.410004,-22.190001,1729420317990.0,0.0
-0.945165,-5.041678,-19.745573,-56.84,-140.839996,-18.48,1729420318011.0,0.0
-2.519642,-10.188639,-11.68176,-96.18,43.049999,-5.95,1729420318030.0,0.0
-5.615955,-16.046268,-5.429315,-61.18,127.260002,0.07,1729420318050.0,0.0
-1.61037,-10.068997,-6.573084,107.099998,-3.01,17.639999,1729420318069.0,0.0
0.98345,-5.778666,-7.716853,102.199997,-2.73,10.36,1729420318090.0,0.0
1.921437,-3.144169,-6.166305,35.139999,8.05,15.4,1729420318111.0,0.0
2.081756,-4.029513,0.37328,-24.360001,42.84,25.690001,1729420318130.0,0.0
-1.088734,-9.255438,9.372685,-59.920002,44.099998,23.799999,1729420318149.0,0.0
-2.031506,-11.732009,2.005185,-44.099998,29.120001,-7.49,1729420318170.0,0.0
-3.227918,-8.822337,-3.311667,-20.299999,40.599998,-29.82,1729420318191.0,0.0
-2.98385,-7.436893,-6.843473,11.48,-1.47,-34.439999,1729420318211.0,0.0
-2.301895,-7.226324,-5.063213,10.36,-101.5,-23.450001,1729420318230.0,0.0
-0.179462,-4.845466,-11.62194,-23.59,-139.229996,-23.940001,1729420318249.0,0.0
-0.909273,-6.611369,-20.166712,-44.450001,-130.339996,-16.52,1729420318269.0,0.0
-2.541178,-10.884951,-12.342178,-95.340004,58.240002,-0.77,1729420318290.0,0.0
-5.163712,-16.249659,-4.843073,-34.580002,110.459999,1.68,1729420318320.0,0.0
-2.701497,-12.942777,-7.121039,97.860001,30.73,12.18,1729420318330.0,0.0
0.507278,-5.953342,-7.054041,143.360001,20.09,15.82,1729420318417.0,0.0
1.387837,-1.916651,-6.355337,87.849998,14.49,18.48,1729420318419.0,0.0
0.550349,-4.869394,5.383851,0.28,49.700001,29.469999,1729420318426.0,0.0
-1.639083,-9.908678,8.248059,-74.129997,22.82,19.879999,1729420318428.0,0.0
-3.160919,-10.616954,0.937986,-55.439999,29.33,-4.13,1729420318437.0,0.0
-2.76371,-7.829315,-4.886144,-13.86,37.59,-23.24,1729420318460.0,0.0
-2.411965,-7.4345,-5.613562,21.42,-65.029999,-8.47,1729420318470.0,0.0
-1.112662,-8.243275,-11.234302,-13.23,-138.110001,-14.56,1729420318490.0,0.0
-1.835295,-7.436893,-21.791435,-97.370003,-133.839996,-28.84,1729420318510.0,0.0
-2.928815,-9.729217,-15.316458,-77.699997,34.16,-15.4,1729420318530.0,0.0
-4.570292,-13.636696,-5.429315,41.93,103.879997,11.76,1729420318549.0,0.0
-3.069991,-11.940186,-4.591826,108.639999,31.08,13.86,1729420318569.0,0.0
-0.617348,-6.329016,-6.62094,62.299999,25.200001,6.86,1729420318589.0,0.0
0.528814,-5.142176,-7.312466,39.34,26.110001,12.11,1729420318610.0,0.0
1.679761,-5.12782,-2.928815,10.43,41.790001,19.879999,1729420318631.0,0.0
0.014357,-6.759724,6.853044,-16.030001,27.16,31.710001,1729420318649.0,0.0
-0.959522,-9.265009,4.529613,-23.870001,-0.84,10.71,1729420318671.0,0.0
-2.641676,-8.793623,-1.392623,-35.84,33.670002,-21.77,1729420318689.0,0.0
-3.134598,-9.401401,-6.659225,-12.95,38.779999,-35.84,1729420318711.0,0.0
-1.471586,-6.867401,-7.910671,1.54,-103.669998,-24.219999,1729420318733.0,0.0
-0.775275,-3.352344,-17.084755,-44.59,-137.339996,-18.690001,1729420318749.0,0.0
-0.693919,-7.575676,-17.039289,-31.360001,-46.900002,-1.54,1729420318772.0,0.0
-2.608176,-13.682159,-8.489735,-46.619999,90.090004,5.11,1729420318790.0,0.0
-4.371687,-14.636896,-4.266403,-35.98,109.970001,-3.78,1729420318810.0,0.0
-1.445265,-8.977871,-7.848458,41.860001,42.490002,1.89,1729420318830.0,0.0
1.232304,-3.98405,-7.716853,42.490002,33.670002,4.2,1729420318849.0,0.0
2.612962,-3.689733,-4.237689,4.9,10.57,13.440001,1729420318877.0,0.0
0.739382,-6.903293,10.135997,-33.880001,6.16,32.970001,1729420318890.0,0.0
-0.404387,-9.396614,4.319045,-15.89,2.45,14.28,1729420318909.0,0.0
-3.287738,-6.939186,-0.827917,-7.35,52.360001,-23.52,1729420318929.0,0.0
-4.007978,-6.075377,-6.532406,-16.66,79.029999,-36.259998,1729420318949.0,0.0
-4.426722,-8.55434,-7.518249,-2.73,-46.48,-16.17,1729420318969.0,0.0
-0.856631,-6.9009,-8.123632,-8.54,-148.680008,-14.63,1729420318989.0,0.0
0.107677,-5.103891,-18.369699,-25.549999,-154.910004,-3.22,1729420319010.0,0.0
-1.031307,-8.712267,-13.323236,-27.719999,-36.330002,7.91,1729420319031.0,0.0
-4.342973,-14.02194,-4.778467,-13.51,132.229996,18.83,1729420319050.0,0.0
-3.471986,-10.954341,-7.106683,101.989998,33.32,19.32,1729420319070.0,0.0
0.459422,-5.809773,-8.750552,106.82,3.01,15.96,1729420319155.0,0.0
1.926222,-1.875973,-6.661618,29.190001,4.41,16.940001,1729420319156.0,0.0
1.146162,-5.852845,1.342373,-14.84,41.16,42.490002,1729420319156.0,0.0
-0.066999,-11.313265,7.168896,-60.34,41.650002,14.49,1729420319156.0,0.0
-1.634298,-11.971292,2.723032,-47.459999,15.12,-13.440001,1729420319253.0,0.0
-2.596212,-7.709675,-1.978864,-15.33,24.01,-38.920002,1729420319254.0,0.0
-1.507478,-6.072984,-6.013163,2.87,0.35,-43.119999,1729420319255.0,0.0
-1.124627,-7.259824,-6.69751,-11.27,-95.550003,-36.959999,1729420319257.0,0.0
0.792024,-6.685547,-7.905886,-6.72,-130.759995,-24.15,1729420319258.0,0.0
0.153141,-5.876772,-11.873186,-15.33,-134.820007,-22.26,1729420319267.0,0.0
-2.598605,-9.303294,-15.227923,-43.610001,53.48,-2.17,1729420319288.0,0.0
-5.771489,-11.593226,-11.959327,-51.59,139.440002,2.8,1729420319310.0,0.0
-5.723632,-11.794223,-7.948956,30.59,52.57,26.950001,1729420319328.0,0.0
-1.935793,-7.573284,-7.678568,106.260002,21.84,32.970001,1729420319348.0,0.0
-0.165105,-5.625526,-8.209774,112.349998,30.309999,43.330002,1729420319375.0,0.0
-0.880559,-4.565506,0.631705,15.68,77.769997,39.41,1729420319388.0,0.0
-2.545963,-9.700503,7.877172,-7.0,69.370003,37.240002,1729420319411.0,0.0
-1.174876,-11.109876,3.699304,4.41,-33.32,12.74,1729420319429.0,0.0
-0.007178,-9.920642,-3.517449,-13.37,-53.48,-25.059999,1729420319449.0,0.0
-0.122034,-10.040283,-7.683353,-8.75,-69.300003,-47.389999,1729420319468.0,0.0
-0.16989,-8.370094,-5.860023,42.560001,-103.949997,-39.619999,1729420319489.0,0.0
0.066999,-5.694918,-10.030712,39.27,-111.790001,-38.43,1729420319510.0,0.0
-1.897508,-8.317451,-9.693325,-43.189999,-35.420002,-34.16,1729420319528.0,0.0
-5.307281,-8.362915,-8.690732,-175.210007,84.07,-33.18,1729420319549.0,0.0
-5.606383,-11.784652,-6.754939,-53.200001,45.779999,9.31,1729420319568.0,0.0
-2.380858,-9.159724,-3.708875,37.380001,-49.84,23.66,1729420319588.0,0.0
-1.160519,-7.439285,-3.682554,15.54,-35.07,10.15,1729420319611.0,0.0
-1.59362,-7.01097,-5.513064,-58.450001,4.41,-17.360001,1729420319631.0,0.0
-2.969493,-7.745567,-7.463214,-83.370003,21.139999,-29.469999,1729420319650.0,0.0
-3.503092,-7.432107,-7.056434,-67.550003,8.33,-33.740002,1729420319670.0,0.0
-1.342373,-9.363115,-8.458629,-54.040001,-18.34,-31.15,1729420319689.0,0.0
0.770489,-9.47797,-8.848659,-7.63,-56.630001,-35.84,1729420319710.0,0.0
1.694118,-7.073184,-7.259824,35.630001,-56.209999,-27.16,1729420319732.0,0.0
2.306681,-5.898308,-4.577469,46.900002,-36.889999,-31.15,1729420319749.0,0.0
0.658026,-5.352744,-3.814159,27.719999,-28.0,-10.78,1729420319770.0,0.0
-0.502493,-5.345565,-3.148954,-36.049999,-19.32,-16.17,1729420319790.0,0.0
-1.330409,-9.353544,-3.108276,-65.029999,-24.290001,2.1,1729420319812.0,0.0
-0.043071,-9.468399,-3.773481,-25.9,-27.16,9.45,1729420319831.0,0.0
0.148355,-6.297909,-5.350351,-19.040001,6.37,14.35,1729420319850.0,0.0
0.167498,-5.379066,-8.628519,-94.150002,49.98,2.38,1729420319869.0,0.0
-1.20359,-7.980063,-10.176675,-124.389999,70.419998,18.83,1729420319891.0,0.0
-3.424129,-6.295516,-8.303094,-98.0,59.709999,43.470001,1729420319911.0,0.0
-2.395216,-6.151947,-9.437292,-16.17,30.450001,64.050003,1729420319932.0,0.0
-1.440479,-4.460221,-8.769694,-17.639999,24.639999,68.529999,1729420319951.0,0.0
-2.031506,-1.837688,-6.831509,-82.529999,20.51,60.830002,1729420319971.0,0.0
-2.244468,-4.926822,-9.08794,-125.300003,49.98,66.220001,1729420319992.0,0.0
-3.084348,-4.45065,-7.601997,-90.440002,44.029999,63.349998,1729420320011.0,0.0
-2.404787,-4.469792,-7.554141,-49.420002,31.15,52.43,1729420320032.0,0.0
-2.177469,-4.579862,-8.95155,-61.599998,37.450001,34.509998,1729420320051.0,0.0
-2.062613,-7.424929,-12.071791,-73.779999,29.120001,16.52,1729420320070.0,0.0
-1.95015,-9.255438,-13.263416,-48.299999,12.11,-3.43,1729420320095.0,0.0
-1.339981,-7.13779,-12.067005,25.200001,6.79,-4.13,1729420320114.0,0.0
0.011964,-4.496114,-9.348758,77.559998,-4.48,-25.9,1729420320131.0,0.0
1.79701,-2.995814,-8.446664,64.610001,-29.610001,-45.990002,1729420320151.0,0.0
2.37368,-3.828516,-6.865008,15.96,-47.740002,-65.379997,1729420320170.0,0.0
1.90708,-5.388636,-5.783452,-64.260002,-23.450001,-101.220001,1729420320192.0,0.0
-1.351945,-9.176475,-9.243474,-50.68,47.740002,-67.620003,1729420320211.0,0.0
-2.005185,-6.223732,-9.674182,60.689999,56.91,-35.490002,1729420320232.0,0.0
-1.612763,-2.273181,-4.898108,65.590004,-7.35,-53.200001,1729420320251.0,0.0
-3.579663,-5.649454,-4.259224,-30.870001,16.59,-1.4,1729420320272.0,0.0
-3.079563,-10.839487,-6.905686,-37.099998,0.21,4.48,1729420320291.0,0.0
-2.488536,-8.228917,-6.553941,11.76,-27.65,21.700001,1729420320311.0,0.0
-3.756732,-7.501499,-5.623133,86.029999,43.259998,30.309999,1729420320331.0,0.0
-3.914658,-6.862615,-6.051448,57.260002,51.240002,32.060001,1729420320353.0,0.0
-2.579463,-4.709075,-8.628519,19.67,15.96,39.060001,1729420320371.0,0.0
-1.122234,-4.089334,-7.740781,9.03,-16.870001,56.07,1729420320391.0,0.0
0.679562,-5.130211,-11.531013,-3.08,-36.470001,76.300003,1729420320414.0,0.0
2.526821,-6.056234,-9.119047,18.690001,-73.779999,82.529999,1729420320433.0,0.0
2.675175,-2.184647,-10.485349,24.219999,-53.760002,106.400002,1729420320451.0,0.0
2.29711,-2.189433,-10.040283,29.75,4.76,72.099998,1729420320470.0,0.0
-0.782453,-5.218746,-9.346365,-8.19,52.220001,32.619999,1729420320491.0,0.0
-3.34038,-7.365108,-9.346365,-47.670002,58.73,-25.059999,1729420320515.0,0.0
-2.794817,-8.10449,-9.71486,-43.400002,9.8,-53.060001,1729420320533.0,0.0
-0.90688,-5.12782,-8.618947,-12.39,-38.5,-52.639999,1729420320550.0,0.0
0.256032,-4.570292,-8.458629,13.440001,-37.029999,-74.340004,1729420320571.0,0.0
0.655633,-3.708875,-10.975878,-46.060001,1.61,-94.43,1729420320590.0,0.0
0.145962,-2.816352,-10.231709,-93.660004,12.95,-102.900002,1729420320612.0,0.0
-1.859223,-7.341179,-8.207381,-47.880001,56.84,-76.090004,1729420320633.0,0.0
-2.617748,-5.522634,-7.211967,-1.75,47.32,-10.85,1729420320651.0,0.0
-1.844866,-10.370493,-2.103291,51.099998,-30.030001,-9.45,1729420320671.0,0.0
-3.038885,-10.944772,-6.034698,-23.379999,17.710001,23.030001,1729420320692.0,0.0
-2.897708,-7.659425,-7.147361,53.689999,30.24,16.450001,1729420320714.0,0.0
-3.830909,-3.742374,-4.721039,105.910004,40.740002,51.73,1729420320735.0,0.0
-3.84048,-5.166104,-5.599205,80.43,42.279999,61.459999,1729420320752.0,0.0
-2.581856,-6.051448,-7.501499,29.190001,2.94,57.260002,1729420320772.0,0.0
-2.084148,-7.235896,-7.21436,30.450001,-12.81,67.760002,1729420320791.0,0.0
-1.828116,-8.609376,-10.078569,21.139999,1.68,64.400002,1729420320816.0,0.0
0.361316,-7.01097,-12.856635,45.360001,-22.960001,60.549999,1729420320833.0,0.0
1.639083,-4.362115,-8.568698,119.349998,-69.090004,101.360001,1729420320851.0,0.0
2.172683,-0.244068,-9.044869,102.690002,-17.92,116.830002,1729420320872.0,0.0
0.504886,-0.844666,-8.092526,22.4,16.870001,90.860001,1729420320892.0,0.0
-2.11047,-3.996014,-7.606783,-4.41,49.0,56.0,1729420320914.0,0.0
-4.436293,-7.412964,-8.003991,-81.410004,52.43,-5.81,1729420320933.0,0.0
-3.708875,-10.750952,-9.111869,-107.449997,15.190001,-63.700001,1729420320950.0,0.0
-0.856631,-7.585248,-9.812965,-69.300003,-38.360001,-80.010002,1729420320974.0,0.0
-0.083749,-4.527221,-6.443871,-2.59,-46.830002,-73.639999,1729420320991.0,0.0
-0.854238,-5.718846,-7.389036,-74.900002,-6.51,-97.860001,1729420321013.0,0.0
-0.72024,-4.955536,-13.392628,-132.580002,25.83,-98.209999,1729420321031.0,0.0
-1.282553,-6.12084,-9.482756,-73.010002,0.77,-79.379997,1729420321051.0,0.0
-0.897308,-5.699703,-7.60439,-49.279999,-9.45,-68.879997,1729420321070.0,0.0
-0.923629,-6.338587,-7.068398,-79.800003,2.31,-58.799999,1729420321090.0,0.0
-0.636491,-8.386844,-1.744368,-74.690002,-23.52,-9.66,1729420321113.0,0.0
-1.158126,-11.265409,-4.457829,-84.07,-55.299999,-19.950001,1729420321131.0,0.0
-3.452843,-12.574283,-9.628718,-1.96,32.200001,-4.55,1729420321150.0,0.0
-4.567898,-4.761717,-6.616155,74.550003,42.139999,22.469999,1729420321170.0,0.0
-5.254639,-5.376673,-5.869594,93.660004,39.27,49.84,1729420321192.0,0.0
-3.608376,-6.82433,-7.290931,67.830002,9.66,46.060001,1729420321212.0,0.0
-2.129612,-6.101698,-9.533006,79.730003,-2.94,61.950001,1729420321231.0,0.0
-2.038685,-5.783452,-10.040283,76.650002,17.85,63.349998,1729420321249.0,0.0
-1.225125,-5.778666,-10.124033,62.93,7.84,55.299999,1729420321270.0,0.0
1.304088,-3.431308,-9.580862,69.860001,-51.170002,70.0,1729420321291.0,0.0
1.95015,-0.713061,-9.533006,45.779999,-75.669998,104.650002,1729420321310.0,0.0
1.131805,-3.457629,-9.600004,-8.96,-19.950001,51.939999,1729420321331.0,0.0
-4.244867,-6.515656,-7.142576,7.84,69.370003,31.710001,1729420321350.0,0.0
-5.381458,-5.682954,-7.288538,-11.69,57.82,-32.130001,1729420321369.0,0.0
-2.730211,-6.12084,-9.432507,-52.709999,-14.77,-53.48,1729420321389.0,0.0
-0.07657,-5.532206,-10.317852,-57.68,-42.490002,-73.779999,1729420321420.0,0.0
0.416351,-6.482157,-8.470592,-55.09,-32.549999,-98.349998,1729420321430.0,0.0
-0.086142,-6.56112,-7.23111,-101.919998,-14.7,-111.090004,1729420321450.0,0.0
-1.086342,-7.506285,-7.757531,-121.590004,8.96,-94.779999,1729420321472.0,0.0
-1.493121,-7.893922,-13.050454,-112.770004,43.68,-65.660004,1729420321490.0,0.0
-1.20359,-6.455836,-7.771888,-84.349998,3.29,-74.760002,1729420321510.0,0.0
-1.227518,-8.420342,-8.248059,-17.360001,24.57,-31.99,1729420321531.0,0.0
-0.717847,-5.642276,-4.572684,89.949997,9.45,36.049999,1729420321550.0,0.0
-0.445065,-7.147361,-1.469193,78.470001,-18.690001,4.41,1729420321571.0,0.0
-2.672783,-9.095119,-6.326623,-15.82,42.349998,11.97,1729420321590.0,0.0
-4.728218,-8.398808,-7.886744,59.360001,86.660004,20.09,1729420321612.0,0.0
-5.235496,-3.694518,-7.037291,142.660004,52.080002,79.169998,1729420321633.0,0.0
-3.460021,-5.900701,-8.279166,78.540001,-8.82,79.029999,1729420321650.0,0.0
-0.691526,-7.341179,-11.574083,9.38,-29.75,57.189999,1729420321670.0,0.0
2.361716,-5.182854,-11.282159,65.660004,-43.75,91.349998,1729420321690.0,0.0
1.976472,-1.306481,-10.425529,97.580002,-57.330002,136.149994,1729420321711.0,0.0
2.282753,0.849452,-10.526026,95.690002,-11.76,98.840004,1729420321733.0,0.0
-2.251646,-3.529413,-6.431907,83.93,35.139999,82.739998,1729420321750.0,0.0
-5.285746,-5.139783,-4.366901,28.49,68.040001,11.06,1729420321770.0,0.0
-5.276174,-8.855836,-5.953342,-52.360001,24.57,-29.33,1729420321792.0,0.0
-2.11047,-8.085347,-10.033106,-96.809998,-17.85,-69.019997,1729420321811.0,0.0
0.019143,-5.730811,-9.348758,-63.98,-37.73,-86.519997,1729420321832.0,0.0
-0.11007,-5.45085,-6.690332,-46.48,-33.880001,-92.470001,1729420321851.0,0.0
-0.658026,-5.592027,-6.843473,-116.480003,-22.469999,-119.419998,1729420321871.0,0.0
-0.861416,-4.788038,-8.286345,-190.75,-3.43,-110.949997,1729420321892.0,0.0
-0.81356,-7.898707,-9.454042,-157.639999,21.0,-56.84,1729420321911.0,0.0
-1.251446,-10.566705,-8.650054,-101.989998,0.7,-35.349998,1729420321933.0,0.0
-1.952543,-10.112068,-8.035098,-15.33,17.99,-6.23,1729420321952.0,0.0
-0.696311,-8.585447,-4.103691,162.050003,-1.89,55.93,1729420321974.0,0.0
-0.964308,-4.76411,-4.429115,107.520004,-10.36,36.610001,1729420321994.0,0.0
-3.598805,-7.49432,-7.166504,35.98,65.590004,36.889999,1729420322015.0,0.0
-4.955536,-7.822137,-8.786445,37.66,81.760002,32.689999,1729420322034.0,0.0
-3.87398,-6.326623,-9.008978,89.25,9.8,67.970001,1729420322052.0,0.0
-1.665405,-4.371687,-8.896514,94.5,-31.01,70.559998,1729420322074.0,0.0
0.086142,-3.443272,-11.124231,70.840004,-19.809999,60.27,1729420322095.0,0.0
-0.777667,-3.981657,-8.82473,52.920002,-6.93,73.639999,1729420322114.0,0.0
-0.90688,-2.179861,-9.812965,65.239998,19.110001,74.550003,1729420322136.0,0.0
0.725025,-2.656033,-11.365908,84.769997,-0.7,68.809998,1729420322152.0,0.0
-1.246661,-4.350152,-7.566105,97.580002,-3.29,66.989998,1729420322171.0,0.0
-3.113062,-3.952943,-6.374479,52.709999,17.92,14.84,1729420322193.0,0.0
-4.48415,-5.228317,-5.02732,-28.700001,16.030001,-26.040001,1729420322215.0,0.0
-3.287738,-5.91745,-6.565905,-91.0,-10.92,-69.720001,1729420322233.0,0.0
-0.081356,-5.79781,-9.805787,-142.029999,-36.540001,-111.720001,1729420322254.0,0.0
0.354138,-7.216753,-6.771688,-197.470001,-79.449997,-135.729996,1729420322273.0,0.0
1.332802,-5.960521,-10.078569,-202.930008,-64.889999,-120.82,1729420322293.0,0.0
1.100698,-6.893722,-13.117454,-187.110001,-3.71,-64.75,1729420322314.0,0.0
-1.134198,-8.487342,-6.472585,-167.509995,18.27,-60.060001,1729420322333.0,0.0
-3.464807,-13.490734,-8.410772,-35.560001,71.330002,-17.5,1729420322351.0,0.0
-2.062613,-7.530212,-5.015356,16.799999,7.98,-13.16,1729420322372.0,0.0
-2.428715,-6.111269,-5.058427,96.18,-1.82,37.73,1729420322394.0,0.0
-3.929015,-5.503492,-6.9679,82.25,49.139999,40.389999,1729420322414.0,0.0
-6.123233,-9.24826,-8.51127,76.510002,72.309998,66.010002,1729420322433.0,0.0
-5.130211,-9.023334,-8.740981,107.449997,19.6,81.410004,1729420322453.0,0.0
-0.571885,-5.096712,-12.622139,160.649994,-42.98,100.800003,1729420322473.0,0.0
2.727818,-3.031706,-13.110275,168.139999,-57.049999,95.340004,1729420322493.0,0.0
2.37368,-2.914458,-12.263215,147.0,-31.57,115.57,1729420322514.0,0.0
2.675175,-3.881158,-12.045469,171.570007,24.5,89.110001,1729420322532.0,0.0
-2.287539,-3.661019,-7.271788,207.130005,43.889999,88.830002,1729420322553.0,0.0
-5.522634,-1.794617,-1.332802,163.449997,27.719999,37.240002,1729420322574.0,0.0
-5.168497,-3.134598,-1.741975,22.68,-3.64,-4.2,1729420322591.0,0.0
-3.101098,-5.601598,-6.853044,-161.490005,-14.0,-77.07,1729420322613.0,0.0
-1.268196,-7.408179,-9.990034,-194.320007,-22.82,-125.860001,1729420322632.0,0.0
-0.875773,-8.013563,-8.898908,-192.220001,-48.93,-134.820007,1729420322651.0,0.0
-0.957129,-9.990034,-6.82433,-153.300003,-51.029999,-103.040001,1729420322672.0,0.0
0.564706,-7.487142,-11.916256,-141.259995,-22.049999,-79.800003,1729420322694.0,0.0
0.490529,-4.158726,-11.313265,-67.550003,-19.25,-45.080002,1729420322712.0,0.0
-0.100499,-2.596212,-10.813165,-43.119999,2.87,-37.799999,1729420322735.0,0.0
-2.196611,-6.963113,-3.364309,-68.18,46.200001,-45.639999,1729420322754.0,0.0
-3.617948,-10.889735,-7.630712,-122.919998,57.400002,-2.24,1729420322772.0,0.0
-0.976272,-13.13181,-6.963113,-29.469999,-49.77,-6.93,1729420322792.0,0.0
-0.492921,-11.930614,-8.049455,84.0,-28.700001,19.879999,1729420322823.0,0.0
-2.768496,-6.71426,-7.767102,134.610001,75.949997,26.809999,1729420322832.0,0.0
-7.401,-4.718646,-5.300103,171.080002,128.449997,56.279999,1729420322852.0,0.0
-8.721838,-4.261617,-7.197611,113.540001,48.509998,74.760002,1729420322871.0,0.0
-1.85683,-4.843073,-12.047862,68.879997,-52.009998,56.209999,1729420322892.0,0.0
3.342773,-3.211168,-12.794422,43.540001,-95.199997,80.5,1729420322916.0,0.0
3.940979,-5.95095,-12.942777,94.709999,-76.019997,111.510002,1729420322933.0,0.0
-2.845066,-4.130012,-7.118648,209.789993,72.660004,85.82,1729420322952.0,0.0
-4.539185,-0.72024,-4.15394,180.320007,52.5,55.650002,1729420322972.0,0.0
-2.651247,-2.289931,-2.443072,44.73,-23.1,43.959999,1729420322992.0,0.0
-2.866602,-6.771688,-3.086741,-65.309998,-4.62,-10.71,1729420323013.0,0.0
-3.768696,-8.757731,-8.260024,-127.610001,33.040001,-69.790001,1729420323032.0,0.0
-1.787439,-8.030313,-9.686146,-121.029999,-16.309999,-106.889999,1729420323052.0,0.0
-0.442672,-5.718846,-9.186047,-115.010002,-55.299999,-108.57,1729420323072.0,0.0
0.074178,-5.721239,-7.365108,-124.32,-58.450001,-128.449997,1729420323093.0,0.0
0.210568,-3.737589,-8.252845,-187.320007,-57.959999,-143.149994,1729420323113.0,0.0
0.454636,-4.457829,-11.291731,-173.740005,-3.92,-122.849998,1729420323133.0,0.0
0.543171,-6.324231,-11.667403,-202.440002,2.94,-137.690002,1729420323152.0,0.0
-1.880759,-11.203196,-10.487741,-144.199997,42.420002,-53.549999,1729420323171.0,0.0
-0.588634,-7.525427,-6.173482,8.54,-0.7,-29.33,1729420323192.0,0.0
-2.330609,-9.4349,1.184447,63.630001,-13.09,6.37,1729420323217.0,0.0
-4.510471,-9.205189,-6.032306,-5.11,47.040001,4.69,1729420323233.0,0.0
-5.936593,-8.922836,-9.585647,64.540001,66.220001,26.880001,1729420323251.0,0.0
-5.056034,-6.419943,-6.223732,107.309998,34.299999,92.959999,1729420323272.0,0.0
-2.464607,-5.812167,-9.901501,90.440002,-3.29,88.900002,1729420323294.0,0.0
0.078963,-4.010371,-12.033505,60.48,-28.139999,90.720001,1729420323313.0,0.0
2.861816,-3.98405,-11.397014,98.07,-72.800003,95.550003,1729420323334.0,0.0
3.081956,-3.005385,-10.526026,92.610001,-60.830002,120.470001,1729420323410.0,0.0
2.201397,-3.921836,-9.949356,101.290001,22.75,90.160004,1729420323412.0,0.0
-3.45045,-4.409972,-6.625726,117.809998,77.419998,78.610001,1729420323414.0,0.0
-5.510671,-2.818745,-4.845466,70.07,59.57,28.77,1729420323416.0,0.0
-4.130012,-4.414758,-4.733003,-24.01,-0.98,-2.17,1729420323432.0,0.0
-1.289732,-5.883951,-8.669197,-107.169998,-31.43,-47.529999,1729420323458.0,0.0
0.136391,-7.49432,-11.028521,-124.110001,-27.860001,-82.599998,1729420323471.0,0.0
0.062213,-8.647661,-9.449257,-118.860001,-33.459999,-111.860001,1729420323493.0,0.0
0.323031,-5.785845,-7.099504,-135.940002,-31.219999,-129.850006,1729420323515.0,0.0
0.308674,-6.680761,-10.447062,-153.649994,-46.41,-139.160004,1729420323532.0,0.0
1.177269,-6.695118,-10.478169,-182.490005,-31.780001,-163.660004,1729420323551.0,0.0
-1.842474,-9.178867,-10.743774,-95.970001,27.370001,-74.129997,1729420323572.0,0.0
-2.845066,-4.98425,-3.821337,13.37,22.4,-30.799999,1729420323591.0,0.0
-3.948158,-9.437292,-2.380858,-17.43,21.0,-23.24,1729420323613.0,0.0
-4.65404,-9.296116,-8.389235,-7.07,32.549999,-6.65,1729420323633.0,0.0
-4.649254,-7.408179,-6.049056,67.340004,34.16,20.370001,1729420323652.0,0.0
-4.182654,-5.381458,-6.281159,82.599998,40.599998,54.880001,1729420323672.0,0.0
-2.935993,-3.766303,-8.62134,78.400002,11.13,81.269997,1729420323692.0,0.0
-0.842274,-4.098906,-11.739187,52.779999,-30.66,86.099998,1729420323714.0,0.0
2.036292,-4.366901,-13.411771,32.689999,-68.669998,80.150002,1729420323736.0,0.0
2.912065,-5.379066,-11.330014,82.809998,-74.269997,112.910004,1729420323754.0,0.0
3.007778,-3.917051,-10.616954,144.830002,14.63,116.340004,1729420323773.0,0.0
-1.598405,-3.156133,-7.685746,144.970001,55.299999,104.019997,1729420323793.0,0.0
-4.127619,-2.634498,-6.063413,93.239998,58.380001,45.5,1729420323814.0,0.0
-3.54377,-4.699504,-4.412365,5.53,5.46,-2.45,1729420323834.0,0.0
-1.292124,-5.469993,-7.063612,-62.720001,-25.9,-37.380001,1729420323853.0,0.0
0.212961,-7.152147,-10.078569,-95.059998,-33.459999,-104.019997,1729420323873.0,0.0
0.411566,-7.345965,-8.496914,-99.75,-38.639999,-139.300003,1729420323893.0,0.0
0.59342,-4.429115,-7.84128,-154.699997,-61.110001,-150.919998,1729420323915.0,0.0
0.811167,-6.958328,-10.222138,-161.770004,-45.080002,-136.710007,1729420323934.0,0.0
-0.234497,-9.116654,-9.446864,-108.919998,-10.15,-102.550003,1729420323954.0,0.0
-2.371287,-6.34098,-9.489935,-37.869999,47.529999,-29.75,1729420323973.0,0.0
-5.534599,-11.490334,-2.919244,29.68,51.73,-29.120001,1729420323994.0,0.0
-6.305088,-10.234102,-6.608976,-28.42,43.889999,-25.41,1729420324013.0,0.0
-4.402793,-7.087541,-7.702496,60.27,15.33,11.83,1729420324034.0,0.0
-3.723232,-4.376472,-5.828916,124.529999,19.879999,66.57,1729420324055.0,0.0
-3.409772,-3.512664,-7.642675,95.269997,26.25,78.330002,1729420324075.0,0.0
-2.400001,-4.287938,-9.348758,50.540001,8.26,72.449997,1729420324093.0,0.0
-1.012164,-6.788438,-10.628918,23.17,-6.93,76.650002,1729420324114.0,0.0
1.904687,-5.469993,-11.763116,49.98,-37.939999,81.340004,1729420324135.0,0.0
1.507478,-4.290331,-8.114061,78.959999,-43.049999,124.459999,1729420324154.0,0.0
1.708475,-3.536592,-10.722239,101.150002,36.189999,99.889999,1729420324176.0,0.0
-2.069792,-3.725625,-7.484749,121.800003,46.970001,95.620003,1729420324195.0,0.0
-2.313859,-4.500899,-4.500899,73.849998,11.97,46.549999,1729420324215.0,0.0
-1.660619,-7.338787,-6.132804,-7.98,3.78,10.43,1729420324236.0,0.0
-1.98365,-7.970492,-7.152147,-28.559999,11.41,-25.129999,1729420324255.0,0.0
-2.172683,-7.152147,-7.372287,-42.209999,-0.07,-57.330002,1729420324274.0,0.0
-1.591227,-6.45105,-6.742974,-55.299999,-18.690001,-81.340004,1729420324294.0,0.0
-1.98365,-5.91745,-4.407579,-93.870003,-31.08,-99.120003,1729420324316.0,0.0
-1.775474,-6.396015,-7.034898,-153.580002,-28.700001,-91.349998,1729420324333.0,0.0
0.045464,-6.005985,-12.495319,-122.919998,-7.63,-77.840004,1729420324353.0,0.0
-0.650848,-3.749553,-11.052447,-52.220001,-18.41,-34.790001,1729420324372.0,0.0
-1.861616,-3.964907,-9.51147,-19.809999,29.190001,-24.360001,1729420324393.0,0.0
-2.447858,-6.685547,-7.798209,-73.57,30.17,-43.610001,1729420324418.0,0.0
-3.23031,-15.847664,0.691526,-65.590004,-1.33,-37.73,1729420324435.0,0.0
-2.658426,-13.820943,-4.864608,-53.34,-20.58,8.26,1729420324454.0,0.0
-1.237089,-6.647261,-11.41137,163.309998,-5.32,52.779999,1729420324473.0,0.0
-5.103891,-2.813959,-7.269395,209.580002,73.779999,95.410004,1729420324493.0,0.0
-8.087741,-3.48395,-8.563912,84.209999,97.650002,74.970001,1729420324514.0,0.0
-0.784846,-9.975677,-10.779665,21.35,-15.75,9.38,1729420324535.0,0.0
3.570091,-6.570691,-11.504691,82.459999,-120.400002,45.150002,1729420324554.0,0.0
4.756931,-2.725425,-10.786844,147.0,-97.650002,73.779999,1729420324573.0,0.0
2.59382,0.729811,-7.82453,102.760002,5.39,50.959999,1729420324593.0,0.0
-0.715454,-3.412165,-4.316652,27.719999,84.910004,14.42,1729420324615.0,0.0
-4.13719,-6.991827,-6.12084,-100.099998,98.840004,-11.34,1729420324635.0,0.0
-5.359922,-10.368099,-5.606383,-68.879997,20.370001,-25.48,1729420324653.0,0.0
-3.309274,-6.405586,-6.037091,-38.639999,-55.790001,0.84,1729420324673.0,0.0
-0.038285,-7.257431,-8.819944,39.41,-27.09,-6.09,1729420324693.0,0.0
-1.57687,-6.252446,-8.750552,65.870003,38.290001,-0.35,1729420324717.0,0.0
-2.830709,-5.905487,-8.551948,58.59,41.09,9.73,1729420324735.0,0.0
-1.098306,-7.69771,-11.22473,71.610001,9.59,11.13,1729420324754.0,0.0
-0.820738,-8.456236,-7.743174,103.389999,1.47,11.2,1729420324773.0,0.0
-2.452643,-7.372287,-4.811966,103.669998,1.68,-5.32,1729420324795.0,0.0
-2.084148,-6.845865,-3.87398,70.699997,9.52,-57.540001,1729420324816.0,0.0
-3.132205,-5.986843,-1.29691,-16.030001,-27.790001,-69.93,1729420324834.0,0.0
-1.665405,-4.436293,-5.15414,-116.900002,-62.299999,-99.190002,1729420324853.0,0.0
1.117448,-7.286145,-7.228717,-188.160004,-92.889999,-116.059998,1729420324874.0,0.0
1.009771,-8.149954,-9.178867,-266.48999,-83.019997,-103.809998,1729420324895.0,0.0
0.337388,-9.96132,-13.064812,-156.100006,54.110001,-76.510002,1729420324915.0,0.0
-4.369294,-5.553742,-8.054241,-56.209999,111.300003,-12.74,1729420324935.0,0.0
-5.852845,-2.900101,-2.63689,55.93,66.989998,18.34,1729420324954.0,0.0
-5.213961,-6.417551,-2.388037,-21.139999,-16.24,-21.0,1729420324972.0,0.0
-2.825923,-9.638289,-8.91805,-161.910004,-44.939999,-36.400002,1729420324993.0,0.0
-1.222732,-10.406385,-9.205189,-71.260002,-56.700001,-6.44,1729420325015.0,0.0
-1.024128,-5.623133,-6.652047,58.099998,-7.63,31.219999,1729420325033.0,0.0
-2.385644,-3.778267,-5.379066,87.709999,37.66,42.420002,1729420325052.0,0.0
-3.45045,-5.836094,-6.242875,35.98,39.619999,41.790001,1729420325074.0,0.0
-3.534199,-8.54477,-7.597212,0.42,17.43,47.459999,1729420325094.0,0.0
-2.490928,-8.793623,-9.700503,16.17,20.719999,69.090004,1729420325115.0,0.0
-0.571885,-4.802395,-9.456435,76.510002,-19.530001,107.379997,1729420325134.0,0.0
1.172483,-3.385844,-9.542577,115.709999,-73.849998,122.639999,1729420325154.0,0.0
3.196811,-3.304488,-11.10509,74.480003,-40.950001,106.75,1729420325173.0,0.0
1.883151,-5.759524,-7.951349,71.400002,4.41,98.07,1729420325193.0,0.0
-3.799802,-4.67079,-6.570691,73.849998,55.860001,60.48,1729420325216.0,0.0
-3.677768,-7.223931,-8.044669,-35.349998,16.870001,-14.07,1729420325233.0,0.0
-1.335195,-9.176475,-8.738588,-69.720001,-34.23,-54.389999,1729420325254.0,0.0
0.311067,-8.116454,-10.502099,-70.07,-45.709999,-75.18,1729420325274.0,0.0
0.07657,-5.003392,-9.516255,-47.740002,-24.639999,-95.690002,1729420325294.0,0.0
-0.26321,-2.182254,-8.980263,-57.68,-15.12,-112.699997,1729420325314.0,0.0
0.354138,-1.756332,-9.229117,-87.57,-14.14,-124.599998,1729420325333.0,0.0
-0.074178,-4.039084,-8.504091,-171.149994,-16.799999,-133.630005,1729420325354.0,0.0
-1.038485,-13.210773,-10.786844,-173.740005,15.82,-80.919998,1729420325374.0,0.0
