acc_x,acc_y,acc_z,gyr_x,gyr_y,gyr_z,timestamp,label
-2.143969,-7.152147,-8.348558,3.01,-8.68,-6.65,1729475541604.0,0.0
-2.194218,-7.477571,-8.240881,-12.81,-4.06,-10.43,1729475541605.0,0.0
-2.342573,-8.003991,-8.042276,-19.040001,2.1,-13.37,1729475541605.0,0.0
-2.376073,-8.152347,-7.929814,-15.12,6.86,-16.870001,1729475541613.0,0.0
-2.021935,-7.63789,-7.77428,-13.02,10.22,-18.76,1729475541629.0,0.0
-1.835295,-7.341179,-7.862815,-15.68,12.39,-19.040001,1729475541649.0,0.0
-1.713261,-7.302894,-7.68096,-32.060001,17.08,-23.379999,1729475541670.0,0.0
-1.634298,-7.530212,-7.415358,-42.349998,21.139999,-25.48,1729475541698.0,0.0
-1.4668,-7.243074,-7.221539,-29.68,21.98,-26.32,1729475541709.0,0.0
-1.588834,-6.659225,-6.910471,-8.12,25.27,-26.74,1729475541730.0,0.0
-1.67019,-6.388836,-7.269395,-1.68,25.83,-28.210001,1729475541749.0,0.0
-1.261017,-6.003592,-7.276574,-4.83,24.780001,-27.23,1729475541771.0,0.0
-1.103091,-5.647062,-7.003791,-15.75,26.880001,-25.549999,1729475541790.0,0.0
-1.272982,-5.424529,-6.836295,-31.290001,28.98,-24.85,1729475541810.0,0.0
-1.411765,-5.35753,-7.271788,-42.91,25.129999,-21.559999,1729475541829.0,0.0
-1.490728,-5.424529,-7.712067,-55.93,22.190001,-20.23,1729475541849.0,0.0
-1.68694,-5.486742,-8.618947,-73.150002,18.41,-21.91,1729475541871.0,0.0
-1.868794,-5.17089,-8.470592,-81.269997,17.5,-22.68,1729475541891.0,0.0
-2.11047,-4.835894,-8.84148,-72.800003,15.82,-23.030001,1729475541910.0,0.0
-1.79701,-4.960321,-9.260223,-61.040001,10.92,-25.200001,1729475541930.0,0.0
-1.579263,-4.965107,-9.265009,-45.990002,11.2,-25.059999,1729475541950.0,0.0
-1.660619,-4.376472,-9.131011,-33.459999,12.18,-24.360001,1729475541973.0,0.0
-1.978864,-3.632305,-9.265009,-32.549999,14.0,-23.17,1729475541991.0,0.0
-2.108077,-3.067599,-8.779266,-44.170002,17.15,-20.02,1729475542010.0,0.0
-2.07697,-3.20399,-8.717053,-55.93,16.24,-14.7,1729475542030.0,0.0
-1.995614,-3.792624,-9.107083,-55.790001,11.69,-8.89,1729475542051.0,0.0
-1.940579,-3.948158,-8.501699,-32.41,15.26,-0.14,1729475542073.0,0.0
-2.266003,-3.438486,-8.906086,5.46,14.98,6.58,1729475542092.0,0.0
-2.87378,-3.424129,-8.784052,6.79,18.76,7.35,1729475542111.0,0.0
-2.835495,-4.07737,-7.989635,-7.21,14.98,2.66,1729475542131.0,0.0
-2.0004,-4.278367,-8.350951,-14.84,4.41,0.63,1729475542150.0,0.0
-1.442872,-4.017549,-8.441878,-13.72,3.43,-0.14,1729475542173.0,0.0
-1.339981,-4.541577,-8.886944,-18.34,3.36,-2.03,1729475542193.0,0.0
-1.194018,-4.838287,-9.159724,-23.030001,2.03,-3.01,1729475542212.0,0.0
-1.172483,-4.491328,-8.767302,-23.1,3.15,-6.93,1729475542232.0,0.0
-1.012164,-4.12044,-9.126225,-20.719999,-2.03,-10.01,1729475542251.0,0.0
-0.842274,-3.522235,-9.410972,-21.280001,-5.67,-10.92,1729475542276.0,0.0
-0.72024,-3.101098,-9.707682,-21.700001,-7.21,-9.24,1729475542293.0,0.0
-0.48335,-3.125026,-10.13839,-14.14,-9.52,-4.55,1729475542312.0,0.0
-0.311067,-3.266203,-9.824929,-0.49,-5.6,0.98,1729475542331.0,0.0
-0.39003,-3.278167,-9.379865,10.5,-2.45,2.59,1729475542351.0,0.0
-0.722632,-3.546163,-9.341579,7.7,-0.49,1.26,1729475542374.0,0.0
-0.480957,-3.512664,-9.626326,-2.03,-5.95,-3.36,1729475542392.0,0.0
-0.425922,-3.34038,-9.743573,-1.33,-5.11,-5.18,1729475542416.0,0.0
-0.770489,-3.175276,-9.516255,0.07,0.91,-5.18,1729475542431.0,0.0
-1.043271,-3.148954,-9.274581,0.28,1.96,-4.97,1729475542453.0,0.0
-1.031307,-3.428915,-9.21476,3.29,-0.35,-4.2,1729475542472.0,0.0
-1.115055,-3.550949,-9.413363,8.54,-2.59,-3.64,1729475542494.0,0.0
-1.368695,-3.503092,-9.391829,8.12,-1.4,-4.83,1729475542511.0,0.0
-1.371087,-3.701697,-9.499505,8.75,-4.13,-5.04,1729475542531.0,0.0
-1.411765,-3.589234,-9.413363,12.6,-4.69,-5.53,1729475542551.0,0.0
-1.502693,-3.558127,-9.446864,12.46,-6.3,-5.88,1729475542572.0,0.0
-1.615155,-3.76391,-9.4349,7.98,-5.74,-4.69,1729475542592.0,0.0
-1.85683,-4.134798,-9.300901,9.66,-3.29,-2.17,1729475542611.0,0.0
-2.084148,-4.359723,-9.164511,19.879999,-2.38,-1.4,1729475542631.0,0.0
-2.213361,-4.220939,-9.205189,31.360001,-0.63,-1.26,1729475542652.0,0.0
-2.273181,-3.962514,-9.195618,31.780001,-0.63,-1.75,1729475542672.0,0.0
-2.28036,-4.197011,-9.052048,19.110001,1.19,-1.82,1729475542693.0,0.0
-2.316252,-4.852644,-9.085547,6.93,2.17,-2.59,1729475542713.0,0.0
-2.438286,-5.032106,-9.013763,8.12,3.43,-4.34,1729475542732.0,0.0
-2.488536,-4.833502,-8.865408,14.35,4.97,-5.04,1729475542751.0,0.0
-2.471786,-4.455436,-9.052048,17.710001,2.31,-5.18,1729475542773.0,0.0
-2.54357,-4.005585,-8.855836,14.84,3.5,-3.92,1729475542791.0,0.0
-2.644069,-4.350152,-8.439486,5.6,5.53,-3.57,1729475542811.0,0.0
-1.624727,-4.673182,-8.757731,-1.96,-11.55,-7.42,1729475542831.0,0.0
-0.715454,-4.792823,-9.353544,-0.14,-21.210001,-9.66,1729475542852.0,0.0
-1.012164,-4.474578,-9.640682,4.62,-12.11,-14.63,1729475542872.0,0.0
-1.883151,-3.962514,-9.035298,13.3,1.05,-16.52,1729475542893.0,0.0
-2.151148,-3.854837,-8.683553,16.450001,-1.82,-15.12,1729475542910.0,0.0
-1.057628,-4.146761,-8.961121,12.11,-21.559999,-15.190001,1729475542931.0,0.0
-0.411566,-4.455436,-9.339187,8.89,-25.059999,-13.72,1729475542951.0,0.0
-1.002593,-4.194618,-9.468399,10.15,-10.15,-13.79,1729475542972.0,0.0
-1.782653,-3.737589,-9.018548,13.37,0.56,-12.04,1729475542992.0,0.0
-1.777867,-3.699304,-8.683553,8.68,-5.81,-8.75,1729475543011.0,0.0
-0.782453,-4.280759,-8.587841,-8.12,-18.059999,-7.91,1729475543031.0,0.0
0.246461,-4.414758,-9.24826,-21.35,-20.860001,-11.69,1729475543051.0,0.0
-0.064606,-3.742374,-9.097511,-13.72,-8.4,-13.58,1729475543071.0,0.0
-0.581456,-3.421736,-8.60459,-15.47,-2.03,-11.9,1729475543092.0,0.0
-0.70349,-3.744767,-8.673983,-31.219999,-6.3,-11.76,1729475543110.0,0.0
-0.40678,-4.036692,-8.987441,-46.830002,-12.74,-12.46,1729475543131.0,0.0
-0.155533,-3.95055,-9.334401,-53.830002,-14.84,-14.14,1729475543151.0,0.0
-0.143569,-3.95055,-9.487542,-50.470001,-11.27,-13.86,1729475543171.0,0.0
-0.39003,-3.974478,-9.265009,-40.880001,-6.02,-12.11,1729475543193.0,0.0
-0.646062,-3.921836,-9.427721,-29.049999,-3.36,-11.06,1729475543211.0,0.0
-0.591027,-4.067799,-9.353544,-25.27,-3.36,-9.17,1729475543231.0,0.0
-0.160319,-3.9673,-9.427721,-30.24,-2.24,-9.38,1729475543251.0,0.0
0.040678,-3.830909,-9.446864,-35.77,0.98,-8.96,1729475543274.0,0.0
0.071785,-3.677768,-9.387043,-35.91,5.6,-7.14,1729475543294.0,0.0
-0.131605,-3.385844,-9.523434,-29.26,9.24,-3.15,1729475543311.0,0.0
-0.378066,-3.302095,-9.442079,-23.1,13.37,2.59,1729475543331.0,0.0
-0.555135,-3.45045,-9.580862,-21.210001,10.92,9.17,1729475543351.0,0.0
-0.55992,-3.381058,-9.815358,-19.389999,4.97,15.26,1729475543373.0,0.0
-0.701097,-3.270989,-9.695717,-7.98,4.55,24.219999,1729475543392.0,0.0
-0.914058,-3.433701,-9.863215,3.85,5.46,25.969999,1729475543412.0,0.0
-1.141376,-3.376273,-9.877571,13.79,6.16,25.969999,1729475543433.0,0.0
-1.074377,-3.134598,-9.470792,19.32,6.3,22.120001,1729475543451.0,0.0
-0.942772,-2.900101,-9.195618,18.83,3.5,16.17,1729475543471.0,0.0
-0.885344,-2.711068,-9.016156,13.51,-0.77,9.45,1729475543491.0,0.0
-0.985843,-2.737389,-9.466006,4.83,-6.37,2.45,1729475543511.0,0.0
-1.146162,-2.78046,-9.992428,-8.12,-12.04,-4.83,1729475543531.0,0.0
-1.11027,-2.57707,-10.624132,-24.780001,-15.82,-12.74,1729475543551.0,0.0
-1.026521,-2.651247,-10.461421,-33.599998,-16.73,-18.969999,1729475543572.0,0.0
-0.825524,-2.694318,-10.516455,-24.99,-17.57,-24.43,1729475543593.0,0.0
-0.57667,-2.368894,-10.447062,-3.57,-18.48,-27.370001,1729475543611.0,0.0
-0.409173,-1.572084,-10.447062,10.29,-17.01,-28.210001,1729475543630.0,0.0
-0.107677,-0.650848,-9.784252,-1.33,-15.89,-26.950001,1729475543650.0,0.0
0.200997,-0.648455,-9.269794,-34.02,-14.0,-24.43,1729475543671.0,0.0
0.512064,-1.567299,-9.410972,-52.920002,-14.28,-21.35,1729475543691.0,0.0
0.619741,-1.332802,-9.832108,-43.75,-14.77,-19.74,1729475543711.0,0.0
0.397209,-0.928415,-10.358529,-24.780001,-9.17,-19.25,1729475543738.0,0.0
0.122034,-0.976272,-10.152746,-18.9,-1.47,-19.530001,1729475543750.0,0.0
0.117248,-1.079163,-9.97807,-6.93,0.84,-19.74,1729475543772.0,0.0
-0.071785,-0.825524,-10.030712,2.59,1.61,-20.299999,1729475543792.0,0.0
-0.191426,-0.430708,-10.408779,-3.43,1.47,-21.139999,1729475543811.0,0.0
-0.165105,-0.148355,-10.035499,-23.17,5.18,-19.67,1729475543830.0,0.0
-0.064606,-0.653241,-9.899107,-36.259998,6.79,-15.26,1729475543851.0,0.0
-0.07657,-1.328017,-10.042676,-34.650002,8.12,-10.29,1729475543872.0,0.0
-0.248854,-1.502693,-10.040283,-20.299999,12.25,-5.88,1729475543892.0,0.0
-0.543171,-1.304088,-10.368099,-1.68,15.61,-1.33,1729475543911.0,0.0
-0.708275,-0.954736,-10.339387,7.28,18.690001,3.57,1729475543931.0,0.0
-0.72024,-1.12702,-10.181459,2.66,19.879999,8.68,1729475543952.0,0.0
-0.746561,-1.854438,-9.071191,-4.55,19.040001,12.18,1729475543973.0,0.0
-1.304088,-2.505285,-8.008778,-10.43,18.969999,11.9,1729475543992.0,0.0
-1.536192,-2.210968,-10.937593,-43.189999,9.45,-4.83,1729475544011.0,0.0
-0.282353,-2.806781,-10.983055,-29.68,-3.64,-9.73,1729475544033.0,0.0
0.485743,-2.423929,-10.466206,-0.63,1.05,-14.63,1729475544052.0,0.0
-0.267996,-1.710868,-10.415956,19.25,11.97,-16.24,1729475544074.0,0.0
-1.052842,-1.603191,-10.332209,13.51,18.129999,-18.129999,1729475544093.0,0.0
-0.902094,-1.76351,-10.372886,1.26,13.72,-18.48,1729475544113.0,0.0
-0.430708,-1.117448,-9.322437,3.01,14.21,-17.360001,1729475544133.0,0.0
-0.949951,-0.969093,-9.561719,5.81,17.219999,-13.58,1729475544153.0,0.0
-0.794417,0.090927,-8.922836,6.37,14.35,-10.92,1729475544174.0,0.0
-0.636491,0.677169,-8.980263,18.969999,3.29,2.45,1729475544194.0,0.0
-0.581456,0.868595,-9.288938,17.15,3.01,13.16,1729475544214.0,0.0
-0.361316,0.138784,-9.602397,-0.21,-1.75,20.51,1729475544232.0,0.0
-0.157926,-1.76351,-9.38465,-17.5,-3.85,23.379999,1729475544252.0,0.0
-0.122034,-2.715853,-9.671788,-20.58,-2.52,19.18,1729475544277.0,0.0
-0.971486,-3.192025,-10.559525,-7.49,-6.86,12.88,1729475544294.0,0.0
-2.210968,-4.68754,-9.894321,-20.790001,10.71,-1.89,1729475544313.0,0.0
-2.459821,-4.922036,-9.970891,-64.540001,6.93,-21.700001,1729475544333.0,0.0
-1.191626,-3.498307,-12.339786,-57.049999,-15.68,-32.41,1729475544353.0,0.0
-0.528814,-2.605784,-11.815758,34.23,-7.49,-22.049999,1729475544374.0,0.0
-1.01695,-1.48355,-9.446864,94.989998,14.7,-19.460001,1729475544394.0,0.0
-1.854438,-0.399601,-8.901299,83.650002,21.629999,-15.12,1729475544413.0,0.0
-1.194018,0.40678,-9.018548,54.529999,1.68,-13.02,1729475544432.0,0.0
-0.497707,1.552942,-10.171888,6.09,-3.43,-7.63,1729475544458.0,0.0
-0.514457,1.122234,-9.738789,-9.1,6.93,2.45,1729475544473.0,0.0
-0.361316,-0.591027,-9.157332,-2.17,7.0,8.82,1729475544493.0,0.0
0.380459,-1.57687,-8.492127,13.23,-2.73,9.73,1729475544514.0,0.0
1.148555,-1.368695,-8.487342,-0.07,-9.73,1.05,1729475544532.0,0.0
0.729811,-1.847259,-9.01137,-39.27,-5.6,-1.19,1729475544553.0,0.0
-0.535992,-2.861816,-9.877571,-55.299999,-7.35,1.82,1729475544574.0,0.0
-2.244468,-4.771288,-10.037891,-58.52,-0.7,2.38,1729475544595.0,0.0
-2.979064,-4.606184,-10.303494,-74.900002,3.57,-7.77,1729475544612.0,0.0
-0.411566,-2.725425,-12.193825,-42.07,-25.41,-10.5,1729475544633.0,0.0
-0.287139,-1.981257,-11.253445,51.939999,-11.62,-5.81,1729475544652.0,0.0
-1.205983,-1.074377,-9.626326,84.489998,7.91,-6.16,1729475544673.0,0.0
-1.655833,-1.143769,-9.492328,65.870003,10.29,-9.1,1729475544696.0,0.0
-0.79681,0.308674,-8.829515,38.779999,-8.47,-13.09,1729475544714.0,0.0
-1.600798,0.251246,-9.564112,-7.91,6.16,-17.57,1729475544732.0,0.0
-1.643869,-1.507478,-10.042676,-42.91,6.65,-20.02,1729475544753.0,0.0
0.01675,-1.150948,-10.372886,-13.23,-11.97,-16.66,1729475544773.0,0.0
0.928415,0.181855,-9.556933,50.75,-10.29,-1.75,1729475544793.0,0.0
0.942772,0.612563,-9.470792,50.189999,-6.44,7.98,1729475544812.0,0.0
-0.050249,-1.414158,-8.752945,-9.59,-1.05,18.48,1729475544832.0,0.0
-0.636491,-2.935993,-10.475778,-47.110001,-2.24,22.26,1729475544859.0,0.0
-0.940379,-3.536592,-10.679168,-39.970001,-4.69,23.1,1729475544874.0,0.0
-2.488536,-5.230711,-9.54497,-48.369999,18.200001,15.89,1729475544901.0,0.0
-2.325824,-4.465007,-11.279767,-68.949997,6.3,-9.94,1729475544912.0,0.0
-0.31346,-3.598805,-11.705689,-6.3,-18.34,-13.16,1729475544933.0,0.0
-0.040678,-3.292524,-10.707881,71.540001,-1.75,-12.46,1729475544952.0,0.0
-2.294717,-2.682354,-9.915856,90.019997,26.67,-22.049999,1729475544973.0,0.0
-2.012364,-1.052842,-9.769895,69.160004,13.58,-26.67,1729475545005.0,0.0
-1.038485,0.605384,-9.975677,41.720001,4.97,-20.790001,1729475545012.0,0.0
-0.602991,-0.37328,-8.664411,24.08,8.26,-7.84,1729475545036.0,0.0
0.155533,-1.440479,-8.68116,11.41,3.5,-4.27,1729475545054.0,0.0
0.827917,-1.385444,-8.874979,25.9,-6.72,3.15,1729475545074.0,0.0
0.715454,-0.461815,-9.253045,27.93,-4.06,7.21,1729475545094.0,0.0
-0.179462,-1.172483,-9.29133,-0.56,3.92,18.129999,1729475545112.0,0.0
-0.993021,-3.369094,-9.934999,-22.75,7.28,27.370001,1729475545132.0,0.0
-1.4668,-4.699504,-9.652647,-51.939999,5.74,17.360001,1729475545152.0,0.0
-2.423929,-6.613762,-8.425128,-68.040001,14.21,4.41,1729475545174.0,0.0
-1.536192,-4.972286,-10.662418,-62.299999,-12.25,-18.27,1729475545196.0,0.0
-0.236889,-3.354738,-11.767902,7.07,-21.35,-14.91,1729475545213.0,0.0
-0.191426,-2.679961,-8.973085,63.07,-1.4,-13.79,1729475545232.0,0.0
-1.667797,-2.201397,-8.52802,58.939999,11.06,-17.780001,1729475545253.0,0.0
-2.201397,-0.935594,-10.049855,32.689999,7.21,-23.59,1729475545278.0,0.0
-0.734596,-0.708275,-9.396614,8.47,-4.83,-23.1,1729475545294.0,0.0
0.179462,-1.160519,-9.23151,-16.309999,-7.63,-11.06,1729475545312.0,0.0
0.945165,-0.547956,-9.533006,-3.36,-11.55,-1.26,1729475545332.0,0.0
0.37328,-0.674776,-8.781659,15.26,2.73,19.25,1729475545353.0,0.0
-0.272782,-1.253839,-10.243673,17.639999,-0.7,29.4,1729475545373.0,0.0
-0.12682,-1.07677,-10.463813,-16.24,-4.97,29.469999,1729475545393.0,0.0
-1.512264,-3.364309,-8.367701,-73.080002,11.34,29.68,1729475545412.0,0.0
-3.055635,-5.570491,-9.229117,-114.449997,7.84,16.940001,1729475545432.0,0.0
-1.940579,-4.369294,-11.440084,-102.340004,-20.02,-0.21,1729475545452.0,0.0
-0.363709,-3.771089,-12.607781,-22.610001,-26.67,-0.21,1729475545474.0,0.0
-0.337388,-3.531806,-9.647861,53.970001,-1.89,-4.48,1729475545493.0,0.0
-1.837688,-2.54357,-9.142976,77.139999,9.52,-10.22,1729475545512.0,0.0
-1.837688,-0.495314,-10.042676,35.77,11.69,-22.049999,1729475545534.0,0.0
-1.375873,-0.404387,-9.915856,-1.61,-1.19,-15.68,1729475545552.0,0.0
-0.705883,-1.51705,-8.898908,-16.309999,0.14,-15.33,1729475545573.0,0.0
0.028714,-2.086541,-9.140583,-0.14,-7.84,-8.96,1729475545593.0,0.0
0.768096,-1.277767,-10.035499,26.530001,-10.85,-1.12,1729475545612.0,0.0
0.251246,0.524028,-9.731609,30.450001,-10.08,4.83,1729475545631.0,0.0
-0.808774,-1.074377,-10.052249,22.4,6.3,35.490002,1729475545652.0,0.0
-1.749153,-2.385644,-9.243474,-22.610001,6.51,36.75,1729475545672.0,0.0
-3.862016,-4.601398,-9.188439,-107.940002,20.93,24.85,1729475545693.0,0.0
-3.345166,-4.795217,-11.267801,-149.100006,-7.14,-3.64,1729475545713.0,0.0
-0.088534,-4.606184,-11.782259,-51.73,-37.380001,-3.43,1729475545731.0,0.0
0.631705,-3.421736,-12.234503,64.75,-8.96,-4.76,1729475545751.0,0.0
-0.382852,-1.765903,-7.73121,122.290001,28.700001,-10.64,1729475545781.0,0.0
-1.9669,-0.066999,-7.063612,98.0,20.65,-14.56,1729475545792.0,0.0
-2.117648,1.569692,-9.013763,15.89,6.44,-23.450001,1729475545812.0,0.0
-2.067399,-0.629312,-9.040084,-33.740002,-4.27,-12.67,1729475545834.0,0.0
-0.885344,-2.45025,-9.377472,-46.549999,-15.54,-14.42,1729475545851.0,0.0
0.55992,-1.636691,-9.693325,-12.18,-19.950001,-7.35,1729475545873.0,0.0
1.196411,-0.430708,-10.320245,25.83,-14.49,2.17,1729475545894.0,0.0
-0.045464,-0.337388,-10.119246,30.030001,2.24,18.83,1729475545913.0,0.0
-1.615155,-2.641676,-10.119246,10.36,8.54,27.65,1729475545933.0,0.0
-2.885744,-4.010371,-8.760124,-71.540001,17.01,19.25,1729475545954.0,0.0
-3.180061,-4.766503,-9.750752,-100.660004,3.64,3.08,1729475545974.0,0.0
-1.086342,-4.371687,-11.32523,-59.220001,-20.09,-3.64,1729475545994.0,0.0
0.004786,-3.706482,-13.069597,22.82,-13.86,-5.04,1729475546013.0,0.0
-0.064606,-2.964707,-8.827123,98.419998,16.309999,-10.15,1729475546033.0,0.0
-1.208375,-0.947558,-6.972685,109.690002,17.92,-19.18,1729475546054.0,0.0
-2.414358,0.404387,-9.944571,51.310001,13.16,-26.880001,1729475546075.0,0.0
-2.380858,-1.112662,-9.272188,-13.51,5.39,-28.91,1729475546094.0,0.0
-0.574277,-1.722832,-10.119246,-39.41,-14.7,-27.93,1729475546114.0,0.0
0.837488,-1.622334,-10.691131,7.07,-14.98,-5.88,1729475546134.0,0.0
1.316052,-0.39003,-10.392029,45.290001,-9.66,2.59,1729475546154.0,0.0
-0.445065,-0.461815,-9.918249,61.389999,14.42,22.33,1729475546174.0,0.0
-1.074377,-0.600598,-9.638289,45.43,15.4,29.469999,1729475546195.0,0.0
-1.507478,-1.454836,-8.781659,-5.32,13.86,35.0,1729475546213.0,0.0
-3.019742,-3.854837,-9.487542,-62.299999,14.07,33.740002,1729475546233.0,0.0
-2.038685,-3.9338,-11.009377,-101.849998,-6.37,8.96,1729475546254.0,0.0
-0.744168,-5.178068,-11.619547,-36.119999,-13.79,4.48,1729475546280.0,0.0
-0.224925,-4.307081,-8.633304,45.290001,9.45,-4.69,1729475546294.0,0.0
-1.098306,-2.352145,-7.188039,88.620003,12.04,-12.18,1729475546313.0,0.0
-2.562713,-2.411965,-9.822537,69.93,7.35,-18.27,1729475546336.0,0.0
-2.06022,-0.976272,-9.159724,3.85,4.2,-30.799999,1729475546355.0,0.0
-1.141376,-1.995614,-9.159724,-38.43,-4.27,-26.32,1729475546378.0,0.0
0.66999,-2.464607,-9.762716,-22.049999,-20.16,-21.280001,1729475546396.0,0.0
1.100698,-0.885344,-9.853643,34.09,-6.44,-1.19,1729475546415.0,0.0
0.471386,0.624527,-9.123833,56.700001,-1.68,11.69,1729475546436.0,0.0
-1.318445,-0.849452,-9.166903,47.529999,12.88,35.84,1729475546455.0,0.0
-1.227518,-1.227518,-10.351351,-2.45,-0.91,33.459999,1729475546478.0,0.0
-2.179861,-3.010171,-9.62154,-65.029999,3.71,29.68,1729475546500.0,0.0
-3.29731,-4.675575,-10.396815,-107.520004,11.83,14.7,1729475546514.0,0.0
-1.014557,-4.936393,-11.306087,-111.370003,-9.17,-6.44,1729475546534.0,0.0
0.043071,-4.139583,-12.160326,9.59,-11.13,-15.05,1729475546609.0,0.0
-0.571885,-3.981657,-9.71486,108.360001,13.37,-14.84,1729475546610.0,0.0
-0.646062,-0.684347,-5.783452,123.480003,24.99,-26.950001,1729475546613.0,0.0
-1.442872,1.055235,-7.058826,72.029999,0.84,-20.440001,1729475546631.0,0.0
-2.603391,-0.760918,-8.865408,-32.41,-7.14,-23.66,1729475546636.0,0.0
-2.416751,-1.61037,-10.253245,-98.349998,-17.43,-23.17,1729475546655.0,0.0
-0.789631,-0.957129,-11.114661,-51.029999,-26.530001,-5.6,1729475546677.0,0.0
0.914058,-0.650848,-10.231709,21.98,-24.57,14.28,1729475546697.0,0.0
-0.081356,-1.799403,-10.241282,52.150002,0.42,37.029999,1729475546717.0,0.0
-1.337588,-1.512264,-8.882158,37.799999,15.96,37.310001,1729475546741.0,0.0
-2.340181,-1.830509,-8.997013,-14.0,9.03,33.599998,1729475546754.0,0.0
-2.821138,-3.117848,-10.741381,-70.209999,0.49,26.460001,1729475546775.0,0.0
-1.9669,-5.237889,-9.616754,-112.0,-8.47,10.29,1729475546796.0,0.0
-1.052842,-4.749753,-11.763116,-116.199997,-10.36,-7.21,1729475546814.0,0.0
-0.33021,-4.053442,-13.825729,4.9,-9.17,-4.97,1729475546845.0,0.0
-0.808774,-3.98405,-10.657632,124.739998,19.879999,-8.19,1729475546856.0,0.0
-1.916651,-0.311067,-6.321837,115.290001,29.4,-23.799999,1729475546876.0,0.0
-3.012564,-0.07657,-8.389235,5.67,8.96,-33.740002,1729475546895.0,0.0
-2.536392,-1.215554,-8.757731,-91.07,0.98,-38.43,1729475546915.0,0.0
-0.61017,-0.729811,-10.844273,-76.440002,-21.559999,-21.559999,1729475546934.0,0.0
1.004985,0.064606,-10.411172,20.370001,-11.55,13.09,1729475546954.0,0.0
1.12702,-0.028714,-9.073583,70.840004,-9.03,32.48,1729475546976.0,0.0
0.294317,-1.241875,-8.73141,45.5,0.98,39.34,1729475546995.0,0.0
-0.839881,-2.045863,-8.492127,-13.79,4.2,28.84,1729475547014.0,0.0
-3.199204,-3.302095,-9.611969,-67.760002,15.190001,22.120001,1729475547035.0,0.0
-3.797409,-3.706482,-10.896914,-111.860001,5.46,3.15,1729475547054.0,0.0
-2.117648,-3.574877,-12.440285,-112.07,-10.5,-8.4,1729475547075.0,0.0
-0.260818,-4.524827,-11.301301,-13.72,-13.86,-3.57,1729475547096.0,0.0
-0.916451,-3.833302,-11.119448,66.010002,10.92,-10.43,1729475547115.0,0.0
-1.629512,-1.969293,-7.357929,87.220001,24.639999,-20.440001,1729475547135.0,0.0
-1.753939,-0.971486,-7.04447,55.93,9.38,-27.790001,1729475547160.0,0.0
-2.132005,-2.129612,-9.226725,-4.41,-6.72,-33.950001,1729475547175.0,0.0
-1.081556,-1.177269,-9.343972,-43.75,-2.31,-41.16,1729475547196.0,0.0
0.287139,1.473979,-10.25803,29.889999,-14.84,-12.88,1729475547214.0,0.0
0.674776,1.79701,-10.928021,70.559998,-7.98,19.950001,1729475547234.0,0.0
0.145962,0.655633,-9.822537,42.84,-3.29,37.240002,1729475547254.0,0.0
-0.473779,-1.919044,-9.561719,-6.44,5.04,40.25,1729475547303.0,0.0
-1.426122,-3.493521,-9.360723,-48.93,4.27,27.58,1729475547382.0,0.0
-3.455236,-4.139583,-10.339387,-86.239998,20.790001,11.48,1729475547384.0,0.0
-2.938386,-4.577469,-12.078968,-88.900002,3.22,-8.26,1729475547386.0,0.0
-0.344566,-4.797609,-11.203196,-19.67,-12.6,-11.62,1729475547387.0,0.0
-0.354138,-3.84048,-9.643075,59.920002,8.68,-13.37,1729475547389.0,0.0
-1.655833,-2.452643,-7.633104,109.340004,21.49,-15.33,1729475547396.0,0.0
-2.376073,-0.236889,-7.262216,79.519997,12.53,-22.26,1729475547414.0,0.0
-3.101098,-1.052842,-10.643275,-2.1,-4.55,-29.75,1729475547435.0,0.0
-1.768296,-1.820938,-9.992428,-47.459999,-8.26,-33.810001,1729475547453.0,0.0
0.172283,-0.387637,-10.834702,-6.86,-21.77,-23.1,1729475547476.0,0.0
0.684347,1.349552,-9.927821,58.869999,-3.01,6.02,1729475547495.0,0.0
0.5001,0.847059,-10.186246,56.77,-0.21,26.32,1729475547514.0,0.0
-0.555135,-2.37368,-9.229117,-5.74,-2.17,30.799999,1729475547534.0,0.0
-1.268196,-3.024528,-10.064213,-27.65,4.27,25.48,1729475547554.0,0.0
-2.98385,-3.661019,-10.174281,-35.98,12.95,19.25,1729475547575.0,0.0
-3.792624,-4.524827,-10.767702,-62.790001,16.309999,9.52,1729475547595.0,0.0
-2.129612,-4.436293,-11.353944,-88.269997,-3.92,-5.46,1729475547614.0,0.0
0.014357,-4.733003,-10.875379,-19.18,-14.77,-2.59,1729475547634.0,0.0
-0.095713,-3.383451,-9.970891,68.040001,10.85,-8.47,1729475547654.0,0.0
-1.014557,-0.940379,-7.329216,109.970001,17.57,-11.06,1729475547675.0,0.0
-2.234896,-0.775275,-8.30788,61.459999,8.26,-17.43,1729475547695.0,0.0
-2.656033,-1.416551,-8.676375,-41.439999,-2.45,-33.32,1729475547715.0,0.0
-1.710868,-1.866402,-9.815358,-64.75,-12.11,-34.16,1729475547734.0,0.0
-0.035892,0.043071,-10.817951,-15.82,-17.290001,-21.700001,1729475547755.0,0.0
-0.227318,0.445065,-10.124033,37.310001,-1.4,14.14,1729475547775.0,0.0
-0.287139,-1.158126,-9.209974,17.85,-3.36,26.809999,1729475547794.0,0.0
-0.306281,-2.428715,-8.80798,-12.95,0.28,29.960001,1729475547821.0,0.0
-0.933201,-2.435893,-8.118847,-13.37,-0.91,23.799999,1729475547836.0,0.0
-3.151347,-2.143969,-11.660224,-35.98,11.55,20.23,1729475547854.0,0.0
-2.043471,-3.515057,-11.423335,-77.840004,-7.14,6.37,1729475547876.0,0.0
-0.81356,-4.366901,-9.994821,-68.18,-3.78,-1.82,1729475547896.0,0.0
-1.177269,-4.151547,-10.872985,-5.32,2.8,-5.74,1729475547914.0,0.0
-1.639083,-3.438486,-10.463813,67.480003,10.71,-10.64,1729475547935.0,0.0
-0.988236,-1.354338,-6.592227,84.07,18.83,-21.700001,1729475547955.0,0.0
-2.165504,-1.117448,-9.040084,34.02,6.51,-26.110001,1729475547976.0,0.0
-2.833102,-2.065006,-9.789038,-30.799999,6.93,-37.099998,1729475547997.0,0.0
-1.694118,-1.682154,-9.509077,-28.98,-2.73,-34.369999,1729475548015.0,0.0
0.418744,0.294317,-10.329816,19.32,-18.34,-19.809999,1729475548035.0,0.0
1.088734,-0.064606,-10.016356,65.169998,-11.06,12.18,1729475548055.0,0.0
0.744168,-0.729811,-9.911072,61.110001,-4.69,29.049999,1729475548076.0,0.0
0.143569,-1.292124,-9.700503,14.07,-2.03,27.16,1729475548097.0,0.0
-1.674976,-2.096112,-9.944571,-39.130001,11.06,23.59,1729475548115.0,0.0
-2.773281,-3.129812,-10.9352,-79.519997,13.440001,12.04,1729475548135.0,0.0
-2.388037,-4.673182,-10.863414,-91.699997,9.59,-1.47,1729475548157.0,0.0
-1.241875,-4.326223,-11.042876,8.96,-6.02,-6.72,1729475548177.0,0.0
-1.514657,-3.213561,-9.920642,73.150002,12.39,-13.86,1729475548197.0,0.0
-1.61037,-2.115255,-6.896115,94.989998,20.299999,-16.52,1729475548215.0,0.0
-2.215754,-1.768296,-9.592826,59.360001,6.09,-22.26,1729475548235.0,0.0
-1.619941,-1.371087,-7.956135,-13.86,7.14,-34.580002,1729475548259.0,0.0
-1.275374,-2.134398,-9.236296,-43.959999,-11.2,-28.700001,1729475548280.0,0.0
0.122034,-0.961915,-9.178867,-20.790001,-11.97,-22.469999,1729475548298.0,0.0
1.306481,0.035892,-10.813165,26.74,-18.620001,-1.54,1729475548318.0,0.0
1.481157,-0.937986,-10.427922,35.209999,-15.68,13.93,1729475548336.0,0.0
1.481157,-2.383251,-10.040283,21.77,1.4,24.290001,1729475548359.0,0.0
-1.036092,-1.689333,-10.329816,-14.77,6.86,16.940001,1729475548377.0,0.0
-2.589034,-2.744568,-9.071191,-43.540001,22.190001,20.370001,1729475548398.0,0.0
-3.605984,-3.704089,-9.379865,-73.010002,18.969999,11.27,1729475548417.0,0.0
-2.313859,-4.371687,-10.719845,-64.889999,-6.58,2.17,1729475548436.0,0.0
-0.564706,-3.5007,-11.772687,-13.58,-9.03,2.8,1729475548457.0,0.0
-1.095913,-3.598805,-10.705488,100.029999,19.389999,4.69,1729475548477.0,0.0
-1.067199,0.512064,-5.295317,90.370003,32.900002,-7.21,1729475548499.0,0.0
-2.969493,-0.476172,-7.070791,6.79,15.12,-7.63,1729475548516.0,0.0
-2.742175,-3.046063,-9.229117,-65.239998,-10.92,-18.41,1729475548541.0,0.0
-1.383051,-4.666004,-10.365707,-41.02,-18.620001,-17.99,1729475548557.0,0.0
0.282353,-2.892922,-9.178867,3.99,-17.08,-27.16,1729475548577.0,0.0
0.442672,-1.629512,-8.958728,27.719999,-10.99,-24.219999,1729475548599.0,0.0
0.064606,-0.736989,-9.4349,33.810001,-9.94,-9.66,1729475548615.0,0.0
-0.040678,-0.847059,-10.293922,39.34,-14.56,10.92,1729475548637.0,0.0
-0.545564,-1.12702,-10.621738,12.39,-8.82,21.0,1729475548656.0,0.0
-1.347159,-2.024328,-10.351351,-15.75,4.62,26.18,1729475548677.0,0.0
-1.938186,-2.926422,-10.116854,-25.34,5.74,26.18,1729475548698.0,0.0
-2.215754,-2.584249,-10.9352,-24.85,4.83,19.74,1729475548718.0,0.0
-2.081756,-3.20399,-10.162319,-26.040001,5.67,12.04,1729475548735.0,0.0
-1.749153,-3.26381,-9.650253,-34.439999,5.25,-1.54,1729475548759.0,0.0
-1.476372,-2.74696,-10.664811,1.05,-2.87,-3.08,1729475548781.0,0.0
-1.540978,-2.26361,-7.484749,30.380001,12.53,-15.75,1729475548797.0,0.0
-1.4668,-2.316252,-7.757531,44.52,1.33,-13.16,1729475548816.0,0.0
-1.663012,-0.145962,-8.360522,10.5,-3.43,-17.5,1729475548836.0,0.0
-1.627119,-0.894916,-8.822337,-23.66,-10.08,-10.85,1729475548856.0,0.0
-1.143769,-0.674776,-10.016356,-35.0,-20.440001,1.82,1729475548877.0,0.0
-1.012164,-1.205983,-10.648061,0.77,-11.83,22.82,1729475548898.0,0.0
-1.227518,-2.285146,-10.267602,25.549999,-5.53,35.420002,1729475548916.0,0.0
-1.165305,-3.495914,-9.722038,27.440001,-3.01,35.139999,1729475548937.0,0.0
-0.600598,-3.957729,-9.903893,19.389999,-11.76,22.75,1729475548956.0,0.0
-0.564706,-3.598805,-10.51167,4.55,-1.54,7.84,1729475548978.0,0.0
-1.208375,-4.007978,-10.906486,-6.23,3.29,-4.62,1729475548998.0,0.0
-1.634298,-4.706682,-11.179268,6.3,13.86,-14.0,1729475549017.0,0.0
-1.698904,-5.017749,-11.052447,50.049999,18.34,-17.43,1729475549036.0,0.0
-1.392623,-4.572684,-10.571491,103.879997,22.82,-19.110001,1729475549058.0,0.0
-1.201197,-4.180261,-9.676575,156.800003,25.48,-13.93,1729475549077.0,0.0
-1.158126,-4.347759,-9.343972,191.869995,24.219999,-8.61,1729475549098.0,0.0
-1.162912,-5.938986,-9.379865,216.930008,24.57,-2.94,1729475549117.0,0.0
-0.911665,-7.159326,-9.573684,298.76001,24.639999,6.72,1729475549136.0,0.0
-1.002593,-6.702296,-8.585447,383.950012,49.07,17.85,1729475549157.0,0.0
-1.371087,-6.515656,-8.10449,465.570007,41.860001,23.52,1729475549177.0,0.0
-1.153341,-5.680561,-5.199604,461.089996,49.420002,21.700001,1729475549197.0,0.0
-1.61037,-7.020542,-3.479164,377.299988,47.740002,14.63,1729475549218.0,0.0
-1.375873,-9.75793,-2.493321,309.610016,31.5,3.71,1729475549237.0,0.0
-0.87338,-10.506885,-2.067399,284.339996,29.4,4.97,1729475549267.0,0.0
-0.583849,-9.877571,-1.215554,280.420013,30.73,-3.36,1729475549280.0,0.0
-0.751346,-9.446864,-1.284946,276.570007,32.41,-11.9,1729475549296.0,0.0
-1.134198,-10.145569,-0.198604,262.98999,35.560001,-16.17,1729475549316.0,0.0
-0.567099,-10.112068,0.837488,228.619995,40.18,-19.67,1729475549335.0,0.0
0.165105,-9.317651,2.275574,199.080002,41.23,-21.210001,1729475549355.0,0.0
0.069392,-7.855636,4.127619,165.479996,47.599998,-21.49,1729475549380.0,0.0
-0.586242,-7.76471,4.567898,103.110001,47.810001,-28.77,1729475549398.0,0.0
0.196211,-9.853643,2.689533,37.869999,41.23,-42.209999,1729475549418.0,0.0
0.930808,-11.088341,1.70369,29.610001,50.119999,-43.68,1729475549437.0,0.0
0.782453,-9.078369,2.397608,71.260002,69.790001,-45.849998,1729475549456.0,0.0
0.258425,-7.429714,3.103491,89.110001,93.870003,-52.779999,1729475549478.0,0.0
-1.241875,-10.116854,4.208975,60.760002,80.010002,-51.170002,1729475549498.0,0.0
-0.81356,-6.293124,9.032906,117.669998,56.630001,-33.459999,1729475549516.0,0.0
0.098106,-2.57707,7.9011,203.979996,75.110001,1.54,1729475549536.0,0.0
0.078963,-0.854238,7.580462,139.020004,62.860001,-0.98,1729475549557.0,0.0
-0.837488,-3.57727,6.039484,-6.44,14.21,30.030001,1729475549577.0,0.0
-0.535992,-9.221939,3.818945,-79.309998,-13.440001,45.009998,1729475549599.0,0.0
-0.614955,-13.806586,4.45065,-13.72,-13.79,42.490002,1729475549617.0,0.0
-2.435893,-13.85205,5.290531,94.150002,-11.41,28.630001,1729475549635.0,0.0
-2.423929,-10.789237,4.622933,131.110001,-9.87,11.55,1729475549658.0,0.0
-1.59362,-10.707881,3.888337,85.610001,-4.2,-4.69,1729475549679.0,0.0
-0.894916,-11.13859,3.455236,39.900002,-8.82,-26.809999,1729475549699.0,0.0
-1.311267,-8.901299,4.618148,79.800003,7.77,-32.34,1729475549715.0,0.0
-1.514657,-7.123433,5.608776,91.209999,22.120001,-49.420002,1729475549736.0,0.0
-1.830509,-5.103891,6.78126,53.549999,28.280001,-51.310001,1729475549758.0,0.0
-1.105484,-2.498107,6.929615,-17.5,39.619999,-50.889999,1729475549778.0,0.0
0.476172,-4.56072,6.943972,-171.149994,30.52,-45.080002,1729475549798.0,0.0
1.088734,-7.168896,7.755138,-209.509995,17.01,-36.119999,1729475549817.0,0.0
1.335195,-6.388836,7.355537,-118.720001,3.36,-13.93,1729475549835.0,0.0
0.289532,-2.132005,7.963314,85.330002,29.68,36.68,1729475549858.0,0.0
-0.870987,0.440279,6.943972,90.019997,31.360001,43.259998,1729475549878.0,0.0
-0.887737,-2.222932,4.852644,-35.07,-2.38,67.970001,1729475549896.0,0.0
-0.378066,-8.77448,3.457629,-128.940002,-18.41,89.25,1729475549916.0,0.0
-2.127219,-14.641682,4.634897,-55.650002,-21.210001,96.949997,1729475549935.0,0.0
-5.82413,-15.940985,6.343372,53.900002,-20.65,72.660004,1729475549958.0,0.0
-6.041877,-15.914663,4.917251,37.310001,-27.790001,24.15,1729475549978.0,0.0
-3.570091,-14.261222,2.045863,33.32,-22.26,4.48,1729475549999.0,0.0
-4.0008,-9.760324,2.467,82.599998,-2.73,-17.43,1729475550016.0,0.0
-4.134798,-5.369494,3.029313,109.059998,20.370001,-30.870001,1729475550038.0,0.0
-2.289931,-5.809773,5.233103,88.199997,42.0,-41.509998,1729475550057.0,0.0
-2.419144,-6.912865,6.692725,28.0,36.259998,-39.900002,1729475550079.0,0.0
-0.751346,-5.297709,7.779066,13.37,45.57,-38.5,1729475550096.0,0.0
-0.619741,-2.258825,8.822337,-34.580002,45.779999,-30.030001,1729475550116.0,0.0
-0.98345,-2.85703,7.085148,-166.389999,16.450001,-12.32,1729475550136.0,0.0
-0.4666,-7.255038,4.996214,-220.570007,-11.69,4.83,1729475550155.0,0.0
-0.177069,-10.506885,3.718446,-157.919998,-8.68,22.610001,1729475550176.0,0.0
-0.346959,-8.719445,4.197011,-33.880001,9.03,29.540001,1729475550196.0,0.0
-0.911665,-7.200003,4.632504,17.01,24.92,25.059999,1729475550216.0,0.0
-2.737389,-8.008778,6.642475,-12.32,4.2,30.030001,1729475550236.0,0.0
-2.926422,-9.008978,6.838687,4.13,-9.03,32.619999,1729475550257.0,0.0
-1.919044,-8.762517,5.355137,3.92,-10.29,23.940001,1729475550280.0,0.0
-2.658426,-10.817951,4.821537,-4.76,-15.75,31.639999,1729475550297.0,0.0
-2.620141,-11.447264,4.206582,19.530001,-30.870001,23.52,1729475550315.0,0.0
-3.168097,-10.882557,5.556134,86.449997,-40.950001,23.1,1729475550337.0,0.0
-3.739982,-9.712467,5.592027,105.910004,-51.59,14.84,1729475550358.0,0.0
-3.108276,-10.504492,4.577469,87.57,-53.549999,7.21,1729475550376.0,0.0
-1.557728,-12.653246,2.773281,59.010002,-40.25,-13.93,1729475550397.0,0.0
-0.882952,-9.052048,2.813959,45.5,1.61,-31.5,1729475550415.0,0.0
-1.95015,-7.716853,4.275974,40.389999,20.370001,-45.709999,1729475550436.0,0.0
-1.529014,-7.554141,5.402994,18.129999,29.4,-55.860001,1729475550457.0,0.0
-1.361516,-7.673782,5.903094,-65.309998,35.700001,-66.849998,1729475550478.0,0.0
-0.416351,-7.41775,7.293324,-123.059998,29.469999,-64.68,1729475550496.0,0.0
0.519243,-7.001399,7.259824,-100.379997,13.58,-54.740002,1729475550515.0,0.0
0.928415,-2.95035,7.202396,46.48,15.75,-22.33,1729475550536.0,0.0
0.179462,2.210968,7.192825,107.449997,35.77,-3.78,1729475550555.0,0.0
-2.07697,1.698904,7.171289,32.41,15.82,30.24,1729475550576.0,0.0
-2.995814,-3.692125,3.39063,-105.209999,-22.469999,65.239998,1729475550597.0,0.0
-1.038485,-12.861421,1.258625,-123.970001,-35.560001,61.740002,1729475550615.0,0.0
-0.859023,-15.41935,3.146562,32.689999,-7.07,86.660004,1729475550635.0,0.0
-6.814759,-14.483756,7.219146,183.470001,12.18,58.869999,1729475550655.0,0.0
-7.458428,-13.447663,6.089733,97.510002,-24.710001,0.28,1729475550676.0,0.0
-4.103691,-13.959727,3.424129,4.55,-12.25,-9.8,1729475550698.0,0.0
-3.031706,-12.722638,2.730211,-8.47,-1.12,-46.759998,1729475550715.0,0.0
-3.24706,-8.932407,3.61077,60.130001,22.889999,-67.269997,1729475550735.0,0.0
-3.534199,-4.051049,5.292924,58.170002,48.369999,-77.0,1729475550755.0,0.0
-2.081756,-2.677568,6.845865,-18.9,44.52,-75.040001,1729475550777.0,0.0
2.354537,-3.799802,7.834101,-108.849998,19.040001,-57.049999,1729475550795.0,0.0
3.538985,-2.538785,6.920043,-91.559998,26.389999,-6.16,1729475550816.0,0.0
2.244468,-0.882952,7.267002,-67.830002,11.48,17.290001,1729475550835.0,0.0
-1.4668,-3.507878,5.089533,-37.799999,3.57,51.099998,1729475550856.0,0.0
-1.335195,-6.912865,4.010371,-37.029999,-15.82,55.369999,1729475550878.0,0.0
1.100698,-9.891929,4.737789,-16.1,-20.299999,72.660004,1729475550896.0,0.0
-1.414158,-11.988041,5.123034,50.330002,3.29,84.07,1729475550916.0,0.0
-9.166903,-15.811772,7.156933,69.720001,-16.940001,50.959999,1729475550937.0,0.0
-9.195618,-16.991434,4.216154,15.190001,-45.5,-7.84,1729475550955.0,0.0
-4.912465,-12.06222,3.488736,65.449997,-4.55,5.6,1729475550977.0,0.0
-5.618347,-8.102098,5.132604,112.209999,7.14,-33.389999,1729475550999.0,0.0
-6.123233,-7.436893,8.006385,121.099998,2.73,-49.139999,1729475551015.0,0.0
-4.101298,-5.276174,5.962914,93.309998,13.16,-50.959999,1729475551036.0,0.0
-3.491128,-3.672983,7.372287,43.049999,19.74,-48.369999,1729475551055.0,0.0
-0.861416,-3.462414,7.673782,-66.290001,11.69,-46.830002,1729475551078.0,0.0
0.543171,-4.558327,5.163712,-173.110001,9.66,-40.040001,1729475551096.0,0.0
1.552942,-6.979864,5.142176,-183.680008,-1.47,-19.74,1729475551116.0,0.0
0.985843,-7.848458,3.254239,-101.919998,12.18,-22.049999,1729475551135.0,0.0
0.949951,-7.896315,3.929015,-31.780001,15.61,-7.98,1729475551155.0,0.0
0.937986,-7.128219,5.235496,3.15,19.460001,-2.52,1729475551176.0,0.0
-0.299103,-8.271988,6.463014,-44.73,0.91,-3.78,1729475551196.0,0.0
-1.488336,-7.762317,5.091926,-39.060001,-23.59,4.9,1729475551215.0,0.0
-1.28016,-6.474977,4.625326,56.700001,-5.11,23.450001,1729475551235.0,0.0
-1.916651,-4.907679,5.479564,92.050003,-3.29,34.93,1729475551254.0,0.0
-3.998406,-5.735595,5.4341,70.349998,-10.15,50.82,1729475551281.0,0.0
-6.759724,-10.408779,5.661418,30.450001,-23.450001,57.540001,1729475551296.0,0.0
-7.178468,-16.788044,5.187639,-21.629999,-39.830002,28.98,1729475551314.0,0.0
-4.876573,-15.223137,3.37388,12.25,-32.900002,4.06,1729475551335.0,0.0
-4.780859,-9.212367,5.673382,119.840004,-4.62,-16.940001,1729475551356.0,0.0
-5.192425,-4.898108,3.251846,83.019997,3.92,-32.619999,1729475551376.0,0.0
-3.239882,-4.046263,5.845665,22.26,16.52,-32.27,1729475551396.0,0.0
-1.521835,-5.778666,5.111069,-151.619995,27.51,-42.490002,1729475551422.0,0.0
-0.119641,-8.549555,3.163311,-270.549988,9.45,-37.310001,1729475551435.0,0.0
2.495714,-12.198609,3.07717,-215.529999,6.44,-24.639999,1729475551455.0,0.0
3.038885,-7.611568,4.981857,15.89,33.110001,-23.940001,1729475551477.0,0.0
2.28036,-3.476771,6.62094,72.099998,33.950001,-16.52,1729475551496.0,0.0
1.095913,-2.510071,6.321837,68.389999,12.6,9.45,1729475551516.0,0.0
0.275175,-4.342973,6.326623,36.889999,-12.95,38.360001,1729475551605.0,0.0
-0.851845,-6.051448,5.431707,-1.75,-30.380001,47.810001,1729475551605.0,0.0
-3.347559,-8.85823,5.087141,17.92,-34.650002,61.599998,1729475551609.0,0.0
-7.798209,-13.485948,4.881358,32.970001,-44.380001,57.68,1729475551609.0,0.0
-9.678967,-16.338192,4.388437,3.64,-54.529999,20.02,1729475551615.0,0.0
-6.233303,-14.837894,2.811567,-5.67,-30.59,-0.63,1729475551635.0,0.0
-4.173083,-13.811372,2.447858,9.45,-13.79,-34.580002,1729475551656.0,0.0
-4.414758,-9.06162,4.118048,64.959999,3.92,-50.82,1729475551676.0,0.0
-3.866802,-3.787838,3.682554,85.82,31.710001,-50.189999,1729475551696.0,0.0
-2.68714,-3.696911,5.501099,28.98,46.759998,-46.060001,1729475551716.0,0.0
0.4666,-4.189832,6.065805,-103.879997,21.91,-34.790001,1729475551736.0,0.0
3.318845,-8.360522,4.632504,-161.559998,6.44,-14.07,1729475551756.0,0.0
2.828316,-8.152347,4.862216,-103.459999,3.36,-6.23,1729475551777.0,0.0
1.067199,-7.058826,5.072784,-19.879999,3.85,-4.34,1729475551796.0,0.0
1.062413,-5.551349,5.173282,-10.43,-2.45,-3.22,1729475551816.0,0.0
1.107877,-7.996813,3.704089,-74.620003,-28.35,13.16,1729475551837.0,0.0
-0.031107,-11.050055,2.78046,-38.290001,-36.470001,24.99,1729475551857.0,0.0
-1.603191,-9.652647,3.582055,92.889999,-13.09,31.85,1729475551878.0,0.0
-4.845466,-8.159525,5.632704,160.160004,-2.38,37.310001,1729475551898.0,0.0
-7.475177,-7.243074,6.9009,122.779999,-19.809999,39.970001,1729475551917.0,0.0
-6.802795,-9.296116,4.527221,-5.18,-29.75,34.02,1729475551937.0,0.0
-5.391029,-15.72563,2.321038,-52.57,-33.950001,21.07,1729475551957.0,0.0
-5.192425,-12.318252,1.617548,50.470001,-15.05,-0.28,1729475551977.0,0.0
-4.68754,-6.82433,3.795017,136.779999,12.39,-14.98,1729475551999.0,0.0
-3.957729,-6.668797,4.886144,60.130001,32.830002,-26.530001,1729475552018.0,0.0
-1.040878,-6.56112,4.256832,-87.150002,25.34,-23.1,1729475552037.0,0.0
0.765703,-10.289137,2.751746,-232.050003,19.6,-29.33,1729475552057.0,0.0
0.959522,-11.583653,2.074577,-190.470001,26.040001,-26.389999,1729475552078.0,0.0
0.81356,-11.382657,3.881158,-39.130001,36.330002,-27.09,1729475552101.0,0.0
0.713061,-7.781459,6.338587,87.57,37.939999,-25.620001,1729475552116.0,0.0
1.397408,-3.364309,6.386444,70.840004,32.48,-28.07,1729475552141.0,0.0
2.651247,-5.182854,4.587041,-31.85,-5.88,-18.9,1729475552157.0,0.0
0.849452,-8.922836,3.881158,-69.160004,-33.459999,16.73,1729475552178.0,0.0
-1.785046,-7.664211,4.953143,63.700001,-15.82,21.98,1729475552200.0,0.0
-3.570091,-4.086941,5.953342,135.380005,-12.53,36.82,1729475552217.0,0.0
-7.118648,-6.666404,6.912865,90.090004,-32.689999,59.360001,1729475552236.0,0.0
-8.413164,-12.399607,4.189832,-23.24,-57.82,45.009998,1729475552257.0,0.0
-6.345766,-17.927027,1.698904,-72.099998,-52.920002,22.610001,1729475552281.0,0.0
-4.007978,-14.02194,1.320838,8.68,-26.110001,-0.07,1729475552298.0,0.0
-3.804588,-8.659625,2.199004,72.239998,10.5,-25.549999,1729475552317.0,0.0
-3.034099,-7.948956,2.232504,16.940001,35.209999,-38.43,1729475552339.0,0.0
-1.677369,-6.702296,2.478964,-98.910004,39.830002,-41.16,1729475552357.0,0.0
1.469193,-11.799009,3.337988,-195.160004,30.309999,-43.259998,1729475552379.0,0.0
3.555735,-11.32523,2.352145,-98.349998,26.32,-29.540001,1729475552399.0,0.0
2.660819,-6.453443,4.735396,40.950001,38.990002,-29.33,1729475552418.0,0.0
0.882952,-2.624927,5.828916,92.050003,33.599998,-21.91,1729475552436.0,0.0
0.504886,-2.002793,6.281159,72.239998,9.66,2.73,1729475552456.0,0.0
-0.064606,-5.194818,5.635098,17.57,-24.710001,35.490002,1729475552477.0,0.0
-1.615155,-7.929814,4.177868,-12.18,-43.75,47.880001,1729475552499.0,0.0
-4.022335,-9.262616,4.290331,37.939999,-42.139999,64.190002,1729475552518.0,0.0
-7.735995,-12.507284,5.261817,56.490002,-48.299999,58.66,1729475552537.0,0.0
-8.305488,-15.579668,2.024328,4.34,-53.760002,29.049999,1729475552557.0,0.0
-5.989235,-16.106089,1.399801,-16.17,-28.98,4.9,1729475552579.0,0.0
-4.539185,-15.814165,1.588834,-0.49,-9.31,-30.1,1729475552598.0,0.0
-3.979264,-11.009377,3.194418,51.73,21.42,-52.57,1729475552616.0,0.0
-2.711068,-6.84108,2.146362,23.1,43.049999,-66.290001,1729475552638.0,0.0
-1.68694,-4.189832,2.830709,-49.0,52.779999,-62.510002,1729475552657.0,0.0
0.746561,-5.395815,4.563113,-102.690002,35.420002,-47.950001,1729475552679.0,0.0
4.130012,-6.664011,2.852244,-107.239998,19.460001,-28.91,1729475552697.0,0.0
3.866802,-6.262017,5.266603,-25.76,21.700001,2.03,1729475552718.0,0.0
0.636491,-4.235296,6.132804,63.209999,24.99,-0.49,1729475552737.0,0.0
0.162712,-4.098906,5.919843,21.07,-6.93,17.43,1729475552759.0,0.0
0.591027,-5.888737,4.345366,-28.42,-42.98,44.73,1729475552777.0,0.0
-0.437887,-8.312666,4.04387,17.5,-45.779999,64.050003,1729475552797.0,0.0
-5.809773,-11.856436,7.853244,74.830002,-44.869999,72.379997,1729475552817.0,0.0
-9.982857,-12.636496,4.778467,35.84,-70.139999,45.57,1729475552836.0,0.0
-8.506484,-13.014563,1.397408,-34.369999,-53.27,32.200001,1729475552857.0,0.0
-6.412765,-14.122439,0.969093,-88.199997,-38.220001,7.98,1729475552880.0,0.0
-5.379066,-16.974684,-0.098106,-43.400002,-15.190001,-22.960001,1729475552899.0,0.0
-3.907479,-10.695917,1.641476,81.129997,23.379999,-33.950001,1729475552918.0,0.0
-2.514857,-8.01117,2.679961,121.379997,45.990002,-42.07,1729475552936.0,0.0
-1.028914,-4.883751,2.782853,5.81,47.529999,-49.490002,1729475552956.0,0.0
1.383051,-4.381258,2.213361,-120.190002,44.240002,-36.400002,1729475552978.0,0.0
2.909672,-6.951149,3.005385,-207.479996,32.130001,-31.01,1729475552999.0,0.0
3.110669,-12.586248,1.72044,-153.649994,14.14,-16.59,1729475553018.0,0.0
1.067199,-11.595619,5.568098,66.779999,36.470001,-9.38,1729475553037.0,0.0
1.416551,-3.029313,7.216753,140.910004,42.98,-19.67,1729475553057.0,0.0
1.282553,-4.338188,5.843273,-17.08,-19.74,-1.61,1729475553077.0,0.0
-0.31346,-8.764909,3.529413,-85.260002,-57.540001,25.129999,1729475553099.0,0.0
-1.79701,-9.657433,2.667997,15.190001,-45.290001,38.150002,1729475553116.0,0.0
-4.039084,-7.657032,4.419543,126.699997,-25.34,55.650002,1729475553137.0,0.0
-8.580662,-10.112068,5.235496,100.870003,-31.99,53.689999,1729475553157.0,0.0
-8.707481,-13.703696,2.428715,-23.17,-48.299999,24.5,1729475553177.0,0.0
-5.075177,-16.826328,1.081556,-48.93,-33.880001,6.44,1729475553198.0,0.0
-3.672983,-13.713267,2.723032,21.49,-7.98,-16.17,1729475553218.0,0.0
-3.672983,-8.688338,2.402394,39.830002,19.32,-42.0,1729475553237.0,0.0
-2.397608,-6.932007,2.895315,-24.360001,34.299999,-46.34,1729475553257.0,0.0
-0.224925,-6.123233,1.316052,-158.550003,31.08,-48.720001,1729475553281.0,0.0
2.043471,-9.092726,0.473779,-230.440002,10.85,-40.18,1729475553298.0,0.0
3.799802,-14.184652,0.820738,-101.290001,24.57,-17.08,1729475553316.0,0.0
2.811567,-8.695518,4.091727,94.849998,52.290001,-27.440001,1729475553337.0,0.0
0.435494,-3.605984,6.613762,154.699997,50.959999,-27.65,1729475553357.0,0.0
-0.193819,-2.376073,7.465607,107.940002,24.710001,-10.36,1729475553379.0,0.0
-0.133998,-5.156533,4.934,-27.370001,-38.849998,27.860001,1729475553398.0,0.0
-1.672583,-8.394022,3.28056,-33.18,-53.760002,44.799999,1729475553418.0,0.0
-3.850052,-9.602397,3.282953,54.740002,-39.759998,63.420002,1729475553438.0,0.0
-7.405786,-11.643474,4.517649,83.090004,-34.509998,60.34,1729475553464.0,0.0
-7.781459,-14.971891,2.431108,20.299999,-43.68,30.66,1729475553477.0,0.0
-4.95075,-17.314465,2.294717,-1.89,-24.99,13.02,1729475553499.0,0.0
-3.56052,-14.486149,2.9671,26.460001,-5.53,-17.780001,1729475553516.0,0.0
-3.225525,-10.449455,2.409572,54.040001,13.65,-48.580002,1729475553536.0,0.0
-2.088934,-8.068598,2.993421,39.759998,30.1,-51.869999,1729475553558.0,0.0
-0.885344,-5.503492,2.835495,-43.049999,30.870001,-55.09,1729475553578.0,0.0
1.339981,-7.257431,2.40718,-104.160004,22.68,-49.700001,1729475553600.0,0.0
3.462414,-10.174281,2.608176,-69.650002,22.190001,-31.92,1729475553617.0,0.0
3.251846,-7.106683,4.675575,25.620001,40.529999,-32.060001,1729475553637.0,0.0
1.091127,-4.599005,6.76451,67.199997,39.970001,-30.870001,1729475553657.0,0.0
1.01695,-3.699304,6.257231,30.450001,17.92,-20.719999,1729475553678.0,0.0
0.942772,-5.819345,5.436492,-31.99,-16.940001,22.190001,1729475553698.0,0.0
-1.086342,-6.802795,4.914857,-29.68,-32.48,33.740002,1729475553716.0,0.0
-3.381058,-6.786045,5.453243,27.16,-28.42,48.93,1729475553737.0,0.0
-6.106483,-7.862815,6.336195,33.25,-41.580002,66.360001,1729475553758.0,0.0
-7.054041,-10.987842,4.338188,1.19,-55.93,66.220001,1729475553778.0,0.0
-7.118648,-17.950956,1.708475,-46.060001,-55.860001,36.470001,1729475553800.0,0.0
-5.388636,-17.484356,2.07697,17.290001,-37.799999,11.9,1729475553818.0,0.0
-4.07737,-10.643275,2.038685,86.800003,0.35,-18.969999,1729475553838.0,0.0
-2.562713,-8.630912,1.241875,48.860001,18.549999,-36.400002,1729475553858.0,0.0
-1.177269,-6.156733,0.981057,-19.74,35.279999,-40.810001,1729475553881.0,0.0
0.356531,-6.549156,2.610569,-84.349998,47.18,-42.98,1729475553899.0,0.0
2.366502,-6.819544,-0.205783,-194.320007,36.82,-41.93,1729475553918.0,0.0
3.383451,-12.344571,0.849452,-155.960007,29.610001,-18.27,1729475553939.0,0.0
2.055435,-11.710474,4.421937,52.57,52.220001,-18.059999,1729475553958.0,0.0
1.586441,-3.158526,6.331409,128.729996,55.790001,-30.59,1729475553980.0,0.0
0.339781,-2.699104,7.869993,58.380001,2.94,0.28,1729475554001.0,0.0
-1.543371,-4.539185,7.290931,24.01,-25.76,30.380001,1729475554018.0,0.0
-3.443272,-6.049056,6.352944,-2.94,-50.470001,42.630001,1729475554038.0,0.0
-5.568098,-8.472985,5.134997,-3.99,-66.220001,61.32,1729475554060.0,0.0
-6.278766,-11.794223,2.734996,3.64,-65.519997,61.110001,1729475554080.0,0.0
-6.541977,-16.314266,1.48355,-21.700001,-54.110001,39.619999,1729475554100.0,0.0
-4.74736,-17.221144,1.20359,-8.54,-26.32,12.88,1729475554120.0,0.0
-2.916851,-15.292529,2.012364,15.05,9.17,-27.23,1729475554138.0,0.0
-2.07697,-11.447264,2.309074,10.43,35.700001,-49.77,1729475554159.0,0.0
-0.696311,-8.52802,1.349552,-26.32,53.900002,-64.120003,1729475554183.0,0.0
0.409173,-4.63729,0.945165,-113.889999,63.84,-64.610001,1729475554199.0,0.0
2.175076,-8.927622,2.699104,-114.099998,46.900002,-39.900002,1729475554220.0,0.0
2.998207,-9.796216,3.680161,-3.43,51.66,-28.35,1729475554238.0,0.0
1.301696,-4.395615,6.972685,123.550003,53.060001,-28.42,1729475554258.0,0.0
-0.399601,-0.540778,8.073383,146.440002,43.259998,-8.89,1729475554281.0,0.0
-0.160319,-0.392423,7.343572,66.919998,4.48,20.23,1729475554299.0,0.0
-1.70369,-6.556334,3.699304,-111.160004,-61.810001,55.510002,1729475554318.0,0.0
-3.5007,-12.071791,3.029313,-60.27,-76.580002,78.120003,1729475554339.0,0.0
-6.04427,-13.993226,4.488935,53.830002,-54.529999,77.769997,1729475554358.0,0.0
-6.898508,-15.65863,2.438286,48.369999,-51.099998,39.549999,1729475554380.0,0.0
-5.199604,-16.551155,1.823331,1.68,-31.15,14.0,1729475554401.0,0.0
-3.862016,-16.271194,1.31366,7.49,-2.38,-21.559999,1729475554418.0,0.0
-3.424129,-13.174881,2.409572,52.990002,17.780001,-56.209999,1729475554438.0,0.0
-2.533999,-8.583055,3.342773,88.199997,36.75,-63.07,1729475554458.0,0.0
-1.258625,-5.831308,4.144369,39.759998,44.869999,-66.010002,1729475554479.0,0.0
0.595813,-3.95055,2.299503,-52.920002,36.75,-60.900002,1729475554500.0,0.0
2.455036,-6.941578,3.20399,-85.120003,19.74,-45.709999,1729475554518.0,0.0
3.598805,-7.735995,3.704089,-35.700001,24.15,-29.33,1729475554539.0,0.0
3.024528,-5.87438,6.101698,43.68,28.91,-20.09,1729475554559.0,0.0
0.878166,-3.929015,6.82433,43.68,19.530001,-14.49,1729475554580.0,0.0
1.351945,-3.945765,6.178268,-26.040001,-3.92,-9.24,1729475554599.0,0.0
1.131805,-7.219146,4.546363,-122.919998,-36.259998,16.1,1729475554618.0,0.0
-1.129412,-8.54477,3.419343,-87.220001,-40.389999,29.82,1729475554638.0,0.0
-3.345166,-7.56132,5.663811,75.32,-12.95,49.91,1729475554658.0,0.0
-6.690332,-8.405986,7.207181,71.610001,-27.790001,63.07,1729475554680.0,0.0
-7.281359,-10.834702,4.488935,25.690001,-44.099998,62.23,1729475554699.0,0.0
-6.754939,-16.752151,2.411965,8.61,-41.369999,39.759998,1729475554718.0,0.0
-6.209375,-15.409778,3.74716,42.91,-32.830002,8.12,1729475554739.0,0.0
-4.342973,-10.090532,1.715654,85.75,-2.66,-17.08,1729475554759.0,0.0
-1.87358,-10.040283,3.4672,50.189999,15.190001,-31.85,1729475554780.0,0.0
-0.784846,-7.345965,1.916651,-42.560001,26.25,-41.23,1729475554798.0,0.0
-0.145962,-8.006385,3.108276,-96.25,37.450001,-46.41,1729475554818.0,0.0
0.701097,-9.052048,1.100698,-180.809998,35.07,-55.369999,1729475554839.0,0.0
2.337788,-11.109876,0.090927,-172.690002,28.35,-52.639999,1729475554857.0,0.0
3.34038,-11.246266,3.019742,-13.79,49.07,-36.400002,1729475554880.0,0.0
2.644069,-5.656632,5.812167,113.959999,59.709999,-37.799999,1729475554899.0,0.0
2.038685,-2.658426,7.712067,90.440002,40.670002,-31.99,1729475554919.0,0.0
0.803988,-2.237289,7.381857,41.509998,7.28,-1.75,1729475554938.0,0.0
-0.325424,-4.010371,6.750153,2.8,-21.210001,26.25,1729475554958.0,0.0
-2.859423,-6.518049,5.312066,-13.440001,-39.830002,45.080002,1729475554978.0,0.0
-4.630112,-8.068598,5.369494,35.84,-46.130001,77.980003,1729475555000.0,0.0
-7.338787,-14.744574,4.878965,12.18,-61.599998,70.139999,1729475555018.0,0.0
-6.798009,-20.059032,1.694118,-41.299999,-65.169998,27.440001,1729475555039.0,0.0
-3.821337,-16.065411,1.342373,12.18,-29.610001,4.34,1729475555059.0,0.0
-3.058028,-11.679367,0.696311,12.95,3.36,-34.509998,1729475555079.0,0.0
-2.567499,-9.19801,1.368695,-10.99,28.91,-52.990002,1729475555099.0,0.0
-1.239482,-7.633104,1.837688,-55.720001,51.029999,-59.779999,1729475555120.0,0.0
1.064806,-5.402994,0.267996,-133.419998,54.25,-57.400002,1729475555138.0,0.0
3.311667,-10.313066,3.074777,-102.620003,39.34,-30.66,1729475555158.0,0.0
3.598805,-8.709875,4.156333,-1.82,47.599998,-29.190001,1729475555178.0,0.0
1.646262,-4.407579,7.080362,115.080002,49.0,-21.35,1729475555201.0,0.0
0.284746,-1.194018,7.62114,112.07,34.02,-3.57,1729475555219.0,0.0
0.837488,-1.416551,7.164111,9.38,-7.7,17.710001,1729475555237.0,0.0
0.346959,-5.192425,3.393023,-101.779999,-53.060001,46.200001,1729475555258.0,0.0
-0.62692,-9.391829,1.770689,-79.730003,-63.700001,60.900002,1729475555281.0,0.0
-3.814159,-11.440084,3.783052,44.310001,-42.560001,78.260002,1729475555298.0,0.0
-8.975478,-12.713067,4.563113,88.760002,-42.700001,60.549999,1729475555318.0,0.0
-7.704889,-14.935998,2.105684,-4.2,-40.389999,36.68,1729475555338.0,0.0
-5.04407,-18.142382,1.387837,-34.860001,-21.07,2.8,1729475555357.0,0.0
-2.957529,-16.409977,1.572084,14.98,0.35,-34.02,1729475555379.0,0.0
-2.849852,-10.600205,3.28056,107.730003,32.970001,-48.93,1729475555399.0,0.0
-2.065006,-6.013163,3.416951,78.68,36.82,-62.93,1729475555419.0,0.0
-0.655633,-6.441479,3.976871,6.79,43.049999,-57.75,1729475555439.0,0.0
0.827917,-3.510271,2.48375,-118.160004,31.639999,-60.27,1729475555457.0,0.0
3.641876,-6.592227,3.251846,-133.979996,15.4,-30.66,1729475555479.0,0.0
4.831109,-8.800802,3.036492,-92.400002,14.42,-15.82,1729475555506.0,0.0
2.756532,-8.516055,4.974678,-2.52,23.309999,-10.57,1729475555518.0,0.0
1.105484,-5.955735,5.070391,27.860001,21.07,-15.61,1729475555538.0,0.0
1.129412,-6.262017,5.259424,-39.48,-5.39,-3.01,1729475555561.0,0.0
0.918844,-8.889337,3.012564,-80.220001,-33.25,13.440001,1729475555579.0,0.0
-0.27996,-8.647661,2.78046,-18.549999,-23.309999,18.129999,1729475555599.0,0.0
-1.988436,-7.838887,3.885944,43.119999,-10.22,26.6,1729475555620.0,0.0
-5.469993,-8.906086,4.816752,71.120003,-12.46,48.650002,1729475555637.0,0.0
-6.585048,-9.530612,5.52742,85.330002,-17.360001,54.950001,1729475555659.0,0.0
-6.742974,-12.717852,4.063013,51.66,-31.85,42.560001,1729475555681.0,0.0
-7.623533,-13.27538,2.029114,80.849998,-25.76,28.77,1729475555700.0,0.0
-6.319445,-12.256038,3.785445,107.520004,-7.35,-8.4,1729475555718.0,0.0
-2.09372,-10.937593,2.938386,30.940001,4.27,-22.469999,1729475555739.0,0.0
-0.105284,-10.351351,3.065206,-7.07,16.940001,-31.639999,1729475555759.0,0.0
1.103091,-8.171489,3.098706,-46.970001,21.77,-34.860001,1729475555781.0,0.0
1.421337,-8.702696,2.163112,-121.379997,31.780001,-46.689999,1729475555802.0,0.0
1.737189,-9.832108,0.617348,-176.539993,30.24,-51.240002,1729475555819.0,0.0
2.65364,-12.01197,0.973879,-101.849998,29.049999,-45.009998,1729475555839.0,0.0
2.792424,-8.202596,2.400001,28.630001,48.93,-48.16,1729475555860.0,0.0
2.203789,-4.587041,5.513064,90.090004,48.580002,-38.360001,1729475555880.0,0.0
0.653241,-1.540978,6.733403,111.510002,35.490002,-12.53,1729475555902.0,0.0
-2.084148,-2.792424,7.51107,106.889999,15.96,16.870001,1729475555919.0,0.0
-4.197011,-5.87438,5.860023,-15.61,-39.830002,47.740002,1729475555939.0,0.0
-4.733003,-8.599805,4.189832,-11.13,-53.830002,70.489998,1729475555960.0,0.0
-5.424529,-12.825529,3.177669,27.299999,-55.439999,73.919998,1729475555981.0,0.0
-5.489135,-18.855442,3.323631,29.33,-61.740002,39.34,1729475556002.0,0.0
-3.689733,-16.173088,2.404787,25.969999,-38.990002,9.1,1729475556019.0,0.0
-2.782853,-12.05504,2.457429,29.540001,-9.59,-18.549999,1729475556040.0,0.0
-2.366502,-9.75793,2.313859,-38.080002,17.08,-51.380001,1729475556059.0,0.0
-1.036092,-8.764909,1.399801,-106.470001,35.209999,-62.369999,1729475556081.0,0.0
1.433301,-7.15454,1.39023,-142.520004,38.849998,-56.77,1729475556100.0,0.0
3.584448,-8.630912,2.713461,-60.619999,39.27,-31.85,1729475556119.0,0.0
3.838088,-5.201996,4.972286,68.809998,48.23,-24.99,1729475556139.0,0.0
1.519442,-0.914058,6.939186,153.580002,49.630001,-2.94,1729475556159.0,0.0
0.739382,0.232104,7.975278,118.370003,31.639999,19.950001,1729475556181.0,0.0
0.107677,-2.739782,6.348158,-17.5,-13.58,52.360001,1729475556200.0,0.0
-1.435694,-7.563712,5.185246,-79.239998,-41.299999,73.849998,1729475556224.0,0.0
-4.63729,-12.057433,5.501099,-31.290001,-51.869999,83.720001,1729475556239.0,0.0
-8.54477,-15.96252,1.667797,0.28,-60.130001,62.580002,1729475556259.0,0.0
-7.152147,-16.520048,1.998007,1.82,-29.82,25.969999,1729475556283.0,0.0
-5.414958,-16.536798,2.072184,-12.32,-1.96,-22.120001,1729475556300.0,0.0
-3.672983,-14.352149,3.404987,21.700001,17.15,-53.27,1729475556320.0,0.0
-2.617748,-8.245667,4.13719,70.980003,31.15,-65.449997,1729475556341.0,0.0
-1.115055,-6.352944,4.283153,34.790001,35.209999,-67.480003,1729475556358.0,0.0
-0.334995,-3.469593,3.909872,-88.690002,25.27,-71.260002,1729475556381.0,0.0
2.139183,-6.750153,3.909872,-119.980003,3.85,-50.959999,1729475556400.0,0.0
4.756931,-8.166703,2.589034,-91.0,-5.32,-37.029999,1729475556420.0,0.0
4.125226,-6.285945,3.553342,-9.87,6.16,-22.469999,1729475556439.0,0.0
1.421337,-5.07757,4.850252,26.040001,9.66,-20.65,1729475556459.0,0.0
0.256032,-5.190032,5.123034,-11.2,-9.24,-12.95,1729475556480.0,0.0
0.256032,-6.814759,4.570292,-65.309998,-34.369999,7.35,1729475556500.0,0.0
-0.68674,-8.336594,3.299703,-74.480003,-38.43,14.28,1729475556519.0,0.0
-2.392823,-9.174082,2.732604,-46.759998,-29.75,19.809999,1729475556602.0,0.0
-4.007978,-10.327423,2.991028,10.08,-13.93,38.709999,1729475556619.0,0.0
-4.362115,-8.740981,4.644469,79.099998,-2.87,53.549999,1729475556620.0,0.0
-4.981857,-9.719646,6.532406,146.440002,-4.76,64.68,1729475556621.0,0.0
-5.644669,-12.050256,5.668597,121.449997,-22.33,46.970001,1729475556622.0,0.0
-3.761517,-12.985848,4.259224,28.700001,-25.129999,15.12,1729475556641.0,0.0
-1.627119,-10.566705,2.608176,-1.47,-21.629999,11.76,1729475556659.0,0.0
-0.746561,-6.199803,3.227918,-12.6,-10.22,-1.75,1729475556679.0,0.0
-0.710668,-6.585048,3.567699,-44.240002,-8.47,1.26,1729475556701.0,0.0
-1.103091,-5.63749,3.098706,-92.959999,-13.02,0.21,1729475556722.0,0.0
-1.112662,-5.563312,3.058028,-126.209999,-21.139999,7.63,1729475556738.0,0.0
-1.555335,-6.240481,2.701497,-178.430008,-34.369999,4.83,1729475556759.0,0.0
-2.043471,-7.209574,2.105684,-198.940002,-52.709999,9.45,1729475556779.0,0.0
-1.229911,-7.673782,1.548156,-194.039993,-64.470001,19.25,1729475556798.0,0.0
-0.349352,-9.138189,0.930808,-203.979996,-83.790001,33.32,1729475556821.0,0.0
-0.921237,-11.760723,-1.816152,-237.720001,-93.029999,25.059999,1729475556839.0,0.0
-1.567299,-13.756337,-3.787838,-236.529999,-92.190002,7.7,1729475556862.0,0.0
-0.945165,-12.440285,-4.130012,-187.809998,-78.889999,-0.7,1729475556880.0,0.0
-0.758525,-10.762917,-3.148954,-127.82,-55.790001,-7.7,1729475556899.0,0.0
-1.306481,-10.061819,-2.68714,-113.190002,-39.27,-16.799999,1729475556918.0,0.0
-1.792224,-10.016356,-2.768496,-119.840004,-22.610001,-17.639999,1729475556939.0,0.0
-1.648655,-9.487542,-2.952743,-117.110001,-13.65,-14.7,1729475556958.0,0.0
-1.258625,-8.874979,-2.974278,-101.919998,-6.65,-3.43,1729475556981.0,0.0
-0.918844,-8.523234,-3.220739,-90.090004,-3.43,6.72,1729475557001.0,0.0
-1.031307,-9.092726,-3.728018,-92.68,-0.21,13.37,1729475557018.0,0.0
-1.337588,-9.71486,-4.15394,-99.330002,3.64,16.52,1729475557109.0,0.0
-1.426122,-10.181459,-4.369294,-89.809998,6.09,16.379999,1729475557111.0,0.0
-1.758725,-10.157533,-4.187439,-60.48,7.63,14.49,1729475557114.0,0.0
-1.895115,-9.903893,-4.034299,-23.1,9.45,11.55,1729475557115.0,0.0
-1.643869,-9.927821,-4.39083,-2.38,8.19,5.18,1729475557145.0,0.0
-1.284946,-9.279366,-4.469792,6.3,9.52,0.84,1729475557258.0,0.0
-1.124627,-8.827123,-4.577469,-1.33,9.24,0.42,1729475557260.0,0.0
-1.232304,-8.863015,-4.663611,-16.870001,10.08,1.12,1729475557262.0,0.0
-1.4668,-8.915657,-4.299902,-31.710001,11.55,1.26,1729475557263.0,0.0
-1.430908,-8.85105,-4.165904,-37.450001,10.78,0.28,1729475557267.0,0.0
-1.304088,-8.750552,-4.333402,-30.380001,10.5,0.14,1729475557268.0,0.0
-1.538585,-8.154739,-4.163511,-21.280001,10.92,1.26,1729475557269.0,0.0
-1.816152,-7.889136,-3.89073,-32.689999,10.08,3.78,1729475557313.0,0.0
-1.732404,-7.889136,-4.249653,-51.450001,5.11,6.72,1729475557313.0,0.0
-1.727618,-8.240881,-4.802395,-68.110001,0.98,9.03,1729475557324.0,0.0
-1.964507,-8.54477,-5.13739,-78.330002,-4.76,8.19,1729475557339.0,0.0
-1.931008,-9.190832,-5.850451,-60.41,-9.38,6.58,1729475557358.0,0.0
-2.084148,-10.724631,-7.130611,-0.49,-14.28,7.0,1729475557378.0,0.0
-1.679761,-11.62194,-6.539584,131.880005,-12.46,11.48,1729475557398.0,0.0
-1.646262,-10.978271,-4.957928,269.079987,-8.19,9.59,1729475557417.0,0.0
-1.284946,-10.607382,-4.187439,365.959991,-1.96,5.39,1729475557439.0,0.0
-0.648455,-9.705289,-2.87378,422.940002,11.41,4.13,1729475557459.0,0.0
-0.51685,-9.671788,-1.789831,452.130005,18.27,6.44,1729475557480.0,0.0
-0.507278,-9.678967,-0.909273,462.559998,16.870001,13.02,1729475557499.0,0.0
-0.784846,-9.308081,1.658226,444.920013,25.27,12.6,1729475557518.0,0.0
-1.265803,-8.051848,3.464807,365.820007,39.900002,-5.95,1729475557544.0,0.0
-1.272982,-6.838687,4.058227,249.830002,42.139999,-17.43,1729475557558.0,0.0
-2.431108,-7.606783,4.752146,143.5,44.73,-13.51,1729475557581.0,0.0
-2.376073,-9.834501,4.785645,39.34,30.870001,-26.040001,1729475557600.0,0.0
-1.952543,-11.332408,6.388836,40.670002,23.17,-29.120001,1729475557620.0,0.0
-0.744168,-10.315458,6.860222,67.340004,13.09,-38.290001,1729475557639.0,0.0
-1.713261,-8.547162,5.285746,44.799999,6.37,-46.970001,1729475557658.0,0.0
-1.359123,-4.010371,2.009971,7.35,-1.19,-46.759998,1729475557679.0,0.0
-2.139183,0.062213,3.632305,51.029999,12.18,-0.35,1729475557699.0,0.0
-3.364309,-1.732404,6.051448,56.420002,15.05,22.26,1729475557718.0,0.0
-1.06002,-4.041477,6.884151,-18.200001,8.4,22.26,1729475557738.0,0.0
-3.495914,-7.314859,6.142376,-36.68,-1.96,47.110001,1729475557759.0,0.0
-3.778267,-9.647861,5.845665,-34.16,-16.870001,44.380001,1729475557780.0,0.0
-3.723232,-8.796017,6.147161,-3.85,-18.41,47.670002,1729475557801.0,0.0
-5.144568,-9.107083,6.530013,36.75,-24.290001,54.32,1729475557820.0,0.0
-31.073193,-8.750552,-2.191825,3.43,-32.619999,23.66,1729475557840.0,0.0
-5.9677,-13.694124,3.938586,-10.36,0.98,11.69,1729475557860.0,0.0
-3.471986,-10.392029,3.632305,13.58,-2.66,-21.210001,1729475557881.0,0.0
-2.086541,-10.009177,3.565305,4.27,5.18,-30.1,1729475557900.0,0.0
-2.048256,-9.288938,4.106083,36.259998,21.91,-42.209999,1729475557920.0,0.0
-2.861816,-7.704889,5.321638,45.57,22.82,-44.869999,1729475557940.0,0.0
-1.921437,-7.836494,7.121039,40.740002,19.110001,-47.950001,1729475557961.0,0.0
-0.624527,-4.285545,7.625926,7.0,14.0,-43.889999,1729475557981.0,0.0
0.122034,-0.751346,3.799802,-8.26,9.03,-15.05,1729475558001.0,0.0
-1.134198,-1.100698,4.386044,-13.16,17.5,6.86,1729475558020.0,0.0
-5.82413,-8.255238,6.424729,-29.120001,-3.5,28.559999,1729475558039.0,0.0
-3.400201,-8.963513,8.063812,-14.77,-4.76,23.73,1729475558060.0,0.0
-0.823131,-7.379465,8.4012,57.82,4.2,41.580002,1729475558081.0,0.0
-2.134398,-6.742974,6.474977,33.32,-6.16,24.57,1729475558101.0,0.0
-1.153341,-5.393422,5.168497,-17.360001,-3.78,36.82,1729475558124.0,0.0
-3.842873,-9.353544,4.498507,-18.41,3.01,27.440001,1729475558140.0,0.0
-5.094319,-13.933406,4.931608,-21.139999,-4.97,10.57,1729475558160.0,0.0
-3.684947,-11.349157,5.986843,42.420002,9.94,-15.75,1729475558181.0,0.0
-1.332802,-6.759724,5.419744,58.170002,16.59,-35.560001,1729475558201.0,0.0
-3.196811,-7.302894,5.185246,37.310001,14.56,-34.509998,1729475558224.0,0.0
-3.689733,-11.124231,5.448457,-11.9,3.36,-45.43,1729475558240.0,0.0
-0.655633,-7.762317,5.970093,3.43,22.190001,-58.939999,1729475558264.0,0.0
-0.332602,-0.832702,3.412165,33.25,36.049999,-39.48,1729475558284.0,0.0
-1.562513,0.342174,5.493921,-12.53,22.889999,-23.450001,1729475558300.0,0.0
-4.034299,-4.208975,7.798209,-22.540001,5.88,26.32,1729475558320.0,0.0
-4.216154,-6.664011,9.597611,-10.78,-18.34,35.07,1729475558340.0,0.0
-0.526421,-7.523034,9.836893,27.51,-14.49,56.07,1729475558359.0,0.0
-0.435494,-6.008378,6.833901,11.83,-17.85,35.349998,1729475558381.0,0.0
-4.45065,-5.259424,3.871587,-63.420002,-29.469999,22.120001,1729475558401.0,0.0
-3.993621,-11.959327,4.792823,-12.6,1.75,51.450001,1729475558420.0,0.0
-5.513064,-13.954943,5.132604,-24.99,-9.38,-6.79,1729475558440.0,0.0
-4.491328,-12.636496,5.931807,38.150002,3.71,-20.02,1729475558460.0,0.0
-1.935793,-7.704889,5.257031,50.330002,9.87,-37.450001,1729475558480.0,0.0
-1.852045,-6.982256,4.510471,22.049999,15.89,-40.740002,1729475558503.0,0.0
-3.809374,-11.339586,4.553542,-39.060001,0.28,-48.720001,1729475558519.0,0.0
0.617348,-5.28096,4.615755,6.3,29.33,-72.940002,1729475558540.0,0.0
-1.143769,1.069592,4.579862,66.919998,45.849998,-31.5,1729475558561.0,0.0
-2.057827,2.402394,5.826523,-13.440001,17.710001,-18.9,1729475558580.0,0.0
-5.510671,-4.65404,8.262416,-48.790001,-13.3,34.23,1729475558602.0,0.0
-2.536392,-7.085148,9.834501,-35.349998,-21.559999,47.670002,1729475558620.0,0.0
0.581456,-7.056434,9.327222,11.06,-13.09,54.950001,1729475558639.0,0.0
-2.239682,-6.051448,7.037291,-8.75,-16.73,45.920002,1729475558661.0,0.0
-3.725625,-6.364908,3.976871,-43.400002,-17.639999,57.400002,1729475558681.0,0.0
-5.149354,-12.476178,5.192425,-45.779999,-10.78,38.080002,1729475558700.0,0.0
-5.414958,-14.146368,6.13759,-19.18,-5.74,8.68,1729475558730.0,0.0
-4.465007,-12.866207,5.180461,23.24,1.54,-20.65,1729475558740.0,0.0
-1.536192,-9.559326,3.302095,13.02,9.03,-39.200001,1729475558759.0,0.0
-2.48375,-10.564312,2.160719,10.92,14.21,-51.939999,1729475558780.0,0.0
-1.600798,-12.921242,2.979064,15.68,23.52,-69.580002,1729475558801.0,0.0
0.009571,-6.798009,6.683154,37.59,38.009998,-83.93,1729475558819.0,0.0
-0.464208,1.70369,5.242674,60.060001,35.700001,-48.860001,1729475558839.0,0.0
-2.904887,2.478964,6.573084,35.91,20.16,-28.35,1729475558860.0,0.0
-5.266603,-4.326223,8.365308,-56.91,-33.529999,41.720001,1729475558881.0,0.0
-2.019542,-8.915657,8.580662,-55.650002,-30.940001,58.52,1729475558900.0,0.0
0.291924,-9.600004,7.293324,-19.18,-15.61,50.540001,1729475558920.0,0.0
-3.9338,-7.573284,6.58744,-11.2,-10.85,30.799999,1729475558940.0,0.0
-3.299703,-5.4006,4.989035,12.46,5.32,58.450001,1729475558960.0,0.0
-5.525027,-9.513863,4.977071,-31.01,-4.13,17.360001,1729475558982.0,0.0
-5.091926,-13.734802,6.635297,-36.889999,-10.36,17.5,1729475559000.0,0.0
-3.725625,-11.361122,5.414958,10.57,-4.34,-13.3,1729475559020.0,0.0
-1.751546,-8.618947,4.632504,17.15,-2.38,-23.940001,1729475559040.0,0.0
-1.921437,-9.320045,3.852444,12.32,4.55,-31.01,1729475559060.0,0.0
-3.48395,-12.332609,3.754339,-15.4,0.56,-50.049999,1729475559080.0,0.0
-0.267996,-9.260223,5.589634,-7.84,20.65,-71.959999,1729475559100.0,0.0
-1.071985,-2.201397,4.354938,47.110001,30.1,-34.790001,1729475559120.0,0.0
-1.519442,0.33021,5.446064,30.17,23.73,-41.02,1729475559139.0,0.0
-2.498107,-1.521835,6.939186,-27.370001,5.25,13.72,1729475559160.0,0.0
-3.438486,-6.281159,9.473185,-41.299999,-24.360001,26.6,1729475559180.0,0.0
-0.760918,-6.477371,8.82473,-13.37,-25.41,57.470001,1729475559200.0,0.0
-0.758525,-5.422136,6.522834,1.96,-22.610001,47.459999,1729475559219.0,0.0
-5.053641,-9.554541,4.831109,-8.19,-14.63,62.790001,1729475559239.0,0.0
-4.596612,-13.497912,5.735595,-44.66,-10.15,35.84,1729475559260.0,0.0
-4.615755,-13.057633,5.233103,-16.52,4.06,4.06,1729475559285.0,0.0
-4.639683,-12.227324,4.072584,-6.44,5.53,-22.120001,1729475559300.0,0.0
-1.488336,-8.762517,2.770889,-20.440001,14.56,-36.889999,1729475559319.0,0.0
-3.5007,-10.317852,2.37368,8.4,19.879999,-35.420002,1729475559340.0,0.0
-1.418944,-11.155338,2.79721,-0.91,24.219999,-66.220001,1729475559360.0,0.0
1.519442,-3.964907,4.017549,40.670002,43.049999,-52.639999,1729475559381.0,0.0
-1.885544,-0.964308,6.494121,105.910004,48.439999,-21.42,1729475559400.0,0.0
-1.667797,3.629912,6.955935,18.059999,21.84,-10.5,1729475559421.0,0.0
-4.591826,-2.861816,9.822537,-10.22,-5.04,41.09,1729475559439.0,0.0
-3.211168,-6.496514,9.585647,-80.150002,-35.91,53.619999,1729475559460.0,0.0
0.177069,-7.506285,7.489535,-61.25,-31.43,65.800003,1729475559481.0,0.0
-2.421536,-5.453243,3.232704,-33.040001,-28.0,63.630001,1729475559499.0,0.0
-6.45105,-10.755738,5.678168,-25.620001,-24.57,61.040001,1729475559519.0,0.0
-5.800202,-12.485749,6.317052,-19.040001,-10.99,24.219999,1729475559539.0,0.0
-5.804988,-12.480963,3.232704,-46.830002,-16.379999,-11.27,1729475559560.0,0.0
-3.050849,-12.13161,1.981257,-45.709999,-4.13,-42.77,1729475559580.0,0.0
-1.701297,-11.49512,3.524628,32.619999,17.43,-33.25,1729475559601.0,0.0
-2.179861,-9.997212,3.9673,55.580002,18.41,-63.560001,1729475559619.0,0.0
-1.629512,-8.391629,3.192025,25.27,17.85,-65.449997,1729475559640.0,0.0
0.236889,-3.57727,3.476771,1.61,19.950001,-65.449997,1729475559660.0,0.0
-2.811567,-1.768296,4.651647,44.310001,24.57,-32.27,1729475559680.0,0.0
-1.864009,0.61017,6.690332,8.96,11.48,-15.54,1729475559708.0,0.0
-3.567699,-2.67039,8.322237,3.64,-5.18,18.41,1729475559721.0,0.0
-3.014957,-6.317052,10.305886,-40.880001,-27.860001,37.939999,1729475559740.0,0.0
-0.514457,-7.67139,9.157332,-48.23,-29.889999,49.279999,1729475559759.0,0.0
-1.143769,-5.541777,5.379066,-23.450001,-28.0,52.779999,1729475559780.0,0.0
-6.707082,-9.65504,4.862216,-20.51,-27.440001,51.450001,1729475559801.0,0.0
-5.95095,-14.053047,4.338188,-41.93,-19.530001,46.060001,1729475559820.0,0.0
-5.395815,-13.902299,1.308874,-32.830002,-0.7,-13.58,1729475559841.0,0.0
-1.39023,-10.681561,1.605584,0.7,27.65,-35.77,1729475559860.0,0.0
-1.933401,-9.631111,2.115255,49.07,38.5,-35.700001,1729475559881.0,0.0
-3.208775,-10.741381,3.014957,17.08,29.889999,-57.889999,1729475559902.0,0.0
0.5001,-5.895915,4.429115,3.92,36.82,-64.470001,1729475559922.0,0.0
-1.914258,-4.61097,5.893522,64.120003,41.16,-35.07,1729475559940.0,0.0
0.258425,-0.370888,7.283752,-11.76,16.450001,-50.959999,1729475559960.0,0.0
1.155733,0.995414,7.951349,-8.68,4.76,22.68,1729475559982.0,0.0
-4.615755,-5.76431,7.869993,-12.81,-14.07,34.580002,1729475560002.0,0.0
-3.823731,-9.564112,7.520642,-92.260002,-29.540001,34.509998,1729475560021.0,0.0
-0.885344,-8.097312,7.144968,-30.1,-7.98,44.59,1729475560041.0,0.0
-2.9336,-6.565905,6.348158,32.200001,-8.61,49.98,1729475560063.0,0.0
-6.922436,-7.334002,2.787638,-26.950001,-27.440001,43.889999,1729475560082.0,0.0
-6.015556,-15.14896,3.278167,-64.190002,-19.67,25.34,1729475560102.0,0.0
-3.141776,-14.045869,2.799603,-37.939999,-4.97,-14.42,1729475560121.0,0.0
-1.18684,-6.355337,3.268596,74.199997,30.52,-28.700001,1729475560141.0,0.0
-2.768496,-6.008378,3.37388,62.580002,27.370001,-24.99,1729475560162.0,0.0
-3.469593,-8.616554,2.366502,-38.290001,4.55,-42.98,1729475560182.0,0.0
-1.864009,-7.838887,3.536592,-18.059999,18.969999,-18.27,1729475560202.0,0.0
-1.837688,-7.726424,5.718846,38.080002,29.75,-38.709999,1729475560222.0,0.0
-0.827917,-3.792624,7.79103,-12.25,9.24,-19.809999,1729475560241.0,0.0
-1.756332,-3.845266,8.269595,10.29,-6.51,15.26,1729475560261.0,0.0
-4.333402,-5.735595,9.099905,-21.49,-38.150002,25.129999,1729475560285.0,0.0
-1.962115,-6.058627,8.611769,-32.41,-38.990002,39.200001,1729475560302.0,0.0
-3.002992,-4.613362,5.726025,-19.460001,-42.91,39.830002,1729475560321.0,0.0
-5.692525,-9.513863,3.811767,-20.58,-37.66,56.77,1729475560341.0,0.0
-3.790231,-14.072189,4.582255,-42.91,-25.83,38.150002,1729475560361.0,0.0
-4.146761,-13.507483,3.684947,-19.389999,-8.68,16.52,1729475560382.0,0.0
-5.259424,-12.607781,1.875973,-19.389999,-5.25,-15.47,1729475560404.0,0.0
-2.955136,-11.49512,1.536192,7.7,7.7,-37.799999,1729475560425.0,0.0
-1.70369,-11.351551,2.452643,55.790001,25.059999,-38.5,1729475560441.0,0.0
-1.837688,-11.607583,2.921637,23.59,28.139999,-73.080002,1729475560461.0,0.0
-0.215354,-7.989635,5.891129,19.6,41.439999,-79.169998,1729475560482.0,0.0
-1.136591,0.586242,3.948158,52.920002,40.529999,-35.77,1729475560503.0,0.0
-0.691526,3.821337,5.580062,69.230003,27.02,-17.5,1729475560521.0,0.0
-4.948357,-1.344766,8.305488,18.48,-2.24,30.59,1729475560541.0,0.0
-4.795217,-5.06082,9.147761,-70.07,-36.959999,55.299999,1729475560562.0,0.0
-1.09352,-6.661618,8.090133,-70.840004,-30.030001,73.010002,1729475560582.0,0.0
-1.988436,-6.348158,4.309474,-43.189999,-31.85,74.970001,1729475560602.0,0.0
-6.56112,-10.281959,4.800002,-12.04,-27.65,81.480003,1729475560622.0,0.0
-7.077969,-15.3021,5.235496,-14.98,-13.79,59.709999,1729475560641.0,0.0
-6.711867,-15.754344,2.194218,-48.299999,-8.47,2.45,1729475560662.0,0.0
-3.795017,-14.048263,0.433101,-35.560001,10.15,-39.549999,1729475560681.0,0.0
-0.492921,-11.81815,0.775275,33.18,39.970001,-38.080002,1729475560702.0,0.0
-2.098505,-10.983055,0.806381,59.920002,47.110001,-55.720001,1729475560722.0,0.0
-0.437887,-9.580862,1.794617,35.07,59.639999,-78.400002,1729475560741.0,0.0
-1.861616,-6.15434,3.993621,28.630001,59.990002,-62.860001,1729475560761.0,0.0
-1.282553,1.749153,7.970492,58.170002,51.240002,-49.91,1729475560782.0,0.0
-3.5007,2.055435,10.394422,69.090004,3.99,12.32,1729475560803.0,0.0
-5.12782,-2.318645,9.851252,-20.299999,-43.889999,44.73,1729475560822.0,0.0
-1.974079,-6.738188,7.836494,-103.669998,-50.75,64.400002,1729475560841.0,0.0
-0.650848,-8.73141,4.510471,-96.529999,-41.369999,62.16,1729475560861.0,0.0
-4.110869,-9.267403,1.974079,-36.540001,-26.040001,59.150002,1729475560881.0,0.0
-7.482357,-14.110476,3.67059,24.15,-8.68,52.080002,1729475560905.0,0.0
-6.460621,-17.154144,4.74736,34.860001,6.51,7.63,1729475560922.0,0.0
-3.912265,-11.755937,3.371487,25.41,10.64,-40.950001,1729475560941.0,0.0
-0.894916,-7.745567,1.818545,59.150002,32.200001,-29.120001,1729475560961.0,0.0
-3.905087,-9.745967,1.636691,15.75,20.02,-49.84,1729475560981.0,0.0
-0.894916,-8.977871,3.732803,-7.28,31.219999,-63.349998,1729475561002.0,0.0
-1.830509,-4.627719,5.730811,64.190002,41.369999,-32.549999,1729475561020.0,0.0
-1.380659,-1.531406,7.398607,39.689999,21.629999,-44.59,1729475561041.0,0.0
-0.543171,-0.378066,7.640282,0.42,2.03,13.440001,1729475561061.0,0.0
-4.706682,-2.993421,7.62114,-38.709999,-33.18,22.889999,1729475561082.0,0.0
-3.457629,-6.84108,7.819745,-71.050003,-46.900002,54.740002,1729475561102.0,0.0
-2.682354,-7.130611,6.62094,-36.75,-39.549999,48.02,1729475561120.0,0.0
-7.116255,-11.16491,5.340781,17.15,-32.900002,61.040001,1729475561142.0,0.0
-5.941379,-14.723038,5.223531,-4.48,-23.870001,34.299999,1729475561161.0,0.0
-5.388636,-13.000205,4.173083,15.26,-5.04,-3.71,1729475561181.0,0.0
-4.649254,-11.552547,2.481357,13.09,3.57,-31.08,1729475561202.0,0.0
-2.009971,-9.796216,2.038685,2.52,14.28,-47.040001,1729475561220.0,0.0
-2.751746,-10.514063,2.419144,36.330002,23.379999,-45.849998,1729475561240.0,0.0
-2.433501,-11.140982,3.182454,33.32,21.629999,-66.709999,1729475561261.0,0.0
-0.914058,-7.642675,6.058627,42.139999,28.42,-79.099998,1729475561286.0,0.0
-1.002593,-1.019342,5.056034,50.119999,31.639999,-47.950001,1729475561303.0,0.0
-2.519642,0.535992,5.690133,5.32,11.13,-41.23,1729475561321.0,0.0
-2.136791,-0.299103,6.250053,-42.209999,-3.01,10.5,1729475561340.0,0.0
-4.919643,-4.007978,7.776673,-39.759998,-24.92,34.09,1729475561361.0,0.0
-3.105884,-6.302694,8.975478,-36.400002,-30.799999,59.5,1729475561382.0,0.0
-1.165305,-7.161718,6.848258,-34.93,-27.51,57.889999,1729475561401.0,0.0
-3.503092,-8.750552,3.558127,-43.049999,-28.139999,62.93,1729475561420.0,0.0
-6.281159,-13.469198,3.476771,-44.099998,-26.32,41.860001,1729475561440.0,0.0
-4.319045,-14.780465,4.352544,-3.15,-3.22,19.74,1729475561460.0,0.0
-3.759124,-11.483156,3.900301,29.049999,9.87,-34.369999,1729475561482.0,0.0
-1.124627,-7.819745,3.404987,20.65,18.129999,-42.630001,1729475561501.0,0.0
-2.57707,-8.846266,1.596013,10.08,20.51,-40.880001,1729475561520.0,0.0
-2.924029,-12.067005,1.909473,-23.030001,18.83,-66.010002,1729475561607.0,0.0
0.155533,-7.69771,5.422136,15.05,38.709999,-70.209999,1729475561612.0,0.0
-3.096312,-2.287539,6.089733,82.18,42.98,-33.880001,1729475561613.0,0.0
-0.961915,1.67019,6.666404,29.540001,16.870001,-38.009998,1729475561615.0,0.0
-2.553142,-0.859023,7.948956,4.62,-3.15,23.940001,1729475561623.0,0.0
-4.536791,-4.252046,9.08794,-49.560001,-39.41,42.490002,1729475561642.0,0.0
-1.631905,-7.412964,7.944171,-57.68,-37.240002,65.940002,1729475561661.0,0.0
-0.808774,-6.585048,5.381458,-28.559999,-29.82,59.779999,1729475561681.0,0.0
-6.424729,-11.676974,5.12782,15.82,-17.710001,69.860001,1729475561701.0,0.0
-6.38405,-13.521841,5.809773,-7.42,-11.69,40.740002,1729475561720.0,0.0
-5.319244,-13.194024,4.218546,-12.46,-11.69,6.44,1729475561747.0,0.0
-4.733003,-13.29213,1.521835,-24.360001,0.07,-29.049999,1729475561760.0,0.0
-1.473979,-10.463813,2.435893,5.74,14.49,-42.07,1729475561781.0,0.0
-2.979064,-9.403792,1.993221,58.939999,21.91,-59.220001,1729475561802.0,0.0
-1.684547,-10.234102,3.079563,48.439999,27.02,-66.150002,1729475561820.0,0.0
0.088534,-3.17049,2.742175,33.25,35.420002,-68.389999,1729475561841.0,0.0
-2.677568,-3.218346,6.692725,55.369999,39.060001,-40.32,1729475561861.0,0.0
-0.837488,-0.01675,6.82433,-33.32,20.299999,-35.98,1729475561881.0,0.0
-3.18724,-1.892723,8.91805,-13.93,1.54,21.49,1729475561903.0,0.0
-4.326223,-4.852644,8.726624,-39.48,-27.51,35.420002,1729475561921.0,0.0
-1.789831,-6.360123,7.441679,-43.540001,-29.610001,55.299999,1729475561941.0,0.0
-1.698904,-7.164111,5.694918,-29.68,-25.620001,57.889999,1729475561961.0,0.0
-3.885944,-7.259824,4.010371,-36.119999,-22.540001,67.410004,1729475561982.0,0.0
-6.836295,-12.753745,4.622933,-19.879999,-18.690001,55.650002,1729475562002.0,0.0
-5.919843,-15.05564,5.699703,-5.04,-6.58,30.1,1729475562021.0,0.0
-4.895715,-13.320844,4.9675,14.21,0.63,-13.37,1729475562041.0,0.0
-3.658626,-11.598011,3.804588,0.91,1.54,-37.029999,1729475562061.0,0.0
-1.117448,-9.745967,3.862016,3.85,9.59,-48.860001,1729475562082.0,0.0
-2.287539,-10.662418,4.587041,21.98,11.62,-64.330002,1729475562103.0,0.0
-0.442672,-9.798609,5.20439,15.75,6.58,-83.580002,1729475562121.0,0.0
-0.710668,-3.883551,2.706282,45.43,9.73,-55.720001,1729475562141.0,0.0
-2.974278,-3.007778,4.898108,60.130001,11.97,-54.18,1729475562162.0,0.0
-2.581856,-2.854637,7.166504,-17.219999,4.48,-36.470001,1729475562183.0,0.0
-3.026921,-3.163311,7.089933,-44.939999,-10.64,-16.1,1729475562203.0,0.0
-3.495914,-4.295116,6.092126,-43.889999,-28.559999,9.45,1729475562224.0,0.0
-1.457229,-4.615755,7.398607,-21.07,-26.389999,30.799999,1729475562242.0,0.0
-0.818345,-5.079963,7.984849,8.89,-25.969999,51.029999,1729475562262.0,0.0
-1.363909,-3.759124,7.759924,-18.83,-38.009998,58.029999,1729475562286.0,0.0
-3.524628,-4.529613,5.388636,-53.41,-40.880001,77.419998,1729475562305.0,0.0
-5.804988,-8.219346,6.805188,-72.379997,-56.630001,84.559998,1729475562322.0,0.0
-6.991827,-9.872787,6.326623,-87.989998,-67.690002,76.019997,1729475562342.0,0.0
-6.690332,-12.201002,5.587241,-95.760002,-76.230003,58.799999,1729475562363.0,0.0
-4.091727,-12.634104,5.261817,-103.32,-84.349998,37.029999,1729475562383.0,0.0
-3.096312,-10.997414,4.010371,-87.849998,-91.699997,13.79,1729475562403.0,0.0
-2.148755,-10.80838,2.299503,-103.18,-89.110001,-9.17,1729475562422.0,0.0
-1.37348,-12.050256,-0.162712,-130.759995,-75.669998,-34.93,1729475562442.0,0.0
-0.736989,-13.646267,-1.509871,-122.080002,-46.060001,-54.810001,1729475562467.0,0.0
-0.885344,-14.026726,-1.634298,-87.57,-11.27,-71.889999,1729475562482.0,0.0
-1.194018,-13.220345,-1.481157,-53.830002,18.48,-86.800003,1729475562505.0,0.0
-0.849452,-11.669796,-1.028914,-34.790001,43.82,-95.059998,1729475562522.0,0.0
-0.205783,-9.595219,-0.174676,-31.99,63.0,-100.730003,1729475562542.0,0.0
0.358923,-7.331609,-0.011964,-42.77,75.599998,-99.889999,1729475562561.0,0.0
-0.023928,-6.374479,1.392623,-62.09,83.720001,-84.07,1729475562583.0,0.0
0.521635,-5.580062,1.732404,-71.75,73.360001,-69.790001,1729475562603.0,0.0
0.739382,-4.878965,2.45025,-51.869999,68.529999,-39.970001,1729475562622.0,0.0
0.184247,-6.034698,2.402394,-25.200001,51.66,-20.58,1729475562642.0,0.0
-1.986043,-9.820145,2.299503,40.110001,36.75,-1.19,1729475562662.0,0.0
-4.232903,-13.270595,4.642076,85.959999,10.36,-3.29,1729475562682.0,0.0
-3.378666,-14.026726,5.364708,54.599998,-7.28,-26.880001,1729475562703.0,0.0
-1.957329,-12.035898,1.634298,-24.290001,-9.45,-51.939999,1729475562722.0,0.0
0.562313,-6.876972,0.650848,-99.889999,16.799999,-75.389999,1729475562742.0,0.0
4.223332,-4.278367,-1.026521,-99.68,6.51,-68.739998,1729475562763.0,0.0
5.668597,-3.354738,2.141576,81.199997,50.82,0.35,1729475562783.0,0.0
3.192025,-0.040678,3.76391,186.690002,66.919998,38.220001,1729475562803.0,0.0
-0.662812,-1.447658,9.633504,174.580002,57.889999,70.419998,1729475562822.0,0.0
-1.399801,-4.744967,9.707682,51.869999,5.46,79.660004,1729475562841.0,0.0
0.729811,-10.293922,7.384251,-105.489998,-54.880001,82.32,1729475562861.0,0.0
0.492921,-14.830715,-0.787239,-211.119995,-84.139999,57.68,1729475562883.0,0.0
-1.194018,-13.823336,-3.35713,-153.930008,-64.400002,47.810001,1729475562904.0,0.0
-2.120041,-9.059227,-0.940379,-11.55,-18.41,57.959999,1729475562922.0,0.0
-3.460021,-7.298109,-0.636491,-17.85,6.23,56.77,1729475562942.0,0.0
-6.78126,-13.765909,-2.371287,-73.639999,3.99,54.18,1729475562963.0,0.0
-7.300502,-19.317257,-3.936193,-81.620003,2.31,18.620001,1729475562982.0,0.0
-2.845066,-17.491533,-0.124427,17.57,23.309999,-11.27,1729475563003.0,0.0
-1.627119,-12.593425,1.409373,65.730003,41.23,-50.400002,1729475563021.0,0.0
-2.481357,-9.008978,1.646262,53.760002,47.459999,-67.760002,1729475563041.0,0.0
1.308874,-7.628319,1.741975,21.77,35.420002,-62.93,1729475563064.0,0.0
1.730011,-7.793423,4.773681,8.96,20.16,-54.040001,1729475563083.0,0.0
0.674776,-4.82393,6.185446,15.68,12.88,-42.279999,1729475563103.0,0.0
0.232104,-2.421536,7.049256,-8.89,-20.09,-18.620001,1729475563123.0,0.0
2.139183,-3.220739,1.409373,-50.82,-66.849998,14.0,1729475563142.0,0.0
3.168097,-5.053641,-1.959722,-47.599998,-69.860001,56.420002,1729475563162.0,0.0
2.22054,-6.443871,-2.337788,0.84,-39.619999,85.82,1729475563183.0,0.0
0.160319,-10.169496,-1.864009,43.330002,-10.78,94.43,1729475563203.0,0.0
-4.242475,-14.715858,-1.770689,28.07,2.45,84.629997,1729475563221.0,0.0
-7.724032,-19.814964,3.06042,31.43,-4.55,61.18,1729475563242.0,0.0
-5.979663,-16.862221,-1.40698,-40.389999,-9.59,6.02,1729475563261.0,0.0
-3.912265,-14.170296,-1.828116,-27.51,23.52,-21.49,1729475563285.0,0.0
-4.019942,-15.424134,0.382852,-33.529999,45.779999,-57.82,1729475563303.0,0.0
-3.48395,-13.325629,0.442672,-56.630001,54.670002,-82.739998,1729475563321.0,0.0
-0.911665,-12.081362,1.741975,16.1,59.290001,-82.669998,1729475563342.0,0.0
0.70349,-9.351151,3.617948,48.02,56.91,-99.959999,1729475563361.0,0.0
-0.229711,-1.911865,7.341179,45.360001,49.98,-95.970001,1729475563382.0,0.0
2.672783,1.938186,5.264209,32.900002,-22.82,-45.220001,1729475563404.0,0.0
4.919643,-0.023928,4.551149,33.880001,-50.75,7.84,1729475563422.0,0.0
3.859623,-1.239482,1.06002,-6.93,-63.700001,60.200001,1729475563441.0,0.0
1.533799,-4.62054,0.461815,14.42,-50.889999,107.169998,1729475563463.0,0.0
-0.083749,-9.60479,-0.356531,-12.81,-39.48,118.440002,1729475563482.0,0.0
-3.536592,-18.132809,2.143969,-84.769997,-36.259998,108.43,1729475563502.0,0.0
-4.694718,-20.183458,-0.588634,-66.080002,-34.580002,73.43,1729475563521.0,0.0
-5.113462,-17.087147,-3.866802,3.08,-8.4,46.549999,1729475563542.0,0.0
-6.491727,-12.825529,-4.295116,17.01,28.700001,8.33,1729475563561.0,0.0
-6.750153,-14.780465,0.870987,41.790001,43.959999,-12.53,1729475563582.0,0.0
-5.134997,-13.208381,1.074377,-15.33,45.290001,-60.619999,1729475563613.0,0.0
-2.842674,-10.289137,1.880759,-30.799999,36.049999,-76.860001,1729475563624.0,0.0
-0.476172,-7.793423,2.0004,-30.59,39.060001,-87.220001,1729475563641.0,0.0
1.249053,-7.070791,4.335794,-0.28,21.77,-79.449997,1729475563661.0,0.0
2.134398,-3.89073,5.525027,41.23,2.66,-62.93,1729475563682.0,0.0
2.892922,-2.65364,5.659025,64.470001,-20.440001,-24.92,1729475563702.0,0.0
3.78066,-0.978664,1.696511,9.52,-50.189999,11.41,1729475563721.0,0.0
2.208575,-3.948158,-0.878166,-43.119999,-56.490002,76.860001,1729475563741.0,0.0
-0.117248,-10.147961,-1.308874,-55.439999,-47.740002,91.209999,1729475563762.0,0.0
-2.378466,-12.703495,-3.821337,-20.370001,-34.299999,99.82,1729475563790.0,0.0
-6.922436,-18.814764,0.308674,11.41,-12.6,94.57,1729475563801.0,0.0
-8.592626,-20.568703,-1.739582,-33.529999,-2.73,36.959999,1729475563823.0,0.0
-6.647261,-15.39542,-2.603391,-44.240002,18.200001,-14.84,1729475563841.0,0.0
-4.409972,-16.07259,0.277567,15.12,38.220001,-50.68,1729475563861.0,0.0
-3.902694,-13.067204,0.320638,-43.189999,36.470001,-96.25,1729475563882.0,0.0
-1.926222,-10.607382,0.488136,-29.26,31.780001,-101.989998,1729475563902.0,0.0
-0.002393,-6.656832,0.545564,-19.25,37.029999,-100.730003,1729475563921.0,0.0
2.012364,-4.304688,1.067199,-13.51,38.639999,-87.849998,1729475563942.0,0.0
2.768496,-4.256832,4.134798,5.6,25.41,-73.080002,1729475563963.0,0.0
3.086741,-2.677568,5.625526,22.889999,10.99,-36.400002,1729475563982.0,0.0
3.692125,-2.423929,6.190232,15.89,-16.17,2.03,1729475564003.0,0.0
3.141776,-2.727818,2.555535,-10.92,-42.98,41.439999,1729475564023.0,0.0
1.275374,-5.723632,-0.476172,-41.93,-59.849998,97.300003,1729475564042.0,0.0
-1.962115,-11.827723,-2.201397,-52.360001,-60.549999,113.959999,1729475564064.0,0.0
-6.331409,-18.7693,-4.61097,-36.049999,-48.369999,102.269997,1729475564084.0,0.0
-9.308081,-21.877579,-7.479963,-13.65,-24.219999,56.560001,1729475564105.0,0.0
-7.692925,-18.441484,-5.580062,37.240002,22.960001,3.99,1729475564122.0,0.0
-4.56072,-14.423935,-1.751546,56.77,50.119999,-42.630001,1729475564143.0,0.0
-2.864209,-12.074183,0.756132,24.01,55.09,-86.029999,1729475564163.0,0.0
-1.378266,-9.353544,1.344766,-24.290001,48.720001,-89.040001,1729475564184.0,0.0
0.526421,-5.139783,0.066999,-44.66,41.860001,-86.800003,1729475564204.0,0.0
1.72044,-5.769095,0.844666,-20.16,43.189999,-65.309998,1729475564222.0,0.0
2.684747,-5.412565,3.165704,31.360001,31.43,-56.98,1729475564242.0,0.0
2.579463,-2.177469,5.9677,95.059998,28.700001,-22.120001,1729475564264.0,0.0
3.254239,-1.337588,7.305287,70.419998,-7.35,17.639999,1729475564287.0,0.0
3.510271,-1.684547,3.426522,-29.120001,-52.639999,55.439999,1729475564305.0,0.0
1.95015,-4.405186,-0.035892,-60.900002,-64.75,99.610001,1729475564323.0,0.0
-3.055635,-14.237295,-2.63689,-38.150002,-57.049999,121.870003,1729475564342.0,0.0
-7.661818,-21.705294,-3.471986,-0.84,-40.880001,93.449997,1729475564363.0,0.0
-8.169096,-20.358133,-5.314459,21.700001,-7.91,39.34,1729475564386.0,0.0
-6.068198,-15.577275,-4.63729,51.450001,32.759998,-2.38,1729475564405.0,0.0
-5.237889,-15.364313,0.509671,62.650002,52.43,-37.869999,1729475564424.0,0.0
-3.806981,-12.736995,0.488136,19.32,51.66,-87.150002,1729475564444.0,0.0
-2.495714,-10.753345,0.708275,2.45,52.220001,-97.580002,1729475564464.0,0.0
-0.727418,-8.578269,1.892723,17.85,49.420002,-94.849998,1729475564486.0,0.0
1.847259,-5.479564,2.397608,45.57,49.490002,-89.879997,1729475564512.0,0.0
2.108077,-3.168097,5.843273,60.619999,33.040001,-71.75,1729475564524.0,0.0
2.474179,-0.930808,5.948557,61.110001,8.75,-36.75,1729475564544.0,0.0
3.069991,-2.443072,6.439085,23.870001,-25.9,4.2,1729475564564.0,0.0
2.790031,-3.462414,4.237689,-47.32,-55.16,32.830002,1729475564585.0,0.0
1.813759,-4.68754,0.882952,-53.619999,-66.010002,73.080002,1729475564604.0,0.0
-1.289732,-9.765109,-2.081756,-42.84,-62.790001,98.840004,1729475564624.0,0.0
-5.426922,-14.079369,-3.957729,-63.560001,-53.830002,98.910004,1729475564644.0,0.0
-8.9348,-23.358734,-1.088734,-38.849998,-36.959999,72.519997,1729475564664.0,0.0
-6.025128,-20.726629,-4.007978,-30.1,-10.71,15.96,1729475564685.0,0.0
-4.058227,-14.41197,-4.299902,12.67,26.32,-28.210001,1729475564705.0,0.0
-4.398008,-15.613168,0.100499,43.68,49.07,-63.279999,1729475564724.0,0.0
-2.804388,-12.095718,-0.117248,-23.030001,51.380001,-98.489998,1729475564745.0,0.0
-0.650848,-6.838687,-0.636491,-37.029999,49.490002,-107.169998,1729475564764.0,0.0
2.079363,-5.108676,2.129612,34.299999,51.799999,-87.639999,1729475564785.0,0.0
3.345166,-2.368894,6.209375,71.82,35.77,-73.57,1729475564804.0,0.0
3.404987,0.746561,6.391229,84.139999,14.56,-27.370001,1729475564824.0,0.0
2.998207,-1.643869,6.441479,32.27,-21.559999,21.210001,1729475564844.0,0.0
2.316252,-3.510271,3.146562,-77.209999,-60.689999,47.25,1729475564865.0,0.0
1.115055,-6.12084,-0.208176,-73.639999,-69.090004,89.599998,1729475564885.0,0.0
-0.244068,-9.267403,-2.206182,-30.799999,-58.240002,109.830002,1729475564904.0,0.0
-4.012764,-12.813565,-2.9336,-26.18,-47.110001,107.870003,1729475564924.0,0.0
-8.609376,-22.203001,-1.064806,5.32,-20.719999,87.5,1729475564943.0,0.0
-5.735595,-17.556139,-4.39083,-31.08,-9.8,23.1,1729475564965.0,0.0
-3.847659,-14.459827,-1.933401,57.82,49.139999,-31.43,1729475564984.0,0.0
-4.084548,-13.198811,0.318245,29.68,57.540001,-79.449997,1729475565005.0,0.0
-2.124826,-11.566904,0.442672,4.55,52.990002,-89.669998,1729475565024.0,0.0
-0.638884,-7.606783,0.452243,2.45,49.98,-97.650002,1729475565044.0,0.0
1.019342,-6.343372,1.194018,49.91,48.16,-91.349998,1729475565063.0,0.0
1.316052,-5.87438,4.067799,78.260002,36.330002,-83.440002,1729475565084.0,0.0
1.438086,-2.550749,5.65424,83.160004,21.91,-55.720001,1729475565106.0,0.0
3.29731,-0.435494,6.644868,62.720001,-5.81,-19.67,1729475565123.0,0.0
4.309474,-0.722632,5.508278,-20.02,-35.349998,20.51,1729475565143.0,0.0
3.117848,-2.9671,1.710868,-60.48,-47.18,69.720001,1729475565164.0,0.0
0.588634,-5.836094,-1.258625,-75.389999,-42.420002,95.410004,1729475565184.0,0.0
-2.85703,-13.002598,-0.545564,-59.080002,-38.150002,111.160004,1729475565204.0,0.0
-5.515456,-18.355343,-1.562513,-23.66,-25.549999,96.529999,1729475565224.0,0.0
-6.273981,-20.080566,-2.400001,-27.719999,-17.15,60.200001,1729475565243.0,0.0
-5.115855,-16.735401,-4.158726,-18.549999,10.57,10.15,1729475565263.0,0.0
-4.35733,-16.149158,-1.344766,27.16,34.16,-28.84,1729475565287.0,0.0
-2.76371,-12.629318,-0.064606,11.2,45.849998,-85.260002,1729475565304.0,0.0
-0.665205,-7.633104,-0.368495,24.219999,54.950001,-89.389999,1729475565323.0,0.0
1.76351,-6.690332,2.098505,73.849998,54.459999,-81.620003,1729475565343.0,0.0
1.339981,-5.503492,5.63749,76.93,41.369999,-71.610001,1729475565363.0,0.0
1.756332,-1.409373,6.226124,77.139999,20.16,-43.330002,1729475565384.0,0.0
2.974278,0.090927,6.85783,53.970001,-8.89,-5.67,1729475565405.0,0.0
2.699104,-1.237089,5.321638,-30.030001,-38.57,31.639999,1729475565424.0,0.0
1.0002,-4.275974,1.885544,-76.230003,-56.490002,72.099998,1729475565443.0,0.0
-0.12682,-6.709475,-0.081356,-70.769997,-56.77,97.160004,1729475565465.0,0.0
-1.952543,-12.698709,-0.636491,-37.66,-49.0,120.470001,1729475565484.0,0.0
-4.867002,-16.113268,-3.393023,-48.93,-42.700001,93.239998,1729475565504.0,0.0
-7.300502,-20.793631,-1.799403,-17.5,-26.74,72.309998,1729475565524.0,0.0
-6.156733,-19.726431,-2.679961,3.15,-1.33,18.34,1729475565543.0,0.0
-4.902894,-14.177474,-2.402394,26.460001,27.93,-28.35,1729475565563.0,0.0
-4.12044,-13.856836,0.519243,40.110001,44.170002,-62.299999,1729475565584.0,0.0
-2.581856,-11.337193,0.949951,0.77,42.349998,-87.779999,1729475565604.0,0.0
-1.038485,-7.384251,2.612962,6.65,41.720001,-88.129997,1729475565623.0,0.0
1.591227,-5.158926,2.108077,18.969999,31.92,-81.550003,1729475565644.0,0.0
1.765903,-5.647062,4.567898,18.969999,13.51,-63.91,1729475565663.0,0.0
2.567499,-3.237489,4.864608,16.379999,-2.52,-35.07,1729475565684.0,0.0
3.194418,-3.711268,5.12782,-2.45,-23.940001,0.7,1729475565705.0,0.0
2.455036,-3.895515,3.034099,-47.040001,-43.119999,27.58,1729475565723.0,0.0
0.42353,-4.941179,0.701097,-34.23,-42.490002,69.230003,1729475565743.0,0.0
-0.4666,-5.79063,-0.832702,-31.710001,-38.920002,82.529999,1729475565763.0,0.0
-1.988436,-11.327622,0.165105,-21.559999,-36.259998,101.709999,1729475565784.0,0.0
-3.866802,-14.85225,-1.59362,2.03,-20.93,95.269997,1729475565803.0,0.0
-6.407979,-17.950956,-0.794417,0.28,-10.15,69.510002,1729475565831.0,0.0
-6.647261,-19.929819,-0.66999,-5.32,2.59,22.26,1729475565844.0,0.0
-4.579862,-14.950355,-2.270789,16.309999,24.57,-20.09,1729475565863.0,0.0
-3.708875,-13.828122,0.540778,43.82,39.759998,-57.260002,1729475565886.0,0.0
-2.63689,-11.645866,0.342174,5.11,34.790001,-77.419998,1729475565907.0,0.0
-1.28016,-10.468598,1.794617,4.97,34.860001,-90.650002,1729475565924.0,0.0
0.940379,-6.664011,0.677169,-2.31,32.549999,-91.139999,1729475565944.0,0.0
1.737189,-6.329016,3.098706,27.51,28.210001,-81.690002,1729475565964.0,0.0
1.835295,-4.599005,5.261817,40.18,12.74,-58.450001,1729475565986.0,0.0
2.48375,-3.402594,5.95095,47.810001,-7.28,-27.16,1729475566006.0,0.0
2.67039,-2.981457,4.922036,0.77,-29.82,0.84,1729475566025.0,0.0
2.194218,-3.005385,2.18704,-22.960001,-43.259998,44.240002,1729475566044.0,0.0
0.799203,-5.134997,0.473779,-34.299999,-41.860001,72.660004,1729475566064.0,0.0
-1.028914,-10.439885,-0.509671,-37.52,-36.400002,90.019997,1729475566087.0,0.0
-3.031706,-12.655639,-2.854637,-27.58,-32.34,85.540001,1729475566107.0,0.0
-5.845665,-18.314665,-1.782653,28.98,-0.49,80.639999,1729475566126.0,0.0
-6.635297,-21.044874,-1.696511,3.78,7.7,27.58,1729475566144.0,0.0
-3.706482,-16.328621,-2.433501,16.309999,30.799999,-20.65,1729475566164.0,0.0
-3.048456,-14.199009,0.689133,52.990002,50.68,-58.869999,1729475566187.0,0.0
-2.342573,-11.511869,1.435694,19.389999,49.98,-85.330002,1729475566207.0,0.0
-0.921237,-7.625926,1.509871,6.93,46.970001,-89.529999,1729475566224.0,0.0
1.20359,-6.60419,3.498307,53.41,43.889999,-81.059998,1729475566245.0,0.0
0.727418,-4.926822,6.860222,41.509998,24.15,-62.860001,1729475566264.0,0.0
1.68694,-2.400001,5.230711,6.23,-3.01,-42.279999,1729475566289.0,0.0
3.038885,-2.57707,5.209175,-5.04,-29.4,-4.41,1729475566307.0,0.0
2.943172,-3.342773,3.503092,-30.59,-43.259998,31.780001,1729475566325.0,0.0
1.194018,-3.9673,1.502693,-27.93,-44.52,70.629997,1729475566347.0,0.0
-0.241675,-4.67079,0.789631,-19.110001,-36.68,95.199997,1729475566366.0,0.0
-2.227718,-10.171888,1.06002,-22.68,-36.540001,117.809998,1729475566389.0,0.0
-3.541377,-13.064812,-2.660819,-42.420002,-35.91,108.220001,1729475566407.0,0.0
-7.111469,-20.700308,-0.502493,-61.810001,-30.380001,84.349998,1729475566427.0,0.0
-6.293124,-21.84647,-2.778067,-76.019997,-8.47,28.49,1729475566446.0,0.0
-3.749553,-14.658432,-3.622734,-30.799999,25.76,-21.280001,1729475566465.0,0.0
-3.550949,-13.416556,0.571885,3.78,51.939999,-52.220001,1729475566489.0,0.0
-2.230111,-10.765309,1.081556,-24.15,43.400002,-70.980003,1729475566507.0,0.0
-0.387637,-9.200402,4.036692,2.94,37.099998,-74.410004,1729475566526.0,0.0
1.01695,-4.510471,1.808974,15.33,23.379999,-66.360001,1729475566595.0,0.0
1.399801,-4.192225,2.993421,41.790001,6.09,-46.549999,1729475566598.0,0.0
-0.387637,-7.144968,6.314659,0.49,-9.52,-23.309999,1729475566598.0,0.0
1.45005,-3.845266,5.563312,-44.59,-46.130001,-18.83,1729475566617.0,0.0
3.876373,-1.914258,2.371287,-25.9,-66.989998,35.0,1729475566630.0,0.0
3.440879,-5.271388,-0.655633,-56.349998,-84.559998,80.709999,1729475566646.0,0.0
-0.014357,-11.485549,-6.295516,-81.690002,-61.459999,90.580002,1729475566666.0,0.0
-4.453043,-18.151953,-7.223931,-14.84,-26.25,69.510002,1729475566687.0,0.0
-7.738388,-21.04966,0.433101,102.480003,14.7,56.209999,1729475566714.0,0.0
-5.898308,-15.926627,1.421337,35.420002,14.91,-16.379999,1729475566728.0,0.0
-2.54357,-11.47837,-0.600598,-18.83,17.01,-42.91,1729475566745.0,0.0
-1.598405,-13.46202,-1.136591,-39.34,22.960001,-60.48,1729475566766.0,0.0
-1.131805,-12.134004,-2.273181,-33.880001,33.670002,-77.0,1729475566786.0,0.0
-1.071985,-8.611769,0.162712,51.310001,53.830002,-65.940002,1729475566805.0,0.0
-0.29671,-5.431707,0.153141,63.279999,55.23,-72.519997,1729475566826.0,0.0
0.473779,-4.608576,3.117848,51.170002,45.290001,-60.549999,1729475566846.0,0.0
-0.59342,-6.752545,4.520042,-13.16,27.51,-42.77,1729475566866.0,0.0
1.323231,-8.212167,4.268795,-63.490002,-10.64,-41.650002,1729475566886.0,0.0
3.002992,-5.804988,3.457629,-11.41,-35.209999,-15.12,1729475566907.0,0.0
3.208775,-3.991228,1.897508,5.11,-41.580002,15.190001,1729475566925.0,0.0
2.232504,-4.630112,0.301496,-3.36,-41.509998,50.330002,1729475566945.0,0.0
0.413958,-6.946364,-0.928415,-16.870001,-30.030001,71.889999,1729475566966.0,0.0
-2.031506,-12.318252,-1.323231,-22.4,-18.549999,85.540001,1729475566986.0,0.0
-3.675375,-15.713666,-1.069592,-26.74,-13.23,59.290001,1729475567006.0,0.0
-3.960121,-18.376879,0.976272,-3.99,-0.56,44.099998,1729475567025.0,0.0
-2.70389,-14.682359,-0.638884,-23.52,-0.84,1.47,1729475567045.0,0.0
-2.07697,-12.181859,-1.586441,-1.12,14.42,-17.99,1729475567065.0,0.0
-1.919044,-12.177074,-0.418744,-3.29,20.719999,-38.290001,1729475567086.0,0.0
-1.143769,-10.652846,0.215354,-17.639999,21.559999,-48.580002,1729475567106.0,0.0
-0.452243,-7.745567,-0.969093,-33.389999,28.0,-51.450001,1729475567125.0,0.0
-0.026321,-7.144968,-0.248854,-30.380001,31.43,-43.330002,1729475567145.0,0.0
-0.358923,-7.503892,1.852045,-42.07,27.58,-32.200001,1729475567167.0,0.0
-1.244268,-7.77428,2.232504,-72.870003,13.79,-28.84,1729475567186.0,0.0
-1.978864,-7.573284,2.751746,-108.080002,-8.12,-29.4,1729475567206.0,0.0
-1.548156,-7.858029,-0.540778,-136.080002,-47.880001,-28.49,1729475567226.0,0.0
-0.653241,-6.879365,-1.395016,-112.559998,-57.889999,-15.68,1729475567246.0,0.0
0.497707,-5.848059,-1.402194,-91.559998,-64.050003,1.4,1729475567291.0,0.0
1.179662,-5.761917,-1.909473,-111.300003,-73.43,17.08,1729475567291.0,0.0
0.660419,-7.960921,-3.369094,-143.639999,-84.489998,33.670002,1729475567376.0,0.0
-0.01675,-10.640882,-5.087141,-141.820007,-87.989998,37.240002,1729475567376.0,0.0
-0.114855,-11.392227,-5.536992,-97.090004,-73.290001,34.790001,1729475567376.0,0.0
-0.33021,-9.58804,-5.058427,-59.5,-50.75,31.43,1729475567377.0,0.0
-0.784846,-7.360322,-4.847858,-92.120003,-36.75,30.66,1729475567386.0,0.0
-1.328017,-7.171289,-5.290531,-167.860001,-33.040001,33.040001,1729475567415.0,0.0
-0.969093,-7.513463,-7.525427,-246.050003,-34.720001,26.809999,1729475567424.0,0.0
-0.617348,-8.52802,-8.819944,-277.200012,-27.790001,24.57,1729475567445.0,0.0
-0.289532,-8.382057,-9.152546,-259.279999,-15.82,19.32,1729475567464.0,0.0
-0.4666,-7.020542,-9.262616,-234.639999,-7.28,13.440001,1729475567487.0,0.0
-0.595813,-5.510671,-9.504292,-232.960007,-2.45,7.28,1729475567507.0,0.0
-0.679562,-4.587041,-10.229317,-251.720001,1.26,3.15,1729475567524.0,0.0
-0.964308,-3.737589,-11.806188,-265.369995,4.97,4.41,1729475567545.0,0.0
-0.973879,-3.708875,-12.485749,-204.470001,13.93,15.89,1729475567566.0,0.0
-1.59362,-3.005385,-10.296316,-160.509995,28.42,26.530001,1729475567586.0,0.0
-4.027121,-2.742175,-4.948357,-199.779999,34.509998,18.690001,1729475567607.0,0.0
-3.117848,-9.066404,-10.102496,-139.720001,-36.189999,6.02,1729475567625.0,0.0
-1.031307,-9.643075,-12.416357,-3.15,-22.889999,-1.61,1729475567645.0,0.0
-2.526821,-4.311867,-11.882757,78.190002,26.880001,-20.65,1729475567665.0,0.0
-3.196811,-0.79681,-8.46102,68.040001,33.25,-26.74,1729475567688.0,0.0
-1.464408,-2.720639,-10.109675,30.309999,4.27,-25.76,1729475567707.0,0.0
0.825524,-3.084348,-8.327023,6.44,-10.78,-27.02,1729475567725.0,0.0
-0.428315,-0.768096,-7.860423,-27.719999,7.7,-28.700001,1729475567744.0,0.0
-1.892723,-1.777867,-9.19801,-44.869999,3.01,-19.879999,1729475567766.0,0.0
-0.074178,-1.90708,-9.181261,-42.349998,-11.13,-18.48,1729475567787.0,0.0
1.409373,-0.327817,-9.891929,-33.810001,-14.63,-10.71,1729475567805.0,0.0
1.416551,-1.115055,-9.949356,-29.75,-16.17,0.21,1729475567824.0,0.0
-0.193819,-1.947758,-11.617154,-25.48,-6.37,10.78,1729475567844.0,0.0
-2.165504,-1.854438,-10.571491,30.1,6.09,27.51,1729475567865.0,0.0
-4.405186,-1.899901,-9.394222,49.84,22.26,33.880001,1729475567887.0,0.0
-3.598805,-2.053042,-9.403792,10.99,12.81,34.509998,1729475567906.0,0.0
-1.227518,-4.086941,-9.164511,-32.200001,-6.65,24.219999,1729475567925.0,0.0
0.174676,-5.661418,-10.236496,-30.030001,-7.56,9.38,1729475567945.0,0.0
0.107677,-4.4339,-9.62154,40.040001,5.32,-4.69,1729475567965.0,0.0
-1.069592,-1.064806,-9.293723,52.849998,21.91,-18.41,1729475567987.0,0.0
-1.751546,-0.413958,-9.872787,12.18,14.91,-25.34,1729475568006.0,0.0
-1.942972,-1.775474,-8.415558,-15.26,3.36,-30.309999,1729475568025.0,0.0
-2.244468,-2.074577,-8.563912,-12.25,3.22,-33.459999,1729475568046.0,0.0
-2.148755,-1.045663,-8.437093,-8.33,-5.39,-35.420002,1729475568066.0,0.0
-2.366502,-2.562713,-7.948956,-12.46,-6.93,-27.09,1729475568088.0,0.0
-1.361516,-0.959522,-7.953743,-52.849998,-18.690001,-32.970001,1729475568106.0,0.0
0.205783,-0.787239,-10.360922,-61.740002,-36.82,-23.030001,1729475568124.0,0.0
1.622334,-1.033699,-10.8682,-72.239998,-37.73,-14.42,1729475568144.0,0.0
1.320838,-2.699104,-11.746366,-67.830002,-31.5,-0.98,1729475568166.0,0.0
-0.902094,-2.37368,-11.85165,-19.950001,-14.91,12.04,1729475568187.0,0.0
-3.306881,-2.258825,-9.552148,24.290001,-3.71,27.299999,1729475568206.0,0.0
-4.407579,-0.090927,-9.918249,59.220001,16.52,47.040001,1729475568225.0,0.0
-3.168097,-1.538585,-8.688338,13.65,-1.54,47.18,1729475568244.0,0.0
-1.189233,-5.070391,-9.803394,-39.34,-24.290001,27.93,1729475568264.0,0.0
0.215354,-5.656632,-11.880364,17.360001,-19.950001,10.01,1729475568295.0,0.0
-1.258625,-2.498107,-10.738988,63.98,16.450001,-11.62,1729475568306.0,0.0
-3.141776,-1.038485,-10.786844,46.130001,33.459999,-23.66,1729475568324.0,0.0
-3.019742,-2.287539,-9.875179,15.54,20.23,-28.49,1729475568345.0,0.0
-2.081756,-2.821138,-7.817351,5.18,10.57,-35.279999,1729475568364.0,0.0
-1.85683,-1.629512,-8.255238,0.77,10.22,-37.869999,1729475568385.0,0.0
-1.816152,1.138984,-8.35813,-6.44,8.05,-30.450001,1729475568405.0,0.0
-1.557728,0.911665,-7.79103,-5.18,1.68,-7.42,1729475568425.0,0.0
-0.641276,0.358923,-8.920443,-63.630001,-17.780001,-2.8,1729475568444.0,0.0
0.244068,-0.794417,-11.45205,-62.720001,-28.42,12.88,1729475568465.0,0.0
-0.002393,-1.442872,-10.619347,-37.59,-16.1,17.290001,1729475568485.0,0.0
-3.223132,-2.677568,-9.320045,-32.48,5.74,22.82,1729475568512.0,0.0
-5.309673,-3.735196,-8.616554,-19.74,-1.33,27.09,1729475568525.0,0.0
-4.510471,-4.666004,-10.459028,1.75,-16.940001,30.17,1729475568544.0,0.0
-0.794417,-4.26401,-11.358729,7.77,-24.639999,10.29,1729475568565.0,0.0
-0.004786,-3.211168,-12.315859,48.650002,-9.52,-2.73,1729475568586.0,0.0
-0.725025,-2.009971,-12.172288,62.860001,10.08,-14.35,1729475568605.0,0.0
-0.746561,-1.536192,-11.952149,47.459999,20.02,-29.889999,1729475568624.0,0.0
-1.426122,-1.028914,-6.85783,36.259998,29.049999,-37.170002,1729475568645.0,0.0
-2.282753,-0.232104,-8.252845,22.540001,30.24,-36.119999,1729475568664.0,0.0
-1.318445,1.471586,-7.551748,-4.55,6.65,-29.120001,1729475568685.0,0.0
-1.710868,0.705883,-6.295516,-52.709999,3.36,-17.780001,1729475568711.0,0.0
-0.818345,-0.059821,-9.958927,-81.340004,-18.76,-5.32,1729475568724.0,0.0
0.961915,-0.535992,-10.549955,-47.740002,-32.759998,6.44,1729475568744.0,0.0
-0.787239,-1.875973,-10.889735,-41.16,-10.57,15.96,1729475568764.0,0.0
-4.220939,-3.268596,-9.600004,-30.52,3.5,23.379999,1729475568785.0,0.0
-5.974878,-1.785046,-9.705289,7.07,3.5,32.970001,1729475568805.0,0.0
-5.383851,-3.481557,-11.349157,21.280001,-2.87,41.720001,1729475568825.0,0.0
-2.89053,-5.9677,-10.736595,36.049999,-22.540001,38.5,1729475568844.0,0.0
-0.457029,-4.347759,-11.820543,67.690002,-10.43,18.34,1729475568864.0,0.0
0.047856,-1.921437,-10.181459,68.25,10.22,-5.11,1729475568886.0,0.0
0.191426,-1.986043,-9.243474,30.17,13.86,-23.17,1729475568905.0,0.0
-1.435694,-1.399801,-7.192825,10.99,24.92,-29.469999,1729475568924.0,0.0
-3.055635,-1.842474,-6.908078,-7.42,19.6,-34.650002,1729475568945.0,0.0
-2.519642,0.658026,-8.16431,-31.57,-1.75,-39.060001,1729475568966.0,0.0
-1.954936,0.674776,-8.60459,-37.170002,-13.440001,-26.25,1729475568985.0,0.0
-0.744168,-0.574277,-9.205189,-73.849998,-22.190001,-25.41,1729475569006.0,0.0
0.607777,-0.648455,-10.396815,-84.980003,-35.420002,-16.52,1729475569024.0,0.0
-0.236889,-0.949951,-11.406586,-16.59,-21.91,8.47,1729475569044.0,0.0
-2.928815,-1.488336,-11.030912,17.92,-2.03,24.290001,1729475569064.0,0.0
-4.790431,-0.662812,-11.184053,36.049999,7.0,38.57,1729475569085.0,0.0
-5.340781,-0.993021,-10.327423,24.290001,18.76,49.349998,1729475569106.0,0.0
-3.634698,-4.017549,-9.695717,20.719999,-11.55,50.610001,1729475569125.0,0.0
-1.086342,-4.756931,-12.186646,58.170002,-15.47,43.68,1729475569144.0,0.0
-0.478565,-3.455236,-10.992627,70.910004,10.64,21.49,1729475569164.0,0.0
-1.028914,-3.818945,-10.382458,44.240002,27.09,-0.28,1729475569186.0,0.0
-0.679562,-4.87418,-9.236296,25.059999,24.639999,-23.66,1729475569205.0,0.0
-1.062413,-3.393023,-6.606583,23.1,22.960001,-41.369999,1729475569224.0,0.0
-2.201397,-1.866402,-6.635297,0.7,19.879999,-56.560001,1729475569244.0,0.0
-1.536192,1.981257,-7.65464,-40.18,-9.8,-55.23,1729475569264.0,0.0
-1.552942,1.445265,-7.939385,-24.710001,-10.64,-18.83,1729475569288.0,0.0
-0.354138,-0.918844,-9.446864,-70.840004,-31.85,-13.79,1729475569307.0,0.0
0.437887,-1.158126,-11.803794,-78.260002,-34.439999,-0.07,1729475569324.0,0.0
-0.658026,-1.617548,-10.872985,-23.66,-19.6,12.32,1729475569344.0,0.0
-3.926622,-2.07697,-10.705488,-0.14,4.34,25.83,1729475569364.0,0.0
-5.491528,-0.935594,-9.592826,24.360001,3.5,41.509998,1729475569385.0,0.0
-5.446064,-2.019542,-10.482956,13.3,13.440001,48.369999,1729475569405.0,0.0
-3.361916,-4.945964,-11.521441,14.42,-14.84,49.07,1729475569424.0,0.0
-1.081556,-5.690133,-11.25823,51.939999,-1.68,29.33,1729475569444.0,0.0
-0.258425,-3.589234,-10.109675,45.57,18.76,-4.2,1729475569464.0,0.0
-0.62692,-4.666004,-10.865808,30.030001,21.700001,-25.27,1729475569487.0,0.0
-0.141177,-2.507678,-8.537591,21.210001,23.17,-47.25,1729475569504.0,0.0
-1.356731,-2.778067,-6.319445,24.43,17.57,-47.950001,1729475569523.0,0.0
-2.132005,-0.524028,-7.094719,-33.950001,11.34,-59.43,1729475569552.0,0.0
-1.502693,0.926022,-8.379664,-50.540001,-11.13,-30.870001,1729475569564.0,0.0
-0.095713,-0.870987,-10.162319,-69.790001,-33.740002,-19.879999,1729475569588.0,0.0
0.569492,-0.440279,-11.705689,-53.900002,-30.309999,0.14,1729475569607.0,0.0
-1.591227,-0.318245,-9.463614,-3.5,-7.77,18.059999,1729475569625.0,0.0
-4.388437,-1.4668,-11.602797,17.15,5.53,37.029999,1729475569644.0,0.0
-5.101498,-0.031107,-9.162118,38.920002,5.46,53.689999,1729475569665.0,0.0
-4.699504,-0.803988,-10.018748,6.37,13.16,56.98,1729475569686.0,0.0
-2.754139,-4.575077,-10.482956,1.19,-11.69,59.150002,1729475569707.0,0.0
-0.495314,-5.948557,-11.684153,36.610001,-7.56,44.240002,1729475569725.0,0.0
-0.148355,-4.541577,-10.325029,43.189999,19.460001,9.1,1729475569744.0,0.0
-1.150948,-4.744967,-10.593026,18.690001,29.469999,-16.379999,1729475569765.0,0.0
-1.311267,-5.661418,-8.79123,9.59,26.880001,-41.369999,1729475569786.0,0.0
-0.775275,-2.175076,-7.56132,13.09,20.51,-58.939999,1729475569805.0,0.0
-2.732604,-2.471786,-4.685147,4.76,22.33,-58.099998,1729475569826.0,0.0
-2.414358,1.301696,-8.403593,-59.010002,-3.64,-65.590004,1729475569846.0,0.0
-1.0002,0.897308,-8.872586,-52.5,-29.190001,-26.25,1729475569866.0,0.0
-0.401994,-0.457029,-11.430513,-50.82,-39.200001,3.99,1729475569886.0,0.0
-0.294317,-0.622134,-11.157731,-13.51,-29.4,15.190001,1729475569907.0,0.0
-2.864209,0.521635,-9.013763,19.67,-2.94,32.130001,1729475569926.0,0.0
-4.285545,-0.61017,-12.514462,38.990002,-3.78,45.080002,1729475569946.0,0.0
-4.551149,0.638884,-10.336994,41.16,10.64,54.459999,1729475569965.0,0.0
-3.481557,-2.383251,-10.162319,3.5,2.52,50.82,1729475569987.0,0.0
-1.430908,-5.60399,-11.64826,17.57,-10.15,40.459999,1729475570008.0,0.0
-0.545564,-5.735595,-10.289137,42.490002,10.71,18.969999,1729475570028.0,0.0
-0.70349,-4.074977,-10.234102,27.790001,22.120001,-14.14,1729475570046.0,0.0
-1.598405,-5.199604,-10.487741,2.59,24.15,-34.09,1729475570066.0,0.0
-0.437887,-2.507678,-8.817552,-21.84,16.870001,-60.900002,1729475570090.0,0.0
-1.540978,-3.065206,-7.233503,-4.27,15.68,-54.950001,1729475570107.0,0.0
-2.581856,-1.074377,-7.716853,-27.58,20.370001,-62.93,1729475570126.0,0.0
-1.739582,1.208375,-7.707282,-16.799999,1.61,-40.950001,1729475570147.0,0.0
-0.411566,-0.320638,-9.614362,-40.950001,-29.26,-17.01,1729475570166.0,0.0
-0.031107,-0.667598,-11.169697,-40.32,-27.65,-1.96,1729475570187.0,0.0
-1.866402,-0.090927,-9.853643,-13.79,-7.56,10.22,1729475570210.0,0.0
-4.110869,-1.196411,-11.52862,4.97,-0.42,28.559999,1729475570226.0,0.0
-5.134997,0.057428,-9.863215,56.490002,-1.75,48.650002,1729475570246.0,0.0
-4.809574,-1.691726,-10.810772,52.220001,6.37,51.310001,1729475570271.0,0.0
-2.550749,-4.67079,-12.25843,25.76,-7.84,35.209999,1729475570291.0,0.0
-0.22014,-5.778666,-10.753345,27.370001,-1.89,8.75,1729475570307.0,0.0
0.722632,-3.534199,-9.719646,2.87,16.17,-26.6,1729475570328.0,0.0
-0.457029,-6.314659,-11.16491,-6.37,20.719999,-40.810001,1729475570346.0,0.0
-0.009571,-3.859623,-7.080362,-6.37,25.27,-67.129997,1729475570367.0,0.0
-1.162912,-3.364309,-5.410172,19.74,15.89,-61.389999,1729475570387.0,0.0
-1.320838,0.272782,-7.401,-25.969999,9.03,-72.660004,1729475570408.0,0.0
-1.244268,2.019542,-8.018349,-40.740002,-10.15,-45.920002,1729475570427.0,0.0
-0.954736,1.552942,-9.647861,-55.299999,-26.32,-23.799999,1729475570446.0,0.0
-1.270589,-0.696311,-12.354142,-17.57,-29.68,14.98,1729475570466.0,0.0
-3.302095,-0.253639,-7.202396,27.299999,4.55,32.689999,1729475570488.0,0.0
-4.283153,-0.660419,-12.050256,9.38,-1.75,36.75,1729475570508.0,0.0
-3.180061,-0.303888,-11.042876,-6.16,-10.57,38.849998,1729475570526.0,0.0
-3.512664,-2.423929,-10.928021,-19.040001,13.93,47.389999,1729475570547.0,0.0
-1.777867,-3.663411,-11.952149,8.4,4.83,41.93,1729475570568.0,0.0
-0.291924,-5.032106,-10.932807,53.619999,6.93,32.060001,1729475570588.0,0.0
-0.327817,-4.048656,-10.260423,11.41,32.41,0.49,1729475570608.0,0.0
-1.069592,-6.113662,-9.12144,-17.360001,34.790001,-22.26,1729475570626.0,0.0
-0.660419,-6.958328,-8.334201,2.24,27.58,-46.970001,1729475570648.0,0.0
-0.308674,-4.811966,-7.62114,63.700001,19.389999,-57.470001,1729475570667.0,0.0
-1.397408,-0.90688,-4.74736,67.900002,21.49,-62.650002,1729475570687.0,0.0
-1.98365,0.969093,-6.068198,-12.53,0.07,-60.830002,1729475570707.0,0.0
-1.308874,6.18784,-8.889337,-80.43,-13.58,-21.0,1729475570725.0,0.0
-0.760918,0.244068,-9.475577,-46.900002,-42.07,25.690001,1729475570747.0,0.0
-0.653241,-1.138984,-10.971091,-43.82,-42.209999,37.380001,1729475570766.0,0.0
-1.395016,0.366102,-11.507084,-16.52,-25.690001,28.42,1729475570787.0,0.0
-3.158526,0.306281,-9.832108,-19.74,-4.62,29.469999,1729475570806.0,0.0
-3.15374,-3.201597,-11.514263,-19.67,-17.780001,31.43,1729475570826.0,0.0
-1.90708,-3.529413,-12.279965,-7.56,-6.79,38.639999,1729475570847.0,0.0
-0.899701,-4.122833,-12.799208,-15.190001,-2.52,30.450001,1729475570867.0,0.0
-0.404387,-6.549156,-11.033305,12.04,7.42,16.309999,1729475570887.0,0.0
-0.435494,-5.479564,-9.858429,31.99,24.710001,-11.9,1729475570909.0,0.0
-1.249053,-3.646662,-10.817951,50.959999,32.830002,-36.189999,1729475570926.0,0.0
-1.861616,-2.041078,-9.377472,37.869999,39.689999,-52.220001,1729475570945.0,0.0
-1.995614,-1.06002,-5.778666,13.16,23.450001,-55.580002,1729475570966.0,0.0
-1.85683,-1.141376,-7.556533,-22.610001,8.68,-52.290001,1729475570989.0,0.0
-1.222732,1.153341,-7.661818,-51.450001,-2.52,-38.639999,1729475571006.0,0.0
-1.529014,1.426122,-8.353344,-51.869999,-14.14,-12.95,1729475571027.0,0.0
-1.18684,-0.725025,-9.767502,-15.26,-27.23,12.25,1729475571047.0,0.0
-0.327817,-0.387637,-10.145569,-3.92,-30.799999,14.7,1729475571066.0,0.0
-1.607977,0.87338,-9.253045,-9.1,-17.01,20.299999,1729475571088.0,0.0
-2.679961,-0.480957,-13.490734,-5.25,-13.93,32.619999,1729475571107.0,0.0
-3.330809,0.411566,-10.274779,27.370001,3.08,48.369999,1729475571126.0,0.0
-2.947958,-2.148755,-10.963913,25.48,7.84,55.93,1729475571146.0,0.0
-1.648655,-5.359922,-11.52862,26.460001,0.63,43.189999,1729475571167.0,0.0
-0.894916,-5.32403,-10.066606,10.08,16.59,11.55,1729475571186.0,0.0
-0.959522,-5.099105,-10.506885,-14.7,22.26,-19.74,1729475571218.0,0.0
-1.308874,-6.24766,-9.456435,-7.91,25.41,-41.790001,1729475571227.0,0.0
-1.392623,-5.601598,-6.996613,29.120001,20.370001,-56.77,1729475571246.0,0.0
-1.892723,-2.344966,-6.199803,48.790001,12.95,-63.279999,1729475571265.0,0.0
-2.584249,-0.681954,-6.788438,6.3,0.35,-61.950001,1729475571289.0,0.0
-1.837688,3.546163,-8.250452,-48.02,-21.629999,-41.16,1729475571306.0,0.0
-1.07677,0.887737,-9.707682,-19.809999,-36.82,3.64,1729475571326.0,0.0
-0.155533,0.215354,-11.126624,16.030001,-45.5,23.17,1729475571347.0,0.0
-0.734596,1.098306,-11.483156,41.439999,-28.280001,28.98,1729475571365.0,0.0
-1.832902,0.571885,-10.518847,20.51,-14.63,30.030001,1729475571386.0,0.0
-2.426322,0.272782,-11.679367,-4.76,-7.21,32.34,1729475571409.0,0.0
-2.959922,-0.993021,-11.827723,-20.93,2.87,36.889999,1729475571425.0,0.0
-2.069792,-3.627519,-10.358529,-27.51,4.27,34.299999,1729475571446.0,0.0
-0.732204,-5.024928,-11.578869,-24.92,6.51,24.5,1729475571466.0,0.0
-0.732204,-5.297709,-10.980663,14.7,14.77,12.67,1729475571487.0,0.0
-1.806581,-4.225725,-10.234102,40.599998,35.279999,-13.58,1729475571506.0,0.0
-2.567499,-3.448057,-8.403593,18.200001,38.009998,-32.130001,1729475571527.0,0.0
-2.029114,-4.122833,-8.882158,12.53,20.860001,-44.869999,1729475571612.0,0.0
-1.430908,-2.335395,-6.570691,39.48,15.96,-47.880001,1729475571614.0,0.0
-1.840081,-0.026321,-7.133004,27.299999,16.030001,-35.77,1729475571620.0,0.0
-1.51705,3.534199,-7.640282,-27.23,1.82,-12.74,1729475571621.0,0.0
-1.251446,1.837688,-8.286345,-10.22,-18.620001,31.15,1729475571627.0,0.0
-0.105284,0.246461,-8.932407,13.16,-30.450001,47.389999,1729475571645.0,0.0
0.887737,-0.107677,-10.8682,-18.76,-38.990002,35.07,1729475571665.0,0.0
-0.153141,-1.426122,-11.557333,-43.189999,-24.639999,31.43,1729475571686.0,0.0
-2.845066,-2.45025,-12.739388,-4.41,2.38,45.43,1729475571709.0,0.0
-5.190032,-2.493321,-8.51127,22.68,17.85,53.41,1729475571725.0,0.0
-5.601598,-3.129812,-9.827322,-10.43,20.790001,46.759998,1729475571745.0,0.0
-2.361716,-5.034499,-12.064612,-34.650002,-18.200001,32.830002,1729475571766.0,0.0
-0.167498,-6.369694,-11.332408,-54.389999,-8.33,6.72,1729475571786.0,0.0
-0.397209,-5.563312,-10.616954,-44.939999,16.59,-32.41,1729475571807.0,0.0
-1.452443,-5.587241,-9.293723,-13.23,25.620001,-54.32,1729475571827.0,0.0
-2.194218,-5.453243,-8.477771,19.950001,21.210001,-71.610001,1729475571846.0,0.0
-1.696511,-0.892523,-9.415757,51.73,16.940001,-79.379997,1729475571866.0,0.0
-1.878366,1.344766,-6.855437,46.48,18.76,-62.23,1729475571887.0,0.0
-1.57687,4.307081,-7.944171,-17.99,3.5,-39.830002,1729475571907.0,0.0
-1.332802,2.304288,-6.994221,-16.24,-12.46,-3.99,1729475571926.0,0.0
-0.4666,0.361316,-8.920443,-22.540001,-34.790001,3.92,1729475571947.0,0.0
-0.713061,1.052842,-10.777272,-26.460001,-32.759998,2.24,1729475571968.0,0.0
-2.947958,0.476172,-11.050055,-18.48,-5.74,14.35,1729475571987.0,0.0
-4.311867,-2.22054,-12.315859,3.64,-4.83,34.16,1729475572008.0,0.0
-3.869194,-3.507878,-9.741181,25.83,2.1,38.990002,1729475572027.0,0.0
-2.519642,-4.960321,-9.827322,39.200001,-5.25,35.560001,1729475572047.0,0.0
-0.878166,-5.223531,-12.251251,43.119999,-8.68,21.07,1729475572067.0,0.0
-0.40678,-4.833502,-9.566505,27.790001,9.24,-4.76,1729475572088.0,0.0
-0.385244,-2.825923,-9.253045,2.17,16.309999,-38.639999,1729475572108.0,0.0
-1.100698,-3.129812,-9.336794,2.45,15.96,-45.150002,1729475572127.0,0.0
-1.978864,-1.564906,-7.06122,-7.98,25.48,-57.260002,1729475572147.0,0.0
-1.753939,2.689533,-7.881958,-25.76,10.78,-52.709999,1729475572167.0,0.0
-1.004985,2.203789,-8.200203,-37.73,-7.0,-28.559999,1729475572190.0,0.0
-0.272782,0.847059,-9.075976,-37.52,-22.26,3.08,1729475572209.0,0.0
-0.256032,-0.289532,-10.131211,-23.66,-23.59,16.030001,1729475572228.0,0.0
-1.363909,-0.689133,-11.083554,-16.799999,-15.82,23.17,1729475572249.0,0.0
-2.459821,-1.17009,-12.753745,-11.69,-1.82,28.210001,1729475572268.0,0.0
-3.524628,-2.663212,-11.296515,16.799999,8.82,39.549999,1729475572291.0,0.0
-3.471986,-2.230111,-9.351151,52.150002,17.780001,46.200001,1729475572314.0,0.0
-2.632105,-2.928815,-8.386844,72.099998,10.5,48.509998,1729475572328.0,0.0
-1.899901,-4.476971,-11.456835,20.93,8.12,30.030001,1729475572348.0,0.0
-1.07677,-5.237889,-11.291731,-23.799999,9.31,0.49,1729475572370.0,0.0
-0.22014,-5.257031,-7.814958,-33.25,18.76,-30.030001,1729475572390.0,0.0
-0.698704,-3.744767,-6.860222,20.16,14.0,-53.060001,1729475572408.0,0.0
-2.378466,-2.605784,-7.21436,3.64,14.14,-64.120003,1729475572430.0,0.0
-2.26361,0.734596,-8.408379,-52.43,-7.14,-72.519997,1729475572448.0,0.0
-1.39023,3.555735,-8.415558,-23.870001,-10.64,-33.950001,1729475572470.0,0.0
0.337388,1.172483,-9.489935,16.73,-32.130001,6.09,1729475572490.0,0.0
0.26321,0.342174,-8.930015,-0.63,-29.469999,20.370001,1729475572509.0,0.0
-0.995414,0.464208,-11.918649,-19.32,-28.35,19.460001,1729475572528.0,0.0
-2.57707,-0.141177,-11.92822,-9.8,-13.23,26.460001,1729475572550.0,0.0
-4.072584,-1.942972,-12.502499,6.51,5.11,37.73,1729475572570.0,0.0
-3.505485,-2.622534,-9.401401,20.790001,9.38,40.32,1729475572588.0,0.0
-2.167897,-4.194618,-11.109876,18.27,0.98,39.689999,1729475572609.0,0.0
-1.06002,-5.254639,-12.421142,8.26,5.46,26.18,1729475572629.0,0.0
-0.679562,-5.039285,-10.686346,5.11,20.790001,1.89,1729475572649.0,0.0
-1.241875,-4.656433,-9.439686,5.46,32.970001,-23.309999,1729475572668.0,0.0
-1.237089,-4.553542,-7.482357,8.26,26.74,-46.900002,1729475572688.0,0.0
-1.287339,-2.971886,-7.661818,19.67,17.780001,-57.540001,1729475572714.0,0.0
-1.679761,-0.708275,-8.630912,-17.219999,7.14,-69.650002,1729475572729.0,0.0
-1.033699,3.76391,-8.451449,-22.75,2.8,-46.060001,1729475572749.0,0.0
-0.212961,1.971686,-9.236296,1.54,-16.940001,-6.93,1729475572769.0,0.0
0.023928,0.366102,-8.633304,6.51,-26.18,19.74,1729475572789.0,0.0
-0.658026,0.524028,-10.896914,0.77,-24.57,23.52,1729475572809.0,0.0
-1.713261,0.081356,-12.201002,-2.52,-14.98,32.130001,1729475572828.0,0.0
-2.809174,-1.20359,-12.476178,0.07,-0.21,44.799999,1729475572848.0,0.0
-3.48395,-1.885544,-9.939785,18.34,17.5,54.950001,1729475572868.0,0.0
-3.304488,-3.608376,-10.923235,38.709999,14.07,59.57,1729475572889.0,0.0
-2.074577,-4.208975,-11.404193,42.700001,10.01,47.810001,1729475572910.0,0.0
-1.289732,-4.453043,-10.083356,-12.18,21.559999,18.76,1729475572928.0,0.0
-1.143769,-5.694918,-9.329616,-69.510002,23.66,-11.62,1729475572947.0,0.0
-0.744168,-7.855636,-9.075976,-49.630001,14.28,-36.889999,1729475572968.0,0.0
-0.425922,-5.290531,-7.63789,9.94,15.47,-57.330002,1729475572989.0,0.0
-1.490728,-2.682354,-5.74756,65.169998,10.71,-55.369999,1729475573009.0,0.0
-2.191825,-0.705883,-7.250252,8.54,-3.78,-65.870003,1729475573028.0,0.0
-0.591027,4.244867,-8.042276,-52.009998,-28.07,-59.220001,1729475573049.0,0.0
-0.531207,2.622534,-10.724631,10.08,-41.580002,11.55,1729475573067.0,0.0
-1.332802,-0.502493,-10.8682,12.04,-37.380001,29.190001,1729475573090.0,0.0
-1.806581,0.605384,-12.378072,-2.1,-28.0,24.710001,1729475573108.0,0.0
-2.072184,1.45005,-11.085947,-31.08,-9.52,22.4,1729475573127.0,0.0
-2.366502,-1.538585,-13.653446,-42.420002,-5.46,30.24,1729475573149.0,0.0
-1.519442,-2.924029,-11.361122,-1.47,3.29,38.990002,1729475573167.0,0.0
-1.177269,-3.548556,-11.050055,15.68,16.24,36.330002,1729475573190.0,0.0
-1.148555,-5.163712,-10.978271,28.630001,17.08,28.210001,1729475573220.0,0.0
-1.323231,-4.694718,-10.760524,3.43,27.440001,-1.54,1729475573227.0,0.0
-1.624727,-4.505685,-9.71486,2.66,31.92,-22.33,1729475573247.0,0.0
-1.59362,-4.046263,-7.661818,22.960001,30.17,-37.52,1729475573268.0,0.0
-1.878366,-2.713461,-8.606983,22.540001,24.780001,-46.200001,1729475573291.0,0.0
-1.682154,-2.467,-6.855437,25.969999,9.8,-50.400002,1729475573311.0,0.0
-1.485943,0.351745,-7.795816,1.89,9.52,-50.470001,1729475573330.0,0.0
-0.789631,4.663611,-8.398808,-25.76,0.21,-30.59,1729475573347.0,0.0
-0.512064,1.564906,-8.441878,-8.19,-21.280001,15.68,1729475573369.0,0.0
-0.624527,-1.275374,-10.313066,-37.029999,-35.0,28.91,1729475573388.0,0.0
-1.875973,0.069392,-10.906486,-37.450001,-18.41,25.690001,1729475573408.0,0.0
-3.553342,-1.847259,-11.691331,-21.07,-9.66,34.720001,1729475573427.0,0.0
-3.579663,-2.206182,-11.274981,1.96,0.98,38.43,1729475573447.0,0.0
-3.139383,-2.316252,-9.736395,13.65,14.56,39.200001,1729475573469.0,0.0
-1.679761,-4.098906,-11.832507,24.85,-2.17,38.43,1729475573489.0,0.0
-0.571885,-5.359922,-10.540384,34.790001,4.76,23.450001,1729475573510.0,0.0
-0.665205,-4.197011,-9.858429,7.42,23.379999,-5.67,1729475573527.0,0.0
-1.306481,-5.149354,-9.631111,0.14,21.84,-27.440001,1729475573548.0,0.0
-1.65344,-4.256832,-7.68096,5.88,22.469999,-46.759998,1729475573568.0,0.0
-1.59362,-3.282953,-8.161918,29.190001,6.58,-52.220001,1729475573589.0,0.0
-1.648655,-1.404587,-6.908078,28.0,2.1,-54.950001,1729475573608.0,0.0
-1.488336,2.22054,-7.32443,-14.14,-9.52,-49.630001,1729475573634.0,0.0
-1.272982,3.522235,-8.243275,-15.75,-18.34,-14.91,1729475573647.0,0.0
-0.150748,0.12682,-9.530612,-19.950001,-41.860001,5.53,1729475573667.0,0.0
0.11007,-1.091127,-11.631511,-42.490002,-44.029999,8.89,1729475573691.0,0.0
-1.349552,-0.323031,-11.155338,-23.030001,-16.799999,8.05,1729475573710.0,0.0
-3.160919,-1.191626,-12.837494,7.28,-2.24,25.969999,1729475573727.0,0.0
-2.507678,-0.507278,-11.097912,8.33,4.34,32.27,1729475573749.0,0.0
-1.947758,-1.931008,-10.669596,-3.71,7.14,40.18,1729475573767.0,0.0
-1.095913,-3.818945,-12.306287,11.55,4.41,40.950001,1729475573790.0,0.0
-0.964308,-4.845466,-10.8682,44.939999,16.450001,30.030001,1729475573809.0,0.0
-1.521835,-3.579663,-9.767502,34.369999,36.259998,2.03,1729475573828.0,0.0
-2.206182,-4.199404,-9.305687,20.440001,34.860001,-17.780001,1729475573848.0,0.0
-1.667797,-3.349952,-7.190433,17.5,24.85,-34.790001,1729475573870.0,0.0
-1.660619,-3.110669,-6.156733,39.900002,6.86,-33.040001,1729475573889.0,0.0
-2.270789,-1.217947,-6.178268,13.3,7.35,-39.27,1729475573911.0,0.0
-1.464408,1.655833,-7.838887,-50.610001,-21.0,-41.860001,1729475573929.0,0.0
-0.997807,3.127419,-9.623933,-41.09,-26.18,-6.23,1729475573950.0,0.0
-0.722632,-0.272782,-10.193424,-16.73,-33.740002,25.129999,1729475573968.0,0.0
-0.492921,-2.15354,-10.320245,-37.310001,-38.080002,22.82,1729475573991.0,0.0
-1.476372,0.265603,-11.88515,-58.73,-14.84,11.69,1729475574009.0,0.0
-2.148755,-1.354338,-11.722438,-30.17,-12.32,26.32,1729475574028.0,0.0
-2.545963,-0.538385,-12.294323,-1.33,1.68,37.380001,1729475574049.0,0.0
-2.464607,-1.433301,-12.105289,-1.82,10.01,45.080002,1729475574068.0,0.0
-1.4668,-4.510471,-11.633904,23.379999,4.69,45.990002,1729475574089.0,0.0
-1.009771,-4.185047,-10.327423,45.080002,23.66,26.040001,1729475574110.0,0.0
-1.555335,-3.371487,-9.549755,31.08,33.389999,0.49,1729475574129.0,0.0
-1.696511,-3.701697,-9.509077,0.42,31.5,-22.049999,1729475574151.0,0.0
-2.11047,-5.47717,-9.147761,-6.51,26.389999,-35.630001,1729475574171.0,0.0
-1.567299,-5.022535,-8.008778,30.24,19.460001,-48.860001,1729475574190.0,0.0
