acc_x,acc_y,acc_z,gyr_x,gyr_y,gyr_z,timestamp,label
-3.65384,-8.626125,-7.56132,-207.339996,20.93,-26.32,1729417709036.0,0.0
-3.098706,-8.650054,-7.881958,-204.399994,3.29,-5.18,1729417709038.0,0.0
-2.325824,-8.65484,-7.829315,-144.550003,2.73,8.61,1729417709038.0,0.0
-1.938186,-8.049455,-7.810174,-55.93,14.84,20.790001,1729417709039.0,0.0
-1.998007,-6.970293,-7.520642,13.65,33.810001,22.82,1729417709049.0,0.0
-2.435893,-6.15434,-7.556533,17.57,51.799999,18.129999,1729417709069.0,0.0
-3.041277,-6.613762,-6.577869,-20.790001,57.540001,13.86,1729417709090.0,0.0
-3.158526,-7.290931,-6.750153,-63.07,50.82,6.37,1729417709109.0,0.0
-2.790031,-7.580462,-7.250252,-56.279999,40.25,0.07,1729417709128.0,0.0
-2.739782,-7.250252,-7.377072,-33.670002,43.470001,0.98,1729417709150.0,0.0
-3.211168,-7.022934,-7.056434,-15.05,50.400002,4.06,1729417709170.0,0.0
-4.106083,-7.281359,-7.118648,2.03,54.950001,6.58,1729417709190.0,0.0
-4.668397,-6.812366,-6.556334,17.639999,46.34,6.72,1729417709208.0,0.0
-4.895715,-6.4343,-5.862415,24.15,33.740002,10.43,1729417709229.0,0.0
-4.716253,-6.565905,-5.508278,22.4,31.710001,8.33,1729417709249.0,0.0
-5.106283,-6.78126,-5.60399,15.47,38.779999,5.95,1729417709269.0,0.0
-5.431707,-6.884151,-5.647062,12.81,39.549999,2.94,1729417709290.0,0.0
-5.156533,-6.769295,-5.371887,14.84,29.82,4.06,1729417709308.0,0.0
-4.4339,-6.24766,-5.481956,16.940001,19.809999,2.8,1729417709329.0,0.0
-4.156333,-5.986843,-5.548956,18.27,15.89,0.91,1729417709350.0,0.0
-4.156333,-6.218946,-5.582455,12.74,14.91,-2.87,1729417709370.0,0.0
-4.134798,-6.62094,-5.76431,4.76,10.57,-3.99,1729417709389.0,0.0
-3.9673,-6.628119,-5.572884,3.43,3.43,-1.05,1729417709409.0,0.0
-3.706482,-6.254838,-5.757132,6.79,0.14,-0.49,1729417709430.0,0.0
-3.704089,-6.204589,-6.290731,5.11,1.54,-0.28,1729417709448.0,0.0
-3.469593,-6.314659,-6.628119,-2.94,-3.43,1.68,1729417709473.0,0.0
-3.069991,-6.455836,-7.003791,1.61,-12.04,7.14,1729417709489.0,0.0
-2.904887,-6.63769,-6.989435,15.190001,-13.3,11.48,1729417709508.0,0.0
-3.220739,-6.441479,-7.063612,22.4,-5.95,13.02,1729417709530.0,0.0
-3.823731,-6.297909,-7.02772,15.96,0.49,12.88,1729417709549.0,0.0
-3.98405,-6.728617,-7.152147,0.98,-0.56,9.24,1729417709571.0,0.0
-3.622734,-6.941578,-7.216753,-5.53,-4.62,7.91,1729417709590.0,0.0
-3.278167,-6.884151,-7.23111,1.33,-5.6,7.35,1729417709608.0,0.0
-3.349952,-6.74776,-7.142576,6.44,-0.63,5.67,1729417709628.0,0.0
-3.469593,-6.556334,-6.762117,7.14,2.1,4.69,1729417709649.0,0.0
-3.421736,-6.518049,-6.608976,5.46,1.89,3.36,1729417709669.0,0.0
-3.337988,-6.666404,-6.539584,-0.21,4.9,0.63,1729417709694.0,0.0
-3.359523,-6.683154,-6.685547,-4.55,8.89,-1.75,1729417709708.0,0.0
-3.400201,-6.786045,-7.049256,-3.71,10.22,-2.8,1729417709728.0,0.0
-3.347559,-6.58744,-7.262216,-3.01,9.38,-4.48,1729417709748.0,0.0
-3.287738,-6.630512,-7.003791,-0.56,9.38,-4.27,1729417709769.0,0.0
-3.141776,-6.479764,-7.140182,5.18,10.64,-5.32,1729417709789.0,0.0
-3.259024,-6.630512,-7.472785,8.47,16.450001,-5.11,1729417709808.0,0.0
-3.354738,-6.771688,-7.80778,-1.4,19.879999,-7.35,1729417709829.0,0.0
-3.225525,-6.936793,-7.63789,-8.89,22.26,-7.28,1729417709848.0,0.0
-2.787638,-7.21436,-7.487142,-4.76,21.84,-7.14,1729417709869.0,0.0
-2.330609,-7.013363,-7.812566,3.36,25.83,-6.23,1729417709890.0,0.0
-1.708475,-6.398407,-8.10449,8.47,23.940001,-5.39,1729417709908.0,0.0
-1.009771,-6.575477,-7.898707,2.73,18.200001,-7.84,1729417709928.0,0.0
-0.696311,-7.489535,-8.484949,-11.9,25.690001,-11.48,1729417709948.0,0.0
-0.760918,-8.279166,-7.393822,-20.16,39.619999,-19.6,1729417709969.0,0.0
-1.165305,-8.348558,-6.664011,-22.190001,50.82,-22.889999,1729417709990.0,0.0
-1.387837,-7.89153,-6.675975,-14.14,56.98,-32.900002,1729417710009.0,0.0
-1.641476,-7.166504,-5.412565,-12.25,52.220001,-36.400002,1729417710028.0,0.0
-2.06022,-6.74776,-4.479364,-35.490002,43.68,-44.029999,1729417710048.0,0.0
-2.639283,-6.017949,-5.163712,-74.340004,40.18,-56.700001,1729417710069.0,0.0
-4.010371,-5.946165,-5.948557,-114.309998,43.540001,-70.980003,1729417710090.0,0.0
-5.728417,-7.180861,-6.522834,-144.830002,48.09,-83.370003,1729417710108.0,0.0
-6.326623,-7.898707,-6.915257,-127.330002,33.950001,-76.510002,1729417710128.0,0.0
-5.608776,-7.499106,-6.498906,-77.279999,10.57,-73.43,1729417710154.0,0.0
-5.146961,-6.54437,-5.237889,-33.040001,-1.89,-68.32,1729417710169.0,0.0
-6.903293,-6.130411,-2.012364,13.3,-17.43,-55.720001,1729417710198.0,0.0
-5.575277,-1.514657,-2.59382,30.870001,-46.900002,-47.389999,1729417710209.0,0.0
-4.685147,0.921237,-3.48395,1.61,-98.910004,-25.48,1729417710228.0,0.0
-2.744568,-2.352145,-7.869993,-17.43,-98.840004,-49.139999,1729417710249.0,0.0
-2.337788,-6.407979,-13.222737,-41.580002,-81.900002,-61.740002,1729417710269.0,0.0
-2.476572,-8.142776,-11.894722,16.17,-86.239998,-45.990002,1729417710290.0,0.0
-2.79721,-6.257231,-9.95175,115.57,-44.799999,4.2,1729417710309.0,0.0
-1.808974,-1.624727,-9.499505,95.059998,-9.17,-15.47,1729417710329.0,0.0
-1.785046,-4.070191,-10.612168,24.219999,-0.63,7.35,1729417710348.0,0.0
-0.662812,-7.13779,-13.004992,46.759998,-17.08,20.51,1729417710371.0,0.0
-0.11007,-6.477371,-7.412964,46.830002,1.96,41.720001,1729417710389.0,0.0
-0.765703,-10.348958,-8.267202,65.590004,18.620001,30.1,1729417710408.0,0.0
-0.270389,-7.683353,-2.404787,-5.95,13.72,-1.96,1729417710428.0,0.0
-1.251446,-4.058227,-3.759124,-25.76,-40.25,-22.26,1729417710448.0,0.0
-2.639283,-2.868994,-5.254639,-56.630001,-31.360001,-73.919998,1729417710473.0,0.0
-3.024528,-3.488736,-9.710074,-103.040001,-52.290001,-77.699997,1729417710492.0,0.0
-0.942772,-2.562713,-11.942577,-45.360001,-119.419998,-63.279999,1729417710509.0,0.0
-0.727418,-2.091327,-13.72523,8.47,-78.75,-10.78,1729417710530.0,0.0
-1.555335,-2.411965,-14.297115,-92.260002,32.830002,-3.99,1729417710550.0,0.0
-2.428715,-9.906286,-14.026726,-123.970001,38.009998,8.12,1729417710570.0,0.0
-0.449851,-9.35833,-13.58884,-17.15,-0.56,40.670002,1729417710592.0,0.0
0.208176,-7.601997,-10.892128,100.239998,30.450001,51.939999,1729417710610.0,0.0
-1.229911,-6.733403,-6.486942,90.580002,88.059998,17.01,1729417710630.0,0.0
-3.536592,-7.441679,1.323231,11.48,82.040001,-27.58,1729417710650.0,0.0
-3.065206,-7.635497,-1.868794,-22.82,14.7,-54.040001,1729417710672.0,0.0
-1.555335,-3.56052,-3.893122,2.94,-50.330002,-55.439999,1729417710691.0,0.0
-0.397209,1.854438,-7.695317,-34.02,-63.07,-65.940002,1729417710710.0,0.0
0.751346,2.242075,-9.403792,-42.560001,-81.830002,-52.009998,1729417710730.0,0.0
-1.383051,-4.271189,-11.212767,-57.470001,-38.290001,-6.86,1729417710749.0,0.0
-4.342973,-4.639683,-14.921642,-128.869995,47.950001,2.38,1729417710770.0,0.0
-4.098906,-7.211967,-16.02952,-152.389999,47.040001,10.71,1729417710791.0,0.0
-0.701097,-10.260423,-11.660224,-7.77,-22.33,42.91,1729417710809.0,0.0
1.098306,-9.229117,-12.667603,87.150002,3.64,63.420002,1729417710829.0,0.0
-0.567099,-7.771888,-6.723832,105.559998,64.050003,33.670002,1729417710850.0,0.0
-3.017349,-9.497113,-2.045863,56.98,82.669998,-16.17,1729417710870.0,0.0
-2.813959,-7.798209,-3.309274,15.26,23.870001,-50.959999,1729417710890.0,0.0
-2.139183,-3.163311,-3.921836,25.83,-28.77,-54.389999,1729417710914.0,0.0
-1.485943,-1.378266,-6.860222,3.64,-34.369999,-69.580002,1729417710929.0,0.0
0.581456,0.447458,-10.442278,-34.509998,-71.610001,-80.779999,1729417710949.0,0.0
1.505085,1.328017,-8.102098,-4.48,-91.139999,-38.920002,1729417710970.0,0.0
-1.294517,-1.469193,-9.485149,18.200001,-12.11,11.48,1729417710991.0,0.0
-5.130211,-1.552942,-16.74258,-150.570007,102.480003,16.799999,1729417711009.0,0.0
-5.611169,-10.856236,-14.091332,-163.240005,55.510002,37.59,1729417711030.0,0.0
-0.911665,-11.676974,-12.112469,-13.86,-22.610001,71.260002,1729417711049.0,0.0
1.794617,-6.719046,-9.269794,123.760002,-9.8,75.459999,1729417711070.0,0.0
-0.265603,-6.065805,-6.58744,93.730003,74.129997,23.17,1729417711090.0,0.0
-2.194218,-8.982656,-0.981057,48.369999,70.489998,-17.99,1729417711109.0,0.0
-1.89033,-6.398407,-2.213361,27.790001,11.41,-39.830002,1729417711129.0,0.0
-1.837688,-2.502892,-2.699104,44.66,-29.960001,-42.91,1729417711150.0,0.0
-0.521635,-0.404387,-7.798209,-8.68,-48.93,-67.760002,1729417711170.0,0.0
1.213161,1.631905,-10.49492,-57.330002,-98.910004,-67.900002,1729417711191.0,0.0
0.141177,-1.651048,-6.98465,6.23,-80.010002,-15.75,1729417711210.0,0.0
-4.347759,-1.844866,-17.175682,-53.060001,39.41,9.45,1729417711229.0,0.0
-7.829315,-5.737988,-18.44627,-158.479996,89.040001,2.73,1729417711249.0,0.0
-3.615555,-12.794422,-13.804193,-60.760002,10.08,15.61,1729417711271.0,0.0
0.808774,-6.958328,-11.473583,100.590004,-28.139999,82.459999,1729417711290.0,0.0
1.550549,-0.291924,-6.963113,132.160004,32.619999,77.840004,1729417711309.0,0.0
-2.318645,-6.599405,-5.773881,61.25,111.860001,53.27,1729417711329.0,0.0
-3.613162,-12.330215,-4.503292,-0.42,65.309998,-0.07,1729417711350.0,0.0
-1.447658,-8.606983,-2.354537,16.379999,-31.85,-11.34,1729417711370.0,0.0
0.294317,-0.995414,-5.146961,72.519997,-64.120003,-17.85,1729417711392.0,0.0
-1.627119,-0.157926,-8.413164,14.98,-33.110001,-35.07,1729417711409.0,0.0
-0.902094,-1.612763,-9.667004,-81.340004,-87.010002,-47.25,1729417711429.0,0.0
0.270389,-1.514657,-12.12204,10.5,-93.309998,1.82,1729417711449.0,0.0
-4.462614,-2.632105,-10.956735,-36.68,-8.47,35.349998,1729417711474.0,0.0
-7.221539,-6.001199,-19.128223,-209.720001,75.110001,-2.87,1729417711490.0,0.0
-4.405186,-13.732409,-14.677574,-51.52,-13.02,34.509998,1729417711510.0,0.0
0.61017,-10.549955,-8.458629,75.32,-44.029999,69.019997,1729417711529.0,0.0
1.741975,-7.06122,-9.47797,112.629997,-4.55,44.66,1729417711549.0,0.0
-0.014357,-6.04427,-4.900501,124.459999,74.760002,18.34,1729417711570.0,0.0
-1.488336,-4.929214,-3.012564,67.129997,57.82,-5.67,1729417711601.0,0.0
-1.454836,-4.529613,-1.172483,63.98,-2.8,-10.64,1729417711609.0,0.0
-1.627119,-0.179462,-4.462614,40.670002,-23.030001,-8.96,1729417711629.0,0.0
-1.014557,-3.062813,-5.838487,-38.57,-52.220001,-54.110001,1729417711648.0,0.0
0.79681,-3.438486,-7.721639,-72.309998,-113.330002,-58.240002,1729417711670.0,0.0
-0.050249,-1.162912,-5.745167,-3.99,-104.510002,-22.049999,1729417711690.0,0.0
-6.21416,-2.321038,-23.356342,-140.350006,67.620003,-3.99,1729417711709.0,0.0
-9.487542,-10.990234,-17.202002,-143.149994,91.769997,-2.38,1729417711730.0,0.0
-1.272982,-9.303294,-8.508877,1.47,-8.4,52.360001,1729417711749.0,0.0
1.629512,-3.608376,-7.829315,117.599998,-34.580002,54.950001,1729417711770.0,0.0
-0.014357,-7.331609,-6.628119,91.209999,72.660004,22.190001,1729417711791.0,0.0
-1.98365,-9.98525,-6.147161,23.73,79.309998,-10.64,1729417711809.0,0.0
-1.464408,-4.431508,-0.782453,34.02,-1.82,-28.77,1729417711829.0,0.0
-0.634098,-2.225325,-5.005785,81.269997,-29.610001,-33.950001,1729417711849.0,0.0
-0.492921,1.95015,-5.888737,-18.41,-39.970001,-52.360001,1729417711870.0,0.0
0.887737,1.411765,-11.466407,-29.120001,-83.860001,-51.310001,1729417711890.0,0.0
-1.282553,-2.852244,-9.073583,25.76,-61.25,4.48,1729417711908.0,0.0
-5.970093,-5.793024,-13.30888,-15.12,31.639999,29.960001,1729417711929.0,0.0
-9.01137,-11.447264,-17.843279,-98.840004,90.93,2.73,1729417711948.0,0.0
-6.278766,-13.904692,-9.399008,16.870001,28.35,26.809999,1729417711969.0,0.0
-0.643669,-8.580662,-8.506484,186.830002,-21.42,47.810001,1729417711991.0,0.0
1.217947,-3.68734,-8.248059,213.220001,-27.440001,49.84,1729417712009.0,0.0
1.627119,-3.242275,-3.20399,169.539993,31.01,10.92,1729417712028.0,0.0
-0.258425,-5.970093,-4.998606,142.589996,59.57,25.969999,1729417712049.0,0.0
-1.612763,-4.843073,-4.134798,181.089996,39.34,21.139999,1729417712069.0,0.0
-3.079563,-5.599205,-4.436293,197.889999,8.33,33.389999,1729417712090.0,0.0
-2.734996,-10.767702,-4.352544,116.970001,-25.9,-1.12,1729417712109.0,0.0
-2.481357,-10.023535,-4.364508,65.730003,-36.82,6.65,1729417712128.0,0.0
-2.07697,-8.717053,-4.426722,107.309998,-24.15,11.34,1729417712150.0,0.0
-1.852045,-9.365508,-4.778467,133.419998,-8.54,24.639999,1729417712169.0,0.0
-1.531406,-8.415558,-4.189832,154.910004,-10.08,38.639999,1729417712190.0,0.0
-2.072184,-8.556733,-2.091327,189.770004,-4.9,47.18,1729417712209.0,0.0
-3.658626,-7.077969,2.612962,166.039993,13.51,27.23,1729417712235.0,0.0
-4.333402,-9.164511,3.538985,165.830002,7.42,19.460001,1729417712248.0,0.0
-2.289931,-10.25803,0.672383,173.110001,-49.560001,16.52,1729417712272.0,0.0
-1.0002,-6.91765,0.789631,140.070007,-52.290001,50.330002,1729417712291.0,0.0
-3.022135,-5.115855,-1.179662,35.420002,-21.42,73.010002,1729417712309.0,0.0
-6.716653,-12.047862,-8.269595,-26.530001,24.57,36.119999,1729417712330.0,0.0
-10.231709,-23.502304,-18.345772,15.89,89.18,13.16,1729417712350.0,0.0
-9.468399,-16.754543,-8.092526,115.57,61.880001,-11.06,1729417712370.0,0.0
-1.942972,-8.987441,-1.737189,273.700012,50.959999,11.48,1729417712390.0,0.0
0.361316,-3.002992,-1.868794,178.919998,64.260002,-40.950001,1729417712410.0,0.0
0.55992,2.727818,7.628319,128.869995,94.919998,-14.7,1729417712430.0,0.0
-3.48395,4.35733,21.293728,81.129997,35.77,23.59,1729417712449.0,0.0
-8.245667,-2.809174,14.277972,-32.549999,1.96,41.299999,1729417712473.0,0.0
-7.501499,-11.466407,1.122234,-182.699997,47.25,-61.040001,1729417712491.0,0.0
-4.977071,-8.446664,-1.275374,-97.440002,-142.029999,23.870001,1729417712510.0,0.0
-1.473979,-8.288737,-6.013163,-23.450001,-175.910004,94.989998,1729417712530.0,0.0
-2.74696,-12.693924,-14.802001,-88.900002,-92.959999,58.029999,1729417712550.0,0.0
-6.740582,-24.366114,-14.421541,-142.240005,77.349998,-33.950001,1729417712571.0,0.0
-9.334401,-23.827726,-6.273981,-35.77,74.620003,-93.590004,1729417712593.0,0.0
-3.175276,-11.897114,-6.336195,183.470001,87.5,-26.460001,1729417712611.0,0.0
0.827917,-0.945165,-0.689133,154.139999,27.93,-49.0,1729417712632.0,0.0
2.256432,4.206582,11.990433,84.419998,17.219999,-54.599998,1729417712652.0,0.0
-3.208775,3.826123,18.278772,44.450001,19.110001,4.2,1729417712674.0,0.0
-7.635497,-5.041678,7.69771,-108.43,66.57,14.7,1729417712692.0,0.0
-9.65504,-13.13181,0.76331,-210.699997,47.740002,-50.68,1729417712713.0,0.0
-4.855037,-12.514462,-7.171289,-77.139999,-154.559998,50.189999,1729417712732.0,0.0
-3.15374,-18.063417,-13.304093,-10.5,-134.680008,51.73,1729417712750.0,0.0
-6.405586,-24.007189,-15.227923,-66.849998,31.639999,-42.630001,1729417712774.0,0.0
-7.566105,-16.500904,0.947558,37.240002,64.68,-75.040001,1729417712792.0,0.0
-1.586441,-5.058427,-2.065006,130.690002,13.58,-43.470001,1729417712812.0,0.0
1.76351,0.715454,2.979064,125.580002,6.72,-38.709999,1729417712831.0,0.0
1.947758,5.661418,12.875778,73.220001,-16.66,3.29,1729417712851.0,0.0
-1.368695,1.184447,17.517855,9.24,-38.080002,58.170002,1729417712871.0,0.0
-3.290131,-8.078169,2.931208,-194.110001,40.810001,-16.450001,1729417712892.0,0.0
-8.16431,-13.184454,2.045863,-191.240005,52.080002,-23.799999,1729417712911.0,0.0
-5.924629,-15.534204,-12.059827,-74.830002,-137.410004,72.379997,1729417712930.0,0.0
-6.072984,-19.803001,-18.513268,-96.18,-107.940002,6.23,1729417712956.0,0.0
-6.826723,-19.824535,-12.614961,-111.510002,14.28,-84.279999,1729417712972.0,0.0
-4.689932,-14.349757,-3.65384,18.83,-19.74,-73.989998,1729417712991.0,0.0
-0.461815,-9.889536,-3.503092,5.39,26.74,-98.840004,1729417713011.0,0.0
0.37328,-1.067199,1.765903,115.57,102.480003,-83.720001,1729417713031.0,0.0
-0.777667,5.431707,13.191631,193.899994,69.580002,-2.59,1729417713050.0,0.0
-0.090927,6.580262,13.490734,112.699997,-24.85,52.849998,1729417713072.0,0.0
-1.715654,-0.303888,6.218946,-32.689999,-27.440001,68.110001,1729417713092.0,0.0
-1.325624,-11.538191,-1.854438,-206.919998,66.849998,-8.47,1729417713110.0,0.0
-6.482157,-11.97847,3.081956,-208.809998,-41.509998,-3.92,1729417713132.0,0.0
-3.692125,-11.243874,-7.757531,-100.660004,-132.509995,99.889999,1729417713150.0,0.0
-3.23031,-16.922041,-17.024933,-90.440002,-105.980003,35.700001,1729417713171.0,0.0
-7.393822,-23.186453,-16.977077,-167.509995,14.98,-42.0,1729417713193.0,0.0
-7.080362,-21.310478,-8.829515,-60.48,60.060001,-87.639999,1729417713210.0,0.0
-1.895115,-9.659825,-6.498906,69.230003,8.61,-37.66,1729417713230.0,0.0
-0.148355,-6.039484,-2.538785,75.599998,39.130001,-57.540001,1729417713251.0,0.0
0.375673,-4.59422,0.445065,41.02,76.580002,-74.480003,1729417713273.0,0.0
-0.736989,3.215954,10.150353,59.43,97.300003,-42.630001,1729417713291.0,0.0
-1.351945,6.661618,16.120445,93.379997,-1.4,42.91,1729417713311.0,0.0
-2.682354,-0.069392,9.662218,-30.940001,-54.18,72.099998,1729417713330.0,0.0
-1.22034,-12.447463,-2.548356,-282.589996,6.16,-23.309999,1729417713350.0,0.0
-2.811567,-14.043476,-12.189038,-249.759995,-131.110001,13.02,1729417713372.0,0.0
-4.74736,-14.883357,-17.400606,-144.899994,-126.279999,31.08,1729417713391.0,0.0
-7.582855,-20.432314,-21.198015,-51.66,37.450001,-35.209999,1729417713410.0,0.0
-7.506285,-18.881763,-8.886944,-54.950001,80.010002,-68.739998,1729417713431.0,0.0
-1.926222,-11.60519,-6.73101,41.509998,31.08,-52.290001,1729417713450.0,0.0
0.717847,-3.397808,-4.998606,79.590004,50.889999,-28.630001,1729417713476.0,0.0
0.334995,-2.431108,-0.969093,100.379997,69.720001,-14.35,1729417713492.0,0.0
-0.179462,0.445065,8.944371,36.400002,74.900002,-28.84,1729417713510.0,0.0
-1.160519,-4.041477,10.602598,27.16,-7.0,23.379999,1729417713530.0,0.0
-0.870987,-5.694918,4.847858,-49.560001,-5.53,0.14,1729417713550.0,0.0
-1.308874,-7.216753,-0.442672,-96.32,10.64,-8.54,1729417713573.0,0.0
-1.378266,-7.228717,-3.347559,-110.25,-89.110001,-2.59,1729417713592.0,0.0
-0.20339,-5.481956,-6.707082,-114.800003,-157.710007,28.49,1729417713611.0,0.0
-3.979264,-13.239488,-15.527027,-129.710007,-123.270004,11.9,1729417713630.0,0.0
-8.207381,-21.099911,-21.293728,-183.960007,97.440002,-43.75,1729417713650.0,0.0
-4.005585,-12.935599,-7.800602,-24.360001,79.029999,-42.07,1729417713672.0,0.0
0.069392,-4.73061,-6.685547,115.150002,26.74,12.39,1729417713691.0,0.0
1.366302,-2.98385,-5.139783,67.199997,22.26,-7.14,1729417713710.0,0.0
0.425922,-6.142376,-3.103491,17.780001,73.220001,-6.51,1729417713730.0,0.0
-1.404587,-8.762517,5.024928,2.17,115.709999,-28.700001,1729417713750.0,0.0
-2.758924,-3.754339,7.76471,9.45,34.650002,2.03,1729417713772.0,0.0
-2.421536,-0.90688,4.376472,21.559999,-32.549999,36.540001,1729417713801.0,0.0
-0.897308,-7.470392,-0.902094,-78.889999,-58.799999,-15.75,1729417713811.0,0.0
-0.641276,-10.387242,-7.537392,-184.309998,-79.519997,-49.77,1729417713830.0,0.0
-0.535992,-5.235496,-9.695717,-138.600006,-122.57,-6.16,1729417713850.0,0.0
-2.258825,-6.343372,-14.802001,-35.98,-70.699997,32.970001,1729417713872.0,0.0
-6.34098,-10.449455,-19.3029,-117.739998,68.18,38.360001,1729417713891.0,0.0
-10.420743,-19.381863,-13.22513,-150.779999,124.18,-17.290001,1729417713911.0,0.0
-4.110869,-12.260822,-9.923036,32.27,53.060001,12.11,1729417713930.0,0.0
1.552942,-5.058427,-8.599805,148.680008,7.7,53.830002,1729417713950.0,0.0
3.038885,-6.364908,1.904687,131.529999,-3.92,20.790001,1729417714036.0,0.0
1.849652,-6.013163,11.899508,-28.210001,-34.16,2.24,1729417714038.0,0.0
1.701297,-4.347759,2.292324,-74.900002,8.75,-35.490002,1729417714068.0,0.0
0.658026,-4.584648,2.828316,-11.69,-60.41,-26.25,1729417714072.0,0.0
0.145962,-6.350551,-2.720639,-106.610001,-104.790001,-39.970001,1729417714073.0,0.0
-0.748954,-7.834101,-18.687944,-207.479996,-81.970001,-64.120003,1729417714073.0,0.0
-5.946165,-11.964113,-17.041683,-107.520004,-26.950001,-22.75,1729417714091.0,0.0
-9.51147,-13.323236,-21.631117,29.049999,116.270004,3.36,1729417714110.0,0.0
-4.689932,-8.800802,-11.624333,105.279999,48.369999,20.93,1729417714130.0,0.0
0.153141,-3.847659,-8.066205,104.93,-18.690001,39.48,1729417714151.0,0.0
2.038685,-3.07717,-9.166903,77.419998,11.9,24.15,1729417714172.0,0.0
1.150948,-4.694718,-3.634698,26.18,105.840004,19.040001,1729417714191.0,0.0
-4.412365,-4.165904,12.339786,0.98,100.309998,22.960001,1729417714211.0,0.0
-2.667997,-5.345565,5.938986,22.889999,5.53,21.629999,1729417714230.0,0.0
-2.596212,-4.400401,2.021935,-87.150002,-47.599998,3.85,1729417714250.0,0.0
-0.997807,-5.852845,-5.757132,-161.279999,-111.580002,-39.48,1729417714272.0,0.0
-0.069392,-5.675776,-13.34238,-122.360001,-153.930008,-28.700001,1729417714291.0,0.0
-1.895115,-9.901501,-17.221144,4.13,-111.580002,23.73,1729417714311.0,0.0
-7.310073,-9.765109,-21.580866,-72.870003,96.529999,23.73,1729417714330.0,0.0
-7.556533,-13.306486,-10.179067,-94.919998,131.740005,-14.42,1729417714350.0,0.0
-1.485943,-7.427321,-5.965307,75.529999,-10.36,23.1,1729417714371.0,0.0
1.20359,-5.668597,-10.803595,84.840004,7.98,17.5,1729417714392.0,0.0
1.732404,-4.821537,0.346959,51.310001,58.029999,-5.11,1729417714410.0,0.0
-2.151148,-6.075377,9.645468,5.46,29.75,8.33,1729417714430.0,0.0
1.198804,-4.476971,2.021935,-32.34,-10.78,-34.860001,1729417714457.0,0.0
1.244268,-3.943372,-1.473979,-43.400002,-66.290001,-8.19,1729417714475.0,0.0
0.454636,-7.106683,-5.737988,-96.389999,-71.330002,-30.309999,1729417714492.0,0.0
-0.598206,-7.240681,-11.827723,-183.190002,-57.540001,-60.130001,1729417714510.0,0.0
-2.522035,-7.166504,-15.586846,-126.559998,-45.009998,-16.66,1729417714530.0,0.0
-5.333601,-6.836295,-16.977077,-63.139999,31.15,4.97,1729417714550.0,0.0
-7.185646,-9.059227,-14.433505,-28.630001,78.260002,7.77,1729417714572.0,0.0
-5.448457,-7.386643,-10.040283,22.049999,20.16,-0.63,1729417714593.0,0.0
-2.849852,-5.213961,-9.95175,39.759998,8.12,-3.08,1729417714610.0,0.0
-1.325624,-5.163712,-8.329416,47.040001,25.48,-2.1,1729417714639.0,0.0
-1.67019,-4.431508,-0.157926,39.689999,42.07,10.64,1729417714651.0,0.0
0.090927,-4.728218,0.677169,-17.710001,-14.35,-2.94,1729417714673.0,0.0
2.770889,-2.926422,-0.959522,-33.529999,-72.099998,-2.03,1729417714803.0,0.0
2.155933,-5.295317,-5.032106,-79.800003,-68.389999,-13.86,1729417714805.0,0.0
0.653241,-5.065606,-11.361122,-133.490005,-13.37,-34.509998,1729417714806.0,0.0
-3.361916,-5.529813,-10.695917,-118.020004,-21.210001,-28.35,1729417714808.0,0.0
-6.013163,-5.737988,-14.356936,-117.739998,18.76,-28.139999,1729417714809.0,0.0
-6.740582,-6.63769,-14.529219,-73.290001,21.35,-25.41,1729417714810.0,0.0
-2.876173,-7.307681,-11.997612,8.47,-9.66,-9.73,1729417714813.0,0.0
0.57667,-4.45065,-9.994821,70.279999,-50.889999,24.92,1729417714831.0,0.0
-0.705883,-3.287738,-9.559326,67.760002,28.07,25.48,1729417714851.0,0.0
-3.739982,-6.132804,-2.366502,78.540001,85.260002,9.17,1729417714873.0,0.0
-2.218147,-3.952943,-2.383251,48.16,8.19,10.71,1729417714892.0,0.0
1.325624,-2.009971,-6.876972,-17.57,-70.910004,0.49,1729417714911.0,0.0
-0.581456,-5.331209,-8.547162,-56.420002,-36.119999,-12.32,1729417714934.0,0.0
-3.39063,-4.529613,-6.479764,-86.800003,-2.31,-30.870001,1729417714951.0,0.0
-2.505285,-3.656233,-14.467006,-120.959999,-21.700001,-27.58,1729417714972.0,0.0
-3.352344,-7.420143,-13.191631,-65.239998,-35.560001,-9.38,1729417714992.0,0.0
-2.904887,-5.553742,-11.454442,27.440001,11.55,15.96,1729417715011.0,0.0
-2.09372,-0.51685,-8.836694,62.09,-22.68,42.139999,1729417715031.0,0.0
-2.672783,-5.742774,-12.016755,7.56,40.950001,18.200001,1729417715051.0,0.0
-1.055235,-9.777073,-8.693125,22.75,27.790001,1.4,1729417715072.0,0.0
3.156133,-4.529613,-4.979464,48.439999,-39.130001,5.18,1729417715091.0,0.0
2.208575,-5.412565,-3.326023,20.93,-39.41,-25.549999,1729417715111.0,0.0
-2.376073,-7.482357,-1.038485,-9.31,39.759998,-51.59,1729417715131.0,0.0
-4.034299,-3.34038,-5.711668,-46.130001,20.370001,-78.400002,1729417715151.0,0.0
-3.443272,1.830509,-12.514462,-78.260002,-30.73,-27.02,1729417715176.0,0.0
-4.146761,-3.639483,-15.570097,-67.830002,-20.860001,1.96,1729417715191.0,0.0
-4.948357,-8.185846,-14.77568,-43.400002,34.720001,12.46,1729417715211.0,0.0
-1.854438,-5.158926,-13.057633,45.639999,-13.65,36.400002,1729417715231.0,0.0
-0.401994,1.213161,-9.525827,97.650002,-5.04,60.830002,1729417715250.0,0.0
-2.514857,-7.04447,-7.80778,57.119999,59.43,38.150002,1729417715271.0,0.0
-3.565305,-7.963314,-2.404787,19.460001,40.810001,17.99,1729417715292.0,0.0
-0.72024,-5.91745,-2.098505,24.710001,-15.68,-3.5,1729417715312.0,0.0
-0.753739,-5.651847,-4.084548,-16.030001,-27.299999,-22.190001,1729417715331.0,0.0
-0.512064,-3.225525,-8.506484,-48.580002,3.64,-48.580002,1729417715352.0,0.0
-0.138784,-2.328217,-9.868,-41.509998,-38.779999,-30.66,1729417715372.0,0.0
-0.098106,-2.182254,-11.983256,-39.900002,-37.73,-8.47,1729417715392.0,0.0
-1.316052,-1.854438,-12.320643,-42.91,4.55,9.17,1729417715412.0,0.0
-3.110669,-4.797609,-12.409179,-47.18,36.68,24.5,1729417715432.0,0.0
-3.086741,-7.4345,-10.202995,-21.280001,17.219999,15.47,1729417715452.0,0.0
-2.086541,-7.489535,-6.563512,11.55,-11.41,24.01,1729417715476.0,0.0
-1.524228,-6.15434,-7.267002,28.77,-43.259998,12.81,1729417715496.0,0.0
-1.138984,-2.895315,-5.584848,14.14,-49.98,-22.120001,1729417715511.0,0.0
-3.335595,-1.028914,-4.694718,-15.190001,-29.120001,-4.69,1729417715533.0,0.0
-4.972286,-5.737988,-7.21436,-67.129997,8.05,-37.380001,1729417715552.0,0.0
-4.4339,-7.546963,-8.283953,-57.189999,-1.68,-42.07,1729417715572.0,0.0
-2.311467,-4.740182,-11.875579,-51.099998,-33.950001,-35.420002,1729417715592.0,0.0
-0.208176,-2.715853,-10.229317,-6.16,-15.68,-39.34,1729417715613.0,0.0
-1.665405,-1.038485,-8.465806,-6.72,-13.37,-12.39,1729417715631.0,0.0
-2.761317,-4.197011,-8.504091,-54.810001,19.460001,-41.580002,1729417715652.0,0.0
-2.555535,-5.852845,-10.537991,-66.5,3.57,-51.099998,1729417715676.0,0.0
-1.052842,-4.771288,-12.081362,-69.93,-9.73,-51.170002,1729417715693.0,0.0
0.478565,-5.601598,-11.162518,-75.25,-15.190001,-67.340004,1729417715712.0,0.0
0.638884,-8.288737,-9.686146,-46.549999,-20.23,-70.209999,1729417715731.0,0.0
-0.167498,-4.261617,-10.805987,8.68,21.280001,-53.060001,1729417715752.0,0.0
-1.825724,-1.244268,-10.755738,59.57,61.670002,-35.91,1729417715772.0,0.0
-3.739982,0.885344,-9.52822,93.870003,85.330002,9.17,1729417715795.0,0.0
-4.345366,-0.260818,-6.053841,108.639999,65.870003,59.080002,1729417715813.0,0.0
-2.880959,-3.632305,-6.953543,68.599998,-3.22,49.209999,1729417715832.0,0.0
-0.993021,-6.757331,-11.909079,49.630001,-20.23,26.25,1729417715852.0,0.0
-0.808774,-7.037291,-10.348958,77.419998,-14.77,18.41,1729417715873.0,0.0
-1.371087,-3.63709,-5.816952,116.620003,-2.59,14.49,1729417715894.0,0.0
-2.541178,0.473779,-3.785445,98.139999,-19.879999,20.02,1729417715912.0,0.0
-2.177469,-0.514457,-7.704889,46.41,-37.73,-1.12,1729417715931.0,0.0
-3.397808,-4.625326,-10.370493,-46.759998,-20.23,-12.53,1729417715952.0,0.0
-4.354938,-3.589234,-8.432307,-19.460001,-36.959999,4.41,1729417715972.0,0.0
-2.294717,-0.239282,-11.260624,-11.97,-51.099998,21.139999,1729417715993.0,0.0
-0.61017,0.227318,-10.722239,-93.590004,-36.540001,2.94,1729417716011.0,0.0
-1.734797,-7.056434,-11.34198,-161.630005,19.460001,15.68,1729417716031.0,0.0
-1.854438,-7.750352,-11.399406,-98.629997,58.450001,57.400002,1729417716052.0,0.0
-0.995414,-7.539784,-8.848659,38.849998,34.23,77.840004,1729417716073.0,0.0
-1.024128,-6.625726,-3.716053,56.700001,17.710001,82.879997,1729417716103.0,0.0
-1.785046,-7.412964,-1.770689,-21.700001,21.07,56.84,1729417716112.0,0.0
-0.765703,-14.251652,-9.667004,-83.300003,-18.27,-31.01,1729417716137.0,0.0
-0.837488,-12.033505,-13.045669,43.82,-13.58,-0.56,1729417716154.0,0.0
-1.366302,-5.331209,-9.341579,196.0,33.25,18.969999,1729417716173.0,0.0
-3.07717,-1.495514,-6.379266,177.449997,54.950001,15.47,1729417716194.0,0.0
-3.328416,-2.672783,-10.246067,108.709999,43.68,-3.29,1729417716212.0,0.0
-4.106083,-5.587241,-10.360922,81.830002,6.79,-0.56,1729417716232.0,0.0
-3.546163,-5.565705,-8.676375,83.650002,-0.63,-0.84,1729417716252.0,0.0
-2.529213,-3.811767,-7.422535,75.809998,-24.15,-18.27,1729417716272.0,0.0
-2.665605,-1.28016,-9.686146,69.090004,-2.1,-7.0,1729417716292.0,0.0
-2.924029,-2.912065,-5.623133,67.760002,7.35,-14.91,1729417716313.0,0.0
-2.641676,-7.336394,-7.915457,27.51,-21.629999,-16.379999,1729417716331.0,0.0
-0.892523,-9.781858,-9.80818,57.049999,-37.799999,-38.57,1729417716352.0,0.0
-1.493121,-9.607183,-7.999206,158.059998,-43.75,-9.59,1729417716373.0,0.0
-1.158126,-7.420143,-8.367701,254.520004,-29.68,-15.05,1729417716394.0,0.0
-0.911665,-7.200003,-9.906286,311.220001,-37.66,2.52,1729417716411.0,0.0
-1.241875,-9.444471,-6.372087,372.190002,-47.32,30.870001,1729417716432.0,0.0
-1.808974,-8.748159,-2.809174,356.089996,-45.709999,30.870001,1729417716451.0,0.0
-2.065006,-9.224331,-1.323231,325.98999,-21.559999,26.32,1729417716474.0,0.0
-1.954936,-9.626326,-1.969293,328.720001,12.25,13.440001,1729417716499.0,0.0
-3.069991,-9.255438,-2.096112,400.540009,44.380001,23.73,1729417716511.0,0.0
-4.445865,-7.073184,1.533799,436.519989,59.920002,21.139999,1729417716531.0,0.0
-4.316652,-5.185246,3.806981,343.209991,35.349998,14.91,1729417716552.0,0.0
-2.98385,-7.826923,4.596612,238.699997,11.27,3.85,1729417716572.0,0.0
-2.854637,-8.475377,3.474378,201.460007,16.379999,-1.47,1729417716592.0,0.0
-3.481557,-6.996613,3.546163,182.910004,26.809999,-10.43,1729417716611.0,0.0
-3.806981,-7.80778,3.388237,160.720001,43.259998,-11.97,1729417716630.0,0.0
-3.76391,-7.566105,3.342773,127.82,46.900002,-8.19,1729417716652.0,0.0
-3.005385,-10.274779,3.196811,101.849998,61.25,-13.65,1729417716672.0,0.0
-2.129612,-7.338787,2.100898,72.519997,47.389999,-25.9,1729417716691.0,0.0
-2.854637,-5.556134,7.128219,29.33,51.450001,-31.08,1729417716710.0,0.0
-3.18724,-3.067599,8.953942,-152.320007,60.130001,-80.43,1729417716733.0,0.0
-4.359723,-7.092326,3.393023,-309.679993,72.029999,-75.32,1729417716761.0,0.0
-4.158726,-8.678767,1.990828,-315.980011,38.43,-57.82,1729417716772.0,0.0
-2.139183,-7.317252,2.684747,-231.979996,0.84,-28.77,1729417716793.0,0.0
-0.926022,-6.802795,6.245267,-214.550003,-32.41,-22.049999,1729417716812.0,0.0
-1.880759,-6.836295,4.761717,-267.679993,-55.650002,-5.18,1729417716832.0,0.0
-2.926422,-9.925428,-1.505085,-343.630005,-7.21,-14.49,1729417716852.0,0.0
-3.943372,-14.818751,-2.816352,-327.25,19.25,-53.689999,1729417716873.0,0.0
-3.696911,-10.928021,-1.246661,-238.699997,-19.809999,-33.950001,1729417716894.0,0.0
-2.663212,-7.810174,-0.562313,-191.309998,-62.93,-11.83,1729417716912.0,0.0
-1.67019,-7.767102,-1.715654,-177.309998,-56.349998,-4.83,1729417716933.0,0.0
-0.909273,-7.161718,-3.929015,-211.330002,1.4,-35.07,1729417716955.0,0.0
-1.416551,-8.13799,-7.534998,-267.399994,37.099998,-72.940002,1729417716975.0,0.0
-3.897908,-9.336794,-6.333801,-324.380005,17.92,-74.830002,1729417716996.0,0.0
-3.316452,-11.315658,-6.518049,-256.76001,-24.99,-56.0,1729417717013.0,0.0
-1.18684,-7.781459,-7.025328,-203.419998,-46.970001,-58.869999,1729417717034.0,0.0
-1.569692,-7.176075,-6.422336,-132.860001,-26.809999,-39.900002,1729417717054.0,0.0
-2.493321,-6.343372,-4.718646,-112.07,-1.89,-53.27,1729417717075.0,0.0
-2.615355,-5.625526,-6.599405,-162.399994,-7.28,-63.279999,1729417717095.0,0.0
-1.899901,-5.503492,-8.602197,-194.389999,-36.75,-70.489998,1729417717112.0,0.0
-1.674976,-6.417551,-9.267403,-181.440002,-39.200001,-61.25,1729417717134.0,0.0
-1.87358,-5.845665,-8.913264,-154.419998,-32.759998,-56.84,1729417717154.0,0.0
-2.435893,-3.333202,-8.559127,-122.779999,-52.360001,-44.59,1729417717175.0,0.0
-2.239682,-2.581856,-7.482357,-94.290001,-75.389999,-17.99,1729417717194.0,0.0
-0.772882,-2.191825,-8.79123,-62.720001,-89.040001,-2.1,1729417717217.0,0.0
-0.794417,-3.220739,-9.731609,-39.200001,-88.690002,6.16,1729417717234.0,0.0
-2.512464,-6.410372,-10.69831,12.04,-25.059999,15.54,1729417717254.0,0.0
-2.021935,-7.097112,-10.047462,71.75,-16.59,27.23,1729417717275.0,0.0
-1.567299,-5.728417,-10.863414,119.07,21.210001,27.58,1729417717294.0,0.0
-2.445465,-4.689932,-11.026128,113.190002,30.799999,38.009998,1729417717315.0,0.0
-1.112662,-5.458029,-9.298509,127.610001,27.440001,38.360001,1729417717335.0,0.0
-0.461815,-7.80778,-0.055035,116.340004,-22.120001,48.860001,1729417717355.0,0.0
1.5003,-8.705089,-3.09392,36.049999,-61.110001,27.370001,1729417717374.0,0.0
-5.118248,-6.575477,-5.563312,-28.630001,11.97,-30.52,1729417717396.0,0.0
-5.278566,-7.21436,-5.443672,-17.57,-84.699997,-19.6,1729417717413.0,0.0
-2.431108,-4.259224,-7.953743,-68.949997,-55.16,15.75,1729417717435.0,0.0
-5.429315,-4.898108,-9.913465,-34.509998,49.560001,-26.25,1729417717454.0,0.0
-2.840281,-4.486543,-7.422535,-32.759998,42.209999,8.68,1729417717476.0,0.0
-3.672983,-5.407779,-11.272588,-38.57,52.779999,-14.21,1729417717496.0,0.0
-4.905287,-4.572684,-9.54497,-61.459999,16.66,-12.18,1729417717515.0,0.0
-2.344966,-1.921437,-9.41815,-80.709999,-16.870001,-6.65,1729417717534.0,0.0
-3.28056,-2.364109,-8.025528,-53.060001,23.66,-3.71,1729417717554.0,0.0
-3.838088,-2.462214,-9.040084,-89.739998,13.86,-30.24,1729417717574.0,0.0
-3.136991,-1.665405,-9.090333,-99.120003,-9.73,-35.139999,1729417717595.0,0.0
-3.110669,0.043071,-7.932207,-95.690002,-19.950001,-34.580002,1729417717615.0,0.0
-3.06042,-1.12702,-7.948956,-65.590004,-8.82,-31.710001,1729417717632.0,0.0
-3.175276,-2.414358,-8.982656,-20.719999,0.14,-31.08,1729417717653.0,0.0
-3.407379,-2.218147,-11.093125,-40.459999,-6.58,-7.7,1729417717674.0,0.0
-1.942972,-4.570292,-13.328021,-16.66,10.78,4.97,1729417717696.0,0.0
-1.11027,-8.422735,-11.753544,40.040001,22.469999,15.61,1729417717713.0,0.0
-0.138784,-6.240481,-12.023933,62.299999,28.07,27.58,1729417717735.0,0.0
0.428315,-3.034099,-6.905686,114.379997,47.740002,42.91,1729417717753.0,0.0
0.160319,-7.745567,2.416751,101.360001,-12.53,48.299999,1729417717773.0,0.0
0.930808,-10.478169,-4.742575,7.07,-37.869999,19.389999,1729417717794.0,0.0
-0.823131,-6.62094,-12.000006,17.290001,12.25,-17.710001,1729417717813.0,0.0
-9.126225,-3.885944,-9.707682,77.07,31.219999,19.67,1729417717833.0,0.0
-3.024528,-5.517848,-7.719246,65.800003,-19.110001,35.700001,1729417717852.0,0.0
-1.679761,-8.018349,-9.820145,24.5,-10.92,42.91,1729417717875.0,0.0
-3.634698,-4.532006,-12.665211,91.910004,57.049999,17.57,1729417717893.0,0.0
-4.371687,-0.260818,-10.241282,73.5,33.529999,36.189999,1729417717914.0,0.0
-2.431108,-4.515256,-7.365108,36.119999,-23.309999,22.889999,1729417717933.0,0.0
-2.067399,-5.12782,-6.575477,23.17,-9.66,9.8,1729417717962.0,0.0
-3.172883,-4.943572,-6.302694,14.35,17.780001,-7.42,1729417717972.0,0.0
-1.885544,-2.514857,-14.689538,-3.78,19.6,-23.24,1729417717995.0,0.0
-3.785445,-4.682754,-8.413164,59.360001,-11.76,-35.209999,1729417718014.0,0.0
-2.414358,-5.503492,-6.630512,128.029999,-20.719999,-18.76,1729417718032.0,0.0
-0.930808,-8.705089,-6.635297,275.100006,-33.32,-32.060001,1729417718054.0,0.0
-2.634498,-8.484949,-4.548756,390.320007,-55.510002,-40.670002,1729417718073.0,0.0
-3.108276,-6.058627,-6.692725,361.130005,-51.310001,-29.049999,1729417718095.0,0.0
-3.290131,-2.021935,-10.604989,130.690002,9.17,-16.309999,1729417718113.0,0.0
-1.641476,-6.379266,-13.158132,-21.35,57.400002,0.56,1729417718132.0,0.0
-0.875773,-10.956735,-16.716259,11.41,99.889999,25.76,1729417718152.0,0.0
-4.584648,-10.021141,-9.724431,151.830002,98.0,52.709999,1729417718175.0,0.0
-2.531606,-9.092726,-6.250053,305.339996,101.220001,70.279999,1729417718194.0,0.0
-7.678568,-8.367701,11.365908,216.580002,107.660004,30.24,1729417718213.0,0.0
-0.291924,-9.647861,3.136991,-7.42,81.970001,-21.98,1729417718233.0,0.0
-1.349552,-4.086941,8.549555,-31.5,18.059999,24.219999,1729417718251.0,0.0
-1.153341,-3.309274,6.338587,-16.030001,18.83,-0.84,1729417718273.0,0.0
-3.292524,-7.692925,2.959922,-87.989998,8.82,6.3,1729417718295.0,0.0
-2.868994,-10.947165,0.540778,-118.720001,-36.75,-10.01,1729417718312.0,0.0
-1.411765,-9.561719,-2.431108,-117.110001,-94.989998,-6.65,1729417718332.0,0.0
-0.772882,-6.333801,-11.609976,-141.820007,-124.599998,-5.88,1729417718354.0,0.0
-5.388636,-10.267602,-16.137196,-126.770004,-51.869999,-21.0,1729417718375.0,0.0
-10.346564,-16.881365,-21.590439,-67.550003,70.840004,-49.98,1729417718395.0,0.0
-3.756732,-11.751152,-11.887544,36.610001,8.82,-5.74,1729417718413.0,0.0
0.571885,-6.838687,-7.745567,87.43,0.91,10.15,1729417718433.0,0.0
0.224925,-4.472186,-6.336195,72.309998,82.809998,-2.31,1729417718453.0,0.0
0.210568,-0.81356,-2.108077,17.5,116.340004,0.7,1729417718477.0,0.0
-1.122234,-3.495914,11.117055,16.450001,36.259998,46.41,1729417718493.0,0.0
-0.815953,-9.903893,8.650054,-25.200001,-5.25,36.470001,1729417718512.0,0.0
-3.905087,-12.466606,3.215954,-98.209999,18.620001,-13.23,1729417718539.0,0.0
-2.029114,-12.949955,-4.632504,-94.5,-23.1,-45.920002,1729417718553.0,0.0
1.048056,-2.971886,-15.309279,-76.440002,-133.630005,-28.700001,1729417718575.0,0.0
-4.225725,-10.212566,-13.39502,20.02,-70.489998,-9.24,1729417718593.0,0.0
-9.181261,-12.251251,-20.315065,-53.549999,164.990005,-49.490002,1729417718612.0,0.0
-6.123233,-11.557333,-11.63869,42.700001,33.529999,5.32,1729417718634.0,0.0
-0.294317,-6.63769,-7.508677,39.759998,3.5,6.16,1729417718652.0,0.0
0.880559,-2.462214,-6.324231,30.450001,65.239998,9.52,1729417718674.0,0.0
0.830309,-1.792224,-0.672383,46.830002,99.120003,21.0,1729417718694.0,0.0
-1.70369,-6.293124,10.095319,46.619999,58.029999,48.509998,1729417718715.0,0.0
-2.596212,-12.03829,8.142776,4.48,1.54,31.360001,1729417718734.0,0.0
-3.881158,-11.45205,1.06002,-93.239998,-3.57,-27.370001,1729417718753.0,0.0
-2.160719,-8.274381,-3.570091,-64.75,-63.98,-37.73,1729417718774.0,0.0
-0.069392,-3.914658,-11.538191,-14.98,-112.07,-34.23,1729417718794.0,0.0
-2.74696,-7.573284,-17.015362,20.370001,-59.080002,-34.509998,1729417718815.0,0.0
-11.093125,-13.78266,-17.85285,-46.830002,51.310001,-45.220001,1729417718836.0,0.0
-4.843073,-10.145569,-16.194624,-10.5,31.639999,-30.799999,1729417718853.0,0.0
0.535992,-4.838287,-7.999206,75.879997,-10.71,10.36,1729417718873.0,0.0
0.634098,-5.469993,-6.733403,40.880001,128.729996,0.91,1729417718897.0,0.0
-2.48375,-5.785845,8.85105,38.43,109.270004,20.860001,1729417718913.0,0.0
-0.098106,-4.847858,14.909678,21.629999,-21.35,49.279999,1729417718936.0,0.0
1.11027,-8.295916,7.23111,-19.040001,-30.24,29.540001,1729417718955.0,0.0
-1.919044,-10.506885,-0.409173,-97.510002,-22.4,-21.0,1729417719045.0,0.0
-0.545564,-10.076177,-9.095119,-102.410004,-70.139999,-35.209999,1729417719051.0,0.0
-0.485743,-7.661818,-15.847664,-86.590004,-119.209999,-34.790001,1729417719055.0,0.0
-6.704689,-12.569498,-15.146567,-59.080002,-47.950001,-18.41,1729417719055.0,0.0
-8.891729,-11.397014,-17.31925,-41.650002,76.790001,-42.91,1729417719055.0,0.0
-2.727818,-8.877372,-10.741381,112.559998,21.42,10.85,1729417719075.0,0.0
0.457029,-5.726025,-7.999206,135.940002,19.74,14.98,1729417719095.0,0.0
1.253839,-2.349752,-8.032705,71.190002,83.160004,9.1,1729417719115.0,0.0
-0.212961,-3.476771,-0.37328,57.049999,107.239998,24.5,1729417719135.0,0.0
-2.859423,-7.302894,11.696117,75.110001,46.34,52.220001,1729417719155.0,0.0
-1.847259,-9.054441,4.771288,-10.08,1.19,16.309999,1729417719175.0,0.0
-0.504886,-10.013963,-2.790031,-55.09,10.78,-8.12,1729417719196.0,0.0
0.253639,-7.82453,-5.209175,-31.710001,-58.099998,-9.73,1729417719214.0,0.0
0.732204,-6.989435,-8.530413,-15.190001,-129.990005,14.0,1729417719234.0,0.0
-2.510071,-11.136196,-10.133603,-79.169998,-97.720001,-0.49,1729417719258.0,0.0
-6.888937,-12.593425,-17.618353,-162.399994,40.740002,-31.92,1729417719275.0,0.0
-6.017949,-9.896714,-14.964713,-2.66,69.440002,-23.52,1729417719295.0,0.0
-2.402394,-7.446464,-8.915657,131.320007,-11.34,34.650002,1729417719314.0,0.0
-1.069592,-4.766503,-7.305287,57.049999,0.28,19.25,1729417719334.0,0.0
-1.29691,-5.850451,-7.472785,-20.65,46.759998,-2.38,1729417719354.0,0.0
-2.222932,-8.645268,-6.223732,-26.389999,80.639999,-12.95,1729417719375.0,0.0
-3.259024,-8.336594,-2.244468,3.01,68.389999,-2.59,1729417719395.0,0.0
-3.101098,-7.618747,1.801795,36.400002,16.59,12.39,1729417719414.0,0.0
-1.033699,-5.529813,3.196811,29.4,-22.540001,14.91,1729417719435.0,0.0
0.29671,-7.161718,-0.602991,4.27,-35.0,16.52,1729417719454.0,0.0
-0.002393,-8.985049,-2.904887,-62.580002,-2.03,-12.25,1729417719478.0,0.0
-1.330409,-10.389636,-5.716454,-70.980003,-22.190001,-20.370001,1729417719495.0,0.0
-0.409173,-7.403394,-7.049256,-24.639999,-84.0,-10.08,1729417719514.0,0.0
-0.904487,-7.80778,-9.839286,23.52,-42.07,-4.27,1729417719534.0,0.0
-3.804588,-10.748559,-12.567105,3.78,45.009998,-10.15,1729417719554.0,0.0
-5.221139,-9.556933,-9.317651,2.31,62.93,4.48,1729417719576.0,0.0
-2.443072,-8.181061,-7.69771,75.669998,-0.21,26.74,1729417719595.0,0.0
-0.72024,-7.058826,-7.783852,89.389999,29.82,19.950001,1729417719615.0,0.0
-0.705883,-6.80758,-9.159724,96.389999,87.220001,11.97,1729417719632.0,0.0
-1.452443,-8.788837,-4.682754,153.440002,102.129997,16.17,1729417719654.0,0.0
-1.45005,-7.944171,0.33021,237.790009,51.869999,44.029999,1729417719677.0,0.0
-1.138984,-8.405986,4.199404,267.820007,26.040001,24.08,1729417719697.0,0.0
-2.258825,-6.372087,6.364908,223.020004,33.529999,11.9,1729417719714.0,0.0
-3.383451,-6.209375,3.854837,142.940002,36.959999,19.110001,1729417719734.0,0.0
-3.038885,-9.276974,-2.287539,-10.57,39.27,-10.85,1729417719755.0,0.0
-3.110669,-12.184253,-6.202196,-155.470001,-20.65,-40.529999,1729417719776.0,0.0
-1.974079,-9.734003,-6.599405,-224.210007,-77.910004,-57.959999,1729417719797.0,0.0
-2.37368,-9.497113,-4.378866,-224.0,-105.910004,-59.920002,1729417719824.0,0.0
-1.732404,-8.271988,-5.522634,-214.970001,-80.290001,-63.700001,1729417719835.0,0.0
-1.969293,-6.319445,-5.769095,-169.960007,-31.92,-61.670002,1729417719855.0,0.0
-2.79721,-6.020342,-5.69731,-192.289993,-47.25,-70.489998,1729417719876.0,0.0
-2.239682,-8.60459,-6.60419,-252.839996,-78.330002,-88.340004,1729417719895.0,0.0
-0.514457,-7.826923,-8.489735,-302.399994,-93.099998,-87.919998,1729417719914.0,0.0
0.526421,-2.919244,-9.310472,-288.399994,-80.010002,-68.529999,1729417719934.0,0.0
0.789631,-0.866202,-7.721639,-272.929993,-60.689999,-72.029999,1729417719955.0,0.0
-0.976272,-6.400801,-7.82453,-205.869995,-25.48,-54.110001,1729417719976.0,0.0
-1.923829,-5.472386,-8.300702,-176.399994,-1.05,-62.09,1729417719997.0,0.0
-2.548356,-2.378466,-9.420543,-147.070007,-19.389999,-42.0,1729417720014.0,0.0
-2.194218,-3.010171,-11.954542,-155.330002,-28.91,-40.529999,1729417720035.0,0.0
-1.442872,-5.515456,-10.951948,-138.389999,-27.790001,-24.710001,1729417720055.0,0.0
-0.799203,-5.982057,-9.032906,-49.0,-25.620001,4.06,1729417720075.0,0.0
-0.942772,-4.486543,-7.783852,-2.94,0.77,5.25,1729417720097.0,0.0
-1.490728,-4.259224,-7.106683,-4.2,2.52,7.84,1729417720114.0,0.0
-0.323031,-3.656233,-8.508877,-3.92,-25.200001,9.8,1729417720134.0,0.0
1.22034,-2.17029,-10.047462,-6.23,-42.279999,6.93,1729417720155.0,0.0
0.122034,-2.785245,-11.650653,-42.07,-30.450001,-21.77,1729417720176.0,0.0
-1.366302,-3.795017,-10.552348,-43.610001,4.13,-34.23,1729417720194.0,0.0
-0.940379,-3.457629,-10.777272,-15.89,-13.02,-34.439999,1729417720216.0,0.0
-1.45005,-3.900301,-11.550155,-23.030001,-2.45,-37.52,1729417720235.0,0.0
-3.385844,-3.393023,-9.987641,-4.9,16.870001,-16.1,1729417720255.0,0.0
-3.818945,-0.909273,-8.958728,29.540001,17.219999,5.46,1729417720275.0,0.0
-2.778067,2.723032,-6.65444,35.84,1.05,42.279999,1729417720295.0,0.0
-1.404587,-0.301496,-7.408179,18.200001,-12.32,50.959999,1729417720314.0,0.0
-1.56012,-5.398208,-9.786645,-5.39,-4.2,45.360001,1729417720335.0,0.0
-1.868794,-7.003791,-9.454042,14.98,-6.37,51.59,1729417720355.0,0.0
-1.009771,-3.838088,-8.219346,39.759998,-11.41,44.73,1729417720374.0,0.0
-0.674776,-1.004985,-8.382057,27.51,-11.27,30.17,1729417720395.0,0.0
-1.28016,-3.548556,-10.593026,-7.49,-16.66,9.45,1729417720413.0,0.0
-2.311467,-6.161518,-12.981063,-29.120001,-8.68,-9.17,1729417720433.0,0.0
-2.871387,-5.52742,-12.894921,-6.37,19.6,-13.09,1729417720454.0,0.0
-2.526821,-2.225325,-10.380065,21.559999,31.57,-3.92,1729417720477.0,0.0
-1.572084,-1.481157,-7.99442,23.940001,7.35,-8.33,1729417720497.0,0.0
-2.792424,-5.95095,-9.607183,-25.41,-2.38,-24.01,1729417720514.0,0.0
-2.744568,-0.811167,-8.831908,20.65,10.01,-2.1,1729417720534.0,0.0
-1.038485,2.734996,-9.530612,30.940001,2.94,19.6,1729417720555.0,0.0
-0.571885,-2.507678,-11.880364,-10.22,7.91,12.32,1729417720581.0,0.0
-0.81356,-5.24746,-11.076375,-13.440001,20.440001,27.02,1729417720596.0,0.0
-1.385444,-4.201797,-9.154939,12.74,26.67,25.9,1729417720613.0,0.0
-2.553142,-2.629712,-5.682954,13.72,28.91,13.51,1729417720633.0,0.0
-1.435694,-1.641476,-6.661618,-8.19,2.1,9.94,1729417720655.0,0.0
0.088534,-3.649055,-8.772088,-26.110001,-36.610001,-1.82,1729417720674.0,0.0
-1.028914,-5.910272,-10.468598,-46.900002,-24.85,-29.75,1729417720696.0,0.0
-2.830709,-4.220939,-12.019149,-62.93,17.639999,-47.110001,1729417720715.0,0.0
-2.943172,-1.847259,-10.29153,-24.92,6.72,-38.990002,1729417720734.0,0.0
-3.20399,-1.986043,-8.365308,-7.56,-5.39,-34.720001,1729417720755.0,0.0
-4.718646,-3.062813,-8.281559,-3.85,3.85,-39.130001,1729417720776.0,0.0
-5.261817,-0.39003,-9.449257,-4.34,4.06,-31.360001,1729417720795.0,0.0
0.040678,2.143969,-10.313066,-13.86,-33.25,3.01,1729417720816.0,0.0
1.069592,-3.108276,-10.911271,-28.630001,-24.99,-5.32,1729417720836.0,0.0
-1.452443,-5.075177,-10.073784,-12.46,23.450001,30.380001,1729417720855.0,0.0
-2.371287,-3.440879,-7.202396,21.77,17.639999,22.120001,1729417720877.0,0.0
-0.825524,-1.981257,-7.030113,10.29,-15.4,26.6,1729417720897.0,0.0
1.995614,-2.541178,-8.595018,3.57,-53.27,22.960001,1729417720915.0,0.0
0.569492,-6.635297,-9.789038,-18.34,-37.450001,-5.18,1729417720936.0,0.0
-2.053042,-6.329016,-12.064612,-44.59,24.43,-36.189999,1729417720956.0,0.0
-3.177669,-4.393222,-10.442278,0.14,11.76,-36.889999,1729417720977.0,0.0
-2.766103,-3.507878,-10.147961,46.830002,-6.51,-28.210001,1729417720999.0,0.0
-2.608176,-0.792024,-9.956534,70.699997,-9.03,-18.549999,1729417721015.0,0.0
-2.835495,-0.648455,-13.024135,81.340004,16.24,-13.16,1729417721035.0,0.0
-2.141576,-0.421137,-12.622139,103.18,46.830002,25.9,1729417721057.0,0.0
0.540778,-2.019542,-12.684352,166.740005,21.84,48.93,1729417721076.0,0.0
0.973879,-5.422136,-13.237095,239.399994,46.48,55.369999,1729417721098.0,0.0
-0.533599,-8.705089,-11.172089,386.540009,98.209999,98.07,1729417721116.0,0.0
-2.478964,-8.341379,-5.082355,523.320007,130.059998,115.709999,1729417721135.0,0.0
-2.935993,-7.369894,-7.836494,724.640015,143.919998,119.699997,1729417721158.0,0.0
-3.290131,-0.07657,-3.323631,848.049988,112.489998,133.630005,1729417721177.0,0.0
-4.118048,0.234497,4.723432,914.130005,56.84,129.149994,1729417721200.0,0.0
-2.667997,-2.148755,4.677969,733.25,23.030001,34.580002,1729417721217.0,0.0
-0.552742,-4.345366,2.132005,490.48999,77.910004,11.55,1729417721237.0,0.0
-0.342174,-9.518648,3.294917,315.559998,132.580002,40.459999,1729417721257.0,0.0
-3.969693,-5.912664,14.079369,56.209999,65.449997,-17.08,1729417721277.0,0.0
-4.797609,-13.832907,6.369694,-29.26,97.090004,7.14,1729417721302.0,0.0
-4.086941,-14.249258,3.917051,50.82,43.959999,11.13,1729417721317.0,0.0
-1.667797,-8.889337,3.5007,70.980003,15.47,-6.23,1729417721336.0,0.0
-2.254039,-6.549156,3.900301,36.959999,38.990002,-10.08,1729417721357.0,0.0
-4.558327,-4.108476,6.173482,-62.299999,59.709999,-19.950001,1729417721378.0,0.0
-5.32403,-8.209774,2.926422,-225.75,35.420002,-36.259998,1729417721399.0,0.0
-3.56052,-13.60559,-0.026321,-315.559998,-63.349998,-45.5,1729417721417.0,0.0
-2.548356,-12.782458,0.629312,-172.270004,-80.779999,-10.57,1729417721437.0,0.0
-2.423929,-8.484949,3.237489,-101.709999,-52.709999,-0.7,1729417721457.0,0.0
-2.366502,-6.04427,4.103691,-130.899994,-51.799999,-15.96,1729417721480.0,0.0
-2.773281,-4.95075,2.574677,-264.320007,-74.690002,-42.279999,1729417721507.0,0.0
-2.67039,-6.709475,-1.495514,-393.820007,-82.529999,-60.689999,1729417721516.0,0.0
-2.136791,-11.033305,-2.120041,-414.540009,-77.209999,-74.900002,1729417721537.0,0.0
-1.48355,-12.265609,-2.79721,-358.610016,-92.050003,-66.989998,1729417721557.0,0.0
-1.490728,-10.200603,-3.404987,-333.690002,-73.290001,-78.889999,1729417721578.0,0.0
-2.132005,-6.250053,-4.639683,-416.98999,-41.439999,-113.190002,1729417721597.0,0.0
-3.168097,-5.60399,-5.871986,-450.100006,-43.259998,-119.209999,1729417721616.0,0.0
-2.76371,-10.325029,-5.496314,-304.290009,-47.110001,-96.809998,1729417721637.0,0.0
-0.993021,-8.398808,-7.381857,-212.869995,-58.799999,-86.519997,1729417721657.0,0.0
-0.923629,-6.113662,-7.030113,-184.029999,-61.25,-75.879997,1729417721677.0,0.0
-1.177269,-4.017549,-7.709675,-189.910004,-41.09,-79.870003,1729417721697.0,0.0
-1.753939,-4.26401,-6.644868,-160.440002,-8.4,-67.970001,1729417721716.0,0.0
-1.579263,-3.017349,-8.422735,-170.589996,-20.440001,-64.190002,1729417721736.0,0.0
-1.51705,-2.656033,-8.575876,-215.389999,-50.68,-51.66,1729417721756.0,0.0
-1.550549,-6.936793,-7.463214,-202.649994,-34.650002,-22.540001,1729417721778.0,0.0
-0.260818,-3.034099,-10.686346,-189.979996,-48.16,-36.189999,1729417721797.0,0.0
-0.909273,2.184647,-14.002798,-176.539993,-30.1,-31.15,1729417721815.0,0.0
-1.847259,-4.232903,-9.23151,-66.43,-39.060001,-15.68,1729417721837.0,0.0
-0.875773,-4.197011,-7.657032,-60.34,-57.049999,2.24,1729417721857.0,0.0
-0.588634,-1.741975,-5.563312,-47.950001,-45.5,2.45,1729417721877.0,0.0
-0.81356,-3.883551,-9.456435,-20.370001,-15.54,1.05,1729417721898.0,0.0
-1.801795,1.081556,-11.935399,-41.16,-2.59,11.83,1729417721915.0,0.0
-1.756332,-0.689133,-11.399406,-28.07,-17.85,19.32,1729417721936.0,0.0
-0.746561,-0.315853,-13.057633,-41.720001,-14.56,24.5,1729417721958.0,0.0
-0.772882,-3.409772,-11.906685,-21.0,-31.57,19.950001,1729417721977.0,0.0
-2.033899,-4.010371,-10.322637,-7.42,-16.379999,18.83,1729417722001.0,0.0
-2.725425,-2.304288,-9.846465,-6.58,-9.24,13.93,1729417722016.0,0.0
-3.337988,-1.607977,-10.191031,-10.92,-13.86,19.6,1729417722037.0,0.0
-3.110669,-0.969093,-11.492726,6.02,-17.43,19.6,1729417722057.0,0.0
-2.931208,-0.815953,-10.913664,66.360001,-5.74,22.68,1729417722078.0,0.0
-3.416951,-1.07677,-10.569098,108.919998,15.33,31.5,1729417722098.0,0.0
-4.161119,-3.974478,-9.01137,66.43,27.09,6.09,1729417722115.0,0.0
-2.321038,-3.18724,-9.128618,64.470001,5.18,8.75,1729417722136.0,0.0
-0.366102,-1.481157,-10.04507,72.730003,-27.16,13.65,1729417722156.0,0.0
0.136391,-2.132005,-10.973484,63.209999,-3.36,-2.03,1729417722176.0,0.0
-1.213161,-2.660819,-10.286745,73.709999,28.77,4.97,1729417722197.0,0.0
-2.146362,-3.488736,-8.839087,90.440002,28.559999,2.24,1729417722216.0,0.0
-2.596212,-4.663611,-8.023134,109.550003,9.24,6.37,1729417722236.0,0.0
-2.505285,-4.996214,-8.10449,164.779999,-7.7,18.620001,1729417722257.0,0.0
-2.376073,-5.362316,-9.01137,206.710007,-18.76,19.18,1729417722277.0,0.0
-2.488536,-5.883951,-7.551748,240.940002,-24.92,32.549999,1729417722297.0,0.0
-1.308874,-2.861816,-5.070391,245.070007,-31.01,42.209999,1729417722317.0,0.0
0.535992,-4.067799,-4.804788,203.419998,-49.139999,20.02,1729417722336.0,0.0
1.002593,-7.642675,-5.448457,80.639999,-25.34,-5.88,1729417722355.0,0.0
-0.562313,-6.759724,-4.843073,0.56,6.65,5.6,1729417722377.0,0.0
-0.775275,-6.049056,-5.71406,-64.400002,20.440001,0.07,1729417722397.0,0.0
0.066999,-5.185246,-7.989635,-119.209999,38.849998,-4.34,1729417722415.0,0.0
-0.638884,-3.036492,-7.889136,-144.970001,54.18,6.72,1729417722436.0,0.0
-2.809174,-0.521635,-8.216952,-193.130005,52.360001,0.77,1729417722455.0,0.0
-7.948956,-3.48395,-1.581656,-252.630005,24.360001,-32.759998,1729417722479.0,0.0
-5.513064,-9.863215,-14.974284,-262.149994,1.96,-88.129997,1729417722497.0,0.0
-2.199004,-7.448857,-14.811572,-192.990005,-54.599998,-50.959999,1729417722516.0,0.0
-1.969293,-8.740981,-12.744174,-96.809998,-85.959999,-0.35,1729417722535.0,0.0
-2.988636,-6.769295,-9.820145,-50.400002,32.27,-32.34,1729417722556.0,0.0
-3.737589,-2.289931,-11.499906,72.099998,66.43,-2.45,1729417722576.0,0.0
-3.433701,4.244867,-10.279566,62.369999,35.630001,29.75,1729417722599.0,0.0
-1.861616,0.256032,-8.810372,21.559999,9.8,11.34,1729417722617.0,0.0
-0.815953,-3.378666,-9.346365,-59.220001,3.71,-13.79,1729417722635.0,0.0
-0.222532,-4.790431,-9.786645,-52.009998,3.22,-13.65,1729417722656.0,0.0
0.33021,-4.996214,-11.205588,-5.18,13.16,-20.09,1729417722678.0,0.0
-0.284746,-4.536791,-10.715059,18.620001,25.620001,-28.280001,1729417722697.0,0.0
-1.20359,-3.775874,-10.789237,18.969999,43.68,-32.619999,1729417722715.0,0.0
-1.928615,-2.935993,-8.288737,39.060001,33.670002,-20.93,1729417722736.0,0.0
-1.342373,-2.902494,-9.719646,46.970001,-4.55,-19.950001,1729417722756.0,0.0
-1.182054,-3.381058,-9.475577,80.849998,0.14,-9.1,1729417722777.0,0.0
-2.048256,-2.672783,-7.180861,106.050003,4.55,9.52,1729417722797.0,0.0
-2.244468,-2.974278,-7.130611,92.190002,0.7,7.84,1729417722815.0,0.0
-1.478764,-4.711468,-9.592826,78.470001,-3.36,2.52,1729417722836.0,0.0
-0.815953,-6.484549,-9.784252,110.599998,-10.85,0.07,1729417722856.0,0.0
-0.868595,-7.384251,-8.630912,163.449997,-1.26,14.49,1729417722876.0,0.0
-1.275374,-5.321638,-8.221739,195.020004,13.86,13.65,1729417722897.0,0.0
-2.462214,-4.108476,-6.092126,203.210007,13.23,23.799999,1729417722916.0,0.0
-1.9669,-5.259424,-8.193025,166.600006,2.38,19.879999,1729417722937.0,0.0
-1.643869,-9.152546,-5.91745,183.470001,-6.02,24.43,1729417722955.0,0.0
-1.722832,-10.006784,-3.318845,215.809998,-18.27,34.509998,1729417722978.0,0.0
-1.282553,-8.882158,-4.295116,273.48999,-21.91,26.460001,1729417722996.0,0.0
-1.435694,-7.513463,-7.142576,352.100006,7.56,27.299999,1729417723015.0,0.0
-3.012564,-7.905886,-4.457829,364.209991,38.779999,36.68,1729417723037.0,0.0
-2.818745,-9.257831,-4.010371,307.160004,33.110001,34.580002,1729417723056.0,0.0
-2.452643,-10.454242,-1.524228,273.980011,10.08,36.400002,1729417723078.0,0.0
-1.931008,-9.595219,-0.705883,325.5,-3.57,32.27,1729417723096.0,0.0
-2.758924,-8.322237,-0.490529,302.540009,31.290001,34.580002,1729417723115.0,0.0
-2.938386,-10.265208,-3.823731,292.809998,27.65,34.299999,1729417723135.0,0.0
-3.696911,-10.375278,0.208176,318.360016,40.389999,17.15,1729417723157.0,0.0
-4.476971,-12.023933,1.730011,351.959991,14.35,0.7,1729417723176.0,0.0
-3.766303,-8.38445,1.012164,269.5,76.720001,-45.009998,1729417723196.0,0.0
-4.287938,-5.783452,5.690133,28.139999,81.760002,-69.510002,1729417723216.0,0.0
-3.244668,-7.645068,8.980263,-116.690002,35.560001,-83.370003,1729417723236.0,0.0
-1.143769,-9.887143,4.445865,-100.660004,102.830002,-65.169998,1729417723257.0,0.0
-2.708675,-10.021141,2.143969,30.450001,75.25,-36.75,1729417723283.0,0.0
-3.376273,-5.481956,5.273781,40.810001,54.32,-33.18,1729417723297.0,0.0
-3.649055,-6.695118,5.793024,-38.849998,11.48,-34.09,1729417723317.0,0.0
-2.734996,-7.068398,5.216353,-121.660004,-5.32,-33.740002,1729417723337.0,0.0
-1.660619,-9.834501,3.397808,-126.07,-19.460001,-27.790001,1729417723357.0,0.0
-0.648455,-7.874779,2.651247,-52.290001,-10.64,-13.79,1729417723376.0,0.0
-0.323031,-3.122634,4.304688,-6.72,-9.24,-2.24,1729417723399.0,0.0
-2.17029,-4.283153,9.872787,-20.65,-11.9,10.15,1729417723415.0,0.0
-4.194618,-8.015956,5.520242,-201.180008,14.77,-5.11,1729417723435.0,0.0
-5.802595,-8.941978,3.60359,-261.450012,-4.34,-11.9,1729417723456.0,0.0
-4.010371,-6.848258,2.471786,-147.070007,-80.150002,36.330002,1729417723479.0,0.0
-1.433301,-5.98445,-0.51685,-70.980003,-103.32,71.75,1729417723497.0,0.0
-1.579263,-10.521241,-4.486543,-68.949997,-62.09,63.98,1729417723517.0,0.0
-4.144369,-16.986649,-9.97807,-99.470001,21.07,34.509998,1729417723537.0,0.0
-5.85763,-20.671597,-11.921042,3.85,79.870003,16.1,1729417723557.0,0.0
-3.897908,-14.220546,-5.71406,132.020004,59.639999,14.49,1729417723577.0,0.0
-2.234896,-11.217552,-0.349352,157.080002,46.060001,-17.5,1729417723598.0,0.0
-1.131805,-6.431907,2.809174,28.630001,72.029999,-59.360001,1729417723616.0,0.0
-0.756132,-2.900101,6.02752,-93.800003,67.970001,-48.02,1729417723637.0,0.0
-1.119841,-5.613562,11.722438,-146.160004,19.389999,-42.560001,1729417723657.0,0.0
-2.043471,-9.348758,10.877771,-80.639999,-20.58,-12.11,1729417723677.0,0.0
-4.039084,-6.920043,3.036492,-38.43,17.5,22.120001,1729417723698.0,0.0
-2.476572,-6.532406,0.401994,-97.790001,-52.57,21.49,1729417723717.0,0.0
-1.380659,-7.355537,-1.071985,-122.150002,-121.029999,53.900002,1729417723737.0,0.0
-3.314059,-10.583455,-4.254438,-137.619995,-96.389999,38.5,1729417723757.0,0.0
-5.998806,-12.026326,-10.162319,-114.239998,20.790001,18.200001,1729417723778.0,0.0
-6.482157,-12.210573,-11.74158,-37.240002,55.860001,11.62,1729417723809.0,0.0
-4.426722,-10.238889,-7.762317,-19.74,30.59,14.7,1729417723817.0,0.0
-3.462414,-11.954542,-2.9336,-5.18,9.03,6.65,1729417723837.0,0.0
-3.065206,-16.000805,-3.010171,82.739998,28.98,-9.24,1729417723857.0,0.0
-3.141776,-12.031113,-1.849652,170.800003,60.27,-1.19,1729417723878.0,0.0
-3.156133,-8.678767,-0.167498,203.559998,65.029999,1.54,1729417723898.0,0.0
-4.106083,-7.422535,3.04367,176.680008,41.369999,-2.45,1729417723916.0,0.0
-4.338188,-10.456635,4.508078,133.350006,24.639999,-14.84,1729417723938.0,0.0
-3.749553,-11.767902,3.220739,174.160004,19.879999,-16.59,1729417723960.0,0.0
-3.067599,-7.795816,3.113062,259.070007,8.12,29.120001,1729417724063.0,0.0
-1.696511,-7.357929,4.39083,301.700012,-11.9,25.059999,1729417724063.0,0.0
-1.842474,-6.051448,4.826324,246.259995,-2.38,4.48,1729417724063.0,0.0
-2.885744,-6.185446,5.675776,170.869995,3.99,1.26,1729417724064.0,0.0
-2.95035,-7.977671,4.931608,120.540001,7.98,-8.89,1729417724064.0,0.0
-2.474179,-8.496914,4.869394,122.43,-7.14,-18.620001,1729417724112.0,0.0
-2.445465,-7.386643,4.158726,119.910004,-18.34,-21.280001,1729417724127.0,0.0
-1.931008,-6.410372,2.586641,66.220001,17.5,-28.98,1729417724128.0,0.0
-1.737189,-7.183254,1.756332,26.74,41.23,-43.75,1729417724153.0,0.0
-2.002793,-7.362715,2.287539,21.0,48.790001,-41.720001,1729417724157.0,0.0
-2.600998,-8.068598,1.880759,58.66,58.52,-27.93,1729417724199.0,0.0
-3.266203,-5.960521,3.881158,94.919998,75.669998,-22.26,1729417724200.0,0.0
-5.175675,-6.04427,5.032106,39.900002,102.129997,-6.65,1729417724217.0,0.0
-5.91745,-7.56132,5.151747,17.01,83.860001,-5.46,1729417724237.0,0.0
-5.063213,-6.372087,6.613762,48.720001,38.639999,-2.94,1729417724257.0,0.0
-3.414558,-6.530013,6.226124,22.469999,21.42,-11.83,1729417724279.0,0.0
-3.290131,-8.013563,4.780859,-25.690001,35.700001,-25.969999,1729417724299.0,0.0
-4.328616,-8.398808,4.280759,3.29,45.57,-10.08,1729417724318.0,0.0
-4.199404,-6.616155,6.374479,48.23,21.98,-14.84,1729417724338.0,0.0
-3.905087,-5.986843,6.865008,28.0,12.81,-27.440001,1729417724358.0,0.0
-3.787838,-5.843273,6.656832,6.51,6.23,-33.459999,1729417724379.0,0.0
-3.878766,-6.608976,6.879365,-3.5,-0.49,-36.82,1729417724400.0,0.0
-4.04387,-6.482157,6.577869,-13.72,-3.92,-44.310001,1729417724418.0,0.0
-4.151547,-6.166305,6.647261,3.5,-16.59,-39.830002,1729417724440.0,0.0
-3.333202,-4.821537,8.508877,32.549999,-61.459999,-21.0,1729417724458.0,0.0
-1.569692,-3.48395,6.020342,15.89,-113.889999,-2.31,1729417724482.0,0.0
1.031307,-9.927821,0.870987,-99.050003,-85.330002,-53.970001,1729417724501.0,0.0
-1.414158,-14.691931,-0.062213,-73.919998,7.84,-10.08,1729417724518.0,0.0
-3.845266,-6.570691,3.787838,49.560001,17.290001,14.07,1729417724538.0,0.0
-5.285746,-2.62732,7.73121,79.519997,-4.9,19.950001,1729417724558.0,0.0
-5.029713,-2.323431,8.695518,17.360001,-31.780001,10.64,1729417724579.0,0.0
-3.393023,-5.362316,6.924829,-59.849998,-53.27,9.45,1729417724598.0,0.0
-2.143969,-7.039684,4.287938,-98.07,-51.029999,17.5,1729417724619.0,0.0
-2.660819,-7.9346,5.474778,-80.5,-41.860001,39.970001,1729417724637.0,0.0
-4.015156,-7.872386,6.273981,-86.239998,-27.790001,56.279999,1729417724657.0,0.0
-3.359523,-8.386844,5.362316,-90.090004,-51.73,52.43,1729417724679.0,0.0
-2.715853,-8.327023,3.78066,-67.550003,-75.949997,59.150002,1729417724701.0,0.0
-1.421337,-10.200603,4.106083,-77.769997,-90.300003,53.27,1729417724728.0,0.0
-2.225325,-12.902101,2.505285,-56.490002,-73.220001,56.490002,1729417724779.0,0.0
-3.672983,-9.60479,2.940779,44.66,-14.21,41.23,1729417724911.0,0.0
-2.986243,-9.430114,3.95055,59.709999,-0.35,17.85,1729417724911.0,0.0
-3.352344,-6.786045,5.67099,14.21,-0.77,3.15,1729417724912.0,0.0
-3.024528,-7.111469,6.994221,-42.98,3.78,-6.09,1729417724912.0,0.0
-2.218147,-6.85783,5.879165,-82.110001,-3.36,-8.12,1729417724912.0,0.0
-2.986243,-7.025328,6.415157,-56.349998,-13.23,9.59,1729417724912.0,0.0
-3.371487,-7.412964,7.348359,-25.129999,-8.19,6.23,1729417724912.0,0.0
-3.038885,-7.659425,6.297909,-46.200001,-15.82,0.42,1729417724920.0,0.0
-1.727618,-8.183454,2.024328,-89.25,-18.200001,-0.77,1729417724936.0,0.0
-2.878566,-5.161318,5.541777,-162.470001,-16.52,-14.21,1729417724957.0,0.0
-3.349952,-10.176675,1.612763,-242.550003,1.82,-30.030001,1729417724977.0,0.0
-3.134598,-10.313066,2.129612,-165.970001,-1.68,-3.15,1729417724997.0,0.0
-1.596013,-12.105289,1.854438,-89.32,-35.84,4.06,1729417725017.0,0.0
-0.155533,-10.679168,2.203789,-30.52,-45.009998,-4.69,1729417725036.0,0.0
-1.820938,-9.219545,2.108077,-90.090004,-14.35,1.89,1729417725056.0,0.0
-2.737389,-8.080563,1.272982,-160.020004,13.72,-25.690001,1729417725077.0,0.0
-2.773281,-7.925028,0.502493,-194.25,13.93,-35.700001,1729417725098.0,0.0
-2.553142,-9.183653,0.904487,-202.089996,-34.23,-36.540001,1729417725116.0,0.0
-2.117648,-9.781858,1.09352,-223.509995,-62.93,-36.259998,1729417725137.0,0.0
-2.038685,-9.999605,-0.153141,-274.26001,-52.150002,-37.799999,1729417725156.0,0.0
-2.045863,-10.059426,-3.036492,-288.679993,-27.16,-39.130001,1729417725177.0,0.0
-2.366502,-9.343972,-4.017549,-252.559998,-7.98,-39.41,1729417725197.0,0.0
-2.821138,-9.406186,-3.988836,-181.649994,-8.82,-34.23,1729417725216.0,0.0
-2.333002,-9.45165,-3.452843,-125.93,3.22,-34.790001,1729417725236.0,0.0
-1.744368,-9.49472,-2.880959,-138.039993,8.61,-42.84,1729417725256.0,0.0
-0.887737,-6.821937,-6.71426,-222.389999,-9.31,-61.25,1729417725277.0,0.0
-1.457229,-7.245467,-6.199803,-221.270004,6.44,-43.68,1729417725297.0,0.0
-2.239682,-8.037491,-5.742774,-177.520004,-13.16,-41.720001,1729417725323.0,0.0
-1.442872,-7.185646,-6.76451,-134.470001,-16.309999,-36.470001,1729417725338.0,0.0
-1.253839,-6.257231,-8.319844,-131.180008,-7.63,-26.74,1729417725357.0,0.0
-1.275374,-6.795617,-8.281559,-102.129997,-2.03,-26.950001,1729417725379.0,0.0
-2.084148,-6.51087,-6.072984,-112.139999,-5.74,-24.01,1729417725398.0,0.0
-1.799403,-5.685347,-7.721639,-154.630005,-17.57,-30.66,1729417725417.0,0.0
-1.741975,-6.24766,-8.035098,-175.350006,-26.74,-34.93,1729417725438.0,0.0
-1.244268,-5.479564,-7.862815,-180.389999,-35.91,-21.91,1729417725459.0,0.0
-0.942772,-5.194818,-8.532805,-147.979996,-28.210001,-7.28,1729417725483.0,0.0
-0.935594,-0.638884,-9.707682,-171.360001,-9.8,-21.139999,1729417725499.0,0.0
-2.517249,-0.145962,-11.586047,-194.25,9.66,-19.040001,1729417725518.0,0.0
-2.880959,-5.802595,-11.54537,-127.889999,-14.91,-8.05,1729417725538.0,0.0
-0.70349,-3.507878,-10.269995,-58.099998,-60.830002,2.66,1729417725559.0,0.0
-1.026521,-1.325624,-8.073383,-22.82,-41.02,11.76,1729417725579.0,0.0
-2.488536,-0.717847,-5.67099,-42.279999,2.17,7.07,1729417725601.0,0.0
-1.435694,-3.017349,-5.355137,1.47,-4.27,20.65,1729417725619.0,0.0
-0.794417,-2.380858,-10.573883,-34.93,-12.25,25.059999,1729417725642.0,0.0
-0.545564,-3.309274,-13.761123,-58.939999,-13.79,10.57,1729417725658.0,0.0
-2.100898,-3.605984,-11.779866,-42.0,-2.8,22.049999,1729417725680.0,0.0
-1.988436,-3.464807,-9.906286,-6.51,4.76,18.200001,1729417725701.0,0.0
-1.316052,-2.443072,-9.253045,10.5,-10.5,21.629999,1729417725719.0,0.0
-1.495514,-2.400001,-9.863215,-4.97,1.89,13.58,1729417725740.0,0.0
-1.816152,-3.067599,-10.420743,-4.2,9.66,7.98,1729417725759.0,0.0
-1.928615,-3.156133,-10.506885,2.94,3.57,10.85,1729417725780.0,0.0
-1.682154,-3.306881,-10.542776,8.4,-1.12,12.32,1729417725804.0,0.0
-1.081556,-3.172883,-10.523634,18.34,-3.43,8.33,1729417725820.0,0.0
-0.981057,-2.361716,-10.624132,27.09,3.15,6.65,1729417725839.0,0.0
-1.426122,-1.98365,-10.265208,37.939999,16.309999,3.29,1729417725860.0,0.0
-1.880759,-2.292324,-9.485149,42.84,22.26,2.03,1729417725880.0,0.0
-1.725225,-2.651247,-8.853443,47.740002,10.22,2.87,1729417725906.0,0.0
-1.679761,-2.919244,-9.023334,59.43,2.31,2.87,1729417725922.0,0.0
-1.878366,-3.629912,-9.600004,73.010002,8.4,0.98,1729417725940.0,0.0
-2.072184,-4.139583,-9.540184,94.080002,10.22,0.49,1729417725961.0,0.0
-2.639283,-3.718446,-9.102298,122.57,8.75,8.54,1729417725981.0,0.0
-3.503092,-4.867002,-8.262416,179.899994,7.7,20.02,1729417726001.0,0.0
-4.460221,-4.87418,-6.285945,272.860016,3.08,36.889999,1729417726020.0,0.0
-4.922036,-2.912065,-4.883751,332.220001,-20.51,51.240002,1729417726045.0,0.0
-5.005785,-1.514657,-3.491128,282.029999,-44.799999,45.57,1729417726061.0,0.0
-4.115655,-0.957129,-3.766303,90.230003,-57.610001,39.34,1729417726081.0,0.0
-0.837488,-6.278766,-8.970692,-36.400002,-90.440002,16.379999,1729417726101.0,0.0
0.425922,-7.735995,-11.246266,-96.25,-80.57,14.63,1729417726121.0,0.0
0.753739,-6.142376,-12.765708,-96.949997,-43.330002,11.34,1729417726139.0,0.0
0.495314,-5.955735,-12.23211,-122.220001,5.74,1.26,1729417726160.0,0.0
0.299103,-7.51107,-12.435498,-148.470001,32.48,-9.17,1729417726180.0,0.0
0.399601,-8.26481,-11.188839,-132.229996,36.75,-17.43,1729417726204.0,0.0
0.239282,-7.743174,-9.47797,-87.639999,27.65,-15.75,1729417726221.0,0.0
-0.337388,-6.441479,-8.784052,-43.400002,36.82,-20.790001,1729417726241.0,0.0
-1.531406,-3.378666,-4.352544,-48.860001,55.02,-24.360001,1729417726261.0,0.0
-4.287938,-3.558127,-3.431308,-93.870003,40.740002,-25.76,1729417726281.0,0.0
-4.431508,-6.15434,-6.76451,-108.290001,2.66,-52.5,1729417726302.0,0.0
-4.819145,-8.465806,-8.147561,-97.019997,-30.1,-51.170002,1729417726319.0,0.0
-3.096312,-7.965706,-10.262815,-70.489998,-21.280001,-53.760002,1729417726340.0,0.0
-1.39023,-4.187439,-14.785251,-1.4,-12.88,-17.01,1729417726360.0,0.0
-2.141576,-1.253839,-9.523434,73.150002,15.26,2.17,1729417726380.0,0.0
-4.091727,-1.794617,-6.537192,54.810001,54.25,-11.55,1729417726404.0,0.0
-4.48415,-2.940779,-8.372486,-21.700001,50.959999,-27.719999,1729417726420.0,0.0
-3.04367,-5.680561,-10.784451,-49.700001,-19.6,-33.25,1729417726439.0,0.0
-0.571885,-6.553941,-12.203396,-32.34,-57.82,-35.91,1729417726461.0,0.0
-0.454636,-4.546363,-7.267002,19.460001,-45.5,-20.93,1729417726482.0,0.0
-1.081556,-1.667797,-7.310073,48.860001,-11.27,-29.960001,1729417726500.0,0.0
-1.651048,-0.145962,-9.903893,29.610001,25.27,-32.549999,1729417726521.0,0.0
-2.646462,-2.423929,-9.769895,12.53,38.080002,-18.76,1729417726539.0,0.0
-2.354537,-5.335995,-9.846465,0.98,3.15,-9.03,1729417726562.0,0.0
-0.547956,-5.517848,-8.961121,46.970001,-34.720001,-0.49,1729417726581.0,0.0
-0.105284,-4.244867,-7.721639,95.900002,-15.68,2.8,1729417726601.0,0.0
-0.648455,-2.904887,-9.020942,101.43,6.86,4.9,1729417726619.0,0.0
-1.808974,-3.790231,-7.192825,72.940002,24.08,3.15,1729417726641.0,0.0
-2.62732,-6.147161,-8.303094,58.799999,16.52,15.190001,1729417726659.0,0.0
-2.038685,-7.133004,-7.379465,82.949997,5.25,11.34,1729417726681.0,0.0
-1.428515,-5.903094,-8.075776,108.989998,-7.91,20.370001,1729417726701.0,0.0
-1.782653,-5.094319,-6.776474,115.919998,-11.55,19.950001,1729417726719.0,0.0
-1.914258,-6.417551,-5.883951,103.18,-6.3,18.41,1729417726739.0,0.0
-2.103291,-7.89153,-6.166305,112.699997,-4.27,21.139999,1729417726760.0,0.0
-2.141576,-6.920043,-8.487342,113.190002,10.71,15.54,1729417726780.0,0.0
-3.110669,-5.572884,-8.185846,79.519997,28.0,14.63,1729417726799.0,0.0
-3.443272,-7.441679,-7.915457,54.110001,21.629999,16.450001,1729417726819.0,0.0
-2.902494,-8.652447,-7.377072,51.170002,1.12,10.64,1729417726838.0,0.0
-2.366502,-8.470592,-6.494121,69.019997,-18.34,12.67,1729417726858.0,0.0
-2.143969,-8.238488,-4.800002,108.220001,-31.639999,14.77,1729417726879.0,0.0
-1.51705,-8.145168,-4.62054,147.490005,-32.060001,16.66,1729417726898.0,0.0
-2.005185,-7.54457,-5.003392,171.220001,-25.129999,12.32,1729417726918.0,0.0
-3.038885,-8.300702,-2.988636,197.330002,-50.82,20.02,1729417726938.0,0.0
-2.072184,-10.023535,-4.630112,243.669998,-84.559998,29.889999,1729417726959.0,0.0
-2.455036,-10.526026,-6.393622,278.25,-16.309999,19.74,1729417726979.0,0.0
-3.9338,-11.274981,-6.269196,302.119995,24.43,2.59,1729417726999.0,0.0
-4.790431,-8.700303,-4.728218,242.550003,39.27,12.25,1729417727018.0,0.0
-2.536392,-7.255038,-3.981657,163.800003,28.77,3.64,1729417727038.0,0.0
-2.880959,-9.554541,1.5003,33.529999,68.18,-4.27,1729417727058.0,0.0
-3.503092,-8.279166,2.256432,-112.840004,63.07,-14.14,1729417727079.0,0.0
-2.871387,-9.942179,-2.708675,-170.729996,91.0,-24.639999,1729417727099.0,0.0
-3.117848,-12.433105,-3.177669,-102.970001,67.900002,-21.35,1729417727118.0,0.0
-3.342773,-13.617554,-2.981457,80.080002,51.380001,-0.77,1729417727138.0,0.0
-2.615355,-7.886744,-1.45005,136.639999,74.129997,-9.87,1729417727158.0,0.0
-2.969493,-5.723632,3.273381,74.480003,49.490002,-19.74,1729417727179.0,0.0
-2.419144,-6.881758,1.732404,-28.49,43.259998,-8.33,1729417727199.0,0.0
-1.586441,-6.443871,1.275374,-75.739998,45.290001,-9.87,1729417727218.0,0.0
-1.718047,-4.529613,5.91745,-54.529999,20.51,5.95,1729417727239.0,0.0
-4.304688,-9.013763,4.945964,-101.779999,0.42,-4.06,1729417727259.0,0.0
-5.230711,-12.043077,-0.002393,-159.669998,15.190001,-27.299999,1729417727280.0,0.0
-2.811567,-9.994821,-0.100499,-160.020004,-94.57,-11.83,1729417727300.0,0.0
-0.897308,-8.391629,-0.696311,-172.339996,-164.430008,7.84,1729417727319.0,0.0
-1.380659,-8.315059,-9.95175,-198.940002,-104.790001,-24.639999,1729417727340.0,0.0
-3.87398,-10.535598,-17.654245,-138.949997,19.530001,-53.619999,1729417727367.0,0.0
-6.238089,-11.176874,-15.450456,-46.130001,68.809998,-31.57,1729417727379.0,0.0
-4.797609,-11.428121,-9.408579,35.630001,35.0,2.52,1729417727400.0,0.0
-2.112862,-10.107283,-7.953743,58.170002,31.710001,3.15,1729417727420.0,0.0
-0.722632,-7.128219,-6.537192,52.290001,61.810001,-2.87,1729417727439.0,0.0
-0.631705,-5.582455,-4.709075,27.23,77.279999,-4.2,1729417727459.0,0.0
-0.468993,-5.965307,-5.194818,-11.06,98.489998,-0.91,1729417727484.0,0.0
-1.325624,-7.506285,1.995614,0.07,100.309998,10.08,1729417727501.0,0.0
-4.132405,-9.267403,8.410772,31.43,30.940001,23.1,1729417727519.0,0.0
-2.29711,-8.317451,5.142176,23.59,0.42,0.28,1729417727540.0,0.0
-0.629312,-5.458029,0.844666,-27.719999,-49.279999,-2.17,1729417727559.0,0.0
0.394816,-5.307281,-3.302095,-82.110001,-75.18,-11.13,1729417727580.0,0.0
-0.701097,-6.159126,-6.795617,-114.590004,-87.150002,-6.72,1729417727601.0,0.0
-2.572284,-11.057234,-12.136396,-92.260002,-58.52,-1.75,1729417727620.0,0.0
-6.336195,-15.3691,-12.320643,-63.77,-1.4,4.13,1729417727641.0,0.0
-5.460421,-12.136396,-14.397614,-43.889999,66.290001,5.11,1729417727660.0,0.0
-2.438286,-8.843873,-9.781858,-1.05,39.27,14.14,1729417727680.0,0.0
-0.897308,-8.193025,-6.348158,23.24,16.17,20.440001,1729417727700.0,0.0
-0.674776,-7.77428,-6.704689,10.85,59.080002,6.86,1729417727720.0,0.0
-1.756332,-6.333801,-6.218946,-5.04,100.730003,4.9,1729417727740.0,0.0
-2.622534,-8.666803,-5.182854,11.34,102.059998,4.41,1729417727760.0,0.0
-4.541577,-9.827322,2.658426,14.35,60.34,7.7,1729417727782.0,0.0
-3.06042,-9.090333,4.192225,29.4,-4.2,2.1,1729417727803.0,0.0
-0.289532,-4.704289,1.988436,30.66,-54.110001,-0.49,1729417727821.0,0.0
-0.370888,-2.397608,-0.0335,3.64,-77.349998,-11.27,1729417727843.0,0.0
-1.591227,-5.687739,-5.592027,-148.470001,-52.779999,-40.459999,1729417727861.0,0.0
-2.165504,-8.597411,-10.169496,-219.029999,-68.389999,-66.010002,1729417727882.0,0.0
-2.019542,-10.676775,-12.169895,-143.009995,-119.419998,-15.4,1729417727903.0,0.0
-2.85703,-10.456635,-14.390435,-49.139999,-63.77,4.13,1729417727922.0,0.0
-4.23051,-10.234102,-17.613567,-18.200001,77.489998,1.68,1729417727942.0,0.0
-4.424329,-10.207782,-11.085947,-10.92,89.110001,12.88,1729417727962.0,0.0
-1.79701,-7.905886,-8.738588,38.849998,48.23,27.93,1729417727982.0,0.0
-0.655633,-6.4678,-6.652047,48.16,45.220001,27.58,1729417728002.0,0.0
-1.098306,-6.757331,-5.759524,29.68,63.0,20.16,1729417728021.0,0.0
-1.756332,-8.961121,-4.917251,46.41,96.599998,7.84,1729417728042.0,0.0
-3.61077,-6.678369,1.847259,38.920002,56.77,5.18,1729417728063.0,0.0
-2.56032,-6.008378,3.347559,49.77,-11.62,1.61,1729417728086.0,0.0
-0.648455,-4.761717,-0.239282,21.559999,-45.57,-14.28,1729417728102.0,0.0
-0.799203,-5.163712,-1.052842,-22.540001,-50.330002,-30.24,1729417728121.0,0.0
-1.402194,-8.571091,-4.888536,-98.349998,-59.360001,-62.510002,1729417728141.0,0.0
-1.734797,-6.647261,-7.893922,-144.759995,-94.010002,-75.879997,1729417728161.0,0.0
-1.68694,-3.512664,-10.908878,24.85,-87.360001,-8.47,1729417728182.0,0.0
-4.268795,-8.913264,-12.583855,90.440002,12.53,27.02,1729417728205.0,0.0
-6.089733,-8.879765,-12.471392,-47.599998,88.410004,25.620001,1729417728221.0,0.0
-3.883551,-9.95175,-10.581062,-92.959999,35.700001,21.91,1729417728241.0,0.0
-0.878166,-11.253445,-8.73141,-11.34,-8.61,28.700001,1729417728261.0,0.0
0.323031,-8.898908,-8.16431,61.459999,11.62,20.23,1729417728284.0,0.0
-0.277567,-6.860222,-6.927221,94.989998,66.010002,15.26,1729417728302.0,0.0
-1.098306,-5.702096,-5.338387,61.389999,92.75,6.65,1729417728321.0,0.0
-2.024328,-6.156733,-1.103091,26.460001,57.049999,7.84,1729417728341.0,0.0
-1.718047,-8.549555,1.265803,14.84,2.87,-10.71,1729417728361.0,0.0
-1.617548,-6.632904,0.399601,20.65,-39.34,-7.14,1729417728382.0,0.0
-1.572084,-5.615955,-1.959722,9.45,-33.529999,-30.1,1729417728403.0,0.0
-1.045663,-6.812366,-6.678369,-25.41,-43.330002,-41.650002,1729417728421.0,0.0
-1.512264,-5.134997,-3.955336,-29.120001,-88.129997,-20.58,1729417728441.0,0.0
-1.39023,-5.816952,-8.908479,-46.900002,-94.5,-18.83,1729417728460.0,0.0
-1.931008,-8.683553,-14.47897,-77.559998,-47.18,-14.21,1729417728485.0,0.0
-3.948158,-11.940186,-11.289338,-73.639999,16.799999,3.08,1729417728503.0,0.0
-3.847659,-10.894521,-8.346166,38.779999,39.619999,9.59,1729417728520.0,0.0
-2.22054,-6.896115,-6.419943,105.980003,15.4,15.12,1729417728540.0,0.0
-1.09352,-4.323831,-6.76451,65.029999,8.47,-4.97,1729417728561.0,0.0
-1.251446,-5.029713,-4.790431,-16.24,19.74,-23.940001,1729417728583.0,0.0
-1.502693,-6.759724,-6.02752,-54.599998,35.490002,-35.91,1729417728601.0,0.0
-1.624727,-9.107083,-5.539384,-61.459999,22.120001,-46.619999,1729417728621.0,0.0
-1.567299,-6.101698,-2.651247,-100.449997,-1.61,-41.860001,1729417728640.0,0.0
-0.993021,-4.756931,-2.354537,-119.559998,-28.630001,-44.52,1729417728660.0,0.0
-0.074178,-3.914658,-6.484549,-172.619995,-31.360001,-52.990002,1729417728683.0,0.0
-0.478565,-2.993421,-7.343572,-214.199997,-38.849998,-50.889999,1729417728702.0,0.0
-1.045663,-3.924229,-9.58804,-218.399994,-26.530001,-40.810001,1729417728720.0,0.0
-1.569692,-4.591826,-10.621738,-207.830002,-30.24,-28.42,1729417728743.0,0.0
-1.459622,-5.536992,-10.715059,-143.990005,-24.710001,-14.49,1729417728760.0,0.0
-1.607977,-5.577669,-10.789237,-105.209999,-12.53,-10.71,1729417728782.0,0.0
-2.261217,-5.888737,-8.987441,-76.300003,-4.34,-6.02,1729417728803.0,0.0
-2.129612,-5.548956,-9.525827,-33.529999,-8.4,1.12,1729417728821.0,0.0
-2.014757,-3.972085,-8.666803,8.26,-5.53,5.25,1729417728840.0,0.0
-1.792224,-3.754339,-8.580662,25.200001,5.6,17.5,1729417728861.0,0.0
-1.380659,-5.283352,-8.549555,33.740002,4.83,28.35,1729417728882.0,0.0
-1.61037,-6.020342,-8.874979,53.689999,11.76,37.66,1729417728901.0,0.0
-1.591227,-5.376673,-9.276974,70.769997,16.17,44.450001,1729417728920.0,0.0
-1.153341,-4.299902,-8.315059,69.090004,1.68,45.080002,1729417728940.0,0.0
0.356531,-3.675375,-9.334401,59.010002,-29.049999,40.18,1729417728960.0,0.0
0.705883,-3.938586,-10.262815,23.799999,-42.84,22.26,1729417729043.0,0.0
0.052642,-4.888536,-9.903893,-20.51,-27.299999,2.66,1729417729046.0,0.0
-1.627119,-6.178268,-9.454042,-53.27,19.110001,-20.02,1729417729047.0,0.0
-2.462214,-5.809773,-10.186246,-31.219999,28.49,-28.0,1729417729047.0,0.0
-2.409572,-4.287938,-9.276974,-1.47,11.55,-22.4,1729417729060.0,0.0
-2.691926,-3.663411,-8.956335,-7.63,7.07,-18.129999,1729417729081.0,0.0
-3.227918,-4.311867,-7.779066,-10.01,10.57,-19.530001,1729417729102.0,0.0
-3.141776,-3.591627,-8.69791,4.27,7.07,-3.36,1729417729120.0,0.0
-1.78026,-2.11047,-8.941978,21.98,1.82,16.73,1729417729140.0,0.0
-1.256232,-3.452843,-9.468399,19.32,1.4,23.799999,1729417729160.0,0.0
-2.160719,-6.135197,-8.547162,5.53,15.61,26.950001,1729417729181.0,0.0
-1.651048,-4.692325,-8.183454,21.0,14.0,24.290001,1729417729201.0,0.0
-1.009771,-2.952743,-7.568498,45.220001,-12.39,31.43,1729417729220.0,0.0
-0.088534,-2.711068,-8.571091,3.99,-24.290001,11.2,1729417729240.0,0.0
-1.552942,-6.881758,-9.355937,-53.41,-16.24,-14.21,1729417729260.0,0.0
-2.457429,-8.630912,-9.640682,-67.199997,8.68,-36.889999,1729417729282.0,0.0
-2.510071,-5.682954,-9.224331,-15.75,7.7,-22.82,1729417729301.0,0.0
-1.942972,-3.002992,-8.372486,23.870001,-1.61,-17.710001,1729417729320.0,0.0
-2.885744,-4.237689,-7.920243,2.38,6.02,-24.780001,1729417729340.0,0.0
-3.038885,-3.962514,-8.84148,-2.52,11.69,-17.219999,1729417729360.0,0.0
-1.538585,-1.651048,-9.970891,12.18,1.54,9.31,1729417729381.0,0.0
-0.404387,-2.931208,-10.645668,9.52,-2.1,22.33,1729417729408.0,0.0
-0.90688,-4.898108,-10.260423,3.43,20.16,25.83,1729417729420.0,0.0
-1.684547,-4.886144,-8.953942,22.75,32.619999,26.18,1729417729441.0,0.0
-1.962115,-3.775874,-6.573084,39.549999,13.65,33.32,1729417729460.0,0.0
-0.818345,-3.716053,-7.369894,17.15,-8.61,20.370001,1729417729484.0,0.0
-1.962115,-8.563912,-8.078169,-32.130001,-17.43,-10.78,1729417729501.0,0.0
-2.414358,-8.099705,-8.803195,-39.830002,5.04,-36.610001,1729417729521.0,0.0
-1.773082,-4.366901,-9.107083,13.93,-5.32,-25.48,1729417729540.0,0.0
-1.495514,-2.100898,-9.183653,32.689999,-6.65,-17.5,1729417729560.0,0.0
-2.354537,-3.56052,-8.949157,17.08,-0.21,-20.23,1729417729583.0,0.0
-2.514857,-2.895315,-9.49472,-1.68,9.52,-10.01,1729417729601.0,0.0
-0.835095,-2.0004,-10.214959,3.15,-5.04,14.42,1729417729620.0,0.0
0.083749,-3.924229,-10.96152,-5.32,-10.92,18.549999,1729417729640.0,0.0
-0.995414,-6.049056,-10.174281,-5.6,23.379999,23.309999,1729417729660.0,0.0
-1.777867,-5.699703,-8.334201,27.370001,43.75,19.32,1729417729682.0,0.0
-2.428715,-3.826123,-5.98445,50.540001,23.799999,27.440001,1729417729705.0,0.0
-1.282553,-4.388437,-6.410372,28.07,-3.57,15.33,1729417729724.0,0.0
-2.316252,-8.453842,-6.053841,-36.330002,-24.08,-15.54,1729417729743.0,0.0
-2.620141,-8.829515,-8.427521,-57.260002,1.75,-41.580002,1729417729763.0,0.0
-1.928615,-3.725625,-9.556933,-11.48,-13.02,-30.799999,1729417729785.0,0.0
-1.931008,-2.368894,-9.109475,35.98,-12.74,-18.129999,1729417729804.0,0.0
-2.957529,-2.866602,-9.176475,18.83,4.06,-14.91,1729417729824.0,0.0
-2.641676,-1.844866,-10.995021,-8.33,18.34,-6.58,1729417729843.0,0.0
-0.583849,-2.876173,-11.394621,-2.73,-14.49,15.33,1729417729864.0,0.0
0.727418,-4.945964,-11.751152,-13.09,-13.79,17.43,1729417729884.0,0.0
-0.200997,-6.367301,-10.425529,1.54,28.84,24.360001,1729417729902.0,0.0
-1.701297,-6.228518,-7.951349,41.720001,60.760002,18.690001,1729417729924.0,0.0
-3.321238,-3.792624,-5.704489,59.080002,66.360001,22.33,1729417729942.0,0.0
-3.256632,-3.129812,-5.118248,49.490002,32.200001,23.799999,1729417729963.0,0.0
-1.217947,-4.292724,-7.467999,8.75,-12.04,19.110001,1729417729984.0,0.0
0.361316,-6.367301,-8.571091,-13.65,-48.650002,11.2,1729417730003.0,0.0
0.722632,-7.776673,-7.63789,-34.509998,-43.82,-1.26,1729417730021.0,0.0
-1.607977,-8.140383,-5.04407,-30.030001,-9.52,-17.780001,1729417730043.0,0.0
-3.574877,-6.4343,-8.338986,10.99,46.34,-31.710001,1729417730063.0,0.0
-3.940979,-2.813959,-9.839286,30.799999,26.25,-24.5,1729417730084.0,0.0
-2.227718,-1.770689,-9.741181,-23.24,-44.380001,-9.8,1729417730104.0,0.0
0.87338,-7.176075,-10.497313,-84.629997,-72.169998,-19.460001,1729417730126.0,0.0
1.105484,-8.059027,-8.865408,-87.779999,-21.0,-46.830002,1729417730143.0,0.0
-1.502693,-7.881958,-7.355537,-7.07,14.77,-35.0,1729417730163.0,0.0
-2.828316,-2.95035,-7.984849,37.939999,39.759998,-39.34,1729417730183.0,0.0
-4.663611,-0.693919,-10.475778,24.08,37.450001,-21.280001,1729417730203.0,0.0
-4.235296,-1.28016,-10.023535,-12.74,13.3,-9.8,1729417730222.0,0.0
-1.868794,-3.613162,-9.394222,-4.06,-26.530001,15.05,1729417730242.0,0.0
0.191426,-5.508278,-8.640482,10.64,-41.650002,13.65,1729417730262.0,0.0
0.155533,-6.171089,-9.755538,-5.53,-2.45,14.7,1729417730285.0,0.0
-0.612563,-7.408179,-10.896914,22.540001,32.619999,5.32,1729417730304.0,0.0
-1.040878,-6.314659,-10.001998,59.920002,32.900002,5.25,1729417730322.0,0.0
-0.772882,-4.945964,-9.664611,89.739998,21.0,4.76,1729417730342.0,0.0
-0.825524,-4.783253,-8.267202,100.730003,18.9,5.18,1729417730362.0,0.0
-1.064806,-5.474778,-7.530212,102.199997,24.290001,5.39,1729417730383.0,0.0
-0.830309,-5.268995,-8.482556,100.730003,23.870001,5.18,1729417730402.0,0.0
-0.918844,-5.123034,-9.035298,118.160004,18.129999,19.460001,1729417730422.0,0.0
-1.349552,-6.053841,-6.996613,129.009995,32.970001,14.84,1729417730441.0,0.0
-2.402394,-7.633104,-6.65444,122.290001,59.150002,12.81,1729417730461.0,0.0
-2.325824,-8.128418,-6.788438,114.800003,38.150002,6.51,1729417730487.0,0.0
-1.509871,-7.886744,-6.520442,114.590004,8.89,11.41,1729417730502.0,0.0
-0.62692,-7.180861,-5.74756,126.629997,-13.58,18.9,1729417730521.0,0.0
-0.150748,-7.123433,-3.998406,145.669998,-17.99,28.630001,1729417730542.0,0.0
-0.098106,-7.805387,-3.838088,192.990005,-12.53,37.380001,1729417730562.0,0.0
-0.059821,-10.382458,-4.893322,288.890015,-4.62,38.220001,1729417730584.0,0.0
-0.741775,-10.025927,-4.457829,371.350006,19.67,49.700001,1729417730603.0,0.0
-1.643869,-8.305488,-3.421736,431.76001,27.58,56.91,1729417730627.0,0.0
-1.768296,-7.475177,-1.679761,452.480011,34.720001,71.190002,1729417730640.0,0.0
-0.875773,-3.160919,-1.928615,427.48999,23.73,72.379997,1729417730664.0,0.0
-4.893322,-3.538985,9.152546,306.25,42.700001,97.650002,1729417730683.0,0.0
-5.718846,-7.152147,3.098706,3.71,29.049999,4.2,1729417730704.0,0.0
-5.008178,-17.44607,-2.395216,-53.48,19.67,-1.19,1729417730722.0,0.0
-1.708475,-10.353743,-1.880759,1.19,-22.68,15.47,1729417730741.0,0.0
-1.339981,-6.876972,1.722832,33.25,5.6,44.59,1729417730761.0,0.0
-1.588834,-8.300702,2.526821,-63.560001,7.77,-5.18,1729417730783.0,0.0
-2.502892,-11.796617,0.464208,-165.830002,-6.09,-26.460001,1729417730802.0,0.0
-2.557927,-11.614761,-2.124826,-209.789993,-4.48,-20.299999,1729417730821.0,0.0
-2.76371,-10.516455,-1.600798,-189.839996,0.56,-10.71,1729417730842.0,0.0
-2.682354,-9.202796,0.212961,-193.410004,-13.58,-10.78,1729417730861.0,0.0
-2.033899,-7.092326,-1.591227,-247.240005,-29.960001,-31.85,1729417730882.0,0.0
-2.304288,-7.195218,-1.878366,-329.0,-18.41,-62.720001,1729417730903.0,0.0
-2.821138,-8.985049,-5.374279,-419.160004,3.64,-101.919998,1729417730922.0,0.0
-2.56032,-12.318252,-9.363115,-387.799988,24.5,-103.879997,1729417730941.0,0.0
-2.945565,-9.678967,-6.503692,-288.820007,-20.719999,-73.779999,1729417730962.0,0.0
-1.823331,-9.382257,-3.993621,-197.680008,-55.790001,-57.400002,1729417730985.0,0.0
-0.308674,-7.372287,-7.372287,-196.0,-53.34,-61.529999,1729417731005.0,0.0
-0.409173,-5.328816,-6.809973,-164.360001,-11.76,-51.450001,1729417731022.0,0.0
-1.37348,-6.403193,-6.63769,-115.220001,4.69,-47.950001,1729417731044.0,0.0
-1.272982,-7.518249,-8.214561,-115.150002,15.82,-50.889999,1729417731061.0,0.0
-2.22054,-5.455636,-7.02772,-124.529999,-5.39,-42.77,1729417731084.0,0.0
-1.682154,-5.395815,-7.556533,-101.43,-11.9,-42.560001,1729417731102.0,0.0
-1.17009,-5.182854,-9.188439,-94.919998,-8.47,-40.599998,1729417731121.0,0.0
-1.332802,-4.589434,-9.303294,-110.32,-4.2,-43.889999,1729417731141.0,0.0
-1.521835,-4.627719,-9.420543,-121.520004,-10.29,-41.02,1729417731161.0,0.0
-1.48355,-4.182654,-7.846066,-102.900002,-14.28,-24.780001,1729417731183.0,0.0
-0.471386,-3.314059,-8.705089,-65.660004,-13.09,-8.96,1729417731202.0,0.0
-0.208176,-1.529014,-12.028719,-61.32,-0.14,-10.5,1729417731221.0,0.0
-2.244468,-1.284946,-9.109475,-65.099998,-7.98,-1.12,1729417731242.0,0.0
-1.414158,-2.476572,-7.551748,-52.639999,-46.830002,9.03,1729417731261.0,0.0
-0.535992,-3.960121,-8.303094,-23.24,-23.309999,7.7,1729417731284.0,0.0
-2.392823,-3.864408,-5.778666,-16.24,3.57,16.66,1729417731302.0,0.0
-2.129612,-4.584648,-9.45165,-9.52,11.48,23.73,1729417731321.0,0.0
-1.337588,-1.117448,-7.673782,-25.41,11.48,11.48,1729417731342.0,0.0
-0.892523,-2.986243,-11.921042,-35.0,-1.26,22.26,1729417731361.0,0.0
-1.787439,-2.196611,-10.894521,-52.709999,-9.31,18.27,1729417731382.0,0.0
-0.971486,-2.991028,-10.066606,-18.48,-18.059999,23.870001,1729417731401.0,0.0
-2.031506,-3.785445,-9.224331,-6.37,-12.46,28.91,1729417731420.0,0.0
-1.914258,-3.795017,-9.578469,-2.87,-6.3,15.4,1729417731441.0,0.0
-1.828116,-4.232903,-10.794022,17.710001,-11.76,25.129999,1729417731460.0,0.0
-1.122234,-5.053641,-11.631511,32.759998,-19.67,25.620001,1729417731485.0,0.0
-0.729811,-3.751946,-11.01177,41.439999,-9.52,19.809999,1729417731502.0,0.0
-0.81356,-2.457429,-9.79143,50.400002,-0.56,16.73,1729417731520.0,0.0
-1.371087,-2.069792,-10.356135,48.23,7.7,12.18,1729417731540.0,0.0
-1.825724,-3.416951,-10.234102,57.400002,12.25,2.87,1729417731562.0,0.0
-2.179861,-4.656433,-9.52822,86.099998,-2.45,9.17,1729417731583.0,0.0
-2.203789,-5.278566,-8.903693,133.630005,-17.639999,16.52,1729417731601.0,0.0
-2.167897,-4.936393,-7.771888,186.339996,-38.360001,23.1,1729417731621.0,0.0
-2.069792,-3.507878,-6.400801,200.410004,-56.700001,25.129999,1729417731640.0,0.0
-1.567299,-2.617748,-4.599005,161.350006,-65.519997,23.379999,1729417731660.0,0.0
-0.636491,-3.876373,-5.340781,90.650002,-60.200001,10.85,1729417731684.0,0.0
-0.856631,-7.082755,-7.970492,34.09,-19.74,-6.51,1729417731702.0,0.0
-1.124627,-8.209774,-8.956335,-10.22,-7.07,-9.38,1729417731720.0,0.0
-1.11027,-5.4341,-9.219545,-13.58,-6.51,11.27,1729417731742.0,0.0
-0.514457,-4.388437,-9.51147,-25.690001,2.52,11.2,1729417731760.0,0.0
-0.174676,-4.409972,-10.073784,-42.84,31.99,5.25,1729417731781.0,0.0
-1.519442,-4.333402,-7.125826,-59.010002,50.75,2.8,1729417731803.0,0.0
-2.179861,-4.666004,-6.281159,-107.940002,66.709999,-22.82,1729417731820.0,0.0
-3.876373,-4.850252,-4.280759,-170.029999,62.16,-42.490002,1729417731840.0,0.0
-5.534599,-6.336195,-10.497313,-223.649994,44.869999,-67.830002,1729417731861.0,0.0
-4.709075,-8.12124,-14.373686,-169.330002,6.44,-94.919998,1729417731882.0,0.0
-2.084148,-5.266603,-14.045869,-70.419998,-66.150002,-42.420002,1729417731901.0,0.0
0.244068,-3.883551,-9.365508,12.6,-62.510002,-30.24,1729417731921.0,0.0
-1.105484,-3.089134,-7.755138,0.07,-1.19,-19.040001,1729417731940.0,0.0
-2.65364,-2.955136,-6.941578,8.68,54.529999,-33.32,1729417731960.0,0.0
-3.110669,-2.675175,-8.946764,1.54,30.66,-22.190001,1729417731982.0,0.0
-1.847259,-3.141776,-10.767702,-0.77,-5.25,-21.700001,1729417732002.0,0.0
-1.347159,-3.48395,-10.162319,1.47,-6.23,-11.83,1729417732020.0,0.0
-1.088734,-3.881158,-9.851252,21.280001,4.55,-9.73,1729417732041.0,0.0
-1.174876,-3.87398,-8.039884,34.299999,11.2,-5.18,1729417732061.0,0.0
-1.292124,-3.828516,-8.977871,32.549999,8.19,-4.34,1729417732081.0,0.0
-1.509871,-4.632504,-10.985448,19.950001,12.53,-12.25,1729417732102.0,0.0
-1.981257,-5.15414,-7.886744,28.280001,6.16,-2.59,1729417732120.0,0.0
-1.57687,-3.404987,-6.9009,37.099998,-16.379999,0.84,1729417732141.0,0.0
-1.241875,-3.778267,-9.399008,52.920002,-9.87,-2.87,1729417732162.0,0.0
-1.607977,-3.608376,-9.06162,54.670002,6.51,1.05,1729417732182.0,0.0
-2.06022,-3.469593,-8.733803,48.650002,10.5,10.71,1729417732201.0,0.0
-1.734797,-4.438686,-9.626326,44.240002,9.73,12.39,1729417732221.0,0.0
-1.153341,-5.563312,-9.456435,66.080002,1.54,6.72,1729417732241.0,0.0
-1.062413,-5.285746,-8.114061,76.019997,-3.78,7.91,1729417732260.0,0.0
-0.930808,-5.295317,-8.664411,78.82,-4.76,1.61,1729417732282.0,0.0
-0.98345,-6.262017,-8.070991,89.389999,-1.12,-2.73,1729417732301.0,0.0
-1.246661,-7.491928,-7.678568,122.5,-1.47,2.52,1729417732320.0,0.0
-1.205983,-7.752745,-7.207181,177.660004,-5.6,3.57,1729417732340.0,0.0
-1.76351,-6.625726,-7.142576,226.100006,-5.74,16.940001,1729417732360.0,0.0
-1.861616,-4.797609,-7.956135,215.600006,-2.45,9.87,1729417732381.0,0.0
-2.679961,-7.369894,-6.994221,195.930008,-8.96,23.17,1729417732402.0,0.0
-2.871387,-10.963913,-5.752346,245.910004,-51.029999,29.469999,1729417732420.0,0.0
-1.359123,-8.853443,-6.491727,292.600006,-51.799999,25.549999,1729417732440.0,0.0
-1.95015,-6.106483,-6.226124,274.610016,-15.33,19.32,1729417732461.0,0.0
-4.565506,-7.133004,-4.235296,200.759995,-1.61,13.23,1729417732484.0,0.0
-1.993221,-10.303494,-2.78046,173.460007,-50.049999,36.540001,1729417732502.0,0.0
-2.526821,-9.41815,-3.48395,185.289993,11.34,15.4,1729417732520.0,0.0
-3.921836,-9.360723,-4.577469,162.75,72.239998,-12.18,1729417732540.0,0.0
-3.84048,-10.222138,-2.98385,67.620003,80.150002,-11.2,1729417732560.0,0.0
-4.165904,-10.176675,1.387837,-29.049999,53.48,-7.35,1729417732584.0,0.0
-2.512464,-8.975478,0.586242,-106.68,47.599998,-14.7,1729417732604.0,0.0
-1.562513,-9.817751,-2.143969,-102.340004,34.580002,-6.3,1729417732620.0,0.0
-2.696711,-12.425928,-2.132005,4.97,41.299999,-9.87,1729417732640.0,0.0
-3.266203,-10.518847,-2.689533,110.809998,70.07,-17.219999,1729417732660.0,0.0
-2.514857,-6.996613,-0.37328,53.689999,65.379997,-25.48,1729417732681.0,0.0
-0.66999,-8.228917,-0.815953,-55.510002,37.240002,-20.16,1729417732702.0,0.0
-1.237089,-10.08814,-1.366302,-70.840004,55.02,-8.89,1729417732722.0,0.0
-2.457429,-8.903693,0.894916,-31.92,68.879997,-23.799999,1729417732740.0,0.0
-1.782653,-7.085148,3.761517,-23.799999,32.48,-17.780001,1729417732760.0,0.0
-0.861416,-5.618347,4.725825,-28.139999,-12.11,-1.4,1729417732782.0,0.0
-2.720639,-6.78126,5.230711,-50.189999,-15.190001,-0.77,1729417732801.0,0.0
-3.184847,-10.047462,1.174876,-111.440002,-19.18,-8.89,1729417732822.0,0.0
-1.198804,-8.456236,-0.181855,-114.379997,-86.029999,3.08,1729417732840.0,0.0
-0.31346,-7.424929,-3.266203,-135.240005,-120.82,12.81,1729417732860.0,0.0
-2.179861,-9.750752,-11.389835,-165.479996,-83.860001,-8.61,1729417732882.0,0.0
-4.476971,-13.351951,-19.487146,-131.669998,26.040001,-45.360001,1729417732901.0,0.0
-6.063413,-10.427922,-13.964513,-25.27,48.439999,-15.05,1729417732920.0,0.0
-2.222932,-8.853443,-6.065805,67.340004,4.97,18.200001,1729417732940.0,0.0
-0.277567,-8.501699,-5.907879,14.7,32.060001,5.18,1729417732960.0,0.0
-0.416351,-8.542377,-5.663811,-4.06,72.730003,4.69,1729417732980.0,0.0
-1.074377,-7.707282,-4.608576,7.14,88.900002,3.43,1729417733001.0,0.0
-0.595813,-7.848458,-3.65384,14.14,92.889999,10.85,1729417733020.0,0.0
-2.055435,-7.345965,3.668197,8.89,58.939999,18.83,1729417733040.0,0.0
-2.754139,-7.391429,6.625726,8.05,12.6,21.629999,1729417733061.0,0.0
-1.832902,-7.609176,2.043471,-5.74,-13.93,16.1,1729417733080.0,0.0
-3.074777,-8.776874,0.090927,-59.290001,-15.54,-2.94,1729417733101.0,0.0
-2.919244,-9.102298,-3.902694,-115.220001,-37.380001,-22.469999,1729417733120.0,0.0
-1.031307,-8.379664,-6.848258,-110.599998,-86.169998,-35.0,1729417733140.0,0.0
-1.349552,-7.068398,-6.257231,-93.800003,-100.239998,-18.83,1729417733159.0,0.0
-1.586441,-6.704689,-9.848858,-94.849998,-56.07,-13.3,1729417733182.0,0.0
-2.9336,-6.74776,-9.54497,-54.459999,-13.72,11.34,1729417733201.0,0.0
-2.979064,-7.034898,-9.300901,-55.580002,31.710001,22.049999,1729417733221.0,0.0
-3.158526,-11.679367,-10.612168,-84.559998,31.08,23.870001,1729417733241.0,0.0
-3.553342,-14.244473,-9.004191,-67.550003,17.710001,10.01,1729417733260.0,0.0
-2.979064,-9.891929,-8.020741,7.56,31.5,6.16,1729417733282.0,0.0
-2.005185,-5.266603,-7.834101,64.68,48.439999,7.84,1729417733301.0,0.0
-1.507478,-5.54417,-7.575676,38.57,47.810001,-6.3,1729417733320.0,0.0
-2.237289,-8.037491,-4.09412,-25.620001,45.150002,-3.92,1729417733340.0,0.0
-2.457429,-9.824929,-1.940579,-32.830002,19.879999,-15.33,1729417733360.0,0.0
-1.562513,-8.123632,-0.239282,8.4,-10.64,-18.41,1729417733380.0,0.0
-0.619741,-3.864408,0.459422,18.200001,-31.710001,-16.450001,1729417733401.0,0.0
-0.349352,-3.002992,-1.938186,-14.07,-37.450001,-13.16,1729417733420.0,0.0
-0.658026,-7.436893,-6.522834,-82.739998,-31.01,-30.380001,1729417733440.0,0.0
-2.321038,-10.212566,-4.551149,-112.699997,-47.110001,-34.580002,1729417733459.0,0.0
-1.493121,-5.970093,-7.441679,-52.5,-85.400002,-26.809999,1729417733484.0,0.0
-2.352145,-4.259224,-9.449257,-8.19,-74.340004,-9.38,1729417733502.0,0.0
-3.888337,-7.255038,-13.306486,-41.720001,-17.5,-7.84,1729417733520.0,0.0
-4.811966,-11.210374,-14.481362,-60.41,24.92,-8.75,1729417733541.0,0.0
-2.988636,-10.162319,-10.794022,-23.66,15.54,-0.84,1729417733559.0,0.0
-0.930808,-7.211967,-8.628519,56.630001,1.47,19.809999,1729417733580.0,0.0
-1.071985,-5.213961,-7.908278,58.59,31.08,23.450001,1729417733601.0,0.0
-2.143969,-7.601997,-9.193225,10.78,70.629997,-0.35,1729417733619.0,0.0
-2.718246,-9.006584,-7.975278,17.639999,92.68,-1.82,1729417733638.0,0.0
-1.488336,-8.408379,-5.431707,62.93,57.189999,2.31,1729417733660.0,0.0
-0.81356,-7.666604,-0.803988,76.720001,19.74,4.34,1729417733680.0,0.0
-0.533599,-4.012764,2.689533,39.41,-7.77,-6.37,1729417733700.0,0.0
-0.949951,-3.194418,1.009771,10.78,-23.24,-2.87,1729417733720.0,0.0
-1.012164,-6.788438,-4.237689,-41.16,-9.17,-31.57,1729417733739.0,0.0
-2.682354,-7.666604,-4.807181,-95.830002,-28.07,-43.889999,1729417733759.0,0.0
-2.311467,-5.515456,-6.71426,-55.510002,-82.529999,-29.4,1729417733780.0,0.0
-1.191626,-4.352544,-10.327423,-5.6,-92.540001,-12.25,1729417733800.0,0.0
-3.134598,-10.15514,-14.194223,-1.75,-42.139999,7.77,1729417733819.0,0.0
-4.596612,-12.602997,-12.502499,-70.209999,73.290001,-3.08,1729417733840.0,0.0
-2.567499,-10.286745,-8.678767,7.91,31.92,6.37,1729417733859.0,0.0
-0.311067,-5.15414,-8.269595,84.209999,3.29,26.18,1729417733880.0,0.0
0.555135,-5.60399,-6.860222,92.400002,14.49,19.809999,1729417733902.0,0.0
0.399601,-6.419943,-6.982256,36.540001,56.490002,17.85,1729417733919.0,0.0
-0.612563,-7.121039,-5.735595,23.66,89.459999,21.07,1729417733939.0,0.0
-1.418944,-7.599605,-1.698904,45.990002,74.340004,24.08,1729417733960.0,0.0
-1.40698,-5.649454,0.72024,78.68,18.41,32.200001,1729417734036.0,0.0
-1.447658,-3.962514,0.370888,75.459999,-14.98,32.48,1729417734053.0,0.0
-2.816352,-5.766702,-2.962314,-37.029999,14.84,10.43,1729417734055.0,0.0
-2.742175,-9.126225,-6.171089,-102.199997,17.57,-20.23,1729417734055.0,0.0
-1.646262,-10.442278,-7.025328,-50.049999,-68.599998,-12.67,1729417734066.0,0.0
-0.193819,-7.183254,-6.709475,-1.05,-96.25,-7.91,1729417734083.0,0.0
-2.316252,-7.728817,-9.444471,-8.4,-59.5,-7.42,1729417734100.0,0.0
-5.146961,-11.117055,-15.201601,-28.84,44.310001,-27.65,1729417734119.0,0.0
-6.76451,-10.877771,-13.447663,-13.23,77.769997,-17.290001,1729417734140.0,0.0
-1.251446,-7.9681,-7.783852,82.110001,13.79,4.97,1729417734160.0,0.0
0.210568,-5.343173,-7.295716,79.590004,3.5,14.14,1729417734181.0,0.0
-0.021535,-4.936393,-6.613762,41.860001,56.279999,9.52,1729417734201.0,0.0
-0.866202,-6.793223,-6.400801,16.940001,100.379997,6.51,1729417734221.0,0.0
-2.273181,-6.78126,-0.820738,19.32,88.970001,14.21,1729417734240.0,0.0
-2.18704,-6.786045,3.778267,43.119999,23.940001,18.129999,1729417734262.0,0.0
-1.332802,-5.041678,2.191825,22.68,-35.91,29.610001,1729417734280.0,0.0
-1.59362,-7.276574,-1.40698,-20.370001,-29.049999,6.02,1729417734306.0,0.0
-2.258825,-10.092925,-3.661019,-75.040001,-14.98,-28.07,1729417734319.0,0.0
-1.639083,-8.173882,-5.771489,-57.330002,-80.150002,-25.9,1729417734339.0,0.0
0.090927,-4.898108,-9.798609,-37.869999,-104.790001,-15.54,1729417734359.0,0.0
-1.045663,-8.200203,-13.205987,8.68,-71.68,12.11,1729417734380.0,0.0
-3.598805,-11.241481,-12.272788,-25.34,31.639999,5.11,1729417734402.0,0.0
-5.996413,-11.624333,-12.272788,-73.150002,80.639999,-10.57,1729417734420.0,0.0
-4.59422,-8.939585,-9.789038,-8.4,37.52,-2.1,1729417734439.0,0.0
-1.715654,-7.357929,-8.891729,70.139999,11.13,-0.98,1729417734460.0,0.0
-0.495314,-4.917251,-7.070791,69.370003,39.689999,11.55,1729417734484.0,0.0
-1.387837,-6.699903,-1.859223,12.25,62.510002,3.78,1729417734502.0,0.0
-2.158326,-9.805787,0.050249,8.47,41.23,-2.45,1729417734519.0,0.0
-1.414158,-5.455636,1.497907,-12.6,-0.21,-13.09,1729417734539.0,0.0
-0.808774,-4.438686,0.81356,6.3,-35.209999,3.99,1729417734560.0,0.0
0.555135,-6.680761,-3.428915,-33.810001,-37.52,-16.1,1729417734580.0,0.0
-0.33021,-9.975677,-4.352544,-81.129997,-50.330002,-25.620001,1729417734600.0,0.0
-1.478764,-8.772088,-5.879165,-98.279999,-71.959999,-30.309999,1729417734619.0,0.0
-1.497907,-7.822137,-13.270595,-51.869999,-57.049999,-18.34,1729417734642.0,0.0
-3.728018,-10.363315,-14.098512,-4.2,-12.74,-9.94,1729417734659.0,0.0
-3.792624,-9.547362,-9.470792,-7.0,64.610001,-6.09,1729417734752.0,0.0
-0.51685,-5.000999,-8.712267,36.330002,31.01,-9.24,1729417734752.0,0.0
0.897308,-3.378666,-7.384251,76.860001,-8.26,8.96,1729417734753.0,0.0
0.658026,-5.673382,-5.414958,-6.51,51.240002,2.03,1729417734887.0,0.0
-1.246661,-6.305088,1.567299,-7.63,61.529999,6.3,1729417734888.0,0.0
-2.184647,-7.171289,2.65364,40.110001,13.02,16.309999,1729417734888.0,0.0
-1.526621,-7.936993,-1.225125,3.57,-6.51,-10.36,1729417734888.0,0.0
-1.227518,-8.382057,-5.627919,-44.170002,-48.580002,-32.27,1729417734888.0,0.0
0.650848,-5.036892,-9.095119,-21.280001,-82.739998,-30.66,1729417734889.0,0.0
0.370888,-3.955336,-9.260223,30.17,-91.629997,1.75,1729417734889.0,0.0
-2.024328,-8.386844,-12.454641,34.860001,-28.139999,20.23,1729417734900.0,0.0
-6.058627,-13.263416,-15.101105,-70.910004,92.260002,-5.39,1729417734919.0,0.0
-7.759924,-14.187045,-13.646267,-76.230003,94.919998,-16.59,1729417734938.0,0.0
-2.275574,-7.709675,-11.097912,88.059998,35.07,14.0,1729417734958.0,0.0
0.55992,-5.974878,-8.051848,160.369995,20.860001,16.030001,1729417734979.0,0.0
1.495514,-4.606184,-6.156733,97.510002,63.91,16.799999,1729417735000.0,0.0
0.488136,-5.333601,-0.308674,48.02,102.340004,18.549999,1729417735018.0,0.0
-1.600798,-6.601797,1.70369,46.34,93.029999,24.57,1729417735038.0,0.0
-1.189233,-7.508677,1.143769,80.220001,61.459999,11.27,1729417735058.0,0.0
-0.636491,-7.398607,1.414158,82.25,0.77,8.61,1729417735078.0,0.0
-0.253639,-5.474778,0.837488,40.110001,-42.349998,5.39,1729417735099.0,0.0
0.064606,-6.063413,-0.870987,-13.79,-73.989998,-3.08,1729417735118.0,0.0
-1.526621,-8.592626,-0.849452,-29.75,-95.059998,-7.14,1729417735138.0,0.0
-2.579463,-10.480563,-13.57209,-78.889999,-83.019997,-27.440001,1729417735158.0,0.0
-4.4339,-11.162518,-15.026926,-71.889999,-35.279999,-10.43,1729417735178.0,0.0
-4.558327,-11.009377,-12.25843,-14.35,16.59,-2.94,1729417735199.0,0.0
-2.756532,-11.428121,-8.755339,46.200001,8.26,9.03,1729417735225.0,0.0
-1.550549,-7.956135,-8.169096,43.959999,29.960001,10.15,1729417735238.0,0.0
-0.4666,-5.757132,-9.085547,31.219999,58.450001,4.9,1729417735257.0,0.0
-0.315853,-6.161518,-5.347959,12.11,64.400002,8.96,1729417735280.0,0.0
-2.177469,-5.716454,5.465207,-1.89,58.52,15.4,1729417735298.0,0.0
-1.533799,-6.482157,5.273781,62.299999,-3.22,37.310001,1729417735319.0,0.0
-0.961915,-6.833901,4.319045,41.369999,-24.780001,20.860001,1729417735338.0,0.0
-1.447658,-9.769895,-0.512064,-23.66,-32.130001,-0.42,1729417735358.0,0.0
-1.454836,-11.217552,-4.902894,-64.889999,-59.57,-35.279999,1729417735381.0,0.0
-0.528814,-7.264609,-7.79103,-31.5,-105.279999,-20.719999,1729417735402.0,0.0
0.253639,-6.407979,-13.569696,62.369999,-93.379997,29.540001,1729417735424.0,0.0
-1.923829,-8.377272,-10.746166,73.57,-27.860001,46.060001,1729417735440.0,0.0
-4.948357,-12.741781,-11.023734,7.63,110.110001,24.710001,1729417735460.0,0.0
-5.556134,-13.117454,-6.477371,118.160004,57.189999,42.560001,1729417735483.0,0.0
-2.344966,-8.650054,-3.146562,202.789993,14.14,48.93,1729417735501.0,0.0
-1.722832,-8.796017,-0.87338,205.100006,9.66,37.170002,1729417735523.0,0.0
-3.096312,-11.062018,0.189033,195.509995,45.290001,19.74,1729417735540.0,0.0
-3.251846,-11.260624,-1.074377,211.75,69.93,9.24,1729417735560.0,0.0
-3.055635,-10.880164,-0.401994,259.070007,40.880001,28.49,1729417735581.0,0.0
-2.038685,-9.863215,1.782653,298.76001,6.51,37.029999,1729417735601.0,0.0
-1.464408,-7.01097,2.85703,283.920013,-13.86,44.099998,1729417735628.0,0.0
-0.756132,-6.355337,1.995614,222.809998,-10.71,38.639999,1729417735644.0,0.0
-0.349352,-7.580462,0.09332,147.490005,1.89,12.18,1729417735661.0,0.0
-0.928415,-11.686546,0.09332,135.309998,21.42,1.68,1729417735681.0,0.0
-1.773082,-13.134203,2.569891,171.360001,25.9,-18.549999,1729417735703.0,0.0
-2.730211,-7.802995,4.017549,223.790009,26.6,1.12,1729417735721.0,0.0
-3.65384,-7.429714,2.938386,229.25,17.5,32.830002,1729417735742.0,0.0
-2.734996,-9.142976,1.808974,122.779999,23.309999,-1.75,1729417735761.0,0.0
-2.720639,-8.059027,2.29711,134.889999,27.23,-3.57,1729417735784.0,0.0
-2.964707,-5.491528,3.323631,123.480003,44.869999,-3.92,1729417735802.0,0.0
-2.900101,-5.257031,4.194618,80.150002,36.82,-4.62,1729417735822.0,0.0
-2.689533,-7.719246,4.931608,66.360001,33.110001,-7.91,1729417735842.0,0.0
-3.574877,-8.389235,5.905487,89.809998,49.91,-4.76,1729417735861.0,0.0
-4.701896,-7.628319,6.099305,110.809998,59.5,9.38,1729417735883.0,0.0
-4.890929,-7.252645,6.297909,126.349998,37.380001,12.46,1729417735902.0,0.0
-4.15394,-5.003392,7.147361,138.809998,15.54,11.76,1729417735921.0,0.0
-3.550949,-5.773881,5.761917,119.840004,10.5,8.26,1729417735945.0,0.0
-3.110669,-5.623133,5.362316,92.959999,19.67,5.04,1729417735961.0,0.0
-3.625126,-8.260024,4.579862,66.639999,36.959999,-2.94,1729417735983.0,0.0
-4.316652,-8.276773,4.756931,61.040001,53.060001,-10.43,1729417736004.0,0.0
-4.67079,-5.302495,6.400801,99.050003,44.310001,-5.74,1729417736021.0,0.0
-5.12782,-3.893122,7.128219,101.150002,42.349998,-20.790001,1729417736041.0,0.0
-5.563312,-3.85723,7.233503,71.330002,39.200001,-18.83,1729417736063.0,0.0
-5.869594,-0.090927,8.35813,57.75,15.75,-9.1,1729417736081.0,0.0
-5.084748,0.29671,8.133204,2.38,-7.91,-3.57,1729417736101.0,0.0
-5.036892,-2.526821,7.88435,-68.459999,-12.46,-14.35,1729417736122.0,0.0
-5.235496,-5.020142,7.810174,-110.669998,-18.76,-14.84,1729417736141.0,0.0
-4.510471,-6.448657,8.353344,-116.480003,-39.830002,-13.440001,1729417736161.0,0.0
-4.216154,-3.711268,8.659625,-81.900002,-50.470001,10.99,1729417736182.0,0.0
-4.144369,-0.339781,7.585248,-60.970001,-65.379997,27.58,1729417736204.0,0.0
-2.531606,-5.737988,7.482357,-101.709999,-73.43,-42.630001,1729417736222.0,0.0
-4.220939,-12.952348,6.518049,-127.470001,-37.52,27.02,1729417736243.0,0.0
-0.842274,-15.931413,4.67079,-55.93,-49.490002,-34.16,1729417736262.0,0.0
-0.069392,-14.143975,2.072184,39.130001,-18.690001,-12.67,1729417736283.0,0.0
-1.347159,-8.9683,3.069991,99.470001,36.540001,8.54,1729417736302.0,0.0
-2.026721,-1.100698,3.87398,150.149994,55.860001,8.4,1729417736321.0,0.0
-3.972085,-0.265603,7.408179,157.779999,63.490002,6.44,1729417736342.0,0.0
-6.168696,-0.20339,9.513863,103.879997,76.160004,-17.639999,1729417736363.0,0.0
-6.625726,-4.086941,8.836694,50.959999,58.939999,-12.88,1729417736383.0,0.0
-5.410172,-4.005585,6.649654,36.889999,31.639999,-16.1,1729417736405.0,0.0
-4.878965,-1.76351,8.35813,31.290001,20.860001,-14.35,1729417736421.0,0.0
-5.367101,-5.469993,9.647861,-60.27,2.87,-16.309999,1729417736443.0,0.0
-6.678369,-5.915058,10.676775,-54.32,-22.4,10.57,1729417736461.0,0.0
-5.706882,-6.989435,9.899107,-33.670002,-70.699997,11.55,1729417736484.0,0.0
-2.09372,-8.341379,5.759524,-32.619999,-88.970001,-7.28,1729417736503.0,0.0
0.009571,-5.855237,3.893122,4.06,-81.129997,-14.14,1729417736521.0,0.0
-0.411566,-9.29133,3.814159,-28.42,-26.74,1.61,1729417736541.0,0.0
-1.842474,-11.739187,4.335794,5.46,20.09,3.08,1729417736564.0,0.0
-3.151347,-4.027121,6.678369,110.599998,28.91,14.77,1729417736582.0,0.0
-3.323631,-0.028714,7.587641,115.150002,44.799999,10.15,1729417736602.0,0.0
-2.998207,0.598206,5.496314,75.459999,54.25,5.6,1729417736621.0,0.0
-4.299902,-2.201397,6.163911,45.009998,73.080002,-20.58,1729417736639.0,0.0
-8.848659,-4.54397,7.56132,15.12,99.120003,-7.0,1729417736661.0,0.0
-8.745767,-2.524428,10.205389,33.950001,22.190001,7.49,1729417736681.0,0.0
-5.388636,-1.684547,9.355937,-16.73,-19.6,-8.54,1729417736700.0,0.0
-4.721039,-3.115455,8.740981,-59.010002,-26.25,-3.64,1729417736720.0,0.0
-5.891129,-4.65404,7.915457,-87.709999,-28.559999,12.74,1729417736740.0,0.0
-5.721239,-1.710868,10.253245,-95.620003,-56.279999,18.41,1729417736759.0,0.0
-3.668197,-5.656632,7.429714,-168.139999,-99.050003,-25.48,1729417736780.0,0.0
-0.392423,-11.679367,4.67079,-202.860001,-90.370003,-40.389999,1729417736800.0,0.0
2.644069,-14.964713,2.132005,-109.270004,-74.199997,-45.639999,1729417736820.0,0.0
1.883151,-12.279965,1.933401,28.91,-24.639999,5.25,1729417736840.0,0.0
-0.947558,-6.297909,4.601398,126.139999,43.119999,43.889999,1729417736859.0,0.0
-2.505285,-0.227318,5.314459,148.960007,78.610001,36.470001,1729417736880.0,0.0
-3.469593,-2.943172,7.982457,119.139999,70.840004,14.21,1729417736901.0,0.0
-5.312066,2.400001,7.235896,88.340004,96.110001,-13.440001,1729417736919.0,0.0
-8.298308,-3.086741,7.558927,40.389999,84.629997,6.09,1729417736939.0,0.0
-7.944171,-5.577669,7.45125,-0.49,48.790001,-16.73,1729417736960.0,0.0
-5.850451,-2.742175,8.202596,2.03,1.61,-11.69,1729417736980.0,0.0
-4.756931,-5.218746,8.056634,-49.560001,-10.22,-12.81,1729417736999.0,0.0
-5.977271,-3.931407,9.226725,-47.810001,-17.780001,10.15,1729417737021.0,0.0
-5.711668,-3.455236,9.147761,-65.099998,-42.490002,11.69,1729417737039.0,0.0
-5.108676,-4.890929,8.386844,-108.290001,-61.32,14.14,1729417737059.0,0.0
-0.191426,-9.96132,5.455636,-145.180008,-78.959999,-38.220001,1729417737083.0,0.0
-0.232104,-10.590633,4.759324,-85.120003,-61.18,2.1,1729417737102.0,0.0
-0.349352,-11.770294,3.888337,-26.880001,-24.219999,-18.83,1729417737120.0,0.0
-2.438286,-8.066205,5.103891,41.299999,21.210001,5.46,1729417737140.0,0.0
-3.034099,-6.999006,6.623333,78.959999,24.219999,17.780001,1729417737160.0,0.0
-2.380858,-7.771888,5.039285,76.370003,33.18,13.86,1729417737181.0,0.0
-3.507878,-1.933401,6.041877,126.349998,50.259998,25.83,1729417737202.0,0.0
-5.936593,3.127419,7.523034,133.0,48.650002,18.41,1729417737220.0,0.0
-6.735795,0.691526,9.109475,60.200001,27.65,3.64,1729417737240.0,0.0
-6.226124,-3.826123,7.743174,-25.9,25.969999,-20.790001,1729417737267.0,0.0
-6.613762,-5.486742,7.963314,-37.59,6.86,-8.61,1729417737281.0,0.0
-6.441479,-3.268596,9.083155,-36.400002,-24.92,4.62,1729417737303.0,0.0
-4.613362,-5.056034,8.91805,-88.269997,-59.920002,-0.91,1729417737321.0,0.0
-4.603791,-7.515855,6.573084,-139.300003,-54.670002,-11.2,1729417737340.0,0.0
-3.816552,-9.659825,5.326423,-105.980003,-50.119999,-11.9,1729417737360.0,0.0
-2.67039,-8.267202,4.981857,-37.240002,-58.240002,-17.43,1729417737382.0,0.0
-0.12682,-5.845665,4.364508,-14.84,-58.73,3.5,1729417737403.0,0.0
0.885344,-11.662617,3.345166,-54.670002,-14.21,-19.25,1729417737422.0,0.0
-2.134398,-14.567505,5.17089,38.080002,35.560001,21.84,1729417737442.0,0.0
-3.414558,-7.506285,7.491928,139.789993,40.18,19.110001,1729417737461.0,0.0
-2.993421,-1.036092,8.12124,150.289993,41.580002,31.780001,1729417737486.0,0.0
-3.823731,3.290131,7.166504,92.400002,58.099998,2.8,1729417737503.0,0.0
-6.644868,0.811167,6.79083,42.07,52.849998,0.56,1729417737522.0,0.0
-5.95095,-3.87398,6.628119,-11.27,22.889999,-34.02,1729417737541.0,0.0
-4.706682,-6.38405,7.168896,-37.66,-3.22,-25.9,1729417737562.0,0.0
-5.032106,-5.235496,8.214561,-33.25,-9.03,-6.65,1729417737583.0,0.0
-4.54397,-3.421736,8.465806,-42.490002,-29.82,7.91,1729417737603.0,0.0
-4.046263,-3.400201,8.611769,-69.720001,-41.860001,-0.98,1729417737622.0,0.0
-4.931608,-5.082355,8.870193,-129.430008,-39.759998,0.56,1729417737641.0,0.0
-2.598605,-9.796216,5.06082,-163.520004,-56.630001,-30.73,1729417737663.0,0.0
1.196411,-11.935399,1.959722,-103.32,-58.869999,-46.130001,1729417737684.0,0.0
1.316052,-6.319445,2.533999,-33.25,-53.34,10.64,1729417737703.0,0.0
-3.35713,-7.068398,4.039084,-57.119999,54.32,22.889999,1729417737723.0,0.0
-5.015356,-9.547362,5.970093,-34.720001,45.849998,15.190001,1729417737743.0,0.0
-4.969893,-7.676175,6.312266,-8.19,36.540001,4.27,1729417737763.0,0.0
-3.579663,-3.617948,5.848059,-0.91,28.210001,6.02,1729417737785.0,0.0
-3.524628,-4.084548,7.006185,-28.77,31.5,-13.58,1729417737806.0,0.0
-4.902894,-4.192225,7.025328,-60.41,36.259998,-4.9,1729417737822.0,0.0
-4.486543,-7.209574,5.632704,-98.139999,17.01,-19.110001,1729417737844.0,0.0
-4.383651,-9.202796,4.819145,-122.360001,-2.24,-14.49,1729417737863.0,0.0
-4.242475,-7.685746,4.419543,-121.870003,-17.15,3.64,1729417737883.0,0.0
-3.852444,-6.151947,3.926622,-117.599998,-21.42,21.91,1729417737903.0,0.0
-3.278167,-7.176075,3.256632,-128.169998,-23.379999,1.61,1729417737924.0,0.0
-3.54377,-7.056434,2.402394,-153.930008,-30.309999,14.7,1729417737944.0,0.0
-3.570091,-5.481956,1.622334,-198.940002,-39.34,28.210001,1729417737964.0,0.0
-3.847659,-7.274181,2.007578,-271.670013,-51.939999,16.870001,1729417737987.0,0.0
-5.008178,-10.569098,0.844666,-353.360016,-61.25,-5.88,1729417738003.0,0.0
-5.388636,-12.480963,-1.696511,-279.440002,-64.260002,-31.15,1729417738023.0,0.0
-4.24726,-9.930215,-2.486143,-290.220001,-62.93,-55.16,1729417738042.0,0.0
-2.840281,-9.095119,-3.541377,-360.709991,-70.0,-77.699997,1729417738062.0,0.0
-1.811367,-10.533205,-4.541577,-386.049988,-73.849998,-82.599998,1729417738084.0,0.0
-1.5003,-11.538191,-4.527221,-335.299988,-66.849998,-69.370003,1729417738104.0,0.0
-0.272782,-11.734402,-7.642675,-205.660004,-53.130001,-43.330002,1729417738124.0,0.0
0.179462,-9.741181,-7.609176,-82.25,-17.780001,-20.09,1729417738144.0,0.0
-0.485743,-8.346166,-5.814559,-40.32,13.440001,-15.47,1729417738163.0,0.0
-1.119841,-9.243474,-4.134798,-22.82,24.710001,-12.04,1729417738183.0,0.0
-0.985843,-9.030513,-3.09392,4.41,22.120001,1.19,1729417738204.0,0.0
-1.770689,-7.077969,0.457029,10.15,14.28,10.92,1729417738222.0,0.0
-3.017349,-5.802595,2.438286,-30.450001,8.61,-6.16,1729417738242.0,0.0
-3.354738,-8.99462,-2.761317,-138.180008,26.67,-43.400002,1729417738264.0,0.0
-3.086741,-13.952549,-7.362715,-158.339996,-7.42,-59.010002,1729417738284.0,0.0
-2.28036,-14.842678,-8.295916,-25.9,-46.130001,-26.67,1729417738305.0,0.0
0.380459,-10.322637,-9.195618,106.400002,-9.8,-11.62,1729417738324.0,0.0
0.413958,-7.77428,-8.090133,170.169998,9.73,9.38,1729417738343.0,0.0
-0.744168,-3.395415,-5.757132,118.020004,47.670002,32.619999,1729417738363.0,0.0
-2.469393,-4.642076,-3.146562,55.02,43.049999,36.400002,1729417738383.0,0.0
-4.0008,-5.915058,-2.665605,-88.199997,18.41,10.15,1729417738403.0,0.0
-2.713461,-9.099905,-5.06082,-163.869995,-19.6,-23.52,1729417738423.0,0.0
-1.651048,-11.282159,-4.168297,-118.300003,-59.990002,-11.27,1729417738443.0,0.0
-1.928615,-9.521042,-3.833302,-75.110001,-46.830002,-2.03,1729417738464.0,0.0
-2.512464,-6.860222,-5.536992,-48.09,5.53,-9.24,1729417738486.0,0.0
-3.117848,-5.886343,-7.893922,-33.599998,5.74,-10.01,1729417738503.0,0.0
-3.055635,-7.109076,-6.652047,-21.84,-13.440001,-6.86,1729417738523.0,0.0
-4.156333,-6.525227,-7.262216,-48.02,-22.4,-1.4,1729417738542.0,0.0
-3.952943,-7.951349,-10.346564,-40.040001,12.53,-14.0,1729417738562.0,0.0
-3.684947,-7.070791,-10.260423,-26.880001,0.14,-11.9,1729417738583.0,0.0
-2.495714,-5.879165,-9.296116,-10.92,-20.440001,-4.69,1729417738603.0,0.0
-2.213361,-5.694918,-6.343372,-12.81,-19.32,-0.42,1729417738622.0,0.0
-2.897708,-7.391429,-5.871986,-3.29,3.22,9.8,1729417738641.0,0.0
-2.663212,-7.448857,-9.016156,22.049999,39.48,10.15,1729417738662.0,0.0
-2.823531,-7.491928,-6.876972,30.030001,35.209999,23.450001,1729417738683.0,0.0
-2.651247,-7.783852,-4.007978,57.75,12.18,37.310001,1729417738705.0,0.0
-2.196611,-6.171089,-4.496114,51.099998,18.41,24.710001,1729417738723.0,0.0
-2.935993,-7.446464,-3.529413,30.59,46.200001,15.82,1729417738742.0,0.0
-2.787638,-12.236896,-3.218346,-24.92,27.299999,-11.27,1729417738763.0,0.0
-0.62692,-14.263616,-3.448057,-14.0,-30.1,-15.82,1729417738785.0,0.0
1.146162,-10.145569,-4.845466,56.700001,-27.02,9.59,1729417738806.0,0.0
0.768096,-3.845266,-3.869194,109.900002,-1.12,21.77,1729417738823.0,0.0
-0.792024,-4.472186,-3.275774,100.099998,6.93,28.49,1729417738842.0,0.0
-1.572084,-7.867601,-4.977071,10.85,9.87,3.36,1729417738862.0,0.0
-2.129612,-10.906486,-6.513263,5.53,-6.09,7.91,1729417738883.0,0.0
-2.158326,-9.693325,-5.694918,50.259998,-46.41,11.41,1729417738903.0,0.0
-3.680161,-7.846066,-0.62692,71.68,-68.529999,11.62,1729417738924.0,0.0
-3.787838,-8.35813,-4.110869,61.110001,-60.060001,-0.42,1729417738942.0,0.0
-3.017349,-9.288938,-7.992027,80.150002,-3.29,-0.28,1729417738964.0,0.0
-5.15414,-8.042276,-9.171689,50.119999,32.200001,2.66,1729417739046.0,0.0
-6.300302,-9.410972,-9.355937,13.09,26.809999,1.33,1729417739049.0,0.0
-4.771288,-8.781659,-3.646662,18.76,-18.549999,2.8,1729417739050.0,0.0
-4.12044,-8.963513,-0.124427,28.35,-14.56,-0.14,1729417739050.0,0.0
-3.811767,-8.518449,-3.591627,-40.32,46.900002,-22.26,1729417739062.0,0.0
-4.515256,-9.040084,-6.273981,-48.790001,106.260002,-34.09,1729417739083.0,0.0
-4.359723,-6.76451,-3.352344,-18.9,85.889999,-24.15,1729417739103.0,0.0
-1.785046,-8.618947,-2.091327,-17.43,12.6,-10.29,1729417739122.0,0.0
0.428315,-10.633704,0.942772,1.82,-13.58,-1.89,1729417739142.0,0.0
1.811367,-7.243074,-0.837488,-5.46,-9.94,0.21,1729417739162.0,0.0
0.4666,-5.276174,-1.794617,7.07,-3.43,3.01,1729417739183.0,0.0
0.256032,-5.347959,-4.989035,-10.01,12.95,-9.31,1729417739203.0,0.0
-1.09352,-6.946364,-3.579663,-46.549999,-2.66,-6.93,1729417739222.0,0.0
-1.87358,-9.47797,-2.589034,-92.470001,-33.529999,0.7,1729417739242.0,0.0
-2.773281,-9.286544,-3.608376,-124.529999,-35.209999,-14.42,1729417739262.0,0.0
-3.546163,-8.750552,-8.439486,-89.040001,-33.110001,-8.82,1729417739283.0,0.0
-4.029513,-9.064013,-10.167104,-17.290001,-2.8,-7.91,1729417739312.0,0.0
-4.646862,-7.262216,-8.910872,13.3,-13.86,9.8,1729417739324.0,0.0
-4.876573,-9.257831,-6.489335,-20.02,-22.75,6.72,1729417739342.0,0.0
-3.558127,-9.281759,-9.506684,-48.580002,-17.85,-7.14,1729417739363.0,0.0
-3.558127,-7.37468,-9.138189,-2.87,1.68,-0.77,1729417739384.0,0.0
-4.943572,-7.858029,-3.850052,0.63,9.52,13.72,1729417739403.0,0.0
-4.098906,-7.420143,-1.06002,-64.959999,7.84,6.79,1729417739423.0,0.0
-2.732604,-7.613962,-4.292724,-118.860001,29.33,-7.49,1729417739442.0,0.0
-2.421536,-9.683753,-8.238488,-103.599998,66.919998,-20.51,1729417739462.0,0.0
-2.055435,-10.411172,-7.594819,-35.630001,32.48,-11.62,1729417739487.0,0.0
-1.189233,-8.334201,-4.969893,31.01,15.190001,9.31,1729417739503.0,0.0
-1.45005,-5.453243,-2.498107,40.25,16.940001,11.48,1729417739524.0,0.0
-1.165305,-7.144968,-2.380858,12.6,16.52,1.47,1729417739546.0,0.0
-0.370888,-7.905886,-3.493521,-5.74,-4.69,-3.01,1729417739565.0,0.0
0.524028,-5.304887,-5.06082,20.440001,-17.219999,4.62,1729417739586.0,0.0
-0.026321,-2.699104,-7.444071,11.69,21.49,3.29,1729417739605.0,0.0
-2.409572,-10.157533,-5.881558,-25.620001,17.5,-7.63,1729417739627.0,0.0
-1.253839,-11.169697,-8.216952,-35.84,-30.24,-12.88,1729417739643.0,0.0
-0.531207,-8.360522,-8.645268,42.91,-26.25,-10.36,1729417739666.0,0.0
-2.038685,-5.816952,-6.151947,67.970001,-15.89,-0.14,1729417739684.0,0.0
-3.790231,-8.252845,-6.982256,32.060001,5.67,-21.91,1729417739706.0,0.0
-5.182854,-7.80778,-8.030313,-9.87,15.05,-25.27,1729417739724.0,0.0
-4.589434,-6.932007,-8.906086,-1.96,-13.3,-12.18,1729417739745.0,0.0
-3.579663,-7.063612,-8.645268,-13.51,-30.59,-15.61,1729417739764.0,0.0
-3.515057,-7.972885,-7.795816,-11.06,-19.879999,-17.780001,1729417739785.0,0.0
-3.998406,-8.260024,-5.943772,22.26,1.89,-13.72,1729417739806.0,0.0
-3.627519,-7.034898,-5.132604,50.68,22.049999,-7.35,1729417739823.0,0.0
-3.538985,-7.23111,-5.733203,17.639999,25.9,-5.95,1729417739844.0,0.0
-3.67059,-8.597411,-6.348158,-15.75,27.09,-5.6,1729417739865.0,0.0
-3.56052,-9.226725,-7.427321,18.620001,42.490002,5.04,1729417739885.0,0.0
-3.096312,-7.74796,-5.187639,58.59,50.330002,11.9,1729417739905.0,0.0
-1.942972,-7.278966,-1.940579,54.740002,15.61,15.47,1729417739925.0,0.0
-0.739382,-7.594819,-2.18704,9.52,-12.25,18.690001,1729417739944.0,0.0
0.035892,-8.018349,-1.816152,-23.870001,-2.73,4.34,1729417739964.0,0.0
-0.918844,-7.910671,-3.302095,-20.65,0.56,3.78,1729417739986.0,0.0
-0.806381,-7.831708,-6.577869,-31.360001,10.08,-5.39,1729417740004.0,0.0
0.105284,-6.963113,-9.377472,-4.34,-10.22,5.74,1729417740027.0,0.0
0.964308,-6.240481,-9.078369,7.56,-4.48,1.19,1729417740043.0,0.0
-0.198604,-7.905886,-4.73061,-10.5,-4.27,-3.71,1729417740063.0,0.0
-0.985843,-10.159925,-4.606184,-24.85,-5.39,-15.05,1729417740086.0,0.0
-2.033899,-9.729217,-6.163911,-15.75,-3.5,-29.4,1729417740104.0,0.0
-2.935993,-8.154739,-5.398208,21.280001,-6.58,-28.35,1729417740125.0,0.0
-3.4672,-6.912865,-5.546563,31.639999,-34.02,-15.89,1729417740144.0,0.0
-2.766103,-6.709475,-7.168896,21.280001,-32.200001,-14.42,1729417740164.0,0.0
-3.098706,-6.726225,-7.700103,-3.01,-28.630001,1.75,1729417740184.0,0.0
-4.457829,-7.491928,-6.482157,-16.24,-17.57,2.45,1729417740205.0,0.0
-4.780859,-9.085547,-6.932007,-9.87,0.63,-7.21,1729417740228.0,0.0
-3.883551,-8.051848,-7.436893,11.34,6.58,-4.62,1729417740244.0,0.0
-3.682554,-7.556533,-4.235296,35.91,5.32,8.33,1729417740264.0,0.0
-3.072384,-7.13779,-3.598805,12.18,23.450001,7.91,1729417740285.0,0.0
-2.837888,-6.458229,-7.216753,-37.170002,41.580002,4.34,1729417740307.0,0.0
-2.208575,-8.413164,-8.006385,-50.049999,31.219999,12.18,1729417740325.0,0.0
-0.622134,-9.801002,-7.755138,-42.490002,-8.96,16.17,1729417740343.0,0.0
-0.143569,-10.133603,-3.931407,5.32,0.7,17.92,1729417740364.0,0.0
-1.564906,-6.802795,-0.830309,19.389999,2.03,14.07,1729417740384.0,0.0
-1.655833,-7.197611,-4.098906,-3.85,17.92,2.17,1729417740406.0,0.0
-0.119641,-7.673782,-7.197611,-14.42,-10.99,0.49,1729417740423.0,0.0
0.839881,-7.269395,-8.10449,17.15,-29.120001,18.76,1729417740444.0,0.0
-0.129212,-6.24766,-8.437093,14.7,10.15,12.18,1729417740465.0,0.0
-2.072184,-7.874779,-4.601398,14.84,9.1,13.58,1729417740487.0,0.0
-2.486143,-8.913264,-2.689533,13.16,-33.32,14.14,1729417740507.0,0.0
-2.40718,-7.269395,-2.490928,-23.870001,-46.060001,-13.3,1729417740523.0,0.0
-2.287539,-6.970293,-4.759324,-28.49,-32.619999,-10.5,1729417740543.0,0.0
-2.397608,-6.771688,-5.376673,-7.63,-22.190001,-10.36,1729417740565.0,0.0
-2.957529,-7.676175,-8.671589,-4.55,-21.35,-10.71,1729417740585.0,0.0
-4.723432,-8.719445,-9.834501,13.3,5.32,-10.15,1729417740604.0,0.0
-6.345766,-8.319844,-8.748159,21.42,6.93,-0.84,1729417740626.0,0.0
-4.029513,-6.831509,-5.730811,-2.1,-27.860001,-7.56,1729417740642.0,0.0
-3.007778,-7.085148,-5.120641,-22.82,-23.030001,-16.17,1729417740664.0,0.0
-3.141776,-7.180861,-6.156733,-31.290001,2.73,-22.960001,1729417740685.0,0.0
-4.051049,-7.415358,-7.987241,-38.220001,34.439999,-24.290001,1729417740704.0,0.0
-5.240282,-8.087741,-7.23111,-45.920002,35.560001,-16.799999,1729417740723.0,0.0
-4.740182,-8.444271,-5.563312,-36.330002,23.52,5.74,1729417740744.0,0.0
-3.488736,-7.948956,-5.233103,-2.24,25.76,14.63,1729417740764.0,0.0
-3.014957,-7.255038,-5.606383,5.74,43.540001,14.21,1729417740785.0,0.0
-1.89033,-6.766902,-6.991827,-7.98,26.880001,16.24,1729417740805.0,0.0
-0.09332,-8.508877,-9.777073,11.97,7.49,25.48,1729417740824.0,0.0
0.748954,-10.150353,-5.905487,52.009998,7.63,24.639999,1729417740844.0,0.0
0.507278,-9.188439,-3.716053,23.030001,3.08,18.41,1729417740863.0,0.0
1.438086,-9.351151,-6.862615,13.37,11.9,1.12,1729417740883.0,0.0
0.579063,-7.190433,-6.116055,51.029999,-1.68,5.25,1729417740903.0,0.0
0.174676,-5.742774,-6.053841,78.120003,-4.13,13.09,1729417740923.0,0.0
-0.131605,-6.252446,-6.034698,80.709999,-19.110001,15.61,1729417740945.0,0.0
-0.459422,-8.013563,-2.299503,77.559998,-38.990002,15.05,1729417740965.0,0.0
-4.819145,-10.537991,0.411566,28.42,-52.080002,-15.68,1729417740986.0,0.0
-3.239882,-7.645068,-2.45025,74.830002,-67.620003,-1.33,1729417741005.0,0.0
-2.091327,-2.663212,-0.681954,147.070007,-66.080002,3.43,1729417741023.0,0.0
-3.548556,-4.603791,-2.395216,52.779999,-25.9,0.28,1729417741044.0,0.0
-5.319244,-9.607183,-5.335995,-55.16,3.85,2.31,1729417741064.0,0.0
-6.608976,-10.212566,-7.456036,-55.860001,10.36,11.76,1729417741084.0,0.0
-6.546762,-9.090333,-7.372287,11.83,-25.48,11.9,1729417741104.0,0.0
-5.850451,-8.188239,-5.570491,26.6,-41.369999,-0.14,1729417741123.0,0.0
-4.713861,-7.422535,-5.249853,-10.64,-16.24,-20.93,1729417741142.0,0.0
-5.024928,-7.403394,-4.876573,-50.400002,-1.4,-27.299999,1729417741163.0,0.0
-4.630112,-7.908278,-6.324231,-73.360001,10.57,-37.73,1729417741184.0,0.0
-5.419744,-8.817552,-7.941778,-93.099998,29.049999,-37.59,1729417741204.0,0.0
-5.309673,-8.429914,-5.532206,-80.150002,27.16,-21.91,1729417741223.0,0.0
-3.17049,-7.121039,-5.201996,-63.139999,23.1,-10.43,1729417741245.0,0.0
