acc_x,acc_y,acc_z,gyr_x,gyr_y,gyr_z,timestamp,label
-5.539384,-8.094919,-0.825524,-2.66,-2.87,-7.14,1729415845280.0,0.0
-4.84068,-7.161718,-2.132005,4.62,-4.69,-6.44,1729415845284.0,0.0
-4.625326,-8.506484,-4.570292,-6.51,6.3,-4.55,1729415845287.0,0.0
-4.460221,-9.49472,-4.17069,15.96,18.48,-1.47,1729415845289.0,0.0
-4.704289,-8.30788,-2.533999,59.360001,33.950001,3.15,1729415845305.0,0.0
-4.017549,-12.27518,1.521835,164.289993,19.879999,13.23,1729415845325.0,0.0
-2.861816,-6.12084,5.039285,278.459991,41.16,8.82,1729415845344.0,0.0
-3.586841,0.229711,15.634703,239.889999,34.299999,27.860001,1729415845364.0,0.0
0.260818,-3.261417,7.042077,98.840004,-8.05,40.389999,1729415845384.0,0.0
-2.811567,-7.939385,3.536592,80.639999,-5.53,66.5,1729415845404.0,0.0
-6.924829,-9.351151,3.663411,145.600006,9.03,73.779999,1729415845425.0,0.0
-4.426722,-7.889136,1.952543,196.0,7.98,82.809998,1729415845444.0,0.0
-6.563512,-7.377072,0.851845,158.479996,16.309999,67.550003,1729415845464.0,0.0
-6.288338,-10.633704,0.074178,91.07,3.43,60.130001,1729415845483.0,0.0
-6.951149,-9.013763,1.564906,47.459999,3.08,35.490002,1729415845508.0,0.0
-6.594619,-7.097112,1.696511,22.82,-8.26,30.73,1729415845525.0,0.0
-6.817152,-6.329016,2.103291,-3.01,-2.8,32.619999,1729415845544.0,0.0
-7.767102,-4.955536,0.696311,-26.18,-1.19,48.369999,1729415845564.0,0.0
-9.492328,-5.946165,1.071985,-36.189999,-1.26,56.420002,1729415845584.0,0.0
-10.427922,-8.848659,4.735396,-39.130001,-1.4,30.17,1729415845604.0,0.0
-10.652846,-4.929214,1.440479,-101.43,-1.68,25.34,1729415845628.0,0.0
-9.193225,-4.575077,0.622134,-241.360001,-8.68,-24.15,1729415845645.0,0.0
-8.161918,-3.701697,0.464208,-357.700012,-2.52,-24.92,1729415845663.0,0.0
-7.980063,-2.852244,-2.711068,-424.690002,2.1,-15.61,1729415845684.0,0.0
-7.444071,-5.761917,-6.678369,-439.320007,2.45,-24.710001,1729415845704.0,0.0
-7.288538,-3.105884,-6.096912,-408.23999,-4.48,-13.51,1729415845728.0,0.0
-8.212167,-7.45125,-7.896315,-397.390015,-18.48,-14.84,1729415845744.0,0.0
-8.12124,-5.807381,-4.756931,-423.01001,-31.08,-28.630001,1729415845765.0,0.0
-8.38445,-4.682754,-5.302495,-355.950012,-31.43,6.37,1729415845783.0,0.0
-8.516055,-6.092126,-7.128219,-380.170013,-0.77,-1.26,1729415845804.0,0.0
-8.819944,-4.034299,-7.348359,-373.100006,8.75,15.82,1729415845825.0,0.0
-8.599805,-8.106883,-6.357729,-222.320007,38.990002,0.98,1729415845843.0,0.0
-8.786445,-2.474179,-5.860023,-145.460007,27.93,12.46,1729415845863.0,0.0
-6.948757,-6.080163,-7.104291,-193.830002,60.689999,12.95,1729415845884.0,0.0
-6.556334,-10.243673,-8.204988,-73.43,72.940002,8.68,1729415845905.0,0.0
-7.444071,-4.194618,-7.673782,32.549999,56.349998,0.21,1729415845926.0,0.0
-5.379066,-5.118248,-7.69771,38.920002,76.860001,-6.44,1729415845944.0,0.0
-6.022735,-3.462414,-5.249853,56.91,65.660004,-0.77,1729415845964.0,0.0
-6.056234,-2.701497,-4.694718,-9.38,58.52,-2.94,1729415845984.0,0.0
-4.407579,-3.893122,-6.599405,-73.5,48.16,1.89,1729415846004.0,0.0
-5.711668,-3.869194,-8.015956,-74.970001,34.790001,-5.74,1729415846027.0,0.0
-6.190232,-4.886144,-9.049655,-67.480003,32.41,-23.309999,1729415846045.0,0.0
-5.886343,-4.737789,-9.169296,-39.34,34.860001,-37.029999,1729415846063.0,0.0
-5.611169,-4.515256,-9.056834,-9.24,37.099998,-41.02,1729415846083.0,0.0
-4.553542,-5.316852,-8.370094,16.24,38.779999,-46.689999,1729415846105.0,0.0
-4.606184,-2.218147,-8.846266,68.669998,38.009998,-42.0,1729415846125.0,0.0
-4.522435,-2.11047,-8.798409,88.550003,41.23,-23.24,1729415846143.0,0.0
-3.675375,-6.601797,-9.166903,84.910004,57.470001,-22.190001,1729415846164.0,0.0
-3.830909,-6.106483,-8.843873,124.459999,59.990002,-29.26,1729415846185.0,0.0
-3.20399,-3.945765,-7.999206,130.899994,53.48,-31.5,1729415846205.0,0.0
-2.65364,-3.227918,-8.614161,96.529999,55.23,-30.17,1729415846227.0,0.0
-2.471786,-4.278367,-9.174082,37.59,65.730003,-24.780001,1729415846243.0,0.0
-2.605784,-4.893322,-9.315259,15.54,71.330002,-18.27,1729415846265.0,0.0
-2.553142,-4.797609,-9.525827,18.549999,75.599998,-13.65,1729415846283.0,0.0
-2.227718,-4.388437,-9.97807,16.030001,79.730003,-10.29,1729415846305.0,0.0
-1.847259,-4.161119,-10.250853,5.81,86.099998,-4.97,1729415846327.0,0.0
-1.696511,-4.036692,-10.126426,0.77,91.489998,2.52,1729415846343.0,0.0
-1.914258,-3.694518,-9.547362,7.7,94.220001,9.38,1729415846363.0,0.0
-1.942972,-3.785445,-8.784052,14.14,97.019997,14.7,1729415846384.0,0.0
-1.828116,-3.955336,-7.963314,21.35,96.739998,20.440001,1729415846405.0,0.0
-1.672583,-4.103691,-7.436893,23.59,93.029999,24.219999,1729415846424.0,0.0
-1.572084,-4.240082,-7.556533,18.690001,86.660004,28.07,1729415846443.0,0.0
-1.29691,-4.388437,-7.628319,4.76,79.379997,32.549999,1729415846465.0,0.0
-1.272982,-4.474578,-7.611568,-7.42,73.080002,38.57,1729415846484.0,0.0
-1.799403,-4.577469,-7.618747,-4.27,64.75,43.959999,1729415846503.0,0.0
-1.988436,-4.816752,-7.76471,7.63,50.049999,43.259998,1729415846524.0,0.0
-2.232504,-4.821537,-7.958528,3.85,42.91,38.5,1729415846543.0,0.0
-2.411965,-5.070391,-7.88435,-6.02,39.41,35.139999,1729415846565.0,0.0
-2.258825,-5.273781,-7.52782,-4.41,33.32,31.219999,1729415846584.0,0.0
-2.184647,-5.089533,-7.267002,1.33,24.57,25.34,1729415846605.0,0.0
-2.323431,-4.797609,-7.613962,1.96,15.12,21.559999,1729415846627.0,0.0
-2.744568,-4.740182,-7.881958,-10.5,11.41,19.460001,1729415846644.0,0.0
-2.751746,-4.826324,-7.65464,-16.030001,9.31,20.09,1729415846664.0,0.0
-2.548356,-5.376673,-7.396214,-10.64,6.58,19.74,1729415846683.0,0.0
-2.486143,-5.515456,-7.051648,2.17,3.43,18.83,1729415846703.0,0.0
-2.529213,-5.094319,-6.951149,23.24,-4.76,18.34,1729415846728.0,0.0
-2.68714,-4.74736,-7.405786,23.030001,-10.22,14.91,1729415846744.0,0.0
-3.134598,-5.089533,-7.709675,5.25,-8.12,13.3,1729415846765.0,0.0
-3.519842,-5.881558,-7.752745,-14.07,-3.57,10.29,1729415846784.0,0.0
-3.565305,-5.936593,-7.925028,-20.58,-0.91,2.59,1729415846802.0,0.0
-3.462414,-5.850451,-8.413164,-10.29,2.8,-4.48,1729415846832.0,0.0
-2.835495,-5.546563,-8.228917,2.03,5.67,-8.96,1729415846843.0,0.0
-2.65364,-5.197211,-7.65464,15.12,10.29,-10.78,1729415846864.0,0.0
-2.557927,-5.733203,-7.264609,13.86,13.51,-9.1,1729415846883.0,0.0
-2.237289,-5.144568,-7.221539,13.86,10.08,-7.7,1729415846904.0,0.0
-1.866402,-5.087141,-7.142576,8.33,5.88,-5.11,1729415846925.0,0.0
-1.454836,-5.462814,-7.640282,-4.41,2.94,-4.62,1729415846943.0,0.0
-1.337588,-5.321638,-8.166703,-8.12,-1.68,-5.46,1729415846965.0,0.0
-1.256232,-5.496314,-8.52802,-5.32,-4.2,-6.23,1729415846986.0,0.0
-1.162912,-5.4676,-8.690732,-0.7,-4.62,-7.14,1729415847004.0,0.0
-1.215554,-5.436492,-8.583055,6.3,-3.57,-5.53,1729415847027.0,0.0
-1.246661,-5.613562,-8.609376,12.46,-3.01,-4.97,1729415847043.0,0.0
-1.536192,-5.551349,-8.575876,15.96,-2.73,-4.69,1729415847065.0,0.0
-1.619941,-5.517848,-8.480164,11.62,-2.03,-5.18,1729415847083.0,0.0
-1.416551,-5.63749,-8.324631,8.05,-1.82,-5.67,1729415847105.0,0.0
-1.368695,-5.62074,-8.097312,11.2,-3.15,-5.25,1729415847128.0,0.0
-1.284946,-5.438886,-8.02792,11.83,-5.74,-5.18,1729415847145.0,0.0
-1.304088,-5.295317,-7.970492,6.93,-7.07,-3.15,1729415847164.0,0.0
-1.490728,-5.687739,-8.114061,-4.2,-5.18,-2.66,1729415847184.0,0.0
-1.57687,-5.649454,-8.197811,-0.49,-6.72,-2.8,1729415847205.0,0.0
-1.744368,-5.601598,-8.343772,3.08,-7.21,-3.78,1729415847228.0,0.0
-1.70369,-5.503492,-8.52802,-0.84,-5.6,-5.18,1729415847244.0,0.0
-1.488336,-5.374279,-8.568698,-2.31,-5.11,-4.83,1729415847265.0,0.0
-1.603191,-5.486742,-8.547162,-2.24,-3.99,-4.13,1729415847284.0,0.0
-1.651048,-5.580062,-8.472985,-3.57,-3.08,-3.64,1729415847305.0,0.0
-1.751546,-5.735595,-8.513663,-4.13,-1.68,-4.2,1729415847326.0,0.0
-1.732404,-5.682954,-8.68116,1.05,-1.19,-6.09,1729415847348.0,0.0
-1.718047,-5.642276,-8.499306,3.43,0.49,-7.0,1729415847365.0,0.0
-1.811367,-5.486742,-8.248059,5.39,1.47,-6.3,1729415847385.0,0.0
-1.682154,-5.532206,-8.126025,6.3,2.17,-5.6,1729415847407.0,0.0
-1.447658,-5.572884,-8.13799,7.98,1.4,-4.34,1729415847428.0,0.0
-1.383051,-5.699703,-8.255238,4.41,0.35,-3.85,1729415847445.0,0.0
-1.639083,-4.902894,-7.49432,8.54,-1.47,-0.98,1729415847465.0,0.0
-1.813759,-5.221139,-7.360322,7.21,-3.5,0.63,1729415847486.0,0.0
-1.694118,-5.76431,-7.896315,2.38,-4.06,2.52,1729415847506.0,0.0
-1.878366,-5.845665,-8.204988,0.77,-6.09,1.54,1729415847530.0,0.0
-1.725225,-6.037091,-8.547162,-7.7,-4.9,-1.12,1729415847550.0,0.0
-1.51705,-5.970093,-8.721838,-7.28,-3.36,-2.8,1729415847565.0,0.0
-1.569692,-5.821737,-8.439486,-1.47,-1.61,-2.45,1729415847586.0,0.0
-1.581656,-5.716454,-8.12124,1.33,-0.56,-1.75,1729415847606.0,0.0
-1.612763,-5.788238,-8.056634,0.21,0.07,-0.91,1729415847629.0,0.0
-1.789831,-5.876772,-8.068598,-2.94,0.07,-0.56,1729415847646.0,0.0
-2.045863,-6.034698,-8.281559,-7.98,0.63,-1.05,1729415847665.0,0.0
-2.371287,-6.305088,-8.4012,-9.8,2.17,-3.29,1729415847686.0,0.0
-2.160719,-6.125626,-8.075776,-0.98,3.43,-5.32,1729415847706.0,0.0
-2.397608,-5.402994,-7.929814,7.56,2.24,-6.72,1729415847731.0,0.0
-2.256432,-5.673382,-7.903493,-2.66,4.13,-8.12,1729415847745.0,0.0
-2.06022,-5.443672,-8.008778,-2.66,2.1,-10.5,1729415847766.0,0.0
-2.15354,-5.383851,-8.193025,-0.14,1.68,-10.5,1729415847786.0,0.0
-2.266003,-5.094319,-8.023134,-4.13,1.82,-10.99,1729415847805.0,0.0
-2.160719,-5.091926,-7.898707,-9.66,1.54,-10.22,1729415847826.0,0.0
-2.306681,-5.54417,-8.059027,-15.26,2.1,-11.55,1729415847845.0,0.0
-2.555535,-5.508278,-8.018349,-15.26,2.45,-13.23,1729415847865.0,0.0
-2.864209,-5.599205,-7.616355,-12.81,3.57,-14.84,1729415847886.0,0.0
-2.859423,-5.685347,-7.597212,-10.5,3.36,-17.92,1729415847907.0,0.0
-2.672783,-5.501099,-7.645068,-9.73,0.84,-20.65,1729415847930.0,0.0
-2.866602,-5.532206,-7.872386,-15.61,-1.05,-23.17,1729415847945.0,0.0
-3.177669,-5.903094,-8.245667,-23.66,-0.07,-27.58,1729415847966.0,0.0
-3.57727,-5.886343,-7.625926,-20.440001,1.47,-31.710001,1729415847985.0,0.0
-3.816552,-6.26441,-8.066205,-11.62,0.84,-39.130001,1729415848007.0,0.0
-3.550949,-6.733403,-8.973085,-1.82,4.34,-45.009998,1729415848027.0,0.0
-3.031706,-6.15434,-9.619147,6.23,6.37,-50.259998,1729415848045.0,0.0
-2.833102,-6.099305,-9.537791,16.24,10.85,-52.709999,1729415848067.0,0.0
-1.098306,-6.293124,-9.41815,33.459999,13.440001,-56.139999,1729415848086.0,0.0
-0.378066,-5.666204,-9.879964,34.650002,9.38,-55.860001,1729415848105.0,0.0
0.01675,-6.503692,-10.392029,46.549999,13.65,-55.439999,1729415848128.0,0.0
0.055035,-6.266802,-9.456435,89.040001,13.79,-55.23,1729415848145.0,0.0
0.31346,-6.144768,-8.575876,139.789993,12.88,-53.760002,1729415848165.0,0.0
-0.935594,-6.74776,-7.051648,189.350006,11.9,-51.310001,1729415848185.0,0.0
0.129212,-5.036892,-7.166504,245.630005,3.29,-40.389999,1729415848206.0,0.0
2.244468,-3.787838,-6.348158,258.579987,-5.46,-19.32,1729415848226.0,0.0
2.129612,-5.175675,-6.329016,217.910004,0.07,-2.17,1729415848246.0,0.0
1.995614,-7.310073,-5.742774,182.839996,4.76,9.38,1729415848266.0,0.0
1.816152,-9.674182,-4.271189,208.880005,8.26,18.549999,1729415848285.0,0.0
2.328217,-9.279366,-3.110669,300.230011,1.19,30.73,1729415848306.0,0.0
3.371487,-7.987241,-1.366302,402.290009,-7.28,41.09,1729415848327.0,0.0
3.371487,-2.758924,2.598605,456.820007,-7.98,59.150002,1729415848345.0,0.0
1.351945,0.39003,7.728817,323.890015,-16.799999,80.57,1729415848493.0,0.0
-0.918844,-6.783652,6.929615,99.120003,-38.290001,79.519997,1729415848494.0,0.0
-2.129612,-11.069198,5.601598,55.790001,-64.68,87.5,1729415848494.0,0.0
-0.39003,-9.970891,2.510071,70.699997,-78.540001,91.489998,1729415848549.0,0.0
-2.57707,-11.727223,1.852045,-6.44,-66.150002,70.209999,1729415848555.0,0.0
-2.160719,-10.274779,-0.823131,-86.660004,-62.369999,63.77,1729415848562.0,0.0
-0.320638,-9.272188,-3.254239,-96.110001,-52.290001,67.550003,1729415848563.0,0.0
-2.388037,-12.016755,-3.859623,-69.300003,-31.219999,63.07,1729415848565.0,0.0
-4.118048,-12.902101,-3.76391,-108.43,-10.99,38.779999,1729415848566.0,0.0
-4.555934,-13.320844,-7.034898,-221.830002,7.35,-7.14,1729415848568.0,0.0
-1.399801,-14.043476,-4.871787,-232.470001,16.73,-27.93,1729415848587.0,0.0
-2.292324,-7.948956,-2.811567,-205.029999,27.440001,-46.830002,1729415848588.0,0.0
-4.369294,-9.468399,-3.050849,-291.899994,27.860001,-53.34,1729415848606.0,0.0
-4.421937,-9.635897,-3.127419,-346.779999,34.509998,-65.099998,1729415848626.0,0.0
-3.266203,-9.542577,-6.032306,-339.360016,31.43,-39.759998,1729415848675.0,0.0
-1.90708,-11.382657,-6.733403,-346.149994,47.25,-55.580002,1729415848681.0,0.0
-1.284946,-8.977871,0.4666,-210.139999,50.82,-28.139999,1729415848686.0,0.0
-0.739382,-6.896115,0.366102,-112.419998,17.639999,-19.110001,1729415848705.0,0.0
-0.282353,-3.998406,-1.799403,-173.460007,-14.49,-23.030001,1729415848731.0,0.0
-2.900101,-4.182654,-4.749753,-272.019989,-55.650002,-6.09,1729415848745.0,0.0
-0.916451,-4.61097,-8.11167,-344.049988,-65.029999,-5.95,1729415848767.0,0.0
1.07677,-4.393222,-9.461221,-322.559998,-67.480003,-0.28,1729415848786.0,0.0
2.163112,-5.448457,-11.739187,-224.559998,-71.540001,-2.52,1729415848807.0,0.0
2.088934,-3.591627,-13.282558,-122.57,-67.550003,-8.33,1729415848827.0,0.0
-0.081356,0.770489,-10.147961,-68.18,-63.700001,-2.24,1729415848846.0,0.0
-2.251646,-1.095913,-9.870394,-30.309999,-51.380001,18.9,1729415848867.0,0.0
-4.275974,0.332602,-10.590633,-19.74,-44.52,35.700001,1729415848886.0,0.0
-5.089533,-1.674976,-13.533805,-40.740002,-25.48,48.650002,1729415848907.0,0.0
-2.184647,-5.431707,-15.11546,-63.630001,-2.17,47.740002,1729415848928.0,0.0
-3.785445,-2.620141,-14.081761,28.07,5.39,44.939999,1729415848945.0,0.0
-3.838088,-0.239282,-12.043077,103.18,16.379999,47.459999,1729415848967.0,0.0
-3.95055,-1.225125,-10.947165,107.379997,36.68,63.0,1729415848988.0,0.0
-4.527221,-3.132205,-9.820145,95.199997,48.299999,59.080002,1729415849007.0,0.0
-4.352544,-4.130012,-8.114061,97.160004,55.580002,41.02,1729415849029.0,0.0
-3.57727,-6.429514,-6.058627,79.309998,55.439999,22.75,1729415849047.0,0.0
-3.78066,-6.924829,-5.288138,101.5,38.990002,-2.24,1729415849067.0,0.0
-3.416951,-3.814159,-4.905287,86.239998,24.780001,-21.559999,1729415849087.0,0.0
-2.679961,-6.017949,-7.393822,15.12,13.72,-28.210001,1729415849108.0,0.0
-2.940779,-5.685347,-7.190433,-4.76,8.75,-38.220001,1729415849129.0,0.0
-2.742175,-3.802195,-7.657032,36.400002,-4.13,-38.150002,1729415849147.0,0.0
-3.010171,-2.529213,-5.948557,30.870001,-9.8,-30.24,1729415849168.0,0.0
-1.258625,-5.783452,-6.460621,6.3,-21.280001,-24.08,1729415849188.0,0.0
-1.265803,-2.344966,-5.575277,-23.870001,-39.830002,-33.950001,1729415849208.0,0.0
1.282553,-1.741975,-7.228717,-91.769997,-56.420002,-29.049999,1729415849233.0,0.0
1.521835,-3.316452,-8.80798,-139.860001,-59.080002,-25.76,1729415849247.0,0.0
0.40678,-0.794417,-9.274581,-137.550003,-64.540001,-21.700001,1729415849267.0,0.0
-0.066999,-3.010171,-12.626925,-129.779999,-52.779999,-3.29,1729415849288.0,0.0
-3.048456,-2.191825,-12.732209,-42.700001,-36.189999,14.56,1729415849307.0,0.0
-6.357729,-4.448257,-13.29213,3.85,-19.67,30.940001,1729415849329.0,0.0
-2.888137,-4.45065,-12.595818,-22.75,9.59,24.290001,1729415849348.0,0.0
-4.4674,-3.481557,-11.609976,35.0,16.030001,20.23,1729415849366.0,0.0
-4.35733,-2.744568,-11.49512,87.709999,27.09,27.51,1729415849387.0,0.0
-4.134798,-3.148954,-9.856036,88.550003,44.450001,31.99,1729415849407.0,0.0
-4.522435,-1.598405,-7.089933,87.639999,44.380001,30.1,1729415849428.0,0.0
-4.144369,-6.582655,-8.12124,46.759998,53.48,16.17,1729415849447.0,0.0
-3.787838,-6.163911,-6.91765,86.379997,36.959999,-6.16,1729415849467.0,0.0
-3.60359,-4.740182,-5.187639,98.209999,21.91,-26.74,1729415849487.0,0.0
-3.06042,-3.728018,-6.238089,48.23,0.7,-40.110001,1729415849509.0,0.0
-2.012364,-6.30748,-8.623734,-16.030001,1.33,-51.52,1729415849530.0,0.0
-1.895115,-3.735196,-8.214561,11.62,-8.12,-49.98,1729415849547.0,0.0
-1.730011,-4.275974,-7.458428,17.85,-9.8,-40.880001,1729415849567.0,0.0
-1.658226,-3.113062,-7.144968,22.82,-14.21,-27.719999,1729415849590.0,0.0
-1.20359,-3.24706,-6.862615,13.58,-18.83,-14.56,1729415849608.0,0.0
-1.39023,-3.34038,-7.389036,-7.98,-21.700001,-3.5,1729415849637.0,0.0
-1.158126,-3.663411,-8.855836,-40.459999,-22.4,6.02,1729415849647.0,0.0
-0.794417,-3.129812,-9.973285,-66.989998,-24.08,12.39,1729415849667.0,0.0
-0.282353,-5.520242,-11.973685,-46.689999,-14.7,25.27,1729415849687.0,0.0
-1.033699,-2.254039,-11.272588,17.639999,-7.35,31.290001,1729415849708.0,0.0
-1.875973,-2.433501,-9.24108,36.119999,5.18,43.330002,1729415849731.0,0.0
-2.931208,-4.438686,-7.307681,-5.53,7.98,44.099998,1729415849746.0,0.0
-3.146562,-4.436293,-7.018148,-52.220001,9.94,35.84,1729415849767.0,0.0
-3.237489,-7.085148,-9.710074,-92.120003,7.42,13.65,1729415849787.0,0.0
-4.520042,-7.68096,-9.377472,-63.700001,1.75,-9.31,1729415849806.0,0.0
-4.208975,-7.030113,-10.628918,-15.61,5.95,-30.799999,1729415849828.0,0.0
-3.960121,-4.278367,-8.925228,3.57,-0.14,-54.389999,1729415849846.0,0.0
-3.364309,-3.022135,-8.664411,-28.91,-2.73,-64.470001,1729415849867.0,0.0
-3.440879,-2.916851,-8.647661,-60.130001,-4.48,-65.519997,1729415849888.0,0.0
-3.790231,-3.404987,-9.300901,-68.32,-3.5,-62.299999,1729415849907.0,0.0
-4.199404,-3.333202,-10.047462,-42.420002,-2.45,-54.529999,1729415849930.0,0.0
-3.783052,-1.823331,-10.406385,-5.53,1.33,-43.610001,1729415849947.0,0.0
-3.089134,-0.236889,-9.255438,20.02,4.06,-20.58,1729415849967.0,0.0
-2.318645,0.964308,-8.755339,31.219999,8.33,6.02,1729415849987.0,0.0
-0.79681,-1.100698,-11.24866,19.530001,11.48,36.610001,1729415850008.0,0.0
-0.612563,-1.579263,-10.949556,45.360001,19.040001,59.080002,1729415850028.0,0.0
-0.476172,-2.447858,-9.939785,72.449997,27.790001,64.050003,1729415850046.0,0.0
-0.227318,-3.823731,-8.300702,60.48,35.700001,60.619999,1729415850067.0,0.0
-0.744168,-6.051448,-6.400801,36.049999,38.009998,54.529999,1729415850087.0,0.0
-0.863809,-7.532606,-5.737988,15.96,26.18,38.779999,1729415850107.0,0.0
-1.014557,-7.221539,-6.683154,-14.63,14.56,23.030001,1729415850130.0,0.0
-1.868794,-6.893722,-7.534998,-33.389999,3.57,9.73,1729415850146.0,0.0
-3.431308,-7.166504,-7.412964,-42.560001,-6.79,-6.23,1729415850167.0,0.0
-3.457629,-6.690332,-8.49452,-46.41,-14.98,-23.799999,1729415850187.0,0.0
-5.096712,-4.283153,-7.420143,-11.55,-27.09,-35.420002,1729415850207.0,0.0
-3.756732,-4.419543,-11.014162,-11.06,-26.18,-45.080002,1729415850268.0,0.0
-4.275974,-2.574677,-10.229317,-24.57,-21.210001,-48.720001,1729415850272.0,0.0
-3.541377,-1.816152,-9.123833,-42.630001,-16.870001,-48.580002,1729415850273.0,0.0
-3.720839,-2.230111,-9.564112,-35.700001,-16.52,-50.119999,1729415850299.0,0.0
-3.850052,-1.189233,-10.468598,-13.02,-16.66,-46.759998,1729415850307.0,0.0
-3.227918,0.014357,-10.712667,-4.13,-9.73,-36.610001,1729415850328.0,0.0
-2.557927,0.636491,-8.863015,3.92,-2.03,-18.83,1729415850347.0,0.0
-1.428515,-0.387637,-9.657433,10.57,3.43,15.89,1729415850368.0,0.0
-0.397209,-0.641276,-11.413764,19.32,9.03,32.200001,1729415850386.0,0.0
-0.215354,-2.426322,-10.803595,31.780001,18.620001,47.599998,1729415850407.0,0.0
0.019143,-3.814159,-9.449257,54.740002,24.780001,50.189999,1729415850430.0,0.0
-0.205783,-4.852644,-7.913064,63.490002,26.18,46.759998,1729415850448.0,0.0
-0.361316,-6.771688,-6.525227,34.09,25.549999,37.380001,1729415850466.0,0.0
-1.316052,-8.992228,-5.938986,29.960001,11.69,22.469999,1729415850487.0,0.0
-1.926222,-9.803394,-6.84108,10.5,-1.33,-0.42,1729415850507.0,0.0
-2.112862,-7.097112,-6.553941,10.92,-13.3,-20.790001,1729415850527.0,0.0
-0.76331,-4.07737,-7.156933,-8.26,-23.17,-24.360001,1729415850546.0,0.0
-1.318445,-4.185047,-6.21416,-22.120001,-28.49,-16.73,1729415850567.0,0.0
-4.185047,-3.555735,-5.240282,-3.92,-46.060001,-11.83,1729415850586.0,0.0
-2.54357,-3.304488,-8.60459,-31.5,-56.77,-17.710001,1729415850608.0,0.0
-5.525027,-2.589034,-9.937392,-52.290001,-71.330002,-28.559999,1729415850633.0,0.0
-4.804788,-3.658626,-10.482956,-74.970001,-52.920002,-38.5,1729415850650.0,0.0
-5.886343,-2.009971,-11.743973,-30.17,-49.279999,-42.0,1729415850666.0,0.0
-5.962914,-0.57667,-11.394621,-10.08,-33.25,-27.299999,1729415850686.0,0.0
-5.146961,-1.004985,-11.064411,-1.54,-4.9,-14.21,1729415850706.0,0.0
-4.713861,-1.071985,-10.202995,16.52,5.88,-0.84,1729415850732.0,0.0
-3.395415,-0.416351,-8.987441,28.42,8.82,10.78,1729415850747.0,0.0
-3.024528,-0.59342,-8.405986,20.58,6.02,24.290001,1729415850766.0,0.0
-1.792224,-1.775474,-10.652846,11.48,7.7,38.290001,1729415850787.0,0.0
-0.777667,-4.161119,-9.174082,20.860001,14.42,50.049999,1729415850806.0,0.0
-0.148355,-5.745167,-8.197811,76.650002,14.56,57.68,1729415850831.0,0.0
-0.447458,-4.656433,-6.343372,98.209999,9.31,57.330002,1729415850847.0,0.0
-1.246661,-7.647461,-6.046663,51.869999,1.05,49.560001,1729415850866.0,0.0
-2.859423,-8.736196,-5.374279,21.139999,-16.450001,28.84,1729415850887.0,0.0
-2.273181,-6.049056,-7.372287,-1.33,-32.27,15.96,1729415850906.0,0.0
-2.380858,-7.88435,-7.767102,7.77,-33.529999,12.81,1729415850983.0,0.0
-4.290331,-2.912065,-5.15414,28.700001,-48.580002,9.31,1729415850985.0,0.0
-6.211767,-5.35753,-4.486543,-22.190001,-49.91,0.35,1729415850985.0,0.0
-5.850451,-4.096512,-7.427321,-44.170002,-63.700001,-13.37,1729415851109.0,0.0
-6.766902,-6.125626,-10.686346,-62.720001,-67.900002,-26.809999,1729415851110.0,0.0
-8.118847,-2.342573,-10.351351,-33.529999,-52.220001,-39.759998,1729415851111.0,0.0
-7.726424,-1.672583,-11.018949,-25.549999,-29.960001,-35.560001,1729415851113.0,0.0
-7.238289,-0.949951,-10.695917,-12.74,-8.68,-22.68,1729415851114.0,0.0
-7.022934,-1.069592,-10.554741,-7.35,9.73,-11.76,1729415851115.0,0.0
-6.259624,-1.691726,-9.279366,-7.35,26.67,-3.71,1729415851116.0,0.0
-5.268995,-0.909273,-8.750552,20.65,30.59,10.08,1729415851129.0,0.0
-3.814159,-0.447458,-9.475577,14.35,34.720001,15.61,1729415851146.0,0.0
-2.737389,-1.344766,-8.075776,3.22,39.830002,25.34,1729415851165.0,0.0
-1.739582,-2.644069,-9.731609,-2.1,38.080002,37.52,1729415851185.0,0.0
-1.794617,-5.580062,-8.91805,12.53,38.360001,36.330002,1729415851206.0,0.0
-2.079363,-5.582455,-8.26481,39.27,32.549999,31.290001,1729415851227.0,0.0
-2.112862,-5.749953,-6.742974,25.83,30.799999,24.219999,1729415851245.0,0.0
-2.651247,-7.257431,-4.905287,11.9,21.42,21.84,1729415851265.0,0.0
-2.143969,-4.529613,-7.197611,9.52,6.58,23.940001,1729415851284.0,0.0
-2.002793,-5.4341,-6.652047,18.9,-2.87,21.49,1729415851306.0,0.0
-5.161318,-6.417551,-4.242475,0.35,-19.950001,18.48,1729415851327.0,0.0
-7.049256,-5.867201,-6.051448,-62.16,-22.190001,-0.42,1729415851346.0,0.0
-5.850451,-6.903293,-10.38485,-53.760002,-22.190001,-32.619999,1729415851365.0,0.0
-6.843473,-3.136991,-9.513863,-19.040001,-18.9,-45.990002,1729415851386.0,0.0
-6.326623,-2.895315,-8.956335,-26.809999,-7.07,-49.630001,1729415851406.0,0.0
-6.029913,-1.629512,-8.726624,-20.58,-2.87,-44.450001,1729415851428.0,0.0
-5.469993,-1.067199,-9.473185,-12.11,3.08,-36.82,1729415851448.0,0.0
-5.52742,-1.919044,-10.396815,-14.63,11.2,-31.710001,1729415851465.0,0.0
-4.680361,-1.22034,-8.958728,2.31,17.639999,-26.809999,1729415851485.0,0.0
-4.953143,-0.691526,-7.635497,0.49,19.74,-20.93,1729415851506.0,0.0
-3.806981,-1.617548,-8.82473,-12.18,22.120001,-3.22,1729415851528.0,0.0
-2.395216,-0.540778,-11.406586,5.81,25.34,13.65,1729415851546.0,0.0
-1.57687,-2.333002,-10.353743,29.469999,34.23,38.709999,1729415851566.0,0.0
-1.452443,-3.768696,-9.131011,78.050003,37.59,53.900002,1729415851587.0,0.0
-1.574477,-2.833102,-7.649854,86.239998,38.009998,58.029999,1729415851606.0,0.0
-1.639083,-8.518449,-5.663811,37.310001,39.549999,49.560001,1729415851633.0,0.0
-2.385644,-7.719246,-5.379066,24.08,22.82,33.18,1729415851647.0,0.0
-2.469393,-8.190632,-5.680561,15.26,7.91,14.84,1729415851666.0,0.0
-4.95075,-6.530013,-5.422136,0.28,-7.56,2.45,1729415851686.0,0.0
-4.007978,-8.714661,-8.906086,-71.68,-19.809999,-16.1,1729415851707.0,0.0
-5.9342,-5.032106,-7.779066,-0.42,-32.689999,-35.84,1729415851731.0,0.0
-4.981857,-4.527221,-9.382257,-28.139999,-27.370001,-46.900002,1729415851746.0,0.0
-5.601598,-3.661019,-10.054641,-47.950001,-24.92,-56.279999,1729415851766.0,0.0
-5.534599,-3.022135,-8.80798,-35.700001,-18.200001,-64.610001,1729415851785.0,0.0
-5.300103,-1.57687,-9.542577,-23.1,-14.77,-60.970001,1729415851805.0,0.0
-5.087141,-0.806381,-10.832308,-15.47,-6.58,-52.57,1729415851833.0,0.0
-4.283153,-0.5001,-10.741381,0.49,7.0,-36.189999,1729415851847.0,0.0
-4.232903,0.117248,-9.233903,22.120001,13.3,-17.99,1729415851867.0,0.0
-3.706482,0.059821,-9.195618,18.48,19.950001,2.52,1729415851886.0,0.0
-2.445465,0.564706,-9.88475,26.389999,24.15,19.6,1729415851906.0,0.0
-2.136791,-0.351745,-10.001998,27.93,30.73,42.560001,1729415851931.0,0.0
-1.514657,-5.132604,-9.10469,37.799999,38.709999,61.880001,1729415851945.0,0.0
-1.954936,-3.534199,-7.999206,106.330002,39.689999,68.389999,1729415851965.0,0.0
-1.904687,-4.881358,-6.867401,69.93,42.84,75.18,1729415851987.0,0.0
-2.361716,-8.628519,-6.498906,23.940001,40.880001,66.220001,1729415852005.0,0.0
-2.907279,-8.891729,-4.945964,22.960001,25.620001,54.529999,1729415852029.0,0.0
-3.708875,-7.798209,-5.615955,-18.690001,1.75,23.1,1729415852047.0,0.0
-3.704089,-10.179067,-8.085347,-63.77,-5.53,-2.31,1729415852066.0,0.0
-3.809374,-8.645268,-7.283752,-10.57,-13.09,-27.02,1729415852085.0,0.0
-4.053442,-4.158726,-7.4345,28.42,-28.210001,-38.57,1729415852106.0,0.0
-4.993821,-4.768896,-8.099705,-30.59,-29.469999,-49.700001,1729415852128.0,0.0
-5.572884,-3.144169,-9.372685,-54.040001,-28.98,-61.110001,1729415852145.0,0.0
-5.259424,-3.582055,-8.73141,-55.02,-22.190001,-67.690002,1729415852165.0,0.0
-5.912664,-1.619941,-9.60479,-29.68,-21.77,-69.93,1729415852185.0,0.0
-4.989035,-0.643669,-10.590633,-36.400002,-10.85,-65.660004,1729415852206.0,0.0
-5.091926,-0.01675,-10.255639,-13.51,0.14,-49.420002,1729415852228.0,0.0
-3.87398,0.655633,-9.702895,-8.4,8.61,-29.120001,1729415852245.0,0.0
-4.15394,0.512064,-10.475778,9.8,16.870001,-5.04,1729415852265.0,0.0
-2.237289,0.397209,-12.205789,13.23,26.6,20.16,1729415852285.0,0.0
-1.849652,-0.926022,-10.112068,31.5,36.470001,41.16,1729415852305.0,0.0
-1.215554,-4.895715,-8.327023,63.91,43.540001,58.170002,1729415852330.0,0.0
-2.359323,-2.132005,-6.754939,105.419998,40.459999,63.420002,1729415852345.0,0.0
-2.289931,-8.709875,-5.240282,-1.05,45.360001,65.940002,1729415852366.0,0.0
-2.065006,-9.205189,-5.4006,-6.3,28.84,50.119999,1729415852385.0,0.0
-2.167897,-8.12124,-4.709075,0.63,6.58,35.560001,1729415852406.0,0.0
-4.273581,-7.470392,-4.407579,-60.200001,-12.6,14.49,1729415852427.0,0.0
-2.562713,-11.033305,-10.236496,-109.970001,-13.65,-8.05,1729415852446.0,0.0
-4.271189,-5.290531,-7.874779,-7.35,-32.549999,-32.060001,1729415852466.0,0.0
-4.965107,-4.811966,-9.145369,-9.24,-36.400002,-52.779999,1729415852486.0,0.0
-5.099105,-4.063013,-9.834501,-62.580002,-30.380001,-66.5,1729415852505.0,0.0
-4.893322,-3.225525,-9.647861,-67.760002,-22.190001,-73.080002,1729415852527.0,0.0
-5.005785,-2.54357,-9.099905,-31.360001,-21.07,-70.489998,1729415852545.0,0.0
-4.189832,-0.89013,-10.777272,-8.89,-19.110001,-65.169998,1729415852565.0,0.0
-3.524628,-0.117248,-12.007183,-8.82,-7.49,-51.52,1729415852585.0,0.0
-3.881158,0.705883,-10.013963,9.59,3.92,-30.309999,1729415852605.0,0.0
-2.974278,0.090927,-9.54497,11.9,13.65,-6.79,1729415852630.0,0.0
-3.239882,0.631705,-9.997212,35.0,16.379999,16.66,1729415852647.0,0.0
-2.050649,-0.820738,-11.566904,20.23,29.33,36.049999,1729415852665.0,0.0
-2.026721,-3.194418,-9.348758,41.860001,36.68,50.540001,1729415852685.0,0.0
-1.347159,-3.457629,-8.279166,67.830002,48.23,63.07,1729415852705.0,0.0
-1.411765,-8.645268,-4.335794,38.220001,52.849998,66.779999,1729415852728.0,0.0
-1.883151,-6.728617,-3.26381,24.639999,30.940001,49.91,1729415852745.0,0.0
-1.785046,-10.554741,-4.31426,-18.48,9.66,32.34,1729415852765.0,0.0
-3.632305,-9.186047,-5.276174,-32.619999,-14.42,7.63,1729415852785.0,0.0
-2.617748,-8.51127,-9.413363,-54.040001,-27.65,-16.59,1729415852804.0,0.0
-3.792624,-6.113662,-7.733603,-3.43,-33.670002,-30.799999,1729415852826.0,0.0
-4.864608,-5.974878,-7.829315,3.29,-40.459999,-35.07,1729415852845.0,0.0
-5.517848,-3.708875,-8.860621,-41.16,-41.790001,-51.59,1729415852866.0,0.0
-5.07757,-3.838088,-11.155338,-63.07,-35.0,-59.080002,1729415852885.0,0.0
-5.694918,-2.39043,-10.064213,-27.370001,-26.74,-61.880001,1729415852906.0,0.0
-4.809574,-1.12702,-11.179268,12.04,-16.799999,-59.639999,1729415852927.0,0.0
-4.639683,1.033699,-10.724631,27.16,-7.07,-45.639999,1729415852945.0,0.0
-4.161119,0.696311,-9.803394,-7.91,5.53,-27.299999,1729415852967.0,0.0
-3.29731,-0.586242,-11.459228,6.09,17.43,-3.85,1729415852986.0,0.0
-2.196611,0.26321,-11.523834,44.869999,29.960001,18.83,1729415853005.0,0.0
-1.227518,-2.117648,-10.114462,70.769997,38.639999,41.580002,1729415853028.0,0.0
-0.842274,-5.233103,-8.039884,87.290001,49.84,53.830002,1729415853044.0,0.0
-1.473979,-5.264209,-5.711668,102.830002,40.810001,48.509998,1729415853066.0,0.0
-2.098505,-7.649854,-4.082155,36.959999,36.470001,42.07,1729415853086.0,0.0
-1.782653,-6.955935,-6.13759,-3.5,19.18,29.469999,1729415853105.0,0.0
-1.426122,-8.035098,-6.635297,-14.7,9.59,30.1,1729415853130.0,0.0
-3.273381,-7.740781,-3.957729,13.37,-6.93,27.93,1729415853144.0,0.0
-5.374279,-9.075976,-5.371887,-47.810001,-26.110001,8.75,1729415853165.0,0.0
-2.490928,-9.363115,-10.250853,-95.059998,-20.09,-10.57,1729415853185.0,0.0
-5.309673,-5.74756,-7.401,-14.0,-31.219999,-34.580002,1729415853206.0,0.0
-5.63749,-5.460421,-8.568698,-34.09,-30.030001,-46.060001,1729415853229.0,0.0
-5.221139,-4.122833,-9.944571,-44.73,-24.290001,-59.150002,1729415853246.0,0.0
-5.429315,-1.976472,-9.896714,-22.4,-19.460001,-58.029999,1729415853265.0,0.0
-4.35733,-1.816152,-10.423136,-15.26,-6.65,-49.0,1729415853285.0,0.0
-3.897908,-1.103091,-10.107283,1.19,0.84,-36.75,1729415853306.0,0.0
-3.108276,0.131605,-9.762716,12.11,6.51,-22.68,1729415853327.0,0.0
-3.661019,-0.591027,-8.671589,9.8,13.72,-7.21,1729415853345.0,0.0
-2.624927,-0.368495,-9.760324,10.78,15.33,8.75,1729415853366.0,0.0
-1.72044,-1.332802,-11.519048,-3.71,26.530001,32.48,1729415853385.0,0.0
-1.332802,-3.383451,-9.29133,11.13,33.740002,49.209999,1729415853406.0,0.0
-1.253839,-4.175476,-9.432507,46.27,40.529999,55.93,1729415853428.0,0.0
-1.150948,-4.65404,-8.006385,47.18,44.380001,60.760002,1729415853444.0,0.0
-1.289732,-6.417551,-7.262216,2.45,47.110001,55.720001,1729415853465.0,0.0
-1.29691,-10.616954,-6.431907,-9.24,39.34,43.68,1729415853485.0,0.0
-1.866402,-9.79143,-4.98425,0.56,22.75,20.370001,1729415853506.0,0.0
-2.388037,-8.645268,-4.156333,-5.32,2.94,-2.31,1729415853529.0,0.0
-4.07737,-7.104291,-4.424329,-50.540001,-19.18,-19.530001,1729415853545.0,0.0
-2.366502,-8.451449,-7.89153,-111.860001,-27.51,-34.23,1729415853565.0,0.0
-3.646662,-5.807381,-8.662018,-25.34,-42.349998,-46.48,1729415853585.0,0.0
-5.051248,-3.986443,-8.051848,-6.72,-49.630001,-51.939999,1729415853607.0,0.0
-5.922236,-4.268795,-10.643275,-66.150002,-44.59,-61.32,1729415853629.0,0.0
-6.190232,-3.696911,-10.834702,-70.139999,-32.619999,-70.980003,1729415853645.0,0.0
-5.462814,-1.194018,-11.574083,-18.690001,-20.440001,-67.690002,1729415853665.0,0.0
-4.271189,1.158126,-10.971091,1.47,-7.7,-54.670002,1729415853685.0,0.0
-3.125026,1.430908,-10.719845,8.75,2.94,-36.75,1729415853707.0,0.0
-3.369094,1.332802,-10.49492,35.07,12.53,-2.1,1729415853731.0,0.0
-2.790031,1.174876,-10.420743,31.710001,19.809999,20.93,1729415853744.0,0.0
-1.792224,0.229711,-10.688738,17.780001,32.060001,37.170002,1729415853765.0,0.0
-0.997807,-0.430708,-9.65504,39.48,38.220001,54.950001,1729415853785.0,0.0
-0.191426,-4.795217,-8.623734,41.580002,40.599998,64.470001,1729415853805.0,0.0
-0.868595,-3.546163,-8.054241,64.190002,37.099998,65.519997,1729415853828.0,0.0
-0.782453,-6.113662,-7.23111,11.69,43.889999,65.029999,1729415853845.0,0.0
-1.177269,-7.992027,-6.742974,-19.950001,40.32,58.310001,1729415853866.0,0.0
-1.476372,-8.427521,-6.738188,-22.540001,31.01,46.200001,1729415853884.0,0.0
-2.459821,-7.932207,-5.903094,-26.32,14.98,30.17,1729415853906.0,0.0
-3.23031,-9.848858,-6.369694,-78.82,-0.42,5.81,1729415853926.0,0.0
-3.067599,-10.537991,-7.171289,-57.75,-11.27,-18.9,1729415853945.0,0.0
-3.701697,-5.07757,-8.68116,36.189999,-33.599998,-38.920002,1729415853965.0,0.0
-5.134997,-5.149354,-7.84128,-5.81,-31.290001,-50.119999,1729415853984.0,0.0
-5.816952,-6.762117,-10.236496,-78.050003,-24.5,-66.57,1729415854005.0,0.0
-6.424729,-5.173282,-9.844072,-42.0,-18.48,-81.970001,1729415854027.0,0.0
-4.864608,-1.813759,-9.669396,27.02,-18.27,-85.330002,1729415854045.0,0.0
-3.505485,-0.442672,-11.294124,15.12,-11.83,-77.279999,1729415854065.0,0.0
-3.0006,0.385244,-11.351551,19.389999,-3.5,-54.740002,1729415854084.0,0.0
-2.165504,1.418944,-11.035697,65.940002,5.53,-21.210001,1729415854106.0,0.0
-1.31366,2.979064,-10.274779,73.639999,13.51,10.15,1729415854126.0,0.0
-1.069592,1.615155,-10.688738,37.170002,25.83,32.48,1729415854144.0,0.0
-0.945165,-0.071785,-11.050055,22.190001,33.529999,49.98,1729415854164.0,0.0
-1.07677,-2.199004,-10.157533,27.09,43.259998,62.02,1729415854184.0,0.0
-1.37348,-5.379066,-7.506285,51.73,51.380001,74.129997,1729415854206.0,0.0
-2.179861,-4.773681,-7.62114,80.290001,50.470001,73.360001,1729415854226.0,0.0
-1.971686,-4.019942,-8.224132,1.4,56.490002,74.900002,1729415854245.0,0.0
-2.964707,-5.285746,-5.391029,-39.689999,50.75,79.379997,1729415854266.0,0.0
-2.885744,-10.212566,-6.24766,-64.260002,36.259998,67.340004,1729415854284.0,0.0
-2.988636,-10.561919,-6.699903,-52.779999,17.43,36.959999,1729415854306.0,0.0
-2.782853,-9.769895,-6.960721,-34.650002,3.64,2.52,1729415854326.0,0.0
-2.620141,-7.944171,-6.546762,7.84,-13.65,-25.48,1729415854347.0,0.0
-2.541178,-6.465407,-8.099705,14.21,-27.09,-43.68,1729415854364.0,0.0
-4.443472,-4.84068,-8.693125,-40.670002,-38.360001,-62.299999,1729415854386.0,0.0
-4.766503,-3.979264,-10.459028,-62.369999,-33.880001,-71.260002,1729415854404.0,0.0
-4.354938,-2.431108,-9.755538,-18.620001,-29.33,-70.769997,1729415854426.0,0.0
-3.897908,-1.428515,-10.887343,10.92,-27.790001,-63.630001,1729415854444.0,0.0
-2.431108,1.605584,-11.746366,-13.440001,-16.52,-53.549999,1729415854464.0,0.0
-1.622334,2.426322,-10.963913,-21.0,-3.78,-29.26,1729415854484.0,0.0
-1.229911,1.062413,-12.449856,-23.17,8.4,-4.97,1729415854504.0,0.0
-0.512064,0.768096,-12.524034,5.18,22.82,13.86,1729415854525.0,0.0
-1.086342,-0.160319,-9.698111,34.509998,33.459999,34.509998,1729415854546.0,0.0
-1.12702,-2.986243,-8.88455,54.25,38.920002,50.189999,1729415854566.0,0.0
-1.418944,-4.065405,-7.869993,52.849998,40.950001,60.41,1729415854585.0,0.0
-1.598405,-5.666204,-6.436693,-2.87,44.59,62.510002,1729415854604.0,0.0
-1.57687,-6.4678,-5.716454,-25.27,31.99,53.200001,1729415854626.0,0.0
-1.579263,-9.839286,-6.197411,-50.75,17.43,38.220001,1729415854644.0,0.0
-3.084348,-10.420743,-5.788238,-58.66,-0.35,11.83,1729415854665.0,0.0
-2.242075,-9.585647,-6.252446,-45.57,-15.89,-20.02,1729415854684.0,0.0
-2.222932,-4.778467,-8.547162,28.559999,-37.799999,-41.439999,1729415854705.0,0.0
-4.012764,-4.907679,-8.535198,-21.139999,-47.389999,-56.209999,1729415854729.0,0.0
-5.491528,-5.099105,-10.320245,-63.209999,-46.41,-68.879997,1729415854744.0,0.0
-5.106283,-2.553142,-11.337193,-13.51,-38.57,-73.639999,1729415854766.0,0.0
-4.795217,0.239282,-10.590633,24.780001,-30.24,-63.0,1729415854786.0,0.0
-3.196811,0.349352,-11.461621,3.5,-15.82,-48.369999,1729415854804.0,0.0
-2.045863,1.708475,-12.016755,10.92,-5.95,-28.98,1729415854825.0,0.0
-1.734797,2.897708,-10.219746,27.65,0.21,-1.05,1729415854844.0,0.0
-1.234696,0.545564,-11.267801,10.15,11.41,27.719999,1729415854864.0,0.0
-0.538385,-0.988236,-11.353944,21.98,23.799999,48.369999,1729415854884.0,0.0
-0.595813,-3.388237,-8.135597,53.41,28.210001,59.57,1729415854934.0,0.0
-1.134198,-3.448057,-8.02792,70.559998,26.809999,61.110001,1729415854948.0,0.0
-0.949951,-6.087341,-7.046863,28.210001,30.24,60.48,1729415854951.0,0.0
-1.519442,-6.888937,-7.738388,1.33,26.25,53.549999,1729415854999.0,0.0
-1.476372,-7.759924,-7.051648,14.42,18.41,43.75,1729415855006.0,0.0
-2.85703,-8.683553,-5.201996,18.9,2.87,36.540001,1729415855006.0,0.0
-4.225725,-8.937192,-6.092126,-30.870001,-10.85,17.57,1729415855025.0,0.0
-3.359523,-5.419744,-7.523034,-37.099998,-24.780001,-8.12,1729415855077.0,0.0
-5.139783,-5.094319,-7.580462,33.670002,-43.259998,-25.200001,1729415855083.0,0.0
-4.742575,-5.608776,-10.801201,-50.259998,-48.790001,-56.77,1729415855104.0,0.0
-5.883951,-2.402394,-10.193424,-16.309999,-46.200001,-67.269997,1729415855125.0,0.0
-4.362115,-0.241675,-11.255837,1.75,-34.16,-68.040001,1729415855143.0,0.0
-3.792624,1.387837,-10.214959,0.84,-23.17,-51.380001,1729415855163.0,0.0
-3.225525,0.717847,-9.987641,-17.85,-12.39,-34.23,1729415855182.0,0.0
-2.809174,-0.177069,-12.083755,-19.389999,-3.01,-14.21,1729415855203.0,0.0
-2.172683,-0.433101,-13.383057,-9.45,12.53,2.59,1729415855258.0,0.0
-1.85683,-0.258425,-11.916256,11.83,30.870001,22.469999,1729415855259.0,0.0
-1.031307,-4.800002,-8.700303,40.040001,44.170002,44.66,1729415855263.0,0.0
-1.902294,-4.108476,-6.987042,108.220001,39.34,50.189999,1729415855283.0,0.0
-1.316052,-5.733203,-5.041678,46.27,41.369999,56.490002,1729415855304.0,0.0
-2.244468,-7.862815,-5.156533,-10.71,33.810001,55.09,1729415855325.0,0.0
-1.887937,-7.424929,-6.235696,-15.05,18.27,47.040001,1729415855344.0,0.0
-3.223132,-9.209974,-5.158926,-29.960001,0.84,32.970001,1729415855364.0,0.0
-2.239682,-9.676575,-7.915457,-61.110001,-15.05,2.8,1729415855384.0,0.0
-3.54377,-6.707082,-7.056434,11.62,-36.119999,-34.720001,1729415855404.0,0.0
-4.249653,-6.474977,-7.652246,-16.450001,-44.099998,-54.110001,1729415855426.0,0.0
-4.835894,-4.922036,-8.583055,-76.790001,-44.170002,-76.93,1729415855443.0,0.0
-4.41715,-5.807381,-11.284552,-74.269997,-38.290001,-89.389999,1729415855464.0,0.0
-5.931807,-2.368894,-10.502099,-6.93,-33.950001,-91.419998,1729415855484.0,0.0
-4.807181,-0.445065,-11.191232,2.45,-20.58,-83.720001,1729415855504.0,0.0
-3.759124,1.268196,-10.090532,-4.62,-7.7,-65.099998,1729415855526.0,0.0
-3.323631,1.524228,-10.38485,-4.97,0.42,-40.389999,1729415855543.0,0.0
-2.813959,1.11027,-10.370493,-8.05,7.14,-14.7,1729415855563.0,0.0
-2.309074,0.543171,-11.033305,-8.26,14.7,5.32,1729415855584.0,0.0
-2.502892,-0.361316,-10.877771,3.85,23.24,21.84,1729415855604.0,0.0
-1.572084,-0.976272,-10.880164,14.84,35.07,40.740002,1729415855627.0,0.0
-1.545763,-4.316652,-8.236095,39.900002,44.52,58.380001,1729415855644.0,0.0
-2.266003,-3.251846,-6.908078,88.129997,38.709999,65.099998,1729415855663.0,0.0
-1.65344,-4.867002,-7.006185,6.93,40.880001,64.75,1729415855684.0,0.0
-1.701297,-8.322237,-5.407779,-12.39,29.4,59.849998,1729415855704.0,0.0
-2.11047,-6.819544,-5.850451,-19.389999,4.55,42.209999,1729415855728.0,0.0
-2.584249,-6.71426,-7.590034,-46.689999,-6.93,26.6,1729415855744.0,0.0
-4.010371,-7.910671,-6.692725,-81.059998,-17.01,7.21,1729415855765.0,0.0
-2.689533,-8.315059,-9.018548,-77.07,-18.76,-14.14,1729415855786.0,0.0
-3.756732,-5.048856,-8.300702,4.62,-28.49,-28.559999,1729415855804.0,0.0
-3.888337,-5.589634,-8.721838,0.21,-28.0,-36.75,1729415855825.0,0.0
-4.486543,-5.943772,-8.827123,-43.049999,-26.110001,-51.52,1729415855844.0,0.0
-4.591826,-5.180461,-10.753345,-55.369999,-21.35,-69.160004,1729415855863.0,0.0
-4.443472,-4.541577,-10.884951,-25.34,-14.14,-76.860001,1729415855883.0,0.0
-3.802195,-3.672983,-10.013963,-2.8,-7.21,-80.360001,1729415855904.0,0.0
-3.23031,-2.440679,-11.085947,5.18,1.4,-77.629997,1729415855927.0,0.0
-2.713461,-2.048256,-11.083554,23.1,10.01,-67.340004,1729415855945.0,0.0
-2.28036,-2.349752,-10.829915,45.639999,14.28,-56.91,1729415855963.0,0.0
-2.404787,-1.684547,-10.006784,77.980003,17.15,-43.959999,1729415855983.0,0.0
-2.605784,-1.438086,-9.669396,95.410004,19.110001,-33.740002,1729415856004.0,0.0
-2.392823,-1.993221,-9.789038,99.68,25.76,-18.41,1729415856025.0,0.0
-2.723032,-2.005185,-9.099905,126.770004,29.540001,-8.47,1729415856044.0,0.0
-2.605784,-3.055635,-8.427521,131.529999,33.740002,7.7,1729415856065.0,0.0
-2.318645,-4.256832,-8.439486,120.190002,38.849998,11.9,1729415856085.0,0.0
-2.273181,-5.180461,-8.161918,144.339996,41.580002,16.73,1729415856104.0,0.0
-2.232504,-6.106483,-7.52782,181.440002,42.560001,20.09,1729415856126.0,0.0
-2.069792,-6.319445,-7.463214,205.869995,46.830002,21.700001,1729415856145.0,0.0
-1.935793,-7.575676,-7.190433,227.080002,53.619999,22.4,1729415856164.0,0.0
-1.995614,-8.623734,-7.252645,278.600006,62.93,23.450001,1729415856184.0,0.0
-1.713261,-8.614161,-6.9679,364.910004,66.57,31.780001,1729415856204.0,0.0
-1.18684,-8.248059,-5.52742,444.98999,69.160004,40.740002,1729415856226.0,0.0
-1.091127,-8.178668,-3.728018,512.960022,73.779999,53.060001,1729415856246.0,0.0
-1.347159,-7.276574,-1.277767,551.530029,79.870003,57.400002,1729415856265.0,0.0
-2.084148,-5.991628,1.490728,560.77002,77.419998,56.279999,1729415856283.0,0.0
-2.421536,-6.118448,4.058227,525.070007,78.540001,35.139999,1729415856305.0,0.0
-2.196611,-5.977271,6.089733,456.190002,74.340004,19.32,1729415856326.0,0.0
-2.232504,-7.082755,7.972885,357.420013,67.900002,3.29,1729415856355.0,0.0
-1.564906,-7.056434,8.408379,269.920013,62.09,-11.27,1729415856365.0,0.0
-2.311467,-5.577669,8.853443,200.059998,59.290001,-17.780001,1729415856383.0,0.0
-2.17029,-5.529813,8.23131,112.910004,47.32,-29.75,1729415856405.0,0.0
-2.043471,-5.936593,7.039684,83.370003,42.77,-31.57,1729415856427.0,0.0
-2.203789,-5.402994,6.479764,87.43,45.009998,-26.74,1729415856444.0,0.0
-2.660819,-3.692125,7.312466,102.620003,47.459999,-20.09,1729415856464.0,0.0
-3.251846,-2.155933,7.963314,104.440002,44.240002,-9.94,1729415856483.0,0.0
-3.739982,-2.165504,7.889136,74.480003,38.150002,-0.7,1729415856503.0,0.0
-4.326223,-3.716053,7.958528,39.48,29.610001,9.52,1729415856525.0,0.0
-4.989035,-4.850252,7.936993,27.719999,22.68,17.01,1729415856543.0,0.0
-5.326423,-3.900301,7.647461,23.450001,20.23,22.33,1729415856563.0,0.0
-5.565705,-4.216154,5.228317,-2.03,15.68,19.460001,1729415856584.0,0.0
-5.513064,-3.275774,6.049056,6.79,22.82,21.42,1729415856604.0,0.0
-5.254639,-2.878566,6.245267,-5.67,27.299999,21.210001,1729415856628.0,0.0
-5.000999,-4.232903,6.266802,-24.92,27.02,22.540001,1729415856644.0,0.0
-4.596612,-5.568098,6.618547,-19.809999,24.780001,22.469999,1729415856663.0,0.0
-4.331009,-6.104091,6.534799,6.23,27.02,22.33,1729415856684.0,0.0
-4.694718,-5.266603,7.458428,31.219999,33.110001,19.74,1729415856703.0,0.0
-4.912465,-6.321837,7.776673,37.52,31.85,10.57,1729415856729.0,0.0
-4.649254,-6.01077,8.274381,51.310001,35.98,-4.48,1729415856743.0,0.0
-4.821537,-6.367301,9.044869,54.110001,33.040001,-14.63,1729415856763.0,0.0
-4.907679,-6.419943,9.705289,57.889999,25.969999,-24.43,1729415856784.0,0.0
-4.878965,-6.065805,9.942179,60.760002,17.57,-32.27,1729415856804.0,0.0
-5.331209,-4.634897,9.19801,51.939999,9.73,-36.75,1729415856825.0,0.0
-5.575277,-4.280759,7.133004,30.1,-2.38,-41.369999,1729415856843.0,0.0
-5.678168,-3.529413,7.630712,35.420002,-8.4,-44.450001,1729415856864.0,0.0
-4.319045,-2.084148,7.956135,41.509998,-10.64,-42.98,1729415856885.0,0.0
-4.642076,-0.949951,7.300502,30.380001,-9.45,-32.689999,1729415856905.0,0.0
-4.388437,0.909273,7.082755,17.639999,-9.52,-19.67,1729415856925.0,0.0
-4.266403,-1.079163,5.673382,-27.93,-8.19,-10.08,1729415856943.0,0.0
-3.579663,-1.902294,5.398208,-25.83,-3.78,8.89,1729415856964.0,0.0
-5.111069,-1.198804,6.242875,-7.49,4.41,24.360001,1729415856985.0,0.0
-5.230711,-1.603191,6.910471,-12.11,7.49,34.720001,1729415857005.0,0.0
-5.740381,-2.78046,7.276574,-13.93,7.42,40.040001,1729415857026.0,0.0
-5.472386,-3.412165,7.786245,-6.93,7.98,40.18,1729415857043.0,0.0
-5.953342,-5.379066,6.908078,-10.71,7.84,29.4,1729415857064.0,0.0
-5.012963,-3.976871,6.740582,-3.64,17.99,23.379999,1729415857083.0,0.0
-4.603791,-3.273381,6.644868,-1.61,22.049999,19.879999,1729415857103.0,0.0
-4.084548,-2.409572,6.80758,-4.69,25.549999,20.93,1729415857124.0,0.0
-4.24726,-2.617748,6.455836,-9.87,27.93,27.370001,1729415857143.0,0.0
-4.680361,-4.555934,6.766902,-8.96,25.200001,31.290001,1729415857164.0,0.0
-5.572884,-5.192425,8.16431,6.16,23.450001,29.26,1729415857183.0,0.0
-6.297909,-5.795416,9.085547,16.379999,18.549999,25.34,1729415857204.0,0.0
-6.79083,-7.001399,10.013963,7.91,9.24,12.04,1729415857224.0,0.0
-5.965307,-6.149554,10.260423,-0.07,-1.19,-7.56,1729415857244.0,0.0
-5.144568,-4.371687,8.135597,-7.0,-5.39,-23.73,1729415857263.0,0.0
-5.685347,-3.491128,5.649454,-7.56,-3.29,-26.040001,1729415857284.0,0.0
-7.070791,-4.055835,6.546762,27.09,-1.75,-26.110001,1729415857304.0,0.0
-6.130411,-1.014557,7.970492,54.599998,5.39,-32.34,1729415857325.0,0.0
-6.429514,-1.79701,8.01117,22.82,-4.34,-31.780001,1729415857343.0,0.0
-5.364708,-3.287738,8.123632,-0.7,-9.52,-34.02,1729415857363.0,0.0
-4.816752,-3.538985,7.89153,-2.8,-13.65,-34.580002,1729415857385.0,0.0
-3.74716,-0.775275,6.735795,12.46,-9.38,-27.440001,1729415857404.0,0.0
-3.419343,0.122034,6.750153,-1.26,-0.07,-10.71,1729415857425.0,0.0
-5.60399,-4.371687,4.809574,-14.49,-3.5,-5.25,1729415857444.0,0.0
-5.369494,-3.031706,5.828916,28.07,15.96,-0.49,1729415857464.0,0.0
-4.414758,-1.411765,7.989635,42.209999,28.98,0.56,1729415857484.0,0.0
-3.871587,1.12702,9.205189,16.309999,27.790001,7.77,1729415857503.0,0.0
-4.249653,-0.215354,6.898508,-24.08,16.1,28.07,1729415857528.0,0.0
-5.108676,-2.517249,5.74756,-33.529999,10.15,42.560001,1729415857543.0,0.0
-4.752146,-2.811567,7.874779,-10.99,11.27,48.720001,1729415857565.0,0.0
-6.673582,-10.762917,6.599405,-24.43,-4.34,30.1,1729415857583.0,0.0
-7.022934,-7.204789,9.537791,34.369999,5.95,23.379999,1729415857603.0,0.0
-5.56092,-4.096512,10.681561,17.710001,-0.07,-10.15,1729415857626.0,0.0
-5.103891,-4.017549,8.142776,-29.889999,-1.89,-22.469999,1729415857642.0,0.0
-6.319445,-4.386044,5.496314,-28.07,1.61,-22.120001,1729415857663.0,0.0
-7.877172,-4.706682,6.608976,23.66,1.96,-35.209999,1729415857683.0,0.0
-6.032306,0.100499,8.329416,63.490002,7.21,-40.950001,1729415857703.0,0.0
-6.568298,-1.696511,8.673983,30.17,-3.29,-37.450001,1729415857728.0,0.0
-5.675776,-1.9669,7.657032,-22.120001,-15.190001,-25.9,1729415857743.0,0.0
-4.878965,-4.740182,6.819544,-33.459999,-22.960001,-26.67,1729415857764.0,0.0
-4.811966,-1.380659,6.489335,5.39,-14.91,-17.01,1729415857782.0,0.0
-4.945964,-1.411765,6.206983,-4.62,-10.99,-11.48,1729415857804.0,0.0
-5.745167,-2.845066,5.28096,-15.96,-12.53,-6.02,1729415857825.0,0.0
-4.855037,-1.971686,5.481956,-0.63,-1.82,-0.91,1729415857842.0,0.0
-2.287539,1.162912,6.173482,2.24,12.32,8.75,1729415857864.0,0.0
-2.586641,2.811567,7.211967,-3.15,25.690001,37.099998,1729415857882.0,0.0
-5.20439,-1.631905,6.872187,-39.41,23.1,57.889999,1729415857904.0,0.0
-4.962714,-4.855037,8.535198,-55.650002,26.389999,74.830002,1729415857926.0,0.0
-6.486942,-12.222539,5.546563,-75.809998,0.49,36.119999,1729415857943.0,0.0
-7.130611,-6.096912,9.635897,30.73,31.780001,53.619999,1729415857964.0,0.0
-6.23091,-6.324231,9.846465,-21.77,6.09,7.35,1729415857983.0,0.0
-5.864808,-5.778666,7.874779,-45.360001,-3.78,-7.07,1729415858004.0,0.0
-7.501499,-6.218946,5.343173,-40.459999,-4.06,-14.7,1729415858025.0,0.0
-8.798409,-6.855437,6.403193,24.01,-5.95,-47.18,1729415858043.0,0.0
-5.505885,0.741775,8.690732,75.739998,7.28,-49.98,1729415858062.0,0.0
-5.235496,1.579263,7.599605,-1.19,-13.02,-27.65,1729415858084.0,0.0
-5.034499,-0.677169,6.953543,-8.33,-11.76,-3.5,1729415858104.0,0.0
-5.362316,-3.95055,5.85763,-12.6,-14.14,5.18,1729415858127.0,0.0
-5.704489,-5.192425,5.563312,7.07,-8.4,4.13,1729415858143.0,0.0
-5.991628,-3.795017,4.895715,27.02,-0.07,2.73,1729415858163.0,0.0
-4.845466,-3.4672,4.826324,27.370001,9.59,-4.97,1729415858183.0,0.0
-3.67059,0.756132,7.534998,38.220001,24.15,0.49,1729415858202.0,0.0
-2.912065,-0.794417,5.998806,10.71,23.940001,20.09,1729415858225.0,0.0
-3.129812,-2.254039,7.030113,-12.25,24.360001,35.139999,1729415858242.0,0.0
-5.211568,-10.301102,5.907879,-20.09,11.06,33.670002,1729415858262.0,0.0
-7.51107,-5.749953,8.908479,13.65,22.469999,26.25,1729415858284.0,0.0
-5.611169,-4.67079,10.34178,-13.440001,8.47,1.89,1729415858304.0,0.0
-4.644469,-4.254438,7.23111,-38.009998,5.67,-11.27,1729415858324.0,0.0
-7.60439,-6.21416,5.69731,-35.0,9.73,-16.379999,1729415858349.0,0.0
-9.45165,-3.672983,9.102298,29.469999,8.47,-32.549999,1729415858363.0,0.0
-7.408179,-2.739782,8.149954,41.299999,4.62,-38.43,1729415858385.0,0.0
-5.991628,2.359323,9.458827,19.25,-8.61,-34.720001,1729415858404.0,0.0
-4.881358,-2.727818,8.327023,-17.290001,-18.620001,-34.369999,1729415858426.0,0.0
-3.45045,-1.622334,6.080163,-13.37,-13.65,-23.870001,1729415858443.0,0.0
-3.826123,-2.100898,4.369294,-0.35,-7.07,-7.07,1729415858464.0,0.0
-5.795416,-3.711268,2.352145,10.64,1.54,-3.57,1729415858484.0,0.0
-5.422136,-1.928615,4.910072,54.810001,22.33,1.12,1729415858504.0,0.0
-4.493721,-0.784846,7.49432,54.25,33.32,7.28,1729415858537.0,0.0
-3.716053,0.380459,8.563912,30.380001,34.09,22.4,1729415858543.0,0.0
-4.48415,-0.911665,7.506285,6.02,24.57,40.389999,1729415858563.0,0.0
-5.386244,-4.359723,6.386444,0.63,21.559999,43.68,1729415858584.0,0.0
-7.24786,-7.822137,9.320045,2.24,22.75,38.43,1729415858606.0,0.0
-8.662018,-7.197611,9.427721,7.77,6.72,23.309999,1729415858626.0,0.0
-7.874779,-2.725425,8.501699,9.94,-1.19,-2.1,1729415858643.0,0.0
-6.386444,-3.912265,7.518249,-24.5,-5.53,-18.969999,1729415858664.0,0.0
-8.10449,-5.948557,5.149354,-18.129999,-2.17,-26.950001,1729415858683.0,0.0
-6.656832,-1.447658,7.499106,58.450001,9.17,-46.619999,1729415858706.0,0.0
-6.417551,1.615155,7.755138,56.0,0.56,-43.470001,1729415858729.0,0.0
-6.381658,-0.315853,10.652846,-2.03,-11.83,-43.049999,1729415858745.0,0.0
-4.07737,-1.18684,6.642475,-51.73,-25.9,-31.85,1729415858766.0,0.0
-3.376273,-1.660619,4.115655,-50.259998,-28.35,-16.309999,1729415858784.0,0.0
-4.864608,-2.67039,3.617948,-27.93,-15.89,-1.75,1729415858803.0,0.0
-6.513263,-1.794617,4.579862,-2.66,-5.32,7.63,1729415858826.0,0.0
-4.965107,-2.115255,5.735595,-9.52,3.78,9.17,1729415858844.0,0.0
-3.460021,-0.09332,7.793423,-4.9,13.16,15.82,1729415858865.0,0.0
-3.842873,0.492921,8.939585,-13.72,16.1,34.09,1729415858886.0,0.0
-3.845266,1.062413,8.941978,-29.469999,9.87,52.709999,1729415858904.0,0.0
-6.314659,-6.113662,5.309673,-51.450001,0.77,62.09,1729415858926.0,0.0
-7.219146,-9.942179,7.063612,-21.629999,-0.35,42.349998,1729415858944.0,0.0
-10.25803,-6.364908,9.111869,31.360001,6.93,32.48,1729415858966.0,0.0
-5.900701,-5.266603,9.894321,-18.41,-7.35,-16.030001,1729415858984.0,0.0
-6.501299,-5.718846,5.362316,-38.009998,-5.32,-25.200001,1729415859005.0,0.0
-7.733603,-4.376472,6.118448,21.07,1.89,-38.639999,1729415859026.0,0.0
-6.975078,-0.909273,7.951349,54.599998,8.47,-43.400002,1729415859045.0,0.0
-6.958328,-1.210768,8.863015,23.940001,-10.64,-38.43,1729415859068.0,0.0
-6.23091,-4.680361,8.551948,-6.86,-26.32,-48.439999,1729415859084.0,0.0
-3.9673,0.602991,6.151947,-20.23,-15.89,-37.240002,1729415859104.0,0.0
-3.78066,-0.557528,4.819145,-49.209999,-21.629999,-20.09,1729415859126.0,0.0
-5.87438,-2.67039,2.510071,-43.68,-17.290001,-4.2,1729415859145.0,0.0
-5.759524,-2.096112,4.551149,12.81,-0.63,5.67,1729415859166.0,0.0
-4.091727,-0.074178,7.496714,45.779999,17.43,8.96,1729415859186.0,0.0
-4.185047,0.787239,8.559127,28.35,23.379999,24.710001,1729415859204.0,0.0
-4.993821,-1.146162,7.929814,-13.79,17.01,46.130001,1729415859228.0,0.0
-5.730811,-2.227718,5.053641,-22.120001,10.85,55.09,1729415859244.0,0.0
-7.786245,-12.311072,7.006185,-5.25,15.82,55.510002,1729415859265.0,0.0
-23.152952,-8.267202,8.595018,17.85,16.73,29.4,1729415859284.0,0.0
2.533999,-4.481757,9.365508,-10.85,17.85,-41.299999,1729415859304.0,0.0
-6.197411,-6.391229,9.559326,-25.76,-9.45,24.15,1729415859325.0,0.0
-5.635098,-1.579263,6.963113,2.17,-12.39,-14.63,1729415859344.0,0.0
-7.99442,-5.4006,5.47717,-3.78,-8.96,-16.309999,1729415859364.0,0.0
-8.977871,-5.563312,10.219746,56.630001,-14.56,-37.450001,1729415859383.0,0.0
-3.790231,0.988236,8.611769,37.799999,-14.28,-45.639999,1729415859405.0,0.0
-3.605984,-0.859023,4.395615,-23.52,-24.08,-38.5,1729415859426.0,0.0
-6.12084,1.526621,6.503692,-2.24,-8.61,-10.5,1729415859446.0,0.0
-5.273781,-2.148755,6.259624,-34.299999,-20.790001,-1.26,1729415859465.0,0.0
-4.98425,-2.823531,5.666204,-21.280001,-20.299999,12.81,1729415859484.0,0.0
-5.879165,-3.132205,5.699703,2.1,-16.870001,20.860001,1729415859504.0,0.0
-5.845665,-2.679961,7.609176,28.210001,-0.42,17.780001,1729415859525.0,0.0
-3.790231,0.681954,8.240881,26.950001,6.79,22.4,1729415859544.0,0.0
-4.031906,1.773082,6.611369,-5.6,0.07,33.18,1729415859563.0,0.0
-5.740381,-9.633504,1.440479,-12.74,-6.16,44.59,1729415859584.0,0.0
-7.578069,-5.257031,9.829715,37.939999,5.53,27.790001,1729415859606.0,0.0
-5.417351,-6.826723,10.399208,36.330002,4.55,3.71,1729415859625.0,0.0
-4.479364,-5.687739,10.79163,-16.870001,-1.05,-10.71,1729415859645.0,0.0
-4.388437,-5.113462,5.69731,-60.34,-4.13,-22.75,1729415859664.0,0.0
-8.999406,-5.209175,6.585048,-20.51,-0.56,-27.58,1729415859683.0,0.0
-6.312266,0.452243,9.107083,17.92,-3.15,-32.130001,1729415859703.0,0.0
-6.175875,-0.251246,6.872187,-10.08,-16.799999,-24.5,1729415859729.0,0.0
-6.814759,1.052842,9.107083,-17.99,-13.3,-9.87,1729415859743.0,0.0
-5.481956,-1.811367,7.329216,-32.900002,-20.93,0.28,1729415859764.0,0.0
-4.41715,-3.751946,5.465207,-19.040001,-14.91,2.38,1729415859786.0,0.0
-6.21416,-4.321437,4.268795,15.47,-1.75,6.37,1729415859805.0,0.0
-5.761917,-1.277767,6.06102,43.610001,11.69,6.37,1729415859825.0,0.0
-5.367101,-2.467,5.816952,26.74,13.37,8.4,1729415859845.0,0.0
-3.850052,0.586242,8.209774,23.799999,20.440001,17.290001,1729415859864.0,0.0
-3.728018,-1.708475,7.568498,-2.94,18.76,31.08,1729415859883.0,0.0
-3.436093,-2.926422,7.683353,-9.52,16.799999,37.52,1729415859905.0,0.0
-5.773881,-9.504292,6.58744,-20.09,9.73,29.82,1729415859928.0,0.0
-8.032705,-6.963113,9.052048,5.6,14.28,24.08,1729415859943.0,0.0
-5.979663,-4.235296,8.348558,-17.92,2.31,-5.46,1729415859964.0,0.0
-5.584848,-5.07757,7.357929,-30.24,1.19,-19.110001,1729415859984.0,0.0
-8.896514,-5.922236,6.860222,-20.860001,6.37,-29.540001,1729415860004.0,0.0
-6.910471,-0.533599,8.650054,38.009998,7.7,-51.099998,1729415860026.0,0.0
-7.936993,0.942772,10.449455,14.14,-9.66,-47.950001,1729415860043.0,0.0
-5.819345,-1.354338,8.420342,-25.76,-19.67,-38.920002,1729415860064.0,0.0
-3.460021,-1.138984,7.022934,-42.630001,-24.57,-31.219999,1729415860085.0,0.0
-3.146562,0.12682,5.977271,-9.8,-12.39,-4.9,1729415860106.0,0.0
-5.271388,-2.321038,4.07737,-2.31,-5.46,2.17,1729415860126.0,0.0
-5.711668,-1.885544,5.580062,32.48,8.47,13.23,1729415860143.0,0.0
-5.032106,-0.765703,7.62114,38.009998,12.46,17.710001,1729415860163.0,0.0
-3.754339,0.232104,8.470592,23.17,17.08,28.91,1729415860184.0,0.0
-5.352744,-2.790031,8.149954,-10.64,11.2,43.470001,1729415860207.0,0.0
-6.211767,-6.446264,7.058826,-18.969999,1.96,36.119999,1729415860277.0,0.0
-7.767102,-10.325029,7.030113,6.3,-5.53,17.639999,1729415860278.0,0.0
-8.042276,-6.116055,7.771888,42.490002,2.73,-0.21,1729415860278.0,0.0
-4.931608,-5.032106,7.762317,3.29,1.05,-31.290001,1729415860296.0,0.0
-4.156333,-4.867002,6.709475,-21.700001,5.39,-41.790001,1729415860305.0,0.0
-6.991827,-5.970093,7.135397,6.51,5.88,-44.66,1729415860326.0,0.0
-6.699903,1.641476,9.695717,49.209999,5.88,-46.200001,1729415860345.0,0.0
-6.022735,-1.316052,8.099705,-26.389999,-21.98,-28.91,1729415860364.0,0.0
-2.916851,-1.299303,7.077969,-42.0,-25.620001,-30.309999,1729415860391.0,0.0
-4.563113,-0.315853,4.048656,-5.39,-9.45,-0.7,1729415860406.0,0.0
-6.259624,-1.820938,3.436093,-4.62,2.31,4.06,1729415860427.0,0.0
-5.556134,0.098106,7.278966,31.01,19.879999,13.51,1729415860445.0,0.0
-3.582055,1.40698,7.594819,25.059999,29.540001,26.18,1729415860466.0,0.0
-4.82393,-1.56012,6.819544,-11.9,32.48,47.950001,1729415860484.0,0.0
-5.103891,-5.929415,6.288338,-20.09,27.370001,62.299999,1729415860505.0,0.0
-6.941578,-10.731809,5.970093,17.99,10.43,35.279999,1729415860525.0,0.0
-0.978664,-0.258425,8.353344,73.080002,40.389999,4.9,1729415860545.0,0.0
2.256432,-4.570292,10.942378,-31.43,9.94,-2.8,1729415860566.0,0.0
-14.23251,-9.722038,6.565905,-40.740002,-25.129999,43.400002,1729415860583.0,0.0
-5.182854,-3.364309,6.302694,-7.21,18.969999,-28.0,1729415860605.0,0.0
-10.078569,-6.180661,8.300702,6.02,-9.1,-41.16,1729415860643.0,0.0
-4.335794,2.785245,7.99442,32.34,-10.57,-55.790001,1729415860647.0,0.0
-5.271388,0.193819,4.553542,-39.619999,-18.34,-43.400002,1729415860664.0,0.0
-6.374479,3.639483,8.181061,7.28,-4.97,-11.55,1729415860685.0,0.0
-4.414758,-0.581456,6.836295,-31.290001,-13.23,-0.56,1729415860704.0,0.0
-6.326623,-5.668597,3.462414,-20.370001,-11.9,8.33,1729415860732.0,0.0
-5.687739,-2.806781,6.032306,54.25,12.95,14.35,1729415860745.0,0.0
-5.123034,-1.619941,7.274181,58.310001,22.75,12.04,1729415860764.0,0.0
-2.859423,-0.028714,6.515656,34.02,33.880001,19.950001,1729415860784.0,0.0
-2.632105,-3.227918,6.290731,6.09,31.99,34.580002,1729415860804.0,0.0
-7.594819,-13.050454,4.036692,22.68,29.120001,38.779999,1729415860827.0,0.0
-8.413164,1.385444,11.942577,70.349998,41.580002,47.18,1729415860846.0,0.0
-8.126025,-8.12124,9.229117,-46.619999,-0.28,23.379999,1729415860866.0,0.0
-6.314659,-6.23091,8.9348,-32.48,-7.28,-4.76,1729415860886.0,0.0
-6.893722,-4.718646,5.161318,-23.309999,6.37,-18.9,1729415860905.0,0.0
-8.690732,-6.565905,9.394222,-15.89,7.42,-39.900002,1729415860929.0,0.0
-8.913264,-1.115055,16.642082,66.220001,-20.93,-68.879997,1729415860945.0,0.0
-2.682354,-1.502693,8.204988,-44.73,-30.52,-61.529999,1729415861101.0,0.0
-3.428915,2.383251,4.180261,-48.299999,-21.84,-35.279999,1729415861101.0,0.0
-5.446064,4.589434,6.173482,3.43,-7.7,3.29,1729415861101.0,0.0
-5.144568,-1.584049,4.204189,-32.060001,-14.21,20.299999,1729415861101.0,0.0
-5.888737,-3.878766,3.785445,1.89,-4.62,33.389999,1729415861102.0,0.0
-5.852845,-2.199004,6.178268,47.389999,15.75,35.209999,1729415861102.0,0.0
-4.084548,-0.325424,7.381857,47.599998,33.740002,43.119999,1729415861102.0,0.0
-9.710074,-14.500504,3.04367,38.920002,29.469999,43.75,1729415861108.0,0.0
-9.877571,-5.998806,8.365308,66.639999,41.09,35.77,1729415861125.0,0.0
-4.4674,-4.575077,8.729016,45.57,28.700001,8.75,1729415861144.0,0.0
-6.443871,-5.539384,8.810372,-13.79,19.460001,-4.48,1729415861165.0,0.0
-7.21436,-6.84108,8.793623,-13.65,14.63,-11.83,1729415861184.0,0.0
-7.367501,-4.831109,9.004191,-0.7,8.61,-31.710001,1729415861205.0,0.0
-8.319844,-4.048656,7.616355,-24.5,-3.29,-54.740002,1729415861226.0,0.0
-9.425328,-4.457829,10.408779,-15.05,-23.940001,-72.029999,1729415861244.0,0.0
-3.196811,2.129612,5.146961,9.52,-28.139999,-70.419998,1729415861264.0,0.0
-5.056034,3.23031,5.15414,-10.64,-7.07,-34.09,1729415861285.0,0.0
-7.121039,1.56012,6.754939,-10.08,-9.59,-10.99,1729415861304.0,0.0
-5.04407,-0.332602,6.250053,-1.68,-8.26,0.63,1729415861325.0,0.0
-5.570491,-3.87398,4.510471,0.07,-1.96,6.3,1729415861346.0,0.0
-6.041877,-1.586441,5.682954,46.27,18.34,16.870001,1729415861366.0,0.0
-5.089533,1.916651,7.41775,47.740002,25.059999,24.780001,1729415861386.0,0.0
-3.275774,0.667598,6.826723,21.77,27.440001,40.32,1729415861405.0,0.0
-4.833502,-3.634698,7.252645,14.35,22.610001,61.32,1729415861426.0,0.0
-10.360922,-0.433101,13.447663,47.670002,11.83,32.970001,1729415861445.0,0.0
-5.084748,-5.072784,12.291929,31.219999,0.07,2.66,1729415861465.0,0.0
-5.888737,-5.233103,6.994221,-57.82,-15.05,-8.47,1729415861485.0,0.0
-5.565705,-1.976472,5.682954,-32.900002,-9.1,-8.54,1729415861507.0,0.0
-6.080163,-2.402394,6.245267,-9.8,-7.98,-6.3,1729415861528.0,0.0
-6.817152,-0.251246,7.9681,17.85,-7.0,-0.21,1729415861544.0,0.0
-6.532406,-1.026521,8.216952,4.34,-13.09,-0.77,1729415861565.0,0.0
-5.821737,-0.550349,7.334002,-2.17,-12.74,-1.05,1729415861585.0,0.0
-6.029913,-1.09352,6.209375,-3.36,-9.45,4.06,1729415861605.0,0.0
-6.941578,-1.603191,6.661618,4.48,-0.63,9.38,1729415861627.0,0.0
-6.886543,-2.127219,6.290731,5.67,0.07,8.26,1729415861646.0,0.0
-6.735795,-2.548356,6.809973,5.88,1.89,2.73,1729415861665.0,0.0
-6.575477,-2.67039,7.343572,7.7,3.57,-1.26,1729415861686.0,0.0
-6.410372,-2.816352,7.946564,7.0,1.61,-3.78,1729415861706.0,0.0
-5.65424,-3.862016,7.834101,-4.69,-0.49,-9.03,1729415861731.0,0.0
-5.651847,-3.634698,6.367301,-10.85,2.03,-13.51,1729415861746.0,0.0
-5.716454,-3.290131,5.264209,-8.54,7.42,-19.389999,1729415861765.0,0.0
-7.176075,-3.541377,5.668597,-8.05,11.06,-24.15,1729415861784.0,0.0
-8.822337,-6.484549,7.649854,-3.99,-2.59,-33.950001,1729415861804.0,0.0
-5.802595,-1.182054,10.499706,34.860001,-14.28,-45.360001,1729415861826.0,0.0
-7.745567,-3.620341,13.811372,-23.73,-31.290001,-56.420002,1729415861847.0,0.0
-0.990629,1.586441,1.897508,-36.189999,-26.25,-35.279999,1729415861866.0,0.0
-4.864608,1.143769,0.318245,-27.23,14.98,-1.33,1729415861885.0,0.0
-7.599605,1.85683,6.618547,21.559999,16.17,11.48,1729415861905.0,0.0
-7.401,0.102891,8.319844,29.4,16.17,27.51,1729415861926.0,0.0
-4.929214,-2.050649,8.322237,-18.620001,9.03,30.17,1729415861946.0,0.0
-5.962914,-3.168097,8.008778,4.9,24.360001,35.349998,1729415861965.0,0.0
-6.589834,-3.842873,7.216753,20.23,30.17,28.280001,1729415861984.0,0.0
-8.580662,-2.959922,6.762117,28.35,24.290001,14.91,1729415862006.0,0.0
-6.501299,-1.844866,7.56132,24.639999,17.92,7.91,1729415862030.0,0.0
-4.941179,-1.799403,6.740582,-0.91,13.72,2.31,1729415862045.0,0.0
-4.036692,0.421137,6.427122,-20.93,24.43,10.01,1729415862065.0,0.0
-3.069991,3.110669,3.742374,-59.779999,42.84,36.82,1729415862085.0,0.0
-9.030513,-5.584848,5.156533,-67.410004,19.460001,56.630001,1729415862105.0,0.0
-8.097312,2.328217,8.566305,-12.46,36.330002,62.299999,1729415862127.0,0.0
-7.456036,-2.70389,6.161518,-80.919998,12.88,51.450001,1729415862144.0,0.0
-10.533205,-1.85683,7.020542,-51.869999,23.52,57.75,1729415862165.0,0.0
-9.731609,-2.306681,8.925228,-33.880001,13.79,45.779999,1729415862187.0,0.0
-10.542776,-3.273381,9.186047,-29.889999,-4.2,32.27,1729415862206.0,0.0
-10.193424,-3.940979,8.925228,-31.219999,-22.610001,11.41,1729415862227.0,0.0
-9.212367,-1.962115,7.843673,-27.719999,-30.940001,-7.7,1729415862246.0,0.0
-8.338986,-1.354338,7.336394,-50.889999,-35.490002,-14.07,1729415862265.0,0.0
-7.645068,-0.784846,7.307681,-112.629997,-37.869999,-10.08,1729415862286.0,0.0
-7.092326,-1.165305,6.563512,-163.800003,-45.080002,-1.96,1729415862305.0,0.0
-6.448657,-2.275574,5.271388,-209.369995,-53.689999,3.08,1729415862326.0,0.0
-6.175875,-3.519842,4.56072,-235.199997,-55.09,6.65,1729415862344.0,0.0
-6.209375,-6.204589,4.280759,-242.690002,-60.619999,-0.35,1729415862365.0,0.0
-5.938986,-8.176274,4.371687,-233.169998,-61.459999,-10.85,1729415862384.0,0.0
-5.520242,-9.717253,4.067799,-224.210007,-62.93,-31.99,1729415862405.0,0.0
-4.644469,-11.717653,3.242275,-193.410004,-64.889999,-54.670002,1729415862436.0,0.0
-3.335595,-12.562319,3.005385,-123.410004,-56.139999,-72.800003,1729415862446.0,0.0
-2.919244,-11.480762,3.567699,-47.880001,-36.470001,-86.239998,1729415862464.0,0.0
-3.287738,-10.561919,4.737789,0.28,-21.77,-92.050003,1729415862486.0,0.0
-3.866802,-9.224331,5.405386,-1.89,-12.53,-96.739998,1729415862504.0,0.0
-3.692125,-8.018349,3.455236,-31.5,-9.45,-100.379997,1729415862529.0,0.0
-3.06042,-7.82453,2.191825,-29.610001,2.94,-99.400002,1729415862545.0,0.0
-3.60359,-8.018349,2.435893,2.03,22.75,-95.269997,1729415862566.0,0.0
-5.630312,-9.913465,1.899901,12.04,32.130001,-94.849998,1729415862584.0,0.0
-4.941179,-6.190232,5.355137,130.270004,42.279999,-81.480003,1729415862605.0,0.0
-5.273781,-3.290131,8.757731,142.940002,34.580002,-81.269997,1729415862628.0,0.0
-4.163511,-4.041477,8.372486,70.209999,6.3,-78.610001,1729415862646.0,0.0
-2.646462,-2.979064,6.62094,27.860001,-8.05,-69.580002,1729415862665.0,0.0
-0.811167,-2.096112,4.443472,41.720001,-0.42,-56.139999,1729415862686.0,0.0
1.198804,0.12682,4.929214,44.939999,3.36,-22.26,1729415862705.0,0.0
1.79701,-0.349352,7.025328,65.169998,19.74,13.79,1729415862730.0,0.0
-1.091127,-1.581656,7.786245,52.849998,33.25,46.200001,1729415862745.0,0.0
-2.17029,-2.775674,8.135597,7.77,30.870001,65.870003,1729415862765.0,0.0
-2.742175,-3.878766,7.879565,-37.799999,22.68,84.0,1729415862785.0,0.0
-3.151347,-1.804188,5.60399,-84.629997,15.33,97.370003,1729415862804.0,0.0
-6.922436,-9.257831,4.756931,-134.259995,6.37,114.660004,1729415862826.0,0.0
-7.336394,-9.676575,2.318645,-87.290001,-3.43,104.090004,1729415862845.0,0.0
-4.682754,-10.181459,3.787838,-13.79,-7.07,98.629997,1729415862864.0,0.0
-9.401401,-14.146368,3.974478,-29.4,6.09,83.720001,1729415862886.0,0.0
-9.013763,-10.214959,4.352544,-7.07,12.88,32.060001,1729415862907.0,0.0
-9.54497,-12.813565,4.929214,-29.960001,15.12,-17.08,1729415862930.0,0.0
-8.360522,-8.623734,3.397808,-26.950001,10.99,-49.0,1729415862947.0,0.0
-4.529613,-5.156533,0.119641,-42.91,14.21,-67.970001,1729415862967.0,0.0
-2.854637,-8.606983,5.869594,7.84,5.46,-70.419998,1729415862987.0,0.0
-4.354938,-1.677369,7.726424,110.32,0.35,-45.360001,1729415863008.0,0.0
-2.818745,1.684547,10.490135,51.099998,-16.59,-26.32,1729415863030.0,0.0
-2.354537,-1.490728,8.915657,-73.57,-24.360001,-11.34,1729415863047.0,0.0
-1.328017,-2.146362,7.319644,-121.099998,-33.18,17.43,1729415863067.0,0.0
-2.299503,-6.405586,5.448457,-158.479996,-12.46,42.560001,1729415863088.0,0.0
-4.969893,-11.263017,2.794817,-145.25,2.52,49.700001,1729415863108.0,0.0
-4.766503,-8.626125,0.79681,-57.75,3.5,48.16,1729415863128.0,0.0
-4.110869,-7.812566,1.45005,20.23,-0.42,46.200001,1729415863151.0,0.0
-4.969893,-7.692925,2.861816,72.800003,-4.34,54.740002,1729415863167.0,0.0
-7.855636,-10.755738,6.046663,73.43,-2.94,55.09,1729415863186.0,0.0
-8.097312,-8.030313,1.998007,-35.560001,5.32,7.14,1729415863208.0,0.0
-7.456036,-15.828522,1.624727,-69.440002,15.12,-42.139999,1729415863228.0,0.0
-7.21436,-11.313265,3.76391,39.759998,22.960001,-59.920002,1729415863246.0,0.0
-6.041877,-7.812566,5.24746,31.08,23.870001,-78.050003,1729415863268.0,0.0
-4.338188,-7.810174,1.205983,-43.470001,29.049999,-89.110001,1729415863288.0,0.0
1.014557,-7.573284,4.826324,49.279999,18.83,-82.879997,1729415863307.0,0.0
-2.337788,1.213161,10.444671,176.050003,8.05,-32.970001,1729415863330.0,0.0
-2.639283,1.20359,9.903893,54.32,-11.83,-13.93,1729415863346.0,0.0
-2.431108,-2.041078,7.32443,-70.209999,-22.33,11.62,1729415863367.0,0.0
-3.586841,-6.171089,4.919643,-113.82,-24.08,33.040001,1729415863387.0,0.0
-4.682754,-8.152347,4.740182,-86.239998,-14.77,44.799999,1729415863407.0,0.0
-4.335794,-4.74736,2.648855,-60.830002,-5.81,55.510002,1729415863428.0,0.0
-5.481956,-10.097712,0.476172,-63.700001,-2.38,53.130001,1729415863447.0,0.0
-4.524827,-8.748159,0.617348,40.529999,-3.43,60.060001,1729415863466.0,0.0
-5.429315,-9.635897,2.900101,67.340004,1.05,54.040001,1729415863488.0,0.0
-7.197611,-11.665009,4.268795,42.139999,3.71,38.5,1729415863507.0,0.0
-6.831509,-9.96132,2.330609,15.33,2.52,19.18,1729415863527.0,0.0
-6.687939,-13.306486,2.081756,-2.73,19.040001,-27.02,1729415863548.0,0.0
-7.039684,-10.490135,4.936393,59.849998,31.85,-45.009998,1729415863568.0,0.0
-7.183254,-8.817552,4.256832,10.85,41.860001,-70.349998,1729415863587.0,0.0
-4.661219,-10.683953,0.66999,-33.389999,47.110001,-86.029999,1729415863607.0,0.0
-2.009971,-5.091926,7.180861,116.480003,21.629999,-78.120003,1729415863630.0,0.0
-4.800002,1.808974,9.250652,120.470001,11.41,-44.66,1729415863647.0,0.0
-1.964507,-0.291924,7.415358,-27.58,-4.55,-36.82,1729415863667.0,0.0
-1.828116,-2.22054,7.190433,-73.57,-18.41,0.7,1729415863686.0,0.0
-2.888137,-4.058227,5.201996,-54.110001,-19.879999,33.110001,1729415863706.0,0.0
-2.589034,-0.315853,4.713861,10.01,-10.57,66.709999,1729415863731.0,0.0
-5.316852,-5.754738,3.507878,-15.75,-1.33,94.290001,1729415863747.0,0.0
-8.389235,-12.454641,4.460221,20.93,-4.55,75.949997,1729415863767.0,0.0
-6.032306,-8.439486,7.635497,70.699997,-24.15,81.760002,1729415863788.0,0.0
-9.829715,-16.663616,3.318845,-83.720001,-11.41,31.15,1729415863806.0,0.0
-7.312466,-12.294323,-0.643669,-56.420002,-1.82,4.97,1729415863829.0,0.0
-7.793423,-14.289936,0.801596,14.7,12.88,-36.259998,1729415863846.0,0.0
-6.941578,-7.424929,3.936193,75.879997,22.75,-59.080002,1729415863866.0,0.0
-5.862415,-9.990034,0.332602,-56.77,39.34,-95.410004,1729415863886.0,0.0
-2.533999,-11.009377,2.287539,53.830002,39.549999,-107.309998,1729415863908.0,0.0
-2.809174,0.736989,8.003991,215.600006,19.530001,-72.870003,1729415863928.0,0.0
-0.892523,5.15414,11.79183,111.510002,15.75,-47.389999,1729415863947.0,0.0
-1.234696,1.361516,11.667403,-11.48,10.15,-8.61,1729415863967.0,0.0
-4.273581,-3.108276,8.530413,-49.91,1.4,28.700001,1729415863986.0,0.0
-4.036692,-2.469393,5.484349,-32.130001,-7.77,52.5,1729415864007.0,0.0
-5.508278,-1.837688,4.448257,-25.83,-10.92,71.260002,1729415864028.0,0.0
-7.152147,-4.890929,3.34038,-29.82,-15.12,93.940002,1729415864046.0,0.0
-8.102098,-9.200402,4.572684,2.38,-29.190001,88.690002,1729415864067.0,0.0
-8.831908,-11.69851,6.565905,-46.200001,-46.970001,70.840004,1729415864086.0,0.0
-7.721639,-13.856836,-0.662812,-178.289993,-32.619999,25.620001,1729415864108.0,0.0
-6.005985,-16.328621,-4.13719,-120.190002,-6.58,-14.14,1729415864129.0,0.0
-5.699703,-12.794422,-0.526421,40.740002,1.12,-37.380001,1729415864146.0,0.0
-5.860023,-7.460821,4.022335,82.599998,10.64,-51.029999,1729415864167.0,0.0
-5.15414,-8.195417,3.548556,-39.830002,20.719999,-73.220001,1729415864186.0,0.0
-2.160719,-2.155933,5.74756,-18.34,1.19,-83.720001,1729415864206.0,0.0
-1.155733,2.68714,9.351151,92.82,-19.18,-34.02,1729415864228.0,0.0
-1.641476,-0.397209,9.824929,-15.61,-21.77,-3.92,1729415864245.0,0.0
-3.998406,-3.139383,8.12124,-85.330002,-20.860001,26.809999,1729415864266.0,0.0
-4.766503,-8.520842,5.326423,-135.940002,-22.33,38.43,1729415864286.0,0.0
-4.053442,-6.664011,2.038685,-96.459999,-16.17,45.5,1729415864307.0,0.0
-5.190032,-8.267202,0.744168,-31.99,-14.49,53.48,1729415864329.0,0.0
-4.266403,-6.345766,1.497907,48.09,-15.82,62.369999,1729415864347.0,0.0
-6.422336,-11.392227,3.579663,22.120001,-7.7,65.730003,1729415864366.0,0.0
-9.750752,-14.617754,2.940779,-38.5,-1.61,19.110001,1729415864388.0,0.0
-6.235696,-12.251251,0.038285,-17.360001,0.84,-3.71,1729415864408.0,0.0
-6.759724,-11.100305,3.139383,41.509998,10.15,-43.119999,1729415864429.0,0.0
-6.788438,-4.809574,5.017749,54.110001,9.52,-54.599998,1729415864446.0,0.0
-4.713861,-12.177074,5.120641,-58.869999,9.66,-73.5,1729415864473.0,0.0
-3.56052,-9.920642,4.761717,12.32,0.84,-81.410004,1729415864486.0,0.0
-1.756332,-4.278367,6.336195,93.449997,-1.96,-65.870003,1729415864507.0,0.0
-3.058028,-2.952743,9.327222,45.639999,-4.13,-51.450001,1729415864530.0,0.0
-0.227318,-0.531207,6.144768,-55.860001,-5.04,-10.29,1729415864547.0,0.0
-3.778267,-7.082755,6.455836,-75.389999,0.28,24.08,1729415864567.0,0.0
-4.570292,-5.625526,4.527221,-28.07,5.67,38.920002,1729415864587.0,0.0
-3.046063,-1.976472,1.875973,-13.440001,3.92,58.59,1729415864608.0,0.0
-5.424529,-7.551748,1.095913,-31.290001,10.64,71.889999,1729415864627.0,0.0
-6.472585,-7.601997,1.026521,41.09,1.75,75.879997,1729415864647.0,0.0
-8.575876,-16.965113,7.032506,9.8,-13.37,62.860001,1729415864668.0,0.0
-7.965706,-13.03849,0.794417,-81.410004,-16.66,14.77,1729415864688.0,0.0
-5.422136,-14.05544,0.200997,-50.610001,-17.99,-28.35,1729415864707.0,0.0
-6.056234,-8.453842,1.938186,40.810001,-5.39,-35.560001,1729415864731.0,0.0
-4.65404,-9.24826,4.876573,45.920002,1.47,-51.310001,1729415864748.0,0.0
-5.982057,-7.623533,5.71406,39.200001,4.83,-62.23,1729415864768.0,0.0
-2.955136,-3.730411,3.146562,32.830002,2.52,-59.080002,1729415864787.0,0.0
-0.90688,-2.306681,6.151947,48.439999,8.75,-44.170002,1729415864807.0,0.0
-2.471786,-1.320838,8.492127,46.060001,10.64,-2.59,1729415864828.0,0.0
-5.331209,-6.422336,7.300502,-54.18,15.05,33.389999,1729415864847.0,0.0
-3.883551,-5.642276,3.754339,-75.110001,8.68,36.68,1729415864866.0,0.0
-4.34058,-8.298308,2.431108,-25.200001,1.75,50.400002,1729415864888.0,0.0
-4.400401,-6.960721,3.421736,68.949997,-2.24,64.260002,1729415864908.0,0.0
-8.30788,-11.483156,8.173882,60.760002,-14.42,69.230003,1729415864929.0,0.0
-8.482556,-8.573483,0.789631,-72.029999,-26.110001,40.110001,1729415864947.0,0.0
-4.546363,-16.400406,-3.885944,-149.380005,-12.88,-2.38,1729415864968.0,0.0
-5.659025,-15.017354,0.246461,18.129999,5.04,-12.81,1729415864988.0,0.0
-5.848059,-7.984849,4.539185,115.57,14.91,-31.639999,1729415865009.0,0.0
-5.089533,-11.901899,8.109276,48.23,17.43,-54.18,1729415865030.0,0.0
-5.71406,-6.489335,7.834101,45.360001,12.32,-81.129997,1729415865048.0,0.0
-1.87358,-2.167897,5.185246,44.799999,5.67,-73.57,1729415865068.0,0.0
-1.825724,-1.835295,9.265009,44.099998,1.33,-52.150002,1729415865088.0,0.0
-2.455036,0.856631,7.834101,17.43,-5.18,-9.59,1729415865108.0,0.0
-6.336195,-6.939186,6.932007,-38.009998,-7.56,13.58,1729415865130.0,0.0
-4.644469,-2.842674,4.280759,-45.849998,-15.47,23.1,1729415865148.0,0.0
-3.589234,-2.481357,1.95015,-36.610001,-19.879999,47.880001,1729415865168.0,0.0
-7.441679,-5.288138,1.277767,3.85,-21.35,74.620003,1729415865192.0,0.0
-5.513064,-7.496714,4.290331,37.380001,-24.710001,64.050003,1729415865208.0,0.0
-9.626326,-11.966506,5.020142,-61.670002,-24.5,53.900002,1729415865278.0,0.0
-6.252446,-13.155738,-3.37388,-163.520004,-19.32,15.68,1729415865288.0,0.0
-5.252246,-16.46262,-3.304488,-72.870003,-2.73,-17.15,1729415865294.0,0.0
-5.47717,-12.552748,1.564906,69.019997,19.879999,-36.610001,1729415865296.0,0.0
-5.596812,-9.274581,5.067998,83.510002,36.75,-59.5,1729415865310.0,0.0
-6.546762,-12.988241,8.779266,43.049999,24.15,-85.400002,1729415865329.0,0.0
-3.376273,-3.909872,3.127419,20.93,20.790001,-80.010002,1729415865348.0,0.0
-0.641276,-4.838287,6.577869,28.77,16.799999,-78.540001,1729415865368.0,0.0
-1.768296,-0.071785,7.233503,50.959999,24.5,-30.870001,1729415865388.0,0.0
-1.380659,-1.706082,8.161918,34.23,23.66,-0.98,1729415865408.0,0.0
-3.957729,-2.507678,8.013563,20.02,20.790001,25.9,1729415865430.0,0.0
-1.90708,1.765903,5.359922,27.860001,10.08,57.049999,1729415865448.0,0.0
-8.80798,-4.63729,5.278566,26.18,4.97,116.900002,1729415865468.0,0.0
-7.372287,-6.793223,9.243474,64.470001,-21.77,91.0,1729415865490.0,0.0
-11.387443,-8.69791,4.192225,-132.860001,-37.240002,66.57,1729415865508.0,0.0
-5.972485,-17.316856,-7.542177,-321.860016,-22.960001,13.37,1729415865529.0,0.0
-6.599405,-19.255045,-5.778666,-106.120003,-0.63,-13.93,1729415865548.0,0.0
-6.108876,-10.518847,-1.229911,99.610001,17.360001,-35.349998,1729415865568.0,0.0
-4.321437,-8.717053,2.581856,82.529999,36.540001,-60.689999,1729415865588.0,0.0
-6.338587,-10.372886,7.066005,62.16,25.620001,-89.040001,1729415865609.0,0.0
-3.704089,-2.675175,4.910072,50.119999,20.23,-76.230003,1729415865629.0,0.0
-1.057628,-3.175276,7.793423,35.77,16.450001,-71.68,1729415865652.0,0.0
-3.199204,-0.191426,9.853643,42.560001,11.55,-28.630001,1729415865668.0,0.0
-3.012564,-1.627119,9.777073,-13.65,-1.54,0.84,1729415865688.0,0.0
-6.013163,-5.264209,8.147561,-98.279999,-11.62,17.639999,1729415865708.0,0.0
-3.074777,-3.632305,3.943372,-107.940002,-20.299999,30.450001,1729415865742.0,0.0
-1.792224,-4.383651,0.311067,-71.050003,-12.88,58.799999,1729415865748.0,0.0
-6.73101,-10.729417,-0.251246,-13.3,-7.84,79.309998,1729415865768.0,0.0
-4.972286,-11.270195,2.641676,73.43,-8.54,87.010002,1729415865788.0,0.0
-8.508877,-11.729616,-1.548156,-37.380001,-8.26,28.630001,1729415865808.0,0.0
-5.316852,-15.739986,-1.875973,-49.279999,3.01,-30.52,1729415865830.0,0.0
-6.484549,-10.322637,3.775874,81.269997,20.860001,-37.450001,1729415865848.0,0.0
-5.178068,-4.644469,5.912664,79.940002,23.379999,-57.75,1729415865868.0,0.0
-6.704689,-10.025927,9.181261,5.32,5.39,-71.82,1729415865887.0,0.0
-4.689932,-5.867201,6.314659,3.64,-15.75,-74.760002,1729415865908.0,0.0
-1.607977,-4.797609,4.333402,12.46,-18.059999,-69.93,1729415865929.0,0.0
-2.464607,-2.54357,7.377072,22.889999,-10.85,-41.720001,1729415865947.0,0.0
-0.79681,0.098106,4.713861,-3.08,-1.89,-9.73,1729415865968.0,0.0
-2.301895,-5.091926,4.532006,-44.73,11.69,19.110001,1729415865987.0,0.0
-4.462614,-7.664211,5.223531,-17.710001,18.129999,40.32,1729415866008.0,0.0
-3.287738,-3.34038,3.072384,-3.29,16.17,51.869999,1729415866031.0,0.0
-4.039084,-7.932207,2.809174,-5.74,12.53,68.389999,1729415866048.0,0.0
-7.482357,-8.798409,5.405386,63.139999,4.9,73.080002,1729415866068.0,0.0
-9.468399,-10.552348,9.332008,45.920002,-14.7,76.440002,1729415866088.0,0.0
-9.315259,-10.987842,1.646262,-111.790001,-28.84,28.0,1729415866108.0,0.0
-6.9344,-16.362122,-2.079363,-134.470001,-24.639999,-19.110001,1729415866132.0,0.0
-5.996413,-9.650253,1.100698,52.920002,2.8,-56.700001,1729415866148.0,0.0
-4.644469,-8.386844,7.121039,68.669998,5.88,-80.43,1729415866169.0,0.0
-4.843073,-6.412765,6.336195,5.46,-4.34,-87.779999,1729415866187.0,0.0
-1.61037,-4.855037,2.270789,-1.05,-6.58,-73.709999,1729415866208.0,0.0
-2.352145,-6.092126,6.908078,34.09,-5.88,-60.760002,1729415866228.0,0.0
-1.701297,-3.290131,4.833502,37.52,2.03,-31.01,1729415866248.0,0.0
-2.103291,-4.424329,4.888536,14.42,15.61,-12.39,1729415866267.0,0.0
-3.945765,-5.912664,6.352944,20.65,21.77,2.66,1729415866287.0,0.0
-2.634498,-2.541178,5.836094,37.939999,16.17,22.33,1729415866308.0,0.0
-1.569692,0.801596,3.52702,28.559999,14.35,53.830002,1729415866329.0,0.0
-6.259624,-6.343372,3.529413,12.25,19.25,85.68,1729415866348.0,0.0
-6.623333,-6.996613,6.118448,66.709999,5.88,77.279999,1729415866368.0,0.0
-10.131211,-11.246266,9.202796,-17.43,-14.35,67.410004,1729415866387.0,0.0
-5.826523,-12.99542,-0.859023,-187.110001,-25.27,25.41,1729415866407.0,0.0
-5.87438,-16.170694,-2.756532,-127.959999,-14.63,-8.96,1729415866429.0,0.0
-5.9677,-12.189038,-0.282353,18.690001,1.61,-26.25,1729415866448.0,0.0
-6.329016,-10.018748,7.609176,71.75,10.99,-55.439999,1729415866468.0,0.0
-5.606383,-4.563113,5.295317,14.56,-3.78,-81.410004,1729415866487.0,0.0
-1.17009,-2.196611,1.902294,-1.96,-3.01,-71.120003,1729415866508.0,0.0
-2.002793,-5.481956,5.915058,16.799999,7.7,-50.540001,1729415866529.0,0.0
-2.091327,-1.272982,6.24766,62.580002,13.3,-16.24,1729415866547.0,0.0
-4.024727,-3.998406,8.070991,11.69,15.190001,1.96,1729415866568.0,0.0
-3.519842,-5.166104,7.372287,-34.650002,7.0,17.219999,1729415866587.0,0.0
-2.091327,-3.663411,4.146761,-38.43,1.12,41.369999,1729415866607.0,0.0
-4.163511,-8.65484,2.962314,-13.58,1.82,63.139999,1729415866630.0,0.0
-5.924629,-9.504292,5.91745,46.48,-7.14,52.709999,1729415866648.0,0.0
-7.592427,-11.239087,5.759524,0.07,-22.049999,62.16,1729415866667.0,0.0
-6.929615,-14.955141,1.694118,-103.949997,-29.120001,20.370001,1729415866688.0,0.0
-5.443672,-12.437892,-0.993021,-46.130001,-20.440001,-5.6,1729415866707.0,0.0
-4.962714,-10.260423,0.480957,24.99,-3.78,-34.650002,1729415866733.0,0.0
-5.257031,-8.834301,5.517848,67.760002,7.21,-50.049999,1729415866748.0,0.0
-6.439085,-11.447264,8.315059,24.15,-2.03,-75.459999,1729415866767.0,0.0
-3.529413,-5.60399,2.344966,-10.78,-8.05,-80.43,1729415866787.0,0.0
-3.854837,-6.656832,6.252446,-28.77,-10.43,-90.93,1729415866807.0,0.0
-0.057428,-1.251446,4.206582,-62.93,-11.13,-57.119999,1729415866829.0,0.0
0.629312,-4.826324,2.696711,-101.709999,7.28,-34.299999,1729415866847.0,0.0
-2.404787,-6.814759,1.232304,-16.66,13.65,7.07,1729415866868.0,0.0
-1.349552,-1.316052,6.295516,141.680008,13.86,26.32,1729415866887.0,0.0
-2.443072,-0.320638,5.541777,119.419998,8.75,57.82,1729415866907.0,0.0
-3.567699,0.784846,3.218346,85.050003,7.35,87.080002,1729415866930.0,0.0
-11.014162,-14.103296,7.223931,52.709999,1.75,96.529999,1729415866947.0,0.0
-8.413164,-6.056234,11.057234,67.129997,-5.11,85.400002,1729415866967.0,0.0
-8.822337,-9.533006,3.541377,-148.610001,-17.01,29.68,1729415866987.0,0.0
-4.455436,-16.388443,-1.438086,-225.119995,-16.73,1.54,1729415867008.0,0.0
-6.104091,-12.861421,-0.897308,-49.700001,-7.91,-4.34,1729415867029.0,0.0
-5.656632,-10.207782,-0.722632,34.299999,-1.19,-18.34,1729415867047.0,0.0
-5.419744,-10.729417,1.172483,39.759998,9.1,-44.029999,1729415867067.0,0.0
-5.065606,-10.817951,4.113262,53.760002,11.13,-63.07,1729415867087.0,0.0
-4.536791,-7.812566,6.013163,84.699997,9.66,-72.449997,1729415867107.0,0.0
-3.220739,-5.063213,7.034898,59.360001,6.23,-72.029999,1729415867129.0,0.0
-1.828116,-4.378866,7.453642,9.8,5.53,-62.299999,1729415867148.0,0.0
-0.66999,-2.749353,6.58744,-61.459999,2.03,-42.279999,1729415867167.0,0.0
0.413958,-2.151148,4.4674,-87.220001,1.75,-15.26,1729415867186.0,0.0
-0.038285,-6.489335,4.003192,-60.34,6.72,16.24,1729415867208.0,0.0
-2.545963,-6.563512,4.828716,21.629999,12.53,46.060001,1729415867229.0,0.0
-2.806781,-4.582255,4.448257,54.18,12.88,60.27,1729415867246.0,0.0
-3.237489,-3.261417,3.180061,47.810001,13.58,76.510002,1729415867267.0,0.0
-5.486742,-8.989835,3.809374,26.809999,13.65,89.389999,1729415867287.0,0.0
-7.334002,-6.893722,5.235496,97.160004,4.55,101.290001,1729415867307.0,0.0
-11.535798,-12.777672,10.621738,63.139999,-10.64,77.139999,1729415867330.0,0.0
-8.69791,-5.532206,3.876373,-85.68,-16.799999,47.32,1729415867347.0,0.0
-7.288538,-14.112868,0.038285,-173.110001,-6.79,-11.13,1729415867367.0,0.0
-6.250053,-11.114661,1.024128,-27.09,2.52,-26.389999,1729415867387.0,0.0
-4.697111,-8.700303,2.971886,50.959999,3.43,-42.279999,1729415867407.0,0.0
-3.63709,-8.317451,4.158726,35.77,4.62,-50.049999,1729415867429.0,0.0
-3.098706,-8.4012,5.082355,4.83,2.1,-53.830002,1729415867447.0,0.0
-3.620341,-7.068398,4.859823,4.97,1.61,-47.040001,1729415867467.0,0.0
-2.837888,-6.74776,3.701697,13.02,10.22,-37.450001,1729415867487.0,0.0
-3.053242,-5.594419,6.673582,48.93,12.74,-23.799999,1729415867508.0,0.0
-3.347559,-3.270989,7.707282,51.73,6.72,-8.54,1729415867529.0,0.0
-3.677768,-3.98405,6.929615,-10.43,-2.45,4.9,1729415867547.0,0.0
-3.696911,-4.725825,5.383851,-59.150002,-10.85,19.530001,1729415867567.0,0.0
-2.648855,-7.855636,3.773481,-72.730003,-13.02,31.290001,1729415867588.0,0.0
-3.866802,-7.71446,2.727818,-41.09,1.75,40.810001,1729415867607.0,0.0
-4.352544,-7.877172,1.85683,5.46,5.39,52.920002,1729415867635.0,0.0
-5.718846,-7.609176,1.674976,53.689999,6.93,48.650002,1729415867647.0,0.0
-6.687939,-10.152746,6.477371,81.970001,0.14,58.939999,1729415867667.0,0.0
-8.303094,-8.530413,7.877172,44.240002,-11.69,31.01,1729415867687.0,0.0
-6.305088,-7.996813,1.239482,-62.720001,-11.97,8.96,1729415867708.0,0.0
-6.139983,-13.08874,0.368495,-66.989998,-4.55,-19.530001,1729415867731.0,0.0
-6.329016,-8.343772,3.098706,42.630001,5.74,-29.469999,1729415867746.0,0.0
-5.187639,-7.922636,4.919643,45.920002,4.41,-46.200001,1729415867767.0,0.0
-4.876573,-10.157533,8.070991,12.88,-7.98,-59.920002,1729415867786.0,0.0
-3.914658,-6.563512,4.883751,-0.21,-21.0,-65.519997,1729415867806.0,0.0
-1.945365,-5.998806,3.608376,2.03,-19.18,-66.150002,1729415867829.0,0.0
-2.620141,-6.321837,7.41775,26.809999,-12.11,-53.689999,1729415867847.0,0.0
-1.605584,-0.784846,6.881758,19.879999,-12.18,-30.52,1729415867867.0,0.0
-0.784846,-3.352344,5.575277,-51.240002,-7.49,-8.12,1729415867887.0,0.0
-3.668197,-7.355537,5.525027,-47.18,-0.77,14.7,1729415867907.0,0.0
-2.397608,-2.651247,4.146761,-2.73,-0.98,30.1,1729415867928.0,0.0
-2.833102,-3.940979,2.392823,2.8,4.34,58.240002,1729415867946.0,0.0
-6.491727,-8.726624,4.144369,47.810001,5.46,62.23,1729415867967.0,0.0
-5.268995,-6.017949,9.073583,81.410004,-0.91,55.16,1729415867986.0,0.0
-7.054041,-9.320045,5.781059,-61.950001,-14.0,44.799999,1729415868008.0,0.0
-4.728218,-10.865808,-0.392423,-138.529999,-14.49,25.690001,1729415868028.0,0.0
-4.898108,-12.547962,-1.004985,-67.129997,3.29,9.87,1729415868047.0,0.0
-5.845665,-11.593226,1.335195,29.540001,16.940001,-0.07,1729415868067.0,0.0
-6.178268,-8.128418,3.885944,64.190002,22.75,-19.460001,1729415868086.0,0.0
-5.807381,-7.980063,5.769095,28.49,15.47,-44.73,1729415868107.0,0.0
-6.884151,-8.295916,7.415358,9.8,2.1,-56.98,1729415868129.0,0.0
-5.32403,-4.182654,5.316852,-2.8,-9.8,-63.98,1729415868146.0,0.0
-4.582255,-4.005585,5.556134,-26.950001,-21.42,-65.379997,1729415868167.0,0.0
-5.479564,-5.17089,6.979864,-47.32,-34.860001,-55.720001,1729415868186.0,0.0
-5.814559,-4.869394,7.166504,-68.110001,-42.84,-53.760002,1729415868207.0,0.0
-5.505885,-5.199604,5.575277,-115.080002,-55.580002,-49.630001,1729415868230.0,0.0
-4.491328,-6.324231,2.825923,-166.809998,-63.349998,-43.82,1729415868246.0,0.0
-3.136991,-10.009177,-0.01675,-190.539993,-65.660004,-43.400002,1729415868268.0,0.0
-1.572084,-10.356135,-0.318245,-133.979996,-68.599998,-35.700001,1729415868286.0,0.0
-0.760918,-8.279166,0.961915,-39.900002,-64.120003,-12.88,1729415868307.0,0.0
-0.081356,-5.508278,2.493321,6.3,-62.580002,10.5,1729415868327.0,0.0
0.038285,-5.642276,3.416951,-9.87,-57.82,29.960001,1729415868346.0,0.0
-0.40678,-6.999006,2.830709,-69.160004,-52.009998,34.09,1729415868367.0,0.0
-0.937986,-7.788638,1.962115,-138.320007,-40.32,36.959999,1729415868386.0,0.0
-1.804188,-9.707682,0.533599,-198.100006,-28.42,35.139999,1729415868407.0,0.0
-1.90708,-11.291731,-1.356731,-253.190002,-19.67,22.75,1729415868428.0,0.0
-2.050649,-12.093326,-4.187439,-280.910004,-11.34,13.79,1729415868446.0,0.0
-2.275574,-14.488542,-4.773681,-208.320007,-2.8,11.76,1729415868467.0,0.0
-2.239682,-13.110275,-5.816952,-47.18,9.17,11.06,1729415868487.0,0.0
-2.495714,-12.100503,-1.892723,91.769997,36.470001,-6.3,1729415868506.0,0.0
-2.127219,-10.79163,0.425922,77.769997,45.080002,-12.18,1729415868527.0,0.0
-1.986043,-10.499706,0.39003,53.48,49.98,-11.34,1729415868546.0,0.0
-1.828116,-9.253045,-0.179462,13.02,49.420002,-17.710001,1729415868567.0,0.0
-1.801795,-9.377472,0.122034,-9.38,47.110001,-16.1,1729415868586.0,0.0
-1.921437,-10.013963,0.928415,3.99,45.57,-15.68,1729415868608.0,0.0
-2.447858,-10.315458,2.651247,84.769997,36.259998,-6.23,1729415868629.0,0.0
-3.443272,-7.575676,5.469993,156.240005,23.799999,7.91,1729415868646.0,0.0
-3.651447,-5.151747,6.865008,79.800003,5.25,-2.45,1729415868666.0,0.0
-3.555735,-6.484549,4.68754,-74.760002,-14.35,-0.63,1729415868686.0,0.0
-3.589234,-8.575876,2.289931,-156.449997,-26.18,-4.27,1729415868707.0,0.0
-4.175476,-9.863215,0.808774,-155.330002,-30.799999,-5.04,1729415868732.0,0.0
-3.268596,-11.129018,-2.036292,-133.0,-32.130001,-13.16,1729415868747.0,0.0
-3.048456,-10.913664,-2.033899,-70.910004,-26.950001,-15.47,1729415868766.0,0.0
-3.218346,-8.908479,-3.108276,-26.110001,-25.969999,-14.7,1729415868786.0,0.0
-1.694118,-10.444671,-6.34098,-46.130001,-23.940001,-18.48,1729415868805.0,0.0
-1.777867,-11.602797,-5.970093,3.29,-10.22,-18.059999,1729415868829.0,0.0
-3.318845,-9.848858,-3.67059,80.220001,6.93,-17.780001,1729415868846.0,0.0
-4.06062,-7.628319,-2.127219,102.690002,15.47,-13.3,1729415868865.0,0.0
-3.113062,-8.070991,0.569492,58.380001,16.379999,-9.24,1729415868887.0,0.0
-2.660819,-10.636096,0.308674,6.58,19.32,-1.4,1729415868906.0,0.0
-3.014957,-11.176874,-1.117448,4.48,20.860001,-10.15,1729415868928.0,0.0
-2.68714,-10.368099,-3.046063,55.439999,31.43,-15.89,1729415868946.0,0.0
-0.942772,-7.04447,1.004985,46.900002,51.240002,-15.47,1729415868974.0,0.0
-0.18664,-9.485149,5.288138,41.720001,26.32,-0.84,1729415868987.0,0.0
-2.380858,-8.752945,3.364309,22.540001,12.04,-10.85,1729415869006.0,0.0
-3.194418,-7.054041,1.85683,-34.720001,7.07,-11.27,1729415869040.0,0.0
-1.782653,-8.429914,0.543171,-97.860001,12.6,-11.27,1729415869046.0,0.0
0.217747,-9.930215,3.565305,-65.800003,9.31,-1.82,1729415869068.0,0.0
-1.237089,-8.166703,4.321437,-14.84,-7.42,11.13,1729415869086.0,0.0
-3.996014,-9.454042,2.572284,-65.870003,-21.07,6.37,1729415869108.0,0.0
-1.347159,-11.956935,-0.808774,-78.610001,-39.200001,2.31,1729415869129.0,0.0
-5.240282,-11.018949,3.125026,10.71,-52.849998,9.17,1729415869147.0,0.0
-5.175675,-8.293523,-10.370493,-45.57,-65.379997,-19.809999,1729415869167.0,0.0
-1.272982,-10.674382,-11.679367,-70.699997,-27.23,-9.8,1729415869186.0,0.0
-1.29691,-9.652647,-10.080962,32.900002,3.64,3.15,1729415869208.0,0.0
-3.519842,-9.257831,-4.898108,80.360001,30.17,7.49,1729415869239.0,0.0
-2.962314,-10.624132,0.598206,106.120003,36.610001,6.51,1729415869247.0,0.0
-2.321038,-9.032906,-1.9669,89.389999,36.189999,-4.34,1729415869268.0,0.0
-1.828116,-9.133404,0.758525,-26.040001,72.169998,-29.33,1729415869287.0,0.0
-1.007378,-10.899307,5.785845,103.529999,37.240002,6.65,1729415869307.0,0.0
-3.510271,-5.048856,4.199404,89.809998,32.759998,-13.3,1729415869329.0,0.0
-1.179662,-7.082755,3.522235,-46.060001,23.59,-10.43,1729415869347.0,0.0
1.107877,-10.353743,4.553542,-66.57,4.55,-3.01,1729415869367.0,0.0
-3.783052,-8.743374,4.350152,-53.41,-15.82,0.49,1729415869387.0,0.0
-3.20399,-9.860823,2.270789,-86.099998,-49.420002,-0.21,1729415869407.0,0.0
-1.304088,-11.188839,0.535992,-69.230003,-86.029999,-7.07,1729415869429.0,0.0
-6.240481,-6.69751,-5.862415,-4.97,-115.5,18.83,1729415869449.0,0.0
-3.548556,-14.100904,-13.58884,-59.709999,-84.349998,-21.77,1729415869468.0,0.0
-3.871587,-8.762517,-11.277373,32.060001,-13.65,15.61,1729415869488.0,0.0
-3.359523,-12.052648,-0.794417,15.61,45.360001,20.93,1729415869508.0,0.0
-2.842674,-11.899508,0.978664,46.549999,34.369999,6.16,1729415869530.0,0.0
-2.103291,-8.293523,-4.742575,5.53,46.41,-8.68,1729415869549.0,0.0
-1.823331,-13.718053,-6.242875,-25.41,72.800003,-17.15,1729415869568.0,0.0
-1.430908,-10.8682,4.993821,52.360001,96.949997,-12.6,1729415869588.0,0.0
1.246661,-3.615555,9.96132,161.630005,59.849998,4.76,1729415869608.0,0.0
-1.091127,-7.585248,12.918849,70.910004,25.34,6.51,1729415869633.0,0.0
-6.496514,-12.787244,6.869793,-45.990002,-10.71,-19.67,1729415869651.0,0.0
-4.366901,-8.575876,1.136591,-50.119999,-31.780001,-13.79,1729415869668.0,0.0
1.430908,-10.042676,-1.253839,-76.160004,-63.490002,-13.79,1729415869693.0,0.0
1.196411,-7.45125,-1.588834,-41.16,-72.870003,-0.63,1729415869708.0,0.0
-6.049056,-9.611969,-5.639884,8.75,-92.540001,16.73,1729415869733.0,0.0
-5.850451,-7.606783,-14.275579,-18.690001,-71.330002,-2.94,1729415869749.0,0.0
-1.043271,-9.609575,-4.852644,-11.62,14.98,19.18,1729415869768.0,0.0
-2.845066,-12.97867,1.512264,59.849998,40.810001,6.72,1729415869788.0,0.0
-3.495914,-6.759724,-0.090927,86.519997,54.32,8.33,1729415869808.0,0.0
-1.241875,-11.901899,-5.233103,28.35,71.68,-11.27,1729415869831.0,0.0
3.113062,-12.818351,6.943972,93.239998,73.57,1.68,1729415869848.0,0.0
0.899701,-2.646462,13.213166,251.860001,65.239998,24.710001,1729415869869.0,0.0
-2.239682,-7.872386,8.805587,65.169998,13.09,7.84,1729415869888.0,0.0
-6.113662,-10.092925,4.103691,-63.420002,3.92,5.04,1729415869908.0,0.0
-3.589234,-6.817152,0.842274,-104.580002,-22.82,0.56,1729415869930.0,0.0
-1.318445,-8.68116,1.804188,-107.520004,-68.110001,16.59,1729415869948.0,0.0
-5.869594,-7.259824,-14.818751,-114.800003,-83.370003,-2.8,1729415869968.0,0.0
-1.414158,-14.404793,-8.616554,-71.190002,-67.199997,17.08,1729415869988.0,0.0
-5.455636,-7.515855,-11.502297,78.540001,-18.9,18.9,1729415870008.0,0.0
-4.220939,-9.533006,-0.918844,-26.880001,27.09,5.39,1729415870030.0,0.0
-2.830709,-13.586447,-1.825724,38.849998,31.360001,-4.13,1729415870048.0,0.0
-2.648855,-5.474778,2.749353,55.860001,51.310001,-3.5,1729415870068.0,0.0
0.854238,-12.813565,9.329616,-47.32,65.239998,-20.09,1729415870087.0,0.0
2.155933,-2.778067,12.234503,241.779999,38.150002,29.610001,1729415870108.0,0.0
-5.022535,-3.074777,10.564312,106.190002,24.01,38.43,1729415870131.0,0.0
-5.508278,-11.229517,2.397608,-114.029999,6.09,18.34,1729415870148.0,0.0
-2.428715,-9.255438,1.665405,-127.190002,-14.98,15.33,1729415870168.0,0.0
-6.850651,-11.492726,-1.79701,-58.310001,-53.200001,37.939999,1729415870188.0,0.0
-4.024727,-9.939785,-9.903893,-46.970001,-49.209999,3.92,1729415870208.0,0.0
-0.90688,-7.838887,-8.9683,-31.5,-30.24,26.25,1729415870276.0,0.0
-2.725425,-11.117055,-8.353344,-46.759998,-7.28,22.960001,1729415870277.0,0.0
-3.388237,-10.152746,-4.603791,-15.33,8.75,16.24,1729415870277.0,0.0
-3.108276,-10.614561,-1.095913,16.799999,19.460001,13.16,1729415870315.0,0.0
-4.378866,-8.80798,0.547956,44.66,32.060001,6.51,1729415870316.0,0.0
-2.926422,-8.468199,8.707481,-39.200001,37.240002,3.64,1729415870330.0,0.0
-0.308674,-9.095119,6.125626,16.17,11.62,12.67,1729415870348.0,0.0
-2.897708,-8.415558,4.039084,5.74,22.610001,26.25,1729415870368.0,0.0
-3.476771,-9.049655,3.002992,-8.68,28.139999,27.719999,1729415870388.0,0.0
-5.692525,-8.551948,1.902294,8.75,29.889999,34.860001,1729415870408.0,0.0
-4.735396,-8.84148,-0.208176,-19.460001,4.62,36.189999,1729415870430.0,0.0
-4.211368,-9.030513,0.643669,14.91,-29.33,49.560001,1729415870448.0,0.0
-8.41795,-6.69751,-9.083155,8.12,-36.610001,40.810001,1729415870468.0,0.0
-4.402793,-6.903293,-8.874979,-65.870003,-35.209999,29.469999,1729415870489.0,0.0
-5.139783,-13.854443,-5.216353,-31.57,-25.969999,32.48,1729415870508.0,0.0
-6.501299,-8.750552,-3.639483,20.09,-12.88,10.01,1729415870530.0,0.0
-4.034299,-11.487941,0.4666,-7.14,-1.47,1.54,1729415870548.0,0.0
-5.235496,-10.837094,-3.498307,-20.02,33.670002,-14.07,1729415870568.0,0.0
-5.419744,-10.320245,4.845466,-61.599998,80.849998,-34.650002,1729415870589.0,0.0
0.351745,-9.016156,6.518049,166.740005,32.549999,19.18,1729415870607.0,0.0
-1.074377,-0.031107,9.525827,160.020004,38.639999,18.549999,1729415870650.0,0.0
-2.091327,-10.011569,6.309873,-21.84,23.1,21.629999,1729415870652.0,0.0
-5.778666,-14.249258,2.029114,-32.34,10.92,10.64,1729415870667.0,0.0
-7.582855,-6.63769,2.481357,60.34,8.4,18.549999,1729415870691.0,0.0
-4.15394,-4.682754,3.608376,14.28,-43.82,16.24,1729415870708.0,0.0
-9.327222,-7.135397,-0.052642,-99.330002,-89.18,30.73,1729415870732.0,0.0
-6.355337,-9.468399,-11.866007,-215.949997,-94.220001,-5.04,1729415870748.0,0.0
-5.233103,-9.535398,-11.447264,-101.849998,-57.540001,0.42,1729415870767.0,0.0
-4.589434,-9.23151,-5.06082,-8.96,2.8,1.68,1729415870790.0,0.0
-4.627719,-9.195618,-2.029114,59.709999,40.599998,2.8,1729415870807.0,0.0
-5.613562,-10.782058,-5.268995,32.759998,73.5,-4.83,1729415870831.0,0.0
-5.946165,-12.186646,11.255837,57.68,100.590004,-19.389999,1729415870847.0,0.0
-1.380659,-3.275774,11.904292,217.839996,45.57,17.08,1729415870868.0,0.0
-1.055235,-4.182654,8.520842,70.139999,18.41,6.16,1729415870888.0,0.0
-6.233303,-11.212767,3.649055,-53.27,15.47,12.39,1729415870908.0,0.0
-9.554541,-9.458827,2.57707,-29.26,9.52,8.12,1729415870931.0,0.0
-5.903094,-7.118648,3.065206,4.06,-30.66,8.75,1729415870954.0,0.0
-7.642675,-5.4676,-0.299103,-52.57,-79.800003,23.379999,1729415871018.0,0.0
-5.785845,-6.771688,-10.49492,-208.460007,-90.300003,-10.78,1729415871019.0,0.0
-3.323631,-12.557532,-10.049855,-129.570007,-77.910004,4.13,1729415871022.0,0.0
-6.958328,-8.863015,-11.291731,4.9,-4.48,12.81,1729415871029.0,0.0
-4.618148,-11.093125,-4.783253,41.02,32.830002,2.73,1729415871049.0,0.0
-5.673382,-7.546963,-4.328616,75.739998,74.760002,-9.73,1729415871068.0,0.0
-5.003392,-10.968699,9.226725,30.799999,99.540001,-36.889999,1729415871087.0,0.0
0.90688,-7.04447,11.980864,132.020004,10.64,15.190001,1729415871107.0,0.0
-1.155733,-5.694918,9.032906,92.75,8.61,-9.52,1729415871130.0,0.0
-7.257431,-8.992228,4.201797,-10.57,13.86,3.85,1729415871148.0,0.0
-9.396614,-8.88455,2.457429,-14.0,11.06,8.19,1729415871168.0,0.0
-7.080362,-4.912465,2.464607,12.11,-12.04,18.76,1729415871188.0,0.0
-8.645268,-5.745167,-1.021735,-40.389999,-54.459999,31.710001,1729415871207.0,0.0
-6.98465,-5.414958,-9.372685,-201.389999,-62.299999,-7.91,1729415871229.0,0.0
-3.256632,-12.30868,-9.925428,-155.470001,-76.019997,13.72,1729415871248.0,0.0
-4.12044,-9.662218,-11.456835,-32.060001,-40.529999,-7.21,1729415871268.0,0.0
-3.998406,-9.994821,-6.62094,-45.639999,19.18,-17.15,1729415871288.0,0.0
-4.333402,-12.25843,-4.656433,14.63,55.369999,-19.67,1729415871308.0,0.0
-4.41715,-12.110075,-12.141183,7.63,87.360001,-33.810001,1729415871330.0,0.0
-0.37328,-11.995219,10.325029,87.5,44.450001,-14.98,1729415871348.0,0.0
-2.09372,-2.557927,10.710274,207.479996,15.33,-9.03,1729415871368.0,0.0
-7.599605,-9.956534,0.397209,-94.849998,5.53,2.87,1729415871388.0,0.0
-9.51147,-10.210175,0.20339,-73.5,1.47,-0.77,1729415871410.0,0.0
-8.592626,-4.802395,2.426322,43.959999,-19.74,24.360001,1729415871431.0,0.0
-9.875179,-5.785845,-1.682154,2.66,-57.049999,13.58,1729415871449.0,0.0
-5.259424,-6.362515,-5.613562,-143.779999,-70.419998,-0.56,1729415871471.0,0.0
-2.565106,-8.441878,-3.5007,-66.989998,-86.029999,11.69,1729415871491.0,0.0
-5.694918,-6.515656,-12.550355,-86.730003,-50.959999,4.13,1729415871511.0,0.0
-4.776074,-13.579268,-11.370694,-113.330002,15.4,-14.98,1729415871531.0,0.0
-4.553542,-13.550553,-5.304887,87.5,55.790001,-3.36,1729415871552.0,0.0
-4.804788,-7.776673,-3.074777,108.779999,87.5,-16.450001,1729415871570.0,0.0
-4.046263,-14.175081,-14.591432,18.129999,110.739998,-27.23,1729415871590.0,0.0
-0.303888,-9.269794,17.788242,141.680008,40.110001,-8.89,1729415871610.0,0.0
0.040678,-0.323031,14.065011,205.940002,-3.92,-17.92,1729415871638.0,0.0
-6.960721,-5.639884,1.957329,-61.529999,-12.67,-6.3,1729415871651.0,0.0
-9.631111,-10.875379,-0.851845,-118.160004,-14.84,-12.46,1729415871671.0,0.0
-7.039684,-7.04447,-3.759124,-9.8,-46.48,-1.33,1729415871690.0,0.0
-8.032705,-7.001399,-11.200804,-21.84,-38.009998,-7.98,1729415871711.0,0.0
-5.893522,-8.810372,-11.504691,-34.23,-15.26,-5.6,1729415871742.0,0.0
-3.811767,-7.307681,-4.589434,49.700001,7.77,-2.38,1729415871751.0,0.0
-2.986243,-6.939186,-0.210568,49.349998,18.48,-2.24,1729415871770.0,0.0
-3.0006,-10.640882,0.918844,33.880001,16.66,-9.66,1729415871793.0,0.0
-5.065606,-10.832308,-2.103291,5.04,47.040001,-25.27,1729415871811.0,0.0
-3.28056,-14.603395,4.23051,70.699997,62.93,-19.25,1729415871832.0,0.0
-1.624727,-7.513463,5.613562,196.139999,40.880001,-16.870001,1729415871851.0,0.0
-3.696911,-5.278566,6.549156,131.180008,43.959999,-3.5,1729415871870.0,0.0
-0.933201,-9.51147,3.830909,55.650002,24.15,-5.6,1729415871890.0,0.0
-4.278367,-8.465806,3.775874,77.0,29.960001,9.03,1729415871910.0,0.0
-8.772088,-6.89133,3.113062,54.950001,16.309999,17.08,1729415871932.0,0.0
-6.02752,-5.13739,-0.378066,-36.540001,-31.219999,10.36,1729415871949.0,0.0
-5.84088,-3.859623,-1.87358,-161.070007,-75.809998,21.700001,1729415871972.0,0.0
-8.319844,-10.08814,-15.314064,-252.279999,-90.860001,-22.4,1729415871998.0,0.0
-3.809374,-10.456635,-9.131011,-12.18,-11.2,-14.42,1729415872014.0,0.0
-4.266403,-7.123433,2.892922,61.18,33.110001,2.03,1729415872031.0,0.0
-5.197211,-10.356135,-2.232504,7.42,40.389999,-23.52,1729415872051.0,0.0
-2.754139,-11.097912,1.677369,-4.69,64.050003,-26.67,1729415872070.0,0.0
-0.291924,-8.834301,5.79781,165.970001,41.650002,-5.6,1729415872090.0,0.0
-2.89053,-4.393222,7.965706,152.25,59.5,2.31,1729415872110.0,0.0
-2.266003,-7.915457,6.565905,52.849998,34.93,2.66,1729415872134.0,0.0
-5.905487,-9.96132,3.785445,19.460001,21.629999,8.82,1729415872152.0,0.0
-7.60439,-7.159326,2.457429,42.630001,11.9,16.73,1729415872169.0,0.0
-4.311867,-6.802795,-0.323031,0.28,-27.02,14.21,1729415872189.0,0.0
-5.312066,-3.495914,-4.402793,-120.75,-62.650002,33.529999,1729415872211.0,0.0
-7.209574,-13.629518,-10.415956,-231.910004,-94.150002,-5.81,1729415872231.0,0.0
-6.860222,-11.023734,-16.173088,-48.02,-54.880001,-3.15,1729415872250.0,0.0
-4.211368,-7.757531,-2.191825,-1.4,20.790001,-8.4,1729415872270.0,0.0
-5.111069,-11.959327,-1.598405,-20.860001,62.23,-7.14,1729415872290.0,0.0
-6.453443,-11.514263,-4.725825,34.299999,74.269997,-21.700001,1729415872310.0,0.0
-2.256432,-5.489135,6.69751,99.190002,93.590004,-29.049999,1729415872333.0,0.0
-0.193819,-3.438486,10.671989,94.709999,50.049999,-10.92,1729415872349.0,0.0
-1.064806,-8.240881,7.534998,-13.37,8.19,-8.61,1729415872369.0,0.0
-8.501699,-9.229117,5.228317,4.69,4.13,15.54,1729415872390.0,0.0
-6.206983,-9.856036,1.672583,3.01,-32.130001,4.55,1729415872410.0,0.0
-3.996014,-10.133603,0.619741,-16.17,-59.639999,-5.88,1729415872432.0,0.0
-7.192825,-3.938586,1.021735,-109.480003,-83.580002,23.52,1729415872450.0,0.0
-8.11167,-12.449856,-12.55514,-295.26001,-104.720001,-34.580002,1729415872469.0,0.0
-5.388636,-13.746766,-14.517255,-140.350006,-86.660004,-24.290001,1729415872489.0,0.0
-3.938586,-7.006185,-8.566305,47.389999,10.92,-18.969999,1729415872510.0,0.0
-3.20399,-9.221939,-0.600598,68.739998,56.77,0.14,1729415872533.0,0.0
-5.17089,-7.700103,-0.875773,78.68,82.809998,-0.84,1729415872550.0,0.0
-3.940979,-7.795816,0.696311,37.66,104.790001,-19.389999,1729415872571.0,0.0
1.478764,-8.099705,3.010171,167.509995,53.760002,28.84,1729415872590.0,0.0
-1.909473,-2.486143,10.815558,191.449997,73.709999,26.18,1729415872610.0,0.0
-2.361716,-10.4016,5.754738,67.900002,35.07,27.23,1729415872632.0,0.0
-6.972685,-11.676974,2.957529,27.65,22.33,24.15,1729415872653.0,0.0
-7.008578,-9.092726,0.89013,43.259998,1.33,20.93,1729415872669.0,0.0
-4.87418,-2.115255,0.624527,-80.5,-77.139999,14.0,1729415872690.0,0.0
-7.520642,-12.579069,-3.022135,-201.669998,-112.840004,-3.29,1729415872710.0,0.0
-7.262216,-10.504492,-11.332408,-150.220001,-99.75,-17.639999,1729415872736.0,0.0
-6.099305,-8.350951,-12.289536,-156.029999,-43.75,-27.65,1729415872750.0,0.0
-3.010171,-13.94537,-4.625326,-95.690002,15.33,-26.950001,1729415872769.0,0.0
-4.740182,-9.537791,0.18664,85.889999,44.099998,-19.530001,1729415872790.0,0.0
-4.505685,-6.503692,0.830309,32.689999,54.950001,-26.809999,1729415872808.0,0.0
-5.010571,-12.318252,-3.84048,-12.81,60.060001,-28.91,1729415872831.0,0.0
0.234497,-8.865408,7.63789,52.220001,35.0,-23.030001,1729415872850.0,0.0
-0.693919,-3.818945,10.906486,185.289993,28.84,-1.4,1729415872868.0,0.0
-3.988836,-8.920443,5.364708,52.080002,5.18,-1.4,1729415872888.0,0.0
-5.268995,-11.239087,1.627119,-1.47,3.43,-6.58,1729415872910.0,0.0
-4.845466,-7.257431,1.129412,0.42,-11.41,6.65,1729415872931.0,0.0
-4.280759,-5.821737,1.26341,-35.07,-60.41,10.15,1729415872949.0,0.0
-7.558927,-9.219545,-9.844072,-119.629997,-79.519997,-16.030001,1729415872969.0,0.0
-2.919244,-10.454242,-7.365108,-111.440002,-93.870003,-7.14,1729415872989.0,0.0
-7.484749,-5.352744,-10.200603,24.360001,-59.360001,-6.16,1729415873010.0,0.0
-4.352544,-12.256038,-5.625526,-103.809998,10.36,-19.389999,1729415873031.0,0.0
-4.520042,-12.370893,-3.847659,46.619999,46.830002,-15.4,1729415873056.0,0.0
-5.022535,-6.116055,0.100499,56.209999,72.169998,-25.48,1729415873070.0,0.0
-3.558127,-8.343772,0.234497,11.76,81.199997,-24.92,1729415873089.0,0.0
2.557927,-9.272188,2.122434,160.089996,30.940001,2.24,1729415873110.0,0.0
-0.011964,-0.361316,10.537991,181.229996,67.199997,12.25,1729415873131.0,0.0
-1.335195,-9.992428,5.536992,27.58,22.68,22.120001,1729415873148.0,0.0
-6.537192,-10.504492,4.63729,25.34,15.89,24.5,1729415873169.0,0.0
-7.860423,-7.704889,3.572484,67.970001,-1.96,38.5,1729415873189.0,0.0
-4.371687,-8.106883,1.820938,-3.78,-44.029999,10.99,1729415873209.0,0.0
-5.836094,-8.240881,-3.570091,-108.989998,-75.18,36.959999,1729415873231.0,0.0
-6.419943,-10.908878,-8.831908,-182.210007,-89.809998,-3.08,1729415873248.0,0.0
-7.094719,-9.80818,-9.49472,-79.940002,-63.490002,17.85,1729415873269.0,0.0
-6.431907,-11.050055,-8.240881,-31.290001,8.05,-9.59,1729415873289.0,0.0
-4.503292,-11.822936,-0.567099,22.190001,39.759998,-10.71,1729415873309.0,0.0
-4.790431,-8.975478,-1.277767,51.939999,70.0,-17.639999,1729415873332.0,0.0
-3.706482,-7.755138,1.854438,37.939999,78.400002,-31.360001,1729415873350.0,0.0
-0.519243,-5.733203,6.611369,176.050003,38.920002,7.0,1729415873369.0,0.0
0.320638,-2.514857,9.657433,106.120003,48.509998,13.86,1729415873388.0,0.0
-0.468993,-9.786645,7.836494,-45.57,9.8,2.17,1729415873409.0,0.0
-5.972485,-10.186246,5.498707,-22.26,2.45,20.860001,1729415873431.0,0.0
-7.063612,-8.65484,5.192425,-14.56,-21.700001,16.450001,1729415873449.0,0.0
-3.448057,-11.810973,-0.698704,-59.57,-47.529999,-0.63,1729415873469.0,0.0
-5.146961,-6.874579,1.813759,-92.190002,-77.559998,5.32,1729415873489.0,0.0
-9.202796,-7.597212,-8.932407,-128.380005,-99.400002,11.27,1729415873509.0,0.0
-4.675575,-9.403792,-9.738789,-112.07,-96.25,-13.23,1729415873533.0,0.0
-6.166305,-6.345766,-10.925629,-28.280001,-32.970001,-2.66,1729415873548.0,0.0
-5.577669,-9.812965,-6.326623,-76.93,18.549999,-12.46,1729415873568.0,0.0
-4.723432,-11.516656,-2.596212,-11.9,32.48,-15.26,1729415873589.0,0.0
-5.190032,-8.269595,-0.524028,12.74,50.610001,-23.870001,1729415873609.0,0.0
-4.271189,-11.674582,-4.926822,-13.02,54.32,-27.23,1729415873637.0,0.0
-4.780859,-8.863015,1.378266,7.42,87.150002,-24.15,1729415873651.0,0.0
-1.316052,-6.345766,5.831308,115.150002,34.580002,-18.9,1729415873668.0,0.0
-1.270589,-8.776874,6.173482,-21.35,15.190001,-11.48,1729415873689.0,0.0
-2.335395,-11.169697,3.802195,-65.519997,5.53,-15.68,1729415873709.0,0.0
-4.364508,-8.882158,2.986243,-20.299999,4.34,-9.87,1729415873734.0,0.0
-2.376073,-7.518249,1.552942,-7.21,-11.27,-7.21,1729415873748.0,0.0
-1.004985,-10.179067,0.241675,-1.4,-10.15,4.76,1729415873773.0,0.0
-2.048256,-13.536198,-2.864209,16.030001,-10.15,10.36,1729415873789.0,0.0
-4.977071,-9.164511,5.190032,36.189999,-36.259998,7.91,1729415873810.0,0.0
-9.140583,-5.364708,-0.650848,41.02,-74.199997,35.630001,1729415873834.0,0.0
-4.036692,-8.640482,-4.510471,-40.040001,-79.449997,-22.120001,1729415873849.0,0.0
-4.331009,-4.749753,-7.293324,-76.650002,-72.239998,3.01,1729415873868.0,0.0
-4.352544,-7.484749,-10.224532,-90.580002,-54.740002,3.01,1729415873889.0,0.0
-5.864808,-10.25803,-11.4353,-28.98,-25.9,7.7,1729415873909.0,0.0
-6.740582,-9.370294,-6.02752,22.190001,17.219999,0.49,1729415873930.0,0.0
-6.111269,-10.296316,-1.40698,45.220001,31.08,-0.35,1729415873950.0,0.0
-5.295317,-8.551948,-1.830509,9.24,44.310001,-19.530001,1729415873968.0,0.0
-6.26441,-8.499306,-1.239482,-96.599998,64.470001,-21.280001,1729415873988.0,0.0
-2.778067,-11.006985,-2.024328,-7.84,51.939999,-14.49,1729415874009.0,0.0
-5.163712,-6.178268,3.048456,87.290001,83.790001,-7.21,1729415874040.0,0.0
-1.880759,-6.625726,6.632904,58.029999,38.779999,-17.710001,1729415874049.0,0.0
-3.622734,-10.676775,5.350351,-18.969999,24.99,1.89,1729415874068.0,0.0
-2.79721,-11.382657,2.799603,-49.77,0.77,-33.18,1729415874088.0,0.0
-4.048656,-10.061819,0.698704,-28.91,-3.99,-21.280001,1729415874108.0,0.0
-4.871787,-9.95175,-0.631705,-55.510002,-5.18,-36.330002,1729415874133.0,0.0
-4.307081,-10.253245,-1.598405,-71.330002,-9.03,-42.279999,1729415874148.0,0.0
-3.804588,-9.930215,-1.706082,-65.940002,-7.77,-43.889999,1729415874168.0,0.0
-3.471986,-9.444471,-2.134398,-61.459999,-3.78,-44.450001,1729415874189.0,0.0
-3.019742,-9.090333,-2.189433,-61.389999,0.42,-42.91,1729415874208.0,0.0
-3.23031,-9.286544,-1.507478,-75.18,5.67,-41.09,1729415874231.0,0.0
-3.476771,-9.224331,-1.129412,-103.529999,2.38,-44.869999,1729415874248.0,0.0
-3.18724,-8.676375,-0.667598,-149.169998,-4.62,-47.670002,1729415874268.0,0.0
-2.510071,-7.21436,-0.440279,-174.440002,-16.1,-38.990002,1729415874288.0,0.0
-1.773082,-6.338587,-1.306481,-199.639999,-26.67,-19.879999,1729415874309.0,0.0
-1.091127,-6.742974,-3.089134,-227.710007,-26.950001,2.94,1729415874340.0,0.0
0.047856,-6.872187,-5.539384,-227.149994,-29.26,21.77,1729415874348.0,0.0
-0.942772,-7.475177,-7.140182,-148.75,-32.41,50.470001,1729415874369.0,0.0
-1.744368,-8.068598,-10.444671,-75.32,-32.830002,69.650002,1729415874388.0,0.0
-2.227718,-8.10449,-12.150753,-27.93,-16.030001,74.900002,1729415874409.0,0.0
-2.426322,-9.470792,-12.875778,24.15,15.54,77.419998,1729415874430.0,0.0
-2.505285,-8.322237,-11.569297,83.860001,37.939999,72.309998,1729415874448.0,0.0
-2.141576,-7.255038,-10.212566,104.860001,55.790001,69.510002,1729415874468.0,0.0
-2.792424,-7.372287,-9.913465,112.699997,80.010002,70.980003,1729415874488.0,0.0
-3.751946,-3.39063,-7.580462,159.600006,77.769997,82.599998,1729415874508.0,0.0
-2.981457,-3.04367,-6.415157,151.059998,81.690002,91.769997,1729415874530.0,0.0
-3.641876,-4.106083,-6.26441,120.75,90.93,100.730003,1729415874548.0,0.0
-4.218546,-4.934,-6.685547,98.769997,87.989998,99.959999,1729415874568.0,0.0
-4.993821,-4.890929,-3.318845,57.470001,77.489998,89.949997,1729415874588.0,0.0
-5.307281,-6.518049,-4.692325,10.85,72.169998,75.389999,1729415874609.0,0.0
-6.439085,-5.321638,-5.166104,11.2,56.420002,56.420002,1729415874629.0,0.0
-5.970093,-5.666204,-5.015356,-1.96,49.209999,30.870001,1729415874648.0,0.0
-5.309673,-5.87438,-4.510471,-31.219999,47.389999,7.0,1729415874668.0,0.0
-4.37408,-7.956135,-5.888737,-60.200001,41.93,-20.299999,1729415874688.0,0.0
-3.45045,-8.834301,-7.350751,-68.32,31.99,-65.099998,1729415874708.0,0.0
-3.041277,-6.769295,-6.04427,-45.920002,26.460001,-89.669998,1729415874733.0,0.0
-2.667997,-5.716454,-5.115855,-45.779999,21.0,-103.739998,1729415874748.0,0.0
-1.533799,-8.793623,-6.364908,-73.5,17.57,-123.620003,1729415874768.0,0.0
-1.399801,-6.742974,-7.546963,-38.57,2.24,-131.180008,1729415874789.0,0.0
-2.194218,-5.271388,-6.69751,-1.89,-6.44,-141.050003,1729415874807.0,0.0
-1.916651,-2.845066,-5.680561,-25.48,-16.309999,-139.160004,1729415874840.0,0.0
-1.775474,-5.412565,-4.666004,-120.190002,-16.59,-137.479996,1729415874848.0,0.0
-2.184647,-7.276574,-6.695118,-145.039993,-16.450001,-132.789993,1729415874867.0,0.0
-3.261417,-8.147561,-5.582455,-45.57,-30.309999,-116.760002,1729415874887.0,0.0
-3.09392,-6.506085,-6.721439,5.32,-30.66,-86.800003,1729415874908.0,0.0
-0.59342,-5.194818,-5.98445,-18.549999,-28.210001,-55.860001,1729415874929.0,0.0
-1.51705,-9.865608,-5.278566,-56.630001,-9.73,-14.14,1729415874947.0,0.0
-2.562713,-12.248858,-4.807181,-26.32,-9.45,6.02,1729415874968.0,0.0
-2.885744,-12.026326,-4.005585,26.460001,-9.8,28.0,1729415874987.0,0.0
-3.28056,-8.169096,-6.108876,67.410004,-10.92,47.670002,1729415875012.0,0.0
-3.601198,-6.486942,-7.049256,69.370003,-7.21,83.300003,1729415875033.0,0.0
-1.469193,-9.030513,-8.77448,49.700001,11.83,105.980003,1729415875095.0,0.0
0.086142,-8.836694,-10.810772,56.07,19.32,119.699997,1729415875097.0,0.0
1.940579,-5.429315,-9.920642,64.050003,31.290001,132.089996,1729415875107.0,0.0
-0.535992,-0.595813,-3.826123,34.23,39.060001,163.240005,1729415875130.0,0.0
-1.328017,-12.007183,-7.360322,-91.699997,33.880001,140.770004,1729415875301.0,0.0
-2.0004,-9.075976,-7.022934,13.58,7.14,110.459999,1729415875304.0,0.0
-1.852045,-7.905886,-8.590233,52.709999,5.74,79.940002,1729415875304.0,0.0
-4.826324,-4.206582,-4.76411,59.080002,4.34,60.060001,1729415875304.0,0.0
-5.034499,-4.608576,-5.721239,27.51,3.36,44.380001,1729415875304.0,0.0
-4.26401,-5.929415,-7.664211,12.74,-1.19,25.129999,1729415875304.0,0.0
-4.790431,-5.888737,-7.82453,5.39,-2.8,2.03,1729415875305.0,0.0
-4.529613,-6.039484,-7.573284,-31.710001,-1.54,-29.049999,1729415875308.0,0.0
-3.869194,-6.924829,-7.037291,-60.48,3.08,-62.510002,1729415875329.0,0.0
-3.416951,-5.838487,-6.374479,-33.880001,0.21,-108.779999,1729415875350.0,0.0
-3.113062,-6.415157,-6.156733,-56.349998,-5.32,-122.150002,1729415875368.0,0.0
-2.471786,-7.092326,-8.458629,-93.379997,-2.45,-144.059998,1729415875389.0,0.0
-1.507478,-6.151947,-9.004191,-53.48,-8.12,-158.270004,1729415875409.0,0.0
-0.57667,-2.864209,-7.530212,-27.370001,-11.2,-158.479996,1729415875430.0,0.0
-0.399601,-2.447858,-7.530212,-51.939999,-9.03,-150.149994,1729415875452.0,0.0
-0.452243,-3.019742,-6.331409,-115.010002,-5.81,-136.639999,1729415875471.0,0.0
-0.478565,-2.969493,-7.252645,-172.550003,-3.5,-124.110001,1729415875490.0,0.0
-1.014557,-3.95055,-6.888937,-144.550003,-16.59,-97.090004,1729415875510.0,0.0
-2.794817,-9.566505,-6.632904,-150.990005,-11.9,-66.010002,1729415875531.0,0.0
-4.15394,-11.923435,-7.381857,-93.590004,-15.05,-56.91,1729415875550.0,0.0
-3.321238,-10.289137,-6.381658,5.04,-29.190001,-33.740002,1729415875570.0,0.0
-3.359523,-9.647861,-7.032506,52.220001,-30.52,-6.58,1729415875590.0,0.0
-3.428915,-8.726624,-7.398607,104.860001,-24.92,21.49,1729415875610.0,0.0
-3.76391,-7.424929,-6.991827,147.910004,-23.73,57.68,1729415875632.0,0.0
-4.110869,-7.405786,-6.690332,137.479996,-17.219999,77.980003,1729415875652.0,0.0
-3.830909,-8.078169,-8.224132,115.709999,-16.66,95.410004,1729415875670.0,0.0
-3.24706,-9.592826,-9.552148,111.510002,-15.82,105.209999,1729415875690.0,0.0
-0.81356,-9.946963,-11.779866,136.149994,-3.43,106.889999,1729415875710.0,0.0
0.933201,-6.001199,-13.502698,196.490005,14.77,125.440002,1729415875735.0,0.0
1.014557,-0.488136,-8.238488,240.380005,24.710001,154.490005,1729415875752.0,0.0
0.59342,-1.962115,-4.816752,126.770004,37.170002,153.580002,1729415875770.0,0.0
-2.222932,-7.448857,-4.108476,-17.360001,44.170002,134.680008,1729415875790.0,0.0
-2.088934,-10.131211,-7.128219,-27.860001,22.889999,94.43,1729415875815.0,0.0
1.11027,-10.009177,-12.528819,51.939999,15.190001,59.639999,1729415875831.0,0.0
-2.055435,-2.191825,-2.586641,122.5,0.91,65.590004,1729415875850.0,0.0
-9.176475,-0.490529,1.272982,57.610001,2.17,25.059999,1729415875870.0,0.0
-6.082555,-6.750153,0.392423,-96.18,-4.83,12.88,1729415875890.0,0.0
-6.431907,-7.611568,-6.123233,-86.940002,-26.18,-14.84,1729415875910.0,0.0
-6.199803,-5.656632,-9.150154,-68.389999,-36.330002,-48.580002,1729415875933.0,0.0
-4.826324,-6.601797,-6.836295,-92.400002,-25.969999,-75.599998,1729415875950.0,0.0
-4.402793,-6.71426,-6.704689,-136.5,-28.0,-116.059998,1729415875970.0,0.0
-3.749553,-7.515855,-8.348558,-140.699997,-30.66,-153.930008,1729415875990.0,0.0
-3.613162,-4.733003,-7.982457,-114.730003,-39.200001,-172.690002,1729415876010.0,0.0
-2.39043,-2.404787,-8.49452,-121.239998,-38.639999,-177.589996,1729415876031.0,0.0
-1.497907,-1.146162,-10.360922,-125.93,-34.860001,-164.850006,1729415876050.0,0.0
-1.241875,-3.878766,-5.350351,-139.440002,-27.860001,-138.389999,1729415876070.0,0.0
-0.9667,-4.517649,-7.683353,-162.119995,-34.93,-121.239998,1729415876089.0,0.0
-3.328416,-9.138189,-9.729217,-100.449997,-22.4,-98.489998,1729415876110.0,0.0
-2.897708,-8.090133,-5.548956,-29.26,-30.24,-78.540001,1729415876132.0,0.0
-1.706082,-9.779467,-2.091327,-7.28,-35.84,-51.240002,1729415876150.0,0.0
-3.536592,-10.767702,-2.361716,10.78,-36.540001,-25.27,1729415876170.0,0.0
-5.13739,-9.243474,-6.788438,73.150002,-39.689999,7.07,1729415876189.0,0.0
-4.998606,-8.379664,-6.128019,103.389999,-33.25,46.619999,1729415876210.0,0.0
-5.072784,-9.12144,-4.929214,91.559998,-23.379999,72.519997,1729415876232.0,0.0
-4.941179,-10.157533,-6.175875,82.669998,-18.200001,82.040001,1729415876249.0,0.0
-3.806981,-9.310472,-8.757731,105.629997,-17.57,93.029999,1729415876269.0,0.0
-1.859223,-9.52822,-13.52902,134.539993,-1.47,103.32,1729415876290.0,0.0
-0.320638,-8.312666,-14.921642,203.419998,41.369999,110.459999,1729415876310.0,0.0
-0.641276,-3.400201,-6.989435,241.639999,62.860001,129.919998,1729415876331.0,0.0
-2.957529,-1.871187,-5.048856,152.880005,67.900002,138.880005,1729415876349.0,0.0
-1.832902,-3.962514,-5.345565,-22.540001,73.709999,121.940002,1729415876369.0,0.0
-3.761517,-8.520842,-1.201197,-69.790001,57.82,122.290001,1729415876399.0,0.0
-7.800602,-8.944371,-1.359123,-27.370001,18.129999,92.889999,1729415876410.0,0.0
-4.326223,-8.54477,-6.860222,7.56,-8.61,53.830002,1729415876431.0,0.0
-5.367101,-6.573084,-6.766902,10.22,-8.75,31.85,1729415876449.0,0.0
-6.666404,-4.271189,-3.148954,4.2,-13.02,6.65,1729415876469.0,0.0
-6.958328,-5.053641,-3.751946,-57.330002,-17.639999,-8.61,1729415876489.0,0.0
-6.037091,-6.364908,-6.838687,-83.720001,-24.639999,-38.57,1729415876509.0,0.0
-7.149754,-4.031906,-8.109276,-82.669998,-27.65,-65.800003,1729415876531.0,0.0
-7.164111,-3.76391,-7.716853,-104.370003,-18.9,-92.610001,1729415876549.0,0.0
-5.742774,-4.448257,-8.606983,-131.320007,-11.97,-122.080002,1729415876569.0,0.0
-4.003192,-5.130211,-10.24846,-145.320007,-4.41,-140.070007,1729415876590.0,0.0
-2.727818,-2.979064,-8.657232,-124.879997,-3.92,-144.830002,1729415876609.0,0.0
-2.682354,-2.498107,-7.185646,-77.489998,-7.42,-134.680008,1729415876630.0,0.0
-2.761317,-2.938386,-7.080362,-114.800003,-5.81,-111.440002,1729415876650.0,0.0
-3.139383,-4.096512,-7.195218,-73.220001,-8.26,-97.860001,1729415876669.0,0.0
-2.62732,-7.709675,-6.063413,-61.25,9.87,-73.639999,1729415876689.0,0.0
-2.718246,-9.363115,-3.620341,-11.9,-4.13,-53.900002,1729415876710.0,0.0
-1.820938,-9.116654,-3.680161,-16.66,-11.97,-50.82,1729415876733.0,0.0
-3.079563,-9.530612,-5.881558,21.629999,-15.61,-18.34,1729415876749.0,0.0
-4.804788,-10.468598,-6.357729,68.25,-12.11,-18.34,1729415876770.0,0.0
-5.084748,-7.889136,-6.156733,94.709999,-10.43,25.549999,1729415876789.0,0.0
-4.589434,-6.506085,-5.943772,73.5,-2.31,43.68,1729415876809.0,0.0
-4.54397,-7.410572,-4.826324,40.25,5.25,63.0,1729415876831.0,0.0
-5.587241,-7.953743,-2.380858,1.89,2.45,80.779999,1729415876850.0,0.0
-5.625526,-11.62194,-7.592427,33.389999,3.71,82.879997,1729415876869.0,0.0
-2.225325,-12.602997,-12.457035,133.630005,5.25,83.93,1729415876889.0,0.0
-1.031307,-5.915058,-15.175282,225.680008,16.450001,91.769997,1729415876909.0,0.0
-3.163311,-0.22014,-11.461621,311.5,55.16,114.169998,1729415876930.0,0.0
-3.134598,1.737189,-5.056034,232.119995,52.080002,147.0,1729415876949.0,0.0
-2.237289,-10.686346,-9.142976,-88.059998,105.349998,111.93,1729415876969.0,0.0
-4.4339,-7.379465,-3.749553,12.88,52.920002,118.650002,1729415876989.0,0.0
-5.938986,-5.85763,-0.961915,91.980003,25.27,95.340004,1729415877009.0,0.0
-6.546762,-8.355737,-1.304088,36.82,19.040001,65.940002,1729415877031.0,0.0
-6.601797,-9.267403,-4.249653,3.43,-3.43,17.5,1729415877049.0,0.0
-6.91765,-9.169296,-4.855037,-5.39,-12.88,-23.59,1729415877069.0,0.0
-6.525227,-5.568098,-3.68734,-8.75,-24.360001,-50.470001,1729415877089.0,0.0
-6.089733,-3.804588,-4.146761,-59.220001,-29.889999,-67.690002,1729415877110.0,0.0
-6.501299,-2.940779,-6.685547,-115.709999,-27.65,-80.220001,1729415877132.0,0.0
-7.357929,-4.709075,-7.745567,-144.830002,-23.799999,-98.139999,1729415877149.0,0.0
-5.718846,-7.970492,-9.568897,-164.430008,-17.01,-125.090004,1729415877168.0,0.0
-4.242475,-5.314459,-9.80818,-140.630005,-16.309999,-143.570007,1729415877189.0,0.0
-3.156133,-4.311867,-7.202396,-99.470001,-15.82,-151.759995,1729415877209.0,0.0
-2.940779,-1.9669,-7.996813,-57.610001,-19.74,-143.919998,1729415877231.0,0.0
-3.536592,-2.244468,-7.037291,-77.559998,-22.82,-124.669998,1729415877249.0,0.0
-3.5007,-4.838287,-6.649654,-124.669998,-8.33,-108.639999,1729415877268.0,0.0
-3.905087,-5.675776,-5.139783,-45.990002,-15.12,-83.019997,1729415877288.0,0.0
-2.998207,-7.872386,-5.017749,-22.26,-20.299999,-54.25,1729415877309.0,0.0
-3.830909,-7.056434,-3.732803,-8.12,-24.639999,-29.75,1729415877330.0,0.0
-3.895515,-8.429914,-5.615955,6.86,-15.4,-3.01,1729415877349.0,0.0
-4.165904,-9.152546,-5.063213,0.35,-9.8,23.940001,1729415877370.0,0.0
-4.297509,-10.487741,-6.357729,24.710001,-5.74,38.150002,1729415877389.0,0.0
-3.964907,-10.430314,-6.563512,70.769997,-3.29,53.130001,1729415877409.0,0.0
-4.539185,-10.143176,-6.51087,91.489998,1.33,62.299999,1729415877431.0,0.0
-3.737589,-10.210175,-9.21476,115.57,13.58,69.580002,1729415877448.0,0.0
-3.034099,-8.391629,-10.183852,189.559998,27.58,83.230003,1729415877469.0,0.0
-2.007578,-6.831509,-10.951948,244.930008,47.110001,97.720001,1729415877489.0,0.0
-1.18684,-2.739782,-9.915856,243.110001,63.84,108.919998,1729415877509.0,0.0
-1.555335,-1.959722,-6.017949,178.570007,83.510002,112.07,1729415877530.0,0.0
-3.682554,-4.972286,-2.677568,25.059999,85.68,116.760002,1729415877549.0,0.0
-3.988836,-9.226725,-4.208975,-87.919998,66.989998,82.459999,1729415877568.0,0.0
-1.978864,-9.410972,-3.495914,-79.660004,46.27,59.010002,1729415877589.0,0.0
-5.955735,-6.132804,-1.600798,-31.99,4.06,48.509998,1729415877609.0,0.0
-6.618547,-8.338986,-3.538985,-81.410004,-10.22,12.25,1729415877637.0,0.0
-5.907879,-8.437093,-5.161318,-98.489998,-30.59,-24.360001,1729415877651.0,0.0
-6.07777,-6.606583,-6.623333,-82.669998,-35.77,-38.43,1729415877669.0,0.0
-6.573084,-3.0006,-7.652246,-68.739998,-36.75,-38.220001,1729415877688.0,0.0
-6.982256,-3.517449,-8.248059,-100.519997,-18.620001,-28.84,1729415877709.0,0.0
-7.082755,-4.98425,-8.513663,-113.75,-1.54,-32.130001,1729415877745.0,0.0
-7.422535,-4.603791,-9.990034,-101.290001,10.01,-40.880001,1729415877749.0,0.0
-6.520442,-6.726225,-10.042676,-88.550003,25.620001,-60.760002,1729415877768.0,0.0
-4.505685,-6.668797,-10.145569,-91.419998,34.790001,-87.849998,1729415877790.0,0.0
-2.175076,-7.219146,-8.173882,-68.949997,38.080002,-110.949997,1729415877808.0,0.0
-1.237089,-6.283553,-7.109076,-25.969999,32.130001,-126.840004,1729415877830.0,0.0
-2.261217,-4.634897,-4.910072,-14.63,11.76,-134.399994,1729415877849.0,0.0
-3.720839,-4.515256,-6.922436,-29.75,7.0,-139.160004,1729415877868.0,0.0
-3.091527,-3.720839,-7.65464,-21.91,1.96,-132.580002,1729415877889.0,0.0
-2.258825,-5.096712,-3.696911,-2.24,0.35,-106.260002,1729415877909.0,0.0
