acc_x,acc_y,acc_z,gyr_x,gyr_y,gyr_z,timestamp,label
-2.112862,-7.075576,-7.101898,-29.26,36.68,-15.68,1729417835489.0,0.0
-1.981257,-7.594819,-7.357929,-32.48,42.98,-21.139999,1729417835490.0,0.0
-1.744368,-7.121039,-7.84128,-16.59,44.380001,-21.42,1729417835496.0,0.0
-1.067199,-6.58744,-8.135597,-4.06,42.630001,-22.68,1729417835498.0,0.0
-0.792024,-6.776474,-7.587641,-5.18,38.43,-21.139999,1729417835515.0,0.0
-0.78006,-6.977471,-7.913064,-10.92,42.279999,-22.960001,1729417835536.0,0.0
-0.973879,-6.106483,-7.403394,-5.18,47.18,-23.379999,1729417835555.0,0.0
-1.311267,-6.240481,-6.570691,-4.69,46.34,-26.389999,1729417835576.0,0.0
-1.737189,-7.149754,-6.752545,-25.41,48.580002,-36.189999,1729417835595.0,0.0
-2.304288,-7.73121,-7.003791,-31.780001,47.389999,-38.57,1729417835614.0,0.0
-2.522035,-6.84108,-7.149754,-19.809999,41.16,-37.73,1729417835635.0,0.0
-2.895315,-5.982057,-6.695118,-12.81,35.420002,-39.41,1729417835655.0,0.0
-3.658626,-6.362515,-6.068198,-32.200001,33.110001,-47.670002,1729417835675.0,0.0
-4.398008,-7.343572,-6.285945,-56.630001,27.719999,-60.900002,1729417835696.0,0.0
-4.510471,-6.843473,-6.104091,-76.300003,11.69,-71.120003,1729417835715.0,0.0
-3.63709,-6.163911,-6.168696,-74.059998,-12.53,-74.830002,1729417835736.0,0.0
-2.392823,-6.159126,-6.575477,-63.279999,-25.48,-75.599998,1729417835756.0,0.0
-1.813759,-6.226124,-7.087541,-57.610001,-25.200001,-76.019997,1729417835776.0,0.0
-1.567299,-5.429315,-7.190433,-45.43,-21.0,-71.610001,1729417835795.0,0.0
-2.282753,-3.601198,-5.513064,-45.57,-21.210001,-65.379997,1729417835815.0,0.0
-2.818745,-3.005385,-5.472386,-63.490002,-22.82,-64.82,1729417835836.0,0.0
-2.053042,-3.335595,-8.518449,-68.25,-37.310001,-65.099998,1729417835855.0,0.0
-0.454636,-3.541377,-10.107283,-74.269997,-55.580002,-57.540001,1729417835876.0,0.0
-0.251246,-5.398208,-11.064411,-73.919998,-50.610001,-61.25,1729417835895.0,0.0
-0.40678,-5.338387,-10.408779,-62.09,-32.900002,-69.160004,1729417835915.0,0.0
-0.29671,-3.952943,-11.308479,-33.740002,-18.129999,-74.410004,1729417835939.0,0.0
-0.433101,-2.54357,-10.817951,-13.51,-10.5,-69.160004,1729417835955.0,0.0
-0.72024,-1.347159,-8.595018,10.29,-7.0,-53.130001,1729417835976.0,0.0
-0.346959,1.581656,-9.217153,8.89,-2.73,-43.119999,1729417835995.0,0.0
-0.564706,2.112862,-9.614362,9.59,-5.6,-28.42,1729417836016.0,0.0
-0.744168,-1.459622,-7.76471,-27.02,-15.68,-36.189999,1729417836036.0,0.0
-0.602991,-5.312066,-9.284152,-44.380001,-21.91,-28.210001,1729417836057.0,0.0
0.337388,-1.177269,-9.97807,-11.2,-15.05,4.34,1729417836075.0,0.0
-0.031107,-0.753739,-10.669596,28.280001,13.02,39.34,1729417836095.0,0.0
-1.325624,-4.012764,-9.332008,-14.49,20.93,48.369999,1729417836117.0,0.0
-0.471386,-6.948757,-10.403993,-31.639999,-15.82,33.880001,1729417836137.0,0.0
1.237089,-8.267202,-6.812366,8.33,-48.439999,1.19,1729417836156.0,0.0
1.600798,-7.666604,-7.795816,16.309999,-34.09,-20.860001,1729417836176.0,0.0
1.138984,-4.386044,-10.07139,-20.370001,-11.13,-45.779999,1729417836196.0,0.0
-0.31346,-5.285746,-11.937792,-31.360001,-1.05,-50.889999,1729417836216.0,0.0
0.442672,-3.548556,-10.875379,10.01,-19.74,-49.560001,1729417836236.0,0.0
0.756132,-1.761117,-7.91785,20.65,-21.84,-59.360001,1729417836256.0,0.0
1.11027,0.368495,-9.006584,10.57,-11.9,-54.110001,1729417836275.0,0.0
1.423729,0.789631,-9.858429,19.110001,-11.06,-43.119999,1729417836295.0,0.0
0.370888,0.815953,-11.191232,0.84,-2.52,-23.799999,1729417836316.0,0.0
-0.777667,-0.253639,-11.399406,-3.08,8.68,-4.97,1729417836336.0,0.0
-0.600598,-1.818545,-12.516854,-8.12,21.07,17.01,1729417836356.0,0.0
-0.480957,-5.529813,-10.741381,-16.940001,23.73,25.620001,1729417836376.0,0.0
-0.131605,-6.106483,-9.078369,-8.75,14.21,38.779999,1729417836396.0,0.0
0.631705,-4.319045,-9.856036,21.84,11.55,43.82,1729417836416.0,0.0
0.270389,-2.991028,-11.47119,10.92,25.34,46.48,1729417836435.0,0.0
-0.339781,-4.354938,-9.930215,14.42,18.549999,48.720001,1729417836455.0,0.0
-0.859023,-6.788438,-8.355737,11.97,16.870001,41.439999,1729417836478.0,0.0
-0.818345,-7.987241,-7.896315,17.290001,7.7,19.460001,1729417836496.0,0.0
0.244068,-7.097112,-8.539984,30.52,-7.7,-2.17,1729417836516.0,0.0
0.81356,-6.139983,-9.461221,21.700001,-9.24,-20.23,1729417836537.0,0.0
-0.212961,-4.220939,-8.396415,18.34,3.08,-43.400002,1729417836555.0,0.0
-0.993021,-3.103491,-7.176075,8.89,3.29,-51.869999,1729417836577.0,0.0
0.177069,-2.143969,-8.501699,6.79,-22.68,-60.27,1729417836596.0,0.0
1.18684,-0.215354,-9.901501,-10.85,-35.700001,-56.279999,1729417836615.0,0.0
1.301696,-0.937986,-10.49492,-36.330002,-23.17,-62.650002,1729417836635.0,0.0
0.887737,-0.945165,-10.035499,-37.240002,-12.6,-45.43,1729417836656.0,0.0
0.172283,-0.464208,-9.35833,2.87,-0.35,-8.68,1729417836677.0,0.0
-1.509871,-1.691726,-10.179067,24.43,22.120001,24.43,1729417836694.0,0.0
-2.567499,-2.309074,-10.052249,-18.690001,34.16,32.060001,1729417836716.0,0.0
-1.737189,-4.316652,-8.688338,-29.82,6.93,37.799999,1729417836735.0,0.0
-0.055035,-3.811767,-10.461421,-24.57,-5.95,45.849998,1729417836756.0,0.0
-0.380459,-4.027121,-11.440084,-10.15,13.3,53.200001,1729417836777.0,0.0
-1.454836,-5.845665,-11.038091,-12.11,27.93,47.25,1729417836796.0,0.0
-0.595813,-5.4676,-9.52822,19.389999,11.76,41.720001,1729417836816.0,0.0
-0.210568,-4.268795,-7.769495,37.099998,14.21,36.049999,1729417836835.0,0.0
-0.662812,-4.158726,-8.312666,26.530001,21.07,29.049999,1729417836857.0,0.0
-1.462015,-8.382057,-9.468399,4.69,8.4,19.950001,1729417836878.0,0.0
0.062213,-7.389036,-8.614161,9.38,-16.870001,-13.58,1729417836895.0,0.0
0.79681,-5.673382,-9.738789,25.34,-9.87,-33.18,1729417836916.0,0.0
-0.191426,-5.182854,-9.102298,11.27,8.75,-45.009998,1729417836938.0,0.0
0.119641,-4.342973,-8.465806,12.04,2.52,-52.009998,1729417836956.0,0.0
0.674776,-2.708675,-7.819745,12.95,-10.92,-49.349998,1729417836978.0,0.0
0.794417,-1.715654,-8.006385,2.03,-11.41,-54.529999,1729417836995.0,0.0
0.39003,-2.15354,-9.202796,-10.01,-7.63,-44.799999,1729417837015.0,0.0
0.653241,-2.514857,-9.638289,-12.74,-18.9,-44.869999,1729417837035.0,0.0
0.277567,-2.605784,-9.394222,-13.65,-17.85,-36.959999,1729417837055.0,0.0
-0.366102,-1.229911,-9.62154,-6.02,-8.33,-26.040001,1729417837077.0,0.0
-1.01695,0.454636,-9.784252,2.17,-2.1,-4.2,1729417837094.0,0.0
-1.940579,-2.275574,-10.432706,-4.55,10.92,15.54,1729417837114.0,0.0
-2.041078,-5.257031,-9.75793,-10.78,5.74,26.950001,1729417837136.0,0.0
-0.710668,-4.934,-9.954143,-4.13,-11.2,30.17,1729417837154.0,0.0
0.155533,-4.780859,-9.492328,-3.78,-10.5,22.190001,1729417837176.0,0.0
0.380459,-4.034299,-8.154739,14.35,-6.79,22.68,1729417837194.0,0.0
-0.650848,-2.660819,-10.021141,26.25,1.05,31.08,1729417837214.0,0.0
-1.18684,-3.943372,-11.109876,1.26,10.36,31.780001,1729417837236.0,0.0
-0.550349,-3.18724,-10.152746,11.76,3.22,35.209999,1729417837257.0,0.0
0.007178,-3.026921,-8.796017,20.23,7.63,32.27,1729417837275.0,0.0
0.232104,-2.538785,-8.693125,9.66,6.72,33.950001,1729417837294.0,0.0
-0.184247,-2.720639,-8.492127,-19.950001,11.34,33.950001,1729417837315.0,0.0
-0.629312,-6.020342,-7.69771,-28.700001,5.67,26.389999,1729417837336.0,0.0
-0.122034,-6.881758,-6.829116,-31.43,-15.05,12.18,1729417837357.0,0.0
0.346959,-5.977271,-9.521042,-53.689999,-14.14,-1.82,1729417837376.0,0.0
0.358923,-5.460421,-10.459028,-36.540001,-8.75,-6.51,1729417837394.0,0.0
-0.248854,-4.584648,-9.387043,-18.34,-0.42,-1.89,1729417837416.0,0.0
-1.344766,-4.505685,-8.114061,-18.690001,4.27,-3.64,1729417837436.0,0.0
-1.962115,-5.426922,-8.760124,-34.23,-5.25,-18.27,1729417837456.0,0.0
-1.184447,-5.28096,-10.133603,-42.209999,-17.290001,-31.360001,1729417837475.0,0.0
-0.801596,-4.347759,-8.980263,-17.710001,-30.17,-31.290001,1729417837495.0,0.0
-1.586441,-5.151747,-9.631111,-4.13,-8.68,-38.080002,1729417837514.0,0.0
-1.9669,-4.079762,-9.312866,-10.29,-10.99,-44.240002,1729417837535.0,0.0
-0.928415,-2.495714,-10.4016,0.77,-22.960001,-44.029999,1729417837556.0,0.0
-0.708275,-1.904687,-11.399406,2.87,-22.190001,-42.98,1729417837576.0,0.0
-0.382852,-0.899701,-10.607382,23.17,-10.43,-30.1,1729417837595.0,0.0
-0.074178,0.385244,-9.939785,37.029999,-0.7,-8.68,1729417837615.0,0.0
0.51685,1.885544,-10.124033,23.799999,0.21,6.16,1729417837634.0,0.0
0.540778,1.409373,-11.028521,-1.82,1.4,15.75,1729417837654.0,0.0
-0.289532,-2.258825,-11.669796,-11.34,16.450001,28.35,1729417837677.0,0.0
-0.976272,-5.948557,-8.523234,20.719999,16.030001,40.25,1729417837694.0,0.0
-0.574277,-2.794817,-7.735995,39.900002,12.46,47.810001,1729417837714.0,0.0
-1.270589,-2.419144,-8.085347,10.01,18.059999,42.700001,1729417837737.0,0.0
-1.739582,-5.379066,-7.243074,-27.02,8.4,39.689999,1729417837756.0,0.0
-1.148555,-8.169096,-6.996613,-30.59,-15.61,26.950001,1729417837775.0,0.0
-0.512064,-7.018148,-9.229117,-47.110001,-15.4,15.68,1729417837794.0,0.0
0.102891,-5.039285,-10.08814,-3.43,-20.02,9.87,1729417837815.0,0.0
-0.351745,-3.105884,-8.941978,4.34,-13.72,7.84,1729417837835.0,0.0
-1.629512,-3.694518,-8.075776,-11.97,-10.29,-1.96,1729417837854.0,0.0
-3.15374,-3.964907,-8.580662,-40.529999,-7.91,-14.0,1729417837875.0,0.0
-2.931208,-4.256832,-10.920842,-6.65,-13.440001,-19.950001,1729417837895.0,0.0
-2.019542,-2.794817,-9.298509,19.530001,-26.809999,-12.95,1729417837914.0,0.0
-2.230111,-3.371487,-8.958728,11.62,-15.190001,-19.460001,1729417837938.0,0.0
-2.428715,-3.079563,-9.571291,-2.52,-8.82,-29.889999,1729417837954.0,0.0
-1.940579,-3.553342,-10.863414,-12.25,-20.65,-37.099998,1729417837976.0,0.0
-1.251446,-3.507878,-10.463813,-5.25,-24.639999,-41.369999,1729417837995.0,0.0
-1.490728,-3.120241,-9.918249,16.940001,-7.84,-38.920002,1729417838016.0,0.0
-1.698904,-0.650848,-10.370493,30.17,5.25,-28.35,1729417838035.0,0.0
-1.337588,1.237089,-11.119448,14.49,1.96,-11.9,1729417838054.0,0.0
-0.411566,-0.16989,-10.657632,-2.94,-6.79,7.63,1729417838074.0,0.0
0.361316,-1.007378,-11.117055,15.54,0.42,25.76,1729417838096.0,0.0
-0.12682,-0.009571,-10.693524,29.68,25.549999,40.25,1729417838114.0,0.0
-1.342373,-1.39023,-9.06162,28.630001,33.110001,48.16,1729417838134.0,0.0
-1.634298,-5.690133,-7.759924,30.380001,17.290001,52.920002,1729417838155.0,0.0
-0.504886,-4.101298,-7.992027,24.43,-2.24,47.18,1729417838177.0,0.0
-0.650848,-4.426722,-9.01137,-13.37,9.66,35.77,1729417838194.0,0.0
-1.040878,-6.355337,-9.573684,-15.190001,14.63,29.75,1729417838216.0,0.0
-1.201197,-5.151747,-6.38405,14.56,-0.49,37.170002,1729417838234.0,0.0
-1.663012,-4.615755,-7.858029,-27.65,11.41,16.17,1729417838254.0,0.0
-1.521835,-4.675575,-9.997212,-32.34,-4.55,17.290001,1729417838275.0,0.0
-0.952343,-5.149354,-10.707881,-12.67,-11.62,14.14,1729417838294.0,0.0
-2.854637,-5.761917,-6.673582,-5.04,-0.49,3.85,1729417838316.0,0.0
-4.476971,-5.721239,-9.410972,-42.77,18.34,-31.85,1729417838335.0,0.0
-3.802195,-4.441079,-10.013963,-46.27,-15.68,-45.990002,1729417838354.0,0.0
-1.811367,-3.548556,-10.585848,-21.210001,-34.02,-44.029999,1729417838377.0,0.0
-1.45005,-4.302295,-9.288938,-18.48,-22.120001,-51.170002,1729417838395.0,0.0
-2.359323,-4.342973,-9.458827,-13.23,0.35,-54.950001,1729417838415.0,0.0
-2.775674,-3.010171,-9.023334,0.7,-0.91,-52.220001,1729417838434.0,0.0
-2.050649,-2.471786,-10.262815,-1.54,-14.49,-51.66,1729417838455.0,0.0
-1.438086,-2.088934,-10.475778,-0.21,-17.43,-49.630001,1729417838477.0,0.0
-1.083949,-1.990828,-10.025927,17.99,-4.9,-43.049999,1729417838495.0,0.0
-1.091127,-0.351745,-9.635897,16.17,1.05,-31.15,1729417838514.0,0.0
-0.394816,0.102891,-11.294124,-3.01,2.87,-24.85,1729417838536.0,0.0
0.31346,0.114855,-10.748559,1.54,5.18,-8.68,1729417838555.0,0.0
-0.275175,-0.074178,-10.040283,27.299999,25.129999,20.16,1729417838576.0,0.0
-1.198804,-0.401994,-9.918249,13.3,37.029999,32.200001,1729417838593.0,0.0
-1.564906,-4.017549,-8.673983,7.07,23.24,34.790001,1729417838612.0,0.0
-1.148555,-6.726225,-7.65464,20.23,4.9,34.299999,1729417838634.0,0.0
-0.392423,-2.321038,-8.618947,29.540001,9.24,35.84,1729417838653.0,0.0
-1.371087,-2.830709,-8.408379,9.17,21.139999,33.040001,1729417838676.0,0.0
-1.701297,-6.139983,-8.013563,-18.48,18.129999,29.26,1729417838694.0,0.0
-1.07677,-4.393222,-7.597212,1.75,-1.61,40.459999,1729417838713.0,0.0
-1.976472,-4.369294,-6.80758,5.6,3.85,34.299999,1729417838734.0,0.0
-1.897508,-3.787838,-10.073784,-42.209999,8.89,16.66,1729417838755.0,0.0
-0.839881,-3.115455,-10.585848,-21.280001,-19.040001,31.219999,1729417838776.0,0.0
-0.765703,-4.003192,-8.602197,1.26,-14.0,27.51,1729417838793.0,0.0
-3.113062,-4.759324,-6.013163,-13.93,6.65,15.4,1729417838815.0,0.0
-4.194618,-5.673382,-10.518847,-58.66,10.92,-18.48,1729417838835.0,0.0
-2.572284,-4.292724,-11.210374,-42.560001,-33.18,-24.5,1729417838855.0,0.0
-1.385444,-4.292724,-9.920642,-11.41,-32.130001,-25.129999,1729417838874.0,0.0
-2.533999,-4.469792,-9.870394,-14.7,-6.72,-40.599998,1729417838893.0,0.0
-2.488536,-3.146562,-10.066606,-7.91,-5.74,-45.920002,1729417838914.0,0.0
-1.414158,-3.242275,-10.25803,-12.81,-21.98,-50.75,1729417838936.0,0.0
-1.002593,-3.065206,-10.222138,-6.3,-15.68,-52.080002,1729417838953.0,0.0
-1.655833,-2.256432,-10.272388,6.02,4.41,-49.700001,1729417838976.0,0.0
-1.852045,-1.775474,-9.801002,11.62,9.38,-43.470001,1729417838995.0,0.0
-1.265803,-1.122234,-9.760324,9.87,-1.54,-36.540001,1729417839013.0,0.0
-0.648455,-0.33021,-10.683953,-4.83,-3.78,-34.09,1729417839033.0,0.0
-0.583849,0.387637,-11.129018,-11.2,7.49,-24.710001,1729417839056.0,0.0
-0.236889,0.361316,-10.777272,-2.31,15.47,-8.61,1729417839074.0,0.0
-0.284746,0.445065,-10.566705,17.01,20.09,16.52,1729417839093.0,0.0
-1.050449,0.107677,-10.415956,6.51,30.870001,30.380001,1729417839116.0,0.0
-1.641476,-4.634897,-8.075776,10.43,27.16,35.490002,1729417839134.0,0.0
-0.61017,-6.673582,-7.745567,34.860001,2.31,31.15,1729417839154.0,0.0
0.366102,-1.61037,-8.224132,47.810001,3.99,35.77,1729417839176.0,0.0
-1.529014,-2.993421,-7.465607,12.04,26.18,31.710001,1729417839193.0,0.0
-2.656033,-6.262017,-8.965906,-35.07,30.309999,29.190001,1729417839214.0,0.0
-1.179662,-2.672783,-8.784052,9.38,-6.58,28.700001,1729417839234.0,0.0
-1.177269,-1.361516,-10.746166,2.17,1.19,34.23,1729417839255.0,0.0
-2.069792,-3.553342,-8.482556,13.23,7.0,37.799999,1729417839274.0,0.0
-3.931407,-6.087341,-6.343372,-3.22,10.71,28.42,1729417839295.0,0.0
-4.041477,-7.611568,-9.920642,-58.380001,2.45,-15.89,1729417839313.0,0.0
-1.878366,-4.505685,-10.016356,-19.530001,-38.43,-30.1,1729417839334.0,0.0
-0.461815,-2.959922,-9.446864,11.06,-37.799999,-34.369999,1729417839354.0,0.0
-1.368695,-5.369494,-9.803394,-18.83,-13.440001,-53.830002,1729417839374.0,0.0
-2.215754,-5.259424,-10.655239,-21.07,2.52,-58.939999,1729417839395.0,0.0
-1.409373,-3.656233,-11.375479,6.02,-6.79,-54.389999,1729417839414.0,0.0
-0.638884,-2.282753,-10.392029,15.82,-13.93,-59.360001,1729417839435.0,0.0
-0.830309,-1.899901,-10.10489,20.09,1.54,-58.029999,1729417839454.0,0.0
-1.012164,-0.894916,-10.231709,17.99,14.84,-56.490002,1729417839474.0,0.0
-0.605384,1.12702,-10.662418,6.79,9.03,-39.830002,1729417839494.0,0.0
0.124427,1.304088,-11.358729,6.23,5.39,-17.92,1729417839513.0,0.0
0.401994,0.468993,-10.626525,7.21,14.14,1.4,1729417839533.0,0.0
-0.461815,-0.521635,-10.145569,17.290001,28.98,23.309999,1729417839553.0,0.0
-1.284946,-1.241875,-9.458827,28.630001,36.82,44.799999,1729417839575.0,0.0
-1.902294,-6.762117,-6.786045,35.07,21.07,37.170002,1729417839595.0,0.0
-0.959522,-6.295516,-7.960921,34.16,9.38,33.740002,1729417839613.0,0.0
0.387637,-0.78006,-9.533006,47.880001,9.52,48.509998,1729417839633.0,0.0
-0.827917,-3.672983,-7.953743,19.809999,17.290001,42.630001,1729417839653.0,0.0
-2.057827,-6.132804,-7.858029,-21.139999,32.900002,38.709999,1729417839676.0,0.0
-2.218147,-5.101498,-6.826723,-7.35,9.45,37.799999,1729417839692.0,0.0
-1.182054,-3.400201,-9.844072,-33.32,-3.78,24.57,1729417839713.0,0.0
-0.244068,-2.15354,-9.997212,-15.75,-15.54,36.400002,1729417839733.0,0.0
-1.002593,-3.481557,-8.030313,-0.63,-4.83,35.700001,1729417839754.0,0.0
-3.95055,-6.874579,-6.278766,-52.639999,14.28,8.61,1729417839775.0,0.0
-3.716053,-7.779066,-8.930015,-75.529999,-7.63,-27.58,1729417839794.0,0.0
-1.775474,-3.775874,-9.894321,-27.16,-42.700001,-31.01,1729417839813.0,0.0
-1.306481,-3.95055,-10.112068,-12.18,-31.290001,-35.630001,1729417839833.0,0.0
-1.801795,-5.278566,-9.98525,-27.440001,-12.53,-43.540001,1729417839854.0,0.0
-1.854438,-5.319244,-9.767502,-26.880001,-12.81,-50.259998,1729417839874.0,0.0
-1.368695,-4.35733,-10.576276,-9.24,-16.17,-54.25,1729417839894.0,0.0
-1.100698,-3.622734,-9.954143,5.53,-11.2,-55.09,1729417839914.0,0.0
-1.294517,-3.010171,-9.824929,14.28,-5.11,-52.639999,1729417839936.0,0.0
-1.234696,-1.232304,-10.688738,27.93,-1.4,-43.470001,1729417839954.0,0.0
-1.292124,0.299103,-10.834702,20.719999,-2.1,-37.380001,1729417839975.0,0.0
-0.543171,-0.969093,-10.939985,-3.78,-1.89,-37.939999,1729417839994.0,0.0
0.193819,-0.581456,-10.770095,1.61,1.19,-26.809999,1729417840013.0,0.0
-0.069392,0.612563,-10.193424,6.02,13.440001,-15.4,1729417840035.0,0.0
-0.641276,-0.062213,-10.554741,-13.79,24.290001,-11.27,1729417840053.0,0.0
-1.009771,-1.258625,-10.202995,-14.14,20.09,3.92,1729417840075.0,0.0
-0.899701,-1.198804,-9.796216,-0.35,21.700001,18.059999,1729417840093.0,0.0
-1.371087,-3.333202,-7.965706,7.35,23.52,26.25,1729417840114.0,0.0
0.019143,-4.65404,-8.061419,42.349998,-7.56,24.43,1729417840134.0,0.0
0.284746,-1.06002,-10.006784,1.75,-3.08,21.49,1729417840155.0,0.0
-1.265803,-2.742175,-9.678967,-20.23,22.4,23.030001,1729417840175.0,0.0
-1.363909,-4.797609,-8.405986,3.36,21.210001,42.91,1729417840193.0,0.0
-0.174676,-3.665804,-7.389036,25.620001,-0.7,51.450001,1729417840213.0,0.0
-1.095913,-1.813759,-7.733603,-19.389999,-0.14,42.279999,1729417840234.0,0.0
-1.529014,-3.371487,-10.703095,-53.060001,10.01,34.860001,1729417840255.0,0.0
-1.667797,-4.704289,-9.932607,-15.4,-7.63,54.529999,1729417840275.0,0.0
-2.488536,-5.149354,-6.156733,-6.23,-5.25,44.240002,1729417840304.0,0.0
-2.397608,-6.73101,-11.727223,-63.84,4.97,7.42,1729417840313.0,0.0
-2.007578,-5.249853,-9.018548,-26.530001,-23.379999,2.03,1729417840335.0,0.0
-1.572084,-4.522435,-10.882557,-8.19,-5.39,-10.85,1729417840354.0,0.0
-1.342373,-4.175476,-11.265409,-6.72,-9.73,-26.389999,1729417840375.0,0.0
-1.442872,-4.551149,-9.300901,-8.82,-18.620001,-33.040001,1729417840392.0,0.0
-2.031506,-4.752146,-8.049455,-7.56,-16.24,-43.049999,1729417840412.0,0.0
-1.701297,-5.955735,-11.954542,37.52,6.23,-50.68,1729417840493.0,0.0
-1.87358,-4.261617,-11.873186,40.110001,12.04,-45.43,1729417840496.0,0.0
-1.672583,-2.641676,-11.667403,40.529999,24.290001,-44.939999,1729417840498.0,0.0
-0.741775,-1.167697,-12.832708,70.910004,29.469999,-34.790001,1729417840514.0,0.0
-0.09332,-1.397408,-12.323036,136.990005,39.549999,0.28,1729417840528.0,0.0
-0.145962,-3.809374,-11.748759,200.899994,70.980003,37.029999,1729417840533.0,0.0
-0.141177,-4.13719,-9.265009,246.540009,95.620003,70.07,1729417840554.0,0.0
-0.038285,-5.541777,-11.184053,294.559998,94.220001,95.129997,1729417840574.0,0.0
0.844666,-7.886744,-12.239288,399.700012,92.959999,110.809998,1729417840592.0,0.0
0.794417,-10.214959,-9.372685,543.970032,88.480003,141.330002,1729417840613.0,0.0
1.51705,-12.732209,-9.966106,825.159973,78.540001,132.580002,1729417840633.0,0.0
2.74696,-5.907879,-10.021141,928.900024,122.290001,112.07,1729417840652.0,0.0
0.301496,1.069592,-3.809374,933.799988,112.0,116.620003,1729417840674.0,0.0
-3.672983,2.689533,4.271189,802.76001,77.07,89.599998,1729417840695.0,0.0
-4.053442,-4.37408,3.287738,640.289978,56.77,-24.08,1729417840713.0,0.0
-2.383251,-2.727818,7.817351,523.809998,39.970001,-31.219999,1729417840862.0,0.0
-3.031706,3.196811,8.690732,371.279999,39.200001,5.67,1729417840862.0,0.0
-2.868994,2.888137,7.465607,126.419998,33.740002,-31.15,1729417840862.0,0.0
-3.227918,-3.35713,6.735795,-50.259998,31.99,-69.440002,1729417840863.0,0.0
-4.955536,-7.513463,8.250452,-31.43,59.080002,-36.259998,1729417840863.0,0.0
-4.642076,-4.244867,10.724631,95.900002,47.18,1.68,1729417840863.0,0.0
-2.85703,-0.775275,9.956534,91.980003,-5.32,8.68,1729417840876.0,0.0
-1.177269,0.083749,6.994221,18.620001,-17.290001,-11.27,1729417840878.0,0.0
-1.493121,0.227318,8.207381,-4.13,7.42,-5.46,1729417840891.0,0.0
-2.868994,-2.316252,7.283752,-33.599998,26.530001,1.75,1729417840915.0,0.0
-2.761317,-0.751346,9.822537,20.58,2.31,16.73,1729417840934.0,0.0
-2.445465,1.706082,10.576276,15.26,1.47,27.299999,1729417840951.0,0.0
-1.249053,1.256232,7.759924,-13.3,-2.45,42.07,1729417840974.0,0.0
-2.519642,-3.393023,7.350751,-55.299999,9.66,53.200001,1729417841013.0,0.0
-5.417351,-9.492328,6.118448,-66.989998,56.07,38.220001,1729417841013.0,0.0
-20.501705,-11.47119,4.993821,16.24,42.139999,15.190001,1729417841041.0,0.0
5.422136,-1.548156,10.102496,127.610001,-287.279999,-48.299999,1729417841058.0,0.0
8.55434,-1.205983,9.444471,16.59,-86.730003,44.099998,1729417841073.0,0.0
-6.147161,-9.74836,12.112469,-31.360001,109.199997,-11.55,1729417841093.0,0.0
-7.463214,-10.466206,12.600604,27.65,115.43,-20.58,1729417841113.0,0.0
-5.608776,-1.51705,8.181061,70.489998,52.080002,-27.719999,1729417841133.0,0.0
-4.220939,-0.904487,8.678767,-4.76,-4.9,-35.0,1729417841155.0,0.0
-3.589234,-6.754939,6.221339,-68.040001,-16.030001,-68.25,1729417841195.0,0.0
-1.564906,-3.359523,9.439686,67.269997,-26.32,-57.189999,1729417841198.0,0.0
-0.370888,2.041078,12.253645,111.790001,-45.709999,-17.43,1729417841275.0,0.0
0.088534,2.696711,10.638489,3.15,-31.710001,-20.299999,1729417841276.0,0.0
-1.730011,-3.895515,7.255038,-90.440002,1.33,-24.01,1729417841277.0,0.0
-1.452443,-0.591027,6.376873,5.04,9.73,-14.0,1729417841278.0,0.0
-1.878366,1.536192,8.042276,37.240002,-3.85,14.0,1729417841291.0,0.0
-1.806581,-0.681954,7.190433,-16.66,4.76,9.73,1729417841311.0,0.0
-1.978864,-2.055435,5.623133,-23.52,13.93,19.6,1729417841333.0,0.0
-1.430908,0.066999,6.180661,12.11,11.34,36.75,1729417841351.0,0.0
-2.330609,0.07657,7.611568,13.72,18.27,51.66,1729417841373.0,0.0
-4.335794,-6.412765,6.833901,-15.190001,56.91,37.029999,1729417841392.0,0.0
-6.144768,-8.018349,8.238488,37.170002,65.099998,32.549999,1729417841411.0,0.0
-4.479364,-6.608976,10.004392,68.25,9.03,22.889999,1729417841432.0,0.0
-3.866802,-7.982457,11.270195,21.91,-6.79,-3.85,1729417841452.0,0.0
-6.02752,-10.162319,12.191431,-0.49,21.280001,-23.24,1729417841473.0,0.0
-5.151747,-5.151747,10.356135,47.950001,10.85,-28.139999,1729417841491.0,0.0
-2.402394,-0.07657,8.391629,55.02,-28.139999,-28.98,1729417841511.0,0.0
-2.871387,-0.854238,9.576077,7.98,-8.96,-33.32,1729417841532.0,0.0
-5.974878,-5.766702,10.774881,-17.43,17.92,-57.959999,1729417841551.0,0.0
-1.586441,1.435694,8.614161,35.700001,-34.09,-48.16,1729417841576.0,0.0
-0.212961,4.299902,9.872787,21.700001,-57.959999,-19.32,1729417841591.0,0.0
-0.801596,-0.157926,8.755339,-77.489998,-26.950001,-18.059999,1729417841610.0,0.0
-1.981257,-5.029713,6.333801,-94.220001,0.35,-25.620001,1729417841633.0,0.0
-1.76351,0.031107,6.635297,14.56,4.76,-0.84,1729417841651.0,0.0
-1.548156,3.129812,9.202796,44.59,-12.74,11.97,1729417841673.0,0.0
-1.509871,0.619741,7.927422,-29.120001,4.48,9.24,1729417841691.0,0.0
-1.713261,-1.909473,6.190232,-39.48,14.7,17.710001,1729417841710.0,0.0
-1.947758,-1.371087,6.814759,-10.71,16.24,29.68,1729417841731.0,0.0
-2.677568,-1.454836,8.480164,-0.21,19.530001,38.360001,1729417841752.0,0.0
-3.553342,-4.826324,7.601997,-8.54,32.48,33.740002,1729417841771.0,0.0
-4.912465,-4.510471,7.611568,3.99,47.459999,26.040001,1729417841790.0,0.0
-4.587041,-3.069991,9.937392,25.690001,16.030001,39.130001,1729417841812.0,0.0
-2.691926,-6.515656,11.696117,-1.12,-29.540001,24.85,1729417841831.0,0.0
-3.852444,-10.573883,11.700903,-10.08,-7.28,4.48,1729417841852.0,0.0
-5.692525,-9.279366,10.241282,13.23,18.059999,-15.33,1729417841873.0,0.0
-3.926622,-0.722632,8.662018,48.720001,-8.19,-12.67,1729417841890.0,0.0
-2.277967,-4.304688,8.458629,-7.21,-21.07,-20.23,1729417841911.0,0.0
-6.30748,-9.145369,9.710074,-14.28,20.860001,-26.809999,1729417841936.0,0.0
-4.740182,-0.256032,12.27518,94.989998,-9.17,-42.98,1729417841953.0,0.0
-1.01695,4.297509,11.490334,62.580002,-76.370003,-37.099998,1729417841971.0,0.0
1.39023,2.342573,9.686146,-48.23,-75.25,-25.27,1729417841991.0,0.0
-0.043071,-2.959922,6.616155,-121.520004,-21.559999,-21.42,1729417842011.0,0.0
-1.586441,-3.395415,3.570091,-82.879997,25.549999,-27.299999,1729417842031.0,0.0
-2.074577,1.89033,6.075377,19.809999,5.74,-0.42,1729417842051.0,0.0
-1.842474,1.564906,9.674182,26.110001,-17.08,13.65,1729417842075.0,0.0
-1.217947,-1.529014,6.484549,-34.650002,5.46,7.07,1729417842091.0,0.0
-1.737189,-1.624727,5.788238,-3.71,20.790001,22.4,1729417842112.0,0.0
-1.347159,1.043271,6.376873,20.23,25.200001,37.52,1729417842133.0,0.0
-2.519642,-1.244268,8.240881,-7.0,33.740002,46.34,1729417842153.0,0.0
-5.065606,-8.140383,9.585647,-16.1,64.68,34.02,1729417842173.0,0.0
-6.592227,-7.288538,9.066404,32.549999,71.260002,24.15,1729417842192.0,0.0
-6.309873,-2.770889,10.380065,72.239998,7.28,49.279999,1729417842211.0,0.0
-3.555735,-5.962914,10.712667,12.81,-71.959999,1.75,1729417842232.0,0.0
-1.469193,-10.262815,12.009576,-28.84,-71.330002,1.61,1729417842252.0,0.0
-4.244867,-5.017749,10.269995,45.43,68.669998,-25.41,1729417842282.0,0.0
-5.316852,0.835095,7.956135,33.810001,49.420002,-12.67,1729417842308.0,0.0
-4.577469,-3.48395,8.523234,-32.060001,-3.71,-30.1,1729417842311.0,0.0
-5.06082,-5.649454,9.446864,-1.54,1.33,-48.720001,1729417842331.0,0.0
-0.248854,2.938386,10.176675,69.230003,-31.5,-51.869999,1729417842407.0,0.0
-0.026321,2.325824,10.042676,45.080002,-56.84,-48.02,1729417842418.0,0.0
-1.416551,-3.553342,6.685547,-40.32,-40.389999,-21.559999,1729417842420.0,0.0
-2.644069,-3.76391,4.369294,-120.260002,3.36,-21.42,1729417842431.0,0.0
-2.103291,1.292124,6.652047,-68.949997,28.49,-12.25,1729417842451.0,0.0
-1.253839,0.928415,8.499306,38.990002,1.26,0.7,1729417842472.0,0.0
-1.234696,-1.148555,7.800602,30.73,-16.66,6.72,1729417842490.0,0.0
-1.751546,0.354138,7.401,4.41,25.059999,18.969999,1729417842511.0,0.0
-1.801795,1.028914,7.458428,5.32,24.710001,29.26,1729417842532.0,0.0
-2.172683,-2.529213,8.245667,-13.37,24.219999,38.220001,1729417842550.0,0.0
-4.216154,-7.743174,8.913264,-16.309999,50.75,22.889999,1729417842572.0,0.0
-6.273981,-4.113262,11.751152,62.23,61.110001,24.01,1729417842613.0,0.0
-3.304488,-4.910072,10.238889,-0.84,-29.049999,6.72,1729417842614.0,0.0
-2.708675,-7.79103,8.355737,-50.959999,-19.950001,-8.54,1729417842637.0,0.0
-4.520042,-6.886543,10.372886,3.5,13.02,-13.65,1729417842650.0,0.0
-5.905487,-4.125226,12.208181,56.209999,12.25,-13.72,1729417842672.0,0.0
-4.685147,-3.869194,9.114261,7.49,-12.95,-27.65,1729417842690.0,0.0
-2.804388,-5.601598,7.984849,-29.049999,-39.060001,-33.599998,1729417842710.0,0.0
-2.998207,-1.241875,9.592826,31.780001,-16.73,-45.57,1729417842732.0,0.0
-2.24686,1.253839,8.673983,37.450001,-34.860001,-47.810001,1729417842751.0,0.0
-0.98345,2.117648,8.214561,8.54,-38.849998,-31.57,1729417842780.0,0.0
-1.423729,-0.514457,7.551748,-49.630001,-19.040001,-19.809999,1729417842790.0,0.0
-2.256432,-3.524628,6.673582,-57.68,7.35,-23.24,1729417842811.0,0.0
-2.017149,-1.210768,6.470192,-5.67,5.11,-16.799999,1729417842832.0,0.0
-0.524028,2.701497,7.317252,26.67,-14.7,0.56,1729417842851.0,0.0
-0.284746,0.102891,9.652647,0.98,-15.190001,13.65,1729417842871.0,0.0
-2.641676,-3.964907,9.41815,-25.620001,31.639999,12.11,1729417842891.0,0.0
-4.845466,-3.404987,10.061819,2.31,49.77,15.05,1729417842910.0,0.0
-2.610569,-1.945365,8.891729,-22.120001,-16.030001,18.620001,1729417842933.0,0.0
-1.320838,-2.634498,7.226324,-40.950001,-24.92,23.1,1729417842950.0,0.0
-1.694118,-3.069991,6.18784,-21.42,10.43,26.18,1729417842971.0,0.0
-2.644069,-3.541377,6.738188,0.35,27.23,24.5,1729417842990.0,0.0
-3.613162,-2.493321,8.953942,25.76,21.84,35.490002,1729417843013.0,0.0
-3.897908,-2.730211,11.375479,29.469999,7.98,33.040001,1729417843030.0,0.0
-4.019942,-4.65404,10.983055,-4.55,0.49,26.110001,1729417843051.0,0.0
-3.625126,-6.139983,9.647861,-17.01,-6.65,15.47,1729417843072.0,0.0
-3.613162,-5.99402,8.015956,-15.4,-1.4,1.89,1729417843090.0,0.0
-4.438686,-5.474778,8.566305,-3.85,5.32,-11.06,1729417843113.0,0.0
-4.907679,-5.740381,11.143374,26.67,-6.72,-19.74,1729417843131.0,0.0
-3.888337,-3.273381,10.636096,34.509998,-11.06,-17.92,1729417843151.0,0.0
-4.271189,-2.785245,9.075976,16.450001,-4.13,-12.88,1729417843170.0,0.0
-4.386044,-2.847459,7.944171,4.41,3.71,-43.959999,1729417843190.0,0.0
-2.70389,-2.445465,8.889337,21.559999,-33.32,-53.48,1729417843209.0,0.0
-0.79681,1.672583,8.79123,20.51,-39.689999,-43.959999,1729417843229.0,0.0
-0.859023,-1.428515,7.446464,-21.77,-26.950001,-21.210001,1729417843250.0,0.0
-1.904687,-3.270989,6.166305,-40.950001,15.82,-18.9,1729417843269.0,0.0
-2.165504,0.081356,6.888937,3.29,13.3,-8.33,1729417843289.0,0.0
-1.091127,2.0004,9.099905,14.91,-11.55,8.82,1729417843311.0,0.0
-0.672383,-1.459622,8.286345,-30.450001,-8.89,9.94,1729417843329.0,0.0
-1.758725,-2.533999,8.23131,-17.57,20.299999,18.83,1729417843350.0,0.0
-2.813959,-1.227518,8.55434,2.66,26.880001,30.73,1729417843370.0,0.0
-2.507678,-1.354338,8.142776,-11.06,13.16,28.84,1729417843389.0,0.0
-1.95015,-3.677768,7.401,-26.809999,5.6,30.66,1729417843408.0,0.0
-3.275774,-7.338787,7.314859,-28.559999,25.27,20.23,1729417843430.0,0.0
-4.960321,-4.383651,9.4349,35.560001,37.73,33.389999,1729417843450.0,0.0
-3.945765,-2.012364,10.126426,25.41,0.28,24.15,1729417843471.0,0.0
-2.210968,-3.869194,8.748159,-29.120001,-24.360001,14.84,1729417843495.0,0.0
-2.708675,-6.391229,8.772088,-20.16,-5.25,19.809999,1729417843510.0,0.0
-4.776074,-8.516055,10.518847,19.67,15.68,7.49,1729417843532.0,0.0
-5.618347,-3.833302,10.872985,54.950001,22.26,-3.08,1729417843559.0,0.0
-3.98405,-1.229911,9.245867,18.76,-12.04,-15.26,1729417843578.0,0.0
-4.893322,-7.362715,8.628519,-39.759998,-18.48,-26.880001,1729417843595.0,0.0
-5.62074,-5.237889,9.88475,51.73,14.14,-46.970001,1729417843613.0,0.0
-3.323631,0.617348,10.566705,68.949997,-34.650002,-55.09,1729417843631.0,0.0
0.035892,4.151547,10.195816,9.38,-63.630001,-40.810001,1729417843650.0,0.0
0.265603,0.177069,8.590233,-81.760002,-44.240002,-17.219999,1729417843674.0,0.0
-1.304088,-4.945964,5.084748,-104.370003,16.1,-19.040001,1729417843689.0,0.0
-2.600998,-3.029313,4.23051,-25.059999,29.889999,-9.66,1729417843711.0,0.0
-1.919044,1.081556,7.503892,43.049999,-8.33,4.83,1729417843730.0,0.0
-0.698704,0.294317,9.559326,17.43,-22.469999,4.76,1729417843750.0,0.0
-0.701097,-1.227518,8.815158,-12.81,3.99,15.190001,1729417843770.0,0.0
-1.574477,-1.057628,7.645068,-8.33,26.040001,31.15,1729417843790.0,0.0
-2.270789,-0.854238,7.905886,-5.46,35.91,35.0,1729417843811.0,0.0
-2.876173,-2.639283,8.169096,-12.04,36.68,43.049999,1729417843830.0,0.0
-4.500899,-6.343372,7.850852,-27.93,49.139999,30.52,1729417843850.0,0.0
-7.518249,-4.807181,7.850852,13.440001,56.139999,44.59,1729417843871.0,0.0
-5.048856,-3.969693,8.652447,51.73,-75.529999,10.08,1729417843890.0,0.0
4.804788,-4.493721,10.279566,14.07,-122.290001,44.73,1729417843911.0,0.0
-6.525227,-9.329616,12.248858,-16.870001,71.82,-13.86,1729417843936.0,0.0
-6.786045,-4.63729,11.825329,41.93,65.590004,-5.32,1729417843951.0,0.0
-3.818945,0.928415,8.879765,26.32,-8.82,-10.71,1729417843990.0,0.0
-3.433701,-2.672783,6.972685,-53.060001,-18.969999,-15.4,1729417843994.0,0.0
-4.682754,-6.333801,6.946364,-31.5,14.56,-41.23,1729417844015.0,0.0
-6.161518,-5.910272,12.03829,77.209999,-10.71,-36.82,1729417844031.0,0.0
-2.74696,1.115055,9.456435,70.489998,-41.650002,-47.529999,1729417844058.0,0.0
0.27996,4.015156,9.157332,33.459999,-69.580002,-27.51,1729417844070.0,0.0
0.705883,1.100698,7.001399,-59.080002,-39.200001,-17.01,1729417844090.0,0.0
-1.316052,-3.658626,4.886144,-85.959999,18.129999,-21.629999,1729417844109.0,0.0
-2.431108,-1.06002,5.611169,-10.43,27.58,-8.26,1729417844130.0,0.0
-2.443072,0.894916,8.25763,35.349998,1.12,7.35,1729417844150.0,0.0
-1.347159,-0.401994,9.028119,8.12,-7.98,8.4,1729417844170.0,0.0
-0.768096,-0.574277,6.85783,-20.23,3.57,18.200001,1729417844189.0,0.0
-0.713061,-0.425922,5.773881,-19.040001,22.4,27.23,1729417844210.0,0.0
-1.67019,-3.136991,5.455636,-27.299999,37.66,34.369999,1729417844230.0,0.0
-6.242875,-4.587041,9.786645,3.01,77.910004,45.150002,1729417844250.0,0.0
-6.795617,-5.087141,12.047862,25.200001,51.66,36.259998,1729417844271.0,0.0
-5.843273,-7.319644,9.482756,-10.99,-23.030001,9.8,1729417844289.0,0.0
-1.689333,-8.370094,8.288737,-17.57,-51.099998,-1.47,1729417844309.0,0.0
-4.041477,-7.929814,10.978271,7.0,1.4,23.870001,1729417844330.0,0.0
-5.996413,-4.285545,10.336994,35.349998,78.260002,-29.75,1729417844352.0,0.0
-6.419943,-2.531606,8.709875,7.35,47.950001,-10.99,1729417844377.0,0.0
-6.965507,-7.625926,8.382057,-39.689999,-13.23,-26.389999,1729417844390.0,0.0
-5.718846,-7.953743,10.963913,30.799999,-46.41,-66.5,1729417844409.0,0.0
-3.443272,-0.844666,14.165509,89.32,-61.950001,-73.849998,1729417844434.0,0.0
-0.100499,2.833102,12.648461,13.440001,-80.150002,-52.080002,1729417844452.0,0.0
0.437887,-0.811167,7.941778,-109.900002,-73.919998,-39.619999,1729417844470.0,0.0
0.363709,-2.031506,3.314059,-123.550003,-26.18,-47.18,1729417844489.0,0.0
-0.437887,1.404587,4.400401,-10.71,-16.799999,-13.37,1729417844510.0,0.0
-0.634098,4.010371,5.376673,41.439999,-6.86,6.37,1729417844532.0,0.0
-0.770489,1.775474,4.292724,9.73,26.67,5.95,1729417844551.0,0.0
-1.06002,0.921237,4.244867,14.14,34.369999,32.130001,1729417844571.0,0.0
-1.473979,-0.567099,8.54477,34.299999,27.370001,45.150002,1729417844589.0,0.0
-6.388836,-8.293523,11.57169,30.73,88.550003,36.470001,1729417844609.0,0.0
-7.659425,-8.054241,9.736395,15.05,85.050003,11.97,1729417844630.0,0.0
-5.17089,-5.245068,10.573883,44.52,-4.9,14.91,1729417844658.0,0.0
-1.799403,-4.331009,10.001998,-13.09,-49.77,-1.61,1729417844677.0,0.0
-1.56012,-4.802395,8.913264,-48.860001,-17.710001,0.42,1729417844690.0,0.0
-4.216154,-6.74776,9.322437,-13.440001,24.43,-1.47,1729417844711.0,0.0
-5.4676,-4.431508,9.504292,38.360001,31.780001,-8.82,1729417844730.0,0.0
-4.845466,-2.411965,11.052447,50.68,-6.09,-9.66,1729417844751.0,0.0
-4.352544,-5.694918,11.387443,-16.870001,-11.76,-30.59,1729417844777.0,0.0
-6.65444,-7.719246,10.813165,-16.59,10.29,-28.84,1729417844790.0,0.0
-4.756931,-4.414758,9.293723,28.07,-8.12,-63.630001,1729417844816.0,0.0
-1.524228,2.734996,8.233703,34.93,-67.480003,-48.09,1729417844839.0,0.0
-0.040678,2.524428,8.68116,-7.7,-74.900002,-30.66,1729417844849.0,0.0
-0.507278,-2.677568,5.771489,-81.760002,-24.290001,-35.490002,1729417844871.0,0.0
-1.136591,-2.158326,3.282953,-38.709999,13.51,-26.950001,1729417844889.0,0.0
-0.681954,3.046063,4.960321,46.970001,-1.05,1.4,1729417844909.0,0.0
-0.318245,0.538385,7.73121,36.330002,-8.05,9.94,1729417844933.0,0.0
-2.847459,-2.806781,9.623933,6.23,44.029999,21.0,1729417844949.0,0.0
-3.519842,-1.481157,9.004191,11.83,54.040001,29.190001,1729417844970.0,0.0
-2.943172,-1.225125,8.958728,-3.43,19.950001,38.849998,1729417844990.0,0.0
-1.902294,-3.474378,6.9009,-49.209999,25.27,36.68,1729417845009.0,0.0
-3.61077,-5.264209,6.288338,-42.630001,50.189999,37.52,1729417845029.0,0.0
-21.777079,-7.147361,4.68754,42.209999,13.58,36.540001,1729417845051.0,0.0
12.997812,2.514857,13.629518,120.75,-259.0,60.900002,1729417845070.0,0.0
-5.048856,-4.084548,12.870994,-37.240002,69.160004,16.59,1729417845092.0,0.0
-2.40718,-5.883951,10.858629,-72.519997,34.23,33.950001,1729417845123.0,0.0
-4.228118,-9.083155,12.186646,-52.639999,51.170002,15.47,1729417845132.0,0.0
-6.281159,-9.4349,10.870593,-12.95,92.330002,6.51,1729417845149.0,0.0
-5.051248,-4.034299,6.702296,12.53,73.150002,-29.889999,1729417845179.0,0.0
-5.295317,-4.194618,7.948956,13.65,-4.2,-5.11,1729417845195.0,0.0
-4.596612,-6.032306,10.79163,25.48,-18.690001,-49.139999,1729417845209.0,0.0
-5.991628,-5.864808,12.459428,58.099998,-11.06,-60.48,1729417845230.0,0.0
-3.416951,-1.004985,10.037891,68.879997,-44.170002,-67.410004,1729417845249.0,0.0
0.39003,3.282953,9.707682,41.439999,-85.400002,-47.459999,1729417845271.0,0.0
-0.622134,-0.945165,7.398607,-87.919998,-19.389999,-42.279999,1729417845290.0,0.0
-2.203789,-1.40698,5.199604,-79.309998,14.77,-31.710001,1729417845309.0,0.0
-1.667797,2.129612,6.326623,10.99,-15.47,0.14,1729417845329.0,0.0
-0.492921,0.756132,7.568498,8.12,-41.93,14.28,1729417845350.0,0.0
-0.256032,-1.440479,5.132604,-31.85,-3.5,13.93,1729417845370.0,0.0
-0.87338,-0.102891,3.704089,-9.52,25.690001,22.75,1729417845389.0,0.0
-1.830509,-0.303888,7.647461,20.440001,23.309999,46.200001,1729417845409.0,0.0
-3.421736,-3.381058,8.898908,-2.1,40.670002,53.619999,1729417845500.0,0.0
-5.979663,-7.262216,10.255639,17.219999,68.879997,43.330002,1729417845504.0,0.0
-7.125826,-5.742774,10.049855,32.200001,67.340004,42.139999,1729417845510.0,0.0
-10.662418,-6.12084,6.85783,27.860001,-26.6,7.28,1729417845512.0,0.0
4.759324,-4.852644,11.22473,42.77,-173.809998,11.41,1729417845514.0,0.0
-1.887937,-7.987241,13.79223,-2.8,39.34,3.08,1729417845534.0,0.0
-7.312466,-7.046863,9.276974,-9.59,174.300003,-44.170002,1729417845550.0,0.0
-8.212167,-1.184447,7.616355,41.23,74.620003,-6.79,1729417845575.0,0.0
-5.852845,-0.452243,8.896514,21.49,-30.17,-27.790001,1729417845588.0,0.0
-1.641476,0.327817,9.585647,0.42,-56.209999,-66.43,1729417845610.0,0.0
-1.167697,1.947758,12.064612,19.32,-49.279999,-24.219999,1729417845630.0,0.0
-2.11047,-1.785046,10.758131,-58.029999,-21.07,-19.530001,1729417845657.0,0.0
-2.124826,-4.067799,6.67119,-79.239998,-11.69,-26.32,1729417845671.0,0.0
-0.935594,-0.327817,5.151747,-12.18,-26.32,2.03,1729417845688.0,0.0
0.081356,-0.102891,6.005985,7.0,-34.790001,14.49,1729417845708.0,0.0
-0.358923,-1.502693,5.943772,-3.78,3.08,7.84,1729417845729.0,0.0
-1.792224,0.447458,6.455836,34.720001,39.689999,17.780001,1729417845748.0,0.0
-2.364109,1.787439,8.319844,43.470001,29.960001,33.880001,1729417845770.0,0.0
-2.179861,-1.627119,8.939585,-5.32,28.91,35.84,1729417845788.0,0.0
-4.333402,-6.546762,9.712467,-17.08,55.790001,38.43,1729417845808.0,0.0
-6.532406,-6.501299,9.116654,10.29,78.260002,27.58,1729417845830.0,0.0
-5.649454,-5.211568,11.720046,41.09,-2.94,22.75,1729417845849.0,0.0
-4.393222,-5.709275,10.157533,-23.379999,-17.43,22.75,1729417845870.0,0.0
-5.927022,-5.63749,9.860823,-25.969999,13.72,-3.92,1729417845889.0,0.0
-6.293124,-1.227518,8.525627,8.61,26.25,-10.85,1729417845908.0,0.0
-5.809773,-0.270389,8.054241,-12.18,8.96,-8.68,1729417845936.0,0.0
-5.166104,-3.261417,9.879964,-24.43,-10.29,-17.639999,1729417845956.0,0.0
-4.469792,-1.775474,10.535598,-12.81,-14.49,-11.83,1729417845971.0,0.0
-4.515256,-0.301496,11.38505,-46.830002,-19.67,0.42,1729417845988.0,0.0
-4.491328,0.047856,10.485349,-132.580002,-11.06,-4.2,1729417846008.0,0.0
-5.149354,-3.421736,9.183653,-203.490005,-14.49,-15.89,1729417846029.0,0.0
-4.235296,-7.776673,7.755138,-175.559998,-39.200001,-27.719999,1729417846048.0,0.0
-2.038685,-6.015556,8.133204,-65.239998,-89.949997,-0.14,1729417846070.0,0.0
0.138784,-0.768096,8.059027,35.0,-118.440002,49.420002,1729417846089.0,0.0
1.007378,0.684347,9.025726,32.34,-108.709999,71.330002,1729417846108.0,0.0
1.198804,-0.926022,7.338787,-34.580002,-90.440002,78.260002,1729417846129.0,0.0
0.79681,-2.266003,6.735795,-96.879997,-78.68,80.639999,1729417846148.0,0.0
-0.12682,-4.378866,7.049256,-180.740005,-71.330002,73.010002,1729417846171.0,0.0
-0.323031,-8.894121,7.080362,-278.600006,-69.720001,41.09,1729417846189.0,0.0
-0.014357,-12.224932,3.424129,-292.950012,-51.170002,6.23,1729417846210.0,0.0
0.454636,-10.387242,0.789631,-241.990005,-10.08,-21.280001,1729417846229.0,0.0
-0.160319,-7.082755,0.457029,-216.369995,15.05,-23.799999,1729417846249.0,0.0
-0.543171,-5.036892,1.100698,-219.940002,45.709999,-18.27,1729417846269.0,0.0
-1.74676,-8.29113,2.065006,-238.070007,67.550003,1.26,1729417846411.0,0.0
-1.942972,-9.549755,3.778267,-89.599998,79.239998,20.58,1729417846414.0,0.0
-2.991028,-4.572684,14.52204,124.32,43.189999,71.82,1729417846421.0,0.0
-5.130211,-0.519243,12.406786,-13.58,-40.810001,94.010002,1729417846422.0,0.0
0.401994,-8.941978,0.961915,-206.710007,-23.66,16.940001,1729417846423.0,0.0
-3.237489,-15.330814,-1.050449,-108.360001,28.77,59.920002,1729417846423.0,0.0
-7.539784,-13.797016,0.658026,47.18,94.709999,53.130001,1729417846423.0,0.0
-10.717452,-14.237295,0.105284,-4.55,86.099998,17.290001,1729417846429.0,0.0
-8.786445,-15.153747,-1.806581,-67.269997,50.540001,-38.639999,1729417846447.0,0.0
-5.28096,-14.900107,0.636491,9.52,-16.66,-42.139999,1729417846509.0,0.0
-2.651247,-9.480364,3.330809,60.760002,-25.549999,-46.130001,1729417846512.0,0.0
-2.115255,-9.406186,3.18724,7.07,8.47,-59.220001,1729417846513.0,0.0
-3.378666,-10.906486,2.818745,-22.190001,45.709999,-75.040001,1729417846528.0,0.0
-2.299503,-6.235696,2.478964,-3.92,43.959999,-66.010002,1729417846548.0,0.0
-0.574277,-7.322037,3.452843,1.33,3.99,-59.360001,1729417846568.0,0.0
0.038285,-4.134798,6.254838,96.809998,-13.51,-26.25,1729417846587.0,0.0
1.514657,2.766103,11.736795,111.160004,-40.18,13.440001,1729417846618.0,0.0
3.723232,-2.775674,10.688738,-97.720001,-77.980003,18.34,1729417846628.0,0.0
0.588634,-11.014162,3.189633,-157.5,13.58,11.27,1729417846648.0,0.0
-1.799403,-12.780065,-0.282353,-109.760002,51.380001,-2.31,1729417846668.0,0.0
-2.395216,-8.267202,1.215554,15.47,1.26,46.34,1729417846687.0,0.0
-1.064806,-8.262416,1.538585,31.780001,-35.420002,58.240002,1729417846707.0,0.0
-3.156133,-9.853643,0.653241,-7.14,21.07,48.09,1729417846729.0,0.0
-5.606383,-11.169697,0.136391,5.53,51.029999,43.610001,1729417846748.0,0.0
-6.738188,-13.811372,-0.12682,-8.19,34.580002,29.33,1729417846769.0,0.0
-7.082755,-13.947763,-0.112463,-19.6,39.41,3.57,1729417846788.0,0.0
-6.67119,-12.136396,1.5003,14.21,33.950001,-11.9,1729417846808.0,0.0
-5.795416,-9.317651,2.493321,13.16,8.68,-19.040001,1729417846829.0,0.0
-3.909872,-10.581062,0.5001,-34.16,1.96,-43.75,1729417846857.0,0.0
-3.067599,-10.025927,-1.158126,-17.360001,35.139999,-54.040001,1729417846869.0,0.0
-1.631905,-6.396015,1.071985,63.490002,14.35,-24.57,1729417846891.0,0.0
-0.722632,-4.455436,7.410572,103.949997,-35.84,-4.62,1729417846908.0,0.0
1.663012,-1.715654,10.217353,60.970001,-35.700001,-2.73,1729417846932.0,0.0
0.667598,-4.352544,7.453642,-60.27,-1.47,9.38,1729417846949.0,0.0
-1.464408,-7.831708,3.771089,-94.220001,36.959999,10.71,1729417846971.0,0.0
-2.017149,-8.056634,1.038485,-67.830002,27.02,25.83,1729417846990.0,0.0
-1.574477,-8.070991,1.287339,-31.15,-16.940001,42.91,1729417847008.0,0.0
-1.993221,-8.894121,2.146362,17.01,-24.08,60.27,1729417847030.0,0.0
-3.799802,-10.949556,0.251246,14.14,7.7,49.279999,1729417847049.0,0.0
-6.795617,-13.672589,0.234497,2.24,34.509998,45.990002,1729417847069.0,0.0
-7.666604,-14.603395,-0.770489,-37.450001,37.799999,23.450001,1729417847089.0,0.0
-6.386444,-13.689339,-1.036092,-47.110001,14.21,-3.22,1729417847109.0,0.0
-5.12782,-13.586447,2.660819,12.88,-15.68,-10.92,1729417847134.0,0.0
-4.649254,-11.454442,2.524428,33.110001,-9.8,-24.710001,1729417847150.0,0.0
-4.63729,-11.306087,0.476172,7.56,24.710001,-52.920002,1729417847170.0,0.0
-4.945964,-11.63869,-0.540778,-14.42,42.98,-69.93,1729417847189.0,0.0
-2.596212,-6.920043,0.370888,37.869999,12.46,-60.130001,1729417847214.0,0.0
-0.143569,-6.778866,4.754539,105.910004,-22.68,-62.580002,1729417847231.0,0.0
0.540778,-0.605384,8.348558,123.199997,-27.370001,-26.950001,1729417847250.0,0.0
2.864209,1.981257,10.619347,77.980003,-52.849998,2.87,1729417847273.0,0.0
1.524228,-3.244668,10.298709,-39.689999,-25.48,11.97,1729417847291.0,0.0
-2.019542,-7.915457,5.099105,-120.470001,32.34,13.86,1729417847310.0,0.0
-2.476572,-8.740981,1.249053,-100.029999,15.75,25.48,1729417847331.0,0.0
-1.39023,-9.628718,1.72044,-52.849998,-18.969999,32.27,1729417847350.0,0.0
-1.808974,-8.855836,2.648855,-1.61,-14.7,46.34,1729417847371.0,0.0
-3.175276,-9.159724,2.323431,19.460001,-3.5,60.689999,1729417847390.0,0.0
-4.532006,-9.743573,0.617348,-16.799999,22.4,48.439999,1729417847410.0,0.0
-5.455636,-11.468799,-2.029114,-33.810001,38.360001,41.650002,1729417847432.0,0.0
-6.886543,-15.883555,-1.655833,-38.290001,30.799999,17.360001,1729417847452.0,0.0
-6.970293,-13.591233,-0.933201,-26.18,17.360001,3.92,1729417847472.0,0.0
-5.76431,-12.468999,1.67019,15.75,-16.17,-6.16,1729417847490.0,0.0
-5.06082,-10.956735,1.191626,29.540001,-15.82,-21.42,1729417847510.0,0.0
-4.910072,-9.992428,1.155733,44.099998,-1.82,-28.280001,1729417847531.0,0.0
-3.897908,-10.183852,-0.401994,-9.17,29.469999,-65.940002,1729417847551.0,0.0
-2.912065,-7.771888,0.107677,32.759998,23.379999,-51.799999,1729417847577.0,0.0
-0.969093,-3.866802,4.675575,68.739998,-2.31,-40.529999,1729417847590.0,0.0
1.897508,-1.208375,9.497113,73.43,-49.0,-13.02,1729417847610.0,0.0
2.258825,-3.163311,11.617154,25.76,-40.740002,4.83,1729417847633.0,0.0
-1.160519,-6.932007,7.384251,-85.959999,22.68,2.45,1729417847651.0,0.0
-1.832902,-6.549156,2.931208,-90.160004,19.110001,15.75,1729417847673.0,0.0
-0.629312,-6.951149,3.144169,-45.220001,-29.889999,34.860001,1729417847690.0,0.0
-1.636691,-7.812566,2.490928,-31.57,-28.77,52.290001,1729417847710.0,0.0
-3.699304,-12.519248,0.792024,-14.28,-6.93,54.389999,1729417847730.0,0.0
-5.656632,-11.150554,-2.959922,-32.549999,40.599998,41.93,1729417847752.0,0.0
-7.02772,-12.239288,-1.07677,6.44,25.129999,41.02,1729417847771.0,0.0
-6.431907,-13.763516,0.090927,-15.61,1.96,17.01,1729417847791.0,0.0
-6.290731,-12.803994,-1.411765,-20.719999,15.54,-2.87,1729417847810.0,0.0
-6.087341,-13.785051,-0.449851,27.16,6.3,-11.41,1729417847830.0,0.0
-4.85743,-11.904292,1.923829,57.049999,-21.210001,-19.32,1729417847850.0,0.0
-3.969693,-9.044869,1.514657,63.349998,-12.88,-26.950001,1729417847871.0,0.0
-4.443472,-10.743774,-0.68674,-25.48,47.950001,-67.059998,1729417847890.0,0.0
-3.713661,-8.489735,-0.418744,-3.78,43.610001,-64.470001,1729417847910.0,0.0
-1.67019,-3.888337,3.804588,54.950001,10.43,-43.540001,1729417847934.0,0.0
1.057628,-1.141376,8.456236,76.370003,-27.93,-32.41,1729417847950.0,0.0
2.103291,-0.162712,11.767902,49.84,-30.52,-2.66,1729417847971.0,0.0
-0.088534,-4.802395,10.595419,-45.57,-10.36,8.19,1729417847990.0,0.0
-2.239682,-7.609176,4.431508,-112.0,16.17,9.59,1729417848010.0,0.0
-2.22054,-7.915457,1.629512,-80.43,-11.41,27.299999,1729417848030.0,0.0
-1.787439,-7.628319,1.083949,-45.990002,-34.93,43.119999,1729417848050.0,0.0
-2.572284,-9.097511,0.504886,-9.52,-29.610001,53.619999,1729417848071.0,0.0
-5.180461,-11.925828,-0.318245,-13.09,2.17,52.080002,1729417848090.0,0.0
-6.951149,-12.447463,-2.550749,-24.57,25.969999,45.990002,1729417848110.0,0.0
-6.515656,-14.897714,-2.349752,-27.719999,5.88,20.58,1729417848130.0,0.0
-6.24766,-13.825729,-1.629512,-13.58,0.35,5.53,1729417848151.0,0.0
-5.508278,-12.839886,-0.014357,19.460001,-4.62,-5.81,1729417848171.0,0.0
-4.067799,-10.9017,1.768296,40.18,-27.02,-14.0,1729417848190.0,0.0
-4.0008,-10.07139,1.935793,41.23,-13.3,-20.65,1729417848210.0,0.0
-4.938786,-12.306287,-0.538385,-29.540001,54.529999,-67.620003,1729417848231.0,0.0
-3.785445,-9.853643,-0.148355,-4.41,37.939999,-67.059998,1729417848250.0,0.0
-1.825724,-6.472585,2.383251,46.34,9.38,-51.029999,1729417848270.0,0.0
-0.409173,-3.091527,6.216553,92.400002,-7.07,-42.700001,1729417848290.0,0.0
0.801596,-0.540778,8.714661,71.260002,-16.870001,-18.620001,1729417848310.0,0.0
0.933201,-3.026921,10.480563,1.89,-24.01,-2.8,1729417848330.0,0.0
-1.191626,-7.948956,6.838687,-95.129997,0.42,0.91,1729417848351.0,0.0
-1.962115,-7.814958,1.995614,-95.480003,7.28,16.1,1729417848370.0,0.0
-1.117448,-8.133204,-0.153141,-53.41,-23.24,30.73,1729417848391.0,0.0
-1.787439,-8.563912,1.134198,2.45,-25.620001,49.0,1729417848410.0,0.0
-3.349952,-9.753145,2.132005,34.650002,-11.62,60.900002,1729417848430.0,0.0
-5.089533,-9.111869,0.098106,-11.27,13.65,55.650002,1729417848450.0,0.0
-5.62074,-11.179268,-1.832902,-36.610001,20.09,48.720001,1729417848471.0,0.0
-6.070591,-15.574883,-2.37368,-47.389999,13.65,24.15,1729417848490.0,0.0
-6.209375,-15.495919,-2.304288,-20.58,17.290001,7.35,1729417848510.0,0.0
-6.132804,-13.014563,0.459422,19.67,1.68,5.04,1729417848531.0,0.0
-5.194818,-11.502297,1.785046,17.360001,-12.04,-35.0,1729417848549.0,0.0
-4.802395,-10.693524,0.66999,15.4,13.93,-61.110001,1729417848570.0,0.0
-4.285545,-10.652846,-0.650848,8.4,35.77,-74.199997,1729417848590.0,0.0
-2.76371,-6.814759,-0.447458,26.74,27.860001,-69.019997,1729417848609.0,0.0
-0.899701,-5.032106,2.880959,63.77,7.91,-52.080002,1729417848631.0,0.0
0.332602,-3.921836,6.305088,68.389999,-12.67,-40.670002,1729417848650.0,0.0
1.105484,-1.988436,9.329616,66.779999,-13.65,-17.43,1729417848670.0,0.0
0.315853,-3.407379,10.767702,1.47,-13.72,3.01,1729417848689.0,0.0
-1.332802,-6.21416,6.860222,-97.650002,5.32,5.81,1729417848710.0,0.0
-2.009971,-7.221539,2.15354,-96.529999,2.31,20.299999,1729417848730.0,0.0
-1.445265,-8.13799,-0.198604,-46.27,-17.219999,27.790001,1729417848750.0,0.0
-2.455036,-9.025726,0.37328,-1.19,-25.620001,52.150002,1729417848771.0,0.0
-4.240082,-11.631511,0.18664,8.26,-18.620001,58.66,1729417848789.0,0.0
-5.345565,-11.289338,-1.433301,-7.84,10.29,51.66,1729417848809.0,0.0
-6.092126,-12.748959,-1.567299,-22.68,0.49,35.84,1729417848830.0,0.0
-5.60399,-15.093925,-2.847459,-45.779999,3.64,9.52,1729417848850.0,0.0
-5.723632,-14.041083,0.129212,-29.4,12.39,-7.84,1729417848870.0,0.0
-4.625326,-12.117253,1.194018,30.59,-12.88,-20.719999,1729417848897.0,0.0
-3.936193,-9.793823,1.883151,46.759998,-2.87,-37.59,1729417848912.0,0.0
-4.070191,-10.466206,0.658026,-19.950001,29.75,-66.080002,1729417848933.0,0.0
-3.57727,-10.021141,-0.602991,-33.599998,49.630001,-77.349998,1729417848950.0,0.0
-2.89053,-6.522834,0.172283,-0.91,33.740002,-61.110001,1729417848972.0,0.0
-1.11027,-5.225924,4.675575,61.040001,-3.92,-51.099998,1729417848989.0,0.0
0.579063,-2.572284,7.798209,80.150002,-28.98,-23.940001,1729417849011.0,0.0
0.957129,-4.192225,9.336794,39.41,-32.619999,-10.71,1729417849030.0,0.0
-1.397408,-6.348158,6.104091,-56.91,1.54,-12.04,1729417849051.0,0.0
-2.237289,-6.699903,2.959922,-66.709999,-1.89,0.35,1729417849072.0,0.0
-1.09352,-7.56132,0.677169,-34.439999,-35.279999,15.54,1729417849090.0,0.0
-0.988236,-7.444071,1.344766,-0.56,-49.209999,36.540001,1729417849110.0,0.0
-2.507678,-10.298709,1.562513,1.12,-45.150002,48.02,1729417849131.0,0.0
-3.95055,-11.676974,-0.370888,-23.799999,-14.21,39.130001,1729417849151.0,0.0
-4.295116,-13.651052,-3.728018,-30.17,-4.83,38.080002,1729417849171.0,0.0
-4.599005,-16.240088,-5.194818,-51.380001,14.63,7.98,1729417849192.0,0.0
-5.091926,-14.866607,-0.985843,-13.09,16.799999,-7.98,1729417849211.0,0.0
-3.778267,-12.105289,0.818345,15.190001,2.38,-24.219999,1729417849231.0,0.0
-3.136991,-9.793823,0.461815,30.73,16.450001,-34.509998,1729417849251.0,0.0
-3.682554,-10.719845,0.287139,14.63,43.470001,-50.189999,1729417849271.0,0.0
-3.737589,-9.853643,0.265603,10.29,53.830002,-57.119999,1729417849291.0,0.0
-3.058028,-6.771688,0.342174,32.34,42.630001,-48.299999,1729417849310.0,0.0
-2.120041,-5.520242,4.711468,65.449997,20.370001,-48.02,1729417849334.0,0.0
-0.902094,-3.132205,8.338986,80.639999,-6.16,-28.139999,1729417849353.0,0.0
0.251246,-2.512464,10.628918,55.16,-31.360001,-10.92,1729417849375.0,0.0
-0.528814,-4.237689,7.9011,-48.09,-20.02,-2.38,1729417849392.0,0.0
-1.584049,-7.360322,3.464807,-69.019997,-9.87,7.42,1729417849413.0,0.0
-1.244268,-8.439486,1.282553,-38.220001,-29.540001,23.030001,1729417849434.0,0.0
-0.861416,-9.257831,0.636491,-12.39,-52.290001,43.400002,1729417849452.0,0.0
-1.304088,-11.636297,-2.775674,-30.73,-30.59,47.25,1729417849473.0,0.0
-3.52702,-14.529219,-2.598605,-27.719999,-1.4,46.900002,1729417849492.0,0.0
-4.711468,-15.902699,-3.864408,-37.66,22.469999,17.710001,1729417849514.0,0.0
-4.622933,-13.823336,-3.629912,-34.02,28.42,-7.42,1729417849533.0,0.0
-4.359723,-13.49552,-1.062413,-9.66,12.81,-15.61,1729417849554.0,0.0
-4.134798,-14.00519,-0.792024,6.79,18.549999,-22.540001,1729417849577.0,0.0
-4.517649,-13.318451,-1.555335,31.85,47.25,-40.529999,1729417849592.0,0.0
-5.211568,-12.327823,-1.366302,40.740002,72.870003,-59.5,1729417849616.0,0.0
-3.943372,-7.02772,-1.363909,35.209999,60.619999,-68.25,1729417849632.0,0.0
-1.18684,-3.172883,4.845466,108.43,2.52,-45.639999,1729417849652.0,0.0
1.782653,-1.674976,9.377472,115.010002,-29.049999,-23.17,1729417849674.0,0.0
1.141376,-0.691526,10.956735,66.709999,-0.35,-15.12,1729417849694.0,0.0
-1.048056,-1.885544,10.593026,-13.72,7.0,0.21,1729417849713.0,0.0
0.0335,-4.007978,7.786245,-86.239998,-31.43,22.120001,1729417849734.0,0.0
0.76331,-5.998806,3.85723,-91.769997,-56.279999,44.939999,1729417849752.0,0.0
-0.014357,-7.326823,1.201197,-77.279999,-43.68,57.330002,1729417849772.0,0.0
-0.894916,-9.834501,-4.850252,-52.360001,-31.15,77.0,1729417849793.0,0.0
-4.261617,-17.336,-3.955336,-42.700001,16.1,77.980003,1729417849812.0,0.0
-7.288538,-21.355942,-6.769295,-40.670002,64.540001,45.43,1729417849833.0,0.0
-7.872386,-14.574683,-4.694718,15.4,60.34,27.440001,1729417849854.0,0.0
-7.015756,-12.787244,-0.052642,62.299999,6.44,-2.94,1729417849873.0,0.0
-6.175875,-11.255837,0.662812,47.32,15.12,-45.709999,1729417849892.0,0.0
-5.548956,-9.583255,0.272782,26.6,35.98,-70.139999,1729417849913.0,0.0
-4.65404,-7.121039,1.495514,25.549999,29.68,-76.090004,1729417849935.0,0.0
-3.682554,-3.909872,2.744568,19.950001,17.85,-73.150002,1729417849952.0,0.0
-3.084348,-2.641676,5.575277,15.47,3.15,-64.610001,1729417849972.0,0.0
-2.837888,-2.756532,6.372087,-26.67,-12.53,-64.470001,1729417849992.0,0.0
-3.522235,-5.173282,5.860023,-93.099998,-22.610001,-53.830002,1729417850012.0,0.0
-2.533999,-8.106883,2.799603,-135.520004,-46.060001,-56.77,1729417850034.0,0.0
-1.009771,-10.597812,-0.27996,-128.589996,-73.43,-54.32,1729417850051.0,0.0
0.366102,-12.8686,-1.270589,-56.349998,-112.279999,-42.209999,1729417850073.0,0.0
0.557528,-9.200402,0.459422,21.629999,-132.160004,8.61,1729417850093.0,0.0
0.275175,-7.099504,3.732803,47.32,-144.550003,38.220001,1729417850111.0,0.0
0.366102,-9.695717,-1.146162,-40.32,-138.809998,29.4,1729417850132.0,0.0
0.193819,-11.114661,-3.696911,-125.370003,-93.169998,5.18,1729417850153.0,0.0
0.89013,-11.763116,-4.61097,-164.009995,-76.230003,-5.39,1729417850177.0,0.0
1.782653,-11.387443,-5.405386,-180.669998,-46.970001,-13.58,1729417850194.0,0.0
2.239682,-10.305886,-4.740182,-183.190002,-10.57,-20.790001,1729417850212.0,0.0
0.727418,-10.877771,-6.147161,-184.380005,23.940001,-14.77,1729417850234.0,0.0
0.114855,-9.554541,-5.149354,-165.130005,46.619999,-22.4,1729417850252.0,0.0
-1.11027,-8.492127,-2.742175,-57.400002,42.700001,16.1,1729417850275.0,0.0
-1.172483,-4.460221,-4.376472,-72.449997,57.470001,16.17,1729417850294.0,0.0
-4.342973,-11.830115,2.864209,-150.570007,58.380001,-13.02,1729417850313.0,0.0
-5.359922,-24.538395,-3.596412,-14.7,7.07,-8.68,1729417850333.0,0.0
-2.124826,-9.073583,-4.0008,135.169998,35.630001,38.57,1729417850355.0,0.0
-0.193819,-3.742374,3.534199,136.360001,23.450001,17.639999,1729417850375.0,0.0
1.29691,-6.297909,4.527221,56.420002,-7.56,25.969999,1729417850394.0,0.0
-0.550349,-9.547362,2.510071,-29.540001,-11.2,27.02,1729417850413.0,0.0
-2.696711,-11.442478,1.648655,-30.73,-7.98,11.97,1729417850493.0,0.0
-2.672783,-11.234302,-0.222532,-9.24,-61.950001,6.93,1729417850505.0,0.0
-0.528814,-5.015356,-9.394222,-55.580002,-76.230003,6.65,1729417850507.0,0.0
-0.794417,-8.252845,-14.364115,-76.93,-69.650002,12.67,1729417850518.0,0.0
-2.053042,-9.973285,-13.002598,-58.099998,-27.02,6.93,1729417850521.0,0.0
-4.204189,-12.30868,-10.724631,-39.41,56.279999,-18.76,1729417850532.0,0.0
-5.010571,-9.506684,-6.649654,-18.200001,50.610001,-28.280001,1729417850551.0,0.0
-3.194418,-9.19801,-4.814359,20.719999,-26.32,-11.97,1729417850573.0,0.0
-0.902094,-10.79163,-7.989635,-7.42,-7.0,-19.32,1729417850593.0,0.0
-0.978664,-8.049455,-1.916651,-61.110001,50.68,-28.49,1729417850611.0,0.0
-2.464607,-10.413565,-3.579663,-88.900002,54.040001,-36.959999,1729417850643.0,0.0
-0.299103,-10.908878,-1.304088,3.15,33.670002,-21.77,1729417850652.0,0.0
0.789631,-8.465806,2.677568,83.720001,-1.05,8.26,1729417850672.0,0.0
0.088534,-7.982457,7.781459,31.01,46.41,-18.059999,1729417850692.0,0.0
-1.65344,-9.10469,6.025128,-1.54,12.67,-15.190001,1729417850712.0,0.0
-1.196411,-7.788638,-0.081356,-40.599998,-21.84,-9.52,1729417850733.0,0.0
0.449851,-8.748159,-6.314659,-56.98,-44.52,1.89,1729417850753.0,0.0
1.28016,-10.41835,-5.793024,-31.710001,-74.620003,6.79,1729417850773.0,0.0
0.504886,-9.676575,-2.639283,29.960001,-72.800003,9.17,1729417850792.0,0.0
-3.632305,-6.135197,-7.389036,19.32,-20.51,-13.79,1729417850812.0,0.0
-3.59402,-7.405786,-13.478769,-74.410004,7.21,-28.49,1729417850832.0,0.0
-3.026921,-7.618747,-13.62234,-84.559998,-92.470001,-27.51,1729417850855.0,0.0
-1.184447,-8.382057,-13.134203,-12.67,-71.82,-9.1,1729417850873.0,0.0
-0.40678,-7.401,-11.562119,50.82,-13.72,-2.59,1729417850892.0,0.0
-1.22034,-8.109276,-3.682554,94.779999,49.560001,15.96,1729417850912.0,0.0
-3.931407,-11.026128,0.184247,68.529999,53.970001,9.17,1729417850936.0,0.0
-4.256832,-9.253045,0.09332,-57.470001,99.470001,-17.99,1729417850952.0,0.0
-2.143969,-11.925828,-6.13759,-57.540001,20.440001,-14.35,1729417850973.0,0.0
1.756332,-11.093125,-3.036492,6.02,-5.74,3.43,1729417850992.0,0.0
3.168097,-9.243474,-1.801795,75.809998,15.68,17.639999,1729417851012.0,0.0
1.655833,-6.589834,2.639283,59.43,77.699997,1.82,1729417851032.0,0.0
0.5001,-7.77428,4.4674,50.610001,54.740002,1.75,1729417851052.0,0.0
0.445065,-9.473185,0.691526,13.79,-1.68,10.29,1729417851072.0,0.0
-0.217747,-10.29153,-3.684947,-28.210001,4.41,0.35,1729417851092.0,0.0
-0.801596,-9.846465,-4.771288,-26.809999,3.64,0.07,1729417851112.0,0.0
-0.428315,-8.556733,-2.878566,15.75,-31.639999,6.44,1729417851133.0,0.0
-2.177469,-8.616554,-0.658026,15.05,-53.900002,-9.59,1729417851151.0,0.0
-4.797609,-6.987042,-6.367301,-88.550003,-20.719999,-29.68,1729417851236.0,0.0
-4.0008,-11.282159,-11.708081,-76.230003,-14.77,-40.110001,1729417851240.0,0.0
-3.663411,-10.707881,-14.335401,-13.65,-74.970001,-21.629999,1729417851241.0,0.0
-1.775474,-6.218946,-13.663017,61.529999,-13.09,-0.7,1729417851243.0,0.0
-0.753739,-3.78066,-6.008378,68.040001,12.04,10.36,1729417851252.0,0.0
-1.734797,-10.164711,-0.89013,41.23,-10.43,17.639999,1729417851274.0,0.0
-1.947758,-12.736995,-7.475177,-31.219999,92.400002,-4.2,1729417851291.0,0.0
-2.943172,-9.817751,-2.813959,-26.389999,84.489998,-3.57,1729417851316.0,0.0
-0.002393,-9.779467,-2.67039,16.940001,50.959999,6.93,1729417851331.0,0.0
2.218147,-9.609575,-1.17009,41.16,18.76,18.27,1729417851351.0,0.0
2.900101,-9.221939,3.785445,34.650002,51.240002,8.12,1729417851373.0,0.0
1.232304,-8.437093,4.007978,36.540001,47.459999,1.96,1729417851390.0,0.0
0.133998,-7.594819,3.256632,17.360001,34.509998,-1.05,1729417851411.0,0.0
-0.617348,-8.240881,-1.256232,-15.82,-2.73,7.07,1729417851431.0,0.0
-1.426122,-9.102298,-3.041277,-56.349998,-0.56,-4.55,1729417851452.0,0.0
-0.619741,-8.690732,-2.268396,-30.799999,-40.740002,-0.49,1729417851473.0,0.0
-1.09352,-10.059426,-1.237089,-20.58,-83.93,-8.47,1729417851490.0,0.0
-2.924029,-11.662617,-4.448257,-56.07,-72.519997,-35.630001,1729417851510.0,0.0
-3.924229,-6.991827,-10.683953,-124.110001,-41.299999,-43.400002,1729417851532.0,0.0
-3.783052,-9.927821,-15.864414,-45.57,-37.799999,-30.73,1729417851550.0,0.0
-2.383251,-9.523434,-14.337792,90.300003,-4.83,8.61,1729417851572.0,0.0
-2.11047,-7.463214,-3.270989,141.330002,21.77,31.43,1729417851590.0,0.0
-2.292324,-10.006784,-1.866402,90.650002,2.24,17.92,1729417851610.0,0.0
-1.335195,-8.281559,-5.76431,5.67,56.98,-11.62,1729417851633.0,0.0
-0.98345,-8.018349,-4.603791,-28.0,48.790001,-1.61,1729417851657.0,0.0
0.866202,-9.671788,2.349752,1.75,32.619999,10.08,1729417851672.0,0.0
3.074777,-10.609775,3.531806,50.68,-12.81,22.049999,1729417851690.0,0.0
2.275574,-8.006385,2.486143,38.43,29.889999,6.23,1729417851712.0,0.0
0.526421,-8.224132,-0.09332,-19.809999,32.830002,-0.77,1729417851730.0,0.0
0.59342,-9.224331,-3.471986,-48.09,1.12,5.04,1729417851750.0,0.0
-0.535992,-9.274581,-4.850252,-45.639999,10.78,6.58,1729417851771.0,0.0
-2.400001,-8.54477,-3.555735,-38.150002,28.77,-1.89,1729417851791.0,0.0
-1.552942,-9.834501,-0.705883,-20.299999,-23.799999,-7.35,1729417851810.0,0.0
-2.062613,-8.135597,-1.799403,-40.32,-82.949997,-17.290001,1729417851832.0,0.0
-2.112862,-3.981657,-11.073983,-89.879997,-26.74,-23.379999,1729417851851.0,0.0
-3.342773,-10.557133,-11.559726,-46.619999,-42.98,-14.49,1729417851872.0,0.0
-3.85723,-13.861622,-10.313066,42.139999,-17.639999,2.24,1729417851891.0,0.0
-3.146562,-7.613962,-6.553941,65.519997,35.07,9.17,1729417851911.0,0.0
-2.285146,-8.145168,-2.924029,43.189999,-18.41,9.17,1729417851936.0,0.0
-0.899701,-10.925629,-8.386844,5.04,9.8,-1.05,1729417851958.0,0.0
-0.765703,-9.138189,-5.938986,1.47,66.360001,-4.97,1729417851973.0,0.0
-0.937986,-9.437292,-4.254438,2.24,69.790001,-2.03,1729417851992.0,0.0
0.545564,-8.441878,-2.438286,-2.38,57.959999,6.65,1729417852013.0,0.0
2.294717,-10.272388,-0.882952,36.470001,30.799999,15.4,1729417852033.0,0.0
3.309274,-10.392029,4.957928,65.379997,28.630001,4.97,1729417852053.0,0.0
1.737189,-8.585447,4.888536,51.240002,24.08,-4.48,1729417852074.0,0.0
-0.760918,-8.30788,1.330409,-16.24,22.610001,-20.51,1729417852092.0,0.0
-3.120241,-9.377472,-0.299103,-81.830002,-4.9,-21.629999,1729417852113.0,0.0
-2.158326,-9.614362,-0.725025,-59.709999,-75.669998,-25.059999,1729417852133.0,0.0
-1.174876,-9.372685,-2.048256,-14.14,-113.889999,-18.549999,1729417852154.0,0.0
-1.615155,-5.871986,-6.707082,-35.279999,-112.209999,-23.73,1729417852176.0,0.0
-2.9336,-4.189832,-15.13221,-118.650002,-50.049999,-18.76,1729417852193.0,0.0
-3.759124,-14.629718,-15.802199,-40.810001,-29.960001,-38.43,1729417852213.0,0.0
-4.41715,-14.440684,-12.002398,87.709999,21.210001,7.56,1729417852234.0,0.0
-2.502892,-6.111269,-3.091527,182.839996,24.219999,31.219999,1729417852253.0,0.0
-1.002593,-6.759724,-5.091926,123.480003,3.85,22.120001,1729417852279.0,0.0
0.055035,-8.252845,-6.312266,-28.0,80.290001,-12.46,1729417852293.0,0.0
-0.993021,-11.392227,-4.699504,-56.84,73.989998,-4.69,1729417852313.0,0.0
1.538585,-10.595419,1.284946,40.459999,30.66,7.63,1729417852333.0,0.0
2.79721,-8.405986,1.818545,78.470001,11.62,7.14,1729417852353.0,0.0
1.37348,-6.666404,1.646262,9.73,53.830002,-9.94,1729417852379.0,0.0
0.535992,-8.650054,0.552742,-37.099998,4.83,-0.7,1729417852394.0,0.0
-0.928415,-8.329416,-2.17029,-64.889999,3.71,-7.21,1729417852414.0,0.0
-1.569692,-8.130811,-3.783052,-92.610001,-7.21,-19.530001,1729417852435.0,0.0
-0.588634,-9.987641,-3.079563,-60.900002,-78.330002,-23.24,1729417852455.0,0.0
0.040678,-9.858429,-2.488536,-0.21,-101.080002,-21.0,1729417852477.0,0.0
-1.59362,-4.630112,-6.185446,-44.450001,-70.840004,-34.299999,1729417852494.0,0.0
-2.909672,-8.070991,-11.234302,-98.840004,-31.43,-26.32,1729417852513.0,0.0
-4.134798,-15.316458,-14.835501,-62.510002,-12.74,-30.870001,1729417852534.0,0.0
-3.136991,-12.559926,-11.720046,63.91,24.92,6.3,1729417852554.0,0.0
-1.033699,-8.312666,-5.436492,175.699997,-2.38,24.639999,1729417852575.0,0.0
0.043071,-5.76431,-5.821737,134.539993,44.59,10.15,1729417852593.0,0.0
-0.265603,-6.336195,-4.101298,39.619999,92.330002,3.08,1729417852615.0,0.0
-0.591027,-7.728817,-3.897908,-31.43,92.050003,7.21,1729417852635.0,0.0
0.157926,-9.784252,-2.055435,1.12,76.300003,24.639999,1729417852654.0,0.0
1.995614,-10.253245,3.864408,47.32,38.849998,27.370001,1729417852675.0,0.0
2.167897,-8.348558,8.281559,73.779999,22.4,27.02,1729417852694.0,0.0
-2.536392,-8.322237,1.725225,21.35,23.940001,2.94,1729417852714.0,0.0
-2.634498,-11.578869,-2.079363,-88.830002,10.57,-20.16,1729417852735.0,0.0
-0.48335,-9.030513,-1.665405,-67.480003,-99.889999,-11.06,1729417852753.0,0.0
-0.538385,-10.186246,-6.147161,-55.860001,-120.260002,-11.69,1729417852774.0,0.0
-1.832902,-11.095518,-11.260624,-80.220001,-49.77,-53.34,1729417852794.0,0.0
-3.818945,-8.583055,-15.227923,-59.57,21.0,-31.639999,1729417852814.0,0.0
-2.921637,-10.487741,-10.753345,67.410004,27.23,-15.12,1729417852835.0,0.0
-1.459622,-6.372087,-6.506085,86.940002,12.32,20.299999,1729417852855.0,0.0
-0.177069,-6.819544,-1.378266,75.529999,-16.379999,29.82,1729417852875.0,0.0
0.538385,-10.164711,-4.742575,32.830002,-6.02,9.59,1729417852895.0,0.0
-0.191426,-9.71486,-3.921836,-0.84,73.989998,-5.74,1729417852914.0,0.0
-1.028914,-9.45165,-4.07737,4.76,59.920002,-1.75,1729417852936.0,0.0
0.698704,-7.554141,-1.868794,19.809999,43.400002,5.74,1729417852953.0,0.0
2.349752,-7.300502,-0.717847,35.07,14.28,23.1,1729417852974.0,0.0
1.933401,-7.482357,0.789631,11.69,47.040001,13.86,1729417852993.0,0.0
0.634098,-8.226524,2.854637,5.32,43.82,14.14,1729417853013.0,0.0
-1.304088,-9.092726,1.452443,-8.82,10.5,17.15,1729417853034.0,0.0
-2.782853,-8.803195,-0.624527,-49.139999,15.05,3.85,1729417853053.0,0.0
-1.019342,-8.985049,-1.998007,-44.73,-67.129997,0.98,1729417853074.0,0.0
0.81356,-9.564112,-3.192025,-46.41,-123.970001,-0.98,1729417853094.0,0.0
-1.284946,-6.458229,-8.11167,-118.720001,-114.239998,-19.530001,1729417853113.0,0.0
-2.043471,-7.293324,-14.440684,-137.339996,-12.88,-26.25,1729417853133.0,0.0
-3.393023,-11.85165,-13.859229,-33.810001,-24.219999,-20.23,1729417853154.0,0.0
-2.292324,-8.743374,-9.190832,79.800003,9.73,27.860001,1729417853174.0,0.0
-1.782653,-6.63769,-1.330409,90.860001,-16.1,39.130001,1729417853193.0,0.0
-2.323431,-11.547763,-6.293124,12.67,-2.59,24.08,1729417853213.0,0.0
-2.268396,-13.787444,-6.427122,-35.77,75.949997,-11.55,1729417853234.0,0.0
-1.37348,-10.904092,-6.302694,21.07,65.099998,17.92,1729417853253.0,0.0
0.677169,-7.147361,-1.787439,90.160004,47.110001,37.450001,1729417853274.0,0.0
1.574477,-6.352944,3.900301,75.739998,45.150002,31.15,1729417853293.0,0.0
1.115055,-6.233303,7.130611,38.990002,31.85,24.57,1729417853313.0,0.0
-1.481157,-8.276773,2.036292,-34.509998,8.96,15.61,1729417853334.0,0.0
-2.993421,-10.908878,-4.386044,-119.629997,21.280001,-14.56,1729417853353.0,0.0
-2.012364,-11.600404,-4.661219,-82.32,-39.689999,-20.440001,1729417853373.0,0.0
-0.464208,-6.455836,-1.445265,-8.75,-107.309998,-7.21,1729417853393.0,0.0
-1.069592,-4.206582,-5.367101,-21.98,-91.209999,-18.969999,1729417853412.0,0.0
-2.823531,-6.491727,-11.423335,-124.25,-37.66,-16.66,1729417853433.0,0.0
-5.458029,-14.914464,-14.943177,-113.400002,-49.77,-41.650002,1729417853453.0,0.0
-3.481557,-11.650653,-15.842879,17.219999,-15.12,-8.33,1729417853474.0,0.0
-1.040878,-4.685147,-6.912865,144.479996,-15.12,39.27,1729417853493.0,0.0
-1.98365,-6.293124,-1.701297,108.849998,-20.299999,35.420002,1729417853513.0,0.0
-1.866402,-9.68136,-5.692525,-37.869999,84.629997,-4.83,1729417853534.0,0.0
-2.206182,-11.657832,-9.016156,-84.209999,71.190002,-15.12,1729417853554.0,0.0
0.083749,-8.429914,-6.9344,-3.64,46.34,24.710001,1729417853579.0,0.0
1.117448,-7.240681,-0.315853,74.690002,33.389999,40.950001,1729417853595.0,0.0
0.150748,-9.456435,6.197411,62.650002,43.400002,14.7,1729417853614.0,0.0
-2.182254,-10.078569,7.609176,4.41,47.040001,-15.61,1729417853634.0,0.0
-2.172683,-8.561519,0.799203,-48.16,-2.17,-23.73,1729417853653.0,0.0
-0.454636,-7.68096,-3.266203,-89.949997,-25.200001,-28.98,1729417853676.0,0.0
0.928415,-9.370294,-3.531806,-70.489998,-79.730003,-20.02,1729417853704.0,0.0
-0.227318,-10.96152,-1.002593,-32.900002,-101.639999,-23.24,1729417853713.0,0.0
-1.356731,-5.541777,-7.530212,-29.68,-67.550003,-40.599998,1729417853735.0,0.0
-3.299703,-3.708875,-16.761723,-117.599998,-8.4,-19.460001,1729417853755.0,0.0
-4.668397,-13.000205,-16.733009,-46.41,15.47,-38.639999,1729417853777.0,0.0
-4.867002,-11.578869,-11.440084,-3.57,31.08,-0.49,1729417853794.0,0.0
-2.679961,-9.422935,-4.37408,156.940002,-2.31,29.68,1729417853815.0,0.0
-1.830509,-7.073184,-5.13739,116.340004,34.720001,18.48,1729417853835.0,0.0
-1.696511,-6.116055,-6.273981,9.38,94.43,-3.08,1729417853855.0,0.0
-1.09352,-7.082755,-8.070991,-42.07,82.459999,4.97,1729417853876.0,0.0
-0.031107,-8.468199,-4.354938,0.98,54.950001,28.07,1729417853895.0,0.0
0.835095,-9.80818,4.019942,65.870003,23.24,31.219999,1729417853915.0,0.0
0.583849,-8.77448,7.235896,83.510002,11.62,20.16,1729417853938.0,0.0
-0.985843,-7.970492,2.63689,20.93,24.43,-11.9,1729417853955.0,0.0
-1.404587,-8.01117,-2.940779,-67.760002,21.700001,-25.41,1729417853977.0,0.0
0.043071,-9.260223,-3.897908,-58.52,-39.900002,-22.4,1729417853995.0,0.0
0.598206,-7.987241,-4.225725,-24.08,-110.32,-13.79,1729417854015.0,0.0
0.234497,-5.008178,-6.049056,-34.650002,-71.190002,-18.34,1729417854035.0,0.0
-2.591427,-4.733003,-9.561719,-113.050003,-30.59,-5.18,1729417854057.0,0.0
-4.41715,-10.636096,-15.445671,-145.880005,13.79,-30.73,1729417854077.0,0.0
-5.788238,-12.870994,-15.828522,-93.730003,34.580002,-25.27,1729417854095.0,0.0
-3.235096,-10.413565,-9.116654,125.510002,-6.72,26.74,1729417854116.0,0.0
-1.529014,-8.219346,-2.878566,194.110001,-2.8,34.09,1729417854136.0,0.0
-1.820938,-5.130211,-4.388437,45.43,64.470001,3.15,1729417854156.0,0.0
-2.335395,-6.285945,-8.85823,-91.559998,114.239998,-9.73,1729417854177.0,0.0
-2.033899,-6.778866,-10.066606,-97.230003,99.190002,9.94,1729417854196.0,0.0
-1.141376,-9.030513,-3.682554,11.76,62.580002,44.380001,1729417854217.0,0.0
-0.524028,-10.504492,3.337988,108.57,14.7,46.41,1729417854238.0,0.0
-0.334995,-9.044869,3.555735,59.5,38.360001,14.84,1729417854257.0,0.0
-1.464408,-8.80798,1.488336,-50.68,43.889999,-19.18,1729417854279.0,0.0
-1.351945,-8.054241,-5.388636,-85.75,12.95,-24.780001,1729417854345.0,0.0
-1.765903,-7.982457,-4.977071,-73.919998,9.94,-32.900002,1729417854348.0,0.0
-2.158326,-9.576077,-4.515256,-65.660004,-17.43,-37.939999,1729417854350.0,0.0
-1.519442,-8.702696,-4.074977,-36.610001,-52.150002,-32.41,1729417854357.0,0.0
-0.969093,-6.163911,-3.663411,-40.389999,-73.360001,-29.82,1729417854377.0,0.0
-0.753739,-7.168896,-5.891129,-85.82,-79.519997,-31.710001,1729417854397.0,0.0
-0.705883,-8.925228,-7.601997,-139.580002,-82.25,-38.43,1729417854420.0,0.0
-1.129412,-10.255639,-6.424729,-150.360001,-86.940002,-32.830002,1729417854436.0,0.0
-0.545564,-9.212367,-7.668997,-100.870003,-72.169998,-24.219999,1729417854457.0,0.0
0.545564,-7.252645,-9.899107,-31.15,-58.310001,-27.93,1729417854477.0,0.0
0.803988,-3.259024,-10.707881,-50.259998,-33.459999,-25.200001,1729417854497.0,0.0
0.459422,-2.608176,-11.052447,-79.519997,-6.02,-12.88,1729417854515.0,0.0
0.181855,-5.099105,-11.68176,-72.870003,8.05,6.65,1729417854536.0,0.0
0.736989,-5.941379,-13.311273,-48.02,7.14,18.620001,1729417854556.0,0.0
1.074377,-5.063213,-11.899508,-25.48,24.15,36.610001,1729417854578.0,0.0
0.78006,-4.086941,-9.396614,17.219999,40.670002,52.43,1729417854596.0,0.0
-1.191626,-1.677369,-8.583055,22.75,67.970001,79.099998,1729417854615.0,0.0
-1.864009,-3.474378,-8.080563,20.02,61.810001,72.169998,1729417854635.0,0.0
-1.411765,-1.964507,-6.831509,8.54,30.59,79.099998,1729417854656.0,0.0
-1.399801,-1.050449,-8.281559,-34.439999,44.59,80.639999,1729417854679.0,0.0
-3.570091,-6.350551,-6.374479,-81.199997,99.540001,73.849998,1729417854695.0,0.0
-5.611169,-9.693325,-5.393422,-167.229996,68.25,28.98,1729417854717.0,0.0
-3.641876,-10.968699,-10.277173,-178.639999,46.619999,-14.98,1729417854737.0,0.0
-0.708275,-10.798808,-9.846465,-76.510002,-0.21,-44.450001,1729417854757.0,0.0
0.894916,-5.20439,-11.784652,-21.210001,-13.58,-29.960001,1729417854777.0,0.0
1.562513,-4.709075,-11.420943,-21.139999,-2.87,-62.650002,1729417854796.0,0.0
1.232304,-8.46102,-8.836694,-37.52,3.92,-83.510002,1729417854817.0,0.0
0.713061,-7.211967,-7.446464,-41.509998,-14.49,-79.099998,1729417854836.0,0.0
1.56012,-3.421736,-10.116854,-24.85,-17.99,-88.059998,1729417854855.0,0.0
1.799403,-1.246661,-8.386844,8.19,-12.25,-79.940002,1729417854877.0,0.0
1.179662,-0.775275,-4.62054,84.699997,-20.02,-49.0,1729417854896.0,0.0
-4.242475,-1.694118,-6.070591,29.960001,26.110001,-12.88,1729417854916.0,0.0
-6.9679,-5.091926,-8.224132,25.9,34.09,9.24,1729417854939.0,0.0
-5.742774,-12.882957,-9.073583,-0.21,-10.01,10.08,1729417854957.0,0.0
-1.569692,-5.426922,-7.410572,-9.73,-23.379999,2.87,1729417854978.0,0.0
-4.472186,-5.347959,-5.225924,92.959999,39.060001,41.93,1729417854995.0,0.0
-4.445865,-2.445465,-7.075576,60.830002,40.25,36.049999,1729417855017.0,0.0
-3.242275,-4.108476,-7.719246,-7.63,0.28,49.84,1729417855036.0,0.0
-0.646062,-8.882158,-9.552148,-47.599998,-15.54,54.25,1729417855057.0,0.0
0.540778,-10.164711,-9.573684,-22.75,-8.47,67.059998,1729417855077.0,0.0
2.009971,-4.900501,-10.882557,49.420002,12.6,66.43,1729417855096.0,0.0
1.241875,-1.447658,-8.788837,88.480003,14.07,96.459999,1729417855116.0,0.0
1.141376,-4.005585,-9.042477,43.82,27.58,100.099998,1729417855136.0,0.0
1.775474,-7.822137,-9.466006,38.920002,20.16,91.139999,1729417855155.0,0.0
3.227918,-6.67119,-8.99462,82.040001,-0.35,86.449997,1729417855177.0,0.0
2.632105,-5.927022,-6.702296,100.590004,3.43,82.110001,1729417855197.0,0.0
0.090927,-8.633304,-6.573084,80.639999,26.950001,78.610001,1729417855215.0,0.0
-2.230111,-5.642276,-6.711867,65.309998,20.23,51.450001,1729417855236.0,0.0
-2.165504,-4.938786,-7.403394,42.630001,4.13,19.74,1729417855257.0,0.0
-1.026521,-7.109076,-7.195218,-8.19,-37.869999,-14.14,1729417855277.0,0.0
-0.31346,-8.288737,-9.79143,-27.02,-48.509998,-39.830002,1729417855296.0,0.0
-3.125026,-7.130611,-9.693325,10.99,-17.639999,-97.860001,1729417855316.0,0.0
-2.909672,-5.592027,-8.25763,-10.57,-20.02,-111.510002,1729417855337.0,0.0
-1.189233,-2.600998,-7.63789,-31.290001,-33.529999,-104.720001,1729417855356.0,0.0
-1.189233,-0.732204,-7.156933,-65.519997,-16.379999,-97.860001,1729417855378.0,0.0
-1.911865,-1.440479,-8.293523,-93.029999,17.01,-91.0,1729417855396.0,0.0
-1.507478,-4.864608,-9.226725,-112.980003,1.89,-97.090004,1729417855416.0,0.0
0.308674,-4.113262,-11.162518,-103.949997,-45.849998,-106.470001,1729417855505.0,0.0
1.028914,1.588834,-5.144568,22.120001,-45.709999,-34.16,1729417855506.0,0.0
-5.864808,-6.228518,-2.067399,-96.669998,-10.01,-20.860001,1729417855506.0,0.0
-6.896115,-16.273586,-11.129018,-102.550003,10.22,-33.389999,1729417855507.0,0.0
-4.007978,-6.235696,-8.879765,-13.16,-63.490002,-8.96,1729417855516.0,0.0
-3.010171,-4.881358,-5.017749,50.75,-20.790001,-1.96,1729417855536.0,0.0
-3.862016,-6.506085,-7.534998,26.950001,8.82,26.74,1729417855556.0,0.0
-2.0004,-7.329216,-9.078369,39.549999,14.35,41.369999,1729417855577.0,0.0
0.031107,-6.472585,-8.090133,17.43,-13.86,41.02,1729417855595.0,0.0
0.605384,-7.558927,-6.821937,4.69,-1.68,51.450001,1729417855615.0,0.0
-0.253639,-8.391629,-4.022335,3.92,18.48,63.700001,1729417855635.0,0.0
-1.521835,-7.262216,-8.877372,25.200001,57.75,69.090004,1729417855655.0,0.0
-0.832702,-4.268795,-9.98525,49.279999,55.860001,95.550003,1729417855677.0,0.0
0.801596,-4.063013,-10.609775,67.410004,-12.46,136.009995,1729417855695.0,0.0
1.926222,-6.005985,-9.743573,51.310001,-42.91,139.089996,1729417855715.0,0.0
2.289931,-7.066005,-11.397014,67.199997,22.82,127.959999,1729417855743.0,0.0
2.007578,-6.91765,-9.865608,100.800003,46.48,133.070007,1729417855755.0,0.0
-1.68694,-5.271388,-4.828716,127.68,36.540001,144.970001,1729417855777.0,0.0
-3.718446,-2.024328,-6.977471,75.389999,45.57,105.209999,1729417855797.0,0.0
-4.022335,-7.523034,-9.954143,-3.43,12.95,63.98,1729417855816.0,0.0
-3.548556,-10.839487,-12.416357,-10.15,-5.04,6.58,1729417855836.0,0.0
-4.979464,-6.563512,-10.212566,3.5,-7.77,-42.98,1729417855857.0,0.0
-3.996014,-3.878766,-10.030712,-13.51,-23.799999,-90.790001,1729417855877.0,0.0
-3.397808,-2.775674,-5.192425,-16.379999,-42.630001,-123.620003,1729417855896.0,0.0
-2.194218,-4.089334,-4.733003,-36.82,-37.099998,-149.240005,1729417855917.0,0.0
-0.16989,-4.613362,-11.526227,-87.080002,-18.690001,-161.490005,1729417855940.0,0.0
-0.153141,-2.079363,-12.636496,-81.690002,1.96,-130.830002,1729417855956.0,0.0
-0.320638,0.011964,-10.164711,-70.0,4.97,-124.18,1729417855978.0,0.0
-2.342573,-3.129812,-6.206983,-157.710007,-3.01,-138.740005,1729417855996.0,0.0
-3.175276,-5.76431,-8.702696,-202.930008,-27.370001,-102.760002,1729417856017.0,0.0
-0.976272,-6.412765,-10.267602,-130.410004,-48.02,-89.110001,1729417856038.0,0.0
0.229711,-7.645068,-3.993621,-60.200001,-71.120003,-71.959999,1729417856058.0,0.0
-4.022335,-12.847065,-2.62732,-100.449997,-41.439999,-38.779999,1729417856078.0,0.0
-4.175476,-8.35813,-5.458029,-32.970001,1.75,-12.53,1729417856097.0,0.0
-2.0004,-4.053442,-9.205189,66.220001,18.620001,22.190001,1729417856116.0,0.0
-0.882952,-3.567699,-7.73121,72.590004,3.92,48.580002,1729417856137.0,0.0
-0.945165,-7.070791,-6.477371,23.030001,-13.37,76.650002,1729417856157.0,0.0
-0.66999,-9.482756,-8.99462,15.33,-0.56,84.769997,1729417856178.0,0.0
-0.842274,-9.042477,-7.956135,49.349998,19.389999,80.43,1729417856196.0,0.0
0.614955,-4.426722,-11.56451,81.269997,35.98,103.809998,1729417856218.0,0.0
1.196411,-4.208975,-10.856236,111.650002,-14.14,139.720001,1729417856239.0,0.0
1.01695,-5.860023,-7.341179,80.779999,-9.66,138.320007,1729417856258.0,0.0
3.165704,-6.089733,-15.809379,69.370003,16.309999,111.93,1729417856279.0,0.0
-0.602991,-5.484349,-10.265208,151.059998,26.530001,111.790001,1729417856297.0,0.0
-5.252246,-1.050449,-7.144968,148.960007,53.760002,94.5,1729417856317.0,0.0
-4.725825,-2.323431,-8.35813,61.529999,13.440001,40.459999,1729417856338.0,0.0
-2.359323,-6.360123,-9.308081,-5.18,-24.219999,-1.4,1729417856360.0,0.0
-2.78046,-7.288538,-9.607183,-29.68,-8.19,-41.720001,1729417856378.0,0.0
-3.460021,-6.836295,-9.84168,-38.57,1.12,-83.370003,1729417856398.0,0.0
-2.991028,-5.242674,-8.130811,-33.18,-12.46,-117.110001,1729417856418.0,0.0
-2.143969,-3.369094,-7.412964,-38.360001,-25.059999,-124.879997,1729417856438.0,0.0
-0.552742,-3.656233,-7.24786,-78.470001,-44.380001,-142.380005,1729417856463.0,0.0
0.325424,-1.469193,-9.308081,-110.529999,-30.940001,-113.889999,1729417856478.0,0.0
1.105484,0.555135,-12.14836,-54.110001,-7.35,-94.989998,1729417856497.0,0.0
-0.976272,-2.440679,-3.969693,-80.220001,7.21,-106.050003,1729417856518.0,0.0
-3.716053,-5.706882,-11.609976,-197.190002,38.779999,-69.019997,1729417856538.0,0.0
-1.160519,-7.678568,-2.689533,-47.18,-64.68,-66.150002,1729417856558.0,0.0
-4.905287,-11.870793,-2.395216,-48.369999,-35.07,21.84,1729417856580.0,0.0
-4.113262,-6.400801,-8.580662,27.58,27.58,-21.84,1729417856598.0,0.0
-6.336195,-2.036292,-6.101698,58.450001,31.780001,28.77,1729417856617.0,0.0
-4.735396,-4.563113,-8.023134,22.889999,19.32,56.91,1729417856640.0,0.0
-1.70369,-5.599205,-8.006385,2.52,-41.439999,67.620003,1729417856657.0,0.0
-1.148555,-8.047063,-6.788438,38.639999,-34.02,96.18,1729417856679.0,0.0
-1.603191,-8.568698,-7.556533,57.260002,19.389999,85.959999,1729417856697.0,0.0
-2.134398,-7.862815,-7.745567,74.970001,47.110001,71.330002,1729417856717.0,0.0
-2.232504,-7.925028,-7.951349,75.110001,41.720001,78.540001,1729417856739.0,0.0
-0.629312,-7.295716,-10.018748,52.990002,11.97,86.870003,1729417856758.0,0.0
1.304088,-6.817152,-11.033305,81.830002,-38.57,99.120003,1729417856788.0,0.0
1.85683,-6.329016,-10.159925,94.080002,-38.920002,114.940002,1729417856797.0,0.0
2.256432,-4.680361,-12.421142,100.239998,12.53,90.93,1729417856817.0,0.0
1.421337,-5.802595,-11.279767,108.360001,32.48,71.889999,1729417856837.0,0.0
-2.713461,-2.943172,-5.642276,110.32,14.56,83.160004,1729417856858.0,0.0
-4.618148,-3.830909,-7.269395,34.650002,21.0,30.030001,1729417856878.0,0.0
-4.0008,-5.453243,-9.442079,-59.150002,10.22,-41.509998,1729417856897.0,0.0
-2.371287,-5.893522,-9.51147,-68.739998,-24.639999,-58.380001,1729417856917.0,0.0
-2.222932,-6.750153,-6.742974,-75.25,-46.060001,-87.779999,1729417856942.0,0.0
-1.091127,-8.427521,-6.89133,-54.950001,-24.5,-122.080002,1729417856957.0,0.0
-1.246661,-5.910272,-9.513863,-48.09,4.13,-122.639999,1729417856979.0,0.0
-2.057827,-3.160919,-8.62134,-36.049999,7.28,-114.099998,1729417856998.0,0.0
-0.861416,0.055035,-10.750952,-54.459999,-11.69,-105.279999,1729417857017.0,0.0
0.260818,-2.017149,-9.090333,-83.090004,-30.940001,-107.379997,1729417857038.0,0.0
0.617348,-2.615355,-10.875379,-161.0,-23.52,-106.400002,1729417857059.0,0.0
-0.588634,-8.415558,-11.129018,-149.169998,-4.34,-103.949997,1729417857079.0,0.0
-1.497907,-7.317252,-4.981857,-61.32,-19.32,-46.900002,1729417857097.0,0.0
-5.158926,-8.078169,3.787838,13.23,-42.209999,-26.6,1729417857117.0,0.0
-8.085347,-7.537392,-4.601398,27.370001,23.1,-2.52,1729417857137.0,0.0
-6.45105,-3.488736,-10.911271,4.62,31.780001,-9.31,1729417857158.0,0.0
-4.481757,-6.022735,-9.96132,-1.82,-25.129999,46.200001,1729417857179.0,0.0
-2.021935,-6.362515,-9.585647,8.75,-42.420002,56.420002,1729417857197.0,0.0
-1.462015,-9.090333,-8.389235,68.040001,-11.2,87.849998,1729417857218.0,0.0
-0.579063,-6.982256,-9.334401,102.340004,27.58,56.139999,1729417857238.0,0.0
-1.198804,-5.237889,-6.575477,119.279999,48.02,82.389999,1729417857257.0,0.0
-1.538585,-5.465207,-8.092526,72.099998,53.130001,81.970001,1729417857278.0,0.0
-0.952343,-8.157133,-9.095119,58.59,26.6,58.099998,1729417857297.0,0.0
-0.717847,-5.347959,-10.521241,51.799999,-3.29,85.470001,1729417857318.0,0.0
0.507278,-3.936193,-9.506684,59.220001,-15.12,79.519997,1729417857338.0,0.0
-0.251246,-3.17049,-7.853244,32.759998,-6.58,68.529999,1729417857358.0,0.0
-0.650848,-3.74716,-9.566505,-10.71,21.629999,35.560001,1729417857380.0,0.0
-0.847059,-6.721439,-12.753745,-26.74,28.139999,11.55,1729417857398.0,0.0
-3.201597,-7.716853,-9.513863,2.17,24.08,3.99,1729417857417.0,0.0
-4.584648,-5.91745,-6.565905,16.1,1.89,-20.65,1729417857437.0,0.0
-2.414358,-3.739982,-8.047063,1.05,-22.75,-60.060001,1729417857458.0,0.0
-0.502493,-4.941179,-8.391629,-22.4,-49.139999,-100.099998,1729417857478.0,0.0
0.449851,-7.190433,-6.939186,-70.559998,-52.57,-131.320007,1729417857498.0,0.0
0.926022,-6.135197,-9.853643,-98.840004,-18.34,-113.120003,1729417857517.0,0.0
-0.184247,-3.830909,-9.229117,-50.540001,1.54,-89.529999,1729417857538.0,0.0
-2.242075,-1.184447,-9.638289,-81.129997,5.32,-104.93,1729417857557.0,0.0
-1.488336,-5.185246,-12.246466,-107.940002,13.72,-104.300003,1729417857579.0,0.0
0.339781,-7.688138,-8.216952,-53.34,-35.630001,-62.790001,1729417857597.0,0.0
-1.639083,-9.001799,-0.421137,-15.33,-37.310001,-27.23,1729417857617.0,0.0
-7.200003,-5.996413,0.325424,23.379999,35.490002,-6.44,1729417857638.0,0.0
-8.133204,-1.304088,-6.393622,16.59,46.900002,-11.97,1729417857657.0,0.0
-5.582455,-3.692125,-10.408779,-32.200001,12.25,20.65,1729417857679.0,0.0
-2.009971,-8.343772,-10.916058,-39.830002,-33.32,30.799999,1729417857697.0,0.0
-0.617348,-9.903893,-9.370294,-9.38,-46.200001,44.869999,1729417857718.0,0.0
-0.646062,-7.006185,-7.786245,52.360001,9.31,37.939999,1729417857739.0,0.0
-1.751546,-5.000999,-6.436693,80.150002,54.950001,28.42,1729417857758.0,0.0
-2.100898,-5.785845,-7.893922,48.16,67.620003,29.4,1729417857786.0,0.0
-1.115055,-7.207181,-9.159724,17.15,26.809999,30.940001,1729417857797.0,0.0
-0.837488,-7.99442,-7.71446,1.82,-6.09,39.200001,1729417857818.0,0.0
0.306281,-7.448857,-10.705488,50.610001,10.43,45.360001,1729417857838.0,0.0
1.509871,-2.730211,-12.143576,104.650002,9.03,67.620003,1729417857857.0,0.0
0.031107,0.282353,-6.656832,114.520004,-22.33,92.540001,1729417857881.0,0.0
-0.648455,-3.842873,-7.936993,-6.93,23.379999,45.080002,1729417857898.0,0.0
-0.911665,-6.84108,-10.801201,-38.990002,55.720001,9.1,1729417857918.0,0.0
-1.835295,-6.71426,-9.226725,-14.28,32.619999,9.8,1729417857941.0,0.0
-2.249253,-6.252446,-8.848659,-10.5,15.05,1.75,1729417857958.0,0.0
-2.261217,-7.152147,-8.719445,-23.940001,9.94,-30.940001,1729417857981.0,0.0
-1.395016,-6.388836,-9.303294,-22.82,-0.49,-53.34,1729417857997.0,0.0
-0.356531,-4.752146,-9.403792,-18.200001,-15.61,-58.59,1729417858018.0,0.0
0.614955,-3.991228,-9.635897,-37.73,-28.07,-66.290001,1729417858038.0,0.0
0.581456,-5.106283,-8.475377,-44.66,-26.460001,-75.459999,1729417858058.0,0.0
-0.863809,-5.362316,-8.41795,-79.519997,-10.01,-74.199997,1729417858080.0,0.0
-0.79681,-2.656033,-11.854043,-70.559998,3.15,-67.620003,1729417858097.0,0.0
0.385244,-2.29711,-12.997812,-2.03,-11.97,-74.620003,1729417858118.0,0.0
0.744168,-3.665804,-1.292124,-4.97,-27.09,-87.290001,1729417858140.0,0.0
-3.749553,-5.943772,-1.87358,-59.5,-7.98,-41.299999,1729417858160.0,0.0
-4.582255,-2.924029,-7.702496,-41.790001,10.29,-63.279999,1729417858182.0,0.0
-4.76411,-1.131805,-8.68116,-46.060001,-14.91,-51.869999,1729417858199.0,0.0
-4.201797,-6.673582,-6.585048,-79.029999,-48.23,-42.630001,1729417858219.0,0.0
-3.321238,-13.184454,-4.139583,-100.379997,-62.580002,-31.08,1729417858240.0,0.0
-2.340181,-9.408579,-7.695317,-39.759998,-30.24,-0.14,1729417858261.0,0.0
-1.414158,-5.335995,-10.037891,68.669998,11.97,2.45,1729417858282.0,0.0
-1.622334,-5.158926,-10.246067,58.029999,30.940001,24.57,1729417858299.0,0.0
-0.449851,-8.470592,-9.973285,21.07,14.42,23.450001,1729417858319.0,0.0
-0.138784,-9.157332,-7.67139,-6.37,-7.63,31.85,1729417858339.0,0.0
-0.306281,-7.867601,-9.308081,2.59,27.790001,35.349998,1729417858360.0,0.0
-0.177069,-3.646662,-11.337193,66.290001,55.23,57.049999,1729417858382.0,0.0
1.033699,-2.57707,-13.9358,168.350006,13.02,97.580002,1729417858399.0,0.0
1.117448,1.916651,-12.069397,108.43,-39.970001,107.940002,1729417858420.0,0.0
2.615355,1.942972,-11.085947,60.830002,-59.709999,75.669998,1729417858440.0,0.0
1.988436,-3.546163,-9.403792,2.66,-11.62,25.27,1729417858460.0,0.0
-2.277967,-8.130811,-8.867801,-30.24,49.490002,-11.48,1729417858481.0,0.0
-2.689533,-5.111069,-9.530612,17.57,13.58,-22.82,1729417858503.0,0.0
-1.316052,-6.065805,-7.121039,82.739998,-23.73,-29.469999,1729417858520.0,0.0
-0.535992,-7.099504,-8.248059,21.35,13.16,-46.970001,1729417858539.0,0.0
-2.053042,-8.860621,-9.422935,-21.77,42.98,-29.889999,1729417858560.0,0.0
-0.9667,-4.735396,-13.861622,86.940002,21.0,-23.59,1729417858580.0,0.0
-2.268396,-4.986642,-6.001199,278.809998,30.59,9.94,1729417858598.0,0.0
-3.909872,-4.826324,-1.117448,245.210007,27.370001,20.719999,1729417858619.0,0.0
-4.125226,-4.350152,-4.465007,192.919998,12.53,47.110001,1729417858639.0,0.0
-3.089134,-7.13779,-4.864608,206.5,23.73,31.290001,1729417858659.0,0.0
-4.907679,-8.946764,-2.955136,228.550003,27.65,56.98,1729417858681.0,0.0
-4.139583,-7.601997,-3.57727,251.089996,32.200001,56.490002,1729417858698.0,0.0
-3.069991,-6.161518,-3.783052,224.0,44.939999,46.549999,1729417858720.0,0.0
-3.270989,-6.874579,-1.368695,157.919998,34.16,47.950001,1729417858740.0,0.0
-2.254039,-9.437292,-0.641276,96.32,10.71,44.73,1729417858759.0,0.0
-0.897308,-9.863215,0.210568,45.009998,-15.89,38.220001,1729417858780.0,0.0
-0.320638,-9.379865,-1.665405,7.28,-42.279999,34.439999,1729417858800.0,0.0
-0.713061,-13.464413,-3.462414,8.12,-21.139999,19.040001,1729417858819.0,0.0
-1.270589,-15.98884,-3.589234,163.380005,1.75,19.040001,1729417858839.0,0.0
-1.718047,-11.150554,-0.801596,162.470001,12.04,7.49,1729417858859.0,0.0
-2.481357,-7.676175,0.832702,103.529999,4.76,0.14,1729417858880.0,0.0
-2.072184,-10.009177,-2.63689,85.190002,24.99,-4.27,1729417858900.0,0.0
-0.98345,-17.52264,-2.175076,210.490005,24.780001,0.07,1729417858919.0,0.0
0.227318,-8.640482,-0.756132,259.839996,-18.27,33.670002,1729417858945.0,0.0
0.894916,-12.710674,0.378066,230.089996,-11.48,45.43,1729417858958.0,0.0
1.086342,-16.340586,-0.392423,199.430008,-23.17,12.39,1729417858980.0,0.0
0.648455,-14.591432,-2.11047,272.230011,12.46,21.139999,1729417858998.0,0.0
-0.385244,-8.937192,0.11007,359.799988,31.290001,19.6,1729417859018.0,0.0
-2.22054,-6.474977,4.429115,335.790009,33.040001,3.71,1729417859040.0,0.0
-3.723232,-5.84088,5.690133,240.309998,53.760002,-35.630001,1729417859059.0,0.0
-6.477371,-9.044869,2.993421,232.820007,84.419998,-20.16,1729417859079.0,0.0
-7.032506,-4.996214,2.39043,267.610016,87.220001,-24.15,1729417859099.0,0.0
-8.559127,1.909473,5.123034,327.880005,44.73,29.190001,1729417859118.0,0.0
-7.412964,6.147161,6.001199,193.270004,-2.45,10.36,1729417859138.0,0.0
-3.852444,0.162712,5.20439,-28.35,-41.09,-8.12,1729417859159.0,0.0
-3.517449,-1.612763,4.677969,-264.179993,-28.49,7.56,1729417859180.0,0.0
-3.792624,-4.185047,3.285345,-337.959991,-8.89,14.98,1729417859199.0,0.0
-3.081956,-7.283752,-0.09332,-433.649994,-4.48,-11.83,1729417859218.0,0.0
-3.737589,-9.52822,-0.057428,-502.670013,-13.51,-9.1,1729417859238.0,0.0
-2.641676,-17.580067,-0.524028,-325.98999,-83.790001,14.77,1729417859258.0,0.0
-2.854637,-12.093326,2.117648,-153.509995,-47.950001,39.689999,1729417859280.0,0.0
-2.282753,-7.738388,0.287139,-243.320007,-66.639999,17.92,1729417859298.0,0.0
-2.447858,-9.602397,2.76371,-314.649994,-65.800003,2.73,1729417859318.0,0.0
-2.581856,-11.988041,2.098505,-254.589996,-52.57,17.08,1729417859340.0,0.0
-2.182254,-8.980263,-1.17009,-231.419998,-33.040001,6.58,1729417859361.0,0.0
-2.892922,-6.876972,-2.823531,-245.419998,-13.16,-3.57,1729417859380.0,0.0
-4.132405,-9.631111,-2.823531,-274.679993,-21.35,1.89,1729417859400.0,0.0
-3.058028,-16.357336,-6.618547,-167.369995,-29.4,0.91,1729417859419.0,0.0
-3.314059,-14.199009,-7.568498,86.309998,8.4,12.6,1729417859439.0,0.0
-4.118048,-9.74836,-1.79701,264.459991,22.26,28.49,1729417859460.0,0.0
-4.268795,-8.961121,2.423929,265.929993,8.05,28.139999,1729417859479.0,0.0
-2.105684,-12.081362,-0.954736,271.529999,3.99,5.32,1729417859498.0,0.0
-2.498107,-13.057633,-0.854238,435.75,28.139999,13.09,1729417859518.0,0.0
-2.608176,-11.566904,0.040678,590.380005,56.490002,31.219999,1729417859539.0,0.0
-4.067799,-10.284351,3.751946,563.150024,94.639999,11.83,1729417859560.0,0.0
-5.32403,-8.678767,3.852444,443.589996,81.059998,-17.15,1729417859579.0,0.0
-4.991428,-6.60419,3.940979,404.529999,49.490002,-30.799999,1729417859598.0,0.0
-5.843273,-3.833302,5.986843,457.450012,2.1,-10.64,1729417859618.0,0.0
-4.084548,0.007178,8.666803,385.48999,-53.970001,-46.27,1729417859641.0,0.0
-2.823531,-0.995414,9.49472,262.920013,-73.57,-49.0,1729417859658.0,0.0
-2.139183,-2.751746,6.936793,190.820007,-60.830002,-59.290001,1729417859679.0,0.0
-1.78026,0.311067,7.008578,193.479996,-30.17,-35.07,1729417859698.0,0.0
-1.457229,3.668197,5.402994,132.089996,-7.91,-49.700001,1729417859727.0,0.0
-2.608176,4.627719,5.182854,89.669998,34.580002,-26.18,1729417859850.0,0.0
-3.696911,-0.78006,4.795217,36.68,49.98,-15.190001,1729417859895.0,0.0
-5.278566,-3.213561,6.958328,-19.950001,68.32,32.48,1729417859931.0,0.0
-6.084948,-1.272982,6.924829,-19.809999,74.059998,46.759998,1729417859932.0,0.0
-5.316852,-1.01695,5.893522,-137.270004,62.23,9.8,1729417859932.0,0.0
-5.034499,-2.885744,5.039285,-208.180008,61.459999,-10.64,1729417859932.0,0.0
-5.101498,-2.658426,5.108676,-265.51001,72.519997,-12.53,1729417859933.0,0.0
-6.087341,-4.934,5.307281,-371.980011,61.670002,-33.670002,1729417859933.0,0.0
-7.982457,-7.415358,5.022535,-450.23999,43.959999,-39.48,1729417859933.0,0.0
-5.718846,-7.858029,3.220739,-515.200012,-21.42,-24.15,1729417859945.0,0.0
-2.79721,-9.815358,1.978864,-512.960022,-27.23,-2.45,1729417860027.0,0.0
-1.777867,-13.485948,1.191626,-404.459991,-10.92,-0.14,1729417860028.0,0.0
-4.103691,-10.545169,2.70389,-336.700012,40.740002,11.34,1729417860039.0,0.0
-5.769095,-12.150753,2.663212,-305.480011,46.900002,-11.97,1729417860040.0,0.0
-5.623133,-13.835299,1.940579,-268.799988,9.03,-20.65,1729417860045.0,0.0
-3.852444,-8.477771,-0.914058,-214.830002,-38.080002,-15.82,1729417860058.0,0.0
-2.98385,-11.308479,-2.548356,-52.009998,-40.040001,-10.01,1729417860078.0,0.0
-4.41715,-14.75893,0.055035,148.75,-16.379999,-22.75,1729417860099.0,0.0
-5.960521,-11.313265,1.442872,312.970001,3.99,-11.69,1729417860119.0,0.0
-4.718646,-9.760324,0.988236,440.230011,-9.03,-0.7,1729417860139.0,0.0
-3.751946,-8.499306,3.175276,490.630005,-25.34,12.18,1729417860160.0,0.0
-3.26381,-11.631511,4.448257,595.909973,10.43,5.39,1729417860180.0,0.0
-5.144568,-9.956534,5.003392,663.109985,29.049999,-1.26,1729417860199.0,0.0
-6.474977,-2.579463,8.13799,613.900024,8.68,40.810001,1729417860220.0,0.0
-5.893522,-1.718047,8.075776,442.119995,-63.560001,10.15,1729417860241.0,0.0
-3.945765,0.246461,7.707282,278.320007,-110.739998,-26.6,1729417860261.0,0.0
-3.282953,1.366302,7.743174,182.630005,-96.32,-55.650002,1729417860285.0,0.0
-4.331009,3.52702,8.518449,148.050003,-58.59,-44.240002,1729417860301.0,0.0
-4.371687,1.954936,7.633104,60.970001,-46.41,-38.220001,1729417860320.0,0.0
-2.778067,2.684747,5.448457,-23.799999,-38.639999,-30.309999,1729417860341.0,0.0
-2.24686,4.9675,4.910072,-54.599998,-17.5,-14.35,1729417860362.0,0.0
-3.354738,2.74696,5.374279,-49.560001,6.23,4.55,1729417860381.0,0.0
-3.893122,-0.023928,5.647062,-40.880001,19.040001,17.290001,1729417860400.0,0.0
-3.333202,0.832702,6.687939,-135.169998,39.130001,14.28,1729417860421.0,0.0
-3.586841,-0.68674,5.682954,-198.380005,54.880001,14.28,1729417860494.0,0.0
-4.132405,-0.72024,5.749953,-204.399994,64.330002,20.93,1729417860496.0,0.0
-5.367101,-2.57707,6.888937,-221.339996,57.959999,15.82,1729417860499.0,0.0
-6.013163,-5.998806,8.609376,-248.850006,43.889999,14.98,1729417860526.0,0.0
-5.785845,-3.888337,7.707282,-289.450012,17.639999,20.440001,1729417860529.0,0.0
-5.108676,-4.752146,7.166504,-361.339996,-22.33,11.27,1729417860541.0,0.0
-5.091926,-8.501699,4.481757,-487.970001,-31.99,1.33,1729417860561.0,0.0
-4.201797,-14.512468,3.897908,-476.630005,-47.389999,-8.96,1729417860581.0,0.0
-2.861816,-12.404392,2.443072,-342.440002,-49.98,-7.91,1729417860606.0,0.0
-3.359523,-10.370493,-0.26321,-278.950012,14.63,-7.84,1729417860623.0,0.0
-3.768696,-9.970891,-1.883151,-227.639999,35.630001,-32.689999,1729417860641.0,0.0
-4.855037,-12.212967,3.37388,-87.779999,-0.91,-13.37,1729417860672.0,0.0
-4.780859,-10.171888,7.752745,60.970001,-44.52,9.17,1729417860738.0,0.0
-3.617948,-8.532805,4.675575,136.990005,-35.279999,13.65,1729417860745.0,0.0
-2.955136,-9.066404,0.184247,166.039993,4.2,13.65,1729417860747.0,0.0
-4.993821,-7.735995,3.369094,207.479996,18.27,14.14,1729417860757.0,0.0
-4.455436,-10.554741,4.651647,194.180008,34.439999,-13.72,1729417860895.0,0.0
-3.646662,-10.415956,5.091926,218.680008,28.35,-8.82,1729417860896.0,0.0
-3.921836,-9.114261,4.893322,255.5,28.35,-12.46,1729417860897.0,0.0
-4.237689,-10.722239,6.982256,255.009995,31.780001,-19.460001,1729417860898.0,0.0
-5.185246,-6.585048,10.08814,250.460007,28.559999,-49.349998,1729417860899.0,0.0
-4.182654,-1.493121,10.963913,293.440002,1.54,-38.43,1729417860901.0,0.0
-3.146562,-2.328217,9.566505,253.680008,-46.48,-34.23,1729417860911.0,0.0
-2.019542,1.215554,6.460621,195.580002,-80.849998,-8.05,1729417861104.0,0.0
-2.258825,3.732803,4.606184,173.25,-50.68,6.58,1729417861107.0,0.0
-3.326023,2.682354,4.058227,85.470001,-6.65,-1.61,1729417861107.0,0.0
-4.225725,1.124627,4.486543,-13.93,26.460001,-6.09,1729417861107.0,0.0
-4.878965,-0.875773,5.029713,-62.790001,38.150002,0.07,1729417861107.0,0.0
-5.422136,-3.9338,6.34098,-48.439999,46.34,7.49,1729417861108.0,0.0
-5.345565,-2.830709,8.190632,-17.639999,38.709999,25.059999,1729417861108.0,0.0
-3.464807,-2.768496,7.872386,-39.34,16.52,23.17,1729417861108.0,0.0
-3.529413,-3.098706,7.566105,-62.860001,19.32,30.940001,1729417861108.0,0.0
-3.986443,-2.261217,7.817351,-57.189999,31.360001,33.040001,1729417861108.0,0.0
-4.216154,-0.799203,7.226324,-90.580002,28.0,36.75,1729417861123.0,0.0
-4.474578,-2.711068,8.487342,-140.210007,19.530001,31.710001,1729417861221.0,0.0
-5.328816,-5.438886,9.152546,-164.5,23.450001,26.25,1729417861223.0,0.0
-5.87438,-5.134997,10.29153,-171.360001,7.56,22.540001,1729417861227.0,0.0
-5.85763,-6.398407,7.24786,-228.270004,-31.01,9.38,1729417861249.0,0.0
-4.936393,-9.607183,2.813959,-341.320007,-26.880001,-27.65,1729417861249.0,0.0
-3.716053,-16.357336,0.751346,-307.51001,-14.77,-43.049999,1729417861312.0,0.0
-1.550549,-9.312866,5.484349,-63.560001,-34.650002,-12.6,1729417861312.0,0.0
-3.010171,-3.907479,7.329216,71.82,-10.08,37.939999,1729417861312.0,0.0
-4.59422,-5.776274,6.283553,41.860001,37.939999,-9.03,1729417861312.0,0.0
-6.185446,-8.161918,6.118448,31.15,39.689999,-3.15,1729417861321.0,0.0
-4.615755,-8.606983,6.455836,60.41,14.07,-0.91,1729417861343.0,0.0
-4.61097,-8.463413,6.766902,162.889999,8.33,-2.52,1729417861362.0,0.0
-4.618148,-8.891729,5.898308,210.490005,11.13,-13.58,1729417861384.0,0.0
-4.737789,-6.329016,7.640282,245.419998,2.52,-6.65,1729417861402.0,0.0
-4.328616,-4.007978,8.300702,233.660004,-21.559999,-8.54,1729417861421.0,0.0
-2.964707,-5.17089,8.283953,178.430008,-35.139999,-27.299999,1729417861443.0,0.0
-2.847459,-6.020342,8.279166,126.489998,-47.25,-49.139999,1729417861461.0,0.0
-3.725625,-2.713461,10.954341,147.490005,-30.870001,-40.040001,1729417861482.0,0.0
-4.237689,-0.964308,10.29153,109.480003,-40.880001,-44.029999,1729417861502.0,0.0
-3.761517,-0.78006,8.145168,112.980003,-60.760002,-32.549999,1729417861522.0,0.0
-2.947958,1.304088,6.707082,138.110001,-67.900002,-6.44,1729417861542.0,0.0
-2.249253,2.244468,4.046263,92.610001,-48.09,-1.96,1729417861562.0,0.0
-2.06022,4.12044,2.053042,10.43,-7.07,-1.33,1729417861586.0,0.0
-2.548356,2.26361,3.184847,-74.340004,32.41,-4.41,1729417861602.0,0.0
-4.146761,-2.526821,5.474778,-108.43,70.0,-10.01,1729417861631.0,0.0
-5.9677,-2.519642,7.360322,-73.989998,93.870003,16.309999,1729417861645.0,0.0
-4.778467,-2.517249,9.303294,-63.349998,58.59,21.07,1729417861661.0,0.0
-3.148954,-3.35713,8.126025,-92.400002,17.780001,26.040001,1729417861683.0,0.0
-3.110669,-1.940579,8.563912,-92.75,20.09,41.299999,1729417861701.0,0.0
-3.570091,-1.548156,8.13799,-120.050003,30.66,41.16,1729417861721.0,0.0
-4.67079,-2.112862,8.819944,-158.410004,28.280001,44.099998,1729417861743.0,0.0
-5.891129,-3.333202,10.272388,-216.020004,20.16,38.009998,1729417861761.0,0.0
-5.95095,-8.640482,5.216353,-327.25,-3.01,2.87,1729417861782.0,0.0
-4.661219,-17.642281,1.753939,-333.200012,-12.18,-20.860001,1729417861801.0,0.0
-4.201797,-13.040883,4.723432,-110.809998,-17.43,-5.6,1729417861821.0,0.0
-4.723432,-7.171289,7.913064,32.41,-25.620001,20.02,1729417861843.0,0.0
-3.95055,-6.491727,6.814759,45.639999,-12.53,-4.06,1729417861862.0,0.0
-4.292724,-6.422336,6.563512,49.98,-0.49,0.63,1729417861882.0,0.0
-4.893322,-5.958128,6.963113,53.549999,7.0,-3.78,1729417861901.0,0.0
-5.146961,-7.240681,7.070791,52.849998,4.69,-14.84,1729417861922.0,0.0
-5.398208,-9.724431,7.563712,80.43,-1.96,-20.370001,1729417861945.0,0.0
-4.701896,-8.673983,6.678369,152.740005,-3.85,-18.200001,1729417861963.0,0.0
-4.024727,-6.259624,5.649454,223.020004,-16.030001,-6.72,1729417861984.0,0.0
-3.395415,-4.065405,3.156133,234.080002,-18.34,-16.1,1729417862002.0,0.0
-3.605984,-2.711068,7.625926,178.289993,-16.799999,-35.84,1729417862021.0,0.0
-4.252046,-2.435893,8.219346,149.869995,-3.36,-37.029999,1729417862046.0,0.0
-4.838287,-3.010171,9.128618,147.350006,-11.62,-39.970001,1729417862062.0,0.0
-4.130012,-1.718047,10.222138,128.449997,-42.630001,-39.900002,1729417862085.0,0.0
-2.440679,-1.847259,9.602397,77.910004,-67.760002,-48.650002,1729417862102.0,0.0
-1.643869,-0.162712,9.052048,36.189999,-64.260002,-45.150002,1729417862121.0,0.0
-2.199004,0.70349,8.877372,11.97,-44.170002,-33.040001,1729417862143.0,0.0
-3.261417,1.550549,7.066005,-2.1,-19.809999,-18.129999,1729417862167.0,0.0
-3.486342,2.376073,4.680361,-20.299999,-8.4,-3.85,1729417862185.0,0.0
-2.677568,3.65384,4.051049,-53.900002,0.28,3.99,1729417862202.0,0.0
-2.349752,2.038685,5.12782,-112.0,16.309999,6.79,1729417862223.0,0.0
-3.086741,-1.356731,5.769095,-158.759995,45.150002,10.92,1729417862242.0,0.0
-4.287938,-3.876373,6.142376,-153.580002,70.07,29.540001,1729417862262.0,0.0
-4.65404,-3.766303,6.738188,-145.389999,67.970001,35.139999,1729417862284.0,0.0
-4.192225,-3.455236,6.74776,-173.039993,50.119999,34.299999,1729417862301.0,0.0
-3.266203,-3.096312,5.680561,-236.669998,31.85,25.27,1729417862322.0,0.0
-3.876373,-5.146961,8.097312,-232.399994,16.73,45.990002,1729417862342.0,0.0
-5.931807,-7.812566,7.21436,-319.130005,10.43,36.82,1729417862363.0,0.0
-6.613762,-12.574283,5.45085,-385.48999,-10.85,17.219999,1729417862384.0,0.0
-4.852644,-17.233109,0.48335,-322.209991,-36.119999,-10.22,1729417862402.0,0.0
-2.976671,-20.973089,2.464607,-41.580002,-29.540001,-12.11,1729417862422.0,0.0
-4.175476,-10.537991,6.656832,209.160004,-13.58,21.07,1729417862444.0,0.0
-4.436293,-5.304887,7.408179,266.559998,-18.200001,17.92,1729417862462.0,0.0
-3.998406,-5.541777,6.491727,191.309998,-14.49,-1.33,1729417862482.0,0.0
-3.969693,-5.682954,4.658825,130.899994,-2.24,-13.58,1729417862502.0,0.0
-4.701896,-5.596812,6.034698,129.149994,3.78,-17.5,1729417862522.0,0.0
-4.163511,-9.10469,5.216353,118.650002,-0.42,-32.41,1729417862542.0,0.0
-4.259224,-7.221539,6.013163,178.710007,7.77,-18.129999,1729417862562.0,0.0
-4.218546,-2.660819,7.073184,216.229996,0.42,-3.22,1729417862582.0,0.0
-3.787838,-2.488536,6.929615,155.539993,-14.21,-15.75,1729417862601.0,0.0
-3.194418,-5.414958,7.436893,87.639999,-9.03,-32.34,1729417862630.0,0.0
-3.393023,-4.776074,6.262017,66.010002,-1.82,-31.780001,1729417862644.0,0.0
-3.460021,-3.859623,6.73101,51.380001,4.34,-28.84,1729417862661.0,0.0
-3.431308,-4.022335,7.666604,8.61,2.45,-42.560001,1729417862685.0,0.0
-3.656233,-2.388037,11.25823,-31.57,-8.33,-50.75,1729417862701.0,0.0
-3.979264,-2.423929,11.064411,-70.139999,-16.450001,-42.84,1729417862721.0,0.0
-3.629912,-3.931407,7.91785,-48.299999,-22.049999,-25.9,1729417862742.0,0.0
-3.031706,-2.306681,6.515656,34.23,-25.969999,-1.26,1729417862762.0,0.0
-2.562713,0.20339,5.718846,43.470001,-18.9,10.99,1729417862784.0,0.0
-2.553142,-1.952543,5.192425,-10.36,1.12,4.27,1729417862802.0,0.0
-3.448057,-3.565305,5.656632,-23.52,33.389999,8.68,1729417862822.0,0.0
-4.752146,-3.735196,7.326823,-11.27,46.060001,19.879999,1729417862842.0,0.0
-4.639683,-3.342773,7.21436,-11.48,36.259998,23.73,1729417862862.0,0.0
-3.61077,-2.538785,8.013563,-41.790001,10.57,21.139999,1729417862885.0,0.0
-3.639483,-3.007778,8.853443,-113.050003,5.53,16.66,1729417862902.0,0.0
-5.359922,-3.201597,10.516455,-151.550003,8.26,25.76,1729417862921.0,0.0
-6.12084,-5.623133,9.647861,-176.889999,-23.870001,27.23,1729417862951.0,0.0
-4.199404,-8.085347,7.173682,-216.300003,-64.330002,17.5,1729417862963.0,0.0
-2.09372,-12.646068,4.4674,-230.160004,-82.809998,8.82,1729417862984.0,0.0
-1.445265,-13.957335,0.892523,-159.460007,-46.34,-7.28,1729417863002.0,0.0
-3.182454,-5.618347,6.453443,-21.98,-1.68,-0.14,1729417863021.0,0.0
-4.024727,-3.716053,7.690532,0.35,-12.74,9.59,1729417863042.0,0.0
-3.773481,-4.828716,6.60419,-78.889999,-4.83,-7.49,1729417863062.0,0.0
-3.605984,-7.293324,5.178068,-152.880005,-6.72,-10.85,1729417863087.0,0.0
-3.649055,-8.382057,4.110869,-174.160004,-4.13,-8.4,1729417863104.0,0.0
-3.795017,-8.85105,3.694518,-180.740005,0.98,-10.43,1729417863122.0,0.0
-3.601198,-9.442079,3.445665,-188.860001,-4.27,-16.379999,1729417863141.0,0.0
-3.52702,-9.939785,3.244668,-168.770004,-6.93,-15.68,1729417863161.0,0.0
-4.048656,-10.260423,3.014957,-119.489998,-0.07,-12.88,1729417863190.0,0.0
-4.603791,-9.399008,1.895115,-65.449997,15.89,-12.53,1729417863297.0,0.0
-5.070391,-9.576077,1.447658,-22.82,13.440001,-10.85,1729417863302.0,0.0
-4.201797,-9.300901,1.397408,-19.32,12.6,-37.66,1729417863304.0,0.0
-2.74696,-10.612168,1.868794,-8.4,14.21,-49.07,1729417863309.0,0.0
-2.014757,-10.537991,3.04367,27.02,21.700001,-50.189999,1729417863309.0,0.0
-1.70369,-8.810372,4.130012,8.96,38.709999,-64.82,1729417863309.0,0.0
-0.981057,-9.504292,1.51705,-1.26,55.650002,-71.75,1729417863321.0,0.0
0.748954,-12.894921,-0.397209,-15.26,25.620001,-90.93,1729417863340.0,0.0
1.426122,-4.498507,4.228118,220.5,-49.91,46.34,1729417863383.0,0.0
1.318445,-3.735196,6.407979,273.559998,27.58,37.939999,1729417863396.0,0.0
0.150748,-1.512264,4.307081,133.279999,63.209999,6.44,1729417863439.0,0.0
-1.864009,-0.696311,3.165704,-6.44,94.360001,23.73,1729417863450.0,0.0
-3.426522,-2.122434,2.665605,-128.029999,95.480003,20.370001,1729417863451.0,0.0
-5.388636,-5.678168,3.625126,-240.589996,49.84,37.099998,1729417863460.0,0.0
-4.218546,-11.667403,2.87378,-150.220001,-3.01,38.920002,1729417863482.0,0.0
-4.266403,-13.07199,2.342573,-57.889999,29.75,23.17,1729417863500.0,0.0
-7.470392,-12.605389,4.39083,-38.009998,58.59,40.880001,1729417863520.0,0.0
-8.623734,-11.552547,3.536592,-17.5,28.49,29.469999,1729417863541.0,0.0
-7.190433,-13.174881,3.158526,59.43,-13.37,19.25,1729417863560.0,0.0
-4.292724,-12.268002,2.148755,96.529999,-33.810001,19.32,1729417863581.0,0.0
-2.285146,-9.016156,1.299303,100.519997,-23.309999,25.48,1729417863600.0,0.0
-1.904687,-6.142376,1.272982,95.550003,-6.3,23.379999,1729417863623.0,0.0
-3.098706,-6.539584,2.510071,69.090004,5.67,15.47,1729417863647.0,0.0
-4.414758,-8.946764,4.252046,43.82,2.1,6.72,1729417863667.0,0.0
-4.642076,-9.501899,5.716454,84.209999,-12.67,7.7,1729417863682.0,0.0
-4.019942,-6.080163,5.900701,79.730003,-23.73,16.73,1729417863700.0,0.0
-3.309274,-8.078169,5.606383,4.9,-26.18,-4.2,1729417863720.0,0.0
-3.024528,-11.155338,3.617948,-2.17,-11.34,-10.85,1729417863741.0,0.0
-3.835695,-9.29133,5.010571,82.040001,1.61,-3.57,1729417863762.0,0.0
-3.342773,-5.556134,5.929415,118.790001,-16.66,20.09,1729417863783.0,0.0
-2.055435,-5.663811,5.493921,76.230003,-25.129999,9.8,1729417863801.0,0.0
-3.067599,-6.376873,5.412565,34.509998,-0.35,-1.4,1729417863821.0,0.0
-3.816552,-7.305287,6.644868,24.5,-3.22,-4.27,1729417863843.0,0.0
-2.495714,-9.576077,6.080163,22.82,-26.32,-6.72,1729417863861.0,0.0
-3.371487,-7.580462,6.228518,59.5,-21.629999,-0.07,1729417863882.0,0.0
-4.165904,-5.587241,6.116055,64.260002,-19.879999,6.3,1729417863903.0,0.0
-3.644269,-4.835894,5.276174,39.34,-26.530001,4.9,1729417863922.0,0.0
-4.326223,-5.005785,5.017749,1.89,-13.93,1.75,1729417863944.0,0.0
-5.572884,-5.525027,4.754539,-53.27,5.95,-11.76,1729417863963.0,0.0
-5.948557,-6.74776,4.61097,-85.959999,12.81,-18.76,1729417863981.0,0.0
-5.441278,-6.862615,4.922036,-93.590004,9.87,-19.18,1729417864001.0,0.0
-3.443272,-6.096912,3.625126,-84.840004,5.18,-8.12,1729417864022.0,0.0
-2.782853,-7.106683,4.402793,-23.73,13.51,6.37,1729417864041.0,0.0
-3.113062,-6.623333,5.051248,-20.02,32.549999,3.36,1729417864062.0,0.0
-3.4672,-7.082755,3.448057,-69.790001,50.540001,-2.1,1729417864083.0,0.0
-4.4339,-10.968699,3.156133,-123.410004,41.23,-21.07,1729417864101.0,0.0
-4.953143,-10.767702,4.192225,-27.860001,14.98,1.47,1729417864121.0,0.0
-4.182654,-6.788438,7.097112,75.25,-8.75,26.950001,1729417864141.0,0.0
-2.476572,-7.501499,7.831708,41.650002,-36.470001,8.89,1729417864162.0,0.0
-1.710868,-9.619147,5.589634,-12.11,-13.440001,-7.91,1729417864183.0,0.0
-2.964707,-8.657232,3.89073,-14.0,16.309999,-10.01,1729417864201.0,0.0
-4.567898,-7.135397,3.699304,0.84,21.49,0.42,1729417864221.0,0.0
-4.644469,-6.898508,4.74736,6.02,1.54,1.33,1729417864242.0,0.0
-3.421736,-7.846066,4.943572,-7.42,-12.04,-1.12,1729417864263.0,0.0
-2.998207,-8.848659,4.87418,-13.93,-5.11,-8.4,1729417864282.0,0.0
-3.778267,-8.666803,4.67079,0.84,8.05,-2.45,1729417864301.0,0.0
-4.163511,-8.015956,4.328616,33.529999,5.25,0.77,1729417864321.0,0.0
-4.326223,-7.678568,4.776074,59.639999,0.21,2.38,1729417864342.0,0.0
-3.907479,-8.102098,4.728218,61.110001,-1.12,-6.44,1729417864361.0,0.0
-3.656233,-5.54417,5.374279,16.66,1.33,-2.52,1729417864392.0,0.0
-3.404987,-6.745367,5.613562,-26.67,-10.29,-3.71,1729417864400.0,0.0
-2.854637,-10.650455,5.659025,-6.23,-14.42,-19.6,1729417864420.0,0.0
-3.534199,-9.387043,6.008378,114.169998,-2.17,5.11,1729417864442.0,0.0
-4.091727,-4.859823,6.396015,161.279999,-4.62,23.450001,1729417864460.0,0.0
-3.452843,-3.926622,5.541777,68.599998,-15.4,9.8,1729417864482.0,0.0
-3.022135,-7.372287,5.065606,-18.76,-11.9,-16.17,1729417864501.0,0.0
-3.921836,-10.035499,4.603791,0.21,4.13,-12.81,1729417864520.0,0.0
-3.964907,-9.549755,5.668597,77.279999,-6.51,-4.69,1729417864541.0,0.0
-3.570091,-6.125626,6.9009,101.779999,-28.559999,6.09,1729417864562.0,0.0
-3.04367,-5.123034,6.750153,76.720001,-35.349998,5.74,1729417864581.0,0.0
-3.031706,-5.185246,6.192625,51.799999,-24.85,-5.53,1729417864600.0,0.0
-4.031906,-4.783253,5.74756,34.509998,-10.85,-3.85,1729417864621.0,0.0
-4.797609,-3.141776,4.852644,14.14,-5.25,3.99,1729417864641.0,0.0
-5.474778,-0.775275,5.008178,-9.03,9.24,16.66,1729417864660.0,0.0
-5.405386,-2.237289,5.613562,-79.309998,10.78,6.51,1729417864682.0,0.0
-3.505485,-8.207381,3.795017,-153.229996,19.32,-14.84,1729417864700.0,0.0
-3.158526,-9.449257,4.39083,-109.129997,19.879999,4.34,1729417864720.0,0.0
-3.397808,-6.771688,5.508278,-44.59,22.469999,23.450001,1729417864742.0,0.0
-2.565106,-6.941578,5.041678,-49.700001,34.860001,13.65,1729417864762.0,0.0
-3.091527,-8.286345,6.013163,-81.760002,40.670002,-1.61,1729417864782.0,0.0
-4.197011,-7.164111,6.209375,-93.800003,40.810001,2.03,1729417864801.0,0.0
-5.264209,-7.058826,5.721239,-89.25,36.330002,6.65,1729417864820.0,0.0
-4.307081,-9.422935,7.802995,-113.75,3.22,-0.77,1729417864841.0,0.0
-1.998007,-10.774881,5.551349,-129.220001,-12.53,-26.67,1729417864861.0,0.0
-3.974478,-7.649854,3.349952,-96.110001,41.650002,-2.31,1729417864881.0,0.0
-5.632704,-7.092326,2.790031,-78.050003,47.810001,-11.06,1729417864900.0,0.0
-5.166104,-10.006784,1.90708,-86.449997,22.4,-24.360001,1729417864920.0,0.0
-2.964707,-13.122239,-0.550349,-75.25,-6.3,-28.84,1729417864945.0,0.0
-2.538785,-14.581861,0.37328,9.17,-6.93,-12.39,1729417864960.0,0.0
-3.952943,-7.379465,3.948158,118.860001,-7.07,29.4,1729417864988.0,0.0
-5.185246,-3.184847,6.465407,143.990005,-31.08,40.529999,1729417865004.0,0.0
-4.656433,-4.977071,6.108876,59.360001,-39.41,-3.5,1729417865021.0,0.0
-4.182654,-13.545769,5.572884,54.810001,-38.43,-14.14,1729417865042.0,0.0
-3.795017,-9.913465,6.616155,174.440002,-44.869999,11.13,1729417865060.0,0.0
-3.333202,-5.000999,7.568498,188.789993,-57.260002,27.23,1729417865081.0,0.0
-1.631905,-5.319244,5.091926,94.010002,-52.150002,10.78,1729417865100.0,0.0
-2.732604,-8.061419,3.48395,55.650002,-18.41,10.78,1729417865120.0,0.0
-4.529613,-7.465607,3.821337,93.660004,-2.52,-1.12,1729417865140.0,0.0
-4.182654,-4.622933,4.845466,121.730003,-19.950001,13.58,1729417865162.0,0.0
-3.39063,-3.61077,6.63769,111.790001,-28.07,16.799999,1729417865181.0,0.0
-4.058227,-3.5007,6.546762,87.989998,1.82,10.5,1729417865201.0,0.0
-5.510671,-3.897908,6.147161,61.810001,26.809999,11.62,1729417865220.0,0.0
-5.328816,-5.099105,6.056234,20.719999,17.5,4.76,1729417865241.0,0.0
-4.23051,-6.151947,6.477371,-11.13,5.74,8.75,1729417865261.0,0.0
-3.708875,-4.326223,6.422336,-43.540001,11.13,7.35,1729417865281.0,0.0
-4.957928,-5.319244,7.336394,-93.449997,31.15,0.91,1729417865300.0,0.0
-4.618148,-6.963113,6.30748,-103.669998,31.5,-13.23,1729417865320.0,0.0
-2.325824,-5.65424,2.758924,-81.199997,40.110001,-5.39,1729417865341.0,0.0
-3.598805,-6.235696,5.809773,-56.560001,54.950001,-3.64,1729417865361.0,0.0
-5.383851,-9.030513,8.181061,-54.32,48.299999,-12.74,1729417865381.0,0.0
-5.74756,-9.255438,8.726624,-43.540001,28.35,-18.34,1729417865400.0,0.0
-5.134997,-6.424729,7.238289,-79.239998,2.87,-14.35,1729417865420.0,0.0
-3.206382,-7.077969,2.792424,-134.259995,-10.85,-36.82,1729417865512.0,0.0
-2.821138,-9.812965,2.244468,-133.979996,10.36,-46.970001,1729417865517.0,0.0
-5.211568,-9.432507,3.299703,-96.599998,26.530001,-28.700001,1729417865520.0,0.0
-5.312066,-7.673782,1.402194,-33.670002,33.599998,-15.89,1729417865526.0,0.0
-3.917051,-9.559326,1.301696,-28.49,-5.46,-14.0,1729417865528.0,0.0
-2.56032,-11.009377,3.737589,20.65,-35.420002,-3.29,1729417865541.0,0.0
-3.058028,-7.04447,7.159326,119.209999,-22.190001,25.41,1729417865561.0,0.0
-5.082355,-2.282753,9.853643,122.080002,-21.210001,31.92,1729417865581.0,0.0
-5.302495,-3.400201,7.360322,63.91,-16.52,13.51,1729417865600.0,0.0
-3.462414,-9.585647,4.034299,-5.6,-9.94,-18.34,1729417865620.0,0.0
-2.988636,-10.234102,4.371687,12.53,-29.889999,-7.21,1729417865641.0,0.0
-3.61077,-5.443672,6.262017,57.470001,-35.279999,26.74,1729417865660.0,0.0
-2.811567,-7.573284,5.608776,8.68,-34.16,6.72,1729417865691.0,0.0
-3.790231,-9.702895,3.799802,47.529999,-3.22,-3.01,1729417865705.0,0.0
-4.888536,-5.783452,5.831308,168.699997,-2.59,20.299999,1729417865721.0,0.0
-4.211368,-4.76411,6.305088,127.050003,-18.549999,18.27,1729417865741.0,0.0
-4.304688,-4.35733,5.319244,93.449997,5.04,6.65,1729417865760.0,0.0
-4.821537,-4.95075,4.606184,67.830002,21.42,-1.61,1729417865781.0,0.0
-4.749753,-6.209375,5.111069,64.330002,24.710001,-4.76,1729417865800.0,0.0
-5.410172,-4.831109,6.369694,47.950001,20.09,4.83,1729417865820.0,0.0
-5.395815,-3.672983,7.838887,4.55,13.37,2.38,1729417865840.0,0.0
-4.496114,-4.910072,7.613962,-64.75,1.19,-3.99,1729417865861.0,0.0
-3.59402,-6.640083,6.771688,-91.840004,3.43,-10.08,1729417865882.0,0.0
-4.500899,-4.922036,6.664011,-77.349998,12.74,-1.05,1729417865900.0,0.0
-5.343173,-4.584648,6.130411,-85.120003,10.85,-4.83,1729417865920.0,0.0
-4.500899,-8.054241,3.625126,-81.760002,27.16,-15.47,1729417865944.0,0.0
-2.663212,-7.649854,4.62054,-28.77,27.02,-11.41,1729417865960.0,0.0
-2.56032,-4.833502,6.898508,-19.950001,4.13,16.17,1729417865981.0,0.0
-2.782853,-7.640282,7.077969,-51.380001,17.710001,-2.66,1729417866000.0,0.0
-4.503292,-9.128618,6.099305,-63.0,45.709999,-21.139999,1729417866020.0,0.0
-6.211767,-6.429514,6.300302,-41.720001,33.040001,-5.88,1729417866041.0,0.0
-5.613562,-7.058826,5.742774,-64.470001,-1.89,-22.190001,1729417866060.0,0.0
-5.087141,-7.858029,4.718646,-76.300003,1.75,-26.389999,1729417866080.0,0.0
-3.866802,-9.480364,3.165704,-62.860001,0.42,-25.690001,1729417866100.0,0.0
-2.9671,-10.07139,2.600998,-27.16,-9.8,-15.26,1729417866120.0,0.0
-3.211168,-7.786245,4.0008,46.060001,-15.05,1.89,1729417866139.0,0.0
-4.505685,-6.479764,6.345766,87.5,-14.14,3.15,1729417866160.0,0.0
-5.749953,-5.65424,8.023134,86.590004,-13.16,6.37,1729417866180.0,0.0
-5.860023,-4.981857,7.601997,67.970001,-14.84,5.11,1729417866200.0,0.0
-4.541577,-5.568098,6.290731,39.41,-34.720001,-1.4,1729417866219.0,0.0
-3.273381,-7.133004,6.005985,9.45,-49.0,-0.63,1729417866241.0,0.0
-2.17029,-9.320045,5.922236,1.54,-47.529999,-6.93,1729417866260.0,0.0
-1.825724,-9.178867,5.704489,29.960001,-40.459999,-1.89,1729417866280.0,0.0
-2.019542,-7.972885,5.089533,78.190002,-26.6,8.82,1729417866301.0,0.0
-3.534199,-5.627919,5.056034,150.220001,-4.55,14.91,1729417866319.0,0.0
-5.178068,-2.737389,5.883951,194.949997,8.82,23.1,1729417866340.0,0.0
-5.261817,-1.89033,4.979464,148.470001,9.24,17.57,1729417866360.0,0.0
-5.362316,-4.228118,4.912465,73.5,18.059999,1.89,1729417866380.0,0.0
-5.388636,-5.120641,5.838487,13.16,27.370001,-4.48,1729417866399.0,0.0
-5.491528,-3.962514,7.712067,-15.96,20.719999,0.98,1729417866420.0,0.0
-4.759324,-4.259224,7.649854,-78.120003,12.88,-2.1,1729417866440.0,0.0
-4.101298,-7.432107,7.082755,-131.25,11.62,-19.460001,1729417866460.0,0.0
-5.029713,-7.391429,6.565905,-104.300003,21.0,-13.58,1729417866481.0,0.0
-5.881558,-5.13739,5.757132,-56.0,16.799999,0.21,1729417866499.0,0.0
-4.888536,-5.206782,4.520042,-47.599998,10.29,-6.58,1729417866519.0,0.0
-2.48375,-5.958128,3.462414,-45.360001,7.35,-12.39,1729417866541.0,0.0
-1.942972,-4.713861,4.74736,-59.220001,22.82,-4.9,1729417866560.0,0.0
-3.156133,-6.116055,5.015356,-99.889999,43.959999,-10.01,1729417866581.0,0.0
-4.156333,-9.135797,6.02752,-143.149994,63.07,-41.650002,1729417866600.0,0.0
-5.309673,-11.315658,6.221339,-131.949997,41.23,-32.34,1729417866619.0,0.0
-5.338387,-9.394222,7.408179,-47.950001,6.93,-15.190001,1729417866640.0,0.0
-5.941379,-6.733403,7.573284,-15.05,-6.65,-4.69,1729417866660.0,0.0
-5.819345,-7.329216,5.06082,-36.259998,-6.51,-16.17,1729417866690.0,0.0
-3.57727,-9.312866,3.996014,-50.68,-21.49,-25.059999,1729417866699.0,0.0
-1.385444,-8.989835,4.326223,49.279999,-39.900002,8.26,1729417866719.0,0.0
-3.57727,-7.345965,7.23111,128.520004,-10.57,12.53,1729417866740.0,0.0
-5.635098,-5.960521,8.11167,144.830002,8.4,15.47,1729417866760.0,0.0
-5.54417,-7.058826,7.582855,128.729996,-17.08,14.91,1729417866780.0,0.0
-4.232903,-7.200003,7.278966,136.850006,-47.740002,12.04,1729417866799.0,0.0
-3.969693,-4.512863,8.41795,140.490005,-63.560001,20.299999,1729417866819.0,0.0
-2.498107,-6.348158,6.685547,79.169998,-61.950001,10.29,1729417866840.0,0.0
-1.11027,-9.233903,4.118048,79.940002,-42.98,-11.97,1729417866860.0,0.0
-2.612962,-5.998806,4.759324,140.839996,-10.36,7.28,1729417866880.0,0.0
-4.476971,-3.309274,5.594419,148.050003,10.64,5.32,1729417866901.0,0.0
-6.235696,-0.993021,6.45105,122.779999,19.110001,6.09,1729417866919.0,0.0
-6.872187,-0.117248,6.407979,56.560001,11.2,8.12,1729417866943.0,0.0
-6.290731,-1.45005,5.414958,-35.0,5.67,-7.07,1729417866960.0,0.0
-4.807181,-3.436093,5.781059,-90.860001,-4.41,-13.440001,1729417866982.0,0.0
-3.701697,-4.175476,7.13779,-104.370003,-4.97,-7.35,1729417866999.0,0.0
-3.448057,-5.493921,7.769495,-122.360001,3.64,-1.05,1729417867026.0,0.0
-4.225725,-8.465806,6.678369,-123.760002,17.290001,-9.66,1729417867039.0,0.0
-5.146961,-8.135597,6.13759,-38.080002,11.48,-0.84,1729417867059.0,0.0
-3.811767,-4.524827,4.582255,30.66,-9.1,24.219999,1729417867083.0,0.0
-1.87358,-3.278167,4.596612,13.23,2.66,18.620001,1729417867099.0,0.0
-1.643869,-3.323631,6.750153,-87.919998,13.86,0.42,1729417867119.0,0.0
-2.519642,-6.716653,7.099504,-176.610001,32.619999,-28.630001,1729417867140.0,0.0
-4.421937,-10.018748,6.211767,-160.649994,56.209999,-34.790001,1729417867159.0,0.0
-5.589634,-9.10469,6.58744,-54.529999,24.99,-11.34,1729417867180.0,0.0
-4.867002,-6.259624,7.336394,-22.33,-8.19,-0.98,1729417867199.0,0.0
-4.409972,-7.06122,6.762117,-79.870003,-10.43,-23.379999,1729417867219.0,0.0
-4.627719,-9.047262,5.099105,-104.019997,8.82,-37.59,1729417867239.0,0.0
-4.141976,-10.619347,4.041477,-53.27,5.04,-28.0,1729417867260.0,0.0
-3.091527,-11.34198,3.632305,17.5,-20.860001,-16.940001,1729417867280.0,0.0
-2.433501,-7.77428,4.381258,104.860001,-30.66,0.77,1729417867301.0,0.0
-3.029313,-5.62074,6.374479,177.729996,-24.290001,12.67,1729417867319.0,0.0
-4.838287,-4.486543,8.001599,203.490005,2.73,11.48,1729417867339.0,0.0
-5.982057,-2.24686,8.556733,155.75,-7.56,15.82,1729417867359.0,0.0
-2.79721,-6.319445,6.369694,59.43,-43.189999,2.52,1729417867380.0,0.0
-1.65344,-9.698111,5.773881,6.79,-45.080002,-15.47,1729417867400.0,0.0
-1.818545,-7.415358,6.221339,67.129997,-31.15,0.7,1729417867419.0,0.0
-2.751746,-4.441079,7.503892,103.599998,-19.18,10.22,1729417867440.0,0.0
-3.957729,-2.885744,6.494121,107.099998,2.31,11.9,1729417867459.0,0.0
-5.201996,-2.957529,5.998806,129.430008,17.290001,11.48,1729417867480.0,0.0
-5.941379,-1.158126,6.534799,115.709999,12.11,9.73,1729417867500.0,0.0
-5.304887,-2.301895,6.599405,43.82,4.55,5.04,1729417867519.0,0.0
-4.943572,-3.59402,9.092726,-7.56,5.53,-3.08,1729417867540.0,0.0
-4.285545,-3.668197,8.764909,-26.74,7.56,-1.26,1729417867560.0,0.0
-3.582055,-5.271388,8.446664,-29.33,-2.24,-1.61,1729417867590.0,0.0
-3.285345,-5.065606,7.463214,-38.009998,-6.79,-0.35,1729417867600.0,0.0
-3.35713,-4.187439,7.267002,-55.720001,-1.82,-0.07,1729417867619.0,0.0
-3.799802,-3.589234,7.54457,-85.959999,8.05,-5.74,1729417867639.0,0.0
-4.362115,-4.74736,8.331808,-109.550003,15.05,-7.0,1729417867659.0,0.0
-3.26381,-7.075576,7.56132,-86.029999,33.110001,-14.49,1729417867680.0,0.0
-1.710868,-6.108876,6.252446,-72.800003,23.24,-5.46,1729417867698.0,0.0
-1.995614,-6.345766,8.46102,-73.639999,4.27,14.84,1729417867719.0,0.0
-2.828316,-10.145569,6.690332,-79.590004,30.940001,-31.15,1729417867745.0,0.0
-4.108476,-9.657433,5.106283,-25.620001,59.220001,-24.639999,1729417867759.0,0.0
-5.45085,-6.13759,6.553941,30.309999,23.940001,-5.32,1729417867780.0,0.0
-5.426922,-3.259024,5.448457,9.8,-2.87,-10.22,1729417867799.0,0.0
-4.733003,-5.608776,4.31426,-9.66,-15.12,-21.0,1729417867819.0,0.0
-2.600998,-7.975278,4.149154,-21.98,-32.900002,-22.889999,1729417867839.0,0.0
-2.081756,-7.836494,4.74736,22.049999,-30.309999,0.98,1729417867859.0,0.0
-3.443272,-4.175476,6.793223,59.290001,3.22,10.15,1729417867881.0,0.0
-6.431907,-2.124826,9.389436,58.799999,16.73,14.98,1729417867898.0,0.0
-6.329016,-4.677969,8.504091,-7.84,-19.950001,-5.95,1729417867919.0,0.0
-2.938386,-6.800402,5.429315,-89.879997,-65.309998,-22.120001,1729417867943.0,0.0
-1.150948,-8.85105,5.381458,-80.360001,-73.57,-17.219999,1729417867959.0,0.0
-0.172283,-10.82513,4.661219,-42.0,-53.48,-17.710001,1729417867980.0,0.0
-1.619941,-8.092526,6.216553,79.379997,-15.54,-1.68,1729417867999.0,0.0
-4.622933,-1.160519,7.02772,138.740005,-0.28,27.16,1729417868018.0,0.0
-5.233103,-0.993021,7.549356,95.970001,-17.5,10.71,1729417868040.0,0.0
-3.704089,-5.096712,5.084748,-3.71,-24.08,-16.030001,1729417868059.0,0.0
