acc_x,acc_y,acc_z,gyr_x,gyr_y,gyr_z,timestamp,label
-1.878366,-6.89133,-4.510471,-104.230003,-15.68,-42.84,1729429772121.0,0.0
-2.522035,-7.204789,-4.924429,-90.510002,-21.35,-31.85,1729429772121.0,0.0
-2.675175,-6.319445,-5.268995,-103.599998,-21.700001,-24.290001,1729429772121.0,0.0
-2.790031,-7.204789,-5.960521,-116.830002,-25.059999,-9.45,1729429772122.0,0.0
-3.105884,-7.79103,-5.757132,-104.860001,-15.54,-0.07,1729429772129.0,0.0
-2.524428,-7.372287,-6.039484,-70.489998,-20.16,1.4,1729429772142.0,0.0
-2.091327,-7.357929,-6.18784,-39.900002,-24.780001,6.09,1729429772162.0,0.0
-2.438286,-7.585248,-6.252446,-40.880001,-16.73,4.9,1729429772182.0,0.0
-2.292324,-7.372287,-6.673582,-46.759998,-11.97,-0.21,1729429772202.0,0.0
-1.488336,-7.051648,-6.888937,-48.720001,-10.85,-1.82,1729429772223.0,0.0
-1.081556,-7.334002,-7.259824,-39.970001,-8.12,-1.4,1729429772242.0,0.0
-0.921237,-7.362715,-7.300502,-17.290001,-7.7,-3.29,1729429772261.0,0.0
-0.674776,-7.075576,-7.159326,-2.73,-7.21,-5.32,1729429772282.0,0.0
-0.260818,-7.087541,-7.255038,0.77,-13.65,-4.2,1729429772301.0,0.0
-0.691526,-6.922436,-7.255038,-17.85,-10.36,-7.56,1729429772323.0,0.0
-0.323031,-7.022934,-7.836494,-39.27,-12.6,-9.38,1729429772342.0,0.0
0.157926,-7.537392,-8.260024,-28.42,-15.05,-5.25,1729429772361.0,0.0
-0.698704,-7.130611,-7.84128,-6.44,-2.87,-4.27,1729429772382.0,0.0
-0.811167,-6.664011,-7.956135,9.66,-0.42,-1.68,1729429772402.0,0.0
-0.117248,-6.84108,-8.161918,4.34,0.63,0.07,1729429772424.0,0.0
-0.870987,-8.054241,-6.297909,0.07,8.05,0.7,1729429772442.0,0.0
-1.074377,-7.13779,-6.185446,23.450001,-0.21,-8.26,1729429772462.0,0.0
-1.198804,-6.577869,-6.568298,6.86,-5.67,-9.52,1729429772486.0,0.0
-1.22034,-6.862615,-7.539784,-11.69,-9.31,-7.07,1729429772501.0,0.0
-1.361516,-6.843473,-7.802995,-3.22,-8.89,-5.88,1729429772523.0,0.0
-2.017149,-6.695118,-7.295716,3.22,-3.71,-5.74,1729429772542.0,0.0
-2.383251,-7.077969,-7.508677,-4.76,-3.43,-5.74,1729429772561.0,0.0
-2.182254,-7.140182,-7.310073,-32.970001,-0.77,-6.51,1729429772583.0,0.0
-1.931008,-7.238289,-7.745567,-42.700001,1.61,-5.11,1729429772602.0,0.0
-1.868794,-7.444071,-7.987241,-27.299999,5.11,-4.9,1729429772623.0,0.0
-1.512264,-7.60439,-7.664211,-9.8,4.41,-8.54,1729429772642.0,0.0
-1.115055,-7.001399,-6.924829,-11.55,1.68,-10.71,1729429772661.0,0.0
-1.249053,-6.89133,-7.762317,-24.99,-2.17,-12.81,1729429772683.0,0.0
-1.701297,-6.692725,-8.106883,-26.6,1.61,-16.73,1729429772703.0,0.0
-1.371087,-5.816952,-8.099705,-8.26,-0.7,-17.15,1729429772723.0,0.0
-1.141376,-5.812167,-8.233703,0.7,-4.9,-13.72,1729429772742.0,0.0
-1.306481,-5.970093,-7.810174,-2.87,-1.54,-15.190001,1729429772762.0,0.0
-0.772882,-5.642276,-7.496714,-9.73,-1.12,-16.309999,1729429772783.0,0.0
0.0335,-5.881558,-7.590034,-9.66,-4.69,-9.94,1729429772803.0,0.0
-0.181855,-6.190232,-8.338986,-4.2,-3.71,-7.63,1729429772823.0,0.0
-0.9667,-6.549156,-7.649854,-5.11,2.73,-7.56,1729429772842.0,0.0
-1.828116,-6.326623,-7.89153,4.76,2.8,-9.45,1729429772863.0,0.0
-2.210968,-6.391229,-8.350951,15.75,2.45,-12.04,1729429772882.0,0.0
-1.464408,-5.831308,-7.980063,16.73,-8.54,-11.41,1729429772901.0,0.0
-1.282553,-5.860023,-7.322037,-9.31,-12.46,-11.06,1729429772922.0,0.0
-1.12702,-7.372287,-7.575676,-20.790001,-15.26,-11.9,1729429772942.0,0.0
-1.596013,-7.838887,-1.469193,-22.120001,-24.85,-10.99,1729429772961.0,0.0
-2.706282,-5.785845,-7.848458,10.43,-65.870003,-38.709999,1729429772983.0,0.0
-3.912265,-6.465407,-11.13859,14.77,-64.68,-34.369999,1729429773002.0,0.0
-3.022135,-6.630512,-12.543176,21.77,-32.900002,-25.83,1729429773022.0,0.0
-1.234696,-3.701697,-11.473583,102.480003,-19.809999,-1.26,1729429773041.0,0.0
-0.612563,-3.062813,-10.640882,131.389999,-3.92,12.67,1729429773061.0,0.0
0.098106,-6.262017,-9.839286,118.93,13.23,25.48,1729429773082.0,0.0
0.98345,-5.513064,-7.867601,166.320007,22.75,29.190001,1729429773102.0,0.0
1.294517,-7.633104,-7.255038,128.729996,24.290001,25.34,1729429773123.0,0.0
3.079563,-10.176675,-6.084948,141.610001,21.98,21.280001,1729429773141.0,0.0
3.859623,-10.906486,-4.12044,220.710007,34.93,16.52,1729429773162.0,0.0
2.95035,-9.360723,-1.753939,279.579987,35.630001,5.74,1729429773183.0,0.0
1.473979,-9.253045,0.648455,323.890015,21.77,7.56,1729429773202.0,0.0
0.543171,-9.363115,2.115255,393.329987,-1.75,24.15,1729429773223.0,0.0
1.495514,-8.013563,2.538785,455.140015,-15.190001,33.110001,1729429773249.0,0.0
0.820738,-7.329216,4.575077,423.360016,-8.61,46.970001,1729429773262.0,0.0
-0.607777,-8.252845,5.639884,361.899994,-14.63,57.189999,1729429773284.0,0.0
-1.660619,-9.030513,6.577869,340.339996,-13.51,56.77,1729429773302.0,0.0
-2.811567,-8.542377,7.042077,285.179993,-9.45,42.0,1729429773324.0,0.0
-2.596212,-9.147761,4.864608,197.050003,-13.3,33.110001,1729429773342.0,0.0
-1.90708,-9.468399,3.431308,135.100006,-7.28,27.299999,1729429773363.0,0.0
-1.548156,-8.678767,3.20399,91.139999,0.35,17.710001,1729429773383.0,0.0
-1.251446,-7.745567,5.615955,45.360001,-1.19,21.84,1729429773402.0,0.0
-2.768496,-9.049655,5.991628,-27.370001,-19.460001,25.83,1729429773424.0,0.0
-2.261217,-9.360723,4.328616,-55.580002,-30.24,16.309999,1729429773443.0,0.0
-1.490728,-8.145168,3.395415,-93.169998,-24.219999,5.18,1729429773463.0,0.0
-1.344766,-7.750352,2.775674,-160.229996,-20.790001,0.84,1729429773486.0,0.0
-0.933201,-8.822337,3.52702,-187.600006,-17.639999,-3.57,1729429773502.0,0.0
-1.39023,-9.51147,3.448057,-171.850006,-10.5,-0.98,1729429773527.0,0.0
-1.045663,-9.078369,4.323831,-140.839996,-2.8,-0.14,1729429773544.0,0.0
-2.620141,-10.305886,4.022335,-196.979996,4.55,-8.12,1729429773562.0,0.0
-3.182454,-9.614362,0.751346,-344.890015,-1.68,-38.990002,1729429773584.0,0.0
-2.15354,-11.200804,-3.491128,-472.290009,-7.63,-56.139999,1729429773603.0,0.0
-1.105484,-11.679367,-7.118648,-468.230011,15.33,-53.130001,1729429773623.0,0.0
-0.928415,-11.344372,-5.989235,-380.799988,65.870003,-66.5,1729429773643.0,0.0
-1.931008,-9.281759,-7.410572,-294.279999,101.080002,-55.720001,1729429773662.0,0.0
-0.124427,-11.102697,-7.128219,-162.960007,91.07,-35.420002,1729429773682.0,0.0
-1.993221,-10.717452,5.529813,-74.620003,112.699997,-33.459999,1729429773704.0,0.0
-5.15414,-2.524428,1.033699,-208.110001,65.940002,-43.540001,1729429773726.0,0.0
4.034299,-8.061419,-10.612168,-63.139999,-46.549999,-34.16,1729429773745.0,0.0
1.292124,-8.353344,-5.455636,-94.010002,54.110001,-16.450001,1729429773765.0,0.0
-3.275774,-10.581062,-6.616155,-65.730003,54.599998,-5.04,1729429773784.0,0.0
-0.174676,-10.049855,-7.343572,59.220001,24.99,-9.17,1729429773804.0,0.0
2.148755,-7.534998,-5.118248,91.419998,27.58,-5.95,1729429773824.0,0.0
0.504886,-9.801002,-5.158926,44.310001,43.470001,-10.71,1729429773844.0,0.0
1.172483,-11.018949,-5.307281,143.779999,33.25,-2.31,1729429773863.0,0.0
2.234896,-12.574283,-4.989035,321.579987,20.440001,7.56,1729429773884.0,0.0
2.172683,-9.71486,-3.225525,437.149994,23.59,2.87,1729429773904.0,0.0
1.919044,-9.614362,-1.598405,496.720001,-4.76,6.79,1729429773926.0,0.0
2.538785,-5.661418,-0.847059,495.040009,-27.58,-3.78,1729429773943.0,0.0
2.277967,-6.149554,-0.51685,489.790009,-35.700001,-1.68,1729429773968.0,0.0
3.847659,-5.335995,1.641476,489.160004,-25.48,-9.24,1729429773984.0,0.0
3.866802,-3.668197,6.817152,395.290009,11.27,1.61,1729429774004.0,0.0
-0.095713,1.385444,4.912465,107.449997,43.959999,-1.68,1729429774031.0,0.0
-2.644069,-4.220939,1.098306,-358.540009,4.83,9.87,1729429774195.0,0.0
0.311067,-2.074577,0.964308,-502.110016,-14.14,2.66,1729429774197.0,0.0
1.165305,-1.591227,-5.245068,-607.320007,-12.95,35.91,1729429774197.0,0.0
1.899901,-3.89073,-10.554741,-705.179993,-70.699997,22.82,1729429774197.0,0.0
-3.565305,-20.015961,-10.478169,-673.820007,-91.419998,87.290001,1729429774197.0,0.0
-1.871187,-17.142181,-9.509077,-456.610016,-4.48,3.36,1729429774198.0,0.0
0.942772,-14.000405,-10.013963,-31.08,-7.21,4.69,1729429774198.0,0.0
-1.119841,-12.892529,-4.828716,265.369995,-73.849998,69.650002,1729429774198.0,0.0
-0.9667,-6.592227,-2.426322,379.679993,12.18,40.040001,1729429774213.0,0.0
-0.969093,-9.243474,-3.775874,415.23999,58.799999,30.450001,1729429774229.0,0.0
-1.691726,-11.540584,-3.976871,365.470001,25.969999,36.189999,1729429774243.0,0.0
-0.435494,-10.750952,-1.268196,378.279999,25.83,27.860001,1729429774264.0,0.0
0.882952,-5.338387,0.236889,517.580017,51.380001,37.380001,1729429774284.0,0.0
-2.002793,-11.679367,4.04387,612.01001,63.349998,43.540001,1729429774329.0,0.0
-4.108476,-2.639283,10.569098,423.709991,75.32,28.77,1729429774329.0,0.0
-5.867201,-8.157133,9.032906,296.23999,10.29,37.52,1729429774346.0,0.0
-7.84128,-9.537791,9.738789,141.680008,6.86,11.48,1729429774365.0,0.0
-3.608376,-9.741181,10.301102,114.239998,-25.690001,-6.72,1729429774386.0,0.0
-2.959922,-8.992228,11.102697,45.43,-30.59,-13.23,1729429774405.0,0.0
-0.629312,-5.663811,8.441878,-6.3,-47.599998,-24.85,1729429774427.0,0.0
-1.356731,-0.727418,11.198411,-27.299999,-40.18,-16.450001,1729429774446.0,0.0
0.794417,-5.793024,3.639483,-32.48,-49.209999,0.98,1729429774466.0,0.0
1.828116,-6.319445,5.812167,-66.709999,-42.209999,-1.54,1729429774489.0,0.0
-0.425922,-7.52782,6.9344,-78.82,-20.02,3.5,1729429774505.0,0.0
-1.411765,-8.829515,6.393622,-110.459999,-22.610001,-4.83,1729429774526.0,0.0
-1.208375,-8.489735,6.932007,-184.660004,-19.6,-5.53,1729429774545.0,0.0
-1.56012,-6.175875,6.795617,-311.429993,-6.79,-26.32,1729429774565.0,0.0
-1.581656,-4.07737,3.74716,-458.640015,-2.66,-39.549999,1729429774586.0,0.0
-0.318245,-4.476971,-2.397608,-597.030029,-42.139999,-35.0,1729429774606.0,0.0
-1.605584,-7.506285,-2.852244,-598.919983,-36.68,-11.34,1729429774627.0,0.0
-1.002593,-13.124631,-4.632504,-470.049988,-33.599998,-30.73,1729429774650.0,0.0
0.385244,-16.130018,-4.570292,-217.910004,-58.170002,-5.11,1729429774756.0,0.0
1.031307,-8.831908,-2.074577,-56.420002,-41.509998,-17.43,1729429774760.0,0.0
0.512064,-0.722632,-3.728018,-75.18,6.37,-23.24,1729429774761.0,0.0
0.057428,-2.711068,-5.333601,-205.729996,-13.16,8.26,1729429774762.0,0.0
-0.153141,-12.646068,-4.814359,-281.26001,-39.130001,29.610001,1729429774765.0,0.0
1.174876,-5.302495,-5.838487,-202.440002,-24.780001,2.1,1729429774768.0,0.0
-1.588834,-4.280759,-8.01117,-190.330002,-17.15,12.18,1729429774786.0,0.0
-1.416551,-9.408579,-9.473185,-211.960007,-19.67,14.98,1729429774806.0,0.0
-0.361316,-8.762517,-9.24108,-192.710007,-16.59,10.85,1729429774901.0,0.0
-1.153341,-7.398607,-9.879964,-143.919998,5.81,-2.45,1729429774912.0,0.0
-0.29671,-8.204988,-9.667004,-87.360001,4.9,4.2,1729429774913.0,0.0
0.837488,-7.405786,-7.625926,-43.330002,9.66,5.18,1729429774914.0,0.0
-0.184247,-5.828916,-8.642875,-14.7,12.88,6.72,1729429774916.0,0.0
-1.502693,-5.788238,-8.798409,-11.55,18.41,12.25,1729429774930.0,0.0
-0.617348,-8.468199,-8.214561,-28.98,18.83,9.31,1729429774946.0,0.0
-1.0002,-8.65484,-9.537791,19.67,22.82,11.48,1729429774965.0,0.0
-1.727618,-12.045469,-9.21476,56.77,35.209999,8.33,1729429774986.0,0.0
-0.375673,-11.935399,-8.992228,80.989998,41.790001,-10.78,1729429775005.0,0.0
0.382852,-8.405986,-6.525227,121.379997,47.459999,-17.57,1729429775027.0,0.0
0.198604,-4.369294,-5.460421,140.979996,46.130001,-9.24,1729429775050.0,0.0
0.210568,-6.410372,-4.73061,163.800003,20.860001,22.469999,1729429775065.0,0.0
0.059821,-7.635497,-3.536592,176.259995,-1.19,29.049999,1729429775085.0,0.0
-1.469193,-7.860423,-4.615755,122.709999,-1.61,11.55,1729429775109.0,0.0
-1.832902,-9.671788,-6.51087,61.599998,-12.81,2.8,1729429775126.0,0.0
-1.019342,-10.686346,-7.848458,120.400002,-18.48,10.78,1729429775147.0,0.0
-0.39003,-14.167902,-8.382057,254.729996,-16.17,8.4,1729429775166.0,0.0
0.325424,-0.524028,-4.742575,306.600006,0.91,15.96,1729429775186.0,0.0
-1.31366,-10.284351,-4.290331,352.940002,24.360001,35.07,1729429775206.0,0.0
-0.727418,-10.789237,-3.304488,339.98999,-3.85,29.82,1729429775229.0,0.0
-1.395016,-11.550155,-0.421137,446.110016,-16.379999,53.130001,1729429775247.0,0.0
0.490529,-11.112268,-2.720639,533.890015,-15.190001,19.879999,1729429775265.0,0.0
0.224925,-6.771688,1.287339,442.75,44.869999,-25.549999,1729429775293.0,0.0
-1.672583,-5.960521,6.063413,286.51001,24.710001,-41.580002,1729429775306.0,0.0
-0.911665,-8.769694,5.651847,237.300003,-31.219999,-38.5,1729429775327.0,0.0
0.248854,-4.603791,2.172683,221.550003,-10.29,-40.529999,1729429775349.0,0.0
-2.768496,-4.553542,6.391229,195.020004,31.08,-27.58,1729429775365.0,0.0
-3.0006,-2.455036,8.451449,107.029999,-3.99,-29.610001,1729429775387.0,0.0
-1.031307,-2.792424,8.606983,31.5,-35.84,-10.43,1729429775406.0,0.0
-0.509671,-3.859623,8.224132,-36.400002,-36.330002,-21.91,1729429775437.0,0.0
-1.397408,-4.302295,8.102098,-109.830002,-40.25,-12.25,1729429775446.0,0.0
-0.586242,-6.049056,6.915257,-176.330002,-52.849998,-5.95,1729429775466.0,0.0
-0.457029,-7.32443,5.132604,-212.169998,-43.119999,-10.22,1729429775491.0,0.0
-2.136791,-9.839286,5.754738,-199.570007,-55.93,-13.23,1729429775506.0,0.0
0.294317,-9.437292,3.113062,-152.809998,-79.029999,-11.48,1729429775528.0,0.0
0.784846,-7.712067,4.275974,-66.290001,-64.470001,9.03,1729429775548.0,0.0
-0.567099,-6.762117,5.879165,-2.45,-56.349998,21.07,1729429775567.0,0.0
-0.684347,-6.206983,6.750153,-12.88,-59.43,20.299999,1729429775590.0,0.0
0.196211,-4.469792,5.235496,-41.299999,-68.739998,41.509998,1729429775607.0,0.0
-0.270389,-8.898908,4.979464,-103.25,-57.75,49.630001,1729429775628.0,0.0
-0.612563,-8.982656,-0.370888,-177.800003,-75.809998,37.450001,1729429775648.0,0.0
-0.461815,-12.849458,-3.436093,-157.5,-79.519997,50.189999,1729429775668.0,0.0
1.117448,-14.732609,-4.924429,-119.699997,-78.959999,28.630001,1729429775690.0,0.0
3.163311,-14.117653,-2.208575,-75.040001,-43.610001,16.379999,1729429775708.0,0.0
1.804188,-8.114061,3.168097,-21.0,55.790001,6.79,1729429775728.0,0.0
-0.760918,-8.961121,1.239482,31.639999,66.57,-13.37,1729429775747.0,0.0
0.492921,-6.355337,0.205783,-77.07,28.210001,-10.15,1729429775769.0,0.0
1.557728,-7.164111,-0.490529,-215.389999,42.77,-2.03,1729429775789.0,0.0
1.064806,-8.042276,-3.050849,-320.459991,48.299999,-1.75,1729429775809.0,0.0
0.550349,-8.458629,-6.486942,-367.429993,50.68,4.06,1729429775831.0,0.0
0.949951,-7.453642,-6.494121,-395.079987,61.040001,-3.85,1729429775849.0,0.0
2.189433,-22.899313,26.148767,-384.160004,64.540001,0.7,1729429775869.0,0.0
-3.546163,-9.504292,-2.720639,-506.380005,24.219999,-36.330002,1729429775890.0,0.0
0.748954,-8.140383,-13.426127,-337.470001,-60.830002,-26.67,1729429775910.0,0.0
3.503092,-7.305287,-11.057234,-197.330002,10.36,26.389999,1729429775930.0,0.0
-0.607777,-13.689339,-8.559127,-159.809998,22.68,42.630001,1729429775949.0,0.0
1.215554,-9.262616,-8.99462,-76.510002,24.780001,11.34,1729429775969.0,0.0
1.68694,-4.204189,-8.678767,39.41,27.58,24.639999,1729429775990.0,0.0
-0.899701,-6.163911,-9.925428,22.049999,48.09,35.560001,1729429776012.0,0.0
-0.945165,-9.245867,-6.271588,-17.290001,64.610001,35.98,1729429776030.0,0.0
-2.117648,-13.57209,1.476372,-15.68,63.91,24.710001,1729429776049.0,0.0
-1.239482,-12.593425,-5.391029,22.4,27.65,-9.59,1729429776069.0,0.0
0.385244,-12.902101,-7.489535,56.98,18.200001,-15.68,1729429776089.0,0.0
0.619741,-10.798808,-6.805188,70.349998,32.060001,-34.16,1729429776108.0,0.0
2.48375,-7.563712,-6.982256,144.479996,9.45,-23.450001,1729429776129.0,0.0
1.624727,-3.268596,-4.041477,171.149994,6.16,-3.43,1729429776149.0,0.0
-0.68674,-4.019942,-1.61037,78.889999,1.61,13.37,1729429776170.0,0.0
-1.083949,-7.819745,-4.362115,11.41,-28.0,32.689999,1729429776190.0,0.0
-0.591027,-9.650253,-8.956335,25.27,-47.110001,28.98,1729429776209.0,0.0
0.011964,-8.743374,-7.616355,93.590004,-24.219999,29.33,1729429776229.0,0.0
-0.131605,-8.4012,-6.130411,169.820007,-19.040001,32.689999,1729429776250.0,0.0
0.416351,-7.458428,-4.326223,189.419998,-22.049999,29.4,1729429776269.0,0.0
-1.337588,-1.813759,-3.421736,157.570007,-0.77,28.42,1729429776290.0,0.0
-3.294917,-10.999805,-5.838487,153.369995,-1.82,47.389999,1729429776309.0,0.0
-0.136391,-13.469198,-6.608976,190.259995,-42.0,38.990002,1729429776330.0,0.0
0.830309,-13.96212,-4.847858,332.570007,-35.630001,32.830002,1729429776349.0,0.0
0.655633,-13.251451,-3.68734,474.670013,-3.36,-0.49,1729429776369.0,0.0
0.854238,-9.836893,-1.143769,475.580017,24.92,-20.16,1729429776388.0,0.0
0.069392,-10.128819,0.447458,375.829987,46.549999,-14.77,1729429776409.0,0.0
0.78006,-11.298907,0.957129,345.380005,28.91,-26.040001,1729429776430.0,0.0
0.442672,-9.147761,2.945565,379.049988,31.92,-24.99,1729429776449.0,0.0
-0.397209,-3.206382,5.273781,369.459991,59.57,-41.580002,1729429776469.0,0.0
-2.589034,-1.418944,11.442478,286.720001,75.599998,-10.71,1729429776493.0,0.0
-0.634098,-7.456036,11.377872,162.330002,32.130001,-14.91,1729429776508.0,0.0
-0.957129,-8.078169,10.865808,104.019997,5.95,-14.42,1729429776530.0,0.0
-1.462015,-6.91765,9.518648,180.669998,-14.28,-28.35,1729429776549.0,0.0
-1.131805,-10.112068,4.804788,270.899994,-32.130001,-40.599998,1729429776568.0,0.0
-0.557528,-7.190433,3.235096,261.519989,10.57,-85.68,1729429776589.0,0.0
-3.828516,-5.472386,5.237889,200.619995,42.209999,-61.950001,1729429776610.0,0.0
-2.545963,-2.67039,4.141976,159.039993,6.16,-61.740002,1729429776629.0,0.0
1.201197,0.12682,3.969693,197.820007,-8.54,-33.670002,1729429776852.0,0.0
-0.253639,0.337388,7.77428,211.539993,15.190001,-41.650002,1729429776854.0,0.0
-0.368495,1.710868,9.925428,184.309998,5.6,-42.98,1729429776859.0,0.0
-0.378066,0.380459,11.227123,128.449997,-10.08,-27.51,1729429776860.0,0.0
-0.028714,-0.153141,8.956335,27.440001,-33.529999,-26.6,1729429776861.0,0.0
-0.648455,-0.653241,7.822137,-30.940001,-26.389999,-8.33,1729429776862.0,0.0
-0.181855,-1.586441,7.520642,-47.599998,-18.83,-13.58,1729429776864.0,0.0
0.471386,-0.78006,5.67099,-4.13,-6.09,-2.45,1729429776872.0,0.0
-0.811167,-1.07677,11.219944,41.369999,-2.38,-4.41,1729429776873.0,0.0
0.378066,1.842474,14.591432,25.549999,-22.540001,4.34,1729429776875.0,0.0
0.454636,0.897308,7.207181,-38.639999,-26.530001,9.73,1729429776876.0,0.0
0.148355,-3.122634,3.680161,-90.790001,-45.080002,23.940001,1729429776880.0,0.0
1.789831,-4.400401,3.65384,-35.91,-7.35,7.49,1729429776892.0,0.0
1.789831,-4.642076,7.049256,50.259998,47.389999,-0.14,1729429776907.0,0.0
-1.402194,-0.497707,9.600004,116.270004,64.610001,1.05,1729429776936.0,0.0
0.993021,0.928415,10.159925,114.239998,60.200001,-3.85,1729429776947.0,0.0
2.06022,-0.660419,12.849458,17.85,51.170002,-0.84,1729429776968.0,0.0
0.81356,-0.662812,12.610175,-89.599998,12.95,20.790001,1729429776989.0,0.0
1.06002,-1.813759,10.626525,-138.949997,-17.290001,19.460001,1729429777009.0,0.0
1.722832,-2.723032,9.317651,-150.360001,-28.35,29.889999,1729429777029.0,0.0
1.368695,-3.416951,8.128418,-136.5,-22.120001,36.75,1729429777148.0,0.0
0.837488,-2.696711,8.501699,-159.740005,7.07,38.639999,1729429777152.0,0.0
-1.201197,-6.709475,8.738588,-228.059998,-4.13,27.370001,1729429777188.0,0.0
-3.854837,-8.374879,11.96172,-238.279999,-9.03,38.5,1729429777190.0,0.0
-5.029713,-5.716454,12.777672,-230.369995,17.85,21.84,1729429777191.0,0.0
-2.330609,-5.694918,8.068598,-225.889999,6.3,-1.61,1729429777191.0,0.0
0.598206,-5.836094,7.563712,-210.699997,-37.099998,-18.34,1729429777191.0,0.0
-0.461815,-7.903493,8.82473,-235.339996,-46.060001,-25.969999,1729429777207.0,0.0
-0.629312,-10.332209,5.072784,-370.790009,-31.710001,-44.310001,1729429777229.0,0.0
0.306281,-10.392029,7.164111,-362.390015,-55.02,-41.09,1729429777248.0,0.0
0.284746,-8.327023,6.831509,-270.690002,-28.280001,-48.16,1729429777269.0,0.0
-0.095713,-5.594419,4.285545,-233.100006,-37.869999,-52.43,1729429777288.0,0.0
-0.842274,-5.606383,4.488935,-235.690002,-41.439999,-28.700001,1729429777307.0,0.0
-0.684347,-8.669197,1.974079,-200.899994,-47.670002,-7.84,1729429777329.0,0.0
-1.007378,-10.29153,-0.366102,-142.940002,-64.330002,13.51,1729429777463.0,0.0
0.289532,-4.788038,-2.105684,-144.059998,-64.190002,4.9,1729429777465.0,0.0
1.823331,-3.378666,-6.343372,-275.029999,-58.029999,-22.469999,1729429777468.0,0.0
3.503092,-6.809973,-11.184053,-385.279999,-58.73,6.72,1729429777472.0,0.0
3.369094,-9.401401,-14.323436,-393.119995,-63.420002,33.25,1729429777472.0,0.0
3.163311,-10.559525,-2.141576,-324.309998,-16.940001,35.560001,1729429777472.0,0.0
0.875773,-1.663012,-1.478764,-92.190002,2.31,33.810001,1729429777491.0,0.0
0.327817,-6.699903,-5.632704,-196.419998,-14.77,18.83,1729429777515.0,0.0
1.253839,-12.488142,-10.13839,-211.259995,-17.710001,14.49,1729429777553.0,0.0
1.050449,-10.037891,-7.111469,-91.489998,-0.98,1.96,1729429777563.0,0.0
0.564706,-6.379266,-5.312066,26.67,-6.23,2.17,1729429777572.0,0.0
-0.468993,-4.711468,-6.147161,-12.46,-3.43,9.03,1729429777589.0,0.0
-0.557528,-7.353144,-8.432307,-53.27,-4.9,24.5,1729429777608.0,0.0
-0.808774,-9.056834,-8.360522,-19.67,2.24,30.870001,1729429777632.0,0.0
-0.540778,-9.01137,-7.798209,14.42,10.78,26.74,1729429777648.0,0.0
-0.598206,-11.270195,-6.869793,24.99,17.08,25.41,1729429777668.0,0.0
0.196211,-12.24168,-5.766702,50.610001,24.639999,11.9,1729429777689.0,0.0
0.165105,-9.705289,-5.735595,100.029999,30.1,5.32,1729429777707.0,0.0
-0.040678,-9.45165,-5.642276,146.300003,21.210001,13.72,1729429777729.0,0.0
0.478565,-8.793623,-3.074777,172.830002,6.93,23.1,1729429777751.0,0.0
0.18664,-8.705089,-1.454836,202.369995,-9.87,30.1,1729429777769.0,0.0
-0.454636,-9.355937,-1.794617,191.380005,-24.639999,24.290001,1729429777789.0,0.0
-0.409173,-9.724431,-5.369494,110.25,-35.349998,0.07,1729429777812.0,0.0
0.124427,-9.406186,-4.651647,112.559998,-31.780001,13.440001,1729429777829.0,0.0
-0.433101,-10.985448,-4.376472,234.220001,-36.68,24.290001,1729429777849.0,0.0
-0.837488,-12.756138,-3.168097,338.519989,-35.07,12.46,1729429778007.0,0.0
-0.378066,-8.549555,-0.863809,346.850006,-28.210001,0.77,1729429778008.0,0.0
-0.356531,-7.228717,-0.957129,296.730011,-25.129999,12.53,1729429778009.0,0.0
0.272782,-7.513463,1.471586,207.759995,-18.059999,11.48,1729429778010.0,0.0
0.583849,-5.292924,3.151347,65.800003,-5.18,2.45,1729429778012.0,0.0
-0.696311,-5.12782,-0.485743,-144.479996,-3.92,-14.98,1729429778013.0,0.0
-0.480957,-10.743774,-4.709075,-285.809998,-28.280001,-18.059999,1729429778015.0,0.0
1.165305,-10.920842,-5.058427,-294.630005,-29.4,-13.16,1729429778016.0,0.0
2.316252,-10.782058,-4.807181,-219.100006,-22.75,-6.37,1729429778028.0,0.0
2.206182,-8.499306,-5.819345,-131.740005,-28.280001,-14.35,1729429778048.0,0.0
0.990629,-8.925228,-3.404987,-56.98,9.73,-4.76,1729429778067.0,0.0
0.803988,-8.721838,-2.459821,-49.0,33.25,-3.99,1729429778089.0,0.0
1.289732,-9.537791,-5.953342,-63.84,-14.98,-1.96,1729429778108.0,0.0
1.304088,-12.105289,-2.0004,-62.02,-21.629999,20.299999,1729429778128.0,0.0
-1.682154,-9.868,0.909273,57.260002,68.389999,12.18,1729429778148.0,0.0
-2.811567,-10.317852,-4.859823,177.589996,21.49,3.43,1729429778168.0,0.0
-2.624927,-10.140782,-1.004985,202.229996,-17.92,47.040001,1729429778188.0,0.0
-0.306281,-8.977871,1.971686,205.589996,17.290001,29.68,1729429778208.0,0.0
-1.256232,-8.140383,2.773281,185.220001,8.47,18.83,1729429778229.0,0.0
-3.239882,-6.893722,4.742575,111.370003,21.35,24.290001,1729429778248.0,0.0
-5.156533,-13.58166,2.038685,31.15,-20.65,32.830002,1729429778267.0,0.0
-2.758924,-12.667603,1.275374,-33.389999,-23.59,-1.89,1729429778288.0,0.0
-2.354537,-11.954542,-2.012364,-71.330002,1.19,-13.72,1729429778307.0,0.0
-1.887937,-10.231709,0.291924,-97.650002,16.940001,-20.23,1729429778328.0,0.0
-1.098306,-8.623734,2.151148,-57.189999,24.290001,-18.83,1729429778348.0,0.0
0.811167,-7.073184,0.148355,-61.32,8.47,-17.01,1729429778367.0,0.0
1.227518,-11.34198,-2.79721,-72.660004,-15.26,13.93,1729429778388.0,0.0
1.040878,-9.97807,-1.847259,-31.290001,2.1,3.22,1729429778409.0,0.0
-1.651048,-9.901501,0.332602,-13.37,8.33,4.13,1729429778430.0,0.0
-0.614955,-9.822537,-2.818745,-57.400002,-13.72,0.21,1729429778449.0,0.0
-1.261017,-11.356337,-3.555735,-97.860001,-12.39,0.56,1729429778468.0,0.0
-3.675375,-11.75833,-4.919643,-37.59,9.38,-5.95,1729429778491.0,0.0
-3.194418,-8.563912,-3.349952,-35.77,27.440001,-15.05,1729429778508.0,0.0
-0.480957,-10.58824,-5.201996,-39.689999,16.309999,2.66,1729429778532.0,0.0
-0.428315,-12.277573,-6.733403,-12.88,41.09,-8.61,1729429778551.0,0.0
-2.045863,-9.107083,-3.981657,-20.23,77.419998,-25.83,1729429778568.0,0.0
-1.832902,-8.300702,-0.677169,-47.040001,80.5,-31.360001,1729429778590.0,0.0
-0.026321,-9.564112,-2.330609,-46.27,62.299999,-23.1,1729429778607.0,0.0
1.048056,-9.911072,-4.024727,-35.91,64.68,-21.42,1729429778630.0,0.0
1.552942,-11.667403,-4.910072,-33.529999,70.489998,-17.43,1729429778648.0,0.0
2.713461,-11.468799,-0.899701,-17.780001,84.209999,-17.08,1729429778667.0,0.0
2.316252,-7.01097,4.192225,18.129999,80.989998,-22.68,1729429778689.0,0.0
0.191426,-10.035499,3.885944,24.43,35.630001,-14.63,1729429778710.0,0.0
-0.007178,-10.363315,0.215354,8.82,1.47,-17.15,1729429778728.0,0.0
-1.064806,-7.472785,1.014557,33.459999,-7.21,-8.26,1729429778748.0,0.0
-0.050249,-6.699903,1.715654,30.450001,-27.09,11.69,1729429778768.0,0.0
0.57667,-8.166703,2.37368,9.8,-54.740002,30.309999,1729429778789.0,0.0
-3.074777,-10.980663,-0.382852,13.37,-70.559998,32.48,1729429778809.0,0.0
-1.923829,-7.008578,0.579063,-4.9,-100.029999,28.700001,1729429778830.0,0.0
0.595813,-9.640682,-2.462214,-25.48,-132.509995,52.290001,1729429778852.0,0.0
-1.06002,-10.954341,-9.798609,-41.650002,-126.840004,45.220001,1729429778870.0,0.0
-1.529014,-9.257831,-12.890135,-41.790001,-61.740002,17.639999,1729429778889.0,0.0
-2.251646,-10.564312,-13.720445,-50.540001,-13.93,35.77,1729429778909.0,0.0
-0.847059,-9.944571,-7.733603,54.740002,25.200001,32.549999,1729429778928.0,0.0
-0.550349,-6.687939,-3.254239,81.900002,47.740002,24.5,1729429778949.0,0.0
-1.055235,-6.975078,-1.495514,-27.790001,55.16,11.48,1729429778967.0,0.0
-0.358923,-9.482756,-3.141776,-60.970001,40.389999,18.41,1729429778988.0,0.0
-1.282553,-11.619547,-3.400201,-9.38,37.939999,14.7,1729429779010.0,0.0
-2.115255,-8.671589,-3.189633,-17.290001,58.029999,-6.37,1729429779035.0,0.0
-0.990629,-10.13839,-4.893322,-68.739998,34.93,0.56,1729429779049.0,0.0
-1.56012,-10.858629,-6.565905,-92.540001,47.599998,-10.43,1729429779068.0,0.0
-1.505085,-7.566105,-2.002793,-52.990002,68.459999,-6.72,1729429779090.0,0.0
-2.426322,-6.683154,-1.009771,-49.209999,56.98,2.66,1729429779109.0,0.0
-3.141776,-9.954143,-2.902494,-64.82,47.389999,3.85,1729429779134.0,0.0
-2.07697,-11.286944,-2.986243,-80.919998,43.889999,7.0,1729429779148.0,0.0
-0.940379,-11.337193,-4.027121,-36.119999,37.240002,1.96,1729429779172.0,0.0
-0.229711,-11.586047,-4.694718,36.82,30.52,2.8,1729429779190.0,0.0
0.088534,-11.842079,-3.366701,104.650002,31.219999,3.57,1729429779209.0,0.0
0.035892,-10.908878,-1.162912,153.580002,28.91,2.52,1729429779228.0,0.0
0.638884,-9.848858,0.287139,182.910004,12.74,5.6,1729429779249.0,0.0
1.213161,-8.786445,1.299303,243.669998,-10.78,16.799999,1729429779268.0,0.0
1.009771,-8.41795,1.87358,285.459991,-27.790001,24.01,1729429779290.0,0.0
-0.57667,-9.140583,2.498107,189.0,-27.370001,18.48,1729429779307.0,0.0
-1.107877,-9.851252,1.543371,55.650002,-38.360001,11.48,1729429779329.0,0.0
-0.299103,-10.224532,0.014357,-8.61,-57.119999,12.67,1729429779348.0,0.0
-0.545564,-9.829715,-1.806581,-76.650002,-65.800003,-0.14,1729429779368.0,0.0
-0.153141,-7.365108,-2.907279,-187.25,-55.790001,-19.040001,1729429779388.0,0.0
-2.749353,-13.454842,-14.076975,-264.040009,-43.75,-20.440001,1729429779407.0,0.0
-5.000999,-1.974079,-3.48395,-370.440002,21.07,-39.27,1729429779436.0,0.0
-2.210968,-9.923036,-7.587641,-291.200012,-31.290001,-52.990002,1729429779449.0,0.0
0.224925,-9.415757,-9.743573,-262.98999,-78.260002,14.14,1729429779468.0,0.0
-0.004786,-10.928021,-2.859423,32.759998,20.16,-10.78,1729429779492.0,0.0
-1.639083,-11.645866,-3.361916,101.290001,32.830002,-42.0,1729429779507.0,0.0
-1.603191,-5.4006,-2.512464,-17.43,7.7,-43.330002,1729429779532.0,0.0
-0.394816,-8.822337,-3.318845,-41.580002,-15.12,-15.61,1729429779550.0,0.0
0.885344,-8.834301,-4.055835,5.67,-36.82,-6.09,1729429779568.0,0.0
0.323031,-7.762317,-5.814559,93.800003,-22.889999,4.69,1729429779589.0,0.0
-0.612563,-7.865208,-8.872586,201.949997,-22.540001,28.84,1729429779609.0,0.0
-0.691526,-10.143176,-5.745167,303.450012,-26.950001,49.700001,1729429779628.0,0.0
-0.440279,-7.932207,-0.650848,314.720001,1.75,43.119999,1729429779648.0,0.0
-1.385444,-9.755538,-2.837888,246.050003,35.139999,2.87,1729429779668.0,0.0
-1.756332,-10.25803,-2.141576,153.160004,35.0,6.3,1729429779689.0,0.0
-1.351945,-10.614561,-0.748954,164.639999,32.27,19.950001,1729429779707.0,0.0
-0.007178,-8.269595,0.957129,318.01001,22.75,37.310001,1729429779728.0,0.0
-0.959522,-9.480364,5.436492,513.590027,-6.58,60.830002,1729429779748.0,0.0
-4.079762,-7.030113,5.728417,388.920013,39.41,6.51,1729429779767.0,0.0
-6.21416,-4.778467,5.350351,126.910004,83.160004,-8.12,1729429779788.0,0.0
-5.596812,-8.056634,7.63789,57.260002,-43.259998,42.84,1729429779807.0,0.0
-0.653241,-9.628718,4.414758,206.5,-51.310001,20.440001,1729429779827.0,0.0
-1.031307,-9.147761,5.79063,309.399994,10.85,-21.629999,1729429779847.0,0.0
-4.539185,-5.663811,7.32443,288.679993,30.24,24.43,1729429779866.0,0.0
-3.524628,-5.836094,8.937192,152.320007,7.49,-1.33,1729429779887.0,0.0
-1.90708,-6.26441,8.130811,-21.77,-12.32,-7.98,1729429779907.0,0.0
-1.57687,-6.271588,8.863015,-111.650002,-31.92,-17.15,1729429779927.0,0.0
-1.57687,-7.427321,6.56112,-139.440002,-34.790001,-11.83,1729429779947.0,0.0
-0.459422,-8.499306,4.87418,-160.580002,-48.650002,-23.1,1729429779966.0,0.0
-0.818345,-7.149754,4.474578,-147.210007,-29.190001,-16.799999,1729429779987.0,0.0
-1.708475,-7.867601,5.075177,-139.300003,-18.76,-22.540001,1729429780006.0,0.0
-1.095913,-8.707481,3.419343,-144.759995,-28.210001,-32.619999,1729429780027.0,0.0
-0.662812,-9.753145,3.455236,-117.459999,-22.75,-29.540001,1729429780046.0,0.0
-0.473779,-9.267403,3.998406,-66.5,-4.27,-34.790001,1729429780066.0,0.0
-0.394816,-7.89153,4.82393,-52.080002,6.23,-35.700001,1729429780089.0,0.0
-0.777667,-6.640083,4.106083,-104.510002,7.91,-31.360001,1729429780106.0,0.0
-1.323231,-6.441479,1.17009,-184.800003,-4.76,-32.619999,1729429780129.0,0.0
-1.813759,-11.849257,4.295116,-228.130005,-30.309999,-11.97,1729429780153.0,0.0
-0.629312,-9.348758,4.041477,-207.130005,-52.57,-34.439999,1729429780168.0,0.0
-0.342174,-7.23111,0.894916,-204.190002,-42.279999,-38.220001,1729429780189.0,0.0
0.064606,-7.49432,-0.832702,-238.839996,-55.439999,-24.01,1729429780210.0,0.0
-0.189033,-8.221739,-0.897308,-315.980011,-43.470001,-24.01,1729429780228.0,0.0
0.404387,-7.613962,-1.76351,-359.029999,-33.740002,-40.110001,1729429780248.0,0.0
1.249053,-8.752945,-1.143769,-313.320007,-50.75,-21.139999,1729429780269.0,0.0
2.261217,-3.945765,-3.117848,-258.51001,-57.470001,-22.049999,1729429780289.0,0.0
0.239282,1.088734,-10.530812,-339.920013,-34.860001,-8.19,1729429780307.0,0.0
0.435494,-6.800402,-19.535004,-406.980011,-28.49,27.16,1729429780328.0,0.0
1.737189,-16.007982,-13.021741,-296.380005,6.09,37.240002,1729429780348.0,0.0
-1.330409,-11.743973,-5.367101,-110.879997,54.950001,-15.190001,1729429780368.0,0.0
-0.098106,-10.9352,-7.695317,-21.700001,12.81,-37.59,1729429780388.0,0.0
2.282753,-6.948757,-6.431907,-3.22,13.3,-28.700001,1729429780407.0,0.0
0.291924,-6.281159,-5.278566,0.35,21.280001,-13.16,1729429780428.0,0.0
-0.457029,-5.525027,-6.355337,4.62,12.88,-1.12,1729429780447.0,0.0
-0.404387,-6.802795,-8.664411,6.58,4.13,10.15,1729429780468.0,0.0
-0.552742,-8.484949,-8.346166,7.42,10.92,16.52,1729429780490.0,0.0
-0.823131,-8.901299,-6.630512,40.040001,25.83,16.450001,1729429780509.0,0.0
-0.868595,-10.310673,-6.556334,54.040001,28.139999,14.84,1729429780528.0,0.0
0.167498,-10.169496,-6.276374,84.559998,26.110001,10.01,1729429780548.0,0.0
1.232304,-7.57089,-6.142376,109.270004,19.18,8.82,1729429780568.0,0.0
1.902294,-5.429315,-5.352744,134.680008,9.1,21.629999,1729429780589.0,0.0
1.600798,-6.13759,-2.39043,138.460007,3.64,42.630001,1729429780607.0,0.0
0.327817,-6.123233,1.103091,105.699997,-1.96,48.369999,1729429780630.0,0.0
-1.421337,-8.068598,-2.481357,45.5,-33.810001,42.279999,1729429780647.0,0.0
-0.887737,-9.458827,-7.077969,-7.0,-67.410004,33.950001,1729429780666.0,0.0
-0.392423,-9.092726,-6.867401,7.56,-51.59,40.529999,1729429780688.0,0.0
-1.507478,-8.183454,-5.426922,46.130001,-26.950001,37.240002,1729429780706.0,0.0
-2.682354,-9.226725,-5.319244,59.639999,-22.4,29.120001,1729429780728.0,0.0
-1.454836,-10.028319,-5.891129,106.120003,-39.34,23.24,1729429780749.0,0.0
-0.722632,-5.469993,-4.400401,150.289993,-32.689999,28.139999,1729429780767.0,0.0
-1.921437,-8.209774,-4.165904,159.039993,-11.97,41.509998,1729429780789.0,0.0
-1.055235,-10.076177,-3.402594,175.559998,-25.76,33.950001,1729429780807.0,0.0
-1.208375,-8.047063,-3.98405,242.479996,-26.040001,54.18,1729429780827.0,0.0
-1.718047,-6.391229,-2.455036,254.449997,13.16,36.049999,1729429780847.0,0.0
-1.722832,-7.348359,-1.282553,162.399994,10.85,35.630001,1729429780867.0,0.0
-0.911665,-8.315059,1.344766,123.270004,-6.09,35.84,1729429780889.0,0.0
-0.430708,-5.584848,1.667797,117.599998,-14.42,40.25,1729429780907.0,0.0
-1.323231,-5.649454,1.098306,84.629997,-2.73,40.810001,1729429780928.0,0.0
-1.545763,-6.597012,0.653241,32.48,-2.38,42.139999,1729429780948.0,0.0
-1.265803,-7.013363,1.9669,29.960001,-5.74,48.16,1729429780966.0,0.0
-1.261017,-4.419543,3.37388,6.02,-5.74,45.009998,1729429780988.0,0.0
-3.125026,-4.991428,1.237089,-113.050003,2.1,29.120001,1729429781007.0,0.0
-2.641676,-10.100104,-1.134198,-259.769989,-16.940001,8.89,1729429781029.0,0.0
-2.048256,-6.037091,-4.646862,-329.279999,-41.16,3.5,1729429781050.0,0.0
-3.290131,-7.625926,-7.855636,-251.790009,-26.530001,26.110001,1729429781066.0,0.0
-4.675575,-9.810574,-12.385249,-217.139999,-32.619999,-1.4,1729429781087.0,0.0
-5.711668,-12.703495,-15.323636,-194.809998,-36.610001,16.17,1729429781111.0,0.0
-4.046263,-15.873986,-6.955935,-112.559998,-11.34,61.18,1729429781129.0,0.0
-1.87358,-16.500904,1.942972,0.84,18.620001,79.870003,1729429781147.0,0.0
-5.271388,-10.679168,3.979264,271.950012,60.830002,56.700001,1729429781167.0,0.0
-7.025328,-6.704689,2.081756,416.98999,48.02,53.41,1729429781187.0,0.0
-9.820145,-6.491727,8.616554,414.119995,4.41,121.940002,1729429781206.0,0.0
-9.525827,-7.597212,5.795416,318.570007,-26.530001,92.75,1729429781228.0,0.0
-7.123433,-12.220145,2.254039,233.520004,-27.93,45.150002,1729429781247.0,0.0
-6.608976,-14.153545,3.141776,143.779999,-14.56,23.66,1729429781266.0,0.0
-5.584848,-11.657832,1.933401,96.949997,15.33,-8.05,1729429781288.0,0.0
-5.022535,-7.903493,3.646662,46.619999,12.81,-11.41,1729429781307.0,0.0
-3.251846,-7.06122,4.204189,-4.55,-2.24,-9.24,1729429781328.0,0.0
-2.964707,-8.403593,2.907279,-63.84,-10.5,-15.12,1729429781348.0,0.0
-3.371487,-9.645468,0.248854,-90.720001,-13.440001,-19.25,1729429781367.0,0.0
-3.996014,-8.853443,0.100499,-82.110001,3.22,-12.04,1729429781387.0,0.0
-4.39083,-6.360123,2.376073,-94.57,9.8,-10.15,1729429781408.0,0.0
-5.111069,-5.632704,0.792024,-142.449997,6.79,-15.82,1729429781427.0,0.0
-5.828916,-6.075377,-0.057428,-215.880005,-4.13,-16.870001,1729429781449.0,0.0
-6.24766,-7.255038,-1.478764,-301.769989,-13.16,-22.960001,1729429781474.0,0.0
-6.812366,-9.777073,-2.045863,-367.570007,-21.700001,-28.139999,1729429781491.0,0.0
-6.503692,-7.209574,-1.603191,-414.119995,-51.73,-42.630001,1729429781506.0,0.0
-3.493521,-10.255639,-4.261617,-339.98999,-69.370003,-29.33,1729429781529.0,0.0
-2.282753,-7.640282,-4.675575,-235.199997,-61.040001,-18.129999,1729429781547.0,0.0
-3.704089,-4.996214,-7.640282,-208.880005,-23.1,-24.639999,1729429781566.0,0.0
-4.127619,-4.563113,-8.499306,-205.869995,-11.55,-9.38,1729429781590.0,0.0
-2.167897,-5.623133,-10.365707,-182.910004,-11.34,4.97,1729429781611.0,0.0
-2.328217,-6.56112,-10.585848,-166.039993,13.09,11.27,1729429781627.0,0.0
-4.268795,-7.080362,-4.488935,-169.399994,33.389999,2.03,1729429781647.0,0.0
-4.058227,-9.901501,-7.860423,-146.089996,17.710001,-11.27,1729429781666.0,0.0
-2.017149,-9.379865,-7.32443,-69.440002,3.08,-9.66,1729429781697.0,0.0
-3.402594,-6.116055,-7.140182,31.01,15.05,-5.67,1729429781707.0,0.0
-4.98425,-4.744967,-8.315059,40.18,18.83,8.19,1729429781727.0,0.0
-5.010571,-7.814958,-9.399008,24.290001,22.190001,17.710001,1729429781747.0,0.0
-4.943572,-9.310472,-8.341379,49.0,33.459999,12.25,1729429781767.0,0.0
-5.221139,-5.821737,-5.099105,109.129997,39.549999,1.96,1729429781787.0,0.0
-5.347959,-8.975478,-7.446464,139.020004,28.49,5.6,1729429781806.0,0.0
-3.522235,-9.226725,-5.072784,162.610001,26.950001,5.6,1729429781827.0,0.0
-4.122833,-7.144968,-3.759124,257.529999,32.200001,-0.35,1729429781847.0,0.0
-4.809574,-5.048856,-1.249053,263.059998,29.049999,2.24,1729429781866.0,0.0
-5.158926,-7.463214,-3.421736,234.850006,6.44,12.32,1729429781889.0,0.0
-4.771288,-12.069397,-3.711268,270.829987,-14.49,14.28,1729429781907.0,0.0
-3.864408,-13.521841,-5.702096,361.970001,-30.799999,3.22,1729429781927.0,0.0
-3.596412,-9.769895,-3.175276,423.920013,-24.710001,5.25,1729429781947.0,0.0
-3.940979,-8.427521,0.019143,411.950012,-11.62,7.56,1729429781966.0,0.0
-3.778267,-8.482556,2.866602,350.769989,-30.799999,-5.39,1729429781986.0,0.0
-3.909872,-4.383651,2.019542,274.119995,-14.35,-3.92,1729429782006.0,0.0
-4.323831,-4.273581,4.931608,159.110001,12.25,-22.610001,1729429782028.0,0.0
-4.881358,-3.9338,3.342773,-62.02,-3.64,-33.040001,1729429782112.0,0.0
-4.725825,-4.342973,-1.485943,-264.040009,-22.4,-33.740002,1729429782121.0,0.0
-3.479164,-7.109076,-2.919244,-318.850006,-28.49,-13.79,1729429782123.0,0.0
-1.895115,-9.19801,-3.184847,-334.179993,-19.25,-27.719999,1729429782127.0,0.0
-1.014557,-3.732803,-5.240282,-350.839996,-14.77,-23.17,1729429782133.0,0.0
-1.916651,-9.020942,-6.565905,-318.850006,8.4,3.85,1729429782146.0,0.0
-2.242075,-12.902101,-8.55434,-311.570007,5.18,-14.56,1729429782166.0,0.0
-3.04367,-12.856635,-6.960721,-148.820007,-7.49,-16.799999,1729429782191.0,0.0
-2.055435,-10.461421,-4.309474,39.200001,23.450001,21.559999,1729429782206.0,0.0
-2.514857,-11.157731,-3.608376,213.919998,19.460001,37.170002,1729429782237.0,0.0
-3.756732,-8.051848,-1.215554,318.709991,31.780001,37.799999,1729429782247.0,0.0
-5.87438,-7.070791,0.641276,402.779999,81.760002,41.790001,1729429782266.0,0.0
-6.640083,-8.013563,-1.722832,443.309998,23.940001,63.279999,1729429782286.0,0.0
-6.795617,-6.9344,3.445665,497.839996,-41.369999,98.489998,1729429782306.0,0.0
-5.773881,-2.665605,6.711867,503.230011,-8.96,69.860001,1729429782327.0,0.0
-7.403394,-3.572484,6.659225,327.809998,50.400002,16.66,1729429782346.0,0.0
-7.865208,-7.424929,6.04427,39.830002,7.49,-6.79,1729429782366.0,0.0
-4.977071,-9.133404,3.981657,-111.440002,-34.509998,-13.86,1729429782387.0,0.0
-2.861816,-8.499306,4.173083,-116.340004,-12.6,-11.55,1729429782406.0,0.0
-3.924229,-6.4343,4.936393,-90.160004,11.62,4.97,1729429782427.0,0.0
-3.931407,-8.525627,2.258825,-95.620003,-2.1,-1.47,1729429782446.0,0.0
-3.850052,-8.963513,1.574477,-122.709999,-5.67,10.71,1729429782466.0,0.0
-4.175476,-9.284152,2.017149,-136.779999,-0.77,-0.63,1729429782490.0,0.0
-4.608576,-9.683753,2.268396,-147.0,3.08,-10.5,1729429782506.0,0.0
-4.220939,-8.609376,1.904687,-176.470001,3.36,-22.049999,1729429782527.0,0.0
-3.814159,-7.128219,-0.12682,-221.759995,5.11,-28.35,1729429782546.0,0.0
-4.54397,-8.678767,-1.529014,-251.229996,2.45,-29.26,1729429782618.0,0.0
-5.245068,-8.283953,-1.974079,-279.51001,0.91,-29.190001,1729429782621.0,0.0
-6.9679,-5.974878,3.393023,-346.98999,-26.74,-38.43,1729429782623.0,0.0
-6.293124,-7.046863,-2.895315,-448.350006,-61.810001,-43.540001,1729429782626.0,0.0
-2.610569,-9.640682,-8.075776,-377.51001,-66.220001,-32.34,1729429782646.0,0.0
-0.854238,-7.01097,-8.99462,-246.470001,-55.02,-11.9,1729429782666.0,0.0
-2.9336,-5.737988,-7.779066,-186.690002,-6.3,2.59,1729429782686.0,0.0
-4.072584,-3.562913,-7.111469,-188.649994,18.34,-6.09,1729429782706.0,0.0
-3.498307,-4.723432,-9.688539,-182.699997,3.85,17.290001,1729429782729.0,0.0
-3.663411,-7.245467,-7.092326,-213.009995,10.08,15.61,1729429782746.0,0.0
-3.811767,-10.631311,-8.566305,-224.630005,21.139999,-6.02,1729429782766.0,0.0
-1.789831,-10.107283,-7.944171,-106.540001,9.8,-3.92,1729429782786.0,0.0
-2.766103,-6.336195,-7.101898,42.07,16.1,-3.5,1729429782806.0,0.0
-4.299902,-3.562913,-8.451449,30.66,23.24,3.01,1729429782826.0,0.0
-4.37408,-7.305287,-9.903893,-5.95,29.68,14.49,1729429782848.0,0.0
-4.809574,-7.872386,-8.688338,18.48,47.459999,8.96,1729429782867.0,0.0
-5.082355,-9.23151,-6.726225,57.470001,52.779999,0.07,1729429782886.0,0.0
-4.4339,-8.252845,-6.991827,104.790001,49.209999,-7.49,1729429782907.0,0.0
-4.364508,-9.332008,-6.632904,161.910004,42.279999,-5.04,1729429782927.0,0.0
-3.419343,-7.57089,-1.981257,207.270004,30.380001,-3.64,1729429782946.0,0.0
-4.414758,-7.932207,-2.230111,251.160004,17.5,-1.75,1729429782966.0,0.0
-3.641876,-8.367701,-4.096512,249.970001,-3.36,-9.59,1729429782986.0,0.0
-2.756532,-7.984849,-4.587041,261.450012,-26.389999,7.98,1729429783005.0,0.0
-2.883351,-7.456036,-4.45065,317.029999,-33.040001,21.84,1729429783027.0,0.0
-4.12044,-9.896714,-5.472386,412.649994,-32.130001,33.389999,1729429783046.0,0.0
-4.634897,-13.186846,-4.41715,483.070007,-26.040001,29.540001,1729429783065.0,0.0
-2.940779,-11.521441,-3.215954,477.679993,-12.32,12.53,1729429783086.0,0.0
-2.830709,-5.867201,-1.655833,421.610016,4.55,24.57,1729429783107.0,0.0
-3.371487,-4.503292,2.900101,286.790009,27.440001,-5.81,1729429783128.0,0.0
-4.756931,-4.749753,4.457829,57.889999,18.690001,-28.84,1729429783147.0,0.0
-3.89073,-6.869793,2.313859,-132.369995,-15.33,-43.189999,1729429783166.0,0.0
-3.596412,-7.345965,2.29711,-161.839996,-33.25,-2.03,1729429783188.0,0.0
-2.471786,-8.070991,1.624727,-135.800003,-24.780001,-19.67,1729429783206.0,0.0
-2.821138,-7.922636,2.160719,-142.729996,-31.92,-14.56,1729429783226.0,0.0
-3.024528,-9.071191,0.490529,-170.729996,-32.41,-9.45,1729429783246.0,0.0
-2.646462,-9.24108,-1.799403,-206.009995,-21.559999,-23.940001,1729429783266.0,0.0
-2.392823,-9.320045,-4.488935,-212.869995,-17.360001,-15.89,1729429783286.0,0.0
-2.323431,-8.147561,-5.359922,-195.720001,-8.47,-11.55,1729429783305.0,0.0
-2.565106,-8.355737,-6.482157,-129.009995,13.09,2.03,1729429783327.0,0.0
-2.993421,-7.843673,-5.395815,-68.669998,33.110001,8.82,1729429783347.0,0.0
-2.610569,-9.827322,-4.548756,-43.470001,32.27,16.870001,1729429783366.0,0.0
-1.931008,-9.923036,-3.895515,-47.529999,9.59,11.76,1729429783386.0,0.0
-2.206182,-12.413965,-2.213361,-9.24,11.97,16.73,1729429783406.0,0.0
-3.378666,-11.492726,-0.827917,63.98,41.650002,7.07,1729429783426.0,0.0
-5.015356,-9.789038,0.636491,181.020004,61.25,2.8,1729429783446.0,0.0
-6.034698,-9.186047,0.882952,241.779999,28.91,22.26,1729429783466.0,0.0
-3.95055,-9.116654,-1.031307,230.720001,28.91,21.210001,1729429783489.0,0.0
-3.330809,-10.224532,0.736989,225.470001,-17.15,31.15,1729429783514.0,0.0
-4.599005,-8.99462,3.014957,220.360001,8.12,13.02,1729429783527.0,0.0
-6.216553,-7.661818,4.462614,193.410004,23.379999,8.05,1729429783547.0,0.0
-5.84088,-5.776274,4.529613,140.070007,-3.71,1.68,1729429783567.0,0.0
-4.881358,-7.02772,4.429115,85.889999,-12.32,-15.68,1729429783586.0,0.0
-4.13719,-9.066404,2.354537,36.959999,-6.44,-23.17,1729429783605.0,0.0
-4.326223,-9.468399,4.21376,15.89,3.57,-20.58,1729429783626.0,0.0
-3.708875,-9.042477,3.644269,26.25,2.1,-24.57,1729429783645.0,0.0
-2.840281,-8.061419,3.668197,10.43,5.46,-18.969999,1729429783666.0,0.0
-2.352145,-8.159525,2.289931,-19.18,-2.8,-15.54,1729429783686.0,0.0
-2.711068,-8.425128,2.993421,-28.139999,-0.35,-5.46,1729429783706.0,0.0
-3.180061,-8.738588,3.65384,-22.049999,-4.27,-5.32,1729429783726.0,0.0
-2.974278,-8.260024,3.304488,-6.51,-10.36,0.07,1729429783746.0,0.0
-2.878566,-8.090133,2.957529,-25.76,-3.64,-7.77,1729429783765.0,0.0
-3.385844,-8.037491,2.85703,-80.360001,1.47,-6.65,1729429783786.0,0.0
-3.572484,-8.001599,2.792424,-129.919998,4.34,-5.32,1729429783805.0,0.0
-3.395415,-7.759924,2.304288,-173.180008,3.57,-8.26,1729429783826.0,0.0
-4.010371,-6.597012,-0.421137,-277.76001,3.29,-17.43,1729429783845.0,0.0
-6.829116,-9.975677,3.969693,-320.459991,-22.469999,-13.02,1729429783865.0,0.0
-4.941179,-10.289137,-0.839881,-324.170013,-56.560001,-20.02,1729429783886.0,0.0
-3.60359,-9.226725,-2.799603,-325.290009,-63.0,-37.52,1729429783905.0,0.0
-2.799603,-6.070591,-5.666204,-324.519989,-52.779999,-31.15,1729429783927.0,0.0
-1.895115,-7.992027,-9.145369,-288.190002,-42.700001,-20.51,1729429783947.0,0.0
-2.084148,-10.432706,-8.348558,-218.190002,-18.690001,0.35,1729429783965.0,0.0
-2.292324,-8.396415,-5.082355,-92.540001,11.97,-8.4,1729429783986.0,0.0
-2.931208,-4.608576,-5.692525,-59.43,8.96,-7.91,1729429784005.0,0.0
-2.471786,-3.639483,-7.456036,-133.0,2.1,3.22,1729429784036.0,0.0
-2.404787,-6.460621,-8.233703,-219.029999,10.22,10.01,1729429784046.0,0.0
-2.935993,-8.492127,-5.793024,-222.110001,14.28,6.3,1729429784065.0,0.0
-2.136791,-9.01137,-6.939186,-160.930008,-0.21,-6.86,1729429784086.0,0.0
-2.014757,-8.985049,-7.975278,-98.910004,1.19,-5.39,1729429784105.0,0.0
-2.876173,-7.503892,-8.003991,-21.700001,7.49,-4.13,1729429784126.0,0.0
-3.452843,-5.855237,-7.946564,3.36,12.81,-1.75,1729429784146.0,0.0
-3.598805,-6.333801,-8.114061,1.75,16.59,5.74,1729429784165.0,0.0
-3.716053,-7.051648,-8.472985,28.700001,26.530001,10.08,1729429784186.0,0.0
-3.536592,-7.506285,-7.300502,58.73,35.98,6.79,1729429784205.0,0.0
-3.574877,-6.821937,-6.192625,63.560001,40.599998,4.13,1729429784232.0,0.0
-3.651447,-8.46102,-6.305088,55.09,33.810001,1.68,1729429784245.0,0.0
-3.57727,-8.535198,-7.238289,96.669998,19.040001,2.94,1729429784264.0,0.0
-2.598605,-9.159724,-7.554141,164.850006,13.93,1.47,1729429784286.0,0.0
-2.634498,-7.704889,-5.017749,239.330002,22.82,7.7,1729429784305.0,0.0
-3.07717,-4.711468,-0.55992,242.130005,17.85,8.68,1729429784326.0,0.0
-3.754339,-6.238089,-3.163311,140.559998,-3.78,8.54,1729429784346.0,0.0
-3.022135,-10.126426,-5.749953,63.349998,-13.79,6.51,1729429784365.0,0.0
-2.309074,-12.026326,-5.871986,144.619995,-16.1,6.65,1729429784385.0,0.0
-2.321038,-11.10509,-4.051049,301.070007,-19.25,13.58,1729429784406.0,0.0
-2.600998,-10.325029,-3.562913,390.809998,-28.559999,15.47,1729429784426.0,0.0
-2.914458,-9.626326,-1.765903,370.440002,-26.530001,4.27,1729429784445.0,0.0
-3.005385,-9.992428,-0.708275,345.23999,-30.870001,4.34,1729429784465.0,0.0
-2.519642,-10.102496,0.37328,341.809998,-34.720001,-1.19,1729429784489.0,0.0
-3.122634,-7.470392,2.486143,306.529999,-23.799999,-12.46,1729429784504.0,0.0
-3.388237,-5.663811,5.4341,199.289993,-7.35,-17.290001,1729429784527.0,0.0
-3.050849,-5.505885,3.45045,44.170002,-7.35,-28.559999,1729429784546.0,0.0
-2.995814,-4.529613,1.22034,-114.379997,-7.98,-23.799999,1729429784564.0,0.0
-3.072384,-6.98465,-0.442672,-217.559998,-8.96,-17.360001,1729429784585.0,0.0
-1.773082,-7.575676,-1.112662,-274.399994,-3.71,-24.43,1729429784615.0,0.0
-1.871187,-10.13839,-0.026321,-316.470001,-8.26,-16.030001,1729429784626.0,0.0
-0.760918,-8.606983,-3.156133,-350.209991,-16.52,-31.219999,1729429784645.0,0.0
0.370888,-8.410772,-3.223132,-318.079987,-5.67,-18.549999,1729429784665.0,0.0
-0.531207,-9.497113,-6.673582,-311.01001,-5.25,-21.0,1729429784686.0,0.0
-1.129412,-11.636297,-6.695118,-268.23999,10.64,-31.780001,1729429784706.0,0.0
-2.151148,-12.016755,-6.029913,-202.369995,18.200001,-17.85,1729429784725.0,0.0
-1.722832,-10.320245,-6.190232,-73.150002,17.710001,-9.38,1729429784746.0,0.0
-1.349552,-10.059426,-4.876573,103.949997,9.45,27.09,1729429784765.0,0.0
-2.148755,-9.580862,-1.356731,219.940002,7.63,45.639999,1729429784786.0,0.0
-3.39063,-7.826923,1.311267,263.829987,57.82,28.35,1729429784804.0,0.0
-4.567898,-7.690532,-2.079363,251.790009,77.769997,18.200001,1729429784836.0,0.0
-3.704089,-7.353144,-0.634098,231.559998,17.15,48.439999,1729429784845.0,0.0
-2.323431,-9.839286,-0.782453,339.709991,-43.049999,75.32,1729429784865.0,0.0
-3.534199,-9.664611,2.589034,408.380005,9.31,52.009998,1729429784885.0,0.0
-7.317252,-6.647261,7.642675,394.519989,68.949997,51.869999,1729429784905.0,0.0
-7.456036,-5.613562,7.9011,203.910004,20.93,24.43,1729429784936.0,0.0
-4.441079,-8.386844,4.378866,3.71,-37.66,-1.75,1729429784946.0,0.0
-3.007778,-9.482756,4.110869,-49.91,-22.540001,-4.62,1729429784964.0,0.0
-2.517249,-9.906286,3.708875,4.69,2.1,2.17,1729429784985.0,0.0
-2.739782,-6.910471,5.422136,24.219999,12.53,6.09,1729429785005.0,0.0
-2.861816,-8.54477,3.282953,9.45,3.36,11.27,1729429785028.0,0.0
-2.648855,-8.961121,3.672983,-19.67,-7.21,11.9,1729429785044.0,0.0
-2.715853,-8.090133,4.065405,-23.030001,-4.83,10.64,1729429785065.0,0.0
-3.625126,-8.903693,3.828516,-50.330002,-1.47,7.07,1729429785085.0,0.0
-3.620341,-8.827123,3.809374,-95.059998,-12.53,2.38,1729429785107.0,0.0
-3.625126,-8.721838,3.981657,-129.850006,-15.4,-0.14,1729429785126.0,0.0
-3.495914,-8.23131,2.87378,-163.240005,-10.15,-10.22,1729429785145.0,0.0
-3.036492,-7.475177,0.909273,-219.100006,-4.27,-20.790001,1729429785164.0,0.0
-4.13719,-7.752745,0.567099,-278.670013,0.42,-18.059999,1729429785195.0,0.0
-5.489135,-6.67119,0.019143,-428.679993,-7.21,-35.349998,1729429785205.0,0.0
-5.513064,-6.092126,-4.280759,-514.220032,-48.93,-54.040001,1729429785225.0,0.0
-3.07717,-8.831908,-7.360322,-484.049988,-54.740002,-31.780001,1729429785246.0,0.0
-0.634098,-9.724431,-11.720046,-369.459991,-49.420002,-21.98,1729429785264.0,0.0
-1.323231,-10.928021,-9.071191,-166.320007,-13.58,0.84,1729429785285.0,0.0
-2.22054,-5.510671,-5.465207,-20.790001,23.1,-11.69,1729429785304.0,0.0
-4.161119,-2.979064,-5.723632,-68.459999,24.360001,-0.14,1729429785326.0,0.0
-3.196811,-6.987042,-7.197611,-176.050003,5.88,8.12,1729429785345.0,0.0
-2.435893,-8.829515,-6.072984,-210.699997,5.32,6.86,1729429785365.0,0.0
-2.644069,-9.305687,-7.664211,-146.860001,5.46,-6.65,1729429785385.0,0.0
-2.478964,-8.642875,-7.915457,-66.5,5.18,-9.8,1729429785404.0,0.0
-2.242075,-6.537192,-7.183254,-9.87,7.84,-9.38,1729429785426.0,0.0
-2.727818,-5.860023,-7.709675,-16.59,11.69,-4.48,1729429785445.0,0.0
-3.012564,-5.958128,-8.408379,-35.0,18.200001,-0.42,1729429785464.0,0.0
-2.878566,-7.221539,-8.786445,-16.17,25.200001,4.34,1729429785489.0,0.0
-2.62732,-6.673582,-8.224132,11.48,35.349998,3.29,1729429785504.0,0.0
-2.651247,-7.458428,-8.032705,58.939999,39.130001,7.21,1729429785526.0,0.0
-2.352145,-7.049256,-8.394022,91.699997,41.23,6.16,1729429785546.0,0.0
-3.096312,-8.133204,-7.819745,111.860001,41.299999,7.84,1729429785564.0,0.0
-2.359323,-10.260423,-5.182854,160.440002,38.150002,6.16,1729429785585.0,0.0
-2.880959,-7.121039,0.595813,238.419998,32.970001,8.4,1729429785604.0,0.0
-3.988836,-7.910671,-2.385644,210.559998,4.55,-7.28,1729429785627.0,0.0
-2.95035,-9.647861,-5.580062,123.550003,-20.860001,-8.4,1729429785644.0,0.0
-1.710868,-10.91845,-5.972485,155.050003,-27.860001,-0.28,1729429785664.0,0.0
-1.469193,-8.685946,-4.761717,248.779999,-22.68,7.63,1729429785684.0,0.0
-2.426322,-8.085347,-3.708875,335.790009,-22.82,19.530001,1729429785704.0,0.0
-2.59382,-8.872586,-2.210968,344.75,-25.41,17.92,1729429785726.0,0.0
-2.567499,-8.748159,-0.681954,309.049988,-28.0,20.02,1729429785744.0,0.0
-2.215754,-4.539185,-2.866602,252.630005,-24.99,27.790001,1729429785765.0,0.0
-3.378666,-8.894121,-1.239482,228.759995,3.5,40.810001,1729429785785.0,0.0
-3.811767,-11.045268,-2.457429,154.350006,6.02,14.21,1729429785804.0,0.0
-4.216154,-13.347164,-0.624527,165.759995,-3.92,6.51,1729429785825.0,0.0
-2.440679,-10.375278,0.387637,209.930008,3.01,1.19,1729429785845.0,0.0
-2.598605,-8.398808,4.027121,260.399994,12.53,-21.49,1729429785864.0,0.0
-3.065206,-5.134997,5.398208,232.050003,9.66,-37.240002,1729429785884.0,0.0
-3.428915,-7.281359,5.721239,191.169998,4.9,-33.25,1729429785905.0,0.0
-2.328217,-8.267202,5.938986,162.050003,-17.5,-57.470001,1729429785935.0,0.0
-1.899901,-6.616155,4.268795,163.169998,-7.84,-44.099998,1729429785944.0,0.0
-3.388237,-4.993821,5.718846,166.25,23.379999,-31.99,1729429785964.0,0.0
-3.766303,-4.63729,7.322037,138.389999,14.21,-24.219999,1729429785984.0,0.0
-2.859423,-4.536791,8.700303,84.279999,-9.73,-24.15,1729429786004.0,0.0
-2.388037,-3.962514,8.764909,22.049999,-11.97,-20.440001,1729429786026.0,0.0
-1.741975,-4.07737,7.384251,-41.93,-10.5,-10.85,1729429786044.0,0.0
-1.789831,-4.972286,6.876972,-119.07,-8.4,-6.51,1729429786064.0,0.0
-2.079363,-6.692725,5.194818,-212.660004,-7.63,-3.5,1729429786092.0,0.0
-1.823331,-8.798409,3.440879,-265.51001,-10.57,-13.440001,1729429786106.0,0.0
-2.335395,-10.365707,3.522235,-214.059998,-19.530001,-10.85,1729429786125.0,0.0
-0.588634,-10.896914,3.694518,-102.900002,-28.84,-2.52,1729429786145.0,0.0
-0.885344,-9.138189,4.766503,-11.27,-17.219999,9.31,1729429786164.0,0.0
-2.811567,-5.630312,4.902894,1.89,-1.05,23.799999,1729429786186.0,0.0
-3.498307,-5.895915,5.4006,-76.860001,-9.59,22.68,1729429786204.0,0.0
-2.708675,-5.551349,3.464807,-155.119995,-27.719999,20.51,1729429786235.0,0.0
-3.089134,-7.183254,2.883351,-178.710007,-23.66,28.210001,1729429786246.0,0.0
-3.900301,-9.166903,2.067399,-180.600006,-33.040001,29.33,1729429786265.0,0.0
-3.799802,-9.157332,-0.447458,-189.490005,-37.450001,22.469999,1729429786286.0,0.0
-3.76391,-10.559525,-1.557728,-168.910004,-34.860001,27.51,1729429786304.0,0.0
-2.313859,-11.047661,-2.244468,-138.669998,-44.59,17.639999,1729429786326.0,0.0
-2.306681,-12.454641,-2.995814,-101.5,-29.26,25.969999,1729429786345.0,0.0
-2.165504,-11.669796,0.172283,-34.580002,-18.27,19.530001,1729429786364.0,0.0
-1.708475,-9.949356,0.160319,30.450001,2.03,12.53,1729429786386.0,0.0
-1.998007,-9.568897,3.464807,17.57,22.4,-17.57,1729429786405.0,0.0
-2.062613,-9.870394,0.66999,5.04,3.71,-4.34,1729429786425.0,0.0
-1.311267,-9.174082,1.397408,27.51,-10.43,5.25,1729429786446.0,0.0
-2.591427,-8.195417,2.232504,-30.030001,14.91,7.84,1729429786466.0,0.0
-3.316452,-7.381857,1.036092,-148.75,11.55,-1.89,1729429786490.0,0.0
-2.589034,-7.908278,-2.397608,-250.25,-0.7,-1.47,1729429786506.0,0.0
-1.9669,-7.987241,-4.553542,-307.860016,2.24,9.73,1729429786527.0,0.0
-2.478964,-7.566105,-6.63769,-319.899994,21.280001,12.81,1729429786546.0,0.0
-4.034299,-9.65504,-2.273181,-312.899994,40.25,10.85,1729429786566.0,0.0
-7.958528,-5.642276,1.129412,-431.200012,24.85,-12.67,1729429786586.0,0.0
-5.056034,-15.187245,-10.722239,-381.5,-61.25,-26.530001,1729429786606.0,0.0
-0.495314,-10.956735,-8.16431,-150.430008,-73.709999,-2.17,1729429786627.0,0.0
-0.452243,-3.141776,-6.30748,-6.79,-12.39,-3.36,1729429786646.0,0.0
-3.854837,-2.959922,-5.793024,-45.639999,19.25,15.68,1729429786666.0,0.0
-2.943172,-5.862415,-5.721239,-157.990005,-1.68,23.799999,1729429786688.0,0.0
-1.591227,-8.927622,-5.855237,-177.449997,-15.54,31.710001,1729429786706.0,0.0
-2.904887,-6.76451,-8.025528,-124.669998,-15.54,19.530001,1729429786727.0,0.0
-4.103691,-6.147161,-9.470792,-51.869999,2.1,21.49,1729429786746.0,0.0
-3.24706,-7.195218,-9.611969,-64.470001,7.84,22.610001,1729429786766.0,0.0
-2.495714,-7.953743,-8.95155,-55.299999,14.7,18.48,1729429786786.0,0.0
-3.701697,-5.302495,-7.295716,24.219999,26.110001,13.23,1729429786810.0,0.0
-5.158926,-6.659225,-7.403394,14.0,25.9,18.9,1729429786826.0,0.0
-4.503292,-10.018748,-8.733803,69.720001,23.309999,26.18,1729429786847.0,0.0
-3.596412,-6.049056,-8.063812,162.470001,28.07,20.370001,1729429786867.0,0.0
-3.426522,-4.295116,-3.656233,159.740005,36.959999,23.309999,1729429786886.0,0.0
-2.825923,-4.85743,-3.830909,3.43,31.5,5.46,1729429786906.0,0.0
-1.892723,-9.382257,-5.438886,-86.519997,12.67,18.76,1729429786929.0,0.0
-0.918844,-8.073383,-5.304887,-6.44,6.86,3.43,1729429786946.0,0.0
-3.113062,-7.645068,-7.491928,50.959999,10.22,-4.9,1729429786965.0,0.0
-3.134598,-5.302495,-8.432307,40.459999,10.08,-10.29,1729429786986.0,0.0
-3.397808,-6.271588,-8.597411,15.96,9.87,-3.92,1729429787006.0,0.0
-3.251846,-8.628519,-10.356135,8.54,19.6,-7.98,1729429787027.0,0.0
-2.871387,-9.750752,-9.032906,95.760002,26.460001,-6.58,1729429787121.0,0.0
-2.227718,-3.546163,-4.843073,167.020004,45.990002,-12.18,1729429787129.0,0.0
-3.845266,-1.691726,-4.41715,97.370003,42.279999,-3.01,1729429787147.0,0.0
-2.510071,-7.692925,-7.319644,-50.75,12.81,8.54,1729429787162.0,0.0
-1.344766,-8.827123,-4.728218,-19.460001,13.86,13.23,1729429787167.0,0.0
-3.036492,-6.865008,-4.510471,69.300003,27.58,-0.84,1729429787170.0,0.0
-3.158526,-8.587841,-5.517848,56.84,8.19,0.84,1729429787178.0,0.0
-2.160719,-8.901299,-5.067998,95.690002,-5.32,2.45,1729429787186.0,0.0
-2.182254,-8.77448,-3.771089,165.830002,-11.62,6.65,1729429787206.0,0.0
-3.110669,-7.477571,-3.242275,186.899994,-9.87,9.8,1729429787227.0,0.0
-4.086941,-8.161918,-1.952543,132.089996,-7.49,11.34,1729429787246.0,0.0
-3.914658,-9.899107,-2.201397,57.119999,-22.68,9.73,1729429787266.0,0.0
-2.742175,-10.602598,-4.333402,56.630001,-44.170002,6.37,1729429787286.0,0.0
-2.656033,-10.040283,-5.017749,112.349998,-43.959999,7.49,1729429787306.0,0.0
-4.055835,-9.064013,-4.539185,164.220001,-1.89,-2.87,1729429787326.0,0.0
-4.134798,-9.499505,-5.120641,207.479996,-1.33,2.52,1729429787346.0,0.0
-3.146562,-8.504091,-2.725425,193.479996,-6.93,4.55,1729429787366.0,0.0
-3.680161,-9.616754,-1.134198,137.270004,12.88,-3.64,1729429787386.0,0.0
-3.065206,-9.202796,-0.583849,123.340004,-2.17,-7.0,1729429787405.0,0.0
-2.043471,-9.236296,-0.710668,122.150002,-17.360001,-4.83,1729429787426.0,0.0
-1.756332,-8.595018,-0.562313,81.900002,-16.59,-11.83,1729429787446.0,0.0
-1.995614,-8.185846,-0.55992,-29.889999,-0.91,-18.549999,1729429787466.0,0.0
-1.306481,-8.303094,-2.37368,-110.879997,-17.5,-18.690001,1729429787489.0,0.0
-1.28016,-9.279366,-2.799603,-116.340004,-24.99,-6.58,1729429787506.0,0.0
-2.084148,-10.949556,-2.266003,-42.77,-13.09,-2.94,1729429787528.0,0.0
-2.976671,-10.109675,-0.375673,62.23,14.7,-3.43,1729429787545.0,0.0
-3.914658,-8.329416,1.009771,125.020004,23.24,0.49,1729429787566.0,0.0
-4.472186,-7.314859,1.378266,96.18,11.41,9.1,1729429787587.0,0.0
-4.235296,-7.805387,0.535992,42.84,-3.5,15.75,1729429787605.0,0.0
-3.704089,-8.228917,-1.014557,47.740002,-13.58,27.860001,1729429787627.0,0.0
-2.859423,-7.269395,-1.859223,119.559998,-13.23,38.57,1729429787646.0,0.0
-3.330809,-9.028119,0.641276,221.199997,2.52,50.610001,1729429787665.0,0.0
-4.728218,-9.97807,2.840281,306.320007,35.560001,42.420002,1729429787686.0,0.0
-5.15414,-8.587841,4.055835,379.540009,16.52,38.990002,1729429787706.0,0.0
-4.381258,-6.185446,5.606383,425.390015,-4.48,48.860001,1729429787728.0,0.0
-4.15394,-8.161918,5.015356,436.799988,14.35,35.84,1729429787746.0,0.0
-6.369694,-8.764909,7.661818,395.360016,31.85,18.620001,1729429787765.0,0.0
-5.778666,-8.114061,8.135597,308.0,18.76,-3.01,1729429787787.0,0.0
-5.123034,-4.98425,9.568897,179.759995,-1.61,-18.41,1729429787805.0,0.0
-4.512863,-6.606583,7.659425,144.899994,-15.05,-30.66,1729429787951.0,0.0
-4.237689,-6.266802,7.166504,138.880005,-11.13,-42.139999,1729429787954.0,0.0
-4.398008,-4.826324,7.71446,140.210007,-7.63,-43.82,1729429787955.0,0.0
-4.15394,-3.141776,8.891729,136.149994,-18.27,-40.740002,1729429787956.0,0.0
-3.029313,-0.12682,8.73141,123.199997,-20.16,-33.389999,1729429787957.0,0.0
-3.29731,-1.962115,9.533006,98.419998,-27.51,-20.93,1729429787959.0,0.0
-4.141976,-4.342973,10.114462,76.090004,-39.619999,-35.490002,1729429787960.0,0.0
-3.113062,-2.684747,9.803394,85.82,-41.650002,-40.25,1729429787964.0,0.0
-3.464807,-0.870987,11.844472,72.519997,-34.16,-36.889999,1729429787986.0,0.0
-2.545963,0.397209,9.891929,4.48,-59.43,-47.880001,1729429788004.0,0.0
-2.610569,2.646462,9.461221,-7.98,-51.240002,-21.91,1729429788026.0,0.0
-3.139383,0.973879,6.886543,-59.43,-58.939999,-25.549999,1729429788044.0,0.0
-2.581856,-2.876173,6.546762,-71.120003,-64.540001,-24.43,1729429788065.0,0.0
-2.768496,-3.646662,8.745767,2.31,-48.509998,-23.309999,1729429788087.0,0.0
-3.440879,-1.469193,10.959127,88.970001,-39.48,-20.51,1729429788104.0,0.0
-1.902294,0.892523,11.265409,105.840004,-37.450001,-12.95,1729429788131.0,0.0
-1.550549,-1.789831,10.837094,-11.34,-51.869999,5.18,1729429788144.0,0.0
-1.37348,-3.256632,9.387043,-58.52,-62.369999,-10.85,1729429788165.0,0.0
-0.942772,-3.579663,8.114061,-39.130001,-52.150002,-3.29,1729429788185.0,0.0
0.16989,-4.273581,6.096912,-24.57,-47.110001,-6.79,1729429788204.0,0.0
-0.440279,-4.275974,5.900701,-19.950001,-37.310001,-16.799999,1729429788225.0,0.0
-2.160719,-3.402594,7.554141,-8.26,-27.719999,-11.62,1729429788245.0,0.0
-1.648655,-1.26341,8.803195,-8.75,-32.48,-13.72,1729429788267.0,0.0
-1.40698,-0.155533,10.492528,-15.82,-22.26,16.940001,1729429788285.0,0.0
-0.660419,-1.265803,10.810772,-110.32,-42.139999,0.56,1729429788305.0,0.0
-0.315853,-2.146362,9.205189,-178.009995,-52.5,7.35,1729429788328.0,0.0
0.555135,-2.861816,8.228917,-174.580002,-53.060001,19.32,1729429788348.0,0.0
0.734596,-3.65384,7.970492,-148.820007,-42.209999,24.85,1729429788366.0,0.0
1.375873,-3.227918,7.67139,-145.110001,-42.560001,27.719999,1729429788387.0,0.0
1.052842,-3.261417,5.730811,-160.649994,-25.200001,32.48,1729429788407.0,0.0
0.490529,-3.409772,4.350152,-187.740005,-9.24,31.57,1729429788427.0,0.0
0.011964,-4.520042,5.300103,-245.279999,12.46,42.91,1729429788446.0,0.0
-0.20339,-5.302495,3.471986,-289.519989,11.83,51.099998,1729429788466.0,0.0
-0.459422,-5.187639,1.98365,-300.51001,20.16,67.970001,1729429788491.0,0.0
-1.371087,-6.69751,2.050649,-287.350006,24.219999,88.340004,1729429788508.0,0.0
-1.765903,-6.005985,-0.940379,-323.26001,27.860001,84.910004,1729429788531.0,0.0
-2.081756,-3.019742,-2.696711,-355.459991,41.439999,109.340004,1729429788549.0,0.0
-3.37388,-8.573483,-3.59402,-388.640015,33.740002,136.850006,1729429788567.0,0.0
-4.656433,-9.008978,-7.188039,-503.860016,42.700001,97.230003,1729429788588.0,0.0
-6.826723,-13.964513,-8.437093,-543.549988,20.370001,80.57,1729429788607.0,0.0
-5.173282,-17.070396,-12.095718,-438.410004,-22.049999,51.380001,1729429788630.0,0.0
-2.026721,-18.058632,-11.971292,-182.070007,-33.810001,54.32,1729429788647.0,0.0
-0.397209,-16.993828,-7.226324,125.510002,-21.84,79.029999,1729429788669.0,0.0
-1.737189,-11.921042,-1.931008,308.700012,26.530001,58.170002,1729429788692.0,0.0
-5.338387,-6.652047,6.130411,342.929993,122.150002,2.38,1729429788707.0,0.0
-5.15414,-8.975478,-1.332802,259.209991,137.479996,3.22,1729429788729.0,0.0
-2.962314,-10.083356,0.337388,97.370003,9.94,22.82,1729429788748.0,0.0
-2.500499,-9.846465,0.760918,55.580002,18.83,13.440001,1729429788766.0,0.0
-3.074777,-8.341379,1.753939,100.309998,25.620001,8.26,1729429788788.0,0.0
-3.613162,-8.286345,0.854238,205.520004,5.81,24.5,1729429788807.0,0.0
-4.237689,-8.796017,2.921637,305.76001,-27.16,38.779999,1729429788828.0,0.0
-3.802195,-7.886744,6.23091,362.179993,-34.02,44.099998,1729429788851.0,0.0
-5.012963,-6.754939,7.594819,326.339996,0.35,31.57,1729429788867.0,0.0
-6.9009,-5.017749,7.133004,229.949997,2.03,38.849998,1729429788887.0,0.0
-6.34098,-5.962914,6.379266,107.940002,-20.370001,29.889999,1729429788909.0,0.0
-5.058427,-7.724032,5.587241,5.18,-30.52,15.4,1729429788929.0,0.0
-4.462614,-8.250452,4.797609,-30.24,-17.43,9.03,1729429788947.0,0.0
-4.833502,-7.396214,5.058427,-47.459999,8.12,3.92,1729429788967.0,0.0
-4.496114,-7.889136,4.295116,-61.459999,-8.19,4.76,1729429788988.0,0.0
-3.692125,-9.554541,4.393222,-38.009998,-24.780001,13.09,1729429789007.0,0.0
-4.029513,-9.272188,3.957729,-28.139999,-18.969999,5.95,1729429789032.0,0.0
-4.342973,-8.736196,4.658825,-38.639999,-22.120001,1.82,1729429789047.0,0.0
-3.57727,-7.652246,4.977071,-80.220001,-38.220001,-4.9,1729429789067.0,0.0
-2.928815,-8.336594,3.347559,-97.650002,-43.68,-16.66,1729429789088.0,0.0
-2.629712,-7.310073,2.533999,-101.290001,-37.59,-13.23,1729429789110.0,0.0
-2.842674,-7.470392,1.361516,-89.040001,-25.200001,-10.92,1729429789135.0,0.0
-3.842873,-6.769295,1.67019,-79.449997,-10.22,-6.44,1729429789148.0,0.0
-3.565305,-9.288938,-0.150748,-66.5,-16.73,-12.11,1729429789166.0,0.0
-3.06042,-10.100104,-0.179462,-62.650002,-9.52,-8.61,1729429789188.0,0.0
-2.67039,-8.77448,0.681954,-64.68,14.0,-15.47,1729429789208.0,0.0
-2.880959,-7.176075,1.629512,-113.82,35.0,-21.91,1729429789227.0,0.0
-3.168097,-6.4343,0.284746,-211.399994,34.650002,-29.82,1729429789248.0,0.0
-2.794817,-6.960721,-2.849852,-294.980011,16.799999,-30.309999,1729429789269.0,0.0
-3.397808,-9.906286,-1.931008,-327.600006,11.69,-17.01,1729429789287.0,0.0
-3.792624,-9.707682,-3.326023,-381.220001,7.77,-42.07,1729429789306.0,0.0
-4.689932,-8.563912,-3.541377,-454.790009,-2.45,-53.549999,1729429789327.0,0.0
-2.924029,-7.097112,-7.298109,-505.75,-21.210001,-64.959999,1729429789357.0,0.0
-2.646462,-15.452848,-7.235896,-409.360016,-35.349998,-36.259998,1729429789367.0,0.0
-0.421137,-6.183054,-4.65404,-152.600006,-14.42,-46.830002,1729429789387.0,0.0
-2.462214,-2.584249,-5.577669,-45.009998,11.48,-13.37,1729429789406.0,0.0
-3.677768,-6.321837,-4.977071,-172.059998,4.83,-9.8,1729429789445.0,0.0
-2.919244,-9.152546,-7.721639,-236.809998,-5.67,-8.26,1729429789453.0,0.0
-1.148555,-9.619147,-8.886944,-159.320007,-5.95,-0.56,1729429789473.0,0.0
-1.78026,-6.726225,-8.295916,-30.1,7.98,4.41,1729429789490.0,0.0
-3.424129,-4.986642,-8.382057,-1.75,18.27,6.65,1729429789508.0,0.0
-2.629712,-5.577669,-9.023334,-13.86,12.04,12.18,1729429789528.0,0.0
-2.447858,-5.130211,-8.769694,1.54,16.17,17.57,1729429789548.0,0.0
-3.349952,-5.601598,-8.228917,9.66,26.74,19.460001,1729429789567.0,0.0
-3.469593,-7.348359,-8.13799,20.16,27.09,19.460001,1729429789587.0,0.0
-3.220739,-8.013563,-8.202596,52.779999,37.52,12.11,1729429789607.0,0.0
-2.256432,-7.334002,-8.549555,96.669998,48.02,9.94,1729429789629.0,0.0
-1.533799,-5.915058,-7.022934,143.990005,54.950001,18.27,1729429789646.0,0.0
-2.682354,-6.128019,-1.691726,116.480003,52.57,21.49,1729429789667.0,0.0
-2.931208,-6.12084,-1.899901,48.16,23.17,10.78,1729429789687.0,0.0
-1.811367,-7.465607,-5.800202,9.8,-17.639999,11.97,1729429789706.0,0.0
-2.15354,-6.802795,-5.749953,17.360001,-20.51,7.42,1729429789727.0,0.0
-3.07717,-6.98465,-5.386244,14.21,-20.860001,1.68,1729429789747.0,0.0
-2.904887,-7.649854,-6.788438,-14.21,-30.59,-7.21,1729429789766.0,0.0
-2.56032,-8.252845,-8.559127,-10.01,-37.52,-10.01,1729429789786.0,0.0
-3.388237,-7.716853,-7.228717,19.110001,-23.450001,-11.2,1729429789806.0,0.0
-5.517848,-1.947758,-5.881558,39.34,-1.68,-7.28,1729429789826.0,0.0
-4.948357,-7.125826,-9.485149,59.150002,-17.15,13.86,1729429789846.0,0.0
-0.870987,-8.379664,-9.437292,76.93,-36.049999,22.68,1729429789866.0,0.0
-1.505085,-8.846266,-7.022934,117.459999,-11.62,29.68,1729429789886.0,0.0
-3.213561,-10.770095,-4.814359,172.339996,20.790001,15.54,1729429789905.0,0.0
-3.689733,-11.188839,-3.775874,261.029999,-1.75,19.950001,1729429789926.0,0.0
-2.761317,-10.528419,-4.632504,372.190002,-24.15,31.290001,1729429789946.0,0.0
-2.708675,-10.394422,-5.335995,420.980011,-10.99,31.219999,1729429789965.0,0.0
-2.931208,-9.719646,-3.644269,368.76001,21.91,4.41,1729429789986.0,0.0
-2.737389,-9.212367,-1.064806,278.670013,27.09,-4.13,1729429790005.0,0.0
-1.454836,-8.348558,-0.476172,202.580002,-1.26,-7.07,1729429790026.0,0.0
-2.974278,-9.470792,0.811167,173.809998,6.65,-4.13,1729429790048.0,0.0
-3.684947,-11.313265,3.20399,173.600006,27.790001,-26.530001,1729429790066.0,0.0
-2.328217,-12.234503,2.112862,214.550003,-30.66,-45.5,1729429790087.0,0.0
-1.464408,-8.652447,0.48335,242.410004,-8.05,-40.670002,1729429790106.0,0.0
-3.110669,-7.508677,3.0006,256.059998,24.219999,-23.799999,1729429790127.0,0.0
-4.39083,-6.597012,5.659025,182.630005,15.89,-36.82,1729429790148.0,0.0
-3.361916,-6.80758,5.893522,72.169998,-11.13,-46.130001,1729429790175.0,0.0
-2.672783,-7.549356,3.675375,7.21,-23.52,-40.740002,1729429790190.0,0.0
-2.182254,-8.070991,4.721039,38.5,-36.049999,-35.700001,1729429790207.0,0.0
-1.540978,-7.664211,4.895715,69.510002,-33.740002,-30.450001,1729429790228.0,0.0
-2.074577,-6.716653,4.13719,67.480003,-25.969999,-32.689999,1729429790247.0,0.0
-1.885544,-7.066005,3.917051,31.01,-34.02,-27.790001,1729429790266.0,0.0
-1.399801,-8.116454,5.223531,15.47,-41.720001,-26.67,1729429790288.0,0.0
-0.667598,-5.910272,6.838687,46.41,-33.25,-17.57,1729429790307.0,0.0
-1.229911,-2.538785,4.321437,98.0,-34.509998,9.03,1729429790328.0,0.0
-2.175076,-1.591227,4.362115,123.270004,2.38,30.52,1729429790348.0,0.0
-2.306681,-3.515057,6.144768,37.240002,-13.86,47.810001,1729429790368.0,0.0
-3.677768,-6.678369,5.831308,-191.449997,6.65,54.880001,1729429790388.0,0.0
-3.696911,-9.047262,3.955336,-255.009995,-5.04,51.52,1729429790410.0,0.0
-3.282953,-10.124033,3.78066,-226.100006,-29.889999,57.68,1729429790430.0,0.0
-2.711068,-10.363315,-0.01675,-177.309998,-24.15,47.389999,1729429790449.0,0.0
-2.404787,-10.612168,-0.210568,-135.729996,-3.78,40.599998,1729429790469.0,0.0
-2.713461,-12.076575,-0.624527,-114.520004,-2.87,32.27,1729429790490.0,0.0
-3.120241,-13.021741,0.861416,-68.25,1.26,10.08,1729429790510.0,0.0
-2.17029,-12.284752,3.639483,-4.13,-11.27,10.15,1729429790531.0,0.0
-0.681954,-9.79143,1.330409,31.5,-5.74,-1.82,1729429790550.0,0.0
-0.964308,-10.880164,2.036292,18.41,21.559999,-22.469999,1729429790570.0,0.0
-2.081756,-10.748559,2.900101,-65.519997,33.18,-26.389999,1729429790589.0,0.0
-1.634298,-10.492528,1.098306,-115.57,31.57,-15.61,1729429790609.0,0.0
-1.409373,-9.949356,2.799603,-154.699997,23.309999,-17.360001,1729429790630.0,0.0
-3.589234,-9.619147,5.364708,-214.619995,35.700001,-39.48,1729429790651.0,0.0
-2.589034,-12.191431,0.205783,-199.360001,1.47,-46.27,1729429790668.0,0.0
-0.612563,-9.999605,-0.385244,-157.5,-3.64,-39.48,1729429790689.0,0.0
-0.916451,-7.819745,0.892523,-116.480003,19.67,-32.900002,1729429790710.0,0.0
-4.127619,-7.721639,3.766303,-90.230003,32.27,-15.89,1729429790732.0,0.0
-4.266403,-9.224331,2.084148,-87.080002,-7.7,-12.46,1729429790751.0,0.0
-2.014757,-8.843873,-0.547956,-98.840004,-41.02,-3.71,1729429790769.0,0.0
-1.447658,-9.119047,-2.624927,-103.599998,-32.830002,1.96,1729429790789.0,0.0
-2.203789,-7.76471,-2.622534,-118.720001,-7.07,-0.28,1729429790808.0,0.0
-2.206182,-6.853044,-2.825923,-110.529999,0.28,4.48,1729429790831.0,0.0
-2.641676,-9.698111,-3.460021,-91.559998,-5.04,17.15,1729429790849.0,0.0
-2.557927,-9.343972,-3.460021,-83.300003,5.88,17.639999,1729429790868.0,0.0
-2.304288,-8.896514,-3.29731,-73.919998,6.65,16.870001,1729429790893.0,0.0
-1.844866,-11.243874,-4.759324,-76.370003,-11.76,18.129999,1729429790908.0,0.0
-1.11027,-9.38465,-4.716253,-36.049999,-1.89,11.48,1729429790930.0,0.0
-2.07697,-8.372486,-3.519842,28.0,9.17,16.59,1729429790950.0,0.0
-2.742175,-7.348359,-3.493521,11.97,9.94,15.190001,1729429790969.0,0.0
-2.184647,-7.551748,-3.469593,-41.16,1.26,22.889999,1729429790988.0,0.0
-2.088934,-8.178668,-3.522235,-71.889999,-2.1,28.42,1729429791009.0,0.0
-3.132205,-8.006385,-5.52742,-84.980003,-0.14,21.280001,1729429791029.0,0.0
-3.634698,-7.563712,-6.45105,-126.139999,9.45,17.360001,1729429791049.0,0.0
-3.419343,-9.064013,-5.343173,-168.350006,2.87,14.91,1729429791070.0,0.0
-2.347359,-9.001799,-6.982256,-149.940002,-8.54,9.1,1729429791090.0,0.0
-2.354537,-8.204988,-7.377072,-137.410004,2.17,-1.47,1729429791109.0,0.0
-2.512464,-7.190433,-7.546963,-129.009995,11.83,-1.47,1729429791132.0,0.0
-2.610569,-7.441679,-8.274381,-125.230003,16.799999,7.49,1729429791149.0,0.0
-2.490928,-8.109276,-8.181061,-119.0,29.889999,13.79,1729429791168.0,0.0
-2.301895,-9.317651,-6.76451,-103.32,33.25,14.35,1729429791189.0,0.0
-2.067399,-8.317451,-6.015556,-35.279999,27.370001,7.84,1729429791210.0,0.0
-2.323431,-6.91765,-5.876772,8.82,21.07,6.44,1729429791230.0,0.0
-2.218147,-7.869993,-5.69731,10.15,14.28,9.17,1729429791250.0,0.0
-1.940579,-7.752745,-5.991628,35.349998,3.36,7.49,1729429791269.0,0.0
-2.739782,-6.762117,-6.853044,58.170002,-0.42,-0.84,1729429791290.0,0.0
-2.880959,-6.821937,-8.508877,47.32,2.94,-2.73,1729429791309.0,0.0
-2.404787,-6.91765,-8.46102,53.619999,9.38,1.82,1729429791331.0,0.0
-1.964507,-5.900701,-7.649854,74.059998,19.460001,4.83,1729429791349.0,0.0
-1.375873,-6.45105,-5.314459,61.670002,20.51,18.27,1729429791368.0,0.0
-1.660619,-7.202396,-5.627919,45.5,16.59,22.469999,1729429791390.0,0.0
-2.711068,-9.542577,-7.334002,84.419998,12.53,25.34,1729429791410.0,0.0
-3.282953,-9.085547,-6.221339,122.779999,22.190001,21.49,1729429791430.0,0.0
-3.39063,-7.01097,-5.261817,132.860001,29.190001,12.25,1729429791450.0,0.0
-3.06042,-7.192825,-4.252046,121.520004,19.809999,13.58,1729429791469.0,0.0
-2.87378,-8.980263,-4.599005,111.090004,8.12,15.12,1729429791493.0,0.0
-2.868994,-10.210175,-4.256832,120.050003,-4.55,3.85,1729429791508.0,0.0
-3.072384,-10.595419,-3.431308,126.770004,-4.27,-7.7,1729429791529.0,0.0
-3.050849,-9.726824,-2.143969,131.110001,-5.88,-13.3,1729429791553.0,0.0
-2.438286,-9.863215,-4.223332,184.940002,-26.809999,-11.34,1729429791568.0,0.0
-2.143969,-9.829715,-5.462814,263.410004,-48.650002,4.41,1729429791589.0,0.0
-2.347359,-9.473185,-4.393222,344.190002,-37.939999,14.63,1729429791608.0,0.0
-3.196811,-7.341179,-3.900301,429.380005,-9.73,23.59,1729429791629.0,0.0
-3.337988,-9.415757,-0.26321,444.98999,8.82,21.42,1729429791648.0,0.0
-2.935993,-7.822137,2.787638,240.380005,8.68,-8.05,1729429791669.0,0.0
-2.179861,-7.018148,4.472186,96.459999,-23.030001,10.78,1729429791690.0,0.0
-1.050449,-4.268795,5.295317,-78.540001,-13.23,-15.68,1729429791708.0,0.0
-2.072184,-3.134598,2.443072,-286.649994,9.59,-30.52,1729429791730.0,0.0
-3.754339,-7.546963,-1.057628,-407.26001,-15.82,-30.799999,1729429791750.0,0.0
-1.775474,-10.695917,-3.287738,-411.670013,-36.189999,-34.299999,1729429791768.0,0.0
0.646062,-8.054241,-2.931208,-358.470001,-27.51,-17.360001,1729429791789.0,0.0
-0.973879,-12.279965,-6.549156,-333.829987,-17.57,-30.030001,1729429791808.0,0.0
-0.588634,-10.315458,-4.953143,-348.179993,-4.2,-63.77,1729429791828.0,0.0
-1.141376,-11.980864,-4.953143,-348.670013,2.52,-54.529999,1729429791848.0,0.0
0.887737,-7.348359,-8.539984,-306.880005,-26.530001,-52.080002,1729429791870.0,0.0
-0.066999,-6.740582,-10.212566,-139.440002,-23.66,1.26,1729429791889.0,0.0
-1.359123,-9.595219,-7.633104,69.090004,10.01,10.64,1729429791910.0,0.0
-4.821537,-11.315658,-1.5003,207.199997,69.580002,20.16,1729429791931.0,0.0
-4.773681,-5.508278,-3.828516,288.470001,109.620003,-11.9,1729429791948.0,0.0
-4.639683,-7.834101,-5.850451,348.880005,50.119999,52.5,1729429791970.0,0.0
-4.003192,-7.867601,-1.009771,329.980011,-13.51,66.5,1729429791988.0,0.0
-3.122634,-7.750352,-1.031307,354.899994,46.549999,36.82,1729429792009.0,0.0
-2.378466,-8.154739,-2.443072,404.390015,14.35,60.970001,1729429792029.0,0.0
-1.550549,-4.680361,0.942772,423.5,-9.17,79.099998,1729429792104.0,0.0
-4.524827,-7.274181,6.690332,444.290009,42.420002,112.980003,1729429792109.0,0.0
-7.625926,-9.690931,9.425328,368.690002,67.129997,38.43,1729429792109.0,0.0
-7.068398,-9.138189,5.513064,140.699997,34.509998,22.75,1729429792110.0,0.0
-3.778267,-8.147561,4.914857,-25.48,-25.41,11.2,1729429792132.0,0.0
-4.132405,-8.508877,8.030313,15.26,-26.950001,28.42,1729429792149.0,0.0
-2.11047,-7.9681,2.773281,130.619995,-10.92,14.63,1729429792168.0,0.0
-3.512664,-7.046863,5.111069,222.320007,4.76,26.32,1729429792189.0,0.0
-4.907679,-6.745367,7.190433,220.009995,21.91,35.420002,1729429792214.0,0.0
-4.606184,-5.558527,7.190433,140.350006,12.18,18.129999,1729429792229.0,0.0
-4.177868,-4.455436,6.396015,57.119999,8.33,20.02,1729429792248.0,0.0
-3.972085,-4.462614,5.118248,-8.82,8.47,23.52,1729429792269.0,0.0
-4.350152,-6.924829,6.575477,-68.809998,7.07,25.690001,1729429792288.0,0.0
-4.156333,-8.628519,6.005985,-139.789993,2.03,-0.7,1729429792308.0,0.0
-3.292524,-7.554141,4.486543,-253.330002,1.54,-19.6,1729429792329.0,0.0
-2.825923,-6.539584,-0.375673,-263.200012,-5.88,-11.13,1729429792348.0,0.0
-2.620141,-11.095518,-0.035892,-150.990005,-13.440001,1.12,1729429792368.0,0.0
-3.113062,-10.499706,3.04367,-7.77,6.79,-15.190001,1729429792389.0,0.0
-4.09412,-8.803195,6.599405,96.18,21.35,-10.85,1729429792408.0,0.0
-4.792823,-7.80778,8.109276,31.290001,25.76,-17.780001,1729429792429.0,0.0
-4.409972,-6.56112,6.642475,-153.509995,2.45,-30.380001,1729429792449.0,0.0
-3.888337,-7.458428,4.811966,-326.130005,-18.129999,-44.73,1729429792468.0,0.0
-4.931608,-8.429914,4.266403,-446.809998,-31.01,-57.470001,1729429792491.0,0.0
-4.445865,-10.51167,0.753739,-502.459991,-52.009998,-76.720001,1729429792509.0,0.0
-2.423929,-7.690532,-0.289532,-476.910004,-61.32,-87.150002,1729429792530.0,0.0
-1.875973,-5.912664,-5.860023,-389.549988,-57.470001,-65.660004,1729429792550.0,0.0
-1.258625,-7.582855,-5.630312,-254.380005,-43.75,-40.32,1729429792570.0,0.0
-1.74676,-9.559326,-2.964707,-128.309998,-25.34,-8.4,1729429792590.0,0.0
-1.954936,-2.433501,-6.180661,-105.699997,-14.84,-15.4,1729429792611.0,0.0
-2.435893,-2.033899,-10.928021,-252.419998,-6.09,4.76,1729429792633.0,0.0
-3.550949,-4.63729,-3.689733,-371.910004,7.07,17.219999,1729429792650.0,0.0
-3.39063,-10.997414,-10.930414,-399.070007,-0.7,2.45,1729429792670.0,0.0
-1.414158,-13.016955,-9.253045,-230.580002,-15.12,8.4,1729429792692.0,0.0
-1.880759,-6.979864,-6.364908,-31.639999,3.57,-8.61,1729429792709.0,0.0
-4.388437,-3.87398,-5.374279,-5.04,13.79,0.98,1729429792733.0,0.0
-3.129812,-4.871787,-6.640083,-81.550003,-3.36,13.79,1729429792750.0,0.0
-1.74676,-6.793223,-9.363115,-87.5,-12.88,21.0,1729429792771.0,0.0
-2.790031,-7.223931,-9.68136,-31.780001,-0.42,21.0,1729429792791.0,0.0
-3.337988,-5.570491,-9.927821,1.82,7.42,17.780001,1729429792810.0,0.0
-3.101098,-5.742774,-9.422935,13.65,15.75,20.65,1729429792840.0,0.0
-3.596412,-6.537192,-8.149954,25.83,25.129999,20.51,1729429792852.0,0.0
-4.436293,-7.980063,-7.82453,37.310001,31.780001,14.7,1729429792872.0,0.0
-2.845066,-7.953743,-9.260223,86.519997,23.309999,6.09,1729429792892.0,0.0
-1.18684,-7.293324,-7.01097,154.279999,24.08,10.08,1729429792910.0,0.0
-3.314059,-4.890929,-1.655833,188.160004,32.060001,13.02,1729429792935.0,0.0
-3.285345,-6.922436,-7.159326,-24.219999,-2.73,-2.87,1729429792950.0,0.0
-0.952343,-9.339187,-7.317252,-5.04,-16.799999,4.27,1729429792970.0,0.0
-2.325824,-7.700103,-8.640482,70.980003,2.31,-10.99,1729429792990.0,0.0
-1.825724,-9.772287,-10.018748,94.709999,8.54,-10.99,1729429793010.0,0.0
-0.495314,-3.775874,-4.419543,163.029999,24.92,-11.62,1729429793031.0,0.0
-3.716053,-3.605984,-4.974678,77.349998,36.889999,-8.33,1729429793049.0,0.0
-3.35713,-6.343372,-7.625926,-34.93,16.17,0.49,1729429793071.0,0.0
-2.127219,-9.595219,-5.623133,25.059999,4.55,13.93,1729429793091.0,0.0
-1.631905,-8.927622,-6.63769,117.18,12.46,6.72,1729429793109.0,0.0
-1.643869,-6.049056,-5.536992,226.729996,4.27,18.059999,1729429793131.0,0.0
-3.237489,-8.042276,-1.294517,262.360016,15.61,19.879999,1729429793151.0,0.0
-2.837888,-9.939785,-1.969293,186.059998,-7.84,12.32,1729429793170.0,0.0
-1.229911,-10.985448,-2.014757,201.039993,-38.5,26.6,1729429793189.0,0.0
-2.17029,-8.973085,-2.024328,270.970001,-34.580002,28.07,1729429793209.0,0.0
-4.673182,-8.671589,-0.571885,288.190002,8.12,29.68,1729429793232.0,0.0
-5.589634,-9.640682,-0.98345,231.070007,4.97,29.33,1729429793249.0,0.0
-3.261417,-12.01197,0.435494,151.059998,-20.93,17.780001,1729429793271.0,0.0
-2.24686,-11.743973,2.644069,155.259995,-19.6,10.99,1729429793291.0,0.0
-1.868794,-6.269196,1.837688,91.419998,-4.13,-15.96,1729429793309.0,0.0
-3.041277,-2.514857,2.366502,-55.299999,-6.02,-6.02,1729429793331.0,0.0
-4.211368,-6.118448,-0.002393,-164.639999,-16.450001,4.69,1729429793349.0,0.0
-3.562913,-9.12144,-0.823131,-193.690002,-42.91,-9.52,1729429793371.0,0.0
-4.134798,-11.55494,-1.509871,-193.410004,-44.099998,-12.74,1729429793389.0,0.0
-4.4674,-12.074183,-5.015356,-251.860001,-54.599998,-49.07,1729429793411.0,0.0
-3.431308,-9.760324,-5.525027,-274.679993,-57.119999,-47.110001,1729429793431.0,0.0
-2.749353,-7.826923,-7.322037,-300.579987,-57.959999,-51.099998,1729429793450.0,0.0
-1.871187,-8.116454,-8.197811,-287.070007,-21.84,-42.349998,1729429793470.0,0.0
-1.567299,-7.274181,-7.223931,-211.960007,30.380001,-27.790001,1729429793504.0,0.0
-2.584249,-5.005785,-4.723432,-146.649994,58.52,-14.77,1729429793511.0,0.0
-4.058227,-6.553941,-4.539185,-194.949997,45.150002,-11.76,1729429793531.0,0.0
-3.682554,-8.889337,-1.021735,-199.009995,20.299999,5.95,1729429793550.0,0.0
-2.050649,-7.262216,-1.529014,-57.119999,-13.72,8.33,1729429793571.0,0.0
-3.52702,-3.601198,-5.65424,-3.36,-26.950001,16.379999,1729429793590.0,0.0
-3.383451,-8.906086,-8.693125,-68.949997,-21.139999,22.82,1729429793610.0,0.0
-1.270589,-8.391629,-7.590034,-35.77,-24.219999,29.469999,1729429793641.0,0.0
-1.275374,-6.001199,-7.673782,38.639999,-20.65,25.83,1729429793649.0,0.0
-2.402394,-7.463214,-11.052447,29.26,-5.74,28.559999,1729429793669.0,0.0
-2.199004,-11.20798,-13.349558,39.619999,9.66,28.559999,1729429793689.0,0.0
-1.938186,-11.899508,-9.745967,161.210007,39.41,23.309999,1729429793710.0,0.0
-2.242075,-8.281559,-6.281159,308.070007,69.019997,15.61,1729429793733.0,0.0
-3.160919,-5.309673,-2.524428,377.089996,77.699997,12.18,1729429793751.0,0.0
-4.108476,-4.051049,-1.464408,312.410004,61.670002,15.61,1729429793769.0,0.0
-3.919443,-6.525227,-2.208575,218.399994,51.59,26.950001,1729429793789.0,0.0
-2.85703,-9.217153,-1.947758,201.180008,43.470001,33.880001,1729429793810.0,0.0
-3.189633,-10.461421,-1.581656,268.589996,29.469999,36.119999,1729429793830.0,0.0
-3.677768,-8.839087,-2.275574,301.350006,30.24,31.01,1729429793851.0,0.0
-3.536592,-9.169296,-1.095913,291.970001,23.52,35.490002,1729429793869.0,0.0
-3.778267,-8.52802,2.514857,282.100006,-3.36,41.16,1729429793891.0,0.0
-4.132405,-7.975278,6.465407,273.630005,-11.69,44.52,1729429793911.0,0.0
-4.73061,-7.467999,6.357729,225.470001,2.73,18.620001,1729429793931.0,0.0
-3.407379,-8.788837,1.59362,119.559998,-13.16,-5.46,1729429793950.0,0.0
-4.204189,-8.556733,4.98425,55.369999,-19.950001,20.58,1729429793969.0,0.0
-4.682754,-7.161718,2.658426,134.190002,-1.26,16.030001,1729429793991.0,0.0
-4.67079,-7.188039,4.156333,153.300003,5.6,-4.97,1729429794009.0,0.0
-5.144568,-8.49452,5.56092,109.270004,-6.44,9.03,1729429794031.0,0.0
-4.926822,-9.272188,6.252446,42.420002,-12.88,-8.05,1729429794049.0,0.0
-4.493721,-8.044669,4.790431,-0.35,-16.1,-11.06,1729429794071.0,0.0
-3.007778,-5.977271,3.208775,-61.32,-12.11,-20.16,1729429794091.0,0.0
-3.24706,-5.099105,6.295516,-119.770004,-3.15,-7.21,1729429794109.0,0.0
-2.756532,-7.338787,4.0008,-123.620003,-15.61,15.82,1729429794129.0,0.0
-2.292324,-8.638089,2.098505,-114.520004,-30.309999,-12.88,1729429794149.0,0.0
-3.517449,-10.140782,1.29691,-93.169998,-4.9,6.23,1729429794170.0,0.0
-3.366701,-9.54497,1.694118,-72.309998,-1.33,-9.73,1729429794189.0,0.0
-3.302095,-9.815358,1.660619,-61.040001,3.22,0.14,1729429794210.0,0.0
-2.778067,-10.179067,0.981057,-64.75,5.18,-16.24,1729429794229.0,0.0
-2.818745,-9.750752,2.213361,-78.610001,12.67,-13.86,1729429794249.0,0.0
-3.457629,-8.764909,3.553342,-107.940002,16.379999,-16.73,1729429794271.0,0.0
-3.9338,-8.135597,2.694318,-203.419998,6.16,-34.09,1729429794291.0,0.0
-3.481557,-7.889136,-0.256032,-290.850006,-10.92,-44.170002,1729429794310.0,0.0
-4.101298,-8.906086,3.010171,-355.390015,-36.259998,-43.189999,1729429794330.0,0.0
-4.316652,-9.954143,-0.89013,-371.420013,-57.68,-44.52,1729429794349.0,0.0
-2.199004,-8.23131,-3.199204,-281.540009,-58.939999,-42.77,1729429794370.0,0.0
-2.620141,-5.498707,-2.574677,-238.910004,-50.330002,-23.24,1729429794391.0,0.0
-2.76371,-4.960321,-6.898508,-279.089996,-20.719999,-26.32,1729429794409.0,0.0
-2.117648,-8.341379,-7.075576,-271.179993,-35.91,7.98,1729429794430.0,0.0
-1.201197,-5.072784,-6.642475,-188.229996,-28.139999,6.79,1729429794451.0,0.0
-2.842674,-1.476372,-9.446864,-178.850006,-4.34,17.85,1729429794470.0,0.0
-3.235096,-5.575277,-10.750952,-223.930008,-0.49,32.34,1729429794492.0,0.0
-3.790231,-9.645468,-8.015956,-259.209991,9.31,23.870001,1729429794510.0,0.0
-2.311467,-12.882957,-9.276974,-180.110001,4.97,0.98,1729429794530.0,0.0
-0.430708,-10.4016,-8.286345,-28.280001,1.68,-4.97,1729429794551.0,0.0
-2.304288,-5.237889,-6.218946,67.059998,19.32,-4.76,1729429794569.0,0.0
-3.773481,-5.601598,-7.185646,26.67,23.030001,7.07,1729429794589.0,0.0
-2.818745,-8.563912,-9.190832,-3.22,20.23,20.93,1729429794609.0,0.0
-3.701697,-8.537591,-8.063812,77.699997,41.09,17.360001,1729429794631.0,0.0
-4.09412,-8.676375,-7.379465,111.440002,47.110001,7.28,1729429794648.0,0.0
-3.503092,-9.817751,-6.290731,133.699997,40.529999,-0.98,1729429794670.0,0.0
-2.993421,-8.587841,-5.395815,171.149994,29.33,-7.7,1729429794690.0,0.0
-3.428915,-9.346365,-3.311667,209.369995,18.34,-9.03,1729429794708.0,0.0
-3.869194,-9.439686,-2.770889,243.669998,6.44,-15.4,1729429794731.0,0.0
-3.601198,-8.709875,-4.07737,245.559998,-10.85,-16.379999,1729429794749.0,0.0
-2.790031,-7.73121,-3.816552,207.199997,-23.66,-12.11,1729429794769.0,0.0
-2.474179,-8.013563,-3.888337,181.300003,-27.65,-1.68,1729429794790.0,0.0
-2.230111,-9.226725,-3.682554,259.700012,-32.689999,14.7,1729429794808.0,0.0
-2.813959,-7.456036,-6.690332,367.290009,-26.460001,37.66,1729429794830.0,0.0
-2.943172,-9.171689,-3.416951,434.420013,4.27,49.279999,1729429794849.0,0.0
-2.840281,-8.597411,-1.981257,374.709991,7.63,36.82,1729429794868.0,0.0
-2.251646,-9.525827,-1.603191,312.690002,11.97,20.23,1729429794889.0,0.0
-2.469393,-9.643075,0.705883,222.669998,20.09,-0.14,1729429794911.0,0.0
-2.112862,-9.47797,2.95035,125.860001,16.52,-25.059999,1729429794931.0,0.0
-3.105884,-8.992228,3.672983,79.590004,-3.57,-33.459999,1729429794950.0,0.0
-3.215954,-8.475377,4.280759,121.379997,-1.05,-43.119999,1729429794970.0,0.0
-3.294917,-6.599405,6.053841,144.410004,-9.52,-46.689999,1729429794989.0,0.0
-3.742374,-5.833702,6.960721,133.770004,-21.42,-30.380001,1729429795009.0,0.0
-3.395415,-4.68754,7.235896,86.379997,-27.58,-25.129999,1729429795032.0,0.0
-2.447858,-4.206582,6.022735,26.67,-33.25,-8.4,1729429795051.0,0.0
-2.452643,-4.87418,6.185446,-51.240002,-23.59,-9.03,1729429795070.0,0.0
-2.555535,-6.02752,5.144568,-136.149994,-17.710001,-5.04,1729429795089.0,0.0
-2.667997,-7.178468,3.835695,-196.419998,-11.06,-2.45,1729429795108.0,0.0
-1.87358,-8.504091,2.122434,-216.229996,-17.5,-3.01,1729429795129.0,0.0
-1.722832,-9.489935,1.538585,-193.199997,-26.25,5.04,1729429795150.0,0.0
-1.308874,-10.640882,1.76351,-143.220001,-40.459999,4.9,1729429795168.0,0.0
-1.641476,-11.021341,2.009971,-76.790001,-41.580002,5.46,1729429795188.0,0.0
-2.311467,-10.377672,2.658426,-3.57,-36.959999,0.56,1729429795211.0,0.0
-2.457429,-6.996613,2.352145,66.5,-42.139999,18.48,1729429795230.0,0.0
-2.337788,-5.508278,3.172883,67.480003,-29.68,40.040001,1729429795250.0,0.0
-1.904687,-5.096712,3.680161,-35.139999,-56.07,44.170002,1729429795269.0,0.0
-3.445665,-5.515456,1.136591,-170.869995,-54.810001,56.98,1729429795290.0,0.0
-4.192225,-10.669596,-3.555735,-286.369995,-55.439999,58.450001,1729429795309.0,0.0
-3.828516,-13.4022,-6.836295,-243.880005,-39.200001,37.240002,1729429795331.0,0.0
-3.661019,-15.041284,-8.020741,-112.279999,-2.73,31.01,1729429795349.0,0.0
-2.916851,-13.28495,-7.305287,-8.12,35.700001,15.26,1729429795368.0,0.0
-3.34038,-11.13859,-0.447458,39.549999,50.610001,0.14,1729429795391.0,0.0
-2.622534,-9.485149,2.514857,46.41,44.52,1.82,1729429795409.0,0.0
-1.931008,-7.142576,4.252046,41.650002,27.790001,10.36,1729429795430.0,0.0
-2.37368,-7.922636,2.48375,25.690001,25.76,-0.35,1729429795450.0,0.0
-3.701697,-7.858029,2.481357,-38.779999,33.670002,-0.77,1729429795468.0,0.0
-3.85723,-9.071191,0.641276,-139.649994,30.24,-9.59,1729429795492.0,0.0
-3.342773,-9.257831,-1.344766,-241.919998,19.32,-10.85,1729429795509.0,0.0
-2.273181,-8.752945,-3.278167,-280.070007,10.71,-1.68,1729429795530.0,0.0
-3.120241,-9.678967,-0.31346,-307.230011,17.92,-3.78,1729429795548.0,0.0
-8.590233,-7.953743,0.555135,-365.75,-5.39,-20.16,1729429795570.0,0.0
-3.5007,-9.533006,-8.068598,-240.380005,-37.380001,-30.24,1729429795589.0,0.0
-1.430908,-9.128618,-11.040483,-207.970001,-56.420002,-3.43,1729429795609.0,0.0
-1.20359,-8.80798,-8.300702,-153.930008,-4.34,14.49,1729429795629.0,0.0
-2.210968,-4.163511,-3.617948,3.71,37.799999,12.74,1729429795648.0,0.0
-4.699504,-5.146961,-2.457429,-29.33,35.0,16.73,1729429795669.0,0.0
-3.249453,-7.783852,-4.572684,-122.290001,-7.35,17.99,1729429795692.0,0.0
-1.514657,-7.585248,-7.551748,-130.270004,-15.26,20.02,1729429795710.0,0.0
-3.132205,-6.096912,-7.661818,-83.790001,11.69,23.379999,1729429795730.0,0.0
-4.194618,-7.745567,-8.537591,-58.029999,15.75,28.0,1729429795748.0,0.0
-3.936193,-8.834301,-8.618947,-55.09,17.5,20.299999,1729429795767.0,0.0
-3.878766,-8.599805,-7.573284,-48.09,26.880001,14.63,1729429795789.0,0.0
-3.452843,-7.76471,-7.872386,-18.41,30.030001,5.95,1729429795807.0,0.0
-3.304488,-9.669396,-10.049855,11.27,34.720001,9.94,1729429795838.0,0.0
-1.942972,-9.365508,-5.371887,78.889999,43.330002,6.79,1729429795850.0,0.0
-4.797609,-3.646662,1.115055,70.209999,48.650002,-7.07,1729429795869.0,0.0
-5.168497,-9.097511,-5.091926,-34.23,-1.47,-15.82,1729429795890.0,0.0
-1.923829,-9.284152,-8.537591,-36.75,-21.210001,-16.66,1729429795908.0,0.0
-2.991028,-6.723832,-8.671589,14.49,3.08,-22.68,1729429795930.0,0.0
-1.818545,-6.707082,-8.870193,64.610001,9.03,-24.219999,1729429795949.0,0.0
-2.084148,-6.041877,-8.989835,134.960007,11.9,-12.6,1729429795970.0,0.0
-1.969293,-5.635098,-6.80758,145.529999,21.700001,-15.33,1729429795990.0,0.0
-3.050849,-6.821937,-6.022735,160.930008,23.59,-3.5,1729429796009.0,0.0
-2.902494,-8.566305,-5.639884,177.449997,16.940001,-7.7,1729429796030.0,0.0
-3.160919,-5.953342,-2.088934,197.820007,13.02,-1.68,1729429796055.0,0.0
-3.345166,-8.379664,-2.194218,180.460007,-4.2,-4.69,1729429796070.0,0.0
-2.273181,-10.475778,-2.335395,161.699997,-31.290001,-6.3,1729429796089.0,0.0
-1.770689,-12.23211,-2.019542,208.949997,-52.009998,-2.59,1729429796108.0,0.0
-1.454836,-9.279366,-4.649254,255.5,-48.860001,-7.7,1729429796129.0,0.0
-1.414158,-8.669197,-5.319244,270.480011,-28.84,-1.75,1729429796149.0,0.0
-2.416751,-9.688539,-3.529413,241.850006,-13.3,-2.38,1729429796171.0,0.0
-2.751746,-6.721439,0.009571,206.779999,5.25,1.33,1729429796190.0,0.0
-1.801795,-4.73061,-0.380459,116.900002,17.360001,-2.87,1729429796209.0,0.0
-2.09372,-4.331009,-1.361516,-58.170002,37.799999,-15.33,1729429796231.0,0.0
-3.227918,-9.458827,-3.012564,-228.550003,24.92,-6.37,1729429796250.0,0.0
-2.277967,-4.931608,-2.62732,-286.649994,-0.84,-12.39,1729429796269.0,0.0
-4.235296,-10.109675,-1.347159,-156.100006,4.2,29.049999,1729429796291.0,0.0
-2.234896,-7.951349,-2.677568,-154.630005,29.82,-17.15,1729429796308.0,0.0
-2.474179,-9.901501,-4.618148,-179.339996,11.97,23.379999,1729429796331.0,0.0
-1.4668,-9.786645,-7.838887,-174.649994,4.06,12.6,1729429796349.0,0.0
-2.313859,-11.88515,-5.891129,-100.730003,30.59,28.0,1729429796371.0,0.0
-2.249253,-9.623933,-2.782853,-15.96,28.559999,20.790001,1729429796389.0,0.0
-3.156133,-7.422535,-1.225125,98.07,19.6,37.380001,1729429796409.0,0.0
-3.74716,-6.405586,-1.607977,114.309998,10.99,35.560001,1729429796431.0,0.0
-3.972085,-9.415757,-3.902694,49.98,1.54,31.219999,1729429796452.0,0.0
-3.909872,-12.55514,-4.553542,3.29,11.69,18.76,1729429796469.0,0.0
-3.4672,-12.339786,-6.199803,28.630001,14.63,9.38,1729429796492.0,0.0
-3.589234,-12.827922,-6.168696,123.059998,9.03,10.92,1729429796510.0,0.0
-2.912065,-11.899508,-2.555535,207.130005,21.49,10.15,1729429796532.0,0.0
-2.959922,-8.99462,1.351945,334.459991,10.01,25.41,1729429796550.0,0.0
-3.938586,-7.164111,-0.478565,295.540009,-24.710001,29.75,1729429796571.0,0.0
-5.020142,-8.84148,0.062213,259.839996,-9.94,22.540001,1729429796591.0,0.0
-4.347759,-9.288938,1.191626,319.76001,-22.75,26.389999,1729429796611.0,0.0
-4.658825,-7.618747,3.852444,370.369995,3.36,10.92,1729429796631.0,0.0
-6.506085,-7.348359,5.9342,318.220001,14.14,3.64,1729429796651.0,0.0
-5.304887,-10.305886,4.898108,280.420013,-45.990002,-1.54,1729429796671.0,0.0
-1.665405,-11.729616,1.864009,358.890015,-49.98,-0.56,1729429796690.0,0.0
-3.787838,-7.252645,7.683353,451.850006,12.25,-31.99,1729429796710.0,0.0
-6.022735,-2.201397,11.042876,375.899994,21.42,-39.549999,1729429796733.0,0.0
-5.515456,-3.943372,10.523634,164.850006,-38.080002,-39.689999,1729429796750.0,0.0
-1.323231,-8.822337,5.821737,88.199997,-95.550003,-43.259998,1729429796773.0,0.0
-0.681954,-6.656832,4.096512,205.240005,-34.720001,-57.68,1729429796790.0,0.0
-3.242275,0.485743,6.84108,275.380005,1.82,-66.639999,1729429796812.0,0.0
-5.99402,2.799603,7.867601,178.990005,-13.02,-35.420002,1729429796868.0,0.0
-3.129812,-0.009571,9.592826,79.660004,-50.82,-25.9,1729429796977.0,0.0
-3.505485,-0.047856,11.710474,43.540001,-43.330002,-23.030001,1729429797025.0,0.0
-1.423729,-1.529014,9.360723,43.189999,-61.529999,4.27,1729429797025.0,0.0
-0.31346,-4.943572,8.221739,30.380001,-66.779999,3.15,1729429797025.0,0.0
0.42353,-6.546762,8.255238,-18.41,-52.290001,-6.51,1729429797026.0,0.0
-0.399601,-5.776274,7.446464,-89.879997,-65.590004,-33.459999,1729429797026.0,0.0
0.057428,-1.150948,6.805188,-100.169998,-57.189999,-27.65,1729429797026.0,0.0
-0.564706,-1.136591,7.982457,-60.619999,-33.599998,-6.86,1729429797027.0,0.0
-0.229711,-0.433101,7.810174,-71.470001,-18.059999,4.06,1729429797034.0,0.0
0.011964,-0.485743,7.104291,-308.279999,-25.41,5.25,1729429797130.0,0.0
-0.11007,-1.567299,5.778666,-383.809998,-17.99,18.200001,1729429797131.0,0.0
-0.062213,-3.565305,4.297509,-438.76001,1.05,15.82,1729429797132.0,0.0
-0.294317,-5.182854,2.804388,-488.809998,6.79,12.6,1729429797133.0,0.0
-0.875773,-4.520042,1.4668,-531.859985,5.95,29.68,1729429797140.0,0.0
-2.048256,-7.956135,-0.492921,-558.179993,-16.59,29.469999,1729429797149.0,0.0
-1.014557,-7.075576,-7.9346,-581.140015,-14.07,8.68,1729429797169.0,0.0
-1.945365,-10.298709,-9.056834,-518.070007,-24.219999,22.540001,1729429797190.0,0.0
-2.400001,-13.636696,-8.657232,-454.369995,-31.01,10.92,1729429797212.0,0.0
-2.062613,-13.55534,-6.266802,-365.540009,-24.85,1.54,1729429797338.0,0.0
-1.328017,-12.547962,-6.025128,-210.490005,-22.469999,-3.57,1729429797339.0,0.0
-1.227518,-10.167104,-4.936393,-66.849998,-28.210001,-8.96,1729429797339.0,0.0
-1.138984,-9.698111,-5.448457,-33.599998,-26.040001,-17.639999,1729429797340.0,0.0
-1.213161,-8.717053,-5.190032,-66.57,-13.58,-20.860001,1729429797340.0,0.0
-1.29691,-11.937792,-7.302894,-41.580002,2.66,-19.25,1729429797341.0,0.0
-1.07677,-11.423335,-7.496714,55.16,13.09,-13.65,1729429797351.0,0.0
-0.933201,-10.030712,-5.338387,182.490005,14.91,-4.55,1729429797370.0,0.0
-1.277767,-8.140383,-3.06042,262.360016,26.74,2.17,1729429797457.0,0.0
-2.225325,-7.467999,-3.9673,264.809998,45.360001,2.1,1729429797459.0,0.0
-2.632105,-9.793823,-5.525027,219.240005,46.34,1.33,1729429797460.0,0.0
-1.356731,-11.133803,-4.912465,201.809998,37.59,11.83,1729429797462.0,0.0
-0.66999,-11.12184,-1.701297,340.200012,28.630001,10.22,1729429797476.0,0.0
-0.89013,-8.109276,-0.461815,411.040009,39.130001,3.29,1729429797496.0,0.0
-1.648655,-6.553941,0.691526,388.01001,48.720001,6.72,1729429797512.0,0.0
-2.289931,-4.206582,3.378666,260.190002,51.170002,8.05,1729429797533.0,0.0
-3.448057,-6.178268,2.787638,168.279999,8.4,21.91,1729429797552.0,0.0
-0.811167,-10.286745,0.507278,205.240005,-66.989998,18.200001,1729429797571.0,0.0
0.248854,-13.13181,4.491328,300.440002,-23.52,17.5,1729429797594.0,0.0
-2.517249,-6.506085,7.625926,311.640015,61.740002,7.56,1729429797611.0,0.0
-3.529413,-2.995814,7.889136,187.389999,49.0,29.540001,1729429797631.0,0.0
-2.45025,-4.945964,7.707282,1.75,-24.85,28.139999,1729429797651.0,0.0
-2.237289,-10.951948,6.888937,-2.73,-56.420002,17.360001,1729429797676.0,0.0
-2.143969,-9.865608,5.479564,186.059998,-25.200001,10.78,1729429797692.0,0.0
-3.117848,-4.65404,9.446864,297.01001,12.53,9.73,1729429797712.0,0.0
-3.792624,-1.253839,11.253445,184.940002,-3.85,16.940001,1729429797733.0,0.0
-2.227718,-2.115255,7.702496,22.049999,-14.7,20.09,1729429797752.0,0.0
-1.361516,-4.307081,4.625326,-72.730003,-22.889999,20.93,1729429797773.0,0.0
-2.761317,-8.243275,6.551548,-74.830002,-1.61,29.540001,1729429797854.0,0.0
-2.301895,-9.901501,6.345766,-190.119995,9.31,3.01,1729429797931.0,0.0
-0.658026,-9.461221,4.632504,-293.230011,-1.05,-12.46,1729429797932.0,0.0
0.112463,-8.518449,3.39063,-365.610016,0.14,-12.53,1729429797932.0,0.0
0.040678,-6.503692,1.476372,-420.630005,11.97,-24.99,1729429797932.0,0.0
-0.823131,-6.546762,-0.662812,-456.820007,16.24,-23.1,1729429797933.0,0.0
-0.909273,-8.561519,-1.167697,-475.790009,16.24,-28.42,1729429797933.0,0.0
-3.381058,-10.884951,0.89013,-498.190002,-3.92,-24.57,1729429797951.0,0.0
-2.065006,-13.780266,-0.851845,-362.110016,-52.43,-34.23,1729429797971.0,0.0
-0.002393,-9.480364,-2.311467,-237.020004,-52.5,-25.200001,1729429797992.0,0.0
0.184247,-4.613362,-4.206582,-213.220001,-39.759998,-29.190001,1729429798012.0,0.0
-2.165504,-5.852845,-4.804788,-223.020004,-9.94,1.96,1729429798032.0,0.0
-2.584249,-1.895115,-5.611169,-315.070007,-10.01,2.1,1729429798051.0,0.0
-1.636691,-3.349952,-10.614561,-386.049988,-23.450001,22.960001,1729429798071.0,0.0
-2.143969,-7.580462,-12.894921,-413.209991,-20.790001,36.189999,1729429798099.0,0.0
-2.141576,-12.741781,-12.79203,-301.980011,-0.98,22.75,1729429798111.0,0.0
-0.98345,-6.553941,-9.102298,-30.52,14.91,3.92,1729429798134.0,0.0
-2.385644,-7.046863,-6.616155,5.18,20.51,6.44,1729429798152.0,0.0
-1.447658,-7.915457,-7.216753,-32.549999,9.17,0.14,1729429798172.0,0.0
-1.033699,-7.360322,-8.281559,-28.0,4.34,-1.47,1729429798192.0,0.0
-1.622334,-6.922436,-7.812566,3.85,8.96,-2.59,1729429798212.0,0.0
-1.842474,-2.943172,-7.429714,48.02,5.04,8.82,1729429798234.0,0.0
-3.055635,-6.123233,-8.535198,33.32,8.89,22.120001,1729429798253.0,0.0
-2.132005,-6.927221,-8.867801,21.77,8.68,20.65,1729429798273.0,0.0
-1.861616,-6.293124,-7.769495,51.66,13.09,14.77,1729429798295.0,0.0
-2.617748,-5.046463,-6.987042,56.77,14.84,12.81,1729429798313.0,0.0
-2.292324,-6.06102,-6.159126,47.32,6.09,17.08,1729429798336.0,0.0
-2.105684,-6.67119,-7.405786,27.719999,-1.68,12.74,1729429798354.0,0.0
-1.954936,-7.936993,-9.547362,18.48,-2.52,1.26,1729429798373.0,0.0
-1.651048,-6.568298,-9.320045,54.740002,1.05,-6.16,1729429798393.0,0.0
-2.299503,-7.271788,-7.056434,73.360001,9.66,-6.3,1729429798413.0,0.0
-2.785245,-2.615355,-4.613362,10.64,8.82,-17.290001,1729429798435.0,0.0
-1.993221,-10.025927,-11.330014,-30.380001,-15.89,-9.8,1729429798454.0,0.0
1.306481,-3.369094,-7.633104,61.880001,-2.66,-8.4,1729429798474.0,0.0
-2.033899,-3.381058,-8.087741,111.440002,12.25,9.38,1729429798496.0,0.0
-2.569891,-8.499306,-6.063413,103.809998,11.55,19.18,1729429798513.0,0.0
-0.928415,-5.563312,-7.109076,160.649994,-3.5,15.96,1729429798536.0,0.0
-1.378266,-6.068198,-7.750352,111.790001,7.14,15.4,1729429798554.0,0.0
-0.921237,-9.616754,-8.796017,130.479996,7.49,29.4,1729429798576.0,0.0
0.409173,-8.475377,-9.114261,285.320007,15.190001,47.599998,1729429798595.0,0.0
0.062213,-6.668797,-5.283352,393.329987,57.400002,58.73,1729429798614.0,0.0
-1.990828,-3.854837,-0.148355,290.850006,96.18,45.709999,1729429798635.0,0.0
-3.768696,-10.554741,2.629712,58.310001,72.519997,28.210001,1729429798655.0,0.0
-4.228118,-14.196616,2.163112,-173.529999,14.21,-7.91,1729429798676.0,0.0
-1.701297,-9.638289,-4.326223,-183.889999,-28.559999,-37.869999,1729429798696.0,0.0
-1.464408,-7.513463,-3.196811,27.440001,-27.370001,-18.059999,1729429798716.0,0.0
-2.885744,-8.023134,-1.055235,18.620001,-5.74,-5.18,1729429798736.0,0.0
-2.012364,-7.724032,-1.172483,-25.83,-30.380001,6.23,1729429798756.0,0.0
-0.918844,-8.176274,-3.909872,-32.060001,-52.709999,14.91,1729429798774.0,0.0
-1.392623,-9.135797,-4.409972,-20.790001,-43.189999,24.15,1729429798795.0,0.0
-3.029313,-9.564112,-5.496314,0.28,-25.620001,21.0,1729429798818.0,0.0
-3.929015,-10.076177,-4.986642,25.690001,-17.85,17.780001,1729429798838.0,0.0
-4.290331,-10.643275,-3.897908,41.369999,-19.6,9.8,1729429798854.0,0.0
-3.952943,-8.944371,-2.842674,41.02,-23.59,-1.54,1729429798876.0,0.0
-3.364309,-6.759724,-3.515057,17.5,-36.610001,-7.28,1729429798914.0,0.0
-3.046063,-7.384251,-3.326023,-29.049999,-43.470001,-4.9,1729429798917.0,0.0
-2.866602,-7.793423,-1.954936,-59.849998,-38.220001,-0.84,1729429798940.0,0.0
-2.684747,-7.601997,-4.62054,-59.080002,-44.66,2.52,1729429798956.0,0.0
-3.201597,-9.432507,-7.381857,18.200001,-59.990002,22.82,1729429798974.0,0.0
-3.60359,-9.473185,-3.876373,76.370003,-34.299999,14.91,1729429798997.0,0.0
-5.024928,-8.628519,-0.667598,56.98,10.08,-5.67,1729429799014.0,0.0
-3.330809,-9.456435,-5.199604,-11.27,-33.25,-15.68,1729429799035.0,0.0
-1.572084,-9.616754,-7.233503,-96.040001,-49.349998,-12.04,1729429799058.0,0.0
-2.096112,-9.209974,-7.001399,-81.900002,-8.61,-6.72,1729429799075.0,0.0
-3.09392,-9.052048,-6.65444,-37.59,20.93,-10.99,1729429799094.0,0.0
-2.493321,-8.882158,-6.496514,-32.689999,20.790001,-12.6,1729429799125.0,0.0
-1.316052,-8.123632,-6.84108,-57.540001,26.389999,-15.61,1729429799135.0,0.0
-1.20359,-2.127219,-1.885544,-108.220001,45.5,-14.77,1729429799154.0,0.0
-4.027121,-5.419744,-3.730411,-213.919998,37.799999,-14.21,1729429799174.0,0.0
-4.242475,-8.207381,-7.245467,-349.369995,14.0,-24.639999,1729429799195.0,0.0
-2.531606,-13.481163,-8.930015,-268.869995,1.75,-12.18,1729429799217.0,0.0
-0.792024,-14.098512,-8.243275,-26.67,4.97,-15.61,1729429799236.0,0.0
-0.287139,-1.423729,-5.419744,145.460007,13.440001,-30.1,1729429799254.0,0.0
-2.935993,-0.445065,-3.821337,29.190001,13.93,-7.35,1729429799274.0,0.0
-3.658626,-5.4676,-3.845266,-163.309998,3.5,-8.61,1729429799295.0,0.0
-3.019742,-8.044669,-6.84108,-196.210007,-17.43,-0.21,1729429799315.0,0.0
-2.136791,-8.02792,-8.846266,-118.580002,-23.59,-5.6,1729429799335.0,0.0
-2.993421,-5.12782,-7.633104,-37.939999,-17.99,-6.37,1729429799354.0,0.0
-3.460021,-5.333601,-7.238289,-55.16,-3.08,1.26,1729429799373.0,0.0
-2.804388,-4.878965,-9.075976,-35.560001,-3.29,15.12,1729429799398.0,0.0
-3.89073,-5.199604,-9.379865,-9.94,12.32,24.219999,1729429799414.0,0.0
-4.158726,-7.312466,-9.19801,7.7,22.4,30.380001,1729429799436.0,0.0
-3.046063,-7.992027,-9.657433,18.27,28.0,29.540001,1729429799454.0,0.0
-3.488736,-10.382458,-6.65444,53.41,39.689999,21.700001,1729429799474.0,0.0
-4.019942,-11.140982,-6.979864,102.760002,45.009998,2.31,1729429799497.0,0.0
-2.392823,-9.286544,-7.630712,137.619995,39.41,-9.52,1729429799514.0,0.0
-1.232304,-8.903693,-6.209375,126.419998,32.130001,-6.02,1729429799536.0,0.0
-0.902094,-5.249853,-5.326423,163.449997,22.190001,-0.84,1729429799557.0,0.0
-1.660619,-8.379664,-3.852444,255.919998,9.8,21.49,1729429799574.0,0.0
-3.158526,-7.15454,-2.342573,339.079987,7.07,30.799999,1729429799594.0,0.0
-3.845266,-8.360522,-4.309474,338.869995,-20.02,20.23,1729429799615.0,0.0
-2.861816,-7.209574,-5.048856,269.220001,-32.549999,18.549999,1729429799637.0,0.0
-2.701497,-9.097511,-4.663611,247.449997,-39.759998,31.290001,1729429799655.0,0.0
-2.888137,-10.932807,-5.821737,273.630005,-32.900002,21.77,1729429799673.0,0.0
-3.108276,-10.387242,-4.398008,302.470001,-21.49,15.82,1729429799695.0,0.0
-2.794817,-12.236896,-2.0004,452.410004,-33.880001,31.639999,1729429799714.0,0.0
-2.050649,-13.933406,1.706082,570.359985,-43.610001,11.55,1729429799736.0,0.0
-1.698904,-9.932607,3.18724,631.26001,-42.420002,-23.379999,1729429799754.0,0.0
-1.033699,-3.754339,5.943772,605.150024,-12.04,-57.330002,1729429799774.0,0.0
-3.34038,0.696311,10.078569,433.51001,18.83,-54.25,1729429799977.0,0.0
-4.204189,2.421536,8.542377,153.160004,-22.960001,-36.540001,1729429799979.0,0.0
-2.124826,-0.270389,6.446264,-73.709999,-54.040001,-37.799999,1729429799982.0,0.0
-2.208575,-1.294517,5.991628,-240.449997,-25.620001,-42.209999,1729429799983.0,0.0
-3.371487,-2.868994,4.646862,-315.140015,-33.110001,-10.64,1729429799984.0,0.0
-2.825923,-5.953342,4.488935,-309.890015,-32.200001,-4.41,1729429799997.0,0.0
-2.203789,-7.850852,5.623133,-292.459991,-30.870001,-3.57,1729429799998.0,0.0
-1.339981,-7.307681,3.383451,-277.200012,-34.369999,18.83,1729429799999.0,0.0
-1.052842,-7.802995,2.610569,-248.290009,-19.74,22.82,1729429800000.0,0.0
-1.596013,-7.491928,2.210968,-226.729996,-17.15,33.389999,1729429800003.0,0.0
-2.555535,-8.953942,2.634498,-216.229996,-14.91,43.049999,1729429800005.0,0.0
-2.400001,-8.932407,-0.339781,-238.0,-13.440001,36.470001,1729429800013.0,0.0
-3.335595,-9.824929,-2.22054,-247.100006,-2.24,33.18,1729429800035.0,0.0
-3.07717,-11.444871,-4.388437,-246.680008,-12.11,26.389999,1729429800057.0,0.0
-2.663212,-10.727024,-5.326423,-217.979996,-0.56,17.85,1729429800076.0,0.0
-3.160919,-10.052249,-4.17069,-166.180008,1.12,20.299999,1729429800093.0,0.0
-3.089134,-7.805387,-3.524628,-139.440002,2.8,13.440001,1729429800112.0,0.0
-3.002992,-8.939585,-4.754539,-145.669998,6.02,12.46,1729429800135.0,0.0
-2.667997,-10.597812,-5.9342,-181.509995,11.34,-4.13,1729429800153.0,0.0
-1.48355,-11.167303,-7.23111,-174.580002,7.35,-9.24,1729429800172.0,0.0
-0.646062,-11.05484,-6.960721,-96.040001,-1.68,6.3,1729429800193.0,0.0
0.086142,-9.796216,-6.147161,31.639999,-9.03,23.1,1729429800212.0,0.0
-1.033699,-9.425328,-4.194618,156.589996,18.76,47.670002,1729429800233.0,0.0
-3.366701,-9.810574,0.837488,213.220001,91.279999,23.73,1729429800253.0,0.0
-7.776673,-7.243074,1.514657,158.059998,173.809998,-16.66,1729429800273.0,0.0
-5.54417,-10.143176,-4.615755,94.57,55.439999,-6.51,1729429800293.0,0.0
-2.09372,-10.150353,-2.524428,70.349998,-19.460001,46.27,1729429800314.0,0.0
-1.256232,-10.19821,-2.306681,105.139999,-21.98,34.02,1729429800335.0,0.0
-2.012364,-9.159724,-0.842274,203.770004,38.220001,16.66,1729429800354.0,0.0
-3.826123,-7.211967,1.567299,244.649994,85.889999,16.309999,1729429800375.0,0.0
-6.798009,-8.080563,2.909672,195.509995,54.25,26.950001,1729429800395.0,0.0
-6.771688,-8.035098,2.493321,98.559998,-5.95,15.68,1729429800415.0,0.0
-5.257031,-8.015956,1.222732,92.050003,-34.439999,28.630001,1729429800436.0,0.0
-3.605984,-10.724631,0.885344,171.149994,-9.17,11.48,1729429800455.0,0.0
-5.228317,-11.282159,2.007578,161.350006,37.240002,-10.78,1729429800476.0,0.0
-6.534799,-10.755738,4.003192,71.889999,35.700001,-16.24,1729429800499.0,0.0
-3.48395,-10.272388,2.431108,-15.33,0.14,-34.720001,1729429800515.0,0.0
-2.079363,-9.473185,1.550549,-18.059999,6.37,-34.02,1729429800538.0,0.0
-2.48375,-9.628718,1.777867,-4.34,17.5,-38.009998,1729429800556.0,0.0
-3.23031,-8.25763,5.180461,-21.91,24.5,-39.549999,1729429800576.0,0.0
-1.761117,-7.331609,2.306681,-45.009998,3.29,-34.299999,1729429800596.0,0.0
-1.964507,-9.195618,2.112862,-79.239998,-8.19,-39.34,1729429800620.0,0.0
-2.955136,-11.033305,-1.866402,-106.540001,-0.14,-38.709999,1729429800636.0,0.0
-3.443272,-10.810772,1.493121,-73.010002,10.92,-48.509998,1729429800655.0,0.0
-3.665804,-9.195618,1.162912,-63.77,13.440001,-52.779999,1729429800675.0,0.0
-2.541178,-10.061819,-0.428315,-89.949997,4.34,-57.540001,1729429800696.0,0.0
-1.98365,-10.528419,-0.509671,-100.940002,12.18,-56.98,1729429800715.0,0.0
-1.289732,-9.817751,-0.050249,-72.870003,22.540001,-52.920002,1729429800736.0,0.0
-0.124427,-8.16431,-0.634098,-72.730003,21.98,-52.150002,1729429800758.0,0.0
0.631705,-7.800602,-0.832702,-85.540001,17.99,-42.490002,1729429800775.0,0.0
-0.059821,-8.02792,0.189033,-75.599998,19.950001,-29.75,1729429800796.0,0.0
-0.641276,-7.338787,0.09332,-71.050003,20.23,-25.059999,1729429800815.0,0.0
-0.693919,-7.317252,0.351745,-106.120003,8.47,-18.059999,1729429800838.0,0.0
-0.918844,-12.500106,0.825524,-141.330002,-11.9,-5.81,1729429801017.0,0.0
-2.512464,-11.155338,2.120041,-60.41,-18.76,11.27,1729429801019.0,0.0
-4.905287,-9.47797,2.768496,31.710001,-22.190001,0.42,1729429801022.0,0.0
-5.223531,-8.310273,1.136591,30.17,-37.73,-3.29,1729429801025.0,0.0
-1.526621,-7.795816,-2.955136,-56.349998,-64.050003,-10.92,1729429801028.0,0.0
0.68674,-8.185846,-6.106483,-92.959999,-88.900002,-5.39,1729429801030.0,0.0
-2.359323,-10.016356,-6.209375,-70.07,-87.5,14.14,1729429801032.0,0.0
-2.825923,-7.814958,-6.04427,-50.889999,-36.959999,21.42,1729429801032.0,0.0
-2.112862,-8.542377,-5.292924,-41.93,-29.610001,31.99,1729429801122.0,0.0
-2.435893,-10.037891,-5.235496,6.86,-15.89,28.559999,1729429801124.0,0.0
-3.278167,-11.32523,-5.266603,53.27,-5.81,17.08,1729429801126.0,0.0
-3.464807,-10.506885,-5.295317,75.18,-1.82,7.42,1729429801129.0,0.0
-2.129612,-9.583255,-4.56072,84.209999,1.33,7.28,1729429801130.0,0.0
-1.012164,-9.566505,-3.802195,100.940002,6.37,11.27,1729429801136.0,0.0
-0.911665,-9.119047,-1.842474,105.0,21.210001,8.89,1729429801155.0,0.0
-2.40718,-8.781659,-1.624727,47.740002,30.309999,1.05,1729429801174.0,0.0
-2.600998,-8.611769,-1.457229,-16.450001,24.639999,-5.81,1729429801195.0,0.0
-0.849452,-9.51147,-3.117848,-34.860001,5.18,-2.94,1729429801214.0,0.0
-0.425922,-9.35833,-3.189633,-36.330002,12.46,-2.24,1729429801234.0,0.0
-2.603391,-10.607382,-1.438086,-50.049999,30.309999,-9.87,1729429801254.0,0.0
-3.895515,-9.79143,-2.074577,-78.470001,35.0,-22.540001,1729429801274.0,0.0
-2.426322,-7.73121,-1.998007,-139.580002,22.4,-27.51,1729429801296.0,0.0
-2.854637,-11.686546,-4.723432,-199.639999,12.88,-21.210001,1729429801315.0,0.0
-2.474179,-14.706287,-5.996413,-100.449997,8.75,-22.4,1729429801339.0,0.0
-1.801795,-11.002198,-5.843273,84.769997,18.41,-11.27,1729429801356.0,0.0
-2.742175,-9.135797,-5.082355,175.210007,41.650002,-9.66,1729429801375.0,0.0
-1.672583,-8.360522,-3.87398,188.229996,47.950001,-1.4,1729429801396.0,0.0
-0.275175,-7.599605,-0.437887,185.710007,39.34,13.51,1729429801414.0,0.0
-0.327817,-5.979663,3.28056,206.080002,31.08,22.540001,1729429801446.0,0.0
-1.414158,-4.520042,4.59422,195.229996,12.81,27.440001,1729429801456.0,0.0
-1.253839,-6.147161,1.842474,125.720001,-7.49,31.360001,1729429801474.0,0.0
-1.141376,-9.482756,-0.526421,19.879999,-29.960001,35.07,1729429801498.0,0.0
-1.036092,-11.643474,-2.055435,-16.450001,-39.549999,28.630001,1729429801515.0,0.0
-1.160519,-11.696117,-1.945365,13.16,-28.77,26.74,1729429801537.0,0.0
-1.581656,-10.839487,-1.074377,47.25,-17.639999,24.15,1729429801555.0,0.0
-2.294717,-10.255639,-0.5001,49.98,-7.35,17.85,1729429801576.0,0.0
-2.880959,-10.478169,-0.155533,25.129999,-1.82,11.69,1729429801595.0,0.0
-2.998207,-10.451849,0.51685,-8.19,-7.63,5.6,1729429801614.0,0.0
-2.852244,-10.669596,0.567099,-12.81,-16.030001,8.19,1729429801636.0,0.0
-2.612962,-9.466006,0.471386,-8.68,-19.389999,1.96,1729429801655.0,0.0
-2.143969,-9.020942,-0.624527,-54.950001,-11.69,-8.96,1729429801674.0,0.0
-1.557728,-8.403593,-1.878366,-103.739998,-19.67,-5.04,1729429801695.0,0.0
-2.041078,-10.265208,-3.833302,-105.699997,-16.030001,2.17,1729429801714.0,0.0
-3.708875,-8.999406,1.138984,-91.559998,-0.21,-0.84,1729429801736.0,0.0
-2.78046,-8.729016,-1.9669,-37.59,-20.370001,-7.49,1729429801755.0,0.0
-2.574677,-8.066205,-3.5007,-22.889999,-39.830002,12.39,1729429801775.0,0.0
-2.136791,-8.80798,-5.455636,6.79,-24.57,15.61,1729429801795.0,0.0
-2.713461,-11.267801,-2.723032,111.230003,10.22,36.330002,1729429801815.0,0.0
-3.885944,-10.904092,1.095913,181.860001,41.02,24.780001,1729429801837.0,0.0
-4.888536,-9.504292,0.78006,166.039993,33.810001,3.71,1729429801855.0,0.0
-4.532006,-7.49432,1.086342,84.629997,8.19,5.25,1729429801874.0,0.0
-3.337988,-8.123632,1.433301,47.389999,-25.83,14.07,1729429801895.0,0.0
-3.132205,-11.358729,2.225325,84.279999,-27.790001,13.02,1729429801914.0,0.0
-4.371687,-11.504691,1.325624,124.459999,7.7,-11.34,1729429801937.0,0.0
-5.821737,-9.899107,3.35713,114.239998,21.0,-10.08,1729429801955.0,0.0
-3.876373,-8.903693,2.378466,48.02,-6.65,-16.17,1729429801975.0,0.0
-2.122434,-10.217353,2.76371,-16.73,-11.62,-18.549999,1729429801996.0,0.0
-2.830709,-10.671989,1.751546,15.47,3.15,-24.5,1729429802015.0,0.0
-2.586641,-8.769694,2.134398,51.170002,3.71,-21.0,1729429802109.0,0.0
-1.753939,-8.226524,1.323231,53.619999,1.82,-12.46,1729429802110.0,0.0
-1.488336,-7.465607,3.199204,10.71,9.94,-8.68,1729429802110.0,0.0
-1.655833,-7.180861,3.39063,-31.360001,-1.68,2.1,1729429802111.0,0.0
-2.567499,-8.001599,2.639283,-63.420002,-15.75,7.63,1729429802123.0,0.0
-2.124826,-8.879765,1.557728,-91.980003,-20.51,7.42,1729429802135.0,0.0
-2.292324,-9.403792,0.641276,-136.5,-20.93,-1.4,1729429802154.0,0.0
-2.287539,-9.999605,-1.182054,-188.509995,-15.75,-10.22,1729429802181.0,0.0
-1.981257,-10.712667,-2.11047,-224.0,-22.190001,-14.0,1729429802194.0,0.0
-1.684547,-10.621738,-2.081756,-228.830002,-17.57,-16.17,1729429802214.0,0.0
-2.014757,-9.064013,-0.68674,-220.570007,-1.12,-25.059999,1729429802237.0,0.0
-2.868994,-7.865208,-1.320838,-225.960007,3.92,-37.099998,1729429802256.0,0.0
-3.608376,-8.513663,-0.899701,-268.450012,-14.21,-35.349998,1729429802274.0,0.0
-4.197011,-4.943572,-4.486543,-377.160004,-19.040001,-54.110001,1729429802295.0,0.0
-1.024128,-7.702496,-7.152147,-382.410004,-36.889999,-31.290001,1729429802314.0,0.0
-0.047856,-8.748159,-10.064213,-145.389999,-33.389999,15.26,1729429802335.0,0.0
-0.76331,-4.522435,-7.877172,-28.700001,-10.36,11.62,1729429802355.0,0.0
-2.739782,-1.316052,-5.13739,-117.110001,8.05,26.25,1729429802374.0,0.0
-4.761717,-6.675975,-6.020342,-260.540009,-7.42,31.5,1729429802395.0,0.0
-2.151148,-13.837693,-8.482556,-205.449997,-27.16,23.799999,1729429802414.0,0.0
-0.815953,-9.274581,-7.580462,-26.32,-26.040001,7.77,1729429802437.0,0.0
-3.311667,-3.964907,-6.556334,54.389999,-12.81,5.39,1729429802457.0,0.0
-3.814159,-3.89073,-6.924829,-12.95,-14.91,15.4,1729429802474.0,0.0
-3.168097,-6.463014,-8.599805,-48.16,-19.950001,27.58,1729429802498.0,0.0
-3.342773,-6.530013,-8.513663,-21.210001,-11.2,26.67,1729429802514.0,0.0
-3.52702,-5.819345,-8.16431,1.96,-6.16,28.49,1729429802537.0,0.0
-3.598805,-6.266802,-8.520842,-1.19,-1.4,31.15,1729429802555.0,0.0
-3.732803,-7.032506,-8.707481,-2.52,1.68,28.98,1729429802574.0,0.0
-3.991228,-6.939186,-8.4347,-3.71,5.25,19.6,1729429802595.0,0.0
-3.536592,-6.465407,-10.210175,17.92,7.28,15.47,1729429802614.0,0.0
-2.766103,-7.147361,-7.817351,70.840004,16.799999,17.92,1729429802635.0,0.0
-4.003192,-8.831908,-7.329216,77.699997,25.41,18.620001,1729429802655.0,0.0
-3.225525,-10.315458,-8.209774,66.57,31.15,3.92,1729429802674.0,0.0
-2.600998,-8.829515,-6.908078,131.25,35.420002,2.94,1729429802694.0,0.0
-2.586641,-7.783852,-6.192625,166.180008,42.209999,-1.05,1729429802715.0,0.0
-2.95035,-8.4347,-5.580062,164.149994,37.939999,2.45,1729429802735.0,0.0
-2.368894,-7.858029,-5.522634,178.5,24.360001,0.7,1729429802755.0,0.0
-2.335395,-7.633104,-4.725825,210.910004,12.04,13.09,1729429802774.0,0.0
-2.821138,-8.001599,-3.689733,255.009995,7.35,16.66,1729429802794.0,0.0
-3.323631,-9.54497,-3.713661,277.480011,-4.62,8.19,1729429802814.0,0.0
-3.68734,-9.171689,-3.54377,272.649994,-13.58,-1.89,1729429802835.0,0.0
-3.964907,-8.123632,-1.76351,274.470001,-20.370001,4.69,1729429802857.0,0.0
-4.412365,-7.853244,0.428315,276.5,-23.59,12.04,1729429802875.0,0.0
-4.510471,-9.336794,0.820738,249.970001,-25.34,3.5,1729429802900.0,0.0
-2.108077,-7.152147,0.289532,180.039993,-31.290001,-14.98,1729429802915.0,0.0
-2.500499,-9.647861,-1.847259,146.509995,-25.76,19.809999,1729429802936.0,0.0
-1.969293,-8.85823,-2.667997,86.379997,10.57,-20.299999,1729429802954.0,0.0
-3.503092,-9.243474,-0.722632,42.07,19.879999,-18.200001,1729429802974.0,0.0
-2.548356,-8.408379,0.81356,9.52,-6.79,-23.379999,1729429802995.0,0.0
-2.840281,-7.896315,1.98365,-4.97,-24.780001,-16.379999,1729429803014.0,0.0
-2.701497,-8.233703,3.002992,-15.75,-24.5,-22.75,1729429803037.0,0.0
-2.505285,-8.12124,2.682354,-46.619999,-37.59,-21.559999,1729429803056.0,0.0
-3.089134,-7.869993,2.622534,-58.170002,-38.150002,-12.81,1729429803074.0,0.0
-2.395216,-8.090133,0.39003,-85.68,-33.459999,-14.98,1729429803095.0,0.0
-2.199004,-8.748159,-2.201397,-145.320007,-34.580002,-13.09,1729429803114.0,0.0
-1.674976,-6.58744,-4.622933,-191.309998,-21.77,-10.01,1729429803136.0,0.0
-1.722832,-9.339187,-4.185047,-203.210007,0.77,2.59,1729429803154.0,0.0
-0.586242,-7.71446,-6.625726,-242.270004,-0.14,-16.59,1729429803173.0,0.0
-1.323231,-8.700303,-6.142376,-260.610016,2.94,-11.13,1729429803194.0,0.0
-0.705883,-8.829515,-6.405586,-277.619995,20.440001,-17.85,1729429803216.0,0.0
-0.461815,-10.8682,-7.271788,-267.470001,4.62,-4.41,1729429803234.0,0.0
-0.674776,-17.75235,-3.56052,-202.509995,-26.6,0.07,1729429803254.0,0.0
-0.600598,-12.799208,-3.132205,-97.860001,15.12,-24.780001,1729429803274.0,0.0
-0.416351,-9.896714,-5.800202,155.960007,68.669998,-24.08,1729429803294.0,0.0
-2.428715,-7.21436,-4.26401,333.899994,49.490002,29.049999,1729429803314.0,0.0
-5.4006,-5.02732,0.81356,330.820007,86.730003,32.689999,1729429803334.0,0.0
-5.807381,-8.757731,-2.727818,308.700012,35.630001,55.790001,1729429803354.0,0.0
-5.113462,-7.592427,-3.113062,327.670013,12.18,78.68,1729429803374.0,0.0
-4.287938,-9.879964,-0.880559,399.279999,5.67,73.080002,1729429803395.0,0.0
-5.201996,-6.876972,4.366901,362.25,35.0,62.860001,1729429803413.0,0.0
-5.300103,-7.858029,6.838687,256.269989,27.370001,33.32,1729429803435.0,0.0
-6.070591,-10.336994,5.601598,74.830002,7.98,8.61,1729429803455.0,0.0
-4.436293,-10.975878,4.115655,-69.090004,-18.48,-26.67,1729429803473.0,0.0
-3.524628,-9.698111,3.546163,-127.260002,-16.450001,-36.189999,1729429803497.0,0.0
-2.770889,-7.9681,3.421736,-148.119995,-6.23,-46.27,1729429803513.0,0.0
-1.98365,-9.269794,3.744767,-172.550003,-9.8,-47.32,1729429803537.0,0.0
-1.897508,-11.813366,2.962314,-193.550003,-7.98,-47.32,1729429803556.0,0.0
-2.344966,-7.893922,4.048656,-246.889999,7.7,-61.670002,1729429803573.0,0.0
-1.758725,-7.109076,-1.51705,-327.809998,-5.6,-81.410004,1729429803594.0,0.0
-1.706082,-8.154739,-4.244867,-359.309998,-18.690001,-56.420002,1729429803614.0,0.0
-1.636691,-11.205588,-5.869594,-242.130005,-4.34,-42.98,1729429803634.0,0.0
-1.361516,-12.064612,-8.662018,-75.459999,8.33,-36.049999,1729429803653.0,0.0
-0.923629,-6.104091,-4.962714,-21.0,52.849998,-44.73,1729429803673.0,0.0
-2.301895,-5.685347,-3.917051,-105.139999,60.41,-41.93,1729429803694.0,0.0
-2.725425,-9.786645,-0.320638,-109.690002,35.279999,-20.299999,1729429803714.0,0.0
-0.648455,-8.987441,-2.926422,79.379997,14.49,4.48,1729429803734.0,0.0
-1.942972,-5.446064,-1.225125,149.309998,39.689999,0.21,1729429803754.0,0.0
-3.002992,-6.565905,-0.540778,14.14,42.279999,8.82,1729429803774.0,0.0
-0.212961,-9.937392,-1.782653,-77.769997,5.25,17.219999,1729429803795.0,0.0
1.579263,-10.499706,-2.165504,-27.58,-3.08,24.639999,1729429803814.0,0.0
0.430708,-10.959127,0.028714,44.099998,4.9,22.120001,1729429803835.0,0.0
-1.325624,-10.387242,-1.007378,-13.16,-2.17,-5.53,1729429803854.0,0.0
-1.361516,-10.928021,-1.749153,-109.900002,-33.740002,-14.56,1729429803873.0,0.0
-0.59342,-9.348758,-1.825724,-120.959999,-45.920002,-20.299999,1729429803894.0,0.0
-1.18684,-8.042276,-2.443072,-71.959999,-46.130001,-15.26,1729429803914.0,0.0
-1.849652,-7.436893,-3.225525,-53.900002,-51.099998,-5.67,1729429803936.0,0.0
-3.878766,-8.178668,-4.771288,-62.16,-52.779999,3.22,1729429803954.0,0.0
-4.723432,-6.884151,-5.082355,-76.160004,-48.790001,2.03,1729429803974.0,0.0
-3.876373,-7.008578,-8.965906,-100.660004,-50.889999,7.42,1729429803994.0,0.0
-4.046263,-7.345965,-11.96172,-101.989998,-15.4,11.34,1729429804013.0,0.0
-3.668197,-6.831509,-11.887544,-77.980003,15.33,13.93,1729429804034.0,0.0
-1.495514,-6.690332,-10.097712,-52.080002,33.810001,18.620001,1729429804055.0,0.0
-1.024128,-8.145168,-8.245667,-22.68,49.490002,19.530001,1729429804073.0,0.0
-0.952343,-8.202596,-7.200003,-26.460001,59.990002,10.29,1729429804094.0,0.0
-0.490529,-7.238289,-7.925028,-32.130001,62.299999,5.11,1729429804113.0,0.0
-0.363709,-8.176274,-6.853044,0.35,70.629997,20.65,1729429804134.0,0.0
-0.11007,-7.472785,-3.732803,91.419998,68.669998,41.720001,1729429804154.0,0.0
-1.600798,-6.15434,-0.361316,112.489998,75.040001,40.040001,1729429804173.0,0.0
-1.799403,-7.525427,1.732404,58.939999,43.330002,45.150002,1729429804194.0,0.0
-1.339981,-11.241481,1.232304,39.619999,2.31,38.920002,1729429804214.0,0.0
-3.17049,-12.839886,-1.806581,13.79,-14.63,14.7,1729429804234.0,0.0
-3.036492,-11.16491,-2.340181,-24.08,-35.77,-7.77,1729429804253.0,0.0
-0.923629,-10.947165,-2.249253,-69.650002,-57.540001,-20.790001,1729429804274.0,0.0
0.409173,-9.123833,-3.041277,-81.059998,-71.050003,-30.030001,1729429804293.0,0.0
-0.552742,-7.23111,-4.821537,-88.059998,-79.169998,-30.450001,1729429804313.0,0.0
-5.103891,-7.113862,-6.85783,-83.93,-67.410004,-24.5,1729429804335.0,0.0
-4.809574,-5.493921,-6.599405,9.17,-62.790001,-24.5,1729429804354.0,0.0
-3.35713,-7.178468,-8.781659,-0.28,-64.470001,13.79,1729429804373.0,0.0
