acc_x,acc_y,acc_z,gyr_x,gyr_y,gyr_z,timestamp,label
-1.813759,-3.98405,-8.683553,79.940002,-45.290001,-36.189999,1729422404131.0,0.0
-1.462015,-4.469792,-7.721639,68.599998,-51.310001,-30.73,1729422404131.0,0.0
-0.282353,-5.350351,-8.626125,67.760002,-63.98,-32.34,1729422404132.0,0.0
0.617348,-4.287938,-7.805387,50.119999,-71.889999,-38.360001,1729422404132.0,0.0
-0.435494,-4.366901,-7.484749,11.97,-64.75,-41.16,1729422404139.0,0.0
-2.151148,-3.84048,-7.953743,-20.02,-57.959999,-38.639999,1729422404160.0,0.0
-3.814159,-3.749553,-8.305488,-63.91,-51.099998,-27.370001,1729422404180.0,0.0
-4.448257,-4.48415,-10.58824,-106.470001,-40.810001,-20.23,1729422404199.0,0.0
-4.268795,-5.525027,-12.244074,-101.150002,-34.09,-11.62,1729422404219.0,0.0
-3.718446,-5.690133,-12.189038,-58.52,-16.52,-10.43,1729422404240.0,0.0
-2.809174,-4.838287,-10.949556,-4.76,-4.2,-12.88,1729422404260.0,0.0
-3.160919,-2.866602,-9.138189,23.940001,8.75,-8.4,1729422404279.0,0.0
-3.608376,-2.232504,-8.599805,-12.67,16.870001,-5.32,1729422404299.0,0.0
-3.462414,-3.034099,-9.609575,-36.889999,12.88,1.82,1729422404319.0,0.0
-3.584448,-3.361916,-9.777073,-30.030001,15.68,7.28,1729422404339.0,0.0
-4.201797,-3.651447,-9.32483,-26.389999,25.76,11.2,1729422404360.0,0.0
-3.342773,-4.649254,-8.676375,-20.790001,20.790001,11.13,1729422404379.0,0.0
-1.95015,-5.852845,-7.310073,11.62,11.55,7.56,1729422404399.0,0.0
-1.732404,-5.218746,-6.541977,31.219999,11.06,-9.38,1729422404419.0,0.0
-1.600798,-4.685147,-7.712067,19.879999,-0.77,-23.66,1729422404439.0,0.0
-1.622334,-3.792624,-7.719246,11.41,-7.91,-30.24,1729422404460.0,0.0
-1.820938,-3.026921,-6.396015,6.72,-15.47,-29.120001,1729422404479.0,0.0
-1.651048,-2.696711,-6.628119,-9.17,-33.880001,-29.540001,1729422404499.0,0.0
-1.562513,-1.854438,-7.913064,-47.110001,-48.439999,-31.01,1729422404519.0,0.0
-2.811567,-0.641276,-8.52802,-96.739998,-38.849998,-15.75,1729422404540.0,0.0
-5.056034,-3.125026,-10.8682,-109.830002,-31.15,11.55,1729422404560.0,0.0
-5.702096,-4.608576,-12.605389,-108.57,-14.63,19.74,1729422404579.0,0.0
-5.156533,-2.926422,-11.988041,-43.049999,-5.18,36.889999,1729422404599.0,0.0
-5.685347,-3.168097,-9.138189,21.91,10.71,41.369999,1729422404620.0,0.0
-5.359922,-2.021935,-8.549555,-20.790001,18.129999,26.880001,1729422404639.0,0.0
-4.534399,-3.055635,-9.865608,-40.25,4.2,37.240002,1729422404662.0,0.0
-4.146761,-4.582255,-9.901501,-24.57,13.51,32.970001,1729422404680.0,0.0
-4.108476,-5.333601,-9.095119,8.61,20.58,23.17,1729422404699.0,0.0
-3.029313,-3.955336,-7.977671,40.25,10.22,5.74,1729422404719.0,0.0
-2.622534,-3.960121,-7.41775,36.68,1.68,-8.82,1729422404740.0,0.0
-2.87378,-5.536992,-8.171489,-9.17,-2.38,-30.030001,1729422404762.0,0.0
-2.136791,-4.405186,-8.530413,11.76,-16.450001,-38.57,1729422404781.0,0.0
-1.538585,-2.349752,-8.319844,22.889999,-23.030001,-42.91,1729422404800.0,0.0
-1.792224,-1.428515,-8.068598,20.65,-24.360001,-39.41,1729422404819.0,0.0
-2.462214,0.081356,-8.286345,-1.96,-25.059999,-33.599998,1729422404840.0,0.0
-3.342773,0.248854,-8.798409,-22.540001,-22.4,-9.17,1729422404861.0,0.0
-4.328616,-1.722832,-9.226725,-41.580002,-15.33,12.95,1729422404881.0,0.0
-5.321638,-3.182454,-10.621738,-53.200001,-9.66,21.210001,1729422404900.0,0.0
-5.022535,-2.991028,-11.550155,-50.259998,-11.48,20.370001,1729422404919.0,0.0
-4.316652,-2.835495,-11.703296,-25.969999,-3.36,22.120001,1729422404940.0,0.0
-4.529613,-3.048456,-10.375278,13.16,15.26,25.83,1729422404961.0,0.0
-4.675575,-2.737389,-9.480364,29.68,23.1,23.52,1729422404980.0,0.0
-4.737789,-2.452643,-9.367901,24.15,22.26,30.309999,1729422404999.0,0.0
-4.378866,-3.988836,-9.556933,9.45,27.790001,28.700001,1729422405020.0,0.0
-4.086941,-5.881558,-8.539984,27.16,33.32,19.530001,1729422405040.0,0.0
-3.409772,-5.553742,-7.448857,59.57,25.34,-0.28,1729422405061.0,0.0
-2.849852,-3.876373,-7.125826,73.919998,12.88,-21.559999,1729422405079.0,0.0
-2.490928,-3.139383,-7.357929,25.690001,-2.1,-39.900002,1729422405098.0,0.0
-2.079363,-3.09392,-7.898707,-8.05,-12.53,-43.68,1729422405119.0,0.0
-2.277967,-3.168097,-7.889136,-8.05,-15.75,-42.77,1729422405141.0,0.0
-2.464607,-0.909273,-7.831708,-7.28,-18.83,-41.23,1729422405159.0,0.0
-2.584249,1.268196,-8.365308,-11.27,-25.059999,-20.02,1729422405178.0,0.0
-3.189633,0.155533,-8.796017,-39.619999,-19.950001,6.23,1729422405199.0,0.0
-4.809574,-2.201397,-9.516255,-76.300003,-6.23,25.549999,1729422405220.0,0.0
-4.957928,-3.885944,-11.265409,-81.550003,-10.43,30.940001,1729422405239.0,0.0
-3.900301,-3.658626,-11.880364,-33.810001,-12.32,36.610001,1729422405262.0,0.0
-4.369294,-3.010171,-10.490135,32.900002,6.3,46.549999,1729422405279.0,0.0
-5.268995,-2.486143,-8.595018,34.860001,28.84,42.279999,1729422405300.0,0.0
-5.589634,-4.096512,-8.295916,13.09,21.07,47.040001,1729422405320.0,0.0
-4.022335,-5.795416,-8.606983,-7.56,10.57,25.41,1729422405339.0,0.0
-2.995814,-5.960521,-8.930015,8.68,6.51,5.95,1729422405360.0,0.0
-2.854637,-4.326223,-7.836494,39.900002,7.56,-16.24,1729422405379.0,0.0
-3.347559,-3.081956,-7.01097,43.610001,2.66,-27.93,1729422405399.0,0.0
-3.617948,-3.869194,-7.860423,2.66,-4.83,-42.139999,1729422405420.0,0.0
-2.892922,-3.385844,-8.281559,-18.83,-22.68,-49.349998,1729422405439.0,0.0
-2.711068,-2.163112,-8.592626,-11.48,-25.76,-48.369999,1729422405461.0,0.0
-2.818745,-0.90688,-8.702696,-7.49,-22.469999,-42.560001,1729422405478.0,0.0
-2.900101,0.591027,-9.257831,-10.57,-23.66,-23.73,1729422405500.0,0.0
-3.912265,-0.473779,-9.217153,-25.549999,-10.22,2.38,1729422405518.0,0.0
-5.082355,-2.572284,-9.336794,-46.689999,2.03,17.710001,1729422405539.0,0.0
-4.752146,-3.218346,-10.040283,-42.490002,-5.67,24.01,1729422405561.0,0.0
-3.945765,-2.976671,-11.255837,-16.309999,-8.26,27.299999,1729422405579.0,0.0
-4.56072,-3.893122,-10.487741,10.57,13.09,26.809999,1729422405600.0,0.0
-4.867002,-2.828316,-8.941978,26.110001,23.59,26.880001,1729422405620.0,0.0
-4.182654,-2.392823,-9.233903,40.599998,10.71,30.309999,1729422405640.0,0.0
-4.216154,-3.165704,-8.970692,28.280001,18.83,29.120001,1729422405660.0,0.0
-4.409972,-4.919643,-8.374879,14.91,26.6,21.84,1729422405678.0,0.0
-3.713661,-5.32403,-7.668997,32.27,16.1,3.78,1729422405699.0,0.0
-3.156133,-4.496114,-7.013363,47.880001,5.46,-18.48,1729422405720.0,0.0
-2.888137,-3.268596,-6.936793,32.900002,-3.43,-37.029999,1729422405739.0,0.0
-2.725425,-2.87378,-7.721639,-6.3,-21.84,-47.110001,1729422405760.0,0.0
-2.840281,-3.141776,-7.898707,-32.27,-25.41,-49.98,1729422405779.0,0.0
-2.969493,-2.132005,-8.657232,-45.009998,-28.77,-51.310001,1729422405799.0,0.0
-3.091527,0.090927,-9.659825,-31.5,-33.25,-35.84,1729422405818.0,0.0
-4.015156,0.655633,-9.018548,-44.869999,-19.460001,-7.77,1729422405839.0,0.0
-5.752346,-2.682354,-9.765109,-57.260002,1.89,23.030001,1729422405861.0,0.0
-5.28096,-4.409972,-10.676775,-39.549999,-3.36,31.15,1729422405878.0,0.0
-4.338188,-2.435893,-11.4353,17.08,-3.71,39.619999,1729422405899.0,0.0
-4.582255,-1.57687,-10.011569,43.049999,13.51,43.470001,1729422405919.0,0.0
-4.912465,-2.129612,-9.111869,29.540001,27.860001,46.619999,1729422405938.0,0.0
-4.828716,-3.761517,-8.092526,27.23,23.799999,46.48,1729422405961.0,0.0
-4.527221,-5.003392,-7.958528,9.73,21.07,32.970001,1729422405978.0,0.0
-3.787838,-5.71406,-8.283953,-2.52,16.309999,12.25,1729422406000.0,0.0
-3.034099,-5.288138,-7.996813,21.0,4.41,-9.8,1729422406018.0,0.0
-3.5007,-4.197011,-6.924829,41.299999,2.52,-22.960001,1729422406039.0,0.0
-4.304688,-3.952943,-6.987042,22.960001,-0.84,-34.23,1729422406060.0,0.0
-3.270989,-3.079563,-8.116454,-4.76,-16.379999,-44.52,1729422406078.0,0.0
-2.787638,-1.493121,-8.985049,-22.469999,-30.450001,-47.25,1729422406100.0,0.0
-3.031706,-0.172283,-9.276974,-19.040001,-24.780001,-36.75,1729422406118.0,0.0
-3.493521,0.598206,-9.150154,-18.41,-19.530001,-14.49,1729422406139.0,0.0
-4.419543,-0.89013,-8.719445,-23.030001,-8.89,11.48,1729422406160.0,0.0
-4.737789,-2.347359,-9.4349,-36.68,-7.56,21.49,1729422406178.0,0.0
-4.388437,-2.531606,-10.650455,-37.029999,-9.03,26.18,1729422406198.0,0.0
-4.847858,-3.213561,-11.167303,-18.200001,3.57,30.450001,1729422406218.0,0.0
-4.924429,-3.65384,-10.305886,-0.42,23.59,28.0,1729422406240.0,0.0
-4.675575,-4.319045,-9.085547,39.48,21.139999,32.48,1729422406261.0,0.0
-4.639683,-5.45085,-8.233703,50.119999,23.030001,21.280001,1729422406280.0,0.0
-4.666004,-4.835894,-8.283953,32.200001,22.33,-4.55,1729422406298.0,0.0
-4.584648,-3.852444,-8.324631,16.309999,11.34,-26.18,1729422406318.0,0.0
-4.443472,-4.759324,-7.898707,-3.71,13.23,-41.23,1729422406340.0,0.0
-3.826123,-5.175675,-8.322237,-6.23,8.12,-53.48,1729422406359.0,0.0
-3.443272,-4.249653,-8.652447,25.76,-2.03,-56.490002,1729422406377.0,0.0
-3.058028,-2.682354,-8.939585,27.51,-3.85,-67.550003,1729422406398.0,0.0
-1.852045,-0.586242,-10.406385,4.83,-7.91,-68.599998,1729422406419.0,0.0
-1.581656,-0.244068,-9.576077,-5.53,8.96,-45.639999,1729422406441.0,0.0
-1.79701,0.344566,-9.812965,31.99,20.93,-22.049999,1729422406460.0,0.0
-2.878566,-0.887737,-7.611568,80.43,23.1,7.56,1729422406478.0,0.0
-3.395415,-2.086541,-6.520442,80.989998,15.26,18.83,1729422406498.0,0.0
-4.627719,-2.981457,-5.639884,23.52,-0.07,28.77,1729422406519.0,0.0
-5.936593,-2.708675,-8.240881,-89.599998,3.57,30.309999,1729422406538.0,0.0
-4.771288,-3.60359,-11.954542,-108.150002,-10.36,44.73,1729422406571.0,0.0
-4.883751,-4.924429,-10.210175,-21.42,5.11,58.170002,1729422406579.0,0.0
-6.092126,-4.931608,-8.4012,19.389999,24.01,48.439999,1729422406598.0,0.0
-5.173282,-5.266603,-8.298308,-10.22,16.030001,36.959999,1729422406618.0,0.0
-3.337988,-6.393622,-8.922836,-22.4,6.16,11.62,1729422406638.0,0.0
-2.665605,-6.06102,-8.633304,14.07,9.73,-6.37,1729422406661.0,0.0
-2.557927,-4.862216,-7.487142,36.189999,5.53,-22.26,1729422406678.0,0.0
-3.498307,-5.472386,-6.924829,25.9,6.16,-30.450001,1729422406699.0,0.0
-3.56052,-6.38405,-8.181061,34.650002,-3.64,-39.549999,1729422406718.0,0.0
-3.383451,-4.910072,-7.757531,62.93,-9.03,-40.880001,1729422406739.0,0.0
-3.273381,-4.295116,-10.181459,85.400002,-1.33,-35.77,1729422406761.0,0.0
-2.632105,-5.548956,-11.47119,127.120003,-5.67,-21.49,1729422406778.0,0.0
-1.514657,-5.515456,-11.085947,187.25,8.54,-20.51,1729422406799.0,0.0
-2.108077,-6.034698,-10.880164,319.829987,29.120001,3.08,1729422406818.0,0.0
-2.505285,-4.941179,-10.281959,461.089996,46.27,16.799999,1729422406839.0,0.0
-2.632105,-4.694718,-7.685746,549.150024,56.98,30.1,1729422406860.0,0.0
-2.720639,-4.797609,-4.103691,506.23999,66.150002,21.0,1729422406879.0,0.0
-3.622734,-5.221139,-0.698704,362.390015,74.059998,17.57,1729422406898.0,0.0
-4.139583,-5.931807,0.490529,155.539993,64.330002,8.47,1729422406918.0,0.0
-4.541577,-7.49432,-0.26321,-30.52,35.560001,5.74,1729422406939.0,0.0
-3.59402,-10.514063,-2.043471,-83.300003,-4.27,6.58,1729422406959.0,0.0
-2.871387,-10.116854,-2.723032,-78.470001,2.31,1.12,1729422406979.0,0.0
-2.756532,-9.939785,-0.947558,-106.260002,-9.87,-11.06,1729422406999.0,0.0
-2.562713,-8.446664,0.842274,-166.740005,-36.470001,-18.969999,1729422407017.0,0.0
-2.194218,-4.67079,-3.536592,-227.570007,-61.599998,-23.799999,1729422407038.0,0.0
-1.730011,-4.54397,-5.759524,-304.220001,-71.959999,-26.460001,1729422407064.0,0.0
-1.799403,-5.536992,-7.357929,-375.269989,-57.119999,-24.85,1729422407078.0,0.0
-2.711068,-5.809773,-9.492328,-336.910004,-31.01,-11.34,1729422407099.0,0.0
-3.617948,-4.867002,-8.271988,-284.269989,-20.370001,-1.19,1729422407118.0,0.0
-4.953143,-5.922236,-7.683353,-215.600006,-17.99,8.05,1729422407139.0,0.0
-4.668397,-4.35733,-8.518449,-169.399994,-21.07,5.04,1729422407159.0,0.0
-3.842873,-3.428915,-8.673983,-142.589996,-35.98,13.79,1729422407178.0,0.0
-3.014957,-4.048656,-11.217552,-117.389999,-37.310001,15.54,1729422407198.0,0.0
-2.926422,-4.019942,-12.375679,-75.25,-20.719999,15.47,1729422407218.0,0.0
-3.419343,-3.838088,-11.356337,-20.370001,4.97,17.780001,1729422407238.0,0.0
-3.649055,-3.52702,-9.030513,13.440001,14.42,19.530001,1729422407258.0,0.0
-4.12044,-4.067799,-7.436893,25.83,17.360001,20.51,1729422407279.0,0.0
-4.828716,-4.34058,-7.391429,37.240002,14.91,20.58,1729422407300.0,0.0
-4.680361,-3.007778,-7.537392,27.16,0.21,16.73,1729422407319.0,0.0
-4.575077,-2.859423,-8.4012,-2.17,-1.12,17.710001,1729422407338.0,0.0
-4.63729,-4.201797,-9.054441,-12.95,1.19,17.15,1729422407359.0,0.0
-4.386044,-4.771288,-9.934999,-0.77,-1.05,9.87,1729422407377.0,0.0
-4.012764,-4.486543,-9.162118,13.65,4.69,-0.07,1729422407397.0,0.0
-3.586841,-4.108476,-8.989835,7.49,7.56,-9.24,1729422407419.0,0.0
-3.017349,-4.429115,-9.162118,9.8,7.7,-20.299999,1729422407438.0,0.0
-2.589034,-4.108476,-8.640482,24.360001,5.81,-26.110001,1729422407489.0,0.0
-2.596212,-3.486342,-8.559127,37.73,4.27,-26.950001,1729422407490.0,0.0
-3.184847,-3.555735,-7.523034,47.389999,9.94,-24.360001,1729422407500.0,0.0
-3.773481,-3.469593,-7.472785,39.689999,9.03,-20.299999,1729422407517.0,0.0
-3.675375,-2.921637,-7.563712,26.460001,-3.71,-14.0,1729422407539.0,0.0
-3.558127,-2.416751,-8.46102,26.880001,-11.2,-0.42,1729422407558.0,0.0
-3.866802,-3.091527,-8.30788,20.440001,-0.56,7.98,1729422407577.0,0.0
-4.297509,-3.912265,-8.245667,24.57,7.56,18.27,1729422407598.0,0.0
-4.723432,-4.627719,-6.506085,1.26,7.98,18.059999,1729422407617.0,0.0
-5.587241,-4.845466,-5.912664,-81.059998,4.97,2.31,1729422407638.0,0.0
-4.936393,-5.319244,-10.04507,-139.300003,-12.39,-12.74,1729422407661.0,0.0
-2.976671,-5.690133,-11.516656,-111.370003,-32.619999,-14.35,1729422407678.0,0.0
-2.151148,-5.618347,-11.066804,-35.91,-14.84,-17.219999,1729422407697.0,0.0
-2.976671,-4.12044,-8.889337,29.120001,13.86,-18.41,1729422407717.0,0.0
-3.113062,-2.85703,-7.243074,53.34,6.37,-14.28,1729422407739.0,0.0
-2.995814,-2.538785,-7.381857,40.529999,-8.33,-11.27,1729422407761.0,0.0
-3.534199,-2.70389,-7.532606,-4.41,-3.15,-10.71,1729422407777.0,0.0
-3.60359,-2.823531,-7.996813,-21.91,-9.52,-9.73,1729422407797.0,0.0
-3.541377,-3.474378,-8.465806,-24.710001,-13.09,-7.42,1729422407819.0,0.0
-3.510271,-2.919244,-9.339187,-19.809999,-7.63,-6.16,1729422407839.0,0.0
-3.206382,-2.586641,-9.4349,-13.51,-10.99,0.28,1729422407859.0,0.0
-3.261417,-2.935993,-10.04507,-21.700001,3.99,10.22,1729422407877.0,0.0
-3.739982,-4.197011,-9.10469,-24.639999,10.36,13.79,1729422407898.0,0.0
-4.711468,-4.835894,-7.422535,-37.450001,16.1,7.77,1729422407918.0,0.0
-4.680361,-4.713861,-8.286345,-70.0,4.41,-7.21,1729422407938.0,0.0
-3.960121,-5.063213,-10.078569,-59.57,-11.83,-10.64,1729422407960.0,0.0
-3.354738,-5.123034,-10.231709,4.97,-9.03,-15.05,1729422407977.0,0.0
-3.802195,-3.625126,-8.204988,56.490002,6.3,-13.72,1729422407997.0,0.0
-3.871587,-2.526821,-7.9346,63.700001,0.49,-10.15,1729422408018.0,0.0
-3.608376,-2.502892,-7.202396,52.57,-7.91,-6.09,1729422408040.0,0.0
-3.658626,-2.306681,-7.664211,38.990002,-7.49,-7.07,1729422408058.0,0.0
-3.98405,-2.179861,-8.066205,16.309999,-8.26,-3.5,1729422408078.0,0.0
-3.421736,-2.529213,-9.111869,-14.28,-12.11,-7.91,1729422408097.0,0.0
-3.287738,-2.426322,-9.131011,3.01,-4.83,7.91,1729422408119.0,0.0
-3.431308,-2.440679,-9.446864,13.37,-2.52,14.42,1729422408139.0,0.0
-4.206582,-3.39063,-8.922836,-6.16,13.440001,20.790001,1729422408159.0,0.0
-4.85743,-4.395615,-8.073383,-20.93,13.09,19.460001,1729422408177.0,0.0
-5.28096,-4.819145,-6.845865,-52.639999,5.11,7.07,1729422408199.0,0.0
-4.677969,-4.326223,-9.35833,-89.040001,-11.2,-6.44,1729422408218.0,0.0
-3.921836,-5.699703,-10.564312,-57.189999,-19.67,-5.32,1729422408237.0,0.0
-3.35713,-5.211568,-9.647861,10.57,-6.02,-11.55,1729422408259.0,0.0
-3.706482,-3.122634,-7.503892,64.330002,-0.28,-11.48,1729422408277.0,0.0
-3.981657,-2.057827,-7.405786,62.93,-4.34,-8.89,1729422408298.0,0.0
-4.261617,-2.462214,-7.305287,34.509998,-8.19,-3.78,1729422408317.0,0.0
-4.036692,-2.464607,-7.585248,1.19,-12.25,-5.6,1729422408339.0,0.0
-3.912265,-2.658426,-8.415558,-15.05,-18.129999,-3.43,1729422408358.0,0.0
-3.558127,-2.548356,-9.013763,-19.460001,-19.040001,-5.25,1729422408377.0,0.0
-3.692125,-3.06042,-9.482756,-11.48,-11.76,1.4,1729422408399.0,0.0
-4.309474,-3.629912,-9.056834,4.9,0.42,11.9,1729422408418.0,0.0
-5.008178,-4.003192,-8.183454,0.91,3.99,14.21,1729422408439.0,0.0
-5.257031,-4.601398,-8.236095,-59.639999,3.22,1.82,1729422408458.0,0.0
-4.634897,-5.146961,-10.430314,-72.660004,-5.39,-8.33,1729422408477.0,0.0
-3.586841,-5.053641,-10.633704,-29.610001,-9.59,-8.96,1729422408499.0,0.0
-3.596412,-4.54397,-9.664611,34.299999,5.04,-10.57,1729422408517.0,0.0
-3.972085,-2.940779,-7.642675,73.849998,16.309999,-11.97,1729422408537.0,0.0
-4.029513,-1.555335,-7.192825,68.879997,2.38,-9.31,1729422408558.0,0.0
-3.799802,-1.634298,-6.719046,29.889999,-5.04,-7.56,1729422408578.0,0.0
-4.115655,-2.557927,-7.427321,-2.66,-5.53,-7.49,1729422408598.0,0.0
-4.496114,-2.931208,-8.193025,-9.1,-6.86,-6.23,1729422408618.0,0.0
-4.130012,-2.945565,-8.932407,-10.85,-12.6,-10.15,1729422408637.0,0.0
-3.871587,-2.617748,-8.874979,-8.47,-7.56,-5.88,1729422408659.0,0.0
-4.199404,-2.462214,-8.913264,16.379999,0.91,6.58,1729422408679.0,0.0
-4.285545,-2.639283,-8.726624,13.72,3.22,13.3,1729422408697.0,0.0
-4.41715,-3.555735,-9.226725,-14.98,7.63,13.93,1729422408717.0,0.0
-4.833502,-4.936393,-7.984849,-46.130001,9.73,8.4,1729422408738.0,0.0
-4.797609,-4.991428,-8.080563,-79.660004,5.11,-9.45,1729422408757.0,0.0
-3.98405,-5.252246,-10.4016,-38.849998,-10.08,-11.06,1729422408779.0,0.0
-3.799802,-4.833502,-9.379865,30.380001,1.75,-12.53,1729422408799.0,0.0
-4.362115,-3.493521,-7.793423,70.980003,15.190001,-10.78,1729422408819.0,0.0
-4.21376,-1.509871,-6.9009,69.650002,4.06,-7.07,1729422408837.0,0.0
-4.003192,-1.533799,-7.113862,41.02,-9.45,-2.03,1729422408861.0,0.0
-4.287938,-2.201397,-7.657032,3.57,-4.41,-0.91,1729422408877.0,0.0
-4.682754,-3.251846,-8.468199,-16.309999,-3.85,-1.05,1729422408897.0,0.0
-4.053442,-3.251846,-8.468199,-18.76,-10.92,-7.91,1729422408917.0,0.0
-3.74716,-2.514857,-8.853443,1.12,-9.03,-1.75,1729422408937.0,0.0
-3.919443,-2.182254,-8.640482,11.06,-6.02,5.25,1729422408959.0,0.0
-4.536791,-2.888137,-9.202796,-15.68,8.19,12.11,1729422408977.0,0.0
-4.783253,-4.275974,-8.946764,-40.950001,9.38,14.0,1729422408998.0,0.0
-4.776074,-4.974678,-8.334201,-55.09,6.72,6.02,1729422409018.0,0.0
-4.125226,-4.089334,-9.399008,-58.240002,0.49,-6.16,1729422409038.0,0.0
-3.830909,-4.926822,-10.277173,-21.91,-1.89,-3.36,1729422409149.0,0.0
-3.785445,-4.608576,-9.334401,23.940001,8.68,-8.89,1729422409150.0,0.0
-4.079762,-3.550949,-7.530212,50.610001,14.77,-8.82,1729422409150.0,0.0
-3.663411,-2.048256,-6.898508,46.130001,-1.4,-6.09,1729422409150.0,0.0
-4.051049,-2.282753,-7.135397,33.670002,-2.24,-5.18,1729422409151.0,0.0
-4.733003,-2.347359,-7.537392,13.3,-2.87,-1.75,1729422409168.0,0.0
-4.505685,-2.718246,-8.413164,-14.42,-10.22,-5.88,1729422409186.0,0.0
-4.067799,-2.813959,-8.970692,-23.309999,-9.1,-4.83,1729422409197.0,0.0
-4.232903,-2.959922,-9.01137,7.21,-0.14,5.18,1729422409218.0,0.0
-4.39083,-2.612962,-8.733803,22.26,3.43,10.08,1729422409236.0,0.0
-4.500899,-2.840281,-9.245867,-6.44,7.0,11.76,1729422409258.0,0.0
-4.677969,-4.474578,-8.415558,-40.459999,7.49,10.57,1729422409277.0,0.0
-4.792823,-5.264209,-7.910671,-63.0,11.2,-3.5,1729422409297.0,0.0
-4.163511,-4.680361,-9.444471,-53.689999,-0.56,-12.32,1729422409316.0,0.0
-3.443272,-4.890929,-10.224532,-5.18,-9.03,-9.66,1729422409337.0,0.0
-3.519842,-4.295116,-9.018548,36.470001,5.95,-12.11,1729422409357.0,0.0
-4.295116,-3.15374,-7.76471,57.400002,17.360001,-9.73,1729422409378.0,0.0
-4.15394,-2.014757,-6.489335,62.790001,3.64,-5.32,1729422409397.0,0.0
-4.13719,-2.189433,-6.924829,45.009998,-8.19,-3.22,1729422409416.0,0.0
-4.59422,-2.900101,-8.271988,9.45,-6.02,-3.71,1729422409440.0,0.0
-4.06062,-3.022135,-9.152546,-30.030001,-11.34,-10.22,1729422409458.0,0.0
-3.869194,-2.632105,-8.843873,3.57,-10.71,-0.7,1729422409477.0,0.0
-4.163511,-2.423929,-8.475377,26.110001,-3.08,4.97,1729422409497.0,0.0
-4.744967,-2.251646,-9.020942,13.440001,6.86,13.3,1729422409517.0,0.0
-4.606184,-3.220739,-9.138189,-13.65,1.75,16.030001,1729422409539.0,0.0
-4.472186,-4.491328,-8.671589,-26.6,5.25,13.3,1729422409559.0,0.0
-4.922036,-5.182854,-7.582855,-38.57,11.34,2.73,1729422409576.0,0.0
-4.685147,-4.61097,-8.537591,-59.57,4.48,-10.64,1729422409596.0,0.0
-3.809374,-5.063213,-10.102496,-37.66,-8.33,-9.73,1729422409617.0,0.0
-3.34038,-4.953143,-9.49472,18.969999,-1.4,-8.82,1729422409642.0,0.0
-3.98405,-3.864408,-8.338986,63.279999,14.63,-8.26,1729422409657.0,0.0
-4.15394,-2.055435,-7.149754,69.580002,9.45,-6.86,1729422409676.0,0.0
-4.235296,-2.120041,-6.541977,46.759998,-2.66,-2.8,1729422409696.0,0.0
-4.383651,-2.715853,-7.21436,8.75,-3.43,-6.44,1729422409716.0,0.0
-4.395615,-3.278167,-8.623734,-20.16,-8.82,-9.1,1729422409736.0,0.0
-4.110869,-3.081956,-8.975478,-23.1,-7.7,-10.29,1729422409759.0,0.0
-4.216154,-2.665605,-8.597411,10.92,-4.06,-1.47,1729422409778.0,0.0
-4.500899,-2.476572,-8.855836,12.11,8.19,8.4,1729422409798.0,0.0
-4.453043,-3.227918,-9.372685,-6.72,5.18,14.35,1729422409851.0,0.0
-4.122833,-3.864408,-9.19801,-25.200001,7.07,12.39,1729422409872.0,0.0
-4.721039,-5.32403,-7.058826,-35.490002,13.51,6.51,1729422409962.0,0.0
-4.84068,-4.797609,-7.858029,-57.889999,7.28,-10.36,1729422409962.0,0.0
-4.199404,-5.268995,-9.52822,-42.07,-8.05,-10.78,1729422409963.0,0.0
-3.591627,-5.032106,-9.827322,11.69,-7.14,-11.34,1729422409963.0,0.0
-4.101298,-3.914658,-8.635696,57.75,14.35,-8.4,1729422409963.0,0.0
-4.309474,-2.684747,-7.089933,73.57,13.440001,-3.15,1729422409963.0,0.0
-3.87398,-2.421536,-6.458229,56.490002,-1.33,-2.31,1729422409975.0,0.0
-3.972085,-2.376073,-6.704689,24.85,-4.27,-4.48,1729422409995.0,0.0
-4.395615,-3.227918,-7.936993,-13.72,-6.16,-7.35,1729422410015.0,0.0
-4.012764,-2.964707,-8.733803,-29.82,-11.06,-10.57,1729422410035.0,0.0
-4.173083,-3.282953,-8.79123,8.75,-10.57,4.76,1729422410056.0,0.0
-4.474578,-2.847459,-8.394022,16.379999,-0.91,7.84,1729422410075.0,0.0
-4.871787,-3.148954,-9.19801,6.72,4.62,14.49,1729422410094.0,0.0
-4.462614,-3.754339,-9.346365,-15.4,2.17,11.06,1729422410115.0,0.0
-4.634897,-4.776074,-7.702496,-29.190001,7.21,5.88,1729422410135.0,0.0
-4.73061,-4.723432,-7.738388,-55.02,5.32,-6.93,1729422410155.0,0.0
-4.31426,-5.190032,-9.320045,-51.52,-3.78,-9.1,1729422410175.0,0.0
-3.737589,-5.513064,-9.753145,-5.18,-5.46,-8.12,1729422410195.0,0.0
-3.768696,-4.275974,-8.606983,45.150002,6.72,-8.33,1729422410215.0,0.0
-3.864408,-2.323431,-7.300502,71.75,6.65,-4.97,1729422410236.0,0.0
-4.161119,-1.749153,-6.329016,65.239998,-3.08,3.29,1729422410255.0,0.0
-4.615755,-2.201397,-6.970293,33.740002,-2.17,2.31,1729422410279.0,0.0
-4.934,-2.845066,-7.829315,-12.32,-3.29,2.03,1729422410295.0,0.0
-4.352544,-3.768696,-8.422735,-40.32,-10.15,-3.57,1729422410315.0,0.0
-4.06062,-3.778267,-9.401401,-20.440001,-7.28,-1.54,1729422410336.0,0.0
-4.125226,-3.053242,-8.700303,13.02,-2.73,3.29,1729422410357.0,0.0
-4.699504,-3.242275,-8.391629,10.01,5.6,10.43,1729422410376.0,0.0
-4.728218,-3.84048,-8.757731,-24.99,7.7,9.59,1729422410395.0,0.0
-4.800002,-4.989035,-8.30788,-54.950001,3.78,3.08,1729422410416.0,0.0
-4.24726,-5.000999,-9.274581,-64.610001,4.48,-9.1,1729422410435.0,0.0
-3.766303,-4.864608,-9.829715,-21.98,-1.96,-10.5,1729422410456.0,0.0
-3.783052,-4.663611,-9.090333,21.91,8.75,-10.5,1729422410475.0,0.0
-4.039084,-3.739982,-8.073383,48.23,16.73,-9.1,1729422410495.0,0.0
-3.847659,-2.644069,-7.063612,58.869999,7.7,-6.23,1729422410515.0,0.0
-3.957729,-2.459821,-6.685547,53.200001,1.12,-1.96,1729422410536.0,0.0
-4.326223,-2.182254,-6.592227,33.459999,-1.33,-2.87,1729422410555.0,0.0
-4.630112,-2.813959,-7.74796,-1.89,-9.24,-3.71,1729422410575.0,0.0
-4.187439,-3.574877,-8.530413,-35.98,-12.25,-9.73,1729422410595.0,0.0
-4.31426,-3.797409,-9.355937,-24.01,-4.13,-2.94,1729422410614.0,0.0
-4.59422,-3.227918,-8.60459,8.19,1.26,3.85,1729422410635.0,0.0
-4.847858,-3.069991,-8.236095,16.1,4.34,8.47,1729422410657.0,0.0
-5.118248,-4.0008,-7.491928,-12.6,2.31,7.91,1729422410675.0,0.0
-5.146961,-4.541577,-8.709875,-65.519997,3.15,-3.5,1729422410694.0,0.0
-4.465007,-5.486742,-9.430114,-71.120003,-3.71,-8.05,1729422410715.0,0.0
-3.553342,-5.288138,-10.092925,-24.99,-7.0,-9.17,1729422410735.0,0.0
-3.428915,-4.524827,-9.410972,36.610001,4.34,-6.51,1729422410756.0,0.0
-4.09412,-2.95035,-7.769495,64.68,15.61,-6.3,1729422410775.0,0.0
-3.85723,-2.40718,-7.101898,43.049999,5.39,-6.72,1729422410794.0,0.0
-3.917051,-2.9671,-6.814759,27.16,-3.01,-3.57,1729422410814.0,0.0
-4.362115,-3.168097,-7.171289,12.18,-2.94,-5.81,1729422410835.0,0.0
-4.500899,-3.48395,-8.039884,-14.56,-6.72,-8.12,1729422410856.0,0.0
-4.110869,-3.306881,-9.186047,-27.93,-9.45,-9.94,1729422410875.0,0.0
-4.082155,-3.115455,-8.84148,-5.67,-7.49,-4.34,1729422410895.0,0.0
-4.567898,-2.828316,-8.874979,22.33,7.35,6.72,1729422410914.0,0.0
-4.558327,-3.196811,-8.525627,16.799999,6.65,12.18,1729422410935.0,0.0
-4.424329,-4.06062,-8.69791,-14.7,10.71,11.83,1729422410955.0,0.0
-4.783253,-5.144568,-7.599605,-43.959999,12.95,3.78,1729422410975.0,0.0
-4.785645,-5.12782,-8.463413,-60.830002,8.12,-9.17,1729422410996.0,0.0
-3.744767,-4.776074,-9.690931,-44.869999,-5.46,-12.32,1729422411017.0,0.0
-3.474378,-5.242674,-9.425328,4.97,1.19,-6.93,1729422411035.0,0.0
-3.84048,-4.472186,-8.214561,49.420002,16.030001,-9.24,1729422411067.0,0.0
-4.041477,-2.639283,-7.171289,72.099998,13.3,-7.49,1729422411086.0,0.0
-4.237689,-1.9669,-6.202196,65.239998,-1.12,-0.91,1729422411096.0,0.0
-4.570292,-3.235096,-7.06122,28.35,-3.43,-4.13,1729422411115.0,0.0
-4.481757,-3.986443,-8.305488,-31.01,-9.59,-9.87,1729422411137.0,0.0
-3.907479,-3.754339,-8.676375,-30.030001,-15.68,-12.04,1729422411158.0,0.0
-3.948158,-2.969493,-8.906086,7.21,-9.38,-2.87,1729422411176.0,0.0
-4.130012,-2.531606,-9.018548,26.880001,-2.03,6.58,1729422411196.0,0.0
-4.35733,-3.646662,-9.250652,-4.34,5.74,12.46,1729422411214.0,0.0
-4.465007,-4.453043,-9.671788,-32.900002,14.84,13.51,1729422411235.0,0.0
-4.73061,-5.493921,-7.927422,-30.1,12.46,9.52,1729422411257.0,0.0
-4.460221,-4.412365,-8.008778,-41.790001,8.54,-6.09,1729422411275.0,0.0
-4.235296,-5.264209,-9.035298,-32.759998,1.96,-3.99,1729422411296.0,0.0
-3.582055,-5.836094,-8.88455,3.64,0.56,-9.38,1729422411316.0,0.0
-3.804588,-4.697111,-8.353344,49.209999,9.73,-12.88,1729422411336.0,0.0
-3.960121,-2.723032,-7.054041,71.400002,7.21,-10.78,1729422411357.0,0.0
-4.098906,-2.366502,-6.558727,53.34,-1.19,-7.07,1729422411377.0,0.0
-4.321437,-2.940779,-6.922436,11.97,-3.36,-7.98,1729422411398.0,0.0
-4.342973,-3.426522,-8.25763,-18.48,-9.17,-8.33,1729422411416.0,0.0
-4.022335,-2.998207,-8.834301,-14.35,-10.08,-4.41,1729422411437.0,0.0
-4.09412,-3.249453,-8.635696,2.03,-7.91,1.05,1729422411457.0,0.0
-4.570292,-3.055635,-8.719445,8.19,7.77,13.37,1729422411477.0,0.0
-4.259224,-3.385844,-9.025726,-5.32,0.7,16.799999,1729422411497.0,0.0
-4.048656,-3.986443,-8.953942,-32.759998,3.08,14.14,1729422411516.0,0.0
-4.917251,-5.673382,-7.467999,-53.41,15.26,7.91,1729422411535.0,0.0
-4.759324,-5.996413,-8.365308,-71.260002,5.6,-12.18,1729422411557.0,0.0
-3.720839,-5.668597,-9.075976,-42.0,-13.02,-15.54,1729422411576.0,0.0
-3.122634,-5.206782,-9.243474,11.06,-9.17,-16.799999,1729422411596.0,0.0
-3.917051,-4.292724,-8.403593,45.920002,11.9,-14.42,1729422411615.0,0.0
-4.326223,-2.957529,-7.477571,56.91,10.71,-10.29,1729422411635.0,0.0
-4.067799,-2.63689,-6.652047,44.380001,-5.11,-5.67,1729422411657.0,0.0
-4.07737,-3.050849,-7.216753,18.200001,-5.88,-7.77,1729422411675.0,0.0
-4.252046,-3.381058,-8.01117,-10.5,-5.95,-9.45,1729422411695.0,0.0
-4.074977,-3.026921,-8.492127,-5.81,-6.51,-4.48,1729422411715.0,0.0
-4.156333,-3.201597,-8.372486,14.07,-8.26,3.57,1729422411738.0,0.0
-4.821537,-2.98385,-8.429914,20.440001,5.6,12.46,1729422411757.0,0.0
-4.632504,-3.120241,-8.776874,15.47,-1.89,17.219999,1729422411775.0,0.0
-4.256832,-4.304688,-9.549755,-26.110001,-2.59,12.11,1729422411795.0,0.0
-4.694718,-5.295317,-8.200203,-31.710001,9.87,7.14,1729422411815.0,0.0
-4.426722,-5.156533,-7.767102,-37.869999,4.76,-4.62,1729422411835.0,0.0
-3.864408,-5.343173,-8.389235,-25.48,-5.6,-7.21,1729422411857.0,0.0
-3.696911,-5.326423,-8.819944,-0.98,-3.22,-10.43,1729422411876.0,0.0
-4.012764,-4.34058,-8.456236,21.629999,7.63,-10.01,1729422411894.0,0.0
-3.931407,-3.335595,-7.939385,35.77,3.01,-6.09,1729422411916.0,0.0
-3.735196,-3.079563,-7.176075,28.84,-2.87,-2.52,1729422411935.0,0.0
-4.261617,-3.330809,-7.456036,19.18,2.31,-0.28,1729422411956.0,0.0
-4.584648,-3.572484,-7.910671,2.94,1.47,-3.22,1729422411975.0,0.0
-4.089334,-3.833302,-8.173882,-13.440001,-3.64,-5.95,1729422411995.0,0.0
-3.854837,-3.704089,-8.49452,-5.81,-3.78,-3.29,1729422412015.0,0.0
-4.500899,-3.046063,-8.200203,12.46,3.64,3.78,1729422412036.0,0.0
-4.907679,-3.089134,-8.212167,8.96,3.22,7.98,1729422412056.0,0.0
-4.737789,-4.034299,-9.092726,-19.67,0.56,8.96,1729422412077.0,0.0
-4.780859,-5.005785,-8.721838,-45.849998,6.16,4.9,1729422412096.0,0.0
-4.646862,-5.309673,-8.458629,-48.860001,5.67,-4.55,1729422412115.0,0.0
-3.981657,-5.254639,-8.848659,-17.219999,-2.1,-9.87,1729422412135.0,0.0
-3.919443,-4.790431,-8.898908,15.96,3.5,-12.95,1729422412155.0,0.0
-4.072584,-3.725625,-8.427521,34.650002,7.42,-11.13,1729422412174.0,0.0
-3.809374,-3.017349,-7.692925,26.6,2.31,-9.38,1729422412194.0,0.0
-3.548556,-3.550949,-6.874579,11.41,-2.03,-4.97,1729422412214.0,0.0
-4.022335,-3.76391,-7.142576,16.870001,0.91,-4.06,1729422412234.0,0.0
-4.393222,-3.65384,-8.042276,17.85,-4.27,-6.79,1729422412254.0,0.0
-4.04387,-3.601198,-8.078169,-8.54,-5.6,-9.1,1729422412274.0,0.0
-3.787838,-4.019942,-8.501699,-12.39,-6.65,-6.79,1729422412294.0,0.0
-4.424329,-3.739982,-8.456236,9.45,4.76,0.14,1729422412314.0,0.0
-4.826324,-3.330809,-8.207381,19.879999,6.44,2.17,1729422412334.0,0.0
-4.85743,-4.261617,-7.860423,-10.08,-0.56,2.38,1729422412354.0,0.0
-4.744967,-4.728218,-8.46102,-68.949997,4.62,-9.24,1729422412374.0,0.0
-4.290331,-5.355137,-9.372685,-84.419998,-1.68,-16.17,1729422412394.0,0.0
-3.371487,-4.811966,-9.822537,-52.709999,-5.88,-18.129999,1729422412414.0,0.0
-3.792624,-5.048856,-9.281759,22.960001,3.85,-8.05,1729422412434.0,0.0
-4.759324,-3.034099,-7.57089,77.559998,14.35,-8.12,1729422412455.0,0.0
-4.845466,-2.299503,-6.439085,75.18,6.3,-2.52,1729422412474.0,0.0
-4.304688,-2.79721,-7.037291,17.780001,-1.61,-6.79,1729422412493.0,0.0
-4.280759,-4.319045,-8.4012,-13.16,-0.77,-5.04,1729422412513.0,0.0
-4.362115,-4.453043,-8.274381,-6.86,0.42,-9.94,1729422412534.0,0.0
-4.405186,-4.62054,-8.092526,7.42,-0.14,-13.93,1729422412554.0,0.0
-4.151547,-4.414758,-8.542377,-6.72,0.63,-20.51,1729422412574.0,0.0
-3.814159,-5.156533,-9.207582,-24.360001,4.06,-25.549999,1729422412594.0,0.0
-3.862016,-5.766702,-10.183852,-5.25,14.49,-27.860001,1729422412614.0,0.0
-3.974478,-5.754738,-11.143374,48.580002,26.389999,-32.549999,1729422412634.0,0.0
-4.462614,-6.379266,-9.643075,121.800003,51.52,-27.440001,1729422412655.0,0.0
-4.508078,-6.424729,-8.449057,184.869995,57.470001,-27.02,1729422412674.0,0.0
-3.835695,-5.673382,-7.728817,210.979996,49.84,-24.92,1729422412693.0,0.0
-3.04367,-5.343173,-7.805387,206.710007,48.720001,-19.67,1729422412714.0,0.0
-2.22054,-5.84088,-8.872586,204.190002,51.450001,-12.04,1729422412734.0,0.0
-1.574477,-6.352944,-7.769495,212.729996,55.720001,-6.37,1729422412755.0,0.0
-1.435694,-6.427122,-6.951149,228.899994,62.299999,1.4,1729422412773.0,0.0
-1.184447,-6.309873,-5.735595,245.559998,64.68,5.04,1729422412793.0,0.0
-1.124627,-6.175875,-4.455436,262.709991,60.760002,13.440001,1729422412814.0,0.0
-1.237089,-6.369694,-3.242275,267.75,61.459999,14.98,1729422412833.0,0.0
-1.866402,-6.520442,-2.005185,245.419998,65.449997,17.43,1729422412854.0,0.0
-2.600998,-6.60419,-1.395016,205.169998,61.529999,19.389999,1729422412874.0,0.0
-3.189633,-7.956135,-0.909273,164.360001,55.439999,23.309999,1729422412893.0,0.0
-3.61077,-9.159724,-0.76331,128.869995,46.830002,22.120001,1729422412913.0,0.0
-3.63709,-9.090333,-0.098106,114.520004,47.459999,24.43,1729422412934.0,0.0
-3.917051,-7.862815,-0.425922,91.840004,53.060001,28.91,1729422412955.0,0.0
-5.113462,-9.401401,0.851845,42.07,55.93,24.01,1729422412974.0,0.0
-5.730811,-11.674582,1.667797,-31.99,15.47,8.05,1729422412995.0,0.0
-3.816552,-11.504691,-0.303888,-20.790001,-1.82,6.3,1729422413015.0,0.0
-3.026921,-9.726824,-1.17009,19.32,19.950001,0.42,1729422413035.0,0.0
-3.464807,-9.633504,-1.971686,15.47,24.01,-7.63,1729422413059.0,0.0
-3.067599,-9.75793,-1.088734,27.02,25.34,0.7,1729422413075.0,0.0
-2.919244,-9.238688,-0.179462,44.240002,34.439999,3.85,1729422413094.0,0.0
-3.055635,-8.812766,1.138984,38.360001,31.99,1.89,1729422413115.0,0.0
-1.969293,-8.755339,1.859223,13.79,17.219999,-0.91,1729422413136.0,0.0
-1.268196,-8.662018,1.387837,-19.25,-0.63,1.89,1729422413157.0,0.0
-1.447658,-10.080962,0.413958,-29.960001,-11.34,-0.56,1729422413176.0,0.0
-1.684547,-10.463813,-0.622134,-29.540001,-14.63,-3.71,1729422413195.0,0.0
-1.722832,-9.552148,-0.37328,-20.719999,-16.24,-2.1,1729422413214.0,0.0
-1.933401,-9.035298,-0.605384,-27.719999,-19.110001,-1.19,1729422413236.0,0.0
-2.103291,-8.535198,-0.602991,-52.360001,-25.129999,0.07,1729422413256.0,0.0
-2.15354,-8.126025,-1.363909,-71.540001,-29.4,5.88,1729422413275.0,0.0
-2.234896,-8.315059,-1.674976,-71.82,-29.960001,13.79,1729422413295.0,0.0
-2.78046,-9.657433,-1.651048,-49.490002,-28.91,24.15,1729422413314.0,0.0
-3.761517,-10.420743,-2.9336,23.379999,-17.57,33.32,1729422413335.0,0.0
-5.146961,-8.949157,-1.660619,94.360001,25.9,39.34,1729422413357.0,0.0
-8.372486,-11.018949,0.260818,3.43,39.34,16.940001,1729422413377.0,0.0
-5.721239,-13.392628,-2.514857,-56.77,-11.27,-9.17,1729422413395.0,0.0
-2.773281,-10.930414,-2.366502,32.48,13.09,-4.34,1729422413414.0,0.0
-3.981657,-7.752745,-1.694118,97.160004,39.900002,-10.43,1729422413434.0,0.0
-5.108676,-7.207181,-1.816152,107.029999,44.939999,-0.77,1729422413456.0,0.0
-4.878965,-8.618947,0.404387,26.18,43.330002,-2.87,1729422413475.0,0.0
-4.462614,-10.82513,0.837488,-11.55,20.16,-11.9,1729422413494.0,0.0
-2.615355,-9.492328,0.48335,7.77,13.02,-17.710001,1729422413514.0,0.0
-1.792224,-8.606983,1.387837,11.48,11.76,-19.6,1729422413535.0,0.0
-1.782653,-8.252845,1.387837,-26.67,-6.3,-20.370001,1729422413555.0,0.0
-2.54357,-9.080762,0.775275,-68.18,-13.79,-18.34,1729422413575.0,0.0
-2.364109,-10.717452,-0.595813,-97.860001,-34.369999,-29.049999,1729422413594.0,0.0
-0.98345,-10.07139,-1.385444,-70.699997,-43.189999,-29.33,1729422413614.0,0.0
-0.605384,-7.592427,-0.911665,-42.07,-28.77,-15.89,1729422413635.0,0.0
-1.311267,-7.80778,-1.37348,-59.290001,-34.720001,-10.92,1729422413656.0,0.0
-1.51705,-9.29133,-3.991228,-34.16,-42.420002,-0.07,1729422413674.0,0.0
-1.385444,-9.568897,-2.935993,43.049999,-28.84,12.81,1729422413693.0,0.0
-2.526821,-7.092326,-1.22034,96.599998,5.81,31.08,1729422413714.0,0.0
-4.165904,-5.843273,-1.397408,99.68,29.610001,41.650002,1729422413734.0,0.0
-7.819745,-11.150554,3.026921,17.01,25.76,33.880001,1729422413755.0,0.0
-5.35753,-14.696717,-2.988636,-60.760002,-29.26,-8.82,1729422413775.0,0.0
-2.801995,-12.050256,-1.631905,49.209999,6.23,14.98,1729422413794.0,0.0
-5.510671,-7.700103,-0.200997,105.629997,45.43,1.05,1729422413814.0,0.0
-6.238089,-9.525827,0.382852,51.869999,32.759998,-2.31,1729422413835.0,0.0
-4.546363,-10.870593,0.028714,-2.24,18.9,-19.110001,1729422413857.0,0.0
-2.811567,-9.41815,0.198604,-10.15,22.190001,-25.27,1729422413874.0,0.0
-2.617748,-8.453842,1.339981,-7.91,27.23,-24.5,1729422413894.0,0.0
-2.378466,-8.525627,2.127219,-30.17,7.42,-28.35,1729422413914.0,0.0
-2.141576,-8.142776,1.663012,-74.830002,-8.68,-24.639999,1729422413934.0,0.0
-1.981257,-8.233703,0.251246,-132.789993,-29.960001,-23.379999,1729422413956.0,0.0
-0.952343,-9.647861,-1.765903,-135.240005,-51.170002,-17.780001,1729422413974.0,0.0
-0.11007,-9.466006,-1.418944,-75.32,-49.630001,-9.87,1729422413994.0,0.0
-0.794417,-8.405986,-1.103091,-17.57,-44.240002,1.61,1729422414015.0,0.0
-2.598605,-7.829315,-1.311267,1.12,-30.1,20.440001,1729422414034.0,0.0
-4.027121,-8.441878,-2.919244,-22.610001,-28.42,27.58,1729422414137.0,0.0
-5.04407,-9.619147,-3.105884,-2.66,-4.76,31.57,1729422414144.0,0.0
-7.118648,-11.306087,-1.65344,7.84,17.01,19.6,1729422414148.0,0.0
-5.642276,-12.662818,-2.938386,8.75,8.05,-1.54,1729422414148.0,0.0
-3.206382,-9.260223,-1.430908,61.110001,20.370001,4.2,1729422414148.0,0.0
-4.524827,-8.602197,-2.07697,65.169998,40.110001,-5.6,1729422414157.0,0.0
-4.67079,-8.539984,-1.629512,45.5,42.490002,-5.74,1729422414174.0,0.0
-4.412365,-9.499505,-0.9667,23.870001,43.889999,-7.28,1729422414194.0,0.0
-3.742374,-10.581062,0.746561,17.43,31.85,-15.75,1729422414214.0,0.0
-2.402394,-9.212367,1.923829,16.379999,12.67,-21.280001,1729422414234.0,0.0
-1.31366,-8.008778,1.246661,-0.98,1.33,-23.59,1729422414256.0,0.0
-1.098306,-8.472985,0.071785,-47.950001,-19.530001,-24.43,1729422414274.0,0.0
-1.51705,-10.054641,-1.165305,-77.559998,-27.93,-22.4,1729422414293.0,0.0
-1.091127,-9.769895,-1.057628,-59.57,-38.220001,-21.42,1729422414314.0,0.0
-0.993021,-7.767102,-0.949951,-42.420002,-35.139999,-15.61,1729422414334.0,0.0
-1.629512,-9.181261,-2.474179,-43.540001,-48.439999,-12.46,1729422414354.0,0.0
-2.007578,-10.310673,-3.383451,9.59,-40.18,3.36,1729422414374.0,0.0
-2.56032,-7.659425,-2.275574,86.379997,1.61,17.710001,1729422414393.0,0.0
-3.728018,-5.536992,-2.823531,112.699997,30.59,33.529999,1729422414413.0,0.0
-6.640083,-8.68116,2.842674,73.220001,39.41,43.259998,1729422414434.0,0.0
-7.190433,-12.760924,-0.995414,-43.470001,0.21,9.52,1729422414454.0,0.0
-2.249253,-10.880164,-3.4672,-14.7,-14.35,6.65,1729422414474.0,0.0
-3.486342,-6.568298,-3.323631,100.590004,40.389999,9.17,1729422414494.0,0.0
-5.472386,-6.910471,0.509671,99.610001,62.860001,17.780001,1729422414514.0,0.0
-6.039484,-8.956335,1.146162,-37.170002,44.59,0.63,1729422414534.0,0.0
-4.249653,-11.432907,-0.732204,-123.970001,5.46,-18.129999,1729422414555.0,0.0
-1.663012,-11.047661,-0.272782,-70.07,-6.09,-15.96,1729422414573.0,0.0
-1.289732,-8.796017,0.815953,-20.23,3.01,-23.17,1729422414593.0,0.0
-2.682354,-8.362915,0.662812,-52.009998,-5.67,-23.1,1729422414614.0,0.0
-2.744568,-9.822537,-1.031307,-98.0,-31.99,-24.710001,1729422414634.0,0.0
-1.710868,-10.770095,-2.014757,-79.029999,-48.509998,-26.67,1729422414654.0,0.0
-1.308874,-8.360522,-1.605584,-33.389999,-32.970001,-20.65,1729422414674.0,0.0
-2.0004,-7.15454,-2.184647,-28.210001,-31.99,-13.93,1729422414693.0,0.0
-2.309074,-8.425128,-2.979064,-22.68,-33.599998,0.14,1729422414713.0,0.0
-2.677568,-9.504292,-3.101098,3.71,-22.960001,9.73,1729422414735.0,0.0
-3.096312,-8.559127,-3.005385,52.290001,-3.15,20.299999,1729422414754.0,0.0
-4.462614,-8.343772,-0.976272,70.910004,22.75,30.1,1729422414774.0,0.0
-5.757132,-10.442278,-1.17009,-7.91,18.059999,13.02,1729422414794.0,0.0
-3.383451,-12.076575,-3.476771,-40.529999,-13.09,5.88,1729422414813.0,0.0
-3.409772,-8.499306,-3.383451,97.790001,29.960001,13.58,1729422414834.0,0.0
-5.699703,-7.9681,-0.799203,101.849998,55.580002,13.23,1729422414855.0,0.0
-6.295516,-9.580862,-0.947558,-0.91,42.630001,-1.12,1729422414873.0,0.0
-4.187439,-10.58824,0.612563,-76.160004,15.75,-13.3,1729422414896.0,0.0
-1.337588,-9.810574,0.954736,-62.860001,-8.82,-21.210001,1729422414914.0,0.0
-0.131605,-7.642675,1.064806,-28.77,-11.13,-19.6,1729422414933.0,0.0
-0.851845,-6.888937,0.323031,-50.889999,-25.27,-11.2,1729422414955.0,0.0
-1.940579,-9.205189,-2.179861,-85.260002,-39.900002,-5.88,1729422414974.0,0.0
-1.844866,-11.263017,-1.840081,-62.439999,-66.5,-4.06,1729422414993.0,0.0
-1.359123,-8.52802,-1.976472,-7.14,-58.66,1.47,1729422415013.0,0.0
-2.471786,-7.21436,-3.771089,-0.49,-38.849998,9.66,1729422415034.0,0.0
-5.505885,-8.599805,-2.775674,-19.67,-15.82,20.719999,1729422415058.0,0.0
-9.10469,-11.088341,-4.601398,-50.049999,23.450001,11.13,1729422415073.0,0.0
-5.71406,-12.605389,-4.106083,-28.210001,3.71,1.4,1729422415094.0,0.0
-2.400001,-10.332209,-2.146362,36.75,14.98,0.91,1729422415114.0,0.0
-4.572684,-7.817351,-4.189832,51.869999,38.709999,-10.99,1729422415133.0,0.0
-5.032106,-8.147561,-2.85703,38.009998,54.529999,-0.28,1729422415155.0,0.0
-4.74736,-9.901501,-1.452443,-5.74,41.02,-8.82,1729422415173.0,0.0
-3.046063,-9.968499,0.622134,-2.45,24.01,-17.360001,1729422415193.0,0.0
-1.545763,-7.673782,2.730211,11.83,8.12,-21.0,1729422415213.0,0.0
-0.830309,-7.147361,0.504886,-24.219999,-11.62,-24.43,1729422415234.0,0.0
-0.502493,-7.836494,-1.945365,-80.989998,-32.48,-20.09,1729422415255.0,0.0
-0.646062,-10.772489,-3.117848,-79.940002,-42.77,-13.16,1729422415273.0,0.0
-0.37328,-10.779665,-3.139383,11.41,-37.799999,-4.41,1729422415294.0,0.0
-1.806581,-7.054041,-1.507478,81.340004,-6.93,8.68,1729422415313.0,0.0
-3.964907,-6.211767,-2.041078,53.619999,-1.05,18.549999,1729422415333.0,0.0
-4.493721,-6.740582,-2.467,3.99,-13.65,29.33,1729422415355.0,0.0
-6.723832,-9.712467,-1.392623,-26.32,-3.78,39.48,1729422415373.0,0.0
-7.130611,-12.442677,-5.673382,-62.720001,3.15,13.37,1729422415393.0,0.0
-5.209175,-12.870994,-4.752146,-24.639999,-0.77,12.6,1729422415413.0,0.0
-4.029513,-9.671788,-4.393222,58.52,30.450001,3.85,1729422415433.0,0.0
-5.333601,-8.439486,-2.598605,67.410004,53.27,-4.69,1729422415454.0,0.0
-5.221139,-9.229117,-1.153341,8.12,40.389999,-12.88,1729422415473.0,0.0
-2.476572,-9.233903,0.229711,-26.74,12.6,-19.950001,1729422415493.0,0.0
-1.734797,-8.958728,-0.026321,-15.82,4.2,-24.639999,1729422415513.0,0.0
-1.452443,-8.449057,-0.9667,-34.02,-7.21,-26.74,1729422415533.0,0.0
-1.31366,-8.757731,-1.878366,-67.410004,-18.690001,-24.290001,1729422415554.0,0.0
-1.275374,-9.573684,-2.438286,-80.849998,-24.15,-24.639999,1729422415574.0,0.0
-1.009771,-8.922836,-2.285146,-45.779999,-28.139999,-20.440001,1729422415593.0,0.0
-1.411765,-7.479963,-1.536192,-1.05,-25.76,-10.5,1729422415613.0,0.0
-2.739782,-6.960721,-2.182254,-4.69,-26.880001,2.03,1729422415634.0,0.0
-3.816552,-7.948956,-4.304688,-18.9,-25.549999,14.63,1729422415654.0,0.0
-3.778267,-8.202596,-5.393422,-2.38,-17.290001,25.48,1729422415673.0,0.0
-5.998806,-8.685946,-0.81356,15.47,13.23,40.599998,1729422415692.0,0.0
-7.573284,-11.717653,-5.257031,-53.41,6.09,8.82,1729422415713.0,0.0
-4.189832,-12.727424,-5.589634,-6.51,-17.92,12.6,1729422415735.0,0.0
-2.579463,-8.84148,-4.201797,77.0,16.17,7.56,1729422415755.0,0.0
-4.59422,-7.685746,-3.156133,96.110001,40.459999,5.25,1729422415772.0,0.0
-5.474778,-8.458629,-2.443072,54.950001,37.939999,6.65,1729422415793.0,0.0
-3.821337,-10.246067,-2.414358,-4.83,27.440001,-6.02,1729422415813.0,0.0
-2.713461,-9.968499,-1.756332,9.52,24.99,-14.7,1729422415833.0,0.0
-2.447858,-8.618947,0.193819,33.599998,26.74,-19.460001,1729422415854.0,0.0
-2.289931,-7.563712,0.488136,18.549999,15.4,-17.57,1729422415874.0,0.0
-1.883151,-8.283953,-0.758525,-31.290001,-4.62,-19.879999,1729422415893.0,0.0
-1.462015,-8.762517,-1.89033,-60.760002,-22.26,-15.96,1729422415913.0,0.0
-1.330409,-8.453842,-2.256432,-50.400002,-27.440001,-10.64,1729422415933.0,0.0
-1.366302,-8.437093,-2.648855,-17.99,-34.580002,-1.47,1729422415954.0,0.0
-2.242075,-8.391629,-2.892922,7.21,-29.120001,9.45,1729422415973.0,0.0
-3.474378,-7.9346,-3.127419,17.290001,-17.290001,18.48,1729422415993.0,0.0
-5.536992,-8.879765,-2.629712,19.18,-2.1,25.76,1729422416013.0,0.0
-7.240681,-9.992428,-4.127619,-5.81,2.59,14.21,1729422416033.0,0.0
-4.85743,-10.832308,-4.508078,-13.02,1.47,9.31,1729422416054.0,0.0
-3.421736,-11.184053,-4.319045,10.78,8.82,5.11,1729422416073.0,0.0
-4.61097,-9.190832,-3.404987,64.330002,35.490002,-2.24,1729422416092.0,0.0
-5.15414,-7.542177,-2.400001,59.290001,47.950001,-4.55,1729422416113.0,0.0
-3.905087,-8.762517,-2.146362,1.05,26.18,-9.73,1729422416134.0,0.0
-2.033899,-9.561719,-0.366102,-25.48,17.219999,-7.91,1729422416154.0,0.0
-1.519442,-8.166703,0.105284,-31.57,5.18,-11.2,1729422416173.0,0.0
-1.277767,-7.503892,-1.227518,-68.879997,-7.98,-12.53,1729422416192.0,0.0
-1.215554,-8.389235,-2.490928,-114.239998,-22.82,-10.85,1729422416212.0,0.0
-1.533799,-10.030712,-3.955336,-116.550003,-28.42,-8.96,1729422416234.0,0.0
-1.923829,-10.920842,-4.45065,-65.029999,-29.26,-10.57,1729422416254.0,0.0
-2.201397,-9.150154,-4.12044,0.07,-22.190001,-12.18,1729422416272.0,0.0
-2.955136,-7.403394,-3.35713,20.23,-14.7,-6.44,1729422416293.0,0.0
-4.074977,-7.211967,-3.601198,3.22,-8.05,0.77,1729422416312.0,0.0
-5.742774,-7.872386,-3.18724,5.53,-3.57,13.02,1729422416333.0,0.0
-7.104291,-8.439486,-3.716053,19.6,9.31,18.549999,1729422416354.0,0.0
-7.068398,-9.930215,-4.680361,3.36,20.93,12.46,1729422416372.0,0.0
-5.283352,-10.750952,-4.424329,-2.94,13.79,4.69,1729422416392.0,0.0
-3.931407,-10.095319,-5.702096,25.9,22.68,-8.54,1729422416414.0,0.0
-3.914658,-8.035098,-3.304488,74.480003,44.73,-5.04,1729422416433.0,0.0
-4.122833,-7.13779,-2.557927,47.880001,46.619999,-5.6,1729422416454.0,0.0
-3.787838,-9.688539,-1.117448,-7.84,26.880001,-9.52,1729422416473.0,0.0
-1.572084,-9.616754,-1.70369,-17.780001,7.07,-21.49,1729422416495.0,0.0
-1.308874,-8.274381,-1.414158,-10.22,-2.1,-24.99,1729422416512.0,0.0
-1.567299,-8.252845,-2.084148,-40.740002,-13.86,-26.809999,1729422416533.0,0.0
-1.490728,-9.128618,-3.393023,-61.040001,-25.48,-28.630001,1729422416553.0,0.0
-1.033699,-9.047262,-3.59402,-42.279999,-31.57,-26.809999,1729422416572.0,0.0
-1.234696,-7.831708,-2.871387,-10.71,-30.870001,-22.33,1729422416592.0,0.0
-2.139183,-7.23111,-3.328416,3.36,-31.15,-14.91,1729422416613.0,0.0
-2.909672,-7.314859,-3.184847,0.56,-34.02,-1.47,1729422416633.0,0.0
-2.900101,-7.350751,-4.010371,6.3,-31.15,12.88,1729422416654.0,0.0
-3.208775,-7.546963,-4.283153,45.220001,-15.47,32.549999,1729422416672.0,0.0
-3.419343,-7.463214,-4.323831,75.669998,-0.49,44.66,1729422416695.0,0.0
-6.190232,-10.028319,-1.737189,56.84,18.549999,51.029999,1729422416712.0,0.0
-6.999006,-11.854043,-4.35733,-22.610001,4.06,15.12,1729422416732.0,0.0
-4.096512,-11.933006,-5.285746,3.36,-3.29,17.15,1729422416753.0,0.0
-2.699104,-9.427721,-4.603791,56.209999,19.040001,8.05,1729422416773.0,0.0
-4.570292,-8.080563,-3.929015,68.949997,43.68,10.36,1729422416793.0,0.0
-6.269196,-9.592826,-2.770889,22.469999,48.369999,2.45,1729422416812.0,0.0
-3.711268,-11.234302,-2.179861,-26.460001,24.780001,-24.08,1729422416833.0,0.0
-2.033899,-9.784252,-0.856631,-1.05,22.33,-34.439999,1729422416853.0,0.0
-1.646262,-8.209774,-0.014357,-4.41,8.54,-40.110001,1729422416872.0,0.0
-1.639083,-7.956135,-1.028914,-39.130001,-7.42,-36.959999,1729422416892.0,0.0
-1.124627,-8.145168,-1.663012,-67.480003,-24.99,-36.049999,1729422416913.0,0.0
-0.09332,-6.032306,-1.284946,-21.139999,-34.09,-14.49,1729422416933.0,0.0
-0.100499,-5.446064,-1.251446,29.469999,-35.209999,18.34,1729422416956.0,0.0
-2.050649,-6.522834,-1.792224,1.33,-37.52,37.310001,1729422416972.0,0.0
-4.309474,-8.800802,-4.532006,-27.860001,-33.18,47.880001,1729422416992.0,0.0
-7.733603,-11.25823,-3.854837,-9.24,-10.08,50.119999,1729422417013.0,0.0
-9.272188,-12.696317,-8.982656,-42.0,16.870001,4.2,1729422417032.0,0.0
-5.481956,-13.533805,-6.441479,9.59,-9.03,4.06,1729422417054.0,0.0
-2.28036,-9.095119,-5.12782,92.400002,16.59,-6.93,1729422417074.0,0.0
-3.04367,-6.881758,-3.046063,126.629997,45.920002,-13.16,1729422417093.0,0.0
-4.651647,-7.817351,-2.608176,84.139999,48.93,-10.92,1729422417112.0,0.0
-4.529613,-10.549955,-1.648655,52.849998,23.17,-17.01,1729422417133.0,0.0
-2.531606,-10.191031,-1.366302,97.720001,23.73,-23.309999,1729422417155.0,0.0
-1.919044,-10.425529,-1.378266,193.970001,18.059999,-25.76,1729422417172.0,0.0
-1.643869,-11.748759,-2.268396,283.290009,15.4,-33.32,1729422417192.0,0.0
-1.395016,-9.229117,0.681954,378.980011,40.32,-30.380001,1729422417212.0,0.0
-1.086342,-5.60399,3.474378,395.5,61.599998,-29.049999,1729422417232.0,0.0
-1.90708,-3.57727,4.713861,306.880005,52.920002,-15.89,1729422417256.0,0.0
-2.275574,-4.412365,4.723432,210.0,33.389999,-4.62,1729422417272.0,0.0
-3.749553,-7.334002,4.733003,144.619995,28.0,2.59,1729422417292.0,0.0
-3.845266,-10.100104,3.909872,117.879997,28.07,-6.93,1729422417312.0,0.0
-2.998207,-8.939585,4.249653,133.139999,40.459999,-11.13,1729422417332.0,0.0
-3.701697,-7.484749,5.493921,147.279999,52.009998,1.75,1729422417354.0,0.0
-3.658626,-7.372287,5.79781,114.590004,45.920002,-3.85,1729422417372.0,0.0
-3.452843,-7.597212,4.666004,81.900002,37.73,-9.52,1729422417392.0,0.0
-3.787838,-8.30788,4.469792,87.290001,42.420002,-5.88,1729422417413.0,0.0
-3.318845,-8.525627,5.103891,100.029999,46.549999,-14.84,1729422417434.0,0.0
-3.723232,-7.793423,7.142576,119.699997,52.920002,-18.129999,1729422417454.0,0.0
-4.625326,-7.152147,6.862615,98.209999,42.700001,-24.219999,1729422417472.0,0.0
-4.139583,-8.910872,5.962914,59.779999,28.630001,-32.060001,1729422417492.0,0.0
-5.192425,-9.717253,6.565905,66.290001,21.0,-46.830002,1729422417512.0,0.0
-5.07757,-7.441679,6.343372,72.099998,19.809999,-58.73,1729422417534.0,0.0
-3.766303,-6.606583,6.728617,54.950001,13.3,-58.73,1729422417554.0,0.0
-1.284946,-4.029513,6.285945,44.450001,0.56,-58.869999,1729422417571.0,0.0
-1.68694,-1.213161,8.130811,52.990002,10.78,-30.380001,1729422417593.0,0.0
-2.414358,0.088534,6.814759,-7.84,-2.59,-4.76,1729422417612.0,0.0
-2.091327,-1.131805,5.680561,-44.099998,-15.47,20.16,1729422417632.0,0.0
-3.572484,-3.601198,5.580062,-35.700001,-11.27,44.170002,1729422417653.0,0.0
-3.708875,-5.216353,5.103891,-30.59,-9.38,53.34,1729422417672.0,0.0
-2.689533,-4.780859,5.067998,-11.2,7.63,66.57,1729422417691.0,0.0
-4.063013,-4.577469,5.522634,-9.31,14.49,67.059998,1729422417711.0,0.0
-5.465207,-7.054041,5.379066,-17.5,11.41,69.370003,1729422417732.0,0.0
-6.192625,-9.71486,6.76451,-4.97,8.47,58.73,1729422417754.0,0.0
-6.975078,-11.69851,6.568298,14.84,4.76,29.4,1729422417771.0,0.0
-7.130611,-13.624733,6.02752,19.389999,-13.23,-20.790001,1729422417792.0,0.0
-4.553542,-8.609376,6.209375,65.730003,1.82,-49.490002,1729422417813.0,0.0
-4.819145,-6.441479,8.549555,70.980003,12.46,-57.049999,1729422417832.0,0.0
-4.134798,-7.271788,7.439285,-10.71,-13.79,-58.310001,1729422417853.0,0.0
-2.392823,-4.780859,6.769295,0.49,-9.1,-58.869999,1729422417872.0,0.0
-2.342573,-0.916451,7.401,15.75,0.21,-39.759998,1729422417891.0,0.0
-2.285146,0.236889,7.645068,-21.35,-8.26,-14.0,1729422417911.0,0.0
-1.806581,-2.359323,6.216553,-65.449997,-22.190001,11.48,1729422417932.0,0.0
-1.217947,-3.215954,5.718846,-57.540001,-15.75,32.970001,1729422417953.0,0.0
-2.675175,-4.17069,6.486942,-28.98,-2.31,54.880001,1729422417972.0,0.0
-4.177868,-5.312066,5.771489,-29.120001,-1.12,57.82,1729422417991.0,0.0
-3.871587,-5.235496,5.134997,-25.129999,13.02,58.939999,1729422418011.0,0.0
-4.268795,-3.63709,5.508278,-18.200001,28.210001,66.5,1729422418032.0,0.0
-5.424529,-4.754539,5.56092,-31.85,27.09,75.739998,1729422418053.0,0.0
-6.640083,-7.831708,6.362515,-34.790001,19.25,77.279999,1729422418071.0,0.0
-8.319844,-13.299308,6.025128,-22.33,11.13,55.299999,1729422418092.0,0.0
-8.472985,-16.053448,7.228717,2.73,-2.66,3.01,1729422418112.0,0.0
-6.113662,-10.844273,6.396015,32.130001,2.24,-51.240002,1729422418132.0,0.0
-4.56072,-7.499106,6.104091,28.630001,8.61,-68.669998,1729422418153.0,0.0
-4.780859,-10.4016,6.132804,-4.48,-10.29,-84.489998,1729422418171.0,0.0
-3.09392,-5.558527,7.721639,54.32,3.71,-88.970001,1729422418191.0,0.0
-2.26361,-1.182054,8.181061,37.73,2.17,-73.849998,1729422418212.0,0.0
-3.333202,-1.722832,6.853044,-38.360001,-27.299999,-54.740002,1729422418232.0,0.0
-1.974079,-1.931008,5.891129,-66.360001,-33.040001,-36.75,1729422418252.0,0.0
-0.847059,0.744168,5.443672,-40.040001,-15.47,-1.61,1729422418271.0,0.0
-2.385644,-2.122434,5.412565,-26.389999,-8.19,34.650002,1729422418291.0,0.0
-3.627519,-4.431508,4.68754,-32.41,-8.82,43.119999,1729422418311.0,0.0
-3.393023,-3.156133,5.666204,4.48,12.67,66.57,1729422418332.0,0.0
-5.230711,-4.072584,6.798009,10.29,19.809999,87.919998,1729422418353.0,0.0
-6.728617,-9.480364,5.446064,-42.700001,-2.87,78.330002,1729422418371.0,0.0
-8.518449,-17.496319,6.601797,-23.799999,-2.31,59.360001,1729422418392.0,0.0
-9.836893,-20.066212,4.972286,18.34,-18.34,-30.309999,1729422418412.0,0.0
-5.666204,-10.073784,3.452843,109.830002,14.28,-83.019997,1729422418431.0,0.0
-3.972085,-4.680361,7.250252,156.029999,44.310001,-75.529999,1729422418453.0,0.0
-4.362115,-7.489535,7.915457,53.48,0.28,-87.290001,1729422418471.0,0.0
-2.208575,-7.412964,6.647261,19.879999,-9.52,-92.330002,1729422418492.0,0.0
-2.328217,-0.401994,7.549356,43.189999,16.940001,-56.84,1729422418511.0,0.0
-1.971686,-0.129212,6.606583,-22.610001,-6.09,-46.200001,1729422418532.0,0.0
-0.5001,-0.251246,6.04427,-48.580002,-6.09,-12.53,1729422418553.0,0.0
-0.591027,-0.150748,6.664011,-36.889999,0.14,23.450001,1729422418572.0,0.0
-2.959922,-2.945565,6.18784,-27.370001,-2.94,53.27,1729422418591.0,0.0
-3.775874,-3.972085,6.541977,-16.030001,0.49,68.739998,1729422418612.0,0.0
-4.639683,-4.462614,7.893922,-6.3,2.52,84.910004,1729422418632.0,0.0
-6.123233,-6.929615,7.32443,-29.610001,-5.18,81.410004,1729422418653.0,0.0
-5.974878,-9.707682,4.651647,-63.139999,-19.389999,61.599998,1729422418671.0,0.0
-5.742774,-12.847065,4.943572,-14.98,2.59,46.549999,1729422418691.0,0.0
-7.259824,-13.584054,7.025328,31.290001,11.34,0.63,1729422418712.0,0.0
-6.491727,-11.191232,8.870193,57.400002,10.71,-31.99,1729422418731.0,0.0
-3.821337,-7.384251,7.197611,29.960001,1.26,-56.77,1729422418753.0,0.0
-3.352344,-8.085347,5.462814,-16.24,-11.69,-59.220001,1729422418771.0,0.0
-3.239882,-8.173882,5.335995,-10.85,-9.66,-68.459999,1729422418791.0,0.0
-2.596212,-4.031906,6.872187,37.099998,2.31,-64.75,1729422418811.0,0.0
-2.885744,-1.081556,6.826723,33.389999,1.26,-45.43,1729422418831.0,0.0
-2.512464,-1.574477,6.096912,-43.470001,-23.870001,-21.0,1729422418853.0,0.0
-2.005185,-2.892922,4.867002,-58.73,-22.33,1.4,1729422418872.0,0.0
-2.651247,-4.953143,4.59422,-28.98,-9.45,17.639999,1729422418892.0,0.0
-3.407379,-4.23051,5.089533,10.85,12.74,25.27,1729422418911.0,0.0
-3.754339,-2.352145,6.26441,25.549999,29.82,42.139999,1729422418934.0,0.0
-4.084548,-3.718446,6.874579,6.02,27.09,60.760002,1729422418952.0,0.0
-4.436293,-5.465207,5.479564,-30.030001,14.84,62.790001,1729422418971.0,0.0
-5.28096,-11.169697,6.26441,-8.82,20.440001,78.889999,1729422418991.0,0.0
-6.285945,-15.89552,5.630312,-13.37,4.06,27.51,1729422419012.0,0.0
-4.819145,-14.203795,7.860423,42.420002,17.01,-15.54,1729422419031.0,0.0
-5.209175,-7.922636,10.762917,79.519997,27.02,-40.389999,1729422419100.0,0.0
-4.85743,-5.71406,8.449057,11.34,0.49,-53.619999,1729422419105.0,0.0
-2.971886,-7.133004,5.12782,16.24,-7.21,-74.620003,1729422419290.0,0.0
-3.215954,-1.885544,7.82453,92.540001,20.02,-58.380001,1729422419290.0,0.0
-3.668197,0.918844,8.578269,33.950001,2.24,-43.82,1729422419291.0,0.0
-1.22034,-1.024128,5.146961,-69.300003,-31.01,-16.24,1729422419291.0,0.0
-1.289732,-3.522235,4.175476,-84.419998,-24.15,25.129999,1729422419291.0,0.0
-3.330809,-5.099105,4.285545,-27.65,-10.78,39.130001,1729422419310.0,0.0
-3.54377,-2.76371,4.972286,19.18,10.99,56.349998,1729422419311.0,0.0
-3.696911,-1.942972,6.491727,14.7,18.690001,80.220001,1729422419311.0,0.0
-5.199604,-5.326423,5.802595,-40.110001,8.26,94.290001,1729422419311.0,0.0
-6.053841,-10.348958,6.63769,-55.299999,2.59,95.550003,1729422419311.0,0.0
-8.760124,-16.555939,6.953543,-19.18,5.88,60.41,1729422419312.0,0.0
-8.410772,-15.187245,5.886343,3.99,-0.14,-13.02,1729422419330.0,0.0
-4.907679,-7.664211,5.84088,58.099998,22.610001,-44.799999,1729422419351.0,0.0
-3.546163,-6.022735,6.793223,40.950001,19.040001,-52.709999,1729422419370.0,0.0
-4.785645,-9.573684,5.407779,-18.34,-6.93,-57.610001,1729422419391.0,0.0
-2.715853,-7.391429,6.668797,30.17,9.17,-63.139999,1729422419411.0,0.0
-2.945565,-2.337788,7.592427,59.43,12.11,-56.420002,1729422419432.0,0.0
-2.402394,0.200997,7.207181,8.61,1.12,-29.610001,1729422419514.0,0.0
-1.844866,-0.751346,5.587241,-72.870003,-23.59,-9.94,1729422419517.0,0.0
-1.237089,-2.065006,4.290331,-79.099998,-21.07,18.059999,1729422419517.0,0.0
-4.067799,-4.82393,3.567699,-29.889999,-2.24,43.049999,1729422419518.0,0.0
-4.386044,-3.723232,4.804788,14.7,22.33,57.959999,1729422419533.0,0.0
-5.249853,-3.165704,6.783652,14.35,34.720001,75.739998,1729422419554.0,0.0
-6.34098,-5.991628,6.058627,-34.02,19.18,79.029999,1729422419571.0,0.0
-6.709475,-10.059426,6.388836,-42.91,15.68,76.790001,1729422419592.0,0.0
-9.501899,-15.596417,7.530212,-11.06,7.14,42.77,1729422419611.0,0.0
-9.272188,-14.273187,6.558727,1.89,-9.31,-27.09,1729422419630.0,0.0
-6.01077,-7.707282,5.635098,28.91,5.67,-57.82,1729422419652.0,0.0
-5.659025,-8.176274,5.034499,5.53,-3.57,-71.260002,1729422419671.0,0.0
-4.395615,-8.839087,5.627919,-2.94,-9.03,-75.389999,1729422419690.0,0.0
-3.385844,-5.754738,7.168896,36.82,3.29,-73.080002,1729422419711.0,0.0
-3.419343,-2.957529,7.678568,12.88,0.07,-65.379997,1729422419731.0,0.0
-2.409572,-2.921637,6.142376,-42.98,-20.23,-50.889999,1729422419753.0,0.0
-0.887737,-2.522035,4.697111,-51.59,-15.96,-32.759998,1729422419773.0,0.0
-0.528814,-1.050449,5.120641,-11.2,-0.21,0.91,1729422419790.0,0.0
-2.088934,-1.933401,5.946165,22.540001,16.17,30.940001,1729422419811.0,0.0
-3.926622,-5.283352,6.159126,3.22,11.83,40.670002,1729422419831.0,0.0
-4.682754,-6.391229,6.910471,13.16,15.26,58.59,1729422419852.0,0.0
-4.902894,-5.881558,6.498906,2.59,16.73,57.470001,1729422419872.0,0.0
-5.766702,-6.025128,4.713861,-24.639999,11.48,56.420002,1729422419891.0,0.0
-6.848258,-8.55434,4.232903,-16.379999,12.67,53.689999,1729422419911.0,0.0
-8.300702,-13.000205,6.668797,15.4,11.06,36.470001,1729422419931.0,0.0
-8.733803,-13.823336,6.84108,29.960001,-6.93,-15.4,1729422419967.0,0.0
-5.513064,-7.523034,6.06102,43.540001,0.14,-47.459999,1729422420032.0,0.0
-4.68754,-6.798009,6.046663,17.92,-0.84,-49.630001,1729422420033.0,0.0
-4.163511,-8.262416,5.788238,-13.09,-15.82,-54.670002,1729422420035.0,0.0
-3.321238,-6.297909,6.443871,25.690001,-5.74,-53.130001,1729422420041.0,0.0
-3.644269,-3.421736,7.144968,33.740002,-0.07,-45.57,1729422420053.0,0.0
-3.050849,-2.522035,6.240481,-16.309999,-17.290001,-36.259998,1729422420072.0,0.0
-2.012364,-2.550749,5.304887,-46.34,-21.42,-14.56,1729422420091.0,0.0
-2.091327,-2.11047,5.237889,-36.959999,-12.04,7.56,1729422420115.0,0.0
-3.589234,-3.548556,4.630112,-24.710001,-5.6,26.74,1729422420130.0,0.0
-4.118048,-4.465007,4.156333,-17.219999,2.17,36.119999,1729422420150.0,0.0
-4.074977,-4.09412,5.460421,3.64,15.47,50.470001,1729422420170.0,0.0
-6.128019,-5.87438,6.391229,-10.78,14.7,60.41,1729422420190.0,0.0
-5.895915,-7.192825,5.297709,-34.580002,6.3,53.689999,1729422420210.0,0.0
-6.417551,-11.358729,5.661418,-17.99,7.77,45.43,1729422420230.0,0.0
-7.456036,-14.189439,8.221739,5.81,-3.22,8.61,1729422420257.0,0.0
-7.49432,-11.542977,8.465806,20.93,-15.4,-34.23,1729422420270.0,0.0
-6.319445,-8.109276,5.548956,7.49,-15.4,-56.139999,1729422420290.0,0.0
-5.647062,-9.745967,3.419343,-26.530001,-22.4,-71.610001,1729422420310.0,0.0
-3.665804,-7.970492,4.572684,16.450001,-1.12,-76.440002,1729422420331.0,0.0
-2.98385,-4.500899,6.668797,56.279999,19.32,-72.029999,1729422420350.0,0.0
-2.277967,-2.433501,7.197611,16.309999,9.24,-59.57,1729422420370.0,0.0
-2.09372,-2.56032,6.62094,-29.26,-10.01,-34.16,1729422420390.0,0.0
-1.387837,-1.129412,5.319244,-37.380001,-14.56,-8.68,1729422420410.0,0.0
-2.385644,-2.26361,4.536791,-21.210001,-9.1,21.629999,1729422420431.0,0.0
-3.282953,-2.833102,4.941179,-0.56,-1.05,40.529999,1729422420451.0,0.0
-3.661019,-3.299703,7.281359,35.139999,14.56,66.5,1729422420470.0,0.0
-6.309873,-7.893922,6.793223,12.53,9.03,70.139999,1729422420490.0,0.0
-6.266802,-10.078569,4.68754,-39.27,-0.91,56.91,1729422420510.0,0.0
-7.819745,-13.765909,5.278566,-6.44,11.34,39.34,1729422420531.0,0.0
-8.79123,-14.498112,6.860222,20.23,2.8,-13.79,1729422420551.0,0.0
-6.101698,-9.760324,6.726225,38.990002,-0.21,-50.540001,1729422420570.0,0.0
-5.103891,-8.01117,6.252446,22.4,-5.95,-62.93,1729422420591.0,0.0
-4.453043,-7.814958,6.01077,-12.04,-22.889999,-66.57,1729422420611.0,0.0
-3.139383,-6.094519,5.218746,-1.05,-19.6,-62.580002,1729422420631.0,0.0
-2.108077,-3.974478,5.685347,4.27,-12.67,-56.349998,1729422420651.0,0.0
-2.005185,-3.007778,6.005985,-15.68,-17.99,-43.119999,1729422420671.0,0.0
-1.404587,-2.696711,5.733203,-33.18,-20.370001,-26.6,1729422420689.0,0.0
-0.725025,-2.328217,5.056034,-43.259998,-17.15,-6.79,1729422420710.0,0.0
-2.364109,-4.192225,4.936393,-24.85,-7.77,21.139999,1729422420731.0,0.0
-3.517449,-3.177669,4.718646,-0.42,6.23,35.84,1729422420752.0,0.0
-3.859623,-3.091527,6.987042,19.25,24.43,78.889999,1729422420772.0,0.0
-5.625526,-6.704689,5.453243,-32.48,11.97,92.330002,1729422420792.0,0.0
-6.683154,-9.265009,4.579862,-43.189999,9.8,91.980003,1729422420811.0,0.0
-9.064013,-14.703895,5.225924,-27.790001,4.27,66.709999,1729422420832.0,0.0
-8.614161,-15.45524,4.979464,4.69,-3.78,-3.57,1729422420852.0,0.0
-5.769095,-8.516055,6.068198,56.630001,8.89,-42.630001,1729422420871.0,0.0
-5.180461,-5.826523,6.501299,50.75,14.35,-48.720001,1729422420891.0,0.0
-5.278566,-9.221939,5.783452,-15.190001,-14.07,-64.470001,1729422420912.0,0.0
-2.897708,-9.267403,5.268995,-3.08,-8.12,-70.349998,1729422420932.0,0.0
-2.629712,-6.288338,6.180661,45.220001,9.87,-66.709999,1729422420953.0,0.0
-3.364309,-4.393222,7.343572,32.130001,5.11,-61.459999,1729422420976.0,0.0
-3.177669,-2.991028,7.314859,-9.8,-10.29,-49.98,1729422420991.0,0.0
-2.737389,-1.813759,7.135397,-41.650002,-20.790001,-32.41,1729422421012.0,0.0
-3.292524,-2.723032,5.860023,-63.490002,-29.960001,-7.0,1729422421032.0,0.0
-3.716053,-3.52702,4.197011,-75.529999,-31.5,3.57,1729422421054.0,0.0
-2.947958,-3.67059,3.053242,-46.27,-10.01,25.549999,1729422421075.0,0.0
-2.672783,-4.359723,3.711268,-3.64,13.58,44.73,1729422421094.0,0.0
-5.091926,-6.199803,5.960521,38.009998,25.969999,65.800003,1729422421112.0,0.0
-7.04447,-11.875579,6.833901,25.690001,20.02,61.389999,1729422421132.0,0.0
-5.395815,-14.376079,4.481757,-6.16,4.41,12.32,1729422421157.0,0.0
-4.632504,-14.191832,5.580062,51.240002,22.540001,-15.68,1729422421173.0,0.0
-4.438686,-8.398808,6.680761,105.139999,39.619999,-32.27,1729422421193.0,0.0
-5.405386,-7.594819,5.096712,59.57,29.540001,-43.330002,1729422421213.0,0.0
-4.134798,-8.707481,4.541577,11.55,10.15,-68.459999,1729422421233.0,0.0
-2.986243,-5.108676,6.314659,58.170002,25.200001,-58.099998,1729422421257.0,0.0
-3.378666,-1.550549,7.819745,62.720001,26.880001,-37.59,1729422421274.0,0.0
-3.17049,-0.849452,6.829116,-10.15,-3.92,-23.17,1729422421295.0,0.0
-2.684747,-2.323431,5.721239,-58.939999,-15.89,3.29,1729422421312.0,0.0
-2.730211,-3.909872,4.675575,-50.540001,-12.67,23.799999,1729422421333.0,0.0
-4.350152,-5.364708,4.223332,-20.440001,-3.5,37.59,1729422421355.0,0.0
-4.354938,-4.125226,4.969893,9.66,14.14,48.02,1729422421372.0,0.0
-4.658825,-3.493521,6.080163,20.719999,27.09,66.779999,1729422421392.0,0.0
-5.84088,-5.752346,6.068198,-14.35,17.219999,70.349998,1729422421414.0,0.0
-7.118648,-11.674582,5.623133,-23.940001,15.05,76.93,1729422421433.0,0.0
-6.948757,-13.988441,5.075177,-13.51,8.47,27.440001,1729422421457.0,0.0
-6.111269,-14.581861,5.240282,36.889999,9.66,-10.57,1729422421472.0,0.0
-4.275974,-11.502297,7.513463,75.25,26.950001,-38.779999,1729422421492.0,0.0
-5.206782,-12.279965,6.403193,28.77,20.58,-65.940002,1729422421512.0,0.0
-4.515256,-9.006584,5.606383,15.47,18.200001,-92.260002,1729422421533.0,0.0
-3.792624,-2.567499,5.915058,45.639999,31.290001,-88.340004,1729422421553.0,0.0
-4.893322,0.588634,6.149554,9.73,5.04,-70.769997,1729422421572.0,0.0
-4.651647,0.76331,6.73101,-40.810001,-15.96,-46.200001,1729422421593.0,0.0
-4.555934,0.069392,6.888937,-53.689999,-24.290001,-20.790001,1729422421612.0,0.0
-5.07757,-2.598605,5.883951,-43.330002,-24.639999,4.13,1729422421633.0,0.0
-4.45065,-4.680361,3.842873,-38.639999,-23.450001,8.61,1729422421654.0,0.0
-3.110669,-4.615755,5.228317,6.58,1.89,29.120001,1729422421672.0,0.0
-3.964907,-4.024727,7.384251,39.48,20.51,47.950001,1729422421691.0,0.0
-5.594419,-6.888937,6.896115,4.76,10.78,54.389999,1729422421712.0,0.0
-5.666204,-9.726824,4.378866,-42.700001,-8.26,41.93,1729422421732.0,0.0
-5.271388,-10.571491,3.089134,-3.64,-1.4,34.439999,1729422421755.0,0.0
-7.886744,-11.47119,8.082954,75.879997,13.09,19.950001,1729422421773.0,0.0
-5.924629,-8.338986,7.611568,47.459999,-13.72,-33.110001,1729422421792.0,0.0
-4.362115,-8.688338,5.412565,-1.26,-23.52,-51.170002,1729422421813.0,0.0
-3.366701,-7.642675,5.352744,-4.9,-17.85,-63.07,1729422421833.0,0.0
-2.694318,-4.003192,6.336195,21.98,3.01,-58.73,1729422421854.0,0.0
-2.136791,-1.861616,5.907879,16.24,-0.63,-42.91,1729422421873.0,0.0
-1.622334,-1.464408,5.730811,-1.82,-5.95,-14.63,1729422421892.0,0.0
-2.09372,-1.631905,5.690133,-18.059999,-5.74,9.1,1729422421912.0,0.0
-2.742175,-3.20399,5.871986,-26.32,-3.22,32.619999,1729422421932.0,0.0
-4.070191,-5.505885,5.029713,-37.66,-7.35,42.630001,1729422421953.0,0.0
-3.739982,-4.934,4.65404,-34.580002,-2.17,51.310001,1729422421974.0,0.0
-4.007978,-3.974478,5.962914,-13.72,11.41,67.760002,1729422421993.0,0.0
-5.979663,-4.388437,5.98445,-24.360001,13.58,81.900002,1729422422012.0,0.0
-8.310273,-8.394022,5.608776,-57.260002,0.21,81.340004,1729422422032.0,0.0
-9.726824,-13.866407,6.163911,-48.790001,-8.05,58.52,1729422422055.0,0.0
-9.769895,-14.656039,4.381258,-25.83,-16.379999,-3.36,1729422422075.0,0.0
-6.774081,-8.772088,4.240082,27.65,2.66,-44.240002,1729422422092.0,0.0
-4.768896,-7.032506,6.068198,48.860001,19.040001,-55.16,1729422422115.0,0.0
-3.536592,-7.745567,6.259624,-1.47,-3.64,-61.389999,1729422422132.0,0.0
-3.146562,-5.218746,6.896115,18.129999,5.39,-49.98,1729422422155.0,0.0
-3.074777,-2.981457,6.132804,-4.83,-7.63,-40.389999,1729422422172.0,0.0
-2.158326,-2.62732,5.895915,-31.99,-14.14,-18.83,1729422422192.0,0.0
-1.701297,-2.63689,6.183054,-32.689999,-11.27,0.84,1729422422212.0,0.0
-2.59382,-3.175276,6.472585,-17.43,-3.92,27.370001,1729422422233.0,0.0
-4.175476,-5.185246,5.364708,-26.110001,-7.07,38.920002,1729422422252.0,0.0
-3.550949,-5.024928,5.201996,-29.4,-2.24,48.09,1729422422271.0,0.0
-4.163511,-4.512863,5.946165,-14.56,7.28,63.84,1729422422299.0,0.0
-5.704489,-5.429315,4.754539,-30.1,5.04,70.840004,1729422422313.0,0.0
-6.704689,-8.877372,4.06062,-38.009998,0.28,70.559998,1729422422332.0,0.0
-8.583055,-14.191832,4.680361,-10.08,7.84,47.25,1729422422356.0,0.0
-9.245867,-14.543575,5.580062,26.6,0.77,-8.26,1729422422372.0,0.0
-6.563512,-9.260223,4.615755,55.369999,10.64,-54.459999,1729422422392.0,0.0
-5.548956,-9.095119,5.941379,43.959999,17.219999,-67.830002,1729422422412.0,0.0
-4.589434,-7.573284,7.37468,27.16,3.08,-78.400002,1729422422432.0,0.0
-3.323631,-4.079762,6.223732,33.529999,0.21,-67.340004,1729422422453.0,0.0
-3.299703,-2.919244,5.221139,-11.55,-16.1,-58.52,1729422422472.0,0.0
-2.648855,-2.634498,4.955536,-26.950001,-20.09,-40.32,1729422422493.0,0.0
-2.289931,-1.048056,5.568098,-10.64,-10.22,-16.24,1729422422512.0,0.0
-3.089134,-1.761117,5.627919,-5.46,-5.67,14.91,1729422422532.0,0.0
-4.055835,-4.256832,5.419744,-28.98,-10.64,30.1,1729422422554.0,0.0
-4.065405,-5.278566,6.072984,-17.08,-0.49,47.040001,1729422422573.0,0.0
-4.778467,-4.910072,6.73101,-2.38,6.79,55.369999,1729422422592.0,0.0
-6.058627,-6.54437,5.156533,-19.6,4.9,58.939999,1729422422612.0,0.0
-6.723832,-9.4349,4.381258,-29.4,-0.35,47.389999,1729422422632.0,0.0
-7.166504,-11.782259,5.623133,16.17,11.34,37.029999,1729422422654.0,0.0
-7.57089,-11.686546,6.419943,39.48,6.51,4.34,1729422422673.0,0.0
-5.749953,-10.470992,5.938986,35.420002,-2.1,-26.809999,1729422422691.0,0.0
-4.41715,-8.920443,5.582455,35.279999,2.38,-47.950001,1729422422712.0,0.0
-3.976871,-6.855437,5.580062,32.970001,3.64,-50.400002,1729422422733.0,0.0
-2.995814,-4.56072,5.503492,22.68,4.83,-44.099998,1729422422754.0,0.0
-3.570091,-3.699304,4.974678,-4.41,-5.53,-35.560001,1729422422775.0,0.0
-3.321238,-3.737589,5.192425,-15.89,-12.32,-27.23,1729422422794.0,0.0
-3.23031,-2.37368,5.831308,-8.82,-9.1,-9.8,1729422422815.0,0.0
-3.34038,-1.887937,6.496514,-3.78,-4.41,17.99,1729422422835.0,0.0
-4.677969,-3.720839,6.288338,-24.360001,-9.8,29.889999,1729422422854.0,0.0
-4.790431,-4.429115,5.383851,-43.82,-7.21,40.599998,1729422422875.0,0.0
-4.541577,-4.216154,4.902894,-38.920002,-2.87,49.560001,1729422422895.0,0.0
-5.99402,-4.809574,5.802595,-14.35,6.37,62.650002,1729422422914.0,0.0
-7.23111,-8.810372,7.128219,-16.52,-0.14,60.060001,1729422422936.0,0.0
-7.508677,-12.722638,6.879365,-27.860001,-12.39,39.970001,1729422422958.0,0.0
-6.577869,-13.883157,4.041477,-32.27,-24.57,-5.04,1729422422975.0,0.0
-3.909872,-9.116654,4.486543,20.51,-0.98,-31.780001,1729422422994.0,0.0
-4.182654,-5.991628,5.656632,42.420002,12.46,-30.73,1729422423018.0,0.0
-4.924429,-5.781059,5.422136,-0.98,-7.84,-27.299999,1729422423035.0,0.0
-5.414958,-4.783253,5.249853,-21.629999,-15.12,-17.57,1729422423057.0,0.0
-5.955735,-4.034299,5.472386,-51.310001,-16.66,-5.11,1729422423076.0,0.0
-5.776274,-3.61077,5.922236,-111.230003,-24.780001,6.02,1729422423094.0,0.0
-5.070391,-3.799802,5.692525,-166.809998,-31.360001,21.629999,1729422423114.0,0.0
-4.692325,-3.270989,5.230711,-218.119995,-34.580002,35.420002,1729422423135.0,0.0
-4.601398,-3.914658,4.785645,-271.040009,-43.400002,50.959999,1729422423155.0,0.0
-4.505685,-5.309673,3.261417,-340.899994,-53.130001,54.740002,1729422423174.0,0.0
-4.275974,-6.728617,1.275374,-412.089996,-59.360001,52.57,1729422423195.0,0.0
-4.366901,-8.784052,0.098106,-447.089996,-63.91,52.779999,1729422423214.0,0.0
-5.079963,-10.621738,-1.557728,-436.380005,-64.120003,40.32,1729422423234.0,0.0
-4.888536,-9.918249,-4.254438,-384.649994,-59.849998,15.82,1729422423255.0,0.0
-4.431508,-8.322237,-7.051648,-332.98999,-45.639999,6.3,1729422423274.0,0.0
-4.096512,-9.583255,-8.702696,-244.369995,-30.799999,-0.28,1729422423294.0,0.0
-4.278367,-9.824929,-6.817152,-126.840004,-4.76,1.19,1729422423314.0,0.0
-4.969893,-7.551748,-3.905087,-97.300003,21.280001,-6.23,1729422423334.0,0.0
-5.680561,-7.178468,-3.704089,-154.630005,19.32,-14.49,1729422423356.0,0.0
-4.613362,-7.951349,-6.98465,-193.130005,-5.18,-9.31,1729422423374.0,0.0
-4.252046,-7.71446,-6.786045,-115.989998,-2.38,-3.78,1729422423393.0,0.0
-5.146961,-6.989435,-4.910072,-59.920002,12.25,5.53,1729422423415.0,0.0
-5.831308,-6.108876,-4.582255,-55.720001,16.66,5.25,1729422423435.0,0.0
-5.651847,-6.570691,-5.783452,-97.370003,6.3,2.24,1729422423455.0,0.0
-4.563113,-9.676575,-9.133404,-79.309998,-10.78,0.77,1729422423474.0,0.0
-3.962514,-10.535598,-5.962914,18.620001,5.6,1.75,1729422423494.0,0.0
-5.252246,-7.580462,-1.469193,101.080002,23.24,-3.99,1729422423513.0,0.0
-7.001399,-5.745167,-1.792224,102.620003,21.77,-9.66,1729422423534.0,0.0
-6.446264,-10.217353,-4.268795,64.190002,-12.95,-27.719999,1729422423556.0,0.0
-4.168297,-12.512069,-8.147561,137.759995,-13.79,-27.719999,1729422423574.0,0.0
-4.208975,-9.164511,-6.592227,276.570007,24.360001,-9.94,1729422423593.0,0.0
-5.613562,-6.058627,-3.39063,358.820007,42.98,-8.26,1729422423613.0,0.0
-5.414958,-6.135197,-2.569891,366.660004,31.710001,-5.11,1729422423634.0,0.0
-3.986443,-6.391229,-0.947558,340.269989,25.620001,-10.15,1729422423654.0,0.0
-3.806981,-7.314859,-0.823131,289.309998,26.18,-13.440001,1729422423674.0,0.0
-4.206582,-8.585447,-0.634098,255.710007,24.710001,-18.41,1729422423693.0,0.0
-4.218546,-7.207181,1.402194,256.269989,29.33,-20.09,1729422423713.0,0.0
-4.448257,-5.436492,3.227918,202.509995,27.93,-15.4,1729422423734.0,0.0
-4.658825,-3.189633,3.960121,72.519997,21.629999,-0.28,1729422423755.0,0.0
-4.838287,-3.328416,2.63689,-114.169998,6.58,19.040001,1729422423773.0,0.0
-4.256832,-5.745167,1.272982,-255.990005,-6.72,32.27,1729422423793.0,0.0
-4.713861,-6.915257,1.239482,-321.160004,-11.41,44.59,1729422423813.0,0.0
-5.785845,-6.821937,-0.148355,-400.75,-20.58,37.52,1729422423834.0,0.0
-5.120641,-7.613962,-4.529613,-510.089996,-48.93,15.61,1729422423855.0,0.0
-4.488935,-9.260223,-8.075776,-538.51001,-65.730003,10.43,1729422423874.0,0.0
-4.661219,-8.659625,-9.221939,-456.470001,-50.75,11.06,1729422423893.0,0.0
-5.584848,-7.625926,-9.154939,-344.26001,-17.639999,20.719999,1729422423914.0,0.0
-5.962914,-6.750153,-8.635696,-291.690002,-8.33,15.75,1729422423933.0,0.0
-6.403193,-6.817152,-7.886744,-249.759995,-7.7,18.059999,1729422423954.0,0.0
-6.630512,-5.548956,-5.84088,-224.490005,-10.78,6.37,1729422423974.0,0.0
-6.178268,-5.852845,-5.826523,-177.449997,-27.719999,-0.98,1729422423993.0,0.0
-4.706682,-7.472785,-6.843473,-93.029999,-40.950001,-3.85,1729422424013.0,0.0
-5.111069,-5.551349,-7.290931,-41.93,-23.450001,-7.91,1729422424035.0,0.0
-5.594419,-6.326623,-6.73101,-0.98,2.59,-12.67,1729422424123.0,0.0
-5.199604,-5.860023,-6.67119,50.540001,0.07,-16.309999,1729422424124.0,0.0
-4.59422,-5.529813,-6.929615,90.440002,-6.72,-19.32,1729422424124.0,0.0
-4.328616,-6.520442,-6.266802,113.470001,-6.86,-21.77,1729422424124.0,0.0
-3.986443,-7.23111,-6.092126,142.100006,-4.06,-27.09,1729422424133.0,0.0
-5.032106,-5.087141,-1.454836,188.509995,5.32,-17.219999,1729422424155.0,0.0
-6.831509,-7.355537,-6.762117,239.680008,-3.22,-1.19,1729422424174.0,0.0
-7.063612,-7.520642,-9.207582,334.880005,0.77,9.94,1729422424193.0,0.0
-6.537192,-5.553742,-7.307681,401.660004,34.720001,19.879999,1729422424213.0,0.0
-6.860222,-6.525227,-6.003592,398.019989,54.950001,13.37,1729422424233.0,0.0
-6.350551,-10.803595,-5.845665,357.910004,48.509998,-19.18,1729422424254.0,0.0
-4.761717,-11.152946,-6.041877,348.670013,39.130001,-43.400002,1729422424273.0,0.0
-3.701697,-7.520642,-1.753939,367.709991,53.970001,-39.619999,1729422424293.0,0.0
-4.718646,-6.151947,-0.136391,307.299988,48.93,-40.110001,1729422424313.0,0.0
-5.376673,-6.812366,0.342174,252.139999,28.84,-37.170002,1729422424340.0,0.0
-4.522435,-4.998606,1.598405,226.729996,25.48,-24.08,1729422424355.0,0.0
-5.692525,-2.141576,3.601198,83.230003,23.24,9.52,1729422424377.0,0.0
-5.161318,-3.237489,2.768496,-68.879997,3.22,21.700001,1729422424394.0,0.0
-5.340781,-5.051248,1.696511,-187.740005,0.42,41.650002,1729422424414.0,0.0
-6.623333,-7.257431,1.129412,-298.76001,-11.69,45.290001,1729422424434.0,0.0
-6.128019,-7.611568,0.368495,-395.360016,-26.389999,31.360001,1729422424455.0,0.0
-5.266603,-9.552148,-3.292524,-466.690002,-41.23,11.62,1729422424474.0,0.0
-5.070391,-9.200402,-7.066005,-501.410004,-45.080002,-11.69,1729422424494.0,0.0
-5.273781,-9.133404,-8.757731,-481.390015,-39.759998,-19.67,1729422424515.0,0.0
-5.635098,-8.114061,-8.082954,-454.580017,-15.33,-32.34,1729422424534.0,0.0
-6.056234,-5.307281,-7.228717,-428.470001,2.45,-39.900002,1729422424555.0,0.0
-5.927022,-4.474578,-6.613762,-376.529999,4.2,-35.630001,1729422424575.0,0.0
-5.20439,-5.460421,-8.183454,-314.929993,-3.71,-32.970001,1729422424594.0,0.0
-4.833502,-6.228518,-8.405986,-254.029999,2.94,-42.420002,1729422424616.0,0.0
-4.76411,-6.625726,-8.860621,-151.479996,4.06,-35.98,1729422424635.0,0.0
-4.12044,-5.163712,-8.848659,-55.439999,5.39,-30.030001,1729422424657.0,0.0
-4.027121,-4.098906,-8.616554,-15.12,20.16,-20.299999,1729422424674.0,0.0
-4.625326,-5.706882,-9.300901,44.66,26.25,-7.49,1729422424694.0,0.0
-4.376472,-6.355337,-9.176475,160.300003,28.700001,-4.41,1729422424715.0,0.0
-4.627719,-5.781059,-5.173282,244.020004,35.560001,-3.5,1729422424737.0,0.0
-4.677969,-5.07757,-6.101698,256.059998,29.889999,-6.93,1729422424758.0,0.0
-4.108476,-4.271189,-6.599405,284.690002,20.860001,0.14,1729422424775.0,0.0
-5.974878,-6.922436,-6.606583,355.670013,38.43,20.790001,1729422424796.0,0.0
-6.979864,-7.135397,-6.228518,418.600006,52.639999,21.629999,1729422424817.0,0.0
-6.501299,-7.623533,-6.874579,466.480011,58.52,25.200001,1729422424838.0,0.0
-4.381258,-7.582855,-5.328816,442.049988,52.009998,6.58,1729422424857.0,0.0
-3.333202,-9.152546,-3.672983,384.720001,53.130001,-8.61,1729422424876.0,0.0
-3.328416,-9.906286,-1.115055,330.119995,53.900002,-21.0,1729422424895.0,0.0
-3.376273,-8.894121,0.270389,307.720001,34.439999,-34.16,1729422424918.0,0.0
-3.180061,-7.458428,1.624727,298.76001,25.200001,-32.48,1729422424938.0,0.0
-3.464807,-5.458029,2.550749,273.700012,14.84,-28.07,1729422424958.0,0.0
-3.818945,-3.924229,3.29731,161.979996,4.06,-2.38,1729422424976.0,0.0
-4.051049,-4.563113,2.986243,43.049999,-4.06,20.23,1729422424997.0,0.0
-3.716053,-5.082355,2.292324,-76.440002,-13.16,32.48,1729422425017.0,0.0
-3.945765,-4.955536,2.172683,-177.800003,-10.5,52.009998,1729422425036.0,0.0
-5.4341,-6.498906,1.265803,-300.579987,-2.17,58.869999,1729422425063.0,0.0
-7.006185,-11.4018,-1.545763,-468.089996,-16.940001,29.610001,1729422425077.0,0.0
-7.233503,-14.493326,-4.723432,-552.090027,-42.700001,-5.88,1729422425096.0,0.0
-6.597012,-14.321043,-7.087541,-571.130005,-45.779999,-48.720001,1729422425118.0,0.0
-3.773481,-9.202796,-7.575676,-508.830017,-37.099998,-74.620003,1729422425136.0,0.0
-2.868994,-4.287938,-6.415157,-453.320007,-7.14,-72.239998,1729422425158.0,0.0
-2.536392,-2.057827,-5.572884,-440.230011,-3.99,-59.5,1729422425176.0,0.0
-3.04367,-2.665605,-5.479564,-417.480011,-10.64,-45.639999,1729422425195.0,0.0
-4.331009,-5.230711,-5.47717,-334.390015,-11.83,-29.469999,1729422425215.0,0.0
-3.759124,-6.798009,-8.599805,-184.589996,-33.389999,-23.450001,1729422425236.0,0.0
-3.012564,-5.599205,-9.186047,-61.459999,-36.259998,-13.37,1729422425258.0,0.0
-4.115655,-4.108476,-9.856036,-25.200001,-15.54,-10.22,1729422425278.0,0.0
-4.989035,-5.290531,-9.58804,6.02,5.25,1.47,1729422425296.0,0.0
-3.897908,-7.252645,-9.372685,92.610001,3.78,1.61,1729422425316.0,0.0
-3.651447,-5.4341,-7.448857,204.259995,11.55,2.8,1729422425337.0,0.0
-4.12044,-5.386244,-5.615955,272.299988,13.72,9.03,1729422425367.0,0.0
-3.818945,-5.943772,-6.21416,322.630005,-0.77,8.75,1729422425377.0,0.0
-4.567898,-6.965507,-6.439085,422.309998,-2.94,23.940001,1729422425396.0,0.0
-5.460421,-5.536992,-7.616355,473.339996,7.07,30.309999,1729422425418.0,0.0
-5.649454,-7.022934,-7.202396,455.420013,28.139999,37.170002,1729422425437.0,0.0
-4.912465,-8.630912,-3.929015,368.480011,37.799999,13.23,1729422425457.0,0.0
-4.852644,-10.748559,-4.524827,325.98999,34.23,-3.85,1729422425477.0,0.0
-3.732803,-10.310673,-2.323431,356.929993,35.0,-11.27,1729422425497.0,0.0
-3.122634,-8.523234,0.595813,361.829987,41.09,-20.16,1729422425516.0,0.0
-3.917051,-6.262017,3.227918,302.26001,38.220001,-18.129999,1729422425536.0,0.0
-4.175476,-6.80758,2.991028,222.460007,18.549999,-16.66,1729422425558.0,0.0
-3.45045,-7.075576,2.586641,161.630005,14.42,-14.98,1729422425577.0,0.0
-3.888337,-6.611369,2.964707,99.75,16.73,-1.89,1729422425597.0,0.0
-3.725625,-6.618547,1.842474,30.380001,12.39,7.21,1729422425617.0,0.0
-3.964907,-5.986843,1.794617,-97.300003,20.65,22.75,1729422425636.0,0.0
-4.843073,-5.838487,3.18724,-226.169998,23.799999,32.41,1729422425660.0,0.0
-5.481956,-8.673983,2.608176,-422.730011,-0.21,14.91,1729422425675.0,0.0
-5.101498,-10.535598,-2.215754,-549.98999,-30.450001,-6.3,1729422425695.0,0.0
-5.036892,-10.695917,-3.129812,-585.619995,-38.009998,-22.75,1729422425715.0,0.0
-4.733003,-8.13799,-6.778866,-601.369995,-50.889999,-55.09,1729422425736.0,0.0
-4.409972,-6.053841,-8.523234,-548.380005,-31.99,-46.689999,1729422425756.0,0.0
-3.074777,-2.969493,-7.831708,-462.140015,-23.66,-30.870001,1729422425777.0,0.0
-3.428915,-1.48355,-7.348359,-363.089996,-18.34,-5.32,1729422425795.0,0.0
-5.15414,-4.965107,-9.949356,-262.220001,-3.29,7.98,1729422425815.0,0.0
-4.235296,-8.886944,-10.595419,-113.889999,-1.19,4.48,1729422425838.0,0.0
-3.18724,-7.223931,-9.674182,68.389999,1.54,7.98,1729422425867.0,0.0
-4.122833,-4.453043,-8.10449,163.940002,18.200001,12.04,1729422425876.0,0.0
-5.056034,-5.570491,-7.618747,174.580002,29.469999,9.87,1729422425895.0,0.0
-5.233103,-7.082755,-5.45085,202.649994,31.85,5.6,1729422425915.0,0.0
-5.178068,-7.243074,-4.68754,285.670013,16.1,5.74,1729422425937.0,0.0
-5.24746,-8.982656,-5.283352,385.209991,1.82,-2.24,1729422425959.0,0.0
-4.756931,-8.9683,-4.235296,478.380005,-2.38,-7.14,1729422425976.0,0.0
-3.318845,-7.003791,-5.910272,485.380005,1.05,0.14,1729422425995.0,0.0
-2.861816,-8.839087,-3.146562,491.959991,17.43,8.12,1729422426016.0,0.0
-3.876373,-9.332008,0.205783,443.660004,38.709999,-14.14,1729422426037.0,0.0
-3.859623,-9.178867,0.57667,353.079987,37.450001,-24.85,1729422426060.0,0.0
-3.725625,-8.090133,1.72044,232.330002,31.710001,-23.17,1729422426076.0,0.0
-4.256832,-5.742774,2.701497,126.489998,22.68,-10.78,1729422426095.0,0.0
-4.673182,-4.744967,3.902694,22.68,7.28,9.52,1729422426116.0,0.0
-4.328616,-5.970093,3.172883,-103.669998,-13.440001,11.2,1729422426136.0,0.0
-3.802195,-8.4012,1.426122,-194.320007,-26.950001,7.35,1729422426156.0,0.0
-4.254438,-10.092925,0.600598,-230.300003,-25.059999,6.86,1729422426175.0,0.0
-4.756931,-11.408978,-0.947558,-214.059998,-27.02,-0.77,1729422426195.0,0.0
-4.826324,-11.760723,-1.878366,-147.210007,-28.84,-6.51,1729422426216.0,0.0
-4.986642,-10.786844,-1.940579,-69.300003,-13.86,-13.37,1729422426235.0,0.0
-5.577669,-9.844072,-1.258625,-11.97,-2.52,-21.280001,1729422426259.0,0.0
-6.45105,-9.387043,-0.129212,16.24,-1.4,-28.98,1729422426277.0,0.0
-6.793223,-9.085547,0.818345,35.700001,-11.41,-39.41,1729422426295.0,0.0
-6.199803,-8.226524,1.117448,20.02,-2.38,-53.060001,1729422426317.0,0.0
-4.95075,-7.903493,0.145962,-20.09,-8.19,-59.220001,1729422426336.0,0.0
-4.096512,-9.083155,0.557528,-45.009998,-11.06,-51.939999,1729422426358.0,0.0
-2.56032,-8.475377,-0.471386,-35.490002,-14.14,-53.200001,1729422426384.0,0.0
-1.954936,-6.987042,-0.208176,-24.57,5.81,-30.030001,1729422426398.0,0.0
-1.540978,-7.76471,-0.969093,-46.130001,0.21,-18.200001,1729422426417.0,0.0
-0.677169,-10.552348,-2.9336,-65.309998,-0.63,-20.299999,1729422426437.0,0.0
-1.134198,-11.94497,-2.256432,-67.620003,-0.42,-27.65,1729422426457.0,0.0
-0.504886,-11.813366,-3.785445,10.29,-1.33,-20.58,1729422426475.0,0.0
-0.038285,-10.13839,-1.923829,72.660004,23.450001,-30.59,1729422426498.0,0.0
-0.478565,-10.164711,0.31346,86.519997,26.460001,-31.57,1729422426517.0,0.0
-0.976272,-9.695717,0.997807,84.629997,28.210001,-27.65,1729422426536.0,0.0
-0.624527,-8.822337,-0.569492,88.059998,22.540001,-28.84,1729422426559.0,0.0
-0.839881,-8.657232,-1.184447,79.940002,37.869999,-25.549999,1729422426576.0,0.0
-0.744168,-8.82473,-1.423729,85.190002,37.310001,-12.95,1729422426598.0,0.0
-0.387637,-7.537392,-0.287139,143.919998,57.959999,13.37,1729422426618.0,0.0
-1.007378,-6.750153,0.095713,126.419998,77.769997,19.74,1729422426636.0,0.0
-1.902294,-6.037091,-0.346959,49.279999,88.059998,24.639999,1729422426657.0,0.0
-2.514857,-7.640282,-0.401994,-10.64,79.309998,42.07,1729422426677.0,0.0
-4.235296,-9.123833,4.187439,-18.41,46.34,44.380001,1729422426697.0,0.0
-3.158526,-6.920043,6.386444,55.720001,25.200001,57.400002,1729422426718.0,0.0
-5.962914,-4.240082,12.277573,28.77,42.700001,85.540001,1729422426737.0,0.0
-8.202596,-4.431508,3.570091,-139.649994,1.61,45.290001,1729422426757.0,0.0
-5.414958,-8.530413,1.316052,-248.220001,1.61,23.73,1729422426775.0,0.0
-3.785445,-10.679168,-2.641676,-300.089996,-53.060001,53.689999,1729422426796.0,0.0
-2.790031,-11.339586,-2.756532,-237.509995,-30.1,40.32,1729422426818.0,0.0
-3.656233,-8.798409,-3.428915,-158.970001,6.09,60.619999,1729422426837.0,0.0
-5.029713,-6.618547,-3.275774,-164.5,16.379999,52.220001,1729422426859.0,0.0
-6.161518,-7.54457,-8.69791,-205.800003,0.21,43.82,1729422426877.0,0.0
-6.876972,-14.359328,-10.657632,-114.029999,-25.549999,7.63,1729422426897.0,0.0
-6.446264,-14.761322,-10.731809,43.610001,-13.02,-13.58,1729422426919.0,0.0
-6.400801,-10.425529,-7.233503,190.889999,41.16,-20.09,1729422426938.0,0.0
-6.357729,-7.341179,-4.220939,268.589996,54.459999,-18.200001,1729422426961.0,0.0
-5.12782,-6.719046,-3.428915,263.690002,37.170002,-24.01,1729422426977.0,0.0
-5.163712,-7.73121,-1.325624,236.110001,10.85,-33.670002,1729422426998.0,0.0
-4.130012,-9.942179,-1.308874,287.910004,-49.279999,-55.860001,1729422427018.0,0.0
-2.184647,-12.217752,0.832702,400.470001,-50.82,-77.419998,1729422427038.0,0.0
-1.347159,-8.394022,6.017949,552.859985,8.26,-73.150002,1729422427058.0,0.0
-2.014757,-1.100698,9.480364,526.609985,55.23,-70.209999,1729422427078.0,0.0
-4.029513,1.057628,8.49452,316.679993,56.560001,-42.91,1729422427101.0,0.0
-4.878965,-4.041477,5.893522,53.830002,-19.110001,-21.629999,1729422427117.0,0.0
-3.261417,-8.171489,1.581656,-55.23,-36.68,-44.73,1729422427138.0,0.0
-2.445465,-7.054041,4.835894,30.799999,17.92,-14.42,1729422427160.0,0.0
-3.742374,-1.880759,6.84108,33.389999,38.57,15.96,1729422427177.0,0.0
-3.816552,-2.964707,6.929615,-39.970001,20.23,24.639999,1729422427197.0,0.0
-3.627519,-6.075377,5.728417,-133.839996,-5.39,35.77,1729422427217.0,0.0
-3.347559,-6.869793,4.536791,-209.720001,2.1,35.420002,1729422427237.0,0.0
-3.184847,-7.759924,3.672983,-240.240005,-3.85,39.060001,1729422427259.0,0.0
-3.069991,-8.154739,3.488736,-239.399994,-4.06,42.98,1729422427277.0,0.0
-2.462214,-8.523234,3.046063,-230.089996,-1.96,43.75,1729422427299.0,0.0
-2.706282,-7.274181,2.215754,-240.240005,-6.72,53.27,1729422427318.0,0.0
-3.548556,-4.797609,1.048056,-269.149994,0.49,60.760002,1729422427338.0,0.0
-5.704489,-6.008378,-1.579263,-309.820007,4.41,59.080002,1729422427359.0,0.0
-7.350751,-9.176475,-5.070391,-328.019989,-2.8,31.01,1729422427377.0,0.0
-7.302894,-12.306287,-7.185646,-283.570007,-34.790001,3.99,1729422427397.0,0.0
-6.319445,-13.18206,-7.54457,-202.160004,-47.25,-13.86,1729422427417.0,0.0
-5.45085,-12.569498,-8.047063,-92.190002,-29.120001,-25.620001,1729422427438.0,0.0
-5.331209,-12.524034,-9.413363,47.670002,-2.1,-38.290001,1729422427471.0,0.0
-5.359922,-11.959327,-6.460621,196.419998,14.56,-44.939999,1729422427477.0,0.0
-4.694718,-10.669596,-3.349952,319.619995,14.91,-41.790001,1729422427497.0,0.0
-4.06062,-8.896514,0.358923,410.339996,4.76,-44.73,1729422427518.0,0.0
-4.089334,-8.365308,3.926622,434.140015,-8.4,-57.119999,1729422427538.0,0.0
-2.713461,-8.65484,5.067998,417.200012,-11.27,-85.610001,1729422427559.0,0.0
-2.155933,-5.553742,6.687939,354.410004,14.35,-88.970001,1729422427578.0,0.0
-3.608376,-2.282753,5.754738,259.209991,30.870001,-66.150002,1729422427597.0,0.0
-4.165904,-3.711268,5.862415,148.539993,8.05,-53.34,1729422427618.0,0.0
-2.108077,-5.075177,5.314459,58.170002,-5.88,-56.0,1729422427639.0,0.0
-2.505285,-4.173083,5.752346,27.299999,15.12,-23.379999,1729422427659.0,0.0
-3.833302,-2.428715,5.69731,-14.35,20.440001,5.67,1729422427678.0,0.0
-3.393023,-2.498107,4.996214,-65.169998,16.870001,23.799999,1729422427696.0,0.0
-3.036492,-4.847858,5.295317,-104.720001,11.06,36.540001,1729422427717.0,0.0
-2.727818,-7.463214,5.410172,-121.730003,7.77,37.170002,1729422427740.0,0.0
-2.833102,-7.118648,4.613362,-158.830002,13.02,45.779999,1729422427760.0,0.0
-2.902494,-6.795617,4.409972,-189.839996,16.59,57.959999,1729422427777.0,0.0
-3.445665,-7.611568,2.222932,-221.759995,12.53,60.760002,1729422427797.0,0.0
-3.098706,-8.573483,1.275374,-216.020004,0.42,51.380001,1729422427818.0,0.0
-3.24706,-7.831708,1.864009,-197.820007,-4.27,72.870003,1729422427838.0,0.0
-4.95075,-7.594819,1.962115,-207.479996,1.26,75.949997,1729422427860.0,0.0
-6.379266,-8.224132,0.421137,-236.320007,-5.74,67.690002,1729422427878.0,0.0
-6.678369,-11.090734,-3.991228,-274.959991,-15.26,37.450001,1729422427896.0,0.0
-6.403193,-12.727424,-4.768896,-229.460007,-45.5,15.82,1729422427917.0,0.0
-6.733403,-14.237295,-4.677969,-128.380005,-35.420002,-1.54,1729422427939.0,0.0
-6.374479,-14.261222,-6.695118,-16.940001,-21.139999,-35.420002,1729422427969.0,0.0
-5.630312,-11.356337,-4.871787,108.779999,-1.89,-49.209999,1729422427977.0,0.0
-5.374279,-9.875179,-3.534199,205.869995,9.45,-49.91,1729422427998.0,0.0
-5.345565,-8.379664,-1.495514,232.610001,15.190001,-72.660004,1729422428018.0,0.0
-5.663811,-10.131211,0.445065,259.769989,-27.16,-62.16,1729422428037.0,0.0
-2.900101,-12.047862,0.595813,286.230011,-35.98,-95.620003,1729422428058.0,0.0
-1.481157,-10.353743,3.555735,312.549988,8.05,-111.580002,1729422428076.0,0.0
-2.538785,-6.403193,7.264609,304.5,31.780001,-87.43,1729422428098.0,0.0
-3.158526,-4.436293,7.092326,223.580002,14.21,-82.879997,1729422428117.0,0.0
-2.828316,-8.123632,4.558327,133.210007,-20.58,-91.699997,1729422428137.0,0.0
-2.378466,-6.515656,4.704289,106.260002,-19.110001,-86.660004,1729422428158.0,0.0
-3.184847,-1.665405,5.955735,132.509995,7.21,-58.869999,1729422428179.0,0.0
-3.979264,1.363909,7.817351,100.660004,16.379999,-17.639999,1729422428197.0,0.0
-3.388237,0.660419,6.936793,-8.47,-0.91,11.06,1729422428216.0,0.0
-1.375873,-3.615555,4.622933,-159.740005,-24.290001,30.940001,1729422428237.0,0.0
-2.048256,-5.082355,3.689733,-177.449997,-1.89,55.650002,1729422428258.0,0.0
-2.675175,-6.597012,3.048456,-186.830002,22.469999,69.300003,1729422428278.0,0.0
-2.196611,-8.642875,1.514657,-233.240005,32.619999,71.540001,1729422428298.0,0.0
-2.17029,-9.700503,-0.20339,-275.170013,27.790001,74.199997,1729422428316.0,0.0
-2.062613,-9.085547,-0.708275,-234.220001,17.710001,85.889999,1729422428337.0,0.0
-3.268596,-8.642875,-0.256032,-167.020004,31.08,99.610001,1729422428357.0,0.0
-5.388636,-8.013563,-0.244068,-172.690002,39.27,91.139999,1729422428377.0,0.0
-6.89133,-10.542776,-1.426122,-212.100006,18.059999,68.18,1729422428397.0,0.0
-7.812566,-14.42872,-3.907479,-229.25,-22.610001,35.349998,1729422428419.0,0.0
-7.546963,-16.065411,-2.512464,-166.949997,-46.689999,-4.34,1729422428436.0,0.0
-6.132804,-11.64826,-1.897508,-82.18,-32.759998,-17.290001,1729422428456.0,0.0
-4.718646,-7.958528,-2.840281,-38.220001,-10.43,-31.780001,1729422428478.0,0.0
-4.290331,-9.056834,-4.838287,-29.610001,-12.18,-37.029999,1729422428497.0,0.0
-4.843073,-13.643874,-6.123233,-0.91,-23.940001,-55.439999,1729422428517.0,0.0
-4.130012,-15.950556,-7.365108,118.650002,-30.59,-92.400002,1729422428536.0,0.0
-2.486143,-9.856036,-1.064806,321.579987,-2.59,-64.400002,1729422428557.0,0.0
-3.158526,-7.034898,4.007978,478.309998,40.880001,-28.84,1729422428575.0,0.0
-3.455236,-7.152147,5.589634,347.829987,9.45,-103.739998,1729422428597.0,0.0
-2.646462,-8.867801,5.615955,271.179993,-14.98,-95.059998,1729422428616.0,0.0
-1.143769,-7.537392,8.482556,243.040009,10.08,-82.32,1729422428636.0,0.0
-1.533799,-5.737988,6.319445,173.880005,21.77,-79.800003,1729422428659.0,0.0
-4.488935,-6.206983,6.092126,88.199997,4.2,-55.860001,1729422428677.0,0.0
-4.898108,-6.635297,4.991428,40.529999,-21.280001,-49.209999,1729422428695.0,0.0
-2.59382,-2.620141,4.675575,43.68,2.31,-47.459999,1729422428716.0,0.0
-3.400201,-0.9667,6.695118,52.639999,11.62,-4.34,1729422428737.0,0.0
-4.122833,-0.363709,5.529813,-16.52,0.21,10.29,1729422428758.0,0.0
-3.139383,-1.619941,4.359723,-81.550003,-4.9,33.389999,1729422428778.0,0.0
-2.251646,-2.868994,3.9673,-126.559998,4.83,58.029999,1729422428797.0,0.0
-1.813759,-5.307281,3.692125,-173.880005,11.62,79.730003,1729422428815.0,0.0
-2.062613,-7.04447,2.957529,-252.279999,21.35,90.510002,1729422428836.0,0.0
-4.034299,-9.765109,1.105484,-331.23999,21.91,98.769997,1729422428857.0,0.0
-4.283153,-10.667203,-1.146162,-339.640015,13.440001,82.949997,1729422428877.0,0.0
-3.87398,-10.796415,-0.70349,-261.309998,6.3,87.290001,1729422428895.0,0.0
-4.158726,-10.25803,-1.241875,-184.100006,8.82,70.559998,1729422428915.0,0.0
-5.130211,-10.925629,-2.395216,-151.970001,1.26,59.290001,1729422428936.0,0.0
-6.185446,-11.600404,-2.634498,-120.050003,2.94,42.98,1729422428959.0,0.0
-6.869793,-12.918849,-3.175276,-88.620003,-1.33,20.58,1729422428977.0,0.0
-6.896115,-14.720645,-4.869394,-25.76,-12.88,-10.71,1729422428995.0,0.0
-6.013163,-14.009976,-4.347759,67.620003,-6.37,-46.200001,1729422429017.0,0.0
-5.28096,-13.69891,-5.139783,181.580002,-7.56,-62.439999,1729422429036.0,0.0
-4.776074,-11.827723,-0.98345,317.589996,-0.98,-74.199997,1729422429159.0,0.0
-4.323831,-5.903094,2.364109,432.670013,4.69,-58.099998,1729422429160.0,0.0
-6.053841,-8.197811,7.135397,432.110016,11.55,-60.060001,1729422429160.0,0.0
-3.792624,-9.954143,3.701697,290.5,-43.049999,-151.970001,1729422429161.0,0.0
0.619741,-9.923036,4.718646,259.980011,-30.17,-140.630005,1729422429161.0,0.0
-0.495314,-4.520042,7.932207,265.019989,34.369999,-77.07,1729422429161.0,0.0
-1.782653,-1.002593,6.776474,185.360001,15.75,-93.379997,1729422429209.0,0.0
-3.866802,-1.473979,4.584648,87.360001,15.75,-59.709999,1729422429209.0,0.0
-3.909872,-3.165704,3.756732,42.560001,1.19,-44.240002,1729422429214.0,0.0
-1.256232,-0.823131,5.419744,25.48,28.42,-29.82,1729422429236.0,0.0
-2.452643,-2.287539,7.740781,5.6,42.349998,30.309999,1729422429258.0,0.0
-4.187439,-5.101498,6.855437,-60.48,23.1,44.310001,1729422429275.0,0.0
-2.986243,-7.022934,5.876772,-113.540001,13.02,38.360001,1729422429296.0,0.0
-3.165704,-6.908078,5.149354,-152.320007,13.02,55.439999,1729422429316.0,0.0
-4.189832,-7.408179,4.24726,-176.820007,16.030001,65.309998,1729422429336.0,0.0
-3.495914,-8.456236,4.189832,-200.130005,15.05,59.990002,1729422429357.0,0.0
-3.196811,-9.023334,2.354537,-249.130005,23.24,61.18,1729422429376.0,0.0
-3.113062,-7.903493,0.875773,-312.690002,17.85,65.519997,1729422429398.0,0.0
-3.084348,-6.326623,0.227318,-305.200012,10.29,75.669998,1729422429416.0,0.0
-4.577469,-7.410572,1.332802,-266.48999,14.21,81.199997,1729422429440.0,0.0
-6.149554,-10.179067,-0.677169,-267.049988,-5.11,57.470001,1729422429457.0,0.0
-6.092126,-12.557532,-2.782853,-215.809998,-22.469999,31.99,1729422429479.0,0.0
-6.218946,-13.684553,-2.95035,-125.650002,-20.299999,14.63,1729422429499.0,0.0
-5.510671,-12.401999,-3.287738,-17.15,-12.74,-13.51,1729422429517.0,0.0
-6.087341,-13.584054,-6.190232,60.689999,-2.1,-38.150002,1729422429538.0,0.0
-6.530013,-13.500306,-4.931608,189.979996,0.7,-69.93,1729422429558.0,0.0
-4.754539,-8.750552,0.679562,352.380005,-10.01,-58.450001,1729422429577.0,0.0
-3.196811,-4.223332,2.115255,405.929993,13.23,-39.34,1729422429597.0,0.0
-4.010371,-8.542377,6.209375,331.869995,5.81,-73.779999,1729422429617.0,0.0
-2.261217,-11.172089,4.366901,251.860001,-36.400002,-111.300003,1729422429638.0,0.0
-0.502493,-7.147361,6.108876,288.679993,8.12,-80.290001,1729422429660.0,0.0
-1.462015,-3.285345,8.367701,290.290009,38.5,-57.75,1729422429677.0,0.0
-2.809174,-2.440679,7.874779,172.759995,20.51,-62.860001,1729422429697.0,0.0
-4.584648,-1.95015,5.120641,45.150002,-7.7,-18.27,1729422429718.0,0.0
-3.675375,-4.182654,5.209175,1.61,-4.34,-8.33,1729422429737.0,0.0
-2.806781,-3.294917,6.750153,-30.73,12.39,5.88,1729422429759.0,0.0
-4.074977,-3.649055,7.255038,-77.699997,4.97,39.060001,1729422429778.0,0.0
-4.759324,-4.811966,5.651847,-146.580002,-10.36,39.549999,1729422429798.0,0.0
-4.62054,-6.21416,4.299902,-213.850006,-6.93,43.68,1729422429833.0,0.0
-3.572484,-8.84148,3.799802,-278.950012,-14.63,44.240002,1729422429917.0,0.0
-2.694318,-9.851252,1.739582,-280.070007,-11.55,40.389999,1729422429921.0,0.0
-2.28036,-9.643075,-0.105284,-213.080002,4.55,45.709999,1729422429926.0,0.0
-1.78026,-5.864808,0.562313,-153.720001,16.379999,59.709999,1729422429927.0,0.0
-3.081956,-3.85723,0.741775,-143.009995,30.1,83.510002,1729422429929.0,0.0
-5.632704,-5.728417,1.038485,-208.25,28.700001,79.870003,1729422429937.0,0.0
-7.209574,-8.91805,-2.038685,-275.029999,6.02,58.799999,1729422429957.0,0.0
-7.070791,-11.743973,-3.900301,-246.259995,-22.049999,34.860001,1729422429981.0,0.0
-6.580262,-13.873586,-4.862216,-181.020004,-38.709999,10.36,1729422429995.0,0.0
-6.259624,-14.900107,-6.963113,-86.800003,-37.66,-17.639999,1729422430016.0,0.0
-5.855237,-15.022141,-7.097112,50.68,-15.61,-44.799999,1729422430037.0,0.0
-5.201996,-13.77548,-4.740182,204.75,12.6,-48.16,1729422430062.0,0.0
-4.783253,-9.576077,0.031107,315.700012,30.1,-42.560001,1729422430076.0,0.0
-4.469792,-4.977071,2.232504,357.350006,21.210001,-37.66,1729422430097.0,0.0
-4.711468,-4.675575,4.929214,325.079987,2.87,-29.82,1729422430116.0,0.0
-4.388437,-7.396214,2.907279,227.290009,-31.85,-64.610001,1729422430136.0,0.0
-2.598605,-12.55514,4.376472,236.180008,-42.630001,-92.120003,1729422430158.0,0.0
-0.820738,-4.728218,6.702296,311.360016,9.66,-90.370003,1729422430176.0,0.0
-3.754339,-1.414158,7.013363,243.25,39.619999,-39.200001,1729422430196.0,0.0
-4.776074,-3.65384,6.833901,75.949997,-16.870001,-35.0,1729422430216.0,0.0
-3.550949,-5.197211,4.656433,-32.619999,-36.75,-27.370001,1729422430236.0,0.0
-2.514857,-5.20439,4.584648,-16.59,-5.95,-6.72,1729422430257.0,0.0
-3.452843,-4.443472,5.297709,-22.120001,5.88,12.6,1729422430276.0,0.0
-3.4672,-4.924429,5.237889,-71.190002,0.84,22.610001,1729422430296.0,0.0
-3.773481,-5.273781,5.972485,-129.149994,1.47,35.91,1729422430316.0,0.0
-4.924429,-5.773881,5.661418,-207.479996,-7.49,49.98,1729422430336.0,0.0
-4.656433,-7.475177,4.15394,-276.640015,-21.91,46.900002,1729422430357.0,0.0
-2.572284,-9.844072,6.130411,-283.429993,-36.119999,50.259998,1729422430376.0,0.0
-0.495314,-11.538191,-2.15354,-276.570007,-13.58,33.880001,1729422430396.0,0.0
-0.492921,-9.956534,-0.897308,-202.440002,8.47,25.549999,1729422430417.0,0.0
-3.151347,-6.905686,0.988236,-139.440002,18.059999,71.82,1729422430436.0,0.0
-5.335995,-7.269395,1.318445,-130.339996,25.200001,54.740002,1729422430458.0,0.0
-6.893722,-10.236496,-1.292124,-165.550003,-0.63,28.0,1729422430475.0,0.0
-5.95095,-12.897314,-4.520042,-103.879997,-25.690001,7.42,1729422430495.0,0.0
-4.694718,-12.25843,-4.261617,31.57,-11.69,-4.06,1729422430515.0,0.0
-5.386244,-10.298709,-1.895115,200.339996,40.110001,-10.08,1729422430535.0,0.0
-6.238089,-8.542377,0.634098,227.850006,33.18,-12.81,1729422430557.0,0.0
-5.06082,-7.688138,2.124826,217.559998,-11.55,-28.84,1729422430576.0,0.0
-3.275774,-6.362515,3.809374,198.800003,-12.53,-21.559999,1729422430595.0,0.0
-3.342773,-5.534599,4.23051,164.009995,9.94,-2.66,1729422430615.0,0.0
-5.175675,-7.487142,3.665804,96.949997,7.42,-9.59,1729422430636.0,0.0
-4.405186,-8.700303,2.907279,69.160004,-18.83,-25.690001,1729422430656.0,0.0
-3.416951,-8.01117,4.287938,103.529999,4.83,-3.78,1729422430675.0,0.0
-3.988836,-6.393622,4.575077,104.720001,18.690001,-2.24,1729422430695.0,0.0
-4.527221,-6.001199,4.297509,79.800003,12.25,-4.83,1729422430715.0,0.0
-4.383651,-6.927221,4.658825,50.259998,5.81,3.01,1729422430735.0,0.0
-3.302095,-7.420143,4.362115,43.049999,1.47,4.97,1729422430756.0,0.0
-3.802195,-6.888937,5.374279,66.57,12.95,15.61,1729422430775.0,0.0
-4.756931,-7.302894,5.905487,59.360001,13.79,12.11,1729422430795.0,0.0
-4.23051,-8.334201,5.328816,33.810001,1.54,4.2,1729422430815.0,0.0
-4.161119,-9.042477,5.67099,36.540001,3.15,-1.54,1729422430835.0,0.0
-4.491328,-8.949157,6.273981,51.73,8.68,-14.14,1729422430857.0,0.0
-3.684947,-9.54497,6.111269,40.25,1.47,-27.51,1729422430876.0,0.0
-3.086741,-10.124033,6.329016,45.290001,-0.07,-39.830002,1729422430895.0,0.0
-3.512664,-9.786645,7.37468,63.0,-0.07,-50.259998,1729422430916.0,0.0
-3.61077,-8.173882,6.530013,56.91,-1.19,-56.98,1729422430937.0,0.0
-2.986243,-8.161918,6.21416,38.080002,-9.87,-66.849998,1729422430957.0,0.0
-2.962314,-9.267403,7.042077,29.190001,-6.58,-71.400002,1729422430977.0,0.0
-2.335395,-4.141976,4.512863,28.0,-1.26,-76.93,1729422430997.0,0.0
-5.149354,-5.642276,5.737988,46.970001,8.4,-34.650002,1729422431016.0,0.0
-4.278367,-4.342973,4.532006,4.76,-3.36,-51.73,1729422431036.0,0.0
-4.61097,-4.9675,4.737789,-2.73,8.33,-34.93,1729422431063.0,0.0
-4.371687,-5.28096,4.797609,-1.05,6.16,-35.279999,1729422431076.0,0.0
-3.737589,-5.175675,4.864608,11.76,10.36,-26.110001,1729422431096.0,0.0
-3.342773,-4.567898,4.505685,21.98,14.35,-21.139999,1729422431116.0,0.0
-3.206382,-3.964907,5.072784,27.440001,26.32,-7.56,1729422431136.0,0.0
-3.792624,-3.266203,6.168696,9.24,27.719999,5.67,1729422431166.0,0.0
-3.479164,-4.34058,6.417551,-16.379999,16.309999,15.96,1729422431177.0,0.0
-2.658426,-4.993821,6.156733,-21.629999,12.39,47.040001,1729422431196.0,0.0
-2.888137,-5.955735,7.04447,-20.370001,9.24,56.349998,1729422431218.0,0.0
-3.823731,-8.453842,7.712067,-22.610001,1.33,59.849998,1729422431244.0,0.0
-4.311867,-8.451449,6.202196,-31.780001,-4.62,42.91,1729422431261.0,0.0
-5.065606,-10.100104,6.099305,-19.040001,-2.17,43.889999,1729422431278.0,0.0
-6.072984,-12.892529,5.158926,-6.86,-11.55,8.82,1729422431296.0,0.0
-5.508278,-12.045469,4.04387,21.210001,-5.46,-30.940001,1729422431317.0,0.0
-4.204189,-9.973285,6.104091,63.84,16.940001,-33.880001,1729422431337.0,0.0
-3.63709,-8.590233,7.401,47.110001,5.18,-60.900002,1729422431357.0,0.0
-3.192025,-8.298308,7.32443,23.799999,-7.84,-61.459999,1729422431386.0,0.0
-2.165504,-5.599205,6.666404,18.27,-11.06,-64.330002,1729422431397.0,0.0
-2.871387,-3.692125,6.951149,19.950001,-8.12,-47.810001,1729422431417.0,0.0
-2.720639,-2.629712,6.089733,-6.09,-18.48,-41.09,1729422431437.0,0.0
-1.569692,-2.502892,5.328816,-13.86,-18.76,-23.309999,1729422431457.0,0.0
-1.079163,-1.56012,5.343173,0.14,-7.14,-0.28,1729422431478.0,0.0
-3.287738,-3.273381,6.903293,9.17,3.99,36.049999,1729422431497.0,0.0
-3.402594,-4.333402,5.414958,-21.280001,-6.09,46.549999,1729422431518.0,0.0
-3.002992,-4.273581,5.639884,-3.29,11.48,72.099998,1729422431538.0,0.0
-5.197211,-5.491528,6.056234,-4.48,14.56,82.599998,1729422431558.0,0.0
-5.986843,-8.690732,5.596812,-25.48,11.83,86.169998,1729422431577.0,0.0
-7.022934,-13.847265,6.960721,-25.549999,0.84,64.959999,1729422431597.0,0.0
-7.116255,-14.555541,6.45105,-19.110001,-5.6,23.799999,1729422431618.0,0.0
-6.486942,-13.703696,5.783452,-4.34,-16.309999,-23.450001,1729422431639.0,0.0
-3.704089,-8.571091,4.938786,18.41,-8.96,-52.639999,1729422431659.0,0.0
-3.404987,-8.090133,4.852644,17.360001,-5.6,-59.360001,1729422431679.0,0.0
-3.144169,-9.521042,5.178068,5.39,-10.08,-73.010002,1729422431699.0,0.0
-2.474179,-7.262216,5.517848,33.950001,4.27,-75.949997,1729422431719.0,0.0
-2.132005,-2.584249,6.65444,50.610001,17.219999,-68.879997,1729422431739.0,0.0
-2.333002,-1.01695,6.750153,17.57,9.94,-48.790001,1729422431761.0,0.0
-0.887737,-0.344566,5.240282,-49.139999,-3.5,-6.16,1729422431780.0,0.0
-2.120041,-2.943172,5.761917,-50.540001,0.77,30.52,1729422431798.0,0.0
-4.065405,-6.017949,5.266603,-45.990002,-5.25,39.759998,1729422431819.0,0.0
-3.354738,-4.101298,5.663811,-11.9,13.51,57.400002,1729422431839.0,0.0
-4.718646,-3.316452,6.082555,8.4,22.960001,81.690002,1729422431861.0,0.0
-5.443672,-6.482157,6.45105,-27.02,9.66,88.410004,1729422431880.0,0.0
-6.802795,-11.901899,7.123433,-51.240002,-1.89,77.349998,1729422431898.0,0.0
-7.690532,-15.940985,6.716653,-32.900002,-11.27,35.0,1729422431918.0,0.0
-6.762117,-15.101105,5.309673,-11.69,-16.73,-22.26,1729422431940.0,0.0
-3.182454,-8.62134,5.039285,39.060001,6.58,-51.450001,1729422431964.0,0.0
-3.699304,-8.772088,6.199803,37.52,8.68,-57.330002,1729422431979.0,0.0
-3.031706,-9.822537,5.687739,-9.45,-13.51,-78.260002,1729422431998.0,0.0
-2.26361,-7.200003,6.139983,19.18,-3.78,-74.900002,1729422432019.0,0.0
-2.555535,-2.871387,6.67119,41.16,6.58,-64.68,1729422432039.0,0.0
-1.854438,-0.701097,5.383851,0.56,-6.58,-51.240002,1729422432065.0,0.0
-0.387637,-0.57667,4.886144,-31.08,-12.25,-18.200001,1729422432080.0,0.0
-1.124627,-1.971686,5.802595,-23.52,-0.14,17.57,1729422432098.0,0.0
-3.45045,-5.103891,5.067998,-27.51,-3.15,38.920002,1729422432118.0,0.0
-2.974278,-3.852444,5.826523,0.56,12.88,67.760002,1729422432138.0,0.0
-4.675575,-4.218546,6.037091,1.61,18.620001,88.410004,1729422432161.0,0.0
-5.534599,-6.74776,5.663811,-35.560001,7.42,92.190002,1729422432178.0,0.0
-6.754939,-12.59821,7.539784,-32.27,4.41,86.940002,1729422432198.0,0.0
-8.293523,-17.953348,7.357929,-24.639999,-17.290001,29.33,1729422432218.0,0.0
-7.539784,-15.649059,5.201996,3.64,-19.32,-28.84,1729422432238.0,0.0
-4.512863,-8.12124,4.445865,53.200001,7.49,-59.779999,1729422432261.0,0.0
-4.012764,-8.551948,5.235496,30.450001,1.82,-72.590004,1729422432278.0,0.0
-2.835495,-9.265009,6.01077,-1.96,-15.4,-87.010002,1729422432297.0,0.0
-2.227718,-5.972485,6.072984,26.6,-5.11,-74.410004,1729422432317.0,0.0
-2.067399,-2.89053,5.998806,26.880001,0.14,-61.599998,1729422432337.0,0.0
-1.524228,-1.509871,4.618148,-8.96,-11.27,-48.860001,1729422432368.0,0.0
-0.629312,-0.658026,5.046463,-15.05,-4.83,-13.72,1729422432378.0,0.0
-1.607977,-1.225125,5.551349,-12.88,4.9,20.58,1729422432397.0,0.0
-3.852444,-4.680361,4.912465,-36.400002,-4.69,39.759998,1729422432417.0,0.0
-3.421736,-5.623133,5.895915,-29.82,-1.82,52.849998,1729422432438.0,0.0
-5.151747,-5.974878,6.297909,-4.06,10.99,75.389999,1729422432458.0,0.0
-5.850451,-8.772088,5.422136,-35.630001,-1.12,68.32,1729422432477.0,0.0
-5.694918,-12.375679,5.659025,-31.57,-0.98,50.889999,1729422432498.0,0.0
-6.570691,-15.45524,5.845665,0.98,1.12,12.04,1729422432517.0,0.0
-5.785845,-12.765708,5.711668,32.970001,7.35,-28.98,1729422432537.0,0.0
-3.98405,-9.334401,6.051448,45.150002,18.549999,-49.490002,1729422432558.0,0.0
-3.443272,-10.009177,5.125426,-4.55,-2.87,-69.93,1729422432577.0,0.0
-2.275574,-9.312866,5.118248,2.1,-5.81,-82.18,1729422432597.0,0.0
-2.766103,-5.592027,7.099504,50.82,12.67,-68.25,1729422432617.0,0.0
-3.397808,-3.45045,7.140182,27.23,-2.59,-68.32,1729422432637.0,0.0
-1.806581,-2.514857,6.283553,-15.4,-19.809999,-54.880001,1729422432658.0,0.0
-0.437887,-1.038485,5.091926,-23.450001,-14.21,-23.52,1729422432677.0,0.0
-0.942772,-1.17009,5.072784,-11.97,-5.11,9.94,1729422432697.0,0.0
-3.096312,-4.218546,5.070391,-15.190001,-3.01,33.110001,1729422432717.0,0.0
-2.833102,-4.271189,4.816752,-10.22,5.04,48.299999,1729422432738.0,0.0
-3.24706,-4.177868,5.752346,8.96,15.82,76.510002,1729422432758.0,0.0
-6.008378,-8.018349,6.003592,0.84,15.47,91.279999,1729422432777.0,0.0
-5.60399,-9.688539,5.496314,-40.040001,-2.94,75.879997,1729422432797.0,0.0
-6.678369,-14.730216,5.886343,-16.52,0.56,62.369999,1729422432817.0,0.0
-6.685547,-15.160924,5.034499,-7.84,-7.63,-4.27,1729422432838.0,0.0
-5.379066,-11.650653,6.56112,44.170002,7.56,-29.33,1729422432859.0,0.0
-4.295116,-8.652447,6.759724,41.369999,8.47,-54.110001,1729422432877.0,0.0
-3.349952,-9.253045,5.039285,-17.360001,-19.530001,-69.650002,1729422432898.0,0.0
-2.490928,-9.279366,4.445865,-14.14,-18.690001,-72.379997,1729422432917.0,0.0
-2.368894,-5.864808,5.716454,29.540001,3.22,-66.779999,1729422432938.0,0.0
-2.519642,-2.74696,5.962914,23.52,2.87,-58.799999,1729422432957.0,0.0
-1.411765,-1.019342,5.151747,-7.98,-4.69,-40.459999,1729422432977.0,0.0
-0.729811,-0.468993,5.168497,-20.860001,0.28,-8.33,1729422432996.0,0.0
-1.911865,-3.079563,5.362316,-22.120001,6.93,23.450001,1729422433016.0,0.0
-3.103491,-5.134997,4.869394,-26.25,3.99,33.599998,1729422433038.0,0.0
-2.902494,-5.230711,5.292924,4.62,21.42,57.260002,1729422433061.0,0.0
-3.565305,-5.513064,5.278566,15.26,28.630001,71.050003,1729422433076.0,0.0
-5.558527,-8.882158,5.580062,6.02,29.68,72.519997,1729422433097.0,0.0
-6.498906,-12.617353,6.833901,6.93,18.83,48.369999,1729422433116.0,0.0
-7.369894,-12.909278,5.592027,12.25,6.51,8.05,1729422433139.0,0.0
-6.099305,-9.870394,5.120641,8.96,2.31,-24.08,1729422433170.0,0.0
-4.733003,-7.862815,6.553941,33.740002,14.56,-35.84,1729422433178.0,0.0
-4.735396,-9.274581,6.161518,6.79,-2.17,-58.029999,1729422433198.0,0.0
-2.837888,-9.415757,5.194818,-8.75,-15.05,-68.25,1729422433218.0,0.0
-2.325824,-5.690133,7.262216,42.420002,3.01,-55.439999,1729422433239.0,0.0
-3.189633,-2.840281,7.171289,31.639999,-0.42,-48.720001,1729422433260.0,0.0
-1.572084,-1.208375,5.651847,-21.210001,-19.530001,-36.540001,1729422433285.0,0.0
-1.064806,-1.339981,5.134997,-28.49,-12.81,-0.84,1729422433299.0,0.0
-2.129612,-3.220739,5.522634,-17.710001,-6.51,22.889999,1729422433319.0,0.0
-3.818945,-6.06102,5.13739,-15.190001,-4.27,36.189999,1729422433339.0,0.0
-3.567699,-5.45085,4.941179,-1.05,0.63,41.09,1729422433360.0,0.0
-3.644269,-4.240082,6.999006,22.610001,11.34,61.740002,1729422433378.0,0.0
-4.685147,-5.460421,7.623533,-2.73,2.87,70.980003,1729422433398.0,0.0
-5.577669,-9.169296,6.518049,-47.459999,-11.69,72.239998,1729422433421.0,0.0
-6.530013,-12.68196,4.945964,-41.23,-15.190001,40.670002,1729422433440.0,0.0
-7.408179,-14.177474,5.381458,7.28,-3.85,3.43,1729422433461.0,0.0
-5.745167,-10.217353,4.780859,35.98,1.61,-46.549999,1729422433478.0,0.0
-3.862016,-7.889136,5.065606,54.599998,17.780001,-53.900002,1729422433499.0,0.0
-3.275774,-8.712267,4.548756,20.58,4.55,-65.940002,1729422433518.0,0.0
-2.414358,-6.927221,5.721239,27.299999,11.55,-58.450001,1729422433538.0,0.0
-2.919244,-3.548556,6.943972,30.59,13.51,-52.920002,1729422433561.0,0.0
-2.67039,-2.098505,6.649654,-2.94,-4.48,-33.880001,1729422433579.0,0.0
-1.596013,-1.969293,5.312066,-35.209999,-15.96,-9.59,1729422433599.0,0.0
-1.421337,-2.478964,5.601598,-25.059999,-8.47,18.969999,1729422433620.0,0.0
-3.18724,-4.883751,6.204589,-13.51,-2.73,41.439999,1729422433640.0,0.0
-4.079762,-6.218946,5.673382,-19.18,-6.65,47.32,1729422433661.0,0.0
-3.376273,-6.151947,5.228317,-9.87,4.27,60.48,1729422433678.0,0.0
-3.955336,-7.06122,4.13719,-2.1,16.030001,66.290001,1729422433699.0,0.0
-6.065805,-9.382257,6.029913,21.700001,33.599998,63.490002,1729422433718.0,0.0
-8.147561,-12.483356,6.568298,35.279999,40.32,38.709999,1729422433740.0,0.0
-7.393822,-12.535997,4.039084,23.450001,26.18,-27.860001,1729422433761.0,0.0
-5.644669,-8.367701,3.56052,53.689999,36.540001,-58.380001,1729422433779.0,0.0
-5.003392,-5.446064,6.766902,77.769997,44.59,-59.639999,1729422433801.0,0.0
-4.601398,-6.565905,7.802995,22.75,2.8,-64.540001,1729422433821.0,0.0
-2.108077,-6.288338,6.699903,-22.68,-17.360001,-57.540001,1729422433840.0,0.0
-2.294717,-6.192625,6.673582,-37.310001,-25.41,-49.490002,1729422433863.0,0.0
-2.208575,-4.625326,6.982256,-35.490002,-33.950001,-42.0,1729422433879.0,0.0
-1.454836,-1.569692,6.503692,-30.450001,-29.049999,-21.629999,1729422433900.0,0.0
-1.57687,-1.849652,5.838487,-43.82,-31.85,4.48,1729422433919.0,0.0
-2.586641,-4.744967,5.489135,-52.920002,-30.17,28.07,1729422433941.0,0.0
-3.622734,-5.9677,4.831109,-45.57,-23.379999,35.349998,1729422433960.0,0.0
-3.512664,-4.110869,5.525027,-13.86,-1.47,51.170002,1729422433980.0,0.0
-4.74736,-4.240082,6.757331,-7.91,4.9,68.25,1729422434004.0,0.0
-6.431907,-7.219146,6.355337,-37.310001,-9.1,75.18,1729422434019.0,0.0
-6.477371,-10.147961,3.76391,-61.25,-19.6,59.920002,1729422434040.0,0.0
-6.309873,-13.823336,5.278566,-15.89,-6.23,29.049999,1729422434135.0,0.0
-6.71426,-14.230117,6.522834,16.59,-3.22,-20.51,1729422434141.0,0.0
-4.960321,-9.516255,6.556334,40.599998,10.36,-48.439999,1729422434143.0,0.0
-4.333402,-8.736196,4.350152,12.32,-0.56,-62.369999,1729422434145.0,0.0
-2.945565,-9.430114,3.347559,3.15,-6.37,-74.480003,1729422434146.0,0.0
-2.799603,-6.520442,5.225924,48.02,14.35,-70.349998,1729422434161.0,0.0
-3.18724,-3.730411,6.106483,48.23,11.13,-67.830002,1729422434180.0,0.0
-2.553142,-2.242075,5.778666,10.5,-7.49,-50.470001,1729422434199.0,0.0
-1.438086,-2.007578,4.766503,-22.610001,-15.190001,-21.35,1729422434219.0,0.0
-1.335195,-2.419144,4.991428,-28.42,-11.97,8.89,1729422434251.0,0.0
-3.361916,-5.132604,4.656433,-26.880001,-7.35,33.880001,1729422434261.0,0.0
-4.460221,-7.051648,4.910072,-26.530001,-5.6,38.639999,1729422434279.0,0.0
-4.584648,-7.793423,5.319244,-5.53,8.05,43.400002,1729422434300.0,0.0
-5.54417,-7.326823,6.046663,28.91,26.950001,38.920002,1729422434319.0,0.0
-6.063413,-6.687939,4.95075,44.939999,34.790001,26.460001,1729422434339.0,0.0
-6.412765,-7.647461,4.338188,46.48,43.049999,26.530001,1729422434361.0,0.0
-6.183054,-10.018748,5.958128,60.970001,38.920002,-0.35,1729422434379.0,0.0
-5.156533,-8.001599,7.085148,73.150002,36.189999,-16.030001,1729422434399.0,0.0
-5.225924,-7.168896,6.678369,52.849998,25.83,-23.24,1729422434420.0,0.0
-5.388636,-7.159326,6.252446,8.89,4.48,-31.710001,1729422434440.0,0.0
-4.768896,-5.785845,6.30748,-9.38,-2.59,-26.110001,1729422434461.0,0.0
-4.539185,-3.859623,6.716653,-30.380001,-4.83,-16.52,1729422434479.0,0.0
-4.685147,-3.924229,7.329216,-87.43,-19.25,-0.91,1729422434499.0,0.0
-4.06062,-5.599205,5.860023,-154.910004,-47.25,6.16,1729422434519.0,0.0
-3.290131,-7.051648,5.733203,-163.660004,-63.700001,12.11,1729422434540.0,0.0
-2.761317,-6.924829,5.953342,-123.550003,-68.809998,25.969999,1729422434561.0,0.0
-2.127219,-7.341179,6.568298,-88.129997,-78.050003,35.420002,1729422434579.0,0.0
-1.921437,-8.786445,5.919843,-92.190002,-92.050003,36.610001,1729422434599.0,0.0
-1.768296,-9.796216,3.960121,-115.080002,-97.160004,28.42,1729422434620.0,0.0
-1.095913,-10.518847,2.715853,-119.629997,-85.959999,19.040001,1729422434641.0,0.0
-1.165305,-10.681561,2.986243,-97.440002,-55.790001,5.11,1729422434672.0,0.0
-2.055435,-10.320245,2.799603,-77.559998,-29.960001,-14.98,1729422434679.0,0.0
-2.005185,-9.537791,2.251646,-62.860001,-21.07,-25.969999,1729422434699.0,0.0
-2.35693,-9.659825,2.48375,-45.779999,-4.62,-20.02,1729422434721.0,0.0
-2.230111,-9.671788,2.146362,-39.970001,1.82,-26.530001,1729422434740.0,0.0
-2.557927,-9.394222,1.947758,-35.560001,8.05,-25.41,1729422434761.0,0.0
-2.787638,-8.315059,1.804188,-29.68,18.969999,-25.129999,1729422434781.0,0.0
-3.005385,-7.195218,1.536192,-19.389999,21.77,-18.549999,1729422434799.0,0.0
-3.730411,-7.829315,3.404987,-2.1,23.870001,-10.22,1729422434821.0,0.0
-4.295116,-6.290731,8.346166,-9.45,15.61,0.56,1729422434841.0,0.0
-4.677969,-6.288338,6.324231,-98.980003,-4.76,5.46,1729422434860.0,0.0
-3.012564,-7.381857,3.534199,-159.25,-36.75,3.71,1729422434879.0,0.0
-2.641676,-7.936993,1.222732,-119.489998,-29.049999,23.24,1729422434899.0,0.0
-3.084348,-8.324631,0.074178,-57.330002,-17.92,21.0,1729422434921.0,0.0
-3.644269,-9.430114,0.409173,-11.97,-6.79,29.26,1729422434940.0,0.0
-4.106083,-10.04507,0.971486,12.11,0.35,30.66,1729422434961.0,0.0
-4.898108,-11.600404,-0.392423,9.66,4.06,29.540001,1729422434979.0,0.0
-6.486942,-14.067404,-0.739382,-25.129999,14.42,6.51,1729422435000.0,0.0
-7.106683,-14.708681,-0.507278,-54.18,34.23,-25.83,1729422435021.0,0.0
-5.032106,-9.363115,0.696311,-28.42,59.990002,-59.290001,1729422435041.0,0.0
-4.890929,-8.362915,-0.224925,-36.470001,63.209999,-72.940002,1729422435061.0,0.0
-3.09392,-7.886744,1.739582,-29.610001,41.650002,-72.730003,1729422435079.0,0.0
-0.550349,-3.876373,4.941179,17.219999,24.43,-55.439999,1729422435100.0,0.0
0.318245,-2.344966,5.453243,12.74,11.48,-31.710001,1729422435120.0,0.0
0.327817,-4.718646,3.790231,-15.12,-16.870001,-1.19,1729422435141.0,0.0
-1.416551,-6.869793,3.084348,-17.01,-28.49,24.360001,1729422435160.0,0.0
-2.981457,-8.204988,2.481357,-9.59,-39.970001,38.849998,1729422435179.0,0.0
-2.900101,-10.865808,1.091127,-12.67,-52.709999,37.170002,1729422435201.0,0.0
-3.256632,-12.05504,-0.150748,-10.57,-48.02,23.52,1729422435219.0,0.0
-3.213561,-10.9352,0.713061,25.76,-35.77,23.59,1729422435241.0,0.0
-2.95035,-9.288938,1.244268,47.599998,-23.59,23.24,1729422435260.0,0.0
-3.184847,-8.865408,1.136591,48.02,-16.52,27.299999,1729422435279.0,0.0
-3.720839,-8.614161,1.718047,47.740002,-8.54,34.16,1729422435300.0,0.0
-3.996014,-8.26481,2.490928,27.16,-7.56,37.869999,1729422435326.0,0.0
-4.4674,-8.4347,2.397608,-12.25,-10.43,44.450001,1729422435338.0,0.0
-6.183054,-11.983256,-1.289732,-71.470001,-14.0,37.380001,1729422435361.0,0.0
-5.245068,-14.440684,-4.699504,-123.480003,1.33,-3.99,1729422435379.0,0.0
-3.426522,-14.672788,-4.855037,-45.779999,30.59,-24.85,1729422435400.0,0.0
-3.39063,-12.026326,-0.976272,68.739998,62.09,-38.639999,1729422435421.0,0.0
-4.309474,-9.456435,1.490728,71.68,71.610001,-50.330002,1729422435440.0,0.0
-3.739982,-8.133204,2.694318,-10.78,56.279999,-59.43,1729422435460.0,0.0
-1.768296,-6.319445,3.261417,-67.620003,31.290001,-56.209999,1729422435479.0,0.0
0.334995,-6.403193,3.041277,-32.48,12.53,-45.849998,1729422435500.0,0.0
0.674776,-4.163511,6.238089,46.900002,-0.28,-20.51,1729422435520.0,0.0
-1.064806,-4.141976,6.283553,53.900002,-13.86,17.5,1729422435540.0,0.0
-3.134598,-6.742974,4.852644,-25.690001,-36.610001,35.84,1729422435561.0,0.0
-2.35693,-9.573684,1.316052,-86.590004,-62.439999,44.310001,1729422435580.0,0.0
-1.871187,-11.715261,-0.923629,-74.620003,-67.760002,42.420002,1729422435600.0,0.0
-3.0006,-10.171888,-2.404787,-9.1,-47.529999,55.93,1729422435621.0,0.0
-5.608776,-12.99542,-2.835495,4.76,-15.05,48.720001,1729422435640.0,0.0
-8.195417,-15.117853,-2.988636,-15.68,5.81,17.5,1729422435661.0,0.0
-6.589834,-12.052648,-3.448057,1.61,32.200001,-24.5,1729422435680.0,0.0
-4.307081,-11.028521,-2.143969,38.779999,42.139999,-48.580002,1729422435700.0,0.0
-4.871787,-9.650253,-0.019143,40.18,58.869999,-64.120003,1729422435721.0,0.0
-4.697111,-7.666604,1.816152,-0.42,54.389999,-66.849998,1729422435740.0,0.0
-2.184647,-8.647661,-0.701097,-39.27,33.040001,-70.07,1729422435762.0,0.0
0.069392,-7.238289,2.868994,4.13,29.889999,-64.330002,1729422435781.0,0.0
0.378066,-2.014757,5.809773,63.84,27.16,-31.15,1729422435802.0,0.0
0.433101,-0.808774,5.879165,28.280001,-0.07,7.0,1729422435820.0,0.0
-0.784846,-5.919843,3.699304,-58.73,-33.040001,40.810001,1729422435842.0,0.0
-2.981457,-9.626326,1.526621,-91.139999,-42.07,50.540001,1729422435864.0,0.0
-2.600998,-9.351151,0.107677,-47.110001,-52.080002,59.220001,1729422435882.0,0.0
-3.318845,-11.289338,-0.866202,-13.79,-51.66,65.660004,1729422435901.0,0.0
-4.867002,-12.356536,-2.957529,-4.2,-50.189999,54.32,1729422435921.0,0.0
-6.482157,-14.191832,-1.947758,35.209999,-13.86,57.189999,1729422435941.0,0.0
-8.188239,-15.400207,-3.218346,-11.06,16.799999,7.91,1729422435963.0,0.0
-5.9677,-13.847265,-3.440879,-1.54,34.09,-45.360001,1729422435981.0,0.0
-4.898108,-10.420743,-1.502693,51.939999,48.02,-69.019997,1729422436001.0,0.0
-4.711468,-7.566105,0.734596,56.209999,50.75,-75.18,1729422436021.0,0.0
-3.017349,-6.9679,-0.387637,12.88,38.990002,-77.209999,1729422436046.0,0.0
-0.332602,-7.460821,0.861416,13.58,29.190001,-72.870003,1729422436063.0,0.0
1.09352,-4.376472,3.826123,65.239998,23.66,-48.23,1729422436080.0,0.0
1.658226,-1.919044,4.587041,94.150002,14.77,-11.06,1729422436101.0,0.0
0.981057,-2.57707,5.888737,84.279999,-0.35,35.209999,1729422436120.0,0.0
-1.794617,-4.878965,5.819345,26.67,-13.51,65.800003,1729422436141.0,0.0
-2.347359,-7.176075,3.005385,-21.210001,-38.009998,80.290001,1729422436162.0,0.0
-2.261217,-9.724431,0.782453,-24.710001,-48.02,92.470001,1729422436181.0,0.0
-3.522235,-11.626726,-1.268196,-5.18,-45.080002,95.620003,1729422436201.0,0.0
-6.084948,-13.639089,-0.148355,37.099998,-26.040001,93.449997,1729422436221.0,0.0
-9.068797,-16.575081,0.208176,15.75,-10.5,55.09,1729422436240.0,0.0
-8.652447,-16.72583,-2.806781,-38.639999,2.59,-0.14,1729422436262.0,0.0
-6.041877,-14.462219,-3.756732,-17.99,20.719999,-44.310001,1729422436281.0,0.0
-5.79781,-8.080563,-0.174676,51.66,52.779999,-63.420002,1729422436300.0,0.0
-5.252246,-6.769295,1.270589,5.67,61.18,-74.970001,1729422436321.0,0.0
-3.17049,-6.611369,1.679761,-65.940002,41.509998,-71.470001,1729422436342.0,0.0
-0.835095,-6.396015,2.947958,-47.389999,30.940001,-56.349998,1729422436361.0,0.0
-0.31346,-2.706282,5.496314,10.64,25.690001,-27.790001,1729422436380.0,0.0
-0.55992,-0.993021,5.587241,0.14,2.94,8.19,1729422436401.0,0.0
-1.706082,-3.852444,4.378866,-56.279999,-24.5,44.869999,1729422436420.0,0.0
-2.679961,-7.735995,1.854438,-103.18,-50.119999,64.470001,1729422436441.0,0.0
-2.672783,-10.80838,-0.62692,-80.709999,-61.040001,74.199997,1729422436462.0,0.0
-3.565305,-10.700702,-0.758525,8.89,-41.93,89.809998,1729422436480.0,0.0
-5.572884,-10.743774,0.325424,77.559998,-14.56,89.25,1729422436501.0,0.0
-8.508877,-13.148561,0.485743,43.400002,-3.64,67.830002,1729422436521.0,0.0
-9.209974,-16.685152,-3.385844,-40.740002,-14.42,15.89,1729422436541.0,0.0
-6.884151,-17.699709,-4.453043,-39.48,-2.87,-26.880001,1729422436571.0,0.0
-4.82393,-13.127025,-1.320838,61.950001,26.74,-53.41,1729422436581.0,0.0
-5.20439,-8.324631,1.722832,122.639999,38.990002,-67.129997,1729422436601.0,0.0
-4.981857,-6.053841,2.026721,64.610001,33.389999,-73.43,1729422436621.0,0.0
-2.691926,-7.831708,0.679562,-31.99,13.86,-68.389999,1729422436641.0,0.0
-1.306481,-8.008778,0.935594,-41.509998,14.28,-55.580002,1729422436661.0,0.0
-1.179662,-5.783452,2.708675,16.24,22.960001,-34.650002,1729422436680.0,0.0
-1.196411,-3.675375,3.302095,28.91,13.58,-13.72,1729422436701.0,0.0
-1.514657,-3.404987,4.108476,8.4,-2.73,16.870001,1729422436721.0,0.0
-2.909672,-5.240282,5.02732,-31.92,-19.32,44.66,1729422436741.0,0.0
-2.414358,-7.767102,2.955136,-60.41,-43.889999,55.09,1729422436761.0,0.0
-2.522035,-10.389636,0.708275,-67.480003,-51.939999,63.84,1729422436780.0,0.0
-3.175276,-13.031311,-1.806581,-53.970001,-53.34,65.379997,1729422436800.0,0.0
-5.395815,-14.770894,-1.751546,-43.470001,-35.07,56.139999,1729422436821.0,0.0
-7.001399,-16.644474,-3.199204,-59.990002,-16.799999,19.040001,1729422436840.0,0.0
