acc_x,acc_y,acc_z,gyr_x,gyr_y,gyr_z,timestamp,label
-3.634698,-5.575277,-7.846066,-0.14,2.87,-3.29,1729424628471.0,0.0
-3.541377,-5.515456,-7.805387,2.1,1.19,-2.1,1729424628472.0,0.0
-3.622734,-5.706882,-7.482357,-0.77,4.27,-1.4,1729424628472.0,0.0
-3.68734,-5.869594,-7.377072,-3.99,5.04,-1.05,1729424628472.0,0.0
-3.663411,-5.596812,-7.391429,-0.77,2.87,0.07,1729424628483.0,0.0
-3.498307,-5.410172,-7.508677,5.04,-1.82,2.17,1729424628502.0,0.0
-3.445665,-5.682954,-7.458428,5.25,-3.29,3.08,1729424628520.0,0.0
-3.388237,-5.996413,-7.338787,0.35,-2.52,3.29,1729424628540.0,0.0
-3.4672,-6.223732,-7.164111,1.61,-4.48,4.76,1729424628560.0,0.0
-3.28056,-6.017949,-7.166504,4.2,-8.19,3.29,1729424628580.0,0.0
-3.244668,-5.941379,-7.121039,6.23,-9.66,3.78,1729424628612.0,0.0
-3.409772,-6.003592,-7.144968,4.83,-8.33,3.99,1729424628620.0,0.0
-3.474378,-5.943772,-6.955935,5.74,-10.36,3.71,1729424628640.0,0.0
-3.486342,-6.084948,-6.862615,11.34,-12.39,3.85,1729424628660.0,0.0
-3.397808,-6.04427,-6.745367,14.14,-14.49,3.01,1729424628679.0,0.0
-3.512664,-6.099305,-7.058826,18.969999,-16.73,4.76,1729424628702.0,0.0
-4.271189,-6.21416,-7.62114,20.370001,-13.02,2.24,1729424628720.0,0.0
-4.754539,-6.039484,-8.252845,17.780001,-4.13,0.07,1729424628740.0,0.0
-5.096712,-6.386444,-8.901299,14.91,1.54,-0.35,1729424628760.0,0.0
-5.424529,-7.087541,-8.776874,10.22,13.37,-3.85,1729424628780.0,0.0
-5.879165,-7.190433,-8.547162,14.42,26.460001,-7.63,1729424628802.0,0.0
-6.046663,-6.848258,-8.717053,23.379999,36.470001,-11.13,1729424628820.0,0.0
-6.132804,-5.575277,-8.023134,40.32,48.790001,-12.39,1729424628840.0,0.0
-6.017949,-4.900501,-7.415358,69.370003,54.950001,-11.06,1729424628860.0,0.0
-5.498707,-5.237889,-7.580462,83.230003,52.009998,-10.71,1729424628880.0,0.0
-4.907679,-5.381458,-7.104291,76.93,61.389999,-13.16,1729424628902.0,0.0
-4.651647,-5.568098,-6.733403,91.980003,68.18,-4.76,1729424628921.0,0.0
-3.641876,-5.828916,-6.821937,115.849998,58.029999,1.54,1729424628940.0,0.0
-2.24686,-5.668597,-6.515656,117.599998,48.720001,6.51,1729424628960.0,0.0
-1.129412,-6.07777,-6.005985,99.400002,49.209999,12.11,1729424628982.0,0.0
-0.301496,-6.252446,-6.039484,72.870003,55.09,11.48,1729424629001.0,0.0
0.552742,-6.549156,-6.482157,53.970001,57.260002,17.92,1729424629020.0,0.0
1.399801,-7.049256,-6.072984,38.360001,58.450001,22.889999,1729424629039.0,0.0
1.552942,-7.664211,-4.479364,37.73,66.57,29.82,1729424629062.0,0.0
1.430908,-7.185646,-1.241875,48.860001,71.470001,38.220001,1729424629080.0,0.0
0.55992,-8.006385,3.806981,58.099998,50.049999,46.619999,1729424629101.0,0.0
-0.940379,-9.611969,2.538785,99.610001,13.51,40.950001,1729424629119.0,0.0
-1.064806,-7.987241,1.899901,99.190002,-40.040001,19.530001,1729424629141.0,0.0
-2.072184,-6.329016,3.091527,58.799999,-57.75,34.439999,1729424629161.0,0.0
-2.63689,-6.783652,0.057428,40.25,-95.830002,52.779999,1729424629179.0,0.0
-2.517249,-6.221339,-3.964907,-1.54,-130.970001,57.049999,1729424629207.0,0.0
-4.843073,-12.181859,-8.927622,-39.200001,-97.230003,61.529999,1729424629221.0,0.0
-6.683154,-15.196816,-12.629318,-120.82,-7.42,15.12,1729424629238.0,0.0
-10.616954,-13.35913,-13.804193,-129.149994,83.019997,14.49,1729424629261.0,0.0
-12.937992,-11.184053,-10.858629,-35.630001,126.0,18.129999,1729424629279.0,0.0
-8.087741,-11.507084,-9.24108,130.130005,36.400002,35.490002,1729424629301.0,0.0
-3.002992,-8.571091,-11.949757,215.180008,-15.68,15.47,1729424629321.0,0.0
-1.007378,-9.674182,-12.382857,223.020004,73.919998,-2.1,1729424629339.0,0.0
-0.942772,-7.566105,-6.367301,175.279999,179.759995,-21.139999,1729424629360.0,0.0
-2.562713,-2.794817,6.501299,152.039993,203.070007,-3.92,1729424629382.0,0.0
-3.294917,3.072384,6.776474,141.889999,133.210007,27.65,1729424629400.0,0.0
-2.557927,3.213561,10.150353,122.57,-42.07,36.75,1729424629421.0,0.0
-4.163511,-2.70389,9.829715,12.67,-45.43,75.25,1729424629440.0,0.0
-3.014957,-10.298709,2.139183,-49.490002,-133.210007,78.82,1729424629460.0,0.0
-1.536192,-14.141582,-6.888937,-83.860001,-205.029999,47.25,1729424629481.0,0.0
-3.024528,-16.496119,-15.950556,-104.650002,-136.639999,34.93,1729424629501.0,0.0
-6.283553,-16.271194,-19.034904,-141.680008,49.0,8.47,1729424629520.0,0.0
-12.442677,-14.301902,-5.261817,-77.559998,220.710007,6.72,1729424629539.0,0.0
-14.007583,-16.867006,-6.628119,145.110001,162.259995,35.139999,1729424629560.0,0.0
-6.477371,-13.339987,-7.805387,319.339996,-7.35,-4.34,1729424629581.0,0.0
-2.572284,-10.9352,-4.472186,382.339996,7.77,-15.47,1729424629601.0,0.0
-1.167697,-1.708475,3.921836,332.079987,78.75,-47.389999,1729424629620.0,0.0
-2.823531,9.116654,11.85165,305.269989,98.629997,0.77,1729424629639.0,0.0
-4.589434,9.487542,11.60519,273.420013,-12.95,78.75,1729424629660.0,0.0
-5.146961,3.54377,9.62154,43.189999,-50.470001,60.130001,1729424629686.0,0.0
-4.469792,-4.723432,3.017349,-114.940002,-57.119999,66.779999,1729424629703.0,0.0
-1.414158,-13.921442,-4.331009,-169.399994,-129.430008,75.389999,1729424629720.0,0.0
-0.502493,-12.782458,-10.016356,-222.040009,-146.020004,77.139999,1729424629741.0,0.0
-4.058227,-13.138988,-12.358929,-173.740005,16.030001,51.52,1729424629761.0,0.0
-11.241481,-17.804993,-5.62074,-87.709999,193.830002,9.31,1729424629780.0,0.0
-18.013168,-19.046867,-1.043271,27.790001,192.360001,-12.11,1729424629803.0,0.0
-11.306087,-15.287744,-3.716053,223.369995,2.87,-4.69,1729424629821.0,0.0
-5.113462,-11.31805,-4.328616,280.769989,-34.09,-45.009998,1729424629840.0,0.0
-2.825923,-7.829315,-0.354138,242.479996,20.51,-69.370003,1729424629860.0,0.0
-2.964707,-5.776274,2.909672,188.930008,70.629997,-87.5,1729424629881.0,0.0
-4.386044,-1.330409,10.41835,89.669998,80.080002,-92.610001,1729424629902.0,0.0
-5.458029,5.831308,9.614362,33.459999,44.66,-34.720001,1729424629921.0,0.0
-5.185246,5.816952,8.444271,101.220001,-63.490002,49.98,1729424629940.0,0.0
-3.086741,2.213361,5.558527,84.139999,-113.610001,45.709999,1729424629961.0,0.0
-1.933401,-4.197011,3.558127,57.959999,-122.220001,62.790001,1729424629981.0,0.0
-2.371287,-14.553147,2.088934,67.690002,-112.840004,98.419998,1729424630004.0,0.0
-2.667997,-12.952348,0.239282,28.77,-82.809998,75.459999,1729424630023.0,0.0
-4.938786,-9.190832,4.015156,25.34,-7.14,82.110001,1729424630041.0,0.0
-8.279166,-10.377672,2.45025,-42.349998,22.120001,74.620003,1729424630060.0,0.0
-9.958927,-15.828522,0.521635,-99.75,21.49,1.26,1729424630080.0,0.0
-10.413565,-18.300308,2.667997,-80.5,17.360001,-63.84,1729424630102.0,0.0
-8.925228,-12.660425,5.058427,23.379999,29.75,-61.459999,1729424630122.0,0.0
-7.628319,-8.556733,3.330809,102.410004,39.970001,-62.02,1729424630143.0,0.0
-6.273981,-8.496914,3.029313,106.610001,52.5,-124.599998,1729424630163.0,0.0
-5.362316,-8.039884,3.359523,84.07,51.380001,-131.880005,1729424630181.0,0.0
-4.534399,-3.677768,7.606783,65.169998,48.860001,-107.520004,1729424630207.0,0.0
-3.235096,5.871986,10.167104,39.759998,36.119999,-55.16,1729424630222.0,0.0
-2.756532,5.821737,8.709875,89.669998,-24.57,17.01,1729424630242.0,0.0
-1.464408,1.521835,5.668597,39.200001,-65.029999,3.71,1729424630262.0,0.0
-0.803988,-4.4674,4.012764,-13.3,-63.279999,21.49,1729424630282.0,0.0
-1.117448,-11.059627,3.541377,-20.02,-50.400002,57.959999,1729424630303.0,0.0
-2.385644,-13.564911,5.24746,-29.120001,-45.920002,68.389999,1729424630322.0,0.0
-4.254438,-11.069198,4.917251,-11.69,-30.59,50.330002,1729424630342.0,0.0
-5.52742,-10.559525,2.273181,-21.139999,-37.029999,59.849998,1729424630362.0,0.0
-5.692525,-12.014362,0.928415,-49.490002,-52.360001,37.450001,1729424630381.0,0.0
-5.85763,-10.387242,-0.528814,-98.419998,-25.41,-4.41,1729424630409.0,0.0
-7.322037,-10.272388,0.411566,-83.93,36.470001,-12.95,1729424630421.0,0.0
-7.039684,-10.655239,4.802395,-68.529999,57.82,-45.080002,1729424630441.0,0.0
-5.883951,-9.576077,6.817152,-118.720001,53.060001,-69.580002,1729424630462.0,0.0
-5.453243,-6.623333,5.520242,-187.809998,71.050003,-89.110001,1729424630482.0,0.0
-5.656632,-6.171089,3.924229,-196.139999,75.669998,-88.199997,1729424630503.0,0.0
-4.771288,-6.711867,3.67059,-215.110001,49.349998,-83.93,1729424630522.0,0.0
-3.878766,-8.157133,5.484349,-207.479996,21.77,-72.730003,1729424630541.0,0.0
-3.113062,-8.853443,4.096512,-189.210007,-0.49,-59.709999,1729424630561.0,0.0
-2.916851,-7.348359,1.646262,-205.380005,-11.2,-59.360001,1729424630583.0,0.0
-3.431308,-7.613962,-1.658226,-248.220001,-4.9,-65.169998,1729424630604.0,0.0
-3.309274,-8.956335,-3.644269,-307.860016,-6.79,-76.720001,1729424630621.0,0.0
-2.18704,-9.269794,-4.173083,-352.660004,-23.030001,-84.699997,1729424630643.0,0.0
1.150948,-3.84048,-5.465207,-413.559998,-44.939999,-97.650002,1729424630663.0,0.0
1.179662,-3.242275,-6.460621,-407.26001,-47.670002,-81.480003,1729424630683.0,0.0
-1.036092,-8.133204,-9.174082,-283.640015,-11.06,-67.269997,1729424630704.0,0.0
-2.723032,-6.991827,-7.80778,-192.919998,22.889999,-74.970001,1729424630722.0,0.0
-3.802195,-3.957729,-9.047262,-143.570007,16.24,-42.279999,1729424630743.0,0.0
-2.258825,-5.735595,-10.016356,-122.080002,-36.75,-30.870001,1729424630763.0,0.0
0.818345,-8.317451,-11.382657,-179.690002,-24.5,-51.240002,1729424630781.0,0.0
0.179462,-10.033106,-10.336994,-165.479996,20.790001,-36.889999,1729424630803.0,0.0
-0.988236,-13.127025,-11.370694,-23.379999,47.880001,-29.889999,1729424630823.0,0.0
-0.636491,-13.596018,-8.480164,153.300003,43.889999,-19.530001,1729424630841.0,0.0
0.354138,-9.272188,-4.21376,306.179993,29.26,-14.07,1729424630861.0,0.0
-0.447458,-6.008378,-3.290131,450.029999,23.309999,6.86,1729424630882.0,0.0
-2.050649,-6.479764,-4.048656,542.710022,19.25,18.549999,1729424630903.0,0.0
-2.062613,-4.912465,-6.388836,595.700012,0.98,36.049999,1729424630922.0,0.0
-1.385444,0.09332,-7.185646,695.380005,-35.349998,105.279999,1729424630943.0,0.0
-0.306281,-9.734003,4.254438,745.220032,-47.670002,93.940002,1729424630961.0,0.0
0.837488,-8.066205,3.416951,436.869995,16.940001,12.88,1729424630983.0,0.0
-2.45025,-9.107083,2.440679,103.809998,56.630001,-8.12,1729424631005.0,0.0
-1.892723,-10.705488,1.95015,-6.79,-3.85,-1.89,1729424631022.0,0.0
-1.148555,-13.198811,0.859023,55.299999,-47.599998,14.35,1729424631041.0,0.0
-1.744368,-12.193825,2.208575,102.690002,-20.370001,4.2,1729424631062.0,0.0
-3.991228,-9.504292,2.658426,65.590004,32.130001,4.06,1729424631081.0,0.0
-5.520242,-8.453842,5.07757,-13.440001,50.68,-19.25,1729424631104.0,0.0
-5.65424,-9.004191,5.079963,-88.760002,42.349998,-54.389999,1729424631124.0,0.0
-5.065606,-11.535798,3.981657,-77.279999,27.51,-71.470001,1729424631141.0,0.0
-4.04387,-11.078769,3.859623,13.58,28.91,-69.860001,1729424631161.0,0.0
-2.342573,-6.051448,6.005985,130.479996,45.43,-47.25,1729424631181.0,0.0
0.160319,0.124427,7.862815,183.050003,32.130001,-22.610001,1729424631208.0,0.0
2.852244,2.510071,7.355537,191.309998,-11.27,5.95,1729424631221.0,0.0
4.185047,-1.57687,9.480364,123.620003,-22.33,38.990002,1729424631242.0,0.0
4.108476,-5.091926,8.688338,-30.59,-5.25,63.560001,1729424631262.0,0.0
3.081956,-10.526026,6.525227,-107.590004,-57.330002,84.629997,1729424631281.0,0.0
1.143769,-12.346965,1.914258,-183.470001,-88.690002,73.150002,1729424631305.0,0.0
-1.51705,-9.626326,-5.71406,-274.049988,-65.730003,46.41,1729424631321.0,0.0
-7.886744,-22.698315,-3.768696,-136.360001,46.34,3.43,1729424631341.0,0.0
-9.848858,-18.022739,0.514457,-42.91,110.599998,-77.349998,1729424631361.0,0.0
-7.573284,-14.426328,0.485743,119.419998,62.580002,-17.780001,1729424631382.0,0.0
-2.694318,-10.389636,0.70349,125.090004,37.450001,-96.599998,1729424631403.0,0.0
-1.191626,-7.073184,4.668397,114.169998,75.25,-106.610001,1729424631422.0,0.0
-2.337788,-1.579263,13.49552,88.410004,106.610001,-86.169998,1729424631442.0,0.0
-1.725225,5.788238,13.722836,115.150002,35.279999,-23.59,1729424631461.0,0.0
0.787239,6.348158,10.959127,152.529999,-83.160004,34.16,1729424631481.0,0.0
1.086342,0.055035,11.014162,90.93,-97.160004,54.740002,1729424631503.0,0.0
0.050249,-6.817152,4.197011,-15.12,-87.57,91.0,1729424631521.0,0.0
-0.18664,-14.242079,0.138784,-94.779999,-111.440002,105.0,1729424631543.0,0.0
0.401994,-15.084354,-4.297509,-218.680008,-75.949997,61.18,1729424631561.0,0.0
-2.124826,-14.364115,-4.242475,-199.080002,16.59,14.56,1729424631581.0,0.0
-7.822137,-19.910677,0.660419,-26.530001,100.660004,-16.309999,1729424631603.0,0.0
-8.243275,-14.364115,3.921836,78.540001,107.449997,-42.139999,1729424631622.0,0.0
-5.599205,-13.208381,3.814159,190.539993,61.040001,-44.380001,1729424631641.0,0.0
-1.775474,-10.411172,4.386044,172.830002,51.170002,-128.589996,1729424631661.0,0.0
-1.665405,0.394816,9.439686,124.879997,96.040001,-89.110001,1729424631682.0,0.0
-0.734596,9.375079,12.413965,161.210007,56.630001,-23.52,1729424631702.0,0.0
0.502493,10.449455,11.444871,185.570007,-35.560001,50.959999,1729424631722.0,0.0
0.306281,1.179662,8.394022,82.389999,-57.470001,82.739998,1729424631741.0,0.0
-0.61017,-9.80818,3.270989,-56.630001,-45.080002,111.650002,1729424631761.0,0.0
1.442872,-17.553747,-1.308874,-210.0,-69.019997,89.18,1729424631781.0,0.0
2.273181,-20.506491,-3.515057,-309.190002,-43.540001,48.509998,1729424631802.0,0.0
-2.907279,-17.764317,0.770489,-205.800003,66.709999,-0.07,1729424631821.0,0.0
-7.65464,-16.58226,5.395815,-57.610001,108.150002,-18.27,1729424631842.0,0.0
-6.448657,-12.646068,5.783452,-8.47,60.130001,-39.27,1729424631864.0,0.0
-3.718446,-10.609775,5.443672,-9.45,31.710001,-76.790001,1729424631881.0,0.0
-2.435893,-9.437292,4.39083,-55.790001,33.810001,-107.520004,1729424631905.0,0.0
-2.744568,-7.077969,4.242475,-124.599998,54.670002,-118.230003,1729424631921.0,0.0
-2.163112,-0.758525,9.700503,-156.660004,54.529999,-102.550003,1729424631940.0,0.0
-2.041078,2.39043,11.854043,-84.769997,-10.5,-23.379999,1729424631961.0,0.0
-1.753939,-1.347159,6.953543,-55.23,-95.970001,3.78,1729424631980.0,0.0
-0.545564,-7.02772,2.85703,-211.960007,-122.57,-23.66,1729424632004.0,0.0
0.425922,-10.229317,0.401994,-424.059998,-120.540001,-14.35,1729424632021.0,0.0
1.957329,-8.992228,-5.962914,-501.410004,-150.850006,-40.459999,1729424632040.0,0.0
3.364309,-2.87378,-12.265609,-512.75,-153.649994,-50.68,1729424632062.0,0.0
3.524628,1.026521,-13.354343,-532.559998,-92.75,-9.24,1729424632081.0,0.0
0.631705,-3.148954,-13.416556,-535.640015,13.58,28.280001,1729424632102.0,0.0
-5.067998,-17.924635,-11.057234,-488.529999,74.550003,-11.13,1729424632121.0,0.0
-2.646462,-18.597017,-11.47119,-394.869995,46.41,-89.809998,1729424632141.0,0.0
-2.804388,-8.413164,-11.923435,-49.77,18.690001,3.5,1729424632160.0,0.0
-1.835295,-1.473979,-12.021541,76.650002,-14.21,12.6,1729424632182.0,0.0
-1.064806,-0.619741,-9.054441,-6.3,30.309999,2.52,1729424632206.0,0.0
-1.567299,-8.9683,-6.329016,-71.68,53.619999,7.7,1729424632221.0,0.0
0.887737,-11.665009,-2.486143,-78.959999,25.690001,-14.56,1729424632241.0,0.0
2.17029,-10.683953,-0.528814,-17.360001,8.4,-13.23,1729424632261.0,0.0
2.959922,-7.575676,-3.878766,78.610001,-29.26,-17.01,1729424632281.0,0.0
4.034299,-5.115855,-8.200203,131.110001,-55.299999,-18.620001,1729424632301.0,0.0
2.428715,-4.216154,-10.229317,140.070007,-46.130001,-11.48,1729424632321.0,0.0
2.366502,-2.945565,-11.550155,136.710007,-52.009998,-13.3,1729424632340.0,0.0
1.411765,-2.316252,-15.634703,114.449997,-61.880001,-5.81,1729424632361.0,0.0
-1.301696,-2.232504,-14.045869,53.060001,19.18,12.18,1729424632383.0,0.0
-3.802195,-6.585048,-12.937992,39.060001,84.910004,40.670002,1729424632405.0,0.0
-4.012764,-14.672788,-10.293922,87.57,104.720001,30.309999,1729424632421.0,0.0
-2.567499,-13.021741,-8.532805,113.260002,110.110001,0.28,1729424632441.0,0.0
-4.455436,-9.865608,-4.161119,163.029999,120.610001,33.950001,1729424632460.0,0.0
-3.775874,-2.964707,3.634698,120.330002,96.25,12.11,1729424632481.0,0.0
-1.57687,-2.18704,8.219346,52.779999,28.280001,16.17,1729424632502.0,0.0
4.773681,-5.328816,3.878766,-32.27,-76.93,-6.86,1729424632521.0,0.0
8.755339,-7.893922,-3.151347,-113.889999,-125.300003,-32.900002,1729424632542.0,0.0
3.598805,-8.355737,-10.530812,-164.919998,-72.940002,-16.73,1729424632561.0,0.0
2.706282,-6.625726,-14.153545,-143.220001,-69.370003,-32.759998,1729424632580.0,0.0
3.89073,-2.213361,-14.976677,-157.080002,-88.970001,-33.950001,1729424632612.0,0.0
1.160519,-2.158326,-9.614362,-235.270004,-19.530001,-19.67,1729424632621.0,0.0
-1.698904,-3.854837,-13.019348,-250.529999,22.82,-23.379999,1729424632640.0,0.0
-5.65424,-7.692925,-10.748559,-161.770004,58.939999,11.97,1729424632662.0,0.0
-3.806981,-9.188439,-10.559525,-51.170002,66.709999,14.07,1729424632682.0,0.0
-1.663012,-3.225525,-9.609575,71.68,4.76,23.1,1729424632702.0,0.0
-2.132005,-5.108676,-5.307281,-1.61,43.610001,21.84,1729424632722.0,0.0
-2.055435,-8.355737,-4.359723,-45.709999,45.150002,8.4,1729424632747.0,0.0
0.744168,-7.123433,-2.737389,-20.719999,1.96,-5.74,1729424632762.0,0.0
3.818945,-7.458428,-3.996014,27.16,-44.310001,-12.6,1729424632780.0,0.0
5.118248,-6.955935,-7.156933,69.300003,-69.440002,-32.130001,1729424632805.0,0.0
2.306681,-4.713861,-6.996613,91.349998,-46.41,-17.639999,1729424632820.0,0.0
4.015156,-3.701697,-10.49492,162.119995,-84.0,9.66,1729424632841.0,0.0
4.414758,-4.821537,-13.718053,237.020004,-100.870003,24.5,1729424632862.0,0.0
1.591227,-2.598605,-13.445271,289.450012,-26.67,56.279999,1729424632880.0,0.0
-3.239882,-6.400801,-10.19821,326.549988,67.410004,93.800003,1729424632914.0,0.0
-5.948557,-11.600404,-3.9338,207.199997,137.830002,67.059998,1729424632921.0,0.0
-5.977271,-14.333008,-8.628519,153.509995,114.239998,57.400002,1729424632941.0,0.0
-5.362316,-17.012968,-11.050055,317.309998,46.549999,44.73,1729424632962.0,0.0
-1.337588,-6.551548,-5.094319,429.170013,18.34,23.870001,1729424632982.0,0.0
-0.61017,-1.816152,4.402793,456.330017,79.590004,31.08,1729424633004.0,0.0
-0.854238,-0.808774,9.250652,376.110016,73.360001,33.25,1729424633021.0,0.0
-0.442672,-0.875773,11.274981,230.930008,-9.17,20.58,1729424633043.0,0.0
0.009571,-4.532006,7.592427,15.47,-47.810001,33.670002,1729424633072.0,0.0
2.63689,-7.767102,3.948158,-185.639999,-94.779999,42.420002,1729424633082.0,0.0
4.37408,-8.595018,-4.024727,-293.579987,-133.210007,39.34,1729424633104.0,0.0
2.696711,-10.368099,-11.157731,-302.820007,-100.309998,35.0,1729424633123.0,0.0
0.449851,-14.663218,-10.090532,-275.309998,-11.34,22.33,1729424633142.0,0.0
-4.85743,-20.145176,-4.969893,-217.979996,120.889999,4.27,1729424633163.0,0.0
-9.253045,-20.566309,-7.300502,-75.599998,174.720001,-49.630001,1729424633183.0,0.0
-9.954143,-13.514663,-7.365108,96.739998,121.449997,-29.190001,1729424633207.0,0.0
-5.974878,-8.599805,-1.540978,171.570007,49.77,-35.490002,1729424633223.0,0.0
-2.54357,-1.270589,8.367701,133.699997,12.53,-35.700001,1729424633242.0,0.0
-0.72024,3.440879,5.508278,115.220001,-14.35,9.52,1729424633263.0,0.0
1.95015,1.899901,7.166504,63.349998,-69.790001,20.860001,1729424633282.0,0.0
2.139183,-4.716253,5.563312,-141.889999,-111.370003,65.309998,1729424633305.0,0.0
1.196411,-11.60519,-4.37408,-258.089996,-153.860001,68.809998,1729424633322.0,0.0
2.519642,-14.431112,-17.697317,-344.890015,-165.339996,20.719999,1729424633342.0,0.0
2.498107,-14.735002,-20.068604,-300.019989,-84.840004,10.08,1729424633362.0,0.0
-1.804188,-12.710674,-13.703696,-191.309998,93.730003,23.030001,1729424633381.0,0.0
-6.56112,-16.546368,-12.942777,-0.91,183.889999,12.81,1729424633473.0,0.0
-8.025528,-13.703696,-11.432907,118.650002,166.320007,-5.39,1729424633488.0,0.0
-5.276174,-12.677175,-5.462814,226.940002,82.459999,-4.97,1729424633493.0,0.0
-2.423929,-4.290331,7.336394,171.5,55.23,-41.299999,1729424633497.0,0.0
-3.333202,1.569692,12.658032,121.940002,58.66,-20.299999,1729424633502.0,0.0
-3.364309,2.163112,8.989835,78.540001,-31.08,5.53,1729424633512.0,0.0
-1.612763,1.040878,9.001799,-33.110001,-86.449997,9.1,1729424633522.0,0.0
-0.308674,-5.156533,1.064806,-99.470001,-138.25,46.549999,1729424633681.0,0.0
2.481357,-16.25205,-8.939585,-157.430008,-198.729996,40.599998,1729424633682.0,0.0
3.694518,-14.541183,-17.414963,-273.350006,-160.440002,7.77,1729424633686.0,0.0
-0.428315,-12.636496,-16.615761,-224.559998,-14.91,21.559999,1729424633687.0,0.0
-7.087541,-9.74836,-11.253445,-145.600006,110.040001,8.75,1729424633688.0,0.0
-8.221739,-11.538191,-12.174682,-24.710001,114.309998,19.809999,1729424633689.0,0.0
-3.929015,-12.356536,-12.495319,151.619995,42.91,14.84,1729424633693.0,0.0
0.646062,-9.056834,-10.719845,222.740005,27.65,10.57,1729424633695.0,0.0
1.158126,-6.118448,-1.957329,188.089996,108.220001,-12.53,1729424633707.0,0.0
-2.24686,-1.663012,7.348359,35.209999,168.770004,-29.469999,1729424633727.0,0.0
-5.426922,-0.629312,10.262815,-56.07,98.0,10.64,1729424633742.0,0.0
-3.393023,-4.130012,6.565905,-77.279999,-32.060001,9.1,1729424633762.0,0.0
-0.416351,-3.282953,6.393622,-96.879997,-99.400002,0.28,1729424633781.0,0.0
0.354138,-3.845266,2.478964,-86.379997,-160.860001,29.889999,1729424633802.0,0.0
0.914058,-5.678168,-4.692325,-136.570007,-196.279999,28.280001,1729424633824.0,0.0
0.485743,-5.766702,-12.026326,-267.890015,-192.639999,17.01,1729424633842.0,0.0
-2.761317,-5.915058,-17.974882,-357.48999,-122.919998,8.19,1729424633863.0,0.0
-8.255238,-4.333402,-26.565117,-366.869995,19.74,17.92,1729424633883.0,0.0
-13.624733,-13.701303,-19.465612,-117.599998,139.089996,21.280001,1729424633903.0,0.0
-1.591227,-11.971292,-14.813965,283.640015,-74.830002,80.989998,1729424633926.0,0.0
3.689733,-7.305287,-11.897114,312.130005,-17.219999,29.120001,1729424633943.0,0.0
1.356731,-3.629912,-4.510471,159.320007,152.669998,-1.61,1729424633963.0,0.0
-4.445865,-5.130211,5.058427,44.799999,178.779999,21.49,1729424633983.0,0.0
-6.484549,-6.142376,10.944772,-17.219999,92.610001,15.96,1729424634005.0,0.0
-4.584648,-6.551548,5.431707,-2.8,-38.43,2.38,1729424634023.0,0.0
-2.158326,-4.914857,3.632305,1.4,-131.600006,-20.370001,1729424634044.0,0.0
-0.66999,-5.24746,-0.22014,-19.879999,-171.220001,-6.3,1729424634064.0,0.0
0.430708,-2.868994,-5.130211,-66.849998,-202.860001,4.2,1729424634084.0,0.0
-1.459622,-3.814159,-11.119448,-156.309998,-187.529999,7.91,1729424634106.0,0.0
-4.039084,-6.563512,-19.61636,-312.269989,-95.199997,-18.34,1729424634149.0,0.0
-7.034898,-9.738789,-24.469006,-328.720001,4.62,-16.24,1729424634157.0,0.0
-10.41835,-14.888142,-16.161125,-141.610001,76.090004,-22.33,1729424634188.0,0.0
-4.718646,-6.422336,-14.08894,79.590004,5.46,3.78,1729424634191.0,0.0
0.940379,1.11027,-11.095518,220.779999,-56.139999,14.77,1729424634304.0,0.0
-2.021935,-0.993021,-9.140583,30.940001,133.419998,7.77,1729424634306.0,0.0
-4.244867,-7.49432,-6.979864,-82.809998,138.320007,1.12,1729424634307.0,0.0
-4.524827,-12.614961,0.368495,-94.639999,90.650002,-15.47,1729424634308.0,0.0
-3.739982,-9.288938,6.546762,-122.290001,37.310001,-60.27,1729424634309.0,0.0
-4.242475,-5.087141,4.558327,-97.019997,-28.35,-71.400002,1729424634310.0,0.0
-5.192425,-4.350152,0.650848,-1.47,-88.970001,-67.199997,1729424634323.0,0.0
-3.689733,-4.141976,-6.405586,52.009998,-132.789993,-73.919998,1729424634343.0,0.0
-1.794617,-7.829315,-10.207782,60.060001,-180.320007,-58.799999,1729424634366.0,0.0
-0.985843,-4.699504,-12.351749,-70.279999,-156.589996,-59.080002,1729424634382.0,0.0
-3.878766,-3.376273,-12.612568,-177.240005,-61.18,-36.540001,1729424634403.0,0.0
-7.171289,-1.287339,-18.735802,-224.699997,9.03,-18.48,1729424634423.0,0.0
-9.456435,-6.309873,-21.626329,-54.529999,53.27,24.08,1729424634444.0,0.0
-5.730811,-8.145168,-12.14836,86.239998,42.560001,46.549999,1729424634462.0,0.0
0.418744,-6.26441,-10.817951,66.080002,-6.09,50.259998,1729424634483.0,0.0
1.76351,-5.185246,-8.013563,59.290001,58.66,41.93,1729424634505.0,0.0
-1.603191,-2.85703,-5.955735,69.019997,145.880005,33.040001,1729424634524.0,0.0
-4.802395,-8.465806,3.266203,40.529999,125.020004,44.73,1729424634544.0,0.0
-2.732604,-13.079168,5.465207,-35.91,1.75,-3.01,1729424634563.0,0.0
-1.495514,-10.392029,-1.421337,1.54,-70.0,-61.32,1729424634585.0,0.0
-2.313859,-6.357729,-6.355337,92.959999,-104.440002,-90.510002,1729424634608.0,0.0
-3.259024,-4.082155,-8.30788,116.270004,-117.110001,-86.379997,1729424634623.0,0.0
-2.723032,-5.927022,-11.921042,38.150002,-164.639999,-92.889999,1729424634645.0,0.0
-1.871187,2.818745,-13.201202,-193.830002,-148.399994,-106.889999,1729424634665.0,0.0
-5.60399,0.904487,-19.350756,-222.529999,-23.030001,-31.99,1729424634686.0,0.0
-9.052048,0.588634,-22.669601,-78.889999,100.940002,1.47,1729424634705.0,0.0
-8.85823,-6.23091,-10.750952,170.100006,85.330002,93.660004,1729424634727.0,0.0
-1.325624,-1.713261,-15.850057,205.520004,12.25,113.75,1729424634744.0,0.0
0.492921,0.035892,-11.018949,276.640015,70.769997,130.479996,1729424634766.0,0.0
-4.017549,0.275175,-1.85683,187.529999,216.229996,116.199997,1729424634790.0,0.0
-8.214561,-9.554541,0.78006,-22.4,221.130005,91.139999,1729424634803.0,0.0
-5.606383,-16.618155,7.068398,-117.669998,112.489998,36.540001,1729424634823.0,0.0
-1.804188,-11.246266,5.929415,-97.440002,-24.99,36.540001,1729424634844.0,0.0
-0.79681,-8.549555,-1.275374,30.24,-121.239998,-54.599998,1729424634863.0,0.0
-2.196611,-5.345565,-0.418744,20.58,-130.270004,-88.830002,1729424634883.0,0.0
-2.160719,-7.089933,-7.403394,-71.330002,-175.139999,-80.150002,1729424634905.0,0.0
-0.868595,-7.042077,-11.837293,-148.330002,-204.889999,-107.590004,1729424634925.0,0.0
-4.809574,-0.57667,-10.147961,-205.449997,-79.590004,-72.239998,1729424634943.0,0.0
-11.734402,-1.677369,-23.990438,-100.379997,41.439999,-0.21,1729424634964.0,0.0
-11.971292,-5.568098,-20.726629,76.93,82.949997,25.34,1729424634985.0,0.0
-4.890929,-6.415157,-16.25923,228.970001,2.38,88.550003,1729424635007.0,0.0
1.378266,-1.09352,-11.74158,221.130005,3.57,72.519997,1729424635025.0,0.0
0.574277,-0.236889,-8.52802,162.539993,132.649994,73.919998,1729424635044.0,0.0
-3.756732,-9.300901,-5.836094,107.449997,209.789993,70.349998,1729424635064.0,0.0
-4.424329,-11.9689,5.020142,1.4,189.419998,29.68,1729424635084.0,0.0
-8.157133,-9.162118,13.596018,-4.34,77.769997,22.469999,1729424635105.0,0.0
-5.783452,-9.382257,1.167697,85.68,-58.939999,-22.049999,1729424635126.0,0.0
-3.759124,-9.822537,-0.993021,157.009995,-126.279999,-56.490002,1729424635145.0,0.0
-1.859223,-10.578669,-6.108876,216.089996,-159.460007,-42.630001,1729424635166.0,0.0
0.311067,-6.211767,-9.97807,94.989998,-165.830002,-42.349998,1729424635185.0,0.0
-1.694118,-4.015156,-12.784851,-92.540001,-41.720001,-22.610001,1729424635212.0,0.0
-5.458029,-4.658825,-12.921242,-152.460007,95.129997,3.43,1729424635224.0,0.0
-8.79123,-8.872586,-8.937192,-35.0,162.539993,36.75,1729424635243.0,0.0
-8.042276,-11.751152,-8.659625,106.540001,117.459999,51.099998,1729424635266.0,0.0
-3.428915,-10.805987,-8.449057,192.149994,24.219999,45.220001,1729424635285.0,0.0
-0.052642,-5.465207,-0.284746,177.800003,42.84,31.99,1729424635311.0,0.0
-2.215754,-1.385444,10.767702,80.5,124.459999,37.029999,1729424635326.0,0.0
-6.101698,-4.292724,5.95095,-14.77,68.110001,36.259998,1729424635347.0,0.0
-5.74756,-6.312266,1.878366,-80.919998,-13.65,20.02,1729424635366.0,0.0
-2.785245,-9.296116,-1.411765,-78.959999,-106.190002,34.509998,1729424635386.0,0.0
0.287139,-7.867601,-12.916457,-80.5,-180.529999,9.1,1729424635407.0,0.0
0.715454,-9.24108,-22.131216,-68.949997,-159.389999,11.34,1729424635426.0,0.0
-2.675175,-9.169296,-18.903299,-93.660004,46.549999,15.33,1729424635448.0,0.0
-10.135997,-13.421343,-6.465407,-77.349998,210.699997,22.190001,1729424635466.0,0.0
-8.748159,-10.58824,-8.860621,39.830002,111.020004,9.94,1729424635485.0,0.0
-4.460221,-10.705488,-9.702895,182.490005,57.400002,14.21,1729424635511.0,0.0
-1.569692,-4.163511,4.771288,228.059998,77.07,12.39,1729424635526.0,0.0
-3.376273,1.526621,14.124832,224.979996,58.310001,42.700001,1729424635545.0,0.0
-5.469993,-0.320638,3.364309,118.860001,-34.369999,15.05,1729424635567.0,0.0
-6.788438,-2.684747,1.526621,-95.690002,-27.299999,-3.15,1729424635587.0,0.0
-3.897908,-10.320245,-3.713661,-170.100006,-101.010002,22.889999,1729424635608.0,0.0
0.81356,-10.576276,-9.525827,-211.960007,-209.789993,-15.96,1729424635632.0,0.0
2.462214,-12.32543,-21.068802,-159.389999,-180.25,-13.09,1729424635652.0,0.0
-1.847259,-10.851451,-16.802401,-126.910004,35.07,-7.84,1729424635666.0,0.0
-8.482556,-11.078769,-5.335995,-62.23,216.300003,8.19,1729424635689.0,0.0
-11.085947,-11.629118,-9.509077,23.870001,132.580002,14.0,1729424635711.0,0.0
-6.678369,-10.317852,-11.124231,144.970001,44.380001,-5.32,1729424635726.0,0.0
-2.713461,-6.829116,-1.569692,212.660004,64.470001,3.15,1729424635746.0,0.0
-2.651247,-1.002593,14.031512,225.119995,55.720001,23.799999,1729424635765.0,0.0
-3.787838,0.224925,3.907479,175.0,-11.41,27.370001,1729424635785.0,0.0
-4.199404,-4.62054,2.340181,49.91,-60.34,13.72,1729424635808.0,0.0
-1.643869,-9.068797,-2.639283,-143.990005,-138.460007,29.26,1729424635825.0,0.0
0.382852,-11.777473,-16.316658,-205.520004,-181.860001,0.84,1729424635845.0,0.0
-0.11007,-11.732009,-21.06641,-210.770004,-100.099998,-20.23,1729424635866.0,0.0
-6.489335,-9.913465,-14.187045,-141.75,135.589996,-7.07,1729424635885.0,0.0
-13.708481,-15.110674,-13.050454,-16.450001,234.009995,7.56,1729424635907.0,0.0
-8.298308,-12.016755,-11.995219,105.980003,103.809998,-0.35,1729424635927.0,0.0
-1.473979,-9.226725,-10.210175,258.929993,16.1,5.6,1729424635946.0,0.0
0.478565,-1.588834,3.976871,294.630005,111.93,-14.0,1729424635965.0,0.0
-4.699504,4.225725,15.072391,308.700012,164.919998,21.49,1729424635985.0,0.0
-7.106683,4.740182,10.468598,273.630005,14.84,58.869999,1729424636007.0,0.0
-4.524827,1.631905,9.102298,114.940002,-106.68,45.080002,1729424636026.0,0.0
-2.572284,-6.283553,3.024528,-66.43,-150.639999,51.170002,1729424636046.0,0.0
-1.275374,-16.170694,-4.677969,-198.729996,-191.029999,34.439999,1729424636065.0,0.0
-0.55992,-18.726231,-17.749958,-294.140015,-203.699997,-15.05,1729424636087.0,0.0
-1.588834,-12.926028,-17.848064,-346.570007,-79.800003,-50.049999,1729424636107.0,0.0
-6.022735,-8.633304,-9.305687,-313.529999,76.440002,-52.57,1729424636126.0,0.0
-10.966305,-13.988441,-7.314859,-162.820007,127.959999,-73.010002,1729424636145.0,0.0
-6.678369,-12.969098,-6.496514,55.720001,11.06,-65.099998,1729424636166.0,0.0
-1.957329,-8.013563,-4.780859,96.25,-50.959999,-78.959999,1729424636187.0,0.0
-0.988236,-3.756732,-2.376073,28.07,-4.9,-79.590004,1729424636224.0,0.0
-2.258825,-1.107877,-1.225125,-104.160004,30.24,-81.269997,1729424636239.0,0.0
-3.826123,-1.777867,-0.129212,-238.699997,25.969999,-72.169998,1729424636244.0,0.0
-3.756732,-5.565705,-0.61017,-296.519989,-13.86,-72.519997,1729424636265.0,0.0
-2.136791,-7.412964,-2.57707,-292.670013,-53.760002,-87.43,1729424636287.0,0.0
-1.543371,-6.45105,-2.617748,-233.940002,-70.209999,-84.840004,1729424636306.0,0.0
-1.399801,-7.929814,-10.703095,-188.930008,-79.730003,-81.690002,1729424636325.0,0.0
1.009771,-3.108276,-15.780666,-142.309998,-88.199997,-68.669998,1729424636346.0,0.0
0.009571,-1.261017,-13.660624,-83.230003,-47.740002,-15.190001,1729424636366.0,0.0
-2.443072,-2.146362,-12.504892,-42.84,1.05,-4.48,1729424636386.0,0.0
-4.156333,-3.04367,-11.550155,2.45,33.880001,14.07,1729424636407.0,0.0
-5.513064,-5.635098,-10.016356,78.330002,62.23,33.670002,1729424636425.0,0.0
-5.245068,-8.755339,-8.618947,99.330002,83.790001,9.03,1729424636445.0,0.0
-5.919843,-6.881758,-7.788638,106.400002,71.610001,52.57,1729424636466.0,0.0
-1.624727,-3.227918,-3.515057,83.720001,44.799999,27.93,1729424636485.0,0.0
-1.232304,-6.04427,2.586641,20.02,25.620001,43.049999,1729424636507.0,0.0
3.48395,-7.444071,-0.744168,-34.580002,-29.960001,21.91,1729424636525.0,0.0
6.228518,-8.374879,-6.805188,21.210001,-92.75,11.13,1729424636545.0,0.0
1.897508,-6.417551,-8.13799,61.25,-64.190002,25.200001,1729424636565.0,0.0
-0.849452,-3.352344,-9.600004,118.790001,-48.509998,45.5,1729424636585.0,0.0
-2.684747,-6.989435,-14.727824,206.710007,-74.340004,72.029999,1729424636607.0,0.0
-4.989035,-10.542776,-17.515463,266.910004,-24.08,58.240002,1729424636626.0,0.0
-9.020942,-5.13739,-13.296914,244.369995,86.730003,63.209999,1729424636645.0,0.0
-11.131411,-7.590034,-9.200402,243.740005,134.119995,83.370003,1729424636665.0,0.0
-7.018148,-9.540184,-5.271388,242.899994,77.699997,32.619999,1729424636685.0,0.0
-2.935993,-9.245867,-5.568098,297.640015,36.68,31.43,1729424636708.0,0.0
-0.880559,-6.915257,-3.115455,418.880005,31.360001,50.68,1729424636725.0,0.0
-0.069392,-0.744168,-1.773082,530.109985,48.09,71.330002,1729424636746.0,0.0
0.39003,5.206782,1.217947,567.140015,54.740002,105.489998,1729424636765.0,0.0
-0.698704,3.428915,9.265009,500.429993,74.410004,140.559998,1729424636785.0,0.0
-4.945964,0.677169,16.888542,279.160004,89.459999,135.100006,1729424636806.0,0.0
-8.690732,-11.906685,3.084348,-160.160004,12.95,108.010002,1729424636832.0,0.0
-8.379664,-18.539589,-4.027121,-420.0,-27.370001,37.66,1729424636845.0,0.0
-8.161918,-20.547167,-5.47717,-540.400024,-27.93,-20.23,1729424636866.0,0.0
-6.448657,-17.529818,-8.365308,-447.790009,-15.190001,-44.380001,1729424636888.0,0.0
-7.422535,-16.058231,-5.87438,-185.990005,22.889999,-58.029999,1729424636908.0,0.0
-7.398607,-12.344571,-4.139583,-18.27,83.160004,-87.220001,1729424636926.0,0.0
-5.800202,-9.891929,-4.285545,78.400002,73.5,-61.529999,1729424636946.0,0.0
-2.878566,-9.150154,-5.436492,119.770004,31.01,-59.5,1729424636966.0,0.0
-0.492921,-5.158926,1.031307,99.610001,41.16,-68.949997,1729424636986.0,0.0
-0.557528,-0.327817,8.997013,48.299999,85.68,-51.240002,1729424637007.0,0.0
-1.026521,5.656632,10.435099,-13.440001,43.470001,-14.07,1729424637026.0,0.0
-2.548356,5.108676,11.904292,-36.82,-50.400002,37.099998,1729424637045.0,0.0
-4.161119,0.81356,6.092126,-151.199997,-94.57,61.599998,1729424637068.0,0.0
-4.955536,-5.879165,-1.935793,-239.540009,-143.5,69.019997,1729424637086.0,0.0
-5.276174,-13.986048,-22.490139,-290.570007,-175.210007,25.83,1729424637108.0,0.0
-7.563712,-15.32603,-26.464619,-388.429993,-1.96,-20.719999,1729424637127.0,0.0
-13.899906,-16.74258,-16.376478,-236.529999,194.460007,-21.42,1729424637146.0,0.0
-12.14836,-15.292529,-11.145767,41.509998,161.070007,4.06,1729424637166.0,0.0
-6.553941,-8.652447,-12.212967,234.710007,49.560001,-8.96,1729424637187.0,0.0
-3.254239,-6.4343,-6.733403,307.790009,110.32,-21.35,1729424637212.0,0.0
-2.792424,-1.29691,6.939186,269.429993,138.25,-19.040001,1729424637229.0,0.0
-1.954936,8.245667,18.714266,182.490005,57.049999,-8.82,1729424637247.0,0.0
-2.347359,5.075177,9.856036,120.400002,-55.720001,25.27,1729424637270.0,0.0
-4.158726,2.672783,6.058627,-101.57,-76.790001,32.41,1729424637287.0,0.0
-4.905287,-6.623333,-1.706082,-190.259995,-121.029999,65.870003,1729424637312.0,0.0
-2.57707,-15.333207,-11.62194,-247.100006,-193.199997,10.78,1729424637329.0,0.0
-1.964507,-14.469398,-21.243477,-329.910004,-137.899994,-15.4,1729424637348.0,0.0
-5.364708,-15.002998,-20.169102,-202.089996,27.02,-8.82,1729424637369.0,0.0
-11.533404,-13.158132,-12.224932,-59.080002,184.240005,-5.46,1729424637388.0,0.0
-7.563712,-11.073983,-13.155738,144.899994,93.029999,13.58,1729424637412.0,0.0
-1.928615,-7.274181,-8.812766,206.990005,26.32,-25.059999,1729424637429.0,0.0
-1.902294,-3.249453,3.742374,171.570007,112.279999,-18.969999,1729424637447.0,0.0
-5.352744,4.273581,16.639688,86.239998,109.900002,-8.33,1729424637468.0,0.0
-6.539584,0.162712,7.582855,103.949997,-9.03,32.130001,1729424637488.0,0.0
-3.952943,0.631705,4.811966,-30.799999,-80.57,24.219999,1729424637510.0,0.0
-1.744368,-6.350551,1.074377,-97.93,-130.690002,58.59,1729424637528.0,0.0
-0.392423,-13.485948,-7.082755,-175.490005,-174.720001,35.139999,1729424637552.0,0.0
-1.292124,-16.101303,-17.48914,-245.699997,-141.259995,-13.23,1729424637567.0,0.0
-4.515256,-12.815958,-22.284357,-258.51001,-11.83,-39.830002,1729424637587.0,0.0
-10.025927,-9.669396,-16.3358,-160.089996,140.0,-56.279999,1729424637611.0,0.0
-13.591233,-15.598811,-12.760924,40.880001,133.490005,-43.189999,1729424637628.0,0.0
-6.534799,-11.533404,-11.081161,175.630005,9.8,-56.700001,1729424637650.0,0.0
-2.359323,-7.379465,-5.505885,244.580002,6.72,-69.510002,1729424637668.0,0.0
-2.024328,-2.510071,1.552942,208.880005,66.080002,-78.400002,1729424637687.0,0.0
-5.163712,0.411566,10.171888,114.590004,57.959999,-70.489998,1729424637708.0,0.0
-5.895915,-2.234896,4.534399,5.81,-34.23,-72.870003,1729424637728.0,0.0
-2.711068,-2.924029,2.723032,-121.730003,-107.870003,-77.279999,1729424637746.0,0.0
-0.090927,-4.843073,-1.794617,-178.919998,-176.610001,-45.990002,1729424637767.0,0.0
2.124826,-7.092326,-5.517848,-205.100006,-199.919998,-41.93,1729424637787.0,0.0
1.993221,-7.812566,-8.973085,-269.360016,-155.259995,-33.670002,1729424637809.0,0.0
-0.344566,-5.132604,-10.219746,-348.529999,-76.93,-37.029999,1729424637828.0,0.0
-3.101098,-1.548156,-12.263215,-409.360016,-17.780001,-27.719999,1729424637847.0,0.0
-5.058427,-2.505285,-18.125631,-410.619995,11.55,-32.48,1729424637867.0,0.0
-7.992027,-6.69751,-17.723637,-307.230011,50.75,8.68,1729424637887.0,0.0
-8.449057,-15.859629,-8.970692,-95.059998,66.709999,31.85,1729424637911.0,0.0
-4.106083,-7.587641,-10.04507,39.27,12.81,27.02,1729424637928.0,0.0
-2.926422,0.205783,-6.254838,106.120003,7.77,42.91,1729424637946.0,0.0
-3.900301,-2.615355,-5.264209,22.610001,37.170002,32.549999,1729424637968.0,0.0
-2.85703,-7.389036,-3.505485,-47.389999,24.92,6.3,1729424637988.0,0.0
-0.803988,-8.463413,-1.342373,-51.59,-1.47,5.6,1729424638010.0,0.0
0.473779,-9.097511,-5.515456,-5.46,-46.48,-4.62,1729424638028.0,0.0
0.784846,-8.327023,-10.662418,44.099998,-64.889999,-37.170002,1729424638047.0,0.0
-0.954736,-4.56072,-11.145767,73.57,-51.939999,-26.25,1729424638068.0,0.0
-3.206382,-0.409173,-11.4018,87.57,-51.939999,-9.8,1729424638088.0,0.0
-5.005785,0.239282,-11.633904,14.35,-26.950001,4.13,1729424638108.0,0.0
-7.367501,-1.454836,-14.268401,4.55,24.43,24.08,1729424638128.0,0.0
-8.85823,-4.393222,-12.911672,76.650002,84.629997,41.650002,1729424638147.0,0.0
-6.728617,-6.67119,-10.920842,182.630005,77.769997,48.02,1729424638166.0,0.0
-3.885944,-5.974878,-8.829515,205.729996,60.27,39.130001,1729424638187.0,0.0
-3.917051,-5.06082,-0.382852,158.059998,107.169998,28.49,1729424638213.0,0.0
-4.893322,-3.476771,7.319644,101.919998,79.519997,33.459999,1729424638227.0,0.0
-1.081556,-8.133204,6.233303,104.510002,-34.720001,39.130001,1729424638245.0,0.0
2.871387,-11.22473,-4.788038,144.479996,-130.759995,-3.01,1729424638267.0,0.0
0.509671,-5.938986,-7.479963,133.839996,-86.239998,9.94,1729424638288.0,0.0
-1.990828,-7.716853,-13.552947,223.509995,-51.450001,68.599998,1729424638310.0,0.0
-2.909672,-14.581861,-8.23131,295.119995,-93.379997,50.610001,1729424638327.0,0.0
-3.270989,-7.659425,-10.973484,160.789993,-20.93,16.379999,1729424638347.0,0.0
-8.070991,-8.700303,-11.574083,71.120003,86.940002,40.18,1729424638367.0,0.0
-10.207782,-9.858429,-10.183852,-18.76,167.720001,-3.15,1729424638387.0,0.0
-9.312866,-15.062819,-8.006385,134.75,123.270004,-4.2,1729424638468.0,0.0
-4.572684,-9.784252,-6.4678,430.220001,59.150002,-2.03,1729424638469.0,0.0
-3.615555,1.423729,1.600798,457.730011,95.970001,-0.21,1729424638469.0,0.0
-3.816552,12.06222,12.741781,424.200012,79.379997,47.740002,1729424638469.0,0.0
-2.009971,9.851252,13.507483,273.630005,-29.540001,91.769997,1729424638486.0,0.0
-0.746561,2.840281,5.017749,-48.93,-86.099998,80.639999,1729424638509.0,0.0
-2.22054,-7.657032,0.392423,-225.330002,-73.220001,109.830002,1729424638526.0,0.0
-4.096512,-19.209579,-3.622734,-331.519989,-55.16,93.870003,1729424638546.0,0.0
-4.352544,-17.44607,-14.335401,-452.619995,-36.400002,25.34,1729424638567.0,0.0
-7.056434,-17.874384,-15.096318,-365.399994,34.860001,-6.51,1729424638586.0,0.0
-11.62194,-18.125631,-10.523634,-233.940002,156.029999,-53.41,1729424638608.0,0.0
-10.681561,-14.926428,-9.375079,-30.380001,117.25,-46.619999,1729424638630.0,0.0
-5.115855,-13.35913,-9.659825,147.070007,6.3,-37.380001,1729424638736.0,0.0
-1.59362,-10.710274,-5.240282,204.399994,23.379999,-63.91,1729424638739.0,0.0
-2.053042,-3.601198,8.425128,142.800003,115.849998,-86.379997,1729424638742.0,0.0
-6.123233,6.640083,12.236896,12.04,119.489998,-54.25,1729424638743.0,0.0
-5.85763,5.769095,8.458629,-2.52,-32.48,6.86,1729424638745.0,0.0
-1.282553,2.792424,5.156533,-100.169998,-105.419998,-1.89,1729424638747.0,0.0
-0.689133,-5.058427,0.643669,-246.680008,-132.580002,60.200001,1729424638766.0,0.0
-2.347359,-12.579069,-11.188839,-353.640015,-139.649994,41.720001,1729424638785.0,0.0
-2.833102,-16.756937,-18.642481,-430.290009,-111.370003,-21.629999,1729424638853.0,0.0
-7.226324,-10.655239,-17.204393,-451.779999,20.16,-44.450001,1729424638859.0,0.0
-14.356936,-11.365908,-22.289143,-284.339996,131.809998,-44.59,1729424638861.0,0.0
-8.157133,-9.889536,-17.860029,43.400002,56.420002,-21.139999,1729424638873.0,0.0
-1.454836,-8.618947,-13.60559,293.649994,-40.599998,16.73,1729424638889.0,0.0
1.761117,-5.883951,-10.535598,339.079987,39.619999,-5.88,1729424638910.0,0.0
-0.705883,-1.141376,3.115455,220.5,167.089996,-31.92,1729424638927.0,0.0
-6.89133,-0.847059,8.4012,10.64,154.419998,-31.5,1729424638946.0,0.0
-5.008178,-4.012764,4.21376,-140.0,31.43,-51.380001,1729424638966.0,0.0
-1.971686,-5.015356,1.423729,-129.990005,-51.52,-47.810001,1729424638988.0,0.0
-1.043271,-4.551149,0.07657,-66.639999,-95.480003,-29.889999,1729424639009.0,0.0
-1.119841,-4.414758,-0.859023,-74.970001,-122.150002,-18.34,1729424639028.0,0.0
-1.801795,-0.935594,-2.423929,-229.809998,-126.209999,-25.059999,1729424639049.0,0.0
-5.24746,-3.328416,-14.143975,-443.380005,-98.699997,-44.52,1729424639067.0,0.0
-10.363315,-11.167303,-21.946968,-312.829987,-2.17,-31.85,1729424639090.0,0.0
-10.652846,-11.952149,-21.970896,-29.190001,25.620001,-55.720001,1729424639110.0,0.0
-4.323831,0.70349,-15.931413,150.289993,-45.290001,31.290001,1729424639129.0,0.0
-0.540778,3.218346,-10.853845,125.650002,-13.37,50.330002,1729424639149.0,0.0
-1.48355,-1.971686,-9.272188,25.690001,93.870003,33.110001,1729424639167.0,0.0
-3.617948,-3.318845,-6.798009,-32.619999,118.020004,45.849998,1729424639188.0,0.0
-3.862016,-4.744967,-5.132604,-28.42,88.480003,62.16,1729424639213.0,0.0
-3.215954,-9.176475,-1.213161,-35.0,70.139999,42.139999,1729424639228.0,0.0
-2.74696,-13.524234,1.18684,-55.580002,35.77,11.69,1729424639248.0,0.0
-1.268196,-11.925828,-0.574277,-35.279999,-31.360001,-33.950001,1729424639268.0,0.0
-1.794617,-8.207381,-4.4674,44.939999,-66.290001,-65.309998,1729424639290.0,0.0
-3.388237,-3.775874,-6.235696,56.0,-67.059998,-81.970001,1729424639311.0,0.0
-4.12044,-6.675975,-11.665009,32.34,-84.07,-73.989998,1729424639329.0,0.0
-2.438286,-3.136991,-9.334401,-106.889999,-126.279999,-102.410004,1729424639349.0,0.0
-4.283153,0.569492,-9.827322,-173.039993,-65.449997,-61.599998,1729424639369.0,0.0
-5.766702,1.304088,-21.04966,-77.629997,-2.59,-24.219999,1729424639389.0,0.0
-7.848458,0.78006,-19.24308,82.18,57.470001,42.490002,1729424639410.0,0.0
-6.491727,-3.0006,-11.073983,161.839996,60.48,95.970001,1729424639430.0,0.0
-0.72024,-0.949951,-12.428321,80.57,34.93,95.620003,1729424639449.0,0.0
-1.414158,-2.294717,-8.382057,104.160004,101.849998,108.57,1729424639472.0,0.0
-4.316652,-4.606184,-4.941179,45.360001,154.839996,90.090004,1729424639490.0,0.0
-5.132604,-10.255639,-0.272782,-15.12,119.0,68.25,1729424639510.0,0.0
-3.232704,-14.672788,2.804388,-49.420002,44.73,29.049999,1729424639529.0,0.0
-0.851845,-11.172089,-0.038285,-34.509998,-28.07,-40.950001,1729424639551.0,0.0
-1.923829,-6.845865,-4.362115,47.110001,-66.919998,-76.790001,1729424639569.0,0.0
-3.771089,-3.826123,-6.415157,69.510002,-68.669998,-88.830002,1729424639594.0,0.0
-3.89073,-3.352344,-6.65444,31.99,-98.419998,-74.550003,1729424639612.0,0.0
-2.962314,-5.199604,-7.786245,-33.880001,-138.460007,-74.620003,1729424639629.0,0.0
-2.790031,-2.809174,-10.906486,-84.419998,-114.590004,-78.68,1729424639649.0,0.0
-7.130611,4.082155,-21.492332,-121.449997,-28.210001,-21.210001,1729424639670.0,0.0
-10.82513,-4.022335,-13.227524,53.830002,95.059998,74.340004,1729424639689.0,0.0
-5.481956,-8.190632,-7.432107,34.23,33.25,67.620003,1729424639713.0,0.0
0.66999,-5.529813,-11.461621,-37.869999,-20.860001,76.860001,1729424639729.0,0.0
0.918844,-4.945964,-10.353743,41.439999,65.660004,58.73,1729424639748.0,0.0
-3.175276,-3.850052,-9.269794,55.790001,152.669998,63.630001,1729424639771.0,0.0
-4.383651,-6.13759,-3.9673,68.459999,111.230003,75.32,1729424639788.0,0.0
-3.735196,-8.958728,2.165504,20.16,71.470001,49.91,1729424639813.0,0.0
-3.294917,-12.672389,5.472386,-28.49,22.469999,8.12,1729424639829.0,0.0
-2.739782,-8.583055,-1.423729,-20.719999,-51.240002,-48.369999,1729424639849.0,0.0
-4.328616,-5.85763,-3.632305,51.310001,-86.519997,-77.349998,1729424639868.0,0.0
-4.800002,-3.014957,-6.410372,48.860001,-114.379997,-77.769997,1729424639891.0,0.0
-4.922036,-7.171289,-10.121639,33.529999,-161.910004,-64.120003,1729424639910.0,0.0
-3.218346,-6.652047,-16.737795,-39.41,-158.550003,-94.779999,1729424639930.0,0.0
-4.335794,-3.335595,-16.543976,-50.400002,-64.75,-38.849998,1729424639949.0,0.0
-5.800202,3.601198,-22.07379,-5.53,21.280001,17.43,1729424639969.0,0.0
-6.455836,-4.366901,-14.902499,260.119995,46.27,66.779999,1729424639989.0,0.0
-2.708675,-9.195618,-7.89153,327.73999,86.870003,65.940002,1729424640011.0,0.0
-0.988236,-4.788038,-11.650653,300.649994,62.720001,58.66,1729424640029.0,0.0
-1.287339,-3.665804,-5.781059,347.339996,110.879997,54.32,1729424640051.0,0.0
-5.737988,-1.433301,10.911271,290.290009,198.100006,57.68,1729424640071.0,0.0
-8.408379,-5.350351,2.744568,185.990005,142.589996,46.689999,1729424640090.0,0.0
-5.883951,-10.456635,5.453243,105.279999,20.440001,29.469999,1729424640111.0,0.0
-2.993421,-9.949356,2.701497,140.699997,-46.130001,30.52,1729424640131.0,0.0
-1.811367,-7.281359,-1.445265,229.180008,-91.840004,36.189999,1729424640148.0,0.0
-2.519642,-9.865608,-0.435494,273.0,-71.68,46.34,1729424640170.0,0.0
-4.084548,-11.940186,-1.648655,204.680008,-30.450001,35.77,1729424640189.0,0.0
-5.448457,-14.464613,-2.718246,149.309998,-22.540001,13.86,1729424640214.0,0.0
-6.553941,-12.447463,-4.668397,96.040001,-13.23,-7.35,1729424640229.0,0.0
-7.312466,-13.720445,-3.572484,100.519997,20.719999,-18.129999,1729424640250.0,0.0
-5.881558,-9.071191,-0.339781,55.16,35.630001,-46.27,1729424640269.0,0.0
-3.718446,-7.532606,2.414358,63.0,10.99,-30.799999,1729424640288.0,0.0
-2.0004,-7.927422,0.425922,24.780001,-12.95,-40.389999,1729424640313.0,0.0
-1.385444,-8.204988,-1.631905,-72.660004,-7.35,-69.580002,1729424640328.0,0.0
-3.61077,-8.705089,-1.299303,-187.740005,40.880001,-90.370003,1729424640348.0,0.0
-5.525027,-9.887143,1.440479,-278.950012,86.239998,-99.75,1729424640368.0,0.0
-5.76431,-6.606583,3.196811,-266.140015,34.860001,-84.419998,1729424640388.0,0.0
-4.833502,-4.479364,3.129812,-147.350006,-46.27,-47.950001,1729424640412.0,0.0
-3.254239,-4.436293,3.292524,-106.959999,-105.139999,-56.0,1729424640430.0,0.0
-2.366502,-2.79721,5.515456,-192.919998,-120.190002,-60.830002,1729424640450.0,0.0
-1.462015,-1.359123,-0.849452,-282.730011,-136.990005,-49.490002,1729424640468.0,0.0
0.521635,-1.459622,-13.756337,-340.619995,-178.710007,-38.990002,1729424640488.0,0.0
-1.354338,-4.460221,-15.706488,-409.98999,-139.229996,-3.22,1729424640510.0,0.0
-5.804988,-6.290731,-12.870994,-428.470001,-42.77,-8.26,1729424640529.0,0.0
-6.704689,-6.285945,-13.263416,-423.290009,-3.15,-28.280001,1729424640551.0,0.0
-6.570691,-9.243474,-13.079168,-233.800003,20.02,20.860001,1729424640568.0,0.0
-6.273981,-11.253445,-11.157731,35.349998,36.610001,49.630001,1729424640591.0,0.0
-2.964707,-7.879565,-13.203594,202.089996,3.64,26.460001,1729424640610.0,0.0
-4.06062,-4.352544,-9.815358,235.970001,51.52,39.48,1729424640630.0,0.0
-6.429514,-6.477371,-6.757331,166.110001,95.970001,32.830002,1729424640650.0,0.0
-4.728218,-7.752745,-2.849852,87.290001,58.240002,10.43,1729424640669.0,0.0
1.20359,-7.523034,-0.363709,82.389999,3.08,20.65,1729424640688.0,0.0
2.861816,-7.798209,0.287139,161.630005,-29.540001,14.0,1729424640712.0,0.0
1.730011,-8.25763,-2.416751,233.449997,-31.15,8.82,1729424640728.0,0.0
-0.713061,-4.728218,-5.898308,265.790009,-15.96,42.0,1729424640748.0,0.0
-2.505285,-5.032106,-9.88475,335.790009,-37.59,95.830002,1729424640767.0,0.0
-3.096312,-10.301102,-13.265808,380.730011,-50.82,88.550003,1729424640790.0,0.0
-3.629912,-11.918649,-10.729417,354.130005,14.28,56.560001,1729424640811.0,0.0
-8.070991,-12.253645,2.254039,306.670013,121.169998,69.440002,1729424640830.0,0.0
-14.404793,-9.676575,-0.047856,115.5,156.940002,26.950001,1729424640849.0,0.0
-12.050256,-12.373285,-6.788438,-15.82,64.470001,-57.049999,1729424640868.0,0.0
-7.444071,-11.662617,-6.391229,-41.860001,11.9,-63.279999,1729424640887.0,0.0
-5.13739,-10.585848,0.442672,49.77,58.029999,-64.82,1729424640911.0,0.0
-4.644469,-1.969293,5.163712,17.57,101.43,-66.989998,1729424640930.0,0.0
-4.242475,3.541377,10.186246,-9.94,54.040001,-13.02,1729424640948.0,0.0
0.22014,4.158726,9.801002,-71.260002,-69.720001,24.290001,1729424640969.0,0.0
3.84048,-2.409572,5.180461,-152.669998,-132.160004,44.73,1729424640990.0,0.0
2.715853,-9.707682,-4.503292,-229.040009,-119.770004,70.0,1729424641012.0,0.0
-0.356531,-20.097317,-10.597812,-199.430008,-93.730003,25.48,1729424641029.0,0.0
-1.825724,-13.014563,-12.890135,-208.880005,-45.709999,-16.870001,1729424641048.0,0.0
-6.616155,-8.169096,-12.710674,-155.820007,53.060001,-0.42,1729424641069.0,0.0
-12.519248,-5.101498,-10.896914,-103.949997,170.729996,-17.5,1729424641090.0,0.0
-13.576876,-12.32543,-11.765509,-6.02,131.460007,1.96,1729424641110.0,0.0
-5.223531,-14.062619,-10.179067,83.090004,-20.65,-5.53,1729424641128.0,0.0
0.050249,-10.999805,-7.185646,137.550003,2.31,-4.69,1729424641148.0,0.0
-1.026521,-8.717053,4.465007,148.190002,108.360001,-23.24,1729424641168.0,0.0
-4.974678,-3.60359,8.25763,38.849998,149.169998,-53.130001,1729424641188.0,0.0
-6.34098,0.059821,5.843273,-40.670002,44.869999,-28.630001,1729424641212.0,0.0
-5.221139,-1.978864,6.266802,-40.740002,-63.700001,-5.25,1729424641229.0,0.0
-2.493321,-3.201597,3.436093,-93.590004,-99.889999,-8.33,1729424641247.0,0.0
-1.256232,-4.680361,0.22014,-115.709999,-143.5,23.73,1729424641269.0,0.0
-0.42353,-10.021141,-10.504492,-150.360001,-177.940002,19.460001,1729424641290.0,0.0
-0.492921,-12.002398,-15.940985,-213.779999,-140.070007,-12.18,1729424641312.0,0.0
-3.536592,-11.600404,-20.001604,-194.389999,13.51,6.3,1729424641328.0,0.0
-7.166504,-8.91805,-9.250652,-82.599998,109.480003,6.09,1729424641349.0,0.0
-8.243275,-10.468598,-11.54537,93.730003,62.439999,20.16,1729424641369.0,0.0
-4.122833,-9.375079,-11.956935,159.25,36.189999,9.59,1729424641388.0,0.0
-2.287539,-7.343572,-6.309873,195.509995,81.340004,11.76,1729424641411.0,0.0
-4.273581,-5.883951,6.872187,173.110001,119.980003,6.16,1729424641428.0,0.0
-7.408179,-1.091127,10.085747,24.639999,99.050003,-11.83,1729424641450.0,0.0
-7.015756,-2.612962,7.314859,-3.29,-5.18,-2.31,1729424641469.0,0.0
-3.615555,-2.361716,5.118248,-56.0,-88.970001,6.3,1729424641489.0,0.0
-1.208375,-5.778666,0.9667,-61.529999,-165.199997,30.030001,1729424641510.0,0.0
0.253639,-7.412964,-9.573684,-122.010002,-195.789993,16.799999,1729424641528.0,0.0
-0.471386,-7.283752,-19.714466,-196.559998,-145.880005,5.32,1729424641547.0,0.0
-3.519842,-10.413565,-24.583858,-185.919998,-11.06,5.67,1729424641570.0,0.0
-8.738588,-13.756337,-15.613168,-95.970001,159.949997,2.73,1729424641590.0,0.0
-10.990234,-14.548362,-11.62194,44.66,176.610001,20.440001,1729424641609.0,0.0
-4.974678,-9.523434,-12.966705,185.149994,24.15,18.620001,1729424641631.0,0.0
0.294317,-6.472585,-5.142176,232.190002,22.190001,-7.0,1729424641650.0,0.0
0.107677,0.591027,17.974882,167.440002,107.730003,-1.75,1729424641667.0,0.0
-7.958528,0.385244,12.748959,100.309998,67.059998,27.09,1729424641688.0,0.0
-7.956135,-4.280759,3.821337,-15.54,-103.599998,10.15,1729424641711.0,0.0
-4.776074,-7.314859,-2.823531,-125.230003,-160.930008,3.64,1729424641728.0,0.0
-3.503092,-9.427721,-14.464613,-218.119995,-176.680008,15.61,1729424641750.0,0.0
-2.828316,-13.361522,-23.724836,-262.290009,-109.900002,-27.02,1729424641769.0,0.0
-5.113462,-12.861421,-20.98984,-228.410004,59.920002,-28.49,1729424641787.0,0.0
-8.46102,-11.940186,-17.039289,-57.189999,151.270004,4.06,1729424641811.0,0.0
-5.096712,-8.910872,-13.646267,128.449997,84.699997,13.16,1729424641828.0,0.0
-1.555335,-7.532606,-11.535798,234.850006,85.68,3.64,1729424641848.0,0.0
-1.658226,-3.943372,7.515855,257.950012,135.520004,-1.47,1729424641869.0,0.0
-6.52762,7.300502,18.178272,174.789993,108.150002,17.15,1729424641887.0,0.0
-8.717053,3.964907,13.371094,152.949997,-41.369999,43.470001,1729424641910.0,0.0
-6.71426,0.052642,4.453043,-47.810001,-96.669998,24.57,1729424641930.0,0.0
-3.871587,-5.285746,-4.017549,-156.100006,-163.940002,32.900002,1729424641949.0,0.0
-1.143769,-8.626125,-13.768302,-212.029999,-203.419998,10.01,1729424641967.0,0.0
-0.964308,-12.382857,-27.25425,-220.919998,-140.139999,13.23,1729424641988.0,0.0
-3.991228,-13.450057,-21.889544,-164.570007,50.119999,10.71,1729424642010.0,0.0
-9.726824,-14.735002,-10.542776,-35.91,197.399994,26.809999,1729424642028.0,0.0
-5.225924,-6.130411,-9.994821,195.089996,22.469999,12.88,1729424642049.0,0.0
-3.524628,-4.256832,-9.389436,300.579987,56.84,10.57,1729424642067.0,0.0
-3.749553,-5.316852,-1.06002,332.290009,115.010002,23.73,1729424642087.0,0.0
-5.058427,-3.558127,8.334201,286.019989,99.889999,13.72,1729424642112.0,0.0
-6.051448,-1.887937,12.169895,154.559998,39.759998,-1.47,1729424642128.0,0.0
-5.644669,-2.167897,7.039684,59.290001,-33.670002,-2.31,1729424642147.0,0.0
-4.826324,-2.031506,4.910072,-33.670002,-89.739998,17.43,1729424642168.0,0.0
-4.326223,-5.070391,2.909672,-86.590004,-121.940002,43.959999,1729424642188.0,0.0
-3.349952,-8.865408,-5.266603,-124.879997,-144.550003,39.619999,1729424642213.0,0.0
-1.531406,-10.322637,-8.075776,-121.169998,-182.559998,29.960001,1729424642228.0,0.0
-2.481357,-15.570097,-12.32543,-63.279999,-150.850006,39.549999,1729424642246.0,0.0
-4.989035,-16.476976,-17.601604,-91.629997,-39.619999,-2.52,1729424642267.0,0.0
-7.549356,-12.409179,-11.91147,-92.400002,93.239998,-33.459999,1729424642289.0,0.0
-11.191232,-12.514462,-4.618148,-4.62,142.240005,-14.91,1729424642311.0,0.0
-9.226725,-10.667203,-5.919843,132.369995,54.389999,-8.19,1729424642328.0,0.0
-6.999006,-10.179067,-9.856036,270.76001,18.34,-18.9,1729424642349.0,0.0
-5.958128,-5.962914,-7.903493,258.160004,115.779999,-46.759998,1729424642368.0,0.0
-5.663811,-5.312066,1.512264,228.479996,104.370003,-32.27,1729424642387.0,0.0
-4.709075,-4.524827,2.988636,181.089996,94.989998,-32.060001,1729424642411.0,0.0
-2.751746,-2.852244,5.388636,182.699997,40.459999,-18.620001,1729424642429.0,0.0
0.117248,-0.457029,7.755138,174.369995,-9.1,-4.06,1729424642447.0,0.0
0.435494,-0.480957,7.063612,128.100006,-32.549999,24.57,1729424642468.0,0.0
-2.129612,-2.56032,5.814559,53.41,-31.85,53.27,1729424642487.0,0.0
-3.771089,-3.802195,3.184847,27.370001,-38.57,73.010002,1729424642509.0,0.0
-4.381258,-3.821337,3.196811,57.82,-69.720001,101.709999,1729424642529.0,0.0
-5.335995,-6.69751,2.316252,85.400002,-77.629997,142.169998,1729424642547.0,0.0
-7.898707,-12.086146,3.28056,28.630001,-47.950001,135.869995,1729424642567.0,0.0
-9.521042,-14.251652,-1.770689,-108.849998,10.85,89.809998,1729424642589.0,0.0
-10.832308,-13.000205,-5.307281,-172.899994,11.27,66.220001,1729424642611.0,0.0
-10.370493,-17.403,-6.329016,-62.580002,-8.05,41.93,1729424642627.0,0.0
-10.011569,-16.663616,-3.48395,0.63,-7.98,-14.49,1729424642650.0,0.0
-9.698111,-15.170495,-6.080163,94.919998,25.34,-37.869999,1729424642667.0,0.0
-8.398808,-13.471591,-0.555135,164.5,26.18,-73.150002,1729424642687.0,0.0
-6.675975,-7.788638,1.430908,177.940002,31.360001,-91.910004,1729424642710.0,0.0
-5.156533,-4.548756,3.433701,150.220001,20.860001,-109.620003,1729424642728.0,0.0
-3.058028,-1.830509,5.730811,96.879997,4.97,-106.68,1729424642748.0,0.0
0.78006,5.848059,7.573284,46.130001,-20.440001,-78.68,1729424642770.0,0.0
4.977071,9.293723,13.414164,87.709999,-43.82,15.12,1729424642787.0,0.0
3.711268,5.036892,10.643275,-4.2,-40.810001,84.489998,1729424642808.0,0.0
-1.39023,0.189033,2.072184,-196.910004,-31.08,137.059998,1729424642827.0,0.0
-4.895715,-3.909872,-4.402793,-252.839996,-6.44,157.570007,1729424642847.0,0.0
-11.875579,-13.323236,-9.399008,-241.149994,66.709999,146.930008,1729424642869.0,0.0
-25.548166,-26.41437,-11.794223,-235.410004,167.789993,24.99,1729424642888.0,0.0
-18.029919,-23.933012,-7.02772,-27.790001,21.49,-42.84,1729424642909.0,0.0
-7.65464,-15.840486,-2.859423,156.169998,-61.32,-26.950001,1729424642930.0,0.0
-5.072784,-12.332609,-1.708475,208.039993,19.040001,-103.18,1729424642947.0,0.0
-5.99402,-6.178268,0.691526,182.490005,80.639999,-131.039993,1729424642967.0,0.0
-6.4678,2.739782,3.538985,142.240005,55.790001,-83.580002,1729424642987.0,0.0
-2.849852,8.896514,6.125626,171.080002,-59.639999,-2.31,1729424643009.0,0.0
5.759524,6.305088,7.999206,168.070007,-100.590004,19.040001,1729424643027.0,0.0
1.806581,-0.291924,4.290331,-99.540001,-10.92,87.010002,1729424643047.0,0.0
-3.105884,-5.702096,0.887737,-174.369995,33.529999,115.010002,1729424643068.0,0.0
-7.377072,-10.423136,-1.421337,-205.660004,59.779999,88.760002,1729424643088.0,0.0
-14.423935,-19.666609,-4.828716,-203.419998,81.830002,45.009998,1729424643109.0,0.0
-18.922441,-27.943384,-8.178668,-147.979996,76.019997,-27.860001,1729424643130.0,0.0
-11.796617,-21.566511,-5.046463,3.08,-1.4,-55.299999,1729424643147.0,0.0
-7.140182,-16.697117,-3.117848,154.630005,-10.36,-80.360001,1729424643168.0,0.0
-6.867401,-11.373087,-3.074777,190.820007,56.84,-128.309998,1729424643187.0,0.0
-6.941578,-2.732604,-1.883151,164.289993,86.800003,-144.130005,1729424643211.0,0.0
-6.975078,1.835295,6.448657,189.490005,38.849998,-83.510002,1729424643229.0,0.0
-3.184847,8.047063,8.743374,191.660004,-63.630001,-44.52,1729424643246.0,0.0
4.948357,14.778071,9.174082,170.589996,-94.43,-38.150002,1729424643267.0,0.0
4.845466,8.992228,9.614362,50.400002,-55.439999,51.66,1729424643287.0,0.0
-2.277967,2.024328,6.029913,-171.289993,-14.91,133.070007,1729424643310.0,0.0
-6.594619,-4.912465,3.287738,-245.490005,3.29,142.589996,1729424643327.0,0.0
-8.224132,-12.004791,-3.431308,-311.360016,-11.83,82.879997,1729424643347.0,0.0
-9.013763,-16.704294,-8.645268,-328.860016,-43.259998,39.27,1729424643367.0,0.0
-14.703895,-22.009182,-4.536791,-120.610001,-13.09,43.68,1729424643387.0,0.0
-11.655439,-19.566111,-5.235496,23.24,-34.02,-16.73,1729424643471.0,0.0
-7.704889,-14.794822,-4.208975,41.650002,-20.860001,-64.050003,1729424643473.0,0.0
-5.974878,-12.732209,-2.555535,89.669998,17.5,-75.739998,1729424643473.0,0.0
-5.465207,-9.970891,-1.454836,115.849998,46.130001,-97.580002,1729424643473.0,0.0
-5.07757,-6.18784,-1.61037,107.800003,59.849998,-90.090004,1729424643490.0,0.0
-4.476971,-3.60359,0.696311,106.75,47.040001,-76.790001,1729424643515.0,0.0
-2.962314,0.378066,3.95055,75.739998,37.310001,-63.84,1729424643527.0,0.0
-2.507678,-1.198804,8.161918,67.830002,12.53,-28.84,1729424643547.0,0.0
-1.036092,-2.388037,6.38405,-4.55,-25.34,-30.24,1729424643566.0,0.0
-0.997807,-5.551349,5.367101,-91.419998,-42.139999,-18.129999,1729424643586.0,0.0
-2.112862,-8.532805,1.179662,-155.820007,-43.610001,-5.53,1729424643608.0,0.0
-3.067599,-8.331808,0.713061,-168.0,-46.200001,1.4,1729424643627.0,0.0
-4.23051,-7.470392,1.351945,-162.889999,-51.380001,21.0,1729424643646.0,0.0
-4.843073,-6.766902,1.308874,-180.740005,-71.75,20.860001,1729424643667.0,0.0
-5.773881,-9.267403,1.179662,-202.789993,-80.779999,11.83,1729424643696.0,0.0
-7.089933,-15.622739,-5.613562,-190.680008,-66.709999,-5.81,1729424643708.0,0.0
-6.642475,-12.753745,-6.623333,-217.559998,-27.51,-48.860001,1729424643728.0,0.0
-5.213961,-11.483156,-3.615555,-134.680008,-2.31,-36.82,1729424643750.0,0.0
-3.98405,-9.915856,-2.555535,-99.190002,6.44,-29.049999,1729424643766.0,0.0
-2.849852,-9.317651,-1.488336,-56.490002,14.49,-29.4,1729424643787.0,0.0
-2.572284,-9.633504,-0.583849,-70.209999,31.85,-28.07,1729424643808.0,0.0
-2.56032,-9.738789,1.323231,-107.169998,50.610001,-36.68,1729424643827.0,0.0
-2.024328,-10.057034,1.48355,-108.290001,21.98,-31.85,1729424643846.0,0.0
-1.301696,-9.145369,0.239282,-88.760002,-25.83,-31.57,1729424643866.0,0.0
-1.555335,-8.793623,-1.162912,-91.07,-41.860001,-37.099998,1729424643886.0,0.0
-4.086941,-9.561719,-2.799603,-124.389999,-22.68,-52.779999,1729424643908.0,0.0
-7.305287,-8.267202,-4.132405,-211.050003,-0.56,-82.18,1729424643927.0,0.0
-8.097312,-3.452843,-8.279166,-329.559998,-18.969999,-90.580002,1729424643946.0,0.0
-4.37408,0.449851,-13.660624,-402.5,-78.68,-83.860001,1729424643966.0,0.0
0.397209,1.715654,-14.103296,-461.929993,-74.550003,-82.599998,1729424643987.0,0.0
1.105484,0.184247,-14.892928,-418.390015,0.35,-35.07,1729424644009.0,0.0
-0.579063,-2.215754,-11.870793,-263.619995,48.23,-14.42,1729424644027.0,0.0
-6.001199,-12.705888,0.684347,-49.91,60.689999,20.09,1729424644046.0,0.0
-3.529413,-16.388443,-1.854438,-25.41,6.16,-86.940002,1729424644066.0,0.0
0.157926,-4.704289,-4.744967,54.389999,-57.330002,-25.76,1729424644087.0,0.0
-0.507278,-3.790231,-6.506085,114.029999,-65.590004,0.28,1729424644109.0,0.0
-0.801596,-4.744967,-10.080962,22.540001,-37.029999,-31.780001,1729424644126.0,0.0
-2.026721,-7.520642,-10.394422,16.030001,-23.940001,-10.43,1729424644159.0,0.0
-1.904687,-7.958528,-10.073784,79.029999,-24.219999,6.37,1729424644236.0,0.0
-2.029114,-6.266802,-10.047462,209.930008,-28.559999,44.73,1729424644237.0,0.0
-4.046263,-6.458229,-14.191832,356.579987,-29.889999,72.519997,1729424644239.0,0.0
-5.85763,-5.82413,-15.378671,453.529999,-18.059999,36.049999,1729424644245.0,0.0
-4.919643,-4.039084,-11.337193,480.130005,12.74,39.900002,1729424644247.0,0.0
-3.579663,-4.474578,-3.455236,450.519989,60.060001,50.259998,1729424644266.0,0.0
-3.957729,-4.570292,-2.330609,405.51001,108.360001,39.759998,1729424644285.0,0.0
-5.730811,-6.374479,-3.517449,431.76001,125.020004,61.529999,1729424644308.0,0.0
-6.379266,-7.135397,-1.682154,417.549988,120.120003,42.560001,1729424644326.0,0.0
-5.982057,-3.699304,0.954736,361.269989,99.610001,52.009998,1729424644346.0,0.0
-5.706882,-0.981057,2.701497,332.709991,52.709999,86.309998,1729424644368.0,0.0
-3.902694,-0.942772,6.503692,282.940002,-2.24,95.900002,1729424644386.0,0.0
-3.598805,-4.859823,6.23091,180.389999,0.77,68.739998,1729424644418.0,0.0
-4.271189,-10.054641,7.121039,107.239998,10.15,73.220001,1729424644426.0,0.0
-4.780859,-11.760723,4.103691,21.98,3.43,74.059998,1729424644445.0,0.0
-5.52742,-13.306486,4.718646,-51.310001,-11.2,52.639999,1729424644470.0,0.0
-6.30748,-12.284752,1.74676,-116.760002,-5.81,29.540001,1729424644485.0,0.0
-6.879365,-13.103097,0.607777,-102.269997,-15.4,22.889999,1729424644507.0,0.0
-5.888737,-14.110476,-1.091127,-41.02,-10.78,-10.36,1729424644525.0,0.0
-5.355137,-11.306087,1.28016,3.22,26.880001,-39.200001,1729424644546.0,0.0
-5.663811,-9.178867,3.400201,55.439999,58.869999,-48.650002,1729424644568.0,0.0
-5.649454,-8.4347,4.453043,69.580002,51.939999,-65.029999,1729424644586.0,0.0
-5.316852,-8.271988,5.84088,75.669998,31.57,-72.519997,1729424644608.0,0.0
-4.804788,-6.742974,6.642475,70.139999,25.48,-66.57,1729424644627.0,0.0
-3.95055,-5.816952,7.092326,35.630001,9.31,-60.760002,1729424644645.0,0.0
-2.376073,-4.015156,4.87418,11.97,-17.639999,-46.830002,1729424644665.0,0.0
-2.103291,-4.914857,4.716253,2.03,-33.040001,-27.23,1729424644686.0,0.0
-2.658426,-6.022735,1.933401,-77.419998,-16.940001,-35.84,1729424644707.0,0.0
-3.95055,-7.305287,2.333002,-154.910004,-9.31,-23.940001,1729424644728.0,0.0
-5.000999,-7.666604,2.840281,-188.369995,-12.74,-17.219999,1729424644746.0,0.0
-5.9677,-7.719246,0.89013,-189.0,-20.860001,-16.379999,1729424644767.0,0.0
-5.881558,-8.157133,-0.256032,-177.029999,-27.51,-14.21,1729424644785.0,0.0
-4.728218,-8.843873,-0.535992,-154.139999,-38.709999,-8.75,1729424644812.0,0.0
-3.038885,-8.707481,-1.624727,-140.0,-61.459999,-14.28,1729424644825.0,0.0
-1.957329,-9.573684,-0.612563,-150.009995,-61.529999,-12.53,1729424644846.0,0.0
-2.072184,-9.298509,0.725025,-213.080002,-31.219999,-16.52,1729424644866.0,0.0
-3.512664,-8.963513,0.715454,-265.440002,2.8,-28.210001,1729424644885.0,0.0
-4.996214,-10.372886,-0.789631,-278.600006,5.67,-41.580002,1729424644910.0,0.0
-4.503292,-8.573483,-2.39043,-305.269989,-25.129999,-59.43,1729424644926.0,0.0
-3.304488,-5.297709,-3.931407,-321.649994,-47.389999,-57.049999,1729424644945.0,0.0
-2.249253,-1.804188,-6.606583,-336.839996,-46.900002,-40.110001,1729424644965.0,0.0
-4.208975,-4.723432,-5.623133,-366.660004,-21.0,-12.67,1729424644986.0,0.0
-4.436293,-7.264609,-7.032506,-378.48999,-0.42,-48.09,1729424645006.0,0.0
-5.407779,-5.201996,-5.761917,-334.950012,-19.74,-20.58,1729424645025.0,0.0
-5.589634,-4.438686,-9.209974,-220.149994,-44.52,9.8,1729424645046.0,0.0
-4.955536,-8.279166,-12.25843,-131.320007,-22.82,6.79,1729424645066.0,0.0
-4.074977,-9.736395,-12.909278,-23.030001,-9.24,5.67,1729424645085.0,0.0
-2.98385,-6.707082,-8.109276,75.739998,-14.07,9.66,1729424645107.0,0.0
-2.615355,-3.105884,-6.640083,93.379997,-1.47,17.5,1729424645129.0,0.0
-3.019742,-3.34038,-7.116255,105.419998,-4.27,28.0,1729424645146.0,0.0
-4.182654,-4.256832,-7.590034,115.639999,6.3,32.900002,1729424645166.0,0.0
-4.393222,-5.587241,-10.487741,167.860001,9.31,38.290001,1729424645186.0,0.0
-4.070191,-5.663811,-10.296316,271.529999,8.33,53.619999,1729424645211.0,0.0
-3.969693,-6.800402,-7.587641,359.450012,8.33,72.449997,1729424645226.0,0.0
-2.871387,-9.025726,-7.51107,409.98999,-6.44,71.260002,1729424645245.0,0.0
-1.919044,-10.746166,-8.456236,482.649994,-16.17,66.150002,1729424645265.0,0.0
-1.320838,-5.867201,-7.278966,525.77002,17.99,66.150002,1729424645286.0,0.0
-3.034099,-2.617748,3.766303,431.130005,97.510002,62.369999,1729424645308.0,0.0
-7.903493,-2.517249,11.497513,194.460007,117.739998,24.639999,1729424645326.0,0.0
-8.690732,-2.632105,8.54477,-24.219999,25.690001,-2.24,1729424645346.0,0.0
-7.386643,-6.716653,4.072584,-125.370003,-67.480003,28.559999,1729424645366.0,0.0
-4.173083,-10.602598,-0.600598,-155.470001,-126.699997,10.43,1729424645386.0,0.0
-1.12702,-11.88515,-8.106883,-100.590004,-141.399994,18.690001,1729424645409.0,0.0
-2.177469,-10.406385,-6.630512,-69.370003,-71.400002,34.09,1729424645425.0,0.0
-6.649654,-10.660025,-6.853044,-103.25,69.370003,27.16,1729424645445.0,0.0
-12.569498,-12.153147,-7.84128,-106.260002,148.470001,-12.53,1729424645468.0,0.0
-14.560326,-14.124832,-9.040084,-52.150002,132.020004,-35.0,1729424645485.0,0.0
-8.77448,-10.930414,-9.722038,11.69,27.65,-51.380001,1729424645507.0,0.0
-4.503292,-10.466206,-9.628718,95.410004,21.280001,-59.080002,1729424645527.0,0.0
-3.517449,-8.645268,-4.383651,103.110001,106.68,-75.529999,1729424645545.0,0.0
-5.032106,-3.426522,3.744767,50.610001,178.990005,-78.400002,1729424645566.0,0.0
-6.525227,1.79701,10.195816,27.23,130.619995,-24.08,1729424645585.0,0.0
-2.423929,4.240082,9.743573,67.199997,-20.02,25.620001,1729424645608.0,0.0
1.828116,2.11047,9.937392,59.290001,-96.25,40.459999,1729424645625.0,0.0
0.5001,-3.589234,3.641876,-52.290001,-87.43,83.510002,1729424645646.0,0.0
-2.464607,-9.803394,-2.431108,-150.360001,-94.849998,90.860001,1729424645666.0,0.0
-4.074977,-14.490934,-12.086146,-235.199997,-105.139999,45.920002,1729424645686.0,0.0
-6.422336,-16.666008,-18.096918,-296.100006,-54.110001,-5.18,1729424645711.0,0.0
-15.189637,-12.184253,-14.756538,-310.380005,90.580002,-38.849998,1729424645725.0,0.0
-11.688939,-13.37827,-12.557532,59.220001,93.099998,-1.19,1729424645745.0,0.0
-4.249653,-11.035697,-11.988041,238.699997,-35.84,-14.63,1729424645765.0,0.0
-0.430708,-8.839087,-7.398607,281.470001,42.349998,-32.27,1729424645785.0,0.0
-1.335195,-0.799203,3.041277,208.039993,153.160004,-39.970001,1729424645806.0,0.0
-6.343372,4.778467,15.292529,147.490005,135.520004,-9.52,1729424645826.0,0.0
-6.867401,3.579663,7.707282,72.870003,15.26,17.710001,1729424645846.0,0.0
-5.024928,1.775474,5.99402,-47.880001,-61.110001,26.6,1729424645865.0,0.0
-3.125026,-4.208975,0.894916,-120.470001,-95.690002,59.290001,1729424645886.0,0.0
-1.737189,-11.569297,-5.070391,-159.809998,-140.630005,56.139999,1729424645907.0,0.0
-2.340181,-17.694923,-9.243474,-211.119995,-126.209999,19.18,1729424645926.0,0.0
-4.505685,-17.010576,-17.221144,-206.919998,-71.400002,-22.889999,1729424645946.0,0.0
-7.106683,-12.332609,-17.986849,-151.270004,22.4,-37.799999,1729424645965.0,0.0
-9.250652,-9.834501,-10.29153,-46.549999,93.590004,-18.549999,1729424645985.0,0.0
-6.845865,-9.667004,-8.489735,106.190002,35.349998,-7.21,1729424646008.0,0.0
-4.807181,-9.001799,-9.162118,204.539993,26.880001,-13.65,1729424646025.0,0.0
-5.536992,-8.23131,-5.556134,243.25,120.82,-21.91,1729424646045.0,0.0
-7.822137,-3.866802,2.900101,218.119995,139.860001,-20.299999,1729424646065.0,0.0
-6.898508,0.028714,7.290931,145.180008,47.459999,-20.09,1729424646085.0,0.0
-4.115655,3.639483,4.878965,97.370003,-17.99,17.08,1729424646107.0,0.0
-1.531406,1.251446,7.049256,110.25,-90.720001,50.189999,1729424646126.0,0.0
-1.201197,-2.646462,3.022135,-11.27,-91.209999,60.34,1729424646145.0,0.0
-2.105684,-9.633504,-1.399801,-62.790001,-78.330002,67.480003,1729424646165.0,0.0
-1.842474,-10.167104,-3.9338,-29.26,-76.580002,74.760002,1729424646185.0,0.0
-3.716053,-10.887343,-1.682154,201.600006,-70.349998,125.93,1729424646209.0,0.0
-6.965507,-12.665211,-1.067199,401.869995,-26.32,155.050003,1729424646226.0,0.0
-11.483156,-14.696717,1.832902,408.589996,37.59,132.440002,1729424646245.0,0.0
-16.096518,-20.341385,3.84048,374.98999,57.470001,97.090004,1729424646265.0,0.0
-13.404593,-18.558733,3.828516,313.670013,-22.889999,27.719999,1729424646285.0,0.0
-7.982457,-13.296914,4.59422,262.570007,-71.82,-2.8,1729424646310.0,0.0
-6.159126,-8.616554,3.35713,200.550003,-66.360001,-31.01,1729424646325.0,0.0
-6.752545,-9.765109,3.864408,178.149994,-72.519997,-63.490002,1729424646345.0,0.0
-6.02752,-8.49452,3.04367,167.020004,-73.290001,-100.169998,1729424646366.0,0.0
-3.251846,7.422535,-2.993421,171.850006,-41.580002,-73.709999,1729424646386.0,0.0
-3.555735,1.883151,7.365108,268.940002,-29.26,53.619999,1729424646406.0,0.0
-2.70389,0.222532,3.378666,62.510002,-8.82,-83.510002,1729424646426.0,0.0
-3.613162,-1.368695,3.041277,29.26,11.55,-15.26,1729424646445.0,0.0
-5.539384,-1.904687,5.034499,12.81,42.139999,14.49,1729424646465.0,0.0
-4.977071,-3.988836,6.778866,9.87,24.780001,4.69,1729424646485.0,0.0
-4.206582,-4.54397,7.235896,21.84,12.18,11.06,1729424646507.0,0.0
-7.683353,-9.138189,5.005785,45.290001,20.790001,32.759998,1729424646525.0,0.0
-11.894722,-10.126426,5.730811,56.98,25.76,0.21,1729424646547.0,0.0
-9.217153,-9.243474,7.551748,48.439999,-4.34,-4.9,1729424646565.0,0.0
-5.381458,-9.98525,8.501699,21.49,-7.21,-47.110001,1729424646584.0,0.0
-10.293922,-10.980663,11.337193,45.849998,3.29,-69.510002,1729424646607.0,0.0
-6.644868,-5.163712,7.951349,20.65,-35.630001,-98.980003,1729424646625.0,0.0
-3.23031,1.775474,4.910072,40.110001,-42.490002,-73.779999,1729424646644.0,0.0
-2.096112,7.240681,4.431508,54.670002,-35.420002,-36.470001,1729424646665.0,0.0
-1.182054,9.135797,5.209175,8.61,-26.880001,-6.09,1729424646687.0,0.0
-3.136991,3.962514,4.591826,-87.43,-3.85,31.08,1729424646898.0,0.0
-6.601797,-0.842274,4.778467,-177.309998,26.950001,61.110001,1729424646906.0,0.0
-7.470392,-6.551548,10.463813,-197.190002,8.54,61.110001,1729424646912.0,0.0
-7.439285,-9.832108,7.54457,-248.710007,-30.309999,41.580002,1729424646912.0,0.0
-7.781459,-13.107882,4.369294,-244.369995,-31.290001,24.85,1729424646913.0,0.0
-7.195218,-12.289536,-0.614955,-245.279999,-14.07,-12.18,1729424646916.0,0.0
-4.785645,-10.633704,1.021735,-202.509995,-29.610001,-28.91,1729424646917.0,0.0
-3.144169,-7.087541,2.400001,-147.979996,-21.91,-26.18,1729424646918.0,0.0
-4.455436,-5.635098,4.591826,-114.449997,20.02,-19.809999,1729424646919.0,0.0
-5.625526,-5.915058,3.663411,-161.070007,38.43,-22.469999,1729424646920.0,0.0
-6.338587,-6.958328,1.852045,-281.329987,25.690001,-48.299999,1729424646921.0,0.0
-5.422136,-6.297909,-0.863809,-431.830017,-1.54,-83.230003,1729424646925.0,0.0
-4.386044,-7.334002,-3.089134,-520.23999,-17.99,-69.090004,1729424646947.0,0.0
-3.426522,-10.648061,-2.402394,-546.909973,-21.139999,-67.199997,1729424646964.0,0.0
-2.002793,-12.859028,-2.17029,-513.380005,-34.650002,-83.860001,1729424646984.0,0.0
-1.572084,-14.648861,-0.830309,-339.429993,-34.720001,-63.490002,1729424647006.0,0.0
-1.402194,-10.645668,-1.136591,-148.259995,-46.48,-43.330002,1729424647025.0,0.0
-0.861416,-6.898508,-4.323831,27.93,-76.580002,-8.61,1729424647045.0,0.0
-0.241675,-6.812366,-3.26381,148.610001,-89.040001,25.690001,1729424647065.0,0.0
-2.055435,-6.139983,-0.114855,79.309998,-37.66,37.869999,1729424647085.0,0.0
-6.192625,-8.705089,-1.538585,-43.400002,19.18,11.13,1729424647108.0,0.0
-12.720245,-12.421142,-12.595818,-140.490005,79.309998,-26.950001,1729424647256.0,0.0
-9.619147,-13.098311,-9.126225,-82.599998,120.330002,-24.08,1729424647258.0,0.0
-3.582055,-10.509278,-9.552148,45.080002,59.779999,7.63,1729424647259.0,0.0
-0.478565,-7.243074,-7.939385,127.120003,-8.75,2.66,1729424647259.0,0.0
-0.842274,-3.823731,-1.265803,154.559998,33.529999,10.5,1729424647260.0,0.0
-4.232903,-2.787638,5.915058,159.740005,130.270004,9.03,1729424647260.0,0.0
-6.118448,-2.421536,8.666803,153.160004,163.169998,17.639999,1729424647266.0,0.0
-4.063013,-3.302095,7.271788,44.52,-29.26,8.19,1729424647287.0,0.0
-3.074777,-4.242475,5.996413,12.74,-84.139999,32.830002,1729424647356.0,0.0
-2.203789,-10.657632,-10.085747,-27.23,-123.690002,33.529999,1729424647359.0,0.0
-2.215754,-12.315859,-9.906286,-134.610001,-134.889999,-11.55,1729424647360.0,0.0
-3.268596,-11.143374,-19.580467,-220.710007,-11.9,3.08,1729424647367.0,0.0
-4.570292,-12.447463,-12.15554,-152.740005,35.630001,-2.17,1729424647391.0,0.0
-7.453642,-12.100503,-2.22054,-102.129997,134.399994,-28.280001,1729424647408.0,0.0
-9.779467,-11.743973,-8.599805,32.34,141.399994,-16.17,1729424647426.0,0.0
-8.10449,-9.647861,-6.546762,163.869995,70.629997,-19.67,1729424647446.0,0.0
-5.328816,-4.249653,3.830909,167.860001,66.919998,-9.24,1729424647466.0,0.0
-3.579663,-0.55992,11.361122,122.150002,36.82,22.68,1729424647486.0,0.0
-1.627119,-1.495514,4.007978,79.660004,-21.49,26.389999,1729424647509.0,0.0
-1.897508,-2.988636,3.421736,0.21,-35.07,21.98,1729424647528.0,0.0
-2.919244,-7.743174,-1.854438,-89.949997,-33.950001,56.630001,1729424647546.0,0.0
-1.131805,-15.519848,-8.690732,-121.379997,-117.110001,32.689999,1729424647572.0,0.0
0.141177,-14.467006,-13.531413,-186.410004,-112.699997,-4.69,1729424647588.0,0.0
-3.067599,-13.636696,-15.536596,-161.279999,24.99,-18.690001,1729424647608.0,0.0
-8.410772,-10.485349,-13.244273,-102.550003,174.789993,-33.32,1729424647629.0,0.0
-13.119846,-12.504892,-12.921242,54.529999,200.130005,-14.91,1729424647647.0,0.0
-4.800002,-4.448257,1.411765,135.169998,80.989998,-4.34,1729424647668.0,0.0
-0.904487,1.105484,11.940186,169.960007,11.34,11.97,1729424647688.0,0.0
-2.086541,0.648455,7.379465,150.149994,1.19,26.460001,1729424647709.0,0.0
-4.015156,0.318245,6.788438,7.14,-56.77,19.460001,1729424647727.0,0.0
-3.342773,-6.001199,0.39003,-103.389999,-109.900002,46.27,1729424647747.0,0.0
-0.588634,-14.677574,-9.743573,-163.309998,-194.320007,21.700001,1729424647767.0,0.0
0.62692,-16.268801,-18.393627,-249.619995,-179.970001,-23.030001,1729424647787.0,0.0
-3.455236,-15.495919,-21.198015,-232.680008,24.780001,-46.619999,1729424647808.0,0.0
-11.497513,-13.806586,-13.883157,-117.599998,220.570007,-49.98,1729424647828.0,0.0
-16.359728,-9.461221,-7.630712,59.150002,198.520004,-13.16,1729424647847.0,0.0
-8.453842,-0.191426,6.73101,174.440002,1.82,26.18,1729424647867.0,0.0
-1.98365,0.122034,10.628918,241.710007,-86.379997,29.68,1729424647887.0,0.0
-0.90688,-1.095913,3.225525,133.419998,-81.410004,-24.290001,1729424647911.0,0.0
-3.268596,-2.411965,0.038285,-35.07,-37.099998,20.370001,1729424647929.0,0.0
-1.899901,-11.629118,-2.9671,-97.090004,-91.980003,49.209999,1729424647946.0,0.0
0.078963,-12.23211,-11.794223,-176.190002,-118.300003,16.940001,1729424647967.0,0.0
-1.646262,-8.874979,-16.240088,-139.720001,-60.970001,14.14,1729424647987.0,0.0
-9.375079,-13.433307,-8.944371,-5.74,80.989998,24.99,1729424648010.0,0.0
-11.088341,-13.713267,-11.765509,-3.43,106.120003,-26.040001,1729424648028.0,0.0
-8.013563,-7.889136,-7.01097,67.760002,84.840004,-27.09,1729424648046.0,0.0
-4.862216,-3.079563,1.383051,161.839996,33.32,7.42,1729424648066.0,0.0
-1.892723,-0.224925,7.32443,167.720001,3.92,18.690001,1729424648087.0,0.0
-0.232104,-1.378266,5.613562,74.480003,-13.65,31.5,1729424648110.0,0.0
-3.821337,-7.331609,5.166104,-12.18,-31.43,30.1,1729424648129.0,0.0
-4.622933,-8.657232,0.856631,-112.559998,-35.490002,24.43,1729424648146.0,0.0
-1.658226,-11.140982,-4.754539,-96.32,-148.539993,27.370001,1729424648167.0,0.0
0.964308,-12.59821,-10.882557,-99.330002,-188.300003,-5.25,1729424648186.0,0.0
-1.854438,-7.211967,-18.369699,-128.660004,-77.840004,-14.91,1729424648213.0,0.0
-9.099905,-5.414958,-17.52264,-86.870003,129.149994,-2.52,1729424648229.0,0.0
-15.431314,-15.333207,-15.180067,0.42,184.029999,-2.1,1729424648246.0,0.0
-8.391629,-14.268401,-12.205789,60.27,91.07,-29.540001,1729424648268.0,0.0
-1.830509,-5.876772,-2.935993,136.570007,27.370001,-12.04,1729424648287.0,0.0
-0.385244,-1.67019,5.12782,157.430008,79.309998,-24.15,1729424648312.0,0.0
-5.347959,3.383451,11.088341,105.139999,103.669998,4.41,1729424648327.0,0.0
-5.438886,-1.61037,7.305287,45.5,-62.23,43.75,1729424648347.0,0.0
-2.041078,-5.891129,1.598405,-83.510002,-116.059998,42.420002,1729424648367.0,0.0
0.662812,-10.437491,-8.896514,-156.520004,-166.529999,46.41,1729424648388.0,0.0
-0.148355,-12.473784,-17.64946,-199.149994,-135.169998,9.1,1729424648469.0,0.0
-6.058627,-11.636297,-17.127825,-263.549988,57.049999,-27.09,1729424648469.0,0.0
-15.376277,-8.927622,-18.271593,-244.160004,180.320007,-31.15,1729424648471.0,0.0
-13.24188,-13.617554,-16.426727,25.48,106.330002,-0.14,1729424648471.0,0.0
-3.845266,-10.573883,-10.923235,199.080002,-24.5,-5.67,1729424648486.0,0.0
-1.426122,-6.484549,-3.991228,196.070007,59.290001,-29.049999,1729424648509.0,0.0
-4.888536,-2.019542,7.238289,125.300003,142.800003,-40.32,1729424648528.0,0.0
-7.046863,1.674976,9.497113,78.470001,65.940002,-15.96,1729424648546.0,0.0
-3.584448,4.084548,10.758131,61.040001,-70.0,5.04,1729424648566.0,0.0
-0.787239,-1.124627,3.335595,-27.860001,-134.119995,43.959999,1729424648587.0,0.0
0.591027,-9.975677,-6.903293,-148.119995,-159.880005,42.560001,1729424648608.0,0.0
0.768096,-12.088539,-11.52862,-247.380005,-131.949997,15.61,1729424648627.0,0.0
-5.146961,-10.748559,-16.795221,-258.440002,-25.969999,18.83,1729424648647.0,0.0
-11.760723,-9.870394,-21.590439,-211.190002,107.029999,-24.85,1729424648666.0,0.0
-9.925428,-13.493127,-17.572889,119.489998,85.050003,15.61,1729424648686.0,0.0
-1.617548,-10.729417,-13.313664,271.040009,-22.82,5.95,1729424648708.0,0.0
0.940379,-5.56092,-1.476372,270.059998,92.889999,-41.23,1729424648726.0,0.0
-2.78046,-0.241675,9.305687,257.880005,166.529999,-26.460001,1729424648746.0,0.0
-4.87418,4.072584,11.600404,283.01001,57.470001,12.32,1729424648767.0,0.0
-3.074777,3.438486,10.576276,253.399994,-85.889999,31.219999,1729424648786.0,0.0
-1.885544,-0.693919,5.017749,49.630001,-117.110001,31.43,1729424648808.0,0.0
-2.270789,-4.962714,-1.332802,-95.269997,-115.080002,57.400002,1729424648827.0,0.0
-2.467,-10.451849,-9.140583,-116.900002,-118.440002,73.290001,1729424648846.0,0.0
-4.185047,-14.940784,-12.890135,-110.32,-84.489998,59.639999,1729424648866.0,0.0
-8.669197,-18.513268,-14.94557,-98.139999,49.07,23.799999,1729424648886.0,0.0
-14.545969,-17.312071,-10.746166,-87.43,153.229996,-7.91,1729424648908.0,0.0
-12.076575,-13.184454,-8.135597,45.43,87.57,-6.51,1729424648927.0,0.0
-5.635098,-10.664811,-10.470992,218.820007,-52.220001,-4.13,1729424648946.0,0.0
-1.85683,-9.571291,-8.525627,310.730011,-20.440001,-33.040001,1729424648966.0,0.0
-1.990828,-7.235896,-4.003192,322.559998,99.330002,-46.549999,1729424648987.0,0.0
-5.290531,-2.416751,4.709075,283.709991,160.369995,-49.420002,1729424649008.0,0.0
-7.345965,4.254438,12.107682,132.229996,79.800003,-23.59,1729424649026.0,0.0
-6.18784,4.957928,10.703095,52.709999,-27.09,14.42,1729424649046.0,0.0
-4.034299,4.957928,8.848659,-47.459999,-91.559998,11.76,1729424649067.0,0.0
-3.156133,-8.228917,3.314059,-136.919998,-104.93,11.06,1729424649086.0,0.0
-1.639083,-18.065811,-4.022335,-219.309998,-137.270004,3.78,1729424649108.0,0.0
0.074178,-15.376277,-6.463014,-320.390015,-153.649994,-20.790001,1729424649133.0,0.0
-1.445265,-8.922836,-8.583055,-331.170013,-85.470001,-36.75,1729424649146.0,0.0
-4.371687,-3.206382,-6.735795,-387.730011,-37.52,-51.099998,1729424649169.0,0.0
-7.15454,-4.15394,-11.210374,-446.529999,-15.47,-68.599998,1729424649187.0,0.0
-6.333801,-7.819745,-15.244674,-405.160004,-11.83,-100.449997,1729424649211.0,0.0
-4.996214,-9.111869,-14.014762,-231.910004,31.5,-56.700001,1729424649228.0,0.0
-5.458029,-11.069198,-6.118448,-51.380001,63.84,-14.77,1729424649247.0,0.0
-5.240282,-7.578069,-2.806781,-28.700001,64.959999,-34.93,1729424649268.0,0.0
-4.558327,-4.48415,0.002393,25.200001,23.799999,-5.04,1729424649286.0,0.0
-1.105484,-3.574877,3.503092,-16.59,-14.28,7.07,1729424649311.0,0.0
0.595813,-8.38445,-3.215954,-78.82,-65.309998,-2.66,1729424649330.0,0.0
-0.638884,-9.939785,-7.712067,-122.849998,-62.16,-38.43,1729424649347.0,0.0
-1.5003,-8.420342,-11.117055,-108.43,-53.830002,-31.5,1729424649370.0,0.0
-2.088934,-6.977471,-10.561919,-14.28,-73.919998,-15.96,1729424649388.0,0.0
-3.852444,-4.599005,-10.109675,76.650002,-58.450001,0.28,1729424649410.0,0.0
-6.929615,-3.404987,-12.803994,121.800003,-12.53,21.139999,1729424649429.0,0.0
-8.504091,-4.65404,-11.143374,119.840004,45.779999,22.049999,1729424649450.0,0.0
-7.049256,-8.867801,-7.412964,122.43,76.160004,27.93,1729424649470.0,0.0
-6.276374,-11.602797,-8.4347,170.520004,89.389999,38.639999,1729424649488.0,0.0
-5.843273,-10.506885,-6.699903,203.559998,91.209999,35.700001,1729424649512.0,0.0
-4.587041,-6.422336,-3.455236,183.259995,86.870003,3.01,1729424649530.0,0.0
-3.414558,-3.567699,2.021935,110.25,79.940002,16.030001,1729424649551.0,0.0
-0.849452,-4.814359,5.726025,63.84,23.379999,33.32,1729424649567.0,0.0
2.177469,-7.616355,4.441079,0.7,-59.220001,16.66,1729424649590.0,0.0
0.581456,-7.377072,-1.672583,-105.910004,-58.450001,-12.18,1729424649612.0,0.0
-1.85683,-5.678168,-12.069397,-157.5,-80.779999,-2.66,1729424649629.0,0.0
-1.366302,-6.762117,-17.230717,-180.389999,-115.989998,-36.610001,1729424649650.0,0.0
-3.37388,-5.020142,-13.043276,-230.440002,-40.32,-43.959999,1729424649670.0,0.0
-8.817552,-7.176075,-9.08794,-236.880005,51.380001,-25.9,1729424649689.0,0.0
-11.815758,-12.282358,-8.95155,-152.180008,96.739998,-23.59,1729424649713.0,0.0
-7.329216,-11.152946,-10.420743,38.080002,44.73,-5.67,1729424649731.0,0.0
-2.54357,-6.522834,-10.944772,169.190002,13.3,-6.44,1729424649748.0,0.0
-3.065206,-4.835894,-3.962514,166.320007,68.040001,11.27,1729424649769.0,0.0
-3.17049,-3.646662,0.440279,91.980003,92.82,9.31,1729424649790.0,0.0
-1.65344,-4.218546,5.058427,71.68,31.780001,29.26,1729424649811.0,0.0
0.806381,-7.403394,3.622734,32.689999,-47.32,25.9,1729424649829.0,0.0
0.200997,-5.151747,-2.813959,-19.950001,-59.57,7.21,1729424649853.0,0.0
-1.866402,-3.180061,-7.398607,-33.18,-49.560001,34.790001,1729424649870.0,0.0
-1.986043,-9.265009,-14.481362,-15.61,-90.370003,36.82,1729424649891.0,0.0
-0.897308,-9.839286,-12.873385,-45.5,-98.910004,-25.34,1729424649912.0,0.0
-7.590034,-2.624927,-9.166903,-140.559998,-7.98,10.99,1729424649929.0,0.0
-9.827322,-9.095119,-13.749159,-182.210007,54.110001,-15.26,1729424649948.0,0.0
-7.664211,-13.471591,-11.49512,-93.099998,61.389999,-42.77,1729424649970.0,0.0
-4.029513,-9.702895,-10.959127,79.309998,38.150002,-8.4,1729424649989.0,0.0
-3.895515,-7.23111,-7.034898,171.570007,52.5,-10.01,1729424650011.0,0.0
-4.800002,-3.311667,-0.476172,82.529999,91.910004,-25.059999,1729424650029.0,0.0
-3.998406,-3.139383,5.051248,-2.1,43.049999,-6.72,1729424650048.0,0.0
-1.294517,-5.819345,4.481757,-26.18,-31.15,2.66,1729424650070.0,0.0
-1.227518,-3.505485,-2.146362,-24.219999,-59.639999,-11.9,1729424650091.0,0.0
-1.533799,-3.354738,-7.343572,-19.809999,-67.269997,13.93,1729424650110.0,0.0
0.09332,-7.058826,-11.282159,-39.900002,-95.059998,17.639999,1729424650130.0,0.0
0.538385,-9.068797,-15.591633,-53.27,-91.279999,-2.66,1729424650149.0,0.0
-2.194218,-3.699304,-14.02194,-92.120003,-15.26,-7.07,1729424650170.0,0.0
-6.424729,-3.605984,-11.107484,-144.619995,40.389999,3.99,1729424650188.0,0.0
-6.522834,-10.459028,-9.150154,-149.869995,28.35,-21.210001,1729424650216.0,0.0
-4.101298,-11.009377,-10.183852,-88.199997,17.219999,-33.18,1729424650229.0,0.0
-4.445865,-7.008578,-10.846665,31.780001,47.810001,-24.57,1729424650248.0,0.0
-7.106683,-1.584049,-5.91745,44.59,71.82,4.48,1729424650270.0,0.0
-4.646862,-6.058627,-4.886144,12.53,52.5,5.74,1729424650290.0,0.0
-3.651447,-7.176075,-2.222932,24.639999,34.02,14.07,1729424650313.0,0.0
-3.976871,-6.257231,-1.957329,69.93,14.56,12.95,1729424650329.0,0.0
-4.106083,-4.393222,-7.022934,100.379997,-1.68,5.18,1729424650348.0,0.0
-3.024528,-5.510671,-10.317852,123.270004,-22.469999,15.82,1729424650368.0,0.0
-0.961915,-7.384251,-10.963913,134.190002,-42.279999,13.09,1729424650389.0,0.0
0.555135,-6.920043,-10.442278,103.18,-26.809999,5.46,1729424650412.0,0.0
-0.052642,-7.719246,-8.056634,81.199997,5.18,5.25,1729424650429.0,0.0
-1.129412,-7.121039,-7.477571,48.93,33.880001,-8.47,1729424650450.0,0.0
-2.155933,-5.139783,-6.98465,55.510002,44.59,3.85,1729424650470.0,0.0
-2.991028,-6.575477,-5.151747,96.389999,34.790001,18.34,1729424650489.0,0.0
-2.634498,-8.082954,-5.163712,141.259995,22.68,18.41,1729424650510.0,0.0
-2.261217,-6.786045,-2.732604,181.369995,5.6,33.18,1729424650529.0,0.0
-2.347359,-6.07777,-0.038285,147.910004,9.03,37.66,1729424650548.0,0.0
-2.359323,-7.188039,1.607977,57.330002,1.4,26.460001,1729424650571.0,0.0
-2.337788,-8.740981,0.641276,-34.860001,-25.48,16.24,1729424650590.0,0.0
-1.361516,-8.709875,-1.433301,-106.050003,-67.550003,8.54,1729424650610.0,0.0
-1.964507,-6.702296,-2.199004,-139.789993,-67.830002,0.28,1729424650629.0,0.0
-4.299902,-5.730811,-4.716253,-185.990005,-46.130001,-6.44,1729424650650.0,0.0
-6.592227,-9.111869,-8.712267,-199.570007,-15.33,-17.01,1729424650670.0,0.0
-6.01077,-8.193025,-13.804193,-177.869995,-28.49,-20.370001,1729424650690.0,0.0
-5.888737,-11.882757,-12.820745,5.74,-51.380001,11.62,1729424650710.0,0.0
-3.294917,-6.664011,-11.162518,115.989998,-47.950001,-3.99,1729424650729.0,0.0
-3.194418,-2.167897,-11.303694,143.639999,-11.13,30.870001,1729424650751.0,0.0
-4.821537,-5.245068,-11.940186,105.0,39.900002,23.379999,1729424650770.0,0.0
-5.608776,-8.427521,-11.349157,3.57,89.599998,-17.85,1729424650789.0,0.0
-5.922236,-9.035298,-9.690931,-22.960001,108.5,3.92,1729424650812.0,0.0
-4.524827,-8.745767,-7.207181,26.389999,93.169998,29.33,1729424650831.0,0.0
-2.713461,-6.13759,-6.34098,73.639999,87.150002,27.719999,1729424650849.0,0.0
-2.524428,-3.876373,0.387637,94.010002,115.360001,41.439999,1729424650870.0,0.0
-3.862016,-5.063213,8.204988,116.620003,113.400002,59.43,1729424650889.0,0.0
-3.785445,-4.127619,10.315458,64.400002,35.279999,55.439999,1729424650910.0,0.0
-3.28056,-8.329416,-0.935594,-13.09,-46.549999,27.790001,1729424650931.0,0.0
-4.649254,-8.123632,-7.037291,-119.279999,-52.290001,-11.2,1729424650949.0,0.0
-6.032306,-10.238889,-6.867401,-107.239998,-58.099998,-13.79,1729424650970.0,0.0
-4.878965,-12.064612,-8.55434,-80.290001,-122.779999,-48.580002,1729424650988.0,0.0
-1.799403,-3.931407,-4.656433,-88.900002,-182.490005,-57.049999,1729424651011.0,0.0
-3.333202,1.045663,-9.142976,-192.990005,-124.739998,1.54,1729424651030.0,0.0
-6.711867,-4.345366,-20.252851,-210.0,-1.75,-33.670002,1729424651050.0,0.0
-9.95175,-9.762716,-20.283957,-47.529999,103.389999,-14.35,1729424651068.0,0.0
-8.54477,-6.515656,-11.059627,129.639999,91.209999,63.279999,1729424651090.0,0.0
-2.9336,-1.830509,-10.691131,121.940002,7.21,66.849998,1729424651110.0,0.0
-1.875973,-5.168497,-3.627519,55.510002,63.700001,31.01,1729424651130.0,0.0
-2.35693,-6.884151,-5.371887,-3.57,112.07,7.14,1729424651148.0,0.0
-2.258825,-5.9342,-0.208176,7.28,90.790001,25.200001,1729424651175.0,0.0
-1.799403,-5.953342,0.66999,3.92,41.93,21.07,1729424651190.0,0.0
-1.87358,-7.776673,3.876373,-40.810001,-5.81,-9.59,1729424651223.0,0.0
-2.897708,-8.094919,-0.605384,-110.809998,-31.360001,-40.950001,1729424651230.0,0.0
-2.26361,-5.391029,-6.699903,-90.019997,-90.230003,-57.470001,1729424651249.0,0.0
-2.794817,-2.943172,-8.659625,-69.580002,-112.07,-56.0,1729424651268.0,0.0
-4.371687,-2.35693,-3.787838,-130.410004,-99.959999,-45.990002,1729424651290.0,0.0
-5.005785,-2.29711,-13.191631,-267.820007,-86.660004,-48.650002,1729424651310.0,0.0
-6.795617,-7.903493,-16.811972,-178.919998,-36.540001,-35.77,1729424651330.0,0.0
-7.877172,-6.910471,-16.50569,-21.0,19.6,-3.99,1729424651351.0,0.0
-6.915257,-2.880959,-9.47797,127.610001,16.450001,69.720001,1729424651368.0,0.0
-3.56052,1.964507,-9.647861,57.889999,15.68,74.620003,1729424651388.0,0.0
-3.412165,-0.885344,-9.454042,-36.610001,76.860001,90.510002,1729424651410.0,0.0
-3.615555,-9.276974,-7.463214,13.02,88.690002,98.840004,1729424651429.0,0.0
-1.725225,-9.827322,-2.665605,66.220001,51.939999,93.449997,1729424651449.0,0.0
-4.106083,-7.802995,3.67059,89.809998,43.330002,93.660004,1729424651469.0,0.0
-6.709475,-10.179067,3.072384,32.759998,6.37,13.3,1729424651491.0,0.0
-4.768896,-8.779266,-1.959722,10.15,-97.019997,-26.530001,1729424651512.0,0.0
-5.094319,-6.680761,-5.426922,54.459999,-129.220001,-42.98,1729424651529.0,0.0
-7.862815,-5.757132,-7.549356,21.629999,-122.639999,-68.669998,1729424651549.0,0.0
-9.253045,-1.304088,-13.586447,-178.919998,-118.230003,-75.18,1729424651569.0,0.0
-9.327222,-7.530212,-15.428921,-127.889999,-68.18,-29.469999,1729424651591.0,0.0
-5.869594,-0.251246,-14.931213,-90.650002,-10.71,-26.389999,1729424651611.0,0.0
-6.929615,-7.073184,-14.799608,164.779999,45.779999,41.860001,1729424651631.0,0.0
-4.603791,-4.926822,-7.094719,195.440002,56.91,10.85,1729424651651.0,0.0
-3.349952,-2.096112,-6.809973,156.589996,48.860001,32.41,1729424651672.0,0.0
-2.120041,-2.986243,-7.310073,119.07,38.779999,29.4,1729424651691.0,0.0
-2.146362,-2.210968,-9.712467,65.309998,82.18,39.689999,1729424651712.0,0.0
-4.180261,-4.448257,-6.733403,59.57,110.529999,65.379997,1729424651731.0,0.0
-4.63729,-6.613762,-3.4672,52.990002,92.68,59.290001,1729424651751.0,0.0
-4.656433,-8.551948,-1.801795,75.879997,63.630001,38.849998,1729424651771.0,0.0
-6.278766,-9.719646,1.201197,23.030001,43.68,-9.52,1729424651790.0,0.0
-5.723632,-9.499505,-0.239282,-90.090004,-0.07,-68.32,1729424651813.0,0.0
-4.448257,-7.831708,-2.701497,-72.519997,-63.139999,-81.900002,1729424651831.0,0.0
-5.206782,-4.424329,-6.991827,-3.22,-92.75,-97.650002,1729424651850.0,0.0
-5.481956,-3.938586,-6.999006,-59.639999,-94.779999,-122.43,1729424651870.0,0.0
-5.010571,-3.407379,-12.435498,-134.889999,-105.139999,-97.370003,1729424651894.0,0.0
-5.67099,-1.311267,-12.646068,-144.830002,-57.400002,-72.730003,1729424651912.0,0.0
-6.884151,0.227318,-14.668003,-102.550003,11.06,-29.889999,1729424651931.0,0.0
-7.977671,-5.099105,-10.829915,73.080002,55.650002,12.88,1729424651950.0,0.0
-6.474977,-5.733203,-5.886343,93.309998,67.620003,10.78,1729424651970.0,0.0
-4.280759,-4.945964,-6.71426,41.720001,46.759998,22.190001,1729424651991.0,0.0
-3.352344,-5.094319,-8.190632,14.63,66.150002,20.65,1729424652012.0,0.0
-3.582055,-2.538785,-7.757531,28.91,103.879997,36.470001,1729424652030.0,0.0
-4.208975,-3.888337,-3.974478,50.959999,108.080002,67.059998,1729424652052.0,0.0
-4.290331,-6.163911,1.124627,-12.67,85.82,54.389999,1729424652070.0,0.0
-4.864608,-13.227524,-0.09332,-111.510002,54.18,19.110001,1729424652090.0,0.0
-2.225325,-14.737395,-1.548156,-147.139999,-19.809999,-34.16,1729424652111.0,0.0
-0.655633,-10.997414,-4.644469,-19.040001,-85.470001,-49.630001,1729424652131.0,0.0
-0.909273,-6.71426,-7.04447,98.349998,-113.889999,-73.360001,1729424652150.0,0.0
-1.883151,-2.155933,-9.102298,56.700001,-104.090004,-85.75,1729424652170.0,0.0
-4.776074,-0.823131,-14.646468,-92.959999,-88.550003,-55.369999,1729424652190.0,0.0
-5.355137,-0.930808,-14.751752,-188.789993,-23.450001,-51.73,1729424652214.0,0.0
-7.68096,-1.902294,-18.144773,-90.93,40.389999,12.46,1729424652230.0,0.0
-7.618747,-7.688138,-10.358529,112.770004,63.349998,63.139999,1729424652252.0,0.0
-3.35713,-5.06082,-9.329616,85.050003,43.119999,58.099998,1729424652270.0,0.0
-2.519642,-4.414758,-8.602197,124.389999,65.169998,84.0,1729424652290.0,0.0
-4.228118,-2.928815,-3.462414,107.730003,111.93,63.490002,1729424652313.0,0.0
-6.893722,-5.879165,2.589034,28.42,96.809998,61.459999,1729424652331.0,0.0
-6.104091,-11.320443,2.033899,-99.050003,61.459999,12.46,1729424652350.0,0.0
-3.474378,-14.215759,2.079363,-125.720001,-30.030001,-14.07,1729424652370.0,0.0
-1.397408,-11.406586,-5.60399,17.43,-110.32,-49.279999,1729424652390.0,0.0
-1.086342,-8.267202,-9.492328,152.320007,-148.680008,-76.370003,1729424652411.0,0.0
-1.847259,-4.826324,-11.593226,132.649994,-130.550003,-75.32,1729424652432.0,0.0
-3.101098,-0.547956,-10.980663,-32.200001,-109.059998,-63.98,1729424652450.0,0.0
-4.208975,-4.780859,-10.368099,-187.039993,-90.790001,-64.959999,1729424652471.0,0.0
-4.424329,1.782653,-18.678373,-283.429993,-34.720001,-49.98,1729424652490.0,0.0
-8.001599,-4.608576,-18.869801,-37.869999,50.470001,24.219999,1729424652513.0,0.0
-7.372287,-9.32483,-6.369694,211.399994,131.600006,34.02,1729424652530.0,0.0
-4.503292,-7.467999,-6.07777,314.860016,49.07,79.379997,1729424652552.0,0.0
-2.392823,-5.709275,-11.310873,379.329987,47.810001,44.170002,1729424652570.0,0.0
-2.981457,-5.106283,-9.597611,449.049988,106.75,51.73,1729424652590.0,0.0
-4.587041,-3.742374,0.861416,438.130005,152.740005,49.490002,1729424652613.0,0.0
-4.888536,-1.971686,8.652447,301.070007,112.699997,33.18,1729424652630.0,0.0
-3.845266,-0.294317,8.159525,127.190002,6.23,17.08,1729424652649.0,0.0
-3.775874,-6.295516,1.615155,55.650002,-48.23,23.17,1729424652670.0,0.0
-3.498307,-10.607382,-1.758725,36.68,-70.699997,18.9,1729424652689.0,0.0
-1.90708,-10.427922,-4.945964,104.790001,-105.489998,18.200001,1729424652713.0,0.0
-1.844866,-12.394822,-6.410372,241.360001,-113.190002,47.529999,1729424652730.0,0.0
-4.859823,-14.837894,-4.759324,316.75,-34.02,46.34,1729424652752.0,0.0
-9.327222,-12.904492,-3.48395,280.209991,79.379997,19.879999,1729424652770.0,0.0
-9.992428,-8.874979,-0.638884,244.790009,89.809998,-4.9,1729424652790.0,0.0
-7.539784,-4.242475,3.806981,245.350006,49.139999,-3.99,1729424652811.0,0.0
-5.283352,-5.536992,2.579463,248.710007,37.66,-13.09,1729424652831.0,0.0
-4.76411,-7.951349,0.705883,202.649994,49.139999,-34.23,1729424652850.0,0.0
-5.788238,-8.590233,3.199204,194.529999,58.310001,-20.719999,1729424652869.0,0.0
-6.314659,-6.843473,7.051648,215.040009,43.189999,-49.98,1729424652890.0,0.0
-4.795217,-1.564906,8.946764,174.020004,33.740002,-33.32,1729424652911.0,0.0
-4.041477,3.54377,9.750752,87.010002,6.02,-0.21,1729424652931.0,0.0
-3.251846,3.412165,6.309873,-0.21,-50.75,35.349998,1729424652949.0,0.0
-4.692325,-1.344766,5.489135,-80.080002,-51.939999,48.790001,1729424652970.0,0.0
-5.190032,-5.740381,4.259224,-172.130005,-53.34,49.91,1729424652991.0,0.0
-4.474578,-11.712867,4.553542,-248.990005,-88.199997,30.73,1729424653013.0,0.0
-3.87398,-15.388243,-4.548756,-353.079987,-94.5,2.31,1729424653030.0,0.0
-3.404987,-21.102303,-8.322237,-326.970001,-69.230003,-15.26,1729424653049.0,0.0
-3.48395,-14.612967,-2.9671,-162.539993,-9.73,-26.389999,1729424653069.0,0.0
-5.833702,-8.226524,4.843073,84.629997,49.490002,28.91,1729424653091.0,0.0
-7.032506,-4.283153,6.80758,148.259995,73.080002,4.97,1729424653111.0,0.0
-7.762317,-2.22054,5.850451,29.610001,57.959999,-38.150002,1729424653130.0,0.0
-8.427521,1.421337,-0.387637,-258.299988,21.139999,-76.230003,1729424653150.0,0.0
-4.31426,0.81356,-2.361716,-599.47998,-6.3,-109.129997,1729424653170.0,0.0
-3.395415,-10.415956,0.859023,-772.940002,23.66,-100.309998,1729424653190.0,0.0
-1.933401,-15.608383,-1.935793,-529.76001,-66.989998,-62.580002,1729424653222.0,0.0
-1.789831,-10.07139,-3.589234,-309.329987,-88.970001,-66.290001,1729424653230.0,0.0
-1.48355,-5.529813,-9.863215,-189.419998,-74.900002,-58.380001,1729424653249.0,0.0
0.064606,-6.113662,-16.941183,-64.050003,-106.75,-41.790001,1729424653271.0,0.0
2.701497,-3.192025,-15.507884,-103.599998,-116.620003,-31.99,1729424653291.0,0.0
0.90688,-1.332802,-12.270394,-240.169998,7.28,-1.4,1729424653313.0,0.0
-4.24726,-7.441679,-8.472985,-298.480011,69.720001,1.12,1729424653330.0,0.0
-6.580262,-12.052648,-7.178468,-296.869995,64.330002,-32.060001,1729424653350.0,0.0
-6.072984,-11.176874,-7.496714,-131.669998,23.66,-37.029999,1729424653369.0,0.0
-4.938786,-6.448657,-9.126225,100.940002,-14.7,-4.83,1729424653390.0,0.0
-4.62054,-3.302095,-7.69771,159.110001,-8.47,-8.33,1729424653472.0,0.0
-6.879365,-3.101098,-6.982256,61.529999,43.889999,-1.05,1729424653472.0,0.0
-7.482357,-5.436492,-6.63769,-6.86,56.07,4.34,1729424653473.0,0.0
-5.843273,-5.534599,-6.13759,-9.73,34.650002,5.81,1729424653477.0,0.0
-2.957529,-4.838287,-3.854837,9.03,2.38,8.68,1729424653490.0,0.0
-1.574477,-6.23091,-1.251446,9.03,-13.02,6.23,1729424653512.0,0.0
-0.181855,-6.305088,-5.443672,13.02,-40.18,-6.3,1729424653529.0,0.0
-1.31366,-4.902894,-10.167104,44.59,-52.360001,5.95,1729424653549.0,0.0
-1.411765,-4.381258,-14.062619,67.900002,-64.120003,17.780001,1729424653569.0,0.0
-2.191825,-3.211168,-12.251251,85.260002,-56.139999,25.48,1729424653589.0,0.0
-4.072584,-2.567499,-7.676175,25.83,-3.29,20.860001,1729424653611.0,0.0
-7.298109,-4.512863,-7.625926,-46.27,38.290001,27.370001,1729424653630.0,0.0
-6.721439,-8.949157,-9.102298,-69.580002,37.310001,11.69,1729424653649.0,0.0
-4.424329,-8.870193,-11.923435,-17.99,26.25,5.53,1729424653670.0,0.0
-2.995814,-10.224532,-12.145968,71.82,49.139999,0.98,1729424653689.0,0.0
-3.881158,-8.669197,-6.216553,110.040001,73.849998,-7.42,1729424653711.0,0.0
-4.072584,-3.622734,1.691726,67.129997,53.830002,-0.56,1729424653730.0,0.0
-2.648855,-5.469993,3.59402,31.639999,-9.31,3.92,1729424653749.0,0.0
-3.584448,-1.765903,0.916451,-12.04,-34.09,-9.24,1729424653769.0,0.0
-5.099105,-0.617348,-4.843073,-23.17,-38.080002,27.370001,1729424653789.0,0.0
-2.981457,-5.785845,-10.454242,-24.57,-79.379997,31.99,1729424653811.0,0.0
-0.961915,-8.01117,-15.175282,-34.439999,-91.209999,16.030001,1729424653829.0,0.0
-2.172683,-5.053641,-14.947963,-51.310001,-27.16,19.950001,1729424653849.0,0.0
-5.891129,-8.166703,-10.068997,-79.940002,37.52,31.57,1729424653869.0,0.0
-2.079363,-11.416157,-7.9346,-105.489998,-4.2,-37.73,1729424653889.0,0.0
-2.067399,-10.394422,-11.710474,-20.65,13.51,-30.59,1729424653911.0,0.0
-4.943572,-8.652447,-9.336794,53.27,73.989998,-51.869999,1729424653934.0,0.0
-8.01117,-5.443672,-4.735396,72.519997,84.419998,-41.790001,1729424653949.0,0.0
-6.910471,-6.053841,-0.897308,38.849998,51.310001,-42.84,1729424653970.0,0.0
-6.034698,-6.912865,1.062413,20.65,17.43,-35.209999,1729424653989.0,0.0
-6.876972,-2.148755,0.368495,13.440001,17.290001,-44.59,1729424654011.0,0.0
-6.173482,0.758525,-2.019542,35.490002,-22.049999,14.28,1729424654029.0,0.0
-1.639083,-4.759324,-7.396214,51.799999,-109.199997,26.6,1729424654050.0,0.0
3.491128,-8.271988,-11.540584,-15.26,-134.259995,-12.32,1729424654069.0,0.0
2.708675,-6.975078,-15.347565,-43.610001,-68.389999,3.29,1729424654089.0,0.0
-0.380459,-3.428915,-15.046068,-25.620001,0.7,-4.55,1729424654111.0,0.0
-3.845266,-1.165305,-11.327622,-74.480003,44.52,-2.94,1729424654129.0,0.0
-4.962714,-4.981857,-7.9681,-117.529999,31.85,-11.62,1729424654162.0,0.0
-3.567699,-10.171888,-6.039484,-120.330002,4.2,-30.59,1729424654239.0,0.0
-3.426522,-9.083155,-10.360922,-80.080002,15.190001,-39.48,1729424654242.0,0.0
-7.161718,-5.120641,-10.167104,22.75,53.41,-35.279999,1729424654244.0,0.0
-8.126025,-2.239682,-6.960721,70.559998,68.040001,4.62,1729424654247.0,0.0
-6.391229,-4.957928,-4.553542,60.060001,51.450001,15.26,1729424654249.0,0.0
-4.881358,-5.912664,-3.517449,57.959999,41.93,14.42,1729424654267.0,0.0
-4.498507,-5.546563,-3.833302,99.260002,27.440001,27.65,1729424654289.0,0.0
-3.505485,-5.910272,-4.965107,124.18,-6.16,25.200001,1729424654310.0,0.0
-2.292324,-6.312266,-6.955935,117.459999,-22.610001,22.190001,1729424654328.0,0.0
-1.598405,-7.432107,-8.827123,114.169998,-19.950001,29.540001,1729424654349.0,0.0
-0.971486,-7.056434,-9.944571,111.020004,-9.8,28.98,1729424654368.0,0.0
-0.770489,-7.384251,-7.869993,102.620003,5.6,24.43,1729424654389.0,0.0
-0.595813,-6.881758,-7.855636,70.980003,24.57,21.35,1729424654409.0,0.0
-0.303888,-7.274181,-6.735795,91.489998,24.01,39.34,1729424654428.0,0.0
0.105284,-7.080362,-5.766702,105.0,31.57,46.130001,1729424654448.0,0.0
-0.27996,-8.181061,-0.078963,111.860001,49.349998,49.07,1729424654469.0,0.0
-1.962115,-9.84168,3.251846,71.889999,72.379997,32.41,1729424654488.0,0.0
-3.730411,-9.700503,4.735396,15.68,34.09,11.2,1729424654512.0,0.0
-4.761717,-7.960921,0.937986,-30.030001,-31.710001,2.66,1729424654530.0,0.0
-4.989035,-8.068598,-1.643869,-52.990002,-80.779999,-3.08,1729424654548.0,0.0
-4.208975,-5.618347,-7.034898,-59.43,-81.830002,2.1,1729424654569.0,0.0
-3.917051,-5.893522,-12.897314,10.57,-101.709999,37.029999,1729424654589.0,0.0
-3.115455,-8.128418,-15.749558,5.25,-87.150002,18.9,1729424654612.0,0.0
-4.208975,-7.269395,-15.89552,-60.27,0.42,10.36,1729424654631.0,0.0
-8.116454,-8.965906,-12.21536,-74.059998,109.199997,14.0,1729424654649.0,0.0
-10.722239,-7.532606,-15.227923,-37.380001,139.229996,-2.73,1729424654668.0,0.0
-9.60479,-8.961121,-11.210374,109.620003,92.330002,17.5,1729424654688.0,0.0
-5.223531,-6.802795,-7.846066,187.180008,29.610001,13.16,1729424654710.0,0.0
-2.634498,-5.15414,-4.809574,176.960007,41.93,9.1,1729424654729.0,0.0
-2.612962,-5.099105,-0.39003,115.43,102.970001,-1.05,1729424654748.0,0.0
-3.409772,-4.280759,1.804188,52.5,120.610001,-6.23,1729424654768.0,0.0
-2.378466,-2.400001,5.804988,20.370001,68.459999,18.969999,1729424654788.0,0.0
-1.021735,-4.508078,8.590233,2.87,2.31,38.57,1729424654813.0,0.0
-1.182054,-7.783852,6.13759,-66.779999,-49.420002,19.6,1729424654829.0,0.0
-3.598805,-10.231709,1.356731,-132.930008,-75.18,-1.4,1729424654849.0,0.0
-4.953143,-9.602397,-5.814559,-178.220001,-90.510002,-28.139999,1729424654870.0,0.0
-4.225725,-9.116654,-12.358929,-150.009995,-115.709999,-43.889999,1729424654889.0,0.0
-3.524628,-3.835695,-12.849458,-120.959999,-135.240005,-28.210001,1729424654912.0,0.0
-6.116055,-1.17009,-14.490934,-193.339996,-28.700001,-12.46,1729424654930.0,0.0
-8.633304,-7.322037,-19.65943,-165.059998,98.489998,-18.34,1729424654949.0,0.0
-10.325029,-14.086546,-14.679967,28.49,109.760002,0.98,1729424654969.0,0.0
-5.848059,-10.124033,-11.593226,194.600006,43.470001,31.710001,1729424654988.0,0.0
-1.921437,-3.476771,-11.52862,268.100006,11.62,60.760002,1729424655010.0,0.0
-0.722632,-1.141376,-4.419543,243.460007,81.410004,40.32,1729424655028.0,0.0
-2.773281,-2.328217,4.299902,126.0,141.820007,22.33,1729424655049.0,0.0
-5.386244,-6.288338,10.346564,-13.02,108.709999,11.06,1729424655069.0,0.0
-3.668197,-7.84128,7.350751,-92.400002,2.8,-5.95,1729424655087.0,0.0
-1.136591,-7.345965,0.318245,-63.420002,-96.32,-11.69,1729424655110.0,0.0
-0.612563,-7.74796,-4.431508,-18.549999,-124.529999,-14.77,1729424655128.0,0.0
-1.48355,-8.042276,-3.61077,-15.89,-98.209999,-9.17,1729424655147.0,0.0
-3.113062,-6.970293,-6.111269,-29.120001,-99.540001,-8.12,1729424655167.0,0.0
-4.378866,-7.286145,-8.879765,-97.090004,-118.440002,-27.370001,1729424655189.0,0.0
-5.486742,-5.168497,-16.898113,-232.960007,-86.099998,-42.07,1729424655212.0,0.0
-8.640482,-8.571091,-23.464018,-161.279999,77.139999,-35.77,1729424655228.0,0.0
-10.219746,-14.11526,-10.686346,83.019997,127.190002,6.93,1729424655249.0,0.0
-7.068398,-7.130611,-8.054241,188.020004,56.84,37.939999,1729424655268.0,0.0
-3.026921,-1.79701,-9.934999,241.080002,24.5,35.279999,1729424655287.0,0.0
-1.359123,1.667797,-9.918249,196.279999,101.080002,29.469999,1729424655313.0,0.0
-4.228118,-2.041078,-0.380459,136.5,177.729996,49.91,1729424655328.0,0.0
-8.262416,-5.04407,8.985049,33.740002,180.389999,48.02,1729424655347.0,0.0
-5.79063,-9.080762,6.223732,-25.83,76.090004,37.869999,1729424655368.0,0.0
-1.150948,-7.692925,6.819544,-36.259998,-28.77,26.74,1729424655391.0,0.0
-0.418744,-8.992228,4.019942,-23.52,-87.290001,18.27,1729424655410.0,0.0
-1.421337,-9.245867,-1.792224,-41.580002,-122.360001,-10.71,1729424655429.0,0.0
-2.816352,-11.114661,-6.135197,-50.049999,-128.029999,-18.620001,1729424655448.0,0.0
-2.59382,-9.559326,-5.807381,-69.300003,-153.020004,-42.630001,1729424655469.0,0.0
-4.259224,-4.359723,-9.006584,-125.510002,-150.360001,-41.16,1729424655488.0,0.0
-7.362715,-3.649055,-15.797415,-192.779999,-79.099998,-44.240002,1729424655513.0,0.0
-10.329816,-2.517249,-19.24308,-211.960007,54.740002,-38.57,1729424655528.0,0.0
-12.830315,-10.679168,-13.316057,-76.580002,102.900002,2.31,1729424655548.0,0.0
-3.445665,-6.943972,-8.295916,16.870001,-20.02,4.48,1729424655567.0,0.0
-1.282553,-4.144369,-7.118648,66.010002,-1.33,15.33,1729424655588.0,0.0
-1.988436,-2.878566,-6.707082,78.82,58.799999,-5.74,1729424655612.0,0.0
-3.658626,-1.51705,-5.754738,73.919998,77.07,14.63,1729424655628.0,0.0
-2.909672,-1.318445,-1.033699,-7.49,48.580002,26.6,1729424655648.0,0.0
-2.244468,-1.682154,-1.349552,-160.089996,27.51,21.35,1729424655669.0,0.0
-1.473979,-5.419744,-6.692725,-232.050003,22.610001,15.54,1729424655699.0,0.0
-2.203789,-11.229517,-5.388636,-164.639999,-4.27,13.37,1729424655710.0,0.0
-2.129612,-8.676375,-8.685946,-135.449997,-19.460001,-25.969999,1729424655728.0,0.0
-3.680161,-5.534599,-10.025927,-101.43,-20.09,-4.9,1729424655747.0,0.0
-3.601198,-1.512264,-8.427521,-109.900002,-11.97,-9.03,1729424655768.0,0.0
-3.438486,-1.56012,-9.142976,-86.449997,-21.49,13.86,1729424655788.0,0.0
-3.510271,-4.816752,-11.157731,-74.690002,-13.02,12.95,1729424655811.0,0.0
-3.299703,-9.475577,-11.937792,-112.980003,6.44,-14.07,1729424655829.0,0.0
-3.239882,-10.542776,-9.159724,-124.879997,-0.35,-22.610001,1729424655849.0,0.0
-3.878766,-5.13739,-6.649654,-84.349998,12.74,-36.540001,1729424655868.0,0.0
-6.783652,-2.727818,-5.836094,-42.07,14.98,-23.73,1729424655890.0,0.0
-4.941179,-3.352344,-8.23131,27.02,-19.389999,-13.23,1729424655911.0,0.0
-3.768696,-2.545963,-9.006584,28.84,-23.379999,2.1,1729424655928.0,0.0
-6.367301,-5.886343,-6.958328,-13.93,15.190001,5.95,1729424655948.0,0.0
-7.960921,-8.279166,-5.900701,-49.209999,20.860001,-18.41,1729424655976.0,0.0
-6.302694,-8.274381,-5.525027,-27.23,-13.51,-36.330002,1729424655988.0,0.0
-3.682554,-4.35733,-6.190232,23.799999,-43.82,-43.82,1729424656011.0,0.0
-3.342773,-2.840281,-6.695118,60.41,-47.25,-42.490002,1729424656028.0,0.0
-4.005585,-2.902494,-6.326623,49.630001,-45.080002,-49.07,1729424656047.0,0.0
-4.438686,-3.158526,-8.204988,29.469999,-56.139999,-50.189999,1729424656069.0,0.0
-4.419543,-3.479164,-11.045268,18.48,-67.900002,-48.23,1729424656088.0,0.0
-4.677969,-3.452843,-9.707682,-29.4,-60.619999,-57.119999,1729424656113.0,0.0
-4.275974,-2.426322,-12.303895,-60.27,-52.150002,-48.860001,1729424656129.0,0.0
-4.158726,0.4666,-9.734003,-53.130001,-35.490002,-29.889999,1729424656148.0,0.0
-4.795217,0.959522,-16.730616,-27.02,7.0,-0.07,1729424656168.0,0.0
-6.405586,-1.440479,-13.864014,37.240002,60.689999,36.959999,1729424656188.0,0.0
-5.345565,-3.689733,-7.726424,12.88,57.610001,59.360001,1729424656217.0,0.0
-1.318445,-6.862615,-9.88475,-7.56,37.66,61.740002,1729424656228.0,0.0
-2.742175,-4.627719,-9.97807,80.220001,95.550003,55.09,1729424656248.0,0.0
-5.594419,-3.058028,-6.472585,139.860001,111.860001,72.239998,1729424656270.0,0.0
-6.556334,-5.142176,-3.895515,81.760002,93.379997,57.119999,1729424656288.0,0.0
-5.350351,-10.581062,-0.217747,23.450001,57.470001,21.0,1729424656311.0,0.0
-2.268396,-10.167104,-0.157926,-6.16,-6.3,-27.58,1729424656329.0,0.0
-1.663012,-5.359922,-5.096712,55.439999,-47.810001,-55.720001,1729424656349.0,0.0
-3.713661,-3.524628,-8.248059,119.279999,-47.810001,-71.050003,1729424656369.0,0.0
-4.254438,-2.084148,-9.633504,92.540001,-53.970001,-63.630001,1729424656388.0,0.0
-3.957729,-2.029114,-8.532805,59.990002,-77.0,-43.330002,1729424656409.0,0.0
-3.57727,-3.608376,-8.190632,7.63,-71.75,-42.630001,1729424656428.0,0.0
-3.103491,-3.192025,-12.454641,-51.52,-47.880001,-40.389999,1729424656450.0,0.0
-3.165704,-0.90688,-9.310472,-28.77,-37.450001,-7.63,1729424656467.0,0.0
-4.249653,-3.120241,-6.276374,4.13,-15.96,7.91,1729424656489.0,0.0
-4.383651,-5.87438,-6.546762,-10.78,-28.0,0.42,1729424656510.0,0.0
-4.555934,-8.827123,-8.13799,25.620001,-31.780001,-2.73,1729424656529.0,0.0
-4.814359,-10.267602,-8.638089,99.260002,-26.6,-12.67,1729424656547.0,0.0
-5.15414,-10.676775,-10.913664,199.990005,-35.420002,-17.57,1729424656568.0,0.0
-4.532006,-9.509077,-9.382257,293.790009,-55.580002,-17.639999,1729424656589.0,0.0
-3.711268,-5.458029,-6.920043,294.279999,-52.57,-5.39,1729424656609.0,0.0
-3.931407,-4.673182,-6.608976,304.779999,-30.24,11.34,1729424656629.0,0.0
-4.223332,-6.970293,-4.59422,252.839996,6.23,-2.31,1729424656647.0,0.0
-4.804788,-7.977671,-2.730211,163.449997,52.290001,-9.45,1729424656668.0,0.0
-6.192625,-10.021141,-1.844866,148.680008,68.389999,-1.54,1729424656692.0,0.0
-6.405586,-10.370493,-0.009571,191.449997,40.670002,-2.87,1729424656720.0,0.0
-5.745167,-8.973085,0.701097,244.509995,11.34,3.57,1729424656728.0,0.0
-4.821537,-8.248059,0.184247,267.329987,-2.87,-0.35,1729424656749.0,0.0
-4.134798,-7.690532,-0.885344,232.75,2.66,-10.57,1729424656769.0,0.0
-4.366901,-8.834301,-0.538385,203.070007,15.61,-9.94,1729424656790.0,0.0
-4.486543,-8.843873,1.792224,198.169998,23.1,-13.23,1729424656809.0,0.0
-4.768896,-8.752945,4.632504,197.399994,18.27,-12.88,1729424656829.0,0.0
-5.264209,-12.96192,1.440479,200.759995,7.07,-20.370001,1729424656849.0,0.0
-4.386044,-8.882158,-0.232104,259.559998,-1.89,-34.02,1729424656870.0,0.0
-4.328616,-2.646462,3.598805,366.170013,22.469999,13.440001,1729424656887.0,0.0
-4.651647,-2.029114,3.498307,237.580002,44.170002,-2.03,1729424656909.0,0.0
-5.481956,-6.221339,5.163712,-32.619999,36.259998,-30.309999,1729424656929.0,0.0
-5.209175,-9.485149,3.656233,-87.779999,15.68,-30.450001,1729424656947.0,0.0
-3.18724,-9.059227,3.56052,-69.93,8.05,-32.200001,1729424656968.0,0.0
-3.672983,-10.526026,4.704289,-16.309999,10.57,-15.4,1729424656988.0,0.0
-4.208975,-8.154739,3.464807,40.880001,17.360001,-24.290001,1729424657011.0,0.0
-4.742575,-7.721639,3.04367,72.449997,14.63,-26.809999,1729424657030.0,0.0
-4.697111,-8.999406,5.300103,30.309999,12.04,-33.32,1729424657048.0,0.0
-4.175476,-7.89153,3.266203,-62.510002,24.780001,-62.93,1729424657068.0,0.0
-3.096312,-4.974678,3.347559,-144.410004,18.200001,-63.209999,1729424657087.0,0.0
-2.581856,-3.759124,4.713861,-234.710007,21.98,-51.59,1729424657110.0,0.0
-2.900101,-4.955536,3.960121,-325.079987,13.37,-50.82,1729424657127.0,0.0
-3.431308,-8.140383,2.871387,-312.269989,-21.07,-38.709999,1729424657147.0,0.0
-4.070191,-10.461421,1.105484,-253.540009,-35.700001,-20.719999,1729424657167.0,0.0
-3.866802,-10.116854,0.071785,-182.630005,-42.209999,-18.76,1729424657189.0,0.0
-3.608376,-9.260223,-0.90688,-148.820007,-52.639999,-12.88,1729424657212.0,0.0
-3.081956,-8.059027,-2.818745,-156.729996,-59.639999,-12.18,1729424657230.0,0.0
-2.309074,-9.207582,-3.672983,-213.990005,-54.599998,-17.5,1729424657246.0,0.0
-1.272982,-10.774881,-3.409772,-258.579987,-49.84,-30.450001,1729424657267.0,0.0
-0.282353,-10.34178,-2.916851,-273.0,-37.939999,-40.459999,1729424657290.0,0.0
0.062213,-8.209774,-3.531806,-262.149994,-24.219999,-38.639999,1729424657310.0,0.0
-0.437887,-6.575477,-4.31426,-263.059998,-13.51,-28.07,1729424657329.0,0.0
-3.416951,-8.073383,-5.158926,-285.459991,17.15,-19.67,1729424657348.0,0.0
-4.876573,-7.898707,-6.67119,-225.75,31.710001,-32.689999,1729424657367.0,0.0
-7.063612,-5.845665,-8.360522,-202.860001,38.009998,-11.83,1729424657389.0,0.0
-7.530212,-8.147561,-10.080962,-159.389999,24.15,-9.31,1729424657410.0,0.0
-5.812167,-7.15454,-9.449257,-142.869995,-0.84,-15.12,1729424657427.0,0.0
-4.998606,-5.20439,-9.970891,-89.669998,11.2,6.86,1729424657447.0,0.0
-4.838287,-4.800002,-9.066404,-49.700001,29.26,12.39,1729424657468.0,0.0
-4.031906,-4.307081,-7.345965,-41.580002,23.59,11.55,1729424657487.0,0.0
-2.024328,-5.410172,-3.237489,-58.799999,-11.34,14.7,1729424657510.0,0.0
2.277967,-8.501699,-4.527221,-89.25,-39.200001,2.87,1729424657529.0,0.0
3.215954,-9.475577,-4.627719,-36.330002,-52.080002,-2.59,1729424657547.0,0.0
-0.598206,-6.814759,-6.501299,-36.330002,-2.87,-21.629999,1729424657566.0,0.0
-2.136791,-3.215954,-8.331808,54.670002,-28.84,3.78,1729424657588.0,0.0
-2.136791,-7.738388,-8.595018,51.73,-72.099998,-6.79,1729424657609.0,0.0
0.167498,-8.037491,-9.645468,43.68,-59.150002,-18.41,1729424657629.0,0.0
-2.9671,-6.111269,-10.164711,88.340004,-19.879999,-7.84,1729424657647.0,0.0
-6.135197,-0.985843,-11.578869,37.73,17.85,-7.49,1729424657667.0,0.0
-8.030313,-0.098106,-10.817951,-34.790001,42.98,21.0,1729424657687.0,0.0
-5.860023,-6.374479,-9.176475,-35.84,25.620001,25.34,1729424657709.0,0.0
-2.184647,-9.812965,-8.980263,-14.21,-8.61,9.94,1729424657727.0,0.0
-2.009971,-8.319844,-8.762517,16.379999,33.880001,19.18,1729424657748.0,0.0
-3.988836,-4.570292,-6.814759,26.040001,72.519997,6.79,1729424657769.0,0.0
-6.369694,-4.036692,-2.864209,-2.38,56.560001,7.35,1729424657787.0,0.0
-3.929015,-6.52762,0.923629,-49.209999,-17.219999,-2.52,1729424657808.0,0.0
-4.082155,-5.783452,-1.761117,-33.110001,-48.299999,-7.21,1729424657829.0,0.0
-4.677969,-0.212961,-5.103891,-33.110001,-43.470001,4.13,1729424657846.0,0.0
-2.660819,-4.536791,-8.810372,3.29,-96.32,26.040001,1729424657867.0,0.0
0.643669,-8.202596,-13.014563,-27.719999,-119.489998,-0.77,1729424657886.0,0.0
-2.105684,-1.205983,-14.258829,-29.4,-46.200001,20.790001,1729424657908.0,0.0
-5.063213,-2.895315,-10.171888,-28.0,54.950001,49.700001,1729424657927.0,0.0
-2.057827,-11.126624,-8.903693,-39.689999,-5.88,6.72,1729424657950.0,0.0
-0.70349,-11.160125,-10.628918,-38.57,-1.75,0.98,1729424657967.0,0.0
-4.091727,-6.611369,-8.587841,18.129999,63.84,-16.379999,1729424657987.0,0.0
-7.65464,-4.65404,-7.590034,35.560001,79.800003,-24.92,1729424658016.0,0.0
-7.948956,-6.826723,-1.502693,-9.73,49.139999,-21.35,1729424658029.0,0.0
-4.953143,-8.973085,1.962115,-29.960001,-7.56,-8.61,1729424658047.0,0.0
-4.929214,-3.369094,-2.273181,31.57,-21.629999,-11.62,1729424658068.0,0.0
-5.268995,1.409373,-7.121039,101.57,-33.389999,38.57,1729424658087.0,0.0
-2.045863,-6.058627,-8.867801,117.25,-99.050003,54.880001,1729424658108.0,0.0
1.562513,-7.683353,-12.612568,30.380001,-95.059998,28.49,1729424658127.0,0.0
0.040678,-6.515656,-13.497912,42.490002,-36.049999,46.619999,1729424658147.0,0.0
-2.59382,-2.431108,-13.165311,51.029999,18.41,26.6,1729424658168.0,0.0
-4.527221,-3.536592,-11.200804,15.12,34.580002,26.110001,1729424658188.0,0.0
-2.864209,-9.468399,-9.848858,-53.27,23.17,-12.88,1729424658211.0,0.0
-2.885744,-10.959127,-10.073784,-52.080002,32.200001,-22.610001,1729424658228.0,0.0
-6.786045,-6.936793,-9.064013,18.129999,74.970001,-33.810001,1729424658247.0,0.0
-9.439686,-4.663611,-5.374279,35.279999,95.480003,-30.52,1729424658267.0,0.0
-6.78126,-4.493721,-0.457029,-7.14,43.330002,-25.41,1729424658288.0,0.0
-4.424329,-7.700103,1.256232,-0.14,-3.57,-16.030001,1729424658309.0,0.0
-4.510471,-5.113462,-0.282353,-5.04,3.92,-29.540001,1729424658328.0,0.0
-4.642076,-0.418744,-1.85683,-6.58,-9.17,10.01,1729424658346.0,0.0
-2.007578,-4.754539,-5.623133,14.28,-86.590004,30.799999,1729424658367.0,0.0
1.68694,-6.178268,-9.348758,-25.48,-110.949997,0.77,1729424658389.0,0.0
0.418744,-7.556533,-11.956935,-38.5,-66.150002,13.65,1729424658480.0,0.0
-1.756332,-4.065405,-9.580862,-25.690001,-34.580002,1.05,1729424658483.0,0.0
-4.103691,-1.586441,-11.320443,-31.710001,-40.950001,6.86,1729424658488.0,0.0
-4.252046,-1.651048,-12.753745,-68.879997,-34.509998,-0.28,1729424658492.0,0.0
-5.812167,-5.651847,-11.016556,-93.800003,25.76,4.83,1729424658495.0,0.0
-7.415358,-9.678967,-11.002198,-72.169998,45.920002,-11.97,1729424658508.0,0.0
-6.745367,-8.260024,-10.892128,7.84,32.48,-0.91,1729424658527.0,0.0
-7.087541,-6.525227,-8.889337,95.550003,51.450001,2.31,1729424658547.0,0.0
-7.082755,-4.907679,-7.149754,105.840004,68.389999,3.43,1729424658567.0,0.0
-4.685147,-3.948158,0.808774,87.779999,42.98,10.5,1729424658587.0,0.0
-2.713461,-7.69771,1.85683,38.57,-0.35,15.96,1729424658609.0,0.0
-2.775674,-8.147561,-0.794417,65.169998,-18.34,0.98,1729424658627.0,0.0
-2.711068,-2.976671,-6.58744,128.800003,-27.299999,16.17,1729424658646.0,0.0
-2.502892,-3.570091,-8.628519,197.190002,-57.189999,72.519997,1729424658667.0,0.0
-1.995614,-9.090333,-8.422735,206.850006,-82.809998,57.400002,1729424658686.0,0.0
-1.026521,-10.559525,-11.078769,157.779999,-71.540001,9.31,1729424658708.0,0.0
-1.744368,-5.795416,-11.389835,135.660004,-16.1,29.960001,1729424658731.0,0.0
-4.888536,-7.15454,-8.283953,148.680008,28.07,60.200001,1729424658747.0,0.0
-6.319445,-8.10449,-6.271588,73.779999,52.009998,14.14,1729424658766.0,0.0
-7.094719,-10.69831,-6.494121,70.559998,56.0,-9.38,1729424658787.0,0.0
-7.831708,-12.210573,-8.537591,184.029999,64.120003,17.219999,1729424658808.0,0.0
-8.305488,-13.694124,-8.504091,410.549988,67.410004,43.049999,1729424658827.0,0.0
-7.74796,-7.709675,-5.362316,567.280029,61.599998,28.0,1729424658847.0,0.0
-7.503892,-0.741775,2.612962,603.330017,67.269997,29.469999,1729424658866.0,0.0
-9.779467,6.79083,14.555541,517.859985,34.93,51.029999,1729424658886.0,0.0
-7.106683,5.793024,9.607183,301.209991,-68.32,54.740002,1729424658908.0,0.0
-1.043271,-2.579463,1.813759,0.7,-119.139999,19.389999,1729424658937.0,0.0
-0.090927,-9.06162,-0.215354,-242.479996,-71.959999,41.369999,1729424658946.0,0.0
-0.971486,-12.641282,-2.512464,-270.829987,-32.48,45.920002,1729424658967.0,0.0
-3.507878,-17.194822,-3.254239,-149.520004,-10.92,40.389999,1729424658988.0,0.0
-4.733003,-16.043877,-4.496114,-20.299999,4.06,8.33,1729424659007.0,0.0
-7.305287,-12.693924,-0.66999,114.239998,37.799999,19.879999,1729424659027.0,0.0
-8.408379,-10.549955,-0.715454,172.830002,76.510002,10.92,1729424659046.0,0.0
-7.556533,-9.090333,0.165105,167.580002,67.480003,-16.66,1729424659066.0,0.0
-6.776474,-9.870394,1.715654,141.820007,56.07,-48.16,1729424659088.0,0.0
-6.912865,-9.690931,1.007378,105.279999,67.129997,-75.18,1729424659108.0,0.0
-7.484749,-9.602397,3.598805,104.720001,71.889999,-85.400002,1729424659127.0,0.0
-5.936593,-4.706682,6.719046,84.209999,47.389999,-77.349998,1729424659147.0,0.0
-2.931208,3.333202,6.970293,90.510002,1.54,-34.439999,1729424659166.0,0.0
-1.227518,6.262017,6.429514,149.520004,-43.330002,30.66,1729424659186.0,0.0
-1.375873,2.608176,8.468199,149.520004,-38.57,53.41,1729424659212.0,0.0
-4.036692,-4.59422,6.647261,91.07,-1.54,79.590004,1729424659323.0,0.0
-5.536992,-11.215159,4.249653,15.75,9.8,80.989998,1729424659324.0,0.0
-4.065405,-10.987842,2.050649,-131.529999,-42.279999,69.230003,1729424659326.0,0.0
-4.591826,-10.648061,0.284746,-124.040001,-37.799999,77.980003,1729424659327.0,0.0
-7.269395,-12.636496,-4.254438,-126.419998,18.34,43.259998,1729424659327.0,0.0
-11.983256,-22.561926,-3.926622,-51.240002,63.98,-25.129999,1729424659453.0,0.0
-13.55534,-22.729424,0.421137,57.959999,77.629997,-119.980003,1729424659455.0,0.0
-9.741181,-12.282358,0.200997,178.850006,59.290001,-75.25,1729424659455.0,0.0
-6.809973,-7.580462,1.631905,248.779999,26.110001,-81.830002,1729424659455.0,0.0
-3.885944,-4.677969,0.119641,224.210007,15.26,-134.190002,1729424659455.0,0.0
-1.976472,1.9669,5.886343,146.509995,22.889999,-134.399994,1729424659455.0,0.0
-0.526421,14.656039,11.906685,75.669998,34.93,-57.260002,1729424659456.0,0.0
-1.043271,10.435099,13.03849,93.519997,-25.200001,47.740002,1729424659466.0,0.0
-3.871587,1.627119,10.224532,-34.650002,-49.84,61.25,1729424659486.0,0.0
-6.723832,-4.23051,6.240481,-148.889999,-44.380001,65.029999,1729424659513.0,0.0
-7.67139,-10.124033,2.600998,-185.710007,-56.279999,76.370003,1729424659526.0,0.0
