acc_x,acc_y,acc_z,gyr_x,gyr_y,gyr_z,timestamp,label
-1.682154,-5.9342,-6.159126,154.630005,36.470001,32.970001,1729474983265.0,0.0
-1.229911,-6.996613,-6.979864,178.289993,10.78,34.860001,1729474983267.0,0.0
-1.990828,-5.15414,-4.350152,192.570007,34.93,34.93,1729474983268.0,0.0
-2.995814,-5.819345,-2.9336,207.619995,35.91,42.84,1729474983279.0,0.0
-3.168097,-6.867401,-3.335595,156.100006,-0.28,39.830002,1729474983300.0,0.0
-2.883351,-7.652246,-4.225725,61.670002,-25.76,31.219999,1729474983320.0,0.0
-2.414358,-8.176274,-5.63749,-17.57,-36.610001,22.540001,1729474983339.0,0.0
-2.208575,-8.867801,-6.898508,-30.52,-35.700001,22.469999,1729474983359.0,0.0
-2.277967,-9.377472,-7.575676,10.64,-22.33,25.969999,1729474983379.0,0.0
-2.512464,-8.676375,-7.568498,54.18,-5.74,22.82,1729474983399.0,0.0
-2.744568,-8.250452,-7.082755,77.489998,11.55,21.629999,1729474983420.0,0.0
-2.904887,-8.405986,-6.932007,74.830002,20.370001,21.77,1729474983439.0,0.0
-2.854637,-8.396415,-6.290731,67.199997,25.059999,19.389999,1729474983459.0,0.0
-2.612962,-8.441878,-5.915058,67.199997,24.15,17.15,1729474983480.0,0.0
-2.347359,-8.135597,-5.678168,60.760002,18.969999,12.46,1729474983499.0,0.0
-2.392823,-7.724032,-5.369494,44.029999,23.030001,8.4,1729474983520.0,0.0
-2.699104,-7.568498,-5.223531,24.99,27.440001,7.7,1729474983540.0,0.0
-2.837888,-7.848458,-5.388636,14.35,25.549999,7.91,1729474983559.0,0.0
-2.76371,-8.075776,-5.134997,7.56,21.280001,8.19,1729474983579.0,0.0
-2.734996,-8.327023,-4.948357,5.39,22.33,8.82,1729474983600.0,0.0
-2.895315,-8.343772,-4.991428,2.24,22.540001,7.98,1729474983620.0,0.0
-2.931208,-8.178668,-5.032106,-6.58,23.450001,5.88,1729474983640.0,0.0
-2.940779,-8.295916,-5.053641,-15.89,20.719999,6.72,1729474983659.0,0.0
-2.854637,-8.583055,-5.20439,-18.41,17.360001,7.28,1729474983679.0,0.0
-2.98385,-8.822337,-5.190032,-9.8,17.639999,8.54,1729474983699.0,0.0
-3.110669,-8.867801,-5.056034,-3.64,15.89,7.7,1729474983720.0,0.0
-3.208775,-8.62134,-5.173282,-5.46,11.41,5.18,1729474983739.0,0.0
-3.110669,-8.312666,-5.249853,-13.02,6.02,2.87,1729474983760.0,0.0
-2.792424,-8.250452,-5.364708,-20.860001,-0.28,0.21,1729474983781.0,0.0
-2.340181,-8.41795,-5.446064,-23.24,-4.55,-1.19,1729474983800.0,0.0
-2.069792,-8.408379,-5.312066,-16.59,-2.8,-2.45,1729474983821.0,0.0
-2.096112,-8.334201,-5.017749,-3.43,2.31,-2.8,1729474983840.0,0.0
-2.15354,-8.202596,-4.886144,8.75,4.34,-2.59,1729474983859.0,0.0
-2.342573,-7.929814,-4.965107,12.11,3.5,-2.8,1729474983881.0,0.0
-2.438286,-7.881958,-4.981857,5.88,0.56,-2.87,1729474983901.0,0.0
-2.474179,-8.102098,-5.056034,-6.65,-3.64,-3.57,1729474983920.0,0.0
-2.581856,-8.166703,-5.058427,-5.74,-3.64,-5.46,1729474983939.0,0.0
-2.737389,-8.12124,-4.972286,1.12,-2.31,-6.65,1729474983960.0,0.0
-2.902494,-7.99442,-4.869394,5.11,-1.54,-6.93,1729474983980.0,0.0
-3.026921,-7.932207,-4.862216,0.07,-1.54,-7.56,1729474984000.0,0.0
-3.019742,-7.951349,-4.704289,-10.85,-2.8,-7.28,1729474984021.0,0.0
-2.895315,-8.078169,-4.771288,-22.26,-5.67,-6.44,1729474984041.0,0.0
-2.871387,-8.161918,-4.883751,-28.98,-7.42,-5.88,1729474984058.0,0.0
-2.89053,-8.169096,-5.015356,-30.1,-6.51,-6.79,1729474984081.0,0.0
-2.778067,-8.181061,-5.146961,-25.34,-7.28,-7.49,1729474984100.0,0.0
-2.68714,-8.099705,-5.290531,-17.219999,-7.21,-7.49,1729474984120.0,0.0
-2.562713,-7.829315,-5.321638,-8.89,-4.76,-8.33,1729474984139.0,0.0
-2.340181,-7.523034,-5.335995,-6.44,-3.99,-8.12,1729474984160.0,0.0
-2.038685,-7.334002,-5.28096,-12.95,-6.02,-6.37,1729474984179.0,0.0
-1.981257,-7.496714,-5.391029,-22.82,-4.97,-4.41,1729474984200.0,0.0
-2.256432,-7.781459,-5.584848,-31.360001,-0.49,-3.71,1729474984222.0,0.0
-2.160719,-7.563712,-6.197411,-35.420002,2.52,-3.43,1729474984240.0,0.0
-1.514657,-7.156933,-6.30748,-44.59,-11.9,4.41,1729474984261.0,0.0
-0.571885,-7.32443,-7.523034,-74.340004,-26.530001,4.06,1729474984280.0,0.0
1.071985,-8.015956,-10.616954,-118.300003,-53.549999,3.99,1729474984300.0,0.0
3.711268,-8.047063,-12.698709,-162.889999,-49.84,9.87,1729474984326.0,0.0
4.666004,-8.271988,-13.655839,-182.699997,18.34,7.49,1729474984339.0,0.0
2.517249,-9.040084,-13.222737,-156.520004,96.529999,-2.38,1729474984360.0,0.0
-0.301496,-9.353544,-12.043077,-85.959999,134.889999,-11.69,1729474984381.0,0.0
-1.9669,-7.915457,-10.614561,-14.14,143.430008,-19.25,1729474984399.0,0.0
-2.955136,-6.558727,-9.561719,29.190001,139.649994,-25.34,1729474984422.0,0.0
-3.302095,-5.15414,-8.525627,22.120001,132.930008,-35.560001,1729474984441.0,0.0
-3.5007,-4.455436,-7.118648,-6.16,122.919998,-37.099998,1729474984459.0,0.0
-3.503092,-5.237889,-5.778666,-30.24,104.510002,-33.599998,1729474984480.0,0.0
-3.012564,-5.943772,-5.235496,-29.610001,74.410004,-28.84,1729474984499.0,0.0
-2.632105,-5.809773,-4.821537,5.53,43.610001,-22.68,1729474984521.0,0.0
-3.184847,-5.067998,-5.096712,26.67,33.950001,-20.23,1729474984540.0,0.0
-3.503092,-4.06062,-5.69731,-9.87,29.75,-20.23,1729474984559.0,0.0
-3.275774,-4.570292,-6.707082,-92.050003,3.15,-13.65,1729474984580.0,0.0
-3.239882,-6.348158,-7.101898,-101.709999,0.7,-6.58,1729474984599.0,0.0
-2.902494,-6.661618,-7.518249,-56.279999,-0.42,-2.87,1729474984620.0,0.0
-2.275574,-5.271388,-7.556533,-13.23,-1.4,-3.22,1729474984639.0,0.0
-2.17029,-4.567898,-7.889136,-17.99,-0.84,-5.88,1729474984659.0,0.0
-2.230111,-5.182854,-7.960921,-46.900002,1.89,-6.51,1729474984679.0,0.0
-1.426122,-5.769095,-8.30788,-47.529999,-3.36,-6.58,1729474984699.0,0.0
-0.504886,-5.608776,-8.575876,-10.57,-9.38,-4.55,1729474984719.0,0.0
-0.425922,-4.989035,-8.611769,14.42,-3.15,-4.62,1729474984740.0,0.0
-0.818345,-4.59422,-7.692925,9.87,0.42,-6.58,1729474984759.0,0.0
-0.947558,-4.065405,-7.532606,-4.41,-6.72,-7.07,1729474984778.0,0.0
-0.784846,-4.364508,-8.073383,-7.98,-14.49,-1.89,1729474984800.0,0.0
-0.602991,-4.618148,-8.377272,-7.21,-14.91,1.82,1729474984819.0,0.0
-0.413958,-4.682754,-8.886944,-0.35,-15.26,3.36,1729474984839.0,0.0
-0.301496,-5.034499,-9.205189,-2.66,-17.639999,3.08,1729474984861.0,0.0
-0.519243,-5.166104,-8.913264,-15.89,-12.6,-2.52,1729474984878.0,0.0
-0.162712,-4.922036,-9.946963,-13.37,-16.870001,-5.67,1729474984898.0,0.0
-0.729811,-5.326423,-9.595219,-11.06,-6.72,-7.56,1729474984921.0,0.0
-0.911665,-5.312066,-9.200402,-3.43,-4.48,-7.49,1729474984941.0,0.0
-1.002593,-5.314459,-9.001799,11.13,-4.97,-6.16,1729474984958.0,0.0
-1.462015,-5.599205,-8.77448,25.549999,1.19,-4.69,1729474984980.0,0.0
-1.794617,-5.735595,-8.51127,37.099998,2.87,-4.41,1729474985000.0,0.0
-2.005185,-5.558527,-8.439486,36.610001,2.73,-6.37,1729474985020.0,0.0
-2.079363,-5.458029,-8.60459,25.76,0.21,-7.14,1729474985045.0,0.0
-1.811367,-5.71406,-8.4012,24.99,-1.89,-5.81,1729474985059.0,0.0
-1.543371,-6.02752,-8.236095,35.490002,-1.05,-4.9,1729474985080.0,0.0
-1.37348,-5.869594,-8.233703,52.220001,4.2,-5.18,1729474985100.0,0.0
-1.447658,-5.335995,-8.145168,61.740002,7.42,-5.67,1729474985122.0,0.0
-1.507478,-5.178068,-7.546963,52.779999,12.39,-8.4,1729474985140.0,0.0
-1.237089,-5.458029,-7.587641,33.389999,7.63,-11.55,1729474985158.0,0.0
-0.624527,-5.979663,-8.592626,27.02,-8.33,-12.25,1729474985180.0,0.0
-0.459422,-5.922236,-9.047262,22.610001,-11.34,-13.3,1729474985200.0,0.0
-1.086342,-5.300103,-8.26481,12.11,7.21,-15.89,1729474985222.0,0.0
-2.086541,-6.116055,-8.114061,4.48,17.780001,-16.030001,1729474985239.0,0.0
-1.40698,-6.695118,-8.394022,9.94,0.56,-17.99,1729474985258.0,0.0
-0.650848,-6.522834,-8.863015,19.67,-11.9,-18.549999,1729474985280.0,0.0
-0.638884,-5.900701,-8.472985,17.92,-5.25,-21.139999,1729474985298.0,0.0
-1.387837,-5.536992,-7.578069,3.43,8.47,-22.540001,1729474985322.0,0.0
-1.9669,-6.178268,-7.520642,-6.51,8.33,-20.790001,1729474985338.0,0.0
-1.840081,-6.393622,-7.664211,-0.56,-2.8,-18.34,1729474985360.0,0.0
-1.548156,-6.498906,-7.331609,7.42,-15.12,-15.68,1729474985378.0,0.0
-1.308874,-6.472585,-7.460821,3.29,-16.73,-16.73,1729474985400.0,0.0
-1.229911,-6.570691,-7.54457,5.6,-26.040001,-16.1,1729474985420.0,0.0
-1.416551,-6.300302,-7.135397,15.12,-27.790001,-15.47,1729474985438.0,0.0
-1.658226,-6.273981,-7.200003,18.34,-33.110001,-15.26,1729474985459.0,0.0
-1.033699,-5.45085,-6.039484,4.06,-50.889999,-17.57,1729474985478.0,0.0
-0.447458,-4.742575,-6.929615,-13.09,-68.040001,-13.23,1729474985498.0,0.0
-0.634098,-5.84088,-8.580662,-19.110001,-77.07,-6.51,1729474985522.0,0.0
-0.727418,-6.039484,-8.513663,-17.360001,-64.82,-10.08,1729474985539.0,0.0
-0.20339,-6.07777,-8.420342,-18.059999,-62.23,-10.5,1729474985559.0,0.0
1.129412,-5.156533,-7.812566,-20.440001,-64.75,-14.63,1729474985578.0,0.0
1.189233,-5.087141,-8.13799,-27.299999,-61.529999,-15.96,1729474985600.0,0.0
0.744168,-5.412565,-8.126025,-32.619999,-54.040001,-17.360001,1729474985619.0,0.0
0.746561,-5.008178,-8.140383,-27.93,-54.25,-19.6,1729474985640.0,0.0
1.328017,-4.711468,-8.429914,-24.92,-66.290001,-15.54,1729474985658.0,0.0
1.574477,-5.039285,-8.618947,-46.549999,-64.050003,-13.72,1729474985679.0,0.0
0.823131,-5.876772,-8.283953,-73.43,-45.009998,-15.190001,1729474985699.0,0.0
0.189033,-6.192625,-8.123632,-76.300003,-29.26,-17.219999,1729474985721.0,0.0
0.272782,-6.139983,-8.312666,-62.16,-35.0,-16.450001,1729474985738.0,0.0
0.51685,-6.144768,-9.372685,-49.349998,-36.75,-16.940001,1729474985760.0,0.0
-0.083749,-5.862415,-10.195816,-39.619999,-24.08,-17.15,1729474985779.0,0.0
-1.17009,-5.773881,-10.150353,-28.98,-7.49,-15.68,1729474985800.0,0.0
-2.151148,-5.558527,-9.671788,-14.42,6.3,-12.32,1729474985819.0,0.0
-2.823531,-5.359922,-9.410972,1.75,12.6,-7.14,1729474985839.0,0.0
-2.292324,-4.814359,-9.724431,-2.8,5.18,-3.85,1729474985858.0,0.0
-1.150948,-4.534399,-9.52822,-18.34,-6.16,-1.61,1729474985878.0,0.0
-1.160519,-4.273581,-8.937192,-23.379999,1.12,-0.84,1729474985897.0,0.0
-1.545763,-3.9338,-9.535398,-30.030001,8.96,-1.89,1729474985921.0,0.0
-1.275374,-4.321437,-9.645468,-31.85,5.32,0.77,1729474985941.0,0.0
-0.571885,-4.912465,-10.530812,-24.08,0.49,-1.61,1729474985957.0,0.0
0.117248,-4.945964,-10.741381,17.08,4.62,-8.61,1729474985979.0,0.0
0.179462,-4.436293,-9.793823,75.529999,12.53,-13.86,1729474985998.0,0.0
-0.0335,-1.445265,-8.673983,73.290001,18.48,-21.559999,1729474986021.0,0.0
-0.37328,-0.18664,-8.578269,11.41,23.1,-16.1,1729474986040.0,0.0
-0.239282,-1.919044,-9.468399,-26.67,13.37,-4.48,1729474986058.0,0.0
-0.641276,-3.85723,-9.566505,-22.75,16.1,5.39,1729474986080.0,0.0
-1.507478,-4.185047,-8.987441,-5.11,19.460001,6.16,1729474986098.0,0.0
-1.998007,-1.959722,-8.061419,-14.35,17.01,4.2,1729474986120.0,0.0
-2.191825,-1.631905,-7.140182,-41.860001,7.0,20.09,1729474986138.0,0.0
-1.892723,-3.416951,-8.68116,-53.689999,-5.25,37.310001,1729474986157.0,0.0
-2.225325,-4.462614,-10.442278,-54.740002,-4.13,44.310001,1729474986178.0,0.0
-2.845066,-5.383851,-11.088341,-61.529999,15.75,38.5,1729474986197.0,0.0
-1.715654,-5.472386,-11.373087,-54.529999,15.190001,27.299999,1729474986220.0,0.0
0.320638,-4.855037,-10.590633,6.51,-1.33,26.32,1729474986239.0,0.0
-0.739382,-4.15394,-8.999406,37.029999,26.110001,3.29,1729474986260.0,0.0
-2.502892,-4.45065,-9.336794,18.76,29.960001,-9.8,1729474986278.0,0.0
-2.847459,-4.955536,-10.691131,13.51,13.23,-20.65,1729474986300.0,0.0
-1.981257,-4.689932,-9.12144,19.18,5.25,-28.630001,1729474986319.0,0.0
-1.540978,-5.915058,-8.973085,27.16,5.18,-35.700001,1729474986337.0,0.0
-0.985843,-4.225725,-7.867601,30.59,8.05,-46.130001,1729474986364.0,0.0
-0.564706,-2.900101,-7.776673,33.459999,2.24,-41.02,1729474986378.0,0.0
-0.514457,0.471386,-7.032506,26.32,11.2,-24.57,1729474986399.0,0.0
-1.165305,2.074577,-8.023134,24.219999,18.549999,13.37,1729474986422.0,0.0
-0.404387,-0.794417,-8.930015,-1.82,-9.73,41.860001,1729474986439.0,0.0
0.368495,-3.024528,-9.176475,-72.169998,-13.86,42.700001,1729474986458.0,0.0
-0.256032,-5.206782,-10.159925,-84.279999,0.42,37.240002,1729474986478.0,0.0
-2.258825,-6.518049,-11.487941,-45.009998,18.129999,24.360001,1729474986499.0,0.0
-3.062813,-4.235296,-12.318252,-24.43,30.450001,9.45,1729474986529.0,0.0
-3.397808,-4.364508,-8.736196,9.52,20.23,19.32,1729474986539.0,0.0
-2.727818,-5.900701,-6.585048,-9.66,13.09,10.78,1729474986559.0,0.0
-1.533799,-8.035098,-9.973285,3.5,-9.1,4.27,1729474986577.0,0.0
-1.914258,-7.063612,-9.777073,66.849998,3.36,-10.64,1729474986598.0,0.0
-2.423929,-5.453243,-9.190832,63.77,14.07,-21.07,1729474986630.0,0.0
-1.423729,-4.524827,-7.970492,46.34,0.56,-26.6,1729474986638.0,0.0
-0.729811,-4.383651,-7.520642,35.0,-9.1,-27.16,1729474986658.0,0.0
-0.588634,-4.290331,-8.367701,11.41,-6.02,-32.27,1729474986679.0,0.0
-0.765703,-0.165105,-8.334201,-0.07,0.07,-29.82,1729474986698.0,0.0
-1.584049,1.976472,-8.200203,11.76,2.17,3.43,1729474986719.0,0.0
-0.598206,-0.066999,-8.659625,-26.6,-16.799999,22.33,1729474986738.0,0.0
0.241675,-2.242075,-10.092925,-77.0,-23.379999,33.810001,1729474986757.0,0.0
-0.160319,-3.98405,-10.777272,-52.709999,-13.3,39.41,1729474986779.0,0.0
-1.837688,-4.503292,-9.908678,-36.75,4.9,30.1,1729474986798.0,0.0
-3.189633,-5.362316,-10.339387,-58.240002,11.41,17.08,1729474986818.0,0.0
-3.005385,-7.436893,-9.375079,-32.060001,5.67,16.24,1729474986838.0,0.0
-1.789831,-7.831708,-8.161918,-10.71,-1.61,4.69,1729474986858.0,0.0
-1.40698,-8.197811,-8.465806,49.700001,-6.86,-1.96,1729474986878.0,0.0
-2.041078,-4.615755,-9.923036,82.110001,-3.78,-14.49,1729474986900.0,0.0
-1.945365,-3.838088,-9.741181,31.639999,1.89,-19.530001,1729474986918.0,0.0
-1.421337,-5.022535,-8.662018,-6.65,-4.62,-20.58,1729474986939.0,0.0
-1.158126,-5.816952,-8.157133,-6.65,1.12,-26.880001,1729474986958.0,0.0
-1.091127,-3.902694,-8.38445,21.49,-0.07,-33.25,1729474986976.0,0.0
-1.136591,-0.751346,-8.408379,19.879999,1.12,-28.07,1729474986999.0,0.0
-1.325624,-0.878166,-7.573284,5.11,-0.35,-8.96,1729474987019.0,0.0
-0.717847,-1.603191,-7.989635,-32.41,-13.23,2.17,1729474987041.0,0.0
0.181855,-2.189433,-9.789038,-47.389999,-19.32,13.440001,1729474987110.0,0.0
-0.284746,-3.847659,-10.382458,-10.36,-10.92,28.42,1729474987112.0,0.0
-1.526621,-3.491128,-9.475577,5.18,3.15,25.34,1729474987113.0,0.0
-2.952743,-3.905087,-9.195618,-14.7,16.52,23.309999,1729474987119.0,0.0
-3.089134,-4.603791,-12.117253,-28.630001,19.530001,25.129999,1729474987137.0,0.0
-2.18704,-5.95095,-9.071191,-23.940001,13.86,25.129999,1729474987157.0,0.0
-1.435694,-7.515855,-7.786245,-3.43,8.33,20.790001,1729474987179.0,0.0
-1.782653,-8.329416,-8.501699,50.330002,3.08,8.54,1729474987200.0,0.0
-2.316252,-6.515656,-9.284152,86.309998,8.96,-7.98,1729474987218.0,0.0
-2.37368,-4.407579,-9.24826,59.779999,7.14,-19.67,1729474987239.0,0.0
-0.909273,-4.512863,-8.248059,-9.17,-7.0,-26.460001,1729474987258.0,0.0
-0.978664,-4.917251,-7.389036,-4.06,2.45,-28.139999,1729474987279.0,0.0
-1.399801,-1.619941,-7.716853,20.790001,4.06,-22.960001,1729474987299.0,0.0
-1.95015,-0.478565,-7.046863,9.8,7.7,-5.67,1729474987318.0,0.0
-1.320838,-1.651048,-7.700103,-39.200001,-10.01,2.87,1729474987337.0,0.0
-0.071785,-2.117648,-9.501899,-60.27,-21.629999,13.16,1729474987358.0,0.0
0.028714,-3.20399,-10.260423,-34.860001,-17.360001,24.219999,1729474987377.0,0.0
-1.294517,-4.022335,-9.253045,-33.18,1.19,23.17,1729474987397.0,0.0
-2.708675,-4.735396,-10.439885,-47.459999,6.16,18.549999,1729474987418.0,0.0
-2.790031,-4.948357,-11.595619,-37.099998,8.89,21.629999,1729474987440.0,0.0
-2.287539,-6.374479,-9.12144,-33.18,12.25,17.290001,1729474987457.0,0.0
-1.586441,-7.939385,-7.477571,13.440001,4.76,16.1,1729474987479.0,0.0
-1.665405,-8.01117,-9.028119,75.879997,-3.57,3.78,1729474987498.0,0.0
-2.072184,-5.718846,-9.437292,80.290001,2.38,-15.89,1729474987518.0,0.0
-2.364109,-4.998606,-9.801002,37.029999,5.04,-27.370001,1729474987539.0,0.0
-1.433301,-4.26401,-9.387043,-3.15,-2.59,-37.450001,1729474987558.0,0.0
-0.90688,-4.06062,-8.082954,4.83,-5.18,-33.040001,1729474987577.0,0.0
-1.557728,-1.488336,-7.776673,35.0,4.69,-24.5,1729474987597.0,0.0
-1.988436,-1.689333,-7.360322,14.98,7.42,-12.11,1729474987619.0,0.0
-1.277767,-1.028914,-8.161918,-23.309999,-7.63,0.98,1729474987638.0,0.0
0.088534,-2.285146,-9.640682,-29.049999,-20.02,17.01,1729474987657.0,0.0
0.351745,-3.615555,-10.073784,-6.72,-14.0,27.719999,1729474987677.0,0.0
-1.363909,-3.536592,-7.587641,-3.92,2.73,27.02,1729474987697.0,0.0
-2.914458,-3.761517,-10.966305,-38.220001,15.54,20.02,1729474987721.0,0.0
-2.605784,-4.541577,-11.686546,-45.009998,0.91,21.07,1729474987737.0,0.0
-1.811367,-5.589634,-10.274779,-34.439999,4.62,19.460001,1729474987758.0,0.0
-1.222732,-6.52762,-8.453842,-16.17,12.95,16.52,1729474987777.0,0.0
-1.385444,-8.549555,-8.209774,47.110001,5.32,13.02,1729474987798.0,0.0
-1.756332,-6.999006,-8.985049,76.370003,4.97,-7.28,1729474987818.0,0.0
-2.134398,-4.441079,-9.343972,57.68,4.27,-21.139999,1729474987837.0,0.0
-1.902294,-3.940979,-9.023334,21.42,1.4,-29.540001,1729474987857.0,0.0
-1.337588,-4.704289,-8.673983,-4.97,-5.18,-32.200001,1729474987876.0,0.0
-1.490728,-3.438486,-7.472785,5.88,4.2,-30.66,1729474987897.0,0.0
-2.234896,-2.033899,-7.68096,15.190001,4.41,-20.23,1729474987919.0,0.0
-1.878366,-1.330409,-7.659425,-32.130001,-6.72,-5.95,1729474987939.0,0.0
-1.174876,-1.792224,-8.38445,-44.170002,-14.7,12.67,1729474987957.0,0.0
-0.531207,-3.041277,-9.028119,-27.299999,-16.450001,25.549999,1729474987977.0,0.0
-0.760918,-3.986443,-8.712267,-17.15,-17.08,30.17,1729474987997.0,0.0
-1.330409,-3.586841,-11.617154,-42.07,-10.57,26.25,1729474988019.0,0.0
-2.184647,-4.558327,-11.425728,-52.779999,0.98,29.190001,1729474988041.0,0.0
-2.277967,-5.716454,-10.758131,-35.209999,9.87,26.18,1729474988058.0,0.0
-1.617548,-6.489335,-8.508877,-11.13,10.08,22.469999,1729474988077.0,0.0
-1.445265,-7.929814,-8.597411,31.710001,1.05,12.46,1729474988099.0,0.0
-1.76351,-7.393822,-9.348758,66.360001,-1.68,-4.41,1729474988119.0,0.0
-2.232504,-5.070391,-9.123833,75.739998,1.82,-18.83,1729474988137.0,0.0
-2.349752,-3.586841,-9.547362,38.920002,1.61,-28.91,1729474988158.0,0.0
-1.816152,-4.639683,-9.068797,4.55,-3.08,-31.01,1729474988177.0,0.0
-1.70369,-3.381058,-7.558927,3.71,5.88,-29.120001,1729474988197.0,0.0
-2.273181,-2.610569,-7.611568,14.35,3.64,-18.41,1729474988274.0,0.0
-2.28036,-0.818345,-7.84128,-0.91,7.49,-8.89,1729474988277.0,0.0
-0.914058,-2.108077,-8.068598,-5.46,-11.13,20.16,1729474988277.0,0.0
-0.026321,-3.270989,-8.872586,-2.73,-13.72,29.82,1729474988278.0,0.0
-0.40678,-3.850052,-8.626125,-27.719999,-15.4,24.15,1729474988301.0,0.0
-1.155733,-5.089533,-12.421142,-61.110001,-2.1,14.7,1729474988318.0,0.0
-2.033899,-6.125626,-10.135997,-47.810001,8.47,11.83,1729474988336.0,0.0
-2.385644,-6.51087,-9.286544,-7.28,20.65,4.83,1729474988358.0,0.0
-1.832902,-6.860222,-8.391629,7.91,10.36,-1.75,1729474988377.0,0.0
-1.67019,-7.939385,-8.437093,53.060001,-1.33,-4.9,1729474988404.0,0.0
-2.242075,-5.819345,-9.389436,72.730003,7.07,-17.08,1729474988422.0,0.0
-2.938386,-3.799802,-9.707682,45.709999,12.18,-25.549999,1729474988437.0,0.0
-2.78046,-4.697111,-8.709875,19.950001,3.43,-24.85,1729474988458.0,0.0
-1.761117,-3.696911,-7.82453,7.84,1.05,-29.190001,1729474988478.0,0.0
-1.761117,-2.610569,-7.719246,7.49,-2.73,-20.58,1729474988496.0,0.0
-2.175076,-0.863809,-7.575676,-1.82,10.43,-13.02,1729474988521.0,0.0
-1.78026,-1.502693,-7.635497,1.61,1.4,9.45,1729474988538.0,0.0
-0.37328,-2.696711,-8.080563,-7.14,-14.91,20.58,1729474988556.0,0.0
-0.122034,-4.103691,-10.169496,-0.56,-16.24,27.65,1729474988576.0,0.0
-1.375873,-4.089334,-9.702895,-36.119999,-4.13,16.1,1729474988597.0,0.0
-2.26361,-5.733203,-11.298907,-55.580002,5.32,13.58,1729474988618.0,0.0
-2.572284,-6.001199,-11.755937,-36.049999,18.76,13.09,1729474988638.0,0.0
-1.940579,-6.522834,-8.719445,-4.83,16.940001,10.71,1729474988658.0,0.0
-1.392623,-7.446464,-8.350951,18.690001,9.73,6.58,1729474988678.0,0.0
-1.660619,-7.779066,-8.202596,53.34,6.44,-3.78,1729474988698.0,0.0
-2.452643,-5.996413,-8.80798,76.230003,10.92,-17.85,1729474988732.0,0.0
-2.885744,-3.862016,-8.779266,55.369999,10.92,-27.02,1729474988740.0,0.0
-2.084148,-3.821337,-8.271988,10.15,-0.28,-30.1,1729474988757.0,0.0
-1.548156,-3.440879,-7.207181,-18.059999,-3.85,-25.76,1729474988777.0,0.0
-1.61037,-3.007778,-7.211967,-8.75,-2.66,-16.17,1729474988797.0,0.0
-1.978864,-1.01695,-6.78126,-8.33,0.14,-5.32,1729474988817.0,0.0
-1.933401,-1.210768,-8.087741,-18.549999,-5.67,14.42,1729474988837.0,0.0
-0.713061,-3.026921,-8.930015,-33.110001,-24.99,26.950001,1729474988856.0,0.0
-0.27996,-4.589434,-9.300901,-30.52,-21.210001,32.060001,1729474988877.0,0.0
-1.275374,-4.788038,-8.633304,-49.279999,-9.03,22.469999,1729474988897.0,0.0
-2.328217,-5.69731,-10.949556,-52.990002,-2.52,14.77,1729474988921.0,0.0
-1.952543,-5.063213,-11.992826,-20.299999,8.68,14.07,1729474988953.0,0.0
-0.971486,-5.448457,-9.47797,-26.950001,12.6,14.98,1729474988962.0,0.0
-1.292124,-8.018349,-7.996813,2.1,15.75,12.81,1729474988977.0,0.0
-1.866402,-8.219346,-8.405986,36.259998,12.67,-6.09,1729474989128.0,0.0
-2.218147,-6.640083,-9.288938,77.489998,6.65,-21.280001,1729474989129.0,0.0
-2.572284,-4.575077,-9.540184,71.540001,8.05,-33.18,1729474989129.0,0.0
-2.443072,-3.333202,-8.705089,20.719999,8.61,-41.439999,1729474989129.0,0.0
-2.227718,-3.924229,-6.802795,-4.2,-0.14,-35.700001,1729474989129.0,0.0
-1.859223,-2.888137,-6.82433,10.08,0.28,-28.280001,1729474989130.0,0.0
-1.758725,-1.737189,-7.389036,12.04,-5.53,-15.54,1729474989130.0,0.0
-1.399801,-0.528814,-8.092526,-13.93,-8.61,-4.06,1729474989136.0,0.0
-1.115055,-2.282753,-8.920443,-30.73,-13.79,17.15,1729474989156.0,0.0
-0.521635,-4.400401,-9.339187,-35.77,-16.59,22.68,1729474989176.0,0.0
-0.830309,-5.290531,-9.367901,-12.04,-9.24,25.83,1729474989196.0,0.0
-2.053042,-4.342973,-8.673983,-19.6,0.42,13.93,1729474989219.0,0.0
-2.813959,-5.335995,-10.58824,-25.41,-0.49,12.88,1729474989238.0,0.0
-1.887937,-5.245068,-10.880164,-27.719999,1.54,6.86,1729474989257.0,0.0
-1.119841,-7.02772,-9.202796,-29.33,3.5,5.04,1729474989276.0,0.0
-1.119841,-8.504091,-9.286544,29.540001,3.92,0.28,1729474989298.0,0.0
-1.732404,-6.812366,-8.683553,69.790001,9.38,-17.15,1729474989318.0,0.0
-2.610569,-4.953143,-8.784052,66.220001,12.04,-28.84,1729474989337.0,0.0
-3.038885,-4.194618,-9.626326,21.700001,13.3,-38.779999,1729474989356.0,0.0
-2.081756,-4.59422,-8.874979,-12.53,5.25,-41.580002,1729474989376.0,0.0
-1.122234,-5.012963,-7.704889,-6.3,1.82,-38.990002,1729474989397.0,0.0
-0.789631,-3.086741,-7.63789,13.3,3.71,-35.560001,1729474989419.0,0.0
-1.031307,-1.07677,-7.783852,15.68,9.73,-21.629999,1729474989438.0,0.0
-1.122234,-0.777667,-7.532606,12.04,5.18,1.54,1729474989456.0,0.0
-0.811167,-1.840081,-7.60439,-11.9,-2.59,16.450001,1729474989476.0,0.0
-0.885344,-4.130012,-7.99442,-22.120001,-10.22,27.440001,1729474989496.0,0.0
-1.031307,-5.04407,-9.903893,-1.05,-8.47,29.4,1729474989519.0,0.0
-2.105684,-3.067599,-9.911072,-3.22,1.19,21.84,1729474989536.0,0.0
-2.665605,-4.235296,-10.805987,-22.610001,8.54,27.51,1729474989557.0,0.0
-2.261217,-5.309673,-10.552348,-37.240002,14.7,26.950001,1729474989576.0,0.0
-1.308874,-8.023134,-8.609376,-13.23,9.73,22.75,1729474989596.0,0.0
-1.325624,-8.288737,-8.487342,52.43,4.13,12.39,1729474989617.0,0.0
-1.777867,-5.922236,-8.499306,69.370003,10.5,-9.24,1729474989636.0,0.0
-2.29711,-5.000999,-8.556733,44.310001,9.59,-19.67,1729474989656.0,0.0
-1.828116,-4.24726,-8.319844,3.01,3.5,-27.09,1729474989676.0,0.0
-1.691726,-3.785445,-7.343572,-4.55,-4.41,-20.440001,1729474989696.0,0.0
-1.777867,-2.754139,-7.726424,8.82,-1.05,-14.35,1729474989721.0,0.0
-1.531406,-1.933401,-7.652246,-0.7,-3.71,-5.74,1729474989737.0,0.0
-1.12702,-2.242075,-7.77428,-30.309999,-9.31,6.65,1729474989755.0,0.0
-0.748954,-3.326023,-8.614161,-58.869999,-16.66,14.77,1729474989777.0,0.0
-0.150748,-4.156333,-9.695717,-63.77,-21.49,16.309999,1729474989796.0,0.0
-0.452243,-5.52742,-11.420943,-46.900002,-14.21,19.18,1729474989817.0,0.0
-1.160519,-5.371887,-9.820145,-18.9,3.43,16.52,1729474989837.0,0.0
-2.309074,-5.108676,-11.05484,-3.64,18.83,13.93,1729474989856.0,0.0
-2.325824,-5.563312,-9.399008,-17.08,19.18,8.54,1729474989878.0,0.0
-2.134398,-7.147361,-8.51127,-8.33,11.34,2.1,1729474989898.0,0.0
-2.033899,-7.018148,-9.233903,15.05,7.21,-12.67,1729474989916.0,0.0
-2.270789,-5.438886,-8.633304,57.959999,6.02,-28.0,1729474989936.0,0.0
-2.845066,-5.209175,-8.539984,47.529999,9.24,-35.349998,1729474989956.0,0.0
-2.376073,-3.515057,-8.80798,5.95,5.39,-44.869999,1729474989976.0,0.0
-1.813759,-3.809374,-8.063812,-15.54,-6.93,-38.009998,1729474989997.0,0.0
-1.196411,-3.309274,-8.018349,-15.47,-6.86,-36.330002,1729474990017.0,0.0
-1.002593,-1.562513,-8.157133,-0.84,-0.35,-24.43,1729474990039.0,0.0
-1.201197,-0.397209,-7.568498,12.04,1.89,-0.49,1729474990057.0,0.0
-0.930808,-1.115055,-7.779066,1.47,-2.1,18.41,1729474990076.0,0.0
-0.100499,-2.859423,-9.339187,-24.360001,-19.460001,26.25,1729474990098.0,0.0
0.014357,-3.945765,-10.351351,-42.91,-19.879999,23.450001,1729474990119.0,0.0
-0.839881,-4.182654,-12.330215,-48.16,5.46,17.08,1729474990136.0,0.0
-2.385644,-5.07757,-10.183852,-12.67,20.09,20.23,1729474990156.0,0.0
-3.28056,-5.67099,-9.142976,11.06,28.91,15.12,1729474990177.0,0.0
-2.395216,-6.017949,-8.082954,-9.73,12.39,7.21,1729474990196.0,0.0
-1.734797,-7.836494,-9.001799,1.89,-2.94,3.5,1729474990217.0,0.0
-1.509871,-7.936993,-8.662018,28.559999,2.31,-10.99,1729474990236.0,0.0
-2.122434,-5.56092,-9.028119,64.120003,3.22,-21.629999,1729474990256.0,0.0
-1.682154,-2.581856,-8.386844,45.43,4.97,-31.43,1729474990277.0,0.0
-1.320838,-2.538785,-6.862615,22.68,-6.58,-14.91,1729474990296.0,0.0
-0.775275,-2.421536,-6.518049,1.05,-9.24,-8.33,1729474990319.0,0.0
-1.107877,-2.17029,-7.542177,-10.64,-11.48,2.17,1729474990336.0,0.0
-1.497907,-2.565106,-9.394222,-13.37,-10.78,10.29,1729474990356.0,0.0
-1.469193,-4.419543,-9.396614,-3.15,-10.01,15.61,1729474990375.0,0.0
-0.691526,-5.816952,-9.516255,5.95,-14.42,10.08,1729474990396.0,0.0
-0.308674,-5.838487,-9.257831,12.25,-10.92,1.05,1729474990416.0,0.0
-0.435494,-6.733403,-9.085547,39.689999,-4.55,-0.91,1729474990445.0,0.0
-0.794417,-8.638089,-8.788837,114.590004,5.46,3.15,1729474990457.0,0.0
-1.229911,-9.982857,-8.262416,242.619995,9.1,11.06,1729474990479.0,0.0
-1.586441,-10.683953,-9.643075,396.339996,1.12,24.360001,1729474990496.0,0.0
-1.631905,-9.731609,-11.066804,519.470032,0.42,32.970001,1729474990519.0,0.0
-1.509871,-8.910872,-11.16491,616.97998,30.1,43.889999,1729474990536.0,0.0
-1.964507,-7.956135,-5.723632,682.919983,57.959999,52.57,1729474990556.0,0.0
-3.48395,-8.286345,0.222532,599.970032,50.540001,14.84,1729474990576.0,0.0
-1.998007,-8.372486,0.940379,536.690002,24.85,0.28,1729474990597.0,0.0
-0.875773,-6.649654,3.292524,478.380005,33.599998,-2.66,1729474990619.0,0.0
-1.564906,-5.9677,5.223531,410.480011,33.599998,-3.78,1729474990639.0,0.0
-2.333002,-5.886343,7.008578,325.01001,25.549999,-8.47,1729474990656.0,0.0
-2.639283,-6.695118,8.193025,221.199997,14.35,-23.1,1729474990677.0,0.0
-2.120041,-5.642276,6.73101,123.199997,14.7,-35.349998,1729474990697.0,0.0
-2.067399,-2.383251,5.120641,56.0,12.67,-28.07,1729474990728.0,0.0
-4.07737,-4.505685,4.883751,33.459999,18.9,-10.01,1729474990737.0,0.0
-4.182654,-8.535198,6.26441,9.1,15.05,-32.34,1729474990759.0,0.0
-3.436093,-10.25803,7.886744,25.200001,20.16,-36.400002,1729474990776.0,0.0
-2.22054,-7.470392,8.405986,50.959999,24.99,-41.299999,1729474990799.0,0.0
-1.715654,-6.21416,7.805387,52.5,12.32,-41.09,1729474990819.0,0.0
-0.973879,-4.622933,8.202596,39.759998,8.75,-42.420002,1729474990838.0,0.0
-1.993221,-2.251646,8.733803,25.83,-0.21,-31.15,1729474990859.0,0.0
-2.486143,-2.54357,7.893922,18.620001,-14.49,-3.78,1729474990876.0,0.0
-1.052842,-3.172883,6.826723,5.81,-26.25,18.83,1729474990900.0,0.0
-0.921237,-3.354738,6.821937,10.15,-15.61,29.26,1729474990921.0,0.0
-2.519642,-6.695118,5.091926,-0.21,-12.46,28.35,1729474990939.0,0.0
-3.290131,-7.850852,4.266403,-10.29,4.27,7.42,1729474990958.0,0.0
-2.864209,-7.893922,5.958128,10.29,25.129999,0.35,1729474990979.0,0.0
-2.301895,-8.673983,7.348359,18.549999,33.670002,-3.99,1729474990997.0,0.0
-1.57687,-8.556733,8.456236,21.35,35.349998,-20.370001,1729474991019.0,0.0
-2.330609,-7.956135,8.532805,19.460001,31.43,-25.48,1729474991041.0,0.0
-2.553142,-6.532406,7.623533,4.13,20.790001,-39.34,1729474991057.0,0.0
-2.277967,-3.555735,7.06122,4.06,23.799999,-34.23,1729474991080.0,0.0
-2.041078,-2.400001,7.130611,9.31,20.370001,-18.48,1729474991100.0,0.0
-1.914258,-3.696911,7.63789,10.01,9.1,-4.2,1729474991121.0,0.0
-1.375873,-1.85683,8.690732,14.84,20.93,9.1,1729474991138.0,0.0
-3.256632,-3.431308,8.322237,-22.120001,3.43,18.969999,1729474991161.0,0.0
-2.854637,-8.221739,7.826923,-40.25,-13.09,30.309999,1729474991179.0,0.0
-2.160719,-6.678369,9.401401,20.09,0.91,24.99,1729474991200.0,0.0
-2.359323,-3.792624,8.721838,34.09,-0.91,22.889999,1729474991220.0,0.0
-1.339981,-3.220739,6.754939,5.11,-2.52,22.960001,1729474991239.0,0.0
-2.600998,-4.125226,5.802595,-34.09,-4.55,24.5,1729474991257.0,0.0
-3.455236,-6.71426,6.396015,-25.83,5.18,30.1,1729474991279.0,0.0
-2.282753,-8.061419,7.783852,-33.110001,-10.85,-14.35,1729474991299.0,0.0
-1.179662,-8.819944,8.472985,-5.88,31.85,1.68,1729474991319.0,0.0
-0.990629,-7.702496,7.661818,7.28,7.21,-7.7,1729474991337.0,0.0
-2.665605,-8.008778,7.424929,-1.82,9.38,-9.45,1729474991359.0,0.0
-3.323631,-6.649654,7.432107,15.89,11.06,-31.99,1729474991378.0,0.0
-4.012764,-7.664211,7.475177,-0.07,3.57,-21.629999,1729474991400.0,0.0
-2.368894,-6.508478,8.152347,2.17,1.19,-38.920002,1729474991420.0,0.0
-0.851845,-1.655833,5.821737,5.88,12.04,-25.9,1729474991438.0,0.0
-2.852244,-3.993621,6.673582,-21.559999,-0.84,-15.47,1729474991459.0,0.0
-1.150948,-2.445465,6.965507,-40.670002,5.81,-4.83,1729474991480.0,0.0
-4.366901,-4.151547,8.317451,-13.02,0.49,16.309999,1729474991500.0,0.0
-3.366701,-4.536791,9.06162,-5.81,-12.74,38.080002,1729474991519.0,0.0
-1.074377,-3.98405,8.611769,-3.99,-6.23,35.560001,1729474991539.0,0.0
-1.459622,-4.900501,6.570691,-41.369999,-9.73,35.349998,1729474991559.0,0.0
-3.845266,-7.860423,5.927022,-44.240002,-7.98,31.219999,1729474991579.0,0.0
-6.38405,-9.865608,4.378866,-2.1,-0.91,19.110001,1729474991598.0,0.0
-4.788038,-11.203196,7.642675,42.77,15.68,1.89,1729474991619.0,0.0
-2.885744,-8.977871,9.10469,40.389999,23.799999,-29.960001,1729474991639.0,0.0
-0.887737,-4.814359,7.575676,12.74,29.190001,-38.920002,1729474991658.0,0.0
-2.57707,-6.589834,6.573084,-29.68,13.02,-35.07,1729474991679.0,0.0
-2.603391,-8.786445,6.13759,-38.290001,-1.54,-43.959999,1729474991698.0,0.0
-0.672383,-5.391029,7.322037,19.110001,12.53,-41.369999,1729474991719.0,0.0
-1.205983,-2.062613,6.589834,36.189999,17.710001,-12.74,1729474991738.0,0.0
-2.129612,-1.70369,6.84108,-34.299999,-2.38,-15.89,1729474991759.0,0.0
-2.868994,-3.706482,7.475177,-46.830002,-10.43,24.290001,1729474991778.0,0.0
-4.82393,-6.443871,8.078169,-23.940001,-23.030001,24.290001,1729474991797.0,0.0
-2.708675,-6.4343,9.114261,8.96,-13.16,37.029999,1729474991821.0,0.0
-0.866202,-4.706682,7.800602,15.47,-9.1,29.120001,1729474991838.0,0.0
-2.397608,-6.273981,6.262017,-26.389999,-13.440001,28.139999,1729474991858.0,0.0
-4.596612,-7.056434,4.474578,-20.299999,-8.89,20.719999,1729474991878.0,0.0
-5.438886,-11.643474,6.266802,25.969999,1.68,10.57,1729474991898.0,0.0
-0.988236,-9.284152,9.016156,50.189999,18.620001,-26.530001,1729474991920.0,0.0
-2.218147,-7.441679,7.542177,41.650002,11.62,-27.860001,1729474991939.0,0.0
-2.708675,-6.108876,6.319445,22.75,11.76,-45.779999,1729474991958.0,0.0
-3.115455,-6.723832,5.60399,-11.76,1.68,-38.990002,1729474991978.0,0.0
-2.510071,-6.317052,7.106683,5.18,6.65,-40.950001,1729474991998.0,0.0
-0.476172,-2.880959,5.556134,19.110001,2.66,-35.84,1729474992018.0,0.0
-1.619941,-2.574677,7.920243,11.34,15.4,-9.24,1729474992040.0,0.0
-1.749153,-1.871187,7.051648,-59.57,-8.89,-0.14,1729474992059.0,0.0
-2.311467,-4.383651,7.992027,-40.670002,-8.4,28.98,1729474992077.0,0.0
-5.003392,-6.860222,7.836494,-31.15,-24.15,30.940001,1729474992100.0,0.0
-2.612962,-4.82393,8.793623,8.68,-7.56,37.73,1729474992119.0,0.0
-1.442872,-3.285345,8.468199,10.36,-6.58,35.349998,1729474992138.0,0.0
-2.402394,-5.075177,6.975078,-21.35,-12.25,41.439999,1729474992158.0,0.0
-4.704289,-8.126025,4.955536,-36.119999,-11.48,30.870001,1729474992177.0,0.0
-5.103891,-12.856635,6.513263,18.549999,0.7,9.45,1729474992197.0,0.0
-2.59382,-11.133803,8.13799,58.66,18.48,-26.460001,1729474992218.0,0.0
-2.036292,-7.159326,7.846066,45.290001,20.09,-20.370001,1729474992237.0,0.0
-1.246661,-5.355137,6.470192,-2.45,14.49,-52.080002,1729474992259.0,0.0
-3.361916,-8.23131,5.943772,-33.880001,-1.26,-37.170002,1729474992277.0,0.0
-1.718047,-7.049256,7.164111,-0.7,1.89,-44.66,1729474992298.0,0.0
-2.18704,-4.232903,8.51127,31.780001,5.11,-32.830002,1729474992319.0,0.0
0.29671,1.677369,5.024928,2.94,9.66,-17.08,1729474992337.0,0.0
-2.447858,-0.708275,5.781059,-49.139999,-1.4,8.96,1729474992358.0,0.0
-3.675375,-5.252246,7.432107,-83.300003,-14.84,26.950001,1729474992377.0,0.0
-4.9675,-7.963314,7.625926,-38.150002,-17.5,30.59,1729474992400.0,0.0
-3.215954,-5.879165,7.661818,3.43,-2.52,35.279999,1729474992420.0,0.0
-1.038485,-5.304887,8.078169,6.3,4.2,30.450001,1729474992439.0,0.0
-1.07677,-5.163712,6.924829,-12.81,2.94,28.0,1729474992457.0,0.0
-3.326023,-7.396214,6.506085,-3.01,3.92,31.360001,1729474992478.0,0.0
-6.738188,-10.633704,6.757331,9.87,4.41,31.43,1729474992498.0,0.0
-4.309474,-12.756138,6.319445,-3.08,-2.1,-33.599998,1729474992519.0,0.0
-0.497707,-8.642875,8.204988,33.040001,20.93,-11.83,1729474992537.0,0.0
-1.454836,-7.034898,6.635297,32.060001,13.58,-45.639999,1729474992558.0,0.0
-2.622534,-5.118248,6.817152,29.82,17.780001,-40.810001,1729474992578.0,0.0
-3.806981,-6.905686,6.91765,0.49,-4.34,-34.860001,1729474992600.0,0.0
-2.287539,-6.075377,7.762317,17.360001,-3.22,-32.759998,1729474992620.0,0.0
-1.634298,-4.39083,7.795816,23.940001,-8.4,-26.389999,1729474992638.0,0.0
-0.698704,-0.069392,6.515656,-3.36,6.58,-11.97,1729474992659.0,0.0
-3.897908,-2.727818,6.443871,-59.920002,-10.78,-2.94,1729474992678.0,0.0
-4.070191,-6.821937,8.085347,-58.939999,-23.52,17.780001,1729474992698.0,0.0
-4.06062,-5.515456,8.592626,14.98,-18.200001,25.76,1729474992728.0,0.0
-2.54357,-4.12044,9.123833,44.869999,-14.7,35.139999,1729474992739.0,0.0
-1.22034,-4.053442,7.334002,-4.34,-19.6,25.690001,1729474992759.0,0.0
-2.232504,-5.481956,5.376673,-37.52,-18.620001,30.59,1729474992780.0,0.0
-4.809574,-8.207381,5.355137,-5.53,-7.35,31.710001,1729474992799.0,0.0
-4.754539,-12.007183,6.216553,14.84,-6.09,7.07,1729474992819.0,0.0
-2.713461,-9.183653,7.613962,41.790001,7.77,-21.42,1729474992839.0,0.0
-1.22034,-5.938986,6.54437,20.299999,9.66,-34.790001,1729474992860.0,0.0
-2.962314,-7.982457,5.922236,-13.23,-2.03,-33.880001,1729474992878.0,0.0
-3.084348,-9.312866,6.520442,-16.66,-9.1,-45.009998,1729474992898.0,0.0
-1.782653,-6.01077,8.094919,27.370001,6.37,-47.599998,1729474992929.0,0.0
-1.744368,-4.378866,6.522834,27.23,-5.88,-42.630001,1729474992939.0,0.0
-1.430908,-1.294517,7.367501,-2.38,7.21,-30.030001,1729474992959.0,0.0
-3.213561,-2.404787,7.37468,-48.369999,-11.83,-16.799999,1729474992979.0,0.0
-2.641676,-3.948158,7.357929,-53.27,-22.82,2.94,1729474993001.0,0.0
-2.725425,-4.345366,6.513263,-12.95,-21.91,23.66,1729474993020.0,0.0
-2.074577,-5.843273,6.675975,6.16,-15.12,34.23,1729474993042.0,0.0
-0.57667,-6.288338,7.001399,-1.33,-6.3,28.559999,1729474993059.0,0.0
-0.473779,-5.611169,7.094719,4.97,2.03,26.950001,1729474993079.0,0.0
-3.503092,-7.336394,7.489535,6.72,1.12,27.02,1729474993098.0,0.0
-4.412365,-5.821737,7.252645,11.13,1.26,29.26,1729474993119.0,0.0
-4.515256,-12.959527,5.587241,1.75,-8.75,3.43,1729474993139.0,0.0
-0.782453,-10.236496,7.274181,24.99,7.84,-24.639999,1729474993161.0,0.0
-1.9669,-5.656632,8.114061,80.849998,29.68,-38.5,1729474993179.0,0.0
-3.52702,-6.642475,6.278766,-1.19,29.68,-51.59,1729474993200.0,0.0
-0.851845,-7.683353,5.489135,-38.920002,2.94,-49.700001,1729474993273.0,0.0
-0.792024,-6.577869,6.218946,-0.63,11.9,-48.860001,1729474993281.0,0.0
-0.849452,-0.528814,8.243275,23.1,28.77,-34.02,1729474993284.0,0.0
-1.818545,1.241875,7.590034,-11.27,10.43,-8.05,1729474993285.0,0.0
-2.426322,-3.139383,7.74796,-59.990002,-11.13,20.58,1729474993300.0,0.0
-3.495914,-5.91745,6.630512,-72.660004,-29.469999,33.950001,1729474993320.0,0.0
-0.937986,-5.144568,7.317252,3.22,-4.55,52.920002,1729474993339.0,0.0
-1.026521,-4.26401,8.549555,17.639999,3.15,48.299999,1729474993359.0,0.0
-3.768696,-6.850651,8.630912,-13.440001,-7.98,53.34,1729474993379.0,0.0
-5.474778,-8.149954,7.056434,-25.129999,-16.1,33.670002,1729474993400.0,0.0
-6.845865,-11.959327,6.180661,-0.49,-8.05,28.280001,1729474993420.0,0.0
0.351745,-7.267002,8.042276,41.16,19.460001,-26.460001,1729474993444.0,0.0
-1.414158,-6.910471,7.453642,28.98,7.98,-18.41,1729474993459.0,0.0
-2.572284,-7.408179,6.898508,14.35,9.31,-48.369999,1729474993479.0,0.0
-2.330609,-8.953942,4.728218,-36.330002,-4.2,-42.420002,1729474993499.0,0.0
-0.942772,-7.384251,4.955536,6.51,15.05,-44.310001,1729474993520.0,0.0
-2.301895,-5.429315,7.133004,44.380001,26.110001,-44.73,1729474993540.0,0.0
-1.852045,-3.318845,7.783852,3.5,14.84,-45.290001,1729474993559.0,0.0
-1.26341,-0.545564,7.532606,-19.67,11.13,-13.3,1729474993579.0,0.0
-2.500499,-3.282953,7.690532,-44.939999,-10.43,3.43,1729474993599.0,0.0
-3.196811,-5.515456,6.826723,-58.73,-28.42,14.84,1729474993620.0,0.0
-1.062413,-5.005785,8.525627,10.08,-12.88,38.709999,1729474993639.0,0.0
-0.397209,-2.734996,8.585447,31.219999,-7.91,41.580002,1729474993659.0,0.0
-2.115255,-3.938586,7.343572,-12.04,-13.65,52.779999,1729474993679.0,0.0
-4.579862,-8.834301,6.305088,-51.939999,-23.59,47.459999,1729474993699.0,0.0
-5.225924,-11.598011,4.476971,-25.620001,-11.9,30.380001,1729474993724.0,0.0
-2.962314,-12.859028,6.73101,40.880001,14.42,-0.98,1729474993740.0,0.0
-1.722832,-5.924629,6.381658,57.889999,29.469999,-22.889999,1729474993760.0,0.0
-2.002793,-5.548956,7.070791,27.02,29.82,-26.809999,1729474993779.0,0.0
-3.376273,-8.932407,5.599205,-43.82,5.11,-29.610001,1729474993801.0,0.0
-1.380659,-10.176675,5.347959,-25.200001,7.07,-37.799999,1729474993822.0,0.0
-1.596013,-6.613762,7.652246,42.139999,25.129999,-37.939999,1729474993840.0,0.0
-2.215754,-3.388237,8.382057,32.830002,20.370001,-32.900002,1729474993869.0,0.0
-1.289732,-1.674976,7.996813,-24.57,3.01,-22.75,1729474993880.0,0.0
-2.519642,-3.079563,7.396214,-51.73,-14.49,4.27,1729474993899.0,0.0
-4.046263,-4.216154,6.872187,-48.299999,-29.82,18.83,1729474993922.0,0.0
-1.739582,-3.270989,8.085347,10.85,-16.73,43.470001,1729474993940.0,0.0
-1.825724,-3.072384,7.396214,23.59,-12.67,50.540001,1729474993959.0,0.0
-3.649055,-5.733203,6.4678,-33.25,-12.32,48.650002,1729474993980.0,0.0
-5.278566,-11.320443,6.285945,-46.48,-7.21,47.599998,1729474993999.0,0.0
-4.919643,-13.820943,5.659025,-29.26,-0.56,4.13,1729474994021.0,0.0
-2.545963,-10.033106,5.752346,23.450001,21.280001,-16.24,1729474994042.0,0.0
-1.299303,-4.922036,6.317052,56.279999,38.849998,-20.58,1729474994058.0,0.0
-2.143969,-6.664011,5.948557,-9.24,20.93,-28.210001,1729474994080.0,0.0
-0.808774,-8.614161,5.383851,-68.809998,9.59,-33.459999,1729474994099.0,0.0
-0.90688,-5.17089,6.735795,20.51,29.469999,-24.360001,1729474994119.0,0.0
-1.028914,-1.978864,7.353144,35.07,27.16,-10.85,1729474994139.0,0.0
-2.519642,-1.490728,7.740781,-8.19,13.09,8.68,1729474994160.0,0.0
-5.773881,-6.252446,7.45125,-68.949997,-15.47,22.960001,1729474994179.0,0.0
-3.998406,-7.216753,6.628119,-81.269997,-25.200001,20.09,1729474994199.0,0.0
-2.242075,-5.376673,7.616355,2.45,-6.02,38.920002,1729474994219.0,0.0
-3.5007,-5.393422,8.322237,28.77,-7.91,40.040001,1729474994239.0,0.0
-4.441079,-7.755138,7.348359,-19.809999,-20.09,31.290001,1729474994260.0,0.0
-4.058227,-12.468999,5.891129,-26.530001,-18.9,20.860001,1729474994280.0,0.0
-3.625126,-13.447663,6.005985,4.13,-10.01,-12.67,1729474994300.0,0.0
-2.057827,-9.229117,6.994221,58.73,6.86,-35.0,1729474994319.0,0.0
-1.208375,-4.639683,7.176075,69.090004,13.37,-32.689999,1729474994338.0,0.0
-2.550749,-5.635098,5.395815,-0.35,-9.38,-32.34,1729474994358.0,0.0
-2.675175,-8.690732,4.436293,-60.689999,-21.700001,-36.610001,1729474994378.0,0.0
-1.447658,-9.590433,5.024928,-33.880001,-7.35,-47.25,1729474994400.0,0.0
-1.232304,-7.865208,5.333601,8.54,3.85,-50.049999,1729474994420.0,0.0
-1.655833,-2.141576,6.242875,10.43,14.77,-30.17,1729474994439.0,0.0
-1.816152,-3.682554,7.635497,-31.43,-4.76,-20.02,1729474994460.0,0.0
-3.550949,-5.101498,7.379465,-42.07,-18.059999,-1.96,1729474994478.0,0.0
-2.366502,-4.051049,7.238289,-1.05,-18.83,18.41,1729474994500.0,0.0
-0.885344,-2.751746,6.54437,31.92,-12.04,33.18,1729474994530.0,0.0
-1.105484,-3.608376,5.941379,4.69,-9.03,42.91,1729474994539.0,0.0
-3.278167,-7.515855,5.45085,-35.700001,-4.69,45.290001,1729474994558.0,0.0
-5.276174,-11.614761,5.749953,-44.66,-4.69,38.220001,1729474994581.0,0.0
-8.62134,-15.646667,5.666204,-4.97,2.17,-0.98,1729474994600.0,0.0
-1.294517,-11.586047,7.018148,9.94,29.75,-1.75,1729474994619.0,0.0
-3.079563,-6.69751,6.013163,64.68,15.33,-34.09,1729474994639.0,0.0
-3.517449,-7.441679,5.852845,25.059999,9.38,-24.57,1729474994660.0,0.0
-1.931008,-8.772088,4.742575,-39.759998,-2.17,-41.439999,1729474994678.0,0.0
-1.249053,-8.075776,5.991628,4.69,13.79,-42.279999,1729474994700.0,0.0
-0.612563,-4.778467,7.259824,51.66,23.450001,-43.049999,1729474994719.0,0.0
-0.59342,-0.480957,7.903493,39.619999,31.08,-19.67,1729474994739.0,0.0
-2.057827,-2.222932,7.384251,-25.969999,4.62,0.07,1729474994766.0,0.0
-3.584448,-7.365108,6.975078,-54.040001,-23.940001,14.49,1729474994778.0,0.0
-1.543371,-5.268995,7.243074,24.99,-3.36,28.49,1729474994798.0,0.0
-1.198804,-4.168297,6.477371,55.369999,5.04,35.420002,1729474994821.0,0.0
-3.266203,-5.541777,7.046863,2.8,0.14,38.009998,1729474994841.0,0.0
-4.532006,-8.281559,7.101898,-21.91,-6.44,38.709999,1729474994859.0,0.0
-17.63271,-16.414762,3.129812,-15.4,-10.57,9.03,1729474994879.0,0.0
2.993421,-10.238889,5.749953,-7.91,17.92,-29.469999,1729474994899.0,0.0
-2.457429,-7.039684,6.02752,50.610001,10.43,-6.72,1729474994922.0,0.0
-2.730211,-4.900501,6.817152,46.34,17.43,-18.34,1729474994939.0,0.0
-2.943172,-7.597212,4.929214,-31.57,-3.29,-16.52,1729474994960.0,0.0
-2.754139,-9.77468,4.644469,-43.889999,-5.53,-24.85,1729474994979.0,0.0
-1.715654,-8.463413,5.788238,20.58,11.41,-31.43,1729474995000.0,0.0
-1.308874,-5.568098,7.202396,40.740002,22.469999,-31.57,1729474995020.0,0.0
-1.328017,-1.641476,7.984849,-0.21,11.13,-19.530001,1729474995042.0,0.0
-3.113062,-3.428915,8.039884,-20.370001,-10.22,8.54,1729474995059.0,0.0
-2.897708,-4.778467,7.594819,-22.049999,-28.98,26.18,1729474995080.0,0.0
-1.540978,-3.84048,7.886744,36.75,-13.93,42.279999,1729474995100.0,0.0
-1.65344,-3.771089,7.034898,16.030001,-12.53,45.080002,1729474995121.0,0.0
-3.352344,-6.685547,6.300302,-40.389999,-15.68,48.720001,1729474995141.0,0.0
-5.371887,-13.153346,5.429315,-48.02,-17.08,29.469999,1729474995161.0,0.0
2.986243,-13.122239,6.60419,-3.64,3.78,-26.880001,1729474995180.0,0.0
-2.404787,-11.145767,6.233303,51.52,10.5,-5.88,1729474995201.0,0.0
-1.818545,-6.558727,6.534799,65.800003,22.4,-26.18,1729474995221.0,0.0
-1.612763,-5.589634,7.546963,39.759998,21.210001,-29.4,1729474995241.0,0.0
-3.515057,-9.367901,6.001199,-44.66,-9.87,-40.670002,1729474995261.0,0.0
-0.937986,-10.24846,5.168497,-48.23,-13.02,-53.760002,1729474995280.0,0.0
-0.622134,-4.359723,5.276174,49.84,14.84,-33.040001,1729474995300.0,0.0
-2.354537,-2.691926,6.850651,66.010002,19.530001,-22.26,1729474995321.0,0.0
-1.442872,-0.727418,7.192825,-24.780001,6.58,-17.639999,1729474995340.0,0.0
-3.055635,-3.364309,7.121039,-59.639999,-9.87,21.98,1729474995360.0,0.0
-3.098706,-7.348359,7.204789,-49.77,-26.32,23.73,1729474995380.0,0.0
-1.196411,-5.321638,7.37468,14.42,-6.58,40.32,1729474995400.0,0.0
-1.009771,-4.101298,7.271788,28.630001,0.42,41.16,1729474995423.0,0.0
-3.493521,-5.60399,6.534799,-19.110001,-4.83,42.490002,1729474995440.0,0.0
-5.391029,-9.537791,6.065805,-28.210001,-11.97,42.349998,1729474995460.0,0.0
-5.180461,-12.526425,5.517848,-10.92,-10.92,9.87,1729474995485.0,0.0
-2.443072,-12.397215,6.673582,29.82,4.69,-11.2,1729474995500.0,0.0
-1.201197,-8.207381,6.345766,47.880001,17.43,-19.32,1729474995522.0,0.0
-1.684547,-5.79063,6.568298,50.959999,19.879999,-28.0,1729474995540.0,0.0
-3.029313,-8.489735,5.71406,-14.28,4.34,-34.650002,1729474995560.0,0.0
-2.304288,-11.502297,3.503092,-55.23,-8.54,-54.599998,1729474995581.0,0.0
-0.397209,-6.687939,4.402793,14.91,20.16,-52.920002,1729474995601.0,0.0
-1.447658,-3.024528,6.896115,88.059998,38.57,-25.41,1729474995621.0,0.0
-0.923629,0.806381,8.087741,20.93,25.969999,-27.23,1729474995640.0,0.0
-2.59382,-0.981057,8.623734,-38.220001,2.45,19.32,1729474995660.0,0.0
-5.070391,-6.319445,8.535198,-76.580002,-34.369999,23.309999,1729474995680.0,0.0
-1.213161,-6.168696,6.740582,-53.130001,-31.290001,33.880001,1729474995700.0,0.0
-0.78006,-5.986843,6.345766,22.68,-3.22,38.43,1729474995720.0,0.0
-3.086741,-8.248059,7.049256,-12.39,-1.96,31.01,1729474995740.0,0.0
-3.775874,-8.685946,6.4678,-31.99,-2.24,21.07,1729474995760.0,0.0
-3.948158,-8.618947,5.649454,2.1,6.79,22.26,1729474995780.0,0.0
-8.228917,-10.896914,5.233103,12.18,-0.91,-13.3,1729474995800.0,0.0
2.557927,-8.269595,7.305287,40.880001,22.68,1.68,1729474995825.0,0.0
-2.557927,-7.295716,7.896315,34.580002,12.32,-0.07,1729474995841.0,0.0
-3.845266,-7.642675,6.757331,4.76,-6.3,-16.309999,1729474995859.0,0.0
-3.479164,-9.741181,5.802595,-44.170002,-8.82,-21.700001,1729474995880.0,0.0
-3.189633,-11.301301,3.775874,-62.16,-19.67,-41.509998,1729474995900.0,0.0
-1.801795,-7.913064,4.158726,10.99,4.13,-42.560001,1729474995922.0,0.0
-1.773082,-4.35733,6.79083,69.510002,22.68,-38.43,1729474995940.0,0.0
-0.68674,-0.401994,8.733803,42.209999,25.27,-33.32,1729474995961.0,0.0
-1.385444,0.346959,9.181261,-8.75,8.05,0.21,1729474995981.0,0.0
-3.929015,-4.491328,8.819944,-68.879997,-26.74,12.95,1729474996000.0,0.0
-2.825923,-5.513064,6.912865,-82.25,-38.5,22.26,1729474996024.0,0.0
-1.055235,-4.567898,6.175875,-7.56,-16.1,41.93,1729474996044.0,0.0
-3.163311,-5.867201,6.71426,-0.21,-8.96,45.639999,1729474996060.0,0.0
-5.005785,-9.320045,6.63769,-28.42,-17.360001,42.77,1729474996080.0,0.0
-4.091727,-9.79143,5.424529,-22.960001,-15.82,30.1,1729474996100.0,0.0
5.089533,-9.133404,6.750153,10.15,-6.93,-6.86,1729474996121.0,0.0
-1.866402,-11.399406,5.998806,-28.559999,-4.9,21.559999,1729474996141.0,0.0
-2.35693,-10.380065,6.053841,-25.549999,-8.33,-9.45,1729474996160.0,0.0
-1.158126,-6.525227,4.242475,14.21,-4.41,-1.12,1729474996179.0,0.0
-4.244867,-6.281159,6.015556,45.990002,-3.5,11.76,1729474996200.0,0.0
-5.340781,-7.599605,5.95095,-5.88,-22.190001,-8.54,1729474996220.0,0.0
-3.9338,-8.9683,6.082555,-32.900002,-22.4,-21.49,1729474996241.0,0.0
-3.359523,-8.757731,5.84088,-22.540001,-19.879999,-23.309999,1729474996261.0,0.0
-3.084348,-7.156933,5.862415,-6.65,-17.57,-24.15,1729474996279.0,0.0
-3.160919,-5.218746,7.228717,7.14,-16.799999,-21.629999,1729474996300.0,0.0
-3.067599,-4.13719,7.781459,3.71,-22.82,-13.02,1729474996321.0,0.0
-2.151148,-5.02732,7.659425,-17.15,-33.950001,0.28,1729474996339.0,0.0
-0.775275,-5.132604,7.948956,-41.16,-39.759998,11.83,1729474996359.0,0.0
-0.725025,-6.003592,8.070991,-33.740002,-43.610001,29.540001,1729474996380.0,0.0
-0.650848,-7.436893,6.752545,-41.02,-43.68,32.759998,1729474996400.0,0.0
-0.533599,-8.343772,5.962914,-82.879997,-45.43,16.59,1729474996422.0,0.0
-0.397209,-9.327222,5.235496,-116.129997,-37.939999,5.18,1729474996441.0,0.0
-0.827917,-9.710074,4.180261,-147.910004,-30.17,-11.76,1729474996460.0,0.0
-0.928415,-10.351351,3.010171,-168.979996,-20.23,-27.440001,1729474996479.0,0.0
-0.770489,-10.844273,2.189433,-179.619995,-11.55,-36.400002,1729474996500.0,0.0
-0.430708,-11.47837,1.998007,-137.899994,2.1,-33.110001,1729474996521.0,0.0
-0.107677,-11.519048,1.90708,-86.590004,19.18,-33.32,1729474996540.0,0.0
-0.004786,-10.889735,1.854438,-74.550003,29.190001,-41.650002,1729474996559.0,0.0
-0.342174,-10.222138,1.591227,-65.309998,35.209999,-39.48,1729474996579.0,0.0
-0.397209,-9.408579,1.526621,-22.4,42.84,-34.02,1729474996601.0,0.0
0.047856,-7.862815,1.598405,38.220001,52.990002,-27.51,1729474996622.0,0.0
-0.416351,-7.286145,2.306681,64.68,56.420002,-11.48,1729474996641.0,0.0
-2.847459,-7.960921,6.116055,31.01,49.98,-16.940001,1729474996660.0,0.0
-3.522235,-8.659625,3.952943,-51.66,19.110001,-25.129999,1729474996681.0,0.0
-2.096112,-10.875379,3.385844,-38.290001,6.65,-5.04,1729474996700.0,0.0
-2.888137,-8.496914,3.476771,-9.59,20.65,-29.540001,1729474996720.0,0.0
-2.29711,-8.413164,1.103091,-17.15,-7.91,-35.490002,1729474996740.0,0.0
-1.189233,-9.824929,0.083749,-8.61,-0.42,-32.759998,1729474996760.0,0.0
-0.772882,-9.363115,2.0004,27.58,10.92,-28.630001,1729474996779.0,0.0
-0.937986,-7.657032,4.211368,42.84,15.89,-22.75,1729474996808.0,0.0
-0.81356,-7.077969,4.656433,19.110001,5.88,-17.92,1729474996820.0,0.0
0.291924,-8.958728,3.773481,-8.47,-15.61,-10.99,1729474996842.0,0.0
1.426122,-11.334801,2.854637,5.25,-21.139999,-7.07,1729474996860.0,0.0
1.538585,-10.861022,4.180261,64.050003,-11.9,-8.19,1729474996881.0,0.0
1.074377,-8.484949,5.927022,109.270004,-1.75,-12.74,1729474996900.0,0.0
1.136591,-4.728218,6.072984,77.209999,-0.42,-10.43,1729474996922.0,0.0
1.232304,-2.155933,4.912465,-2.24,-7.21,10.08,1729474996941.0,0.0
0.870987,-2.612962,4.242475,-85.82,-18.620001,28.84,1729474996959.0,0.0
-1.526621,-5.180461,3.689733,-189.979996,-26.040001,47.459999,1729474996981.0,0.0
0.162712,-12.600604,0.251246,-186.270004,-41.369999,43.189999,1729474997000.0,0.0
0.662812,-12.500106,1.124627,-135.309998,-32.619999,49.07,1729474997023.0,0.0
-0.378066,-9.810574,1.584049,-1.82,3.01,41.299999,1729474997043.0,0.0
-1.885544,-8.566305,1.787439,11.48,17.99,42.349998,1729474997060.0,0.0
-3.76391,-9.707682,1.598405,-21.629999,14.49,40.389999,1729474997081.0,0.0
-4.87418,-13.280167,0.193819,-47.32,-10.43,26.32,1729474997101.0,0.0
-4.682754,-14.656039,-1.201197,-34.09,-11.9,7.49,1729474997121.0,0.0
-3.536592,-13.416556,-1.787439,18.549999,2.73,-2.94,1729474997140.0,0.0
-3.201597,-12.059827,-0.047856,75.809998,15.12,-11.27,1729474997160.0,0.0
-3.333202,-11.41137,3.120241,88.269997,15.75,-25.41,1729474997180.0,0.0
-1.947758,-9.743573,4.821537,61.25,5.18,-42.630001,1729474997201.0,0.0
-1.265803,-10.315458,3.960121,8.26,-1.05,-51.59,1729474997222.0,0.0
-1.071985,-12.157932,1.74676,-46.619999,-0.07,-66.989998,1729474997241.0,0.0
-0.356531,-11.365908,1.399801,-48.439999,1.96,-77.139999,1729474997262.0,0.0
0.772882,-7.893922,1.854438,28.210001,15.26,-69.230003,1729474997282.0,0.0
1.957329,-1.189233,3.232704,74.129997,16.73,-40.950001,1729474997301.0,0.0
2.419144,0.502493,5.498707,72.309998,15.190001,8.54,1729474997322.0,0.0
0.736989,-2.78046,6.216553,9.24,-0.7,34.509998,1729474997341.0,0.0
-0.744168,-4.9675,3.053242,-86.730003,-17.360001,35.209999,1729474997361.0,0.0
-0.064606,-6.422336,0.629312,-88.129997,-27.719999,63.98,1729474997382.0,0.0
-0.260818,-9.150154,2.502892,-27.58,-22.540001,95.480003,1729474997402.0,0.0
-1.363909,-12.600604,4.62054,-6.79,-25.690001,90.790001,1729474997423.0,0.0
-3.751946,-17.678173,1.426122,-42.07,-43.610001,66.709999,1729474997441.0,0.0
-5.072784,-17.453247,-2.57707,-40.810001,-32.759998,29.610001,1729474997461.0,0.0
-4.472186,-17.826529,-2.59382,19.809999,1.26,10.57,1729474997483.0,0.0
-3.294917,-13.280167,-1.61037,32.689999,32.130001,-33.950001,1729474997502.0,0.0
-2.904887,-12.256038,2.132005,64.610001,51.170002,-42.139999,1729474997526.0,0.0
-2.09372,-10.147961,1.004985,5.46,53.549999,-69.790001,1729474997542.0,0.0
-1.344766,-7.52782,2.545963,-23.799999,44.799999,-66.220001,1729474997562.0,0.0
-0.153141,-7.271788,4.756931,30.17,25.76,-52.639999,1729474997581.0,0.0
1.069592,-4.498507,5.9677,64.889999,2.17,-48.369999,1729474997601.0,0.0
0.705883,-3.400201,7.401,70.139999,-13.09,-22.469999,1729474997623.0,0.0
0.952343,-3.696911,4.481757,-32.900002,-38.360001,9.59,1729474997642.0,0.0
1.928615,-4.510471,1.009771,-68.879997,-39.689999,34.299999,1729474997661.0,0.0
1.261017,-7.140182,0.445065,-64.120003,-26.950001,54.110001,1729474997681.0,0.0
-0.378066,-10.463813,2.359323,-36.400002,-17.15,65.519997,1729474997702.0,0.0
-2.100898,-14.392829,4.931608,-9.52,-29.4,65.800003,1729474997725.0,0.0
-3.675375,-12.246466,1.392623,9.59,-18.690001,59.709999,1729474997741.0,0.0
-5.359922,-14.847464,-0.770489,-7.35,-13.58,38.360001,1729474997761.0,0.0
-5.206782,-16.881365,-1.380659,-55.02,-8.47,-8.96,1729474997781.0,0.0
-3.59402,-14.880964,-1.416551,-18.969999,13.79,-28.559999,1729474997801.0,0.0
-2.864209,-12.715459,2.208575,40.459999,29.469999,-50.049999,1729474997825.0,0.0
-2.165504,-9.489935,1.694118,-3.99,34.09,-66.43,1729474997842.0,0.0
-1.880759,-7.67139,0.945165,-57.049999,35.77,-68.040001,1729474997861.0,0.0
-0.241675,-8.408379,2.813959,-20.440001,18.34,-57.75,1729474997881.0,0.0
1.37348,-5.795416,5.343173,27.719999,13.72,-48.299999,1729474997901.0,0.0
1.715654,-4.565506,8.798409,55.16,2.31,-27.23,1729474997923.0,0.0
1.40698,-3.926622,7.144968,6.51,-27.790001,-14.14,1729474997941.0,0.0
2.9336,-4.517649,1.605584,-40.740002,-46.900002,14.84,1729474997961.0,0.0
2.041078,-7.487142,-0.385244,-53.689999,-44.170002,58.240002,1729474997981.0,0.0
0.366102,-10.231709,-1.938186,-41.23,-21.210001,60.48,1729474998003.0,0.0
-2.998207,-13.162917,0.820738,10.99,-10.85,64.75,1729474998022.0,0.0
-5.146961,-12.801601,-0.215354,62.23,13.72,63.77,1729474998044.0,0.0
-5.125426,-13.603197,0.602991,29.960001,21.91,33.459999,1729474998061.0,0.0
-3.773481,-13.476377,-0.557528,-31.710001,20.65,9.87,1729474998080.0,0.0
-2.689533,-12.859028,-0.452243,-11.9,32.549999,-8.89,1729474998101.0,0.0
-2.656033,-13.28495,2.029114,18.690001,35.490002,-22.049999,1729474998122.0,0.0
-2.400001,-12.3685,1.210768,-14.63,34.790001,-45.920002,1729474998141.0,0.0
-1.931008,-9.903893,-0.866202,-37.939999,43.82,-55.299999,1729474998161.0,0.0
-1.057628,-8.786445,0.851845,-7.56,42.91,-54.25,1729474998181.0,0.0
0.514457,-6.898508,4.034299,30.799999,37.170002,-47.040001,1729474998201.0,0.0
1.629512,-3.567699,6.769295,49.139999,22.26,-33.040001,1729474998275.0,0.0
1.572084,-4.536791,8.740981,43.82,-4.55,-8.75,1729474998294.0,0.0
0.985843,-4.685147,5.458029,-38.639999,-36.540001,3.08,1729474998294.0,0.0
1.691726,-5.266603,1.919044,-40.740002,-45.360001,34.650002,1729474998294.0,0.0
1.021735,-7.396214,1.122234,-30.450001,-41.580002,65.660004,1729474998304.0,0.0
-1.696511,-11.624333,2.821138,-0.56,-25.27,81.970001,1729474998321.0,0.0
-5.594419,-13.813765,0.055035,-4.34,-31.710001,68.459999,1729474998340.0,0.0
-8.042276,-18.451056,-1.184447,11.34,-13.51,44.73,1729474998362.0,0.0
-5.008178,-16.429121,-2.309074,-28.630001,0.21,-3.22,1729474998381.0,0.0
-3.048456,-13.52902,-2.533999,-6.58,29.469999,-26.110001,1729474998402.0,0.0
-2.926422,-13.330415,1.095913,17.15,48.509998,-48.23,1729474998422.0,0.0
-2.596212,-11.514263,1.579263,-21.559999,46.27,-66.080002,1729474998441.0,0.0
-2.457429,-9.597611,0.09332,-46.34,46.619999,-70.0,1729474998461.0,0.0
-2.15354,-9.028119,-0.196211,-39.060001,38.639999,-77.699997,1729474998482.0,0.0
-0.617348,-8.204988,1.471586,16.379999,32.060001,-70.629997,1729474998500.0,0.0
0.29671,-5.367101,5.501099,61.950001,23.379999,-61.25,1729474998522.0,0.0
1.519442,-2.574677,7.939385,76.720001,3.29,-42.139999,1729474998541.0,0.0
2.904887,-2.318645,7.288538,40.389999,-31.85,-8.54,1729474998560.0,0.0
3.744767,-2.574677,3.555735,-30.309999,-52.150002,20.93,1729474998581.0,0.0
2.804388,-5.644669,0.387637,-46.830002,-49.560001,58.450001,1729474998602.0,0.0
1.418944,-8.063812,-0.366102,-37.029999,-24.92,71.330002,1729474998622.0,0.0
-1.57687,-11.724831,2.179861,36.610001,1.61,96.879997,1729474998641.0,0.0
-5.723632,-14.498112,1.777867,28.42,2.87,80.010002,1729474998663.0,0.0
-8.209774,-17.333607,-1.014557,11.2,6.23,50.049999,1729474998682.0,0.0
-6.063413,-16.72583,-3.818945,-32.830002,15.4,-3.57,1729474998701.0,0.0
-4.070191,-15.404992,-2.053042,-11.06,27.02,-27.719999,1729474998723.0,0.0
-3.058028,-13.067204,0.476172,22.610001,48.09,-59.290001,1729474998740.0,0.0
-2.723032,-11.136196,0.827917,7.56,54.389999,-72.800003,1729474998760.0,0.0
-2.251646,-10.140782,0.993021,-8.26,40.599998,-82.879997,1729474998781.0,0.0
-0.985843,-9.676575,-0.236889,31.360001,33.880001,-79.940002,1729474998801.0,0.0
-0.588634,-7.63789,2.900101,81.760002,26.880001,-78.470001,1729474998821.0,0.0
0.248854,-4.599005,5.883951,105.489998,17.85,-70.419998,1729474998848.0,0.0
2.938386,1.751546,6.087341,99.610001,-0.77,-42.420002,1729474998860.0,0.0
5.343173,2.347359,7.903493,100.099998,-17.219999,19.460001,1729474998880.0,0.0
4.711468,0.368495,6.659225,4.2,-31.01,62.09,1729474998903.0,0.0
1.337588,-3.54377,4.012764,-90.090004,-29.4,91.910004,1729474998927.0,0.0
-1.318445,-10.557133,0.868595,-109.059998,-41.650002,113.889999,1729474998941.0,0.0
-4.668397,-16.106089,-0.806381,-68.040001,-51.099998,115.849998,1729474999037.0,0.0
-9.272188,-22.296322,-0.725025,-34.23,-39.689999,73.220001,1729474999039.0,0.0
-6.74776,-20.274387,-2.675175,-7.35,-16.450001,27.719999,1729474999040.0,0.0
-4.661219,-14.682359,-3.07717,37.380001,23.030001,-20.93,1729474999041.0,0.0
-4.855037,-12.981063,1.588834,73.5,40.880001,-47.110001,1729474999046.0,0.0
-3.433701,-11.042876,3.146562,38.779999,43.540001,-69.720001,1729474999063.0,0.0
-3.175276,-10.604989,2.323431,4.55,44.52,-76.860001,1729474999081.0,0.0
-3.249453,-9.836893,1.732404,-2.8,36.82,-83.160004,1729474999101.0,0.0
-1.914258,-7.970492,3.48395,30.66,33.459999,-85.050003,1729474999122.0,0.0
0.287139,-5.888737,5.862415,47.810001,22.190001,-82.669998,1729474999142.0,0.0
2.615355,-0.794417,6.932007,26.880001,0.56,-65.029999,1729474999161.0,0.0
5.970093,1.112662,5.108676,36.68,-27.440001,-15.89,1729474999181.0,0.0
5.469993,-0.760918,5.395815,3.22,-35.279999,40.740002,1729474999202.0,0.0
2.536392,-3.692125,3.165704,-54.389999,-26.880001,60.48,1729474999225.0,0.0
-0.421137,-7.482357,0.442672,-70.279999,-27.16,83.93,1729474999242.0,0.0
-1.579263,-11.310873,1.519442,-37.59,-30.73,104.860001,1729474999262.0,0.0
-5.486742,-18.106489,2.59382,-38.779999,-38.43,94.779999,1729474999281.0,0.0
-8.60459,-21.815365,-0.854238,-45.360001,-42.490002,43.049999,1729474999302.0,0.0
-6.56112,-18.317057,-3.744767,-11.41,-8.33,-0.49,1729474999324.0,0.0
-4.926822,-14.502897,-1.043271,37.73,23.17,-40.18,1729474999343.0,0.0
-5.020142,-12.949955,1.579263,29.68,39.900002,-73.57,1729474999362.0,0.0
-3.998406,-10.729417,1.349552,-18.27,48.790001,-93.800003,1729474999383.0,0.0
-2.507678,-8.568698,0.959522,-11.34,31.43,-92.400002,1729474999403.0,0.0
-1.0002,-6.652047,3.448057,30.1,25.129999,-90.090004,1729474999424.0,0.0
0.823131,-4.493721,4.711468,55.02,4.62,-72.309998,1729474999443.0,0.0
1.897508,-2.85703,6.381658,47.040001,-11.69,-56.91,1729474999462.0,0.0
3.471986,-3.022135,5.733203,30.450001,-34.720001,-21.98,1729474999482.0,0.0
5.106283,-2.672783,4.256832,-14.63,-45.920002,9.59,1729474999503.0,0.0
5.4006,-2.749353,2.182254,-36.470001,-42.420002,44.73,1729474999525.0,0.0
2.014757,-6.226124,1.225125,-38.360001,-22.120001,74.129997,1729474999543.0,0.0
-0.361316,-9.162118,2.447858,-25.83,-0.07,96.809998,1729474999568.0,0.0
-2.98385,-13.256237,3.656233,-0.63,-12.18,108.43,1729474999582.0,0.0
-6.750153,-14.749359,0.210568,-28.35,-22.120001,82.529999,1729474999603.0,0.0
-9.142976,-19.563717,-1.485943,-27.299999,-15.26,53.060001,1729474999624.0,0.0
-6.017949,-17.888742,-2.816352,-38.290001,8.96,0.21,1729474999644.0,0.0
-5.268995,-16.201803,0.574277,26.809999,28.49,-27.65,1729474999662.0,0.0
-5.003392,-13.438091,2.151148,29.26,46.48,-67.970001,1729474999684.0,0.0
-3.773481,-9.827322,0.76331,-27.299999,48.369999,-89.18,1729474999708.0,0.0
-1.875973,-8.145168,-0.662812,-39.900002,40.950001,-89.459999,1729474999725.0,0.0
0.62692,-7.657032,2.854637,9.24,22.120001,-83.230003,1729474999743.0,0.0
2.586641,-5.163712,5.484349,62.23,24.639999,-61.18,1729474999762.0,0.0
3.704089,-1.316052,6.896115,77.279999,15.54,-40.810001,1729474999784.0,0.0
3.909872,-1.064806,7.386643,56.279999,-11.48,-0.77,1729474999803.0,0.0
3.716053,-2.06022,4.761717,-22.960001,-38.57,30.870001,1729474999825.0,0.0
2.845066,-4.472186,1.172483,-61.110001,-42.630001,59.360001,1729474999843.0,0.0
1.79701,-6.76451,0.01675,-59.639999,-31.639999,80.360001,1729474999862.0,0.0
-2.268396,-12.574283,1.124627,-9.45,-19.32,103.110001,1729474999883.0,0.0
-7.211967,-16.905293,1.440479,12.32,-21.84,83.93,1729474999903.0,0.0
-9.308081,-18.439091,-0.528814,7.63,-12.88,45.639999,1729474999924.0,0.0
-6.453443,-15.58924,-2.569891,-44.939999,6.44,-5.53,1729474999946.0,0.0
-5.271388,-15.23271,-0.79681,-56.91,23.17,-42.07,1729474999962.0,0.0
-4.398008,-13.619946,0.416351,-76.019997,44.66,-75.459999,1729474999983.0,0.0
-2.699104,-10.497313,-0.76331,-82.809998,45.920002,-89.389999,1729475000005.0,0.0
-0.748954,-7.905886,0.246461,-0.63,35.77,-73.150002,1729475000025.0,0.0
0.981057,-3.376273,5.816952,78.959999,37.310001,-63.0,1729475000095.0,0.0
2.78046,-2.411965,7.645068,71.330002,31.85,-54.670002,1729475000107.0,0.0
4.13719,-3.646662,6.486942,37.869999,5.39,-27.51,1729475000109.0,0.0
4.232903,-4.663611,2.514857,-17.43,-33.459999,3.01,1729475000125.0,0.0
3.101098,-5.723632,0.624527,-50.330002,-51.029999,30.66,1729475000145.0,0.0
1.710868,-7.869993,0.555135,-31.99,-41.02,62.580002,1729475000171.0,0.0
-0.598206,-9.391829,0.57667,-7.42,-24.57,83.580002,1729475000190.0,0.0
-5.996413,-13.330415,1.48355,5.95,-20.16,94.150002,1729475000201.0,0.0
-7.846066,-15.783059,-1.481157,-18.9,-11.2,61.18,1729475000253.0,0.0
-7.783852,-18.64966,-2.287539,-59.080002,-9.45,24.99,1729475000253.0,0.0
-5.489135,-15.591633,-3.285345,-39.130001,13.09,-18.969999,1729475000263.0,0.0
-5.144568,-13.060026,0.165105,2.17,40.25,-47.740002,1729475000282.0,0.0
-4.376472,-10.047462,0.741775,-47.110001,43.889999,-74.129997,1729475000302.0,0.0
-2.813959,-9.475577,-0.459422,-80.779999,38.360001,-80.010002,1729475000324.0,0.0
-1.4668,-10.365707,-0.071785,-70.349998,21.629999,-81.480003,1729475000343.0,0.0
-0.019143,-7.477571,-0.440279,18.41,38.150002,-65.099998,1729475000362.0,0.0
0.751346,-6.551548,3.988836,61.670002,40.670002,-61.459999,1729475000382.0,0.0
1.871187,-4.955536,6.723832,52.5,18.549999,-43.889999,1729475000403.0,0.0
2.727818,-5.778666,7.465607,30.380001,-16.940001,-21.35,1729475000423.0,0.0
3.050849,-5.864808,3.900301,-22.26,-47.880001,-8.96,1729475000443.0,0.0
3.369094,-5.166104,0.811167,-24.85,-52.009998,14.7,1729475000462.0,0.0
3.290131,-4.931608,-0.696311,-3.22,-41.369999,48.650002,1729475000482.0,0.0
1.787439,-7.439285,-1.11027,5.6,-20.719999,70.840004,1729475000503.0,0.0
-1.65344,-10.303494,-1.636691,9.94,-3.15,83.370003,1729475000524.0,0.0
-8.312666,-16.27598,-0.153141,20.02,5.67,84.349998,1729475000544.0,0.0
-7.996813,-16.7689,-1.835295,-16.450001,9.1,20.719999,1729475000562.0,0.0
-5.175675,-14.464613,-3.4672,-48.09,14.07,-19.389999,1729475000582.0,0.0
-4.496114,-15.354744,-1.462015,-10.15,34.93,-47.110001,1729475000602.0,0.0
-4.192225,-13.150953,-0.418744,-8.96,53.41,-73.43,1729475000623.0,0.0
-2.787638,-10.076177,0.892523,-0.84,53.689999,-83.650002,1729475000643.0,0.0
-1.538585,-6.094519,0.222532,10.22,54.810001,-76.019997,1729475000662.0,0.0
0.334995,-6.218946,3.718446,24.290001,39.619999,-71.190002,1729475000683.0,0.0
2.17029,-6.360123,5.029713,14.56,12.6,-54.810001,1729475000702.0,0.0
3.177669,-5.391029,5.237889,21.700001,-10.78,-30.870001,1729475000723.0,0.0
3.957729,-5.235496,4.639683,14.77,-32.41,-9.45,1729475000742.0,0.0
4.091727,-4.797609,2.337788,-9.73,-41.860001,12.88,1729475000762.0,0.0
3.208775,-4.859823,0.777667,-4.69,-35.91,43.119999,1729475000782.0,0.0
2.124826,-5.010571,0.107677,9.38,-22.33,67.830002,1729475000803.0,0.0
0.416351,-7.642675,0.425922,18.9,-12.95,96.18,1729475000823.0,0.0
-2.646462,-10.784451,0.772882,-4.9,-16.1,102.900002,1729475000842.0,0.0
-7.001399,-15.342779,1.29691,-9.94,-18.549999,93.870003,1729475000862.0,0.0
-7.161718,-17.252251,-2.742175,-28.91,-14.49,55.02,1729475000882.0,0.0
-4.673182,-14.000405,-3.615555,-43.889999,6.79,-1.05,1729475000903.0,0.0
-4.709075,-13.864014,-1.737189,-6.23,34.369999,-20.02,1729475000924.0,0.0
-4.711468,-12.591033,-0.552742,-7.07,50.82,-43.68,1729475000942.0,0.0
-3.881158,-12.313466,0.01675,-29.82,51.240002,-59.43,1729475000962.0,0.0
-3.031706,-10.987842,-1.131805,-47.32,45.5,-75.739998,1729475000981.0,0.0
-1.385444,-9.769895,-0.521635,8.47,47.389999,-72.029999,1729475001003.0,0.0
0.756132,-7.771888,3.792624,62.650002,23.59,-71.120003,1729475001033.0,0.0
2.502892,-3.096312,6.628119,96.879997,10.5,-49.420002,1729475001045.0,0.0
4.283153,-1.088734,7.408179,84.07,-26.880001,-19.879999,1729475001062.0,0.0
4.907679,-0.698704,4.476971,14.84,-52.43,17.99,1729475001082.0,0.0
3.388237,-3.866802,1.083949,-35.420002,-57.82,61.18,1729475001102.0,0.0
1.349552,-7.767102,0.528814,-60.27,-27.790001,75.459999,1729475001123.0,0.0
-1.519442,-11.009377,0.184247,-36.68,-27.93,87.080002,1729475001142.0,0.0
-4.063013,-12.782458,0.502493,11.9,-27.299999,92.889999,1729475001161.0,0.0
-7.460821,-16.642082,-0.088534,4.76,-20.58,71.540001,1729475001182.0,0.0
-7.412964,-18.604195,-3.84048,-25.969999,-11.27,24.57,1729475001202.0,0.0
-5.347959,-15.625132,-3.787838,-11.27,14.98,-31.01,1729475001223.0,0.0
-4.701896,-14.67518,-0.614955,28.559999,41.720001,-60.830002,1729475001242.0,0.0
-3.842873,-11.992826,0.801596,14.91,43.68,-85.470001,1729475001262.0,0.0
-2.608176,-10.313066,0.004786,11.34,45.779999,-94.989998,1729475001283.0,0.0
-2.163112,-7.118648,-0.105284,14.84,37.029999,-96.529999,1729475001302.0,0.0
-0.495314,-6.087341,2.536392,56.630001,36.330002,-83.160004,1729475001322.0,0.0
2.24686,-4.204189,5.690133,58.310001,-1.33,-70.910004,1729475001341.0,0.0
4.388437,-2.646462,6.597012,59.779999,-21.49,-36.470001,1729475001362.0,0.0
4.881358,-3.342773,5.580062,28.139999,-44.66,-3.64,1729475001382.0,0.0
3.907479,-3.684947,3.098706,-36.540001,-47.25,19.32,1729475001402.0,0.0
2.301895,-4.972286,0.179462,-59.220001,-43.119999,47.950001,1729475001423.0,0.0
1.162912,-6.429514,-0.973879,-50.540001,-30.030001,64.540001,1729475001442.0,0.0
-0.555135,-8.626125,-0.009571,-11.27,-18.41,85.75,1729475001461.0,0.0
-2.691926,-9.863215,0.993021,43.889999,-10.57,102.410004,1729475001482.0,0.0
-6.173482,-11.542977,0.988236,34.23,-13.440001,100.660004,1729475001502.0,0.0
-8.977871,-16.795221,-0.208176,-15.54,-14.42,74.830002,1729475001523.0,0.0
-5.587241,-18.254845,-4.051049,-91.279999,-12.67,17.43,1729475001542.0,0.0
-3.053242,-16.144375,-2.175076,-23.940001,25.27,-21.07,1729475001561.0,0.0
-2.617748,-13.718053,-1.368695,-24.639999,51.799999,-54.18,1729475001582.0,0.0
-2.129612,-12.440285,-1.162912,-56.630001,56.07,-75.459999,1729475001602.0,0.0
-0.739382,-11.270195,-1.909473,-45.080002,49.490002,-85.190002,1729475001625.0,0.0
0.619741,-6.62094,-1.572084,27.299999,53.130001,-75.879997,1729475001642.0,0.0
0.981057,-5.587241,4.362115,133.630005,59.849998,-52.709999,1729475001661.0,0.0
1.658226,-1.462015,8.626125,124.739998,37.170002,-48.720001,1729475001682.0,0.0
2.222932,-0.918844,10.597812,79.169998,-2.94,-9.66,1729475001702.0,0.0
2.165504,-1.45005,6.62094,-35.139999,-50.889999,13.72,1729475001724.0,0.0
1.256232,-4.534399,1.713261,-97.580002,-72.379997,45.779999,1729475001741.0,0.0
0.356531,-8.094919,-0.57667,-105.279999,-74.900002,71.050003,1729475001762.0,0.0
-0.87338,-10.430314,-2.383251,-59.150002,-66.010002,89.949997,1729475001782.0,0.0
-3.440879,-14.768501,-3.749553,-0.7,-37.240002,90.93,1729475001802.0,0.0
-7.111469,-20.781666,-3.07717,0.7,-15.190001,47.389999,1729475001833.0,0.0
-6.91765,-19.757536,-3.835695,-0.77,10.15,9.52,1729475001842.0,0.0
-3.98405,-13.584054,-3.050849,13.37,38.779999,-31.780001,1729475001861.0,0.0
-2.854637,-11.62194,0.409173,27.23,51.029999,-51.450001,1729475001882.0,0.0
-2.589034,-10.734202,0.540778,-6.02,48.650002,-76.580002,1729475001902.0,0.0
-1.940579,-8.755339,1.162912,6.02,36.959999,-75.529999,1729475001922.0,0.0
-1.581656,-5.407779,1.229911,22.540001,33.740002,-67.970001,1729475001943.0,0.0
-0.868595,-4.515256,2.048256,40.670002,28.0,-53.48,1729475001962.0,0.0
-1.129412,-4.34058,3.433701,-6.65,10.57,-43.330002,1729475001982.0,0.0
-1.641476,-6.412765,3.833302,-64.190002,-9.94,-26.18,1729475002002.0,0.0
-1.493121,-7.68096,2.581856,-110.809998,-32.130001,-24.08,1729475002023.0,0.0
-1.392623,-7.795816,0.535992,-128.449997,-38.779999,-16.870001,1729475002044.0,0.0
-0.457029,-8.080563,-1.543371,-116.760002,-46.41,-3.5,1729475002062.0,0.0
1.057628,-9.583255,-2.445465,-93.590004,-56.209999,16.17,1729475002082.0,0.0
1.962115,-11.583653,-2.782853,-76.580002,-59.849998,28.84,1729475002101.0,0.0
1.95015,-11.672189,-2.443072,-34.790001,-48.860001,28.42,1729475002133.0,0.0
1.160519,-12.222539,-1.751546,8.26,-30.52,25.620001,1729475002142.0,0.0
0.112463,-11.102697,-1.177269,-3.92,-23.52,9.38,1729475002161.0,0.0
-0.37328,-9.293723,-1.098306,-14.28,-20.09,9.45,1729475002182.0,0.0
-0.39003,-7.925028,-2.134398,-25.059999,-14.14,14.0,1729475002202.0,0.0
-1.009771,-7.958528,-2.761317,-55.09,-8.4,16.24,1729475002224.0,0.0
-1.39023,-9.839286,-3.086741,-95.340004,-4.41,14.7,1729475002241.0,0.0
-1.057628,-10.604989,-3.919443,-93.519997,-9.66,14.63,1729475002261.0,0.0
-0.490529,-11.05484,-4.541577,-57.889999,-3.08,15.82,1729475002281.0,0.0
-0.289532,-10.509278,-3.366701,-21.84,0.42,10.85,1729475002301.0,0.0
-0.473779,-9.659825,-2.232504,2.03,5.11,8.75,1729475002325.0,0.0
-0.5001,-9.535398,-2.050649,-16.1,3.29,-0.14,1729475002342.0,0.0
-0.157926,-9.463614,-2.682354,-42.209999,-0.07,-3.99,1729475002361.0,0.0
-0.145962,-9.827322,-2.486143,-53.130001,-4.41,-4.76,1729475002381.0,0.0
-0.490529,-10.260423,-2.550749,-39.970001,-7.14,-1.12,1729475002401.0,0.0
-0.722632,-9.695717,-2.323431,-15.26,-8.26,0.98,1729475002423.0,0.0
-0.9667,-7.970492,-2.730211,-12.46,-3.22,2.45,1729475002449.0,0.0
-1.356731,-9.41815,-3.818945,-20.719999,-6.09,7.35,1729475002461.0,0.0
-1.811367,-11.219944,-4.005585,-40.740002,-8.33,3.22,1729475002483.0,0.0
-1.837688,-11.619547,-4.127619,-22.33,-2.87,0.91,1729475002504.0,0.0
-1.344766,-9.341579,-3.656233,-23.379999,3.71,-7.98,1729475002525.0,0.0
-1.622334,-9.35833,-4.070191,-27.440001,6.93,-3.5,1729475002542.0,0.0
-1.954936,-8.975478,-3.976871,-33.599998,15.05,-4.48,1729475002562.0,0.0
-1.701297,-9.272188,-5.484349,-40.459999,19.18,-3.08,1729475002582.0,0.0
-1.292124,-9.573684,-5.278566,-45.080002,23.940001,-2.17,1729475002613.0,0.0
-1.375873,-10.092925,-1.864009,-34.580002,25.34,-1.61,1729475002624.0,0.0
0.502493,-9.032906,0.806381,2.8,1.61,3.08,1729475002642.0,0.0
1.208375,-10.674382,0.591027,46.689999,-24.08,3.92,1729475002662.0,0.0
-0.540778,-8.147561,-0.713061,7.0,-19.6,-31.57,1729475002683.0,0.0
-1.672583,-7.683353,-3.708875,-36.259998,-23.17,-24.290001,1729475002703.0,0.0
-0.736989,-7.867601,-6.331409,-85.889999,-32.830002,-23.1,1729475002725.0,0.0
0.413958,-9.982857,-6.888937,-89.529999,-34.16,-14.35,1729475002744.0,0.0
0.952343,-10.727024,-5.998806,-38.080002,-22.190001,-12.88,1729475002762.0,0.0
0.234497,-10.487741,-4.871787,39.48,-11.06,-8.89,1729475002784.0,0.0
-1.708475,-7.920243,-4.149154,77.559998,-4.9,-14.63,1729475002803.0,0.0
-1.56012,-5.766702,-2.962314,86.940002,-7.56,-3.85,1729475002824.0,0.0
-2.467,-8.798409,-4.539185,-36.959999,-31.710001,0.14,1729475002844.0,0.0
-3.148954,-11.255837,-6.288338,-66.849998,-31.43,-2.03,1729475002863.0,0.0
-3.273381,-10.911271,-7.724032,-23.52,-11.97,-3.99,1729475002884.0,0.0
-2.768496,-9.030513,-8.49452,38.779999,19.110001,-0.35,1729475002904.0,0.0
-1.442872,-8.616554,-6.848258,48.369999,36.189999,5.32,1729475002926.0,0.0
-0.933201,-8.690732,-6.802795,16.1,45.009998,9.17,1729475002944.0,0.0
-1.509871,-8.575876,-6.405586,-12.53,67.269997,3.43,1729475002963.0,0.0
-1.028914,-6.932007,-4.493721,-6.09,74.760002,7.63,1729475002984.0,0.0
-0.366102,-6.726225,3.744767,7.35,59.43,19.460001,1729475003004.0,0.0
1.229911,-8.023134,4.515256,-16.24,6.51,19.18,1729475003025.0,0.0
2.459821,-9.915856,1.469193,46.549999,-45.220001,28.280001,1729475003048.0,0.0
-0.315853,-7.60439,-1.591227,23.1,-27.299999,-1.33,1729475003065.0,0.0
-3.63709,-8.578269,-5.04407,-45.009998,-23.73,-9.38,1729475003084.0,0.0
-0.378066,-10.167104,-6.173482,-71.050003,-54.529999,-1.68,1729475003105.0,0.0
3.012564,-9.690931,-5.465207,4.06,-71.75,36.68,1729475003125.0,0.0
-1.351945,-9.001799,-0.777667,53.130001,-32.549999,23.309999,1729475003144.0,0.0
-5.737988,-9.456435,-4.235296,-42.139999,-29.190001,-2.87,1729475003170.0,0.0
-6.876972,-11.440084,-8.489735,-92.260002,-43.259998,-0.63,1729475003183.0,0.0
-4.063013,-10.870593,-10.999805,-52.779999,-19.25,1.61,1729475003204.0,0.0
-1.275374,-9.786645,-8.767302,22.120001,22.049999,9.24,1729475003276.0,0.0
0.059821,-8.520842,-5.740381,60.689999,42.77,12.32,1729475003279.0,0.0
-0.641276,-8.216952,-7.752745,49.630001,54.599998,4.62,1729475003280.0,0.0
-1.158126,-7.546963,-8.640482,11.62,68.25,-7.98,1729475003284.0,0.0
-1.074377,-6.326623,-4.929214,-24.5,80.5,-6.51,1729475003304.0,0.0
-0.990629,-5.955735,5.190032,-38.849998,63.98,1.75,1729475003324.0,0.0
0.784846,-7.865208,7.788638,-24.99,-4.2,14.91,1729475003343.0,0.0
-0.595813,-11.38505,-0.18664,-10.64,-53.689999,-1.33,1729475003363.0,0.0
-3.766303,-10.480563,-5.024928,-56.630001,-34.580002,-49.84,1729475003383.0,0.0
-4.297509,-9.126225,-7.192825,-73.779999,-46.970001,-34.23,1729475003404.0,0.0
-0.765703,-9.253045,-5.702096,-62.93,-56.279999,-21.559999,1729475003425.0,0.0
1.770689,-10.315458,-4.520042,-31.290001,-58.73,-10.08,1729475003444.0,0.0
-2.311467,-5.759524,-5.206782,31.360001,-16.450001,-21.629999,1729475003464.0,0.0
-4.354938,-7.963314,-6.049056,3.99,-28.210001,-2.73,1729475003484.0,0.0
-4.0008,-9.056834,-9.552148,-52.920002,-34.93,-6.72,1729475003504.0,0.0
-2.74696,-8.032705,-11.078769,-36.889999,3.01,2.52,1729475003525.0,0.0
-0.969093,-8.817552,-9.343972,17.360001,30.24,11.9,1729475003544.0,0.0
0.074178,-8.252845,-8.805587,58.029999,48.580002,14.91,1729475003563.0,0.0
-0.181855,-7.865208,-9.24826,74.900002,72.239998,12.25,1729475003584.0,0.0
-0.650848,-6.879365,-4.438686,33.389999,93.099998,1.82,1729475003604.0,0.0
-0.473779,-5.828916,-0.567099,-13.65,76.860001,5.67,1729475003625.0,0.0
1.39023,-9.233903,12.567105,37.170002,-8.75,31.43,1729475003644.0,0.0
-0.160319,-10.504492,-3.574877,27.51,-56.0,10.64,1729475003663.0,0.0
-3.314059,-11.014162,-6.541977,-17.710001,-37.59,-40.040001,1729475003683.0,0.0
-4.342973,-10.470992,-5.948557,-20.65,-38.360001,-6.93,1729475003704.0,0.0
-0.497707,-9.607183,-2.799603,25.690001,-48.93,-3.64,1729475003725.0,0.0
-0.071785,-7.054041,-1.976472,71.75,-37.450001,10.64,1729475003744.0,0.0
-1.942972,-7.15454,-3.694518,45.849998,-42.700001,1.19,1729475003764.0,0.0
-5.520242,-9.559326,-7.805387,-38.779999,-47.040001,1.82,1729475003783.0,0.0
-4.819145,-10.073784,-11.131411,-53.48,-18.9,-1.54,1729475003804.0,0.0
-2.28036,-9.657433,-10.887343,22.469999,20.16,5.18,1729475003825.0,0.0
-0.710668,-7.712067,-5.881558,56.98,53.41,6.23,1729475003844.0,0.0
-0.598206,-7.750352,-6.778866,25.549999,53.200001,3.99,1729475003863.0,0.0
-1.277767,-8.255238,-7.317252,-39.619999,57.610001,-11.76,1729475003884.0,0.0
-1.658226,-9.23151,-6.601797,-51.099998,63.91,-12.04,1729475003903.0,0.0
-0.552742,-8.666803,-3.404987,-18.83,65.590004,-6.37,1729475003925.0,0.0
-0.729811,-6.144768,10.817951,-1.26,54.740002,-2.31,1729475003944.0,0.0
0.050249,-9.975677,6.678369,12.25,-30.59,14.35,1729475003963.0,0.0
-1.411765,-10.478169,-3.45045,-54.389999,-72.730003,-30.870001,1729475003983.0,0.0
-2.316252,-12.067005,-8.60459,-39.27,-63.07,-36.75,1729475004004.0,0.0
-0.856631,-11.274981,-8.580662,5.32,-54.25,-15.68,1729475004024.0,0.0
0.323031,-9.355937,-4.354938,91.419998,-24.08,0.63,1729475004048.0,0.0
-1.404587,-6.979864,-2.364109,116.480003,-5.04,-2.94,1729475004064.0,0.0
-2.397608,-8.068598,-2.830709,114.520004,-16.030001,7.07,1729475004083.0,0.0
-3.424129,-7.953743,-5.259424,11.69,-24.710001,-0.91,1729475004104.0,0.0
-4.319045,-10.640882,-9.705289,-67.620003,-20.299999,-6.09,1729475004125.0,0.0
-2.739782,-10.119246,-9.812965,-3.36,27.65,-2.31,1729475004143.0,0.0
-1.091127,-7.874779,-5.359922,40.459999,57.119999,-2.31,1729475004163.0,0.0
-0.89013,-7.334002,-7.269395,8.89,62.16,-5.81,1729475004183.0,0.0
-0.935594,-9.145369,-7.829315,-24.92,61.459999,-6.86,1729475004204.0,0.0
-0.244068,-9.284152,-5.022535,-7.49,72.800003,-4.48,1729475004224.0,0.0
-0.071785,-7.515855,3.354738,16.309999,71.540001,-2.87,1729475004244.0,0.0
-0.043071,-5.479564,13.85205,4.76,20.790001,-1.12,1729475004263.0,0.0
-0.198604,-10.301102,0.074178,-9.1,-73.709999,4.06,1729475004283.0,0.0
-2.605784,-11.205588,-6.324231,-82.25,-72.870003,-46.41,1729475004304.0,0.0
-3.127419,-10.581062,-8.346166,-43.119999,-60.689999,-25.690001,1729475004325.0,0.0
-0.892523,-8.580662,-5.458029,-6.86,-41.16,-12.53,1729475004343.0,0.0
-0.567099,-8.932407,-2.902494,3.92,-37.240002,-0.07,1729475004363.0,0.0
-0.581456,-7.941778,-4.393222,30.380001,-31.5,-1.4,1729475004385.0,0.0
-1.507478,-9.042477,-4.744967,27.58,-33.25,9.59,1729475004404.0,0.0
-2.737389,-7.659425,-6.364908,-30.52,-17.5,-1.54,1729475004424.0,0.0
-3.455236,-7.944171,-9.473185,-73.290001,-1.82,-0.35,1729475004444.0,0.0
-1.598405,-10.509278,-9.501899,-41.02,9.52,13.440001,1729475004463.0,0.0
-0.574277,-9.657433,-7.733603,66.849998,47.950001,13.65,1729475004491.0,0.0
-1.459622,-8.305488,-7.702496,78.120003,80.150002,5.39,1729475004506.0,0.0
-1.758725,-6.51087,-5.659025,30.450001,92.120003,-2.17,1729475004524.0,0.0
-1.134198,-6.513263,-1.416551,-32.130001,81.690002,2.73,1729475004544.0,0.0
-1.249053,-6.63769,15.25903,-56.349998,37.170002,15.61,1729475004564.0,0.0
1.012164,-13.710874,3.35713,19.110001,-55.16,38.150002,1729475004583.0,0.0
-1.473979,-11.126624,-3.828516,-73.849998,-56.209999,-52.5,1729475004613.0,0.0
-3.617948,-10.162319,-8.245667,-60.549999,-49.77,-31.99,1729475004630.0,0.0
-1.239482,-7.479963,-6.070591,-69.510002,-41.369999,-15.96,1729475004647.0,0.0
0.933201,-8.949157,-4.063013,-57.260002,-52.150002,-2.38,1729475004666.0,0.0
-0.849452,-8.578269,-5.173282,7.21,-40.599998,1.89,1729475004683.0,0.0
-1.643869,-6.149554,-6.908078,72.239998,-20.93,6.58,1729475004704.0,0.0
-3.199204,-8.68116,-7.515855,52.150002,-33.040001,20.370001,1729475004725.0,0.0
-4.627719,-9.085547,-8.671589,-0.7,-5.81,16.870001,1729475004744.0,0.0
-3.541377,-8.784052,-9.798609,-26.32,23.450001,5.88,1729475004764.0,0.0
-1.423729,-9.686146,-8.334201,-7.49,26.809999,3.64,1729475004784.0,0.0
-0.306281,-8.987441,-8.693125,21.629999,46.130001,1.54,1729475004805.0,0.0
-0.5001,-8.035098,-8.748159,28.77,69.370003,-5.67,1729475004835.0,0.0
-0.772882,-7.946564,-5.383851,41.09,85.959999,0.21,1729475004846.0,0.0
-0.751346,-8.047063,1.292124,20.440001,88.690002,-3.57,1729475004864.0,0.0
-0.990629,-5.9677,11.332408,-17.360001,50.259998,-1.54,1729475004884.0,0.0
1.344766,-10.236496,5.359922,-15.26,-48.790001,6.93,1729475004905.0,0.0
-1.007378,-11.330014,-4.807181,-93.660004,-87.639999,-37.939999,1729475004926.0,0.0
-3.18724,-11.461621,-10.009177,-117.389999,-54.950001,-57.889999,1729475004946.0,0.0
-1.799403,-9.253045,-7.745567,-55.23,-46.689999,-28.0,1729475004967.0,0.0
-0.370888,-9.853643,-3.921836,1.12,-40.529999,-19.809999,1729475004985.0,0.0
-0.732204,-7.573284,-4.615755,66.290001,-37.450001,-19.809999,1729475005006.0,0.0
-1.040878,-7.099504,-5.063213,120.050003,-28.559999,-6.65,1729475005027.0,0.0
-2.191825,-6.206983,-6.649654,52.080002,-38.5,-5.32,1729475005049.0,0.0
-3.519842,-7.848458,-9.157332,-79.309998,-11.55,-3.29,1729475005067.0,0.0
-3.649055,-10.195816,-12.260822,-38.920002,10.85,8.12,1729475005086.0,0.0
-1.85683,-9.650253,-8.243275,50.610001,44.380001,11.76,1729475005106.0,0.0
-1.124627,-7.097112,-8.585447,71.68,68.949997,8.54,1729475005130.0,0.0
-1.179662,-6.448657,-7.546963,46.130001,82.25,7.56,1729475005148.0,0.0
-1.356731,-7.992027,-3.550949,28.91,82.879997,17.01,1729475005168.0,0.0
-1.423729,-7.690532,5.398208,-4.06,64.330002,9.66,1729475005185.0,0.0
-0.155533,-6.977471,6.9344,-31.639999,11.48,11.41,1729475005210.0,0.0
2.15354,-9.786645,1.378266,-31.01,-64.260002,7.14,1729475005228.0,0.0
-0.531207,-10.990234,-6.147161,-67.970001,-61.040001,-22.190001,1729475005248.0,0.0
-2.624927,-10.755738,-7.618747,-86.870003,-32.41,-36.049999,1729475005265.0,0.0
-0.622134,-9.260223,-6.424729,-49.0,-47.950001,-12.39,1729475005284.0,0.0
1.404587,-8.946764,-4.326223,1.96,-49.349998,-1.68,1729475005306.0,0.0
-1.115055,-6.740582,-4.759324,58.66,-26.880001,4.76,1729475005328.0,0.0
-2.988636,-7.384251,-6.67119,63.91,-7.35,7.35,1729475005345.0,0.0
-4.704289,-8.606983,-8.437093,-49.0,-15.75,3.5,1729475005365.0,0.0
-4.063013,-8.973085,-12.335001,-83.370003,5.95,2.73,1729475005386.0,0.0
-1.289732,-9.815358,-9.013763,25.83,36.959999,17.99,1729475005407.0,0.0
-0.066999,-7.609176,-8.35813,73.290001,63.279999,13.65,1729475005427.0,0.0
-0.947558,-5.941379,-7.630712,51.66,90.370003,5.88,1729475005448.0,0.0
-1.682154,-5.479564,-5.592027,-19.67,94.779999,1.19,1729475005466.0,0.0
-1.864009,-8.585447,3.835695,-59.709999,57.260002,5.39,1729475005485.0,0.0
0.918844,-10.669596,4.87418,-47.880001,-6.79,8.47,1729475005506.0,0.0
3.54377,-11.162518,0.605384,0.7,-63.279999,-6.16,1729475005525.0,0.0
0.160319,-8.523234,-6.374479,-34.02,-54.599998,-47.110001,1729475005545.0,0.0
-3.120241,-8.750552,-8.535198,-77.139999,-23.24,-53.689999,1729475005565.0,0.0
-2.294717,-10.497313,-8.123632,-85.120003,-47.459999,-45.849998,1729475005585.0,0.0
1.469193,-11.365908,-5.254639,-14.77,-59.639999,-29.120001,1729475005607.0,0.0
0.739382,-8.896514,-3.266203,115.919998,-31.08,-12.25,1729475005628.0,0.0
-1.844866,-5.063213,-3.972085,175.139999,10.57,-6.09,1729475005647.0,0.0
-4.699504,-6.357729,-5.771489,50.610001,3.99,-6.37,1729475005665.0,0.0
-5.584848,-8.475377,-9.492328,-63.490002,-13.23,3.64,1729475005687.0,0.0
-2.096112,-9.008978,-10.581062,-38.990002,-2.66,19.110001,1729475005707.0,0.0
-0.315853,-7.73121,-7.558927,87.290001,54.740002,25.27,1729475005727.0,0.0
-0.995414,-6.970293,-8.068598,70.840004,80.360001,18.48,1729475005747.0,0.0
-1.928615,-6.750153,-6.78126,-2.03,89.739998,9.24,1729475005765.0,0.0
-1.878366,-7.987241,0.600598,-56.630001,68.739998,6.51,1729475005785.0,0.0
-0.358923,-9.116654,3.854837,-55.93,18.200001,11.97,1729475005805.0,0.0
2.885744,-11.62194,3.364309,-55.93,-40.810001,7.21,1729475005826.0,0.0
1.95015,-8.630912,-3.421736,5.88,-50.610001,-25.48,1729475005846.0,0.0
-1.61037,-7.520642,-6.664011,-13.23,-22.82,-29.75,1729475005865.0,0.0
-2.562713,-8.449057,-7.568498,-45.779999,-29.26,-20.23,1729475005885.0,0.0
0.705883,-9.832108,-6.833901,-29.120001,-61.529999,-8.19,1729475005905.0,0.0
2.914458,-10.255639,-5.257031,38.080002,-38.43,2.73,1729475005926.0,0.0
-0.674776,-6.668797,-3.37388,99.889999,-25.76,1.75,1729475005946.0,0.0
-3.682554,-6.606583,-3.129812,84.349998,12.18,4.62,1729475005964.0,0.0
-5.589634,-8.049455,-8.62134,-87.849998,-17.710001,-9.52,1729475005985.0,0.0
-4.945964,-8.985049,-11.375479,-129.639999,-24.08,6.44,1729475006005.0,0.0
-2.239682,-9.997212,-10.827522,-29.540001,5.88,21.35,1729475006027.0,0.0
-0.641276,-7.573284,-8.274381,102.129997,44.799999,32.34,1729475006049.0,0.0
-2.146362,-5.79781,-5.690133,106.050003,100.870003,14.77,1729475006067.0,0.0
-2.608176,-7.159326,0.459422,-1.33,74.340004,5.18,1729475006085.0,0.0
0.026321,-8.135597,1.239482,-75.32,1.33,4.76,1729475006107.0,0.0
2.85703,-10.135997,-0.07657,-79.379997,-31.360001,-2.73,1729475006126.0,0.0
3.158526,-10.265208,-2.548356,-13.72,-46.41,-14.35,1729475006145.0,0.0
-0.859023,-9.037691,-6.329016,10.78,-17.92,-27.58,1729475006165.0,0.0
-3.63709,-9.300901,-5.946165,-6.02,-8.12,-30.940001,1729475006185.0,0.0
-1.227518,-9.552148,-5.704489,8.96,-42.77,-11.55,1729475006206.0,0.0
2.37368,-9.028119,-4.335794,47.670002,-46.130001,-1.33,1729475006227.0,0.0
-0.117248,-7.537392,-2.208575,75.669998,-28.77,5.81,1729475006246.0,0.0
-3.960121,-6.051448,-3.684947,20.16,3.22,-5.04,1729475006264.0,0.0
-6.096912,-8.736196,-9.844072,-88.269997,-14.07,0.63,1729475006285.0,0.0
-5.32403,-10.995021,-12.167502,-83.300003,-16.52,13.79,1729475006305.0,0.0
-2.500499,-9.712467,-9.832108,29.049999,35.139999,26.32,1729475006327.0,0.0
-0.5001,-8.209774,-5.479564,112.910004,59.080002,24.57,1729475006346.0,0.0
-0.914058,-7.336394,-5.577669,79.379997,68.32,6.65,1729475006365.0,0.0
-1.337588,-7.767102,-6.065805,-15.82,65.169998,-9.73,1729475006384.0,0.0
-0.425922,-9.348758,0.51685,-79.449997,35.0,-7.98,1729475006406.0,0.0
1.28016,-10.487741,1.478764,-54.18,13.3,-5.11,1729475006427.0,0.0
2.773281,-9.844072,1.689333,-29.190001,-23.870001,-23.799999,1729475006445.0,0.0
0.806381,-7.625926,-2.522035,-9.59,-28.77,-33.810001,1729475006464.0,0.0
-2.007578,-7.484749,-6.757331,-37.939999,-19.460001,-37.869999,1729475006484.0,0.0
-2.828316,-8.784052,-7.001399,-75.459999,-23.73,-32.689999,1729475006505.0,0.0
-0.050249,-9.779467,-6.723832,-55.02,-49.98,-15.75,1729475006536.0,0.0
1.90708,-9.75793,-4.898108,11.06,-44.170002,-3.01,1729475006545.0,0.0
-0.679562,-6.453443,-4.898108,95.340004,-16.309999,0.35,1729475006565.0,0.0
-3.18724,-4.907679,-6.616155,97.230003,10.01,10.99,1729475006588.0,0.0
-5.252246,-8.226524,-9.932607,-16.870001,10.01,8.68,1729475006604.0,0.0
-5.630312,-11.581261,-10.916058,-31.360001,5.46,22.469999,1729475006626.0,0.0
-2.081756,-9.466006,-7.822137,56.349998,36.189999,23.450001,1729475006646.0,0.0
-0.239282,-7.235896,-6.754939,90.440002,53.760002,19.6,1729475006664.0,0.0
-0.184247,-7.104291,-7.219146,31.99,64.68,5.6,1729475006686.0,0.0
-0.875773,-7.913064,0.842274,-37.869999,62.720001,-1.47,1729475006710.0,0.0
0.351745,-8.788837,0.904487,-42.560001,15.68,3.08,1729475006727.0,0.0
2.337788,-7.99442,1.674976,-21.49,-21.559999,-1.89,1729475006746.0,0.0
1.134198,-7.549356,-2.548356,0.7,-30.380001,-0.98,1729475006765.0,0.0
-1.928615,-8.185846,-6.62094,-49.630001,-21.98,-13.37,1729475006785.0,0.0
-3.110669,-10.317852,-7.786245,-90.019997,-27.790001,-18.059999,1729475006806.0,0.0
-0.662812,-11.351551,-5.938986,-41.16,-56.209999,-4.69,1729475006827.0,0.0
0.624527,-10.638489,-3.536592,41.790001,-44.73,-3.29,1729475006847.0,0.0
-1.674976,-6.309873,-3.821337,83.720001,-22.960001,-12.67,1729475006868.0,0.0
-3.48395,-6.039484,-5.17089,23.450001,-21.280001,-9.8,1729475006886.0,0.0
-3.15374,-7.896315,-8.54477,-75.529999,-51.029999,-6.86,1729475006906.0,0.0
-2.210968,-9.753145,-11.184053,-55.790001,-32.619999,13.79,1729475006927.0,0.0
-2.28036,-10.073784,-10.916058,23.870001,20.02,19.809999,1729475006947.0,0.0
-2.021935,-9.846465,-6.678369,95.410004,50.610001,22.540001,1729475006966.0,0.0
-0.930808,-6.958328,-8.035098,91.279999,56.77,6.09,1729475006986.0,0.0
-0.270389,-6.592227,-6.91765,6.37,61.18,1.68,1729475007009.0,0.0
-0.672383,-8.286345,-1.021735,-45.779999,60.41,1.75,1729475007028.0,0.0
-0.229711,-8.874979,2.620141,-30.24,23.940001,1.4,1729475007049.0,0.0
1.902294,-9.877571,2.778067,33.740002,-28.91,-1.05,1729475007067.0,0.0
0.452243,-7.506285,-2.660819,25.129999,-34.09,-23.1,1729475007087.0,0.0
-2.813959,-7.422535,-6.963113,-82.739998,-21.280001,-40.18,1729475007109.0,0.0
-3.663411,-10.004392,-7.345965,-131.320007,-35.84,-30.309999,1729475007130.0,0.0
0.447458,-10.861022,-5.931807,-48.93,-60.549999,-6.51,1729475007149.0,0.0
1.196411,-11.803794,-3.579663,77.980003,-37.59,2.24,1729475007166.0,0.0
-1.847259,-5.369494,-4.735396,137.619995,-5.39,-6.72,1729475007188.0,0.0
-4.388437,-5.491528,-5.347959,43.75,5.32,-7.21,1729475007208.0,0.0
-4.816752,-7.728817,-9.315259,-102.970001,-31.85,-9.73,1729475007229.0,0.0
-3.041277,-9.296116,-12.811172,-114.449997,-26.110001,3.71,1729475007250.0,0.0
-0.887737,-10.267602,-10.109675,-5.6,17.85,18.200001,1729475007266.0,0.0
-0.29671,-9.365508,-6.518049,115.290001,53.830002,29.4,1729475007287.0,0.0
-1.761117,-6.005985,-5.453243,105.419998,78.889999,9.94,1729475007308.0,0.0
-1.629512,-6.094519,-4.161119,-43.889999,63.84,-2.59,1729475007328.0,0.0
-0.543171,-8.764909,0.272782,-89.949997,20.719999,4.06,1729475007346.0,0.0
1.478764,-10.346564,0.447458,-67.059998,-6.79,-0.21,1729475007367.0,0.0
2.691926,-9.901501,-0.789631,-10.71,-31.01,-11.55,1729475007388.0,0.0
-0.023928,-8.090133,-4.945964,4.13,-23.379999,-23.030001,1729475007407.0,0.0
-2.739782,-8.181061,-6.788438,-68.949997,-10.36,-39.549999,1729475007429.0,0.0
-1.89033,-10.009177,-7.295716,-89.389999,-44.73,-29.960001,1729475007447.0,0.0
1.335195,-9.84168,-6.943972,-8.33,-58.310001,-10.78,1729475007469.0,0.0
-0.232104,-8.372486,-5.151747,112.419998,-23.24,-1.19,1729475007489.0,0.0
-2.615355,-6.300302,-5.812167,138.880005,13.23,-4.34,1729475007506.0,0.0
-4.503292,-7.389036,-6.405586,25.059999,3.71,-2.03,1729475007527.0,0.0
-3.811767,-8.116454,-9.128618,-55.580002,-9.38,1.47,1729475007547.0,0.0
-1.641476,-8.126025,-10.124033,-51.240002,8.26,5.11,1729475007568.0,0.0
0.141177,-10.925629,-7.587641,34.509998,18.41,20.860001,1729475007587.0,0.0
0.045464,-9.269794,-7.025328,90.090004,51.869999,14.07,1729475007607.0,0.0
-1.201197,-6.831509,-6.759724,65.169998,81.830002,-4.13,1729475007627.0,0.0
-1.509871,-7.798209,-0.457029,-13.02,77.489998,-7.42,1729475007648.0,0.0
-0.660419,-8.659625,1.165305,-48.720001,31.15,1.47,1729475007668.0,0.0
1.586441,-9.908678,1.182054,-15.75,-8.89,0.56,1729475007687.0,0.0
1.72044,-8.614161,-1.4668,43.889999,-30.309999,0.77,1729475007706.0,0.0
-0.988236,-7.37468,-6.106483,0.07,-14.49,-25.41,1729475007729.0,0.0
-2.883351,-9.150154,-6.374479,-70.0,-17.360001,-27.790001,1729475007747.0,0.0
-0.459422,-9.564112,-5.716454,-45.5,-60.060001,-16.030001,1729475007768.0,0.0
1.682154,-9.51147,-5.402994,63.700001,-56.0,5.46,1729475007787.0,0.0
-0.964308,-5.891129,-4.876573,138.669998,-25.129999,3.57,1729475007807.0,0.0
-4.173083,-7.018148,-5.335995,97.510002,-3.29,6.86,1729475007829.0,0.0
-6.089733,-10.116854,-8.441878,-54.110001,-17.15,-1.82,1729475007847.0,0.0
-4.254438,-8.743374,-10.135997,-87.989998,-17.639999,1.89,1729475007867.0,0.0
-1.098306,-8.752945,-7.458428,-18.27,11.06,19.389999,1729475007887.0,0.0
0.449851,-9.518648,-5.87438,37.52,21.210001,26.25,1729475007909.0,0.0
-0.562313,-8.630912,-6.728617,48.790001,46.830002,13.09,1729475007927.0,0.0
-1.45005,-7.01097,-7.233503,8.96,62.790001,-0.98,1729475007947.0,0.0
-1.146162,-7.271788,-1.473979,-27.440001,54.389999,4.48,1729475007976.0,0.0
1.244268,-7.896315,2.761317,-42.139999,30.66,11.13,1729475007987.0,0.0
2.57707,-11.150554,-0.200997,-27.51,-48.790001,10.29,1729475008006.0,0.0
-0.311067,-11.387443,-6.836295,-38.290001,-45.779999,-24.85,1729475008028.0,0.0
-3.330809,-10.435099,-7.271788,-40.32,-13.51,-41.439999,1729475008050.0,0.0
-2.254039,-8.638089,-4.835894,-2.38,-27.719999,-19.389999,1729475008067.0,0.0
0.378066,-7.779066,-3.498307,25.48,-42.98,-11.97,1729475008087.0,0.0
-1.086342,-8.937192,-2.517249,62.23,-48.580002,-4.41,1729475008106.0,0.0
-3.266203,-8.590233,-5.312066,74.340004,-37.240002,-10.08,1729475008127.0,0.0
-3.862016,-8.755339,-7.046863,20.790001,-43.470001,-10.99,1729475008147.0,0.0
-3.026921,-8.243275,-8.566305,-33.18,-32.830002,-8.96,1729475008165.0,0.0
-2.112862,-7.338787,-9.111869,-51.939999,-2.59,-1.68,1729475008187.0,0.0
-1.292124,-7.609176,-8.439486,-31.01,19.809999,10.43,1729475008206.0,0.0
-0.413958,-9.250652,-6.065805,12.95,26.18,23.1,1729475008283.0,0.0
-0.595813,-8.719445,-7.590034,23.73,37.939999,14.84,1729475008292.0,0.0
-1.194018,-8.102098,-8.391629,14.21,58.240002,3.99,1729475008294.0,0.0
-0.976272,-7.817351,-5.826523,-7.91,68.809998,3.29,1729475008296.0,0.0
0.308674,-8.128418,2.210968,-16.870001,55.860001,6.3,1729475008311.0,0.0
1.337588,-7.850852,2.012364,-17.639999,24.92,-0.21,1729475008331.0,0.0
0.76331,-10.329816,-2.0004,-9.31,-33.950001,-3.36,1729475008346.0,0.0
-2.014757,-10.671989,-7.159326,-28.559999,-28.35,-21.07,1729475008368.0,0.0
-3.148954,-10.351351,-6.673582,-21.559999,-7.84,-25.129999,1729475008386.0,0.0
-0.614955,-9.229117,-4.965107,7.56,-21.559999,-8.96,1729475008408.0,0.0
1.529014,-8.793623,-3.184847,46.900002,-31.15,-6.09,1729475008428.0,0.0
-1.115055,-6.795617,-3.122634,86.449997,-25.34,-3.29,1729475008447.0,0.0
-3.034099,-6.065805,-6.202196,62.510002,-9.17,-5.67,1729475008466.0,0.0
-4.352544,-8.085347,-8.449057,-67.900002,-24.780001,-6.23,1729475008487.0,0.0
-3.924229,-10.114462,-11.052447,-101.080002,-17.710001,2.59,1729475008509.0,0.0
-1.689333,-9.355937,-9.690931,-13.440001,23.66,14.84,1729475008529.0,0.0
-0.131605,-8.834301,-6.022735,74.340004,49.07,21.210001,1729475008548.0,0.0
-0.937986,-8.039884,-6.709475,63.490002,65.239998,12.32,1729475008572.0,0.0
-1.978864,-7.089933,-6.635297,-6.86,77.559998,-1.54,1729475008585.0,0.0
-2.419144,-9.602397,-1.85683,-55.510002,60.41,-1.96,1729475008607.0,0.0
-0.315853,-9.875179,-0.133998,-32.200001,22.4,2.87,1729475008629.0,0.0
1.923829,-7.65464,1.363909,-18.27,11.34,-16.450001,1729475008647.0,0.0
0.48335,-7.805387,-2.227718,-2.03,-30.73,-8.82,1729475008665.0,0.0
-2.053042,-8.097312,-6.333801,-36.75,-17.780001,-24.639999,1729475008686.0,0.0
-3.081956,-9.169296,-6.539584,-57.889999,-19.67,-21.139999,1729475008710.0,0.0
-0.514457,-9.896714,-6.063413,-40.599998,-47.459999,-10.01,1729475008726.0,0.0
2.502892,-9.600004,-4.802395,16.24,-49.420002,-4.9,1729475008747.0,0.0
1.134198,-9.044869,-2.620141,95.059998,-37.450001,-0.98,1729475008766.0,0.0
-1.471586,-5.259424,-4.881358,93.029999,-19.460001,-9.66,1729475008786.0,0.0
-3.991228,-6.23091,-6.819544,-18.969999,-19.040001,1.33,1729475008812.0,0.0
-5.333601,-8.767302,-10.253245,-142.660004,-28.210001,-1.05,1729475008826.0,0.0
-3.821337,-10.408779,-12.847065,-95.620003,-17.5,18.129999,1729475008869.0,0.0
-0.514457,-10.621738,-7.977671,61.880001,31.219999,34.299999,1729475008869.0,0.0
-0.275175,-8.135597,-6.171089,109.760002,68.599998,27.65,1729475008887.0,0.0
-2.227718,-5.304887,-3.988836,27.58,86.870003,7.98,1729475008908.0,0.0
-2.842674,-9.001799,-0.942772,-96.809998,66.43,2.52,1729475009086.0,0.0
0.102891,-11.586047,-4.323831,-79.029999,-1.89,9.52,1729475009086.0,0.0
1.196411,-8.123632,-4.546363,-37.310001,22.120001,-14.98,1729475009087.0,0.0
-0.179462,-7.831708,-2.667997,1.54,14.98,-10.29,1729475009087.0,0.0
-1.330409,-8.018349,-4.06062,10.22,-3.22,-18.549999,1729475009087.0,0.0
-2.323431,-8.269595,-5.118248,12.04,-9.8,-17.219999,1729475009087.0,0.0
-3.069991,-8.647661,-5.761917,-17.639999,-14.84,-25.27,1729475009088.0,0.0
-2.232504,-9.116654,-5.838487,-28.49,-25.200001,-26.040001,1729475009088.0,0.0
-0.808774,-8.549555,-5.431707,-15.61,-24.01,-21.49,1729475009165.0,0.0
-0.624527,-8.013563,-4.867002,-11.48,-18.059999,-20.790001,1729475009165.0,0.0
-1.069592,-7.829315,-4.706682,-24.43,-18.620001,-18.34,1729475009166.0,0.0
-0.937986,-7.877172,-5.580062,-53.060001,-28.559999,-18.41,1729475009166.0,0.0
-0.638884,-7.982457,-6.982256,-77.489998,-36.330002,-18.969999,1729475009167.0,0.0
-0.555135,-8.518449,-8.334201,-80.290001,-30.59,-20.02,1729475009186.0,0.0
-0.648455,-8.650054,-8.221739,-58.799999,-22.33,-19.67,1729475009207.0,0.0
-0.646062,-8.341379,-7.805387,-1.4,-5.6,-10.36,1729475009228.0,0.0
-0.385244,-7.04447,-7.142576,42.77,1.68,-3.78,1729475009248.0,0.0
-0.397209,-6.709475,-5.752346,38.849998,12.88,2.38,1729475009267.0,0.0
-0.55992,-6.826723,-5.56092,-1.26,12.32,5.18,1729475009291.0,0.0
-0.275175,-7.21436,-5.79781,-40.110001,3.22,5.6,1729475009307.0,0.0
-0.055035,-7.329216,-6.546762,-56.630001,-3.99,7.56,1729475009328.0,0.0
-0.167498,-6.778866,-6.98465,-61.740002,1.4,7.7,1729475009347.0,0.0
-0.382852,-6.266802,-7.463214,-77.419998,6.86,7.77,1729475009367.0,0.0
-0.581456,-6.24766,-8.092526,-91.980003,7.21,10.57,1729475009389.0,0.0
-0.61017,-6.558727,-8.676375,-88.550003,4.48,14.14,1729475009408.0,0.0
-0.660419,-6.848258,-8.472985,-57.82,10.15,20.51,1729475009430.0,0.0
-0.837488,-6.80758,-8.597411,-17.780001,16.17,26.18,1729475009447.0,0.0
-1.036092,-5.776274,-8.288737,24.57,20.790001,31.43,1729475009469.0,0.0
-1.308874,-4.895715,-8.372486,58.66,29.68,37.939999,1729475009489.0,0.0
-1.332802,-4.287938,-7.953743,42.700001,29.68,39.900002,1729475009508.0,0.0
-1.12702,-5.331209,-7.386643,5.53,25.83,40.740002,1729475009528.0,0.0
-0.847059,-6.513263,-7.609176,-32.830002,16.940001,37.52,1729475009548.0,0.0
-0.87338,-7.32443,-7.472785,-32.48,15.33,32.130001,1729475009568.0,0.0
-1.184447,-6.683154,-7.956135,-11.2,19.18,20.93,1729475009587.0,0.0
-1.524228,-5.948557,-8.303094,9.1,24.99,12.04,1729475009608.0,0.0
-1.591227,-5.852845,-8.094919,11.62,24.15,13.51,1729475009629.0,0.0
-1.325624,-5.927022,-7.865208,13.02,20.09,16.59,1729475009649.0,0.0
-1.227518,-6.008378,-7.728817,22.960001,21.139999,19.809999,1729475009668.0,0.0
-1.438086,-5.795416,-7.381857,26.460001,28.42,20.23,1729475009688.0,0.0
-2.017149,-5.711668,-7.235896,20.02,34.650002,18.549999,1729475009707.0,0.0
-2.301895,-6.472585,-8.764909,14.91,32.549999,10.15,1729475009729.0,0.0
-1.895115,-6.695118,-8.781659,9.38,25.969999,6.09,1729475009747.0,0.0
-0.990629,-6.54437,-8.008778,2.87,17.290001,1.19,1729475009768.0,0.0
-0.294317,-6.465407,-7.52782,-12.53,10.92,-4.2,1729475009787.0,0.0
-0.011964,-6.84108,-7.054041,-28.280001,14.28,-12.67,1729475009809.0,0.0
-0.184247,-7.317252,-7.070791,-27.09,20.16,-20.860001,1729475009831.0,0.0
-0.411566,-7.786245,-6.285945,-23.870001,17.43,-31.360001,1729475009848.0,0.0
-0.612563,-8.233703,-5.35753,-17.01,22.68,-32.130001,1729475009868.0,0.0
-0.665205,-8.386844,-5.321638,17.99,12.6,-27.440001,1729475009887.0,0.0
-0.473779,-7.197611,-6.285945,39.689999,-12.46,-25.83,1729475009909.0,0.0
-0.564706,-6.494121,-6.76451,23.73,-7.7,-22.120001,1729475009929.0,0.0
-0.868595,-7.757531,-6.367301,-22.610001,2.38,-1.89,1729475009948.0,0.0
-0.756132,-9.391829,-6.075377,-26.950001,-4.62,7.84,1729475009967.0,0.0
-0.825524,-10.406385,-6.616155,-16.1,-15.33,4.41,1729475009986.0,0.0
-0.777667,-9.815358,-6.300302,15.12,-8.89,-4.76,1729475010009.0,0.0
-0.571885,-8.059027,-6.326623,47.880001,-10.99,-4.06,1729475010027.0,0.0
-0.064606,-6.250053,-7.073184,50.049999,-31.01,-3.01,1729475010050.0,0.0
0.301496,-4.54397,-7.219146,25.969999,-36.75,5.32,1729475010068.0,0.0
0.241675,-3.57727,-7.295716,3.08,-19.67,19.32,1729475010087.0,0.0
-0.244068,-3.761517,-8.070991,1.19,-12.81,33.389999,1729475010107.0,0.0
-0.70349,-3.964907,-8.353344,-12.81,-12.25,47.389999,1729475010128.0,0.0
-0.947558,-4.508078,-8.650054,-35.560001,-12.67,48.16,1729475010147.0,0.0
-1.320838,-5.642276,-9.590433,-43.189999,-11.41,48.509998,1729475010167.0,0.0
-1.866402,-5.635098,-9.815358,-36.889999,1.89,38.920002,1729475010187.0,0.0
-2.701497,-5.778666,-10.358529,-11.48,19.25,27.370001,1729475010207.0,0.0
-3.163311,-5.606383,-10.669596,-6.16,24.08,8.19,1729475010227.0,0.0
-3.134598,-6.537192,-10.004392,-15.05,26.110001,-10.85,1729475010247.0,0.0
-1.70369,-6.084948,-7.52782,-17.57,21.139999,-33.880001,1729475010266.0,0.0
-0.748954,-5.680561,-8.484949,-6.16,1.19,-49.490002,1729475010286.0,0.0
-0.291924,-5.431707,-8.760124,-15.96,15.68,-57.119999,1729475010307.0,0.0
-0.595813,-6.192625,-6.400801,-42.139999,38.150002,-49.490002,1729475010327.0,0.0
-0.327817,-7.269395,-6.266802,-50.610001,24.219999,-45.990002,1729475010347.0,0.0
0.473779,-7.76471,-7.250252,-25.41,-6.93,-35.209999,1729475010366.0,0.0
0.902094,-8.360522,-6.908078,13.51,-2.94,-22.960001,1729475010391.0,0.0
0.404387,-8.458629,-5.345565,36.400002,23.73,-16.030001,1729475010407.0,0.0
-0.480957,-8.140383,-4.733003,37.380001,33.040001,-12.53,1729475010428.0,0.0
-0.739382,-7.68096,-4.395615,23.309999,13.79,-3.43,1729475010447.0,0.0
-0.39003,-7.49432,-4.407579,-7.56,-9.52,8.33,1729475010467.0,0.0
-0.66999,-8.327023,-6.087341,-33.110001,-27.58,15.54,1729475010487.0,0.0
-0.959522,-8.676375,-6.51087,-30.030001,-29.4,15.96,1729475010507.0,0.0
-1.081556,-7.84128,-6.546762,-10.01,-26.6,20.790001,1729475010527.0,0.0
-0.926022,-6.099305,-7.180861,13.79,-42.84,28.84,1729475010547.0,0.0
-0.693919,-4.926822,-8.513663,48.16,-49.209999,44.59,1729475010568.0,0.0
-0.533599,-3.854837,-10.813165,68.529999,-50.330002,57.119999,1729475010587.0,0.0
-1.074377,-3.589234,-11.205588,24.15,-15.61,66.010002,1729475010607.0,0.0
-1.658226,-5.393422,-10.530812,-7.91,1.33,58.450001,1729475010629.0,0.0
-2.17029,-6.757331,-10.037891,-8.4,10.99,49.0,1729475010647.0,0.0
-2.333002,-6.424729,-9.346365,12.32,13.23,28.49,1729475010669.0,0.0
-2.641676,-5.187639,-8.439486,26.25,21.91,8.54,1729475010688.0,0.0
-3.038885,-4.800002,-10.310673,19.67,24.780001,-15.4,1729475010708.0,0.0
-2.95035,-5.398208,-9.229117,0.35,28.0,-32.970001,1729475010727.0,0.0
-2.447858,-5.740381,-9.906286,-4.41,27.09,-46.900002,1729475010747.0,0.0
-1.330409,-5.218746,-10.243673,0.49,21.139999,-63.279999,1729475010768.0,0.0
-0.358923,-4.436293,-7.920243,-17.219999,40.599998,-69.650002,1729475010787.0,0.0
-0.081356,-5.589634,-4.969893,-60.619999,53.34,-71.75,1729475010806.0,0.0
0.509671,-7.283752,-3.945765,-105.559998,38.290001,-66.779999,1729475010827.0,0.0
0.607777,-8.635696,-5.235496,-74.480003,3.08,-46.549999,1729475010848.0,0.0
0.425922,-8.152347,-5.98445,-24.85,0.77,-39.830002,1729475010867.0,0.0
-0.449851,-7.834101,-5.577669,-0.14,17.5,-34.09,1729475010886.0,0.0
-1.040878,-8.118847,-4.867002,-2.1,10.71,-22.26,1729475010908.0,0.0
-0.646062,-8.075776,-5.656632,-28.700001,-14.14,-10.99,1729475010927.0,0.0
-0.425922,-7.465607,-7.350751,-34.509998,-44.240002,5.39,1729475010947.0,0.0
-0.928415,-6.941578,-8.197811,-5.46,-32.48,15.26,1729475010968.0,0.0
-1.543371,-6.963113,-7.874779,21.07,-18.9,25.059999,1729475010988.0,0.0
-1.70369,-5.95095,-8.039884,34.09,-22.469999,34.93,1729475011007.0,0.0
-1.380659,-4.977071,-8.717053,39.200001,-34.439999,45.849998,1729475011029.0,0.0
-0.622134,-4.290331,-10.447062,57.610001,-51.59,54.880001,1729475011050.0,0.0
-0.461815,-4.220939,-10.595419,79.169998,-40.599998,66.639999,1729475011068.0,0.0
-0.440279,-4.297509,-9.887143,60.830002,-2.24,59.43,1729475011088.0,0.0
-1.225125,-4.680361,-9.310472,28.49,14.91,52.990002,1729475011106.0,0.0
-1.605584,-5.338387,-8.444271,5.67,17.639999,38.990002,1729475011128.0,0.0
-1.706082,-5.015356,-10.58824,-10.64,4.97,17.290001,1729475011148.0,0.0
-1.605584,-5.910272,-11.504691,-11.83,3.99,-5.81,1729475011167.0,0.0
-1.28016,-5.869594,-10.581062,-9.52,26.389999,-27.58,1729475011186.0,0.0
-1.162912,-5.17089,-9.401401,17.85,46.060001,-45.639999,1729475011209.0,0.0
-0.689133,-3.517449,-8.451449,3.85,55.860001,-64.889999,1729475011228.0,0.0
-0.430708,-3.278167,-6.955935,-43.610001,54.25,-67.129997,1729475011246.0,0.0
-0.155533,-7.286145,-6.735795,-105.699997,32.900002,-64.330002,1729475011268.0,0.0
0.086142,-9.858429,-5.769095,-55.720001,5.88,-39.48,1729475011286.0,0.0
0.368495,-9.123833,-5.958128,5.81,-1.82,-45.990002,1729475011307.0,0.0
-0.361316,-7.62114,-4.811966,38.57,18.83,-41.509998,1729475011329.0,0.0
-1.864009,-8.166703,-3.730411,24.01,27.790001,-23.309999,1729475011347.0,0.0
-2.510071,-8.702696,-5.249853,-20.440001,3.85,-12.39,1729475011366.0,0.0
-1.895115,-9.178867,-6.290731,-35.630001,-33.32,3.5,1729475011386.0,0.0
-0.397209,-8.647661,-6.319445,-22.610001,-54.459999,16.17,1729475011407.0,0.0
0.234497,-7.953743,-6.331409,-4.27,-57.959999,21.210001,1729475011429.0,0.0
-0.102891,-6.922436,-7.314859,-0.49,-47.110001,23.17,1729475011446.0,0.0
-0.531207,-5.12782,-9.284152,16.24,-40.810001,28.0,1729475011466.0,0.0
-0.646062,-3.493521,-10.827522,62.790001,-41.369999,50.75,1729475011485.0,0.0
-0.490529,-2.225325,-11.308479,80.57,-42.07,68.739998,1729475011506.0,0.0
-0.729811,-3.120241,-10.463813,62.16,-18.129999,80.43,1729475011529.0,0.0
-1.134198,-4.974678,-10.183852,16.379999,8.96,67.550003,1729475011547.0,0.0
-1.785046,-5.991628,-9.760324,-2.17,16.17,55.02,1729475011566.0,0.0
-2.172683,-5.733203,-9.403792,6.37,14.14,31.08,1729475011586.0,0.0
-2.952743,-5.513064,-12.27518,20.02,20.16,-13.09,1729475011608.0,0.0
-2.696711,-5.79781,-10.214959,12.81,42.349998,-38.080002,1729475011627.0,0.0
-1.957329,-5.309673,-8.130811,32.41,43.470001,-54.670002,1729475011646.0,0.0
-1.074377,-4.608576,-8.310273,52.639999,35.349998,-70.840004,1729475011666.0,0.0
-0.586242,-3.364309,-7.707282,16.799999,38.779999,-74.059998,1729475011687.0,0.0
0.370888,-4.65404,-5.094319,-36.959999,31.92,-75.599998,1729475011706.0,0.0
0.325424,-6.850651,-6.778866,-92.889999,9.66,-57.540001,1729475011726.0,0.0
0.552742,-9.717253,-5.876772,-60.900002,10.29,-38.990002,1729475011747.0,0.0
0.267996,-9.932607,-4.768896,-21.84,21.98,-37.310001,1729475011767.0,0.0
-0.662812,-9.750752,-3.428915,16.52,29.82,-30.030001,1729475011787.0,0.0
-1.414158,-8.88455,-3.4672,29.960001,15.61,-16.1,1729475011808.0,0.0
-1.304088,-7.539784,-5.103891,17.290001,-12.88,-0.7,1729475011829.0,0.0
-1.007378,-7.441679,-5.151747,-18.76,-33.040001,14.7,1729475011846.0,0.0
-0.859023,-8.303094,-5.534599,-48.23,-39.130001,24.219999,1729475011866.0,0.0
-0.583849,-7.695317,-5.848059,-63.98,-51.799999,24.360001,1729475011887.0,0.0
-0.562313,-5.979663,-7.652246,-56.630001,-55.720001,29.4,1729475011908.0,0.0
-0.416351,-4.756931,-11.038091,-13.37,-72.590004,43.889999,1729475011928.0,0.0
-0.509671,-2.754139,-12.710674,50.540001,-52.080002,65.519997,1729475011946.0,0.0
-1.339981,-3.440879,-12.579069,54.740002,-11.97,65.800003,1729475011965.0,0.0
-2.438286,-4.792823,-11.358729,27.370001,22.4,55.369999,1729475011986.0,0.0
-2.778067,-5.845665,-10.959127,6.16,23.309999,32.060001,1729475012005.0,0.0
-2.067399,-5.465207,-11.904292,10.99,8.54,6.09,1729475012029.0,0.0
-1.182054,-5.419744,-12.031113,26.67,13.440001,-20.51,1729475012049.0,0.0
-0.634098,-4.393222,-10.205389,42.98,43.889999,-40.740002,1729475012067.0,0.0
-0.650848,-4.256832,-8.02792,73.290001,70.489998,-56.139999,1729475012087.0,0.0
-0.808774,-3.383451,-8.020741,55.790001,68.18,-68.879997,1729475012106.0,0.0
-0.564706,-4.888536,-4.551149,19.389999,52.5,-62.16,1729475012130.0,0.0
0.29671,-5.907879,-4.780859,-26.74,26.74,-60.619999,1729475012146.0,0.0
0.736989,-7.685746,-3.98405,-30.66,3.36,-42.630001,1729475012165.0,0.0
-0.055035,-8.896514,-2.876173,-25.83,14.14,-35.209999,1729475012187.0,0.0
-2.175076,-10.351351,-2.431108,-14.28,31.57,-23.59,1729475012208.0,0.0
-2.773281,-10.734202,-3.352344,-1.26,-1.89,-22.190001,1729475012227.0,0.0
-1.840081,-9.224331,-4.721039,-9.94,-40.599998,-1.61,1729475012248.0,0.0
-0.811167,-8.305488,-5.032106,-41.09,-55.510002,9.66,1729475012267.0,0.0
-0.602991,-7.590034,-5.728417,-90.720001,-61.389999,15.12,1729475012285.0,0.0
-0.33021,-5.948557,-9.154939,-87.5,-78.540001,18.34,1729475012306.0,0.0
-0.177069,-4.862216,-11.631511,-34.720001,-84.209999,38.080002,1729475012327.0,0.0
0.07657,-3.629912,-12.234503,11.48,-60.41,51.939999,1729475012347.0,0.0
-0.734596,-2.208575,-13.205987,23.59,-25.83,60.900002,1729475012367.0,0.0
-1.402194,-4.256832,-11.997612,38.990002,6.86,53.689999,1729475012387.0,0.0
-1.737189,-5.4341,-9.781858,9.52,17.08,38.709999,1729475012407.0,0.0
-2.017149,-5.709275,-9.229117,1.05,13.72,16.66,1729475012429.0,0.0
-2.277967,-4.890929,-9.099905,-8.19,12.53,-13.16,1729475012446.0,0.0
-2.612962,-4.725825,-10.978271,-7.14,18.34,-39.27,1729475012465.0,0.0
-2.48375,-4.462614,-10.272388,-1.26,29.469999,-49.630001,1729475012486.0,0.0
-1.883151,-4.168297,-10.734202,-3.36,24.92,-57.400002,1729475012505.0,0.0
-1.105484,-4.414758,-9.729217,3.57,30.59,-58.59,1729475012528.0,0.0
-0.66999,-5.297709,-7.846066,31.639999,52.709999,-53.830002,1729475012549.0,0.0
-0.394816,-5.309673,-6.412765,39.34,53.830002,-48.509998,1729475012567.0,0.0
0.026321,-5.472386,-5.927022,10.64,35.349998,-44.450001,1729475012587.0,0.0
0.198604,-7.573284,-5.651847,-5.18,24.710001,-30.799999,1729475012605.0,0.0
0.098106,-8.449057,-5.211568,46.830002,19.950001,-11.69,1729475012628.0,0.0
-0.193819,-8.523234,-4.316652,79.309998,15.82,-4.83,1729475012646.0,0.0
-0.564706,-7.834101,-2.902494,63.07,14.0,3.78,1729475012665.0,0.0
-1.184447,-7.458428,-3.086741,14.21,1.96,12.53,1729475012685.0,0.0
-1.548156,-7.69771,-4.168297,-40.389999,-17.01,18.549999,1729475012706.0,0.0
-1.189233,-7.506285,-5.441278,-70.840004,-45.220001,18.27,1729475012726.0,0.0
-0.33021,-6.072984,-6.439085,-91.489998,-69.300003,19.67,1729475012747.0,0.0
0.452243,-4.141976,-8.315059,-97.300003,-81.760002,31.08,1729475012765.0,0.0
0.514457,-3.682554,-10.755738,-68.949997,-78.610001,45.57,1729475012786.0,0.0
0.270389,-4.144369,-11.514263,-52.990002,-59.849998,54.18,1729475012805.0,0.0
-0.753739,-3.115455,-12.583855,-42.420002,-28.700001,57.189999,1729475012827.0,0.0
-2.203789,-6.116055,-12.490535,10.57,7.28,60.200001,1729475012847.0,0.0
-2.490928,-5.601598,-10.442278,-3.08,17.290001,40.459999,1729475012866.0,0.0
-2.912065,-6.422336,-10.025927,4.27,8.05,26.67,1729475012886.0,0.0
-2.773281,-5.388636,-9.631111,0.42,8.05,2.45,1729475012907.0,0.0
-2.720639,-4.481757,-11.014162,4.41,10.29,-19.18,1729475012927.0,0.0
-2.163112,-4.584648,-12.246466,-4.69,21.139999,-43.330002,1729475012948.0,0.0
-1.533799,-4.431508,-11.217552,9.87,46.689999,-53.549999,1729475012965.0,0.0
-0.524028,-4.244867,-9.576077,67.760002,62.02,-55.16,1729475012985.0,0.0
0.964308,-3.199204,-7.343572,101.290001,50.68,-57.959999,1729475013006.0,0.0
1.122234,-2.385644,-5.534599,70.840004,50.540001,-43.049999,1729475013026.0,0.0
0.239282,-4.778467,-4.969893,16.870001,57.470001,-33.880001,1729475013049.0,0.0
-0.492921,-7.676175,-3.273381,-38.360001,50.189999,-25.27,1729475013065.0,0.0
-1.122234,-10.205389,-2.239682,-56.98,31.85,-18.620001,1729475013085.0,0.0
-1.744368,-11.665009,-2.222932,-22.469999,-0.07,-23.17,1729475013105.0,0.0
-1.655833,-8.812766,-5.017749,21.139999,-32.759998,-15.61,1729475013127.0,0.0
-1.734797,-6.951149,-5.692525,46.41,-38.990002,3.57,1729475013147.0,0.0
-1.588834,-5.517848,-5.508278,-4.06,-46.200001,18.34,1729475013165.0,0.0
-1.392623,-6.163911,-6.266802,-50.119999,-58.59,39.759998,1729475013186.0,0.0
-0.969093,-6.635297,-9.29133,-60.060001,-83.160004,56.07,1729475013205.0,0.0
-0.234497,-5.233103,-11.959327,-2.17,-86.519997,75.879997,1729475013272.0,0.0
-0.117248,-3.713661,-13.052847,98.559998,-60.619999,103.32,1729475013281.0,0.0
-0.89013,-3.919443,-11.732009,135.520004,-6.72,121.590004,1729475013281.0,0.0
-2.648855,-5.54417,-10.370493,39.41,42.630001,89.879997,1729475013285.0,0.0
-3.108276,-7.487142,-9.583255,1.33,31.43,58.240002,1729475013306.0,0.0
-2.529213,-6.759724,-9.202796,0.49,7.35,20.16,1729475013326.0,0.0
-1.952543,-6.020342,-8.970692,24.780001,7.49,-14.7,1729475013344.0,0.0
-1.761117,-4.359723,-9.724431,4.62,16.1,-50.189999,1729475013365.0,0.0
-1.765903,-3.177669,-10.849058,-25.969999,37.380001,-72.449997,1729475013385.0,0.0
-1.442872,-4.101298,-10.224532,-25.83,50.189999,-81.059998,1729475013405.0,0.0
-0.665205,-4.563113,-8.01117,-43.610001,48.09,-82.389999,1729475013426.0,0.0
0.157926,-5.515456,-6.128019,-61.529999,39.48,-83.93,1729475013445.0,0.0
0.100499,-5.453243,-7.424929,-82.879997,25.549999,-85.400002,1729475013465.0,0.0
-0.918844,-6.568298,-5.953342,-50.119999,39.130001,-67.340004,1729475013486.0,0.0
-1.813759,-7.441679,-6.005985,-3.64,38.150002,-58.939999,1729475013505.0,0.0
-1.828116,-7.362715,-4.462614,34.860001,20.51,-40.810001,1729475013526.0,0.0
-1.160519,-7.008578,-3.416951,37.869999,-2.73,-24.290001,1729475013546.0,0.0
-0.722632,-7.843673,-4.051049,-13.37,-26.67,-10.43,1729475013564.0,0.0
-0.574277,-9.186047,-6.116055,-78.050003,-38.57,-4.13,1729475013585.0,0.0
-0.181855,-9.868,-6.920043,-89.739998,-41.790001,1.19,1729475013605.0,0.0
-0.145962,-7.951349,-6.929615,-12.81,-41.860001,4.41,1729475013625.0,0.0
-0.535992,-6.149554,-7.69771,9.1,-42.139999,7.77,1729475013645.0,0.0
-1.131805,-5.056034,-8.815158,9.45,-37.170002,14.56,1729475013665.0,0.0
-1.598405,-4.342973,-10.040283,11.06,-41.580002,22.4,1729475013684.0,0.0
-1.636691,-4.240082,-11.684153,36.049999,-44.939999,41.16,1729475013705.0,0.0
-1.232304,-3.493521,-12.198609,89.669998,-42.630001,60.619999,1729475013726.0,0.0
-0.806381,-2.835495,-11.913863,102.900002,-19.25,73.010002,1729475013745.0,0.0
-0.653241,-3.309274,-9.939785,48.860001,7.42,68.040001,1729475013765.0,0.0
-1.256232,-5.84088,-8.817552,-9.87,28.210001,54.110001,1729475013785.0,0.0
-1.538585,-7.302894,-8.578269,-20.09,18.129999,30.870001,1729475013805.0,0.0
-1.552942,-6.302694,-9.195618,-4.48,9.52,5.81,1729475013825.0,0.0
-1.895115,-5.046463,-9.872787,12.04,14.35,-21.84,1729475013847.0,0.0
-2.065006,-4.850252,-10.351351,-11.13,26.18,-47.670002,1729475013864.0,0.0
-1.739582,-5.194818,-11.006985,-38.080002,28.77,-67.059998,1729475013884.0,0.0
-0.923629,-4.587041,-9.389436,-38.57,30.66,-79.309998,1729475013906.0,0.0
-0.445065,-4.041477,-6.953543,-2.17,54.810001,-86.309998,1729475013926.0,0.0
-0.334995,-3.352344,-6.075377,26.18,58.380001,-85.470001,1729475013945.0,0.0
-0.430708,-3.876373,-6.12084,8.19,40.25,-52.920002,1729475013964.0,0.0
-0.222532,-4.61097,-6.290731,-40.32,18.76,-33.110001,1729475013985.0,0.0
-0.260818,-7.513463,-5.682954,-65.099998,12.11,-14.35,1729475014004.0,0.0
-0.782453,-10.822738,-4.493721,-38.150002,13.65,3.85,1729475014027.0,0.0
-1.222732,-11.784652,-4.438686,17.92,3.01,0.14,1729475014050.0,0.0
-1.213161,-8.415558,-5.615955,41.369999,-16.59,2.8,1729475014065.0,0.0
-1.09352,-7.164111,-5.907879,31.290001,-28.42,8.75,1729475014086.0,0.0
-0.698704,-8.114061,-6.630512,-14.21,-47.810001,19.6,1729475014104.0,0.0
-0.107677,-8.51127,-7.293324,-41.580002,-64.68,22.4,1729475014125.0,0.0
0.153141,-6.15434,-8.865408,-20.860001,-64.82,23.870001,1729475014146.0,0.0
-0.42353,-3.050849,-10.916058,23.66,-49.84,36.330002,1729475014165.0,0.0
-1.117448,-2.208575,-11.598011,73.639999,-15.89,67.340004,1729475014184.0,0.0
-1.363909,-1.694118,-10.664811,64.540001,-9.59,86.590004,1729475014205.0,0.0
-1.471586,-3.773481,-9.669396,29.469999,0.98,92.959999,1729475014235.0,0.0
-1.552942,-5.970093,-9.760324,-20.65,6.37,76.93,1729475014244.0,0.0
-1.557728,-7.642675,-9.501899,-26.18,3.29,53.34,1729475014264.0,0.0
-1.722832,-6.082555,-10.116854,2.38,12.46,0.91,1729475014284.0,0.0
-1.971686,-4.895715,-11.023734,9.24,28.139999,-31.92,1729475014304.0,0.0
-1.808974,-4.407579,-10.243673,-19.18,30.870001,-55.02,1729475014328.0,0.0
-1.244268,-3.976871,-9.463614,-47.389999,33.110001,-71.68,1729475014344.0,0.0
-0.318245,-3.617948,-8.678767,-49.700001,39.41,-87.57,1729475014364.0,0.0
0.547956,-2.909672,-7.846066,-33.389999,36.470001,-84.910004,1729475014384.0,0.0
0.581456,-2.24686,-7.396214,-34.720001,32.27,-73.360001,1729475014404.0,0.0
-0.026321,-3.45045,-7.700103,-45.639999,40.529999,-44.450001,1729475014425.0,0.0
-0.378066,-6.745367,-5.022535,-43.82,34.23,-20.440001,1729475014447.0,0.0
-0.693919,-10.107283,-4.328616,-44.73,18.969999,-14.21,1729475014464.0,0.0
-0.9667,-11.75833,-4.572684,-22.469999,0.21,-19.6,1729475014484.0,0.0
-1.112662,-8.843873,-6.721439,10.78,-11.83,-16.940001,1729475014505.0,0.0
-0.942772,-6.065805,-7.932207,53.34,-24.360001,0.42,1729475014525.0,0.0
-1.213161,-5.936593,-7.424929,43.470001,-21.07,23.309999,1729475014545.0,0.0
-1.349552,-7.625926,-6.56112,-4.83,-20.860001,32.970001,1729475014564.0,0.0
-1.304088,-8.633304,-6.474977,-34.369999,-35.0,34.23,1729475014585.0,0.0
-0.531207,-7.149754,-9.518648,-18.620001,-55.650002,31.219999,1729475014604.0,0.0
0.11007,-3.931407,-10.186246,71.610001,-74.970001,43.889999,1729475014625.0,0.0
-0.210568,-1.773082,-11.270195,115.080002,-50.889999,61.459999,1729475014644.0,0.0
-1.533799,-0.760918,-11.155338,104.93,-11.9,74.059998,1729475014664.0,0.0
-2.720639,-2.189433,-11.310873,46.34,24.219999,65.029999,1729475014684.0,0.0
-2.878566,-4.821537,-10.243673,-30.59,10.29,44.939999,1729475014704.0,0.0
-1.885544,-6.132804,-10.451849,-45.990002,-6.93,20.93,1729475014724.0,0.0
-1.17009,-5.733203,-11.672189,-20.16,-7.28,-12.39,1729475014745.0,0.0
-1.37348,-4.118048,-11.799009,5.39,28.139999,-45.220001,1729475014764.0,0.0
-1.423729,-2.962314,-10.30828,19.6,63.209999,-67.690002,1729475014784.0,0.0
-0.710668,-2.388037,-9.525827,0.56,55.580002,-79.379997,1729475014804.0,0.0
0.461815,-2.529213,-6.599405,-38.990002,46.900002,-73.57,1729475014826.0,0.0
0.614955,-3.613162,-7.001399,-74.059998,43.189999,-62.09,1729475014844.0,0.0
-0.239282,-5.513064,-6.58744,-64.190002,45.43,-26.67,1729475014864.0,0.0
-0.636491,-7.750352,-3.737589,-47.529999,45.57,-9.17,1729475014884.0,0.0
-1.395016,-9.750752,-2.806781,-50.400002,26.809999,-8.82,1729475014904.0,0.0
-2.419144,-12.193825,-3.790231,-39.130001,8.54,-4.55,1729475014926.0,0.0
-1.646262,-8.293523,-6.970293,-24.290001,-26.880001,-7.56,1729475014945.0,0.0
-1.272982,-5.833702,-7.441679,-5.18,-45.43,11.62,1729475014964.0,0.0
-1.272982,-5.709275,-7.530212,-36.049999,-47.459999,29.33,1729475014985.0,0.0
-0.691526,-7.037291,-8.535198,-63.209999,-64.540001,33.040001,1729475015004.0,0.0
-0.392423,-7.826923,-9.537791,-46.060001,-78.959999,40.389999,1729475015025.0,0.0
-0.344566,-6.709475,-11.399406,27.51,-73.220001,39.619999,1729475015048.0,0.0
-0.751346,-4.175476,-11.655439,118.370003,-47.389999,46.900002,1729475015063.0,0.0
-1.715654,-2.306681,-12.662818,154.0,-12.11,61.670002,1729475015084.0,0.0
-2.103291,-0.870987,-10.478169,103.879997,2.8,68.459999,1729475015104.0,0.0
-2.103291,-1.251446,-9.870394,13.02,7.35,56.349998,1729475015125.0,0.0
-2.206182,-4.756931,-10.344172,0.84,-6.86,57.959999,1729475015146.0,0.0
-1.694118,-3.5007,-8.190632,-12.6,4.76,35.209999,1729475015164.0,0.0
-2.651247,-2.794817,-8.338986,-24.710001,25.34,11.2,1729475015183.0,0.0
-3.436093,-3.491128,-9.865608,-68.18,27.299999,-16.379999,1729475015204.0,0.0
-3.07717,-3.957729,-13.08874,-79.870003,12.39,-36.259998,1729475015225.0,0.0
-2.208575,-4.907679,-12.002398,-45.220001,21.210001,-48.16,1729475015244.0,0.0
-1.258625,-4.666004,-11.219944,-47.110001,38.990002,-69.370003,1729475015264.0,0.0
-0.234497,-5.587241,-7.84128,-53.900002,62.16,-90.650002,1729475015284.0,0.0
0.327817,-5.517848,-6.324231,-59.849998,53.549999,-97.580002,1729475015304.0,0.0
-0.12682,-6.130411,-6.07777,-33.880001,42.279999,-81.760002,1729475015324.0,0.0
0.22014,-6.195018,-6.920043,42.630001,20.719999,-60.970001,1729475015343.0,0.0
0.839881,-4.319045,-6.872187,101.43,8.33,-39.200001,1729475015363.0,0.0
-0.107677,-4.876573,-6.23091,89.669998,25.059999,-15.82,1729475015383.0,0.0
-1.414158,-7.142576,-5.166104,47.740002,27.02,6.09,1729475015405.0,0.0
-2.086541,-8.441878,-5.075177,23.940001,7.7,13.93,1729475015436.0,0.0
-2.273181,-8.377272,-5.783452,9.24,-11.62,11.76,1729475015445.0,0.0
-2.234896,-7.568498,-5.912664,-11.69,-27.440001,17.290001,1729475015464.0,0.0
-1.471586,-6.52762,-6.912865,-26.67,-53.689999,15.47,1729475015483.0,0.0
-0.68674,-5.568098,-8.779266,-20.58,-77.980003,21.42,1729475015504.0,0.0
-0.449851,-4.17069,-10.863414,14.56,-78.330002,34.650002,1729475015526.0,0.0
-0.547956,-2.852244,-11.57169,52.990002,-50.400002,51.029999,1729475015544.0,0.0
-1.067199,-1.194018,-11.547763,79.870003,-29.049999,64.470001,1729475015563.0,0.0
-2.146362,-3.574877,-11.356337,78.68,2.38,70.489998,1729475015584.0,0.0
-2.914458,-4.515256,-10.547562,0.35,13.51,43.82,1729475015604.0,0.0
-2.615355,-6.161518,-12.768101,-43.400002,3.64,5.04,1729475015624.0,0.0
-1.739582,-6.348158,-12.320643,-17.5,7.35,-21.42,1729475015645.0,0.0
-1.39023,-5.020142,-11.117055,41.860001,41.93,-38.150002,1729475015663.0,0.0
-1.452443,-4.189832,-10.040283,94.150002,61.18,-52.779999,1729475015683.0,0.0
-0.722632,-2.644069,-8.346166,66.57,64.120003,-72.870003,1729475015704.0,0.0
0.346959,-2.474179,-5.405386,7.07,49.98,-78.959999,1729475015726.0,0.0
0.327817,-4.378866,-4.74736,-59.080002,34.580002,-60.060001,1729475015744.0,0.0
0.935594,-5.240282,-5.594419,-77.279999,19.6,-44.59,1729475015763.0,0.0
0.911665,-5.876772,-5.752346,-37.170002,6.23,-19.530001,1729475015783.0,0.0
-0.433101,-8.456236,-4.613362,-0.28,16.940001,-5.39,1729475015804.0,0.0
-1.919044,-9.45165,-4.993821,-12.46,27.860001,-5.39,1729475015826.0,0.0
-2.414358,-9.60479,-5.568098,-21.700001,2.87,-8.89,1729475015844.0,0.0
-2.57707,-8.350951,-5.625526,-28.07,-22.33,6.65,1729475015863.0,0.0
-2.117648,-7.9346,-5.261817,-26.460001,-40.950001,14.0,1729475015883.0,0.0
-1.634298,-7.219146,-6.525227,-48.790001,-62.09,16.24,1729475015905.0,0.0
-0.861416,-5.95095,-9.540184,-41.580002,-84.769997,22.190001,1729475015926.0,0.0
-0.165105,-2.646462,-12.794422,6.58,-92.82,40.529999,1729475015944.0,0.0
-0.748954,-2.744568,-13.191631,101.080002,-36.889999,65.449997,1729475015963.0,0.0
-1.636691,-2.605784,-11.004591,86.590004,12.67,64.120003,1729475015983.0,0.0
-2.510071,-2.947958,-9.994821,12.32,30.1,48.09,1729475016004.0,0.0
-2.672783,-4.661219,-10.348958,-51.73,13.440001,28.139999,1729475016025.0,0.0
-1.866402,-5.776274,-11.030912,-76.720001,-0.7,0.84,1729475016049.0,0.0
-1.004985,-5.223531,-11.030912,-41.720001,10.43,-19.74,1729475016064.0,0.0
-0.519243,-4.395615,-11.298907,13.37,32.27,-39.689999,1729475016084.0,0.0
