acc_x,acc_y,acc_z,gyr_x,gyr_y,gyr_z,timestamp,label
-10.463813,-6.441479,3.74716,136.850006,-3.78,-71.610001,1729474168895.0,0.0
-3.393023,-12.839886,0.997807,84.07,-9.66,-127.68,1729474168899.0,0.0
-3.871587,-12.134004,3.895515,90.93,45.639999,-90.440002,1729474169112.0,0.0
-3.17049,-0.344566,5.264209,187.880005,68.739998,-72.800003,1729474169113.0,0.0
-5.702096,3.0006,10.719845,270.829987,81.269997,-4.48,1729474169128.0,0.0
-4.740182,1.931008,11.102697,80.5,12.11,-37.939999,1729474169128.0,0.0
-3.237489,-1.134198,8.035098,-100.870003,-45.220001,-24.01,1729474169129.0,0.0
-1.935793,-3.665804,5.386244,-150.850006,-56.0,0.7,1729474169129.0,0.0
-3.189633,-6.199803,4.149154,-126.699997,-52.990002,7.56,1729474169129.0,0.0
-2.902494,-7.125826,5.785845,-64.050003,-35.07,15.33,1729474169130.0,0.0
-2.292324,-5.659025,7.922636,-52.080002,9.03,27.370001,1729474169138.0,0.0
-2.955136,-3.515057,8.042276,-175.350006,12.18,8.4,1729474169138.0,0.0
-3.749553,-5.998806,5.036892,-309.190002,-4.76,-7.63,1729474169138.0,0.0
-3.227918,-8.348558,2.79721,-392.700012,-19.879999,-31.219999,1729474169138.0,0.0
-2.447858,-10.334601,1.375873,-394.730011,-9.24,-14.49,1729474169138.0,0.0
-2.778067,-10.253245,1.194018,-326.269989,16.450001,8.75,1729474169157.0,0.0
-2.775674,-9.918249,0.856631,-235.830002,28.77,15.05,1729474169177.0,0.0
-3.436093,-9.064013,2.289931,-218.470001,38.57,13.93,1729474169200.0,0.0
-3.148954,-7.846066,1.024128,-242.899994,33.880001,5.25,1729474169220.0,0.0
-3.59402,-8.030313,-0.859023,-252.630005,22.68,7.7,1729474169237.0,0.0
-3.438486,-10.133603,-2.672783,-216.509995,1.12,13.440001,1729474169383.0,0.0
-2.682354,-11.80858,-4.041477,-156.520004,-6.09,21.700001,1729474169387.0,0.0
-2.392823,-12.320643,-4.311867,-113.190002,6.51,16.309999,1729474169390.0,0.0
-2.78046,-11.4018,-4.027121,-118.440002,33.950001,-1.96,1729474169392.0,0.0
-3.172883,-11.286944,-4.742575,-129.919998,44.59,-16.73,1729474169403.0,0.0
-2.428715,-11.830115,-5.79781,-123.270004,29.960001,-23.59,1729474169404.0,0.0
-0.564706,-12.119646,-6.23091,-86.099998,23.66,-19.879999,1729474169405.0,0.0
-0.20339,-10.482956,-5.79063,-57.959999,56.560001,-31.08,1729474169407.0,0.0
-0.547956,-8.922836,-5.249853,-76.720001,82.389999,-40.18,1729474169417.0,0.0
-0.760918,-8.283953,-5.4006,-113.400002,85.470001,-48.650002,1729474169479.0,0.0
-0.502493,-8.834301,-6.680761,-146.509995,71.889999,-50.959999,1729474169483.0,0.0
0.138784,-9.303294,-7.314859,-156.520004,59.43,-46.689999,1729474169484.0,0.0
0.454636,-9.064013,-6.963113,-130.059998,65.870003,-42.98,1729474169498.0,0.0
0.07657,-8.193025,-6.735795,-106.540001,76.440002,-45.990002,1729474169518.0,0.0
-0.385244,-7.152147,-7.334002,-109.550003,82.529999,-53.970001,1729474169538.0,0.0
-1.057628,-7.099504,-7.836494,-114.590004,79.449997,-48.509998,1729474169559.0,0.0
-1.40698,-7.640282,-8.020741,-99.68,73.150002,-38.709999,1729474169577.0,0.0
-1.234696,-7.958528,-7.965706,-45.009998,63.209999,-27.51,1729474169598.0,0.0
-1.079163,-7.068398,-7.099504,31.99,59.639999,-16.450001,1729474169618.0,0.0
-1.663012,-6.506085,-6.142376,69.510002,63.91,-11.2,1729474169638.0,0.0
-2.129612,-5.737988,-5.694918,50.470001,61.740002,-14.63,1729474169659.0,0.0
-1.423729,-6.13759,-5.596812,15.75,29.4,-4.48,1729474169678.0,0.0
-1.17009,-6.15434,-4.910072,-11.48,21.42,-5.25,1729474169699.0,0.0
-1.380659,-6.570691,-4.500899,-51.52,24.01,-13.09,1729474169724.0,0.0
-1.282553,-7.343572,-5.56092,-71.190002,13.16,-14.84,1729474169739.0,0.0
-0.725025,-6.939186,-5.998806,-56.700001,-2.59,-13.16,1729474169759.0,0.0
-0.605384,-6.489335,-5.91745,-46.27,-5.53,-11.9,1729474169779.0,0.0
-0.904487,-6.489335,-6.008378,-49.349998,-6.02,-14.35,1729474169799.0,0.0
-0.985843,-6.936793,-6.699903,-48.580002,-14.21,-14.63,1729474169819.0,0.0
-0.736989,-6.314659,-6.735795,-50.119999,-19.74,-17.08,1729474169839.0,0.0
-0.660419,-5.666204,-6.809973,-58.450001,-20.58,-16.870001,1729474169871.0,0.0
-0.897308,-5.513064,-7.312466,-63.209999,-18.690001,-17.219999,1729474169880.0,0.0
-1.191626,-5.812167,-7.71446,-60.27,-20.440001,-16.940001,1729474169900.0,0.0
-1.430908,-5.503492,-8.006385,-50.75,-20.58,-16.66,1729474169919.0,0.0
-1.629512,-5.134997,-8.240881,-42.209999,-18.549999,-13.93,1729474169939.0,0.0
-1.658226,-5.020142,-8.446664,-37.73,-16.870001,-9.52,1729474169962.0,0.0
-1.529014,-4.852644,-8.839087,-36.889999,-14.14,-4.48,1729474169990.0,0.0
-0.940379,-5.505885,-8.946764,-22.33,-14.84,2.03,1729474170000.0,0.0
-1.191626,-5.314459,-8.547162,-14.77,-4.62,1.75,1729474170019.0,0.0
-1.26341,-4.993821,-8.441878,-17.5,1.26,-1.96,1729474170039.0,0.0
-0.875773,-5.082355,-8.068598,-19.25,-3.15,-2.66,1729474170060.0,0.0
-0.98345,-5.465207,-7.846066,-17.290001,-4.34,0.35,1729474170079.0,0.0
-0.734596,-5.426922,-7.862815,-10.78,-7.21,0.98,1729474170101.0,0.0
-0.519243,-5.120641,-8.149954,4.55,-9.87,0.56,1729474170118.0,0.0
-0.519243,-4.941179,-8.23131,9.1,-11.06,-0.21,1729474170141.0,0.0
-0.382852,-4.888536,-8.585447,-1.75,-14.21,-1.68,1729474170161.0,0.0
-0.753739,-5.261817,-8.178668,-16.940001,-11.76,-2.94,1729474170179.0,0.0
-1.227518,-5.998806,-8.719445,-19.460001,-12.39,-5.11,1729474170202.0,0.0
-1.284946,-5.989235,-8.973085,-20.299999,-11.83,-10.15,1729474170219.0,0.0
-1.268196,-5.84088,-8.932407,-19.530001,-10.43,-12.81,1729474170239.0,0.0
-0.87338,-5.510671,-9.016156,-11.97,-9.66,-12.11,1729474170262.0,0.0
-0.131605,-5.374279,-9.190832,4.9,-10.78,-6.3,1729474170280.0,0.0
-0.052642,-5.32403,-8.987441,19.460001,-4.34,-0.28,1729474170299.0,0.0
-0.404387,-5.379066,-8.446664,21.98,0.07,1.61,1729474170319.0,0.0
-0.866202,-5.469993,-8.678767,19.460001,-1.96,-0.63,1729474170341.0,0.0
-1.351945,-5.386244,-8.827123,23.450001,-0.98,-2.31,1729474170360.0,0.0
-1.581656,-5.233103,-8.860621,26.18,0.56,-3.29,1729474170380.0,0.0
-1.801795,-5.082355,-8.764909,21.35,4.83,-4.13,1729474170399.0,0.0
-2.005185,-5.761917,-8.592626,21.98,8.54,-3.99,1729474170419.0,0.0
-2.122434,-6.211767,-8.355737,40.25,13.3,-3.43,1729474170439.0,0.0
-2.318645,-6.271588,-8.207381,56.84,19.67,-5.32,1729474170461.0,0.0
-2.103291,-6.391229,-8.099705,63.139999,23.24,-8.19,1729474170479.0,0.0
-1.524228,-6.38405,-7.690532,66.709999,20.719999,-10.15,1729474170499.0,0.0
-1.208375,-6.472585,-7.76471,75.18,21.91,-11.97,1729474170520.0,0.0
-1.469193,-6.128019,-7.771888,77.980003,25.9,-14.98,1729474170539.0,0.0
-1.57687,-6.12084,-7.420143,65.379997,32.48,-19.18,1729474170562.0,0.0
-0.875773,-6.486942,-7.336394,52.920002,22.540001,-20.65,1729474170580.0,0.0
0.11007,-6.924829,-7.838887,58.099998,5.81,-19.389999,1729474170600.0,0.0
0.294317,-6.508478,-7.733603,52.080002,4.9,-22.82,1729474170619.0,0.0
-0.646062,-6.78126,-7.520642,31.01,21.629999,-29.4,1729474170639.0,0.0
-1.820938,-7.963314,-7.556533,24.08,29.75,-33.18,1729474170660.0,0.0
-1.471586,-9.360723,-7.661818,84.139999,17.15,-25.9,1729474170678.0,0.0
-3.835695,-0.538385,6.573084,110.599998,13.79,-17.360001,1729474170699.0,0.0
-2.706282,-10.241282,-9.298509,147.070007,-86.309998,18.83,1729474170719.0,0.0
2.0004,-10.8682,-9.903893,86.379997,-81.410004,3.5,1729474170739.0,0.0
-0.870987,-11.136196,-7.113862,214.550003,34.09,43.470001,1729474170762.0,0.0
-0.717847,-6.927221,-6.745367,257.809998,32.130001,29.26,1729474170778.0,0.0
1.323231,-6.049056,-4.852644,196.770004,5.74,51.099998,1729474170800.0,0.0
4.500899,-4.228118,5.520242,64.68,-1.89,34.580002,1729474170819.0,0.0
2.876173,-6.4343,4.151547,48.02,-30.52,54.110001,1729474170839.0,0.0
-0.275175,-5.74756,0.050249,-9.45,-58.380001,28.91,1729474170863.0,0.0
-0.660419,-10.028319,-1.083949,-124.949997,-120.260002,30.52,1729474170878.0,0.0
3.034099,-11.516656,-10.990234,-213.289993,-201.25,-0.42,1729474170900.0,0.0
-2.639283,-9.21476,-9.736395,-184.940002,-135.940002,-42.84,1729474170920.0,0.0
-9.288938,-12.480963,-21.834507,8.26,-6.72,-61.25,1729474170938.0,0.0
-6.104091,-9.212367,-12.689137,196.139999,13.51,15.33,1729474170970.0,0.0
0.440279,-6.360123,-7.156933,170.169998,-42.209999,56.139999,1729474170979.0,0.0
6.250053,-6.06102,-9.281759,-9.1,-2.8,19.809999,1729474170999.0,0.0
3.096312,-6.008378,8.382057,-15.4,93.660004,43.049999,1729474171020.0,0.0
-1.430908,-10.135997,11.921042,11.13,52.080002,35.91,1729474171040.0,0.0
-3.058028,-10.657632,1.282553,-105.419998,-98.840004,-21.35,1729474171059.0,0.0
-1.835295,-11.655439,-0.971486,-168.559998,-120.400002,-50.400002,1729474171079.0,0.0
2.742175,-7.453642,-7.52782,-193.479996,-187.110001,-48.439999,1729474171100.0,0.0
-0.404387,-9.29133,-11.263017,-155.050003,-186.899994,-41.790001,1729474171118.0,0.0
-6.601797,-7.025328,-26.122444,-97.160004,22.26,-72.029999,1729474171139.0,0.0
-9.346365,-12.430713,-12.009576,101.43,94.779999,19.6,1729474171159.0,0.0
-1.574477,-4.479364,-8.114061,57.610001,-19.389999,28.280001,1729474171179.0,0.0
5.211568,-4.689932,-12.361321,-10.29,-9.45,27.790001,1729474171202.0,0.0
4.95075,-7.436893,-1.253839,-36.610001,57.75,16.52,1729474171220.0,0.0
-1.909473,-10.4016,9.406186,28.35,138.110001,19.110001,1729474171239.0,0.0
-2.321038,-6.963113,1.639083,57.889999,-41.369999,3.71,1729474171259.0,0.0
-2.883351,-6.376873,-4.106083,-59.080002,-56.77,-15.26,1729474171279.0,0.0
-0.433101,-8.647661,-6.884151,-172.199997,-72.379997,-9.87,1729474171298.0,0.0
2.232504,-11.052447,-8.690732,-132.020004,-77.840004,15.12,1729474171318.0,0.0
0.387637,-10.080962,-13.304093,135.100006,-49.91,54.110001,1729474171339.0,0.0
-4.977071,-10.150353,-4.943572,248.149994,52.290001,57.959999,1729474171361.0,0.0
-6.932007,-10.370493,-4.737789,249.199997,53.200001,42.700001,1729474171378.0,0.0
-3.751946,-11.157731,-5.340781,252.279999,-4.69,56.91,1729474171401.0,0.0
-0.167498,-10.643275,-5.125426,240.100006,-5.39,51.450001,1729474171420.0,0.0
0.069392,-9.454042,-2.998207,239.680008,21.629999,37.59,1729474171438.0,0.0
-2.237289,-8.73141,-1.861616,264.459991,53.900002,21.0,1729474171463.0,0.0
-4.046263,-9.571291,-1.050449,301.839996,45.920002,24.639999,1729474171479.0,0.0
-3.519842,-9.092726,-3.495914,327.670013,26.040001,20.51,1729474171498.0,0.0
-3.259024,-7.872386,-2.89053,386.75,45.639999,9.73,1729474171525.0,0.0
-3.065206,-11.4353,-0.318245,441.070007,66.989998,7.56,1729474171539.0,0.0
-3.014957,-11.746366,6.025128,411.390015,66.849998,-7.7,1729474171558.0,0.0
-1.641476,-9.142976,8.092526,364.559998,28.0,-51.380001,1729474171581.0,0.0
-3.017349,-7.733603,0.945165,381.920013,42.349998,-46.689999,1729474171598.0,0.0
-5.412565,-3.440879,-0.617348,358.119995,66.5,-31.639999,1729474171618.0,0.0
-8.226524,-1.969293,4.881358,248.850006,45.360001,-14.07,1729474171639.0,0.0
-5.864808,-3.735196,8.315059,139.720001,29.960001,-35.77,1729474171664.0,0.0
-3.115455,-5.211568,11.413764,-37.170002,-37.450001,-73.709999,1729474171679.0,0.0
-1.572084,-4.041477,8.80798,-39.200001,-34.439999,-17.780001,1729474171700.0,0.0
-1.634298,-3.259024,5.783452,-75.739998,-57.889999,-30.52,1729474171718.0,0.0
0.179462,-2.388037,6.34098,-76.090004,-59.43,-3.64,1729474171738.0,0.0
0.370888,-8.91805,6.979864,-112.419998,-59.5,5.95,1729474171761.0,0.0
2.11047,-13.000205,1.052842,-333.059998,-82.949997,-45.57,1729474171780.0,0.0
2.895315,-16.8694,-2.548356,-283.01001,-86.870003,-30.73,1729474171799.0,0.0
-3.739982,-10.34178,3.976871,17.219999,51.52,9.38,1729474171818.0,0.0
-5.067998,-3.680161,9.79143,160.930008,67.129997,0.98,1729474171839.0,0.0
-2.600998,-1.055235,7.116255,47.040001,-2.24,-10.85,1729474171859.0,0.0
-1.493121,-0.177069,11.045268,-179.479996,-55.510002,-13.02,1729474171879.0,0.0
-2.641676,-2.081756,0.133998,-459.480011,-72.309998,-1.19,1729474171899.0,0.0
-1.304088,-11.267801,-4.867002,-572.039978,-93.590004,-21.0,1729474171918.0,0.0
1.18684,-18.412771,-6.948757,-515.690002,-71.330002,-0.35,1729474171939.0,0.0
-0.234497,-17.520248,3.014957,-259.630005,-3.15,4.62,1729474171961.0,0.0
-2.656033,-10.4016,7.125826,-65.379997,-10.29,-37.310001,1729474171979.0,0.0
-2.505285,-5.053641,2.37368,-145.669998,4.27,-48.580002,1729474171999.0,0.0
0.842274,-4.460221,0.064606,-401.309998,-86.800003,-58.799999,1729474172019.0,0.0
2.182254,-3.850052,-1.404587,-418.390015,-80.43,-31.57,1729474172038.0,0.0
0.736989,-7.724032,-6.26441,-292.390015,-60.34,3.64,1729474172059.0,0.0
-3.359523,-9.111869,-1.677369,-151.270004,-40.950001,27.16,1729474172078.0,0.0
-5.905487,-12.96192,-7.537392,-43.889999,-8.61,32.549999,1729474172098.0,0.0
-1.509871,-10.985448,-9.659825,2.8,-72.169998,39.900002,1729474172118.0,0.0
1.952543,-10.408779,-10.492528,52.639999,-85.75,55.09,1729474172139.0,0.0
-2.0004,-10.741381,-9.62154,-13.16,14.49,9.73,1729474172160.0,0.0
-7.195218,-9.844072,-3.163311,-78.82,96.599998,-32.900002,1729474172179.0,0.0
-8.293523,-7.74796,-6.443871,-44.59,41.720001,-29.469999,1729474172202.0,0.0
-2.871387,-5.422136,-5.546563,-9.66,-39.900002,-14.63,1729474172218.0,0.0
0.930808,-3.251846,-7.075576,-26.67,-60.830002,6.65,1729474172242.0,0.0
2.206182,-6.017949,-12.768101,-53.830002,-7.14,22.960001,1729474172260.0,0.0
1.90708,-10.188639,-9.406186,-49.560001,72.449997,38.009998,1729474172279.0,0.0
-0.162712,-11.722438,4.206582,17.85,115.989998,39.970001,1729474172299.0,0.0
-0.421137,-10.990234,6.02752,119.699997,23.309999,22.889999,1729474172319.0,0.0
-3.723232,-4.87418,4.232903,92.260002,-51.240002,-2.38,1729474172339.0,0.0
-5.592027,-4.244867,-3.37388,-34.23,-84.349998,-24.5,1729474172359.0,0.0
-3.359523,-5.02732,-15.101105,-119.07,-151.199997,1.61,1729474172377.0,0.0
-3.058028,-8.080563,-16.572689,-215.25,-119.840004,9.66,1729474172399.0,0.0
-7.709675,-14.287544,-19.188044,-116.830002,61.529999,0.84,1729474172419.0,0.0
-5.422136,-10.779665,-10.999805,67.269997,73.080002,5.95,1729474172439.0,0.0
0.16989,-7.118648,-7.630712,170.589996,20.93,43.189999,1729474172459.0,0.0
4.486543,-4.161119,-13.8688,80.080002,44.380001,17.290001,1729474172478.0,0.0
1.710868,-5.410172,10.186246,42.700001,149.660004,35.0,1729474172500.0,0.0
-4.163511,-10.564312,14.148761,56.84,114.099998,38.920002,1729474172517.0,0.0
-5.039285,-9.662218,7.23111,4.48,-67.269997,-1.19,1729474172540.0,0.0
-5.029713,-11.196017,-3.256632,-73.010002,-88.550003,-42.07,1729474172561.0,0.0
-2.06022,-6.443871,-9.461221,-138.529999,-167.440002,-56.84,1729474172577.0,0.0
-1.294517,-9.446864,-13.050454,-81.620003,-145.25,-17.99,1729474172600.0,0.0
-6.355337,-7.21436,-20.429918,-33.810001,32.759998,-27.51,1729474172618.0,0.0
-9.35833,-12.03829,-11.688939,144.270004,138.039993,16.17,1729474172639.0,0.0
-3.555735,-7.211967,-6.065805,128.660004,45.009998,23.52,1729474172659.0,0.0
5.816952,0.0335,3.821337,20.51,31.360001,8.05,1729474172677.0,0.0
1.385444,-7.259824,16.668402,60.200001,111.510002,54.950001,1729474172699.0,0.0
-3.948158,-11.787045,6.972685,-2.24,-39.689999,10.43,1729474172718.0,0.0
-6.266802,-11.586047,-3.677768,-96.529999,-50.259998,-47.599998,1729474172738.0,0.0
-3.06042,-3.84048,-5.833702,-119.840004,-135.169998,-23.379999,1729474172759.0,0.0
-1.225125,-11.69851,-15.63231,-98.910004,-191.940002,10.92,1729474172777.0,0.0
-4.486543,-5.45085,-20.659632,-129.779999,4.62,-38.360001,1729474172798.0,0.0
-9.468399,-7.601997,-15.481563,10.08,124.809998,3.43,1729474172817.0,0.0
-3.981657,-6.865008,-8.293523,16.799999,24.92,32.900002,1729474172837.0,0.0
3.376273,-5.113462,-5.522634,-35.91,-13.440001,23.24,1729474172858.0,0.0
3.34038,-6.429514,3.751946,-16.17,48.02,21.77,1729474172878.0,0.0
-4.677969,-10.478169,11.267801,4.76,106.400002,13.65,1729474172898.0,0.0
-6.664011,-7.180861,-3.302095,2.59,-44.310001,-5.95,1729474172917.0,0.0
-5.087141,-8.563912,-6.001199,-23.52,-52.57,-6.44,1729474172938.0,0.0
0.071785,-4.596612,-14.230117,-103.18,-121.099998,-28.91,1729474172965.0,0.0
-0.849452,-6.257231,-16.331015,-69.090004,-112.489998,-17.5,1729474172977.0,0.0
-7.104291,-9.949356,-13.60559,-2.8,81.269997,-23.73,1729474172998.0,0.0
-4.421937,-6.656832,-10.329816,27.02,30.17,2.59,1729474173018.0,0.0
-1.146162,-7.034898,-21.226728,42.98,38.150002,9.24,1729474173037.0,0.0
-1.134198,-5.376673,3.232704,70.699997,142.100006,8.54,1729474173059.0,0.0
-4.622933,-4.65404,14.957534,177.309998,129.009995,42.139999,1729474173078.0,0.0
-1.828116,-7.963314,5.666204,98.07,-54.18,35.77,1729474173098.0,0.0
-1.538585,-11.80858,0.356531,-74.900002,-66.220001,-23.1,1729474173118.0,0.0
0.234497,-13.457234,-7.183254,-140.839996,-100.940002,-39.200001,1729474173139.0,0.0
2.232504,-7.862815,-6.649654,-95.970001,-102.830002,-30.450001,1729474173159.0,0.0
0.705883,-5.4006,-11.504691,-34.02,-106.82,-15.68,1729474173177.0,0.0
-4.479364,-7.678568,-9.75793,-32.970001,-29.33,-34.580002,1729474173201.0,0.0
-8.382057,-4.65404,-7.123433,-34.23,12.04,-51.73,1729474173217.0,0.0
-7.520642,-4.524827,-8.015956,48.09,-56.0,-25.549999,1729474173238.0,0.0
-4.438686,-5.79063,-6.01077,40.18,-80.989998,-20.860001,1729474173261.0,0.0
-3.381058,-5.886343,-5.094319,-64.190002,-64.889999,-40.950001,1729474173277.0,0.0
-3.625126,-6.458229,-5.534599,-122.360001,-46.549999,-51.029999,1729474173298.0,0.0
-3.658626,-6.209375,-6.422336,-97.720001,-41.580002,-43.75,1729474173319.0,0.0
-3.388237,-6.367301,-6.072984,-51.66,-45.920002,-26.950001,1729474173338.0,0.0
-2.656033,-6.336195,-6.21416,-67.199997,-65.379997,-20.16,1729474173360.0,0.0
-2.383251,-7.542177,-6.197411,-79.590004,-65.940002,-19.18,1729474173379.0,0.0
-2.210968,-7.869993,-7.257431,-46.41,-69.160004,-22.120001,1729474173399.0,0.0
-2.502892,-6.987042,-8.269595,25.9,-62.439999,-13.440001,1729474173417.0,0.0
-2.76371,-5.498707,-8.49452,66.779999,-49.91,-5.04,1729474173439.0,0.0
-3.574877,-3.237489,-8.657232,29.610001,-43.119999,2.8,1729474173458.0,0.0
-4.584648,-2.778067,-9.221939,-77.349998,-23.940001,4.55,1729474173477.0,0.0
-4.431508,-5.149354,-10.942378,-185.360001,-11.55,0.07,1729474173498.0,0.0
-3.519842,-7.24786,-12.442677,-194.600006,-5.53,5.46,1729474173516.0,0.0
-2.550749,-4.371687,-11.296515,-201.949997,19.74,-5.32,1729474173538.0,0.0
-2.414358,-2.828316,-11.263017,-225.259995,41.860001,-5.53,1729474173566.0,0.0
-1.672583,-5.15414,-13.040883,-213.990005,40.110001,3.78,1729474173577.0,0.0
-0.258425,-6.788438,-12.634104,-159.529999,47.880001,6.09,1729474173599.0,0.0
-0.68674,-7.611568,-7.152147,-35.630001,61.32,11.76,1729474173617.0,0.0
-1.646262,-4.54397,-8.726624,165.199997,54.25,27.58,1729474173639.0,0.0
-4.486543,-0.112463,-3.385844,176.539993,75.809998,25.620001,1729474173659.0,0.0
-5.625526,-1.574477,-7.822137,92.68,58.240002,47.880001,1729474173677.0,0.0
-3.421736,-6.91765,-10.839487,-29.75,35.84,62.09,1729474173698.0,0.0
-2.452643,-7.915457,-5.972485,-64.260002,53.130001,63.560001,1729474173716.0,0.0
-1.639083,-8.961121,-3.572484,-75.809998,48.439999,46.34,1729474173737.0,0.0
0.011964,-12.461821,-3.907479,-30.17,2.1,21.77,1729474173761.0,0.0
-0.071785,-7.116255,-9.695717,87.080002,-31.01,0.84,1729474173776.0,0.0
-3.352344,-2.648855,-9.262616,174.580002,2.31,-1.05,1729474173798.0,0.0
-5.699703,0.287139,-9.865608,114.940002,10.01,-1.89,1729474173819.0,0.0
-4.749753,-0.42353,-9.157332,30.59,-27.51,1.89,1729474173838.0,0.0
-3.433701,-1.768296,-10.13839,-18.129999,-35.279999,-4.55,1729474173860.0,0.0
-3.019742,-1.904687,-9.561719,-26.32,-24.290001,-11.55,1729474173941.0,0.0
-2.364109,-0.624527,-13.579268,-22.68,-24.360001,-9.1,1729474173943.0,0.0
-3.337988,-3.929015,-13.371094,-56.209999,10.15,12.04,1729474173943.0,0.0
-4.508078,-6.209375,-9.963714,-60.689999,56.84,23.73,1729474173943.0,0.0
-3.821337,-6.21416,-7.817351,-23.450001,59.920002,37.450001,1729474173969.0,0.0
-1.806581,-4.723432,-5.881558,15.47,51.52,43.470001,1729474173977.0,0.0
1.261017,-8.68116,2.234896,55.790001,21.07,56.98,1729474173997.0,0.0
1.737189,-8.250452,-9.678967,19.809999,-50.330002,7.56,1729474174016.0,0.0
-2.835495,-8.52802,-10.815558,79.239998,27.93,-6.79,1729474174038.0,0.0
-5.534599,-8.767302,-8.922836,177.589996,58.59,-6.3,1729474174058.0,0.0
-4.065405,-8.023134,-8.769694,258.089996,-1.89,9.03,1729474174076.0,0.0
-0.878166,-8.793623,-12.404392,401.23999,-55.369999,42.98,1729474174098.0,0.0
-0.248854,-9.832108,-7.814958,549.780029,-63.91,73.290001,1729474174117.0,0.0
-4.273581,-6.4678,-1.473979,605.5,49.0,51.099998,1729474174137.0,0.0
-9.341579,-7.625926,-6.309873,585.059998,116.830002,29.68,1729474174158.0,0.0
-10.798808,-10.652846,-4.261617,456.679993,43.330002,29.960001,1729474174177.0,0.0
-3.328416,-10.619347,-1.993221,336.420013,-24.85,23.799999,1729474174200.0,0.0
4.268795,-10.595419,0.138784,311.290009,-34.580002,65.449997,1729474174217.0,0.0
-2.761317,-8.439486,0.26321,310.940002,12.53,55.23,1729474174236.0,0.0
-6.068198,-3.888337,1.40698,323.329987,81.480003,-114.870003,1729474174258.0,0.0
-5.883951,-6.692725,5.776274,310.730011,21.77,-29.33,1729474174281.0,0.0
-2.086541,-9.145369,4.59422,221.550003,-11.27,-45.5,1729474174296.0,0.0
-0.232104,-8.23131,6.939186,196.350006,18.48,-67.129997,1729474174323.0,0.0
-1.009771,-5.328816,3.158526,214.899994,17.639999,-30.59,1729474174337.0,0.0
-6.403193,-5.302495,6.209375,274.679993,25.690001,-23.24,1729474174357.0,0.0
-7.365108,-4.957928,4.74736,271.670013,55.790001,-24.710001,1729474174376.0,0.0
-7.058826,-5.340781,6.360123,121.239998,46.900002,-59.57,1729474174397.0,0.0
-3.725625,-5.051248,6.223732,22.610001,19.110001,-44.170002,1729474174416.0,0.0
1.07677,-5.111069,8.207381,69.580002,28.84,-0.63,1729474174437.0,0.0
-4.74736,-5.69731,9.640682,59.5,26.460001,-50.610001,1729474174459.0,0.0
-7.278966,-4.82393,9.035298,81.550003,4.06,-11.76,1729474174478.0,0.0
-1.954936,-1.648655,9.123833,108.080002,19.460001,21.49,1729474174498.0,0.0
-1.471586,-1.26341,7.692925,47.25,-8.19,24.639999,1729474174517.0,0.0
-2.445465,-3.9338,8.707481,-27.440001,-28.139999,17.15,1729474174536.0,0.0
-2.206182,-6.242875,8.049455,-49.91,-30.450001,13.86,1729474174558.0,0.0
-3.168097,-9.140583,5.575277,-56.560001,-22.33,-0.21,1729474174577.0,0.0
-5.446064,-11.700903,7.786245,-70.139999,-3.57,-23.450001,1729474174597.0,0.0
-5.211568,-8.123632,5.924629,9.45,12.32,-34.790001,1729474174617.0,0.0
-5.099105,-0.973879,9.109475,116.620003,40.110001,-20.719999,1729474174697.0,0.0
-3.739982,1.339981,11.052447,118.230003,28.559999,-0.14,1729474174697.0,0.0
-6.348158,-3.481557,8.362915,15.190001,-15.61,-23.52,1729474174697.0,0.0
-0.327817,-2.397608,7.487142,-21.07,-16.24,8.89,1729474174698.0,0.0
1.725225,-2.313859,6.005985,-29.120001,-17.5,11.06,1729474174717.0,0.0
1.258625,-3.756732,5.711668,-55.510002,-13.3,10.5,1729474174736.0,0.0
-1.919044,-8.003991,4.881358,-67.480003,-7.07,27.58,1729474174760.0,0.0
-5.426922,-12.15554,3.086741,-77.840004,11.06,-20.370001,1729474174778.0,0.0
-3.914658,-9.568897,7.970492,-35.0,15.12,-30.940001,1729474174797.0,0.0
-5.582455,-5.379066,12.045469,59.920002,43.68,-6.65,1729474174818.0,0.0
-5.74756,-0.375673,12.220145,64.050003,9.8,-5.46,1729474174837.0,0.0
-2.888137,1.550549,9.956534,-0.42,-30.59,23.52,1729474174858.0,0.0
-0.988236,-0.674776,6.802795,-91.559998,-55.299999,33.670002,1729474174878.0,0.0
-9.152546,-3.074777,7.310073,-155.259995,-63.77,22.469999,1729474174898.0,0.0
-5.051248,-1.22034,6.9009,-248.360001,-66.779999,67.199997,1729474174917.0,0.0
-2.402394,-3.517449,3.672983,-323.959991,-71.75,71.959999,1729474174937.0,0.0
-1.490728,-6.702296,-0.385244,-469.070007,-92.260002,41.860001,1729474174958.0,0.0
-0.660419,-9.001799,-4.539185,-579.599976,-94.080002,11.41,1729474174976.0,0.0
0.038285,-8.803195,-4.141976,-604.099976,-56.700001,5.46,1729474174998.0,0.0
-0.234497,-10.542776,-6.862615,-598.570007,-14.42,13.37,1729474175016.0,0.0
0.098106,-17.498713,-12.605389,-671.859985,-78.050003,-45.220001,1729474175036.0,0.0
-2.553142,-20.073389,-6.465407,-430.360016,-20.93,-42.279999,1729474175058.0,0.0
-4.407579,-8.585447,-5.13739,-156.520004,38.920002,-89.599998,1729474175077.0,0.0
-5.161318,-4.704289,-0.382852,-97.860001,59.220001,-99.610001,1729474175097.0,0.0
-5.496314,-11.41137,1.086342,-142.520004,-12.11,-43.68,1729474175116.0,0.0
0.619741,-11.241481,-13.493127,-166.039993,-73.360001,-38.290001,1729474175136.0,0.0
2.541178,-11.263017,-5.362316,5.95,2.59,13.72,1729474175157.0,0.0
-0.57667,-6.458229,3.366701,88.269997,91.769997,-2.45,1729474175176.0,0.0
-1.361516,-7.585248,-0.098106,125.860001,27.23,18.41,1729474175200.0,0.0
-0.662812,-6.068198,0.078963,50.68,-38.990002,19.879999,1729474175217.0,0.0
-1.325624,-5.943772,-4.565506,-34.93,-40.880001,-3.43,1729474175238.0,0.0
-4.682754,-7.817351,-12.8686,-96.529999,-79.099998,-3.5,1729474175258.0,0.0
-11.684153,-11.966506,-11.557333,-129.289993,7.63,-22.26,1729474175278.0,0.0
-12.937992,-5.910272,-13.701303,-88.340004,39.830002,-60.549999,1729474175297.0,0.0
-1.969293,-4.106083,-11.382657,122.919998,-45.360001,34.02,1729474175316.0,0.0
9.903893,-2.177469,-7.054041,75.389999,-89.669998,80.919998,1729474175337.0,0.0
5.221139,-8.066205,-10.624132,-47.599998,39.689999,71.959999,1729474175359.0,0.0
-2.29711,-13.497912,9.071191,-54.110001,201.949997,65.099998,1729474175377.0,0.0
-3.969693,-17.477177,7.62114,15.26,22.26,26.809999,1729474175396.0,0.0
-1.78026,-9.647861,0.736989,27.58,-77.769997,-30.799999,1729474175418.0,0.0
0.337388,-9.037691,-5.651847,0.63,-125.580002,-29.26,1729474175438.0,0.0
-0.040678,-8.568698,-16.11566,-95.550003,-133.350006,-30.24,1729474175457.0,0.0
-6.388836,-9.863215,-19.018154,-94.639999,-22.610001,-32.48,1729474175477.0,0.0
-12.890135,-2.861816,-13.239488,-52.639999,146.089996,-40.950001,1729474175497.0,0.0
-7.932207,-9.781858,-10.430314,156.800003,69.090004,46.689999,1729474175517.0,0.0
1.933401,-5.728417,-8.338986,70.139999,-19.389999,47.670002,1729474175538.0,0.0
6.9344,-2.388037,-8.922836,-18.549999,38.5,27.440001,1729474175558.0,0.0
2.45025,-3.574877,8.197811,21.700001,183.960007,44.66,1729474175576.0,0.0
-5.525027,-12.612568,11.040483,44.52,143.220001,57.75,1729474175598.0,0.0
-6.573084,-11.665009,6.611369,2.52,-62.299999,-15.68,1729474175617.0,0.0
-3.505485,-13.277774,-7.345965,0.98,-98.489998,-41.369999,1729474175638.0,0.0
0.997807,-4.512863,-10.133603,-61.32,-205.520004,-54.950001,1729474175659.0,0.0
0.334995,-6.410372,-15.029318,-45.639999,-124.389999,-23.450001,1729474175676.0,0.0
-12.509676,-7.087541,-13.730016,20.860001,177.240005,-20.65,1729474175697.0,0.0
-9.145369,-6.955935,-11.581261,98.209999,90.720001,39.549999,1729474175716.0,0.0
0.303888,-4.208975,-11.344372,72.379997,-4.55,52.709999,1729474175738.0,0.0
6.173482,-0.751346,-0.732204,31.85,32.200001,39.619999,1729474175757.0,0.0
1.923829,-4.546363,15.993626,69.300003,139.300003,72.940002,1729474175778.0,0.0
-4.785645,-13.270595,7.250252,3.5,14.84,37.310001,1729474175796.0,0.0
-7.403394,-12.806387,-2.89053,-133.139999,-60.41,-57.470001,1729474175815.0,0.0
-4.273581,-10.432706,-5.257031,-99.75,-129.850006,-54.25,1729474175838.0,0.0
1.45005,-11.432907,-18.551554,-27.58,-179.759995,-14.84,1729474175857.0,0.0
-1.423729,-8.458629,-22.638494,-47.459999,-63.420002,-13.65,1729474175878.0,0.0
-8.886944,-7.049256,-15.756737,0.21,198.729996,-10.64,1729474175898.0,0.0
-7.264609,-6.245267,-10.497313,119.840004,129.779999,39.27,1729474175919.0,0.0
0.212961,-5.898308,-5.551349,92.120003,52.849998,44.380001,1729474175937.0,0.0
3.716053,-4.84068,0.088534,40.25,99.82,11.34,1729474175957.0,0.0
-0.354138,-5.927022,15.720845,77.699997,146.440002,29.889999,1729474175977.0,0.0
-3.929015,-9.856036,9.133404,84.559998,-18.200001,18.620001,1729474175997.0,0.0
-5.082355,-7.487142,-6.771688,-8.05,-66.220001,-49.209999,1729474176016.0,0.0
0.145962,-1.770689,-12.593425,-46.130001,-165.899994,-35.560001,1729474176036.0,0.0
-1.380659,-13.732409,-15.701703,9.1,-135.309998,28.559999,1729474176057.0,0.0
-6.513263,-9.458827,-17.536997,-85.470001,59.150002,-36.610001,1729474176077.0,0.0
-9.446864,-6.427122,-15.483955,-38.43,109.760002,-11.13,1729474176097.0,0.0
-3.397808,-3.208775,-6.675975,11.34,27.299999,26.809999,1729474176118.0,0.0
1.122234,-5.082355,-5.489135,-5.67,27.719999,34.09,1729474176137.0,0.0
1.933401,-6.125626,0.069392,-13.23,51.869999,20.65,1729474176158.0,0.0
-1.421337,-9.119047,9.092726,26.25,62.369999,30.24,1729474176177.0,0.0
-2.502892,-14.976677,-0.12682,17.57,-44.799999,-3.29,1729474176200.0,0.0
-2.021935,-11.064411,-2.108077,-27.65,-66.5,-44.450001,1729474176217.0,0.0
-1.847259,-2.837888,-2.505285,34.16,-71.959999,-13.37,1729474176235.0,0.0
-3.744767,-6.723832,-2.811567,33.32,-91.910004,15.190001,1729474176257.0,0.0
-6.601797,-7.996813,-9.107083,-201.320007,-78.470001,-56.209999,1729474176277.0,0.0
-5.821737,-6.285945,-13.232309,-370.019989,-94.849998,-102.199997,1729474176296.0,0.0
-0.961915,-3.766303,-14.423935,-329.910004,-109.900002,-92.540001,1729474176323.0,0.0
1.622334,-2.124826,-12.380465,-209.789993,-83.370003,-41.23,1729474176337.0,0.0
-0.684347,-4.254438,-12.650853,-170.800003,-15.96,-21.700001,1729474176356.0,0.0
-5.343173,-5.558527,-8.54477,-105.349998,64.330002,10.78,1729474176377.0,0.0
-5.838487,-3.919443,-7.211967,-13.72,21.35,13.93,1729474176397.0,0.0
-4.266403,-2.175076,-8.23131,-36.470001,1.68,18.41,1729474176415.0,0.0
-1.892723,-2.486143,-8.642875,-110.949997,-3.29,18.9,1729474176437.0,0.0
-1.194018,-7.568498,-9.078369,-86.379997,10.29,32.970001,1729474176457.0,0.0
-1.325624,-5.118248,-7.508677,-97.93,34.439999,29.610001,1729474176476.0,0.0
-1.241875,-10.332209,-7.867601,-71.260002,17.5,26.950001,1729474176498.0,0.0
0.507278,-11.399406,-7.800602,22.4,-7.42,10.08,1729474176515.0,0.0
0.217747,-5.838487,-10.779665,145.740005,-10.5,-2.73,1729474176536.0,0.0
-2.124826,-2.720639,-10.947165,251.160004,28.700001,10.29,1729474176558.0,0.0
-3.058028,-4.869394,-9.635897,281.190002,40.810001,31.360001,1729474176576.0,0.0
-0.562313,-7.625926,-6.855437,297.709991,17.01,47.880001,1729474176596.0,0.0
0.787239,-6.750153,-2.536392,304.570007,-9.66,61.110001,1729474176616.0,0.0
-0.471386,-9.042477,-7.984849,288.820007,5.95,52.57,1729474176635.0,0.0
-2.715853,-6.489335,-4.893322,220.430008,42.630001,39.48,1729474176658.0,0.0
-6.733403,-8.415558,-6.037091,240.100006,114.870003,37.52,1729474176675.0,0.0
-6.972685,-12.789637,-5.484349,316.75,67.269997,65.660004,1729474176696.0,0.0
-3.019742,-9.410972,-2.586641,434.48999,-11.48,95.129997,1729474176716.0,0.0
-1.141376,-5.235496,-3.139383,393.26001,29.960001,72.519997,1729474176735.0,0.0
-2.344966,-3.926622,-6.977471,323.399994,70.699997,48.93,1729474176757.0,0.0
-5.225924,-6.664011,-0.555135,246.119995,96.949997,19.040001,1729474176775.0,0.0
-7.355537,-13.301701,5.213961,189.699997,26.6,-1.75,1729474176797.0,0.0
-0.880559,-16.185053,1.710868,213.990005,-36.68,-27.790001,1729474176815.0,0.0
-0.16989,-11.270195,1.012164,254.869995,13.440001,-13.86,1729474176836.0,0.0
-0.346959,-10.8682,1.328017,442.470001,14.35,-36.259998,1729474176857.0,0.0
-3.419343,-6.070591,-1.72044,449.820007,61.599998,-33.25,1729474176875.0,0.0
-7.121039,-2.569891,4.0008,317.450012,62.439999,-18.41,1729474176896.0,0.0
-5.618347,-4.797609,8.678767,161.279999,21.0,-41.369999,1729474176936.0,0.0
-4.989035,-8.927622,7.142576,10.99,-4.76,-79.379997,1729474176938.0,0.0
-2.868994,-9.19801,7.152147,-13.72,-29.26,-69.019997,1729474176956.0,0.0
-3.318845,-6.017949,6.501299,66.010002,-18.620001,-38.639999,1729474176975.0,0.0
-2.830709,-2.500499,6.197411,139.300003,-12.88,-23.450001,1729474176996.0,0.0
-2.505285,-1.880759,6.56112,130.550003,-16.1,-17.710001,1729474177016.0,0.0
-2.352145,-1.607977,9.920642,10.57,-26.040001,7.0,1729474177040.0,0.0
-3.007778,-3.096312,6.443871,-95.480003,-47.110001,31.290001,1729474177056.0,0.0
-1.495514,-9.21476,4.395615,-160.930008,-70.910004,19.460001,1729474177076.0,0.0
-0.528814,-12.380465,2.273181,-208.039993,-70.349998,-0.14,1729474177098.0,0.0
-1.411765,-10.229317,4.587041,-181.300003,-33.950001,5.18,1729474177115.0,0.0
-2.359323,-7.972885,7.609176,-62.09,-11.9,0.14,1729474177136.0,0.0
-3.036492,-5.678168,7.692925,9.52,-0.63,4.48,1729474177157.0,0.0
-2.804388,-3.785445,6.776474,-26.32,-5.81,8.33,1729474177175.0,0.0
-2.459821,-5.07757,5.225924,-152.039993,-32.200001,12.39,1729474177199.0,0.0
-1.933401,-7.939385,3.536592,-315.209991,-69.720001,1.4,1729474177216.0,0.0
-1.935793,-9.695717,0.847059,-439.459991,-72.940002,-1.75,1729474177234.0,0.0
-1.710868,-11.198411,-1.402194,-530.179993,-70.699997,-22.049999,1729474177258.0,0.0
-1.402194,-11.691331,-1.177269,-558.950012,-56.77,-32.900002,1729474177275.0,0.0
-3.359523,-14.715858,-4.462614,-373.309998,-54.110001,-31.360001,1729474177296.0,0.0
-2.878566,-12.658032,-6.252446,12.04,-5.95,18.969999,1729474177315.0,0.0
-0.31346,-8.652447,-2.600998,67.059998,26.809999,-25.129999,1729474177336.0,0.0
-1.911865,-4.465007,2.433501,-60.27,55.09,-14.28,1729474177357.0,0.0
-2.957529,-5.458029,-3.469593,-252.630005,-0.84,1.33,1729474177375.0,0.0
-0.294317,-10.205389,-6.908078,-299.950012,-24.5,-22.610001,1729474177397.0,0.0
0.047856,-15.823736,-4.945964,-131.039993,-13.23,39.619999,1729474177415.0,0.0
0.241675,-10.360922,-1.830509,-77.629997,31.639999,-12.67,1729474177436.0,0.0
-0.533599,-5.769095,1.428515,-7.56,39.060001,4.55,1729474177459.0,0.0
-2.79721,-3.184847,3.507878,-71.470001,7.84,9.87,1729474177474.0,0.0
-5.67099,-1.744368,-1.952543,-212.380005,-4.13,-14.98,1729474177497.0,0.0
-4.809574,-10.908878,-10.715059,-225.050003,-53.34,3.71,1729474177515.0,0.0
-0.050249,-18.051453,-11.873186,-120.610001,-100.449997,35.490002,1729474177535.0,0.0
3.929015,-15.096318,-6.427122,24.360001,-72.590004,53.41,1729474177556.0,0.0
1.495514,-8.10449,-3.558127,145.809998,16.309999,14.21,1729474177577.0,0.0
-2.222932,-5.338387,-4.199404,141.470001,68.389999,-7.7,1729474177597.0,0.0
-4.632504,-8.080563,-3.737589,95.620003,48.509998,7.56,1729474177614.0,0.0
-3.716053,-11.502297,-2.495714,44.380001,-27.51,10.71,1729474177635.0,0.0
-1.76351,-13.883157,-3.309274,82.25,-61.389999,17.290001,1729474177657.0,0.0
-1.342373,-12.971491,-3.361916,138.949997,-49.279999,6.3,1729474177674.0,0.0
-4.515256,-5.989235,-4.369294,175.490005,1.96,-17.15,1729474177697.0,0.0
-6.635297,-9.497113,-5.515456,284.480011,43.330002,21.98,1729474177726.0,0.0
-4.59422,-10.992627,-3.491128,264.320007,9.1,30.24,1729474177735.0,0.0
-1.043271,-9.008978,-3.211168,260.610016,-19.32,18.48,1729474177756.0,0.0
0.071785,-8.709875,-0.368495,299.25,17.639999,20.860001,1729474177775.0,0.0
0.107677,-13.947763,-2.639283,355.670013,42.349998,-1.47,1729474177795.0,0.0
-2.998207,-12.854243,2.651247,365.190002,45.990002,-35.07,1729474177817.0,0.0
-2.854637,-11.296515,3.720839,448.769989,29.049999,-59.080002,1729474177835.0,0.0
-2.586641,-7.049256,2.07697,498.610016,53.549999,-35.0,1729474177857.0,0.0
-6.625726,-1.249053,3.716053,411.600006,88.760002,-34.16,1729474177875.0,0.0
-7.951349,-1.435694,7.52782,219.589996,30.59,-5.53,1729474177896.0,0.0
-5.003392,-7.613962,6.989435,17.219999,-25.27,-63.98,1729474177914.0,0.0
-2.103291,-10.231709,6.104091,-57.049999,-36.049999,-103.599998,1729474177937.0,0.0
-1.213161,-7.298109,6.987042,63.209999,-9.45,-42.630001,1729474177960.0,0.0
-1.493121,-1.375873,7.597212,181.720001,3.01,-7.42,1729474177974.0,0.0
-2.555535,0.267996,8.585447,152.389999,5.6,7.21,1729474177997.0,0.0
-1.179662,-1.20359,7.810174,-9.03,-38.709999,-22.26,1729474178014.0,0.0
0.550349,-7.783852,7.058826,-116.550003,-52.849998,6.3,1729474178036.0,0.0
-0.234497,-9.372685,5.919843,-238.0,-74.129997,-17.57,1729474178056.0,0.0
-1.136591,-7.872386,1.529014,-237.229996,-58.73,21.629999,1729474178074.0,0.0
-1.718047,-7.257431,4.027121,-206.570007,-25.059999,3.85,1729474178096.0,0.0
-1.103091,-8.353344,4.893322,-245.139999,-42.0,-15.89,1729474178115.0,0.0
-0.504886,-9.020942,4.800002,-284.339996,-52.5,-0.84,1729474178134.0,0.0
-0.674776,-8.331808,4.989035,-370.160004,-38.43,-17.43,1729474178156.0,0.0
-5.486742,-4.21376,7.606783,-497.48999,-32.130001,-23.309999,1729474178176.0,0.0
-2.794817,-6.869793,-2.459821,-356.440002,-54.950001,0.91,1729474178199.0,0.0
0.820738,-8.49452,-6.515656,-258.299988,-104.370003,10.43,1729474178214.0,0.0
0.803988,-10.782058,-2.59382,-187.110001,-16.1,26.040001,1729474178235.0,0.0
-1.067199,-8.800802,-0.76331,-165.759995,49.84,35.490002,1729474178255.0,0.0
-1.942972,-6.958328,-2.457429,-222.809998,15.61,26.530001,1729474178274.0,0.0
-0.98345,-10.322637,-6.372087,-289.660004,-27.09,5.67,1729474178297.0,0.0
0.701097,-15.141781,-6.745367,-196.559998,-30.17,17.639999,1729474178314.0,0.0
0.947558,-11.353944,-5.639884,-84.419998,5.67,14.77,1729474178335.0,0.0
0.009571,-8.831908,-2.639283,-94.919998,29.469999,0.84,1729474178364.0,0.0
-1.540978,-8.032705,-2.95035,-331.309998,-0.14,-38.639999,1729474178374.0,0.0
-0.540778,-14.036297,-4.766503,-290.570007,-44.52,-26.389999,1729474178395.0,0.0
-0.320638,-15.168103,-4.59422,-79.870003,-48.790001,-11.27,1729474178416.0,0.0
-0.363709,-11.440084,-7.779066,162.190002,-34.93,-11.97,1729474178435.0,0.0
-0.021535,-7.300502,-4.675575,261.450012,-29.4,3.92,1729474178456.0,0.0
-1.237089,-1.40698,-2.907279,122.220001,-5.74,-11.13,1729474178476.0,0.0
-4.465007,-5.656632,-7.893922,-17.85,15.68,-15.12,1729474178495.0,0.0
-5.656632,-12.25843,-8.817552,-94.989998,-4.69,-3.01,1729474178514.0,0.0
-5.190032,-15.603597,-7.429714,-22.75,-26.040001,-16.870001,1729474178537.0,0.0
-2.431108,-7.259824,-7.207181,62.23,-0.28,-38.57,1729474178559.0,0.0
-0.646062,-5.144568,-6.30748,163.240005,4.83,-4.69,1729474178576.0,0.0
1.055235,-4.197011,-2.871387,143.430008,23.940001,26.460001,1729474178598.0,0.0
0.062213,-4.04387,-2.608176,6.09,19.389999,29.610001,1729474178616.0,0.0
-0.588634,-4.453043,-4.859823,-143.710007,49.279999,1.05,1729474178636.0,0.0
-0.811167,-10.643275,-3.074777,-120.82,32.759998,42.139999,1729474178657.0,0.0
-0.155533,-13.052847,1.842474,3.01,-4.2,44.59,1729474178676.0,0.0
-2.019542,-9.339187,-2.364109,20.440001,-44.170002,9.52,1729474178698.0,0.0
-1.847259,-8.054241,-5.015356,38.360001,-56.91,11.41,1729474178716.0,0.0
-2.033899,-4.871787,-5.735595,5.74,-81.620003,20.16,1729474178737.0,0.0
-6.618547,-7.872386,-9.762716,-64.120003,-26.460001,10.78,1729474178758.0,0.0
-9.454042,-9.954143,-19.298115,-87.290001,4.27,-6.16,1729474178777.0,0.0
-6.876972,-10.932807,-10.29153,30.24,33.529999,23.030001,1729474178797.0,0.0
0.18664,-6.549156,-7.826923,61.529999,-11.83,35.700001,1729474178816.0,0.0
2.706282,-4.919643,-7.915457,25.34,16.52,33.670002,1729474178838.0,0.0
-0.258425,-5.163712,-7.085148,-33.670002,95.340004,7.14,1729474178859.0,0.0
-2.840281,-10.083356,-2.237289,-56.349998,129.149994,9.52,1729474178928.0,0.0
0.131605,-11.380265,11.375479,-26.880001,51.869999,25.969999,1729474178929.0,0.0
-0.794417,-14.05544,4.917251,49.91,-49.07,32.689999,1729474178929.0,0.0
-5.103891,-9.844072,-1.253839,21.35,-33.25,-49.560001,1729474178945.0,0.0
-6.352944,-7.520642,-5.663811,22.26,-49.84,-32.27,1729474178962.0,0.0
1.048056,-5.769095,-16.443478,1.12,-153.369995,13.86,1729474178976.0,0.0
-0.358923,-5.584848,-11.921042,-60.34,-104.300003,14.49,1729474178997.0,0.0
-7.365108,-11.708081,-11.315658,-72.519997,131.529999,-9.59,1729474179017.0,0.0
-7.810174,-10.815558,-7.188039,-2.94,88.410004,1.33,1729474179037.0,0.0
-2.201397,-8.197811,-8.370094,87.779999,-9.73,43.959999,1729474179057.0,0.0
0.880559,-7.401,-12.416357,66.639999,36.119999,21.139999,1729474179080.0,0.0
1.131805,-4.666004,-5.852845,26.809999,113.82,9.38,1729474179097.0,0.0
-1.993221,-6.896115,14.737395,49.209999,150.220001,44.59,1729474179116.0,0.0
-4.359723,-12.342178,5.553742,60.830002,-0.07,33.32,1729474179137.0,0.0
-7.109076,-8.949157,0.923629,6.79,-26.809999,-28.98,1729474179157.0,0.0
-5.142176,-7.068398,-4.9675,-13.23,-74.550003,-25.129999,1729474179176.0,0.0
0.545564,-4.888536,-9.700503,-45.920002,-159.669998,-7.14,1729474179200.0,0.0
2.428715,-9.506684,-17.881563,-67.410004,-158.970001,17.85,1729474179217.0,0.0
-4.197011,-11.708081,-12.346965,-75.879997,43.540001,-24.43,1729474179235.0,0.0
-8.973085,-10.114462,-5.630312,-7.56,148.539993,-36.049999,1729474179257.0,0.0
-3.328416,-6.673582,-6.683154,91.769997,-23.1,29.33,1729474179276.0,0.0
3.39063,-4.85743,-11.157731,63.77,-17.290001,32.060001,1729474179297.0,0.0
1.131805,-6.23091,6.958328,5.39,132.509995,41.23,1729474179316.0,0.0
-4.855037,-11.614761,10.250853,30.870001,92.68,29.82,1729474179336.0,0.0
-7.104291,-11.440084,0.356531,8.26,-55.580002,-22.120001,1729474179356.0,0.0
-6.104091,-11.916256,-3.055635,-20.299999,-52.43,-47.810001,1729474179377.0,0.0
-1.476372,-8.963513,-4.4339,1.26,-128.309998,-32.41,1729474179396.0,0.0
1.70369,-8.516055,-15.127424,0.21,-159.180008,-17.57,1729474179416.0,0.0
-0.605384,-4.800002,-13.337594,-68.459999,-92.120003,-51.099998,1729474179437.0,0.0
-8.700303,-8.248059,-12.921242,-47.040001,125.790001,-32.830002,1729474179458.0,0.0
-9.810574,-10.08814,-5.034499,63.279999,105.349998,3.01,1729474179476.0,0.0
-3.208775,-5.979663,-5.625526,102.970001,-8.68,33.670002,1729474179497.0,0.0
1.09352,-5.144568,-8.901299,51.939999,5.74,20.860001,1729474179526.0,0.0
1.20359,-5.498707,-11.8349,5.95,58.52,4.9,1729474179537.0,0.0
-1.380659,-8.429914,4.819145,41.09,128.169998,17.01,1729474179559.0,0.0
-4.007978,-8.238488,15.134604,71.959999,91.349998,12.18,1729474179578.0,0.0
-5.312066,-8.458629,4.716253,31.290001,-40.32,1.75,1729474179597.0,0.0
-5.15414,-10.829915,-0.361316,-88.129997,-56.560001,-35.91,1729474179616.0,0.0
1.246661,-9.408579,-7.709675,-164.5,-124.669998,-35.77,1729474179637.0,0.0
3.177669,-11.241481,-18.809978,-84.07,-141.399994,-10.43,1729474179658.0,0.0
-2.986243,-7.905886,-12.174682,-3.64,-15.190001,-29.82,1729474179676.0,0.0
-12.495319,-7.65464,-9.71486,37.66,192.009995,-27.02,1729474179698.0,0.0
-8.23131,-7.65464,-3.436093,89.110001,65.309998,-0.7,1729474179716.0,0.0
1.351945,-4.474578,-6.333801,-16.799999,-75.739998,12.88,1729474179736.0,0.0
5.498707,-6.295516,-13.708481,-79.519997,-39.619999,-2.1,1729474179759.0,0.0
2.615355,-4.216154,-5.826523,-62.02,105.910004,-10.92,1729474179775.0,0.0
-4.618148,-7.121039,10.985448,28.630001,161.910004,30.73,1729474179797.0,0.0
-5.65424,-10.234102,5.216353,47.459999,-13.37,23.799999,1729474179818.0,0.0
-6.058627,-9.769895,-0.933201,-53.970001,-58.170002,-13.3,1729474179837.0,0.0
-3.306881,-11.444871,-4.752146,-78.330002,-82.18,-27.719999,1729474179857.0,0.0
0.447458,-9.815358,-5.24746,-105.07,-133.699997,-25.48,1729474179877.0,0.0
1.607977,-14.151153,-14.462219,-68.25,-106.190002,-17.780001,1729474179896.0,0.0
-3.201597,-12.069397,-13.086348,-34.02,-7.21,-50.119999,1729474179916.0,0.0
-8.128418,-7.37468,-8.870193,67.830002,107.169998,-41.16,1729474179939.0,0.0
-5.111069,-5.058427,-4.613362,173.880005,41.580002,16.59,1729474179958.0,0.0
1.335195,-6.85783,-2.043471,90.580002,-34.650002,24.290001,1729474179976.0,0.0
-2.778067,-10.281959,-7.726424,-84.629997,42.420002,-26.389999,1729474179996.0,0.0
-4.979464,-11.657832,-11.243874,-2.03,57.119999,-27.440001,1729474180018.0,0.0
-1.895115,-10.006784,-9.994821,169.259995,37.380001,4.83,1729474180037.0,0.0
0.301496,-5.379066,-2.273181,268.940002,59.080002,11.69,1729474180059.0,0.0
-0.433101,-3.986443,2.476572,315.839996,73.43,24.219999,1729474180079.0,0.0
-1.052842,-4.342973,1.160519,322.769989,50.470001,41.369999,1729474180096.0,0.0
-1.416551,-4.352544,0.344566,344.329987,49.91,66.709999,1729474180117.0,0.0
-2.854637,-5.570491,1.304088,408.100006,60.619999,100.800003,1729474180135.0,0.0
-5.142176,-10.741381,4.465007,467.320007,64.889999,112.910004,1729474180157.0,0.0
-8.209774,-11.52862,9.281759,363.790009,63.07,50.959999,1729474180176.0,0.0
-6.309873,-15.50549,6.417551,241.990005,25.969999,15.54,1729474180200.0,0.0
-2.816352,-15.684953,2.67039,155.75,34.23,-7.14,1729474180216.0,0.0
1.316052,-11.92822,0.78006,165.690002,41.299999,-45.220001,1729474180235.0,0.0
0.342174,-8.95155,2.59382,226.449997,95.480003,-52.220001,1729474180257.0,0.0
-2.416751,-6.675975,4.37408,213.149994,103.809998,-74.059998,1729474180276.0,0.0
-3.505485,-3.751946,7.178468,175.559998,94.220001,-70.699997,1729474180298.0,0.0
-2.057827,0.988236,6.020342,116.690002,59.150002,-30.799999,1729474180342.0,0.0
-0.732204,4.323831,5.350351,82.739998,31.639999,16.450001,1729474180511.0,0.0
-4.960321,-2.794817,6.735795,86.449997,28.49,92.470001,1729474180511.0,0.0
-11.645866,-14.452648,8.185846,0.42,20.58,116.690002,1729474180511.0,0.0
-10.966305,-18.869801,3.192025,-81.620003,-61.529999,91.559998,1729474180511.0,0.0
-7.111469,-20.717058,-3.34038,-177.869995,-101.779999,84.559998,1729474180511.0,0.0
-2.055435,-23.112274,-0.734596,-178.220001,-34.650002,28.98,1729474180512.0,0.0
-0.133998,-13.689339,3.869194,-26.6,-5.46,-50.889999,1729474180512.0,0.0
-0.729811,-4.811966,6.656832,82.389999,63.279999,-101.709999,1729474180512.0,0.0
-0.79681,3.895515,6.716653,94.360001,64.330002,-128.449997,1729474180525.0,0.0
-1.385444,10.229317,9.578469,102.620003,55.369999,-87.779999,1729474180539.0,0.0
-6.13759,8.592626,9.997212,120.610001,52.849998,-31.219999,1729474180556.0,0.0
-12.047862,2.971886,7.802995,77.279999,18.9,50.119999,1729474180574.0,0.0
-7.453642,-7.317252,2.349752,-126.980003,-45.009998,63.560001,1729474180628.0,0.0
-3.211168,-15.787844,3.704089,-148.889999,-42.209999,53.619999,1729474180636.0,0.0
-1.761117,-23.557339,2.634498,-171.710007,-29.26,71.82,1729474180656.0,0.0
-0.308674,-24.064617,2.143969,-132.300003,-17.639999,65.239998,1729474180676.0,0.0
0.026321,-15.201601,3.74716,33.459999,19.389999,-72.379997,1729474180698.0,0.0
-2.084148,-7.530212,5.728417,61.040001,24.639999,-97.580002,1729474180715.0,0.0
-2.395216,-1.651048,4.634897,68.809998,10.71,-102.690002,1729474180735.0,0.0
-2.919244,2.859423,7.420143,93.590004,20.93,-67.550003,1729474180758.0,0.0
-4.862216,5.587241,9.827322,125.580002,27.23,-12.6,1729474180778.0,0.0
-10.095319,5.728417,10.9352,104.019997,19.040001,60.41,1729474180798.0,0.0
-12.205789,1.732404,7.109076,22.4,-18.200001,81.550003,1729474180817.0,0.0
-8.085347,-1.182054,2.160719,-100.730003,-34.439999,43.189999,1729474180837.0,0.0
-4.587041,-5.627919,3.206382,-153.789993,-38.360001,72.660004,1729474180857.0,0.0
-4.407579,-12.725031,3.251846,-189.350006,-34.860001,104.93,1729474180877.0,0.0
-4.287938,-26.488546,-0.191426,-211.470001,-60.41,75.18,1729474180897.0,0.0
-0.413958,-28.749763,-2.115255,-126.279999,-26.460001,10.43,1729474180917.0,0.0
0.612563,-11.679367,7.350751,73.010002,34.650002,-91.07,1729474180938.0,0.0
-4.017549,-5.680561,7.393822,45.990002,11.13,-114.309998,1729474180958.0,0.0
-3.792624,-10.674382,0.792024,57.189999,-33.459999,-112.139999,1729474180978.0,0.0
-1.481157,-7.956135,-0.480957,25.620001,-0.21,-136.220001,1729474180998.0,0.0
-3.512664,-2.201397,4.498507,94.220001,52.290001,-100.660004,1729474181018.0,0.0
-5.955735,8.853443,8.819944,161.559998,80.010002,-59.57,1729474181037.0,0.0
-9.836893,11.270195,13.646267,288.890015,71.470001,63.490002,1729474181060.0,0.0
-12.658032,8.906086,11.313265,173.600006,49.91,134.610001,1729474181077.0,0.0
-8.712267,1.947758,5.178068,-43.959999,-23.379999,63.279999,1729474181097.0,0.0
-4.074977,-2.151148,2.749353,-213.639999,-51.450001,48.93,1729474181121.0,0.0
-3.682554,-9.860823,4.890929,-270.410004,-46.41,111.580002,1729474181137.0,0.0
-2.002793,-21.449263,-1.150948,-285.459991,-64.540001,117.949997,1729474181160.0,0.0
-1.009771,-28.972298,-5.173282,-221.830002,-48.93,72.309998,1729474181178.0,0.0
-1.902294,-25.971697,2.07697,23.24,7.42,-3.57,1729474181200.0,0.0
-2.481357,-13.751552,5.960521,59.010002,19.950001,-90.440002,1729474181217.0,0.0
-5.146961,-4.981857,6.635297,16.309999,0.98,-106.889999,1729474181238.0,0.0
-2.682354,-7.200003,0.756132,38.639999,-37.59,-97.860001,1729474181259.0,0.0
-0.586242,-5.017749,0.193819,70.840004,4.83,-95.620003,1729474181277.0,0.0
-2.45025,-0.308674,1.555335,124.18,57.68,-61.529999,1729474181298.0,0.0
-6.869793,5.613562,5.946165,188.089996,107.379997,-11.27,1729474181317.0,0.0
-10.15514,5.379066,12.301501,219.380005,86.449997,73.080002,1729474181339.0,0.0
-9.49472,4.457829,11.444871,87.989998,42.630001,88.059998,1729474181368.0,0.0
-6.79083,0.339781,7.410572,-56.0,-13.58,75.529999,1729474181377.0,0.0
-5.398208,-3.85723,6.735795,-162.399994,-39.900002,86.800003,1729474181397.0,0.0
-6.379266,-8.023134,4.280759,-259.559998,-62.02,102.760002,1729474181417.0,0.0
-6.903293,-17.467606,3.847659,-279.089996,-125.580002,101.5,1729474181437.0,0.0
-4.086941,-20.444277,0.940379,-235.410004,-97.160004,88.550003,1729474181459.0,0.0
-1.775474,-14.94557,0.409173,-73.220001,-38.57,55.93,1729474181477.0,0.0
-1.59362,-11.148161,0.899701,20.02,-12.95,17.85,1729474181497.0,0.0
-2.455036,-16.139589,3.369094,23.73,-7.77,-30.73,1729474181516.0,0.0
-0.76331,-17.142181,3.189633,-16.59,-7.77,-85.400002,1729474181644.0,0.0
-0.392423,-13.651052,4.850252,67.410004,27.440001,-85.260002,1729474181647.0,0.0
-1.557728,-8.142776,7.092326,135.029999,34.02,-98.139999,1729474181650.0,0.0
-3.680161,-4.76411,6.795617,138.740005,5.88,-115.849998,1729474181652.0,0.0
-5.812167,4.579862,-0.825524,203.070007,20.440001,-66.150002,1729474181653.0,0.0
-7.202396,-1.777867,4.199404,385.350006,29.68,61.950001,1729474181655.0,0.0
-6.915257,-3.079563,7.853244,306.73999,24.639999,-63.560001,1729474181657.0,0.0
-5.156533,-2.76371,7.67139,182.770004,37.310001,-62.369999,1729474181676.0,0.0
-8.348558,-3.35713,6.489335,70.139999,38.920002,-0.21,1729474181697.0,0.0
-6.821937,-2.912065,7.568498,21.0,14.42,-33.110001,1729474181756.0,0.0
-4.110869,-3.550949,8.26481,18.83,10.43,-18.969999,1729474181759.0,0.0
-3.584448,-5.515456,8.68116,8.68,-8.75,-18.129999,1729474181797.0,0.0
-2.667997,-7.65464,7.642675,-5.11,-15.54,-32.549999,1729474181799.0,0.0
-1.124627,-7.403394,6.168696,-13.93,-12.95,-37.450001,1729474181799.0,0.0
-0.083749,-5.761917,5.402994,0.49,-0.7,-14.98,1729474181816.0,0.0
0.622134,-4.206582,6.252446,5.18,17.08,1.82,1729474181836.0,0.0
0.303888,-4.476971,9.233903,-8.68,18.690001,13.93,1729474181857.0,0.0
-2.512464,-5.929415,8.642875,-55.790001,-9.87,11.06,1729474181875.0,0.0
-6.695118,-6.285945,9.521042,-79.519997,-31.01,3.08,1729474181896.0,0.0
-4.59422,-3.804588,6.867401,-69.440002,-46.41,11.55,1729474181918.0,0.0
-5.84088,-3.397808,4.938786,9.94,-27.02,15.68,1729474181937.0,0.0
-3.629912,-2.225325,6.439085,52.009998,-7.35,22.120001,1729474181958.0,0.0
-1.751546,-6.999006,7.424929,20.440001,-8.47,3.36,1729474181976.0,0.0
-4.503292,-9.279366,6.269196,-69.019997,-27.02,-60.34,1729474181999.0,0.0
-1.849652,-7.819745,7.585248,-38.779999,19.110001,10.99,1729474182018.0,0.0
-2.28036,-5.962914,7.202396,27.860001,20.93,4.34,1729474182038.0,0.0
-2.751746,-3.924229,6.709475,85.190002,17.92,11.69,1729474182057.0,0.0
-2.143969,-3.761517,6.958328,102.269997,31.360001,13.65,1729474182078.0,0.0
-2.414358,-5.465207,7.477571,49.490002,18.200001,-21.629999,1729474182097.0,0.0
-2.421536,-6.802795,7.460821,21.0,12.46,-19.879999,1729474182117.0,0.0
-3.206382,-6.640083,6.774081,50.68,19.040001,-14.42,1729474182139.0,0.0
-3.821337,-4.522435,7.520642,83.510002,30.309999,-17.85,1729474182157.0,0.0
-4.646862,-2.868994,9.75793,63.91,26.950001,-19.6,1729474182177.0,0.0
-4.735396,-2.634498,11.346765,3.64,4.69,-21.98,1729474182200.0,0.0
-3.495914,-4.070191,10.451849,-36.119999,-23.379999,-17.639999,1729474182216.0,0.0
-1.940579,-5.623133,8.221739,-42.490002,-35.349998,-15.26,1729474182237.0,0.0
-2.127219,-6.235696,7.893922,-57.889999,-31.5,-25.27,1729474182258.0,0.0
-1.770689,-6.288338,7.77428,-140.350006,-53.830002,-29.049999,1729474182277.0,0.0
-1.691726,-5.809773,7.49432,-105.209999,-61.389999,-9.45,1729474182296.0,0.0
-1.789831,-4.546363,6.874579,-51.240002,-40.459999,4.13,1729474182319.0,0.0
-1.931008,-4.244867,5.726025,-82.25,-44.310001,1.33,1729474182337.0,0.0
-1.555335,-5.970093,5.091926,-129.289993,-59.150002,8.61,1729474182359.0,0.0
-1.871187,-7.398607,5.316852,-159.320007,-57.75,6.3,1729474182376.0,0.0
-3.17049,-7.250252,6.068198,-165.690002,-43.959999,14.7,1729474182396.0,0.0
-2.794817,-6.652047,5.98445,-181.789993,-30.450001,12.53,1729474182418.0,0.0
-1.883151,-3.665804,8.224132,-298.059998,-48.16,-3.22,1729474182443.0,0.0
-1.68694,-5.465207,4.723432,-432.670013,-59.220001,-3.99,1729474182460.0,0.0
-2.014757,-7.362715,-3.574877,-586.25,-56.139999,-18.76,1729474182476.0,0.0
-0.79681,-11.399406,-3.503092,-626.5,-58.52,-21.629999,1729474182497.0,0.0
0.055035,-13.007384,-3.084348,-564.130005,-49.77,-0.49,1729474182518.0,0.0
-0.717847,-12.390036,-4.682754,-286.299988,-17.92,-2.24,1729474182536.0,0.0
-2.526821,-10.097712,-3.120241,-152.740005,30.24,-11.27,1729474182558.0,0.0
-3.208775,-10.042676,-3.814159,-129.360001,21.42,-23.030001,1729474182578.0,0.0
-0.722632,-10.164711,-3.141776,-73.220001,-9.73,-3.29,1729474182599.0,0.0
0.342174,-6.970293,-2.342573,-87.43,3.64,-12.18,1729474182616.0,0.0
-0.68674,-5.62074,-3.931407,-107.169998,16.309999,2.59,1729474182636.0,0.0
-2.251646,-6.786045,-5.075177,-149.520004,9.87,9.45,1729474182659.0,0.0
-2.440679,-9.322437,-6.147161,-163.449997,2.94,12.32,1729474182676.0,0.0
-1.153341,-8.965906,-7.092326,-108.220001,-12.46,25.549999,1729474182698.0,0.0
-1.182054,-7.989635,-5.115855,-58.73,-0.91,36.82,1729474182717.0,0.0
-3.785445,-7.343572,-3.799802,-97.860001,35.07,32.48,1729474182737.0,0.0
-4.608576,-7.666604,-8.281559,-142.029999,28.49,23.450001,1729474182756.0,0.0
-1.78026,-9.166903,-4.177868,-110.110001,-30.940001,23.799999,1729474182776.0,0.0
0.454636,-10.750952,-5.498707,-48.650002,-52.639999,27.860001,1729474182799.0,0.0
1.538585,-10.985448,-9.793823,32.060001,-55.23,11.06,1729474182816.0,0.0
1.395016,-9.054441,-7.216753,113.959999,-45.290001,6.79,1729474182837.0,0.0
-0.971486,-6.293124,-6.302694,114.449997,-20.860001,-16.52,1729474182858.0,0.0
-3.940979,-8.757731,-9.274581,64.68,20.65,-46.549999,1729474182876.0,0.0
-4.957928,-5.438886,-5.015356,-70.980003,-19.389999,-73.080002,1729474182897.0,0.0
-5.039285,-3.888337,-8.35813,-182.070007,-54.599998,-110.040001,1729474182916.0,0.0
-3.661019,-5.345565,-10.19821,-159.949997,-36.189999,-108.919998,1729474182938.0,0.0
-0.368495,-7.633104,-9.65504,-21.77,-60.27,-50.82,1729474182957.0,0.0
2.122434,-4.871787,-10.083356,-24.57,-42.560001,-25.690001,1729474182977.0,0.0
1.292124,-5.589634,-8.176274,-77.840004,46.619999,-7.91,1729474182996.0,0.0
-0.157926,-5.912664,-9.207582,-92.050003,76.300003,10.08,1729474183016.0,0.0
-0.045464,-10.025927,-5.125426,-14.42,59.150002,34.299999,1729474183037.0,0.0
-0.727418,-9.554541,2.299503,62.720001,59.220001,29.610001,1729474183057.0,0.0
-2.230111,-9.401401,-2.134398,141.119995,2.1,19.25,1729474183075.0,0.0
-4.366901,-5.529813,0.421137,96.25,-21.07,-9.31,1729474183097.0,0.0
-4.735396,-8.396415,-4.756931,9.31,-54.389999,-21.42,1729474183118.0,0.0
-0.835095,-4.005585,-13.028918,-105.419998,-112.980003,-44.240002,1729474183136.0,0.0
1.684547,-3.620341,-8.298308,-176.820007,-118.370003,-31.57,1729474183162.0,0.0
-3.716053,-4.345366,-9.930215,-274.679993,-31.01,-42.630001,1729474183176.0,0.0
-7.910671,-5.915058,-16.957933,-209.509995,8.26,-40.389999,1729474183200.0,0.0
-4.673182,-2.866602,-14.041083,-10.99,-18.059999,8.05,1729474183216.0,0.0
1.043271,1.024128,-10.631311,34.369999,-54.389999,42.209999,1729474183237.0,0.0
-2.273181,-6.58744,-8.456236,-49.0,17.85,38.080002,1729474183257.0,0.0
-2.392823,-6.795617,-10.626525,-24.57,26.040001,26.389999,1729474183276.0,0.0
-0.531207,-6.149554,-9.619147,60.27,16.52,29.4,1729474183297.0,0.0
0.356531,-7.829315,-5.635098,136.570007,17.57,24.710001,1729474183315.0,0.0
0.07657,-4.369294,-2.804388,155.610001,11.34,9.59,1729474183337.0,0.0
-0.413958,-4.046263,-4.54397,69.440002,-17.01,1.4,1729474183359.0,0.0
-1.892723,-5.067998,-7.228717,-40.32,-11.62,-15.47,1729474183375.0,0.0
-1.847259,-5.486742,-9.236296,-66.360001,-13.23,-14.98,1729474183397.0,0.0
1.37348,-5.627919,-8.468199,-82.809998,-47.040001,-14.21,1729474183415.0,0.0
1.536192,-4.98425,-9.379865,-94.010002,-34.09,-16.309999,1729474183437.0,0.0
-3.395415,-7.566105,-7.831708,-85.190002,-4.76,-23.1,1729474183460.0,0.0
-9.006584,-9.075976,-11.263017,-29.120001,26.040001,-19.040001,1729474183476.0,0.0
-9.458827,-4.630112,-14.531611,46.549999,22.68,-11.62,1729474183497.0,0.0
-3.397808,-2.498107,-11.674582,67.199997,-13.65,31.5,1729474183517.0,0.0
0.284746,-3.567699,-8.346166,32.549999,-10.99,47.040001,1729474183537.0,0.0
-0.851845,-6.388836,-9.128618,24.01,33.040001,40.040001,1729474183558.0,0.0
-2.770889,-6.032306,-12.279965,88.269997,55.860001,31.639999,1729474183577.0,0.0
-1.947758,-5.788238,-8.23131,133.350006,67.690002,39.549999,1729474183596.0,0.0
-0.277567,-8.626125,-2.62732,169.889999,53.060001,39.41,1729474183617.0,0.0
0.351745,-7.209574,-0.098106,181.160004,36.82,16.59,1729474183636.0,0.0
-0.306281,-5.663811,-0.18664,124.949997,3.36,-6.86,1729474183659.0,0.0
-1.09352,-3.917051,-4.019942,2.31,-26.32,-27.860001,1729474183676.0,0.0
-0.856631,-3.07717,-7.779066,-77.489998,-30.450001,-28.77,1729474183698.0,0.0
1.28016,-4.551149,-10.121639,-57.400002,-58.380001,-28.77,1729474183715.0,0.0
0.995414,-6.798009,-5.264209,8.68,-39.060001,26.25,1729474183737.0,0.0
-3.24706,-12.650853,-5.871986,60.130001,-4.34,31.43,1729474183757.0,0.0
-6.573084,-11.595619,-5.211568,66.919998,9.03,4.13,1729474183777.0,0.0
-8.224132,-9.540184,-9.355937,95.480003,-14.49,-11.69,1729474183797.0,0.0
-5.886343,-6.087341,-8.030313,88.620003,-39.549999,-13.58,1729474183817.0,0.0
-2.632105,-3.249453,-5.082355,44.450001,-50.75,-2.94,1729474183836.0,0.0
-1.478764,-4.567898,-6.312266,6.51,-49.349998,9.73,1729474183858.0,0.0
-2.108077,-3.902694,-7.563712,-60.900002,-28.139999,-3.08,1729474183938.0,0.0
-2.852244,-1.261017,-10.085747,-178.360001,-13.02,-18.690001,1729474183938.0,0.0
-1.758725,-4.027121,-14.857035,-262.850006,-17.92,-2.87,1729474183938.0,0.0
-0.059821,-9.607183,-12.15554,-197.470001,30.66,28.49,1729474183939.0,0.0
-1.028914,-7.104291,-9.209974,-93.940002,72.870003,25.620001,1729474183970.0,0.0
-4.905287,-0.299103,-1.830509,-24.92,93.730003,42.630001,1729474183975.0,0.0
-6.094519,-6.197411,-5.029713,-44.66,49.279999,43.470001,1729474183997.0,0.0
-2.541178,-7.860423,-7.310073,-138.110001,8.68,27.370001,1729474184015.0,0.0
-0.26321,-9.221939,-8.322237,-112.419998,-6.86,38.360001,1729474184036.0,0.0
0.148355,-11.444871,-6.393622,-36.610001,0.07,26.110001,1729474184057.0,0.0
-0.930808,-9.186047,-7.384251,9.31,7.98,4.48,1729474184075.0,0.0
-2.694318,-6.60419,-7.135397,130.550003,4.13,6.65,1729474184096.0,0.0
-3.902694,-5.273781,-9.923036,202.789993,7.49,13.93,1729474184116.0,0.0
-3.18724,-5.015356,-8.444271,173.180008,0.63,28.98,1729474184136.0,0.0
-1.540978,-5.891129,-7.295716,136.430008,-14.28,32.900002,1729474184156.0,0.0
-1.476372,-8.250452,-7.159326,143.430008,-9.94,34.369999,1729474184176.0,0.0
-2.261217,-11.540584,-8.193025,186.479996,2.8,22.960001,1729474184199.0,0.0
-2.959922,-13.040883,-8.202596,249.130005,9.94,8.26,1729474184216.0,0.0
-3.294917,-10.214959,-6.881758,310.869995,5.46,-3.57,1729474184235.0,0.0
-3.54377,-6.860222,-6.537192,389.480011,5.53,2.03,1729474184256.0,0.0
-4.718646,-7.204789,-4.84068,458.220001,4.97,34.650002,1729474184275.0,0.0
-3.842873,-6.965507,-4.144369,398.230011,4.27,38.080002,1729474184296.0,0.0
-2.87378,-5.630312,-3.364309,297.01001,10.99,30.450001,1729474184315.0,0.0
-3.160919,-7.532606,-0.782453,225.470001,22.190001,13.3,1729474184335.0,0.0
-3.17049,-11.373087,-0.899701,172.759995,14.21,-11.41,1729474184356.0,0.0
-1.478764,-13.409377,-0.701097,196.910004,9.24,-22.889999,1729474184375.0,0.0
-2.388037,-11.822936,1.87358,226.589996,39.130001,-21.84,1729474184395.0,0.0
-2.931208,-11.954542,3.426522,302.049988,29.540001,-54.950001,1729474184415.0,0.0
-2.773281,-8.116454,2.9336,377.860016,27.370001,-56.209999,1729474184436.0,0.0
-4.072584,-7.058826,4.122833,395.360016,43.330002,-38.920002,1729474184459.0,0.0
-4.26401,-4.934,3.787838,287.769989,34.23,-58.170002,1729474184477.0,0.0
-3.940979,-5.144568,4.268795,202.649994,24.92,-62.299999,1729474184496.0,0.0
-3.61077,-5.063213,5.182854,158.479996,24.639999,-64.470001,1729474184515.0,0.0
-3.354738,-4.197011,9.030513,140.490005,24.43,-61.32,1729474184536.0,0.0
-2.804388,-1.612763,8.882158,99.400002,5.6,-43.189999,1729474184558.0,0.0
-2.646462,-2.974278,7.578069,77.840004,-9.66,-27.440001,1729474184576.0,0.0
-0.569492,-2.928815,7.369894,41.650002,-14.7,-23.309999,1729474184687.0,0.0
-0.547956,-1.725225,8.449057,-52.849998,-24.99,5.18,1729474184687.0,0.0
-1.064806,-4.41715,9.29133,-108.709999,-31.360001,32.619999,1729474184687.0,0.0
-0.20339,-9.834501,7.477571,-213.009995,-64.050003,-6.86,1729474184687.0,0.0
0.361316,-11.796617,4.309474,-292.950012,-85.610001,0.7,1729474184688.0,0.0
-0.236889,-10.375278,2.464607,-257.809998,-57.75,8.68,1729474184695.0,0.0
-1.816152,-8.4012,4.201797,-141.680008,-22.33,1.26,1729474184718.0,0.0
-2.79721,-7.219146,5.9677,-60.549999,-11.76,9.73,1729474184735.0,0.0
-2.730211,-6.092126,5.015356,-102.550003,-11.76,5.04,1729474184755.0,0.0
-2.744568,-5.271388,4.331009,-240.309998,-18.48,-5.81,1729474184776.0,0.0
-2.301895,-3.668197,4.457829,-402.920013,-38.57,-13.72,1729474184795.0,0.0
-2.940779,-5.242674,3.783052,-525.140015,-48.720001,-14.21,1729474184816.0,0.0
-5.510671,-10.061819,2.433501,-562.659973,-43.68,-9.45,1729474184837.0,0.0
-4.436293,-15.967306,-7.252645,-333.549988,-101.150002,-4.69,1729474184856.0,0.0
-0.09332,-15.220744,-7.549356,-23.379999,-82.040001,11.9,1729474184875.0,0.0
2.380858,-8.793623,-6.9009,62.23,-32.34,7.91,1729474184897.0,0.0
1.787439,-6.932007,-1.495514,48.790001,16.799999,30.870001,1729474184915.0,0.0
-3.766303,-8.128418,4.031906,-16.59,64.470001,38.080002,1729474184936.0,0.0
-2.139183,-6.352944,-1.012164,-231.979996,-9.17,3.78,1729474184957.0,0.0
0.911665,-9.293723,-4.158726,-225.259995,-53.34,27.65,1729474184975.0,0.0
1.78026,-11.507084,-6.202196,-108.150002,-34.16,50.959999,1729474184996.0,0.0
0.26321,-11.392227,-3.622734,36.540001,12.53,58.380001,1729474185017.0,0.0
-2.68714,-9.772287,1.529014,-17.219999,43.610001,25.690001,1729474185035.0,0.0
-4.520042,-7.508677,1.349552,-196.699997,13.51,-19.879999,1729474185055.0,0.0
-3.582055,-8.595018,-5.749953,-256.970001,-66.150002,-28.630001,1729474185075.0,0.0
-2.029114,-11.626726,-10.281959,-180.809998,-89.040001,-27.790001,1729474185095.0,0.0
-2.751746,-12.665211,-9.504292,-69.090004,-48.860001,-30.799999,1729474185115.0,0.0
-4.352544,-10.24846,-9.267403,-3.36,14.21,-47.880001,1729474185136.0,0.0
-4.938786,-7.298109,-8.903693,36.470001,32.689999,-48.16,1729474185156.0,0.0
-4.563113,-6.853044,-8.013563,29.190001,15.12,-40.950001,1729474185174.0,0.0
-2.792424,-8.932407,-7.274181,13.58,3.99,-33.950001,1729474185199.0,0.0
-1.404587,-9.516255,-6.180661,41.09,14.56,-19.18,1729474185215.0,0.0
-0.851845,-5.278566,-3.792624,31.360001,40.670002,-30.73,1729474185234.0,0.0
-1.730011,-2.737389,2.041078,-25.059999,56.349998,-21.42,1729474185256.0,0.0
0.165105,-8.255238,-5.936593,-17.710001,-10.78,29.610001,1729474185275.0,0.0
0.952343,-10.29153,-1.701297,35.279999,24.219999,39.970001,1729474185296.0,0.0
-1.095913,-9.207582,3.04367,76.300003,25.690001,38.220001,1729474185320.0,0.0
-2.682354,-7.168896,-1.344766,58.799999,-21.0,23.450001,1729474185336.0,0.0
-2.758924,-8.590233,-2.742175,24.92,-36.889999,19.950001,1729474185355.0,0.0
-0.37328,-9.430114,-5.465207,25.690001,-72.449997,33.110001,1729474185375.0,0.0
-1.249053,-10.549955,-8.063812,3.78,-78.68,26.880001,1729474185395.0,0.0
-4.890929,-10.336994,-6.67119,-106.889999,-16.450001,-20.719999,1729474185415.0,0.0
-7.334002,-9.154939,-12.842279,-99.260002,4.97,-29.049999,1729474185436.0,0.0
-4.811966,-9.683753,-10.301102,80.220001,6.3,21.0,1729474185455.0,0.0
-1.012164,-4.910072,-8.193025,116.480003,6.09,31.85,1729474185474.0,0.0
-1.048056,-3.661019,-6.860222,27.58,54.040001,26.18,1729474185496.0,0.0
-2.055435,-6.278766,-6.135197,-64.400002,76.090004,13.23,1729474185515.0,0.0
-1.098306,-9.265009,-3.45045,-73.849998,71.260002,22.68,1729474185536.0,0.0
0.485743,-8.618947,8.451449,-39.27,35.630001,32.060001,1729474185555.0,0.0
-1.629512,-10.04507,4.783253,-8.12,-13.65,20.370001,1729474185576.0,0.0
-4.907679,-10.057034,-4.783253,-21.629999,-41.23,-21.49,1729474185595.0,0.0
-2.974278,-8.798409,-4.429115,-14.49,-79.169998,-0.14,1729474185617.0,0.0
1.631905,-10.478169,-12.765708,-42.209999,-137.270004,13.51,1729474185637.0,0.0
-0.165105,-8.750552,-12.287145,-113.260002,-68.18,-15.47,1729474185657.0,0.0
-6.144768,-8.372486,-10.514063,-104.160004,63.91,-35.07,1729474185674.0,0.0
-8.23131,-9.896714,-8.913264,12.04,71.470001,0.63,1729474185696.0,0.0
-3.491128,-8.116454,-3.838088,41.23,-10.99,23.1,1729474185714.0,0.0
-1.409373,-6.704689,-7.04447,-14.42,17.360001,2.59,1729474185736.0,0.0
-2.249253,-7.939385,-12.189038,-25.27,62.720001,-12.95,1729474185756.0,0.0
-1.952543,-4.902894,-6.132804,0.56,97.510002,-2.8,1729474185774.0,0.0
-1.361516,-3.321238,9.944571,46.759998,79.800003,33.18,1729474185797.0,0.0
-1.636691,-9.221939,5.233103,113.400002,1.89,58.029999,1729474185814.0,0.0
-4.254438,-9.734003,-1.667797,67.620003,-31.92,14.28,1729474185835.0,0.0
-5.79781,-10.612168,-4.036692,44.939999,-27.440001,8.61,1729474185856.0,0.0
-2.969493,-8.147561,-3.515057,68.949997,-86.379997,24.219999,1729474185875.0,0.0
-1.473979,-8.492127,-5.441278,39.830002,-104.370003,23.940001,1729474185896.0,0.0
-2.474179,-10.849058,-8.800802,-61.599998,-92.050003,-10.43,1729474185915.0,0.0
-3.964907,-9.975677,-9.853643,-109.410004,-61.529999,-43.119999,1729474185934.0,0.0
-2.385644,-6.250053,-8.977871,-79.519997,-57.82,-56.77,1729474185956.0,0.0
-1.256232,-4.106083,-10.782058,-74.199997,-41.23,-49.98,1729474185974.0,0.0
-0.863809,-7.381857,-10.705488,-43.889999,-18.969999,-29.75,1729474185995.0,0.0
-2.155933,-9.868,-8.79123,14.98,24.639999,-15.47,1729474186014.0,0.0
-4.292724,-8.298308,-7.733603,66.43,49.139999,-21.77,1729474186035.0,0.0
-6.257231,-5.101498,-3.371487,114.239998,63.07,-11.48,1729474186055.0,0.0
-6.357729,-5.996413,-6.845865,169.399994,56.84,24.92,1729474186074.0,0.0
-3.330809,-5.907879,-7.9011,83.230003,48.299999,24.5,1729474186095.0,0.0
-1.416551,-7.960921,1.59362,-19.879999,85.330002,20.299999,1729474186114.0,0.0
-1.213161,-14.77568,12.906885,54.810001,73.919998,45.150002,1729474186134.0,0.0
0.430708,-11.131411,7.183254,163.029999,-32.759998,34.16,1729474186157.0,0.0
-0.990629,-7.49432,2.254039,49.209999,-52.009998,-9.8,1729474186174.0,0.0
-2.163112,-5.766702,-3.917051,-131.25,-87.290001,-24.08,1729474186198.0,0.0
-3.07717,-7.058826,-10.803595,-210.490005,-108.010002,-24.639999,1729474186214.0,0.0
-4.369294,-9.580862,-12.964314,-198.589996,-77.07,-24.01,1729474186234.0,0.0
-9.166903,-10.162319,-16.584654,-120.959999,34.580002,-28.0,1729474186255.0,0.0
-6.623333,-8.023134,-10.021141,-44.939999,80.5,-21.280001,1729474186274.0,0.0
-0.318245,-3.696911,-2.634498,-42.84,4.55,16.1,1729474186295.0,0.0
2.275574,-6.809973,-8.810372,-23.24,30.940001,27.51,1729474186315.0,0.0
0.411566,-4.926822,-4.127619,0.56,96.18,20.65,1729474186335.0,0.0
-5.453243,-4.125226,9.954143,54.810001,140.699997,45.639999,1729474186355.0,0.0
-4.819145,-9.245867,5.264209,51.939999,4.06,46.759998,1729474186374.0,0.0
-3.058028,-13.674981,-2.06022,-56.0,-65.730003,17.92,1729474186396.0,0.0
-0.337388,-19.216759,-8.518449,24.92,-88.269997,-10.71,1729474186414.0,0.0
0.394816,-12.859028,-10.913664,319.130005,-74.970001,26.809999,1729474186434.0,0.0
-0.232104,-9.829715,-11.179268,507.640015,-22.4,63.98,1729474186455.0,0.0
-5.046463,-6.180661,0.404387,365.190002,40.25,40.950001,1729474186474.0,0.0
-7.568498,-8.209774,-1.256232,184.869995,34.16,-5.81,1729474186494.0,0.0
-4.706682,-11.344372,-2.87378,139.930008,-25.41,12.46,1729474186514.0,0.0
0.461815,-10.413565,-1.526621,147.770004,-26.530001,10.57,1729474186534.0,0.0
0.229711,-8.91805,-0.447458,191.309998,10.01,14.56,1729474186555.0,0.0
-3.74716,-7.810174,1.679761,204.539993,39.759998,-6.09,1729474186574.0,0.0
-6.250053,-9.700503,0.064606,192.850006,14.84,-17.92,1729474186594.0,0.0
-3.629912,-10.301102,-2.349752,245.979996,-20.51,-21.559999,1729474186614.0,0.0
-4.31426,-7.391429,1.545763,326.970001,12.67,-15.96,1729474186642.0,0.0
-5.266603,-5.946165,4.517649,382.970001,6.58,4.97,1729474186654.0,0.0
-5.087141,-6.195018,5.245068,356.790009,20.440001,0.63,1729474186675.0,0.0
-4.036692,-9.408579,7.91785,307.860016,-7.42,-33.950001,1729474186694.0,0.0
-2.349752,-9.293723,4.4674,260.540009,20.23,-57.68,1729474186715.0,0.0
-5.197211,-10.222138,-0.952343,260.959991,49.700001,-65.800003,1729474186734.0,0.0
-6.195018,-4.63729,2.012364,257.670013,76.300003,-79.519997,1729474186755.0,0.0
-6.951149,-1.371087,8.767302,272.720001,65.870003,-32.619999,1729474186773.0,0.0
-6.343372,2.706282,9.702895,262.98999,52.009998,-29.120001,1729474186794.0,0.0
-4.809574,1.426122,10.817951,135.240005,20.16,-24.5,1729474186814.0,0.0
-2.63689,-1.574477,8.355737,-62.299999,-21.559999,-31.5,1729474186834.0,0.0
-1.244268,-4.331009,7.219146,-142.240005,-29.75,-44.029999,1729474186854.0,0.0
-0.777667,-3.63709,9.554541,-102.410004,-15.89,-22.610001,1729474186874.0,0.0
-1.502693,-3.682554,10.135997,-89.389999,-10.08,-3.85,1729474186894.0,0.0
-0.172283,-7.226324,7.597212,-185.009995,-31.290001,-47.740002,1729474186915.0,0.0
0.672383,-12.619746,4.240082,-284.619995,-61.810001,-69.300003,1729474186934.0,0.0
-1.368695,-8.609376,6.206983,-136.149994,-20.440001,-24.780001,1729474186954.0,0.0
-4.517649,0.155533,10.734202,1.96,18.129999,-9.73,1729474186974.0,0.0
-5.228317,0.899701,12.224932,19.040001,-0.56,22.960001,1729474186995.0,0.0
-2.474179,-4.07737,6.769295,-84.559998,-69.019997,-11.13,1729474187014.0,0.0
0.129212,-8.128418,2.557927,-148.889999,-80.57,-11.97,1729474187034.0,0.0
-1.694118,-7.235896,2.074577,-132.720001,-22.4,11.76,1729474187055.0,0.0
-3.677768,-6.89133,8.60459,-118.160004,16.870001,12.53,1729474187073.0,0.0
-4.718646,-6.85783,4.321437,-222.25,-5.25,7.21,1729474187094.0,0.0
-3.821337,-10.557133,2.644069,-287.279999,-28.42,2.66,1729474187115.0,0.0
-1.543371,-13.799409,-0.949951,-336.420013,-48.16,-9.03,1729474187134.0,0.0
1.071985,-13.674981,-1.787439,-297.360016,-37.310001,-8.89,1729474187155.0,0.0
1.655833,-8.52802,3.156133,-238.770004,-5.18,-28.630001,1729474187174.0,0.0
-4.09412,-4.599005,5.273781,-298.339996,45.990002,-11.27,1729474187198.0,0.0
-6.486942,-8.614161,1.043271,-438.130005,-20.23,-53.549999,1729474187213.0,0.0
-0.284746,-11.361122,-4.24726,-425.179993,-120.400002,-59.010002,1729474187233.0,0.0
3.261417,-11.377872,-3.531806,-257.950012,-78.050003,-24.85,1729474187257.0,0.0
-1.768296,-5.74756,-2.256432,-175.910004,8.19,-21.42,1729474187273.0,0.0
-3.512664,-6.108876,-2.806781,-215.809998,17.219999,-6.23,1729474187294.0,0.0
-2.478964,-8.95155,-7.482357,-236.110001,-25.76,8.61,1729474187314.0,0.0
-2.344966,-12.315859,-7.518249,-149.800003,-12.32,31.43,1729474187334.0,0.0
-3.725625,-9.406186,-4.838287,-128.520004,38.5,18.129999,1729474187359.0,0.0
-3.570091,-11.169697,0.059821,-100.730003,14.42,16.17,1729474187373.0,0.0
-1.29691,-9.643075,-5.580062,-91.279999,-30.380001,-2.31,1729474187394.0,0.0
-0.150748,-10.930414,-7.800602,10.64,-55.790001,5.39,1729474187415.0,0.0
0.808774,-7.128219,-6.845865,84.910004,-55.23,2.17,1729474187433.0,0.0
-1.287339,-5.893522,-7.927422,140.419998,-28.559999,0.35,1729474187454.0,0.0
-2.799603,-6.774081,-6.491727,71.959999,-22.33,-17.15,1729474187473.0,0.0
-4.287938,-5.651847,-6.695118,-116.690002,-14.07,-67.900002,1729474187493.0,0.0
-4.326223,-5.79063,-8.293523,-192.289993,-18.059999,-79.379997,1729474187513.0,0.0
-3.39063,-8.391629,-8.324631,-121.239998,-39.200001,-34.93,1729474187534.0,0.0
-1.368695,-10.894521,-6.195018,-58.52,-30.380001,-9.31,1729474187554.0,0.0
-0.468993,-9.166903,-9.221939,-60.760002,-31.290001,-15.33,1729474187573.0,0.0
-0.272782,-6.884151,-10.456635,-53.200001,22.82,-18.129999,1729474187595.0,0.0
1.091127,-3.299703,-9.891929,-45.009998,49.349998,-0.98,1729474187613.0,0.0
-1.579263,-7.190433,1.957329,33.670002,92.540001,49.490002,1729474187633.0,0.0
-5.343173,-14.017156,5.032106,125.580002,42.349998,34.23,1729474187654.0,0.0
-6.223732,-7.022934,1.835295,54.740002,-35.84,-30.870001,1729474187673.0,0.0
-4.524827,-6.652047,-7.111469,-6.44,-76.510002,-43.610001,1729474187694.0,0.0
-0.342174,-2.895315,-14.682359,-63.91,-147.910004,-38.849998,1729474187715.0,0.0
0.421137,-5.82413,-13.426127,-93.800003,-89.739998,-18.41,1729474187733.0,0.0
-3.883551,-10.080962,-8.73141,-104.93,40.32,-4.27,1729474187755.0,0.0
-6.606583,-6.422336,-7.661818,-15.75,68.599998,-8.47,1729474187773.0,0.0
-3.290131,-2.914458,-9.674182,41.860001,-36.82,32.619999,1729474187794.0,0.0
1.131805,-3.45045,-13.763516,-9.24,-32.27,28.91,1729474187814.0,0.0
1.205983,-6.800402,-8.427521,-35.560001,57.889999,35.490002,1729474187834.0,0.0
-1.842474,-9.073583,1.540978,28.91,83.580002,39.27,1729474187854.0,0.0
-4.34058,-11.162518,4.907679,59.360001,21.91,17.08,1729474187873.0,0.0
-5.297709,-7.518249,-1.021735,-13.3,-42.349998,-29.889999,1729474187894.0,0.0
-3.014957,-5.728417,-7.015756,-89.110001,-81.410004,-45.080002,1729474187914.0,0.0
1.636691,-10.652846,-11.303694,-98.279999,-113.050003,-35.420002,1729474187933.0,0.0
1.11027,-11.607583,-14.373686,97.580002,-102.480003,-16.66,1729474187954.0,0.0
-2.163112,-8.425128,-10.9352,220.360001,-11.62,-16.940001,1729474187973.0,0.0
-5.802595,-3.929015,-6.972685,184.380005,52.43,-26.530001,1729474187993.0,0.0
-6.338587,-4.826324,-7.982457,164.710007,39.41,0.21,1729474188013.0,0.0
-3.065206,-6.848258,-5.948557,161.699997,-15.68,33.670002,1729474188033.0,0.0
-1.545763,-8.398808,-6.924829,136.430008,-1.68,29.4,1729474188054.0,0.0
-1.749153,-10.968699,-6.501299,154.279999,25.76,18.690001,1729474188073.0,0.0
-2.65364,-10.327423,-6.106483,235.759995,34.509998,23.940001,1729474188094.0,0.0
-2.708675,-9.810574,-7.149754,349.579987,41.439999,30.940001,1729474188113.0,0.0
-2.014757,-9.456435,-6.484549,352.450012,59.709999,13.440001,1729474188133.0,0.0
-1.488336,-10.389636,-4.309474,346.5,71.82,0.56,1729474188154.0,0.0
-2.148755,-8.846266,2.251646,343.559998,89.669998,-17.01,1729474188173.0,0.0
-3.680161,-6.563512,6.455836,280.420013,87.989998,-34.299999,1729474188198.0,0.0
-5.503492,-4.034299,9.018548,178.639999,55.09,-39.970001,1729474188213.0,0.0
-4.424329,-1.143769,8.410772,134.470001,26.110001,-14.91,1729474188232.0,0.0
-2.256432,0.399601,7.063612,118.020004,-1.61,22.540001,1729474188254.0,0.0
-0.732204,-3.795017,6.206983,102.550003,-40.670002,46.34,1729474188376.0,0.0
-4.290331,-12.378072,3.282953,32.970001,-42.07,54.950001,1729474188376.0,0.0
-4.029513,-13.036098,-5.099105,-41.02,-44.52,46.759998,1729474188376.0,0.0
-2.388037,-18.89612,-7.877172,-71.75,-33.529999,24.219999,1729474188377.0,0.0
-0.323031,-22.590637,-3.881158,-51.869999,-7.21,-34.02,1729474188377.0,0.0
0.746561,-15.495919,-1.227518,83.580002,51.450001,-59.57,1729474188380.0,0.0
-0.354138,-8.379664,0.339781,185.220001,95.199997,-74.900002,1729474188398.0,0.0
-3.225525,-2.206182,6.463014,139.089996,112.279999,-86.590004,1729474188438.0,0.0
-6.953543,1.442872,11.265409,85.75,93.800003,-72.449997,1729474188442.0,0.0
-9.092726,2.524428,12.612568,127.260002,26.18,-3.29,1729474188462.0,0.0
-8.630912,2.928815,10.382458,143.289993,8.61,55.720001,1729474188476.0,0.0
-6.89133,-0.514457,5.04407,40.529999,-17.92,58.59,1729474188493.0,0.0
-3.120241,-5.639884,2.105684,-89.110001,-56.279999,57.889999,1729474188512.0,0.0
-0.792024,-12.488142,1.512264,-171.360001,-64.190002,89.25,1729474188545.0,0.0
1.308874,-20.374884,-4.76411,-229.180008,-74.620003,82.25,1729474188561.0,0.0
1.146162,-20.81995,-5.355137,-191.729996,-34.509998,29.82,1729474188578.0,0.0
-1.741975,-12.401999,5.178068,82.669998,15.75,-17.43,1729474188594.0,0.0
-1.89033,-5.819345,8.958728,128.869995,-0.77,-22.33,1729474188615.0,0.0
-3.09392,-3.436093,9.272188,121.169998,-31.360001,-4.27,1729474188636.0,0.0
-4.618148,-3.567699,7.795816,48.09,-68.599998,-5.67,1729474188655.0,0.0
-3.826123,-2.871387,3.802195,-18.620001,-92.400002,12.67,1729474188674.0,0.0
-2.311467,-5.82413,2.251646,-4.48,-70.279999,55.09,1729474188695.0,0.0
-3.756732,-9.827322,2.845066,6.51,-44.73,41.790001,1729474188714.0,0.0
-5.07757,-10.332209,0.72024,6.72,-23.66,10.57,1729474188735.0,0.0
-5.07757,-12.488142,0.222532,44.799999,18.27,9.52,1729474188755.0,0.0
-3.409772,-12.327823,2.565106,57.400002,45.57,-14.63,1729474188774.0,0.0
-2.340181,-12.014362,6.020342,78.400002,59.360001,-30.450001,1729474188795.0,0.0
-1.612763,-11.631511,8.063812,72.660004,49.0,-52.779999,1729474188814.0,0.0
-1.741975,-9.743573,9.664611,55.02,22.82,-63.560001,1729474188834.0,0.0
-0.16989,3.206382,2.600998,70.0,3.99,-49.98,1729474188858.0,0.0
-10.461421,-3.182454,6.139983,309.190002,34.299999,137.479996,1729474188944.0,0.0
-6.970293,-7.740781,9.095119,133.139999,-4.55,-125.160004,1729474188952.0,0.0
-3.211168,-10.10489,9.456435,-43.959999,-21.35,-82.879997,1729474188959.0,0.0
1.646262,-5.335995,6.618547,0.7,8.68,-8.12,1729474188959.0,0.0
1.404587,-3.424129,7.04447,120.540001,18.9,18.41,1729474188960.0,0.0
-0.765703,-3.622734,7.537392,93.099998,12.88,0.42,1729474188976.0,0.0
-3.744767,-5.211568,3.601198,11.69,-1.33,-15.05,1729474188996.0,0.0
-5.553742,-8.030313,-0.019143,-21.98,12.39,-10.78,1729474189015.0,0.0
-5.211568,-10.858629,4.051049,-42.700001,33.389999,-22.120001,1729474189036.0,0.0
-3.244668,-11.236694,6.661618,-39.549999,35.349998,-20.65,1729474189057.0,0.0
-3.266203,-7.168896,9.47797,52.57,42.349998,-11.13,1729474189075.0,0.0
1.579263,-0.327817,10.942378,119.139999,18.620001,8.68,1729474189100.0,0.0
-8.54477,-5.608776,9.461221,95.129997,-22.889999,34.369999,1729474189115.0,0.0
-9.552148,-5.673382,6.838687,33.880001,-33.670002,-44.66,1729474189135.0,0.0
-2.675175,-4.280759,7.944171,0.42,-7.77,-17.639999,1729474189157.0,0.0
-0.744168,-2.017149,7.393822,31.5,-2.52,6.79,1729474189175.0,0.0
-2.510071,-6.278766,9.573684,39.27,8.89,11.76,1729474189199.0,0.0
-1.234696,-10.447062,3.598805,-147.559998,-32.619999,-51.240002,1729474189216.0,0.0
0.375673,-10.030712,0.820738,-133.350006,-0.91,-40.670002,1729474189235.0,0.0
-0.638884,-6.386444,6.046663,6.02,43.610001,-9.45,1729474189256.0,0.0
-4.189832,-4.019942,9.312866,121.029999,58.170002,4.27,1729474189275.0,0.0
-6.415157,-4.37408,10.303494,84.699997,31.43,-11.41,1729474189295.0,0.0
-4.529613,-4.460221,7.946564,-3.15,-10.43,-13.37,1729474189316.0,0.0
-0.287139,-3.474378,6.333801,-16.940001,-17.08,13.16,1729474189336.0,0.0
-3.024528,-7.996813,8.166703,20.860001,-18.9,22.68,1729474189356.0,0.0
-9.731609,-8.035098,6.742974,20.370001,-22.75,-49.139999,1729474189375.0,0.0
-4.847858,-6.029913,8.623734,71.610001,27.860001,-0.28,1729474189396.0,0.0
-3.309274,-1.162912,8.051848,54.040001,12.6,-2.59,1729474189416.0,0.0
-2.431108,-1.883151,10.351351,25.76,19.110001,35.84,1729474189436.0,0.0
0.344566,-5.496314,8.262416,-104.090004,-28.42,-27.790001,1729474189456.0,0.0
-0.172283,-10.040283,6.278766,-156.520004,-42.77,-37.939999,1729474189476.0,0.0
-2.447858,-10.425529,4.491328,-72.029999,-21.98,-10.5,1729474189496.0,0.0
-2.76371,-5.63749,4.876573,46.130001,12.74,-9.73,1729474189518.0,0.0
-1.399801,-1.383051,7.783852,82.529999,29.889999,10.57,1729474189536.0,0.0
-1.091127,-4.608576,9.662218,-39.41,-9.66,-4.69,1729474189558.0,0.0
-2.380858,-7.51107,8.630912,-171.5,-52.639999,-8.4,1729474189575.0,0.0
-1.727618,-8.166703,4.704289,-245.0,-71.82,8.96,1729474189596.0,0.0
-1.335195,-8.829515,0.342174,-228.059998,-63.84,3.71,1729474189615.0,0.0
-1.509871,-10.875379,0.949951,-184.169998,-41.790001,-2.1,1729474189638.0,0.0
-1.672583,-11.205588,2.438286,-170.869995,-24.08,-21.84,1729474189656.0,0.0
-2.033899,-11.430513,3.050849,-122.290001,-8.75,-27.299999,1729474189677.0,0.0
-1.787439,-10.526026,3.852444,-51.59,5.04,-25.48,1729474189772.0,0.0
-1.347159,-8.255238,6.290731,23.940001,17.219999,-11.83,1729474189774.0,0.0
-2.739782,-4.826324,10.490135,42.349998,19.110001,-1.26,1729474189776.0,0.0
-3.919443,-2.103291,8.130811,-17.85,7.0,-2.73,1729474189777.0,0.0
-4.06062,-3.586841,4.969893,-140.350006,-19.25,-1.54,1729474189780.0,0.0
-2.591427,-5.709275,3.381058,-302.329987,-53.760002,-7.63,1729474189800.0,0.0
-0.978664,-9.690931,2.737389,-432.390015,-66.989998,-8.12,1729474189815.0,0.0
-0.658026,-11.229517,-0.282353,-535.919983,-63.349998,-16.52,1729474189834.0,0.0
0.066999,-14.280365,-3.799802,-486.709991,-71.470001,-25.76,1729474189888.0,0.0
-0.215354,-12.028719,-5.288138,-259.769989,-30.309999,-15.12,1729474189891.0,0.0
-0.808774,-10.224532,-4.852644,-76.370003,-0.98,-10.22,1729474189895.0,0.0
-2.120041,-10.633704,-6.082555,21.35,46.060001,1.68,1729474189915.0,0.0
-1.18684,-9.12144,-2.289931,67.970001,62.860001,9.38,1729474189934.0,0.0
-0.665205,-5.924629,3.455236,73.849998,56.630001,14.28,1729474189956.0,0.0
-2.258825,-4.536791,8.752945,44.170002,34.439999,12.88,1729474189974.0,0.0
-4.039084,-5.493921,4.65404,-7.77,-19.389999,25.9,1729474189995.0,0.0
-3.517449,-4.285545,1.962115,-136.080002,-63.490002,10.57,1729474190014.0,0.0
-1.880759,-4.790431,-6.738188,-235.270004,-107.870003,13.37,1729474190034.0,0.0
-0.758525,-11.413764,-14.447863,-200.690002,-134.119995,31.85,1729474190055.0,0.0
-5.012963,-14.780465,-9.913465,-142.449997,-36.049999,21.210001,1729474190073.0,0.0
-9.06162,-11.100305,-12.97867,-76.019997,47.389999,-30.73,1729474190095.0,0.0
-5.517848,-6.745367,-13.328021,30.1,35.279999,6.93,1729474190115.0,0.0
1.698904,-6.396015,-11.217552,66.639999,-10.5,50.259998,1729474190135.0,0.0
4.460221,-5.843273,-4.563113,4.41,47.529999,51.73,1729474190156.0,0.0
0.045464,-6.178268,1.378266,-87.779999,139.720001,23.73,1729474190175.0,0.0
-2.962314,-7.396214,6.659225,-71.75,109.340004,13.93,1729474190198.0,0.0
-3.26381,-12.428321,5.398208,-3.99,-17.08,36.259998,1729474190214.0,0.0
-5.924629,-12.363714,2.163112,-77.139999,-58.380001,-26.040001,1729474190235.0,0.0
-5.02732,-10.351351,-6.317052,-103.949997,-90.440002,-59.779999,1729474190255.0,0.0
-0.370888,-8.204988,-13.299308,-107.520004,-152.110001,-44.59,1729474190274.0,0.0
-1.229911,-9.243474,-11.557333,-91.699997,-120.050003,-31.43,1729474190297.0,0.0
-6.563512,-10.387242,-17.185251,-63.91,60.130001,-51.029999,1729474190315.0,0.0
-7.288538,-9.836893,-13.639089,57.330002,96.32,-8.19,1729474190335.0,0.0
-1.081556,-4.814359,-6.508478,111.650002,21.629999,24.5,1729474190356.0,0.0
4.185047,0.799203,-4.948357,2.94,38.080002,8.54,1729474190374.0,0.0
2.859423,-2.809174,-10.590633,-26.880001,82.459999,26.040001,1729474190395.0,0.0
-1.691726,-5.012963,6.580262,10.15,141.610001,47.040001,1729474190415.0,0.0
-5.268995,-14.309079,8.891729,65.870003,51.099998,47.18,1729474190435.0,0.0
-5.455636,-13.373486,4.407579,-14.28,-65.309998,-15.61,1729474190456.0,0.0
-6.601797,-12.746566,2.65364,-56.630001,-96.739998,-67.970001,1729474190476.0,0.0
-2.07697,-8.537591,-9.820145,-41.650002,-174.089996,-80.57,1729474190496.0,0.0
2.127219,-3.39063,-15.101105,-21.35,-186.199997,-31.99,1729474190514.0,0.0
-5.668597,-5.680561,-15.120246,-28.700001,-77.0,16.870001,1729474190535.0,0.0
-10.870593,-7.015756,-14.08894,-99.82,137.830002,2.59,1729474190557.0,0.0
-4.742575,-9.004191,-11.148161,13.65,44.52,37.029999,1729474190575.0,0.0
2.471786,-5.292924,-6.240481,75.529999,-13.86,49.98,1729474190595.0,0.0
3.979264,-2.632105,-5.668597,18.129999,49.84,23.799999,1729474190614.0,0.0
0.514457,-3.024528,-7.91785,-22.610001,99.190002,12.11,1729474190635.0,0.0
-3.134598,-4.56072,4.577469,-8.75,142.380005,51.029999,1729474190657.0,0.0
-5.24746,-11.473583,7.79103,51.73,46.549999,64.120003,1729474190674.0,0.0
-6.577869,-15.684953,5.455636,8.75,-52.57,9.66,1729474190695.0,0.0
-5.087141,-12.30868,-2.892922,-74.550003,-97.510002,-64.82,1729474190721.0,0.0
-0.445065,-7.513463,-9.308081,-76.090004,-180.460007,-68.599998,1729474190735.0,0.0
3.816552,-5.812167,-16.888542,-31.780001,-188.649994,-33.950001,1729474190759.0,0.0
-3.929015,-6.9344,-13.543377,-25.41,9.38,-7.21,1729474190775.0,0.0
-12.894921,-8.989835,-17.044075,-31.710001,181.649994,-29.33,1729474190796.0,0.0
-8.944371,-6.798009,-13.330415,49.279999,93.309998,10.43,1729474190815.0,0.0
0.662812,-5.237889,-4.529613,90.090004,-26.530001,43.470001,1729474190837.0,0.0
6.54437,-3.9673,-9.702895,18.200001,23.52,24.639999,1729474190857.0,0.0
0.191426,-5.936593,0.801596,37.310001,148.119995,17.5,1729474190875.0,0.0
-7.130611,-4.98425,10.911271,27.93,160.789993,20.860001,1729474190897.0,0.0
-7.314859,-10.889735,2.598605,7.28,-32.200001,17.639999,1729474190915.0,0.0
-5.316852,-10.624132,-0.55992,-66.5,-91.559998,-26.809999,1729474190939.0,0.0
-2.979064,-9.489935,-5.721239,-68.32,-121.730003,-50.889999,1729474190957.0,0.0
-0.538385,-4.761717,-11.358729,-81.760002,-153.860001,-47.599998,1729474190975.0,0.0
-1.239482,-11.112268,-16.197016,-38.220001,-112.629997,-4.62,1729474190996.0,0.0
-7.386643,-10.159925,-17.572889,-89.599998,71.75,-39.619999,1729474191017.0,0.0
-11.576476,-10.346564,-10.731809,28.559999,129.990005,-36.049999,1729474191036.0,0.0
-2.912065,-7.034898,-7.465607,140.979996,-10.85,15.05,1729474191057.0,0.0
6.642475,-4.366901,-12.179466,106.540001,-56.349998,18.9,1729474191076.0,0.0
7.640282,-4.82393,-12.550355,45.220001,54.32,10.08,1729474191099.0,0.0
-0.246461,-5.802595,5.587241,37.170002,196.419998,-1.54,1729474191117.0,0.0
-6.290731,-6.546762,7.685746,34.09,149.800003,-15.4,1729474191139.0,0.0
-2.383251,-6.661618,3.924229,-44.240002,-87.220001,-14.0,1729474191160.0,0.0
-0.392423,-11.286944,-2.727818,-104.510002,-143.430008,-20.58,1729474191176.0,0.0
-1.423729,-15.23271,-10.829915,-121.029999,-117.529999,-53.970001,1729474191200.0,0.0
-0.959522,-5.371887,-15.723237,-61.810001,-97.300003,-54.810001,1729474191216.0,0.0
-4.749753,-4.448257,-15.14896,67.620003,-40.18,10.01,1729474191236.0,0.0
-9.150154,-5.376673,-18.216558,70.489998,86.309998,3.85,1729474191260.0,0.0
-7.590034,-6.336195,-12.303895,25.76,83.790001,16.1,1729474191277.0,0.0
-0.78006,-5.436492,-5.175675,-18.129999,1.68,18.34,1729474191297.0,0.0
2.65364,-5.996413,-3.445665,-47.599998,17.710001,8.61,1729474191319.0,0.0
1.153341,-5.807381,-13.72523,-10.43,55.09,1.82,1729474191336.0,0.0
-1.615155,-3.048456,-1.923829,65.519997,125.790001,32.27,1729474191357.0,0.0
-4.704289,-5.508278,11.770294,72.449997,127.330002,60.34,1729474191376.0,0.0
-3.519842,-10.442278,5.536992,21.280001,-11.34,49.91,1729474191397.0,0.0
-2.785245,-13.189239,0.244068,-26.32,-87.290001,28.280001,1729474191416.0,0.0
-2.127219,-14.866607,-6.269196,-28.49,-89.669998,-5.25,1729474191441.0,0.0
-2.500499,-14.514862,-10.107283,45.990002,-95.620003,-9.1,1729474191457.0,0.0
-2.45025,-9.537791,-11.940186,178.990005,-52.990002,1.61,1729474191476.0,0.0
-2.734996,-5.828916,-10.430314,369.529999,-14.63,54.880001,1729474191498.0,0.0
-3.718446,-5.163712,-9.793823,374.149994,39.619999,72.449997,1729474191517.0,0.0
-4.307081,-7.913064,-7.049256,318.079987,70.699997,69.230003,1729474191537.0,0.0
-4.565506,-9.29133,-2.734996,257.25,88.410004,45.220001,1729474191558.0,0.0
-3.775874,-8.451449,-0.954736,228.339996,73.989998,29.469999,1729474191576.0,0.0
-2.502892,-7.585248,-0.002393,223.580002,56.560001,23.66,1729474191599.0,0.0
-2.498107,-6.745367,2.565106,182.630005,57.260002,18.76,1729474191616.0,0.0
-5.393422,-7.350751,5.230711,114.099998,24.639999,2.8,1729474191636.0,0.0
-6.448657,-13.323236,-0.947558,126.699997,-2.94,3.08,1729474191657.0,0.0
-4.476971,-15.03889,-2.742175,147.770004,-9.59,-14.84,1729474191677.0,0.0
-1.158126,-11.799009,-0.713061,176.330002,8.47,-27.23,1729474191697.0,0.0
-0.425922,-9.446864,2.426322,168.0,45.709999,-34.580002,1729474191715.0,0.0
-1.706082,-5.946165,5.788238,91.559998,50.189999,-61.810001,1729474191738.0,0.0
-2.404787,-0.404387,4.945964,99.190002,31.92,-51.380001,1729474191757.0,0.0
-2.438286,3.270989,6.537192,182.910004,32.549999,23.1,1729474191776.0,0.0
-5.261817,-0.777667,8.650054,176.330002,19.74,72.590004,1729474191973.0,0.0
-6.532406,-5.618347,4.311867,-6.23,-17.780001,90.440002,1729474191976.0,0.0
-6.850651,-11.205588,2.871387,-92.330002,-63.91,83.510002,1729474191976.0,0.0
-5.469993,-16.091732,-4.218546,-141.75,-64.68,63.630001,1729474191977.0,0.0
-3.823731,-26.912077,-3.692125,-98.910004,-33.599998,7.56,1729474191977.0,0.0
0.18664,-22.691137,0.607777,-34.369999,10.78,-53.060001,1729474191977.0,0.0
0.705883,-11.578869,4.869394,99.610001,48.16,-72.940002,1729474191977.0,0.0
-1.509871,-6.498906,6.032306,117.32,42.07,-114.449997,1729474191977.0,0.0
-3.672983,-2.608176,4.335794,55.790001,28.280001,-115.849998,1729474191978.0,0.0
-4.474578,2.098505,5.702096,34.369999,35.07,-74.970001,1729474191978.0,0.0
-5.62074,2.926422,8.489735,74.760002,23.870001,-23.870001,1729474192003.0,0.0
-8.329416,2.423929,9.899107,91.489998,15.190001,29.4,1729474192015.0,0.0
-10.432706,-0.160319,7.4345,50.75,-2.52,65.449997,1729474192036.0,0.0
-7.903493,-3.225525,2.971886,-32.48,-21.700001,62.650002,1729474192061.0,0.0
-4.835894,-6.869793,2.713461,-70.910004,-27.790001,70.209999,1729474192076.0,0.0
-4.431508,-13.765909,4.053442,-74.970001,-28.07,91.910004,1729474192098.0,0.0
-0.512064,-24.248865,-3.385844,-115.5,-39.830002,80.43,1729474192117.0,0.0
2.388037,-23.928226,1.009771,-40.950001,-15.26,-1.96,1729474192137.0,0.0
0.988236,-13.184454,4.299902,79.660004,21.280001,-63.139999,1729474192159.0,0.0
-2.158326,-6.52762,4.151547,133.770004,36.68,-85.120003,1729474192176.0,0.0
-3.991228,-4.089334,3.711268,71.540001,20.790001,-90.160004,1729474192201.0,0.0
-5.020142,-1.241875,5.398208,-22.190001,16.17,-71.82,1729474192217.0,0.0
-5.833702,1.07677,6.585048,-33.810001,13.51,-40.599998,1729474192236.0,0.0
-7.814958,-0.023928,9.085547,30.24,1.33,9.52,1729474192260.0,0.0
-9.466006,-0.514457,8.798409,53.760002,3.15,48.439999,1729474192280.0,0.0
-7.477571,-1.043271,5.699703,16.450001,-12.04,66.290001,1729474192298.0,0.0
-4.642076,-1.801795,3.87398,-48.790001,-28.139999,79.029999,1729474192317.0,0.0
-3.493521,-4.027121,4.800002,-73.290001,-27.23,102.550003,1729474192338.0,0.0
-6.563512,-11.636297,2.945565,-72.800003,-28.559999,112.910004,1729474192360.0,0.0
-6.721439,-18.762121,3.881158,-86.239998,-69.650002,83.580002,1729474192378.0,0.0
-2.943172,-17.135004,2.400001,-53.760002,-34.439999,68.18,1729474192398.0,0.0
-1.605584,-12.744174,4.481757,63.98,-14.63,14.21,1729474192418.0,0.0
-1.533799,-11.870793,3.754339,45.150002,-31.5,-15.89,1729474192439.0,0.0
-1.01695,-11.279767,4.510471,32.900002,-36.889999,-27.440001,1729474192461.0,0.0
-1.17009,-9.736395,5.472386,39.27,-31.85,-36.540001,1729474192478.0,0.0
-1.990828,-7.795816,6.238089,52.360001,-29.540001,-40.459999,1729474192498.0,0.0
-3.139383,-6.070591,6.288338,54.880001,-33.040001,-38.709999,1729474192519.0,0.0
-4.295116,-4.893322,6.005985,54.950001,-37.799999,-25.549999,1729474192540.0,0.0
-5.156533,-3.893122,5.441278,43.959999,-37.59,-10.43,1729474192561.0,0.0
-5.395815,-3.761517,4.845466,10.08,-32.130001,-4.13,1729474192578.0,0.0
-5.948557,-4.62054,3.553342,-57.75,-30.66,-9.52,1729474192600.0,0.0
-5.4676,-6.302694,3.613162,-121.309998,-45.709999,-16.450001,1729474192620.0,0.0
-3.728018,-9.171689,2.340181,-133.070007,-38.920002,-16.59,1729474192643.0,0.0
-1.543371,-10.392029,2.048256,-84.209999,-11.48,-21.629999,1729474192660.0,0.0
-0.538385,-9.446864,2.634498,-10.29,18.129999,-8.61,1729474192677.0,0.0
-1.256232,-8.630912,3.706482,38.290001,36.610001,-1.4,1729474192698.0,0.0
-2.945565,-9.501899,4.711468,42.279999,36.82,-15.33,1729474192718.0,0.0
-3.522235,-11.339586,3.917051,26.6,24.780001,-37.450001,1729474192739.0,0.0
-2.85703,-11.586047,3.981657,30.450001,32.34,-59.220001,1729474192760.0,0.0
-4.017549,-9.083155,1.490728,55.369999,32.830002,-71.470001,1729474192778.0,0.0
-14.155938,-5.737988,9.343972,176.960007,85.050003,-50.959999,1729474192801.0,0.0
-6.355337,-2.986243,8.415558,237.089996,24.92,-31.99,1729474192818.0,0.0
-4.989035,-2.909672,10.083356,193.059998,4.34,10.15,1729474192839.0,0.0
-7.147361,-5.402994,7.771888,156.660004,-24.85,10.85,1729474192859.0,0.0
-5.012963,-3.493521,7.156933,133.559998,10.57,-60.130001,1729474192878.0,0.0
0.145962,-2.632105,7.668997,80.779999,7.0,-18.27,1729474192898.0,0.0
1.691726,-1.72044,6.558727,50.330002,9.8,14.56,1729474192918.0,0.0
1.268196,-3.67059,6.30748,-8.96,12.95,14.0,1729474192941.0,0.0
-0.945165,-8.49452,5.075177,-100.379997,8.89,-21.07,1729474192963.0,0.0
-1.447658,-11.143374,1.418944,-118.160004,17.639999,-35.700001,1729474192978.0,0.0
-2.467,-10.387242,3.168097,-49.700001,45.990002,-13.93,1729474192999.0,0.0
-3.041277,-8.271988,8.360522,54.599998,63.91,-5.6,1729474193017.0,0.0
-4.9675,-5.733203,9.74836,98.910004,53.900002,-16.940001,1729474193038.0,0.0
-6.362515,-5.206782,9.454042,80.290001,24.99,-21.07,1729474193059.0,0.0
-4.867002,-2.086541,8.063812,55.299999,2.17,-12.25,1729474193078.0,0.0
-2.538785,-2.964707,9.571291,34.02,-10.15,20.860001,1729474193099.0,0.0
-6.52762,-6.977471,7.673782,-16.66,-32.830002,-28.700001,1729474193117.0,0.0
-4.335794,-7.800602,6.498906,5.6,-12.25,-26.25,1729474193138.0,0.0
-1.751546,-5.955735,7.831708,61.529999,12.53,-1.89,1729474193159.0,0.0
0.282353,-1.993221,7.518249,65.379997,19.389999,7.98,1729474193178.0,0.0
-0.0335,-2.050649,6.881758,31.780001,19.879999,30.66,1729474193201.0,0.0
-2.584249,-6.946364,8.16431,-48.650002,-0.14,12.11,1729474193217.0,0.0
-4.017549,-10.738988,4.661219,-101.010002,-28.49,-19.67,1729474193237.0,0.0
-2.78046,-8.039884,4.792823,-23.24,10.01,-17.99,1729474193259.0,0.0
-2.979064,-4.0008,7.752745,73.639999,36.470001,0.56,1729474193278.0,0.0
-4.771288,-4.141976,10.624132,72.379997,36.400002,-4.55,1729474193300.0,0.0
-5.252246,-4.139583,9.38465,-1.19,-4.48,-12.67,1729474193318.0,0.0
-5.288138,-4.912465,6.419943,-14.7,-19.25,7.28,1729474193337.0,0.0
-3.144169,-3.211168,5.948557,21.0,-5.67,13.72,1729474193360.0,0.0
-3.986443,-5.304887,8.867801,18.9,-7.84,12.6,1729474193377.0,0.0
-6.005985,-4.957928,7.549356,-50.119999,-24.639999,-18.059999,1729474193399.0,0.0
-3.929015,-3.797409,7.779066,-67.970001,4.48,10.85,1729474193419.0,0.0
-3.491128,-1.801795,7.982457,-165.479996,-5.46,29.960001,1729474193437.0,0.0
-3.546163,-1.182054,5.481956,-252.770004,-19.110001,52.990002,1729474193459.0,0.0
-2.667997,-7.089933,2.651247,-349.019989,-48.09,30.59,1729474193477.0,0.0
-0.662812,-10.607382,0.808774,-423.01001,-70.419998,-13.79,1729474193499.0,0.0
-0.318245,-11.882757,-1.416551,-401.660004,-56.349998,8.33,1729474193517.0,0.0
-0.614955,-10.167104,0.334995,-335.720001,-19.950001,7.42,1729474193537.0,0.0
-1.165305,-6.972685,-0.981057,-347.76001,4.97,-4.06,1729474193559.0,0.0
-2.055435,-10.236496,0.48335,-434.559998,2.94,-11.13,1729474193581.0,0.0
-2.498107,-10.423136,-2.821138,-642.25,-20.93,-63.490002,1729474193693.0,0.0
-1.514657,-11.428121,-8.152347,-708.75,-41.509998,-93.169998,1729474193693.0,0.0
-1.0002,-9.925428,-7.946564,-664.02002,-21.84,-85.120003,1729474193694.0,0.0
-2.474179,-7.278966,-5.723632,-665.700012,23.1,-125.160004,1729474193694.0,0.0
-7.738388,-10.514063,-9.176475,-518.349976,72.730003,-114.099998,1729474193694.0,0.0
-4.816752,-16.098909,-17.2355,-14.7,-35.98,-20.23,1729474193699.0,0.0
0.057428,-4.869394,-12.184253,143.009995,15.26,22.33,1729474193718.0,0.0
3.620341,-3.242275,-11.12184,141.680008,35.279999,30.799999,1729474193737.0,0.0
0.844666,-3.431308,4.386044,140.979996,89.599998,38.220001,1729474193816.0,0.0
-3.730411,-4.400401,2.813959,173.039993,40.040001,41.509998,1729474193823.0,0.0
-6.259624,-7.523034,2.522035,72.449997,-11.9,10.64,1729474193826.0,0.0
-7.06122,-10.585848,-0.11007,-36.610001,-70.840004,-29.889999,1729474193827.0,0.0
-2.175076,-1.940579,-10.116854,-118.090004,-135.940002,-63.91,1729474193838.0,0.0
2.143969,0.614955,-17.955742,-162.330002,-159.529999,-40.740002,1729474193859.0,0.0
-0.521635,-4.682754,-19.477577,-182.0,-49.84,-20.65,1729474193947.0,0.0
-6.640083,-11.593226,-13.143774,-36.610001,57.119999,14.63,1729474193947.0,0.0
-7.104291,-6.896115,-6.965507,112.349998,61.599998,20.440001,1729474193948.0,0.0
-1.014557,-2.794817,-9.738789,164.779999,-37.73,40.389999,1729474193948.0,0.0
3.486342,0.253639,-13.954943,32.41,7.14,22.75,1729474193959.0,0.0
0.248854,-2.998207,-10.973484,-56.91,89.669998,43.75,1729474193976.0,0.0
-2.397608,-6.766902,-0.315853,40.880001,92.540001,65.870003,1729474193997.0,0.0
-2.921637,-10.549955,4.369294,141.820007,28.84,54.810001,1729474194017.0,0.0
-4.31426,-9.662218,3.574877,87.290001,-40.529999,-2.73,1729474194037.0,0.0
-6.635297,-8.054241,-0.27996,-30.59,-66.57,-66.639999,1729474194057.0,0.0
-1.938186,-2.005185,-16.079767,-56.84,-145.180008,-66.849998,1729474194077.0,0.0
0.346959,-7.534998,-14.794822,-82.669998,-123.620003,0.49,1729474194097.0,0.0
-8.662018,-11.315658,-16.754543,-103.879997,78.470001,-21.42,1729474194119.0,0.0
-10.526026,-7.613962,-16.809578,20.16,105.139999,-19.25,1729474194137.0,0.0
-1.909473,-4.309474,-17.039289,197.889999,-7.56,52.080002,1729474194159.0,0.0
5.146961,0.234497,-6.405586,140.699997,22.120001,40.740002,1729474194177.0,0.0
2.273181,-2.74696,-10.633704,44.310001,114.239998,36.610001,1729474194201.0,0.0
-2.612962,-7.405786,0.4666,47.110001,163.309998,37.73,1729474194217.0,0.0
-4.431508,-8.798409,9.454042,117.18,121.800003,35.77,1729474194236.0,0.0
-2.837888,-8.549555,7.424929,144.339996,-16.940001,24.01,1729474194258.0,0.0
-2.723032,-6.558727,4.965107,10.85,-83.93,-27.02,1729474194276.0,0.0
-3.139383,-9.298509,-2.916851,-138.740005,-135.240005,-55.790001,1729474194297.0,0.0
-0.545564,-7.030113,-17.91267,-175.070007,-168.490005,-61.040001,1729474194317.0,0.0
-2.108077,-9.822537,-13.823336,-31.290001,-131.740005,13.65,1729474194337.0,0.0
-8.60459,-7.779066,-14.742181,20.02,73.639999,10.01,1729474194357.0,0.0
-11.389835,-6.441479,-18.379271,49.07,100.870003,26.6,1729474194377.0,0.0
-3.189633,-4.400401,-13.976478,52.639999,34.299999,43.889999,1729474194400.0,0.0
3.57727,-5.185246,0.447458,73.010002,21.42,57.260002,1729474194416.0,0.0
-0.241675,-5.474778,-10.195816,95.199997,134.75,31.219999,1729474194437.0,0.0
-2.294717,-3.639483,-2.754139,152.180008,142.240005,46.830002,1729474194458.0,0.0
-5.513064,-3.443272,13.892728,196.0,150.430008,68.669998,1729474194476.0,0.0
-5.4341,-8.362915,11.38505,123.270004,-3.64,51.799999,1729474194497.0,0.0
-5.754738,-10.545169,7.345965,-74.199997,-91.769997,-18.76,1729474194516.0,0.0
-4.900501,-12.41875,-7.633104,-240.029999,-175.979996,-75.599998,1729474194537.0,0.0
1.363909,-5.915058,-20.977875,-260.470001,-231.559998,-97.93,1729474194558.0,0.0
0.531207,-5.886343,-15.125031,-63.0,-151.410004,-24.43,1729474194577.0,0.0
-8.575876,-10.51167,-16.225731,76.790001,89.18,1.82,1729474194634.0,0.0
-11.155338,-8.394022,-17.328821,42.84,139.369995,-9.59,1729474194639.0,0.0
-2.148755,-8.35813,-9.777073,48.02,3.15,12.39,1729474194705.0,0.0
6.116055,-3.945765,-6.78126,-30.52,11.76,-19.389999,1729474194706.0,0.0
5.213961,-5.024928,-14.574683,-16.799999,75.599998,-27.440001,1729474194706.0,0.0
-0.100499,-2.031506,6.242875,47.25,180.809998,-6.65,1729474194707.0,0.0
-5.539384,-7.080362,11.516656,113.330002,133.770004,22.26,1729474194718.0,0.0
-5.474778,-9.320045,6.24766,86.940002,-27.370001,1.82,1729474194743.0,0.0
-6.778866,-9.437292,-2.014757,51.170002,-74.550003,-25.200001,1729474194769.0,0.0
-1.998007,-8.870193,-14.352149,-16.17,-161.910004,-51.799999,1729474194777.0,0.0
2.677568,-6.273981,-15.273388,-83.720001,-171.430008,-11.48,1729474194799.0,0.0
-0.586242,-7.470392,-14.031512,-81.129997,-28.700001,6.86,1729474194817.0,0.0
-7.779066,-9.071191,-14.105689,-3.36,138.600006,-5.39,1729474194837.0,0.0
-9.310472,-9.425328,-8.784052,51.939999,124.949997,7.0,1729474194860.0,0.0
-2.632105,-7.920243,-6.352944,36.540001,5.46,8.96,1729474194878.0,0.0
2.816352,-7.444071,-11.16491,8.33,-2.1,0.7,1729474194898.0,0.0
4.09412,-4.342973,-5.520242,35.139999,72.590004,0.77,1729474194918.0,0.0
0.270389,-1.509871,10.738988,103.949997,152.110001,31.360001,1729474194937.0,0.0
-3.672983,-5.328816,11.059627,110.32,63.349998,55.650002,1729474194959.0,0.0
-6.003592,-9.595219,3.208775,-13.58,-57.470001,42.209999,1729474194978.0,0.0
-6.254838,-11.509477,-3.244668,-141.889999,-71.470001,-7.28,1729474194996.0,0.0
-2.012364,-11.353944,-9.449257,-165.550003,-152.039993,-15.68,1729474195016.0,0.0
3.292524,-8.188239,-18.297915,-136.289993,-182.559998,-2.03,1729474195037.0,0.0
-0.409173,-8.341379,-14.976677,-76.019997,-67.690002,0.56,1729474195059.0,0.0
-10.602598,-8.863015,-17.625532,-0.42,150.289993,-14.56,1729474195078.0,0.0
-9.171689,-7.707282,-5.816952,67.760002,55.720001,12.39,1729474195099.0,0.0
2.189433,-7.534998,-13.751552,7.91,-50.610001,6.79,1729474195117.0,0.0
8.635696,-8.013563,-12.552748,16.450001,17.08,11.48,1729474195138.0,0.0
3.658626,-4.587041,7.551748,113.82,177.029999,19.389999,1729474195158.0,0.0
-3.838088,1.136591,14.847464,146.089996,157.779999,12.46,1729474195177.0,0.0
-5.572884,-3.022135,5.852845,65.449997,-52.5,50.049999,1729474195201.0,0.0
-5.630312,-8.260024,1.359123,-131.949997,-106.330002,14.49,1729474195217.0,0.0
-4.23051,-14.42872,-10.289137,-172.619995,-149.169998,-22.469999,1729474195237.0,0.0
-0.454636,-9.879964,-17.601604,-128.309998,-157.289993,-16.309999,1729474195268.0,0.0
-2.914458,-7.975278,-5.970093,3.01,-89.669998,10.78,1729474195277.0,0.0
-8.685946,-4.254438,-11.093125,-31.57,22.75,-16.870001,1729474195298.0,0.0
-9.140583,-7.441679,-16.163517,-75.669998,2.94,-9.03,1729474195316.0,0.0
-3.431308,-8.85105,-8.276773,-72.940002,-37.170002,-5.18,1729474195338.0,0.0
-0.078963,-8.80798,-4.522435,-42.139999,-34.02,-10.78,1729474195357.0,0.0
-0.631705,-7.424929,-2.928815,-33.740002,-9.52,-50.610001,1729474195375.0,0.0
-2.689533,-7.329216,-6.23091,-34.02,-10.5,-72.660004,1729474195397.0,0.0
-1.318445,-6.410372,-10.549955,-36.470001,-38.360001,-71.889999,1729474195418.0,0.0
1.18684,-4.311867,-10.451849,-61.389999,-34.23,-39.34,1729474195437.0,0.0
-0.961915,-0.839881,-5.412565,-75.809998,31.639999,-5.18,1729474195458.0,0.0
-4.898108,-3.254239,-6.699903,-60.200001,59.849998,39.900002,1729474195477.0,0.0
-6.166305,-5.02732,-10.514063,-109.830002,32.970001,32.41,1729474195497.0,0.0
-5.201996,-6.240481,-11.827723,-130.550003,37.099998,37.380001,1729474195517.0,0.0
-2.895315,-5.814559,-8.927622,-123.059998,35.07,56.77,1729474195536.0,0.0
-1.194018,-6.996613,-5.003392,-104.510002,39.34,58.52,1729474195559.0,0.0
0.045464,-9.207582,-8.281559,-29.75,27.860001,62.369999,1729474195576.0,0.0
-0.191426,-5.9677,-6.699903,9.8,42.700001,50.119999,1729474195596.0,0.0
-1.481157,-11.430513,-1.624727,40.040001,27.58,40.110001,1729474195617.0,0.0
-0.818345,-9.853643,-4.632504,35.0,-12.74,-3.01,1729474195638.0,0.0
-2.258825,-6.520442,-6.056234,101.220001,-28.0,-18.76,1729474195659.0,0.0
-4.098906,-4.56072,-5.268995,151.550003,-22.82,-15.12,1729474195677.0,0.0
-3.869194,-6.666404,-8.910872,150.990005,-56.490002,-8.05,1729474195704.0,0.0
-2.962314,-5.807381,-12.162716,67.690002,-88.620003,-23.379999,1729474195716.0,0.0
-3.378666,-5.769095,-14.227723,-15.68,-41.720001,-44.66,1729474195738.0,0.0
-4.718646,-4.309474,-13.861622,-15.96,1.33,-30.66,1729474195759.0,0.0
-4.84068,-4.37408,-8.930015,44.029999,51.310001,9.45,1729474195776.0,0.0
-4.173083,-1.878366,-6.975078,-5.18,48.09,19.32,1729474195799.0,0.0
-2.897708,1.864009,-5.422136,-50.400002,38.57,39.830002,1729474195817.0,0.0
-2.574677,0.267996,-7.62114,-15.190001,39.619999,74.269997,1729474195837.0,0.0
-3.629912,-3.558127,-8.338986,-133.0,60.970001,69.300003,1729474195857.0,0.0
-1.993221,-13.375877,-5.264209,-286.160004,33.810001,24.92,1729474195877.0,0.0
1.902294,-15.268601,-6.958328,-288.190002,-30.52,-15.05,1729474195899.0,0.0
1.751546,-12.361321,-5.809773,-63.490002,-33.110001,-48.02,1729474195918.0,0.0
-4.383651,-5.65424,-6.482157,134.820007,19.809999,-55.790001,1729474195938.0,0.0
-8.800802,0.234497,-6.635297,86.309998,3.99,-51.170002,1729474195959.0,0.0
-5.173282,-3.342773,-9.456435,-82.599998,-59.779999,-46.900002,1729474195977.0,0.0
-0.878166,-6.575477,-12.703495,-177.729996,-75.879997,-50.889999,1729474195999.0,0.0
-0.605384,-5.115855,-12.799208,-141.330002,-39.689999,-58.52,1729474196018.0,0.0
-6.893722,-5.4006,-12.703495,5.74,38.080002,-25.059999,1729474196038.0,0.0
-3.661019,-0.803988,-10.817951,178.430008,53.900002,12.67,1729474196058.0,0.0
0.258425,3.699304,-8.932407,166.529999,17.780001,75.739998,1729474196079.0,0.0
0.16989,-4.548756,-7.054041,24.01,51.029999,62.299999,1729474196098.0,0.0
-1.710868,-9.312866,-4.613362,-37.59,76.650002,41.23,1729474196118.0,0.0
-1.892723,-10.9017,-2.845066,-3.99,35.139999,17.639999,1729474196139.0,0.0
-1.48355,-11.026128,-5.45085,81.410004,-14.7,-0.77,1729474196159.0,0.0
-2.203789,-8.707481,-7.523034,144.830002,-13.72,-23.24,1729474196178.0,0.0
-3.218346,-7.889136,-6.666404,221.970001,-2.17,-13.440001,1729474196200.0,0.0
-3.07717,-9.891929,-6.618547,342.51001,-17.639999,18.9,1729474196219.0,0.0
-1.459622,-11.442478,-8.221739,429.940002,-56.139999,46.48,1729474196239.0,0.0
-0.184247,-10.372886,-7.999206,470.26001,-51.029999,52.5,1729474196259.0,0.0
-1.39023,-6.041877,-6.996613,501.690002,4.2,52.709999,1729474196279.0,0.0
-4.31426,-5.54417,-10.770095,537.039978,80.57,59.990002,1729474196301.0,0.0
-6.276374,-8.025528,-3.311667,497.700012,101.57,52.779999,1729474196319.0,0.0
-4.132405,-10.985448,2.175076,361.690002,45.639999,8.47,1729474196338.0,0.0
-1.323231,-14.13919,2.682354,287.48999,-21.35,-16.379999,1729474196361.0,0.0
-1.562513,-12.24168,1.493121,308.769989,1.82,-50.889999,1729474196378.0,0.0
-4.280759,-9.925428,0.904487,407.610016,34.439999,-56.91,1729474196400.0,0.0
-6.003592,-6.946364,2.141576,432.880005,53.689999,-53.34,1729474196422.0,0.0
-7.144968,-5.4006,5.656632,320.320007,43.049999,-79.239998,1729474196438.0,0.0
-5.075177,-3.931407,7.008578,208.669998,25.76,-88.480003,1729474196460.0,0.0
-2.943172,-2.54357,7.125826,152.529999,20.93,-74.900002,1729474196479.0,0.0
-3.519842,-3.498307,6.640083,100.730003,6.58,-74.059998,1729474196498.0,0.0
-3.476771,-2.895315,6.721439,34.93,-11.9,-65.029999,1729474196520.0,0.0
-4.115655,-3.404987,6.9344,12.39,-13.93,-39.900002,1729474196539.0,0.0
-2.940779,-2.706282,9.367901,1.96,-20.299999,-35.700001,1729474196559.0,0.0
-1.978864,-3.675375,10.181459,-23.309999,-36.189999,-22.120001,1729474196579.0,0.0
-1.629512,-1.689333,10.894521,-82.18,-50.75,-1.68,1729474196599.0,0.0
-1.911865,-4.864608,10.310673,-165.690002,-76.230003,10.85,1729474196619.0,0.0
0.588634,-7.322037,5.678168,-290.01001,-115.290001,-19.879999,1729474196638.0,0.0
1.641476,-9.178867,2.830709,-335.720001,-122.290001,-23.799999,1729474196662.0,0.0
0.265603,-9.669396,2.426322,-275.170013,-94.080002,-14.56,1729474196677.0,0.0
-1.021735,-7.381857,2.033899,-133.910004,-34.580002,-9.8,1729474196699.0,0.0
-1.476372,-5.788238,1.935793,-121.239998,-23.940001,9.59,1729474196718.0,0.0
-1.804188,-5.343173,2.0004,-200.059998,-33.810001,7.42,1729474196739.0,0.0
-2.292324,-6.687939,0.619741,-304.98999,-39.549999,-3.64,1729474196759.0,0.0
-2.584249,-8.51127,0.143569,-362.950012,-44.380001,-7.84,1729474196778.0,0.0
-3.081956,-11.129018,0.339781,-325.640015,-65.730003,12.25,1729474196799.0,0.0
-1.641476,-10.951948,-3.345166,-218.889999,-87.779999,14.49,1729474196818.0,0.0
-2.041078,-8.793623,-2.648855,-109.970001,-40.740002,17.290001,1729474196839.0,0.0
-1.844866,-8.202596,-6.34098,-97.510002,5.67,28.98,1729474196861.0,0.0
-1.229911,-7.769495,-3.546163,-141.470001,-20.790001,36.610001,1729474196878.0,0.0
-0.837488,-7.850852,-5.07757,-175.070007,-6.37,41.23,1729474196900.0,0.0
-2.206182,-9.779467,-3.546163,-232.470001,10.64,31.219999,1729474196918.0,0.0
-1.143769,-11.49512,-2.416751,-202.580002,-13.51,26.809999,1729474196939.0,0.0
1.29691,-10.076177,-1.591227,-147.559998,-34.509998,33.810001,1729474196959.0,0.0
1.718047,-9.075976,-3.34038,-151.479996,-28.91,23.59,1729474196978.0,0.0
0.957129,-9.458827,-5.814559,-190.539993,-14.35,10.85,1729474196999.0,0.0
0.337388,-9.829715,-5.989235,-212.729996,-13.3,13.86,1729474197018.0,0.0
-1.244268,-10.705488,-2.167897,-235.550003,-12.67,-2.03,1729474197040.0,0.0
-3.139383,-8.020741,-7.195218,-294.559998,-4.06,-45.639999,1729474197059.0,0.0
-4.496114,-12.847065,-5.577669,-159.669998,-33.670002,-28.77,1729474197079.0,0.0
-4.041477,-13.117454,-7.245467,45.990002,-48.16,-25.690001,1729474197098.0,0.0
-2.304288,-10.140782,-8.671589,175.490005,-46.130001,-29.190001,1729474197117.0,0.0
-1.902294,-8.238488,-9.281759,188.789993,-57.540001,-30.940001,1729474197139.0,0.0
-2.751746,-9.430114,-12.55514,155.399994,-26.530001,-52.009998,1729474197159.0,0.0
-1.878366,-7.834101,-8.602197,111.440002,-4.62,-44.869999,1729474197178.0,0.0
-1.294517,-6.065805,-6.163911,51.029999,-1.68,-42.490002,1729474197201.0,0.0
-2.112862,-3.897908,-4.084548,14.28,37.59,-23.1,1729474197219.0,0.0
-2.342573,-6.65444,-4.443472,52.150002,30.309999,6.86,1729474197239.0,0.0
-1.356731,-4.254438,-6.489335,63.91,22.68,15.75,1729474197262.0,0.0
-2.409572,-5.101498,-9.54497,66.989998,48.509998,46.41,1729474197278.0,0.0
-2.378466,-9.006584,-6.599405,32.27,65.519997,47.18,1729474197299.0,0.0
-2.084148,-9.274581,-1.524228,14.7,62.09,40.670002,1729474197318.0,0.0
-5.498707,-7.381857,2.26361,18.48,36.400002,21.91,1729474197339.0,0.0
-5.45085,-8.293523,-2.955136,5.18,-29.68,-7.98,1729474197358.0,0.0
-1.56012,-6.853044,-4.024727,-10.71,-82.809998,-5.04,1729474197378.0,0.0
1.567299,-5.288138,-7.477571,-30.870001,-114.379997,10.01,1729474197399.0,0.0
-2.005185,-7.846066,-6.053841,-58.939999,-63.139999,12.18,1729474197419.0,0.0
-6.424729,-12.318252,-14.557933,-39.130001,-0.56,-6.58,1729474197439.0,0.0
-5.855237,-11.021341,-11.394621,46.900002,5.74,16.030001,1729474197460.0,0.0
-1.079163,-5.551349,-6.539584,102.970001,-4.69,34.23,1729474197478.0,0.0
0.899701,-2.892922,-7.855636,79.449997,8.61,41.16,1729474197499.0,0.0
-1.136591,-6.343372,-6.419943,39.830002,54.880001,36.470001,1729474197517.0,0.0
-3.144169,-7.709675,-7.91785,-3.57,99.050003,32.900002,1729474197540.0,0.0
-2.775674,-9.389436,3.596412,-27.860001,70.559998,38.220001,1729474197559.0,0.0
-2.213361,-9.449257,9.327222,-26.530001,21.91,29.82,1729474197588.0,0.0
-3.945765,-11.753544,1.70369,-23.66,-40.740002,17.01,1729474197601.0,0.0
-4.575077,-11.382657,-1.617548,-43.330002,-52.290001,-26.18,1729474197618.0,0.0
-3.412165,-8.752945,-2.734996,-12.46,-84.139999,-9.66,1729474197638.0,0.0
-0.39003,-8.109276,-10.736595,-12.04,-104.580002,3.08,1729474197659.0,0.0
-1.294517,-10.442278,-11.026128,-56.0,-88.970001,-1.89,1729474197678.0,0.0
-6.204589,-12.028719,-15.921842,-76.230003,49.77,-18.969999,1729474197699.0,0.0
-5.82413,-10.394422,-9.159724,58.310001,55.650002,6.58,1729474197720.0,0.0
-1.988436,-5.484349,-5.139783,158.059998,47.599998,22.26,1729474197744.0,0.0
-2.009971,-1.753939,-5.785845,84.769997,57.119999,13.72,1729474197758.0,0.0
-3.127419,-5.254639,-10.621738,-5.95,101.5,-4.69,1729474197779.0,0.0
-1.928615,-7.195218,-7.649854,-52.779999,81.550003,6.65,1729474197798.0,0.0
1.459622,-4.9675,7.881958,-13.09,73.220001,22.540001,1729474197818.0,0.0
-0.81356,-7.99442,9.188439,64.68,9.87,55.580002,1729474197838.0,0.0
-6.955935,-10.169496,1.634298,-3.5,-23.870001,-11.62,1729474197859.0,0.0
-9.552148,-11.241481,-3.830909,-86.590004,-24.15,-60.41,1729474197878.0,0.0
-5.173282,-4.711468,-5.053641,-137.479996,-123.199997,-42.0,1729474197900.0,0.0
1.538585,-7.829315,-19.984856,-108.080002,-172.479996,-3.43,1729474197919.0,0.0
-0.246461,-11.289338,-13.406984,-92.330002,-77.840004,6.65,1729474197939.0,0.0
-7.601997,-10.978271,-8.630912,-22.960001,140.979996,-35.700001,1729474197959.0,0.0
-5.020142,-6.563512,-6.769295,87.080002,77.419998,4.13,1729474197979.0,0.0
-0.11007,-5.257031,-7.987241,30.799999,-11.69,8.54,1729474198000.0,0.0
-0.550349,-8.769694,-12.354142,1.05,42.98,3.57,1729474198020.0,0.0
-0.854238,-6.202196,-3.431308,10.29,121.379997,-19.040001,1729474198039.0,0.0
-0.055035,-2.76371,7.23111,70.910004,72.590004,12.6,1729474198061.0,0.0
-0.351745,-7.252645,5.233103,75.110001,-13.02,30.59,1729474198080.0,0.0
-5.233103,-10.497313,0.66999,-17.85,-42.630001,-10.64,1729474198100.0,0.0
-7.491928,-11.002198,-2.691926,-82.879997,-38.709999,-56.420002,1729474198119.0,0.0
-4.864608,-7.006185,-5.04407,-40.740002,-106.889999,-27.02,1729474198139.0,0.0
-0.009571,-4.228118,-10.040283,40.18,-125.93,10.36,1729474198161.0,0.0
-0.172283,-7.125826,-10.619347,14.77,-120.260002,41.02,1729474198178.0,0.0
-3.436093,-7.073184,-7.566105,-111.580002,5.46,-3.36,1729474198202.0,0.0
-6.80758,-10.176675,-8.214561,-132.509995,14.98,0.91,1729474198219.0,0.0
-5.111069,-8.444271,-7.575676,-71.470001,-19.879999,-0.91,1729474198239.0,0.0
-2.79721,-6.690332,-5.163712,16.1,-28.630001,16.1,1729474198261.0,0.0
-3.4672,-6.678369,-4.575077,6.93,-15.61,-5.6,1729474198281.0,0.0
-4.441079,-6.719046,-5.259424,-49.349998,-22.540001,-23.17,1729474198301.0,0.0
-4.048656,-5.627919,-6.147161,-132.020004,-41.23,-42.490002,1729474198320.0,0.0
-2.861816,-5.848059,-6.553941,-200.059998,-53.48,-49.349998,1729474198341.0,0.0
-2.06022,-6.719046,-7.855636,-270.76001,-44.66,-59.290001,1729474198362.0,0.0
-2.045863,-3.37388,-12.669996,-308.769989,-17.780001,-55.790001,1729474198380.0,0.0
-1.902294,-2.091327,-14.433505,-236.040009,2.1,-17.99,1729474198401.0,0.0
-4.0008,-5.295317,-9.260223,-116.199997,34.02,15.33,1729474198420.0,0.0
-6.159126,-4.297509,-7.190433,-113.75,51.099998,2.38,1729474198440.0,0.0
-4.091727,-2.155933,-9.872787,-86.029999,15.12,12.67,1729474198465.0,0.0
-1.107877,-1.98365,-10.782058,-6.3,5.39,35.98,1729474198480.0,0.0
-1.749153,-0.413958,-8.898908,11.34,34.93,60.41,1729474198500.0,0.0
-4.04387,-1.574477,-6.853044,-73.779999,53.970001,63.0,1729474198520.0,0.0
-3.507878,-6.338587,-8.324631,-137.130005,33.950001,51.59,1729474198540.0,0.0
-0.851845,-9.633504,-9.334401,-48.790001,12.88,44.029999,1729474198563.0,0.0
-1.253839,-8.044669,-6.927221,71.610001,19.6,32.48,1729474198580.0,0.0
-3.194418,-5.910272,-7.920243,59.43,26.040001,-4.2,1729474198600.0,0.0
-2.335395,-6.269196,-10.363315,64.889999,-13.51,0.21,1729474198620.0,0.0
-2.62732,-6.78126,-9.29133,164.990005,-1.82,16.799999,1729474198640.0,0.0
-3.347559,-5.4341,-7.111469,221.479996,22.82,20.51,1729474198660.0,0.0
-2.952743,-5.441278,-6.836295,224.910004,7.07,25.620001,1729474198681.0,0.0
-1.98365,-7.530212,-8.255238,229.949997,-22.190001,31.01,1729474198700.0,0.0
-2.59382,-7.908278,-7.925028,246.610001,-17.639999,30.940001,1729474198719.0,0.0
-3.766303,-9.504292,-7.159326,327.25,25.83,33.040001,1729474198740.0,0.0
-5.541777,-10.916058,-5.108676,404.950012,28.210001,34.299999,1729474198762.0,0.0
-5.374279,-11.217552,-6.546762,433.580017,-1.26,26.110001,1729474198780.0,0.0
-4.706682,-7.523034,-4.962714,416.290009,-8.19,32.549999,1729474198800.0,0.0
-3.876373,-4.811966,-7.67139,358.820007,11.97,33.740002,1729474198821.0,0.0
-3.113062,-5.668597,-7.204789,301.980011,24.08,28.630001,1729474198841.0,0.0
-4.036692,-8.245667,1.753939,209.509995,37.240002,16.030001,1729474198947.0,0.0
-3.759124,-8.922836,-0.253639,154.910004,15.12,-1.19,1729474198949.0,0.0
-3.254239,-11.705689,-4.663611,143.5,15.82,-7.0,1729474198950.0,0.0
-3.804588,-13.430914,6.242875,183.889999,9.94,-26.389999,1729474198951.0,0.0
-1.043271,-6.982256,4.39083,342.649994,3.36,-42.0,1729474198960.0,0.0
-3.48395,-4.61097,2.926422,434.0,10.29,-44.939999,1729474198980.0,0.0
-4.321437,-4.608576,2.646462,437.850006,44.869999,-12.18,1729474199000.0,0.0
-2.809174,-4.936393,4.127619,319.410004,10.99,-27.860001,1729474199019.0,0.0
-2.938386,-5.649454,6.788438,189.350006,9.1,-28.84,1729474199040.0,0.0
-3.988836,-7.140182,6.888937,133.070007,19.389999,-27.790001,1729474199061.0,0.0
-3.907479,-5.261817,6.171089,98.980003,16.940001,-34.439999,1729474199079.0,0.0
-4.275974,-3.996014,8.394022,92.82,15.190001,-28.07,1729474199100.0,0.0
-3.689733,-1.641476,8.55434,112.559998,15.54,-8.89,1729474199120.0,0.0
-3.15374,-2.435893,9.176475,87.290001,-1.75,-5.81,1729474199139.0,0.0
-3.067599,-4.493721,10.13839,64.75,-10.92,12.18,1729474199161.0,0.0
-3.235096,-4.228118,7.082755,-26.530001,-18.76,16.450001,1729474199179.0,0.0
-2.878566,-7.826923,5.347959,-346.98999,-53.34,-8.61,1729474199202.0,0.0
-0.454636,-12.184253,0.18664,-429.940002,-80.639999,-43.959999,1729474199219.0,0.0
1.105484,-14.440684,0.870987,-329.350006,-66.080002,-29.610001,1729474199239.0,0.0
-0.007178,-9.602397,2.510071,-157.009995,-15.68,-29.049999,1729474199260.0,0.0
-1.51705,-6.853044,4.503292,-101.709999,18.34,-33.040001,1729474199279.0,0.0
-4.737789,-6.029913,10.095319,-204.539993,3.78,-34.790001,1729474199300.0,0.0
-5.082355,-3.864408,0.605384,-341.459991,1.4,-34.860001,1729474199321.0,0.0
-2.964707,-6.575477,0.401994,-386.890015,-63.420002,-37.380001,1729474199339.0,0.0
-4.086941,-10.566705,8.068598,-400.820007,-73.989998,-34.720001,1729474199361.0,0.0
-4.721039,-14.093725,-7.286145,-208.809998,-36.82,-8.61,1729474199380.0,0.0
-1.940579,-12.134004,-4.74736,2.03,-23.66,-1.26,1729474199400.0,0.0
0.976272,-6.07777,-2.072184,3.57,-12.04,-12.11,1729474199419.0,0.0
-0.047856,-5.319244,-2.545963,-52.009998,23.870001,19.530001,1729474199439.0,0.0
-2.344966,-8.003991,-3.649055,-178.639999,42.349998,12.67,1729474199460.0,0.0
-3.148954,-11.444871,-2.749353,-223.369995,25.969999,9.59,1729474199480.0,0.0
-1.830509,-11.229517,-1.397408,-120.75,-3.36,24.57,1729474199500.0,0.0
0.057428,-7.858029,-2.464607,-95.690002,-3.36,13.51,1729474199519.0,0.0
0.325424,-7.180861,-4.711468,-144.059998,-7.98,4.55,1729474199546.0,0.0
-1.150948,-9.894321,-5.702096,-172.550003,4.9,16.450001,1729474199560.0,0.0
-1.505085,-12.803994,-3.847659,-123.059998,8.54,18.059999,1729474199579.0,0.0
-2.603391,-9.722038,-2.074577,-66.220001,15.54,-12.39,1729474199602.0,0.0
-2.699104,-7.372287,-1.359123,-40.740002,-10.01,-6.86,1729474199620.0,0.0
-3.826123,-7.903493,-1.591227,-29.4,-37.869999,-7.49,1729474199641.0,0.0
-3.436093,-8.537591,-4.443472,-16.799999,-50.75,-7.56,1729474199663.0,0.0
-1.311267,-10.200603,-8.590233,-11.06,-91.0,2.1,1729474199680.0,0.0
-1.464408,-11.301301,-9.741181,-57.049999,-66.080002,-21.0,1729474199701.0,0.0
-4.218546,-8.891729,-6.738188,-118.650002,-4.06,-61.25,1729474199720.0,0.0
-6.429514,-8.745767,-9.274581,-123.410004,4.27,-66.5,1729474199740.0,0.0
-5.015356,-6.049056,-11.083554,-57.75,-3.99,-50.119999,1729474199762.0,0.0
-1.215554,-5.228317,-7.992027,75.389999,-4.97,5.32,1729474199781.0,0.0
0.660419,-3.627519,-6.702296,63.84,14.56,24.92,1729474199802.0,0.0
-0.16989,-6.439085,-11.20798,-13.86,55.439999,24.5,1729474199821.0,0.0
-1.241875,-7.013363,-5.309673,-45.290001,92.330002,22.26,1729474199841.0,0.0
-3.029313,-7.728817,5.07757,58.939999,81.129997,47.32,1729474199862.0,0.0
-2.799603,-9.071191,4.555934,97.300003,-0.28,35.700001,1729474199881.0,0.0
-5.319244,-10.844273,-1.306481,-83.860001,-69.160004,-22.82,1729474199901.0,0.0
-1.641476,-8.226524,-8.525627,-157.570007,-122.849998,-52.080002,1729474199921.0,0.0
1.713261,-4.871787,-12.823137,-117.18,-134.889999,-12.74,1729474199940.0,0.0
-1.804188,-7.372287,-10.34178,-61.389999,-60.830002,13.86,1729474199962.0,0.0
-8.248059,-13.036098,-17.05604,-10.15,59.43,-2.59,1729474199980.0,0.0
-7.558927,-9.262616,-11.069198,-1.05,56.91,-18.76,1729474200001.0,0.0
-0.926022,-3.218346,-7.080362,6.93,-11.83,-0.07,1729474200022.0,0.0
3.24706,-4.012764,-10.143176,2.73,-19.040001,16.17,1729474200042.0,0.0
0.363709,-5.175675,-8.374879,-7.07,62.720001,13.23,1729474200063.0,0.0
-6.209375,-6.826723,2.734996,32.200001,138.600006,17.639999,1729474200081.0,0.0
-7.003791,-7.523034,4.254438,59.010002,45.43,21.139999,1729474200102.0,0.0
-2.912065,-9.501899,-2.493321,17.92,-45.360001,15.89,1729474200123.0,0.0
-1.086342,-9.592826,-6.431907,-59.5,-55.23,-12.6,1729474200143.0,0.0
-0.638884,-10.671989,-7.195218,-36.82,-34.720001,-17.15,1729474200163.0,0.0
-1.741975,-10.279566,-5.977271,74.690002,-27.370001,-1.05,1729474200182.0,0.0
-2.988636,-7.716853,-6.139983,214.899994,-8.4,8.82,1729474200205.0,0.0
-3.053242,-6.642475,-6.321837,243.529999,-15.68,30.799999,1729474200221.0,0.0
-3.412165,-8.123632,-6.087341,230.160004,-0.28,41.650002,1729474200242.0,0.0
-4.321437,-12.296716,-6.18784,267.26001,14.35,50.889999,1729474200267.0,0.0
-4.261617,-11.772687,-5.759524,353.850006,25.129999,43.259998,1729474200282.0,0.0
-3.498307,-9.001799,-4.139583,452.339996,48.299999,44.450001,1729474200302.0,0.0
-2.711068,-8.403593,-2.567499,427.48999,56.91,32.619999,1729474200321.0,0.0
-3.014957,-10.638489,-1.115055,318.570007,49.279999,2.52,1729474200342.0,0.0
-2.388037,-10.693524,-0.892523,218.75,51.099998,-31.5,1729474200363.0,0.0
-2.021935,-9.454042,0.911665,154.979996,69.440002,-48.650002,1729474200381.0,0.0
-2.026721,-5.912664,3.409772,137.970001,18.059999,-39.060001,1729474200402.0,0.0
-0.794417,-1.088734,6.740582,189.630005,57.540001,-8.96,1729474200421.0,0.0
0.509671,4.491328,9.784252,171.710007,57.68,11.41,1729474200446.0,0.0
-6.192625,-5.376673,9.611969,92.050003,-5.6,63.07,1729474200671.0,0.0
-8.817552,-10.348958,3.196811,-30.52,-40.529999,84.910004,1729474200673.0,0.0
-6.62094,-14.804394,-5.235496,-84.139999,-97.93,89.809998,1729474200674.0,0.0
-4.223332,-22.274784,-4.828716,-150.710007,-82.110001,61.459999,1729474200675.0,0.0
-3.304488,-20.001604,-2.074577,-99.190002,-59.290001,6.79,1729474200677.0,0.0
-3.383451,-10.406385,2.199004,-18.620001,10.78,-45.709999,1729474200678.0,0.0
