acc_x,acc_y,acc_z,gyr_x,gyr_y,gyr_z,timestamp,label
-5.453243,-8.49452,-4.364508,14.84,21.210001,-27.299999,1729420408903.0,0.0
-5.237889,-8.355737,-4.369294,27.02,24.43,-29.82,1729420408905.0,0.0
-5.094319,-8.343772,-4.354938,36.400002,26.809999,-32.34,1729420408905.0,0.0
-5.029713,-8.094919,-4.12044,37.59,26.25,-34.369999,1729420408914.0,0.0
-4.871787,-8.061419,-3.799802,34.580002,22.540001,-35.630001,1729420408934.0,0.0
-4.431508,-8.243275,-3.948158,24.57,19.879999,-42.700001,1729420408953.0,0.0
-4.266403,-8.281559,-3.986443,18.129999,18.620001,-45.220001,1729420408983.0,0.0
-4.192225,-8.331808,-3.881158,13.65,18.129999,-46.619999,1729420408993.0,0.0
-4.110869,-8.334201,-3.732803,14.7,16.940001,-47.040001,1729420409013.0,0.0
-3.974478,-8.276773,-3.649055,17.639999,15.33,-45.709999,1729420409035.0,0.0
-3.919443,-8.269595,-3.639483,17.290001,14.91,-45.360001,1729420409054.0,0.0
-3.955336,-8.226524,-3.668197,13.86,17.290001,-44.869999,1729420409073.0,0.0
-3.771089,-8.29113,-3.732803,13.16,17.08,-45.43,1729420409093.0,0.0
-3.524628,-8.353344,-3.986443,12.32,15.33,-44.310001,1729420409113.0,0.0
-3.292524,-8.260024,-3.850052,10.22,12.74,-41.369999,1729420409133.0,0.0
-3.160919,-8.085347,-3.716053,9.59,12.46,-37.939999,1729420409153.0,0.0
-3.156133,-7.922636,-3.388237,11.41,14.49,-35.209999,1729420409173.0,0.0
-2.900101,-7.996813,-3.519842,11.83,14.77,-34.16,1729420409193.0,0.0
-2.725425,-8.070991,-3.842873,4.13,12.18,-31.99,1729420409213.0,0.0
-2.830709,-8.35813,-3.945765,-1.47,14.07,-27.23,1729420409233.0,0.0
-2.909672,-8.714661,-3.945765,1.26,17.08,-24.85,1729420409253.0,0.0
-2.962314,-8.513663,-4.098906,9.66,19.18,-22.4,1729420409274.0,0.0
-3.002992,-8.377272,-3.742374,19.18,20.93,-25.27,1729420409293.0,0.0
-3.010171,-8.669197,-3.493521,11.69,18.41,-31.290001,1729420409313.0,0.0
-2.876173,-8.817552,-3.546163,0.84,14.07,-33.740002,1729420409333.0,0.0
-2.502892,-8.652447,-3.818945,-5.18,9.38,-34.93,1729420409353.0,0.0
-2.141576,-8.11167,-4.012764,-4.76,4.9,-32.830002,1729420409374.0,0.0
-1.976472,-7.77428,-3.828516,-4.76,0.42,-33.670002,1729420409393.0,0.0
-1.911865,-7.829315,-2.885744,-10.15,-3.78,-35.84,1729420409414.0,0.0
-1.868794,-7.9011,-2.581856,-29.469999,-8.89,-37.170002,1729420409434.0,0.0
-1.816152,-7.867601,-2.98385,-58.66,-12.81,-40.670002,1729420409453.0,0.0
-1.947758,-7.41775,-3.15374,-92.400002,-16.52,-42.0,1729420409473.0,0.0
-2.07697,-7.293324,-3.002992,-122.919998,-21.49,-44.66,1729420409495.0,0.0
-2.105684,-7.618747,-3.26381,-146.860001,-29.960001,-47.32,1729420409514.0,0.0
-1.981257,-7.88435,-4.149154,-155.050003,-35.420002,-47.810001,1729420409534.0,0.0
-1.861616,-7.534998,-4.548756,-146.930008,-38.920002,-44.869999,1729420409553.0,0.0
-1.914258,-6.876972,-5.254639,-131.039993,-38.43,-38.990002,1729420409573.0,0.0
-1.976472,-6.288338,-6.436693,-115.57,-34.93,-34.580002,1729420409593.0,0.0
-3.302095,-6.166305,-4.089334,-113.050003,-48.720001,-34.439999,1729420409614.0,0.0
-3.658626,-4.268795,-10.327423,-82.879997,-49.349998,-23.73,1729420409633.0,0.0
-4.517649,-5.953342,-7.9346,-11.69,-31.08,16.59,1729420409653.0,0.0
-3.976871,-7.171289,-5.412565,-83.019997,-44.029999,5.25,1729420409673.0,0.0
-2.215754,-6.63769,-10.669596,-173.949997,-59.779999,2.73,1729420409697.0,0.0
-1.914258,-6.800402,-11.578869,-114.800003,-23.66,22.540001,1729420409713.0,0.0
-1.859223,-8.62134,-10.013963,-10.01,24.15,46.900002,1729420409734.0,0.0
-1.141376,-8.173882,-6.865008,24.92,24.219999,40.040001,1729420409753.0,0.0
-0.777667,-6.927221,-3.964907,-30.940001,-3.57,12.67,1729420409774.0,0.0
-0.114855,-6.360123,-6.388836,-47.389999,-23.379999,2.66,1729420409793.0,0.0
-0.083749,-7.537392,-6.319445,-25.83,-31.43,-5.88,1729420409814.0,0.0
-1.837688,-7.02772,-8.441878,-9.24,-11.13,-3.01,1729420409836.0,0.0
-2.634498,-3.440879,-9.327222,-27.23,3.5,-13.79,1729420409852.0,0.0
-2.536392,-3.448057,-8.609376,-67.690002,-26.32,-16.309999,1729420409873.0,0.0
-1.301696,-5.063213,-9.025726,-66.360001,-40.459999,-19.6,1729420409892.0,0.0
-0.744168,-4.41715,-8.063812,-51.240002,-37.59,-18.549999,1729420409914.0,0.0
-0.961915,-4.503292,-8.566305,-44.939999,-23.52,-20.93,1729420409933.0,0.0
-1.919044,-6.130411,-8.066205,-63.630001,-15.05,-30.1,1729420409952.0,0.0
-1.634298,-6.037091,-8.070991,-62.510002,-28.49,-35.77,1729420409976.0,0.0
-1.409373,-5.010571,-7.743174,-49.77,-35.349998,-39.130001,1729420409995.0,0.0
-1.581656,-1.940579,-9.619147,-41.860001,-30.940001,-36.189999,1729420410013.0,0.0
-2.557927,-0.232104,-12.189038,-27.299999,-13.3,-15.190001,1729420410035.0,0.0
-4.596612,-2.364109,-11.983256,-33.110001,19.389999,11.76,1729420410053.0,0.0
-4.728218,-6.376873,-12.119646,-55.02,40.18,19.32,1729420410075.0,0.0
-2.76371,-7.513463,-8.714661,-49.279999,8.26,22.33,1729420410093.0,0.0
-0.378066,-5.020142,-9.341579,0.35,-7.91,30.799999,1729420410114.0,0.0
-1.545763,-5.187639,-11.203196,37.380001,37.73,41.580002,1729420410133.0,0.0
-3.431308,-6.460621,-10.583455,52.009998,72.309998,49.84,1729420410154.0,0.0
-3.098706,-7.37468,-7.453642,65.800003,62.650002,44.170002,1729420410174.0,0.0
-1.40698,-8.508877,-6.599405,91.910004,38.639999,29.82,1729420410192.0,0.0
-0.583849,-5.838487,-6.183054,53.689999,24.290001,-10.78,1729420410213.0,0.0
-1.399801,-7.520642,-6.953543,-2.38,22.4,-46.759998,1729420410233.0,0.0
-1.009771,-5.517848,-7.63789,7.0,5.81,-55.860001,1729420410253.0,0.0
-1.119841,-3.215954,-6.886543,10.43,-1.05,-66.010002,1729420410275.0,0.0
0.277567,1.062413,-10.24846,-25.48,-33.880001,-86.239998,1729420410295.0,0.0
0.392423,1.502693,-10.174281,-15.61,-26.880001,-59.290001,1729420410312.0,0.0
-1.801795,-0.882952,-11.54537,32.549999,25.9,9.17,1729420410335.0,0.0
-7.032506,-3.814159,-10.231709,61.389999,55.299999,58.59,1729420410355.0,0.0
-3.976871,-7.822137,-7.647461,4.62,4.97,31.639999,1729420410374.0,0.0
-1.519442,-8.271988,-9.47797,-9.94,8.61,42.560001,1729420410394.0,0.0
0.26321,-3.270989,-9.939785,32.759998,-7.49,31.43,1729420410413.0,0.0
-1.387837,-2.658426,-10.796415,18.129999,45.849998,37.450001,1729420410435.0,0.0
-3.5007,-5.304887,-9.140583,7.35,63.279999,49.560001,1729420410454.0,0.0
-2.469393,-2.799603,-7.661818,2.59,40.529999,50.259998,1729420410473.0,0.0
-1.868794,-5.020142,-6.305088,-9.31,36.470001,42.349998,1729420410493.0,0.0
-2.045863,-8.348558,-4.244867,-28.91,27.16,21.35,1729420410512.0,0.0
-2.758924,-12.01197,-4.993821,-85.260002,6.44,-14.84,1729420410536.0,0.0
-2.088934,-11.700903,-10.028319,-30.66,-3.85,-30.17,1729420410552.0,0.0
-0.748954,-2.768496,-9.375079,46.619999,-9.52,-31.08,1729420410574.0,0.0
-0.868595,0.509671,-6.73101,16.030001,-17.99,-46.970001,1729420410592.0,0.0
-2.318645,-6.379266,-8.379664,-53.060001,-10.36,-76.370003,1729420410613.0,0.0
-2.117648,-2.871387,-11.174481,-25.48,-26.530001,-72.519997,1729420410636.0,0.0
-1.155733,2.469393,-13.363914,17.92,-26.6,-37.59,1729420410652.0,0.0
-0.193819,3.790231,-12.686745,40.950001,-8.54,4.97,1729420410673.0,0.0
-0.081356,1.119841,-10.080962,23.1,13.86,41.720001,1729420410692.0,0.0
-1.354338,-2.055435,-9.990034,-12.32,32.830002,64.68,1729420410715.0,0.0
-1.543371,-3.749553,-12.641282,-16.799999,31.639999,81.900002,1729420410735.0,0.0
-1.660619,-6.982256,-7.152147,-18.83,28.07,88.410004,1729420410753.0,0.0
-2.242075,-9.915856,-6.958328,-32.619999,44.799999,81.129997,1729420410774.0,0.0
-2.457429,-12.847065,-4.900501,-29.120001,29.610001,53.060001,1729420410792.0,0.0
-1.799403,-12.916457,-5.924629,-55.510002,1.96,8.26,1729420410813.0,0.0
-3.148954,-11.935399,-6.683154,-23.379999,5.25,-19.74,1729420410835.0,0.0
-2.579463,-7.037291,-9.006584,23.1,3.78,-40.810001,1729420410854.0,0.0
-1.818545,-2.974278,-7.834101,39.549999,-32.900002,-47.740002,1729420410872.0,0.0
-2.201397,-2.151148,-8.169096,-34.369999,-48.580002,-78.400002,1729420410892.0,0.0
-2.330609,-5.374279,-11.839686,-66.220001,-42.209999,-97.510002,1729420410914.0,0.0
-2.019542,-4.067799,-10.985448,-29.4,-47.810001,-87.919998,1729420410934.0,0.0
-1.945365,3.249453,-12.007183,20.65,-11.2,-66.57,1729420410953.0,0.0
-0.937986,7.49432,-11.073983,79.800003,19.809999,22.26,1729420410975.0,0.0
0.957129,3.756732,-10.131211,47.25,6.02,62.860001,1729420410993.0,0.0
0.222532,-0.380459,-10.80838,-12.32,37.52,100.169998,1729420411018.0,0.0
-1.366302,-4.685147,-9.899107,-11.55,55.16,110.040001,1729420411043.0,0.0
-3.215954,-8.49452,-6.84108,-21.280001,67.480003,113.82,1729420411053.0,0.0
-1.916651,-11.464014,-6.257231,-31.360001,38.779999,78.540001,1729420411074.0,0.0
-1.292124,-13.746766,-4.603791,-53.830002,11.13,36.400002,1729420411092.0,0.0
-2.785245,-15.617953,-5.364708,-39.900002,14.98,-5.6,1729420411114.0,0.0
-2.792424,-11.282159,-8.980263,2.1,13.16,-57.049999,1729420411133.0,0.0
-1.998007,-2.720639,-7.960921,70.209999,-12.18,-56.279999,1729420411151.0,0.0
-2.103291,0.89013,-7.06122,50.259998,-42.420002,-68.949997,1729420411174.0,0.0
-2.311467,-3.24706,-9.966106,-51.380001,-50.189999,-104.650002,1729420411193.0,0.0
-2.088934,-4.761717,-12.136396,-92.610001,-51.099998,-112.559998,1729420411212.0,0.0
-1.105484,-1.304088,-12.811172,2.38,-48.09,-81.199997,1729420411234.0,0.0
-1.182054,5.268995,-15.08914,67.340004,1.89,-29.049999,1729420411252.0,0.0
-1.320838,6.443871,-9.178867,87.779999,24.57,42.139999,1729420411274.0,0.0
-0.004786,-0.531207,-9.944571,36.119999,38.990002,76.860001,1729420411293.0,0.0
0.260818,-4.149154,-6.831509,9.66,32.34,108.639999,1729420411313.0,0.0
-0.284746,-8.346166,-7.156933,15.12,42.07,110.32,1729420411334.0,0.0
-1.883151,-12.540783,-6.573084,-9.8,48.23,81.620003,1729420411352.0,0.0
-2.400001,-14.213367,-4.800002,-28.630001,26.040001,33.599998,1729420411374.0,0.0
-2.845066,-12.045469,-6.321837,-15.75,1.33,-8.33,1729420411392.0,0.0
-3.4672,-7.702496,-9.176475,22.960001,12.6,-29.049999,1729420411411.0,0.0
-3.388237,-3.625126,-9.107083,36.259998,-8.61,-38.849998,1729420411433.0,0.0
-2.395216,-2.203789,-8.370094,7.98,-40.040001,-60.619999,1729420411452.0,0.0
-1.545763,-3.682554,-9.152546,-29.049999,-58.170002,-83.93,1729420411473.0,0.0
-1.741975,-3.424129,-9.946963,-59.849998,-51.240002,-104.300003,1729420411495.0,0.0
-2.213361,-1.895115,-10.569098,-30.66,-34.369999,-95.830002,1729420411513.0,0.0
-1.816152,1.28016,-11.643474,6.09,-20.719999,-61.389999,1729420411533.0,0.0
-0.562313,4.618148,-12.246466,20.23,-13.09,-18.9,1729420411552.0,0.0
0.882952,4.56072,-9.410972,44.099998,-4.06,45.220001,1729420411571.0,0.0
0.954736,0.66999,-11.657832,19.110001,31.219999,85.540001,1729420411591.0,0.0
-1.158126,-5.556134,-8.190632,8.12,58.799999,120.610001,1729420411612.0,0.0
-1.945365,-8.12124,-6.802795,9.87,58.240002,109.900002,1729420411633.0,0.0
-2.995814,-11.837293,-2.828316,-15.05,40.110001,83.370003,1729420411652.0,0.0
-3.885944,-13.806586,-3.151347,-62.299999,24.780001,42.98,1729420411674.0,0.0
-4.326223,-14.431112,-8.274381,-64.82,0.91,-10.85,1729420411691.0,0.0
-3.079563,-10.090532,-9.549755,6.79,-13.51,-46.130001,1729420411712.0,0.0
-2.380858,-2.486143,-8.530413,58.73,-21.35,-46.900002,1729420411736.0,0.0
-2.270789,-0.715454,-8.382057,29.190001,-39.900002,-66.57,1729420411752.0,0.0
-2.931208,-5.017749,-9.968499,-68.040001,-42.490002,-103.32,1729420411773.0,0.0
-2.079363,-7.599605,-11.085947,-57.330002,-45.990002,-114.940002,1729420411792.0,0.0
-0.72024,-2.330609,-12.507284,4.97,-49.209999,-105.769997,1729420411813.0,0.0
-0.708275,3.601198,-12.117253,52.43,-9.45,-73.290001,1729420411832.0,0.0
0.531207,7.288538,-13.564911,39.549999,7.21,-35.84,1729420411853.0,0.0
1.473979,1.849652,-9.645468,75.809998,22.68,42.91,1729420411871.0,0.0
0.741775,-0.021535,-8.831908,57.119999,58.029999,96.739998,1729420411892.0,0.0
-1.191626,-2.586641,-5.486742,51.450001,73.919998,118.580002,1729420411913.0,0.0
-2.122434,-5.828916,-8.11167,-3.22,68.25,102.760002,1729420411932.0,0.0
-3.507878,-10.863414,-1.234696,-26.32,45.849998,93.029999,1729420411953.0,0.0
-4.311867,-10.892128,-6.037091,-111.790001,9.03,30.24,1729420411976.0,0.0
-4.125226,-12.68196,-9.298509,-41.09,-19.389999,1.89,1729420411992.0,0.0
-3.534199,-9.973285,-9.221939,21.49,-27.719999,-21.700001,1729420412011.0,0.0
-2.596212,-3.15374,-8.738588,32.200001,-37.52,-46.41,1729420412033.0,0.0
-2.514857,-0.600598,-9.293723,1.54,-45.779999,-68.529999,1729420412052.0,0.0
-1.914258,-4.149154,-12.385249,-60.900002,-48.369999,-97.440002,1729420412073.0,0.0
-0.899701,-4.208975,-10.810772,-45.5,-56.560001,-94.989998,1729420412091.0,0.0
-0.887737,-0.193819,-11.913863,28.700001,-14.0,-67.199997,1729420412111.0,0.0
-1.098306,5.728417,-10.782058,42.84,12.88,-28.0,1729420412133.0,0.0
0.574277,4.242475,-11.229517,30.17,14.42,18.83,1729420412152.0,0.0
1.191626,0.543171,-9.616754,12.6,18.76,67.830002,1729420412172.0,0.0
0.234497,-1.098306,-8.827123,15.33,52.57,105.279999,1729420412191.0,0.0
-1.727618,-6.58744,-7.283752,17.08,62.720001,110.739998,1729420412213.0,0.0
-3.536592,-9.934999,-5.462814,-25.620001,53.760002,100.519997,1729420412233.0,0.0
-3.395415,-11.760723,-6.472585,-57.260002,14.98,61.950001,1729420412251.0,0.0
-3.675375,-14.098512,-5.900701,-55.650002,-10.15,22.049999,1729420412274.0,0.0
-4.393222,-10.727024,-8.798409,-18.059999,-6.09,-21.629999,1729420412290.0,0.0
-3.409772,-1.65344,-9.365508,60.970001,-19.74,-43.610001,1729420412312.0,0.0
-2.328217,-0.591027,-8.79123,36.82,-50.400002,-58.029999,1729420412333.0,0.0
-1.648655,-4.85743,-10.439885,-69.93,-58.450001,-95.550003,1729420412351.0,0.0
-0.997807,-6.436693,-9.944571,-58.240002,-55.369999,-104.090004,1729420412371.0,0.0
-0.940379,-2.002793,-11.174481,21.42,-34.509998,-88.340004,1729420412391.0,0.0
-1.485943,3.639483,-11.657832,43.82,-0.49,-62.720001,1729420412412.0,0.0
-0.282353,5.426922,-11.74158,39.34,2.8,-14.21,1729420412433.0,0.0
1.806581,2.656033,-9.79143,16.030001,-4.69,34.580002,1729420412454.0,0.0
0.696311,-2.277967,-11.167303,0.91,32.970001,77.419998,1729420412471.0,0.0
-1.07677,-4.13719,-8.46102,27.09,66.080002,100.519997,1729420412491.0,0.0
-2.017149,-5.618347,-7.659425,24.290001,61.880001,94.989998,1729420412511.0,0.0
-3.972085,-10.284351,-3.792624,-21.559999,52.990002,77.209999,1729420412533.0,0.0
-4.756931,-11.796617,-4.517649,-83.720001,11.34,35.84,1729420412552.0,0.0
-4.907679,-12.780065,-7.223931,-48.09,-8.75,22.049999,1729420412572.0,0.0
-4.508078,-10.896914,-9.202796,2.24,-14.42,-19.879999,1729420412591.0,0.0
-3.254239,-5.709275,-8.975478,32.689999,-30.450001,-39.060001,1729420412610.0,0.0
-2.598605,-1.241875,-9.734003,21.42,-41.16,-66.989998,1729420412632.0,0.0
-1.562513,-4.541577,-11.909079,-52.080002,-52.360001,-104.160004,1729420412651.0,0.0
-0.918844,-3.828516,-11.253445,-23.17,-50.330002,-95.199997,1729420412673.0,0.0
-1.201197,0.303888,-12.181859,45.990002,-2.94,-73.779999,1729420412692.0,0.0
-1.624727,5.673382,-10.537991,51.869999,15.47,-24.99,1729420412712.0,0.0
0.660419,4.85743,-10.937593,31.639999,10.01,20.23,1729420412732.0,0.0
1.217947,0.899701,-9.662218,17.08,16.17,68.599998,1729420412751.0,0.0
-0.236889,-1.124627,-7.520642,8.68,53.34,98.139999,1729420412772.0,0.0
-2.323431,-6.929615,-8.690732,-6.37,69.790001,100.309998,1729420412790.0,0.0
-3.201597,-9.288938,-6.087341,-27.370001,51.170002,97.580002,1729420412813.0,0.0
-3.002992,-9.430114,-5.627919,-48.23,17.99,72.660004,1729420412832.0,0.0
-5.000999,-12.894921,-5.60399,-67.269997,6.93,29.82,1729420412851.0,0.0
-5.900701,-16.022341,-8.267202,-44.380001,0.42,-28.280001,1729420412872.0,0.0
-3.728018,-8.288737,-8.803195,24.219999,-30.24,-56.630001,1729420412890.0,0.0
-3.275774,-0.985843,-8.84148,75.879997,-31.01,-67.059998,1729420412912.0,0.0
-3.433701,-1.167697,-10.250853,-8.47,-41.439999,-102.269997,1729420412933.0,0.0
-2.459821,-4.630112,-12.394822,-83.440002,-54.529999,-124.040001,1729420412950.0,0.0
-1.17009,-2.876173,-11.899508,-26.32,-60.27,-105.980003,1729420412975.0,0.0
-1.533799,3.859623,-12.244074,60.27,11.06,-65.660004,1729420412991.0,0.0
0.145962,7.398607,-12.370893,54.110001,3.64,-17.15,1729420413011.0,0.0
2.065006,2.866602,-9.765109,46.900002,-3.29,41.580002,1729420413032.0,0.0
1.22034,-0.612563,-9.923036,17.219999,41.860001,84.0,1729420413058.0,0.0
-0.614955,-3.991228,-7.003791,22.889999,69.019997,106.68,1729420413072.0,0.0
-2.469393,-6.331409,-7.357929,-9.03,73.150002,101.919998,1729420413093.0,0.0
-3.436093,-11.181661,-3.421736,-23.799999,41.860001,86.660004,1729420413112.0,0.0
-4.029513,-11.174481,-5.24746,-80.849998,16.66,49.560001,1729420413131.0,0.0
-5.173282,-12.081362,-7.683353,-46.970001,3.36,23.52,1729420413151.0,0.0
-4.496114,-12.15554,-9.671788,-0.56,-9.1,-8.4,1729420413174.0,0.0
-2.878566,-5.869594,-8.796017,25.620001,-33.25,-39.549999,1729420413193.0,0.0
-2.545963,-0.997807,-8.793623,38.920002,-37.66,-58.310001,1729420413212.0,0.0
-2.761317,-2.701497,-10.715059,-28.210001,-41.720001,-98.279999,1729420413234.0,0.0
-1.90708,-6.766902,-10.540384,-55.860001,-47.740002,-110.18,1729420413252.0,0.0
-0.902094,-0.246461,-11.942577,35.420002,-36.540001,-87.989998,1729420413274.0,0.0
-0.952343,5.067998,-10.052249,46.41,4.48,-55.16,1729420413294.0,0.0
0.476172,4.56072,-11.937792,40.389999,10.85,-7.14,1729420413311.0,0.0
0.961915,1.792224,-9.779467,22.68,18.129999,45.5,1729420413334.0,0.0
-0.208176,-0.272782,-9.597611,19.18,50.959999,86.800003,1729420413353.0,0.0
-1.294517,-3.189633,-6.446264,31.219999,56.07,102.199997,1729420413373.0,0.0
-3.249453,-5.587241,-6.506085,-20.16,63.84,101.919998,1729420413391.0,0.0
-5.235496,-8.752945,-2.055435,-37.73,33.18,90.860001,1729420413412.0,0.0
-6.486942,-9.915856,-6.850651,-143.570007,21.629999,68.389999,1729420413434.0,0.0
-5.414958,-15.38585,-10.356135,-75.040001,-26.32,27.93,1729420413452.0,0.0
-2.677568,-11.387443,-10.353743,-11.34,-45.220001,-1.47,1729420413474.0,0.0
-1.641476,-5.000999,-8.920443,60.689999,-35.349998,-25.620001,1729420413492.0,0.0
-2.206182,-2.194218,-9.10469,27.23,-20.51,-62.439999,1729420413511.0,0.0
-1.928615,-4.354938,-10.569098,-58.799999,-41.439999,-101.989998,1729420413536.0,0.0
-0.378066,-6.269196,-11.63869,-49.560001,-53.48,-106.68,1729420413552.0,0.0
-0.179462,-3.852444,-10.693524,2.66,-33.670002,-111.650002,1729420413571.0,0.0
-1.225125,1.663012,-10.671989,35.420002,12.67,-96.389999,1729420413592.0,0.0
0.045464,7.441679,-11.062018,35.77,1.4,-17.08,1729420413611.0,0.0
1.849652,2.720639,-10.810772,15.47,5.32,37.939999,1729420413633.0,0.0
-0.090927,-1.09352,-7.329216,30.66,52.220001,98.980003,1729420413652.0,0.0
-2.682354,-3.828516,-9.29133,30.66,78.959999,98.910004,1729420413673.0,0.0
-4.31426,-7.972885,-6.78126,-25.969999,58.380001,102.830002,1729420413691.0,0.0
-4.706682,-10.497313,-4.206582,-61.25,13.09,72.800003,1729420413712.0,0.0
-6.539584,-12.533605,-4.826324,-85.68,13.02,55.02,1729420413734.0,0.0
-5.410172,-14.670395,-9.573684,-35.279999,-6.23,0.84,1729420413751.0,0.0
-2.495714,-8.441878,-9.200402,20.93,-36.959999,-26.18,1729420413777.0,0.0
-1.65344,-2.667997,-8.860621,78.75,-33.740002,-39.830002,1729420413791.0,0.0
-2.514857,-1.088734,-9.126225,1.96,-35.84,-88.900002,1729420413811.0,0.0
-2.344966,-5.065606,-12.016755,-68.599998,-37.380001,-122.010002,1729420413834.0,0.0
-1.107877,-4.041477,-12.239288,-19.67,-54.32,-117.18,1729420413903.0,0.0
-0.935594,2.959922,-12.392428,35.279999,-9.17,-90.370003,1729420413904.0,0.0
-0.756132,7.32443,-11.078769,59.290001,7.98,-35.700001,1729420413906.0,0.0
0.76331,5.448457,-9.741181,55.860001,12.53,30.59,1729420413934.0,0.0
-0.447458,-0.638884,-10.040283,9.31,37.099998,76.790001,1729420413935.0,0.0
-1.488336,-3.919443,-8.441878,22.120001,59.43,116.900002,1729420413951.0,0.0
-2.737389,-6.30748,-8.977871,4.2,65.029999,112.980003,1729420413975.0,0.0
-4.04387,-10.08814,-4.924429,-19.040001,46.130001,103.040001,1729420413991.0,0.0
-5.522634,-12.528819,-1.828116,-62.369999,22.33,64.050003,1729420414013.0,0.0
-5.838487,-15.172889,-8.281559,-67.269997,3.71,-0.35,1729420414032.0,0.0
-3.273381,-11.485549,-10.650455,-6.58,-28.35,-39.549999,1729420414051.0,0.0
-2.26361,-2.924029,-9.174082,65.379997,-30.52,-44.52,1729420414072.0,0.0
-2.510071,-1.213161,-9.576077,51.099998,-19.110001,-74.900002,1729420414091.0,0.0
-2.39043,-3.615555,-10.131211,-49.98,-38.849998,-110.040001,1729420414112.0,0.0
-1.246661,-6.034698,-9.425328,-40.18,-51.099998,-113.889999,1729420414133.0,0.0
-1.086342,-2.065006,-11.430513,20.09,-26.389999,-102.620003,1729420414151.0,0.0
-1.887937,3.574877,-9.877571,42.490002,6.23,-72.590004,1729420414171.0,0.0
-0.696311,6.644868,-12.009576,32.41,1.82,-28.84,1729420414191.0,0.0
1.380659,3.421736,-10.861022,24.5,-3.57,29.469999,1729420414212.0,0.0
0.882952,-0.454636,-11.361122,27.299999,29.120001,83.370003,1729420414232.0,0.0
-0.31346,-2.067399,-7.269395,61.740002,62.299999,114.940002,1729420414251.0,0.0
-3.292524,-7.63789,-5.970093,14.91,70.769997,106.330002,1729420414271.0,0.0
-5.12782,-12.839886,-1.158126,-38.080002,30.66,69.370003,1729420414291.0,0.0
-4.931608,-10.545169,-6.862615,-122.010002,10.22,24.92,1729420414313.0,0.0
-3.716053,-10.750952,-10.655239,-41.860001,-30.309999,1.89,1729420414332.0,0.0
-3.498307,-9.195618,-8.30788,14.56,-31.639999,-26.110001,1729420414351.0,0.0
-3.254239,-5.089533,-9.803394,22.68,-24.290001,-64.610001,1729420414372.0,0.0
-3.005385,-2.234896,-9.643075,-4.41,-40.459999,-99.190002,1729420414391.0,0.0
-1.65344,-4.409972,-11.152946,-48.299999,-54.040001,-123.480003,1729420414412.0,0.0
-0.648455,-3.414558,-11.617154,-34.299999,-54.599998,-125.090004,1729420414432.0,0.0
-1.117448,0.351745,-11.265409,31.360001,-9.8,-89.949997,1729420414453.0,0.0
-0.708275,6.273981,-12.617353,36.610001,5.53,-51.450001,1729420414472.0,0.0
0.521635,4.106083,-10.358529,63.560001,6.23,23.52,1729420414492.0,0.0
1.514657,1.76351,-10.186246,29.190001,24.219999,69.230003,1729420414512.0,0.0
0.102891,-0.421137,-7.771888,31.780001,52.009998,109.340004,1729420414533.0,0.0
-1.998007,-4.189832,-8.070991,0.84,65.940002,105.980003,1729420414552.0,0.0
-4.208975,-8.061419,-6.113662,-45.709999,67.269997,101.360001,1729420414579.0,0.0
-4.237689,-9.705289,-4.929214,-79.239998,22.190001,73.220001,1729420414676.0,0.0
-4.208975,-13.57209,-9.614362,-103.529999,3.92,57.889999,1729420414677.0,0.0
-3.311667,-13.349558,-9.341579,-25.129999,-18.690001,-12.95,1729420414677.0,0.0
-3.038885,-7.372287,-7.886744,63.91,-17.360001,-33.040001,1729420414677.0,0.0
-3.469593,-1.40698,-9.738789,44.170002,-5.32,-68.389999,1729420414678.0,0.0
-3.127419,-3.85723,-10.593026,-28.07,-29.960001,-99.260002,1729420414690.0,0.0
-1.311267,-5.898308,-11.507084,-40.529999,-48.16,-105.629997,1729420414723.0,0.0
-0.272782,-4.56072,-11.456835,13.440001,-36.400002,-105.629997,1729420414733.0,0.0
-1.138984,0.519243,-10.372886,56.98,10.36,-92.68,1729420414750.0,0.0
-1.31366,5.024928,-10.229317,55.02,11.41,-66.639999,1729420414771.0,0.0
0.672383,6.419943,-11.839686,49.349998,3.36,-3.43,1729420414790.0,0.0
1.87358,2.098505,-11.327622,48.09,17.639999,61.880001,1729420414810.0,0.0
0.346959,-0.674776,-10.351351,81.199997,61.950001,116.620003,1729420414832.0,0.0
-2.376073,-4.048656,-2.892922,67.620003,79.519997,124.739998,1729420414850.0,0.0
-4.197011,-9.844072,-5.161318,-27.93,73.360001,91.279999,1729420414870.0,0.0
-5.388636,-11.361122,-2.842674,-72.239998,32.41,70.629997,1729420414890.0,0.0
-4.776074,-7.271788,-8.506484,-72.029999,3.85,44.799999,1729420414911.0,0.0
-4.321437,-8.135597,-11.889936,-39.48,-5.67,40.389999,1729420414931.0,0.0
-2.811567,-8.41795,-8.676375,-16.450001,-32.34,-17.57,1729420414950.0,0.0
-1.768296,-4.943572,-9.131011,23.450001,-40.110001,-52.57,1729420414973.0,0.0
-1.603191,-2.141576,-9.911072,-4.41,-44.869999,-88.269997,1729420414989.0,0.0
-1.414158,-5.032106,-9.741181,-47.880001,-47.599998,-110.110001,1729420415010.0,0.0
-1.062413,-5.04407,-12.677175,-35.700001,-35.420002,-115.010002,1729420415032.0,0.0
-1.091127,0.68674,-10.660025,19.460001,-9.17,-91.489998,1729420415049.0,0.0
-0.114855,5.465207,-11.693724,36.119999,1.68,-52.290001,1729420415071.0,0.0
1.40698,3.438486,-10.217353,31.43,-1.68,5.18,1729420415090.0,0.0
1.629512,0.478565,-9.949356,7.63,17.57,49.0,1729420415110.0,0.0
0.251246,-1.457229,-7.319644,20.93,50.610001,83.440002,1729420415131.0,0.0
-2.067399,-3.739982,-8.283953,-9.45,70.699997,91.349998,1729420415150.0,0.0
-4.26401,-8.798409,-5.929415,-44.450001,59.920002,81.760002,1729420415170.0,0.0
-4.814359,-11.296515,-6.125626,-102.410004,11.69,52.220001,1729420415190.0,0.0
-4.409972,-12.562319,-7.176075,-58.450001,-18.41,24.290001,1729420415210.0,0.0
-3.65384,-11.002198,-9.174082,-20.23,-22.26,-21.280001,1729420415233.0,0.0
-2.897708,-7.034898,-9.028119,12.74,-28.98,-49.279999,1729420415250.0,0.0
-3.507878,-3.342773,-10.896914,-1.96,-24.08,-78.889999,1729420415270.0,0.0
-1.962115,-5.046463,-11.521441,-35.139999,-42.84,-109.340004,1729420415289.0,0.0
-0.648455,-3.771089,-10.080962,-3.71,-44.939999,-104.230003,1729420415310.0,0.0
-0.882952,-0.894916,-12.423534,30.17,-4.97,-95.900002,1729420415332.0,0.0
-1.284946,4.651647,-11.4353,36.470001,17.15,-58.310001,1729420415349.0,0.0
0.287139,5.276174,-10.581062,49.630001,14.28,-17.780001,1729420415370.0,0.0
1.808974,3.404987,-9.994821,43.540001,17.710001,36.610001,1729420415390.0,0.0
1.536192,1.079163,-9.530612,62.860001,41.23,85.540001,1729420415409.0,0.0
-0.473779,-2.127219,-5.28096,56.490002,67.269997,111.93,1729420415432.0,0.0
-3.012564,-6.589834,-6.879365,-9.94,78.050003,98.840004,1729420415450.0,0.0
-4.98425,-9.609575,-1.931008,-22.610001,44.310001,93.590004,1729420415470.0,0.0
-4.819145,-7.630712,-6.52762,-90.650002,13.51,61.880001,1729420415490.0,0.0
-4.347759,-10.205389,-10.954341,-58.099998,-14.84,55.860001,1729420415511.0,0.0
-3.582055,-13.837693,-8.248059,-10.92,-35.139999,10.99,1729420415532.0,0.0
-2.605784,-8.556733,-8.647661,2.8,-36.330002,-37.59,1729420415550.0,0.0
-2.835495,-2.976671,-10.554741,39.689999,-25.549999,-78.120003,1729420415572.0,0.0
-2.545963,-2.330609,-10.765309,-23.73,-40.18,-117.040001,1729420415590.0,0.0
-0.569492,-6.032306,-10.990234,-62.720001,-59.639999,-131.529999,1729420415610.0,0.0
-0.150748,0.428315,-12.495319,12.81,-21.700001,-112.840004,1729420415634.0,0.0
0.306281,7.020542,-12.957134,64.330002,4.55,-57.540001,1729420415663.0,0.0
1.832902,6.987042,-10.928021,69.230003,1.75,18.34,1729420415671.0,0.0
2.218147,1.524228,-10.143176,52.290001,26.530001,72.239998,1729420415692.0,0.0
0.215354,-0.808774,-6.616155,40.740002,59.220001,113.959999,1729420415710.0,0.0
-3.141776,-5.146961,-6.829116,-13.72,78.120003,109.480003,1729420415733.0,0.0
-5.402994,-10.231709,-7.508677,-61.810001,74.480003,84.279999,1729420415751.0,0.0
-5.082355,-11.887544,-7.13779,-96.459999,16.73,63.209999,1729420415770.0,0.0
-4.096512,-13.825729,-6.910471,-32.759998,-11.76,38.080002,1729420415791.0,0.0
-2.991028,-10.34178,-9.238688,-7.35,-10.99,-15.75,1729420415811.0,0.0
-2.45025,-6.381658,-8.659625,23.73,-17.01,-44.939999,1729420415833.0,0.0
-2.447858,-5.228317,-9.394222,19.530001,-18.969999,-82.32,1729420415851.0,0.0
-1.330409,-4.127619,-11.267801,-15.4,-43.82,-108.080002,1729420415871.0,0.0
-0.26321,-4.113262,-9.166903,-19.18,-62.860001,-111.93,1729420415890.0,0.0
0.282353,-2.502892,-13.146168,5.88,-24.5,-103.529999,1729420415911.0,0.0
0.550349,4.063013,-13.380664,71.330002,6.65,-60.130001,1729420415933.0,0.0
1.256232,7.456036,-10.461421,123.760002,20.299999,-11.97,1729420415949.0,0.0
0.5001,1.713261,-8.032705,31.360001,49.279999,53.200001,1729420415972.0,0.0
-1.526621,-4.888536,-1.237089,36.889999,54.32,102.550003,1729420415990.0,0.0
-3.67059,-4.630112,-6.372087,-24.639999,69.720001,88.059998,1729420416010.0,0.0
-6.333801,-7.173682,-10.872985,-104.300003,62.16,85.540001,1729420416030.0,0.0
-5.635098,-10.004392,-8.147561,-77.419998,-0.63,83.580002,1729420416050.0,0.0
-4.352544,-5.264209,-12.193825,-58.869999,-8.47,66.010002,1729420416070.0,0.0
-4.307081,-8.109276,-11.002198,-13.23,1.4,47.459999,1729420416090.0,0.0
-2.18704,-8.061419,-9.408579,45.990002,-11.41,19.18,1729420416111.0,0.0
-0.078963,-2.455036,-7.879565,73.43,-29.540001,25.549999,1729420416130.0,0.0
0.035892,-4.118048,-8.877372,91.559998,-12.32,20.65,1729420416149.0,0.0
-1.20359,-4.862216,-7.903493,94.989998,37.310001,26.040001,1729420416177.0,0.0
-1.741975,-6.762117,-10.061819,116.550003,42.84,30.380001,1729420416191.0,0.0
-1.091127,-9.430114,-6.458229,217.210007,22.4,58.029999,1729420416210.0,0.0
-0.11007,-9.320045,-6.632904,304.429993,11.76,80.709999,1729420416231.0,0.0
0.210568,-11.487941,-7.255038,383.73999,11.48,77.419998,1729420416251.0,0.0
0.9667,-15.522241,-9.341579,475.089996,12.46,70.559998,1729420416271.0,0.0
2.517249,-13.763516,-10.973484,662.27002,-4.2,67.340004,1729420416292.0,0.0
3.426522,-9.286544,-7.848458,786.869995,-1.75,73.43,1729420416311.0,0.0
1.639083,-7.817351,-3.574877,844.549988,25.059999,74.900002,1729420416332.0,0.0
0.430708,-6.470192,0.102891,822.98999,63.420002,33.529999,1729420416351.0,0.0
-1.37348,-3.84048,1.06002,753.059998,106.050003,35.560001,1729420416371.0,0.0
-3.598805,0.210568,4.869394,602.280029,102.620003,33.950001,1729420416390.0,0.0
-6.24766,0.614955,9.162118,396.200012,83.510002,2.94,1729420416554.0,0.0
-8.614161,-2.569891,9.724431,180.110001,85.470001,-35.07,1729420416579.0,0.0
-8.30788,-1.091127,5.417351,49.560001,68.879997,-51.029999,1729420416579.0,0.0
-8.099705,-7.652246,3.883551,21.07,35.209999,-70.489998,1729420416579.0,0.0
-7.429714,-6.503692,4.431508,79.239998,37.799999,-51.799999,1729420416580.0,0.0
-7.338787,0.361316,7.63789,150.570007,22.610001,-33.599998,1729420416580.0,0.0
-7.489535,4.158726,9.152546,95.620003,33.950001,-25.059999,1729420416580.0,0.0
-4.34058,3.842873,4.989035,0.91,11.48,-7.77,1729420416580.0,0.0
-1.495514,-0.746561,2.89053,-83.300003,-74.970001,1.19,1729420416581.0,0.0
-1.339981,-2.694318,5.900701,-54.25,-35.209999,3.78,1729420416602.0,0.0
-2.801995,0.76331,7.482357,7.84,33.459999,36.470001,1729420416611.0,0.0
-4.175476,0.818345,8.080563,-1.47,50.75,56.209999,1729420416636.0,0.0
-5.955735,-8.006385,9.95175,-47.950001,25.9,53.760002,1729420416654.0,0.0
-8.640482,-15.129817,12.014362,-19.110001,19.6,29.610001,1729420416672.0,0.0
-12.248858,-10.040283,13.11506,76.860001,-18.549999,7.84,1729420416692.0,0.0
-1.988436,-3.163311,10.222138,49.560001,-97.160004,-42.07,1729420416711.0,0.0
-3.165704,-3.419343,8.018349,-1.61,-27.719999,-59.150002,1729420416733.0,0.0
-3.168097,1.505085,9.135797,24.08,2.52,-53.619999,1729420416751.0,0.0
-4.737789,2.416751,8.819944,-20.09,-8.47,-49.07,1729420416772.0,0.0
-3.696911,2.452643,5.704489,-51.310001,-0.07,-46.48,1729420416791.0,0.0
-1.806581,4.615755,5.393422,-29.26,-36.82,-10.71,1729420416811.0,0.0
-2.342573,1.28016,7.513463,-40.389999,-18.9,10.99,1729420416836.0,0.0
-4.187439,-3.117848,5.257031,-54.110001,33.670002,11.2,1729420416851.0,0.0
-4.606184,-1.246661,4.886144,-9.45,32.060001,36.119999,1729420416871.0,0.0
-2.376073,1.457229,6.419943,4.9,-14.98,66.639999,1729420416895.0,0.0
-5.158926,-10.370493,9.779467,-49.420002,5.74,61.110001,1729420416911.0,0.0
-20.317457,-18.680767,10.176675,-4.97,-24.219999,8.75,1729420416933.0,0.0
4.168297,-8.496914,15.847664,148.050003,-208.25,43.470001,1729420416951.0,0.0
1.476372,-2.067399,11.416157,19.32,30.24,-58.939999,1729420416974.0,0.0
-5.632704,-4.85743,9.695717,-53.200001,132.369995,-53.619999,1729420416990.0,0.0
-7.594819,-3.921836,6.924829,-32.619999,113.470001,-62.299999,1729420417011.0,0.0
-5.802595,-0.004786,8.394022,44.310001,3.71,-44.029999,1729420417032.0,0.0
-3.412165,1.09352,7.62114,38.849998,-41.860001,-42.560001,1729420417050.0,0.0
-2.086541,4.409972,6.776474,3.01,-16.1,-35.0,1729420417071.0,0.0
-2.179861,2.481357,6.805188,-33.880001,-8.47,-6.16,1729420417091.0,0.0
-1.880759,-0.51685,7.666604,-24.360001,-1.12,0.14,1729420417110.0,0.0
-2.964707,-0.758525,5.936593,-25.549999,20.23,20.370001,1729420417133.0,0.0
-3.201597,0.323031,4.673182,-19.040001,25.969999,42.0,1729420417150.0,0.0
-2.287539,1.227518,3.615555,-35.0,2.87,61.880001,1729420417171.0,0.0
-3.828516,-5.479564,6.486942,-53.830002,14.21,56.700001,1729420417191.0,0.0
-24.165115,-19.312471,11.966506,0.07,44.170002,5.53,1729420417210.0,0.0
-4.132405,-6.989435,12.863814,115.989998,-4.83,29.120001,1729420417232.0,0.0
2.354537,4.295116,9.75793,31.219999,-97.160004,-66.43,1729420417250.0,0.0
-2.574677,-1.794617,9.707682,-64.75,25.620001,-38.779999,1729420417271.0,0.0
-5.943772,-6.151947,6.482157,-62.23,108.220001,-67.760002,1729420417291.0,0.0
-7.915457,-2.641676,8.772088,67.129997,60.060001,-30.66,1729420417311.0,0.0
-5.422136,1.844866,7.479963,54.950001,-14.07,-35.420002,1729420417332.0,0.0
-1.942972,2.416751,7.759924,-12.04,-65.870003,-37.59,1729420417350.0,0.0
0.301496,1.182054,6.74776,-55.790001,-59.57,-20.65,1729420417372.0,0.0
-0.088534,-0.102891,6.750153,-42.07,-18.129999,-1.75,1729420417391.0,0.0
-2.35693,-2.045863,4.055835,-48.16,43.75,15.4,1729420417413.0,0.0
-3.723232,-2.081756,2.402394,-26.389999,62.720001,31.99,1729420417432.0,0.0
-3.024528,0.851845,3.35713,-3.08,24.710001,57.119999,1729420417451.0,0.0
-4.646862,-5.486742,8.815158,-24.780001,19.110001,49.209999,1729420417472.0,0.0
-9.420543,-17.441284,13.976478,16.1,52.150002,10.15,1729420417492.0,0.0
-15.414563,-10.356135,13.103097,84.489998,51.170002,30.24,1729420417514.0,0.0
-2.206182,2.538785,11.581261,105.0,-118.650002,-15.75,1729420417533.0,0.0
-0.4666,0.112463,10.894521,-30.73,-79.239998,-19.110001,1729420417552.0,0.0
-4.130012,-8.221739,6.453443,-69.860001,59.849998,-52.57,1729420417571.0,0.0
-6.833901,-2.632105,8.740981,71.260002,54.670002,-28.42,1729420417592.0,0.0
-5.47717,2.344966,6.642475,56.84,4.62,-32.689999,1729420417611.0,0.0
-2.019542,3.065206,6.608976,-8.54,-64.050003,-27.719999,1729420417636.0,0.0
0.344566,1.521835,6.300302,-44.450001,-68.25,-10.57,1729420417654.0,0.0
-0.303888,-2.122434,5.601598,-38.57,-10.85,-4.55,1729420417672.0,0.0
-3.005385,-3.759124,2.971886,-25.549999,65.730003,5.88,1729420417692.0,0.0
-4.553542,-1.59362,3.278167,12.88,70.209999,20.370001,1729420417711.0,0.0
-3.627519,2.206182,4.486543,16.52,26.950001,40.459999,1729420417732.0,0.0
-4.87418,-3.632305,9.473185,-7.07,17.99,41.02,1729420417752.0,0.0
-9.705289,-15.299707,15.058033,15.47,65.940002,11.13,1729420417771.0,0.0
-14.952748,-10.987842,10.853845,50.75,87.639999,14.7,1729420417793.0,0.0
-5.237889,1.830509,9.585647,88.970001,-76.93,0.77,1729420417811.0,0.0
-1.849652,-0.416351,11.562119,-17.639999,-114.800003,-20.440001,1729420417833.0,0.0
-2.981457,-8.128418,7.9346,-105.139999,-24.99,-42.279999,1729420417851.0,0.0
-4.855037,-6.123233,7.664211,13.16,39.900002,-43.470001,1729420417872.0,0.0
-4.395615,2.572284,8.408379,80.849998,-0.49,-26.530001,1729420417892.0,0.0
-2.239682,2.65364,6.78126,-30.73,-51.310001,-29.610001,1729420417912.0,0.0
-0.155533,1.17009,5.079963,-54.880001,-53.41,-12.95,1729420417933.0,0.0
-0.51685,-1.177269,5.199604,-31.57,-17.290001,-1.05,1729420417952.0,0.0
-2.584249,-1.06002,3.534199,-22.049999,49.420002,10.29,1729420417975.0,0.0
-3.424129,-0.638884,3.309274,-7.56,59.080002,19.6,1729420417991.0,0.0
-3.457629,-0.744168,6.707082,-5.32,24.92,42.0,1729420418012.0,0.0
-5.644669,-5.687739,11.346765,-1.33,26.530001,50.68,1729420418035.0,0.0
-9.846465,-13.344771,13.75873,24.57,71.470001,29.68,1729420418051.0,0.0
-12.720245,-11.23191,9.267403,38.009998,72.449997,14.42,1729420418071.0,0.0
-6.874579,-2.311467,9.300901,74.830002,-43.75,5.67,1729420418093.0,0.0
-1.588834,-1.665405,10.406385,-4.41,-109.550003,-16.1,1729420418111.0,0.0
-2.378466,-6.575477,8.523234,-96.110001,-31.710001,-29.889999,1729420418132.0,0.0
-5.048856,-4.321437,8.176274,-12.74,56.349998,-43.400002,1729420418153.0,0.0
-5.814559,2.529213,8.250452,34.790001,35.560001,-33.740002,1729420418171.0,0.0
-3.826123,3.354738,7.130611,-14.35,-29.049999,-19.18,1729420418191.0,0.0
-0.942772,2.132005,5.47717,-39.900002,-64.889999,-4.55,1729420418219.0,0.0
-1.56012,-3.60359,5.752346,-30.17,-39.34,4.76,1729420418232.0,0.0
-3.37388,-3.328416,4.438686,-17.57,58.59,6.16,1729420418254.0,0.0
-3.711268,-0.375673,5.158926,9.31,36.959999,18.969999,1729420418273.0,0.0
-3.4672,-0.009571,7.042077,7.63,3.99,37.869999,1729420418291.0,0.0
-5.316852,-6.046663,10.406385,-1.68,16.379999,44.869999,1729420418314.0,0.0
-9.111869,-14.029119,11.179268,24.43,59.849998,25.129999,1729420418336.0,0.0
-13.672589,-12.344571,10.741381,74.620003,57.400002,-1.4,1729420418353.0,0.0
-7.573284,-1.301696,11.487941,99.470001,-52.080002,5.46,1729420418372.0,0.0
-4.055835,-2.438286,13.517055,8.19,-73.150002,-41.299999,1729420418394.0,0.0
-4.275974,-7.932207,7.68096,-102.970001,-27.58,-48.509998,1729420418414.0,0.0
-4.208975,-3.646662,5.855237,-11.76,-3.5,-54.18,1729420418436.0,0.0
-3.215954,3.986443,5.123034,35.91,-17.85,-42.209999,1729420418456.0,0.0
-1.89033,6.04427,5.142176,-5.88,-33.459999,-28.559999,1729420418472.0,0.0
-0.18664,4.378866,3.991228,-50.889999,-39.130001,-5.32,1729420418492.0,0.0
-0.777667,-3.254239,3.65384,-56.560001,-17.99,4.76,1729420418513.0,0.0
-1.895115,-0.081356,3.452843,-5.53,61.740002,30.1,1729420418536.0,0.0
-3.237489,-0.775275,7.652246,12.04,45.990002,52.220001,1729420418552.0,0.0
-5.953342,-6.632904,11.976077,-11.41,49.07,53.34,1729420418573.0,0.0
-10.796415,-14.467006,14.694324,18.76,75.949997,43.959999,1729420418594.0,0.0
-18.326628,-8.709875,10.241282,38.5,-35.91,36.049999,1729420418614.0,0.0
3.818945,-0.803988,10.904092,63.91,-266.140015,34.16,1729420418634.0,0.0
1.758725,-1.574477,11.291731,-39.549999,-25.620001,-15.89,1729420418652.0,0.0
-4.800002,-6.013163,8.015956,-103.599998,126.910004,-15.96,1729420418675.0,0.0
-8.549555,-5.788238,6.293124,-49.490002,135.729996,-25.34,1729420418694.0,0.0
-7.838887,0.244068,7.13779,30.030001,-9.24,8.82,1729420418715.0,0.0
-2.988636,2.366502,7.144968,24.710001,-98.139999,-3.15,1729420418736.0,0.0
0.004786,2.792424,5.656632,-16.59,-90.860001,7.49,1729420418754.0,0.0
-0.236889,-1.59362,5.941379,-39.830002,-44.380001,14.28,1729420418776.0,0.0
-2.615355,-4.412365,4.993821,-42.98,34.439999,18.9,1729420418796.0,0.0
-4.462614,-0.227318,6.022735,-13.16,68.529999,29.120001,1729420418815.0,0.0
-3.259024,1.811367,6.417551,-30.030001,-10.92,67.830002,1729420418904.0,0.0
-4.189832,-5.687739,9.726824,-66.849998,-7.28,59.360001,1729420418914.0,0.0
-24.217756,-17.955742,8.391629,-74.830002,14.7,-0.98,1729420418914.0,0.0
4.316652,-13.610376,13.323236,57.119999,-197.259995,15.96,1729420418914.0,0.0
0.100499,-3.321238,8.99462,49.279999,37.240002,3.78,1729420418915.0,0.0
-6.166305,0.811167,8.872586,40.389999,175.350006,-4.48,1729420418938.0,0.0
-9.497113,-2.24686,9.001799,-17.99,110.949997,-25.129999,1729420418953.0,0.0
-7.556533,-6.211767,5.091926,-41.439999,11.48,-43.400002,1729420418976.0,0.0
-3.730411,-3.215954,5.850451,30.309999,-83.230003,-37.52,1729420418994.0,0.0
-0.277567,2.115255,8.25763,72.730003,-98.699997,-26.950001,1729420419013.0,0.0
0.961915,5.690133,7.025328,21.91,-59.290001,-14.35,1729420419035.0,0.0
-0.531207,1.629512,5.836094,-42.420002,3.85,-1.61,1729420419054.0,0.0
-3.172883,-4.493721,2.605784,-86.660004,73.080002,2.1,1729420419074.0,0.0
-4.204189,-4.697111,3.053242,-20.51,81.550003,3.36,1729420419093.0,0.0
-5.508278,-2.557927,7.987241,52.150002,20.299999,54.880001,1729420419114.0,0.0
-6.38405,-7.532606,11.763116,19.18,14.07,24.5,1729420419135.0,0.0
3.672983,-10.79163,16.570297,29.33,-92.190002,-29.68,1729420419153.0,0.0
3.201597,-2.103291,10.102496,41.09,-63.700001,30.380001,1729420419175.0,0.0
-3.448057,-1.524228,9.018548,20.299999,142.800003,-33.459999,1729420419193.0,0.0
-8.752945,-3.749553,7.393822,-34.439999,156.100006,-17.780001,1729420419213.0,0.0
-8.738588,-7.491928,5.788238,-22.68,42.279999,-51.029999,1729420419234.0,0.0
-4.156333,-2.825923,5.187639,39.41,-70.0,-48.580002,1729420419253.0,0.0
-1.304088,2.435893,8.614161,95.199997,-111.230003,-32.549999,1729420419274.0,0.0
0.265603,6.398407,9.272188,53.689999,-61.32,-26.389999,1729420419293.0,0.0
-0.902094,3.177669,7.135397,-46.200001,1.12,-2.8,1729420419313.0,0.0
-2.754139,-3.23031,2.919244,-106.330002,47.040001,-6.93,1729420419334.0,0.0
-3.809374,-5.072784,2.672783,-39.130001,54.740002,-1.68,1729420419353.0,0.0
-3.316452,-1.103091,5.407779,40.529999,17.85,27.370001,1729420419373.0,0.0
-3.29731,0.287139,7.542177,24.5,0.84,38.220001,1729420419394.0,0.0
-5.979663,-7.735995,10.973484,-4.55,40.529999,16.940001,1729420419414.0,0.0
-11.246266,-11.74158,11.765509,17.780001,98.279999,19.389999,1729420419433.0,0.0
-9.19801,-6.07777,11.75833,70.139999,16.66,4.76,1729420419454.0,0.0
-3.668197,-0.976272,11.291731,52.709999,-80.360001,-13.37,1729420419474.0,0.0
-3.376273,-4.85743,11.234302,-39.549999,-81.340004,-5.11,1729420419494.0,0.0
-6.147161,-7.13779,6.690332,-51.59,60.760002,-43.400002,1729420419513.0,0.0
-6.056234,-2.732604,6.537192,12.95,5.67,-27.370001,1729420419537.0,0.0
-2.87378,1.217947,6.723832,38.709999,-79.519997,-18.059999,1729420419552.0,0.0
0.162712,3.507878,5.814559,16.309999,-77.279999,-15.75,1729420419575.0,0.0
-0.100499,3.132205,5.4341,-18.690001,-23.030001,-1.26,1729420419593.0,0.0
-2.311467,-1.050449,4.409972,-57.260002,36.889999,-0.84,1729420419613.0,0.0
-3.818945,-3.302095,3.151347,-47.389999,69.370003,2.59,1729420419634.0,0.0
-3.309274,-0.62692,4.048656,-9.38,44.380001,18.549999,1729420419653.0,0.0
-3.235096,-0.42353,5.651847,-20.51,16.309999,37.029999,1729420419673.0,0.0
-7.015756,-12.002398,13.404593,-17.290001,41.580002,19.67,1729420419694.0,0.0
-19.231115,-14.916857,15.316458,53.970001,118.160004,2.45,1729420419715.0,0.0
-7.211967,-3.491128,13.227524,88.830002,-40.740002,15.05,1729420419733.0,0.0
-1.543371,0.5001,10.990234,7.21,-94.43,-5.53,1729420419753.0,0.0
-2.038685,-4.359723,8.580662,-88.410004,-45.709999,-12.39,1729420419775.0,0.0
-5.960521,-8.145168,6.656832,-57.75,48.16,-44.799999,1729420419793.0,0.0
-5.783452,0.12682,7.159326,33.599998,19.389999,-32.130001,1729420419813.0,0.0
-1.820938,3.828516,7.350751,43.189999,-84.209999,-18.9,1729420419834.0,0.0
0.399601,4.165904,5.838487,-16.450001,-72.379997,-6.3,1729420419855.0,0.0
-0.681954,-0.306281,5.608776,-66.849998,-9.8,0.7,1729420419873.0,0.0
-2.921637,-4.601398,3.737589,-77.419998,51.310001,1.05,1729420419893.0,0.0
-3.907479,-2.854637,2.823531,-20.51,60.41,13.23,1729420419914.0,0.0
-3.634698,-0.248854,5.565705,6.86,14.98,36.889999,1729420419936.0,0.0
-4.462614,-5.630312,9.535398,-23.66,10.01,34.369999,1729420419954.0,0.0
-9.444471,-15.390635,15.416957,-23.66,66.080002,17.710001,1729420419976.0,0.0
-13.998013,-11.976077,14.421541,65.309998,114.029999,4.13,1729420419994.0,0.0
-9.183653,-1.416551,10.581062,46.549999,-23.030001,3.99,1729420420014.0,0.0
-1.205983,0.332602,9.501899,-24.5,-160.089996,-4.62,1729420420034.0,0.0
-0.87338,-6.008378,7.678568,-94.5,-98.349998,-22.610001,1729420420055.0,0.0
-3.352344,-3.57727,5.644669,-46.830002,31.43,-30.1,1729420420074.0,0.0
-5.419744,0.172283,8.489735,29.469999,3.22,-6.02,1729420420094.0,0.0
-2.550749,2.495714,7.094719,-3.01,-59.709999,-1.54,1729420420113.0,0.0
0.579063,2.100898,4.553542,-37.099998,-86.379997,15.26,1729420420136.0,0.0
-0.930808,-0.392423,4.311867,-53.760002,-36.400002,15.05,1729420420153.0,0.0
-2.768496,-1.607977,2.392823,-71.400002,49.560001,28.700001,1729420420175.0,0.0
-2.39043,-3.069991,2.883351,-52.5,18.969999,40.459999,1729420420195.0,0.0
-3.57727,-7.881958,8.437093,-17.5,1.4,48.23,1729420420214.0,0.0
-8.561519,-12.019149,14.550755,12.25,63.420002,43.959999,1729420420236.0,0.0
-15.52942,-13.51227,14.450255,18.41,100.379997,10.92,1729420420261.0,0.0
-8.616554,-10.15514,9.643075,17.639999,-35.98,10.92,1729420420275.0,0.0
-0.658026,-2.426322,8.470592,63.209999,-136.5,17.43,1729420420295.0,0.0
-0.007178,-0.337388,9.671788,28.91,-85.540001,33.529999,1729420420314.0,0.0
-4.517649,-5.201996,7.592427,-61.599998,44.099998,-24.290001,1729420420335.0,0.0
-6.309873,-6.563512,5.536992,-46.130001,58.869999,-55.439999,1729420420353.0,0.0
-4.945964,-1.457229,7.37468,38.009998,-36.119999,-32.689999,1729420420376.0,0.0
-0.959522,2.383251,7.678568,40.110001,-98.0,-22.82,1729420420394.0,0.0
1.234696,4.4339,5.185246,-10.01,-72.590004,-4.41,1729420420415.0,0.0
0.89013,0.356531,4.878965,-63.84,-17.85,-25.48,1729420420436.0,0.0
-1.493121,-3.699304,1.954936,-65.379997,52.360001,-3.5,1729420420455.0,0.0
-3.818945,-3.086741,6.266802,38.290001,64.260002,27.02,1729420420475.0,0.0
-3.888337,-7.173682,9.102298,19.950001,38.009998,21.35,1729420420495.0,0.0
-10.018748,-16.991434,15.450456,58.450001,69.790001,13.09,1729420420514.0,0.0
-9.489935,-11.942577,13.371094,74.480003,57.189999,-25.690001,1729420420535.0,0.0
-4.206582,-2.842674,9.085547,79.660004,-33.110001,-9.24,1729420420554.0,0.0
-2.806781,-3.251846,8.700303,22.610001,-30.52,-11.55,1729420420574.0,0.0
-4.957928,-7.9346,7.01097,-44.099998,31.290001,-62.09,1729420420595.0,0.0
-6.096912,-3.302095,5.589634,5.88,41.16,-59.920002,1729420420614.0,0.0
-4.649254,0.677169,8.65484,60.200001,-22.26,-57.189999,1729420420640.0,0.0
-1.251446,2.266003,7.290931,15.96,-57.889999,-47.810001,1729420420653.0,0.0
0.124427,4.639683,6.259624,-1.26,-52.639999,-8.4,1729420420674.0,0.0
-0.342174,1.861616,6.281159,-40.740002,-7.0,-4.2,1729420420696.0,0.0
-1.820938,-2.148755,4.295116,-70.419998,52.360001,-2.66,1729420420716.0,0.0
-2.526821,-1.85683,3.759124,-24.85,67.410004,15.05,1729420420737.0,0.0
-3.462414,-3.182454,6.908078,2.66,31.92,47.110001,1729420420755.0,0.0
-7.889136,-13.856836,11.94497,3.29,82.739998,29.75,1729420420777.0,0.0
-13.129417,-16.716259,13.899906,41.02,138.320007,-9.59,1729420420795.0,0.0
-11.557333,-3.06042,11.10509,89.949997,41.93,10.85,1729420420815.0,0.0
-3.510271,0.947558,8.762517,37.59,-133.070007,0.63,1729420420837.0,0.0
-0.004786,-2.782853,7.9346,-38.360001,-137.899994,-3.99,1729420420855.0,0.0
-0.909273,-2.435893,5.304887,-33.880001,-7.98,-24.92,1729420420877.0,0.0
-4.024727,-1.672583,5.682954,-0.07,42.209999,-9.45,1729420420896.0,0.0
-4.61097,1.155733,6.45105,23.1,22.049999,2.03,1729420420915.0,0.0
-2.512464,2.550749,6.642475,8.19,-21.559999,19.74,1729420420939.0,0.0
-2.074577,-1.514657,7.21436,-38.779999,-28.559999,15.54,1729420420955.0,0.0
-3.713661,-3.517449,5.871986,-67.900002,32.970001,15.89,1729420420982.0,0.0
-4.424329,-3.113062,4.867002,-51.029999,50.470001,22.469999,1729420420994.0,0.0
-4.010371,-3.716053,7.204789,-24.710001,7.14,42.420002,1729420421015.0,0.0
-5.737988,-11.547763,11.973685,-18.690001,1.4,35.490002,1729420421038.0,0.0
-19.606789,-15.926627,12.047862,25.200001,68.739998,5.81,1729420421055.0,0.0
-2.610569,-0.655633,9.365508,72.800003,-66.080002,11.76,1729420421075.0,0.0
-1.521835,-2.526821,8.597411,4.76,-45.920002,-12.25,1729420421095.0,0.0
-4.204189,-6.924829,6.82433,-55.16,30.030001,-31.85,1729420421117.0,0.0
-5.589634,-5.793024,4.13719,-10.08,66.989998,-66.709999,1729420421138.0,0.0
-6.814759,-0.940379,9.128618,53.27,10.57,-34.299999,1729420421156.0,0.0
-3.156133,1.265803,8.061419,15.26,-61.32,-50.540001,1729420421175.0,0.0
0.258425,3.479164,5.623133,-13.3,-82.879997,-28.49,1729420421194.0,0.0
0.792024,2.18704,5.690133,-37.73,-43.75,-1.26,1729420421216.0,0.0
-1.612763,-2.383251,4.972286,-64.120003,34.299999,-5.25,1729420421238.0,0.0
-3.895515,-2.11047,2.854637,-36.959999,101.360001,7.07,1729420421255.0,0.0
-4.177868,-0.282353,3.806981,11.55,50.959999,35.630001,1729420421276.0,0.0
-4.307081,-3.790231,9.116654,6.16,-0.56,47.950001,1729420421295.0,0.0
-7.99442,-13.926227,13.610376,-7.7,52.709999,26.110001,1729420421316.0,0.0
-13.304093,-16.453049,13.981262,15.89,126.699997,-3.71,1729420421336.0,0.0
-12.301501,-6.254838,8.523234,52.220001,43.889999,0.07,1729420421356.0,0.0
-4.328616,-0.411566,6.943972,49.700001,-133.699997,-6.86,1729420421375.0,0.0
-1.387837,-5.723632,9.413363,-14.84,-151.339996,-18.059999,1729420421397.0,0.0
-3.225525,-4.326223,5.458029,-55.93,-16.1,-55.93,1729420421415.0,0.0
-4.998606,-2.435893,6.628119,28.42,9.52,-36.68,1729420421436.0,0.0
-3.479164,2.452643,7.147361,42.77,-22.540001,-25.34,1729420421455.0,0.0
-1.052842,4.536791,5.589634,-5.18,-63.07,-0.42,1729420421475.0,0.0
-0.248854,0.153141,5.4006,-64.959999,-47.670002,4.13,1729420421494.0,0.0
-1.505085,-4.319045,4.285545,-71.120003,21.84,2.45,1729420421515.0,0.0
-2.883351,-1.952543,4.141976,-7.56,63.560001,21.42,1729420421535.0,0.0
-2.926422,-1.241875,5.539384,4.41,23.940001,41.16,1729420421554.0,0.0
-4.828716,-8.611769,11.332408,-9.59,8.05,37.450001,1729420421575.0,0.0
-8.901299,-13.13181,12.746566,3.01,87.080002,19.879999,1729420421595.0,0.0
-12.595818,-11.921042,11.901899,35.700001,101.849998,4.41,1729420421615.0,0.0
-9.085547,-3.081956,7.549356,42.139999,-5.74,5.46,1729420421641.0,0.0
-2.550749,-2.801995,7.779066,13.09,-131.039993,-5.11,1729420421654.0,0.0
-0.555135,-5.536992,7.106683,-37.310001,-105.0,-12.32,1729420421675.0,0.0
-2.943172,-3.830909,6.74776,-7.42,7.7,-17.01,1729420421696.0,0.0
-4.76411,-2.201397,7.348359,24.01,30.030001,-31.219999,1729420421716.0,0.0
-3.682554,2.598605,7.800602,26.880001,-18.48,-10.5,1729420421737.0,0.0
-0.031107,0.394816,7.872386,-14.98,-70.419998,9.24,1729420421755.0,0.0
-1.603191,-3.835695,6.381658,-67.690002,6.93,7.84,1729420421774.0,0.0
-3.732803,-3.022135,3.881158,-42.77,88.410004,15.4,1729420421796.0,0.0
-4.462614,-3.531806,5.178068,-22.049999,48.580002,30.52,1729420421816.0,0.0
-4.17069,-5.422136,6.118448,-18.27,6.72,33.18,1729420421836.0,0.0
-6.537192,-11.861222,12.119646,7.91,29.68,16.799999,1729420421855.0,0.0
-12.184253,-14.031512,13.301701,37.380001,101.5,5.04,1729420421877.0,0.0
-12.21536,-4.713861,8.343772,58.73,77.769997,-12.18,1729420421895.0,0.0
-5.058427,-0.775275,6.104091,32.130001,-100.590004,-8.19,1729420421917.0,0.0
-0.772882,-5.383851,7.276574,-16.24,-159.25,-20.23,1729420421935.0,0.0
-0.435494,-3.522235,5.891129,-7.84,-44.939999,-29.190001,1729420421955.0,0.0
-3.627519,-3.175276,8.099705,22.33,31.780001,-30.940001,1729420421978.0,0.0
-3.641876,0.378066,6.355337,13.72,22.610001,-32.689999,1729420421996.0,0.0
-1.57687,4.965107,6.218946,14.98,-38.080002,3.43,1729420422017.0,0.0
-0.602991,1.5003,7.276574,-40.529999,-43.470001,11.06,1729420422035.0,0.0
-2.330609,-3.768696,4.960321,-85.82,35.0,9.94,1729420422054.0,0.0
-3.869194,-4.058227,4.589434,-42.279999,78.82,23.309999,1729420422076.0,0.0
-4.505685,-5.221139,6.407979,-2.1,29.960001,42.84,1729420422096.0,0.0
-8.305488,-15.125031,13.931013,9.17,28.559999,30.52,1729420422115.0,0.0
-13.148561,-13.268202,11.784652,38.009998,100.029999,-8.68,1729420422135.0,0.0
-7.745567,-2.103291,9.958927,89.040001,-11.76,3.22,1729420422155.0,0.0
-3.859623,-1.828116,8.913264,22.889999,-100.099998,0.14,1729420422176.0,0.0
-2.943172,-5.426922,6.178268,-45.5,-57.75,-26.110001,1729420422195.0,0.0
-4.486543,-7.822137,4.993821,-9.59,6.79,-50.259998,1729420422215.0,0.0
-5.28096,-1.959722,5.730811,44.939999,3.15,-21.629999,1729420422235.0,0.0
-2.85703,1.071985,8.109276,43.889999,-61.880001,-30.940001,1729420422254.0,0.0
0.088534,2.883351,6.396015,-8.4,-68.669998,-16.1,1729420422275.0,0.0
0.660419,0.856631,6.324231,-48.09,-42.700001,2.94,1729420422302.0,0.0
-1.337588,-3.574877,5.020142,-75.32,26.18,-4.27,1729420422314.0,0.0
-3.562913,-2.957529,3.031706,-31.360001,89.389999,7.07,1729420422336.0,0.0
-4.73061,-2.364109,6.388836,14.84,52.360001,35.84,1729420422356.0,0.0
-5.565705,-6.068198,8.573483,-6.3,23.17,34.860001,1729420422376.0,0.0
-8.274381,-13.58166,14.203795,13.02,57.959999,3.08,1729420422396.0,0.0
-11.746366,-6.178268,8.939585,30.870001,100.099998,-1.26,1729420422415.0,0.0
-5.551349,-1.440479,6.903293,31.92,-79.590004,-7.84,1729420422437.0,0.0
-1.770689,-6.721439,7.91785,-28.280001,-129.220001,-32.27,1729420422457.0,0.0
-1.550549,-5.295317,6.338587,-21.700001,-24.639999,-39.970001,1729420422477.0,0.0
-4.900501,-4.211368,8.927622,16.450001,20.23,-22.4,1729420422495.0,0.0
-4.331009,0.421137,7.554141,16.030001,10.99,-39.200001,1729420422514.0,0.0
-1.325624,3.534199,5.608776,-1.33,-53.619999,-8.05,1729420422538.0,0.0
0.543171,1.617548,6.283553,-40.110001,-72.379997,13.72,1729420422554.0,0.0
-0.72024,-2.620141,5.776274,-64.540001,-0.77,6.93,1729420422575.0,0.0
-3.349952,-1.933401,5.113462,-25.76,87.57,19.18,1729420422594.0,0.0
-4.453043,-2.366502,6.776474,-12.46,50.75,37.380001,1729420422615.0,0.0
-4.194618,-4.804788,5.706882,-28.0,15.05,35.279999,1729420422634.0,0.0
-6.486942,-13.497912,12.016755,12.04,41.23,22.4,1729420422655.0,0.0
-12.086146,-13.328021,12.358929,49.98,108.150002,12.81,1729420422676.0,0.0
-11.933006,-2.766103,10.681561,81.620003,59.360001,2.1,1729420422694.0,0.0
-5.216353,-3.235096,7.972885,0.7,-101.57,-14.21,1729420422716.0,0.0
-1.174876,-6.9679,6.192625,-45.57,-126.980003,-23.52,1729420422736.0,0.0
-1.885544,-3.369094,5.347959,2.45,-44.310001,-40.529999,1729420422755.0,0.0
-4.553542,-0.571885,7.685746,48.02,18.200001,-11.2,1729420422776.0,0.0
-3.565305,1.366302,7.336394,16.24,-6.3,-24.85,1729420422794.0,0.0
-1.11027,4.039084,5.465207,-8.05,-43.470001,5.81,1729420422816.0,0.0
-0.72024,-0.545564,6.087341,-50.330002,-39.34,7.21,1729420422836.0,0.0
-3.0006,-4.180261,5.374279,-58.240002,46.060001,2.45,1729420422854.0,0.0
-4.941179,-4.063013,6.494121,-16.309999,74.269997,19.32,1729420422874.0,0.0
-4.795217,-1.473979,5.096712,-8.4,27.440001,39.200001,1729420422895.0,0.0
-3.773481,-9.202796,10.296316,1.61,-4.06,21.49,1729420422914.0,0.0
-10.578669,-6.762117,11.454442,11.48,64.959999,18.620001,1729420423037.0,0.0
-8.446664,-1.730011,9.997212,84.07,99.400002,-13.02,1729420423040.0,0.0
-3.596412,-5.158926,6.876972,54.740002,-33.740002,14.0,1729420423041.0,0.0
-3.850052,-8.695518,5.898308,-39.970001,-79.730003,-33.670002,1729420423043.0,0.0
-3.421736,-3.371487,5.000999,-30.799999,-51.52,-40.670002,1729420423044.0,0.0
-4.359723,-1.107877,7.633104,28.35,-9.24,-43.259998,1729420423053.0,0.0
-2.342573,2.395216,7.73121,27.860001,-31.57,-29.4,1729420423074.0,0.0
-0.327817,1.98365,6.156733,-12.18,-44.59,-1.54,1729420423130.0,0.0
-1.031307,-2.366502,4.867002,-70.209999,3.64,0.07,1729420423135.0,0.0
-2.490928,-1.59362,3.625126,-24.5,60.060001,20.93,1729420423138.0,0.0
-4.086941,-1.162912,6.494121,15.82,42.349998,47.040001,1729420423153.0,0.0
-4.146761,-4.503292,6.577869,-3.85,40.950001,50.68,1729420423173.0,0.0
-9.020942,-16.563118,14.443078,16.030001,54.810001,32.900002,1729420423193.0,0.0
-12.119646,-13.37827,14.627325,65.870003,58.66,-8.75,1729420423214.0,0.0
-5.118248,-1.624727,12.220145,98.769997,-54.459999,5.32,1729420423235.0,0.0
-3.464807,-1.825724,9.128618,-12.53,-56.07,-8.4,1729420423253.0,0.0
-3.730411,-5.778666,5.134997,-92.75,-9.59,-39.060001,1729420423273.0,0.0
-4.56072,-7.582855,2.493321,-35.07,11.06,-54.950001,1729420423292.0,0.0
-4.412365,-2.234896,6.309873,52.990002,-19.809999,-14.56,1729420423315.0,0.0
-2.725425,-0.124427,8.441878,48.09,-45.639999,-28.630001,1729420423334.0,0.0
-1.021735,3.110669,7.420143,15.75,-34.439999,-20.16,1729420423353.0,0.0
-0.342174,1.911865,6.4678,-40.529999,-31.5,-1.26,1729420423375.0,0.0
-1.31366,-2.610569,4.721039,-85.959999,8.61,-1.82,1729420423393.0,0.0
-3.57727,-0.224925,4.615755,-33.529999,63.490002,13.79,1729420423415.0,0.0
-3.811767,0.378066,5.436492,24.08,42.0,49.84,1729420423435.0,0.0
-5.000999,-7.719246,8.429914,-23.799999,39.619999,44.450001,1729420423455.0,0.0
-10.327423,-17.039289,13.153346,-0.91,87.849998,18.41,1729420423475.0,0.0
-10.755738,-10.250853,12.904492,67.480003,72.660004,-5.11,1729420423495.0,0.0
-6.601797,-0.66999,11.906685,81.269997,-54.110001,17.01,1729420423515.0,0.0
-2.191825,-2.218147,7.37468,-35.91,-93.590004,-5.81,1729420423535.0,0.0
-2.959922,-6.427122,5.522634,-79.029999,-16.799999,-25.41,1729420423553.0,0.0
-6.58744,-10.363315,4.706682,-33.880001,50.610001,-45.080002,1729420423576.0,0.0
-6.946364,-4.790431,5.15414,67.199997,15.47,-42.209999,1729420423595.0,0.0
-5.084748,0.679562,10.301102,106.75,-74.760002,-11.06,1729420423614.0,0.0
-2.299503,2.435893,10.310673,35.630001,-87.849998,-22.610001,1729420423633.0,0.0
-0.265603,3.163311,6.551548,-38.009998,-53.200001,-16.309999,1729420423654.0,0.0
-0.019143,-0.382852,4.24726,-68.18,-26.389999,-2.8,1729420423674.0,0.0
-1.31366,-2.299503,3.830909,-54.529999,13.37,2.73,1729420423694.0,0.0
-2.825923,-1.57687,5.022535,-17.710001,45.009998,14.77,1729420423714.0,0.0
-3.029313,-0.667598,6.582655,-22.469999,26.530001,30.450001,1729420423735.0,0.0
-2.842674,-1.488336,6.73101,-73.150002,6.3,38.920002,1729420423756.0,0.0
-6.379266,-12.239288,10.621738,-111.93,52.57,27.790001,1729420423775.0,0.0
-11.832507,-16.883757,8.221739,-84.0,129.289993,-12.53,1729420423795.0,0.0
-10.542776,-9.877571,9.530612,44.450001,47.880001,-7.21,1729420423813.0,0.0
-6.041877,-2.043471,9.224331,77.419998,-84.139999,40.110001,1729420423907.0,0.0
-3.041277,1.265803,9.410972,43.189999,-106.050003,21.700001,1729420423910.0,0.0
-2.847459,0.595813,9.38465,-17.15,-50.189999,9.03,1729420423917.0,0.0
-4.177868,-1.861616,7.190433,-75.25,14.63,-11.69,1729420423919.0,0.0
-6.329016,-4.103691,6.91765,-124.040001,34.509998,-23.52,1729420423922.0,0.0
-8.123632,-6.489335,6.360123,-144.339996,12.18,-7.35,1729420423948.0,0.0
-7.286145,-6.709475,6.360123,-109.760002,-38.5,-4.48,1729420423953.0,0.0
-5.304887,-5.972485,7.269395,-76.720001,-78.400002,6.79,1729420423977.0,0.0
-4.194618,-4.618148,6.831509,-66.919998,-79.029999,23.73,1729420423994.0,0.0
-3.749553,-4.26401,8.066205,-98.910004,-88.199997,30.24,1729420424013.0,0.0
-2.600998,-6.309873,6.008378,-209.020004,-112.0,6.79,1729420424035.0,0.0
-1.301696,-9.856036,2.725425,-252.490005,-115.57,-7.77,1729420424053.0,0.0
0.244068,-12.153147,0.059821,-198.660004,-109.340004,-15.96,1729420424073.0,0.0
0.918844,-11.830115,1.265803,-73.150002,-98.349998,-11.34,1729420424096.0,0.0
0.57667,-8.566305,2.352145,88.340004,-29.610001,-9.31,1729420424113.0,0.0
-0.18664,-5.017749,3.694518,63.560001,13.16,-26.460001,1729420424135.0,0.0
-1.51705,-5.359922,5.369494,-11.69,33.32,-29.82,1729420424153.0,0.0
-2.234896,-7.369894,5.06082,-76.860001,67.199997,-28.280001,1729420424174.0,0.0
-2.002793,-6.489335,4.089334,-127.260002,67.620003,-41.02,1729420424193.0,0.0
-2.318645,-7.726424,2.005185,-176.889999,61.950001,-13.86,1729420424215.0,0.0
-4.127619,-10.535598,1.698904,-105.629997,84.0,23.309999,1729420424234.0,0.0
-4.362115,-9.38465,4.701896,56.630001,76.370003,40.599998,1729420424253.0,0.0
-8.571091,-3.723232,12.124433,36.68,12.25,50.189999,1729420424275.0,0.0
-4.500899,-7.369894,6.589834,-82.25,-9.66,16.17,1729420424293.0,0.0
-4.534399,-11.763116,4.149154,-69.510002,-5.95,23.379999,1729420424314.0,0.0
-6.800402,-8.061419,4.323831,-28.35,23.799999,6.86,1729420424335.0,0.0
-6.774081,-8.55434,3.139383,-80.43,32.689999,-26.74,1729420424353.0,0.0
-3.584448,-11.038091,1.770689,-118.860001,17.219999,-59.010002,1729420424373.0,0.0
-1.349552,-7.190433,2.931208,-59.779999,12.04,-52.009998,1729420424395.0,0.0
0.461815,1.495514,5.625526,15.61,-19.6,-17.57,1729420424413.0,0.0
0.586242,-2.63689,10.147961,4.06,-61.950001,21.49,1729420424435.0,0.0
-3.718446,-8.484949,4.965107,-157.009995,52.290001,22.469999,1729420424454.0,0.0
-4.895715,-14.301902,-0.349352,-108.5,59.43,18.690001,1729420424473.0,0.0
-3.517449,-12.909278,-1.550549,-12.46,-43.959999,52.5,1729420424495.0,0.0
-3.115455,-10.693524,-3.955336,41.23,-54.529999,68.459999,1729420424520.0,0.0
-6.680761,-17.704494,-5.029713,-5.32,19.950001,31.08,1729420424534.0,0.0
-8.037491,-18.137594,-2.462214,7.07,44.170002,0.49,1729420424555.0,0.0
-6.798009,-11.028521,4.12044,95.269997,-0.49,0.49,1729420424593.0,0.0
-6.195018,-6.687939,3.735196,61.599998,30.1,-46.060001,1729420424684.0,0.0
-5.498707,-7.381857,2.730211,4.62,43.330002,-63.560001,1729420424684.0,0.0
-2.234896,1.421337,2.455036,30.73,0.91,-43.82,1729420424685.0,0.0
1.832902,4.378866,7.601997,73.639999,-48.299999,-11.83,1729420424685.0,0.0
1.31366,-3.931407,13.954943,-46.27,-38.080002,6.86,1729420424685.0,0.0
-3.050849,-9.793823,7.171289,-147.559998,54.880001,-16.030001,1729420424693.0,0.0
-5.000999,-10.853845,-1.136591,-122.220001,66.989998,-3.78,1729420424713.0,0.0
-3.57727,-7.113862,-1.579263,-51.869999,-33.670002,30.24,1729420424734.0,0.0
-1.837688,-9.442079,-1.174876,4.13,-59.5,51.099998,1729420424753.0,0.0
-7.350751,-15.002998,-2.069792,27.51,16.030001,66.290001,1729420424774.0,0.0
-11.069198,-20.733807,-1.631905,22.82,42.700001,24.43,1729420424793.0,0.0
-5.022535,-12.861421,-1.361516,23.73,-0.21,-5.04,1729420424814.0,0.0
-3.448057,-9.035298,2.29711,53.41,-3.92,-24.85,1729420424834.0,0.0
-4.378866,-10.298709,1.794617,27.299999,49.84,-58.799999,1729420424853.0,0.0
-5.130211,-9.408579,0.595813,15.190001,61.740002,-39.900002,1729420424874.0,0.0
-2.311467,-0.275175,2.701497,86.519997,-0.28,-10.71,1729420424893.0,0.0
-0.40678,2.232504,11.526227,144.970001,-49.420002,-5.11,1729420424914.0,0.0
-0.861416,-2.708675,13.820943,12.32,-41.23,-1.82,1729420424936.0,0.0
-2.885744,-7.664211,4.548756,-133.559998,27.440001,-17.710001,1729420424954.0,0.0
-4.297509,-9.159724,0.260818,-114.449997,28.700001,-1.4,1729420424977.0,0.0
-3.20399,-7.781459,-0.399601,-69.160004,-28.700001,21.84,1729420424995.0,0.0
-1.603191,-8.705089,0.473779,-29.540001,-54.459999,34.93,1729420425016.0,0.0
-6.664011,-15.871593,0.246461,-5.04,-37.240002,55.650002,1729420425035.0,0.0
-9.920642,-20.224136,-3.84048,-6.02,33.25,23.17,1729420425054.0,0.0
-6.379266,-13.875979,-3.823731,28.77,16.17,-12.46,1729420425074.0,0.0
-4.350152,-9.272188,2.926422,84.209999,-6.3,-29.469999,1729420425094.0,0.0
-4.61097,-8.721838,3.847659,49.91,35.209999,-55.93,1729420425115.0,0.0
-4.991428,-8.805587,2.333002,-8.54,55.720001,-55.02,1729420425135.0,0.0
-0.87338,-0.892523,2.914458,77.840004,13.23,-33.599998,1729420425153.0,0.0
-0.492921,0.342174,11.196017,150.710007,-35.349998,-11.06,1729420425174.0,0.0
-1.572084,-1.158126,14.651253,45.290001,-31.639999,-1.05,1729420425194.0,0.0
-2.734996,-6.707082,6.754939,-142.869995,12.39,-20.51,1729420425214.0,0.0
-3.012564,-9.142976,-0.196211,-139.089996,28.91,-17.92,1729420425241.0,0.0
-3.17049,-8.865408,-1.301696,-76.230003,-5.74,10.64,1729420425254.0,0.0
-2.526821,-7.585248,-1.129412,-38.990002,-25.48,30.17,1729420425274.0,0.0
-2.892922,-8.078169,1.928615,15.26,-36.82,47.670002,1729420425294.0,0.0
-4.149154,-11.389835,3.06042,23.66,-39.34,53.48,1729420425314.0,0.0
-6.943972,-19.025333,-1.529014,-32.900002,11.27,31.08,1729420425335.0,0.0
-8.482556,-18.7693,-5.915058,-57.82,57.119999,-7.77,1729420425354.0,0.0
-4.409972,-10.064213,1.902294,53.060001,3.78,-21.700001,1729420425375.0,0.0
-4.070191,-8.549555,3.582055,52.360001,23.379999,-51.450001,1729420425394.0,0.0
-4.790431,-5.020142,2.541178,-2.52,41.439999,-49.0,1729420425414.0,0.0
-1.105484,0.808774,6.197411,117.599998,-10.22,-28.139999,1729420425435.0,0.0
-0.557528,2.758924,12.136396,110.949997,-36.610001,-3.15,1729420425453.0,0.0
-2.108077,-3.452843,12.842279,-64.610001,-1.68,-10.43,1729420425474.0,0.0
-2.945565,-8.798409,2.713461,-193.130005,40.25,-23.030001,1729420425493.0,0.0
-3.311667,-11.404193,-1.708475,-133.350006,39.41,-8.54,1729420425514.0,0.0
-3.259024,-8.700303,-1.904687,-77.07,-12.6,21.0,1729420425535.0,0.0
-2.07697,-6.618547,-2.203789,-38.709999,-24.639999,36.189999,1729420425555.0,0.0
-3.261417,-9.736395,-1.883151,-8.68,-15.4,49.560001,1729420425574.0,0.0
-8.008778,-16.938791,0.662812,-12.81,5.25,42.630001,1729420425594.0,0.0
-8.798409,-19.618752,-4.445865,-46.060001,21.280001,1.68,1729420425613.0,0.0
-4.701896,-14.110476,-3.9338,13.440001,-5.6,-15.68,1729420425636.0,0.0
-4.012764,-11.717653,0.552742,61.599998,0.42,-31.43,1729420425654.0,0.0
-5.611169,-10.054641,1.387837,45.990002,57.889999,-57.540001,1729420425674.0,0.0
-2.955136,-0.921237,-2.268396,30.24,39.619999,-51.310001,1729420425693.0,0.0
-0.59342,1.036092,10.183852,128.309998,-44.240002,9.24,1729420425718.0,0.0
-0.579063,-0.026321,15.306887,55.23,-21.77,-6.3,1729420425735.0,0.0
-2.811567,-4.821537,7.673782,-133.139999,-3.64,10.78,1729420425754.0,0.0
-3.431308,-9.276974,-1.057628,-185.779999,43.889999,-0.28,1729420425775.0,0.0
-4.31426,-11.095518,-2.502892,-108.849998,7.14,18.620001,1729420425794.0,0.0
-2.175076,-6.108876,-2.184647,-34.720001,-63.630001,53.48,1729420425814.0,0.0
-1.464408,-7.745567,-0.990629,-7.77,-79.449997,64.75,1729420425836.0,0.0
-6.979864,-17.144573,1.782653,-45.360001,-32.689999,57.400002,1729420425854.0,0.0
-9.736395,-23.562124,-5.716454,-76.720001,42.77,0.14,1729420425875.0,0.0
-7.209574,-15.3691,-6.836295,-5.81,27.440001,-11.55,1729420425895.0,0.0
-4.945964,-10.968699,-1.347159,63.279999,-0.42,-38.290001,1729420425914.0,0.0
-4.448257,-10.468598,0.401994,75.809998,29.82,-61.529999,1729420425937.0,0.0
-4.977071,-4.87418,0.440279,47.110001,38.849998,-57.119999,1729420425954.0,0.0
-1.22034,-0.937986,6.281159,122.57,-7.42,-59.709999,1729420425978.0,0.0
-0.839881,-1.488336,12.086146,70.559998,-51.450001,-15.47,1729420425994.0,0.0
0.437887,-3.333202,13.52902,-18.129999,-33.18,-27.93,1729420426014.0,0.0
-0.736989,-3.716053,5.498707,-84.07,-12.25,15.96,1729420426037.0,0.0
-3.055635,-7.704889,-1.244268,-127.610001,23.52,24.99,1729420426054.0,0.0
-3.771089,-8.949157,-2.524428,-92.190002,4.83,34.439999,1729420426075.0,0.0
-2.718246,-10.497313,-3.608376,-29.75,-26.110001,52.990002,1729420426093.0,0.0
-5.584848,-15.998412,-2.584249,1.54,2.1,58.799999,1729420426114.0,0.0
-9.351151,-20.57349,-3.20399,-1.68,36.610001,26.110001,1729420426134.0,0.0
-7.503892,-13.390236,-5.489135,4.2,35.0,1.89,1729420426154.0,0.0
-5.192425,-11.437693,-0.945165,53.900002,7.35,-30.52,1729420426174.0,0.0
-4.900501,-11.432907,0.949951,60.34,27.299999,-50.540001,1729420426193.0,0.0
-4.405186,-6.946364,1.29691,57.330002,32.619999,-51.450001,1729420426214.0,0.0
-0.464208,3.031706,4.668397,94.220001,-10.5,-35.0,1729420426237.0,0.0
1.710868,2.318645,13.205987,85.82,-101.919998,19.74,1729420426255.0,0.0
1.246661,-5.869594,11.380265,-67.410004,-48.299999,2.73,1729420426274.0,0.0
-3.031706,-10.04507,0.815953,-162.050003,67.970001,6.09,1729420426293.0,0.0
-6.185446,-12.445071,-2.907279,-113.120003,67.550003,4.13,1729420426315.0,0.0
-4.285545,-7.893922,-3.326023,-34.580002,-30.870001,42.560001,1729420426337.0,0.0
-2.191825,-7.448857,-2.589034,0.91,-67.410004,56.91,1729420426355.0,0.0
-8.740981,-20.121246,-1.744368,7.63,-14.14,50.049999,1729420426374.0,0.0
-8.26481,-16.007982,-4.419543,24.57,29.540001,7.42,1729420426393.0,0.0
-5.17089,-9.789038,-1.37348,50.959999,3.29,-12.32,1729420426414.0,0.0
-4.766503,-10.983055,0.562313,34.650002,21.07,-48.299999,1729420426434.0,0.0
-5.304887,-12.21536,0.045464,21.35,41.09,-57.82,1729420426454.0,0.0
-2.629712,-2.443072,-2.550749,54.110001,16.52,-41.02,1729420426474.0,0.0
-0.174676,0.863809,9.693325,206.779999,-69.230003,-5.74,1729420426493.0,0.0
-1.050449,-2.854637,14.210974,94.919998,-45.5,7.42,1729420426514.0,0.0
-2.845066,-7.099504,7.776673,-115.5,22.120001,-21.07,1729420426536.0,0.0
-2.675175,-7.728817,-0.4666,-152.110001,23.030001,-5.67,1729420426561.0,0.0
-3.17049,-9.257831,-2.098505,-98.980003,8.89,7.49,1729420426574.0,0.0
-3.486342,-8.803195,-2.344966,-41.439999,1.68,17.780001,1729420426593.0,0.0
-3.132205,-7.534998,-0.531207,7.91,-23.24,37.52,1729420426616.0,0.0
-3.725625,-7.688138,1.615155,36.330002,-34.720001,60.27,1729420426638.0,0.0
-6.185446,-13.627125,0.37328,7.63,-18.48,47.670002,1729420426655.0,0.0
-8.4347,-19.293329,-4.934,-37.380001,35.700001,4.27,1729420426674.0,0.0
-6.908078,-15.053247,-1.902294,-4.2,19.6,-14.98,1729420426694.0,0.0
-4.290331,-10.741381,0.624527,59.290001,-3.43,-43.470001,1729420426714.0,0.0
-5.099105,-10.480563,-0.272782,27.65,40.810001,-62.439999,1729420426736.0,0.0
-1.952543,-0.514457,1.217947,56.279999,18.48,-41.580002,1729420426755.0,0.0
-0.457029,-0.832702,10.353743,107.309998,-42.420002,-25.549999,1729420426775.0,0.0
-1.363909,-3.314059,13.761123,9.94,-21.700001,-18.9,1729420426795.0,0.0
-1.59362,-4.816752,6.465407,-86.379997,-1.61,-14.42,1729420426815.0,0.0
-1.727618,-7.762317,0.009571,-121.590004,8.47,-4.41,1729420426838.0,0.0
-3.06042,-9.882358,-2.100898,-92.540001,12.67,11.55,1729420426857.0,0.0
-2.811567,-7.422535,-1.90708,-25.129999,-10.22,28.77,1729420426875.0,0.0
-2.505285,-8.152347,-1.083949,17.43,-37.170002,50.049999,1729420426895.0,0.0
-6.417551,-14.787644,1.658226,21.210001,-33.810001,58.73,1729420426915.0,0.0
-9.367901,-22.100109,-4.589434,-21.210001,28.42,12.04,1729420426937.0,0.0
-9.379865,-17.560926,-6.209375,9.38,45.920002,-26.040001,1729420426956.0,0.0
-5.577669,-11.63869,0.043071,76.019997,0.98,-69.720001,1729420426979.0,0.0
-4.118048,-6.410372,-0.232104,44.029999,16.59,-72.449997,1729420426997.0,0.0
0.062213,2.395216,5.261817,143.009995,-22.610001,-48.720001,1729420427016.0,0.0
1.217947,3.428915,13.349558,146.649994,-64.889999,-14.49,1729420427039.0,0.0
0.045464,-4.701896,13.167704,-41.860001,-20.440001,-20.93,1729420427055.0,0.0
-1.404587,-7.520642,3.404987,-150.850006,13.51,-8.33,1729420427075.0,0.0
-1.768296,-7.534998,-1.631905,-139.720001,7.28,10.01,1729420427095.0,0.0
-1.775474,-9.657433,-2.464607,-75.949997,0.28,28.07,1729420427115.0,0.0
-1.938186,-8.587841,-1.421337,-8.54,-10.99,40.18,1729420427136.0,0.0
-3.531806,-9.245867,0.234497,32.200001,-25.9,61.599998,1729420427155.0,0.0
-6.795617,-14.835501,0.940379,21.700001,-15.190001,59.290001,1729420427176.0,0.0
-8.157133,-19.101904,-2.605784,-24.5,21.35,12.18,1729420427196.0,0.0
-6.4343,-13.371094,-3.718446,-16.17,27.860001,-15.89,1729420427216.0,0.0
-4.658825,-11.633904,-0.232104,29.610001,12.74,-40.32,1729420427236.0,0.0
-4.907679,-10.954341,1.555335,35.349998,32.619999,-53.130001,1729420427255.0,0.0
-4.084548,-4.187439,-0.588634,8.19,41.23,-53.130001,1729420427279.0,0.0
0.976272,0.378066,12.174682,165.410004,-24.92,-28.42,1729420427295.0,0.0
-1.09352,-3.818945,13.823336,30.380001,-14.63,4.69,1729420427316.0,0.0
-3.45045,-6.659225,3.838088,-154.630005,34.439999,4.13,1729420427338.0,0.0
-2.852244,-9.872787,-3.055635,-156.380005,28.42,4.06,1729420427355.0,0.0
-4.036692,-12.954741,-3.330809,-87.010002,10.15,13.58,1729420427376.0,0.0
-3.122634,-9.188439,-2.761317,-18.969999,-22.190001,31.639999,1729420427396.0,0.0
-2.313859,-8.10449,-1.646262,37.59,-45.009998,46.830002,1729420427416.0,0.0
-5.024928,-13.316057,1.572084,28.280001,-31.57,45.849998,1729420427436.0,0.0
-7.721639,-20.114067,-1.923829,-24.01,23.379999,-4.97,1729420427456.0,0.0
-6.331409,-14.646468,-3.775874,18.41,34.720001,-25.969999,1729420427476.0,0.0
-5.175675,-10.954341,0.136391,72.309998,3.5,-35.139999,1729420427495.0,0.0
-5.005785,-10.262815,0.385244,44.59,34.09,-57.189999,1729420427516.0,0.0
-0.973879,-0.861416,0.959522,70.840004,25.83,-58.939999,1729420427536.0,0.0
-0.246461,1.172483,8.920443,116.830002,-41.93,-16.66,1729420427558.0,0.0
0.808774,-1.428515,12.591033,19.74,-14.7,-16.030001,1729420427576.0,0.0
-2.098505,-7.080362,8.956335,-84.279999,6.23,3.22,1729420427595.0,0.0
-2.79721,-9.298509,0.346959,-145.460007,28.139999,-0.21,1729420427616.0,0.0
-2.907279,-9.21476,-2.029114,-108.5,-1.96,16.24,1729420427639.0,0.0
-1.787439,-6.819544,-2.471786,-13.16,-47.880001,44.52,1729420427656.0,0.0
-3.395415,-11.473583,-2.510071,6.44,-32.970001,54.810001,1729420427676.0,0.0
-9.657433,-22.52364,0.756132,3.71,5.04,30.309999,1729420427697.0,0.0
-7.499106,-17.087147,-5.972485,-15.33,44.170002,-17.43,1729420427716.0,0.0
-5.663811,-9.327222,-2.711068,42.700001,28.35,-35.77,1729420427740.0,0.0
-4.347759,-10.435099,0.799203,36.049999,30.52,-61.389999,1729420427756.0,0.0
-3.160919,-5.391029,-1.715654,11.13,52.779999,-63.77,1729420427776.0,0.0
-0.61017,0.289532,5.075177,129.850006,4.41,-33.32,1729420427796.0,0.0
0.394816,4.366901,9.497113,85.190002,-30.450001,21.35,1729420427817.0,0.0
0.325424,-4.582255,12.559926,-36.049999,-20.860001,17.99,1729420427837.0,0.0
-3.419343,-9.056834,5.252246,-171.149994,44.66,10.99,1729420427855.0,0.0
-4.266403,-11.10509,-2.287539,-152.669998,43.049999,16.450001,1729420427877.0,0.0
-3.63709,-7.855636,-3.701697,-79.379997,-29.33,52.920002,1729420427897.0,0.0
-2.730211,-8.389235,-3.754339,-26.040001,-55.16,66.639999,1729420427916.0,0.0
-6.015556,-14.620146,-5.682954,-0.77,6.51,58.939999,1729420427937.0,0.0
-12.205789,-20.697916,-0.308674,39.970001,27.719999,23.379999,1729420427955.0,0.0
-3.591627,-10.095319,-0.588634,20.16,-22.190001,1.54,1729420427978.0,0.0
-2.778067,-10.992627,0.653241,15.75,-2.17,-40.110001,1729420427997.0,0.0
-5.288138,-15.625132,-0.646062,-7.98,63.420002,-70.980003,1729420428016.0,0.0
-4.914857,-10.573883,-1.512264,14.56,44.029999,-49.98,1729420428036.0,0.0
1.244268,-0.897308,0.942772,149.449997,-28.07,-28.49,1729420428055.0,0.0
0.18664,-1.471586,10.037891,173.740005,-66.290001,7.63,1729420428076.0,0.0
-2.349752,-5.285746,12.725031,46.549999,-2.31,-15.75,1729420428097.0,0.0
-2.756532,-5.314459,6.084948,-85.540001,-0.7,-9.03,1729420428116.0,0.0
-1.622334,-6.685547,0.177069,-134.539993,-16.17,5.18,1729420428136.0,0.0
-2.598605,-10.329816,-1.351945,-104.160004,0.42,11.83,1729420428156.0,0.0
-3.766303,-8.669197,-2.612962,-47.529999,10.92,21.700001,1729420428176.0,0.0
-3.529413,-8.123632,-1.088734,24.57,-27.02,40.459999,1729420428196.0,0.0
-4.232903,-10.683953,1.074377,39.27,-45.57,58.240002,1729420428216.0,0.0
-5.938986,-15.091532,-0.473779,0.63,-21.42,37.52,1729420428236.0,0.0
-5.836094,-15.603597,-5.000999,-27.93,18.200001,-1.47,1729420428256.0,0.0
-6.305088,-12.634104,-4.175476,23.030001,31.99,-14.28,1729420428276.0,0.0
-5.070391,-10.906486,-0.459422,69.510002,8.47,-25.27,1729420428296.0,0.0
-4.852644,-10.073784,0.002393,31.85,26.32,-42.98,1729420428316.0,0.0
-1.880759,-0.055035,-1.899901,36.259998,41.509998,-39.970001,1729420428338.0,0.0
-1.354338,-0.569492,9.260223,125.020004,-16.24,-12.67,1729420428361.0,0.0
-1.847259,-4.323831,13.904692,36.189999,-21.0,0.35,1729420428375.0,0.0
-2.59382,-6.242875,6.431907,-83.860001,10.08,-3.01,1729420428396.0,0.0
-2.055435,-6.80758,-0.244068,-109.480003,7.98,8.19,1729420428416.0,0.0
-2.464607,-8.922836,-1.844866,-89.040001,1.96,23.24,1729420428436.0,0.0
-2.486143,-9.281759,-1.545763,-41.09,-4.9,30.030001,1729420428456.0,0.0
-3.524628,-10.097712,-0.028714,6.65,-21.42,48.23,1729420428476.0,0.0
-7.345965,-14.4024,2.091327,15.61,-17.15,55.23,1729420428495.0,0.0
-8.549555,-18.008383,-4.055835,-38.360001,20.299999,5.88,1729420428516.0,0.0
-6.972685,-15.299707,-5.601598,-13.23,25.9,-27.719999,1729420428536.0,0.0
-5.094319,-11.562119,-0.468993,61.740002,-5.46,-38.150002,1729420428555.0,0.0
-3.84048,-11.31805,1.050449,57.610001,12.04,-58.099998,1729420428579.0,0.0
-4.206582,-5.876772,0.105284,26.67,42.07,-56.77,1729420428602.0,0.0
0.667598,1.87358,5.240282,133.0,-14.14,-30.940001,1729420428614.0,0.0
1.777867,-1.811367,13.954943,141.610001,-90.790001,29.120001,1729420428640.0,0.0
-3.134598,-7.678568,6.278766,-138.600006,52.639999,10.99,1729420428655.0,0.0
-4.04387,-10.392029,-2.553142,-153.369995,67.340004,9.87,1729420428680.0,0.0
-3.651447,-10.827522,-2.87378,-63.209999,0.49,32.48,1729420428695.0,0.0
-2.146362,-7.467999,-0.299103,17.219999,-42.91,59.220001,1729420428716.0,0.0
-3.823731,-8.11167,3.680161,48.790001,-37.52,69.440002,1729420428737.0,0.0
-8.54477,-16.364515,1.019342,18.34,-8.05,69.790001,1729420428756.0,0.0
-9.88475,-20.193029,-6.427122,-16.17,46.34,5.95,1729420428781.0,0.0
-7.618747,-14.72543,-6.73101,23.52,30.59,-16.1,1729420428796.0,0.0
-5.290531,-10.514063,-0.236889,90.370003,0.07,-32.060001,1729420428816.0,0.0
-4.398008,-8.834301,0.832702,80.080002,17.639999,-55.369999,1729420428910.0,0.0
-5.32403,-9.427721,2.050649,61.040001,42.84,-58.799999,1729420428918.0,0.0
-2.321038,1.739582,-1.816152,23.940001,25.549999,-51.52,1729420428918.0,0.0
0.660419,4.130012,9.090333,142.869995,-52.57,-16.450001,1729420428918.0,0.0
-2.067399,-6.329016,13.873586,23.379999,-44.73,9.31,1729420428919.0,0.0
-4.862216,-8.982656,4.960321,-148.470001,36.82,-6.23,1729420428938.0,0.0
-3.512664,-8.630912,-0.942772,-138.039993,-3.92,2.45,1729420428957.0,0.0
-2.361716,-6.556334,-1.505085,-86.029999,-47.950001,32.130001,1729420428980.0,0.0
-2.842674,-7.281359,-0.284746,-40.25,-44.66,39.060001,1729420428997.0,0.0
-5.496314,-9.896714,1.665405,-16.799999,-24.710001,50.049999,1729420429018.0,0.0
-7.685746,-15.079568,-1.816152,-33.110001,-28.0,51.869999,1729420429038.0,0.0
-6.922436,-18.467806,-7.197611,-52.220001,9.66,2.17,1729420429057.0,0.0
-6.687939,-14.928822,-5.852845,0.21,29.190001,-11.62,1729420429078.0,0.0
-5.850451,-11.169697,1.105484,67.900002,-1.47,-19.040001,1729420429097.0,0.0
-4.04387,-10.109675,0.519243,50.259998,10.57,-45.150002,1729420429117.0,0.0
-4.919643,-10.884951,-0.107677,30.59,53.760002,-60.549999,1729420429138.0,0.0
-4.074977,-0.325424,-0.265603,31.43,33.599998,-43.610001,1729420429157.0,0.0
0.332602,2.234896,11.643474,146.440002,-74.760002,-15.4,1729420429180.0,0.0
1.323231,-4.036692,14.658432,3.15,-67.480003,7.56,1729420429198.0,0.0
-3.309274,-7.73121,5.800202,-110.809998,42.700001,-8.4,1729420429217.0,0.0
-4.969893,-8.135597,-1.519442,-108.220001,49.700001,0.21,1729420429237.0,0.0
-2.880959,-8.293523,-3.586841,-60.900002,-26.110001,19.950001,1729420429257.0,0.0
-3.45045,-9.284152,-2.084148,-7.77,-28.280001,31.710001,1729420429278.0,0.0
-6.872187,-14.029119,-0.236889,35.209999,-11.76,46.200001,1729420429297.0,0.0
-8.465806,-18.91287,-2.821138,9.45,6.16,11.27,1729420429322.0,0.0
-6.91765,-13.222737,-4.496114,15.4,30.1,-20.65,1729420429337.0,0.0
-5.134997,-9.60479,0.196211,47.529999,-3.29,-30.799999,1729420429357.0,0.0
-4.266403,-11.073983,0.882952,18.9,21.91,-57.959999,1729420429377.0,0.0
-4.773681,-9.12144,1.442872,12.6,38.57,-55.510002,1729420429398.0,0.0
-0.047856,1.957329,4.682754,76.860001,-8.61,-35.139999,1729420429417.0,0.0
2.227718,-0.662812,11.75833,74.550003,-78.610001,6.37,1729420429438.0,0.0
-0.413958,-8.324631,10.535598,-57.189999,-3.71,-15.4,1729420429457.0,0.0
-2.943172,-9.047262,2.222932,-94.639999,31.85,-2.73,1729420429478.0,0.0
-2.172683,-7.592427,-1.859223,-61.18,-7.84,26.530001,1729420429497.0,0.0
-1.76351,-6.642475,-2.476572,-29.610001,-17.290001,43.610001,1729420429518.0,0.0
-5.024928,-8.82473,-0.378066,7.49,-9.1,52.150002,1729420429537.0,0.0
-9.918249,-15.883555,1.440479,27.23,-11.83,77.279999,1729420429557.0,0.0
-8.779266,-19.93939,-6.218946,-5.04,1.26,-3.5,1729420429577.0,0.0
-6.776474,-11.100305,-2.502892,49.279999,28.07,-50.400002,1729420429598.0,0.0
-3.830909,-10.554741,0.851845,65.800003,-6.09,-66.43,1729420429616.0,0.0
-4.486543,-9.537791,1.40698,52.009998,32.060001,-67.340004,1729420429637.0,0.0
-2.143969,3.0006,-0.363709,43.610001,22.82,-50.540001,1729420429657.0,0.0
2.847459,4.098906,9.083155,130.550003,-66.290001,-21.559999,1729420429678.0,0.0
2.108077,-5.300103,12.05504,0.35,-33.810001,4.34,1729420429698.0,0.0
-3.254239,-9.540184,7.429714,-71.540001,30.52,-7.42,1729420429717.0,0.0
-2.684747,-8.559127,1.0002,-90.370003,4.13,11.69,1729420429738.0,0.0
-0.430708,-8.327023,-0.574277,-69.019997,-63.98,49.07,1729420429756.0,0.0
-0.61017,-9.030513,-2.024328,-56.630001,-42.560001,53.689999,1729420429776.0,0.0
-4.632504,-12.459428,-3.062813,-21.91,-1.26,54.18,1729420429797.0,0.0
-9.84168,-18.424734,0.39003,64.260002,16.66,88.199997,1729420429817.0,0.0
-9.492328,-14.421541,0.629312,69.370003,-3.29,39.759998,1729420429840.0,0.0
-8.836694,-9.023334,-0.768096,21.98,36.610001,-19.530001,1729420429858.0,0.0
-6.125626,-10.083356,1.213161,15.54,28.84,-69.019997,1729420429877.0,0.0
-4.704289,-12.074183,1.641476,13.16,26.950001,-80.080002,1729420429897.0,0.0
-4.749753,-3.586841,1.416551,23.59,47.529999,-62.720001,1729420429917.0,0.0
0.038285,-1.004985,5.536992,114.239998,-21.210001,-32.41,1729420429937.0,0.0
0.102891,-3.084348,7.925028,77.910004,-23.24,-21.84,1729420429956.0,0.0
-2.553142,-3.759124,8.214561,11.13,14.42,-11.55,1729420429980.0,0.0
-1.318445,-5.398208,4.297509,-54.950001,-7.21,-1.82,1729420429996.0,0.0
-1.411765,-8.154739,1.095913,-82.739998,14.49,12.81,1729420430018.0,0.0
-3.383451,-10.9352,-0.775275,-72.239998,38.5,21.07,1729420430039.0,0.0
-3.95055,-10.853845,-1.019342,-16.309999,24.639999,32.689999,1729420430056.0,0.0
-4.34058,-9.760324,1.244268,34.09,-14.77,52.57,1729420430077.0,0.0
-5.410172,-12.643675,-0.524028,7.28,-10.78,45.150002,1729420430097.0,0.0
-8.549555,-19.61636,-1.885544,-15.54,22.540001,13.72,1729420430117.0,0.0
-6.946364,-16.914864,-2.347359,12.18,15.61,-14.35,1729420430138.0,0.0
-4.905287,-11.492726,0.859023,70.419998,-12.25,-23.73,1729420430157.0,0.0
-4.979464,-8.30788,2.455036,31.5,12.25,-49.630001,1729420430178.0,0.0
-2.127219,-2.120041,3.84048,61.040001,1.19,-47.18,1729420430196.0,0.0
-0.433101,-1.165305,7.896315,120.120003,-41.369999,-36.189999,1729420430218.0,0.0
-0.815953,-0.165105,8.51127,74.550003,-8.12,-20.370001,1729420430238.0,0.0
-1.969293,-4.096512,7.274181,-4.69,-9.52,2.66,1729420430256.0,0.0
-2.806781,-8.190632,3.584448,-133.910004,13.93,6.23,1729420430277.0,0.0
-3.04367,-10.738988,0.607777,-104.510002,13.72,17.219999,1729420430296.0,0.0
-3.57727,-9.054441,-0.150748,-40.599998,-15.33,39.48,1729420430317.0,0.0
-3.347559,-8.729016,0.136391,0.42,-42.0,55.650002,1729420430338.0,0.0
-6.314659,-15.81895,0.928415,-21.280001,-41.16,60.619999,1729420430357.0,0.0
-7.812566,-20.420349,-2.955136,-30.450001,19.460001,17.639999,1729420430377.0,0.0
-6.628119,-13.883157,-4.072584,-13.02,29.33,-4.41,1729420430397.0,0.0
-4.917251,-10.413565,0.476172,20.51,-0.28,-28.0,1729420430416.0,0.0
-4.177868,-11.243874,-0.399601,12.11,29.75,-63.139999,1729420430437.0,0.0
-5.240282,-11.679367,-0.87338,19.530001,61.529999,-69.230003,1729420430457.0,0.0
-3.57727,-0.260818,2.045863,49.700001,13.23,-32.34,1729420430476.0,0.0
-1.115055,0.315853,10.080962,123.620003,-51.52,-34.790001,1729420430496.0,0.0
-1.158126,-2.45025,12.55514,10.29,-16.17,-31.01,1729420430517.0,0.0
-1.804188,-3.617948,8.394022,-48.369999,-6.3,-20.16,1729420430540.0,0.0
-0.674776,-5.242674,2.012364,-109.620003,-13.65,-4.9,1729420430556.0,0.0
-1.337588,-7.642675,-0.098106,-125.090004,-5.74,17.43,1729420430577.0,0.0
-2.378466,-9.092726,-1.74676,-97.790001,2.17,37.59,1729420430597.0,0.0
-3.615555,-12.071791,-2.878566,-38.920002,-17.15,53.200001,1729420430615.0,0.0
-6.51087,-18.608982,-2.261217,-16.59,-5.11,43.82,1729420430644.0,0.0
-7.867601,-19.379471,-4.469792,-15.4,31.85,7.0,1729420430657.0,0.0
-5.84088,-13.672589,-3.024528,39.130001,25.48,-13.86,1729420430677.0,0.0
-5.213961,-10.813165,-0.198604,42.560001,22.610001,-40.040001,1729420430697.0,0.0
-5.108676,-5.058427,0.452243,25.48,36.610001,-53.970001,1729420430717.0,0.0
-1.832902,-2.878566,5.520242,125.860001,-0.98,-46.759998,1729420430738.0,0.0
-0.787239,0.248854,7.618747,88.620003,-12.04,-17.43,1729420430758.0,0.0
-0.504886,0.363709,11.837293,67.830002,-22.120001,-1.61,1729420430777.0,0.0
-1.651048,-5.4676,9.111869,-77.419998,-27.440001,15.05,1729420430796.0,0.0
-2.330609,-9.468399,0.959522,-171.009995,10.71,8.89,1729420430817.0,0.0
-2.758924,-10.102496,-2.29711,-114.029999,0.63,28.700001,1729420430839.0,0.0
-2.333002,-7.420143,-2.785245,-27.790001,-40.459999,54.389999,1729420430857.0,0.0
-3.053242,-11.526227,-2.569891,-2.24,-49.700001,70.769997,1729420430878.0,0.0
-9.394222,-23.475983,-3.35713,-21.0,-10.85,63.630001,1729420430897.0,0.0
-7.006185,-14.773287,-6.400801,-4.34,47.810001,-9.38,1729420430918.0,0.0
-5.761917,-10.432706,-2.359323,39.34,40.740002,-49.279999,1729420430938.0,0.0
-4.663611,-11.432907,-0.325424,45.990002,45.920002,-70.769997,1729420430956.0,0.0
-4.926822,-4.721039,0.949951,44.099998,37.869999,-53.900002,1729420430983.0,0.0
-0.959522,0.437887,5.800202,130.690002,-1.96,-47.529999,1729420430999.0,0.0
-0.696311,1.895115,10.238889,89.040001,-23.870001,-8.33,1729420431019.0,0.0
-1.074377,-2.311467,13.832907,-13.72,-18.549999,-9.8,1729420431038.0,0.0
-2.411965,-6.393622,6.494121,-135.800003,-20.440001,3.22,1729420431058.0,0.0
-2.837888,-8.839087,-0.727418,-159.949997,-4.06,8.05,1729420431078.0,0.0
-3.007778,-9.516255,-2.548356,-92.330002,-23.59,28.77,1729420431098.0,0.0
-2.553142,-9.209974,-3.672983,-37.380001,-50.400002,44.66,1729420431119.0,0.0
-4.867002,-15.558132,-3.98405,-31.01,-34.16,48.16,1729420431139.0,0.0
-8.80798,-24.603003,-5.733203,-14.42,6.72,27.860001,1729420431157.0,0.0
-7.508677,-16.802401,-5.960521,35.490002,30.450001,-10.64,1729420431179.0,0.0
-4.910072,-10.595419,-1.990828,84.139999,27.370001,-63.91,1729420431197.0,0.0
-4.587041,-10.827522,-0.935594,65.309998,50.959999,-74.830002,1729420431218.0,0.0
-1.864009,-1.18684,0.772882,79.239998,25.76,-61.32,1729420431239.0,0.0
0.136391,3.184847,8.276773,150.149994,-32.200001,-36.470001,1729420431258.0,0.0
1.213161,1.842474,14.244473,87.080002,-17.57,-22.469999,1729420431278.0,0.0
-2.210968,-4.618148,13.904692,-38.920002,-18.76,6.72,1729420431298.0,0.0
-3.148954,-7.54457,2.366502,-147.559998,7.84,10.78,1729420431318.0,0.0
-2.117648,-8.987441,-3.005385,-104.230003,-11.69,24.780001,1729420431339.0,0.0
-1.811367,-7.71446,-1.651048,-17.15,-47.110001,49.84,1729420431363.0,0.0
-1.801795,-8.506484,-0.882952,13.23,-52.5,64.75,1729420431378.0,0.0
-5.52742,-15.881163,-1.040878,-16.030001,-24.01,70.980003,1729420431397.0,0.0
-8.532805,-22.552353,-5.290531,-33.040001,35.91,28.139999,1729420431418.0,0.0
-7.331609,-16.491333,-6.128019,-4.62,51.73,-6.51,1729420431440.0,0.0
-5.326423,-12.569498,-3.52702,33.950001,34.09,-36.330002,1729420431457.0,0.0
-5.118248,-11.901899,0.189033,46.689999,46.549999,-60.34,1729420431479.0,0.0
-3.460021,-1.387837,-0.959522,32.27,41.720001,-53.48,1729420431497.0,0.0
-1.002593,3.586841,11.353944,135.520004,-30.799999,-37.73,1729420431518.0,0.0
-0.320638,-1.191626,14.349757,-27.09,-32.970001,-25.76,1729420431539.0,0.0
-1.938186,-5.079963,6.9344,-131.949997,-14.42,8.4,1729420431558.0,0.0
-1.787439,-5.915058,-0.021535,-152.669998,-11.41,18.059999,1729420431578.0,0.0
-1.507478,-6.343372,-3.998406,-106.68,-29.610001,45.290001,1729420431598.0,0.0
-2.883351,-10.8682,-7.786245,-81.830002,-31.219999,57.400002,1729420431617.0,0.0
-10.717452,-27.247072,-3.414558,-31.15,24.780001,52.920002,1729420431638.0,0.0
-8.630912,-21.851257,-6.26441,24.85,17.5,20.16,1729420431658.0,0.0
-6.608976,-10.841879,-4.524827,75.669998,25.34,-9.03,1729420431678.0,0.0
-5.572884,-9.74836,-1.526621,70.910004,44.59,-65.379997,1729420431697.0,0.0
-5.35753,-9.183653,3.002992,58.170002,36.82,-56.84,1729420431718.0,0.0
0.052642,3.452843,3.98405,80.779999,-0.77,-36.82,1729420431740.0,0.0
1.942972,4.127619,10.332209,108.5,-57.610001,1.33,1729420431757.0,0.0
-0.885344,-5.103891,12.638889,-39.619999,6.44,-4.55,1729420431778.0,0.0
-4.563113,-9.54497,5.615955,-145.320007,37.869999,-3.85,1729420431797.0,0.0
-3.76391,-9.310472,-1.024128,-146.089996,6.93,3.01,1729420431818.0,0.0
-2.87378,-6.618547,-2.438286,-75.18,-40.459999,31.15,1729420431841.0,0.0
-3.644269,-10.344172,-3.842873,-26.530001,-49.349998,38.849998,1729420431858.0,0.0
-6.635297,-19.613966,-5.278566,-23.66,3.57,11.69,1729420431878.0,0.0
-6.84108,-22.533211,-6.738188,-16.66,12.67,-13.58,1729420431898.0,0.0
-3.799802,-12.052648,-3.974478,45.57,-6.02,-5.6,1729420431917.0,0.0
-4.13719,-10.669596,-0.947558,52.360001,15.54,-33.389999,1729420431939.0,0.0
-4.488935,-12.763316,-1.325624,35.209999,54.040001,-68.669998,1729420431958.0,0.0
-3.29731,-8.547162,-1.153341,45.5,42.420002,-63.420002,1729420431982.0,0.0
-0.995414,-3.012564,3.806981,146.229996,-9.94,-43.610001,1729420431997.0,0.0
-1.304088,0.567099,11.064411,125.93,-34.720001,-11.83,1729420432019.0,0.0
0.29671,-0.208176,13.569696,38.990002,-36.400002,-23.59,1729420432039.0,0.0
-0.722632,-3.692125,7.037291,-95.340004,-19.6,-0.84,1729420432058.0,0.0
-1.617548,-7.080362,0.198604,-158.270004,17.08,0.35,1729420432078.0,0.0
-2.615355,-9.903893,-2.706282,-117.25,10.99,14.42,1729420432098.0,0.0
-2.68714,-8.30788,-3.084348,-49.84,-37.029999,44.240002,1729420432118.0,0.0
-1.567299,-10.360922,-4.711468,-28.07,-64.68,52.220001,1729420432139.0,0.0
-3.988836,-20.796022,-5.931807,-41.580002,-14.21,33.529999,1729420432157.0,0.0
-6.175875,-24.59104,-7.037291,-3.15,46.830002,-10.57,1729420432178.0,0.0
-6.022735,-11.696117,-2.940779,89.459999,39.970001,3.99,1729420432198.0,0.0
-5.513064,-9.619147,-1.45005,67.620003,39.27,-48.16,1729420432217.0,0.0
-3.086741,-2.368894,0.16989,63.91,33.18,-56.84,1729420432239.0,0.0
-1.89033,0.464208,10.995021,173.600006,-48.02,-19.530001,1729420432258.0,0.0
-0.887737,2.48375,13.450057,75.529999,-24.710001,-23.24,1729420432277.0,0.0
-1.672583,-1.607977,8.484949,-65.449997,-13.16,-5.25,1729420432297.0,0.0
-1.344766,-5.103891,2.292324,-152.039993,-9.38,8.26,1729420432318.0,0.0
-1.90708,-6.778866,-0.660419,-134.610001,-13.51,27.09,1729420432339.0,0.0
-1.634298,-7.54457,-4.362115,-94.290001,-21.91,45.57,1729420432357.0,0.0
-1.835295,-13.033704,-8.724231,-60.760002,-20.09,50.400002,1729420432379.0,0.0
-8.745767,-26.55076,-4.993821,7.49,1.12,58.59,1729420432397.0,0.0
-9.159724,-21.288942,-5.132604,54.740002,24.639999,23.030001,1729420432418.0,0.0
-5.9342,-10.109675,-2.699104,90.019997,4.76,-3.43,1729420432439.0,0.0
-5.079963,-11.574083,-0.725025,42.91,42.279999,-72.660004,1729420432457.0,0.0
-6.391229,-11.844472,2.172683,2.17,70.209999,-77.349998,1729420432477.0,0.0
-1.272982,-1.275374,2.694318,89.25,5.81,-54.110001,1729420432497.0,0.0
0.052642,2.026721,10.377672,120.540001,-38.779999,-27.719999,1729420432518.0,0.0
-0.471386,-2.545963,10.255639,44.029999,-13.23,-27.23,1729420432548.0,0.0
-0.689133,-5.675776,3.869194,-108.989998,-3.99,7.14,1729420432557.0,0.0
-0.256032,-7.51107,-0.701097,-108.779999,0.98,20.65,1729420432577.0,0.0
-0.208176,-7.257431,-2.289931,-59.010002,-24.57,55.02,1729420432597.0,0.0
-1.069592,-10.24846,-4.055835,-19.879999,-40.740002,73.43,1729420432618.0,0.0
-6.065805,-22.681566,-5.036892,-28.35,3.78,49.98,1729420432638.0,0.0
-11.69851,-30.192636,-6.352944,-2.1,57.68,-3.29,1729420432657.0,0.0
-8.336594,-16.25923,-5.091926,98.489998,25.549999,-18.41,1729420432678.0,0.0
-6.477371,-11.712867,-2.158326,91.629997,25.41,-78.330002,1729420432697.0,0.0
-2.725425,-0.150748,-2.313859,66.220001,24.01,-85.610001,1729420432717.0,0.0
-0.023928,2.524428,9.355937,212.100006,-71.889999,-49.84,1729420432746.0,0.0
0.20339,1.588834,11.370694,104.090004,-22.889999,-45.639999,1729420432756.0,0.0
-0.397209,-0.961915,9.513863,-5.81,-16.59,-19.040001,1729420432778.0,0.0
1.512264,-2.572284,4.508078,-101.989998,-36.68,3.5,1729420432798.0,0.0
1.117448,-5.84088,0.952343,-120.68,-12.6,30.940001,1729420432817.0,0.0
-0.942772,-7.676175,-0.023928,-87.43,13.93,49.98,1729420432838.0,0.0
-2.691926,-11.672189,-4.180261,-60.34,-10.22,66.57,1729420432857.0,0.0
-7.331609,-22.439888,-4.835894,-35.349998,14.21,53.41,1729420432878.0,0.0
-10.100104,-24.98107,-5.479564,-13.16,29.469999,4.13,1729420432898.0,0.0
-5.819345,-12.641282,-4.261617,64.610001,-1.33,-5.6,1729420432918.0,0.0
-4.792823,-9.980463,-0.902094,73.220001,16.73,-51.939999,1729420432938.0,0.0
-6.848258,-9.303294,2.433501,26.32,64.470001,-65.870003,1729420432957.0,0.0
-2.349752,-1.98365,3.460021,75.529999,21.84,-53.060001,1729420432983.0,0.0
-1.832902,-3.337988,8.444271,103.949997,-25.059999,-40.810001,1729420432998.0,0.0
-2.634498,-3.852444,9.052048,23.66,16.52,-50.889999,1729420433018.0,0.0
-1.143769,-2.419144,6.039484,-20.65,-28.210001,-28.280001,1729420433039.0,0.0
0.914058,-2.876173,2.79721,-52.220001,-56.700001,-5.95,1729420433058.0,0.0
-0.193819,-5.460421,1.462015,-55.790001,-35.0,15.75,1729420433078.0,0.0
-2.28036,-7.180861,0.452243,-33.18,-22.960001,28.42,1729420433098.0,0.0
-4.316652,-9.693325,1.411765,7.07,-37.52,49.209999,1729420433118.0,0.0
-5.032106,-13.753943,0.361316,-24.99,-41.93,14.35,1729420433139.0,0.0
-5.034499,-14.266008,-1.411765,-67.129997,-14.77,-1.96,1729420433159.0,0.0
-3.85723,-11.97847,-2.938386,-64.889999,-55.580002,-14.63,1729420433180.0,0.0
-1.859223,-10.15514,-2.098505,-63.77,-57.889999,-23.1,1729420433199.0,0.0
-1.179662,-11.306087,-1.488336,-39.34,-45.150002,-20.440001,1729420433220.0,0.0
-0.787239,-11.023734,-0.356531,-18.48,-33.040001,-34.02,1729420433250.0,0.0
-1.679761,-9.52822,3.388237,-0.84,-45.009998,-9.8,1729420433259.0,0.0
-0.870987,-9.322437,3.335595,-45.080002,-63.700001,-18.76,1729420433280.0,0.0
-1.227518,-10.076177,1.725225,-132.300003,-58.240002,-18.690001,1729420433298.0,0.0
-1.533799,-10.674382,1.11027,-180.180008,-62.299999,-9.59,1729420433319.0,0.0
-1.12702,-10.664811,-0.591027,-170.589996,-59.849998,-18.9,1729420433341.0,0.0
-0.519243,-8.236095,-3.074777,-176.190002,-57.189999,-29.75,1729420433358.0,0.0
-0.351745,-8.707481,-3.976871,-192.570007,-49.91,-26.67,1729420433379.0,0.0
-0.648455,-9.616754,-3.768696,-167.509995,-28.559999,-18.48,1729420433400.0,0.0
-1.18684,-10.351351,-2.770889,-111.300003,-4.55,-14.56,1729420433419.0,0.0
-2.100898,-9.052048,-1.194018,-126.209999,-17.5,-26.040001,1729420433449.0,0.0
-2.462214,-9.899107,-3.591627,-136.779999,-19.950001,-6.37,1729420433464.0,0.0
-1.529014,-8.836694,-5.833702,-99.470001,-19.460001,-3.22,1729420433480.0,0.0
-1.45005,-7.104291,-3.811767,-85.400002,-9.1,11.83,1729420433500.0,0.0
-1.708475,-7.752745,-6.352944,-91.419998,15.89,24.57,1729420433519.0,0.0
-1.974079,-9.736395,-10.370493,-130.270004,50.610001,-6.44,1729420433539.0,0.0
-3.981657,-16.7689,-6.221339,-14.98,45.43,22.889999,1729420433559.0,0.0
-2.11047,-10.803595,-3.067599,77.699997,52.990002,7.35,1729420433579.0,0.0
-1.438086,-6.89133,0.165105,98.910004,59.849998,11.13,1729420433599.0,0.0
-0.387637,-5.429315,3.235096,28.280001,36.189999,-2.52,1729420433618.0,0.0
1.040878,-7.298109,2.969493,-27.09,-7.91,5.81,1729420433639.0,0.0
1.167697,-9.58804,-1.538585,-39.27,-22.049999,10.85,1729420433658.0,0.0
-1.375873,-10.660025,-2.079363,-38.849998,19.6,2.1,1729420433679.0,0.0
-3.37388,-10.614561,-2.533999,-35.0,30.799999,-8.12,1729420433698.0,0.0
-3.17049,-9.68136,-2.151148,-21.629999,-19.25,-8.26,1729420433719.0,0.0
-1.411765,-9.753145,-6.865008,7.28,-74.550003,-1.54,1729420433740.0,0.0
-0.62692,-6.496514,-9.671788,-8.05,-59.57,-10.01,1729420433759.0,0.0
-1.76351,-4.48415,-15.622739,-57.68,-33.740002,-22.33,1729420433779.0,0.0
-3.663411,-7.460821,-14.825929,-55.720001,17.710001,-5.6,1729420433799.0,0.0
-3.510271,-10.777272,-7.121039,9.38,29.610001,-7.98,1729420433819.0,0.0
-2.761317,-10.9352,-2.09372,11.62,1.19,6.51,1729420433912.0,0.0
-1.11027,-10.289137,-5.563312,47.32,6.23,5.88,1729420433912.0,0.0
-0.301496,-8.84148,-6.769295,41.860001,46.830002,-11.27,1729420433912.0,0.0
-0.083749,-5.941379,-3.519842,19.950001,70.279999,3.08,1729420433913.0,0.0
0.253639,-7.800602,-1.895115,36.400002,36.189999,19.110001,1729420433919.0,0.0
0.29671,-8.755339,3.409772,4.55,24.780001,13.440001,1729420433944.0,0.0
-0.564706,-10.693524,3.369094,-3.57,3.08,13.440001,1729420433958.0,0.0
-3.144169,-10.951948,0.940379,-2.94,24.639999,-7.07,1729420433982.0,0.0
-3.460021,-8.939585,-4.819145,10.22,51.869999,-28.139999,1729420434000.0,0.0
-2.74696,-6.80758,-6.965507,1.05,-7.7,-24.780001,1729420434019.0,0.0
-1.351945,-6.886543,-4.993821,-6.86,-82.669998,-20.09,1729420434039.0,0.0
0.081356,-5.690133,-9.183653,10.08,-105.419998,1.82,1729420434060.0,0.0
-1.488336,-5.453243,-11.97847,-7.84,-90.580002,-32.830002,1729420434079.0,0.0
-4.055835,-4.218546,-11.014162,-132.649994,72.379997,-14.42,1729420434098.0,0.0
-4.534399,-14.512468,-5.462814,-99.400002,85.050003,1.19,1729420434119.0,0.0
-0.557528,-14.443078,-5.766702,-10.15,-27.58,38.709999,1729420434140.0,0.0
1.438086,-8.688338,-6.955935,104.370003,20.09,27.860001,1729420434158.0,0.0
1.337588,-6.443871,-6.276374,96.949997,63.700001,7.84,1729420434180.0,0.0
0.629312,-6.072984,0.078963,62.02,85.400002,18.27,1729420434198.0,0.0
-0.459422,-9.391829,4.606184,28.0,41.509998,17.290001,1729420434219.0,0.0
-1.208375,-10.923235,4.364508,-17.360001,13.16,-0.49,1729420434241.0,0.0
-2.651247,-9.413363,0.248854,-46.34,19.950001,-25.620001,1729420434258.0,0.0
-2.952743,-8.116454,-3.76391,-31.780001,13.79,-36.470001,1729420434279.0,0.0
-2.821138,-6.742974,-5.304887,-46.130001,-37.310001,-43.82,1729420434299.0,0.0
-1.024128,-5.008178,-6.972685,-67.129997,-86.379997,-35.279999,1729420434319.0,0.0
0.942772,-6.104091,-15.634703,-49.98,-134.119995,-22.33,1729420434342.0,0.0
0.741775,-4.218546,-8.958728,-62.510002,-121.520004,-35.84,1729420434359.0,0.0
-2.457429,-2.526821,-14.163116,-108.989998,42.279999,6.93,1729420434379.0,0.0
-4.599005,-13.493127,-9.164511,17.57,97.580002,23.379999,1729420434398.0,0.0
-4.735396,-16.895721,-5.962914,19.6,-8.54,43.889999,1729420434419.0,0.0
-0.655633,-11.205588,-7.783852,70.980003,36.259998,26.32,1729420434440.0,0.0
0.196211,-5.979663,-5.948557,82.32,58.170002,24.219999,1729420434459.0,0.0
-0.66999,-7.307681,3.730411,34.09,87.080002,27.09,1729420434479.0,0.0
0.574277,-10.980663,4.622933,4.2,5.74,23.379999,1729420434498.0,0.0
-0.468993,-11.172089,3.426522,-10.78,-33.040001,21.210001,1729420434519.0,0.0
-2.40718,-8.561519,-0.198604,7.49,16.799999,-10.57,1729420434541.0,0.0
-2.995814,-7.305287,-5.192425,9.8,34.09,-16.870001,1729420434572.0,0.0
-2.699104,-7.104291,-5.833702,-23.52,-37.099998,-20.719999,1729420434587.0,0.0
-0.425922,-6.833901,-7.240681,-14.56,-114.379997,-13.23,1729420434610.0,0.0
0.76331,-2.739782,-14.737395,-66.220001,-122.220001,-18.34,1729420434750.0,0.0
-1.366302,-5.649454,-14.395222,-80.849998,-39.549999,-22.68,1729420434750.0,0.0
-5.443672,-10.920842,-11.653046,-109.340004,112.139999,0.56,1729420434750.0,0.0
-5.359922,-15.117853,-5.893522,0.28,58.869999,10.01,1729420434751.0,0.0
-0.847059,-11.461621,-6.099305,91.209999,-24.01,23.52,1729420434751.0,0.0
1.59362,-7.74796,-5.974878,92.610001,-8.89,15.61,1729420434751.0,0.0
1.150948,-6.508478,-6.04427,52.849998,38.849998,9.1,1729420434751.0,0.0
0.394816,-5.448457,-0.356531,-5.32,95.690002,5.46,1729420434758.0,0.0
-2.048256,-8.489735,7.322037,-31.219999,44.380001,11.34,1729420434785.0,0.0
-2.756532,-11.389835,0.351745,-35.91,-19.460001,-5.88,1729420434797.0,0.0
-3.184847,-9.147761,-3.960121,-4.06,8.12,-34.09,1729420434819.0,0.0
-2.632105,-7.91785,-6.611369,9.66,-25.969999,-34.23,1729420434839.0,0.0
-1.294517,-5.709275,-6.302694,-3.5,-91.840004,-35.560001,1729420434865.0,0.0
0.337388,-3.122634,-12.394822,-12.74,-132.300003,-27.299999,1729420434880.0,0.0
-0.078963,-4.76411,-14.258829,2.38,-112.139999,-37.240002,1729420434900.0,0.0
-3.04367,-7.077969,-12.059827,-116.760002,17.85,-26.389999,1729420434918.0,0.0
-4.792823,-11.657832,-12.169895,-130.410004,86.940002,-19.040001,1729420434940.0,0.0
-2.708675,-12.796815,-6.575477,9.1,-5.74,16.17,1729420434961.0,0.0
0.488136,-9.999605,-6.802795,91.910004,-10.22,23.940001,1729420434981.0,0.0
-1.148555,-7.594819,-7.317252,69.019997,38.009998,3.08,1729420435985.0,0.0
-0.141177,-6.692725,-11.662617,27.51,-92.190002,-4.27,1729420436004.0,0.0
-0.468993,-4.275974,-16.139589,2.66,-135.380005,-9.94,1729420436021.0,0.0
-3.318845,-10.51167,-14.435899,-84.910004,-81.620003,-38.5,1729420436042.0,0.0
-4.500899,-15.608383,-0.744168,-139.440002,48.02,-11.83,1729420436060.0,0.0
-2.486143,-11.77508,-4.991428,100.940002,20.58,25.129999,1729420436081.0,0.0
0.174676,-5.680561,-6.903293,74.690002,25.549999,-3.71,1729420436100.0,0.0
1.423729,-4.13719,-5.003392,50.189999,23.799999,11.2,1729420436120.0,0.0
2.033899,-6.996613,-0.107677,54.670002,0.77,30.799999,1729420436141.0,0.0
1.753939,-8.295916,5.491528,35.279999,-0.98,34.439999,1729420436162.0,0.0
-0.026321,-7.970492,2.667997,20.790001,15.12,13.09,1729420436180.0,0.0
-2.778067,-7.432107,-0.760918,-51.59,62.16,-14.84,1729420436200.0,0.0
-4.63729,-8.456236,-5.862415,-81.059998,77.769997,-37.66,1729420436221.0,0.0
-4.565506,-8.506484,-6.723832,-37.66,-22.469999,-22.26,1729420436241.0,0.0
-1.184447,-8.60459,-8.324631,17.92,-122.57,4.13,1729420436260.0,0.0
-0.5001,-7.008578,-8.228917,-20.299999,-138.039993,-16.030001,1729420436281.0,0.0
-1.026521,-4.139583,-14.806787,-126.279999,-59.639999,-38.779999,1729420436300.0,0.0
-1.416551,-6.075377,-19.585253,-113.82,17.92,-20.51,1729420436321.0,0.0
-1.469193,-11.734402,-11.96172,46.549999,13.37,18.27,1729420436343.0,0.0
-1.993221,-12.619746,-0.184247,106.050003,19.6,22.469999,1729420436363.0,0.0
-1.445265,-8.647661,-4.606184,84.419998,55.860001,1.68,1729420436381.0,0.0
-0.122034,-6.259624,-5.201996,1.12,59.290001,-20.299999,1729420436401.0,0.0
0.859023,-7.515855,-1.59362,6.16,7.7,11.97,1729420436420.0,0.0
1.002593,-8.614161,4.053442,1.47,-9.31,21.42,1729420436443.0,0.0
-0.325424,-8.726624,3.67059,8.4,-9.38,12.39,1729420436461.0,0.0
-3.007778,-7.958528,1.275374,-16.59,39.41,-16.379999,1729420436482.0,0.0
-3.428915,-8.169096,-6.970293,-19.950001,55.02,-29.889999,1729420436500.0,0.0
-3.089134,-8.465806,-7.300502,-10.29,-34.439999,-16.940001,1729420436521.0,0.0
-0.0335,-6.58744,-7.034898,13.58,-126.349998,3.43,1729420436540.0,0.0
0.112463,-6.321837,-9.753145,-5.25,-129.009995,-3.08,1729420436560.0,0.0
-0.526421,-2.191825,-16.615761,-108.220001,-30.17,-27.65,1729420436581.0,0.0
-3.211168,-9.382257,-17.577675,-80.989998,86.730003,21.210001,1729420436600.0,0.0
-5.785845,-17.158932,-3.120241,10.01,63.349998,29.610001,1729420436619.0,0.0
-3.54377,-14.179866,-5.350351,69.790001,45.57,21.700001,1729420436641.0,0.0
0.0335,-6.721439,-6.888937,95.340004,32.48,2.45,1729420436664.0,0.0
1.885544,-3.84048,-7.156933,73.080002,20.790001,-1.89,1729420436680.0,0.0
2.074577,-3.273381,-0.51685,6.3,28.559999,22.33,1729420436700.0,0.0
1.09352,-9.956534,4.436293,2.17,-1.47,32.830002,1729420436720.0,0.0
-1.976472,-8.987441,3.582055,-29.469999,30.030001,-9.66,1729420436741.0,0.0
-3.546163,-8.745767,-4.539185,-61.25,77.699997,-41.09,1729420436760.0,0.0
-4.244867,-9.839286,-7.719246,-30.52,27.58,-50.889999,1729420436781.0,0.0
-1.942972,-7.525427,-8.202596,20.02,-111.370003,-20.299999,1729420436800.0,0.0
0.354138,-5.271388,-12.574283,17.710001,-161.770004,-24.5,1729420436827.0,0.0
0.55992,-2.392823,-15.821342,-76.860001,-134.75,-36.330002,1729420436840.0,0.0
-2.565106,-6.266802,-14.653646,-179.410004,51.029999,-12.11,1729420436859.0,0.0
-5.565705,-16.917257,-7.834101,-72.590004,129.919998,-6.3,1729420436882.0,0.0
-4.017549,-15.694524,-5.115855,66.010002,16.940001,13.16,1729420436900.0,0.0
0.129212,-7.623533,-6.037091,131.949997,15.4,19.879999,1729420436920.0,0.0
2.208575,-4.108476,-6.630512,117.739998,2.17,13.51,1729420436941.0,0.0
2.67039,-1.823331,-2.191825,25.9,24.639999,28.700001,1729420436960.0,0.0
1.600798,-5.955735,6.211767,-2.45,23.73,44.939999,1729420436983.0,0.0
0.689133,-10.997414,3.318845,-7.63,-3.57,36.119999,1729420437000.0,0.0
-3.474378,-10.066606,-2.091327,-37.59,29.82,-25.059999,1729420437020.0,0.0
-4.21376,-9.083155,-7.290931,13.23,52.5,-28.91,1729420437040.0,0.0
-2.388037,-7.034898,-7.740781,61.670002,-80.989998,-9.87,1729420437060.0,0.0
-0.303888,-5.79781,-13.445271,7.84,-159.180008,-20.719999,1729420437081.0,0.0
-0.526421,-3.445665,-15.16571,-122.709999,-115.43,-30.799999,1729420437100.0,0.0
-1.777867,-7.267002,-17.881563,-158.410004,43.400002,-20.09,1729420437121.0,0.0
-4.907679,-17.60639,-4.532006,22.610001,87.779999,18.969999,1729420437141.0,0.0
-3.608376,-14.045869,-4.84068,103.25,36.049999,12.04,1729420437160.0,0.0
-0.457029,-7.781459,-6.398407,106.050003,41.93,-3.57,1729420437183.0,0.0
1.732404,-4.41715,-7.410572,55.860001,18.9,-5.95,1729420437200.0,0.0
2.414358,-3.345166,-2.871387,-10.29,24.08,15.26,1729420437221.0,0.0
0.775275,-6.82433,8.650054,-23.52,10.43,29.469999,1729420437244.0,0.0
0.693919,-10.38485,4.996214,15.54,-10.08,22.610001,1729420437264.0,0.0
-2.275574,-8.492127,1.725225,-8.26,24.219999,-11.13,1729420437282.0,0.0
-2.866602,-7.302894,-8.047063,-35.77,55.09,-23.799999,1729420437304.0,0.0
-2.416751,-7.482357,-7.003791,-2.38,-66.5,-13.37,1729420437323.0,0.0
-0.014357,-7.9011,-10.712667,26.460001,-132.160004,10.15,1729420437346.0,0.0
-0.837488,-7.49432,-17.970098,-41.860001,-129.080002,-26.460001,1729420437363.0,0.0
-2.57707,-6.793223,-17.515463,-131.039993,52.080002,-12.6,1729420437385.0,0.0
-4.735396,-13.830515,-6.302694,7.49,99.330002,10.15,1729420437404.0,0.0
-3.613162,-12.229716,-3.290131,106.400002,19.809999,22.4,1729420437423.0,0.0
-0.581456,-7.752745,-6.302694,94.989998,26.32,7.0,1729420437443.0,0.0
0.928415,-4.852644,-7.412964,28.0,25.9,-0.14,1729420437462.0,0.0
1.162912,-4.991428,-4.697111,-19.530001,54.459999,17.01,1729420437483.0,0.0
-0.035892,-6.786045,5.151747,-31.360001,44.099998,22.75,1729420437505.0,0.0
0.320638,-10.896914,4.723432,11.13,-26.74,23.379999,1729420437523.0,0.0
-1.598405,-9.066404,2.57707,-7.63,-6.23,-7.14,1729420437551.0,0.0
-3.189633,-7.377072,-4.187439,-26.950001,44.380001,-28.700001,1729420437563.0,0.0
-4.0008,-8.726624,-6.673582,-26.880001,22.610001,-35.91,1729420437585.0,0.0
-2.37368,-7.219146,-6.898508,3.01,-84.419998,-14.91,1729420437603.0,0.0
0.722632,-3.957729,-15.737594,4.76,-144.550003,-8.4,1729420437627.0,0.0
0.636491,-1.105484,-16.362122,-111.370003,-68.32,-7.07,1729420437647.0,0.0
-1.892723,-11.05484,-11.882757,-88.690002,96.32,28.700001,1729420437663.0,0.0
-6.26441,-21.300909,-3.06042,10.78,89.809998,33.25,1729420437685.0,0.0
-3.285345,-13.076776,-5.522634,106.540001,42.420002,27.860001,1729420437702.0,0.0
0.404387,-4.575077,-7.996813,126.559998,29.540001,19.6,1729420437725.0,0.0
2.378466,-1.543371,-7.01097,59.779999,3.08,14.28,1729420437743.0,0.0
1.679761,-4.658825,1.229911,-1.82,13.37,41.02,1729420437763.0,0.0
-0.4666,-9.846465,6.733403,-4.27,11.97,38.360001,1729420437783.0,0.0
-2.57707,-10.648061,2.469393,-3.5,35.0,0.49,1729420437804.0,0.0
-4.031906,-9.571291,-4.151547,-41.860001,75.949997,-33.389999,1729420437823.0,0.0
-4.412365,-8.444271,-8.853443,-40.25,13.58,-43.400002,1729420437846.0,0.0
-2.548356,-7.314859,-8.860621,1.75,-89.599998,-32.200001,1729420437864.0,0.0
0.107677,-6.479764,-7.63789,62.860001,-136.990005,-20.09,1729420437883.0,0.0
-0.074178,-5.134997,-10.645668,42.91,-143.570007,-36.259998,1729420437905.0,0.0
-0.327817,0.732204,-14.098512,-112.559998,-43.75,-55.23,1729420437922.0,0.0
-2.184647,-4.862216,-12.270394,-167.089996,49.91,-16.309999,1729420437945.0,0.0
-4.828716,-21.339191,-4.795217,-77.699997,27.09,12.74,1729420437962.0,0.0
-1.548156,-13.971692,-6.948757,47.810001,3.15,5.04,1729420437986.0,0.0
0.112463,-6.486942,-9.456435,112.489998,45.990002,5.11,1729420438004.0,0.0
0.81356,-2.964707,-7.006185,106.260002,66.150002,3.43,1729420438025.0,0.0
0.107677,-1.804188,2.921637,47.529999,69.650002,35.139999,1729420438046.0,0.0
-0.09332,-7.558927,5.783452,45.920002,-23.24,49.420002,1729420438062.0,0.0
-0.591027,-10.82513,4.017549,-22.33,-16.73,10.15,1729420438085.0,0.0
-1.811367,-10.829915,-4.295116,-70.279999,59.220001,-22.610001,1729420438102.0,0.0
-3.103491,-9.123833,-8.367701,-63.209999,48.509998,-40.810001,1729420438123.0,0.0
-2.85703,-7.948956,-8.212167,4.83,-48.720001,-14.56,1729420438143.0,0.0
-0.251246,-5.522634,-5.496314,64.260002,-95.340004,-1.61,1729420438162.0,0.0
0.684347,-5.496314,-10.743774,45.779999,-143.5,-19.530001,1729420438185.0,0.0
-0.935594,-5.106283,-11.3683,-78.050003,-62.720001,-39.900002,1729420438205.0,0.0
-3.598805,-8.348558,-14.534004,-172.479996,105.07,-14.42,1729420438223.0,0.0
-5.4341,-18.410378,-6.403193,-12.18,47.670002,15.26,1729420438245.0,0.0
-2.342573,-13.103097,-6.068198,88.410004,7.98,29.540001,1729420438263.0,0.0
0.198604,-6.116055,-7.963314,122.639999,42.700001,18.76,1729420438285.0,0.0
1.555335,-1.730011,-4.027121,101.360001,38.849998,12.95,1729420438303.0,0.0
-0.162712,-5.034499,6.661618,26.6,28.07,47.740002,1729420438324.0,0.0
-0.244068,-10.226924,4.67079,7.21,-23.450001,26.74,1729420438343.0,0.0
-2.146362,-10.076177,0.531207,-45.080002,43.889999,-8.26,1729420438362.0,0.0
-2.725425,-9.564112,-7.372287,-36.189999,81.059998,-33.880001,1729420438385.0,0.0
-3.498307,-9.353544,-8.54477,-4.48,-15.05,-22.26,1729420438403.0,0.0
-1.050449,-6.041877,-6.410372,40.950001,-90.440002,-4.69,1729420438425.0,0.0
0.70349,-5.213961,-7.922636,44.59,-140.070007,-15.47,1729420438444.0,0.0
-0.308674,-5.168497,-13.306486,-68.18,-109.480003,-45.709999,1729420438464.0,0.0
-3.034099,-7.877172,-15.043676,-206.220001,76.790001,-36.470001,1729420438484.0,0.0
-5.802595,-18.056238,-8.193025,-79.800003,83.230003,-10.01,1729420438504.0,0.0
-2.679961,-14.476578,-6.108876,73.43,-6.3,16.870001,1729420438524.0,0.0
0.246461,-6.546762,-6.65444,126.349998,21.210001,8.47,1729420438543.0,0.0
1.543371,-2.423929,-7.757531,77.279999,34.650002,-4.69,1729420438565.0,0.0
1.20359,-1.904687,-1.421337,-24.219999,75.110001,15.54,1729420438585.0,0.0
-0.397209,-8.252845,5.718846,-30.799999,33.670002,36.82,1729420438604.0,0.0
-1.684547,-12.866207,3.371487,2.38,-14.98,23.66,1729420438625.0,0.0
-2.758924,-8.879765,-2.775674,-16.379999,34.439999,-24.43,1729420438644.0,0.0
-2.629712,-6.98465,-8.437093,-22.4,32.619999,-36.189999,1729420438662.0,0.0
-2.024328,-7.489535,-8.745767,2.66,-71.82,-23.379999,1729420438683.0,0.0
0.31346,-5.161318,-5.733203,12.46,-110.949997,-13.3,1729420438702.0,0.0
0.928415,-4.287938,-12.071791,-13.72,-136.149994,-18.83,1729420438722.0,0.0
-1.619941,-6.63769,-11.595619,-72.169998,-24.5,-25.549999,1729420438744.0,0.0
-5.393422,-12.969098,-14.464613,-94.43,140.419998,-4.55,1729420438762.0,0.0
-5.051248,-15.13221,-7.314859,37.52,34.720001,16.030001,1729420438782.0,0.0
-0.66999,-9.262616,-4.627719,131.949997,-12.32,30.940001,1729420438802.0,0.0
1.825724,-4.175476,-7.389036,107.660004,-2.38,14.7,1729420438823.0,0.0
2.112862,-3.249453,-5.422136,35.209999,34.09,18.41,1729420438915.0,0.0
0.701097,-4.852644,1.371087,-13.440001,77.0,43.68,1729420438916.0,0.0
-0.732204,-10.164711,5.52742,31.15,15.54,45.5,1729420438916.0,0.0
-2.15354,-12.500106,3.294917,29.33,12.46,8.82,1729420438916.0,0.0
-3.053242,-9.576077,-3.141776,-38.849998,59.57,-28.77,1729420438924.0,0.0
-3.022135,-8.286345,-7.302894,-40.110001,13.440001,-27.719999,1729420438943.0,0.0
-0.095713,-5.630312,-5.977271,-16.17,-93.239998,-3.43,1729420438962.0,0.0
2.330609,-4.56072,-9.760324,-4.27,-152.669998,-6.72,1729420438986.0,0.0
1.430908,-4.740182,-14.342579,-89.18,-141.960007,-19.18,1729420439003.0,0.0
-1.411765,-10.052249,-16.287943,-161.979996,88.410004,-0.42,1729420439023.0,0.0
-4.924429,-17.694923,-6.460621,-31.360001,105.699997,-0.49,1729420439044.0,0.0
-3.316452,-12.729815,-5.752346,73.779999,25.549999,11.2,1729420439064.0,0.0
-0.820738,-5.362316,-6.309873,89.25,23.379999,-1.75,1729420439083.0,0.0
0.248854,-2.806781,-7.700103,43.189999,26.18,-2.59,1729420439103.0,0.0
0.095713,-5.106283,-5.020142,-13.02,55.02,7.49,1729420439123.0,0.0
-1.378266,-7.858029,2.720639,-28.210001,55.16,25.48,1729420439144.0,0.0
-2.038685,-10.648061,3.555735,34.369999,9.17,37.450001,1729420439163.0,0.0
-3.120241,-8.590233,1.624727,23.379999,16.17,0.63,1729420439183.0,0.0
-4.304688,-8.439486,-5.175675,-39.830002,47.950001,-25.129999,1729420439203.0,0.0
-4.328616,-9.79143,-6.532406,-37.380001,-5.6,-27.09,1729420439224.0,0.0
-1.928615,-8.688338,-5.56092,32.900002,-94.919998,7.7,1729420439244.0,0.0
-0.306281,-4.759324,-14.423935,45.150002,-111.300003,9.59,1729420439263.0,0.0
-1.505085,-1.519442,-16.158731,-129.710007,-16.59,-25.76,1729420439283.0,0.0
-3.328416,-9.750752,-13.170096,-54.810001,58.170002,0.84,1729420439303.0,0.0
-3.680161,-14.325829,-2.545963,59.080002,22.889999,5.6,1729420439324.0,0.0
-1.76351,-11.193624,-5.745167,79.029999,6.93,13.51,1729420439346.0,0.0
0.519243,-5.893522,-8.044669,31.5,25.9,-17.08,1729420439364.0,0.0
1.194018,-4.326223,-6.843473,6.86,30.799999,7.56,1729420439385.0,0.0
1.495514,-6.494121,-0.035892,11.55,18.76,13.58,1729420439405.0,0.0
0.437887,-10.959127,4.625326,14.98,-4.41,34.02,1729420439425.0,0.0
-0.739382,-10.360922,2.706282,13.58,14.28,-2.87,1729420439447.0,0.0
-2.943172,-8.338986,-0.27996,13.65,52.080002,-19.25,1729420439464.0,0.0
-3.443272,-5.871986,-5.350351,-24.780001,51.450001,-27.09,1729420439484.0,0.0
-3.196811,-8.25763,-6.843473,-16.940001,-24.5,-10.01,1729420439506.0,0.0
-0.937986,-8.092526,-6.419943,4.2,-101.010002,8.05,1729420439526.0,0.0
0.267996,-5.936593,-10.748559,-12.18,-126.209999,-0.42,1729420439546.0,0.0
-1.277767,-4.206582,-16.342978,-142.449997,-61.670002,-25.969999,1729420439564.0,0.0
-3.498307,-10.875379,-10.731809,-77.209999,86.029999,8.75,1729420439591.0,0.0
-3.816552,-15.577275,-5.056034,34.860001,30.030001,15.4,1729420439603.0,0.0
-1.031307,-11.705689,-6.855437,91.980003,20.51,17.08,1729420439625.0,0.0
0.803988,-6.273981,-7.700103,81.760002,33.110001,3.43,1729420439646.0,0.0
1.378266,-4.924429,-5.264209,41.439999,51.310001,8.12,1729420439664.0,0.0
-0.48335,-4.589434,6.927221,-27.440001,44.66,24.360001,1729420439685.0,0.0
-0.327817,-10.861022,3.117848,-5.25,-18.129999,25.200001,1729420439706.0,0.0
-1.581656,-11.203196,1.832902,-14.07,13.86,-11.55,1729420439725.0,0.0
-2.885744,-8.403593,-3.345166,4.69,34.93,-21.91,1729420439744.0,0.0
-3.117848,-7.092326,-7.307681,-9.31,5.74,-29.610001,1729420439764.0,0.0
-1.823331,-5.584848,-7.051648,-3.92,-67.900002,-24.57,1729420439786.0,0.0
0.641276,-4.003192,-12.602997,9.52,-127.75,-5.53,1729420439804.0,0.0
-0.031107,-4.924429,-16.493725,-7.0,-130.970001,-28.280001,1729420439825.0,0.0
-2.667997,-6.558727,-12.416357,-117.879997,66.150002,-9.45,1729420439846.0,0.0
-5.953342,-15.28535,-7.264609,-49.279999,119.07,1.05,1729420439863.0,0.0
-4.103691,-14.869,-5.907879,66.010002,15.96,16.450001,1729420439886.0,0.0
1.009771,-5.249853,-6.924829,109.550003,9.94,6.72,1729420439905.0,0.0
1.421337,-3.845266,-6.563512,67.550003,15.89,13.09,1729420439925.0,0.0
1.253839,-4.922036,-2.833102,-12.53,69.580002,15.61,1729420439947.0,0.0
-0.473779,-9.662218,4.788038,-16.870001,53.130001,24.43,1729420439966.0,0.0
-1.596013,-13.926227,4.383651,30.940001,-3.57,14.84,1729420439987.0,0.0
-3.452843,-9.169296,2.952743,4.97,22.68,-23.450001,1729420440004.0,0.0
-3.120241,-6.644868,-4.546363,7.35,33.389999,-26.880001,1729420440024.0,0.0
-2.435893,-7.448857,-7.750352,13.79,-37.450001,-33.810001,1729420440045.0,0.0
-0.713061,-6.592227,-9.4349,8.4,-112.419998,-11.97,1729420440065.0,0.0
0.062213,-6.766902,-16.393229,-38.57,-147.350006,-33.389999,1729420440085.0,0.0
-1.603191,-5.855237,-12.669996,-134.539993,-24.290001,-33.810001,1729420440104.0,0.0
-4.12044,-11.645866,-10.784451,-107.449997,100.449997,-13.72,1729420440124.0,0.0
-3.649055,-13.545769,-5.99402,29.75,31.92,7.7,1729420440145.0,0.0
-0.325424,-9.367901,-6.101698,106.889999,5.46,20.370001,1729420440165.0,0.0
1.67019,-4.510471,-6.532406,75.669998,17.639999,11.83,1729420440186.0,0.0
1.849652,-4.457829,-5.752346,17.43,42.279999,20.51,1729420440204.0,0.0
-0.136391,-8.372486,5.900701,-64.75,73.639999,21.98,1729420440224.0,0.0
0.07657,-14.356936,3.151347,16.870001,-15.75,24.360001,1729420440245.0,0.0
-2.395216,-9.872787,2.78046,2.73,13.02,-12.39,1729420440263.0,0.0
-3.215954,-6.838687,-3.84048,-11.83,49.349998,-34.720001,1729420440286.0,0.0
-3.235096,-9.083155,-7.951349,-11.83,1.05,-42.77,1729420440306.0,0.0
-1.663012,-6.946364,-7.51107,4.13,-111.440002,-18.83,1729420440324.0,0.0
0.098106,-7.063612,-18.608982,-6.79,-153.860001,-28.91,1729420440344.0,0.0
-0.464208,-3.538985,-14.05544,-93.940002,-54.810001,-32.130001,1729420440365.0,0.0
-3.354738,-9.466006,-11.691331,-71.889999,89.669998,8.12,1729420440385.0,0.0
-3.711268,-14.711074,-5.206782,30.59,58.939999,6.86,1729420440404.0,0.0
-1.012164,-10.810772,-5.833702,92.120003,11.76,25.76,1729420440424.0,0.0
1.478764,-5.123034,-6.479764,85.470001,12.74,8.82,1729420440446.0,0.0
2.18704,-3.388237,-3.854837,35.279999,17.99,20.299999,1729420440465.0,0.0
1.708475,-3.964907,1.964507,-21.210001,28.139999,35.84,1729420440486.0,0.0
0.217747,-9.071191,5.472386,-40.950001,4.2,37.869999,1729420440503.0,0.0
-1.617548,-12.859028,0.839881,-48.860001,16.66,-1.75,1729420440525.0,0.0
-4.376472,-12.703495,-4.295116,-75.110001,62.16,-48.299999,1729420440546.0,0.0
-3.617948,-8.25763,-7.810174,4.55,7.42,-42.279999,1729420440563.0,0.0
0.172283,-4.965107,-8.683553,68.809998,-130.199997,-22.33,1729420440585.0,0.0
1.031307,-3.854837,-15.280564,10.15,-170.029999,-35.490002,1729420440603.0,0.0
0.260818,-0.579063,-16.019949,-131.740005,-35.700001,-35.91,1729420440626.0,0.0
-2.888137,-11.042876,-10.29153,-68.389999,117.879997,12.25,1729420440646.0,0.0
-4.835894,-17.651854,-3.361916,37.310001,65.660004,17.08,1729420440666.0,0.0
-1.426122,-11.973685,-6.754939,102.410004,26.74,21.280001,1729420440686.0,0.0
1.268196,-4.821537,-7.752745,94.290001,21.700001,8.89,1729420440703.0,0.0
2.313859,-2.100898,-5.079963,45.709999,20.02,24.290001,1729420440723.0,0.0
1.706082,-4.366901,2.830709,-2.73,31.57,42.98,1729420440745.0,0.0
0.803988,-10.224532,5.24746,-20.370001,10.01,44.939999,1729420440763.0,0.0
-2.036292,-12.433105,3.706482,-23.940001,25.27,8.54,1729420440784.0,0.0
-4.163511,-10.908878,-2.146362,-53.619999,56.77,-35.279999,1729420440804.0,0.0
-4.718646,-9.446864,-7.929814,-19.6,24.780001,-36.82,1729420440825.0,0.0
-1.993221,-6.606583,-8.006385,41.369999,-102.900002,-21.210001,1729420440846.0,0.0
0.413958,-4.666004,-12.327823,46.619999,-160.649994,-11.2,1729420440863.0,0.0
0.26321,-2.24686,-13.931013,-62.510002,-112.980003,-34.23,1729420440883.0,0.0
-3.34038,-11.028521,-15.601204,-162.119995,67.690002,-5.88,1729420440905.0,0.0
-4.752146,-17.278572,-3.897908,24.780001,35.84,21.07,1729420440924.0,0.0
-1.136591,-12.602997,-5.781059,98.07,11.9,24.85,1729420440946.0,0.0
1.493121,-5.465207,-6.989435,94.57,20.65,4.06,1729420440965.0,0.0
2.177469,-2.242075,-5.453243,44.799999,25.200001,10.29,1729420440987.0,0.0
1.167697,-3.962514,2.667997,-10.15,43.189999,32.549999,1729420441004.0,0.0
0.574277,-10.260423,4.642076,-17.219999,8.61,30.799999,1729420441026.0,0.0
-1.923829,-12.502499,3.629912,-23.73,12.6,2.31,1729420441046.0,0.0
-3.115455,-10.289137,-2.711068,-30.030001,41.93,-33.25,1729420441063.0,0.0
-3.237489,-8.413164,-8.02792,-15.54,12.04,-33.389999,1729420441085.0,0.0
-1.579263,-7.022934,-7.420143,28.559999,-89.32,-23.1,1729420441103.0,0.0
0.600598,-4.941179,-11.837293,41.580002,-134.050003,-13.51,1729420441123.0,0.0
0.162712,-4.0008,-16.144375,-27.09,-107.870003,-35.98,1729420441156.0,0.0
-3.378666,-7.003791,-12.969098,-132.720001,84.559998,-9.66,1729420441163.0,0.0
-5.886343,-17.321644,-7.575676,-35.77,119.980003,4.76,1729420441183.0,0.0
-2.916851,-13.871193,-6.343372,49.07,2.17,23.1,1729420441205.0,0.0
2.234896,-4.788038,-7.539784,99.470001,0.35,15.26,1729420441224.0,0.0
2.548356,-3.031706,-4.912465,31.290001,1.96,13.93,1729420441246.0,0.0
0.775275,-5.60399,4.04387,-17.43,63.07,29.4,1729420441263.0,0.0
-0.27996,-10.837094,4.754539,-5.39,20.02,23.030001,1729420441283.0,0.0
-2.586641,-11.380265,3.792624,11.2,13.65,-6.86,1729420441303.0,0.0
-3.034099,-8.171489,-2.615355,-2.17,29.75,-31.92,1729420441324.0,0.0
-3.194418,-7.21436,-7.491928,-14.14,1.61,-31.360001,1729420441344.0,0.0
-2.196611,-6.599405,-6.549156,3.64,-91.699997,-26.6,1729420441364.0,0.0
0.361316,-6.168696,-9.320045,3.64,-134.75,-19.950001,1729420441386.0,0.0
0.363709,-6.62094,-16.031912,-57.610001,-134.75,-41.369999,1729420441403.0,0.0
-1.749153,-7.932207,-16.031912,-101.639999,38.920002,-10.08,1729420441424.0,0.0
-4.141976,-14.624931,-9.336794,20.370001,86.239998,20.370001,1729420441444.0,0.0
-3.438486,-11.047661,-5.187639,83.510002,43.540001,24.710001,1729420441463.0,0.0
-0.634098,-5.462814,-6.101698,94.919998,39.759998,14.42,1729420441483.0,0.0
0.942772,-3.826123,-6.254838,39.759998,26.67,16.799999,1729420441504.0,0.0
1.237089,-3.507878,0.047856,-34.790001,38.5,33.040001,1729420441524.0,0.0
0.189033,-7.724032,9.047262,-16.450001,-0.77,52.920002,1729420441544.0,0.0
-0.928415,-12.315859,4.622933,16.870001,-31.360001,36.540001,1729420441565.0,0.0
-2.548356,-9.099905,-6.30748,-67.199997,58.380001,-28.84,1729420441585.0,0.0
-3.005385,-9.796216,-7.369894,-13.79,-22.049999,-17.710001,1729420441604.0,0.0
-0.533599,-7.372287,-6.814759,40.25,-127.330002,0.49,1729420441623.0,0.0
0.552742,-6.242875,-17.046469,10.29,-159.389999,-21.77,1729420441647.0,0.0
-0.66999,-2.818745,-14.964713,-138.180008,-43.119999,-38.43,1729420441664.0,0.0
-4.84068,-14.110476,-15.144175,-122.919998,130.059998,6.86,1729420441690.0,0.0
-6.482157,-19.683359,-5.860023,27.51,74.830002,9.59,1729420441705.0,0.0
-1.878366,-10.832308,-7.152147,152.880005,24.710001,25.34,1729420441723.0,0.0
1.368695,-3.273381,-5.864808,128.660004,12.95,-4.13,1729420441746.0,0.0
1.909473,-1.261017,-4.895715,43.75,16.73,9.24,1729420441763.0,0.0
1.088734,-4.015156,0.794417,-44.869999,72.730003,18.620001,1729420441783.0,0.0
-0.693919,-9.262616,7.585248,-33.599998,44.029999,24.85,1729420441804.0,0.0
-2.230111,-12.854243,5.752346,21.0,-16.24,15.12,1729420441823.0,0.0
-2.768496,-8.073383,-0.770489,-27.51,15.68,-33.459999,1729420441846.0,0.0
-2.244468,-7.479963,-9.224331,-33.389999,19.6,-32.48,1729420441864.0,0.0
-0.12682,-5.108676,-5.745167,-21.700001,-99.470001,-29.540001,1729420441884.0,0.0
0.287139,-9.08794,-11.8349,-40.459999,-174.440002,-21.0,1729420441906.0,0.0
-0.911665,-6.281159,-12.854243,-164.710007,-45.709999,-52.709999,1729420441925.0,0.0
-4.223332,-8.568698,-14.050655,-144.759995,74.690002,-14.28,1729420441945.0,0.0
-4.476971,-10.832308,-9.013763,8.61,32.549999,15.96,1729420441964.0,0.0
-2.89053,-9.781858,-6.489335,34.23,-3.92,14.63,1729420441988.0,0.0
