acc_x,acc_y,acc_z,gyr_x,gyr_y,gyr_z,timestamp,label
-9.812965,-21.774687,-6.364908,400.75,5.11,161.839996,1729471631197.0,0.0
-11.676974,-14.579469,-6.711867,620.059998,35.349998,122.43,1729471631198.0,0.0
-11.023734,-6.958328,-2.943172,619.220032,60.34,63.91,1729471631198.0,0.0
-11.210374,-2.392823,1.574477,501.059998,51.450001,25.059999,1729471631198.0,0.0
-10.444671,-2.742175,5.17089,256.059998,37.52,-36.540001,1729471631207.0,0.0
-7.192825,-4.563113,3.615555,1.89,-20.09,-69.440002,1729471631225.0,0.0
-2.845066,-5.056034,0.923629,-95.480003,-51.799999,-65.940002,1729471631244.0,0.0
0.150748,-6.496514,0.224925,-111.160004,-48.509998,-52.5,1729471631264.0,0.0
-0.741775,-8.25763,1.115055,-108.709999,-32.34,-33.110001,1729471631284.0,0.0
-4.206582,-8.822337,1.840081,-96.18,-14.28,-9.1,1729471631315.0,0.0
-6.431907,-8.037491,2.498107,-107.520004,-12.88,0.42,1729471631328.0,0.0
-6.752545,-6.687939,1.79701,-146.789993,-24.290001,-0.14,1729471631344.0,0.0
-5.900701,-7.594819,-0.512064,-161.839996,-30.59,-7.84,1729471631363.0,0.0
-5.312066,-9.468399,-2.306681,-137.899994,-18.690001,-14.77,1729471631384.0,0.0
-5.359922,-10.370493,-2.754139,-82.599998,1.33,-16.379999,1729471631404.0,0.0
-5.462814,-10.042676,-2.041078,-15.75,18.129999,-15.61,1729471631423.0,0.0
-4.965107,-8.69791,-0.4666,40.18,25.129999,-12.53,1729471631445.0,0.0
-4.553542,-7.977671,0.112463,34.790001,24.08,-13.37,1729471631462.0,0.0
-4.345366,-7.898707,0.222532,7.63,21.77,-14.0,1729471631483.0,0.0
-4.254438,-8.047063,-0.023928,-22.4,18.27,-14.49,1729471631505.0,0.0
-4.268795,-8.41795,-0.346959,-43.189999,14.98,-13.93,1729471631523.0,0.0
-4.359723,-8.415558,-0.497707,-50.119999,12.32,-11.48,1729471631554.0,0.0
-4.462614,-8.063812,-0.497707,-54.880001,9.03,-10.22,1729471631565.0,0.0
-4.661219,-7.716853,-0.306281,-74.410004,6.86,-11.13,1729471631584.0,0.0
-4.809574,-7.551748,-0.4666,-106.120003,3.78,-13.23,1729471631605.0,0.0
-4.855037,-7.398607,-0.894916,-141.610001,-0.35,-14.0,1729471631623.0,0.0
-4.893322,-7.286145,-1.65344,-177.309998,-5.74,-13.65,1729471631644.0,0.0
-4.886144,-7.252645,-2.586641,-210.699997,-11.55,-12.32,1729471631663.0,0.0
-4.98425,-7.24786,-3.699304,-237.089996,-16.59,-12.39,1729471631686.0,0.0
-5.000999,-7.752745,-5.146961,-241.290009,-20.09,-11.83,1729471631705.0,0.0
-4.922036,-8.693125,-6.02752,-205.940002,-19.25,-7.91,1729471631723.0,0.0
-4.867002,-9.032906,-6.07777,-131.25,-14.91,-3.22,1729471631745.0,0.0
-4.941179,-8.015956,-5.443672,-45.639999,-9.52,0.7,1729471631764.0,0.0
-4.972286,-7.274181,-4.828716,31.780001,-2.1,4.62,1729471631785.0,0.0
-5.075177,-6.898508,-4.249653,42.349998,2.31,6.65,1729471631805.0,0.0
-5.130211,-6.929615,-4.144369,29.610001,3.15,6.72,1729471631823.0,0.0
-4.996214,-7.133004,-4.187439,11.55,2.1,6.16,1729471631845.0,0.0
-4.862216,-7.202396,-4.39083,-0.35,1.82,5.67,1729471631863.0,0.0
-4.902894,-7.293324,-4.666004,-3.78,3.08,5.46,1729471631883.0,0.0
-4.838287,-7.424929,-4.768896,0.35,3.43,6.51,1729471631904.0,0.0
-4.835894,-7.252645,-4.737789,6.65,3.78,6.86,1729471631924.0,0.0
-4.886144,-7.305287,-4.675575,9.1,4.62,7.63,1729471631946.0,0.0
-4.962714,-7.429714,-4.733003,5.81,4.55,6.72,1729471631963.0,0.0
-4.890929,-7.518249,-4.883751,0.7,4.41,5.39,1729471631984.0,0.0
-4.895715,-7.601997,-5.161318,-2.73,4.34,4.62,1729471632004.0,0.0
-4.98425,-7.578069,-5.369494,-6.02,4.62,2.87,1729471632023.0,0.0
-5.125426,-7.712067,-5.886343,-15.47,7.14,-0.49,1729471632045.0,0.0
-5.166104,-7.67139,-6.463014,-34.09,10.99,-6.37,1729471632063.0,0.0
-5.166104,-7.379465,-6.482157,-65.590004,16.59,-13.16,1729471632083.0,0.0
-4.876573,-7.743174,-6.13759,-96.949997,25.690001,-17.780001,1729471632105.0,0.0
-4.326223,-7.759924,-6.436693,-110.669998,26.110001,-24.57,1729471632122.0,0.0
-4.127619,-7.484749,-7.171289,-105.489998,33.18,-28.42,1729471632145.0,0.0
-4.115655,-6.45105,-7.537392,-101.779999,41.299999,-29.75,1729471632165.0,0.0
-3.938586,-5.611169,-7.819745,-96.809998,44.310001,-23.309999,1729471632182.0,0.0
-3.661019,-5.469993,-7.913064,-90.790001,45.57,-14.7,1729471632204.0,0.0
-3.45045,-5.680561,-7.611568,-73.290001,49.349998,-5.46,1729471632225.0,0.0
-3.036492,-4.644469,-7.475177,-57.75,51.310001,-1.12,1729471632243.0,0.0
-3.132205,-4.06062,-7.580462,-60.900002,54.459999,4.69,1729471632263.0,0.0
-3.428915,-5.178068,-7.740781,-84.349998,55.860001,6.65,1729471632283.0,0.0
-3.275774,-5.886343,-8.245667,-94.080002,54.389999,1.19,1729471632304.0,0.0
-3.419343,-6.147161,-8.449057,-72.029999,55.09,1.75,1729471632324.0,0.0
-3.74716,-6.070591,-8.154739,-48.509998,56.700001,0.21,1729471632345.0,0.0
-3.9673,-6.046663,-7.929814,-36.259998,56.279999,-3.22,1729471632363.0,0.0
-3.684947,-5.84088,-7.898707,-27.440001,53.060001,-6.02,1729471632382.0,0.0
-2.861816,-5.328816,-8.006385,-16.66,46.41,-6.86,1729471632405.0,0.0
-2.167897,-5.084748,-8.298308,-4.27,41.790001,-5.11,1729471632423.0,0.0
-1.761117,-4.898108,-8.432307,8.12,41.439999,-3.01,1729471632444.0,0.0
-1.143769,-4.627719,-8.970692,16.17,39.619999,-0.07,1729471632463.0,0.0
-0.598206,-4.130012,-9.375079,12.88,40.389999,3.43,1729471632482.0,0.0
-0.662812,-4.780859,-9.590433,10.5,42.560001,7.14,1729471632505.0,0.0
-0.835095,-5.410172,-9.652647,16.379999,45.150002,3.57,1729471632524.0,0.0
-1.648655,-5.106283,-9.186047,28.98,51.66,0.77,1729471632543.0,0.0
-1.85683,-4.570292,-8.970692,36.959999,50.959999,-0.14,1729471632562.0,0.0
-1.550549,-4.165904,-8.810372,35.139999,46.27,0.28,1729471632583.0,0.0
-1.777867,-4.158726,-8.831908,15.54,46.34,-0.56,1729471632605.0,0.0
-2.062613,-4.895715,-8.690732,-9.1,49.349998,-0.49,1729471632623.0,0.0
-1.531406,-4.9675,-8.41795,-7.77,45.5,3.71,1729471632651.0,0.0
-0.875773,-4.759324,-8.013563,8.61,40.740002,11.27,1729471632663.0,0.0
-0.859023,-5.314459,-7.630712,17.99,37.450001,16.030001,1729471632685.0,0.0
-1.442872,-5.453243,-7.068398,28.07,35.0,21.210001,1729471632705.0,0.0
-1.799403,-5.156533,-6.774081,31.57,30.73,24.219999,1729471632723.0,0.0
-2.383251,-5.54417,-7.295716,29.33,24.290001,27.23,1729471632745.0,0.0
-3.397808,-5.661418,-7.211967,16.870001,19.74,21.35,1729471632764.0,0.0
-3.63709,-5.453243,-7.094719,7.14,14.63,13.16,1729471632784.0,0.0
-3.26381,-5.197211,-6.594619,2.17,6.02,5.46,1729471632807.0,0.0
-3.524628,-5.209175,-6.245267,6.93,-0.56,3.85,1729471632825.0,0.0
-3.708875,-5.156533,-6.948757,-12.32,-3.22,-3.85,1729471632845.0,0.0
-3.026921,-4.883751,-7.685746,-23.73,-10.43,-4.27,1729471632864.0,0.0
-2.768496,-5.13739,-8.324631,-14.98,-13.23,-0.84,1729471632885.0,0.0
-2.790031,-5.000999,-8.319844,1.33,-10.08,-0.56,1729471632907.0,0.0
-2.538785,-4.740182,-8.472985,14.63,-10.15,4.34,1729471632924.0,0.0
-2.225325,-5.328816,-8.755339,16.030001,-9.66,9.31,1729471632948.0,0.0
-2.440679,-5.367101,-8.41795,13.51,-4.69,8.12,1729471632966.0,0.0
-2.344966,-5.776274,-8.13799,11.41,-3.15,6.3,1729471632986.0,0.0
-2.227718,-5.986843,-7.860423,11.9,-2.94,1.82,1729471633007.0,0.0
-2.723032,-6.183054,-7.491928,10.43,-0.49,-2.38,1729471633025.0,0.0
-2.880959,-6.302694,-7.262216,15.75,-1.26,-5.88,1729471633045.0,0.0
-2.98385,-4.943572,-6.649654,19.530001,-5.46,-8.82,1729471633066.0,0.0
-3.180061,-5.151747,-6.738188,6.86,-10.22,-12.32,1729471633084.0,0.0
-3.462414,-5.716454,-7.295716,13.02,-16.870001,-10.36,1729471633109.0,0.0
-3.572484,-6.530013,-7.68096,33.18,-18.549999,-15.54,1729471633126.0,0.0
-3.034099,-6.530013,-7.133004,60.760002,-20.299999,-18.200001,1729471633147.0,0.0
-2.167897,-5.74756,-7.317252,90.019997,-30.030001,-11.69,1729471633165.0,0.0
-1.366302,-5.517848,-8.006385,71.050003,-34.860001,-9.1,1729471633185.0,0.0
-0.411566,-5.491528,-8.906086,10.92,-28.98,-8.68,1729471633207.0,0.0
1.119841,-6.786045,-9.777073,-23.450001,-28.630001,-5.32,1729471633225.0,0.0
2.622534,-7.84128,-10.205389,-32.130001,-23.309999,-9.52,1729471633246.0,0.0
1.89033,-8.142776,-9.944571,-18.059999,-5.81,-14.63,1729471633265.0,0.0
-0.086142,-7.06122,-9.202796,0.63,13.51,-17.43,1729471633286.0,0.0
-0.547956,-6.474977,-8.465806,0.91,21.700001,-23.73,1729471633308.0,0.0
-0.665205,-6.613762,-8.116454,4.41,27.65,-28.559999,1729471633326.0,0.0
-0.868595,-5.730811,-7.429714,29.049999,27.02,-28.210001,1729471633346.0,0.0
-1.155733,-4.905287,-7.101898,33.740002,21.700001,-23.799999,1729471633370.0,0.0
-1.663012,-4.658825,-6.472585,-5.81,18.200001,-18.41,1729471633385.0,0.0
-2.134398,-4.828716,-5.819345,-58.73,12.46,-14.0,1729471633407.0,0.0
-2.189433,-5.568098,-6.113662,-94.360001,1.61,-11.34,1729471633425.0,0.0
-2.036292,-5.699703,-6.742974,-101.150002,-6.86,-10.85,1729471633446.0,0.0
-1.732404,-5.613562,-7.45125,-93.800003,-12.88,-8.47,1729471633465.0,0.0
-1.48355,-5.393422,-7.740781,-80.989998,-16.450001,-5.88,1729471633486.0,0.0
-1.732404,-5.28096,-7.927422,-68.110001,-17.01,-2.17,1729471633516.0,0.0
-1.820938,-5.139783,-8.260024,-56.84,-17.85,-1.19,1729471633525.0,0.0
-1.567299,-5.190032,-8.796017,-44.73,-21.77,0.56,1729471633546.0,0.0
-1.301696,-5.371887,-9.075976,-32.759998,-23.1,0.14,1729471633565.0,0.0
-1.244268,-5.379066,-9.382257,-21.139999,-22.540001,2.66,1729471633586.0,0.0
-1.371087,-5.685347,-9.908678,-12.11,-19.18,1.68,1729471633609.0,0.0
-1.931008,-6.151947,-9.853643,-2.24,-10.78,-3.5,1729471633625.0,0.0
-2.033899,-6.391229,-9.686146,13.23,-7.0,-11.9,1729471633646.0,0.0
-1.974079,-6.52762,-9.659825,19.18,-1.61,-21.559999,1729471633666.0,0.0
-1.938186,-6.752545,-9.396614,24.639999,1.33,-30.1,1729471633685.0,0.0
-2.455036,-6.920043,-9.415757,48.299999,9.59,-41.09,1729471633706.0,0.0
-2.78046,-6.683154,-7.865208,68.110001,12.04,-50.82,1729471633727.0,0.0
-2.612962,-5.85763,-6.738188,92.959999,4.13,-54.040001,1729471633746.0,0.0
-3.09392,-4.922036,-3.316452,93.309998,-4.62,-50.330002,1729471633766.0,0.0
-4.278367,-5.426922,-3.993621,73.779999,-20.93,-45.080002,1729471633785.0,0.0
-4.534399,-6.599405,-5.35753,76.090004,-37.52,-42.84,1729471633806.0,0.0
-4.364508,-7.846066,-6.161518,93.730003,-52.5,-45.920002,1729471633825.0,0.0
-5.276174,-5.793024,-6.013163,79.590004,-58.939999,-53.27,1729471633846.0,0.0
-5.596812,-2.842674,-8.977871,20.370001,-60.34,-51.73,1729471633865.0,0.0
-3.591627,-4.527221,-10.626525,-20.860001,-57.260002,-31.85,1729471633885.0,0.0
-0.792024,-6.987042,-10.102496,17.290001,-43.470001,-10.99,1729471633907.0,0.0
-0.349352,-6.888937,-10.911271,98.910004,-17.290001,17.780001,1729471633925.0,0.0
0.260818,-4.290331,-9.949356,107.239998,4.9,35.560001,1729471633948.0,0.0
1.617548,-6.783652,-8.539984,56.91,17.360001,46.130001,1729471633966.0,0.0
2.95035,-10.028319,-5.168497,70.840004,24.99,54.18,1729471633985.0,0.0
4.12044,-6.795617,3.739982,74.970001,18.83,40.599998,1729471634009.0,0.0
-1.663012,-6.498906,4.149154,-3.64,-21.98,24.780001,1729471634025.0,0.0
-3.699304,-10.315458,-1.416551,-141.889999,-99.75,-14.14,1729471634046.0,0.0
0.253639,-3.431308,-6.656832,-185.360001,-154.699997,-49.07,1729471634065.0,0.0
-3.4672,-5.625526,-9.920642,-187.25,-142.729996,-39.549999,1729471634086.0,0.0
-9.265009,-6.951149,-19.101904,-131.180008,-87.919998,-41.02,1729471634108.0,0.0
-10.293922,-4.524827,-18.735802,2.38,-17.639999,-2.59,1729471634125.0,0.0
-1.579263,-2.510071,-13.39502,-12.95,-3.64,11.97,1729471634146.0,0.0
0.18664,-4.627719,-13.493127,-22.82,24.780001,32.759998,1729471634165.0,0.0
-2.160719,-6.350551,-10.186246,34.23,56.349998,47.389999,1729471634185.0,0.0
-1.18684,-5.094319,-6.695118,59.290001,63.209999,58.939999,1729471634217.0,0.0
1.129412,-11.468799,-1.019342,13.3,53.830002,44.099998,1729471634272.0,0.0
1.718047,-9.796216,4.465007,1.75,21.42,14.84,1729471634275.0,0.0
-1.718047,-6.417551,4.524827,-24.219999,-23.17,-14.49,1729471634276.0,0.0
-3.940979,-7.613962,-0.179462,-77.769997,-76.090004,-39.34,1729471634284.0,0.0
-1.12702,-1.438086,-6.814759,-159.389999,-132.229996,-82.040001,1729471634307.0,0.0
-2.880959,-2.639283,-14.124832,-181.860001,-128.940002,-74.970001,1729471634325.0,0.0
-9.848858,-4.359723,-20.118853,-121.169998,-71.68,-44.939999,1729471634345.0,0.0
-7.597212,-2.725425,-16.450655,13.51,-8.96,16.24,1729471634365.0,0.0
-1.914258,-3.26381,-13.210773,4.13,22.610001,27.370001,1729471634386.0,0.0
-1.919044,-5.556134,-10.870593,66.080002,40.25,32.970001,1729471634418.0,0.0
-1.019342,-4.570292,-6.802795,96.879997,46.27,46.130001,1729471634425.0,0.0
-0.734596,-10.566705,-3.268596,47.25,43.68,32.060001,1729471634447.0,0.0
-0.346959,-8.85105,-0.792024,50.75,23.17,8.75,1729471634465.0,0.0
1.083949,-5.828916,-1.586441,22.190001,-7.42,-14.7,1729471634486.0,0.0
-2.679961,-4.003192,0.684347,-25.27,-22.469999,-22.049999,1729471634517.0,0.0
-3.900301,-4.424329,-1.478764,-83.720001,-70.699997,-48.580002,1729471634525.0,0.0
-3.381058,-0.928415,-11.875579,-112.770004,-94.57,-59.5,1729471634545.0,0.0
-5.290531,-3.665804,-15.072391,-147.279999,-63.560001,-40.389999,1729471634565.0,0.0
-8.626125,-4.354938,-17.776279,-15.82,-19.6,-7.98,1729471634585.0,0.0
-7.575676,-2.354537,-14.615361,64.75,17.99,24.92,1729471634617.0,0.0
-1.840081,-1.368695,-11.186446,8.54,26.67,26.460001,1729471634625.0,0.0
-2.871387,-6.381658,-10.131211,26.67,40.32,31.92,1729471634646.0,0.0
-2.907279,-6.594619,-9.865608,84.910004,44.939999,41.23,1729471634665.0,0.0
-2.694318,-8.855836,-5.661418,102.760002,57.470001,31.710001,1729471634694.0,0.0
0.899701,-9.946963,-2.816352,22.4,24.780001,-2.87,1729471634709.0,0.0
0.069392,-5.123034,-1.866402,15.190001,9.31,-20.299999,1729471634725.0,0.0
-3.113062,-4.591826,-0.708275,-0.77,-10.15,-23.030001,1729471634746.0,0.0
-2.663212,-1.268196,-3.194418,-46.27,-57.889999,-38.639999,1729471634765.0,0.0
-4.130012,1.785046,-10.652846,-115.220001,-70.559998,-33.389999,1729471634785.0,0.0
-7.391429,-4.613362,-14.773287,-149.869995,-49.700001,-9.8,1729471634810.0,0.0
-9.602397,-3.538985,-16.027126,-22.75,-13.37,15.82,1729471634827.0,0.0
-6.958328,-1.385444,-12.413965,9.87,15.33,36.049999,1729471634846.0,0.0
-3.622734,-7.281359,-9.918249,-39.549999,24.639999,36.189999,1729471634866.0,0.0
-1.57687,-7.092326,-10.344172,42.209999,23.17,34.509998,1729471634886.0,0.0
-2.218147,-6.623333,-8.379664,69.090004,39.060001,36.049999,1729471634907.0,0.0
-1.349552,-10.222138,-3.895515,21.700001,37.52,23.309999,1729471634928.0,0.0
-0.818345,-8.54477,-2.074577,32.130001,16.59,-2.73,1729471634950.0,0.0
0.064606,-4.21376,-3.304488,36.330002,-6.86,-20.09,1729471634966.0,0.0
-2.172683,-3.366701,-2.347359,9.94,-11.97,-13.02,1729471634987.0,0.0
-4.45065,-0.459422,-8.003991,-51.310001,-43.75,-12.53,1729471635007.0,0.0
-6.132804,-1.974079,-11.349157,-94.5,-45.080002,-5.18,1729471635026.0,0.0
-8.032705,-5.627919,-14.682359,-82.459999,-28.0,-3.57,1729471635047.0,0.0
-8.228917,-1.39023,-14.866607,5.32,0.56,8.33,1729471635066.0,0.0
-4.405186,-5.142176,-12.031113,-24.639999,20.719999,18.200001,1729471635086.0,0.0
-2.900101,-7.152147,-11.440084,26.32,28.210001,20.440001,1729471635108.0,0.0
-3.062813,-6.072984,-9.98525,88.760002,41.580002,25.27,1729471635127.0,0.0
-2.100898,-7.735995,-7.49432,66.919998,45.009998,22.4,1729471635148.0,0.0
-1.811367,-7.944171,-3.129812,65.379997,40.740002,6.93,1729471635168.0,0.0
-1.22034,-3.287738,-3.256632,73.639999,16.66,1.47,1729471635186.0,0.0
-2.026721,-3.235096,-6.254838,68.879997,7.84,9.52,1729471635209.0,0.0
-2.498107,-5.632704,-9.262616,129.850006,4.34,22.4,1729471635227.0,0.0
-2.414358,-6.18784,-6.419943,225.820007,-1.54,25.9,1729471635247.0,0.0
-3.672983,-9.016156,-8.437093,316.399994,-13.86,21.77,1729471635267.0,0.0
-3.005385,-6.352944,-11.140982,479.850006,-16.73,50.259998,1729471635287.0,0.0
-4.177868,-5.07757,-3.369094,409.779999,36.330002,68.389999,1729471635310.0,0.0
-5.807381,-9.35833,-2.074577,307.089996,37.240002,52.150002,1729471635327.0,0.0
-5.929415,-10.430314,-1.155733,335.649994,28.42,53.760002,1729471635348.0,0.0
-3.601198,-6.015556,-0.002393,338.940002,24.710001,36.610001,1729471635367.0,0.0
-2.402394,-2.201397,4.055835,259.279999,21.280001,42.279999,1729471635388.0,0.0
-2.57707,-6.001199,5.515456,85.889999,6.23,40.18,1729471635415.0,0.0
-3.589234,-11.042876,3.871587,-83.300003,-28.77,21.0,1729471635427.0,0.0
-6.070591,-14.129619,-3.866802,-136.080002,-28.280001,4.62,1729471635448.0,0.0
-6.872187,-9.355937,-7.479963,-167.930008,1.19,-14.28,1729471635468.0,0.0
-5.948557,-5.52742,-3.096312,-214.970001,15.75,-16.030001,1729471635487.0,0.0
-4.06062,-6.290731,0.78006,-343.070007,-18.34,-41.580002,1729471635508.0,0.0
-3.821337,-6.867401,-5.376673,-479.429993,-15.61,-59.360001,1729471635527.0,0.0
-4.455436,-6.326623,-3.225525,-464.100006,-7.91,-46.689999,1729471635547.0,0.0
-5.020142,-4.922036,-5.639884,-447.51001,-2.8,-61.740002,1729471635566.0,0.0
-4.199404,-6.518049,-10.176675,-326.690002,-10.5,-32.689999,1729471635588.0,0.0
-3.778267,-1.174876,-6.623333,-240.940002,16.450001,-12.74,1729471635610.0,0.0
-3.323631,-3.4672,-10.762917,-313.670013,4.06,-21.84,1729471635627.0,0.0
-1.639083,-6.71426,-9.205189,-288.470001,-1.89,-32.759998,1729471635648.0,0.0
-0.394816,-10.545169,-8.267202,-171.220001,-12.25,-47.040001,1729471635667.0,0.0
0.404387,-12.30868,-8.906086,-34.580002,-35.700001,-70.840004,1729471635687.0,0.0
0.291924,-6.276374,-9.482756,132.930008,-44.310001,-53.619999,1729471635708.0,0.0
-2.845066,-6.326623,-5.962914,206.009995,-56.0,-18.690001,1729471635726.0,0.0
-5.87438,-4.426722,-7.008578,246.820007,-54.950001,-11.55,1729471635747.0,0.0
-9.157332,-6.350551,-10.810772,326.829987,-29.120001,32.689999,1729471635767.0,0.0
-8.260024,-8.712267,-9.609575,500.290009,-39.759998,78.120003,1729471635786.0,0.0
-9.123833,-7.76471,-9.10469,653.169983,-16.59,82.040001,1729471635808.0,0.0
-12.646068,-6.017949,-9.336794,627.690002,80.57,38.009998,1729471635827.0,0.0
-18.374485,-3.917051,-5.266603,444.360016,144.339996,11.76,1729471635847.0,0.0
-14.462219,-5.005785,-6.63769,193.690002,8.26,-23.450001,1729471635866.0,0.0
-9.001799,-9.595219,-6.333801,-26.880001,19.530001,-94.5,1729471635887.0,0.0
-3.993621,-9.281759,-9.473185,-95.129997,47.25,-101.010002,1729471635908.0,0.0
-2.28036,-4.883751,-5.927022,-26.389999,111.370003,-81.620003,1729471635927.0,0.0
1.392623,-11.74158,7.180861,-13.51,121.730003,-60.549999,1729471635951.0,0.0
4.876573,-7.283752,14.311473,-5.95,92.75,-39.759998,1729471635966.0,0.0
8.310273,-1.57687,15.89552,20.370001,42.560001,-20.93,1729471635987.0,0.0
3.321238,-4.354938,16.25923,-44.799999,-13.86,18.83,1729471636009.0,0.0
-2.201397,-8.269595,11.464014,-158.830002,-82.529999,25.969999,1729471636026.0,0.0
-3.474378,-7.329216,0.416351,-258.019989,-160.369995,19.809999,1729471636047.0,0.0
-5.417351,-6.228518,-13.619946,-356.579987,-178.919998,19.809999,1729471636067.0,0.0
-7.343572,-7.568498,-20.839094,-245.699997,-107.590004,10.85,1729471636086.0,0.0
-14.316258,-10.731809,-21.695724,-16.309999,-10.92,40.599998,1729471636108.0,0.0
-18.762121,-8.84148,-20.659632,111.720001,81.059998,31.710001,1729471636190.0,0.0
-9.585647,-4.103691,-12.830315,110.599998,36.68,-9.59,1729471636191.0,0.0
-3.503092,-6.309873,-11.614761,42.0,73.989998,-29.540001,1729471636191.0,0.0
-0.988236,-9.255438,-6.831509,59.849998,130.130005,-19.809999,1729471636191.0,0.0
-0.184247,-3.404987,9.930215,174.440002,141.820007,14.35,1729471636214.0,0.0
0.768096,-1.579263,18.072989,164.639999,91.489998,27.370001,1729471636229.0,0.0
1.311267,-4.876573,15.273388,97.090004,4.41,46.759998,1729471636248.0,0.0
-2.589034,-3.101098,15.14896,28.210001,-51.939999,65.309998,1729471636266.0,0.0
-4.692325,-14.294723,-6.470192,-106.120003,-136.220001,73.360001,1729471636287.0,0.0
-7.101898,-18.872192,-20.839094,-265.860016,-106.75,-24.290001,1729471636310.0,0.0
-6.613762,-15.16571,-16.737795,-226.029999,-85.75,-9.52,1729471636326.0,0.0
-6.98465,-5.508278,-13.60559,-12.95,-46.970001,-20.58,1729471636347.0,0.0
-12.528819,-1.086342,-15.543776,-9.03,67.199997,-36.959999,1729471636367.0,0.0
-11.882757,-8.51127,-12.547962,-96.18,84.489998,-34.720001,1729471636386.0,0.0
-7.436893,-8.252845,-12.691531,-65.029999,86.730003,-33.950001,1729471636410.0,0.0
-3.924229,-6.293124,-8.671589,42.139999,140.139999,-26.6,1729471636427.0,0.0
-1.828116,-5.398208,6.13759,141.680008,140.490005,0.63,1729471636457.0,0.0
-0.502493,-4.345366,12.093326,165.270004,115.709999,9.59,1729471636468.0,0.0
2.366502,-5.666204,14.189439,136.430008,30.380001,23.030001,1729471636487.0,0.0
-0.165105,-5.45085,13.35913,112.209999,-44.450001,41.790001,1729471636507.0,0.0
-2.9336,-6.333801,4.4339,35.07,-115.5,56.07,1729471636529.0,0.0
-4.414758,-10.435099,-9.454042,-104.230003,-159.460007,33.110001,1729471636548.0,0.0
-6.745367,-14.926428,-19.278973,-180.25,-114.940002,0.91,1729471636568.0,0.0
-10.82513,-12.727424,-18.080168,-83.230003,-30.940001,-8.54,1729471636586.0,0.0
-11.085947,-8.394022,-14.557933,101.709999,51.310001,-1.82,1729471636609.0,0.0
-3.888337,-4.572684,-10.545169,163.869995,31.5,-27.93,1729471636626.0,0.0
-2.603391,-7.590034,-10.502099,87.5,100.309998,-36.049999,1729471636647.0,0.0
-2.536392,-3.677768,-1.095913,167.089996,121.239998,-8.12,1729471636672.0,0.0
-2.072184,-1.622334,7.161718,230.089996,113.82,17.08,1729471636686.0,0.0
-1.253839,-1.021735,12.435498,87.290001,80.290001,8.4,1729471636709.0,0.0
-0.902094,-4.977071,12.655639,11.76,7.63,39.619999,1729471636726.0,0.0
-4.151547,-5.986843,10.578669,-14.7,-45.639999,46.970001,1729471636747.0,0.0
-4.553542,-8.080563,6.932007,-49.279999,-104.090004,62.510002,1729471636766.0,0.0
-1.672583,-13.277774,-5.943772,-107.940002,-153.860001,35.98,1729471636786.0,0.0
-6.958328,-14.876178,-11.688939,-225.680008,-98.279999,-15.05,1729471636809.0,0.0
-11.937792,-10.346564,-12.646068,-282.23999,-50.75,7.28,1729471636828.0,0.0
-8.135597,-7.91785,-17.068005,-107.379997,-30.17,5.46,1729471636874.0,0.0
-6.068198,-13.349558,-9.475577,88.970001,-1.54,-3.36,1729471636875.0,0.0
-7.415358,-5.996413,-4.134798,210.0,46.27,8.19,1729471636894.0,0.0
-8.319844,-3.723232,-6.15434,132.789993,45.990002,8.96,1729471636973.0,0.0
-6.943972,-15.857236,-3.120241,31.01,7.35,-22.26,1729471636973.0,0.0
-2.45025,-9.762716,0.815953,129.779999,9.66,-61.670002,1729471636973.0,0.0
-3.069991,1.019342,-2.677568,95.690002,26.110001,-21.07,1729471636973.0,0.0
-5.000999,-2.87378,-4.969893,-76.370003,33.529999,-14.35,1729471636987.0,0.0
-3.878766,-9.966106,-4.402793,-37.240002,23.73,3.85,1729471637010.0,0.0
-0.806381,-12.397215,-5.515456,-47.599998,35.84,-15.89,1729471637025.0,0.0
-0.535992,-10.841879,-3.364309,-94.290001,52.009998,-11.83,1729471637046.0,0.0
0.27996,-11.954542,0.567099,-8.12,54.110001,-13.02,1729471637065.0,0.0
-0.205783,-5.76431,6.888937,106.75,52.080002,0.63,1729471637086.0,0.0
-1.261017,-4.158726,8.949157,159.529999,22.4,28.280001,1729471637106.0,0.0
-2.495714,-5.261817,6.963113,139.369995,-15.4,47.25,1729471637125.0,0.0
-3.211168,-7.092326,3.287738,98.489998,-37.59,64.120003,1729471637146.0,0.0
-4.878965,-10.143176,1.538585,92.540001,-41.369999,81.340004,1729471637166.0,0.0
-7.401,-11.574083,0.196211,88.690002,-29.469999,82.459999,1729471637185.0,0.0
-7.616355,-12.849458,-1.562513,103.669998,-32.549999,68.459999,1729471637208.0,0.0
-4.936393,-15.306887,-6.197411,117.389999,-30.870001,61.040001,1729471637225.0,0.0
-5.225924,-10.944772,-8.700303,43.189999,13.23,13.58,1729471637247.0,0.0
-8.628519,-6.905686,-6.534799,-69.580002,81.760002,-8.19,1729471637266.0,0.0
-11.059627,-7.049256,-4.632504,-256.339996,71.959999,-35.279999,1729471637289.0,0.0
-6.644868,-7.422535,-3.718446,-371.48999,-32.970001,-93.660004,1729471637310.0,0.0
-4.888536,-6.463014,-2.952743,-361.829987,-29.82,-94.360001,1729471637328.0,0.0
-5.539384,1.548156,-1.600798,-451.850006,-9.94,-113.050003,1729471637347.0,0.0
-8.035098,-8.896514,-2.993421,-570.640015,-39.549999,-125.090004,1729471637365.0,0.0
-4.893322,-7.810174,-6.9679,-519.049988,-67.199997,-159.949997,1729471637387.0,0.0
-4.795217,-1.351945,-7.853244,-381.570007,-32.130001,-119.349998,1729471637414.0,0.0
-4.989035,1.100698,-9.399008,-359.450012,-13.37,-91.139999,1729471637429.0,0.0
-2.380858,-2.268396,-11.394621,-350.140015,0.07,-54.25,1729471637446.0,0.0
-1.887937,-9.224331,-12.468999,-250.25,5.88,-21.35,1729471637468.0,0.0
0.22014,-10.518847,-12.815958,-92.470001,9.1,-31.5,1729471637486.0,0.0
-1.024128,-5.577669,-10.703095,106.330002,20.02,1.82,1729471637507.0,0.0
-2.014757,-3.625126,-9.810574,208.600006,20.440001,7.49,1729471637525.0,0.0
-2.713461,-4.199404,-8.525627,247.589996,17.85,15.47,1729471637546.0,0.0
-3.122634,-5.429315,-7.996813,251.089996,21.559999,12.6,1729471637566.0,0.0
-3.26381,-5.948557,-7.630712,252.139999,24.92,14.49,1729471637585.0,0.0
-2.888137,-8.374879,-7.987241,286.720001,22.26,14.42,1729471637608.0,0.0
-1.155733,-5.749953,-8.355737,399.839996,20.51,20.299999,1729471637626.0,0.0
-0.119641,-4.699504,-12.629318,864.849976,11.13,117.32,1729471637646.0,0.0
-1.229911,-2.847459,-6.443871,935.200012,93.730003,71.540001,1729471637665.0,0.0
-4.536791,3.48395,2.825923,816.830017,124.809998,86.519997,1729471637686.0,0.0
-3.65384,3.567699,7.578069,534.169983,103.879997,94.639999,1729471637709.0,0.0
-4.993821,-4.685147,15.239887,189.139999,73.989998,49.209999,1729471637783.0,0.0
-8.939585,-10.143176,8.279166,-61.18,24.639999,38.849998,1729471637849.0,0.0
-6.539584,-13.617554,6.099305,-54.18,-18.48,46.060001,1729471637874.0,0.0
-3.416951,-9.932607,2.062613,-16.1,-18.620001,24.85,1729471637880.0,0.0
-4.912465,-11.557333,-0.394816,-11.2,-12.46,23.24,1729471637880.0,0.0
-7.88435,-12.289536,-0.131605,-60.200001,16.940001,-8.26,1729471637880.0,0.0
-7.334002,-10.669596,1.261017,-107.169998,20.860001,-23.59,1729471637881.0,0.0
-5.893522,-10.963913,3.694518,-174.440002,14.0,-46.27,1729471637881.0,0.0
-4.055835,-10.224532,-0.562313,-266.070007,-15.61,-85.75,1729471637893.0,0.0
-4.285545,-10.016356,1.239482,-308.980011,-9.03,-84.07,1729471637918.0,0.0
-4.503292,-7.896315,1.509871,-349.929993,-10.85,-89.809998,1729471637927.0,0.0
-4.208975,-6.599405,1.071985,-355.950012,-38.639999,-91.629997,1729471637948.0,0.0
-3.656233,-5.721239,-0.363709,-351.820007,-52.920002,-90.090004,1729471637965.0,0.0
-3.215954,-1.579263,-3.725625,-449.330017,-44.939999,-99.050003,1729471637993.0,0.0
-4.845466,-6.257231,-4.35733,-533.75,-35.490002,-90.019997,1729471638007.0,0.0
-4.352544,-4.962714,-6.372087,-527.52002,-29.049999,-89.389999,1729471638025.0,0.0
-4.979464,-5.099105,-7.008578,-388.920013,-30.309999,-48.650002,1729471638046.0,0.0
-4.079762,-2.880959,-8.822337,-309.540009,-29.4,-47.389999,1729471638065.0,0.0
-3.993621,-2.428715,-10.660025,-260.890015,-27.440001,-22.68,1729471638085.0,0.0
-4.180261,-7.06122,-12.083755,-204.960007,-12.95,-11.06,1729471638108.0,0.0
-2.617748,-10.502099,-13.617554,-104.790001,1.96,-23.870001,1729471638142.0,0.0
-2.313859,-7.063612,-11.440084,87.43,24.710001,-7.77,1729471638146.0,0.0
-4.371687,-4.161119,-9.377472,255.149994,37.450001,18.9,1729471638167.0,0.0
-4.13719,-4.412365,-8.123632,304.149994,33.880001,14.35,1729471638185.0,0.0
-2.749353,-4.41715,-7.408179,296.23999,18.48,-1.33,1729471638206.0,0.0
-2.342573,-5.381458,-8.276773,291.549988,16.379999,1.61,1729471638226.0,0.0
-1.189233,-4.790431,-7.582855,393.049988,7.7,32.200001,1729471638249.0,0.0
0.392423,-4.981857,-8.085347,590.869995,-2.87,82.949997,1729471638266.0,0.0
1.201197,-3.885944,-4.223332,686.280029,59.150002,59.43,1729471638290.0,0.0
-1.550549,-0.55992,3.282953,605.780029,96.32,103.529999,1729471638312.0,0.0
-2.143969,-3.684947,8.38445,354.480011,76.580002,86.379997,1729471638328.0,0.0
-8.118847,-8.709875,15.03889,27.02,38.639999,60.830002,1729471638350.0,0.0
-9.513863,-13.706088,6.15434,-193.479996,-11.27,17.01,1729471638368.0,0.0
-4.244867,-12.15554,2.809174,-239.610001,-53.130001,-0.56,1729471638388.0,0.0
-0.55992,-10.267602,0.914058,-244.649994,-60.900002,-19.74,1729471638411.0,0.0
-2.012364,-6.994221,1.971686,-304.570007,-58.939999,-27.02,1729471638427.0,0.0
-4.768896,-5.436492,0.143569,-358.049988,-71.050003,-27.790001,1729471638449.0,0.0
-5.845665,-5.407779,-6.683154,-382.059998,-100.660004,-30.73,1729471638468.0,0.0
-7.329216,-8.537591,-10.8682,-297.850006,-94.849998,-26.110001,1729471638487.0,0.0
-9.499505,-8.563912,-11.193624,-152.740005,-46.27,-30.309999,1729471638511.0,0.0
-11.425728,-5.860023,-10.729417,-60.41,8.96,-21.559999,1729471638529.0,0.0
-9.257831,-8.037491,-10.963913,-38.360001,39.970001,-23.030001,1729471638548.0,0.0
-4.646862,-4.256832,-8.556733,-18.83,51.52,-30.1,1729471638568.0,0.0
-3.929015,-6.240481,-8.269595,-45.709999,83.160004,-12.32,1729471638595.0,0.0
-1.605584,-8.477771,-8.02792,-42.490002,89.459999,-7.84,1729471638610.0,0.0
0.808774,-7.704889,-0.569492,17.15,94.779999,15.26,1729471638627.0,0.0
0.961915,-5.912664,6.955935,38.150002,85.470001,26.6,1729471638648.0,0.0
0.674776,-9.580862,7.106683,17.780001,39.970001,32.830002,1729471638667.0,0.0
0.401994,-11.413764,4.003192,12.53,-8.47,31.710001,1729471638687.0,0.0
-1.320838,-8.953942,2.074577,-18.690001,-35.209999,22.26,1729471638709.0,0.0
-1.083949,-9.004191,-1.648655,-92.050003,-82.25,8.4,1729471638727.0,0.0
-3.457629,-9.097511,-7.020542,-159.669998,-106.050003,-12.25,1729471638748.0,0.0
-6.171089,-7.262216,-14.254045,-171.430008,-100.379997,-26.880001,1729471638768.0,0.0
-10.047462,-8.750552,-17.123037,-97.160004,-47.529999,-30.66,1729471638796.0,0.0
-12.217752,-10.210175,-18.190239,18.76,19.389999,-35.209999,1729471638814.0,0.0
-7.240681,-6.441479,-12.562319,136.5,34.580002,-29.33,1729471638835.0,0.0
-2.057827,-2.840281,-10.095319,140.559998,40.740002,-35.07,1729471638848.0,0.0
-1.993221,-3.536592,-9.535398,94.639999,85.610001,-19.460001,1729471638867.0,0.0
-2.778067,-5.096712,-8.193025,117.25,113.610001,7.35,1729471638889.0,0.0
-1.789831,-5.041678,6.860222,133.630005,113.889999,21.42,1729471638911.0,0.0
-1.079163,-8.614161,8.085347,135.869995,48.580002,29.469999,1729471638928.0,0.0
-0.602991,-7.436893,5.754738,116.690002,-2.73,28.630001,1729471638951.0,0.0
-2.830709,-7.176075,3.189633,25.690001,-28.77,26.74,1729471638967.0,0.0
-1.421337,-9.090333,-1.469193,-87.43,-64.68,12.18,1729471638987.0,0.0
-1.579263,-10.837094,-5.106283,-97.790001,-78.82,9.38,1729471639010.0,0.0
-4.522435,-13.29213,-8.204988,-27.719999,-60.830002,15.68,1729471639028.0,0.0
-7.573284,-10.011569,-10.181459,70.980003,-37.869999,17.5,1729471639158.0,0.0
-8.580662,-9.693325,-9.480364,107.379997,-17.360001,13.58,1729471639158.0,0.0
-5.199604,-8.49452,-6.927221,37.799999,18.76,-15.47,1729471639158.0,0.0
-2.344966,-6.996613,-6.884151,20.299999,13.58,-30.309999,1729471639158.0,0.0
-3.68734,-7.487142,-7.290931,48.650002,17.710001,-31.780001,1729471639159.0,0.0
-3.828516,-6.24766,-6.410372,72.870003,52.220001,-23.940001,1729471639170.0,0.0
-2.9671,-4.383651,-0.509671,83.440002,71.330002,-14.07,1729471639186.0,0.0
-2.794817,-8.197811,1.875973,21.700001,67.970001,3.92,1729471639208.0,0.0
-1.706082,-7.405786,6.180661,50.959999,46.27,10.64,1729471639283.0,0.0
-3.067599,-8.161918,4.706682,109.480003,22.68,18.76,1729471639284.0,0.0
-0.923629,-8.965906,3.15374,58.73,-6.09,22.469999,1729471639287.0,0.0
-0.768096,-10.463813,0.497707,-56.209999,-65.029999,24.85,1729471639311.0,0.0
-3.723232,-13.612768,-3.9338,-98.629997,-67.620003,5.39,1729471639327.0,0.0
-4.871787,-8.879765,-7.881958,-116.550003,-59.849998,-10.01,1729471639347.0,0.0
-5.570491,-6.788438,-9.066404,-84.349998,-49.139999,14.42,1729471639366.0,0.0
-7.460821,-7.491928,-7.829315,-40.950001,-19.110001,9.94,1729471639386.0,0.0
-8.597411,-11.519048,-8.269595,60.27,6.65,15.26,1729471639407.0,0.0
-5.69731,-8.245667,-6.094519,115.849998,0.28,2.87,1729471639428.0,0.0
-4.639683,-7.003791,-1.627119,96.32,-0.28,5.74,1729471639452.0,0.0
-3.132205,-11.057234,-2.605784,66.849998,-17.92,-4.41,1729471639466.0,0.0
-3.125026,-9.296116,-0.705883,104.160004,-4.06,-11.41,1729471639487.0,0.0
-4.189832,-3.23031,-1.667797,42.0,11.06,-21.07,1729471639508.0,0.0
-3.98405,-7.243074,-4.328616,-56.560001,5.67,-12.88,1729471639529.0,0.0
-2.495714,-8.745767,-7.025328,-85.470001,10.15,-19.25,1729471639548.0,0.0
-2.598605,-10.573883,-4.917251,-52.5,26.74,-9.94,1729471639566.0,0.0
-3.718446,-11.162518,-3.759124,23.17,24.219999,-14.07,1729471639586.0,0.0
-2.541178,-8.38445,-4.41715,44.450001,30.66,-22.26,1729471639609.0,0.0
-2.464607,-7.530212,-3.180061,29.26,35.0,-16.59,1729471639628.0,0.0
-3.261417,-7.336394,-2.311467,-3.99,56.0,-17.5,1729471639647.0,0.0
-2.15354,-7.757531,-1.237089,-7.07,55.650002,-14.84,1729471639667.0,0.0
-1.155733,-6.9679,2.333002,42.700001,56.07,6.44,1729471639686.0,0.0
-1.438086,-7.015756,3.78066,100.239998,52.57,30.380001,1729471639708.0,0.0
-3.498307,-8.501699,7.436893,145.389999,32.830002,45.150002,1729471639727.0,0.0
-4.692325,-8.216952,6.776474,159.880005,9.03,47.32,1729471639748.0,0.0
-4.295116,-8.556733,5.362316,131.809998,-16.24,47.880001,1729471639767.0,0.0
-3.926622,-9.269794,3.972085,76.650002,-24.08,43.82,1729471639788.0,0.0
-4.76411,-10.676775,1.883151,0.07,-26.110001,28.91,1729471639809.0,0.0
-5.79781,-11.894722,0.052642,-60.760002,-33.950001,25.27,1729471639827.0,0.0
-4.378866,-14.18226,-5.087141,-77.699997,-43.400002,11.06,1729471639848.0,0.0
-3.620341,-15.661024,-6.647261,-82.669998,-29.26,-20.23,1729471639866.0,0.0
-3.591627,-9.540184,-7.389036,-80.5,4.97,-32.200001,1729471639887.0,0.0
-5.809773,-6.525227,-3.818945,-91.349998,24.710001,-28.42,1729471639909.0,0.0
-6.56112,-5.912664,-2.679961,-176.539993,7.7,-38.639999,1729471639926.0,0.0
-5.496314,-8.200203,-1.926222,-191.520004,-22.190001,-49.91,1729471639951.0,0.0
-4.323831,-8.070991,-1.397408,-201.809998,-39.060001,-60.689999,1729471639974.0,0.0
-4.522435,-4.931608,-1.165305,-249.619995,-35.700001,-66.360001,1729471639986.0,0.0
-5.469993,-2.388037,-2.629712,-360.920013,-33.459999,-74.129997,1729471640009.0,0.0
-5.883951,-3.596412,-5.998806,-511.559998,-51.170002,-91.419998,1729471640028.0,0.0
-3.4672,-4.180261,-11.274981,-562.380005,-57.049999,-95.970001,1729471640048.0,0.0
-2.490928,-4.941179,-9.513863,-425.320007,-32.48,-60.549999,1729471640067.0,0.0
-3.199204,-3.206382,-10.19821,-275.730011,-9.52,-45.150002,1729471640088.0,0.0
-3.486342,-2.63689,-11.413764,-199.430008,-2.24,-31.85,1729471640108.0,0.0
-2.337788,-5.539384,-12.205789,-164.710007,-1.75,-18.969999,1729471640127.0,0.0
-1.117448,-7.834101,-13.351951,-79.239998,11.62,-17.219999,1729471640148.0,0.0
-1.330409,-5.869594,-8.630912,40.110001,20.09,-12.32,1729471640167.0,0.0
-1.555335,-6.771688,-8.982656,110.459999,16.030001,-7.56,1729471640188.0,0.0
-0.624527,-6.778866,-8.939585,173.389999,13.65,-8.61,1729471640209.0,0.0
-0.229711,-4.615755,-8.133204,243.529999,15.96,-6.86,1729471640227.0,0.0
-0.588634,-3.706482,-6.503692,239.960007,24.99,9.31,1729471640248.0,0.0
-1.227518,-5.240282,-6.199803,180.180008,28.42,19.879999,1729471640268.0,0.0
-1.351945,-7.948956,-6.932007,164.220001,25.27,25.9,1729471640288.0,0.0
-1.5003,-9.509077,-7.702496,218.610001,24.290001,30.73,1729471640309.0,0.0
-0.949951,-9.755538,-7.652246,326.269989,23.17,39.900002,1729471640328.0,0.0
1.794617,-6.295516,-8.80798,546.419983,5.32,69.440002,1729471640348.0,0.0
1.069592,-8.389235,-7.712067,829.570007,26.530001,112.629997,1729471640369.0,0.0
-1.397408,-2.15354,-5.364708,813.330017,94.360001,55.23,1729471640388.0,0.0
-6.63769,-0.191426,11.52862,659.049988,118.370003,94.919998,1729471640409.0,0.0
-13.052847,-0.179462,13.205987,173.110001,85.400002,49.700001,1729471640428.0,0.0
-8.135597,-8.061419,4.266403,-217.770004,-11.97,-4.76,1729471640449.0,0.0
0.636491,-13.990833,-0.394816,-198.800003,-67.410004,-11.2,1729471640470.0,0.0
0.914058,-14.215759,-0.437887,60.060001,-10.5,34.16,1729471640490.0,0.0
-7.104291,-6.750153,3.809374,234.080002,50.82,35.700001,1729471640512.0,0.0
-5.79063,-6.350551,3.629912,133.910004,18.620001,31.5,1729471640530.0,0.0
-2.955136,-9.454042,0.193819,15.47,-9.87,9.94,1729471640550.0,0.0
-3.402594,-10.638489,0.208176,-9.66,11.27,6.93,1729471640570.0,0.0
-4.713861,-9.243474,3.739982,50.330002,23.66,17.360001,1729471640589.0,0.0
-5.237889,-7.733603,5.704489,63.279999,14.21,17.360001,1729471640612.0,0.0
-4.934,-7.121039,4.529613,11.2,-8.33,10.85,1729471640629.0,0.0
-4.443472,-7.166504,3.57727,-23.940001,-21.77,8.89,1729471640650.0,0.0
-4.398008,-6.73101,3.464807,-9.38,-25.549999,15.75,1729471640670.0,0.0
-4.800002,-5.630312,4.15394,28.700001,-22.960001,25.48,1729471640694.0,0.0
-5.091926,-5.17089,4.802395,47.529999,-24.15,30.380001,1729471640712.0,0.0
-5.814559,-5.462814,5.223531,57.119999,-20.860001,38.150002,1729471640729.0,0.0
-7.039684,-6.477371,4.065405,53.619999,-16.66,43.68,1729471640751.0,0.0
-8.305488,-8.135597,2.85703,36.189999,-14.84,43.470001,1729471640769.0,0.0
-9.559326,-9.659825,1.584049,-2.31,-13.23,45.990002,1729471640791.0,0.0
-9.602397,-9.719646,0.622134,-79.940002,-15.05,22.960001,1729471640810.0,0.0
-8.77448,-11.641083,-0.490529,-194.110001,-15.190001,-17.780001,1729471640829.0,0.0
-8.169096,-14.218152,-5.833702,-341.179993,12.95,-84.349998,1729471640849.0,0.0
-6.017949,-14.206188,-4.706682,-314.720001,41.299999,-108.360001,1729471640870.0,0.0
-2.89053,-12.222539,-3.893122,-224.839996,57.610001,-120.400002,1729471640889.0,0.0
-2.677568,-6.419943,2.488536,-202.089996,98.629997,-118.650002,1729471640911.0,0.0
-0.026321,-5.922236,2.340181,-223.020004,96.25,-97.300003,1729471640929.0,0.0
3.089134,-8.099705,10.595419,-190.119995,87.779999,-71.260002,1729471640952.0,0.0
2.088934,-4.512863,15.608383,-30.799999,57.330002,-11.9,1729471640969.0,0.0
0.363709,-1.617548,11.801401,15.33,4.83,13.23,1729471640989.0,0.0
-2.490928,-5.919843,8.16431,-93.379997,-33.880001,31.15,1729471641011.0,0.0
-3.369094,-8.889337,1.727618,-205.169998,-78.400002,29.960001,1729471641029.0,0.0
-4.725825,-10.609775,-11.679367,-283.079987,-106.190002,14.7,1729471641051.0,0.0
-5.206782,-12.303895,-19.137794,-287.209991,-97.019997,2.59,1729471641069.0,0.0
-9.12144,-12.239288,-20.657238,-213.779999,-32.759998,-32.27,1729471641089.0,0.0
-13.215559,-9.970891,-16.017555,-2.31,53.830002,-31.57,1729471641111.0,0.0
-6.431907,-7.829315,-10.497313,158.619995,38.920002,-23.450001,1729471641194.0,0.0
-1.519442,-3.919443,-7.298109,137.199997,77.07,-30.17,1729471641196.0,0.0
-0.021535,-4.242475,-2.474179,84.769997,129.149994,-14.63,1729471641198.0,0.0
-0.459422,-4.800002,9.619147,152.880005,136.220001,50.959999,1729471641201.0,0.0
0.794417,-6.135197,11.593226,255.220001,78.75,65.309998,1729471641211.0,0.0
1.706082,-4.448257,11.626726,351.890015,21.98,98.419998,1729471641229.0,0.0
-2.603391,-5.079963,10.07139,341.320007,-14.49,110.529999,1729471641249.0,0.0
-5.249853,-8.030313,7.542177,229.529999,-44.450001,106.68,1729471641268.0,0.0
-6.096912,-11.215159,3.168097,106.190002,-58.52,95.760002,1729471641289.0,0.0
-7.472785,-14.52204,-0.863809,18.48,-59.57,69.860001,1729471641310.0,0.0
-7.006185,-15.591633,-1.820938,27.93,-46.830002,62.369999,1729471641328.0,0.0
-4.656433,-15.79263,-3.912265,81.269997,-34.93,45.639999,1729471641350.0,0.0
-4.474578,-17.345572,-4.127619,111.860001,-14.0,14.56,1729471641369.0,0.0
-5.302495,-14.067404,-2.761317,121.590004,17.01,-22.26,1729471641389.0,0.0
-6.405586,-12.543176,-1.804188,98.769997,22.68,-52.990002,1729471641411.0,0.0
-6.283553,-4.534399,-1.043271,-18.83,43.049999,-86.940002,1729471641429.0,0.0
-6.960721,-4.529613,4.302295,-112.209999,21.77,-53.970001,1729471641449.0,0.0
-3.471986,-5.704489,2.971886,-189.979996,-29.540001,-86.309998,1729471641471.0,0.0
-2.584249,-8.537591,1.923829,-241.5,-40.040001,-90.93,1729471641488.0,0.0
-3.644269,-5.276174,-0.918844,-311.290009,-22.960001,-92.610001,1729471641510.0,0.0
-3.632305,-4.835894,-1.289732,-380.309998,-37.029999,-76.580002,1729471641528.0,0.0
-3.885944,-6.128019,-1.004985,-463.399994,-38.709999,-86.099998,1729471641549.0,0.0
-4.151547,-8.693125,-5.125426,-521.710022,-41.650002,-106.120003,1729471641568.0,0.0
-3.256632,-7.089933,-6.965507,-417.549988,-38.920002,-90.510002,1729471641589.0,0.0
-2.641676,-4.079762,-7.453642,-346.220001,-27.440001,-78.260002,1729471641610.0,0.0
-1.789831,-2.189433,-6.67119,-353.290009,-21.42,-77.629997,1729471641628.0,0.0
-1.227518,-0.545564,-7.467999,-369.179993,-15.68,-59.080002,1729471641649.0,0.0
0.078963,0.189033,-9.092726,-360.290009,-32.900002,-27.790001,1729471641668.0,0.0
-2.392823,-8.587841,-12.492928,-299.529999,-38.639999,-15.82,1729471641698.0,0.0
0.495314,-11.777473,-14.344972,-164.289993,-41.09,-38.43,1729471641711.0,0.0
-0.234497,-8.047063,-12.047862,8.4,-19.74,-40.25,1729471641728.0,0.0
-1.392623,-3.61077,-8.709875,114.940002,-13.51,-22.68,1729471641749.0,0.0
-1.998007,-5.316852,-9.047262,119.489998,-14.7,-17.01,1729471641768.0,0.0
-1.57687,-6.245267,-9.343972,117.809998,-17.219999,-10.78,1729471641788.0,0.0
-1.428515,-6.754939,-10.351351,157.990005,-13.23,7.14,1729471641810.0,0.0
-1.435694,-8.310273,-9.753145,221.410004,-3.08,9.38,1729471641830.0,0.0
-0.710668,-7.719246,-7.240681,300.929993,1.54,8.54,1729471641849.0,0.0
-1.969293,-6.45105,-6.037091,454.019989,-6.02,32.619999,1729471641869.0,0.0
-4.833502,-6.163911,-8.779266,492.589996,18.690001,28.700001,1729471641889.0,0.0
-8.035098,-6.628119,-3.309274,468.720001,-39.970001,107.449997,1729471641910.0,0.0
-1.387837,-6.400801,-5.149354,469.910004,-78.75,-2.66,1729471641929.0,0.0
-4.642076,-10.69831,-1.07677,468.160004,13.37,53.970001,1729471641952.0,0.0
-6.235696,-6.092126,-1.328017,421.26001,116.550003,4.76,1729471641968.0,0.0
-10.353743,-6.522834,0.734596,394.869995,145.320007,35.98,1729471641988.0,0.0
-12.586248,-6.4678,4.256832,339.570007,67.900002,42.560001,1729471642018.0,0.0
-8.099705,-4.579862,5.630312,143.990005,-2.45,7.07,1729471642028.0,0.0
-4.835894,-6.685547,4.409972,-62.439999,-30.450001,-10.01,1729471642048.0,0.0
-3.641876,-8.420342,2.203789,-170.240005,-46.830002,-2.03,1729471642072.0,0.0
-3.522235,-8.439486,1.055235,-202.440002,-30.030001,9.24,1729471642090.0,0.0
-2.955136,-5.735595,0.861416,-269.920013,-5.53,8.05,1729471642112.0,0.0
-1.57687,-3.54377,-2.282753,-380.940002,-14.28,-1.33,1729471642130.0,0.0
-0.301496,-6.573084,-6.793223,-451.640015,-23.73,4.97,1729471642149.0,0.0
-0.526421,-12.009576,-8.312666,-442.75,-24.57,2.24,1729471642169.0,0.0
-0.344566,-12.110075,-7.013363,-284.059998,-22.82,5.88,1729471642190.0,0.0
-1.741975,-7.597212,-7.173682,-165.830002,-7.35,4.06,1729471642213.0,0.0
-3.651447,-8.207381,-8.250452,-166.180008,11.69,7.28,1729471642229.0,0.0
-3.211168,-9.889536,-8.578269,-203.910004,8.54,-12.18,1729471642252.0,0.0
-3.069991,-10.772489,-8.965906,-156.449997,15.96,-11.2,1729471642270.0,0.0
-1.29691,-6.374479,-7.992027,-67.830002,25.129999,-14.28,1729471642291.0,0.0
-1.115055,-6.833901,-5.058427,-26.040001,41.09,8.26,1729471642312.0,0.0
-0.275175,-9.906286,-1.287339,-9.73,42.209999,15.68,1729471642329.0,0.0
0.942772,-13.141381,5.599205,71.959999,15.68,25.129999,1729471642352.0,0.0
-0.26321,-9.698111,5.580062,220.360001,-34.369999,35.139999,1729471642371.0,0.0
-5.058427,-3.290131,4.532006,186.550003,-39.41,35.84,1729471642390.0,0.0
-8.427521,-8.080563,0.358923,5.53,-82.879997,45.080002,1729471642412.0,0.0
-12.531212,-7.329216,-12.464212,-269.850006,-91.699997,-20.299999,1729471642431.0,0.0
-10.827522,-8.422735,-22.351357,-260.329987,-66.709999,-14.07,1729471642450.0,0.0
-5.596812,-9.75793,-18.065811,-39.41,-52.360001,-30.24,1729471642471.0,0.0
-7.21436,-4.371687,-15.39542,199.5,59.920002,-18.9,1729471642492.0,0.0
-4.850252,-0.495314,-11.593226,230.509995,69.860001,-22.120001,1729471642512.0,0.0
-2.598605,-3.692125,-5.379066,145.669998,85.330002,-41.369999,1729471642533.0,0.0
-1.68694,-0.756132,1.057628,104.650002,95.620003,-31.219999,1729471642554.0,0.0
-4.453043,-6.776474,2.921637,52.220001,79.099998,-4.13,1729471642571.0,0.0
-1.452443,-9.059227,2.565106,94.639999,34.16,5.81,1729471642591.0,0.0
2.009971,-7.975278,7.223931,161.910004,6.3,32.130001,1729471642613.0,0.0
-0.9667,-5.419744,9.013763,40.740002,-9.59,33.810001,1729471642630.0,0.0
-6.616155,-6.869793,5.084748,-159.460007,-47.880001,20.719999,1729471642654.0,0.0
-5.642276,-6.836295,-5.161318,-285.390015,-100.099998,5.74,1729471642671.0,0.0
-3.125026,-5.24746,-15.92902,-350.209991,-112.0,13.02,1729471642692.0,0.0
-8.286345,-12.141183,-13.830515,-297.779999,-58.099998,1.61,1729471642715.0,0.0
-12.471392,-12.157932,-20.343777,-143.149994,8.05,-26.880001,1729471642736.0,0.0
-4.328616,-4.225725,-12.366108,100.800003,-35.98,-6.3,1729471642752.0,0.0
-2.852244,-0.512064,-7.4345,69.300003,11.41,-11.41,1729471642770.0,0.0
-4.089334,-2.35693,-5.491528,-30.59,22.190001,-3.43,1729471642791.0,0.0
-3.285345,-1.442872,-4.426722,-54.599998,21.98,7.28,1729471642812.0,0.0
-1.768296,3.251846,-7.271788,-91.910004,31.99,22.469999,1729471642832.0,0.0
-4.345366,-4.283153,-7.183254,-156.380005,28.35,63.630001,1729471642854.0,0.0
-6.716653,-3.826123,-4.024727,-245.350006,14.7,40.040001,1729471642871.0,0.0
-3.881158,-8.398808,-13.89512,-306.179993,3.08,18.549999,1729471642891.0,0.0
1.574477,-7.599605,-12.41875,-196.490005,-18.059999,-5.11,1729471642912.0,0.0
-3.333202,-7.645068,-11.131411,-137.759995,23.17,-1.4,1729471642931.0,0.0
-6.221339,-5.883951,-2.321038,-172.130005,33.110001,-17.92,1729471642955.0,0.0
-5.125426,-10.585848,-8.262416,-130.410004,3.08,-25.41,1729471642970.0,0.0
-3.986443,-6.503692,-8.470592,-55.369999,-4.9,-30.24,1729471642991.0,0.0
-5.996413,-6.52762,-7.728817,-35.279999,2.87,-26.530001,1729471643014.0,0.0
-5.352744,-5.575277,-9.140583,-24.85,1.33,-28.35,1729471643031.0,0.0
-5.335995,-4.677969,-10.978271,15.47,5.04,-21.700001,1729471643051.0,0.0
-4.632504,-1.938186,-9.846465,33.529999,15.4,-19.389999,1729471643071.0,0.0
-4.756931,-1.715654,-9.396614,32.900002,19.67,-6.72,1729471643091.0,0.0
-3.917051,-2.95035,-9.030513,-11.06,16.24,-7.7,1729471643114.0,0.0
-4.893322,-1.885544,-10.131211,-26.6,15.75,-22.049999,1729471643131.0,0.0
-7.070791,1.806581,-10.377672,-31.99,27.51,-29.26,1729471643152.0,0.0
-7.668997,-0.614955,-10.652846,-62.580002,35.84,-26.809999,1729471643171.0,0.0
-5.359922,0.01675,-11.947363,-19.74,41.16,-15.05,1729471643190.0,0.0
-2.581856,-0.870987,-12.619746,61.040001,42.139999,11.69,1729471643215.0,0.0
-0.770489,0.794417,-6.599405,161.490005,47.670002,49.560001,1729471643232.0,0.0
-0.497707,-0.631705,-3.988836,139.020004,49.700001,76.440002,1729471643252.0,0.0
1.550549,-9.229117,-4.455436,32.130001,35.0,60.27,1729471643271.0,0.0
3.605984,-11.913863,-2.737389,-22.82,17.710001,18.27,1729471643290.0,0.0
1.11027,-8.922836,-1.978864,-47.18,-6.02,-24.01,1729471643312.0,0.0
-4.048656,-2.964707,-2.481357,-88.830002,-35.0,-46.759998,1729471643331.0,0.0
-9.317651,-8.422735,-6.580262,-144.410004,-61.040001,-67.900002,1729471643353.0,0.0
-7.080362,-3.89073,-14.464613,-141.539993,-75.040001,-114.520004,1729471643370.0,0.0
-4.398008,2.727818,-17.75235,-91.349998,-51.59,-85.050003,1729471643392.0,0.0
-7.9346,1.804188,-14.52204,-33.32,0.7,-40.389999,1729471643412.0,0.0
-5.441278,7.123433,-11.708081,55.439999,16.379999,9.94,1729471643431.0,0.0
-2.304288,4.323831,-9.95175,84.489998,18.48,50.610001,1729471643452.0,0.0
-4.591826,1.588834,-7.082755,66.150002,29.4,80.57,1729471643470.0,0.0
-4.599005,-2.837888,-6.726225,54.950001,31.5,86.800003,1729471643493.0,0.0
-2.455036,-6.314659,-5.742774,43.75,23.379999,76.090004,1729471643515.0,0.0
0.449851,-15.084354,-5.065606,22.120001,8.54,38.080002,1729471643533.0,0.0
1.402194,-11.686546,-4.12044,28.139999,-9.52,-13.37,1729471643551.0,0.0
-3.917051,-9.181261,-2.167897,-3.99,-22.68,-50.119999,1729471643573.0,0.0
-1.328017,-9.403792,-8.087741,14.0,-73.919998,-79.660004,1729471643591.0,0.0
-1.643869,-5.82413,-13.514663,161.910004,-96.25,-70.0,1729471643612.0,0.0
-6.541977,-4.407579,-17.563318,247.240005,-50.82,-39.619999,1729471643631.0,0.0
-8.116454,-0.643669,-21.734007,269.149994,13.51,-0.35,1729471643652.0,0.0
-5.647062,-1.311267,-16.666008,201.740005,48.23,10.08,1729471643673.0,0.0
-5.831308,-1.493121,-7.77428,111.790001,76.580002,-4.34,1729471643691.0,0.0
-5.673382,-0.775275,-8.700303,140.770004,66.220001,9.45,1729471643713.0,0.0
-4.718646,-3.347559,-8.047063,139.930008,65.940002,26.950001,1729471643730.0,0.0
-3.507878,-6.570691,-7.592427,162.119995,78.050003,38.709999,1729471643753.0,0.0
-1.835295,-9.150154,-2.70389,186.899994,86.730003,53.900002,1729471643770.0,0.0
0.337388,-12.234503,3.613162,240.520004,63.84,34.860001,1729471643792.0,0.0
0.11007,-7.755138,6.738188,277.690002,29.33,26.530001,1729471643812.0,0.0
-3.242275,-4.34058,5.458029,167.369995,-14.98,9.73,1729471643830.0,0.0
-4.275974,-5.175675,-2.380858,-13.93,-60.830002,-7.7,1729471643852.0,0.0
-4.438686,-7.903493,-9.702895,-103.669998,-77.910004,-17.639999,1729471643872.0,0.0
-6.872187,-8.382057,-11.633904,-83.93,-45.360001,-14.49,1729471643892.0,0.0
-9.779467,-9.195618,-14.656039,-7.49,2.45,-15.89,1729471643912.0,0.0
-9.600004,-7.60439,-10.851451,87.220001,41.580002,-0.21,1729471643931.0,0.0
-3.811767,-6.185446,-9.018548,126.629997,28.84,1.68,1729471643954.0,0.0
-2.498107,-5.084748,-9.195618,79.660004,77.699997,4.55,1729471643971.0,0.0
-2.057827,-6.817152,-5.814559,61.18,107.520004,22.190001,1729471643992.0,0.0
-1.031307,-6.101698,4.766503,96.809998,108.639999,33.950001,1729471644012.0,0.0
-1.225125,-5.79063,13.134203,98.629997,78.120003,39.900002,1729471644030.0,0.0
-1.658226,-8.451449,12.662818,52.360001,5.74,37.380001,1729471644058.0,0.0
-4.900501,-8.441878,11.05484,-5.25,-53.549999,33.110001,1729471644070.0,0.0
-2.912065,-8.499306,-5.091926,-196.210007,-155.470001,-6.37,1729471644094.0,0.0
-2.868994,-9.449257,-17.24268,-273.559998,-161.279999,-12.11,1729471644114.0,0.0
-7.393822,-14.541183,-16.740189,-177.520004,-90.580002,-18.059999,1729471644132.0,0.0
-14.057834,-10.889735,-23.952154,41.369999,22.960001,-21.700001,1729471644154.0,0.0
-9.997212,-5.860023,-13.976478,164.639999,38.290001,3.64,1729471644172.0,0.0
-1.90708,-2.866602,-8.73141,74.410004,48.02,-31.01,1729471644191.0,0.0
-0.823131,-5.91745,-8.941978,14.21,103.949997,-18.9,1729471644214.0,0.0
-1.557728,-4.565506,3.074777,89.809998,134.610001,12.95,1729471644232.0,0.0
-1.976472,-4.122833,12.684352,129.570007,85.190002,36.259998,1729471644252.0,0.0
-1.667797,-7.171289,11.770294,70.980003,6.23,33.880001,1729471644272.0,0.0
-2.883351,-8.118847,7.82453,5.04,-54.25,22.68,1729471644292.0,0.0
-3.811767,-10.600205,1.512264,-53.830002,-93.800003,14.84,1729471644313.0,0.0
-5.632704,-12.777672,-8.403593,-120.889999,-108.150002,-11.13,1729471644332.0,0.0
-6.317052,-12.47857,-16.199409,-18.76,-52.290001,28.35,1729471644354.0,0.0
-7.467999,-13.122239,-12.863814,111.93,1.61,14.42,1729471644374.0,0.0
-2.620141,-6.838687,-4.536791,89.669998,13.93,-10.01,1729471644392.0,0.0
-2.091327,-7.257431,-4.555934,19.25,15.12,-28.139999,1729471644415.0,0.0
-3.78066,-9.305687,-4.625326,-13.02,28.07,-29.889999,1729471644432.0,0.0
-4.898108,-13.584054,-4.969893,46.48,33.389999,-26.18,1729471644452.0,0.0
-3.397808,-7.087541,-2.988636,126.840004,47.459999,-38.709999,1729471644472.0,0.0
-2.684747,-0.753739,3.555735,135.729996,52.360001,-17.15,1729471644494.0,0.0
-2.038685,-6.613762,5.146961,-27.51,27.65,-32.27,1729471644514.0,0.0
-0.68674,-10.456635,1.718047,-69.650002,-9.24,-29.33,1729471644534.0,0.0
-1.90708,-8.55434,2.754139,13.3,-20.16,-9.87,1729471644553.0,0.0
-3.395415,-8.472985,1.208375,-3.15,-36.889999,-17.15,1729471644573.0,0.0
-6.661618,-10.090532,-2.002793,-109.059998,-38.849998,-35.700001,1729471644594.0,0.0
-3.65384,-10.992627,-4.252046,-198.309998,-62.720001,-41.650002,1729471644614.0,0.0
0.61017,-10.727024,-8.745767,-179.899994,-82.25,-39.27,1729471644633.0,0.0
-2.143969,-9.934999,-7.716853,-47.25,-38.290001,-31.780001,1729471644655.0,0.0
-7.408179,-6.766902,-7.41775,79.379997,-5.95,-17.360001,1729471644673.0,0.0
-7.221539,-4.902894,-5.218746,82.040001,23.17,8.05,1729471644694.0,0.0
-4.37408,-5.484349,-5.453243,-20.09,22.68,-9.73,1729471644714.0,0.0
-3.723232,-9.54497,-5.737988,-83.860001,30.73,0.91,1729471644734.0,0.0
-2.342573,-10.662418,-3.591627,-14.56,34.09,4.97,1729471644755.0,0.0
-1.445265,-8.616554,-2.931208,78.959999,45.5,3.22,1729471644778.0,0.0
-1.459622,-6.910471,0.323031,69.720001,67.550003,6.72,1729471644793.0,0.0
-0.471386,-10.435099,4.003192,-2.94,49.139999,3.29,1729471644816.0,0.0
-0.650848,-11.562119,4.888536,-2.45,27.790001,1.75,1729471644834.0,0.0
-3.9673,-9.891929,6.735795,31.85,7.98,2.8,1729471644853.0,0.0
-2.696711,-9.193225,3.917051,27.51,-35.279999,4.34,1729471644874.0,0.0
-1.70369,-11.92822,2.136791,-20.09,-74.269997,-8.05,1729471644894.0,0.0
-1.383051,-11.842079,-4.587041,-122.639999,-101.150002,-35.0,1729471644915.0,0.0
-1.842474,-3.9673,-9.298509,-172.130005,-117.529999,-36.400002,1729471644933.0,0.0
-6.360123,-7.156933,-11.770294,-172.970001,-90.790001,-30.66,1729471644956.0,0.0
-10.554741,-11.308479,-19.054047,-81.620003,-23.870001,-38.220001,1729471644974.0,0.0
-10.284351,-11.026128,-15.622739,99.68,30.52,-20.790001,1729471644993.0,0.0
-2.325824,-3.35713,-10.626525,136.080002,25.76,-41.09,1729471645016.0,0.0
-1.682154,-3.199204,-8.65484,-2.73,99.470001,-38.290001,1729471645034.0,0.0
-1.244268,-5.008178,-3.227918,-44.099998,128.169998,-23.030001,1729471645053.0,0.0
-0.631705,-9.260223,4.807181,11.83,117.739998,8.33,1729471645073.0,0.0
-0.358923,-8.317451,10.820344,53.41,83.230003,8.68,1729471645093.0,0.0
-1.256232,-9.023334,10.667203,44.310001,24.219999,11.76,1729471645115.0,0.0
-4.328616,-8.317451,10.061819,-11.62,-33.32,5.04,1729471645134.0,0.0
-3.395415,-7.80778,4.115655,-94.849998,-106.540001,-2.73,1729471645154.0,0.0
-2.641676,-10.107283,-5.302495,-189.139999,-161.559998,-28.210001,1729471645174.0,0.0
-2.995814,-11.021341,-15.127424,-204.470001,-154.770004,-42.420002,1729471645194.0,0.0
-4.766503,-10.033106,-14.172688,-102.760002,-101.220001,-32.48,1729471645214.0,0.0
-9.154939,-9.454042,-18.173489,25.200001,-16.73,-20.16,1729471645233.0,0.0
-6.525227,-7.472785,-15.799807,107.379997,33.810001,0.49,1729471645254.0,0.0
0.624527,-6.015556,-11.62194,91.139999,39.970001,-3.5,1729471645273.0,0.0
1.612763,-4.998606,-9.21476,1.05,92.82,-10.85,1729471645293.0,0.0
-0.911665,-5.472386,-8.602197,-15.4,125.650002,5.81,1729471645317.0,0.0
-0.899701,-7.087541,1.830509,13.23,135.869995,25.200001,1729471645332.0,0.0
-0.40678,-10.722239,10.054641,63.209999,106.959999,31.57,1729471645355.0,0.0
-0.62692,-8.79123,11.586047,83.019997,27.23,20.51,1729471645373.0,0.0
-2.940779,-9.288938,10.368099,8.12,-40.529999,8.12,1729471645394.0,0.0
-1.404587,-6.946364,3.393023,-104.720001,-119.0,-8.19,1729471645413.0,0.0
-1.375873,-11.251052,-8.085347,-192.779999,-165.619995,-23.030001,1729471645433.0,0.0
-1.612763,-8.970692,-15.914663,-199.5,-143.009995,-32.200001,1729471645453.0,0.0
-8.049455,-7.436893,-13.808979,-63.98,-71.959999,4.9,1729471645472.0,0.0
-13.696517,-9.700503,-22.734209,36.82,29.26,3.36,1729471645494.0,0.0
-7.67139,-9.564112,-17.084755,67.480003,37.799999,2.94,1729471645514.0,0.0
0.4666,-3.024528,-12.335001,102.340004,44.59,-10.64,1729471645534.0,0.0
0.55992,-1.471586,-7.401,67.059998,105.279999,-4.76,1729471645554.0,0.0
-2.199004,-3.996014,-7.216753,36.470001,128.520004,18.549999,1729471645574.0,0.0
-1.677369,-6.24766,5.881558,32.41,125.020004,27.299999,1729471645594.0,0.0
-2.139183,-10.305886,11.425728,60.27,77.769997,36.889999,1729471645614.0,0.0
-0.234497,-11.13859,10.021141,93.730003,7.35,21.139999,1729471645634.0,0.0
-1.660619,-9.207582,9.863215,59.920002,-38.990002,11.13,1729471645653.0,0.0
-1.17009,-7.594819,6.278766,-85.959999,-99.470001,-10.85,1729471645675.0,0.0
-0.519243,-12.366108,-12.212967,-220.850006,-153.930008,-20.16,1729471645692.0,0.0
-5.534599,-15.637095,-17.678173,-156.660004,-108.849998,-29.26,1729471645716.0,0.0
-12.624532,-13.603197,-21.851257,58.380001,-6.09,-27.16,1729471645734.0,0.0
-9.178867,-7.872386,-17.314465,202.160004,21.139999,-7.35,1729471645754.0,0.0
-0.4666,-2.553142,-12.186646,171.570007,29.889999,-17.5,1729471645773.0,0.0
1.545763,-1.596013,-8.099705,66.360001,88.620003,-24.780001,1729471645792.0,0.0
-2.596212,-4.460221,-5.12782,11.34,119.980003,4.2,1729471645815.0,0.0
-1.359123,-9.099905,-3.278167,36.959999,119.0,13.65,1729471645832.0,0.0
-0.689133,-5.974878,9.968499,78.470001,100.800003,33.810001,1729471645856.0,0.0
-2.388037,-8.422735,13.354343,79.309998,50.889999,28.91,1729471645874.0,0.0
-3.26381,-9.724431,11.112268,15.190001,-22.889999,15.12,1729471645893.0,0.0
-1.952543,-8.4012,6.013163,-83.090004,-91.139999,-1.75,1729471645917.0,0.0
-0.382852,-10.124033,-3.52702,-185.360001,-149.869995,-22.75,1729471645935.0,0.0
0.098106,-8.4012,-12.748959,-215.740005,-157.5,-33.670002,1729471645956.0,0.0
-5.898308,-11.119448,-11.002198,-132.440002,-104.720001,-14.63,1729471645973.0,0.0
-13.481163,-10.356135,-20.291138,-15.4,-13.58,-15.96,1729471645993.0,0.0
-6.630512,-6.06102,-15.199209,108.220001,22.75,3.22,1729471646015.0,0.0
0.368495,-3.349952,-12.313466,120.050003,45.920002,-11.06,1729471646033.0,0.0
-0.325424,-5.146961,-9.662218,36.189999,105.559998,-10.64,1729471646054.0,0.0
-2.182254,-5.611169,-5.132604,7.28,127.120003,2.38,1729471646072.0,0.0
-0.07657,-4.735396,-3.017349,43.400002,124.459999,17.360001,1729471646094.0,0.0
-0.002393,-6.594619,9.128618,43.259998,112.629997,35.349998,1729471646114.0,0.0
-0.701097,-10.832308,12.942777,44.240002,66.639999,28.139999,1729471646181.0,0.0
-0.851845,-10.222138,11.949757,49.209999,-3.5,26.460001,1729471646183.0,0.0
-1.79701,-9.128618,8.204988,-29.540001,-67.129997,6.44,1729471646184.0,0.0
-1.246661,-9.437292,1.146162,-164.289993,-135.240005,-11.76,1729471646213.0,0.0
-1.282553,-8.087741,-9.375079,-277.619995,-164.220001,-39.48,1729471646218.0,0.0
-3.74716,-7.278966,-15.294923,-225.259995,-136.710007,-10.57,1729471646234.0,0.0
-11.81815,-11.41855,-18.549162,-83.650002,-33.18,-28.98,1729471646254.0,0.0
-15.862022,-15.795023,-23.968904,57.82,47.740002,-7.91,1729471646273.0,0.0
-4.584648,-5.754738,-15.605989,172.479996,-4.06,-27.51,1729471646293.0,0.0
2.87378,-1.574477,-10.992627,174.229996,44.170002,-35.91,1729471646315.0,0.0
0.9667,-4.424329,-8.023134,79.800003,102.199997,-27.93,1729471646333.0,0.0
-1.366302,-4.869394,-4.297509,96.040001,130.130005,-10.01,1729471646352.0,0.0
-0.105284,-5.639884,9.51147,131.949997,85.610001,21.700001,1729471646373.0,0.0
0.638884,-9.930215,10.250853,132.580002,31.5,13.93,1729471646393.0,0.0
-0.349352,-5.161318,10.719845,134.539993,-13.3,27.93,1729471646413.0,0.0
-2.828316,-7.326823,7.264609,27.02,-61.740002,25.620001,1729471646432.0,0.0
-2.057827,-9.600004,-1.488336,-89.879997,-108.290001,12.11,1729471646455.0,0.0
-2.756532,-12.483356,-9.62154,-95.620003,-102.970001,20.299999,1729471646472.0,0.0
-3.881158,-15.515062,-12.323036,31.08,-62.650002,38.220001,1729471646492.0,0.0
-7.523034,-14.474185,-10.664811,184.240005,-7.0,41.16,1729471646513.0,0.0
-8.133204,-11.428121,-10.19821,222.320007,20.299999,25.129999,1729471646532.0,0.0
-4.220939,-9.006584,-5.922236,136.779999,7.91,-9.87,1729471646553.0,0.0
-1.036092,-7.345965,-3.20399,43.189999,12.6,-29.75,1729471646573.0,0.0
-3.629912,-6.802795,-1.251446,-25.200001,36.82,-33.389999,1729471646593.0,0.0
-5.773881,-6.585048,-0.61017,-65.379997,27.719999,-26.74,1729471646614.0,0.0
-4.455436,-7.499106,-0.914058,-86.309998,4.62,-21.42,1729471646632.0,0.0
-2.572284,-9.24826,-3.223132,-75.809998,-10.57,-18.83,1729471646664.0,0.0
-2.742175,-9.863215,-4.017549,-27.16,-1.54,-8.75,1729471646671.0,0.0
-2.519642,-9.257831,0.028714,26.460001,4.83,0.7,1729471646692.0,0.0
-0.993021,-7.140182,1.397408,85.330002,-7.7,16.66,1729471646713.0,0.0
-0.148355,-5.972485,2.244468,81.059998,-5.81,26.389999,1729471646732.0,0.0
-1.399801,-8.248059,1.782653,51.450001,-5.39,44.380001,1729471646757.0,0.0
-2.376073,-11.212767,1.036092,49.490002,-7.35,49.77,1729471646772.0,0.0
-2.311467,-11.440084,0.87338,58.66,-7.98,44.73,1729471646791.0,0.0
-2.124826,-9.437292,-0.22014,5.95,-3.78,27.790001,1729471646839.0,0.0
0.327817,-12.394822,-7.06122,-62.510002,-3.43,11.2,1729471646938.0,0.0
-1.009771,-11.720046,-6.680761,-53.130001,-10.92,-2.94,1729471646939.0,0.0
-2.275574,-10.966305,-5.541777,13.440001,13.79,-5.88,1729471646940.0,0.0
-2.440679,-10.040283,-6.601797,24.639999,26.809999,-22.68,1729471646941.0,0.0
-2.868994,-10.669596,-4.761717,-2.17,24.99,-32.27,1729471646944.0,0.0
-4.220939,-9.255438,-1.007378,-0.98,31.01,-38.920002,1729471647019.0,0.0
-4.321437,-8.420342,-0.045464,6.44,20.16,-37.029999,1729471647019.0,0.0
-4.295116,-7.812566,1.497907,-8.4,9.1,-41.16,1729471647020.0,0.0
-4.548756,-7.999206,0.133998,-54.670002,7.63,-41.720001,1729471647021.0,0.0
-2.036292,-5.998806,-0.760918,-72.800003,9.45,-33.32,1729471647031.0,0.0
-1.12702,-5.85763,1.038485,-57.959999,18.27,-1.47,1729471647052.0,0.0
-1.971686,-10.423136,2.615355,16.379999,9.66,30.17,1729471647071.0,0.0
-2.043471,-10.095319,3.615555,120.68,11.69,38.709999,1729471647090.0,0.0
-2.574677,-7.980063,4.326223,175.699997,0.91,53.41,1729471647112.0,0.0
-1.811367,-8.650054,4.431508,181.300003,-18.76,60.48,1729471647131.0,0.0
-1.359123,-11.57169,4.859823,174.440002,-31.99,60.900002,1729471647151.0,0.0
-3.177669,-12.811172,3.002992,122.010002,-25.549999,37.380001,1729471647171.0,0.0
-3.443272,-13.280167,-2.160719,-15.61,-3.92,5.25,1729471647190.0,0.0
-2.218147,-12.366108,-1.976472,-202.860001,-9.38,-24.57,1729471647213.0,0.0
-1.052842,-9.71486,-8.075776,-315.070007,-7.63,-26.6,1729471647231.0,0.0
-3.431308,-9.296116,-5.991628,-330.119995,13.79,-37.59,1729471647252.0,0.0
-5.345565,-7.479963,-4.878965,-327.110016,17.85,-53.27,1729471647271.0,0.0
-5.584848,-7.116255,-4.742575,-331.309998,-11.76,-69.230003,1729471647291.0,0.0
-5.292924,-5.580062,-4.54397,-374.920013,-29.960001,-86.449997,1729471647312.0,0.0
-4.644469,-1.701297,-6.9344,-462.769989,-34.16,-105.559998,1729471647332.0,0.0
-4.438686,-2.830709,-10.059426,-534.450012,-30.1,-105.139999,1729471647352.0,0.0
-2.811567,-6.752545,-10.973484,-397.459991,-18.690001,-70.209999,1729471647371.0,0.0
-2.914458,-3.225525,-7.223931,-163.660004,8.26,-46.759998,1729471647392.0,0.0
-2.598605,1.043271,-7.202396,-168.979996,5.32,-30.59,1729471647417.0,0.0
-2.024328,-2.536392,-9.765109,-234.710007,-0.14,-10.15,1729471647439.0,0.0
-0.200997,-5.460421,-12.851851,-206.779999,-5.39,-15.4,1729471647454.0,0.0
0.200997,-8.195417,-13.134203,-66.360001,-2.52,-1.75,1729471647474.0,0.0
0.12682,-5.431707,-10.530812,48.299999,9.66,-14.42,1729471647493.0,0.0
0.088534,-4.376472,-10.578669,127.68,10.43,-7.98,1729471647525.0,0.0
-0.658026,-4.232903,-8.611769,166.039993,15.47,-7.91,1729471647531.0,0.0
-0.145962,-5.084748,-8.422735,180.320007,10.01,-11.41,1729471647553.0,0.0
0.043071,-6.585048,-8.944371,196.0,11.27,-14.14,1729471647571.0,0.0
-0.150748,-6.565905,-8.535198,223.930008,15.190001,-12.88,1729471647594.0,0.0
-0.528814,-5.436492,-8.29113,268.380005,20.65,-0.28,1729471647615.0,0.0
-1.131805,-5.831308,-6.999006,299.809998,25.34,18.549999,1729471647631.0,0.0
-0.72024,-6.958328,-6.130411,311.570007,22.049999,26.460001,1729471647652.0,0.0
-0.428315,-6.960721,-5.132604,368.970001,18.969999,44.099998,1729471647672.0,0.0
0.37328,-6.221339,-6.666404,540.820007,10.08,80.639999,1729471647691.0,0.0
-0.366102,-7.243074,-3.885944,676.059998,27.719999,99.959999,1729471647715.0,0.0
-0.734596,-6.963113,-0.787239,661.570007,50.75,78.050003,1729471647733.0,0.0
0.634098,-1.5003,0.875773,621.460022,74.480003,70.559998,1729471647752.0,0.0
-7.128219,2.70389,20.035103,372.540009,101.989998,81.410004,1729471647775.0,0.0
-12.708281,-7.482357,8.394022,-114.520004,12.25,30.030001,1729471647792.0,0.0
-6.424729,-16.553547,-1.246661,-243.110001,-59.849998,0.07,1729471647814.0,0.0
-1.402194,-15.017354,-2.218147,-118.790001,-24.57,7.7,1729471647831.0,0.0
-2.818745,-12.196217,-0.68674,-21.629999,8.54,1.47,1729471647851.0,0.0
-5.173282,-10.269995,0.643669,-70.910004,28.98,-14.28,1729471647870.0,0.0
-4.532006,-9.329616,-1.012164,-213.080002,12.6,-37.869999,1729471647892.0,0.0
-3.359523,-10.040283,1.572084,-304.98999,-2.52,-55.16,1729471647916.0,0.0
-2.981457,-10.128819,2.215754,-348.600006,-13.09,-67.129997,1729471647934.0,0.0
-2.694318,-8.664411,2.258825,-341.25,-40.810001,-71.68,1729471647955.0,0.0
-2.074577,-6.948757,0.277567,-326.339996,-60.619999,-72.309998,1729471647971.0,0.0
-1.095913,-3.680161,0.105284,-374.570007,-59.290001,-76.440002,1729471647991.0,0.0
-2.007578,-3.615555,-3.117848,-508.970001,-48.299999,-83.860001,1729471648013.0,0.0
-2.273181,-3.826123,-7.532606,-634.76001,-52.920002,-100.730003,1729471648032.0,0.0
-1.433301,-7.04447,-10.054641,-502.670013,-47.040001,-38.639999,1729471648053.0,0.0
0.404387,-5.362316,-9.432507,-251.440002,-36.119999,-33.18,1729471648072.0,0.0
-0.234497,-1.768296,-8.614161,-186.690002,-19.6,-7.07,1729471648092.0,0.0
-1.411765,-4.271189,-10.348958,-173.320007,-32.900002,8.19,1729471648115.0,0.0
-1.004985,-9.616754,-10.980663,-147.350006,-42.630001,-11.34,1729471648131.0,0.0
0.978664,-8.965906,-12.971491,-6.3,-49.420002,-25.34,1729471648152.0,0.0
-0.145962,-5.575277,-11.882757,179.130005,-34.720001,4.55,1729471648172.0,0.0
-1.708475,-4.309474,-10.356135,277.76001,-17.360001,18.76,1729471648191.0,0.0
-2.459821,-5.285746,-9.789038,292.670013,-8.96,19.389999,1729471648212.0,0.0
-2.98385,-5.666204,-9.803394,290.290009,4.48,19.74,1729471648231.0,0.0
-5.084748,-6.941578,-8.305488,309.820007,26.32,33.880001,1729471648253.0,0.0
-5.582455,-7.537392,-7.578069,365.679993,24.57,44.59,1729471648270.0,0.0
-4.058227,-7.118648,-7.446464,460.880005,11.69,53.830002,1729471648291.0,0.0
-3.455236,-6.259624,-5.101498,568.049988,26.040001,68.879997,1729471648315.0,0.0
-4.010371,-4.606184,-2.469393,584.359985,49.209999,62.299999,1729471648330.0,0.0
-5.288138,-3.175276,1.658226,468.790009,57.119999,45.779999,1729471648352.0,0.0
-5.632704,-6.065805,1.713261,327.25,28.07,71.330002,1729471648370.0,0.0
-4.704289,-6.989435,0.363709,149.589996,27.93,39.48,1729471648391.0,0.0
-4.529613,-8.853443,1.277767,103.739998,30.870001,37.52,1729471648412.0,0.0
-4.161119,-11.24866,2.825923,95.480003,37.240002,23.940001,1729471648430.0,0.0
-4.09412,-12.399607,6.862615,49.209999,35.630001,9.52,1729471648451.0,0.0
-1.579263,-12.854243,8.389235,-12.81,4.34,-10.64,1729471648474.0,0.0
-0.392423,-11.030912,5.343173,-129.360001,-19.110001,-39.759998,1729471648493.0,0.0
-1.584049,-11.535798,-0.528814,-199.710007,-35.91,-42.84,1729471648514.0,0.0
-2.014757,-9.954143,-3.452843,-203.979996,-4.76,-54.810001,1729471648531.0,0.0
-2.751746,-7.676175,1.194018,-231.630005,33.32,-55.09,1729471648553.0,0.0
-3.24706,-9.013763,2.809174,-268.589996,21.210001,-58.170002,1729471648572.0,0.0
-4.036692,-10.427922,2.017149,-270.200012,0.14,-53.34,1729471648591.0,0.0
-3.058028,-8.762517,0.256032,-247.029999,-15.190001,-59.010002,1729471648612.0,0.0
-2.663212,-6.532406,-0.308674,-250.809998,-20.719999,-55.439999,1729471648633.0,0.0
-3.505485,-5.972485,-1.301696,-317.23999,-6.72,-53.900002,1729471648652.0,0.0
-3.979264,-6.888937,-1.749153,-388.98999,-4.13,-64.540001,1729471648672.0,0.0
-4.0008,-7.192825,-5.474778,-457.170013,-18.41,-72.940002,1729471648691.0,0.0
-3.15374,-5.65424,-11.346765,-407.890015,-36.049999,-64.889999,1729471648712.0,0.0
-3.615555,-8.573483,-15.330814,-140.070007,-12.18,-19.460001,1729471648733.0,0.0
-3.452843,-10.076177,-12.234503,74.620003,19.25,-7.98,1729471648752.0,0.0
-2.964707,-8.69791,-8.764909,275.940002,21.77,-5.88,1729471648771.0,0.0
-3.627519,-6.26441,-5.752346,356.579987,31.639999,1.82,1729471648791.0,0.0
-3.371487,-5.333601,-4.833502,339.570007,16.940001,11.41,1729471648814.0,0.0
-1.392623,-3.596412,-5.079963,319.200012,-2.87,21.84,1729471648831.0,0.0
-0.234497,-2.26361,-4.393222,330.119995,11.48,49.420002,1729471648853.0,0.0
0.291924,-6.333801,-3.584448,306.110016,33.810001,71.470001,1729471648871.0,0.0
0.801596,-12.251251,-1.741975,283.920013,38.290001,62.93,1729471648891.0,0.0
-2.172683,-11.083554,6.259624,332.709991,47.950001,74.410004,1729471648912.0,0.0
-2.696711,-7.37468,9.310472,232.190002,42.490002,31.92,1729471648930.0,0.0
-2.847459,-8.748159,5.898308,-5.53,4.76,17.5,1729471648953.0,0.0
-1.674976,-11.600404,1.012164,-100.099998,-15.12,4.83,1729471648971.0,0.0
-2.598605,-11.770294,-0.89013,-58.310001,-5.25,5.04,1729471648991.0,0.0
-4.058227,-11.045268,-0.514457,-2.94,-4.06,-1.68,1729471649014.0,0.0
-4.711468,-10.729417,-0.904487,20.23,-5.04,-8.4,1729471649031.0,0.0
-3.304488,-9.449257,-1.375873,33.110001,-13.3,-2.24,1729471649052.0,0.0
-1.90708,-10.382458,-1.495514,98.629997,-11.34,-3.01,1729471649071.0,0.0
-1.952543,-11.456835,-0.658026,174.720001,-1.26,4.62,1729471649091.0,0.0
-2.340181,-8.525627,0.782453,226.309998,16.799999,8.61,1729471649113.0,0.0
-1.998007,-7.147361,1.919044,190.330002,26.25,4.69,1729471649132.0,0.0
-1.445265,-7.063612,3.084348,138.039993,29.469999,2.8,1729471649154.0,0.0
-0.705883,-7.144968,4.460221,119.840004,37.240002,10.08,1729471649171.0,0.0
-0.842274,-8.51127,2.682354,115.080002,49.420002,7.07,1729471649190.0,0.0
-3.036492,-6.85783,7.104291,159.460007,42.279999,3.99,1729471649213.0,0.0
-3.507878,-2.995814,8.513663,179.830002,49.279999,27.440001,1729471649232.0,0.0
-2.203789,-3.235096,8.343772,73.010002,14.42,24.290001,1729471649251.0,0.0
-3.311667,-3.905087,7.348359,-63.84,1.75,39.830002,1729471649272.0,0.0
-5.685347,-5.907879,7.592427,-164.009995,-19.67,67.690002,1729471649291.0,0.0
-9.08794,-6.218946,2.239682,-338.519989,-49.07,50.330002,1729471649312.0,0.0
-10.011569,-8.087741,-9.683753,-427.910004,-64.050003,24.43,1729471649331.0,0.0
-8.508877,-9.772287,-11.526227,-378.0,-57.889999,7.0,1729471649351.0,0.0
-5.690133,-7.348359,-10.478169,-357.980011,-43.470001,-26.460001,1729471649370.0,0.0
-4.795217,-4.838287,-9.202796,-401.029999,13.440001,-39.060001,1729471649400.0,0.0
-3.314059,-5.510671,-8.398808,-425.670013,23.030001,-33.459999,1729471649415.0,0.0
-2.522035,-7.367501,-5.005785,-402.98999,11.27,-23.450001,1729471649430.0,0.0
-2.005185,-7.819745,-8.147561,-334.529999,11.62,-19.110001,1729471649452.0,0.0
-2.292324,-6.845865,-8.51127,-265.860016,9.52,-7.28,1729471649472.0,0.0
-1.083949,-5.864808,-9.454042,-290.429993,13.37,-18.83,1729471649492.0,0.0
0.124427,-10.274779,-10.664811,-304.01001,3.92,-29.610001,1729471649512.0,0.0
0.844666,-9.614362,-12.739388,-250.320007,11.76,-52.290001,1729471649531.0,0.0
0.751346,-6.656832,-11.940186,-180.529999,27.299999,-62.09,1729471649552.0,0.0
0.200997,-6.257231,-6.460621,-175.910004,39.689999,-71.470001,1729471649572.0,0.0
-2.89053,-7.664211,-5.589634,-184.589996,21.139999,-80.57,1729471649593.0,0.0
-3.9338,-6.786045,-7.302894,-132.089996,5.53,-93.099998,1729471649614.0,0.0
-5.041678,-1.387837,-7.350751,-73.849998,0.07,-74.199997,1729471649632.0,0.0
-5.352744,-1.598405,-9.35833,-64.889999,1.61,-36.049999,1729471649653.0,0.0
-4.130012,-4.240082,-9.963714,-66.989998,1.12,-10.78,1729471649673.0,0.0
-4.4674,-5.570491,-11.306087,-26.67,5.53,14.98,1729471649692.0,0.0
-3.835695,-6.530013,-13.18206,58.66,11.83,17.92,1729471649713.0,0.0
-3.402594,-8.099705,-11.562119,106.120003,25.48,10.99,1729471649732.0,0.0
-1.883151,-3.883551,-9.403792,176.119995,30.52,2.17,1729471649754.0,0.0
-1.246661,-4.055835,-9.004191,203.910004,23.66,8.96,1729471649773.0,0.0
0.133998,-2.531606,-8.116454,157.779999,19.32,5.39,1729471649793.0,0.0
-0.12682,-6.608976,-9.226725,149.240005,24.219999,9.73,1729471649813.0,0.0
-0.650848,-8.750552,-7.075576,236.600006,23.870001,18.549999,1729471649833.0,0.0
0.351745,-6.9679,-11.607583,342.230011,15.82,23.73,1729471649854.0,0.0
2.112862,-4.811966,-5.76431,413.559998,31.85,33.110001,1729471649875.0,0.0
-0.598206,-1.196411,1.4668,321.51001,67.830002,28.42,1729471649892.0,0.0
-3.199204,-3.940979,-0.277567,108.57,37.380001,17.85,1729471649914.0,0.0
-2.184647,-9.887143,-4.132405,63.209999,-5.6,30.59,1729471649933.0,0.0
-0.318245,-10.973484,-5.314459,182.070007,2.66,40.040001,1729471649956.0,0.0
-1.048056,-11.624333,-1.909473,310.940002,28.98,63.07,1729471649973.0,0.0
-1.976472,-5.355137,0.361316,334.179993,43.68,64.400002,1729471649994.0,0.0
-2.199004,-5.508278,1.835295,273.630005,40.110001,69.790001,1729471650014.0,0.0
-3.103491,-10.231709,0.942772,236.110001,31.85,75.879997,1729471650034.0,0.0
-3.20399,-9.542577,0.739382,256.619995,39.549999,69.510002,1729471650053.0,0.0
-3.507878,-7.235896,0.894916,258.299988,49.91,76.090004,1729471650074.0,0.0
-3.742374,-8.255238,2.464607,196.210007,45.920002,69.440002,1729471650094.0,0.0
-4.383651,-11.576476,2.632105,118.370003,32.41,58.73,1729471650119.0,0.0
-5.596812,-15.337994,1.447658,61.389999,19.32,39.830002,1729471650133.0,0.0
-5.422136,-14.421541,0.894916,33.25,12.6,1.26,1729471650153.0,0.0
-6.417551,-9.138189,-0.787239,-29.049999,24.219999,-17.43,1729471650173.0,0.0
-7.264609,-6.910471,0.555135,-165.270004,36.119999,-30.52,1729471650192.0,0.0
-5.072784,-7.762317,-0.4666,-279.929993,-3.08,-54.389999,1729471650214.0,0.0
-2.684747,-9.032906,-1.402194,-353.01001,-36.610001,-73.989998,1729471650234.0,0.0
-2.469393,-9.49472,-2.737389,-348.670013,-28.49,-72.099998,1729471650254.0,0.0
-3.266203,-5.852845,-1.885544,-354.269989,-14.21,-75.809998,1729471650274.0,0.0
-4.977071,-3.869194,0.98345,-416.570007,-14.14,-70.559998,1729471650292.0,0.0
-3.366701,-5.438886,-4.785645,-475.929993,-54.389999,-93.940002,1729471650314.0,0.0
-2.366502,-3.213561,-7.508677,-420.350006,-58.450001,-72.870003,1729471650334.0,0.0
-0.660419,-0.79681,-8.279166,-400.820007,-53.48,-67.830002,1729471650355.0,0.0
-1.581656,-1.495514,-9.573684,-403.690002,-41.720001,-35.560001,1729471650375.0,0.0
-3.761517,-11.514263,-14.163116,-340.549988,-52.639999,-26.18,1729471650392.0,0.0
-0.339781,-11.430513,-11.41855,-187.740005,-51.59,-57.610001,1729471650416.0,0.0
-2.699104,-3.306881,-7.307681,-9.24,-27.370001,-32.689999,1729471650432.0,0.0
-5.843273,-5.156533,-7.659425,21.139999,-26.25,-11.62,1729471650453.0,0.0
-3.548556,-4.910072,-8.915657,12.39,-41.93,-24.710001,1729471650473.0,0.0
-5.240282,-2.488536,-9.585647,-2.87,-25.76,-17.5,1729471650492.0,0.0
-7.958528,-1.842474,-10.817951,-47.670002,-7.0,-7.42,1729471650515.0,0.0
-7.456036,-2.591427,-11.10509,-96.389999,8.33,-20.790001,1729471650533.0,0.0
-7.334002,-1.469193,-13.105491,-130.059998,33.110001,-47.950001,1729471650554.0,0.0
-7.453642,2.660819,-10.540384,-176.889999,57.75,-44.66,1729471650572.0,0.0
-4.445865,2.569891,-7.862815,-232.540009,66.57,-63.560001,1729471650593.0,0.0
-4.9675,3.897908,-4.95075,-175.490005,46.619999,-31.780001,1729471650615.0,0.0
-2.65364,-2.586641,-8.616554,-147.350006,16.309999,-38.360001,1729471650632.0,0.0
2.330609,-4.618148,-8.9683,-83.440002,-6.16,-35.84,1729471650654.0,0.0
3.498307,-5.134997,-10.738988,0.07,-20.440001,-19.25,1729471650673.0,0.0
2.493321,-7.054041,-11.117055,-17.08,-14.63,-21.35,1729471650693.0,0.0
2.615355,-7.532606,-10.202995,-39.900002,-5.95,-28.0,1729471650716.0,0.0
-0.088534,-5.644669,-10.054641,-18.41,2.24,-27.51,1729471650732.0,0.0
-2.11047,-1.471586,-9.863215,17.92,7.49,-16.450001,1729471650753.0,0.0
-4.197011,2.902494,-8.659625,54.740002,7.63,9.8,1729471650773.0,0.0
-3.818945,3.737589,-9.54497,60.130001,6.44,37.939999,1729471650795.0,0.0
-2.600998,1.311267,-10.021141,63.84,2.8,57.959999,1729471650815.0,0.0
-3.364309,-0.997807,-10.920842,80.639999,3.5,61.880001,1729471650833.0,0.0
-3.488736,-2.251646,-12.382857,108.5,7.77,59.5,1729471650854.0,0.0
-3.436093,-2.0004,-11.52862,145.740005,16.309999,56.420002,1729471650872.0,0.0
-3.656233,-1.998007,-11.05484,162.330002,28.630001,50.119999,1729471650892.0,0.0
-2.904887,-3.242275,-13.13181,189.279999,31.780001,53.549999,1729471650915.0,0.0
-1.871187,-1.071985,-11.210374,283.850006,26.32,76.93,1729471650932.0,0.0
-2.787638,-0.835095,-4.366901,369.040009,36.259998,89.669998,1729471650955.0,0.0
-4.34058,-6.558727,-3.852444,355.529999,44.310001,73.989998,1729471650974.0,0.0
0.167498,-12.026326,-6.656832,281.679993,33.529999,27.58,1729471650993.0,0.0
4.771288,-12.349358,-7.235896,268.029999,3.99,15.4,1729471651014.0,0.0
5.869594,-8.886944,-4.788038,258.649994,44.869999,1.19,1729471651033.0,0.0
1.861616,-7.235896,0.457029,200.899994,64.959999,-3.36,1729471651053.0,0.0
1.031307,-9.487542,-1.68694,143.710007,33.110001,-10.5,1729471651073.0,0.0
-8.46102,-17.876778,10.303494,74.830002,20.23,-8.19,1729471651093.0,0.0
-13.356737,-6.032306,0.004786,41.860001,1.26,-65.449997,1729471651114.0,0.0
-5.410172,-0.485743,-9.765109,-35.279999,-145.740005,-25.549999,1729471651194.0,0.0
4.326223,-0.868595,-15.601204,-206.220001,-119.279999,-49.91,1729471651194.0,0.0
-3.215954,-7.992027,-12.447463,-131.600006,10.57,-3.29,1729471651194.0,0.0
-13.667803,-8.618947,-10.597812,152.25,88.690002,55.790001,1729471651195.0,0.0
-10.710274,-3.35713,-10.131211,241.850006,59.709999,61.110001,1729471651213.0,0.0
-1.354338,-3.969693,-9.858429,57.189999,37.59,28.630001,1729471651232.0,0.0
1.529014,-7.702496,-8.977871,-76.300003,80.5,22.049999,1729471651253.0,0.0
-0.291924,-10.466206,-4.680361,-1.12,121.099998,55.93,1729471651273.0,0.0
-0.672383,-7.802995,4.180261,157.360001,118.720001,83.720001,1729471651292.0,0.0
0.031107,-5.958128,11.830115,159.25,89.739998,82.32,1729471651314.0,0.0
-0.234497,-11.454442,8.628519,-28.42,-17.360001,56.490002,1729471651332.0,0.0
-1.452443,-11.751152,4.520042,-108.290001,-74.620003,26.040001,1729471651353.0,0.0
-1.734797,-9.430114,-1.265803,-149.800003,-136.149994,-0.42,1729471651372.0,0.0
-3.134598,-6.592227,-11.373087,-195.160004,-151.270004,-18.9,1729471651392.0,0.0
-6.496514,-8.738588,-16.510475,-125.650002,-111.300003,-2.87,1729471651416.0,0.0
-12.964314,-11.789437,-20.609381,2.31,-6.51,-0.14,1729471651440.0,0.0
-12.457035,-10.794022,-17.503498,84.0,58.52,11.69,1729471651452.0,0.0
-3.0006,-4.151547,-11.198411,108.5,42.91,1.33,1729471651471.0,0.0
-0.244068,-3.701697,-8.506484,102.269997,112.07,8.75,1729471651494.0,0.0
-1.981257,-6.814759,-6.029913,101.010002,152.600006,35.139999,1729471651513.0,0.0
-2.196611,-6.128019,7.755138,102.059998,150.639999,43.68,1729471651532.0,0.0
-2.306681,-9.963714,11.64826,64.68,94.5,29.540001,1729471651553.0,0.0
-0.210568,-9.894321,11.009377,33.32,12.6,13.23,1729471651572.0,0.0
-0.882952,-8.975478,9.65504,-19.530001,-62.09,-8.54,1729471651592.0,0.0
0.004786,-6.776474,1.90708,-137.759995,-137.970001,-34.93,1729471651614.0,0.0
-4.63729,-10.542776,-13.414164,-214.199997,-163.309998,-48.09,1729471651632.0,0.0
-10.179067,-12.863814,-21.609581,-68.389999,-63.349998,-30.59,1729471651653.0,0.0
-12.772887,-10.607382,-19.970499,76.93,42.279999,-9.45,1729471651674.0,0.0
-3.823731,-5.446064,-12.842279,110.110001,48.790001,-3.57,1729471651692.0,0.0
0.354138,-2.816352,-10.066606,84.209999,99.260002,-7.84,1729471651714.0,0.0
-2.713461,-4.862216,-7.659425,61.25,145.320007,8.47,1729471651734.0,0.0
-3.416951,-5.292924,7.223931,65.800003,142.169998,24.290001,1729471651753.0,0.0
-3.084348,-8.673983,11.519048,75.739998,78.540001,21.280001,1729471651773.0,0.0
-1.586441,-8.322237,10.214959,82.669998,-3.15,13.58,1729471651794.0,0.0
-3.876373,-8.118847,7.970492,34.369999,-69.510002,4.34,1729471651817.0,0.0
-2.493321,-8.444271,0.799203,-66.989998,-137.479996,-18.48,1729471651833.0,0.0
-2.459821,-12.349358,-9.226725,-72.660004,-150.570007,-18.969999,1729471651856.0,0.0
-5.268995,-14.565112,-15.151353,32.27,-84.209999,-2.17,1729471651873.0,0.0
-8.769694,-12.535997,-13.411771,167.020004,-4.34,35.139999,1729471651894.0,0.0
-2.787638,-7.532606,-4.905287,249.059998,12.25,25.76,1729471651915.0,0.0
-1.976472,-5.161318,-1.038485,209.649994,23.940001,19.460001,1729471651934.0,0.0
-4.744967,-8.142776,3.907479,200.759995,7.28,29.68,1729471651958.0,0.0
-3.60359,-5.929415,2.201397,203.699997,-5.81,33.740002,1729471651974.0,0.0
-4.297509,-3.476771,3.29731,87.849998,-3.22,32.130001,1729471651994.0,0.0
-4.199404,-8.02792,0.078963,-94.919998,-19.040001,28.700001,1729471652015.0,0.0
-2.041078,-13.832907,-4.488935,-120.540001,-40.25,21.0,1729471652034.0,0.0
-2.038685,-10.389636,-6.601797,-57.189999,-12.81,0.91,1729471652055.0,0.0
-2.713461,-7.668997,-5.347959,-48.509998,3.5,-9.66,1729471652074.0,0.0
-1.749153,-10.573883,-5.826523,-107.730003,-19.74,-23.379999,1729471652094.0,0.0
-2.900101,-10.145569,-3.376273,-104.860001,1.33,-35.700001,1729471652115.0,0.0
-4.26401,-11.109876,-2.067399,-74.129997,-9.59,-36.82,1729471652134.0,0.0
-3.716053,-9.920642,-0.794417,14.07,-3.64,-36.330002,1729471652159.0,0.0
-4.163511,-9.32483,-0.181855,27.299999,-3.5,-31.57,1729471652173.0,0.0
-3.952943,-7.939385,1.722832,-20.719999,2.38,-41.23,1729471652194.0,0.0
-3.871587,-9.159724,2.400001,-50.959999,-4.97,-36.75,1729471652215.0,0.0
-3.948158,-8.169096,2.991028,-29.68,-8.68,-31.5,1729471652235.0,0.0
-3.385844,-7.9346,3.017349,27.790001,-19.32,-11.62,1729471652255.0,0.0
-2.63689,-7.872386,1.136591,78.82,-32.759998,18.41,1729471652274.0,0.0
-1.952543,-13.095919,-0.964308,100.870003,-30.870001,40.32,1729471652295.0,0.0
-0.124427,-10.715059,-6.855437,133.770004,-0.07,32.27,1729471652325.0,0.0
-11.339586,-9.635897,2.957529,120.959999,26.809999,18.549999,1729471652335.0,0.0
-6.269196,-7.786245,-2.562713,36.82,39.48,13.72,1729471652354.0,0.0
0.581456,-12.634104,-1.308874,21.559999,-41.860001,8.33,1729471652374.0,0.0
-1.844866,-10.085747,-1.112662,9.38,10.36,-18.76,1729471652395.0,0.0
-4.165904,-5.630312,-1.672583,-14.07,8.12,-7.0,1729471652416.0,0.0
-2.995814,-5.9677,-5.735595,-89.879997,-3.57,-15.05,1729471652434.0,0.0
-2.031506,-6.690332,-6.989435,-138.039993,9.59,-20.58,1729471652454.0,0.0
-3.869194,-10.758131,-4.962714,-120.68,17.43,-10.5,1729471652473.0,0.0
-5.053641,-10.336994,2.306681,-123.760002,19.25,-21.91,1729471652494.0,0.0
-4.149154,-11.607583,-1.103091,-138.110001,-22.610001,-23.870001,1729471652515.0,0.0
-2.785245,-11.492726,-4.630112,-137.690002,-33.880001,-39.200001,1729471652534.0,0.0
-2.490928,-10.24846,-3.168097,-107.520004,-15.12,-37.310001,1729471652554.0,0.0
-3.347559,-10.743774,-3.56052,-47.18,1.12,-24.43,1729471652574.0,0.0
-5.479564,-11.24866,-1.292124,2.38,19.460001,-24.639999,1729471652594.0,0.0
-3.89073,-7.9681,-0.696311,51.59,31.290001,-20.16,1729471652615.0,0.0
-2.766103,-7.496714,2.337788,10.5,18.969999,-21.700001,1729471652634.0,0.0
-4.852644,-9.142976,0.26321,-49.84,22.469999,-23.24,1729471652654.0,0.0
-4.855037,-10.595419,-2.833102,-50.82,12.67,-24.01,1729471652675.0,0.0
-3.964907,-10.925629,-3.026921,23.379999,20.299999,-10.43,1729471652695.0,0.0
-3.847659,-8.405986,-0.875773,94.220001,40.950001,12.46,1729471652716.0,0.0
-4.168297,-8.288737,0.473779,86.309998,47.040001,20.790001,1729471652733.0,0.0
-2.895315,-9.753145,-0.232104,69.860001,37.170002,24.08,1729471652754.0,0.0
-0.753739,-9.564112,-0.801596,72.660004,30.309999,24.15,1729471652774.0,0.0
1.134198,-9.58804,-1.012164,79.870003,19.460001,23.73,1729471652795.0,0.0
2.268396,-8.855836,-0.832702,82.809998,12.95,26.460001,1729471652816.0,0.0
2.519642,-8.489735,-1.954936,85.75,6.86,32.900002,1729471652833.0,0.0
-0.5001,-13.256237,-4.311867,75.599998,15.54,16.450001,1729471652855.0,0.0
-4.907679,-7.408179,-1.59362,92.959999,27.09,23.24,1729471652875.0,0.0
-1.378266,-4.828716,2.359323,115.220001,-7.98,29.889999,1729471652894.0,0.0
-2.081756,-11.464014,0.114855,-37.66,-29.540001,7.49,1729471652915.0,0.0
-3.761517,-9.054441,-0.902094,-99.050003,-31.01,2.66,1729471652935.0,0.0
-3.979264,-6.79083,-1.682154,-89.949997,-35.700001,2.38,1729471652956.0,0.0
-3.919443,-10.253245,-11.102697,-149.100006,-36.610001,-6.65,1729471652974.0,0.0
1.488336,-13.548162,-7.848458,-229.389999,-17.290001,-55.720001,1729471652995.0,0.0
-0.825524,-13.435699,0.993021,-119.770004,2.59,-0.77,1729471653015.0,0.0
-8.441878,-16.000805,-2.847459,15.33,40.25,-42.420002,1729471653033.0,0.0
-7.4345,-7.65464,-1.792224,122.080002,-3.99,-33.32,1729471653054.0,0.0
-1.761117,-2.488536,-2.445465,133.419998,-24.57,-27.02,1729471653073.0,0.0
-2.603391,-5.520242,-1.251446,-31.219999,3.36,-19.950001,1729471653094.0,0.0
-5.946165,-10.068997,-0.181855,-123.270004,22.120001,-28.139999,1729471653115.0,0.0
-6.321837,-11.97847,-0.236889,-53.130001,4.48,-17.99,1729471653134.0,0.0
-4.488935,-10.090532,0.421137,39.27,-7.63,-24.43,1729471653156.0,0.0
-4.302295,-7.51107,0.794417,43.610001,-5.39,-25.76,1729471653175.0,0.0
-3.352344,-7.353144,0.167498,-3.57,-15.47,-19.809999,1729471653195.0,0.0
-1.40698,-8.267202,-0.531207,-13.65,-22.33,-6.37,1729471653215.0,0.0
0.227318,-7.858029,-0.107677,28.700001,-20.860001,15.05,1729471653234.0,0.0
-0.344566,-6.874579,1.320838,66.849998,-8.96,42.349998,1729471653254.0,0.0
-2.057827,-10.892128,1.131805,56.420002,0.98,53.900002,1729471653274.0,0.0
-0.253639,-11.279767,0.583849,34.02,-15.47,42.560001,1729471653293.0,0.0
-0.026321,-9.284152,0.327817,31.43,-16.870001,40.32,1729471653315.0,0.0
-3.996014,-10.301102,0.356531,-13.16,-3.78,24.710001,1729471653333.0,0.0
-7.250252,-8.492127,-6.305088,-90.230003,4.13,37.099998,1729471653356.0,0.0
-2.163112,-9.997212,-5.867201,-114.730003,-45.990002,13.09,1729471653373.0,0.0
0.622134,-11.889936,-8.717053,-109.270004,-52.150002,-3.01,1729471653393.0,0.0
-3.737589,-11.487941,-7.166504,-73.220001,-8.61,-6.79,1729471653417.0,0.0
-7.635497,-8.946764,-6.774081,-86.590004,-8.89,-34.650002,1729471653434.0,0.0
-8.018349,-8.870193,-7.948956,-140.490005,-21.139999,-52.849998,1729471653453.0,0.0
-5.364708,-11.157731,-4.814359,-148.050003,-29.049999,-76.580002,1729471653480.0,0.0
-5.666204,-10.681561,-2.419144,-75.879997,-4.69,-71.050003,1729471653493.0,0.0
-8.394022,-9.454042,-5.106283,-26.32,48.93,-63.700001,1729471653515.0,0.0
-6.171089,-7.396214,-2.63689,-1.54,61.110001,-44.380001,1729471653533.0,0.0
-0.631705,-6.001199,-1.823331,43.68,51.73,-19.950001,1729471653555.0,0.0
1.366302,-6.398407,0.325424,46.130001,74.340004,-6.72,1729471653574.0,0.0
2.321038,-9.875179,4.862216,0.77,64.470001,8.26,1729471653595.0,0.0
2.620141,-10.612168,2.242075,26.25,23.799999,18.620001,1729471653616.0,0.0
0.547956,-9.114261,1.713261,44.450001,15.75,14.0,1729471653634.0,0.0
1.292124,-7.903493,0.40678,59.990002,-13.02,24.780001,1729471653655.0,0.0
1.356731,-9.186047,-2.313859,63.07,-50.119999,30.799999,1729471653674.0,0.0
-2.931208,-8.910872,-0.79681,17.43,-57.540001,18.9,1729471653694.0,0.0
-6.407979,-7.15454,-3.189633,-82.459999,-86.449997,8.4,1729471653715.0,0.0
-7.657032,-9.425328,-11.80858,-165.270004,-103.040001,-10.5,1729471653734.0,0.0
-8.336594,-11.330014,-14.605788,-114.309998,-50.049999,-9.94,1729471653755.0,0.0
-8.55434,-13.354343,-10.193424,-3.71,15.4,-12.25,1729471653774.0,0.0
-6.484549,-8.394022,-7.740781,51.59,35.420002,-6.23,1729471653794.0,0.0
-4.515256,-5.515456,-5.376673,53.619999,47.810001,-7.35,1729471653816.0,0.0
-2.177469,-8.185846,-3.63709,-5.39,49.91,-13.93,1729471653834.0,0.0
-0.564706,-8.980263,1.124627,-45.290001,52.849998,-12.74,1729471653856.0,0.0
1.859223,-5.462814,5.07757,150.779999,-8.61,16.66,1729471653875.0,0.0
-0.734596,-5.264209,4.216154,53.130001,-8.54,4.2,1729471653895.0,0.0
-0.437887,-5.948557,1.761117,-76.370003,-43.259998,22.190001,1729471653916.0,0.0
-0.258425,-8.980263,-2.89053,-135.589996,-52.990002,28.84,1729471653935.0,0.0
-2.230111,-12.06222,-4.388437,-109.690002,-51.52,16.73,1729471653958.0,0.0
-4.797609,-11.784652,-7.537392,-16.17,-36.189999,26.67,1729471653975.0,0.0
-3.888337,-8.669197,-9.217153,75.809998,-67.900002,22.75,1729471653995.0,0.0
-2.488536,-4.529613,-11.004591,64.260002,-65.940002,22.889999,1729471654019.0,0.0
-2.538785,-4.570292,-10.250853,-29.960001,-52.709999,30.940001,1729471654034.0,0.0
-5.096712,-9.032906,-12.102897,-106.400002,-10.43,30.66,1729471654056.0,0.0
-7.542177,-12.083755,-11.954542,-77.629997,35.420002,19.74,1729471654075.0,0.0
-7.987241,-9.016156,-5.965307,-9.87,56.420002,11.83,1729471654095.0,0.0
-5.596812,-9.920642,-8.078169,7.56,48.369999,-0.21,1729471654127.0,0.0
-3.756732,-9.726824,-4.790431,24.290001,72.029999,-11.41,1729471654135.0,0.0
-2.615355,-10.054641,7.676175,23.309999,95.970001,-11.9,1729471654156.0,0.0
-1.538585,-11.05484,7.372287,36.610001,26.460001,-7.77,1729471654175.0,0.0
-2.488536,-11.064411,2.924029,22.049999,25.690001,-21.77,1729471654198.0,0.0
-0.476172,-6.092126,4.441079,48.790001,-0.56,-5.6,1729471654216.0,0.0
-2.134398,-8.662018,1.191626,5.88,-23.030001,23.59,1729471654235.0,0.0
-2.273181,-9.016156,-2.139183,-41.299999,-35.84,7.21,1729471654266.0,0.0
-1.115055,-7.676175,-5.307281,-35.349998,-60.900002,22.120001,1729471654275.0,0.0
-0.662812,-7.487142,-12.622139,-55.23,-86.099998,18.41,1729471654294.0,0.0
-6.508478,-2.9336,-10.691131,-117.879997,-31.08,26.67,1729471654317.0,0.0
-5.871986,-3.349952,-11.540584,-149.589996,-60.549999,21.98,1729471654335.0,0.0
-5.486742,-6.668797,-8.578269,-194.529999,-57.119999,12.95,1729471654356.0,0.0
-7.700103,-8.365308,-13.42852,-136.289993,-20.719999,9.73,1729471654375.0,0.0
-9.473185,-8.075776,-11.114661,-33.110001,27.93,21.559999,1729471654395.0,0.0
-7.49432,-8.626125,-8.405986,53.760002,42.139999,7.84,1729471654416.0,0.0
-6.51087,-8.492127,-6.62094,136.570007,59.360001,11.13,1729471654435.0,0.0
-6.262017,-7.63789,-3.45045,137.690002,78.610001,-8.26,1729471654455.0,0.0
-4.721039,-6.288338,-2.397608,68.32,85.330002,-14.7,1729471654475.0,0.0
-1.911865,-9.126225,1.265803,42.490002,45.150002,2.45,1729471654495.0,0.0
-0.820738,-5.871986,2.505285,92.470001,63.630001,-1.4,1729471654516.0,0.0
-1.892723,-8.60459,1.639083,62.16,57.330002,21.35,1729471654535.0,0.0
0.894916,-10.102496,0.746561,-9.52,6.79,20.65,1729471654556.0,0.0
-0.002393,-10.671989,-0.069392,-24.92,-7.21,12.11,1729471654574.0,0.0
-2.143969,-10.566705,-1.543371,-78.610001,-19.32,-3.85,1729471654594.0,0.0
-1.402194,-9.154939,-3.732803,-112.840004,-58.029999,-21.139999,1729471654619.0,0.0
-2.842674,-8.977871,-5.742774,-130.130005,-79.099998,-38.57,1729471654635.0,0.0
-6.348158,-7.599605,-4.067799,-85.190002,-63.560001,-46.619999,1729471654656.0,0.0
-12.626925,-6.221339,-10.755738,-32.34,-23.309999,-24.290001,1729471654674.0,0.0
-9.176475,-8.590233,-10.509278,13.58,-43.330002,-15.61,1729471654694.0,0.0
-5.230711,-6.910471,-10.514063,69.860001,4.69,-6.58,1729471654716.0,0.0
-6.522834,-7.62114,-7.046863,112.840004,37.52,18.620001,1729471654745.0,0.0
-6.608976,-5.843273,-9.597611,139.440002,64.82,13.86,1729471654756.0,0.0
-4.529613,-9.305687,0.844666,141.820007,58.310001,30.940001,1729471654775.0,0.0
0.701097,-7.403394,1.538585,215.25,13.58,20.860001,1729471654795.0,0.0
-2.720639,-4.354938,4.275974,156.380005,47.459999,23.66,1729471654816.0,0.0
-2.574677,-7.415358,-0.200997,1.54,18.969999,16.870001,1729471654835.0,0.0
1.172483,-11.052447,-1.512264,-48.16,-19.6,21.559999,1729471654856.0,0.0
0.416351,-10.688738,-2.713461,-2.03,-26.809999,18.549999,1729471654875.0,0.0
-2.053042,-8.91805,-2.062613,35.630001,-25.549999,8.54,1729471654894.0,0.0
-2.502892,-4.599005,-0.217747,0.21,-42.139999,8.75,1729471654918.0,0.0
-12.863814,-4.876573,4.728218,-147.139999,-32.830002,-7.49,1729471654934.0,0.0
-11.038091,-11.552547,-9.942179,-141.259995,-41.509998,-1.96,1729471654958.0,0.0
-3.95055,-10.080962,-9.875179,11.27,-86.590004,5.95,1729471654975.0,0.0
-3.830909,-9.427721,-9.832108,94.220001,-26.32,15.190001,1729471654995.0,0.0
-8.829515,-9.303294,-10.066606,131.460007,36.400002,5.95,1729471655016.0,0.0
-8.063812,-8.329416,-7.216753,175.770004,34.02,2.31,1729471655035.0,0.0
-3.534199,-4.498507,-3.900301,143.009995,31.08,-28.700001,1729471655055.0,0.0
-1.677369,-3.436093,-3.921836,27.65,37.73,-39.759998,1729471655074.0,0.0
-1.354338,-8.740981,-6.288338,-84.769997,32.619999,-51.450001,1729471655094.0,0.0
-3.567699,-16.838293,-5.178068,-71.260002,35.07,-52.220001,1729471655116.0,0.0
-5.125426,-8.477771,-5.268995,44.799999,65.309998,-55.790001,1729471655134.0,0.0
-3.058028,-8.980263,-4.074977,180.460007,45.5,-8.82,1729471655155.0,0.0
1.304088,-0.823131,1.033699,157.5,54.950001,-30.66,1729471655174.0,0.0
-1.112662,-4.268795,8.848659,71.68,67.410004,7.21,1729471655196.0,0.0
-6.67119,-10.363315,12.222539,-8.26,48.16,5.25,1729471655219.0,0.0
-3.460021,-7.185646,4.768896,-30.24,-31.01,-5.04,1729471655234.0,0.0
0.277567,-3.268596,0.866202,-3.15,-48.509998,21.700001,1729471655255.0,0.0
0.20339,-5.795416,-0.918844,15.47,-32.689999,58.099998,1729471655275.0,0.0
-2.392823,-8.62134,-1.339981,81.620003,-15.61,96.669998,1729471655294.0,0.0
-6.242875,-11.236694,1.785046,188.089996,-22.33,132.440002,1729471655315.0,0.0
-7.970492,-15.337994,0.129212,208.529999,-34.93,113.610001,1729471655334.0,0.0
-7.54457,-15.866807,-3.294917,149.729996,-40.459999,73.709999,1729471655356.0,0.0
-5.931807,-14.419148,-5.20439,96.25,-29.75,36.049999,1729471655375.0,0.0
-4.448257,-11.619547,-5.429315,31.5,-7.7,-12.53,1729471655395.0,0.0
-5.405386,-4.158726,-3.122634,-52.709999,24.85,-28.91,1729471655418.0,0.0
-7.975278,-4.12044,-0.734596,-192.009995,36.75,-27.93,1729471655435.0,0.0
-5.754738,-4.192225,0.997807,-333.970001,-10.29,-67.690002,1729471655454.0,0.0
-4.677969,-5.929415,-2.416751,-421.119995,-41.860001,-61.810001,1729471655473.0,0.0
-5.051248,-4.261617,-4.881358,-490.630005,-44.240002,-68.459999,1729471655495.0,0.0
-8.635696,-6.317052,-2.579463,-559.789978,-22.26,-76.019997,1729471655525.0,0.0
-7.369894,-9.334401,-10.454242,-520.72998,-40.389999,-98.139999,1729471655535.0,0.0
-5.343173,-4.381258,-8.702696,-358.26001,-24.85,-84.699997,1729471655554.0,0.0
-5.441278,-2.11047,-8.070991,-323.329987,18.969999,-98.559998,1729471655576.0,0.0
-3.352344,-0.823131,-7.877172,-355.390015,13.09,-80.010002,1729471655594.0,0.0
0.198604,0.550349,-9.566505,-350.420013,3.78,-61.389999,1729471655618.0,0.0
-1.871187,-8.116454,-11.078769,-281.820007,-3.15,-34.509998,1729471655635.0,0.0
-0.926022,-9.224331,-10.320245,-133.279999,-24.01,-39.130001,1729471655654.0,0.0
-3.680161,-1.038485,-8.779266,-38.43,-18.200001,-32.34,1729471655675.0,0.0
-4.934,-1.801795,-9.614362,-58.59,-20.09,-14.07,1729471655694.0,0.0
-6.132804,-3.658626,-9.966106,-70.699997,-14.84,-12.81,1729471655716.0,0.0
-6.513263,-2.251646,-9.707682,-34.509998,-8.61,-6.58,1729471655734.0,0.0
-6.185446,-1.318445,-9.547362,-5.95,-2.66,6.51,1729471655755.0,0.0
-5.448457,-0.870987,-10.719845,1.75,3.22,10.57,1729471655774.0,0.0
-4.814359,-1.835295,-9.635897,1.68,10.92,6.3,1729471655795.0,0.0
-3.625126,-3.814159,-9.339187,5.25,10.22,-6.72,1729471655819.0,0.0
-3.158526,-4.165904,-11.356337,49.420002,10.99,-14.56,1729471655834.0,0.0
-2.727818,-3.536592,-12.799208,139.089996,17.08,-5.18,1729471655854.0,0.0
-2.368894,-4.491328,-9.863215,279.019989,31.5,10.92,1729471655875.0,0.0
-0.59342,-6.939186,-9.375079,364.48999,24.360001,18.129999,1729471655896.0,0.0
0.528814,-8.130811,-10.339387,396.059998,42.560001,8.54,1729471655916.0,0.0
0.265603,-8.989835,-10.059426,509.880005,48.02,21.210001,1729471655935.0,0.0
1.39023,-4.634897,-10.585848,686.630005,49.420002,35.07,1729471655958.0,0.0
0.323031,-1.351945,-1.227518,605.01001,88.900002,19.18,1729471655975.0,0.0
-3.761517,-3.582055,2.321038,278.600006,93.940002,-4.41,1729471655995.0,0.0
-2.191825,-9.253045,2.268396,80.779999,30.24,-3.99,1729471656016.0,0.0
0.358923,-12.270394,0.978664,80.57,-2.66,-8.12,1729471656035.0,0.0
-0.071785,-13.201202,-1.562513,192.220001,-8.19,-4.27,1729471656056.0,0.0
-0.535992,-9.456435,-1.40698,320.320007,-2.38,-2.52,1729471656075.0,0.0
-1.935793,-6.017949,1.251446,378.350006,5.04,21.700001,1729471656096.0,0.0
-1.931008,-1.179662,-1.07677,386.959991,17.99,55.790001,1729471656117.0,0.0
-4.622933,-4.957928,2.837888,323.75,38.150002,61.740002,1729471656183.0,0.0
-9.958927,-7.305287,4.185047,206.289993,65.940002,56.560001,1729471656186.0,0.0
-6.946364,-9.348758,2.809174,120.330002,51.450001,34.16,1729471656186.0,0.0
-3.058028,-7.67139,0.361316,158.970001,63.0,40.040001,1729471656220.0,0.0
-3.84048,-5.91745,0.57667,180.110001,84.629997,50.959999,1729471656220.0,0.0
-6.601797,-6.235696,4.651647,147.910004,88.410004,55.650002,1729471656242.0,0.0
-7.37468,-7.384251,6.625726,60.48,65.309998,53.970001,1729471656256.0,0.0
-6.707082,-7.89153,7.013363,-5.88,34.439999,58.099998,1729471656276.0,0.0
-6.381658,-8.305488,6.750153,-48.439999,0.21,52.43,1729471656296.0,0.0
-6.125626,-8.886944,7.972885,-73.150002,-20.790001,40.950001,1729471656317.0,0.0
-6.168696,-7.178468,7.630712,-82.879997,-31.15,29.68,1729471656336.0,0.0
-6.206983,-2.713461,3.402594,-133.419998,-23.940001,20.719999,1729471656358.0,0.0
-5.802595,-2.821138,-0.911665,-255.149994,-7.28,1.96,1729471656377.0,0.0
-6.072984,-8.719445,-6.970293,-373.589996,32.900002,-12.53,1729471656396.0,0.0
-5.297709,-10.906486,-4.625326,-352.170013,58.73,-24.99,1729471656419.0,0.0
-3.725625,-5.436492,-5.000999,-338.380005,70.840004,-14.91,1729471656435.0,0.0
-1.658226,-5.111069,-7.092326,-381.850006,54.810001,-12.95,1729471656456.0,0.0
-3.17049,-10.202995,-4.962714,-363.230011,38.43,7.21,1729471656477.0,0.0
-4.723432,-7.207181,-4.778467,-328.720001,27.370001,-18.549999,1729471656496.0,0.0
-3.172883,-7.123433,-9.391829,-395.429993,8.68,-36.959999,1729471656528.0,0.0
-1.555335,-12.552748,-12.631711,-465.98999,14.84,-72.029999,1729471656536.0,0.0
-1.019342,-23.038095,-10.207782,-408.23999,25.690001,-98.419998,1729471656556.0,0.0
-1.895115,-15.663417,-3.113062,-117.389999,23.24,-95.129997,1729471656575.0,0.0
-3.397808,-7.491928,-8.530413,199.570007,-8.75,-91.559998,1729471656596.0,0.0
-3.108276,0.641276,-2.63689,241.009995,-13.440001,-51.799999,1729471656618.0,0.0
-3.139383,-3.737589,-2.409572,2.45,6.02,-45.990002,1729471656636.0,0.0
-5.376673,-9.566505,-4.694718,-148.050003,20.02,-37.52,1729471656657.0,0.0
-5.237889,-9.030513,-5.412565,-37.099998,0.77,-23.030001,1729471656675.0,0.0
-5.367101,-5.048856,-5.4341,115.849998,-7.56,10.57,1729471656695.0,0.0
-5.733203,-1.138984,-3.18724,74.620003,-2.52,23.379999,1729471656717.0,0.0
-8.647661,1.26341,-1.115055,-75.739998,6.65,35.630001,1729471656735.0,0.0
-10.581062,-4.003192,-8.181061,-296.589996,7.7,16.66,1729471656756.0,0.0
-4.462614,-8.733803,-12.847065,-348.670013,-22.540001,-10.36,1729471656775.0,0.0
-0.492921,-6.982256,-11.85165,-222.949997,-29.120001,3.43,1729471656796.0,0.0
-3.785445,-3.440879,-8.724231,-177.169998,14.21,-7.98,1729471656818.0,0.0
-3.646662,-6.951149,-6.762117,-201.740005,11.69,-21.559999,1729471656836.0,0.0
-1.234696,-7.458428,-6.635297,-204.399994,-22.26,-58.799999,1729471656948.0,0.0
-5.379066,-6.159126,-8.645268,-110.529999,-9.24,-64.75,1729471656948.0,0.0
-5.407779,-4.682754,-9.286544,-81.059998,-10.64,-62.650002,1729471656948.0,0.0
-4.852644,-5.453243,-10.473385,-54.810001,-0.98,-58.939999,1729471656948.0,0.0
-3.720839,-5.582455,-10.930414,3.64,8.82,-52.709999,1729471656950.0,0.0
-2.615355,-5.02732,-9.958927,50.470001,15.26,-41.93,1729471656958.0,0.0
-1.782653,-4.096512,-8.925228,65.029999,11.06,-31.15,1729471656974.0,0.0
-2.37368,-4.61097,-9.422935,78.260002,8.19,-24.08,1729471656994.0,0.0
-2.785245,-5.649454,-9.769895,113.82,11.62,-26.040001,1729471657017.0,0.0
-2.663212,-5.07757,-10.408779,151.830002,10.15,-18.969999,1729471657034.0,0.0
-3.012564,-3.512664,-9.353544,214.550003,15.89,-11.83,1729471657054.0,0.0
-4.063013,-3.275774,-10.427922,272.089996,31.219999,3.15,1729471657075.0,0.0
-3.194418,-2.837888,-11.444871,306.459991,25.41,20.51,1729471657094.0,0.0
-2.883351,-2.888137,-6.51087,329.839996,16.52,23.17,1729471657116.0,0.0
-3.175276,-3.330809,-7.77428,301.769989,31.710001,15.82,1729471657135.0,0.0
-4.376472,-5.431707,-4.756931,222.529999,47.040001,17.57,1729471657156.0,0.0
-3.976871,-9.06162,-6.453443,192.289993,44.380001,1.68,1729471657175.0,0.0
-3.421736,-10.676775,-5.168497,326.480011,24.01,17.99,1729471657194.0,0.0
-3.366701,-7.769495,-1.706082,417.059998,38.920002,20.58,1729471657216.0,0.0
-3.471986,-2.316252,-1.445265,398.089996,52.009998,27.790001,1729471657236.0,0.0
-4.118048,-3.223132,1.497907,297.220001,49.420002,50.610001,1729471657257.0,0.0
-4.23051,-8.310273,1.191626,180.949997,36.400002,28.98,1729471657275.0,0.0
-4.500899,-12.605389,0.382852,169.820007,22.4,20.370001,1729471657295.0,0.0
-4.130012,-11.653046,1.378266,261.170013,34.369999,23.309999,1729471657316.0,0.0
-4.201797,-7.458428,4.15394,308.070007,47.950001,21.91,1729471657334.0,0.0
-4.694718,-5.24746,5.024928,196.559998,33.740002,8.68,1729471657355.0,0.0
-4.027121,-8.937192,3.84048,78.75,10.92,-4.2,1729471657375.0,0.0
-1.342373,-9.702895,2.548356,72.800003,7.21,-5.88,1729471657395.0,0.0
-3.692125,-6.666404,5.029713,118.440002,32.41,6.58,1729471657419.0,0.0
-5.587241,-5.98445,5.630312,73.220001,22.049999,4.2,1729471657436.0,0.0
-4.074977,-7.700103,4.472186,-10.29,3.85,1.68,1729471657457.0,0.0
-2.622534,-9.020942,3.503092,-45.290001,-2.03,-8.61,1729471657476.0,0.0
-3.069991,-9.537791,3.041277,-17.92,0.84,0.63,1729471657495.0,0.0
-3.742374,-6.374479,4.802395,13.09,9.17,7.14,1729471657516.0,0.0
-3.498307,-7.278966,4.256832,-23.940001,-1.82,6.93,1729471657535.0,0.0
-3.63709,-7.087541,4.828716,-32.41,-0.42,19.18,1729471657557.0,0.0
-2.866602,-7.006185,3.940979,-42.349998,5.46,20.440001,1729471657576.0,0.0
-3.349952,-7.13779,5.242674,-86.029999,10.5,21.700001,1729471657597.0,0.0
-6.312266,-9.47797,2.916851,-151.199997,-1.19,28.139999,1729471657624.0,0.0
-4.850252,-11.100305,2.924029,-154.350006,-12.32,10.78,1729471657634.0,0.0
-2.79721,-9.578469,0.973879,-175.699997,-16.940001,-16.66,1729471657655.0,0.0
-3.766303,-8.650054,-0.631705,-206.430008,1.12,-16.030001,1729471657675.0,0.0
-4.943572,-10.083356,0.157926,-253.050003,7.21,-28.280001,1729471657695.0,0.0
-5.130211,-8.135597,-1.947758,-309.119995,2.8,-46.549999,1729471657718.0,0.0
-3.89073,-6.108876,-1.581656,-310.589996,-18.200001,-41.16,1729471657735.0,0.0
-3.761517,-4.113262,-1.471586,-351.959991,-28.84,-36.400002,1729471657755.0,0.0
-6.24766,-4.522435,-1.782653,-460.529999,-20.790001,-45.920002,1729471657774.0,0.0
-8.116454,-8.997013,-5.115855,-526.049988,-20.51,-68.389999,1729471657802.0,0.0
-6.525227,-8.348558,-4.67079,-398.720001,-58.869999,-58.66,1729471657819.0,0.0
-4.010371,-3.220739,-6.197411,-324.730011,-65.029999,-58.310001,1729471657835.0,0.0
-3.912265,-3.598805,-9.030513,-317.730011,-29.610001,-32.619999,1729471657857.0,0.0
-3.007778,-9.123833,-10.226924,-252.210007,-33.459999,-19.74,1729471657875.0,0.0
-0.866202,-10.537991,-10.009177,-106.68,-34.580002,-17.43,1729471657895.0,0.0
-0.887737,-8.626125,-7.836494,59.990002,-24.219999,-10.64,1729471657918.0,0.0
-2.354537,-7.202396,-6.872187,148.050003,-27.65,11.97,1729471657935.0,0.0
-2.380858,-6.049056,-8.207381,162.399994,-35.560001,5.25,1729471657958.0,0.0
-3.546163,-5.855237,-6.817152,188.930008,-22.049999,31.219999,1729471657976.0,0.0
-3.275774,-6.664011,-8.154739,249.899994,-30.940001,43.189999,1729471657996.0,0.0
-3.024528,-7.57089,-11.279767,373.660004,-44.310001,71.190002,1729471658019.0,0.0
-4.599005,-4.646862,-8.135597,455.070007,-5.32,80.709999,1729471658035.0,0.0
-7.156933,-4.240082,-3.354738,508.899994,23.450001,89.739998,1729471658055.0,0.0
-9.650253,-7.846066,-0.512064,495.73999,14.91,81.129997,1729471658074.0,0.0
-10.528419,-7.795816,-1.174876,424.130005,19.25,70.279999,1729471658095.0,0.0
-8.922836,-9.071191,-1.921437,409.01001,-6.72,44.380001,1729471658117.0,0.0
-9.159724,-10.238889,-0.409173,451.290009,13.37,9.87,1729471658134.0,0.0
-9.710074,-7.125826,0.344566,480.830017,48.09,-6.65,1729471658155.0,0.0
-7.877172,-4.680361,2.569891,395.640015,38.43,-31.85,1729471658175.0,0.0
-3.282953,-4.761717,3.584448,174.229996,24.5,-42.91,1729471658193.0,0.0
-1.438086,-7.168896,8.580662,-2.59,18.83,-38.360001,1729471658217.0,0.0
-1.318445,-9.870394,6.618547,-200.830002,-9.87,-47.529999,1729471658236.0,0.0
-3.20399,-10.633704,3.675375,-294.769989,-17.290001,-44.380001,1729471658255.0,0.0
-4.84068,-7.042077,3.438486,-384.089996,-0.42,-59.57,1729471658276.0,0.0
-6.171089,-7.070791,3.627519,-496.51001,-3.99,-71.050003,1729471658294.0,0.0
-4.010371,-8.432307,1.854438,-525.559998,-59.360001,-92.190002,1729471658316.0,0.0
-2.811567,-9.303294,-1.471586,-498.330017,-83.440002,-103.529999,1729471658336.0,0.0
-3.735196,-6.374479,-1.959722,-514.429993,-62.720001,-116.830002,1729471658355.0,0.0
-6.431907,-2.084148,-0.5001,-555.940002,-20.51,-106.050003,1729471658374.0,0.0
-8.568698,-3.39063,-3.101098,-586.179993,-21.07,-119.209999,1729471658395.0,0.0
-5.649454,-1.069592,-8.152347,-505.190002,-53.549999,-83.370003,1729471658416.0,0.0
-2.163112,-3.041277,-8.140383,-335.579987,-65.870003,-35.209999,1729471658434.0,0.0
-2.565106,-5.120641,-9.736395,-238.979996,-14.63,-20.23,1729471658462.0,0.0
-2.481357,-9.257831,-9.958927,-108.010002,-14.63,8.05,1729471658474.0,0.0
-0.485743,-10.526026,-14.194223,44.869999,-18.549999,15.61,1729471658494.0,0.0
-1.275374,-5.95095,-9.657433,210.839996,7.42,24.57,1729471658530.0,0.0
-2.321038,-8.312666,-6.829116,364.420013,19.110001,44.029999,1729471658534.0,0.0
-1.505085,-6.762117,-7.49432,476.48999,3.43,50.049999,1729471658555.0,0.0
-1.359123,-7.506285,-5.54417,568.470032,4.41,82.389999,1729471658575.0,0.0
-1.830509,-7.338787,-4.938786,636.02002,20.16,72.309998,1729471658594.0,0.0
-2.565106,-2.943172,-3.730411,713.440002,54.740002,93.519997,1729471658616.0,0.0
-6.580262,-5.843273,5.190032,753.47998,76.230003,124.879997,1729471658635.0,0.0
-13.069597,0.021535,9.987641,545.650024,113.959999,97.019997,1729471658655.0,0.0
-8.662018,-3.869194,7.992027,252.279999,7.0,77.279999,1729471658674.0,0.0
-3.326023,-8.733803,4.931608,29.889999,-39.830002,27.860001,1729471658696.0,0.0
-5.927022,-10.461421,3.055635,13.79,-12.88,48.580002,1729471658715.0,0.0
-9.372685,-9.281759,2.091327,15.12,-0.28,66.150002,1729471658734.0,0.0
-8.793623,-8.673983,2.254039,-58.939999,-22.33,30.1,1729471658756.0,0.0
-7.874779,-8.489735,0.26321,-188.020004,-31.710001,3.78,1729471658774.0,0.0
-7.664211,-8.243275,-4.326223,-334.73999,-24.85,-42.700001,1729471658795.0,0.0
-8.161918,-8.451449,-7.412964,-422.519989,-19.25,-83.650002,1729471658816.0,0.0
-8.506484,-11.461621,-7.551748,-372.959991,-28.280001,-93.309998,1729471658834.0,0.0
-6.422336,-7.178468,-3.144169,-255.149994,-6.23,-107.239998,1729471658855.0,0.0
-8.16431,-5.151747,-4.527221,-263.899994,87.919998,-99.470001,1729471658874.0,0.0
-7.896315,-10.750952,-4.211368,-330.75,91.559998,-100.099998,1729471658894.0,0.0
-3.452843,-11.425728,-5.898308,-260.399994,80.919998,-83.300003,1729471658915.0,0.0
-0.155533,-10.30828,-5.398208,-48.369999,100.660004,-36.540001,1729471658935.0,0.0
2.486143,-7.554141,4.220939,58.73,116.830002,-19.389999,1729471658958.0,0.0
2.68714,-5.864808,13.375877,68.599998,89.669998,7.21,1729471658974.0,0.0
2.17029,-4.161119,11.626726,12.04,21.91,21.07,1729471658995.0,0.0
0.476172,-8.30788,7.355537,-75.949997,-46.970001,36.470001,1729471659022.0,0.0
-2.481357,-10.863414,1.462015,-137.199997,-101.849998,31.43,1729471659034.0,0.0
-6.029913,-9.068797,-8.360522,-222.529999,-137.130005,-0.56,1729471659089.0,0.0
-8.685946,-9.458827,-19.324436,-279.089996,-119.489998,-23.17,1729471659098.0,0.0
-13.433307,-12.918849,-20.267206,-193.830002,-24.639999,-63.98,1729471659100.0,0.0
-11.904292,-5.587241,-19.972891,27.23,40.459999,-59.150002,1729471659117.0,0.0
-4.54397,-3.663411,-13.373486,114.099998,65.029999,-43.189999,1729471659140.0,0.0
-3.342773,-3.498307,-9.982857,32.48,129.850006,-40.740002,1729471659243.0,0.0
-1.840081,-3.113062,-8.367701,63.0,144.619995,-5.74,1729471659243.0,0.0
-0.167498,-4.733003,9.65504,131.320007,141.050003,33.18,1729471659244.0,0.0
0.775275,-2.057827,15.488741,154.139999,59.150002,63.84,1729471659244.0,0.0
0.701097,-3.565305,14.036297,112.980003,-31.08,87.5,1729471659244.0,0.0
-1.708475,-6.802795,6.228518,3.57,-103.459999,98.910004,1729471659258.0,0.0
-4.101298,-12.177074,-5.520242,-133.979996,-157.360001,74.550003,1729471659273.0,0.0
-5.761917,-12.23211,-16.756937,-336.980011,-143.710007,11.13,1729471659293.0,0.0
-10.442278,-11.050055,-22.612173,-343.209991,-55.93,-20.65,1729471659316.0,0.0
-15.689737,-9.157332,-20.480169,-58.939999,39.689999,-55.09,1729471659334.0,0.0
-9.659825,-8.815158,-15.354744,154.350006,42.139999,-11.97,1729471659356.0,0.0
-1.196411,-4.141976,-9.138189,170.940002,51.029999,-44.099998,1729471659375.0,0.0
0.677169,-3.268596,-5.580062,185.850006,81.830002,-6.09,1729471659394.0,0.0
-0.370888,-3.622734,0.624527,206.009995,90.93,15.89,1729471659415.0,0.0
-1.612763,-4.242475,5.125426,194.180008,60.41,31.290001,1729471659434.0,0.0
-2.177469,-6.372087,3.668197,127.050003,13.93,26.110001,1729471659454.0,0.0
-2.359323,-9.45165,-0.009571,67.340004,-15.82,17.780001,1729471659475.0,0.0
-2.957529,-10.092925,-1.043271,88.830002,-24.639999,27.299999,1729471659494.0,0.0
-3.072384,-9.083155,-1.26341,149.029999,-31.360001,36.119999,1729471659518.0,0.0
-2.993421,-8.767302,-0.311067,193.690002,-33.880001,46.830002,1729471659534.0,0.0
-3.431308,-10.741381,-0.547956,188.580002,-34.369999,56.77,1729471659555.0,0.0
-5.15414,-11.722438,-0.291924,122.849998,-26.18,42.209999,1729471659574.0,0.0
-6.798009,-10.722239,-0.614955,65.029999,-19.32,38.709999,1729471659595.0,0.0
-6.082555,-10.475778,-3.785445,34.93,-24.219999,34.23,1729471659615.0,0.0
-4.675575,-8.920443,-5.283352,7.28,-15.82,13.02,1729471659634.0,0.0
-6.118448,-7.814958,-5.649454,-34.16,14.07,14.0,1729471659655.0,0.0
-7.958528,-7.408179,-1.239482,-102.480003,25.549999,-6.3,1729471659673.0,0.0
-8.82473,-6.865008,0.11007,-205.169998,4.55,-35.07,1729471659694.0,0.0
-6.001199,-5.453243,-2.667997,-318.920013,-45.990002,-61.040001,1729471659717.0,0.0
-3.943372,-6.723832,-4.259224,-358.890015,-62.299999,-66.709999,1729471659733.0,0.0
-4.431508,-3.294917,-5.723632,-419.369995,-26.32,-77.419998,1729471659755.0,0.0
-6.513263,-3.728018,-10.269995,-493.080017,8.47,-73.080002,1729471659774.0,0.0
-5.991628,-8.405986,-9.487542,-528.429993,12.53,-96.459999,1729471659794.0,0.0
-3.888337,-8.767302,-9.116654,-336.420013,3.36,-59.849998,1729471659816.0,0.0
-3.337988,-4.108476,-7.066005,-147.279999,21.77,-38.290001,1729471659842.0,0.0
-4.35733,0.20339,-6.240481,-137.619995,34.790001,-31.360001,1729471659854.0,0.0
-2.883351,-2.335395,-6.778866,-253.119995,6.79,-7.28,1729471659874.0,0.0
-1.526621,-9.047262,-10.557133,-228.830002,-6.72,-7.49,1729471659894.0,0.0
-1.67019,-7.946564,-10.114462,-117.389999,-7.98,-17.08,1729471659916.0,0.0
-2.103291,-7.889136,-10.281959,-16.870001,-5.18,-14.0,1729471659934.0,0.0
-1.947758,-6.558727,-9.578469,47.950001,-2.66,-18.83,1729471659958.0,0.0
-1.847259,-6.18784,-9.346365,96.110001,-3.43,-17.85,1729471659974.0,0.0
-2.055435,-5.98445,-9.923036,142.100006,-1.4,-11.2,1729471659995.0,0.0
-2.474179,-4.893322,-9.626326,197.119995,4.48,1.61,1729471660026.0,0.0
-2.782853,-4.800002,-10.159925,268.029999,10.64,22.469999,1729471660033.0,0.0
-2.644069,-4.783253,-9.233903,354.339996,20.299999,37.799999,1729471660054.0,0.0
-2.667997,-4.185047,-7.872386,501.76001,31.43,70.279999,1729471660074.0,0.0
-2.928815,-9.829715,-7.573284,718.970032,29.190001,118.93,1729471660094.0,0.0
-1.710868,-8.973085,-7.441679,756.48999,47.950001,82.459999,1729471660115.0,0.0
-1.627119,-5.134997,-1.739582,717.98999,80.220001,73.779999,1729471660134.0,0.0
-0.492921,-3.641876,2.330609,589.049988,79.519997,54.880001,1729471660155.0,0.0
-3.680161,-2.199004,7.252645,378.0,81.410004,37.59,1729471660175.0,0.0
-8.55434,-4.366901,8.688338,145.529999,49.139999,33.670002,1729471660195.0,0.0
-5.192425,-10.004392,4.275974,-10.85,-31.639999,15.190001,1729471660215.0,0.0
-2.017149,-9.221939,3.617948,18.76,-38.150002,18.48,1729471660233.0,0.0
-2.366502,-7.487142,4.249653,19.32,-29.75,22.33,1729471660254.0,0.0
-3.917051,-6.436693,4.419543,-61.040001,-29.610001,22.610001,1729471660275.0,0.0
-5.788238,-6.865008,4.876573,-176.330002,-40.459999,19.67,1729471660293.0,0.0
-6.436693,-7.84128,2.316252,-307.860016,-55.93,10.57,1729471660316.0,0.0
-5.962914,-6.355337,-2.416751,-397.950012,-64.470001,3.36,1729471660333.0,0.0
-7.06122,-7.618747,-7.334002,-439.809998,-59.220001,-13.37,1729471660355.0,0.0
-9.195618,-12.167502,-8.726624,-360.360016,-51.799999,-28.77,1729471660375.0,0.0
-10.415956,-9.968499,-7.49432,-203.699997,-7.28,-37.450001,1729471660395.0,0.0
-9.623933,-6.594619,-8.099705,-98.699997,25.059999,-42.77,1729471660415.0,0.0
-7.592427,-7.479963,-8.26481,-82.739998,41.93,-51.869999,1729471660434.0,0.0
-6.51087,-10.114462,-5.99402,-80.919998,56.139999,-52.849998,1729471660454.0,0.0
-5.146961,-8.872586,-5.910272,-34.09,65.800003,-55.23,1729471660473.0,0.0
-3.869194,-7.216753,-5.20439,6.65,74.690002,-47.810001,1729471660494.0,0.0
-1.952543,-5.249853,-1.643869,48.02,73.360001,-25.059999,1729471660515.0,0.0
0.179462,-7.523034,4.24726,114.870003,54.529999,1.96,1729471660534.0,0.0
-0.232104,-4.323831,6.58744,213.850006,40.18,29.049999,1729471660558.0,0.0
-1.421337,-5.539384,7.101898,161.139999,12.53,42.279999,1729471660573.0,0.0
-1.550549,-6.939186,3.912265,64.190002,-8.12,43.68,1729471660595.0,0.0
-1.684547,-11.492726,0.222532,-18.34,-18.41,36.75,1729471660615.0,0.0
-3.117848,-16.153946,-0.239282,-42.07,-30.66,27.09,1729471660634.0,0.0
-4.141976,-13.251451,-2.708675,21.700001,-15.190001,15.4,1729471660655.0,0.0
-6.166305,-9.147761,-1.179662,62.299999,-10.78,9.1,1729471660675.0,0.0
-5.860023,-8.501699,-0.478565,22.120001,-21.210001,2.03,1729471660694.0,0.0
-3.172883,-7.678568,-3.184847,-41.23,-32.970001,-4.27,1729471660715.0,0.0
-3.455236,-10.100104,-2.892922,-83.510002,-23.450001,-7.42,1729471660734.0,0.0
-4.74736,-11.727223,-4.235296,-52.150002,-15.05,-12.32,1729471660754.0,0.0
-4.395615,-11.095518,-5.017749,7.49,-18.76,-15.61,1729471660774.0,0.0
-2.955136,-8.248059,-3.859623,58.52,-18.76,-23.450001,1729471660794.0,0.0
-4.431508,-6.723832,-5.82413,75.18,-0.77,-9.38,1729471660816.0,0.0
-5.084748,-8.334201,-5.388636,12.67,22.540001,-20.860001,1729471660834.0,0.0
-4.268795,-8.9683,-4.046263,17.01,14.28,-18.690001,1729471660854.0,0.0
-4.740182,-8.295916,-0.696311,54.599998,22.33,-11.48,1729471660874.0,0.0
-4.831109,-7.070791,1.189233,79.029999,15.47,-4.2,1729471660893.0,0.0
-3.804588,-7.755138,1.28016,62.299999,16.24,-4.9,1729471660916.0,0.0
-3.457629,-8.126025,1.351945,31.639999,16.24,-6.65,1729471660934.0,0.0
-3.330809,-8.523234,2.091327,23.66,22.26,-3.29,1729471660958.0,0.0
-2.9336,-9.025726,1.911865,55.16,21.84,2.66,1729471660975.0,0.0
-1.045663,-8.020741,-1.457229,117.879997,24.99,19.950001,1729471660993.0,0.0
0.014357,-6.819544,0.715454,197.610001,45.57,41.299999,1729471661015.0,0.0
-2.892922,-5.118248,3.948158,199.779999,58.450001,52.43,1729471661033.0,0.0
-6.632904,-7.41775,8.475377,160.509995,33.18,75.18,1729471661053.0,0.0
-5.333601,-8.468199,6.139983,117.32,-11.2,62.299999,1729471661074.0,0.0
-4.771288,-10.468598,3.921836,49.98,-15.68,57.82,1729471661094.0,0.0
-4.826324,-10.121639,-1.770689,-31.92,-27.09,48.439999,1729471661115.0,0.0
-6.991827,-10.604989,-0.521635,-75.459999,-1.19,31.780001,1729471661201.0,0.0
-6.733403,-11.253445,-2.672783,-103.739998,-5.74,11.9,1729471661203.0,0.0
-6.80758,-9.614362,0.600598,-90.860001,7.14,-2.03,1729471661204.0,0.0
-6.898508,-7.896315,1.564906,-101.290001,-2.38,-11.27,1729471661204.0,0.0
-5.991628,-9.365508,-0.397209,-130.270004,-16.030001,-16.030001,1729471661215.0,0.0
-5.276174,-9.406186,-0.827917,-118.510002,-19.389999,-24.219999,1729471661232.0,0.0
-5.134997,-7.116255,-0.866202,-81.410004,-9.03,-23.66,1729471661254.0,0.0
-5.364708,-7.487142,0.442672,-93.099998,-9.52,-25.059999,1729471661274.0,0.0
-5.510671,-9.707682,0.105284,-125.230003,-10.57,-24.780001,1729471661294.0,0.0
-5.149354,-9.939785,-0.157926,-126.209999,-11.55,-28.559999,1729471661314.0,0.0
-4.666004,-9.65504,-0.81356,-126.07,-6.65,-33.810001,1729471661333.0,0.0
-4.448257,-8.65484,-1.674976,-131.809998,0.63,-40.599998,1729471661354.0,0.0
-4.725825,-8.451449,-2.553142,-140.0,4.41,-38.5,1729471661373.0,0.0
-4.302295,-9.745967,-3.768696,-163.660004,5.46,-44.869999,1729471661394.0,0.0
-3.720839,-9.262616,-4.795217,-199.990005,12.46,-55.439999,1729471661415.0,0.0
-3.68734,-10.140782,-4.295116,-204.259995,16.59,-58.66,1729471661433.0,0.0
-3.309274,-9.142976,-4.833502,-162.330002,18.549999,-64.120003,1729471661454.0,0.0
-3.201597,-7.195218,-2.943172,-99.050003,21.629999,-54.670002,1729471661472.0,0.0
-2.782853,-6.515656,-1.265803,-52.990002,16.1,-45.080002,1729471661493.0,0.0
-2.510071,-8.224132,-0.117248,-43.400002,4.48,-36.330002,1729471661515.0,0.0
-1.65344,-9.049655,-0.069392,-21.629999,-15.47,-35.420002,1729471661533.0,0.0
-0.823131,-7.089933,-0.660419,13.16,-29.33,-22.68,1729471661553.0,0.0
-0.847059,-7.379465,-2.215754,-31.360001,-42.490002,-8.26,1729471661573.0,0.0
-1.184447,-8.185846,-3.668197,-60.200001,-53.130001,0.7,1729471661593.0,0.0
-1.086342,-9.013763,-5.156533,-23.66,-68.529999,12.18,1729471661614.0,0.0
-2.641676,-8.891729,-6.273981,45.360001,-76.510002,15.96,1729471661633.0,0.0
-5.644669,-5.752346,-6.994221,56.630001,-59.220001,18.690001,1729471661653.0,0.0
-6.398407,-3.919443,-8.200203,10.36,-71.330002,28.0,1729471661675.0,0.0
-6.649654,-6.943972,-9.966106,-91.349998,-59.150002,7.42,1729471661693.0,0.0
-8.602197,-9.750752,-13.117454,-129.220001,-10.99,-8.89,1729471661713.0,0.0
-8.427521,-9.109475,-12.394822,-55.23,23.450001,-14.98,1729471661734.0,0.0
-6.108876,-7.178468,-9.516255,57.119999,38.009998,-17.290001,1729471661754.0,0.0
-4.972286,-5.283352,-6.106483,105.279999,56.349998,-10.92,1729471661774.0,0.0
-5.314459,-6.573084,-3.65384,77.559998,70.980003,-6.58,1729471661793.0,0.0
-3.907479,-9.975677,-4.512863,53.48,64.050003,-10.15,1729471661816.0,0.0
-1.237089,-7.913064,-4.596612,124.879997,67.129997,11.06,1729471661832.0,0.0
0.277567,-7.278966,-1.457229,191.800003,85.260002,24.290001,1729471661854.0,0.0
-0.086142,-6.82433,2.414358,228.270004,87.919998,35.98,1729471661880.0,0.0
0.507278,-5.505885,5.151747,285.73999,67.129997,66.010002,1729471661894.0,0.0
-0.552742,-7.353144,5.577669,316.049988,32.830002,79.590004,1729471661915.0,0.0
-2.63689,-8.889337,5.338387,289.660004,18.9,85.190002,1729471661933.0,0.0
-4.024727,-9.049655,5.194818,256.690002,5.81,87.080002,1729471661956.0,0.0
-5.69731,-9.556933,4.725825,155.610001,-4.83,72.099998,1729471661972.0,0.0
-6.496514,-11.94497,2.347359,18.83,-21.42,51.099998,1729471661993.0,0.0
-6.738188,-15.976876,-0.784846,-66.779999,-39.619999,32.200001,1729471662014.0,0.0
-5.187639,-13.813765,-3.443272,-66.5,-31.43,3.92,1729471662033.0,0.0
-5.273781,-7.57089,-3.713661,-90.720001,8.4,-15.54,1729471662055.0,0.0
-7.018148,-5.218746,-3.651447,-218.470001,27.09,-22.82,1729471662072.0,0.0
-6.357729,-4.441079,-4.965107,-360.640015,2.94,-51.869999,1729471662093.0,0.0
-5.814559,-4.941179,-4.101298,-452.899994,-15.68,-55.93,1729471662115.0,0.0
-5.245068,-4.864608,-3.455236,-479.429993,-14.63,-69.580002,1729471662134.0,0.0
-6.896115,-1.852045,-2.256432,-527.799988,3.5,-56.490002,1729471662155.0,0.0
-7.341179,-10.04507,-5.283352,-569.72998,-29.889999,-85.400002,1729471662174.0,0.0
-1.584049,-8.145168,-5.929415,-369.529999,-85.120003,-74.760002,1729471662194.0,0.0
-2.589034,-3.378666,-7.893922,-242.339996,-54.529999,-53.48,1729471662214.0,0.0
-3.424129,-7.489535,-11.408978,-172.339996,-27.299999,-18.41,1729471662234.0,0.0
-1.765903,-13.246667,-13.835299,-16.030001,-26.950001,4.9,1729471662254.0,0.0
-1.646262,-10.442278,-11.925828,160.440002,16.450001,8.4,1729471662274.0,0.0
-2.971886,-6.960721,-8.178668,335.230011,38.360001,37.939999,1729471662294.0,0.0
-3.218346,-8.927622,-5.699703,476.769989,30.380001,53.830002,1729471662314.0,0.0
-2.457429,-6.594619,-7.401,646.380005,-1.61,73.919998,1729471662332.0,0.0
-3.117848,-4.295116,-7.812566,719.809998,28.98,85.540001,1729471662355.0,0.0
-5.278566,-0.045464,-0.071785,691.530029,76.790001,80.57,1729471662372.0,0.0
-9.08794,-1.785046,3.184847,609.700012,62.580002,114.520004,1729471662392.0,0.0
-9.80818,-3.29731,4.371687,472.080017,31.639999,106.82,1729471662414.0,0.0
-7.386643,-5.936593,4.965107,357.910004,4.97,73.849998,1729471662432.0,0.0
-6.331409,-9.585647,2.306681,227.710007,3.15,44.799999,1729471662453.0,0.0
-6.831509,-11.959327,1.76351,173.669998,19.6,38.709999,1729471662473.0,0.0
-7.401,-11.889936,2.431108,122.220001,26.74,14.21,1729471662492.0,0.0
-7.302894,-10.705488,3.524628,4.41,12.25,-13.86,1729471662513.0,0.0
-6.924829,-11.095518,3.658626,-97.370003,-7.98,-46.900002,1729471662533.0,0.0
-6.546762,-8.477771,4.548756,-174.160004,-13.86,-80.360001,1729471662554.0,0.0
-5.71406,-8.281559,3.079563,-268.100006,-46.34,-94.010002,1729471662573.0,0.0
-2.725425,-6.762117,0.832702,-309.399994,-54.459999,-118.720001,1729471662596.0,0.0
-1.921437,-6.333801,1.816152,-328.230011,-39.619999,-99.330002,1729471662615.0,0.0
-3.199204,-6.424729,2.07697,-392.48999,-24.710001,-98.279999,1729471662632.0,0.0
-3.629912,-6.73101,-0.165105,-438.619995,-31.219999,-100.590004,1729471662654.0,0.0
-3.400201,-6.541977,-0.729811,-488.880005,-41.02,-97.440002,1729471662673.0,0.0
-4.244867,-6.235696,-1.112662,-545.720032,-41.16,-102.970001,1729471662694.0,0.0
-4.046263,-6.680761,-4.661219,-518.77002,-54.459999,-112.209999,1729471662715.0,0.0
-4.141976,-2.892922,-5.472386,-456.119995,-52.080002,-86.309998,1729471662733.0,0.0
-3.440879,-3.381058,-8.13799,-367.079987,-50.049999,-62.790001,1729471662753.0,0.0
-2.68714,-6.742974,-10.691131,-251.089996,-39.200001,-33.25,1729471662773.0,0.0
-1.129412,-11.205588,-13.064812,-84.980003,-27.719999,-7.42,1729471662793.0,0.0
-0.088534,-10.624132,-11.899508,150.009995,2.59,19.32,1729471662815.0,0.0
