acc_x,acc_y,acc_z,gyr_x,gyr_y,gyr_z,timestamp,label
-3.735196,-7.89153,-5.142176,-91.209999,26.530001,23.17,1729476226510.0,0.0
-3.775874,-8.269595,-5.046463,-83.720001,16.17,21.91,1729476226510.0,0.0
-3.940979,-8.216952,-5.65424,-73.5,11.27,15.68,1729476226511.0,0.0
-4.072584,-8.274381,-5.85763,-44.59,9.1,13.58,1729476226525.0,0.0
-3.917051,-8.226524,-5.958128,-19.18,5.25,11.69,1729476226544.0,0.0
-3.589234,-7.659425,-5.673382,-14.91,3.5,10.57,1729476226565.0,0.0
-3.486342,-7.676175,-5.24746,-14.77,9.1,10.71,1729476226585.0,0.0
-2.971886,-7.82453,-5.635098,-4.62,0.56,12.18,1729476226605.0,0.0
-2.639283,-7.771888,-5.955735,2.59,-0.49,12.46,1729476226625.0,0.0
-2.514857,-7.601997,-5.63749,5.6,-1.12,12.95,1729476226644.0,0.0
-2.397608,-7.056434,-5.539384,3.15,-1.75,13.02,1729476226664.0,0.0
-2.35693,-6.893722,-6.032306,-4.97,-2.87,12.88,1729476226685.0,0.0
-2.218147,-7.377072,-6.305088,-9.8,-0.91,12.53,1729476226713.0,0.0
-2.277967,-8.262416,-6.565905,-6.58,-0.14,10.08,1729476226725.0,0.0
-2.304288,-7.362715,-6.826723,-2.03,1.26,4.48,1729476226744.0,0.0
-2.012364,-6.929615,-6.817152,-5.74,1.26,2.17,1729476226764.0,0.0
-1.799403,-7.257431,-6.690332,-8.26,4.13,2.52,1729476226785.0,0.0
-1.804188,-7.657032,-6.647261,-3.85,8.33,2.8,1729476226805.0,0.0
-2.457429,-7.578069,-6.711867,-2.17,13.86,-1.61,1729476226824.0,0.0
-2.880959,-6.577869,-6.218946,-8.75,23.1,-6.51,1729476226844.0,0.0
-2.634498,-7.185646,-6.12084,-11.55,20.23,-7.21,1729476226864.0,0.0
-1.773082,-7.518249,-6.477371,-13.440001,7.91,-2.45,1729476226885.0,0.0
-2.268396,-8.023134,-6.072984,-9.66,15.05,-2.17,1729476226904.0,0.0
-1.995614,-7.302894,-5.553742,9.1,8.89,-2.73,1729476226925.0,0.0
-2.287539,-7.066005,-5.417351,21.210001,0.49,-0.49,1729476226944.0,0.0
-2.849852,-6.989435,-5.855237,-3.36,1.33,-0.14,1729476226964.0,0.0
-2.230111,-7.635497,-6.491727,-18.200001,-4.62,1.4,1729476226985.0,0.0
-1.629512,-7.932207,-7.156933,-14.98,-7.91,1.26,1729476227005.0,0.0
-2.0004,-7.975278,-7.068398,-5.32,-0.07,1.26,1729476227025.0,0.0
-1.820938,-7.89153,-6.783652,1.75,1.19,-0.77,1729476227045.0,0.0
-1.473979,-7.953743,-6.910471,8.26,0.28,-1.68,1729476227064.0,0.0
-1.531406,-7.965706,-6.817152,12.95,4.48,-3.71,1729476227088.0,0.0
-1.459622,-7.831708,-6.553941,18.129999,7.63,-5.39,1729476227106.0,0.0
-1.564906,-7.814958,-6.197411,14.07,9.03,-6.58,1729476227125.0,0.0
-1.663012,-7.592427,-6.491727,4.2,5.53,-7.14,1729476227144.0,0.0
-1.596013,-7.893922,-6.975078,1.75,3.29,-6.72,1729476227165.0,0.0
-1.342373,-8.059027,-6.762117,4.97,4.48,-7.14,1729476227184.0,0.0
-1.57687,-7.293324,-6.297909,10.08,9.45,-7.56,1729476227204.0,0.0
-1.615155,-7.130611,-6.350551,4.62,7.98,-6.51,1729476227225.0,0.0
-1.462015,-7.700103,-6.541977,-7.77,5.81,-5.74,1729476227244.0,0.0
-1.385444,-7.534998,-6.78126,-7.14,6.3,-5.74,1729476227264.0,0.0
-1.473979,-7.444071,-6.419943,-1.96,7.35,-4.13,1729476227285.0,0.0
-1.615155,-7.412964,-6.163911,-1.82,7.0,-4.34,1729476227305.0,0.0
-1.830509,-7.267002,-6.250053,-5.39,5.18,-5.18,1729476227327.0,0.0
-1.885544,-7.396214,-6.364908,-18.690001,4.41,-5.67,1729476227345.0,0.0
-1.921437,-7.420143,-6.522834,-28.49,4.27,-6.72,1729476227364.0,0.0
-1.875973,-7.678568,-6.888937,-28.84,3.71,-7.84,1729476227385.0,0.0
-1.696511,-7.944171,-6.888937,-31.780001,3.5,-10.78,1729476227412.0,0.0
-1.689333,-8.271988,-6.924829,-33.670002,6.72,-15.26,1729476227425.0,0.0
-1.485943,-8.159525,-7.025328,-30.17,5.53,-19.18,1729476227444.0,0.0
-1.847259,-7.745567,-6.814759,-31.57,9.17,-23.1,1729476227465.0,0.0
-1.909473,-7.628319,-6.74776,-33.880001,8.4,-26.880001,1729476227484.0,0.0
-1.100698,-7.645068,-7.01097,-19.74,2.03,-26.950001,1729476227504.0,0.0
-0.985843,-7.56132,-7.058826,5.18,0.49,-25.200001,1729476227525.0,0.0
-1.557728,-7.238289,-6.659225,13.93,4.34,-25.969999,1729476227544.0,0.0
-1.526621,-7.389036,-6.570691,6.72,0.42,-27.09,1729476227564.0,0.0
-0.964308,-7.592427,-6.78126,-3.22,-4.41,-28.559999,1729476227585.0,0.0
-1.277767,-7.188039,-7.357929,-4.9,-1.96,-30.24,1729476227604.0,0.0
-2.11047,-7.039684,-7.573284,-11.76,3.01,-33.670002,1729476227625.0,0.0
-2.608176,-7.245467,-7.503892,-19.040001,7.91,-39.619999,1729476227644.0,0.0
-2.364109,-6.867401,-7.037291,-7.42,8.61,-44.310001,1729476227664.0,0.0
-2.048256,-6.922436,-6.702296,7.56,7.14,-45.220001,1729476227684.0,0.0
-2.400001,-6.496514,-6.431907,9.52,12.32,-48.860001,1729476227707.0,0.0
-2.665605,-5.539384,-6.288338,6.51,8.12,-51.240002,1729476227726.0,0.0
-1.909473,-4.510471,-6.407979,-1.05,-10.92,-49.279999,1729476227743.0,0.0
-1.198804,-4.347759,-6.80758,-23.52,-22.68,-43.400002,1729476227765.0,0.0
-0.961915,-4.912465,-7.001399,-51.869999,-23.450001,-38.360001,1729476227785.0,0.0
0.069392,-5.17089,-7.037291,-59.220001,-25.129999,-34.16,1729476227804.0,0.0
1.201197,-4.761717,-7.396214,-41.720001,-36.330002,-25.9,1729476227825.0,0.0
0.521635,-4.898108,-7.893922,-29.68,-32.34,-15.05,1729476227843.0,0.0
-0.739382,-5.130211,-8.267202,-38.290001,-27.790001,-10.71,1729476227863.0,0.0
-0.323031,-5.687739,-7.673782,-36.259998,-30.450001,-7.07,1729476227885.0,0.0
1.574477,-5.702096,-7.51107,-19.67,-46.970001,-5.53,1729476227904.0,0.0
0.571885,-5.843273,-7.365108,-12.32,-44.66,-4.27,1729476227925.0,0.0
-1.048056,-5.599205,-7.470392,-25.129999,-46.130001,-7.56,1729476227943.0,0.0
-2.024328,-7.001399,-7.410572,-56.07,-56.91,-12.74,1729476227963.0,0.0
-1.177269,-6.008378,-6.029913,-71.120003,-67.690002,-25.549999,1729476227984.0,0.0
-1.72044,-5.991628,-5.180461,-41.09,-82.879997,-19.879999,1729476228004.0,0.0
-3.553342,-4.718646,-4.197011,-60.900002,-93.590004,-25.9,1729476228025.0,0.0
-3.924229,-4.398008,-9.387043,-103.25,-117.529999,-26.25,1729476228044.0,0.0
-2.658426,-4.890929,-13.050454,-117.110001,-114.590004,-21.84,1729476228064.0,0.0
-2.569891,-5.84088,-13.000205,-39.689999,-75.459999,13.72,1729476228089.0,0.0
-3.424129,-8.709875,-10.604989,31.01,-40.950001,47.32,1729476228104.0,0.0
0.078963,-8.288737,-10.545169,44.73,-49.77,42.279999,1729476228131.0,0.0
1.208375,-5.936593,-10.547562,69.790001,-48.299999,35.349998,1729476228143.0,0.0
-0.760918,-5.130211,-8.941978,85.68,-22.960001,30.52,1729476228163.0,0.0
-0.473779,-6.101698,-8.678767,61.529999,-31.780001,21.98,1729476228184.0,0.0
1.174876,-6.745367,-8.664411,19.25,-46.970001,1.68,1729476228204.0,0.0
1.462015,-5.615955,-8.499306,-17.290001,-50.259998,-23.940001,1729476228225.0,0.0
0.397209,-5.412565,-6.9009,-30.309999,-54.529999,-40.040001,1729476228244.0,0.0
-2.062613,-2.68714,-7.49432,-36.540001,-64.82,-56.700001,1729476228263.0,0.0
-3.15374,-1.615155,-8.29113,-112.419998,-79.519997,-63.84,1729476228284.0,0.0
-2.057827,-3.866802,-10.695917,-174.720001,-84.349998,-67.760002,1729476228304.0,0.0
-2.22054,-3.661019,-13.756337,-143.5,-67.199997,-57.260002,1729476228324.0,0.0
-4.089334,-4.113262,-14.189439,-50.889999,-27.58,-24.01,1729476228344.0,0.0
-5.489135,-4.843073,-12.655639,29.540001,15.82,17.01,1729476228364.0,0.0
-4.299902,-5.910272,-10.305886,42.91,41.720001,38.009998,1729476228384.0,0.0
-2.756532,-6.508478,-9.772287,53.900002,49.0,42.279999,1729476228403.0,0.0
-2.079363,-6.994221,-7.444071,73.919998,55.299999,31.780001,1729476228425.0,0.0
-1.397408,-8.62134,-5.694918,54.32,45.5,0.07,1729476228443.0,0.0
-0.732204,-7.80778,-4.225725,33.880001,24.43,-41.09,1729476228462.0,0.0
-0.79681,-5.536992,-3.282953,32.900002,-9.24,-73.080002,1729476228484.0,0.0
-2.45025,-1.832902,-3.194418,-4.2,-37.59,-88.900002,1729476228505.0,0.0
-4.524827,1.201197,-4.931608,-68.949997,-58.170002,-86.099998,1729476228524.0,0.0
-2.579463,-0.818345,-8.283953,-145.110001,-87.220001,-67.970001,1729476228544.0,0.0
-1.849652,-3.084348,-13.71566,-153.229996,-70.559998,-40.670002,1729476228563.0,0.0
-4.23051,-4.371687,-13.165311,-48.09,-24.57,4.48,1729476228587.0,0.0
-8.860621,-2.979064,-8.243275,55.510002,11.06,45.009998,1729476228604.0,0.0
-4.12044,-6.376873,-10.085747,-22.889999,20.16,60.200001,1729476228624.0,0.0
-0.294317,-8.999406,-11.20798,17.08,16.66,59.709999,1729476228643.0,0.0
-0.332602,-7.695317,-10.995021,105.629997,33.459999,48.650002,1729476228664.0,0.0
-1.325624,-6.001199,-8.145168,133.630005,47.599998,28.49,1729476228683.0,0.0
-0.811167,-6.463014,-5.479564,86.660004,34.650002,-3.29,1729476228703.0,0.0
0.035892,-5.364708,-3.23031,44.59,3.71,-33.459999,1729476228724.0,0.0
-1.514657,-2.622534,-3.385844,14.84,-24.01,-52.360001,1729476228743.0,0.0
-4.163511,-0.677169,-4.890929,-40.740002,-44.73,-58.52,1729476228763.0,0.0
-3.407379,-1.205983,-7.712067,-114.239998,-75.529999,-55.860001,1729476228784.0,0.0
-2.428715,-1.103091,-11.892329,-180.180008,-79.449997,-45.290001,1729476228804.0,0.0
-4.419543,-3.582055,-11.904292,-140.559998,-47.18,-14.56,1729476228826.0,0.0
-7.288538,-2.909672,-10.437491,-19.530001,-14.49,26.530001,1729476228843.0,0.0
-8.827123,-2.761317,-10.380065,10.43,5.04,61.950001,1729476228863.0,0.0
-5.134997,-6.503692,-11.727223,-22.120001,25.34,77.279999,1729476228884.0,0.0
-2.62732,-7.405786,-11.12184,39.619999,35.0,77.559998,1729476228904.0,0.0
-2.459821,-7.130611,-10.526026,110.739998,52.150002,65.800003,1729476228924.0,0.0
-1.605584,-7.123433,-6.108876,110.32,51.170002,38.639999,1729476228943.0,0.0
-1.634298,-8.092526,-3.929015,63.490002,35.279999,-2.73,1729476228963.0,0.0
-1.057628,-5.905487,-3.156133,28.210001,-2.52,-42.279999,1729476228984.0,0.0
-2.773281,-1.789831,-3.814159,-12.39,-33.25,-68.389999,1729476229008.0,0.0
-4.622933,0.251246,-6.147161,-73.43,-53.41,-75.879997,1729476229024.0,0.0
-1.885544,-1.375873,-8.709875,-134.820007,-79.870003,-66.290001,1729476229043.0,0.0
-2.007578,-2.021935,-10.703095,-151.339996,-73.849998,-49.700001,1729476229063.0,0.0
-6.008378,-2.050649,-10.392029,-83.860001,-51.029999,-8.26,1729476229088.0,0.0
-10.016356,-1.277767,-11.437693,-40.670002,-27.440001,32.41,1729476229103.0,0.0
-8.425128,-5.314459,-12.756138,-46.41,5.18,58.450001,1729476229124.0,0.0
-4.252046,-6.704689,-10.815558,-0.98,23.17,70.07,1729476229143.0,0.0
-3.582055,-5.850451,-10.975878,76.019997,37.170002,69.93,1729476229164.0,0.0
-3.18724,-5.711668,-10.827522,105.980003,49.91,61.459999,1729476229183.0,0.0
-1.878366,-7.546963,-8.939585,113.190002,55.02,45.57,1729476229203.0,0.0
-1.828116,-5.84088,-3.969693,93.519997,47.459999,14.21,1729476229224.0,0.0
-1.813759,-8.128418,-3.830909,54.880001,16.24,-31.15,1729476229243.0,0.0
-1.770689,-3.311667,-3.641876,16.379999,-20.370001,-68.32,1729476229264.0,0.0
-4.192225,1.828116,-6.805188,-94.43,-53.27,-83.860001,1729476229283.0,0.0
-2.646462,-0.87338,-7.89153,-130.759995,-68.669998,-63.84,1729476229303.0,0.0
-2.864209,-2.282753,-10.760524,-140.630005,-67.760002,-51.029999,1729476229325.0,0.0
-6.01077,0.16989,-13.043276,-89.529999,-44.450001,-12.25,1729476229343.0,0.0
-8.752945,-1.048056,-10.715059,-15.12,-19.18,40.670002,1729476229363.0,0.0
-8.707481,-4.613362,-11.509477,12.32,12.18,70.910004,1729476229384.0,0.0
-5.067998,-6.252446,-11.461621,26.6,29.889999,81.129997,1729476229403.0,0.0
-3.725625,-6.23091,-11.277373,72.239998,46.200001,77.699997,1729476229424.0,0.0
-2.868994,-6.659225,-10.514063,126.279999,52.360001,64.120003,1729476229451.0,0.0
-2.352145,-7.034898,-7.587641,116.480003,56.0,37.66,1729476229462.0,0.0
-1.832902,-6.704689,-4.479364,62.790001,39.619999,-7.14,1729476229484.0,0.0
-0.930808,-7.609176,-4.642076,40.670002,4.62,-50.75,1729476229503.0,0.0
-1.909473,-1.727618,-3.909872,1.61,-20.860001,-80.290001,1729476229524.0,0.0
-3.57727,1.507478,-6.410372,-66.5,-38.360001,-87.989998,1729476229543.0,0.0
-3.151347,0.942772,-8.051848,-84.910004,-52.990002,-59.150002,1729476229563.0,0.0
-2.801995,-2.644069,-10.908878,-119.910004,-58.59,-35.77,1729476229583.0,0.0
-6.606583,-2.701497,-9.54497,-57.049999,-24.43,15.33,1729476229603.0,0.0
-10.351351,-2.522035,-10.437491,12.95,-5.81,51.799999,1729476229625.0,0.0
-7.286145,-4.555934,-13.186846,-17.219999,16.66,63.139999,1729476229644.0,0.0
-4.149154,-7.523034,-11.765509,24.710001,35.209999,70.209999,1729476229663.0,0.0
-2.866602,-6.589834,-11.736795,110.459999,50.400002,66.919998,1729476229685.0,0.0
-1.942972,-6.089733,-9.887143,147.070007,59.43,52.779999,1729476229708.0,0.0
-1.9669,-6.91765,-3.165704,121.870003,58.099998,25.129999,1729476229727.0,0.0
-2.352145,-7.956135,-3.270989,46.130001,30.59,-14.91,1729476229744.0,0.0
-1.246661,-7.678568,-5.087141,9.66,-5.46,-57.470001,1729476229764.0,0.0
-2.665605,-2.667997,-4.661219,1.68,-24.01,-80.639999,1729476229784.0,0.0
-3.620341,0.638884,-6.070591,-61.529999,-36.540001,-87.43,1729476229804.0,0.0
-2.270789,-0.583849,-7.252645,-89.809998,-52.57,-64.82,1729476229824.0,0.0
-3.215954,-3.799802,-9.975677,-93.940002,-52.57,-40.880001,1729476229846.0,0.0
-7.159326,-1.639083,-10.207782,-22.26,-28.700001,13.86,1729476229865.0,0.0
-8.925228,-2.409572,-9.95175,16.59,17.710001,49.139999,1729476229885.0,0.0
-5.869594,-3.859623,-9.71486,17.43,33.880001,64.75,1729476229905.0,0.0
-3.792624,-5.067998,-11.373087,69.440002,42.490002,80.989998,1729476229929.0,0.0
-3.716053,-5.259424,-9.803394,120.75,62.720001,82.949997,1729476229946.0,0.0
-3.211168,-7.02772,-6.685547,116.970001,68.879997,69.580002,1729476229964.0,0.0
-2.158326,-8.717053,-3.304488,79.379997,52.990002,29.190001,1729476229986.0,0.0
-1.308874,-8.295916,-3.436093,54.740002,18.34,-18.549999,1729476230005.0,0.0
-1.40698,-4.577469,-3.517449,30.52,-10.99,-58.099998,1729476230027.0,0.0
-2.512464,-2.641676,-5.958128,-10.71,-32.900002,-74.690002,1729476230046.0,0.0
-2.35693,-1.107877,-8.370094,-43.330002,-47.040001,-79.379997,1729476230065.0,0.0
-2.78046,-5.067998,-9.171689,-47.32,-59.220001,-63.139999,1729476230089.0,0.0
-3.110669,-3.165704,-11.480762,-64.959999,-48.23,-80.709999,1729476230107.0,0.0
-5.091926,-1.239482,-12.815958,-19.530001,-27.09,-54.880001,1729476230128.0,0.0
-6.26441,-2.947958,-11.9689,69.300003,1.47,-6.58,1729476230146.0,0.0
-7.688138,-6.125626,-9.640682,107.800003,44.66,25.200001,1729476230169.0,0.0
-4.474578,-6.178268,-10.219746,73.779999,52.5,33.040001,1729476230188.0,0.0
-2.493321,-6.865008,-8.836694,162.330002,84.279999,48.23,1729476230205.0,0.0
-2.507678,-5.955735,-7.13779,182.630005,98.279999,50.75,1729476230227.0,0.0
-1.452443,-7.121039,-3.34038,152.389999,87.5,40.950001,1729476230245.0,0.0
-0.5001,-7.343572,0.4666,91.419998,57.189999,22.889999,1729476230265.0,0.0
-1.751546,-8.35813,0.083749,31.57,16.309999,-5.04,1729476230286.0,0.0
-3.424129,-8.001599,-2.344966,16.52,-10.08,-30.870001,1729476230305.0,0.0
-1.342373,-7.814958,-4.713861,51.240002,-67.059998,-41.439999,1729476230328.0,0.0
0.792024,-5.675776,-7.398607,66.919998,-107.730003,-42.490002,1729476230345.0,0.0
-0.052642,-4.716253,-10.13839,52.290001,-101.57,-32.619999,1729476230365.0,0.0
-3.608376,-4.019942,-6.594619,-45.57,-57.540001,-16.870001,1729476230385.0,0.0
-7.582855,-5.680561,-9.851252,-142.240005,-21.559999,-5.6,1729476230407.0,0.0
-8.800802,-9.664611,-13.105491,-94.849998,2.94,-0.84,1729476230426.0,0.0
-4.878965,-10.140782,-13.136597,3.43,0.35,23.1,1729476230444.0,0.0
-3.708875,-6.058627,-9.422935,40.740002,44.869999,29.75,1729476230464.0,0.0
-4.991428,-5.9342,-7.647461,34.860001,107.449997,39.34,1729476230486.0,0.0
-3.342773,-7.712067,-6.374479,8.33,103.18,48.16,1729476230505.0,0.0
-0.650848,-10.15514,4.15394,8.4,87.360001,51.240002,1729476230526.0,0.0
-0.708275,-10.380065,1.399801,15.75,23.799999,16.1,1729476230545.0,0.0
-2.699104,-9.731609,-1.239482,10.92,-12.6,-20.16,1729476230564.0,0.0
-2.036292,-7.049256,-2.902494,6.72,-47.810001,-37.380001,1729476230587.0,0.0
0.916451,-4.4339,-3.95055,-27.58,-119.840004,-48.16,1729476230606.0,0.0
-0.193819,-3.108276,-10.734202,-91.910004,-134.119995,-46.900002,1729476230627.0,0.0
-5.24746,-3.98405,-13.39502,-163.240005,-81.480003,-35.279999,1729476230645.0,0.0
-10.633704,-6.678369,-11.313265,-197.119995,-10.57,-23.799999,1729476230664.0,0.0
-9.348758,-5.972485,-13.58884,-107.379997,4.13,3.36,1729476230686.0,0.0
-4.321437,-4.754539,-10.064213,-14.21,3.15,40.25,1729476230710.0,0.0
-3.584448,-4.754539,-9.320045,-41.09,46.619999,41.439999,1729476230725.0,0.0
-3.615555,-5.553742,-9.662218,-49.700001,66.639999,43.400002,1729476230745.0,0.0
-1.725225,-5.76431,-7.9346,1.61,66.849998,49.630001,1729476230766.0,0.0
-0.87338,-7.587641,0.066999,65.519997,53.830002,51.380001,1729476230785.0,0.0
-0.177069,-6.285945,-1.928615,72.519997,13.3,15.61,1729476230806.0,0.0
-0.526421,-4.429115,-2.431108,3.57,-23.1,-10.64,1729476230827.0,0.0
-2.368894,-3.744767,-4.68754,-83.650002,-53.200001,-36.75,1729476230844.0,0.0
-2.029114,-0.775275,-8.877372,-142.380005,-79.940002,-55.790001,1729476230864.0,0.0
-3.412165,-1.196411,-13.194024,-162.610001,-88.410004,-32.970001,1729476230887.0,0.0
-7.594819,-3.962514,-13.785051,-150.009995,-39.200001,-0.07,1729476230904.0,0.0
-9.006584,-6.300302,-11.767902,-69.440002,-2.73,34.02,1729476230926.0,0.0
-6.159126,-3.414558,-11.566904,28.280001,10.15,61.32,1729476230944.0,0.0
-4.144369,-5.096712,-10.992627,51.450001,32.27,67.970001,1729476230964.0,0.0
-2.964707,-7.034898,-9.355937,71.120003,44.099998,58.869999,1729476230985.0,0.0
-2.608176,-7.566105,-7.183254,62.510002,46.900002,28.35,1729476231005.0,0.0
-1.624727,-8.767302,-3.842873,63.07,30.380001,-12.53,1729476231025.0,0.0
-1.237089,-5.699703,-4.084548,54.670002,0.91,-51.170002,1729476231045.0,0.0
-1.751546,-2.684747,-3.270989,-8.82,-29.190001,-75.32,1729476231066.0,0.0
-2.667997,-2.907279,-6.71426,-67.410004,-56.77,-87.220001,1729476231089.0,0.0
-2.909672,2.266003,-9.004191,-109.270004,-67.199997,-83.790001,1729476231105.0,0.0
-2.974278,0.251246,-10.664811,-104.580002,-63.209999,-34.580002,1729476231125.0,0.0
-4.850252,-3.818945,-10.949556,-93.169998,-42.0,3.43,1729476231145.0,0.0
-7.987241,-1.215554,-11.906685,-73.290001,-8.75,28.630001,1729476231164.0,0.0
-8.815158,-4.615755,-10.313066,-19.460001,3.5,60.760002,1729476231186.0,0.0
-3.869194,-5.474778,-11.002198,1.26,10.64,62.860001,1729476231204.0,0.0
-3.517449,-6.606583,-10.516455,87.43,28.35,68.669998,1729476231225.0,0.0
-3.790231,-6.589834,-9.24826,104.019997,50.119999,52.150002,1729476231246.0,0.0
-2.847459,-6.582655,-7.032506,97.300003,47.950001,29.26,1729476231264.0,0.0
-1.713261,-8.719445,-5.730811,80.43,34.93,-7.0,1729476231285.0,0.0
-0.887737,-5.199604,-4.453043,55.860001,14.21,-50.049999,1729476231307.0,0.0
-1.428515,-2.675175,-4.448257,17.5,-11.2,-77.699997,1729476231325.0,0.0
-2.266003,-1.031307,-5.075177,-33.110001,-34.439999,-83.160004,1729476231344.0,0.0
-3.409772,1.478764,-8.757731,-68.459999,-49.98,-74.199997,1729476231365.0,0.0
-3.61077,1.909473,-10.018748,-99.68,-50.400002,-48.509998,1729476231384.0,0.0
-3.120241,-2.981457,-10.320245,-115.360001,-50.540001,-27.09,1729476231404.0,0.0
-4.663611,-0.904487,-12.260822,-72.379997,-34.580002,-6.16,1729476231426.0,0.0
-7.06122,-0.854238,-11.763116,-44.380001,-11.76,25.48,1729476231444.0,0.0
-7.092326,-4.364508,-10.834702,-21.49,8.96,50.330002,1729476231507.0,0.0
-6.776474,-5.565705,-12.564712,37.66,30.52,65.099998,1729476231507.0,0.0
-5.146961,-7.762317,-10.289137,90.93,55.510002,70.769997,1729476231508.0,0.0
-3.63709,-8.549555,-9.583255,157.570007,71.260002,64.68,1729476231526.0,0.0
-2.053042,-6.257231,-6.783652,157.710007,76.93,48.23,1729476231546.0,0.0
-1.172483,-8.080563,-4.034299,109.199997,67.199997,26.32,1729476231565.0,0.0
-0.789631,-6.702296,-4.596612,94.779999,39.900002,3.22,1729476231585.0,0.0
-1.414158,-6.005985,-4.498507,84.840004,18.690001,-23.450001,1729476231605.0,0.0
-2.861816,-3.986443,-6.486942,56.77,5.74,-42.139999,1729476231625.0,0.0
-3.859623,-3.058028,-5.379066,33.740002,-6.16,-45.639999,1729476231644.0,0.0
-2.567499,-3.275774,-5.458029,-10.78,-40.110001,-52.360001,1729476231664.0,0.0
-2.215754,-5.52742,-8.628519,-43.82,-61.880001,-56.84,1729476231686.0,0.0
-2.139183,-4.216154,-12.600604,-52.360001,-64.959999,-71.959999,1729476231705.0,0.0
-3.905087,-5.831308,-13.141381,2.03,-30.73,-52.709999,1729476231725.0,0.0
-5.472386,-4.161119,-8.441878,70.349998,1.05,-31.290001,1729476231744.0,0.0
-6.4678,-5.448457,-9.879964,130.270004,16.309999,1.05,1729476231764.0,0.0
-3.85723,-3.091527,-10.523634,97.090004,18.76,24.639999,1729476231785.0,0.0
-3.682554,-4.443472,-10.147961,59.57,46.689999,41.299999,1729476231804.0,0.0
-5.4341,-5.175675,-8.764909,36.049999,97.160004,49.630001,1729476231825.0,0.0
-4.240082,-6.080163,-6.9344,49.209999,84.629997,53.830002,1729476231844.0,0.0
-2.371287,-6.321837,-4.991428,43.68,63.490002,54.25,1729476231864.0,0.0
-1.574477,-8.932407,-2.799603,45.360001,56.0,29.190001,1729476231885.0,0.0
-1.337588,-9.937392,-2.18704,20.16,30.450001,19.389999,1729476231905.0,0.0
-0.51685,-9.521042,-4.070191,18.200001,-1.54,-4.41,1729476231925.0,0.0
0.124427,-7.862815,-4.795217,27.370001,-14.07,-9.17,1729476231943.0,0.0
-0.224925,-4.326223,-3.711268,0.49,-16.24,-3.57,1729476231964.0,0.0
-2.136791,-1.572084,-0.114855,-88.620003,-2.45,17.639999,1729476231984.0,0.0
-4.453043,-6.302694,-2.455036,-114.870003,-12.88,25.9,1729476232005.0,0.0
-4.630112,-9.860823,-3.708875,-41.93,-38.360001,32.130001,1729476232025.0,0.0
-5.347959,-14.000405,-2.787638,85.889999,-52.43,31.99,1729476232043.0,0.0
-5.608776,-12.976277,-5.192425,99.68,-73.779999,5.6,1729476232064.0,0.0
-4.54397,-8.84148,-9.284152,70.629997,-90.93,-4.27,1729476232088.0,0.0
-2.730211,-7.446464,-12.641282,89.949997,-81.830002,11.06,1729476232104.0,0.0
-1.462015,-8.126025,-12.827922,146.160004,-46.200001,29.82,1729476232127.0,0.0
-2.505285,-8.714661,-11.547763,245.210007,25.969999,44.59,1729476232144.0,0.0
-4.766503,-10.246067,-7.398607,341.600006,82.529999,31.43,1729476232173.0,0.0
-5.682954,-9.686146,-6.338587,343.209991,73.080002,18.059999,1729476232184.0,0.0
-4.570292,-8.260024,-3.347559,328.019989,49.349998,14.98,1729476232216.0,0.0
-4.268795,-8.094919,-2.232504,297.220001,51.240002,-9.17,1729476232354.0,0.0
-4.323831,-8.446664,-1.978864,278.040009,59.290001,-20.790001,1729476232355.0,0.0
-5.022535,-7.798209,-0.435494,264.179993,54.25,-13.02,1729476232355.0,0.0
-4.675575,-8.238488,-0.421137,265.860016,44.310001,-20.93,1729476232355.0,0.0
-4.12044,-8.822337,-0.875773,267.890015,48.860001,-28.280001,1729476232356.0,0.0
-3.893122,-10.04507,-0.323031,283.850006,51.59,-31.15,1729476232356.0,0.0
-3.830909,-9.008978,1.749153,303.170013,67.059998,-37.52,1729476232357.0,0.0
-4.862216,-8.583055,2.098505,314.720001,83.580002,-45.150002,1729476232363.0,0.0
-5.804988,-7.850852,2.979064,310.450012,77.419998,-62.580002,1729476232384.0,0.0
-4.752146,-5.958128,5.936593,311.640015,54.18,-67.900002,1729476232404.0,0.0
-4.639683,-3.249453,7.259824,307.790009,58.380001,-58.240002,1729476232425.0,0.0
-6.223732,-5.773881,6.67119,258.649994,29.75,-53.970001,1729476232444.0,0.0
-4.570292,-6.068198,3.699304,185.779999,0.77,-72.519997,1729476232463.0,0.0
-4.158726,-2.787638,6.412765,201.740005,20.299999,-38.150002,1729476232484.0,0.0
-4.333402,1.820938,9.305687,189.490005,28.139999,-16.870001,1729476232504.0,0.0
-5.276174,-2.95035,7.67139,64.470001,-16.309999,-27.16,1729476232524.0,0.0
-2.254039,-2.876173,7.642675,20.719999,-36.68,-15.75,1729476232544.0,0.0
-3.23031,-1.837688,9.370294,37.869999,-12.67,7.77,1729476232564.0,0.0
-2.146362,-3.321238,8.470592,-23.52,-33.25,12.88,1729476232584.0,0.0
-1.820938,-4.63729,6.4678,-62.510002,-39.549999,13.37,1729476232604.0,0.0
-2.761317,-4.773681,6.108876,-77.559998,-36.68,26.950001,1729476232625.0,0.0
-1.995614,-3.268596,7.128219,-90.580002,-28.210001,44.099998,1729476232643.0,0.0
-1.428515,-3.273381,7.642675,-111.300003,-36.119999,48.09,1729476232663.0,0.0
-2.134398,-4.797609,5.905487,-156.660004,-44.310001,49.0,1729476232684.0,0.0
-2.409572,-6.570691,5.314459,-194.529999,-53.900002,54.110001,1729476232703.0,0.0
-2.18704,-7.582855,3.682554,-200.550003,-48.790001,58.380001,1729476232727.0,0.0
-2.766103,-6.79083,4.835894,-206.289993,-38.57,59.150002,1729476232743.0,0.0
-3.215954,-7.171289,4.788038,-239.820007,-40.25,63.349998,1729476232763.0,0.0
-3.479164,-8.760124,2.766103,-274.75,-51.799999,58.099998,1729476232784.0,0.0
-3.926622,-10.238889,2.806781,-293.160004,-54.18,52.290001,1729476232804.0,0.0
-4.498507,-11.176874,2.218147,-345.869995,-53.48,53.970001,1729476232824.0,0.0
-3.924229,-11.392227,0.914058,-418.880005,-52.849998,43.889999,1729476232843.0,0.0
-3.876373,-11.3683,0.239282,-457.519989,-37.869999,35.91,1729476232870.0,0.0
-4.886144,-12.930815,2.794817,-393.610016,-22.82,3.57,1729476232884.0,0.0
-4.917251,-13.311273,0.681954,-306.110016,-1.26,-7.49,1729476232904.0,0.0
-4.505685,-12.701102,-1.328017,-189.630005,7.77,-19.32,1729476232926.0,0.0
-4.010371,-13.036098,0.612563,-118.300003,24.15,-29.540001,1729476232944.0,0.0
-1.708475,-9.506684,-0.698704,-128.240005,10.08,-37.240002,1729476232964.0,0.0
-0.48335,-10.322637,-0.722632,-96.599998,4.48,-30.1,1729476232985.0,0.0
-0.394816,-9.480364,-2.400001,-91.209999,2.87,-37.099998,1729476233005.0,0.0
-1.167697,-7.403394,-4.130012,-43.470001,5.74,-24.01,1729476233025.0,0.0
-1.945365,-6.532406,-2.507678,14.35,1.82,-9.45,1729476233045.0,0.0
-1.895115,-7.850852,-4.189832,51.240002,-4.62,-1.47,1729476233064.0,0.0
-1.765903,-8.932407,-5.486742,76.650002,-0.56,3.5,1729476233087.0,0.0
-1.871187,-8.118847,-4.369294,109.410004,1.19,14.28,1729476233105.0,0.0
-3.287738,-6.570691,-2.136791,111.580002,11.97,22.120001,1729476233125.0,0.0
-4.395615,-7.255038,-1.557728,88.970001,21.280001,23.309999,1729476233144.0,0.0
-4.56072,-8.047063,-0.282353,58.799999,-1.54,19.879999,1729476233165.0,0.0
-3.962514,-7.523034,-0.234497,32.130001,-21.139999,21.210001,1729476233185.0,0.0
-4.07737,-7.185646,-0.971486,-1.05,-28.07,24.85,1729476233206.0,0.0
-4.744967,-7.458428,-1.37348,-47.880001,-32.130001,22.33,1729476233227.0,0.0
-4.551149,-8.183454,-1.799403,-61.18,-32.27,21.07,1729476233247.0,0.0
-4.261617,-7.125826,-2.395216,-72.660004,-38.220001,20.719999,1729476233265.0,0.0
-4.429115,-7.233503,-3.440879,-96.739998,-41.790001,22.26,1729476233287.0,0.0
-4.845466,-9.887143,-2.883351,-129.149994,-53.689999,7.14,1729476233306.0,0.0
-5.206782,-8.499306,-4.599005,-178.639999,-64.68,-11.55,1729476233327.0,0.0
-4.95075,-6.522834,-8.23131,-201.600006,-69.300003,-16.309999,1729476233348.0,0.0
-4.125226,-4.802395,-11.306087,-221.339996,-77.0,-15.26,1729476233365.0,0.0
-3.962514,-4.926822,-12.567105,-264.670013,-48.509998,-9.52,1729476233387.0,0.0
-4.804788,-7.515855,-11.607583,-285.73999,20.51,-12.18,1729476233408.0,0.0
-5.630312,-8.956335,-9.628718,-220.570007,59.990002,-7.35,1729476233429.0,0.0
-4.692325,-7.424929,-10.41835,-76.090004,51.52,13.58,1729476233446.0,0.0
-2.725425,-6.128019,-6.474977,4.9,53.34,26.25,1729476233465.0,0.0
-2.749353,-6.757331,-3.400201,-12.25,88.480003,20.16,1729476233487.0,0.0
-2.404787,-8.99462,-2.057827,-19.950001,70.769997,21.559999,1729476233507.0,0.0
-1.115055,-12.459428,-1.411765,32.34,33.459999,12.32,1729476233527.0,0.0
-0.107677,-11.942577,0.038285,73.989998,6.72,-3.5,1729476233546.0,0.0
-1.51705,-12.605389,-0.859023,139.720001,-7.77,-13.16,1729476233566.0,0.0
-2.622534,-12.239288,-1.878366,191.800003,-30.52,-22.540001,1729476233591.0,0.0
-3.455236,-10.533205,-2.880959,212.309998,-52.150002,-14.42,1729476233606.0,0.0
-3.15374,-5.618347,-8.539984,184.660004,-64.610001,3.15,1729476233629.0,0.0
-3.574877,-5.931807,-12.035898,240.589996,-24.92,37.170002,1729476233646.0,0.0
-4.723432,-10.554741,-8.556733,329.0,36.119999,39.900002,1729476233668.0,0.0
-5.302495,-12.14836,-7.13779,358.75,58.869999,22.190001,1729476233687.0,0.0
-4.773681,-13.686946,-3.522235,436.940002,49.349998,19.67,1729476233706.0,0.0
-2.720639,-11.136196,-2.471786,456.119995,42.139999,-6.16,1729476233726.0,0.0
-2.787638,-7.982457,-1.0002,420.140015,54.950001,-25.129999,1729476233745.0,0.0
-3.708875,-7.678568,-1.919044,411.73999,75.599998,-30.66,1729476233766.0,0.0
-4.625326,-9.609575,0.425922,408.380005,68.110001,-49.209999,1729476233786.0,0.0
-4.039084,-5.438886,3.87398,377.649994,63.139999,-60.41,1729476233806.0,0.0
-5.9342,-3.428915,8.274381,398.089996,74.550003,-51.380001,1729476233826.0,0.0
-6.015556,-2.667997,8.147561,305.690002,41.16,-49.490002,1729476233845.0,0.0
-5.07757,-5.922236,5.295317,174.580002,-0.14,-57.82,1729476233865.0,0.0
-3.160919,-7.018148,4.299902,159.600006,2.24,-49.98,1729476233886.0,0.0
-3.771089,-4.228118,5.929415,230.020004,27.299999,-31.780001,1729476233907.0,0.0
-2.742175,1.931008,8.695518,228.059998,28.77,-35.209999,1729476233927.0,0.0
-3.122634,-4.431508,6.943972,109.550003,8.33,-12.32,1729476234037.0,0.0
-2.294717,-2.505285,8.769694,-10.71,-36.330002,-25.83,1729476234054.0,0.0
-2.392823,-0.765703,8.748159,30.1,-7.56,0.63,1729476234055.0,0.0
-2.457429,-3.464807,7.563712,37.170002,-5.6,20.23,1729476234055.0,0.0
-2.151148,-6.417551,6.245267,-50.259998,-27.09,12.04,1729476234055.0,0.0
-2.672783,-5.63749,6.202196,-87.080002,-28.35,30.73,1729476234087.0,0.0
-2.490928,-4.795217,7.786245,-76.860001,-20.16,27.299999,1729476234090.0,0.0
-2.892922,-5.094319,7.255038,-123.900002,-28.84,27.16,1729476234110.0,0.0
-2.68714,-6.080163,5.924629,-171.779999,-40.040001,34.580002,1729476234134.0,0.0
-2.615355,-6.570691,4.934,-189.699997,-44.380001,33.040001,1729476234151.0,0.0
-2.651247,-5.237889,5.551349,-181.160004,-36.400002,37.869999,1729476234166.0,0.0
-3.641876,-6.326623,7.334002,-206.430008,-32.060001,41.369999,1729476234187.0,0.0
-4.091727,-6.82433,6.04427,-286.369995,-49.420002,44.099998,1729476234206.0,0.0
-3.634698,-7.819745,3.775874,-360.01001,-70.419998,46.689999,1729476234228.0,0.0
-2.421536,-9.064013,-0.088534,-392.070007,-82.669998,37.799999,1729476234245.0,0.0
-2.019542,-10.255639,-1.462015,-426.019989,-60.41,26.880001,1729476234314.0,0.0
-3.976871,-9.595219,0.586242,-478.589996,-33.32,14.7,1729476234318.0,0.0
-5.292924,-13.469198,0.624527,-471.029999,-36.400002,-6.79,1729476234319.0,0.0
-4.232903,-18.24288,2.079363,-402.01001,-63.91,-31.219999,1729476234330.0,0.0
-1.103091,-11.715261,-3.998406,-345.380005,-26.809999,-18.41,1729476234346.0,0.0
-0.143569,-10.34178,-2.727818,-129.779999,15.89,-13.16,1729476234366.0,0.0
-1.562513,-10.021141,-1.208375,-25.34,47.529999,-20.790001,1729476234387.0,0.0
-4.130012,-6.407979,2.167897,-95.830002,46.060001,-18.76,1729476234466.0,0.0
-1.091127,-8.992228,-2.63689,-44.73,-36.889999,-8.05,1729476234471.0,0.0
0.540778,-11.298907,-4.354938,48.369999,-31.290001,6.65,1729476234473.0,0.0
-1.339981,-8.877372,-2.395216,125.720001,-6.09,19.32,1729476234474.0,0.0
-2.701497,-6.350551,-0.256032,169.539993,4.48,27.719999,1729476234488.0,0.0
-2.158326,-7.716853,-2.225325,146.720001,-1.47,40.110001,1729476234509.0,0.0
-2.912065,-5.316852,2.249253,70.910004,-12.88,43.400002,1729476234530.0,0.0
-4.900501,-7.140182,1.617548,33.32,-4.48,61.389999,1729476234546.0,0.0
-5.659025,-7.422535,0.995414,-34.790001,-11.76,45.849998,1729476234566.0,0.0
-7.424929,-10.009177,1.28016,-116.059998,-38.43,51.52,1729476234587.0,0.0
-6.477371,-7.362715,-3.672983,-187.110001,-59.709999,13.93,1729476234606.0,0.0
-5.197211,-6.281159,-5.74756,-163.660004,-57.75,10.15,1729476234628.0,0.0
-4.168297,-3.897908,-7.812566,-181.720001,-81.830002,13.16,1729476234645.0,0.0
-3.909872,-3.582055,-8.891729,-194.600006,-85.75,24.710001,1729476234666.0,0.0
-4.596612,-6.972685,-8.449057,-208.320007,-61.32,9.87,1729476234686.0,0.0
-5.548956,-6.281159,-7.152147,-259.910004,-52.57,-10.57,1729476234707.0,0.0
-5.156533,-6.331409,-8.49452,-221.270004,-65.800003,-11.83,1729476234727.0,0.0
-4.335794,-7.345965,-9.590433,-166.669998,-71.120003,-1.47,1729476234748.0,0.0
-4.527221,-9.635897,-11.593226,-174.020004,-36.259998,-10.36,1729476234767.0,0.0
-4.699504,-7.01097,-5.828916,-145.180008,-2.87,-7.49,1729476234792.0,0.0
-5.053641,-5.501099,-7.630712,-95.340004,0.07,4.06,1729476234808.0,0.0
-4.354938,-9.343972,-10.616954,-75.739998,-22.4,-3.64,1729476234828.0,0.0
-3.917051,-7.06122,-8.913264,9.31,8.68,5.81,1729476234848.0,0.0
-4.651647,-6.34098,-8.061419,87.779999,43.189999,16.66,1729476234866.0,0.0
-6.149554,-4.902894,-7.965706,75.669998,53.34,17.01,1729476234888.0,0.0
-6.78126,-5.912664,-7.67139,66.150002,66.849998,16.030001,1729476234914.0,0.0
-5.125426,-7.101898,-7.877172,61.18,53.830002,15.4,1729476234929.0,0.0
-3.574877,-7.77428,-7.472785,59.639999,62.02,8.33,1729476234947.0,0.0
-3.663411,-6.005985,-5.843273,59.150002,76.580002,7.14,1729476234969.0,0.0
-4.163511,-7.190433,-5.328816,61.040001,73.080002,8.33,1729476234990.0,0.0
-3.479164,-5.412565,-4.953143,44.799999,69.860001,8.12,1729476235009.0,0.0
-2.208575,-7.613962,-5.290531,58.450001,51.52,21.91,1729476235032.0,0.0
-1.842474,-9.470792,-3.522235,65.870003,51.099998,10.57,1729476235047.0,0.0
-1.629512,-8.437093,-0.40678,60.549999,43.82,-3.36,1729476235068.0,0.0
-1.753939,-5.721239,0.916451,26.530001,5.25,-9.45,1729476235092.0,0.0
-3.438486,-6.441479,-2.24686,-29.540001,-28.630001,-13.86,1729476235107.0,0.0
-4.826324,-9.176475,-3.644269,-63.98,-44.869999,-28.35,1729476235129.0,0.0
-3.850052,-7.601997,-5.814559,-60.060001,-75.389999,-33.459999,1729476235148.0,0.0
-2.639283,-5.233103,-8.767302,-39.619999,-107.940002,-20.719999,1729476235168.0,0.0
-4.017549,-6.326623,-13.18206,-50.400002,-77.139999,-10.5,1729476235190.0,0.0
-7.458428,-7.264609,-7.568498,-63.279999,-7.0,-13.3,1729476235208.0,0.0
-10.068997,-6.166305,-11.392227,-12.32,23.17,-5.74,1729476235228.0,0.0
-7.255038,-3.981657,-11.897114,-4.69,19.67,6.86,1729476235249.0,0.0
-3.335595,-4.575077,-10.289137,15.190001,33.110001,17.639999,1729476235270.0,0.0
-3.192025,-7.039684,-8.133204,40.25,73.080002,25.9,1729476235289.0,0.0
-4.237689,-7.326823,-6.317052,46.34,99.260002,19.32,1729476235311.0,0.0
-3.139383,-5.584848,-2.622534,43.119999,91.840004,17.85,1729476235329.0,0.0
0.234497,-6.675975,1.320838,52.990002,41.23,15.96,1729476235348.0,0.0
-1.471586,-7.709675,0.930808,14.63,2.24,3.08,1729476235370.0,0.0
-4.579862,-9.568897,-1.177269,-0.21,-17.710001,-20.58,1729476235391.0,0.0
-3.881158,-8.070991,-4.991428,10.85,-64.190002,-33.670002,1729476235409.0,0.0
-1.270589,-4.644469,-8.394022,30.940001,-125.580002,-25.27,1729476235430.0,0.0
-2.017149,-4.503292,-13.385449,-33.040001,-113.959999,-10.08,1729476235450.0,0.0
-6.374479,-6.393622,-9.863215,-165.479996,-26.110001,-15.33,1729476235468.0,0.0
-10.15514,-6.216553,-9.846465,-193.270004,20.860001,-18.48,1729476235488.0,0.0
-6.996613,-5.163712,-10.664811,-104.650002,-7.98,1.75,1729476235508.0,0.0
-2.328217,-5.115855,-9.54497,9.38,-12.67,25.34,1729476235529.0,0.0
-3.416951,-6.396015,-8.492127,41.09,31.780001,20.299999,1729476235548.0,0.0
-6.309873,-6.472585,-7.877172,5.53,74.480003,10.15,1729476235569.0,0.0
-4.546363,-4.668397,-6.424729,-13.93,50.610001,5.95,1729476235590.0,0.0
-2.306681,-5.67099,-5.158926,-11.48,31.01,11.9,1729476235611.0,0.0
-1.270589,-6.460621,-6.391229,-7.63,30.940001,5.46,1729476235634.0,0.0
-1.423729,-9.52822,-5.886343,10.71,23.17,4.97,1729476235648.0,0.0
-2.392823,-9.262616,-6.082555,4.41,27.09,-15.61,1729476235670.0,0.0
-2.512464,-6.398407,-6.704689,-4.62,21.42,-28.35,1729476235690.0,0.0
-2.500499,-7.056434,-6.439085,-17.92,14.35,-25.549999,1729476235709.0,0.0
-2.907279,-7.336394,-6.065805,39.900002,17.01,-14.49,1729476235732.0,0.0
-3.4672,-6.508478,-5.496314,113.470001,17.5,-3.15,1729476235748.0,0.0
-3.672983,-5.120641,-5.276174,130.339996,14.77,7.21,1729476235769.0,0.0
-3.627519,-5.948557,-4.843073,105.209999,13.37,16.59,1729476235788.0,0.0
-3.168097,-8.688338,-3.476771,97.440002,8.12,17.290001,1729476235809.0,0.0
-3.239882,-10.289137,-2.048256,106.68,-3.5,15.12,1729476235829.0,0.0
-3.639483,-9.968499,-2.019542,103.599998,-15.68,6.37,1729476235850.0,0.0
-3.854837,-9.265009,-2.79721,100.309998,-42.560001,7.77,1729476235880.0,0.0
-3.24706,-8.597411,-5.331209,109.830002,-61.18,12.53,1729476235889.0,0.0
-2.809174,-8.429914,-9.174082,138.180008,-52.57,23.24,1729476235908.0,0.0
-3.455236,-9.052048,-10.951948,197.259995,3.85,32.200001,1729476235929.0,0.0
-4.371687,-8.571091,-9.188439,255.919998,58.170002,33.740002,1729476235949.0,0.0
-5.034499,-8.709875,-5.350351,285.880005,67.690002,38.57,1729476235969.0,0.0
-3.522235,-7.616355,-5.630312,264.459991,50.400002,28.49,1729476235989.0,0.0
-2.268396,-11.538191,-2.333002,245.559998,56.91,19.6,1729476236009.0,0.0
-3.424129,-11.971292,1.071985,230.860001,68.040001,-12.39,1729476236029.0,0.0
-4.192225,-10.839487,1.01695,299.73999,52.5,-28.630001,1729476236048.0,0.0
-4.0008,-8.970692,-2.225325,390.25,57.260002,-30.030001,1729476236069.0,0.0
-3.436093,-12.021541,-2.864209,494.76001,76.650002,-40.110001,1729476236091.0,0.0
-4.108476,-7.401,0.715454,461.860016,88.340004,-55.369999,1729476236110.0,0.0
-5.575277,-1.557728,3.481557,441.559998,112.559998,-51.240002,1729476236129.0,0.0
-7.793423,-1.514657,7.963314,438.130005,75.949997,-42.279999,1729476236149.0,0.0
-6.769295,-2.467,8.587841,322.0,20.299999,-44.170002,1729476236169.0,0.0
-5.024928,-5.54417,8.161918,226.660004,-7.7,-49.98,1729476236189.0,0.0
-3.536592,-4.23051,6.903293,189.139999,-6.09,-48.369999,1729476236208.0,0.0
-4.567898,-2.041078,6.979864,171.919998,-3.15,-24.08,1729476236230.0,0.0
-5.06082,-2.787638,7.439285,113.400002,-15.47,-21.07,1729476236248.0,0.0
-4.278367,-3.055635,8.429914,77.699997,-19.389999,-20.23,1729476236269.0,0.0
-4.677969,-2.964707,8.55434,72.940002,-11.55,-13.79,1729476236291.0,0.0
-3.699304,-2.696711,9.037691,71.610001,-13.86,-9.8,1729476236309.0,0.0
-3.282953,-2.641676,8.305488,49.560001,-17.92,-11.2,1729476236331.0,0.0
-3.189633,-1.332802,7.625926,31.710001,-20.16,-2.87,1729476236348.0,0.0
-2.866602,-0.842274,7.858029,14.63,-13.02,14.84,1729476236368.0,0.0
-2.581856,-1.540978,7.573284,-24.710001,-18.059999,33.599998,1729476236388.0,0.0
-2.203789,-2.947958,7.590034,-61.880001,-23.309999,45.009998,1729476236408.0,0.0
-1.995614,-4.192225,7.558927,-94.5,-32.34,44.240002,1729476236429.0,0.0
-2.043471,-3.359523,8.310273,-118.370003,-33.32,54.110001,1729476236525.0,0.0
-2.371287,-3.85723,8.456236,-179.690002,-34.720001,52.43,1729476236533.0,0.0
-2.352145,-6.616155,6.022735,-270.899994,-61.670002,40.740002,1729476236534.0,0.0
-1.775474,-7.84128,5.319244,-280.769989,-70.279999,32.34,1729476236534.0,0.0
-1.801795,-6.975078,4.945964,-212.869995,-54.740002,37.170002,1729476236534.0,0.0
-2.883351,-4.649254,5.058427,-152.110001,-31.92,40.880001,1729476236548.0,0.0
-4.405186,-3.883551,6.037091,-145.949997,-26.809999,48.650002,1729476236568.0,0.0
-5.266603,-6.180661,6.065805,-197.119995,-37.799999,46.200001,1729476236589.0,0.0
-3.955336,-8.551948,4.381258,-292.320007,-66.639999,32.060001,1729476236608.0,0.0
-2.289931,-9.243474,1.210768,-378.700012,-83.650002,45.150002,1729476236629.0,0.0
-1.418944,-10.396815,-0.751346,-419.579987,-75.389999,55.93,1729476236647.0,0.0
-1.641476,-12.14836,-2.301895,-445.410004,-53.549999,49.560001,1729476236668.0,0.0
-3.404987,-13.77548,-1.605584,-472.570007,-31.290001,33.459999,1729476236688.0,0.0
-5.24746,-12.641282,1.435694,-485.660004,11.48,-5.25,1729476236711.0,0.0
-5.364708,-10.705488,1.105484,-376.459991,-3.85,-18.200001,1729476236728.0,0.0
-3.072384,-11.569297,-4.646862,-218.190002,-23.59,-14.28,1729476236748.0,0.0
-0.665205,-10.217353,-3.409772,-108.639999,-22.049999,-3.36,1729476236768.0,0.0
-0.351745,-11.650653,-3.424129,-31.85,17.08,-3.01,1729476236788.0,0.0
-2.481357,-11.334801,-1.299303,-47.950001,45.849998,-13.37,1729476236808.0,0.0
-2.63689,-11.691331,-2.567499,-36.119999,24.85,-30.1,1729476236829.0,0.0
0.081356,-7.915457,-6.786045,3.71,-7.98,-16.379999,1729476236848.0,0.0
0.055035,-6.58744,-2.78046,80.360001,-2.87,4.2,1729476236867.0,0.0
-1.969293,-7.104291,-2.400001,96.949997,17.780001,5.32,1729476236888.0,0.0
-2.792424,-7.334002,-1.974079,78.610001,12.53,7.7,1729476236908.0,0.0
-1.974079,-7.484749,-3.278167,93.169998,-7.0,20.440001,1729476236931.0,0.0
-1.172483,-7.853244,-2.871387,115.220001,-12.67,25.76,1729476236954.0,0.0
-2.419144,-7.657032,-0.224925,85.190002,6.16,31.99,1729476236967.0,0.0
-4.345366,-7.381857,0.184247,50.189999,3.99,35.349998,1729476236989.0,0.0
-4.455436,-8.353344,1.895115,40.740002,-14.84,31.290001,1729476237010.0,0.0
-4.761717,-6.364908,-0.081356,4.83,-37.170002,38.43,1729476237030.0,0.0
-5.398208,-6.860222,-1.150948,-46.619999,-36.889999,52.080002,1729476237049.0,0.0
-6.005985,-7.523034,-0.476172,-130.690002,-61.810001,22.68,1729476237069.0,0.0
-6.199803,-6.652047,-5.185246,-249.830002,-88.970001,-4.9,1729476237092.0,0.0
-5.273781,-6.814759,-9.913465,-267.75,-80.57,-12.04,1729476237107.0,0.0
-4.809574,-6.67119,-10.667203,-199.990005,-73.849998,2.73,1729476237131.0,0.0
-4.510471,-6.932007,-9.597611,-119.279999,-54.459999,9.1,1729476237148.0,0.0
-4.575077,-6.037091,-7.161718,-91.419998,-32.900002,0.21,1729476237170.0,0.0
-4.295116,-6.166305,-6.869793,-84.0,-21.84,-4.55,1729476237191.0,0.0
-3.964907,-8.602197,-6.240481,-71.470001,-37.170002,-7.07,1729476237209.0,0.0
-3.404987,-7.030113,-7.611568,-83.230003,-35.349998,-15.82,1729476237231.0,0.0
-3.878766,-7.322037,-8.599805,-87.150002,-11.55,-4.27,1729476237250.0,0.0
-3.792624,-6.494121,-6.678369,-90.300003,-12.95,-4.34,1729476237268.0,0.0
-4.082155,-6.350551,-4.252046,-73.57,-10.85,6.72,1729476237288.0,0.0
-4.756931,-5.481956,-5.460421,-68.389999,-12.04,4.9,1729476237309.0,0.0
-4.208975,-9.71486,-9.549755,-75.599998,-24.15,3.08,1729476237330.0,0.0
-4.029513,-7.302894,-7.965706,-10.08,17.219999,12.18,1729476237348.0,0.0
-5.022535,-8.090133,-5.76431,72.800003,26.67,19.74,1729476237371.0,0.0
-6.005985,-7.594819,-6.369694,103.949997,33.459999,14.14,1729476237390.0,0.0
-6.020342,-6.936793,-9.178867,85.120003,26.809999,9.87,1729476237411.0,0.0
-5.132604,-7.06122,-11.124231,36.330002,50.189999,1.33,1729476237432.0,0.0
-4.800002,-7.831708,-10.157533,50.610001,87.989998,3.29,1729476237449.0,0.0
-4.249653,-7.343572,-7.381857,96.25,111.300003,2.8,1729476237469.0,0.0
-4.211368,-5.257031,0.050249,73.150002,111.510002,5.88,1729476237490.0,0.0
-3.548556,-3.699304,0.043071,53.41,83.440002,4.13,1729476237510.0,0.0
-1.792224,-7.640282,-1.26341,19.110001,40.740002,12.04,1729476237530.0,0.0
-1.538585,-9.980463,-0.717847,4.2,30.24,-3.71,1729476237551.0,0.0
-2.888137,-10.296316,0.086142,6.51,17.85,-8.4,1729476237570.0,0.0
-4.618148,-10.655239,-1.986043,19.25,-10.85,-25.83,1729476237590.0,0.0
-3.909872,-7.403394,-3.60359,19.110001,-29.889999,-39.060001,1729476237610.0,0.0
-2.139183,-6.38405,-6.89133,36.68,-77.910004,-29.190001,1729476237631.0,0.0
-2.392823,-4.024727,-10.15514,-7.84,-73.360001,-24.5,1729476237649.0,0.0
-4.943572,-6.422336,-12.16511,-61.529999,-37.029999,-7.7,1729476237674.0,0.0
-6.814759,-8.855836,-13.952549,-144.270004,8.4,-18.9,1729476237690.0,0.0
-6.084948,-7.066005,-12.174682,-116.059998,51.799999,-12.81,1729476237709.0,0.0
-3.046063,-6.111269,-9.667004,-11.97,46.130001,12.6,1729476237730.0,0.0
-3.148954,-6.89133,-6.73101,31.08,83.300003,17.92,1729476237749.0,0.0
-4.15394,-4.95075,-5.118248,33.18,105.559998,16.52,1729476237769.0,0.0
-2.895315,-5.678168,-1.282553,4.76,89.32,30.030001,1729476237791.0,0.0
-0.531207,-7.951349,1.758725,13.09,44.170002,27.370001,1729476237810.0,0.0
-0.545564,-9.518648,1.904687,49.98,12.11,19.18,1729476237833.0,0.0
-2.761317,-10.042676,0.267996,74.900002,-20.65,-0.63,1729476237849.0,0.0
-3.737589,-8.102098,-2.553142,64.050003,-47.110001,-14.28,1729476237869.0,0.0
-1.701297,-5.393422,-4.426722,28.139999,-116.830002,-22.33,1729476237891.0,0.0
-1.136591,-7.209574,-11.952149,-7.0,-134.960007,-14.56,1729476237911.0,0.0
-3.881158,-5.391029,-9.454042,-111.230003,-88.059998,-16.870001,1729476237931.0,0.0
-8.659625,-7.647461,-14.364115,-162.539993,-21.0,-9.24,1729476237949.0,0.0
-5.185246,-6.254838,-12.725031,-39.970001,9.73,5.95,1729476237969.0,0.0
-2.945565,-6.084948,-10.595419,83.440002,27.23,29.469999,1729476237991.0,0.0
-5.211568,-5.125426,-6.388836,45.43,91.139999,17.15,1729476238011.0,0.0
-6.072984,-5.962914,-6.941578,-2.24,77.769997,11.13,1729476238030.0,0.0
-4.275974,-7.278966,-5.843273,-26.18,67.199997,9.38,1729476238049.0,0.0
-1.919044,-8.707481,-3.854837,4.27,48.02,8.12,1729476238069.0,0.0
-1.081556,-10.274779,-2.057827,57.540001,40.880001,-2.66,1729476238093.0,0.0
-1.344766,-10.150353,-2.481357,98.769997,40.950001,-13.16,1729476238111.0,0.0
-1.619941,-8.85823,-2.713461,129.149994,27.719999,-11.62,1729476238132.0,0.0
-1.287339,-6.297909,-1.639083,78.050003,10.5,-13.51,1729476238149.0,0.0
-2.17029,-4.063013,0.356531,-49.77,0.77,-6.3,1729476238171.0,0.0
-2.663212,-6.319445,-1.605584,-85.68,-30.380001,-5.6,1729476238190.0,0.0
-2.277967,-8.30788,-3.728018,-54.18,-59.150002,4.83,1729476238210.0,0.0
-3.218346,-9.052048,-4.910072,-21.77,-65.309998,8.19,1729476238230.0,0.0
-4.228118,-9.635897,-4.436293,-1.05,-58.170002,1.68,1729476238249.0,0.0
-4.709075,-10.317852,-6.168696,51.73,-66.080002,5.04,1729476238271.0,0.0
-3.519842,-9.164511,-10.174281,113.68,-74.970001,7.42,1729476238291.0,0.0
-3.462414,-7.267002,-14.277972,194.809998,-6.86,34.299999,1729476238309.0,0.0
-4.106083,-9.659825,-9.796216,296.660004,52.150002,24.290001,1729476238331.0,0.0
-5.20439,-10.174281,-5.230711,318.570007,78.82,20.58,1729476238349.0,0.0
-4.862216,-9.186047,-3.897908,340.619995,66.849998,14.84,1729476238369.0,0.0
-3.711268,-8.530413,-2.754139,336.48999,57.049999,7.98,1729476238391.0,0.0
-3.900301,-8.12124,-0.909273,318.779999,54.880001,-1.54,1729476238411.0,0.0
-3.945765,-8.831908,-1.349552,328.860016,49.139999,-19.6,1729476238430.0,0.0
-3.452843,-10.325029,0.504886,347.130005,58.66,-29.190001,1729476238449.0,0.0
-2.739782,-8.037491,3.766303,322.420013,55.720001,-38.779999,1729476238467.0,0.0
-2.993421,-7.04447,1.993221,301.980011,72.800003,-35.349998,1729476238490.0,0.0
-4.677969,-11.777473,0.495314,284.339996,72.730003,-62.510002,1729476238511.0,0.0
-4.244867,-10.482956,0.660419,265.019989,48.860001,-88.059998,1729476238530.0,0.0
-3.311667,-4.682754,5.766702,346.01001,85.75,-68.389999,1729476238550.0,0.0
-5.051248,0.11007,8.939585,358.399994,90.019997,-41.299999,1729476238570.0,0.0
-6.336195,-3.0006,8.4347,223.860001,12.32,-48.02,1729476238589.0,0.0
-4.022335,-7.597212,4.639683,96.25,-39.619999,-67.550003,1729476238609.0,0.0
-2.28036,-0.916451,7.874779,148.680008,-8.12,-39.759998,1729476238631.0,0.0
-5.146961,1.095913,10.059426,163.100006,17.01,-1.68,1729476238649.0,0.0
-4.09412,-3.730411,6.704689,19.6,-35.0,-23.52,1729476238670.0,0.0
-2.550749,-5.259424,5.776274,9.31,-25.27,-1.19,1729476238690.0,0.0
-2.09372,-2.40718,8.726624,49.84,8.82,23.940001,1729476238709.0,0.0
-2.919244,-2.787638,8.082954,2.8,2.17,32.130001,1729476238731.0,0.0
-2.677568,-4.692325,5.931807,-64.330002,-9.87,30.450001,1729476238750.0,0.0
-2.230111,-5.723632,5.12782,-95.129997,-15.82,26.18,1729476238770.0,0.0
-2.459821,-5.221139,5.929415,-91.07,-2.24,40.950001,1729476238791.0,0.0
-2.404787,-5.268995,7.051648,-111.93,-3.85,35.420002,1729476238809.0,0.0
-2.620141,-6.788438,7.396214,-161.350006,-20.719999,36.75,1729476238831.0,0.0
-2.524428,-7.424929,6.271588,-205.800003,-27.93,29.610001,1729476238849.0,0.0
-2.675175,-7.661818,5.290531,-234.570007,-38.43,30.59,1729476238871.0,0.0
-3.160919,-8.705089,4.627719,-228.339996,-43.049999,32.970001,1729476238889.0,0.0
-3.582055,-9.879964,2.813959,-230.369995,-38.5,29.26,1729476238910.0,0.0
-3.505485,-9.21476,2.749353,-286.440002,-43.75,26.040001,1729476238931.0,0.0
-3.108276,-9.982857,2.500499,-371.0,-46.060001,25.969999,1729476238949.0,0.0
-3.742374,-10.576276,-0.634098,-453.880005,-38.639999,15.75,1729476238968.0,0.0
-5.075177,-12.610175,1.945365,-444.709991,-8.68,1.33,1729476238996.0,0.0
-6.013163,-15.046068,0.815953,-382.690002,-7.35,-20.299999,1729476239009.0,0.0
-5.084748,-15.47917,2.294717,-255.639999,-21.35,-32.34,1729476239031.0,0.0
-2.218147,-10.226924,1.112662,-177.100006,-1.89,-39.549999,1729476239049.0,0.0
-1.691726,-9.257831,-0.59342,-89.739998,15.05,-37.240002,1729476239071.0,0.0
-2.175076,-9.506684,2.081756,-83.019997,10.29,-31.99,1729476239094.0,0.0
-1.74676,-9.705289,-1.404587,-71.75,-6.44,-31.639999,1729476239112.0,0.0
-0.799203,-6.9679,-2.644069,-54.529999,-17.5,-19.950001,1729476239130.0,0.0
-0.5001,-7.429714,-4.290331,17.01,-24.01,-4.2,1729476239150.0,0.0
-1.708475,-7.073184,-2.723032,89.110001,-12.53,13.16,1729476239170.0,0.0
-2.443072,-7.575676,-1.37348,154.839996,-3.43,24.219999,1729476239191.0,0.0
-2.926422,-6.283553,-0.629312,124.949997,-12.95,32.130001,1729476239211.0,0.0
-3.165704,-6.032306,1.718047,45.920002,-26.460001,35.98,1729476239232.0,0.0
-4.09412,-6.585048,-0.811167,-25.27,-35.07,48.369999,1729476239250.0,0.0
-4.797609,-9.844072,-1.509871,-115.43,-39.130001,21.07,1729476239271.0,0.0
-4.031906,-10.798808,-2.376073,-120.959999,-58.380001,17.780001,1729476239290.0,0.0
-4.118048,-10.382458,-2.868994,-131.320007,-64.050003,10.36,1729476239310.0,0.0
-4.381258,-9.229117,-4.24726,-125.93,-49.279999,-3.29,1729476239332.0,0.0
-4.589434,-7.448857,-5.070391,-127.82,-48.860001,-10.29,1729476239351.0,0.0
-3.974478,-6.60419,-6.924829,-114.239998,-59.5,-16.73,1729476239370.0,0.0
-3.864408,-5.47717,-6.436693,-80.290001,-57.049999,-7.35,1729476239391.0,0.0
-4.046263,-5.848059,-6.946364,-43.400002,-37.939999,-0.21,1729476239411.0,0.0
-4.364508,-7.240681,-7.379465,-47.32,-30.52,-6.51,1729476239431.0,0.0
-4.469792,-8.276773,-6.687939,-123.199997,-31.710001,-18.9,1729476239449.0,0.0
-3.74716,-7.15454,-5.290531,-113.050003,-40.599998,-15.61,1729476239470.0,0.0
-3.311667,-8.561519,-5.771489,-10.01,-35.91,5.11,1729476239492.0,0.0
-2.392823,-6.896115,-6.76451,11.34,-28.84,7.77,1729476239511.0,0.0
-3.795017,-7.566105,-7.013363,-45.150002,-8.61,1.96,1729476239535.0,0.0
-3.63709,-9.365508,-7.020542,-58.240002,-9.38,3.08,1729476239551.0,0.0
-2.9336,-9.195618,-6.151947,47.389999,1.75,14.21,1729476239571.0,0.0
-4.548756,-8.221739,-4.144369,142.309998,21.07,19.18,1729476239592.0,0.0
-5.852845,-7.822137,-3.570091,127.540001,28.630001,14.07,1729476239611.0,0.0
-5.493921,-7.599605,-4.127619,29.889999,9.73,6.65,1729476239633.0,0.0
-4.12044,-8.831908,-5.580062,-55.23,5.6,-3.5,1729476239651.0,0.0
-4.051049,-8.532805,-5.635098,-78.190002,17.15,-5.81,1729476239672.0,0.0
-4.65404,-7.597212,-4.335794,-35.91,33.880001,0.35,1729476239691.0,0.0
-4.797609,-6.530013,-4.362115,-36.189999,27.719999,-0.91,1729476239715.0,0.0
-4.278367,-7.573284,-4.591826,-41.860001,21.559999,-5.32,1729476239731.0,0.0
-2.737389,-7.740781,-5.429315,-31.360001,12.88,-5.81,1729476239751.0,0.0
-2.723032,-8.784052,-4.369294,-11.2,9.73,-2.1,1729476239772.0,0.0
-3.881158,-8.240881,-2.809174,-24.360001,29.469999,-11.55,1729476239791.0,0.0
-3.684947,-7.223931,-3.330809,-38.009998,6.23,-8.75,1729476239812.0,0.0
-2.658426,-6.908078,-5.465207,-52.990002,-18.129999,-5.25,1729476239832.0,0.0
-2.98385,-7.525427,-5.879165,-28.35,3.15,4.27,1729476239850.0,0.0
-4.24726,-7.422535,-3.053242,-1.89,21.35,2.17,1729476239871.0,0.0
-4.438686,-7.745567,-3.548556,-2.66,-0.63,1.47,1729476239892.0,0.0
-3.716053,-7.125826,-3.445665,0.7,-17.92,5.88,1729476239911.0,0.0
-4.254438,-6.69751,-4.149154,-13.37,-13.3,11.41,1729476239932.0,0.0
-4.728218,-8.714661,-3.330809,-19.67,-1.33,15.190001,1729476239951.0,0.0
-4.09412,-10.461421,-1.899901,21.629999,-21.42,15.05,1729476239971.0,0.0
-3.76391,-9.784252,-2.656033,64.959999,-44.310001,12.32,1729476239991.0,0.0
-4.175476,-9.410972,-5.678168,83.090004,-49.490002,10.15,1729476240011.0,0.0
-3.993621,-9.339187,-8.762517,107.800003,-39.970001,9.66,1729476240033.0,0.0
-3.792624,-9.903893,-9.738789,179.479996,-7.07,26.950001,1729476240051.0,0.0
-3.792624,-8.52802,-9.834501,244.580002,24.57,31.92,1729476240072.0,0.0
-4.383651,-8.781659,-5.757132,303.100006,56.0,28.210001,1729476240096.0,0.0
-5.47717,-8.238488,-3.759124,318.920013,65.099998,20.65,1729476240111.0,0.0
-5.379066,-9.678967,-1.957329,349.440002,57.049999,7.42,1729476240143.0,0.0
-4.663611,-9.887143,-0.514457,354.970001,49.77,-2.73,1729476240150.0,0.0
-4.12044,-10.356135,1.17009,347.619995,28.07,-24.780001,1729476240172.0,0.0
-2.964707,-9.209974,-0.260818,330.190002,22.190001,-37.66,1729476240192.0,0.0
-4.914857,-9.406186,-0.215354,309.820007,59.57,-37.73,1729476240211.0,0.0
-4.912465,-9.315259,1.923829,305.200012,34.720001,-61.810001,1729476240232.0,0.0
-5.13739,-5.424529,6.336195,322.0,56.349998,-51.799999,1729476240251.0,0.0
-5.615955,-4.141976,5.757132,302.75,34.439999,-50.540001,1729476240271.0,0.0
-5.644669,-4.9675,4.792823,238.490005,11.41,-42.560001,1729476240291.0,0.0
-5.053641,-6.896115,5.912664,192.220001,2.24,-48.580002,1729476240311.0,0.0
-4.488935,-4.907679,5.563312,206.009995,16.030001,-37.869999,1729476240332.0,0.0
-4.553542,-2.600998,6.733403,227.570007,23.309999,-32.689999,1729476240350.0,0.0
-4.541577,0.095713,7.903493,189.490005,19.18,-21.0,1729476240372.0,0.0
-5.113462,-2.062613,7.836494,114.940002,1.4,-14.14,1729476240391.0,0.0
-4.481757,-4.957928,6.391229,72.590004,-7.98,-13.79,1729476240411.0,0.0
-4.046263,-2.778067,7.762317,91.349998,10.99,4.62,1729476240433.0,0.0
-3.895515,-2.739782,8.896514,49.700001,8.96,7.42,1729476240450.0,0.0
-3.37388,-5.699703,8.719445,-27.51,-15.33,9.31,1729476240470.0,0.0
-3.349952,-6.80758,7.156933,-51.240002,-26.950001,5.74,1729476240491.0,0.0
-2.924029,-5.271388,6.865008,-23.52,-12.32,17.219999,1729476240511.0,0.0
-3.381058,-3.76391,8.329416,-30.030001,-8.47,13.86,1729476240532.0,0.0
-3.522235,-3.37388,7.389036,-87.010002,-22.82,21.98,1729476240551.0,0.0
-3.60359,-3.558127,4.285545,-136.5,-23.17,29.540001,1729476240570.0,0.0
-4.113262,-4.055835,4.084548,-144.970001,-11.76,37.939999,1729476240593.0,0.0
-4.472186,-6.338587,7.393822,-162.889999,-15.33,32.130001,1729476240611.0,0.0
-4.362115,-7.805387,6.142376,-212.729996,-30.52,24.639999,1729476240631.0,0.0
-3.335595,-9.162118,4.771288,-240.660004,-28.0,30.73,1729476240650.0,0.0
-3.270989,-9.178867,4.015156,-289.23999,-28.0,25.9,1729476240671.0,0.0
-3.562913,-9.705289,4.63729,-299.670013,-32.549999,24.85,1729476240691.0,0.0
-3.964907,-7.84128,5.197211,-313.529999,-26.6,25.129999,1729476240712.0,0.0
-4.56072,-8.169096,4.486543,-332.850006,-26.950001,21.07,1729476240731.0,0.0
-4.895715,-9.968499,3.529413,-361.410004,-34.439999,-7.21,1729476240750.0,0.0
-4.709075,-10.595419,3.692125,-440.299988,-46.34,-27.65,1729476240771.0,0.0
-3.139383,-10.052249,-0.928415,-471.029999,-43.049999,-17.08,1729476240793.0,0.0
-1.897508,-10.571491,-4.744967,-335.019989,-15.61,-16.799999,1729476240811.0,0.0
-2.09372,-11.265409,-4.965107,-146.160004,17.360001,-9.87,1729476240832.0,0.0
-2.608176,-14.029119,-1.995614,5.25,40.599998,-18.059999,1729476240851.0,0.0
-3.87398,-11.74158,2.644069,-17.57,37.099998,-43.68,1729476240871.0,0.0
-1.844866,-8.059027,-2.835495,-21.98,-22.540001,-19.67,1729476240892.0,0.0
0.287139,-8.750552,-2.940779,36.330002,-36.889999,-12.74,1729476240911.0,0.0
-1.136591,-8.958728,-0.854238,87.709999,-4.48,-1.89,1729476240942.0,0.0
-4.09412,-6.161518,-0.701097,88.620003,17.710001,3.92,1729476240952.0,0.0
-5.041678,-7.226324,-0.253639,87.639999,0.98,18.34,1729476240971.0,0.0
-3.201597,-9.119047,-0.5001,79.800003,-22.889999,9.73,1729476240992.0,0.0
-2.541178,-9.190832,-0.751346,76.580002,-12.18,8.12,1729476241011.0,0.0
-4.469792,-7.9011,1.4668,61.110001,2.73,20.09,1729476241032.0,0.0
-4.993821,-7.52782,0.820738,42.560001,-3.43,22.960001,1729476241050.0,0.0
-4.0008,-8.147561,0.490529,40.670002,-15.4,30.030001,1729476241070.0,0.0
-4.31426,-9.554541,1.107877,40.32,-13.02,29.4,1729476241094.0,0.0
-6.056234,-8.863015,1.198804,24.780001,-4.55,21.35,1729476241111.0,0.0
-4.957928,-9.272188,0.459422,27.370001,-4.97,17.360001,1729476241131.0,0.0
-4.149154,-8.482556,0.748954,-2.52,-20.860001,24.780001,1729476241150.0,0.0
-4.285545,-8.094919,1.033699,-31.85,-19.040001,23.66,1729476241170.0,0.0
-5.003392,-7.348359,1.490728,-87.57,-15.05,19.530001,1729476241192.0,0.0
-5.144568,-6.831509,-0.411566,-140.630005,-29.889999,12.95,1729476241212.0,0.0
-5.245068,-5.800202,-4.177868,-232.050003,-41.650002,-0.42,1729476241232.0,0.0
-5.539384,-5.955735,-5.606383,-236.180008,-30.17,4.41,1729476241250.0,0.0
-5.352744,-7.922636,-5.551349,-186.690002,-38.43,5.46,1729476241271.0,0.0
-4.725825,-9.466006,-6.398407,-104.160004,-54.529999,-1.19,1729476241291.0,0.0
-4.223332,-8.915657,-7.133004,-49.0,-39.48,-6.93,1729476241311.0,0.0
-3.962514,-7.427321,-6.589834,-60.130001,-21.91,-5.39,1729476241331.0,0.0
-3.701697,-8.013563,-8.236095,-103.25,-10.43,-13.93,1729476241350.0,0.0
-3.412165,-8.228917,-8.042276,-136.639999,-4.97,-10.85,1729476241370.0,0.0
-3.479164,-9.071191,-5.541777,-111.580002,6.58,-4.06,1729476241391.0,0.0
-3.512664,-9.016156,-5.120641,-78.190002,10.57,-8.75,1729476241410.0,0.0
-3.816552,-8.91805,-4.67079,-77.349998,5.67,-11.13,1729476241433.0,0.0
-4.12044,-9.190832,-6.45105,-71.540001,7.7,-19.25,1729476241514.0,0.0
-4.096512,-8.133204,-5.826523,-22.75,14.42,-6.23,1729476241514.0,0.0
-4.491328,-8.886944,-5.682954,26.460001,26.74,3.08,1729476241515.0,0.0
-4.878965,-8.283953,-6.829116,29.4,41.580002,-1.61,1729476241515.0,0.0
-4.718646,-7.530212,-7.250252,47.110001,50.400002,7.28,1729476241535.0,0.0
-4.536791,-7.195218,-2.165504,103.040001,49.98,17.710001,1729476241550.0,0.0
-5.008178,-6.879365,-2.928815,17.710001,53.060001,-3.99,1729476241571.0,0.0
-5.335995,-7.491928,-3.699304,-105.629997,38.990002,-13.23,1729476241591.0,0.0
-4.539185,-8.298308,-4.606184,-147.070007,31.15,-17.57,1729476241610.0,0.0
-2.799603,-9.650253,-5.383851,-55.860001,25.27,-3.15,1729476241633.0,0.0
-1.658226,-9.327222,-6.369694,20.58,28.42,0.28,1729476241650.0,0.0
-2.813959,-9.968499,-5.534599,59.779999,53.27,-3.71,1729476241671.0,0.0
-3.256632,-7.872386,-3.802195,55.860001,67.900002,-9.45,1729476241692.0,0.0
-2.459821,-7.008578,-2.244468,42.420002,42.139999,-1.4,1729476241722.0,0.0
-2.589034,-7.015756,-0.614955,10.5,26.110001,-4.9,1729476241731.0,0.0
-3.479164,-7.668997,-3.737589,-27.16,8.33,-12.74,1729476241750.0,0.0
-3.756732,-9.700503,-8.185846,-48.580002,-6.51,-22.68,1729476241771.0,0.0
-3.337988,-11.222338,-8.953942,-34.23,4.9,-32.060001,1729476241791.0,0.0
-2.471786,-8.810372,-7.171289,10.78,26.880001,-32.830002,1729476241811.0,0.0
-1.892723,-6.185446,-4.790431,50.189999,22.540001,-21.700001,1729476241831.0,0.0
-2.368894,-5.575277,-3.773481,47.18,21.700001,-15.82,1729476241850.0,0.0
-3.538985,-6.774081,-3.625126,22.75,25.549999,-9.45,1729476241870.0,0.0
-2.124826,-7.283752,-3.905087,-18.83,8.96,-11.06,1729476241890.0,0.0
-1.205983,-4.4674,-4.235296,-66.849998,-7.42,-2.24,1729476241910.0,0.0
-1.607977,-5.4341,-4.019942,-66.5,-0.7,15.12,1729476241932.0,0.0
-2.414358,-7.633104,-3.431308,-76.160004,-9.87,17.08,1729476241950.0,0.0
-3.048456,-9.430114,-3.335595,-29.68,-20.370001,22.960001,1729476241970.0,0.0
-2.790031,-9.123833,-3.555735,18.549999,-40.950001,23.59,1729476241991.0,0.0
-3.34038,-10.755738,-0.535992,15.89,-45.009998,12.74,1729476242010.0,0.0
-5.034499,-10.449455,-2.481357,-7.56,-39.900002,-6.65,1729476242031.0,0.0
-4.567898,-10.444671,-5.034499,52.080002,-73.080002,-6.65,1729476242052.0,0.0
-2.289931,-9.954143,-9.056834,164.710007,-98.840004,14.77,1729476242070.0,0.0
-1.507478,-8.980263,-12.303895,255.149994,-53.760002,34.439999,1729476242094.0,0.0
-2.68714,-8.925228,-12.564712,294.48999,27.370001,34.23,1729476242120.0,0.0
-5.142176,-9.166903,-6.711867,276.220001,104.790001,28.0,1729476242132.0,0.0
-6.955935,-9.243474,-3.749553,294.350006,98.629997,26.809999,1729476242150.0,0.0
-4.867002,-8.874979,-3.285345,370.160004,52.360001,31.99,1729476242244.0,0.0
-3.431308,-7.819745,0.019143,349.160004,64.889999,13.51,1729476242247.0,0.0
-4.59422,-6.941578,2.572284,283.079987,66.989998,-5.88,1729476242265.0,0.0
-5.180461,-7.984849,3.663411,251.860001,34.02,-11.13,1729476242266.0,0.0
-3.833302,-8.91805,2.199004,285.040009,16.450001,-20.299999,1729476242342.0,0.0
-3.986443,-10.298709,2.658426,311.149994,41.720001,-25.690001,1729476242342.0,0.0
-5.094319,-10.856236,1.117448,302.75,52.009998,-40.32,1729476242342.0,0.0
-5.273781,-11.095518,3.26381,329.350006,40.950001,-64.190002,1729476242342.0,0.0
-3.84048,-6.872187,5.82413,334.390015,42.349998,-70.139999,1729476242343.0,0.0
-4.211368,-1.689333,7.226324,316.820007,47.040001,-50.540001,1729476242356.0,0.0
-5.737988,-0.413958,7.264609,241.919998,26.460001,-31.780001,1729476242369.0,0.0
-4.388437,-3.220739,6.886543,133.910004,-16.870001,-47.740002,1729476242390.0,0.0
-4.051049,-5.592027,6.996613,100.379997,-17.57,-26.809999,1729476242412.0,0.0
-3.914658,-5.331209,7.412964,118.090004,-5.95,-25.9,1729476242432.0,0.0
-3.438486,-2.644069,7.953743,112.980003,1.96,-24.5,1729476242450.0,0.0
-4.228118,-2.091327,7.41775,74.059998,-0.35,-10.99,1729476242470.0,0.0
-4.007978,-4.73061,7.113862,27.440001,-12.46,-11.62,1729476242490.0,0.0
-3.101098,-3.821337,8.453842,33.110001,-3.92,-12.46,1729476242511.0,0.0
-2.991028,-2.785245,8.748159,43.889999,3.36,-4.69,1729476242532.0,0.0
-2.957529,-4.110869,8.595018,-25.83,-15.54,-0.28,1729476242550.0,0.0
-2.964707,-5.599205,7.159326,-39.48,-20.860001,0.35,1729476242570.0,0.0
-2.500499,-4.508078,6.494121,-13.72,-9.52,1.12,1729476242593.0,0.0
-2.691926,-3.438486,7.432107,-4.55,2.03,1.61,1729476242611.0,0.0
-2.962314,-2.778067,8.563912,-19.530001,3.43,3.01,1729476242632.0,0.0
-3.756732,-1.926222,8.015956,-42.560001,-3.36,18.129999,1729476242651.0,0.0
-3.646662,-2.304288,8.157133,-78.470001,-12.81,31.780001,1729476242672.0,0.0
-3.371487,-4.103691,6.948757,-127.330002,-19.950001,40.389999,1729476242692.0,0.0
-3.988836,-5.601598,6.833901,-173.949997,-26.25,42.560001,1729476242711.0,0.0
-3.402594,-6.783652,6.915257,-199.220001,-37.52,40.040001,1729476242732.0,0.0
-3.180061,-6.809973,6.63769,-202.509995,-26.040001,38.360001,1729476242752.0,0.0
-4.811966,-7.491928,6.73101,-231.210007,-30.59,20.719999,1729476242772.0,0.0
-4.56072,-6.800402,4.850252,-276.570007,-37.939999,17.360001,1729476242794.0,0.0
-3.428915,-7.501499,4.852644,-305.130005,-47.950001,20.440001,1729476242812.0,0.0
-2.878566,-7.69771,2.15354,-346.850006,-55.650002,7.07,1729476242834.0,0.0
-1.880759,-8.300702,1.272982,-344.329987,-61.25,5.88,1729476242852.0,0.0
-1.521835,-8.650054,-0.277567,-355.950012,-43.610001,15.82,1729476242872.0,0.0
-2.031506,-9.722038,-1.639083,-367.570007,-19.809999,14.07,1729476242893.0,0.0
-3.120241,-10.214959,-1.4668,-378.350006,-2.52,14.63,1729476242922.0,0.0
-2.507678,-10.805987,-2.823531,-323.399994,1.61,14.84,1729476242935.0,0.0
-2.0004,-11.703296,-4.587041,-223.509995,10.92,20.370001,1729476242952.0,0.0
-2.105684,-12.129218,-5.960521,-87.989998,25.690001,7.14,1729476242972.0,0.0
-2.624927,-12.229716,-2.837888,17.01,41.439999,0.98,1729476242992.0,0.0
-2.266003,-9.530612,-1.555335,18.620001,30.59,-10.92,1729476243012.0,0.0
-1.849652,-10.217353,-1.368695,28.91,18.549999,-4.9,1729476243034.0,0.0
-1.878366,-9.219545,-1.993221,17.92,13.16,-6.37,1729476243051.0,0.0
-4.362115,-8.219346,1.945365,9.8,20.790001,0.84,1729476243076.0,0.0
-5.9677,-9.047262,-0.387637,30.799999,13.02,9.1,1729476243096.0,0.0
-4.919643,-9.602397,-1.808974,43.610001,-6.23,6.44,1729476243112.0,0.0
-3.194418,-10.547562,-3.180061,61.32,-12.32,6.58,1729476243134.0,0.0
-3.371487,-9.600004,-2.342573,76.019997,6.51,4.69,1729476243151.0,0.0
-3.306881,-8.618947,-2.708675,86.449997,18.76,0.28,1729476243171.0,0.0
-2.976671,-7.738388,-1.349552,86.519997,12.32,3.01,1729476243192.0,0.0
-2.979064,-8.116454,0.212961,90.230003,16.24,9.66,1729476243212.0,0.0
-3.818945,-6.65444,0.643669,63.490002,17.92,11.62,1729476243235.0,0.0
-3.668197,-8.049455,1.062413,43.119999,9.17,8.75,1729476243252.0,0.0
-3.012564,-8.295916,0.832702,15.89,-6.58,7.84,1729476243272.0,0.0
-3.09392,-8.324631,0.68674,5.74,-10.71,12.11,1729476243291.0,0.0
-3.598805,-8.585447,0.947558,-5.46,-17.15,13.3,1729476243312.0,0.0
-4.321437,-7.633104,2.143969,-10.57,-29.75,21.42,1729476243333.0,0.0
-4.859823,-7.57089,2.175076,-35.0,-41.09,27.860001,1729476243351.0,0.0
-4.596612,-8.200203,-0.177069,-76.510002,-46.970001,13.51,1729476243372.0,0.0
-4.455436,-9.286544,-1.083949,-92.120003,-44.939999,19.18,1729476243392.0,0.0
-4.419543,-8.652447,-1.871187,-95.620003,-48.650002,21.42,1729476243413.0,0.0
-4.62054,-7.630712,-3.361916,-97.019997,-29.82,8.12,1729476243435.0,0.0
-6.022735,-7.91785,-2.787638,-106.470001,-7.21,17.5,1729476243451.0,0.0
-6.285945,-9.056834,-1.945365,-87.709999,-19.25,12.88,1729476243471.0,0.0
-5.144568,-7.441679,-3.634698,-106.75,-32.970001,10.01,1729476243493.0,0.0
-4.328616,-6.309873,-5.402994,-114.239998,-42.700001,11.27,1729476243522.0,0.0
-4.613362,-6.393622,-4.4674,-104.230003,-46.060001,15.96,1729476243532.0,0.0
-4.847858,-8.941978,-3.335595,-85.889999,-53.689999,5.18,1729476243552.0,0.0
-4.584648,-7.989635,-5.242674,-109.900002,-65.239998,-8.61,1729476243571.0,0.0
-4.316652,-8.047063,-8.803195,-115.290001,-55.860001,-12.11,1729476243592.0,0.0
-3.818945,-8.855836,-10.41835,-122.639999,-47.18,-20.58,1729476243612.0,0.0
-3.199204,-9.667004,-8.743374,-136.149994,-44.240002,-21.84,1729476243633.0,0.0
-2.651247,-9.107083,-6.565905,-121.169998,-23.940001,-24.08,1729476243652.0,0.0
-3.282953,-8.920443,-5.740381,-55.09,-5.25,-18.27,1729476243671.0,0.0
-3.76391,-6.503692,-6.381658,-39.130001,4.55,-20.09,1729476243692.0,0.0
-3.663411,-8.073383,-8.702696,-35.139999,11.2,-13.09,1729476243712.0,0.0
-3.378666,-8.52802,-7.585248,-47.32,27.58,-9.1,1729476243732.0,0.0
-3.627519,-7.642675,-6.680761,-20.93,39.619999,-4.83,1729476243751.0,0.0
-4.244867,-7.283752,-7.846066,1.47,47.950001,3.22,1729476243771.0,0.0
-5.297709,-8.678767,-4.405186,35.630001,61.040001,8.33,1729476243793.0,0.0
-6.290731,-8.449057,0.464208,56.490002,60.760002,3.08,1729476243811.0,0.0
-5.209175,-7.386643,-3.275774,-59.010002,28.700001,-25.27,1729476243833.0,0.0
-3.24706,-8.410772,-7.869993,-102.340004,17.710001,-20.51,1729476243851.0,0.0
-2.524428,-10.016356,-5.501099,-76.019997,40.740002,-11.48,1729476243871.0,0.0
-3.555735,-10.140782,-5.367101,-25.76,60.970001,-10.99,1729476243892.0,0.0
-2.830709,-6.640083,-4.304688,36.189999,55.510002,-1.75,1729476243911.0,0.0
-1.074377,-7.003791,-2.821138,62.580002,34.860001,6.93,1729476243932.0,0.0
-0.736989,-5.608776,-0.531207,30.1,29.960001,4.34,1729476243952.0,0.0
-2.598605,-5.383851,-0.892523,-54.599998,12.18,3.29,1729476243972.0,0.0
-4.656433,-9.652647,-3.428915,-109.830002,-9.24,-12.04,1729476243991.0,0.0
-3.871587,-9.98525,-4.41715,-87.220001,-39.060001,-27.299999,1729476244011.0,0.0
-1.706082,-7.341179,-7.573284,-7.14,-75.18,-21.280001,1729476244032.0,0.0
-0.952343,-4.955536,-7.690532,34.16,-64.190002,-14.98,1729476244051.0,0.0
-2.995814,-6.680761,-9.918249,56.420002,-44.099998,5.6,1729476244071.0,0.0
-7.700103,-6.439085,-7.829315,-20.23,0.49,-0.07,1729476244095.0,0.0
-9.078369,-5.87438,-11.069198,-77.559998,18.059999,-8.54,1729476244111.0,0.0
-4.929214,-5.448457,-10.399208,-43.889999,2.45,6.72,1729476244142.0,0.0
-2.471786,-5.773881,-7.470392,32.759998,26.809999,21.42,1729476244151.0,0.0
-4.498507,-6.817152,-6.484549,43.68,75.110001,22.120001,1729476244171.0,0.0
-4.072584,-6.379266,-4.682754,9.8,68.599998,14.84,1729476244191.0,0.0
-2.100898,-7.300502,-4.350152,16.799999,40.670002,21.77,1729476244213.0,0.0
-0.863809,-6.628119,-3.529413,27.299999,36.75,18.059999,1729476244232.0,0.0
-1.246661,-6.474977,-0.981057,23.030001,26.950001,20.790001,1729476244251.0,0.0
-2.770889,-8.719445,-2.340181,-13.16,3.29,9.87,1729476244271.0,0.0
-4.527221,-10.504492,-2.347359,-35.0,-11.76,-15.61,1729476244292.0,0.0
-3.04367,-9.497113,-5.309673,-2.59,-53.34,-29.960001,1729476244311.0,0.0
-1.177269,-7.319644,-7.056434,37.240002,-89.389999,-29.049999,1729476244333.0,0.0
-2.048256,-4.926822,-9.868,16.940001,-68.809998,-23.59,1729476244350.0,0.0
-5.417351,-8.616554,-10.289137,-33.599998,-36.540001,-11.76,1729476244371.0,0.0
-8.319844,-7.970492,-9.279366,-97.510002,15.89,-22.540001,1729476244399.0,0.0
-6.393622,-7.202396,-11.308479,-40.670002,13.02,-7.35,1729476244411.0,0.0
-1.868794,-5.546563,-8.664411,49.490002,14.0,12.74,1729476244434.0,0.0
-2.433501,-6.625726,-6.970293,84.769997,47.740002,20.719999,1729476244452.0,0.0
-5.965307,-5.644669,-5.479564,6.51,85.120003,10.15,1729476244472.0,0.0
-2.938386,-6.9679,-5.903094,2.45,47.670002,15.54,1729476244493.0,0.0
-0.617348,-6.707082,-2.885744,20.719999,38.57,17.219999,1729476244512.0,0.0
-1.09352,-6.855437,-0.33021,44.310001,30.66,19.110001,1729476244534.0,0.0
-3.677768,-9.401401,-0.399601,25.200001,17.01,8.54,1729476244552.0,0.0
-5.101498,-9.51147,-0.727418,5.04,-10.08,-13.79,1729476244572.0,0.0
-3.041277,-7.91785,-3.445665,7.07,-54.599998,-22.190001,1729476244592.0,0.0
-0.55992,-6.577869,-5.63749,1.61,-88.199997,-27.299999,1729476244612.0,0.0
-1.383051,-5.924629,-6.948757,-23.450001,-80.57,-25.620001,1729476244634.0,0.0
-3.34038,-6.953543,-9.760324,-27.93,-57.68,-16.309999,1729476244652.0,0.0
-4.563113,-8.238488,-10.738988,-43.119999,-47.459999,-15.33,1729476244672.0,0.0
-6.453443,-7.721639,-10.904092,-33.18,-9.31,-13.72,1729476244694.0,0.0
-6.704689,-7.271788,-12.421142,-3.64,21.139999,-9.31,1729476244713.0,0.0
-3.661019,-5.601598,-8.9683,22.610001,34.860001,1.68,1729476244737.0,0.0
-2.347359,-7.879565,-7.001399,66.989998,47.18,11.76,1729476244754.0,0.0
-5.54417,-6.333801,-4.240082,52.5,83.230003,7.63,1729476244772.0,0.0
-3.854837,-6.025128,-3.668197,-1.82,66.290001,7.21,1729476244793.0,0.0
-0.760918,-6.975078,-2.67039,-30.17,29.889999,7.35,1729476244813.0,0.0
-0.495314,-7.970492,-1.998007,13.02,31.43,16.030001,1729476244836.0,0.0
-2.041078,-7.769495,-0.727418,33.880001,18.549999,10.15,1729476244853.0,0.0
-4.302295,-9.466006,-1.007378,21.629999,-1.05,-0.84,1729476244874.0,0.0
-4.13719,-8.087741,-2.313859,8.75,-28.35,-13.72,1729476244894.0,0.0
-1.502693,-5.759524,-4.862216,1.19,-74.129997,-13.440001,1729476244914.0,0.0
-0.945165,-7.209574,-7.159326,-10.92,-77.0,-4.55,1729476244934.0,0.0
-2.644069,-6.76451,-7.369894,-43.75,-47.389999,-4.69,1729476244953.0,0.0
-4.359723,-10.449455,-7.475177,-17.92,-43.470001,-1.82,1729476244974.0,0.0
-5.192425,-7.345965,-6.142376,-11.27,-37.310001,-12.32,1729476244995.0,0.0
-5.965307,-6.314659,-9.190832,17.57,-38.5,0.63,1729476245014.0,0.0
-6.357729,-6.996613,-12.263215,-43.189999,-18.620001,-7.28,1729476245035.0,0.0
-4.31426,-7.843673,-9.090333,-67.269997,24.08,-8.61,1729476245054.0,0.0
-2.629712,-8.669197,-7.111469,66.150002,35.98,8.96,1729476245074.0,0.0
-3.237489,-7.046863,-5.359922,102.269997,56.07,7.91,1729476245097.0,0.0
-4.73061,-5.690133,-4.843073,54.040001,63.209999,0.14,1729476245119.0,0.0
-3.646662,-5.690133,-4.986642,-21.210001,54.110001,0.7,1729476245135.0,0.0
-1.038485,-7.503892,-4.256832,-54.599998,26.32,2.66,1729476245153.0,0.0
-0.449851,-8.331808,-2.969493,-13.79,29.4,10.43,1729476245174.0,0.0
-1.749153,-8.370094,-0.540778,12.53,25.76,1.96,1729476245194.0,0.0
-3.905087,-9.312866,-0.535992,4.9,3.57,-9.87,1729476245214.0,0.0
-4.644469,-8.563912,-1.868794,-18.129999,-22.75,-23.940001,1729476245235.0,0.0
-2.352145,-6.999006,-4.386044,-17.780001,-58.799999,-21.210001,1729476245253.0,0.0
-0.880559,-6.597012,-6.276374,-9.24,-70.559998,-6.37,1729476245273.0,0.0
-2.510071,-6.266802,-6.898508,-23.59,-46.619999,0.35,1729476245294.0,0.0
-4.319045,-7.9346,-8.216952,-20.58,-29.960001,7.7,1729476245313.0,0.0
-4.474578,-8.815158,-8.408379,-14.56,-33.880001,5.74,1729476245335.0,0.0
-5.113462,-7.348359,-7.992027,8.89,-19.74,5.32,1729476245354.0,0.0
-5.788238,-7.341179,-8.126025,5.6,-9.24,4.41,1729476245373.0,0.0
-4.125226,-7.202396,-9.097511,-46.27,3.99,-6.79,1729476245395.0,0.0
-2.531606,-8.640482,-8.427521,-35.84,19.950001,-1.4,1729476245414.0,0.0
-3.029313,-8.018349,-7.223931,12.04,43.049999,-1.4,1729476245435.0,0.0
-4.651647,-6.675975,-6.666404,30.870001,59.360001,-1.12,1729476245454.0,0.0
-4.407579,-5.28096,-6.793223,-11.76,57.68,-4.83,1729476245473.0,0.0
-2.316252,-6.45105,-6.379266,-37.52,37.59,-4.27,1729476245494.0,0.0
-1.411765,-7.975278,-6.515656,-8.89,36.259998,-0.07,1729476245513.0,0.0
-1.95015,-7.582855,-5.075177,33.040001,47.110001,1.61,1729476245535.0,0.0
-2.711068,-7.334002,-4.563113,51.450001,42.490002,0.07,1729476245553.0,0.0
-2.861816,-7.685746,-4.283153,37.66,33.529999,-4.27,1729476245573.0,0.0
-2.691926,-7.860423,-3.601198,6.72,20.790001,-11.41,1729476245594.0,0.0
-2.395216,-7.82453,-3.725625,-5.46,4.62,-14.56,1729476245613.0,0.0
-2.189433,-7.60439,-3.919443,-8.89,-7.63,-13.79,1729476245635.0,0.0
-2.368894,-7.4345,-4.855037,-12.04,-14.21,-10.92,1729476245653.0,0.0
-2.744568,-6.489335,-5.4006,-13.3,-13.51,-5.04,1729476245673.0,0.0
-2.85703,-6.728617,-6.065805,-24.219999,-13.23,-1.05,1729476245694.0,0.0
-2.586641,-7.709675,-5.771489,-14.98,-10.78,3.85,1729476245715.0,0.0
-2.991028,-7.310073,-5.355137,6.86,-5.67,5.67,1729476245734.0,0.0
-3.103491,-7.798209,-5.355137,11.34,-10.29,5.53,1729476245753.0,0.0
-2.95035,-7.422535,-5.314459,19.32,-16.52,5.67,1729476245774.0,0.0
-3.163311,-8.456236,-4.352544,26.18,-15.75,4.83,1729476245794.0,0.0
-3.646662,-8.867801,-4.216154,13.93,-16.450001,-1.26,1729476245813.0,0.0
-4.010371,-8.805587,-4.725825,10.78,-21.280001,-3.92,1729476245835.0,0.0
-3.864408,-8.898908,-5.249853,28.49,-31.99,-0.84,1729476245854.0,0.0
-3.361916,-9.016156,-5.673382,50.259998,-40.599998,3.64,1729476245873.0,0.0
-2.866602,-8.848659,-6.271588,76.300003,-39.130001,7.7,1729476245894.0,0.0
-2.813959,-8.839087,-7.039684,117.879997,-26.880001,15.75,1729476245913.0,0.0
-2.617748,-9.056834,-8.927622,183.190002,-3.64,23.799999,1729476245934.0,0.0
-2.766103,-8.453842,-9.95175,239.190002,26.110001,31.290001,1729476245954.0,0.0
-3.692125,-8.650054,-7.642675,296.869995,63.630001,35.560001,1729476245973.0,0.0
-4.338188,-9.389436,-5.213961,357.700012,84.489998,28.630001,1729476245993.0,0.0
-3.986443,-10.755738,-2.45025,415.170013,74.690002,21.0,1729476246014.0,0.0
-3.034099,-9.662218,-0.148355,427.140015,59.43,5.53,1729476246034.0,0.0
-3.081956,-7.788638,2.426322,397.73999,65.309998,-2.52,1729476246053.0,0.0
-3.558127,-7.147361,3.06042,328.089996,52.849998,-38.080002,1729476246073.0,0.0
-3.318845,-9.784252,2.644069,299.459991,26.18,-51.099998,1729476246097.0,0.0
-3.795017,-9.274581,2.892922,266.769989,27.299999,-52.920002,1729476246113.0,0.0
-4.534399,-8.432307,4.98425,298.899994,31.99,-45.220001,1729476246145.0,0.0
-3.876373,-5.704489,4.744967,318.920013,24.08,-49.349998,1729476246153.0,0.0
-5.312066,-6.123233,4.981857,304.149994,32.970001,-45.57,1729476246173.0,0.0
-4.67079,-5.733203,5.438886,243.25,21.91,-56.630001,1729476246194.0,0.0
-4.015156,-4.831109,6.52762,222.25,19.6,-41.439999,1729476246213.0,0.0
-4.082155,0.727418,8.341379,220.430008,31.290001,-24.639999,1729476246243.0,0.0
-5.508278,-0.413958,9.245867,131.039993,7.35,-18.83,1729476246253.0,0.0
-4.220939,-6.041877,6.532406,23.030001,-31.710001,-33.950001,1729476246272.0,0.0
-2.40718,-3.608376,8.173882,56.91,-1.4,-13.16,1729476246293.0,0.0
-3.275774,-1.282553,10.009177,69.440002,4.97,0.84,1729476246314.0,0.0
-2.397608,-2.586641,8.743374,-1.12,-18.129999,3.29,1729476246334.0,0.0
-2.055435,-5.048856,6.62094,-47.529999,-29.190001,1.4,1729476246353.0,0.0
-2.459821,-6.728617,5.795416,-36.540001,-24.639999,1.82,1729476246373.0,0.0
-2.519642,-3.45045,8.338986,-8.96,-2.03,10.92,1729476246394.0,0.0
-3.048456,-2.002793,8.520842,-63.700001,-15.68,21.42,1729476246413.0,0.0
-3.139383,-4.299902,7.271788,-143.570007,-36.049999,23.940001,1729476246442.0,0.0
-2.854637,-5.702096,6.015556,-187.600006,-45.290001,28.07,1729476246513.0,0.0
-2.445465,-6.185446,6.221339,-170.449997,-32.41,36.400002,1729476246515.0,0.0
-2.196611,-6.350551,6.494121,-155.470001,-27.860001,30.66,1729476246518.0,0.0
-2.117648,-6.317052,4.811966,-168.279999,-21.42,28.559999,1729476246524.0,0.0
-2.486143,-6.585048,4.21376,-200.130005,-20.790001,28.98,1729476246535.0,0.0
-2.567499,-7.463214,5.577669,-224.139999,-34.860001,33.110001,1729476246554.0,0.0
-2.940779,-8.444271,6.101698,-238.630005,-47.880001,34.09,1729476246573.0,0.0
-2.809174,-8.779266,4.496114,-263.130005,-50.470001,31.92,1729476246593.0,0.0
-2.816352,-9.420543,3.208775,-313.809998,-52.43,24.01,1729476246614.0,0.0
-2.574677,-11.002198,1.45005,-358.890015,-58.450001,5.18,1729476246634.0,0.0
-3.256632,-11.10509,1.574477,-371.769989,-51.869999,-0.07,1729476246653.0,0.0
-3.845266,-10.604989,1.990828,-344.190002,-43.889999,2.59,1729476246673.0,0.0
-2.955136,-9.631111,0.337388,-290.290009,-30.940001,-3.36,1729476246694.0,0.0
-2.021935,-10.559525,-1.452443,-158.550003,-5.04,-8.33,1729476246721.0,0.0
-1.682154,-10.135997,-1.201197,-78.82,14.98,-7.98,1729476246736.0,0.0
-1.476372,-9.250652,-1.696511,-28.700001,24.219999,-1.82,1729476246753.0,0.0
-1.392623,-9.425328,-0.677169,-12.53,23.450001,6.93,1729476246774.0,0.0
-1.043271,-9.372685,-0.435494,-39.41,19.460001,3.5,1729476246796.0,0.0
-1.009771,-9.454042,-1.31366,-63.209999,12.95,3.22,1729476246815.0,0.0
-1.397408,-10.411172,-1.722832,-59.010002,10.99,3.22,1729476246836.0,0.0
-1.68694,-10.164711,-1.696511,-45.920002,6.58,0.56,1729476246855.0,0.0
-2.344966,-10.722239,-1.100698,-19.389999,2.73,3.5,1729476246874.0,0.0
-3.744767,-8.427521,1.323231,-18.549999,-6.93,3.71,1729476246896.0,0.0
-3.74716,-8.370094,-1.663012,32.27,-14.77,12.6,1729476246915.0,0.0
-2.318645,-10.789237,-2.541178,69.650002,-18.9,7.07,1729476246936.0,0.0
-2.340181,-10.317852,-1.722832,52.080002,-12.11,9.31,1729476246954.0,0.0
-3.347559,-9.207582,-1.85683,48.93,8.19,10.15,1729476246975.0,0.0
-3.261417,-9.504292,-1.275374,55.650002,12.18,14.28,1729476246996.0,0.0
-2.768496,-8.860621,-0.363709,73.010002,8.47,12.6,1729476247017.0,0.0
-2.945565,-8.068598,-0.234497,72.029999,8.47,14.63,1729476247036.0,0.0
-3.582055,-8.23131,0.648455,58.099998,7.63,18.76,1729476247056.0,0.0
-3.622734,-8.633304,-0.131605,53.760002,4.06,21.280001,1729476247075.0,0.0
-3.323631,-7.922636,0.803988,32.759998,-2.94,18.27,1729476247099.0,0.0
-3.244668,-7.389036,0.646062,1.4,-10.43,27.23,1729476247115.0,0.0
-3.87398,-8.525627,1.179662,-28.700001,-16.870001,37.310001,1729476247136.0,0.0
-4.572684,-9.501899,1.605584,-71.330002,-25.549999,25.9,1729476247158.0,0.0
-5.297709,-8.41795,-0.057428,-96.809998,-33.740002,29.540001,1729476247174.0,0.0
-5.199604,-8.578269,0.870987,-95.340004,-46.549999,24.290001,1729476247195.0,0.0
-4.914857,-7.515855,-2.165504,-106.610001,-54.040001,8.89,1729476247215.0,0.0
-5.426922,-7.640282,-3.809374,-127.260002,-36.540001,5.95,1729476247236.0,0.0
-5.869594,-7.719246,-5.295317,-163.800003,-36.68,-1.54,1729476247254.0,0.0
-4.996214,-7.88435,-6.788438,-161.770004,-39.27,-1.4,1729476247277.0,0.0
-4.010371,-8.863015,-6.60419,-102.129997,-42.139999,6.16,1729476247306.0,0.0
-3.541377,-8.12124,-4.347759,-35.77,-34.23,6.51,1729476247321.0,0.0
-4.180261,-7.652246,-4.012764,-13.58,-21.91,2.03,1729476247338.0,0.0
-4.175476,-6.250053,-5.228317,-109.900002,-26.809999,-12.74,1729476247354.0,0.0
-4.051049,-6.197411,-6.250053,-168.630005,-33.040001,-12.25,1729476247374.0,0.0
-3.536592,-8.102098,-8.01117,-194.669998,-41.02,-17.290001,1729476247395.0,0.0
-2.912065,-10.255639,-9.006584,-166.949997,-39.130001,-13.65,1729476247414.0,0.0
-2.057827,-10.329816,-8.729016,-120.610001,-21.559999,-10.15,1729476247436.0,0.0
-2.294717,-8.707481,-7.188039,-69.790001,16.799999,-6.79,1729476247455.0,0.0
-3.26381,-7.408179,-5.589634,-22.26,52.779999,-7.21,1729476247474.0,0.0
-4.890929,-7.195218,-6.702296,37.240002,55.439999,0.28,1729476247495.0,0.0
-5.4006,-7.814958,-6.738188,58.59,38.43,12.25,1729476247515.0,0.0
-4.591826,-5.599205,-5.659025,10.15,39.34,10.85,1729476247535.0,0.0
-4.441079,-8.623734,-6.69751,-17.360001,40.529999,5.6,1729476247554.0,0.0
-5.079963,-10.497313,-3.646662,-35.139999,54.32,4.76,1729476247574.0,0.0
-5.592027,-8.255238,-2.854637,7.07,42.630001,0.98,1729476247596.0,0.0
-4.725825,-6.664011,-4.876573,-28.49,26.18,-12.53,1729476247614.0,0.0
-3.641876,-8.925228,-6.996613,-66.150002,26.25,-8.96,1729476247636.0,0.0
-2.904887,-10.152746,-6.711867,-36.75,39.34,-6.51,1729476247654.0,0.0
-3.029313,-7.984849,-5.520242,18.690001,57.189999,-2.24,1729476247674.0,0.0
-2.084148,-7.398607,-5.35753,21.559999,58.450001,-0.21,1729476247697.0,0.0
-1.162912,-7.578069,-3.766303,19.460001,56.420002,9.24,1729476247716.0,0.0
-1.184447,-7.432107,-1.926222,22.120001,51.450001,9.03,1729476247735.0,0.0
-1.813759,-8.116454,-0.394816,8.61,35.98,4.13,1729476247755.0,0.0
-2.328217,-8.161918,-1.550549,-21.42,4.06,-7.77,1729476247774.0,0.0
-3.4672,-9.341579,-2.641676,-34.509998,-21.700001,-18.200001,1729476247795.0,0.0
-3.57727,-8.726624,-2.612962,-21.559999,-42.420002,-27.860001,1729476247816.0,0.0
-1.842474,-6.628119,-4.599005,-0.21,-78.050003,-28.0,1729476247835.0,0.0
-1.418944,-4.981857,-5.230711,-3.64,-88.550003,-20.370001,1729476247854.0,0.0
-2.931208,-6.575477,-10.327423,-9.66,-81.410004,-6.93,1729476247875.0,0.0
-5.733203,-8.066205,-11.892329,-68.389999,-55.439999,-12.25,1729476247895.0,0.0
-8.439486,-7.664211,-13.634303,-118.300003,14.84,-21.07,1729476247914.0,0.0
-6.089733,-6.518049,-14.199009,-91.349998,27.58,-11.69,1729476247935.0,0.0
-1.361516,-5.718846,-9.293723,37.869999,34.16,11.9,1729476247954.0,0.0
-0.89013,-6.192625,-6.30748,117.110001,65.519997,20.23,1729476247974.0,0.0
-3.330809,-6.888937,-4.632504,82.18,96.739998,12.25,1729476247995.0,0.0
-1.931008,-7.075576,-3.613162,2.87,60.549999,11.27,1729476248014.0,0.0
0.035892,-7.360322,-2.57707,14.0,34.02,11.06,1729476248036.0,0.0
-0.5001,-6.826723,-0.586242,40.18,30.17,18.059999,1729476248055.0,0.0
-2.775674,-9.049655,-0.708275,38.57,9.1,11.55,1729476248074.0,0.0
-4.508078,-9.456435,0.18664,22.33,-14.7,-6.51,1729476248098.0,0.0
-2.926422,-8.154739,-2.665605,40.32,-65.029999,-10.92,1729476248115.0,0.0
-1.337588,-6.585048,-4.328616,40.459999,-106.75,-13.16,1729476248135.0,0.0
-2.517249,-9.226725,-10.016356,14.42,-100.590004,-10.64,1729476248154.0,0.0
-4.240082,-6.798009,-7.599605,-52.43,-79.169998,-29.68,1729476248174.0,0.0
-6.273981,-6.099305,-10.571491,-70.769997,-46.900002,-15.75,1729476248195.0,0.0
-6.575477,-8.85105,-14.514862,-65.449997,-43.540001,-15.82,1729476248215.0,0.0
-5.728417,-7.580462,-13.727623,-35.0,26.25,-10.78,1729476248236.0,0.0
-3.84048,-6.285945,-11.255837,26.809999,54.880001,7.28,1729476248254.0,0.0
-3.048456,-7.487142,-7.298109,69.090004,84.139999,10.43,1729476248274.0,0.0
-3.326023,-7.82453,-4.441079,59.990002,102.480003,12.39,1729476248296.0,0.0
-3.976871,-6.752545,-3.847659,2.73,98.559998,1.12,1729476248314.0,0.0
-1.246661,-7.281359,0.361316,-27.02,76.090004,4.13,1729476248335.0,0.0
-0.019143,-7.702496,0.248854,25.549999,25.48,6.16,1729476248354.0,0.0
-1.210768,-9.391829,0.136391,26.950001,8.61,0.35,1729476248374.0,0.0
-3.146562,-9.937392,0.059821,25.690001,-12.53,-14.49,1729476248395.0,0.0
-2.455036,-7.628319,-1.172483,27.790001,-52.290001,-18.27,1729476248415.0,0.0
-0.847059,-6.903293,-5.079963,21.42,-94.290001,-17.219999,1729476248435.0,0.0
-0.198604,-4.127619,-6.156733,16.1,-97.090004,-8.19,1729476248454.0,0.0
-1.775474,-8.13799,-7.712067,66.57,-90.860001,21.35,1729476248480.0,0.0
-4.517649,-7.975278,-6.032306,44.380001,-50.119999,26.32,1729476248494.0,0.0
-6.905686,-9.047262,-6.989435,10.5,-47.599998,22.540001,1729476248514.0,0.0
-5.438886,-10.236496,-8.193025,37.099998,-51.939999,16.870001,1729476248538.0,0.0
-3.668197,-8.41795,-7.135397,77.910004,-46.41,28.0,1729476248553.0,0.0
-3.988836,-7.372287,-5.115855,128.169998,-15.47,27.719999,1729476248576.0,0.0
-5.156533,-7.23111,-3.424129,113.610001,0.56,25.620001,1729476248596.0,0.0
-5.319244,-7.84128,-3.053242,48.16,-9.8,15.190001,1729476248615.0,0.0
-4.546363,-8.77448,-3.541377,-10.92,-23.1,6.72,1729476248636.0,0.0
-4.012764,-9.016156,-3.48395,-50.889999,-25.129999,0.7,1729476248655.0,0.0
-4.62054,-7.647461,-4.855037,-164.639999,-18.48,-19.530001,1729476248675.0,0.0
-4.12044,-5.766702,-5.745167,-245.910004,-20.51,-26.809999,1729476248695.0,0.0
-3.538985,-4.907679,-7.015756,-275.730011,-28.77,-17.360001,1729476248715.0,0.0
-3.65384,-6.683154,-9.322437,-252.490005,-22.960001,-9.24,1729476248735.0,0.0
-3.9673,-6.9344,-9.485149,-230.720001,-11.2,-5.46,1729476248754.0,0.0
-4.414758,-6.783652,-8.597411,-180.039993,6.44,0.07,1729476248775.0,0.0
-4.338188,-6.355337,-8.602197,-112.279999,10.99,8.68,1729476248797.0,0.0
-3.692125,-5.103891,-7.865208,-74.690002,11.55,16.379999,1729476248817.0,0.0
-3.826123,-4.627719,-8.408379,-91.0,15.82,18.969999,1729476248838.0,0.0
-4.058227,-3.385844,-8.683553,-136.5,35.700001,25.059999,1729476248856.0,0.0
-3.24706,-5.402994,-8.561519,-103.110001,30.59,38.920002,1729476248876.0,0.0
-2.830709,-5.661418,-7.51107,-25.549999,35.630001,41.93,1729476248897.0,0.0
-3.524628,-5.587241,-7.704889,-4.9,42.630001,34.16,1729476248918.0,0.0
-3.644269,-5.809773,-8.350951,-29.26,41.720001,21.77,1729476248936.0,0.0
-2.742175,-6.616155,-7.243074,-53.900002,34.16,7.0,1729476248957.0,0.0
-2.902494,-6.783652,-6.549156,-23.940001,25.41,-1.4,1729476248976.0,0.0
-3.326023,-7.030113,-5.508278,-5.39,21.210001,-11.13,1729476248998.0,0.0
-3.227918,-5.852845,-5.668597,8.68,3.01,-18.34,1729476249016.0,0.0
-3.629912,-5.493921,-4.144369,16.870001,-13.23,-23.030001,1729476249038.0,0.0
-4.744967,-4.400401,-6.161518,-1.68,-26.18,-30.450001,1729476249055.0,0.0
-4.345366,-5.991628,-10.033106,17.85,-44.380001,-23.940001,1729476249075.0,0.0
-3.335595,-6.520442,-9.975677,64.120003,-40.25,-14.7,1729476249101.0,0.0
-3.022135,-5.32403,-9.052048,104.860001,-22.75,-11.83,1729476249117.0,0.0
-3.381058,-4.579862,-8.91805,135.100006,-10.92,-4.06,1729476249137.0,0.0
-3.957729,-3.400201,-9.592826,160.229996,-0.21,9.45,1729476249157.0,0.0
-3.988836,-5.381458,-9.762716,210.559998,5.74,21.280001,1729476249175.0,0.0
-3.893122,-8.370094,-9.585647,291.200012,14.21,19.809999,1729476249200.0,0.0
-4.074977,-8.207381,-10.107283,338.940002,32.830002,12.39,1729476249215.0,0.0
-4.460221,-7.343572,-8.29113,376.390015,52.990002,16.1,1729476249237.0,0.0
-4.776074,-6.798009,-5.773881,404.670013,55.299999,19.879999,1729476249258.0,0.0
-4.62054,-8.733803,-3.091527,430.080017,59.360001,11.62,1729476249275.0,0.0
-3.737589,-9.47797,-0.897308,365.75,56.139999,-22.049999,1729476249296.0,0.0
-3.103491,-9.389436,-1.921437,345.450012,49.279999,-26.18,1729476249318.0,0.0
-3.225525,-10.301102,0.055035,362.110016,42.279999,-31.780001,1729476249340.0,0.0
-3.78066,-10.406385,2.163112,387.940002,21.07,-49.279999,1729476249356.0,0.0
-1.828116,-9.801002,0.392423,428.820007,20.65,-66.220001,1729476249375.0,0.0
-2.608176,-6.652047,1.990828,424.549988,58.450001,-65.519997,1729476249398.0,0.0
-3.651447,-3.804588,5.029713,393.820007,58.59,-61.18,1729476249415.0,0.0
-5.15414,-3.517449,6.415157,289.660004,48.790001,-49.279999,1729476249436.0,0.0
-4.453043,-4.835894,6.13759,158.830002,18.969999,-47.599998,1729476249456.0,0.0
-3.986443,-6.039484,6.008378,108.849998,11.97,-50.049999,1729476249474.0,0.0
-2.9671,-3.663411,6.546762,118.160004,20.860001,-39.619999,1729476249496.0,0.0
-2.89053,-2.63689,7.673782,108.080002,23.870001,-27.790001,1729476249516.0,0.0
-2.45025,-2.54357,7.02772,66.709999,5.46,-19.809999,1729476249536.0,0.0
-2.634498,-2.132005,7.372287,57.75,10.85,-0.56,1729476249556.0,0.0
-2.203789,-2.038685,7.996813,18.549999,4.2,10.29,1729476249575.0,0.0
-1.878366,-4.259224,7.712067,-36.259998,-11.62,20.370001,1729476249596.0,0.0
-2.553142,-5.613562,5.883951,-104.230003,-20.58,26.950001,1729476249617.0,0.0
-3.34038,-7.695317,4.907679,-227.080002,-42.139999,36.470001,1729476249636.0,0.0
-3.347559,-10.626525,3.579663,-256.829987,-54.740002,37.450001,1729476249656.0,0.0
-1.56012,-12.366108,2.48375,-200.550003,-49.84,31.780001,1729476249675.0,0.0
-2.739782,-10.784451,1.59362,-167.369995,-8.12,28.559999,1729476249697.0,0.0
-4.297509,-9.516255,1.741975,-193.550003,-0.28,17.43,1729476249716.0,0.0
-4.639683,-9.499505,1.689333,-267.610016,-10.78,17.57,1729476249740.0,0.0
-4.405186,-10.320245,2.165504,-349.369995,-17.92,10.29,1729476249756.0,0.0
-3.845266,-11.562119,3.125026,-337.820007,-15.12,7.42,1729476249775.0,0.0
-3.672983,-10.724631,3.419343,-292.390015,7.07,3.71,1729476249798.0,0.0
-3.739982,-9.68136,4.072584,-244.300003,8.47,-7.91,1729476249817.0,0.0
-4.220939,-10.028319,4.158726,-240.940002,-0.56,-18.059999,1729476249836.0,0.0
-2.734996,-11.41855,2.632105,-253.190002,-25.059999,-29.610001,1729476249855.0,0.0
-0.323031,-9.056834,-0.01675,-269.570007,-32.619999,-24.710001,1729476249875.0,0.0
-0.33021,-9.769895,-1.940579,-213.009995,1.33,-13.02,1729476249898.0,0.0
-2.146362,-8.226524,-1.622334,-188.160004,18.83,-18.129999,1729476249917.0,0.0
-3.488736,-10.392029,-3.055635,-75.949997,21.700001,-1.96,1729476249937.0,0.0
-1.256232,-10.928021,-4.366901,19.32,-4.69,5.6,1729476249954.0,0.0
-0.323031,-8.133204,-4.713861,76.370003,-8.26,4.34,1729476249976.0,0.0
-1.737189,-6.726225,-3.369094,68.040001,12.74,9.31,1729476249997.0,0.0
-2.488536,-7.695317,-3.290131,71.050003,23.379999,10.92,1729476250016.0,0.0
-3.663411,-6.771688,-0.612563,42.91,17.219999,18.48,1729476250038.0,0.0
-4.055835,-6.300302,-0.748954,-16.17,7.35,14.84,1729476250054.0,0.0
-4.089334,-9.98525,-0.76331,-58.73,-13.93,10.57,1729476250074.0,0.0
-3.232704,-10.638489,-2.74696,-43.959999,-28.0,6.37,1729476250101.0,0.0
-3.07717,-8.709875,-1.641476,-20.93,-30.66,6.3,1729476250116.0,0.0
-3.495914,-6.9679,-1.875973,-36.68,-30.309999,9.94,1729476250136.0,0.0
-3.87398,-7.908278,-1.756332,-53.970001,-31.92,10.29,1729476250156.0,0.0
-3.684947,-9.930215,-2.584249,-59.150002,-42.139999,7.91,1729476250175.0,0.0
-2.904887,-11.047661,-3.878766,-43.75,-47.18,-0.49,1729476250196.0,0.0
-2.998207,-9.631111,-4.185047,-45.360001,-41.790001,-2.59,1729476250218.0,0.0
-3.830909,-8.571091,-3.668197,-43.259998,-23.030001,-0.63,1729476250235.0,0.0
-4.890929,-8.798409,-1.921437,-29.889999,-17.290001,2.03,1729476250257.0,0.0
-5.307281,-8.707481,-1.564906,-37.73,-32.48,-6.16,1729476250275.0,0.0
-4.096512,-6.072984,-4.45065,-74.690002,-42.98,-12.39,1729476250296.0,0.0
-3.761517,-4.661219,-6.345766,-103.599998,-44.240002,-1.61,1729476250315.0,0.0
-3.826123,-7.245467,-6.750153,-75.529999,-27.93,6.44,1729476250336.0,0.0
-3.852444,-7.755138,-6.01077,-74.690002,-24.780001,7.14,1729476250354.0,0.0
-3.957729,-7.283752,-5.029713,-80.57,-32.759998,4.76,1729476250374.0,0.0
-3.823731,-6.144768,-5.615955,-106.400002,-39.900002,-3.22,1729476250395.0,0.0
-4.103691,-7.877172,-7.970492,-109.270004,-40.18,-7.28,1729476250416.0,0.0
-3.979264,-7.89153,-9.308081,-81.059998,-36.75,-9.17,1729476250436.0,0.0
-3.658626,-7.159326,-9.123833,-18.129999,-25.059999,2.17,1729476250455.0,0.0
-3.479164,-5.460421,-6.575477,-17.43,-15.82,6.79,1729476250474.0,0.0
-4.201797,-5.505885,-5.99402,-44.59,-7.7,9.38,1729476250496.0,0.0
-4.740182,-9.894321,-6.63769,-47.040001,-7.28,7.56,1729476250515.0,0.0
-4.17069,-10.612168,-6.972685,-44.029999,-16.030001,-4.62,1729476250536.0,0.0
-3.792624,-8.324631,-6.474977,3.99,-0.77,-3.57,1729476250555.0,0.0
-4.082155,-5.833702,-6.269196,-6.79,11.13,-1.61,1729476250575.0,0.0
-4.189832,-7.412964,-6.431907,-0.42,23.030001,2.31,1729476250605.0,0.0
-3.665804,-9.042477,-7.15454,-1.89,19.950001,4.13,1729476250615.0,0.0
-3.859623,-8.874979,-6.513263,51.59,35.630001,4.62,1729476250637.0,0.0
-3.988836,-7.556533,-5.089533,73.989998,39.200001,-0.35,1729476250654.0,0.0
-3.672983,-7.877172,-5.197211,65.099998,35.279999,-3.92,1729476250676.0,0.0
-3.232704,-8.183454,-5.79781,38.709999,34.02,-7.63,1729476250696.0,0.0
-3.259024,-5.599205,-5.151747,1.61,40.18,-4.9,1729476250715.0,0.0
-3.634698,-7.453642,-4.259224,-40.18,43.259998,-5.11,1729476250737.0,0.0
-3.065206,-9.195618,-5.35753,-25.48,36.959999,-7.28,1729476250755.0,0.0
-2.127219,-8.927622,-4.680361,23.379999,29.82,-6.09,1729476250774.0,0.0
-2.132005,-7.68096,-2.849852,67.970001,31.92,-6.3,1729476250795.0,0.0
-3.735196,-6.996613,-1.050449,74.199997,25.549999,-7.49,1729476250815.0,0.0
-4.63729,-6.812366,-1.361516,29.889999,6.93,-16.66,1729476250835.0,0.0
-3.335595,-7.020542,-3.414558,-15.4,-32.759998,-17.92,1729476250854.0,0.0
-1.825724,-7.094719,-7.228717,-29.889999,-56.279999,-17.57,1729476250874.0,0.0
-2.050649,-7.836494,-10.274779,-14.21,-47.18,-14.63,1729476250895.0,0.0
-3.426522,-5.929415,-9.982857,-9.31,-14.42,-5.18,1729476250914.0,0.0
-4.912465,-6.288338,-10.272388,-29.610001,0.77,4.2,1729476250936.0,0.0
-4.010371,-6.374479,-6.865008,-42.77,0.7,2.03,1729476250954.0,0.0
-4.223332,-6.589834,-6.486942,3.22,25.690001,16.1,1729476250974.0,0.0
-5.673382,-5.575277,-5.123034,-22.75,53.830002,15.68,1729476250995.0,0.0
-5.395815,-7.338787,-3.326023,-54.459999,47.110001,16.379999,1729476251015.0,0.0
-3.34038,-6.975078,-3.062813,-76.019997,16.1,16.309999,1729476251036.0,0.0
-2.718246,-9.547362,-3.127419,-48.580002,-5.6,19.6,1729476251055.0,0.0
-3.929015,-10.250853,-4.12044,-64.610001,17.43,2.87,1729476251074.0,0.0
-4.007978,-8.786445,-4.809574,-55.580002,5.25,-5.39,1729476251097.0,0.0
-2.885744,-8.772088,-4.704289,-44.380001,-11.13,-8.96,1729476251115.0,0.0
-2.768496,-9.549755,-4.63729,-40.25,-6.93,-15.68,1729476251136.0,0.0
-3.26381,-8.671589,-5.391029,-17.08,-5.53,-16.17,1729476251154.0,0.0
-3.579663,-7.003791,-5.300103,12.32,-10.15,-9.59,1729476251174.0,0.0
-3.804588,-5.273781,-5.438886,1.05,-6.58,-6.02,1729476251195.0,0.0
-3.443272,-6.108876,-5.692525,0.14,-8.82,0.77,1729476251214.0,0.0
-3.223132,-8.114061,-6.199803,49.279999,-19.25,8.75,1729476251235.0,0.0
-3.15374,-9.073583,-6.049056,119.910004,-23.59,8.61,1729476251254.0,0.0
-3.261417,-8.877372,-5.71406,153.860001,-18.9,4.34,1729476251274.0,0.0
-3.579663,-8.317451,-6.242875,150.779999,-18.9,0.98,1729476251296.0,0.0
-3.570091,-8.571091,-6.960721,131.880005,-22.75,-5.04,1729476251316.0,0.0
-3.536592,-9.286544,-6.183054,153.649994,-7.42,2.17,1729476251335.0,0.0
-3.859623,-8.547162,-5.17089,175.559998,4.69,7.98,1729476251354.0,0.0
-4.694718,-8.547162,-4.771288,226.169998,23.450001,7.56,1729476251374.0,0.0
-5.206782,-9.745967,-4.103691,279.649994,38.290001,1.33,1729476251395.0,0.0
-4.271189,-10.779665,-3.24706,312.619995,29.960001,-3.08,1729476251414.0,0.0
-2.98385,-9.102298,-1.323231,315.140015,23.1,1.89,1729476251435.0,0.0
-2.610569,-7.286145,-0.411566,299.459991,30.870001,5.18,1729476251543.0,0.0
-3.720839,-7.365108,0.859023,286.160004,39.549999,-0.98,1729476251544.0,0.0
-4.62054,-10.076177,1.435694,296.869995,18.620001,-12.88,1729476251546.0,0.0
-2.359323,-11.315658,1.301696,315.279999,1.05,-38.360001,1729476251546.0,0.0
-1.954936,-8.736196,2.196611,303.869995,49.0,-21.42,1729476251547.0,0.0
-3.74716,-7.467999,1.529014,273.630005,68.529999,-27.790001,1729476251554.0,0.0
-4.646862,-9.320045,1.665405,269.01001,45.080002,-52.360001,1729476251574.0,0.0
-3.955336,-7.271788,4.529613,284.690002,56.490002,-55.02,1729476251596.0,0.0
-6.520442,-2.053042,7.396214,267.119995,89.669998,-48.23,1729476251615.0,0.0
-6.072984,-5.563312,4.996214,185.919998,54.740002,-45.990002,1729476251638.0,0.0
-3.830909,-7.989635,5.283352,116.620003,16.1,-57.400002,1729476251654.0,0.0
-3.656233,-4.790431,7.757531,189.210007,46.060001,-46.48,1729476251676.0,0.0
-5.199604,-2.404787,8.85105,165.550003,37.869999,-47.18,1729476251697.0,0.0
-4.165904,-3.39063,8.54477,97.160004,9.87,-39.48,1729476251716.0,0.0
-3.486342,-4.388437,7.89153,72.800003,3.99,-22.960001,1729476251737.0,0.0
-3.481557,-4.168297,8.200203,72.590004,6.93,-16.309999,1729476251756.0,0.0
-4.106083,-3.756732,8.413164,62.02,5.6,-12.88,1729476251776.0,0.0
-3.802195,-2.87378,9.24826,34.02,-0.07,-8.82,1729476251796.0,0.0
-3.402594,-4.309474,8.834301,1.68,-15.12,1.75,1729476251816.0,0.0
-2.778067,-3.589234,7.915457,-3.43,-14.91,6.3,1729476251836.0,0.0
-3.220739,-4.807181,7.893922,-7.7,-19.389999,3.85,1729476251856.0,0.0
-3.177669,-4.67079,7.484749,-16.309999,-19.809999,2.73,1729476251875.0,0.0
-2.557927,-3.172883,8.11167,-18.9,-11.9,6.09,1729476251896.0,0.0
-2.371287,-4.986642,7.685746,-35.490002,-16.52,11.83,1729476251915.0,0.0
-2.088934,-5.742774,6.769295,-20.09,-12.32,4.97,1729476251936.0,0.0
-2.177469,-5.130211,6.960721,2.87,1.47,5.18,1729476251956.0,0.0
-2.471786,-5.264209,6.695118,21.559999,11.48,-5.95,1729476251975.0,0.0
-3.012564,-4.371687,7.769495,34.580002,22.33,-15.54,1729476251997.0,0.0
-3.701697,-4.68754,8.652447,32.41,23.66,-14.56,1729476252016.0,0.0
-3.326023,-4.31426,9.209974,17.57,19.530001,-21.700001,1729476252036.0,0.0
-3.895515,-3.35713,9.343972,9.38,12.88,-16.52,1729476252055.0,0.0
-4.680361,-2.59382,9.075976,-3.36,1.68,-9.66,1729476252075.0,0.0
-5.161318,-1.976472,8.049455,-15.89,-8.96,2.73,1729476252098.0,0.0
-5.737988,-2.237289,7.171289,-33.810001,-16.24,13.58,1729476252115.0,0.0
-5.647062,-1.854438,7.922636,-45.849998,-19.32,21.139999,1729476252137.0,0.0
-5.230711,-1.409373,8.618947,-74.830002,-22.68,32.41,1729476252157.0,0.0
-4.541577,-2.40718,7.944171,-133.279999,-33.599998,33.110001,1729476252261.0,0.0
-3.651447,-3.548556,7.202396,-182.0,-47.459999,31.57,1729476252263.0,0.0
-3.838088,-4.208975,7.551748,-214.199997,-42.630001,49.98,1729476252265.0,0.0
-3.864408,-5.058427,6.723832,-265.160004,-48.580002,57.540001,1729476252266.0,0.0
-3.139383,-7.06122,3.584448,-305.269989,-65.379997,47.810001,1729476252268.0,0.0
-2.615355,-9.547362,1.100698,-286.51001,-69.650002,42.209999,1729476252274.0,0.0
-1.48355,-11.047661,-0.98345,-241.570007,-52.709999,31.219999,1729476252295.0,0.0
-1.064806,-13.052847,-1.155733,-158.759995,-21.91,22.049999,1729476252315.0,0.0
-2.115255,-14.797215,0.538385,-65.239998,9.24,2.87,1729476252336.0,0.0
-3.215954,-14.883357,0.270389,51.240002,23.030001,-18.48,1729476252355.0,0.0
-2.651247,-14.155938,2.730211,224.839996,65.169998,-37.73,1729476252377.0,0.0
-3.5007,-9.88475,4.589434,338.170013,104.090004,-62.439999,1729476252395.0,0.0
-5.268995,-4.740182,5.237889,367.01001,108.5,-76.510002,1729476252415.0,0.0
-5.611169,-2.206182,7.113862,370.579987,73.5,-70.349998,1729476252438.0,0.0
-5.56092,0.062213,8.142776,315.559998,65.099998,-65.099998,1729476252455.0,0.0
-5.752346,0.710668,9.032906,207.059998,46.27,-49.700001,1729476252474.0,0.0
-5.13739,-0.332602,7.812566,82.32,9.59,-37.450001,1729476252496.0,0.0
-4.555934,-1.540978,7.405786,24.5,-5.04,-13.65,1729476252517.0,0.0
-3.507878,-1.014557,7.872386,5.74,-11.13,10.85,1729476252536.0,0.0
-2.938386,-0.095713,8.288737,-42.0,-16.17,38.360001,1729476252556.0,0.0
-2.823531,-1.667797,7.676175,-124.110001,-36.049999,61.18,1729476252575.0,0.0
-2.651247,-6.539584,6.721439,-205.520004,-51.450001,64.82,1729476252595.0,0.0
-2.213361,-8.188239,5.491528,-278.459991,-65.660004,57.75,1729476252617.0,0.0
-2.488536,-10.719845,3.29731,-279.579987,-67.690002,50.889999,1729476252636.0,0.0
-1.978864,-11.557333,2.031506,-248.290009,-47.18,31.15,1729476252655.0,0.0
-2.744568,-12.330215,2.478964,-195.089996,-28.139999,16.24,1729476252675.0,0.0
-3.629912,-13.646267,3.160919,-112.419998,-12.53,-6.79,1729476252696.0,0.0
-3.548556,-13.354343,2.852244,25.969999,10.36,-26.6,1729476252716.0,0.0
-2.962314,-10.272388,3.931407,205.520004,58.029999,-38.779999,1729476252737.0,0.0
-4.118048,-6.111269,5.642276,321.299988,89.879997,-47.389999,1729476252754.0,0.0
-5.465207,-2.957529,7.211967,333.200012,82.040001,-56.349998,1729476252774.0,0.0
-5.9677,-0.607777,7.812566,268.380005,58.66,-55.02,1729476252796.0,0.0
-4.991428,0.153141,8.195417,163.800003,36.049999,-33.110001,1729476252816.0,0.0
-4.299902,-0.954736,7.980063,45.5,6.02,-7.35,1729476252836.0,0.0
-2.864209,-1.639083,7.056434,-21.700001,-15.75,6.16,1729476252857.0,0.0
-2.196611,-2.388037,7.281359,-45.009998,-11.83,36.049999,1729476252875.0,0.0
-2.775674,-4.41715,7.357929,-125.580002,-20.93,40.459999,1729476252895.0,0.0
-2.620141,-8.178668,5.974878,-204.680008,-44.240002,40.040001,1729476252915.0,0.0
-2.28036,-10.552348,4.709075,-223.440002,-47.740002,38.150002,1729476252936.0,0.0
-1.895115,-12.074183,3.115455,-180.389999,-36.540001,17.639999,1729476252954.0,0.0
-2.086541,-11.437693,2.921637,-112.279999,-14.07,-0.14,1729476252975.0,0.0
-3.002992,-10.705488,4.232903,-9.17,14.84,-6.79,1729476252996.0,0.0
-4.319045,-9.365508,5.474778,88.059998,31.43,-20.790001,1729476253016.0,0.0
-4.496114,-7.759924,5.783452,168.490005,41.02,-34.509998,1729476253039.0,0.0
-4.027121,-5.249853,6.723832,224.0,50.82,-42.279999,1729476253055.0,0.0
-4.981857,-2.06022,7.948956,237.369995,56.279999,-40.25,1729476253076.0,0.0
-5.575277,0.452243,9.092726,162.75,40.18,-19.32,1729476253100.0,0.0
-4.704289,0.457029,8.786445,41.369999,4.69,2.45,1729476253116.0,0.0
-3.974478,0.131605,8.02792,-63.700001,-20.719999,34.790001,1729476253135.0,0.0
-4.500899,-1.892723,6.989435,-169.259995,-40.670002,58.939999,1729476253155.0,0.0
-5.003392,-5.91745,6.623333,-260.679993,-77.07,67.340004,1729476253174.0,0.0
-2.952743,-8.195417,2.656033,-310.940002,-93.590004,52.360001,1729476253195.0,0.0
-2.194218,-8.784052,3.579663,-318.290009,-84.279999,50.049999,1729476253215.0,0.0
-2.330609,-9.499505,0.196211,-341.040009,-86.239998,46.41,1729476253237.0,0.0
-2.548356,-10.540384,-1.232304,-357.980011,-70.910004,23.1,1729476253255.0,0.0
-3.414558,-10.58824,-0.811167,-346.220001,-56.279999,22.049999,1729476253276.0,0.0
-3.352344,-11.550155,-0.782453,-284.269989,-32.689999,10.15,1729476253295.0,0.0
-3.125026,-10.767702,-1.830509,-260.820007,-6.09,-3.36,1729476253316.0,0.0
-3.629912,-10.356135,-2.313859,-261.869995,7.14,-8.12,1729476253336.0,0.0
-4.220939,-9.755538,-2.177469,-275.869995,10.92,-20.93,1729476253354.0,0.0
-4.811966,-9.583255,-1.969293,-302.540009,10.92,-21.700001,1729476253374.0,0.0
-4.419543,-9.360723,-0.598206,-302.679993,-7.84,-27.370001,1729476253395.0,0.0
-2.203789,-10.047462,-5.501099,-229.110001,-20.58,-31.219999,1729476253414.0,0.0
-1.337588,-10.389636,-6.659225,-120.75,-2.52,-21.77,1729476253435.0,0.0
-1.485943,-9.549755,-8.018349,-8.82,31.85,-8.68,1729476253454.0,0.0
-2.603391,-8.193025,-2.021935,101.150002,57.049999,14.0,1729476253474.0,0.0
-2.579463,-5.711668,0.019143,73.57,50.889999,9.17,1729476253497.0,0.0
-1.90708,-5.472386,-0.138784,6.23,13.58,10.85,1729476253522.0,0.0
-1.9669,-6.209375,-2.081756,-55.650002,0.98,20.23,1729476253536.0,0.0
-2.0004,-7.867601,-3.830909,-84.279999,-13.51,22.120001,1729476253554.0,0.0
-1.981257,-9.001799,-3.706482,-63.349998,-24.43,26.32,1729476253576.0,0.0
-2.924029,-8.925228,-5.072784,-13.72,-16.59,25.059999,1729476253597.0,0.0
-3.759124,-8.456236,-5.565705,-15.54,-17.57,23.17,1729476253614.0,0.0
-4.316652,-8.786445,-4.125226,-50.189999,-24.290001,17.639999,1729476253636.0,0.0
-4.331009,-10.262815,-6.573084,-66.849998,-37.869999,3.85,1729476253655.0,0.0
-4.400401,-10.360922,-7.984849,-16.309999,-34.790001,4.97,1729476253675.0,0.0
-5.383851,-9.107083,-7.814958,23.52,4.13,3.22,1729476253697.0,0.0
-5.991628,-8.480164,-6.192625,32.200001,26.040001,1.96,1729476253715.0,0.0
-4.792823,-9.188439,-5.06082,55.369999,26.530001,5.74,1729476253736.0,0.0
-3.079563,-9.724431,-5.087141,69.230003,23.24,3.36,1729476253756.0,0.0
-2.239682,-8.477771,-2.976671,66.220001,37.66,-0.07,1729476253775.0,0.0
-2.232504,-6.927221,2.414358,47.389999,20.16,2.8,1729476253798.0,0.0
-3.144169,-7.99442,-5.814559,2.31,18.059999,-2.24,1729476253816.0,0.0
-2.0004,-8.228917,-4.524827,-21.629999,8.54,-8.26,1729476253839.0,0.0
-1.476372,-8.070991,-1.615155,-8.4,-9.03,8.19,1729476253859.0,0.0
-2.888137,-8.023134,-3.900301,23.66,1.96,-3.71,1729476253879.0,0.0
-3.625126,-7.264609,-3.87398,0.14,-5.74,-9.8,1729476253898.0,0.0
-2.770889,-7.755138,-4.414758,-16.799999,-33.25,-6.65,1729476253916.0,0.0
-2.57707,-8.84148,-4.352544,-20.65,-46.060001,-8.61,1729476253937.0,0.0
-4.565506,-9.906286,-5.584848,-11.83,-39.34,-13.23,1729476253956.0,0.0
-5.82413,-8.800802,-7.429714,-48.02,-19.040001,-25.690001,1729476253977.0,0.0
-5.876772,-9.798609,-8.745767,-47.950001,1.82,-20.16,1729476253997.0,0.0
-3.706482,-9.77468,-6.317052,8.05,9.73,-18.34,1729476254016.0,0.0
-2.651247,-8.817552,-4.036692,86.239998,30.380001,-4.55,1729476254038.0,0.0
-2.888137,-7.204789,-0.308674,88.059998,45.849998,-2.52,1729476254090.0,0.0
-3.115455,-4.957928,2.065006,22.82,13.51,-1.96,1729476254091.0,0.0
-3.699304,-6.635297,-3.541377,-25.620001,3.85,7.98,1729476254102.0,0.0
-2.589034,-9.868,-5.065606,-49.139999,-3.43,1.68,1729476254117.0,0.0
-1.442872,-9.674182,-3.402594,-20.02,-18.41,9.8,1729476254138.0,0.0
-1.555335,-8.166703,-5.091926,32.34,1.54,4.2,1729476254159.0,0.0
-3.225525,-7.228717,-5.63749,21.629999,10.85,-0.91,1729476254274.0,0.0
-3.67059,-6.513263,-4.070191,-1.68,-3.64,-0.7,1729476254275.0,0.0
-2.553142,-8.54477,-4.010371,13.440001,-39.900002,7.28,1729476254277.0,0.0
-4.029513,-9.561719,-4.476971,2.45,-37.73,-2.38,1729476254279.0,0.0
-5.273781,-9.004191,-7.554141,-17.780001,-14.28,-5.95,1729476254280.0,0.0
-6.084948,-8.977871,-8.176274,-85.82,15.05,-10.5,1729476254281.0,0.0
-4.108476,-12.502499,-6.9679,-30.309999,16.1,-8.82,1729476254296.0,0.0
-2.134398,-12.000006,-4.287938,81.269997,25.34,-2.73,1729476254316.0,0.0
-2.447858,-6.74776,2.572284,103.529999,38.57,-11.41,1729476254342.0,0.0
-4.086941,-3.20399,0.926022,29.469999,23.17,-6.09,1729476254356.0,0.0
-3.684947,-6.104091,-8.133204,-59.360001,11.83,-4.48,1729476254375.0,0.0
-2.421536,-10.736595,1.150948,-71.540001,-24.219999,-2.94,1729476254396.0,0.0
-1.299303,-11.069198,-4.931608,-23.66,-12.11,-3.01,1729476254417.0,0.0
-2.084148,-7.975278,-5.35753,6.23,0.49,-10.29,1729476254437.0,0.0
-3.199204,-7.4345,-6.317052,21.49,7.84,-11.34,1729476254459.0,0.0
-3.826123,-6.312266,-4.256832,-18.9,3.08,-12.25,1729476254491.0,0.0
-3.122634,-8.451449,-4.149154,-3.99,-26.110001,-7.14,1729476254500.0,0.0
-3.177669,-9.659825,-3.89073,14.14,-38.57,-9.66,1729476254516.0,0.0
-3.74716,-9.475577,-6.805188,38.080002,-27.299999,-11.76,1729476254537.0,0.0
-5.556134,-7.580462,-4.917251,-37.73,14.91,-12.88,1729476254556.0,0.0
-4.161119,-10.064213,-4.962714,-22.4,9.17,-9.73,1729476254575.0,0.0
-2.639283,-10.667203,-1.651048,19.530001,2.38,-2.24,1729476254597.0,0.0
-2.56032,-7.826923,-0.004786,25.9,8.4,-7.35,1729476254616.0,0.0
-3.677768,-6.309873,-1.040878,-12.46,9.66,-5.95,1729476254637.0,0.0
-3.026921,-7.097112,-7.377072,-58.52,10.85,-0.56,1729476254657.0,0.0
-2.043471,-9.724431,-3.57727,-58.869999,-9.8,6.65,1729476254676.0,0.0
-0.856631,-10.370493,-4.005585,-8.68,-5.74,0.98,1729476254696.0,0.0
-1.378266,-8.463413,-3.787838,36.75,-0.42,0.14,1729476254718.0,0.0
-2.701497,-7.41775,-5.192425,40.389999,6.58,-3.71,1729476254738.0,0.0
-3.562913,-6.762117,-3.888337,4.2,-1.26,-4.34,1729476254756.0,0.0
-3.134598,-7.587641,-4.455436,-11.27,-23.59,-0.91,1729476254778.0,0.0
-2.411965,-8.480164,-4.876573,-14.0,-45.290001,-1.75,1729476254798.0,0.0
-3.304488,-9.540184,-4.934,-4.2,-38.150002,-3.29,1729476254816.0,0.0
-4.259224,-9.372685,-8.204988,-8.33,-18.059999,-7.56,1729476254838.0,0.0
-4.821537,-10.236496,-8.405986,-20.51,10.71,-6.51,1729476254855.0,0.0
-3.665804,-9.872787,-4.642076,0.14,35.84,-0.14,1729476254875.0,0.0
-2.488536,-9.738789,-1.76351,89.529999,31.01,5.25,1729476254896.0,0.0
-2.833102,-8.286345,1.026521,130.130005,32.27,9.1,1729476254918.0,0.0
-4.197011,-5.788238,-1.816152,79.730003,33.389999,10.57,1729476254936.0,0.0
-3.684947,-5.213961,-3.775874,-17.360001,30.1,6.79,1729476254957.0,0.0
-2.565106,-7.896315,-1.674976,-83.860001,0.63,19.74,1729476254976.0,0.0
-1.691726,-10.877771,-3.682554,-65.800003,-8.96,14.35,1729476254998.0,0.0
-1.679761,-10.561919,-4.06062,-20.790001,-6.65,4.41,1729476255016.0,0.0
-2.569891,-8.676375,-4.725825,-1.68,-3.08,-7.84,1729476255038.0,0.0
-2.988636,-6.872187,-3.95055,-24.92,-14.28,-11.9,1729476255055.0,0.0
-2.63689,-7.941778,-4.599005,-17.639999,-39.830002,-5.46,1729476255075.0,0.0
-2.955136,-8.886944,-4.989035,-24.15,-45.5,-7.0,1729476255100.0,0.0
-4.536791,-8.9348,-5.424529,-42.139999,-31.710001,-12.39,1729476255116.0,0.0
-5.74756,-11.810973,-7.566105,-28.210001,-5.46,-17.85,1729476255137.0,0.0
-6.058627,-10.683953,-6.690332,-45.849998,18.27,-25.059999,1729476255161.0,0.0
-3.862016,-9.915856,-3.63709,74.410004,18.34,-5.39,1729476255178.0,0.0
-2.129612,-7.508677,-0.217747,102.340004,14.21,-7.49,1729476255196.0,0.0
-3.768696,-4.98425,-1.083949,22.469999,22.68,-6.09,1729476255216.0,0.0
-3.620341,-6.723832,-7.534998,-90.580002,10.64,0.28,1729476255236.0,0.0
-1.866402,-11.370694,-2.852244,-52.709999,-0.77,6.86,1729476255256.0,0.0
-0.830309,-10.535598,-3.440879,7.91,0.42,8.89,1729476255276.0,0.0
-1.579263,-7.743174,-2.847459,54.670002,5.6,-2.8,1729476255297.0,0.0
-3.005385,-6.862615,-3.972085,30.24,3.36,-7.77,1729476255317.0,0.0
-3.567699,-6.982256,-5.017749,-24.15,-10.15,-9.8,1729476255336.0,0.0
-2.59382,-7.281359,-5.285746,-49.420002,-33.810001,-7.63,1729476255355.0,0.0
-2.237289,-8.092526,-3.718446,-28.07,-49.420002,-3.64,1729476255376.0,0.0
-4.110869,-8.757731,-3.270989,-7.77,-41.509998,-1.26,1729476255396.0,0.0
-5.446064,-7.286145,-8.685946,-48.720001,-28.630001,-8.05,1729476255415.0,0.0
-6.058627,-9.702895,-9.028119,-68.040001,-7.21,-0.84,1729476255439.0,0.0
-4.316652,-12.701102,-6.812366,-11.13,7.7,-1.26,1729476255456.0,0.0
-2.785245,-10.516455,-4.146761,82.459999,21.84,1.68,1729476255474.0,0.0
-2.85703,-6.98465,-2.897708,114.800003,32.759998,-4.97,1729476255497.0,0.0
-3.61077,-5.541777,-2.404787,88.900002,33.040001,1.26,1729476255516.0,0.0
-2.801995,-6.886543,-5.855237,12.6,39.549999,2.17,1729476255536.0,0.0
-0.978664,-11.042876,-1.615155,13.72,11.41,8.4,1729476255562.0,0.0
-1.258625,-8.867801,-2.289931,49.700001,7.14,-3.36,1729476255575.0,0.0
-2.809174,-7.097112,-2.660819,51.52,4.27,-7.56,1729476255598.0,0.0
-3.95055,-7.022934,-3.326023,16.309999,-3.15,-6.3,1729476255619.0,0.0
-2.804388,-8.018349,-3.909872,-17.08,-28.559999,-1.4,1729476255639.0,0.0
-2.0004,-7.707282,-4.175476,-21.139999,-40.459999,3.71,1729476255657.0,0.0
-3.409772,-9.815358,-3.684947,-6.23,-32.060001,6.02,1729476255676.0,0.0
-5.029713,-10.001998,-7.89153,-23.309999,-20.790001,-6.65,1729476255697.0,0.0
-6.664011,-9.513863,-8.13799,-28.630001,8.54,-9.38,1729476255716.0,0.0
-5.74756,-11.600404,-6.783652,1.26,24.43,-8.4,1729476255737.0,0.0
-2.998207,-10.535598,-5.666204,32.970001,23.870001,-10.36,1729476255756.0,0.0
-2.249253,-9.303294,-1.651048,82.809998,42.0,-8.12,1729476255776.0,0.0
-2.943172,-8.54477,-0.588634,98.489998,50.82,-14.42,1729476255798.0,0.0
-3.713661,-7.221539,-1.06002,55.369999,53.830002,-16.59,1729476255817.0,0.0
-2.328217,-5.982057,-0.799203,-22.33,43.889999,-19.879999,1729476255839.0,0.0
-0.315853,-9.927821,-0.318245,-7.07,7.98,5.11,1729476255859.0,0.0
-0.729811,-8.618947,-0.820738,42.209999,10.29,-9.94,1729476255876.0,0.0
-2.553142,-6.355337,-1.028914,23.66,3.99,-7.63,1729476255898.0,0.0
-3.498307,-6.74776,-1.739582,-14.07,-17.99,1.82,1729476255918.0,0.0
-2.519642,-8.032705,-3.486342,-37.66,-39.200001,6.51,1729476255939.0,0.0
-2.495714,-9.525827,-3.127419,-19.110001,-48.369999,12.11,1729476255957.0,0.0
-4.055835,-10.260423,-3.062813,-12.11,-41.439999,11.06,1729476255978.0,0.0
-4.898108,-9.949356,-8.606983,-24.92,-31.290001,0.63,1729476256000.0,0.0
-6.628119,-10.650455,-6.075377,-70.489998,1.61,-6.3,1729476256018.0,0.0
-4.859823,-12.464212,-7.953743,-52.290001,17.57,-11.41,1729476256039.0,0.0
-2.349752,-11.990433,-4.189832,53.760002,27.58,-6.37,1729476256057.0,0.0
-2.249253,-8.444271,-0.789631,106.260002,45.360001,-12.46,1729476256077.0,0.0
-3.507878,-5.809773,-0.320638,66.43,49.0,-15.12,1729476256102.0,0.0
-2.586641,-5.414958,-6.659225,-38.779999,40.740002,-16.940001,1729476256118.0,0.0
0.083749,-10.236496,0.643669,-60.619999,13.51,-5.46,1729476256141.0,0.0
-0.248854,-9.348758,-1.85683,47.110001,11.62,0.14,1729476256158.0,0.0
-1.90708,-6.202196,-0.815953,51.450001,9.94,-5.46,1729476256177.0,0.0
-3.342773,-6.297909,-2.476572,10.43,-3.15,3.78,1729476256200.0,0.0
-2.909672,-7.4345,-4.022335,-49.279999,-31.08,5.46,1729476256218.0,0.0
-2.380858,-9.305687,-5.513064,-49.209999,-50.889999,10.15,1729476256238.0,0.0
-3.895515,-10.849058,-3.393023,-4.13,-35.91,3.99,1729476256258.0,0.0
-6.032306,-11.047661,-3.486342,2.31,-21.91,-0.63,1729476256282.0,0.0
-5.211568,-9.425328,-9.250652,-49.279999,-14.63,-14.49,1729476256297.0,0.0
-4.412365,-9.233903,-6.80758,-79.099998,0.42,0.21,1729476256319.0,0.0
-2.749353,-12.031113,-4.362115,-7.63,16.66,0.42,1729476256339.0,0.0
-2.665605,-10.96152,-0.765703,64.82,30.870001,-3.92,1729476256358.0,0.0
-3.534199,-6.874579,0.253639,79.800003,38.639999,-4.97,1729476256378.0,0.0
-4.051049,-5.469993,-1.591227,-1.12,25.48,-1.05,1729476256400.0,0.0
-2.002793,-8.169096,-5.508278,-83.580002,15.61,-3.57,1729476256417.0,0.0
-0.782453,-8.930015,-3.756732,-58.240002,5.39,5.74,1729476256512.0,0.0
-2.132005,-7.568498,-5.692525,-0.49,19.389999,0.98,1729476256512.0,0.0
-1.646262,-7.597212,-2.98385,-6.79,15.96,-15.05,1729476256519.0,0.0
-0.90688,-9.013763,-2.691926,-47.110001,-12.88,-8.33,1729476256519.0,0.0
-1.026521,-10.083356,-4.835894,-51.240002,-38.5,-9.31,1729476256538.0,0.0
-2.203789,-9.032906,-5.536992,-14.07,-51.450001,-22.889999,1729476256557.0,0.0
-3.148954,-8.173882,-4.027121,41.369999,-29.049999,-19.67,1729476256577.0,0.0
-3.806981,-7.984849,-3.455236,71.470001,-12.25,-7.56,1729476256598.0,0.0
-3.802195,-8.578269,-4.845466,58.170002,-3.71,5.53,1729476256617.0,0.0
-3.345166,-9.040084,-4.61097,-43.540001,9.1,7.49,1729476256638.0,0.0
-2.76371,-9.078369,-4.388437,-54.389999,12.95,9.8,1729476256657.0,0.0
-2.742175,-8.338986,-5.498707,-62.510002,19.6,10.5,1729476256677.0,0.0
-4.37408,-9.08794,2.569891,-72.660004,16.450001,6.86,1729476256698.0,0.0
-3.924229,-8.482556,-2.481357,-42.0,-8.4,9.87,1729476256721.0,0.0
-2.974278,-9.047262,-3.768696,1.26,-33.599998,18.969999,1729476256738.0,0.0
-4.273581,-10.083356,-2.404787,-13.09,-21.49,4.76,1729476256758.0,0.0
-5.422136,-9.267403,-2.227718,-38.990002,-17.710001,-6.51,1729476256777.0,0.0
-3.926622,-8.331808,-4.211368,-53.970001,-44.450001,-10.92,1729476256798.0,0.0
-3.110669,-8.903693,-5.359922,-80.010002,-57.119999,-18.200001,1729476256817.0,0.0
-3.59402,-8.77448,-6.9009,-64.050003,-32.970001,-17.710001,1729476256838.0,0.0
-3.658626,-8.173882,-8.367701,-59.150002,-32.34,-16.66,1729476256857.0,0.0
-3.139383,-7.652246,-9.779467,-41.09,-16.73,-11.41,1729476256878.0,0.0
-2.806781,-7.755138,-8.896514,-1.61,13.72,-0.42,1729476256897.0,0.0
-2.486143,-7.79103,-6.771688,43.400002,39.759998,9.73,1729476256917.0,0.0
-2.555535,-7.73121,-5.000999,60.689999,49.98,14.35,1729476256938.0,0.0
-2.845066,-7.826923,-3.07717,47.389999,51.450001,12.74,1729476256957.0,0.0
-2.227718,-6.929615,-1.306481,13.16,37.939999,6.93,1729476256977.0,0.0
-1.363909,-6.788438,-0.461815,-10.71,9.73,8.33,1729476256999.0,0.0
-1.639083,-8.815158,-0.5001,4.13,-14.0,11.76,1729476257017.0,0.0
-3.177669,-10.736595,-1.639083,21.91,-34.23,1.4,1729476257039.0,0.0
-4.831109,-9.408579,-3.192025,-5.67,-41.439999,-18.200001,1729476257057.0,0.0
-4.974678,-6.826723,-3.177669,-70.699997,-65.379997,-28.559999,1729476257077.0,0.0
-3.345166,-6.439085,-7.255038,-127.68,-96.459999,-29.540001,1729476257100.0,0.0
-4.101298,-7.393822,-12.019149,-137.270004,-69.860001,-23.030001,1729476257118.0,0.0
-5.996413,-9.777073,-11.641083,-45.5,3.29,-12.39,1729476257138.0,0.0
-4.091727,-7.144968,-7.520642,74.550003,49.139999,7.56,1729476257158.0,0.0
-1.758725,-5.386244,-5.941379,56.490002,42.91,10.57,1729476257177.0,0.0
-1.574477,-6.664011,-5.912664,22.120001,45.639999,10.36,1729476257198.0,0.0
-2.35693,-7.688138,-4.895715,11.2,59.360001,5.95,1729476257218.0,0.0
-1.775474,-7.970492,-4.252046,31.219999,47.25,8.33,1729476257238.0,0.0
-0.445065,-7.848458,-1.634298,38.150002,28.91,6.51,1729476257258.0,0.0
-1.045663,-8.29113,-0.555135,40.529999,18.690001,8.96,1729476257277.0,0.0
-3.728018,-9.166903,-0.710668,27.23,5.18,-0.98,1729476257298.0,0.0
-5.618347,-9.195618,-1.514657,-13.51,-13.02,-16.379999,1729476257319.0,0.0
-4.488935,-9.420543,-4.149154,-39.41,-58.869999,-28.07,1729476257338.0,0.0
-3.096312,-6.776474,-3.888337,-80.220001,-79.379997,-37.170002,1729476257357.0,0.0
-2.335395,-6.003592,-7.133004,-105.910004,-82.25,-29.889999,1729476257377.0,0.0
-3.866802,-6.692725,-9.667004,-115.43,-53.970001,-23.940001,1729476257397.0,0.0
-5.651847,-9.343972,-12.268002,-31.219999,-2.17,-2.66,1729476257419.0,0.0
-5.034499,-9.236296,-10.234102,35.279999,34.23,8.33,1729476257438.0,0.0
-2.813959,-6.951149,-6.649654,56.420002,51.52,13.86,1729476257458.0,0.0
-1.849652,-7.046863,-5.668597,65.660004,52.57,17.85,1729476257476.0,0.0
-2.524428,-7.298109,-4.12044,44.73,69.440002,13.65,1729476257497.0,0.0
-2.041078,-7.372287,-2.947958,34.509998,51.869999,16.52,1729476257517.0,0.0
-0.447458,-6.838687,-0.859023,16.309999,23.52,14.77,1729476257540.0,0.0
-1.615155,-9.099905,-0.37328,16.870001,6.72,15.75,1729476257558.0,0.0
-4.409972,-10.004392,-1.567299,14.77,-4.13,-2.59,1729476257577.0,0.0
-5.300103,-9.08794,-3.261417,-4.2,-31.08,-18.969999,1729476257604.0,0.0
-4.338188,-7.523034,-2.443072,-26.460001,-65.519997,-26.950001,1729476257619.0,0.0
-2.340181,-5.414958,-6.431907,-52.009998,-85.82,-22.68,1729476257639.0,0.0
-2.667997,-7.57089,-9.767502,-71.330002,-80.779999,-15.61,1729476257658.0,0.0
-4.704289,-9.920642,-12.172288,-77.629997,-25.059999,-11.76,1729476257679.0,0.0
-4.87418,-9.202796,-11.590833,-35.139999,19.040001,-8.89,1729476257699.0,0.0
-2.490928,-7.097112,-8.551948,41.23,28.559999,5.67,1729476257718.0,0.0
-1.103091,-6.01077,-6.204589,80.5,45.009998,15.05,1729476257738.0,0.0
-2.062613,-7.013363,-4.668397,69.160004,64.120003,16.1,1729476257758.0,0.0
-2.723032,-7.657032,-2.720639,41.02,62.860001,13.440001,1729476257780.0,0.0
-1.768296,-7.645068,-2.256432,18.690001,25.549999,13.72,1729476257799.0,0.0
-1.182054,-7.611568,-2.148755,3.64,8.33,13.37,1729476257820.0,0.0
-3.029313,-10.267602,-2.366502,24.15,-1.33,15.33,1729476257839.0,0.0
-5.12782,-10.214959,-2.778067,32.549999,-2.31,-3.57,1729476257859.0,0.0
-5.836094,-8.310273,-1.249053,15.47,-23.870001,-15.54,1729476257878.0,0.0
-3.979264,-5.443672,-3.182454,-29.469999,-62.860001,-16.73,1729476257899.0,0.0
-2.294717,-7.735995,-7.188039,-59.849998,-92.82,-11.2,1729476257920.0,0.0
-3.998406,-8.575876,-10.487741,-109.480003,-45.849998,-17.219999,1729476257940.0,0.0
-5.778666,-10.097712,-11.85165,-73.150002,-1.47,-11.69,1729476257959.0,0.0
-4.285545,-7.65464,-10.621738,-4.76,29.82,-5.6,1729476257978.0,0.0
-2.237289,-5.848059,-7.812566,75.949997,43.400002,12.74,1729476258000.0,0.0
-1.76351,-5.977271,-6.015556,79.309998,61.25,16.24,1729476258020.0,0.0
-2.926422,-7.453642,-4.173083,38.220001,71.75,12.11,1729476258040.0,0.0
-1.878366,-6.539584,-2.610569,17.5,54.389999,9.45,1729476258059.0,0.0
-0.351745,-6.774081,-1.48355,-16.52,17.290001,11.13,1729476258080.0,0.0
-1.689333,-9.913465,-1.172483,-11.13,5.6,15.89,1729476258102.0,0.0
-4.601398,-11.320443,-2.237289,19.809999,1.26,15.89,1729476258119.0,0.0
-6.111269,-9.863215,-1.09352,14.49,-18.549999,-20.51,1729476258142.0,0.0
-4.938786,-7.601997,-1.643869,-19.809999,-62.23,-34.790001,1729476258158.0,0.0
-2.622534,-4.204189,-5.326423,-77.910004,-87.709999,-30.309999,1729476258179.0,0.0
-2.017149,-7.668997,-9.181261,-92.75,-97.720001,-17.15,1729476258201.0,0.0
-4.280759,-9.028119,-11.282159,-104.510002,-24.92,-18.200001,1729476258219.0,0.0
-5.623133,-9.736395,-11.662617,-16.17,13.86,-2.24,1729476258240.0,0.0
-3.720839,-7.216753,-9.310472,44.939999,37.170002,7.91,1729476258260.0,0.0
-1.87358,-5.465207,-6.218946,66.150002,48.23,16.940001,1729476258279.0,0.0
-2.15354,-6.013163,-6.080163,47.389999,57.189999,17.219999,1729476258300.0,0.0
-2.641676,-7.652246,-3.756732,18.690001,63.349998,15.47,1729476258324.0,0.0
-1.878366,-6.91765,-3.78066,12.95,40.040001,13.16,1729476258341.0,0.0
-0.866202,-7.283752,-2.45025,-0.7,25.200001,12.81,1729476258358.0,0.0
-1.921437,-9.533006,-0.9667,-1.33,13.09,12.67,1729476258381.0,0.0
-5.419744,-11.12184,-2.309074,21.77,-1.75,-13.86,1729476258399.0,0.0
-5.788238,-8.331808,-1.995614,5.67,-37.939999,-31.99,1729476258419.0,0.0
-3.823731,-4.931608,-3.534199,-34.650002,-81.269997,-34.02,1729476258451.0,0.0
-1.567299,-5.556134,-7.771888,-72.519997,-107.590004,-24.15,1729476258459.0,0.0
-2.912065,-8.396415,-10.999805,-113.190002,-63.07,-18.9,1729476258479.0,0.0
-5.056034,-10.420743,-12.500106,-71.610001,-1.05,-9.8,1729476258500.0,0.0
-4.532006,-8.116454,-10.758131,-0.91,31.5,-0.14,1729476258520.0,0.0
-2.524428,-5.862415,-7.546963,67.340004,40.599998,15.61,1729476258543.0,0.0
-1.753939,-5.47717,-6.4678,67.129997,50.189999,18.48,1729476258559.0,0.0
-2.562713,-7.190433,-5.276174,32.970001,61.880001,16.309999,1729476258580.0,0.0
-2.309074,-7.977671,-3.515057,22.469999,52.360001,13.3,1729476258599.0,0.0
-1.351945,-7.408179,-3.658626,10.99,32.48,9.94,1729476258621.0,0.0
-1.057628,-8.420342,-1.392623,-0.84,18.129999,9.31,1729476258642.0,0.0
-3.510271,-10.681561,-1.383051,16.030001,9.1,1.4,1729476258659.0,0.0
-5.946165,-10.896914,-0.863809,32.060001,-5.18,-18.549999,1729476258679.0,0.0
-5.453243,-7.817351,-1.5003,12.32,-40.670002,-34.299999,1729476258700.0,0.0
-1.529014,-4.299902,-6.053841,-52.709999,-89.040001,-34.299999,1729476258720.0,0.0
-2.033899,-7.695317,-9.698111,-111.230003,-87.360001,-27.09,1729476258740.0,0.0
-4.37408,-9.549755,-13.706088,-86.239998,-24.08,-20.440001,1729476258759.0,0.0
-5.075177,-8.274381,-12.181859,-26.6,20.860001,-11.41,1729476258778.0,0.0
-3.103491,-5.958128,-8.690732,51.939999,38.360001,7.28,1729476258800.0,0.0
-1.445265,-5.242674,-6.721439,85.120003,41.720001,21.0,1729476258820.0,0.0
