acc_x,acc_y,acc_z,gyr_x,gyr_y,gyr_z,timestamp,label
0.303888,-6.041877,5.209175,-4.34,44.310001,51.869999,1729477836091.0,0.0
-2.928815,-11.49512,8.489735,76.370003,48.580002,73.639999,1729477836095.0,0.0
-3.859623,-16.859827,10.607382,104.510002,23.940001,27.23,1729477836095.0,0.0
-4.206582,-6.218946,0.392423,-9.45,50.470001,5.39,1729477836099.0,0.0
-10.08814,-7.513463,1.136591,42.420002,56.420002,40.18,1729477836121.0,0.0
-11.708081,-11.889936,5.213961,-13.3,21.139999,-21.0,1729477836140.0,0.0
-5.517848,-11.641083,6.388836,-122.919998,17.780001,-61.810001,1729477836160.0,0.0
-1.229911,-11.339586,6.025128,-179.130005,3.92,-71.68,1729477836185.0,0.0
0.971486,-10.995021,5.123034,-182.559998,6.02,-87.5,1729477836200.0,0.0
0.260818,-9.367901,3.646662,-172.270004,15.12,-81.760002,1729477836220.0,0.0
0.129212,-8.271988,2.892922,-181.369995,17.290001,-69.090004,1729477836241.0,0.0
0.660419,-7.846066,1.579263,-184.589996,21.0,-66.43,1729477836260.0,0.0
0.87338,-7.271788,0.600598,-173.669998,33.459999,-57.049999,1729477836281.0,0.0
0.918844,-7.185646,-0.227318,-159.949997,48.299999,-42.630001,1729477836301.0,0.0
0.765703,-7.922636,-0.89013,-162.889999,58.029999,-29.120001,1729477836320.0,0.0
0.232104,-8.793623,-1.512264,-185.919998,61.459999,-16.59,1729477836340.0,0.0
-0.208176,-9.769895,-2.495714,-199.220001,63.349998,-7.56,1729477836361.0,0.0
-0.51685,-10.540384,-3.381058,-185.080002,63.91,2.8,1729477836381.0,0.0
-0.744168,-10.535598,-3.909872,-154.979996,63.91,3.36,1729477836401.0,0.0
-1.148555,-9.659825,-4.101298,-132.229996,67.620003,1.89,1729477836420.0,0.0
-1.363909,-9.073583,-4.003192,-113.330002,68.389999,5.95,1729477836440.0,0.0
-1.555335,-9.085547,-3.962514,-102.760002,62.09,9.59,1729477836460.0,0.0
-1.878366,-8.693125,-4.546363,-98.980003,52.990002,10.15,1729477836482.0,0.0
-2.428715,-8.037491,-4.63729,-90.090004,48.02,14.14,1729477836500.0,0.0
-2.945565,-8.547162,-4.558327,-69.650002,42.630001,21.0,1729477836520.0,0.0
-3.608376,-8.422735,-4.850252,-49.77,28.07,22.190001,1729477836540.0,0.0
-4.072584,-8.018349,-5.168497,-31.08,23.870001,22.469999,1729477836560.0,0.0
-4.402793,-8.169096,-4.802395,-12.95,19.25,22.540001,1729477836582.0,0.0
-4.476971,-8.429914,-4.563113,-4.83,14.21,16.940001,1729477836600.0,0.0
-4.309474,-7.977671,-4.603791,1.4,12.6,10.22,1729477836621.0,0.0
-4.165904,-8.049455,-4.622933,7.35,13.51,9.52,1729477836641.0,0.0
-3.661019,-8.193025,-4.508078,7.7,11.76,7.07,1729477836668.0,0.0
-3.795017,-8.4012,-4.364508,5.67,18.620001,3.85,1729477836681.0,0.0
-3.538985,-8.688338,-4.323831,8.75,17.15,4.2,1729477836701.0,0.0
-2.924029,-8.276773,-4.079762,18.27,9.45,4.2,1729477836721.0,0.0
-2.955136,-7.922636,-3.804588,18.34,13.23,2.87,1729477836740.0,0.0
-2.931208,-8.051848,-3.9673,9.24,9.94,2.17,1729477836761.0,0.0
-2.816352,-8.465806,-3.9673,5.46,7.0,4.2,1729477836782.0,0.0
-2.56032,-8.317451,-3.981657,4.41,1.33,3.29,1729477836800.0,0.0
-2.813959,-8.322237,-4.608576,0.91,1.12,0.14,1729477836821.0,0.0
-2.761317,-8.181061,-4.644469,4.06,0.14,0.63,1729477836841.0,0.0
-2.529213,-8.630912,-4.460221,-2.45,0.84,-0.7,1729477836861.0,0.0
-2.254039,-8.583055,-4.797609,-2.31,-3.92,-4.2,1729477836881.0,0.0
-2.115255,-8.46102,-4.733003,-0.84,-2.94,-2.45,1729477836900.0,0.0
-2.502892,-8.571091,-4.713861,-8.89,4.13,-4.62,1729477836920.0,0.0
-2.572284,-8.453842,-5.106283,-11.97,3.29,-5.25,1729477836941.0,0.0
-2.354537,-8.626125,-5.300103,-12.46,2.31,-5.11,1729477836960.0,0.0
-2.225325,-8.719445,-5.35753,-10.85,3.99,-4.83,1729477836984.0,0.0
-2.182254,-8.585447,-5.091926,-6.72,6.86,-5.81,1729477837000.0,0.0
-2.009971,-8.322237,-5.134997,-1.89,6.09,-5.53,1729477837021.0,0.0
-1.679761,-8.30788,-5.211568,-0.14,3.92,-2.73,1729477837040.0,0.0
-1.940579,-8.568698,-4.902894,3.57,10.08,-0.56,1729477837060.0,0.0
-2.196611,-8.506484,-4.520042,15.47,13.93,0.28,1729477837081.0,0.0
-2.18704,-8.145168,-4.218546,21.98,9.17,1.26,1729477837101.0,0.0
-2.299503,-8.243275,-4.218546,10.57,6.65,2.1,1729477837120.0,0.0
-2.56032,-8.719445,-4.515256,-7.0,8.54,0.84,1729477837141.0,0.0
-2.143969,-8.946764,-4.84068,-15.61,2.24,-0.91,1729477837160.0,0.0
-1.682154,-8.989835,-5.149354,-14.14,-0.63,-3.01,1729477837185.0,0.0
-1.617548,-9.159724,-5.084748,-8.96,5.39,-4.34,1729477837200.0,0.0
-1.304088,-9.025726,-5.134997,-1.12,2.59,-5.46,1729477837219.0,0.0
-1.325624,-8.920443,-5.225924,-1.05,3.99,-6.37,1729477837240.0,0.0
-1.737189,-8.79123,-5.223531,-1.4,8.54,-7.49,1729477837261.0,0.0
-1.696511,-8.9348,-5.548956,3.64,7.0,-7.84,1729477837282.0,0.0
-1.533799,-8.556733,-4.943572,21.559999,7.84,-5.74,1729477837300.0,0.0
-1.679761,-8.370094,-4.656433,32.41,10.5,-4.76,1729477837321.0,0.0
-2.009971,-8.159525,-4.453043,22.75,12.74,-5.88,1729477837340.0,0.0
-2.074577,-8.226524,-4.534399,9.59,10.08,-5.46,1729477837362.0,0.0
-1.741975,-8.38445,-4.551149,-1.54,3.92,-4.9,1729477837386.0,0.0
-1.490728,-8.353344,-4.663611,-4.76,1.75,-3.99,1729477837401.0,0.0
-1.756332,-8.353344,-4.603791,-8.54,5.81,-3.57,1729477837421.0,0.0
-1.715654,-8.463413,-4.790431,-13.3,3.92,-3.29,1729477837440.0,0.0
-1.447658,-8.695518,-4.919643,-17.780001,-0.07,-2.38,1729477837461.0,0.0
-1.770689,-8.987441,-5.012963,-21.139999,2.87,-3.64,1729477837483.0,0.0
-1.758725,-9.243474,-5.395815,-23.450001,6.79,-7.49,1729477837501.0,0.0
-1.270589,-9.126225,-5.436492,-17.43,1.05,-9.8,1729477837520.0,0.0
-1.519442,-8.946764,-5.508278,-8.12,9.45,-12.04,1729477837540.0,0.0
-1.658226,-8.707481,-5.254639,-11.13,15.89,-16.24,1729477837561.0,0.0
-1.136591,-8.685946,-5.288138,-13.79,8.89,-16.73,1729477837582.0,0.0
-0.636491,-8.925228,-5.216353,-12.11,7.91,-16.309999,1729477837600.0,0.0
-0.842274,-8.477771,-5.379066,-8.12,12.18,-17.639999,1729477837626.0,0.0
-0.9667,-8.02792,-5.12782,-6.37,13.440001,-17.01,1729477837640.0,0.0
-0.916451,-8.147561,-5.065606,-3.64,9.45,-15.05,1729477837661.0,0.0
-1.019342,-8.054241,-5.06082,-4.2,6.23,-14.49,1729477837682.0,0.0
-1.201197,-8.068598,-4.905287,-10.01,5.81,-14.63,1729477837701.0,0.0
-1.287339,-8.310273,-4.98425,-11.9,3.85,-14.84,1729477837720.0,0.0
-1.275374,-8.097312,-5.008178,-8.54,-0.7,-15.47,1729477837740.0,0.0
-1.545763,-7.877172,-4.768896,-12.46,-0.77,-16.17,1729477837762.0,0.0
-1.990828,-7.951349,-4.768896,-21.210001,-1.47,-17.85,1729477837782.0,0.0
-2.510071,-7.977671,-5.089533,-27.860001,-5.32,-21.91,1729477837800.0,0.0
-2.519642,-7.846066,-4.859823,-32.619999,-8.54,-26.32,1729477837820.0,0.0
-1.751546,-8.066205,-4.9675,-36.610001,-19.74,-29.4,1729477837840.0,0.0
-2.108077,-7.862815,-4.881358,-29.960001,-17.57,-32.200001,1729477837861.0,0.0
-2.299503,-7.523034,-4.924429,-21.98,-20.58,-33.599998,1729477837883.0,0.0
-2.28036,-7.341179,-5.039285,-19.950001,-27.860001,-33.810001,1729477837900.0,0.0
-2.514857,-7.300502,-5.32403,-19.6,-27.16,-34.02,1729477837921.0,0.0
-2.340181,-6.936793,-5.541777,-22.75,-32.060001,-34.720001,1729477837941.0,0.0
-1.899901,-6.719046,-5.891129,-32.130001,-40.670002,-32.759998,1729477837961.0,0.0
-2.033899,-6.924829,-6.204589,-44.170002,-36.68,-31.15,1729477837983.0,0.0
-2.24686,-7.094719,-6.848258,-52.290001,-34.23,-31.85,1729477838000.0,0.0
-1.61037,-6.805188,-7.410572,-53.830002,-38.5,-31.360001,1729477838021.0,0.0
-0.528814,-6.489335,-7.281359,-51.66,-44.099998,-27.299999,1729477838040.0,0.0
-0.519243,-6.482157,-7.721639,-46.130001,-37.799999,-20.51,1729477838060.0,0.0
-0.784846,-6.606583,-7.91785,-39.34,-30.380001,-16.17,1729477838081.0,0.0
-0.650848,-6.209375,-7.539784,-34.299999,-31.639999,-13.65,1729477838100.0,0.0
-0.090927,-5.893522,-7.54457,-37.869999,-37.380001,-10.08,1729477838121.0,0.0
0.258425,-6.400801,-8.142776,-41.93,-43.330002,-5.32,1729477838141.0,0.0
-0.241675,-6.788438,-8.173882,-46.34,-40.459999,-4.62,1729477838161.0,0.0
-0.665205,-6.903293,-7.750352,-44.869999,-31.99,-5.04,1729477838185.0,0.0
-0.29671,-7.018148,-8.348558,-36.330002,-39.900002,-6.09,1729477838200.0,0.0
0.090927,-6.563512,-8.394022,-30.73,-42.84,-7.91,1729477838221.0,0.0
-0.775275,-7.956135,-7.353144,-37.66,-36.82,-10.15,1729477838241.0,0.0
-0.751346,-7.467999,-4.572684,-15.61,-40.529999,-16.52,1729477838261.0,0.0
-0.358923,-6.295516,-4.113262,20.09,-70.629997,-12.18,1729477838284.0,0.0
-1.385444,-4.888536,-3.393023,-15.33,-78.470001,-15.4,1729477838300.0,0.0
-3.806981,-4.110869,-3.062813,-97.790001,-87.150002,-16.870001,1729477838320.0,0.0
-3.866802,-4.168297,-7.245467,-173.389999,-121.800003,-21.35,1729477838340.0,0.0
-2.675175,-3.524628,-10.205389,-220.009995,-130.550003,-27.719999,1729477838361.0,0.0
-3.175276,-4.469792,-12.653246,-199.430008,-119.629997,-21.0,1729477838381.0,0.0
-4.158726,-4.615755,-14.727824,-146.789993,-92.330002,-5.6,1729477838401.0,0.0
-5.185246,-6.640083,-13.155738,-46.34,-59.849998,21.49,1729477838419.0,0.0
-3.041277,-6.125626,-12.016755,28.210001,-36.049999,35.349998,1729477838441.0,0.0
-1.261017,-6.652047,-11.832507,90.440002,-24.43,46.27,1729477838460.0,0.0
-1.636691,-6.963113,-10.090532,132.300003,-3.64,29.889999,1729477838481.0,0.0
-1.89033,-6.352944,-7.597212,110.879997,4.34,0.07,1729477838500.0,0.0
-0.679562,-7.264609,-7.51107,54.459999,-13.23,-47.880001,1729477838521.0,0.0
-0.059821,-4.532006,-6.429514,14.42,-26.6,-71.330002,1729477838541.0,0.0
-0.655633,-3.172883,-5.551349,-8.4,-36.119999,-73.779999,1729477838560.0,0.0
-2.40718,-2.067399,-6.675975,-59.920002,-45.990002,-78.120003,1729477838582.0,0.0
-3.658626,1.287339,-6.443871,-126.0,-41.860001,-68.040001,1729477838600.0,0.0
-2.498107,-1.418944,-8.075776,-155.680008,-62.02,-39.689999,1729477838620.0,0.0
-2.756532,-3.177669,-10.834702,-143.639999,-50.82,-14.7,1729477838640.0,0.0
-5.596812,-3.318845,-12.387643,-67.620003,-21.91,19.389999,1729477838660.0,0.0
-6.855437,-4.084548,-11.784652,-0.77,0.84,51.59,1729477838683.0,0.0
-6.611369,-4.101298,-9.659825,32.41,21.280001,71.889999,1729477838708.0,0.0
-4.096512,-7.228717,-9.899107,36.82,25.549999,71.610001,1729477838719.0,0.0
-1.584049,-7.613962,-9.97807,84.279999,17.360001,56.07,1729477838741.0,0.0
-1.435694,-6.742974,-8.563912,82.879997,26.18,23.309999,1729477838760.0,0.0
-1.603191,-7.848458,-6.223732,42.560001,23.17,-15.33,1729477838781.0,0.0
-1.179662,-6.879365,-5.924629,20.51,0.98,-52.009998,1729477838800.0,0.0
-1.488336,-4.027121,-5.008178,2.94,-16.379999,-74.900002,1729477838821.0,0.0
-4.228118,-0.531207,-7.743174,-22.889999,-31.08,-77.910004,1729477838840.0,0.0
-4.378866,0.667598,-7.800602,-157.360001,-37.240002,-69.019997,1729477838862.0,0.0
-2.589034,-2.237289,-7.688138,-204.050003,-45.220001,-45.639999,1729477838882.0,0.0
-3.814159,-3.445665,-11.083554,-114.239998,-30.940001,-13.02,1729477838900.0,0.0
-6.616155,-1.586441,-13.476377,11.83,-13.72,34.09,1729477838920.0,0.0
-9.65504,-3.311667,-8.764909,17.01,24.290001,76.230003,1729477838940.0,0.0
-5.9677,-7.178468,-8.920443,22.889999,33.040001,82.529999,1729477838961.0,0.0
-3.036492,-6.017949,-10.346564,82.529999,22.889999,77.840004,1729477838983.0,0.0
-2.610569,-6.936793,-10.090532,133.630005,35.279999,62.02,1729477839000.0,0.0
-2.218147,-6.52762,-7.384251,127.68,40.25,33.389999,1729477839020.0,0.0
-1.782653,-7.618747,-4.960321,67.900002,28.42,-10.15,1729477839040.0,0.0
-1.311267,-6.029913,-2.876173,11.69,3.5,-53.900002,1729477839062.0,0.0
-1.505085,-3.74716,-4.902894,-11.69,-30.940001,-79.590004,1729477839082.0,0.0
-3.215954,-0.129212,-7.046863,-49.07,-45.709999,-86.309998,1729477839100.0,0.0
-4.431508,2.368894,-8.788837,-128.660004,-42.630001,-73.779999,1729477839120.0,0.0
-3.002992,-0.023928,-10.403993,-153.580002,-49.700001,-34.23,1729477839141.0,0.0
-3.940979,-2.273181,-11.430513,-127.260002,-30.799999,11.27,1729477839161.0,0.0
-8.51127,-1.840081,-9.461221,-46.200001,-3.43,53.619999,1729477839184.0,0.0
-7.678568,-4.701896,-10.076177,3.85,21.98,81.620003,1729477839199.0,0.0
-4.208975,-6.037091,-10.243673,1.89,11.76,81.129997,1729477839219.0,0.0
-2.158326,-5.608776,-9.678967,48.790001,8.89,69.019997,1729477839240.0,0.0
-2.54357,-6.082555,-10.305886,81.900002,23.17,53.130001,1729477839260.0,0.0
-2.510071,-6.829116,-7.56132,72.099998,27.440001,24.15,1729477839281.0,0.0
-2.428715,-8.422735,-4.938786,51.869999,17.5,-19.389999,1729477839299.0,0.0
-1.919044,-4.898108,-4.108476,33.810001,-7.49,-63.420002,1729477839320.0,0.0
-2.758924,-0.897308,-6.297909,-4.9,-29.960001,-80.919998,1729477839339.0,0.0
-4.295116,-0.191426,-8.147561,-84.0,-36.889999,-81.900002,1729477839360.0,0.0
-4.424329,0.401994,-9.798609,-141.610001,-32.549999,-72.379997,1729477839382.0,0.0
-3.151347,-0.942772,-9.221939,-123.550003,-33.32,-46.970001,1729477839399.0,0.0
-4.292724,0.035892,-10.310673,-79.519997,-20.790001,-17.780001,1729477839423.0,0.0
-5.532206,0.098106,-10.439885,-0.21,-15.61,31.5,1729477839440.0,0.0
-8.176274,-1.710868,-9.126225,31.08,3.22,71.190002,1729477839460.0,0.0
-7.386643,-7.243074,-9.475577,40.32,20.09,79.870003,1729477839481.0,0.0
-4.95075,-6.357729,-9.576077,63.84,24.780001,73.150002,1729477839499.0,0.0
-3.007778,-6.388836,-10.021141,123.970001,24.43,44.66,1729477839519.0,0.0
-2.713461,-7.271788,-8.889337,116.970001,33.880001,12.53,1729477839540.0,0.0
-2.510071,-4.503292,-4.883751,67.690002,28.35,-25.969999,1729477839561.0,0.0
-1.940579,-6.022735,-4.541577,23.870001,3.43,-61.459999,1729477839581.0,0.0
-1.552942,-2.517249,-5.17089,-4.06,-20.860001,-85.400002,1729477839600.0,0.0
-3.019742,0.624527,-6.936793,-47.32,-33.110001,-91.07,1729477839619.0,0.0
-4.409972,3.089134,-9.06162,-120.260002,-33.110001,-74.620003,1729477839640.0,0.0
-3.517449,-1.380659,-8.130811,-151.130005,-31.99,-39.759998,1729477839660.0,0.0
-3.316452,-1.354338,-10.29153,-94.639999,-30.59,-5.04,1729477839681.0,0.0
-5.592027,-0.358923,-12.370893,-1.75,-15.82,35.209999,1729477839699.0,0.0
-7.422535,-1.045663,-10.667203,21.0,3.15,67.760002,1729477839719.0,0.0
-7.405786,-6.01077,-12.208181,20.440001,19.809999,77.07,1729477839739.0,0.0
-4.814359,-6.04427,-9.257831,54.810001,15.61,75.879997,1729477839760.0,0.0
-3.180061,-7.312466,-9.927821,90.440002,21.42,53.130001,1729477839781.0,0.0
-2.383251,-7.939385,-9.437292,121.239998,24.780001,26.6,1729477839799.0,0.0
-3.014957,-5.831308,-7.02772,81.269997,32.759998,-9.45,1729477839821.0,0.0
-2.438286,-7.130611,-5.369494,31.15,14.7,-49.420002,1729477839839.0,0.0
-2.100898,-2.22054,-4.74736,-22.75,-19.460001,-80.57,1729477839859.0,0.0
-3.058028,-0.495314,-6.833901,-75.18,-30.24,-84.209999,1729477839881.0,0.0
-2.720639,2.596212,-8.846266,-100.029999,-38.360001,-62.860001,1729477839899.0,0.0
-2.402394,-0.157926,-7.767102,-128.309998,-35.91,-21.629999,1729477839920.0,0.0
-3.244668,-2.443072,-10.205389,-86.519997,-34.23,13.16,1729477839941.0,0.0
-5.379066,-1.201197,-13.253844,-16.52,-29.68,40.950001,1729477839959.0,0.0
-8.870193,-1.184447,-9.932607,8.96,-8.96,64.330002,1729477839992.0,0.0
-8.740981,-4.759324,-10.506885,6.51,9.31,67.340004,1729477839999.0,0.0
-4.998606,-6.975078,-9.147761,59.290001,8.05,79.660004,1729477840020.0,0.0
-4.06062,-5.898308,-8.77448,101.220001,19.110001,66.639999,1729477840039.0,0.0
-3.986443,-6.379266,-10.059426,131.320007,28.559999,49.490002,1729477840059.0,0.0
-3.37388,-6.85783,-8.188239,113.75,33.810001,21.91,1729477840082.0,0.0
-3.036492,-5.024928,-5.486742,65.519997,24.43,-11.69,1729477840099.0,0.0
-2.024328,-6.183054,-6.142376,18.34,1.12,-52.990002,1729477840119.0,0.0
-2.328217,-0.911665,-5.273781,-11.34,-13.3,-74.620003,1729477840140.0,0.0
-4.07737,0.811167,-7.128219,-80.220001,-19.950001,-73.150002,1729477840160.0,0.0
-3.211168,-0.0335,-8.420342,-116.199997,-27.65,-60.549999,1729477840187.0,0.0
-3.452843,-0.868595,-10.092925,-91.840004,-25.9,-17.99,1729477840201.0,0.0
-5.070391,-1.208375,-13.375877,-42.84,-11.13,19.950001,1729477840219.0,0.0
-7.173682,-1.808974,-8.889337,16.870001,7.14,59.849998,1729477840239.0,0.0
-8.520842,-4.76411,-8.650054,34.790001,23.17,79.660004,1729477840260.0,0.0
-5.120641,-7.76471,-8.248059,68.040001,14.49,77.489998,1729477840281.0,0.0
-3.936193,-6.733403,-9.473185,100.309998,17.360001,60.549999,1729477840299.0,0.0
-3.78066,-7.066005,-9.638289,95.970001,28.559999,30.940001,1729477840320.0,0.0
-3.342773,-6.302694,-5.496314,67.620003,25.83,-3.57,1729477840339.0,0.0
-2.608176,-7.826923,-6.051448,28.139999,7.56,-40.18,1729477840360.0,0.0
-1.976472,-4.366901,-5.046463,-2.24,-11.55,-76.300003,1729477840381.0,0.0
-3.220739,-0.55992,-5.754738,-57.68,-22.540001,-88.760002,1729477840400.0,0.0
-3.227918,0.021535,-8.733803,-110.32,-34.509998,-87.709999,1729477840418.0,0.0
-2.98385,2.414358,-9.083155,-98.559998,-35.07,-49.77,1729477840440.0,0.0
-4.019942,-1.289732,-9.075976,-79.449997,-26.110001,-2.38,1729477840460.0,0.0
-4.565506,-1.998007,-11.815758,-45.639999,-21.139999,26.6,1729477840482.0,0.0
-6.503692,-1.435694,-8.403593,12.67,-6.09,53.970001,1729477840500.0,0.0
-7.379465,-6.549156,-9.994821,28.42,9.1,69.580002,1729477840519.0,0.0
-4.826324,-6.65444,-9.162118,60.900002,4.27,72.239998,1729477840540.0,0.0
-4.364508,-7.640282,-9.320045,97.650002,20.02,52.150002,1729477840559.0,0.0
-3.469593,-7.030113,-9.736395,96.389999,26.460001,25.41,1729477840583.0,0.0
-2.660819,-7.68096,-7.700103,69.300003,25.83,-10.5,1729477840600.0,0.0
-2.426322,-5.838487,-5.008178,37.380001,14.63,-46.130001,1729477840619.0,0.0
-2.26361,-3.998406,-5.821737,-0.7,-10.15,-78.889999,1729477840639.0,0.0
-2.9336,-1.526621,-5.843273,-52.920002,-19.040001,-89.110001,1729477840661.0,0.0
-3.235096,-0.514457,-6.159126,-103.739998,-29.120001,-88.480003,1729477840680.0,0.0
-2.935993,-0.222532,-8.760124,-130.899994,-38.57,-79.730003,1729477840699.0,0.0
-2.505285,0.191426,-9.245867,-127.400002,-38.009998,-59.709999,1729477840718.0,0.0
-5.132604,0.253639,-11.894722,-69.300003,-24.01,-7.77,1729477840746.0,0.0
-7.381857,-0.937986,-8.855836,0.91,-4.13,51.939999,1729477840760.0,0.0
-8.444271,-4.201797,-10.999805,25.690001,14.28,79.309998,1729477840782.0,0.0
-5.82413,-5.520242,-9.600004,63.77,23.17,93.029999,1729477840799.0,0.0
-5.414958,-5.876772,-8.566305,102.059998,32.48,85.75,1729477840819.0,0.0
-4.220939,-6.608976,-9.60479,132.789993,32.48,71.050003,1729477840840.0,0.0
-3.797409,-8.26481,-8.221739,102.059998,47.459999,23.309999,1729477840859.0,0.0
-2.952743,-5.508278,-4.034299,58.029999,30.59,-22.26,1729477840883.0,0.0
-2.120041,-5.898308,-5.278566,15.68,-0.35,-65.449997,1729477840898.0,0.0
-2.48375,-1.385444,-5.709275,-38.080002,-13.58,-91.419998,1729477840919.0,0.0
-2.976671,1.081556,-6.233303,-106.889999,-24.99,-93.239998,1729477840940.0,0.0
-2.505285,0.629312,-7.929814,-122.57,-39.549999,-66.779999,1729477840959.0,0.0
-3.744767,0.442672,-8.173882,-101.779999,-36.82,-33.810001,1729477840983.0,0.0
-6.053841,0.105284,-12.535997,-19.460001,-27.09,15.190001,1729477840998.0,0.0
-7.401,-0.79681,-10.523634,6.51,-6.23,54.040001,1729477841018.0,0.0
-8.559127,-3.617948,-8.382057,18.27,7.84,81.340004,1729477841089.0,0.0
-6.178268,-5.67099,-10.432706,14.7,14.7,80.43,1729477841091.0,0.0
-3.699304,-8.41795,-9.001799,72.099998,12.88,81.760002,1729477841092.0,0.0
-3.790231,-7.042077,-8.920443,114.520004,25.129999,60.900002,1729477841114.0,0.0
-3.345166,-7.810174,-8.049455,95.970001,28.700001,26.67,1729477841122.0,0.0
-2.723032,-6.549156,-6.092126,50.330002,19.6,-15.12,1729477841139.0,0.0
-1.820938,-7.89153,-6.553941,20.65,2.59,-55.580002,1729477841160.0,0.0
-2.476572,0.167498,-3.931407,-2.31,-10.29,-83.93,1729477841183.0,0.0
-3.031706,-0.31346,-7.312466,-120.260002,-30.309999,-90.160004,1729477841200.0,0.0
-2.569891,0.09332,-8.855836,-124.599998,-45.009998,-68.389999,1729477841219.0,0.0
-4.524827,0.157926,-8.207381,-114.730003,-29.610001,-30.799999,1729477841240.0,0.0
-5.630312,-1.048056,-10.913664,-23.52,-30.030001,18.83,1729477841260.0,0.0
-7.456036,-0.57667,-10.231709,14.07,-6.65,59.290001,1729477841281.0,0.0
-9.178867,-4.122833,-10.339387,25.9,16.24,84.0,1729477841298.0,0.0
-6.262017,-8.133204,-7.989635,66.989998,22.120001,88.550003,1729477841319.0,0.0
-4.228118,-7.862815,-7.829315,85.190002,23.450001,70.419998,1729477841339.0,0.0
-3.019742,-7.180861,-8.946764,107.590004,17.43,50.68,1729477841358.0,0.0
-3.481557,-7.144968,-9.375079,99.610001,28.07,32.900002,1729477841380.0,0.0
-3.694518,-8.496914,-6.869793,84.209999,30.030001,6.65,1729477841400.0,0.0
-3.582055,-6.132804,-4.63729,61.810001,15.89,-28.630001,1729477841419.0,0.0
-2.524428,-6.13759,-5.47717,27.09,-9.94,-67.480003,1729477841439.0,0.0
-2.885744,-1.663012,-4.333402,-14.21,-25.059999,-86.029999,1729477841463.0,0.0
-3.797409,2.084148,-6.563512,-82.18,-34.439999,-82.32,1729477841481.0,0.0
-3.259024,1.718047,-10.057034,-102.690002,-40.740002,-44.450001,1729477841499.0,0.0
-3.814159,-1.641476,-10.339387,-79.099998,-30.17,5.18,1729477841519.0,0.0
-5.721239,-1.993221,-12.433105,-7.77,-7.63,58.59,1729477841541.0,0.0
-8.240881,-2.194218,-8.487342,10.22,13.37,82.879997,1729477841559.0,0.0
-8.30788,-4.941179,-10.097712,17.92,25.41,92.050003,1729477841580.0,0.0
-5.410172,-8.12124,-8.513663,76.860001,16.73,91.07,1729477841599.0,0.0
-4.878965,-7.341179,-7.539784,100.029999,28.700001,73.220001,1729477841618.0,0.0
-4.141976,-9.178867,-7.970492,73.5,29.33,37.380001,1729477841639.0,0.0
-2.991028,-9.375079,-7.075576,59.220001,18.83,-7.49,1729477841660.0,0.0
-2.87378,-6.003592,-4.39083,48.369999,7.49,-53.060001,1729477841681.0,0.0
-2.787638,-5.386244,-5.577669,7.84,-12.04,-87.919998,1729477841698.0,0.0
-2.54357,-3.591627,-5.630312,-62.790001,-28.07,-110.389999,1729477841722.0,0.0
-2.849852,-2.304288,-5.800202,-127.889999,-43.119999,-126.279999,1729477841739.0,0.0
-3.515057,1.581656,-9.521042,-166.949997,-47.110001,-123.199997,1729477841864.0,0.0
-3.493521,0.868595,-10.822738,-158.690002,-38.920002,-88.410004,1729477841865.0,0.0
-4.07737,0.057428,-10.449455,-88.129997,-26.18,-40.040001,1729477841865.0,0.0
-6.278766,1.543371,-10.152746,5.6,-10.99,25.129999,1729477841865.0,0.0
-7.243074,-2.62732,-10.267602,13.37,13.86,64.889999,1729477841866.0,0.0
-6.977471,-5.161318,-9.166903,39.41,23.309999,85.68,1729477841866.0,0.0
-5.063213,-7.927422,-7.391429,74.900002,26.460001,81.059998,1729477841880.0,0.0
-4.192225,-7.410572,-9.013763,92.959999,28.77,57.889999,1729477841899.0,0.0
-3.457629,-7.269395,-9.276974,89.040001,32.130001,31.99,1729477841917.0,0.0
-2.651247,-8.463413,-6.415157,53.619999,32.27,-0.77,1729477841938.0,0.0
-2.218147,-7.537392,-4.089334,35.07,17.219999,-35.07,1729477841958.0,0.0
-2.196611,-5.60399,-5.003392,27.16,-8.47,-69.300003,1729477841980.0,0.0
-3.086741,-2.522035,-5.486742,-19.74,-22.960001,-90.230003,1729477842007.0,0.0
-3.464807,-0.198604,-6.668797,-76.93,-34.580002,-96.110001,1729477842018.0,0.0
-2.895315,0.246461,-8.405986,-115.989998,-49.349998,-85.75,1729477842037.0,0.0
-2.493321,0.303888,-11.289338,-133.559998,-48.650002,-57.330002,1729477842059.0,0.0
-4.309474,-1.244268,-12.614961,-106.959999,-23.66,-12.46,1729477842079.0,0.0
-6.759724,-1.481157,-9.329616,-12.46,-0.42,40.32,1729477842097.0,0.0
-9.312866,-2.632105,-9.245867,38.220001,15.26,77.629997,1729477842118.0,0.0
-7.135397,-6.020342,-9.078369,42.490002,23.66,93.169998,1729477842138.0,0.0
-5.24746,-6.970293,-9.265009,74.760002,25.690001,82.040001,1729477842158.0,0.0
-4.424329,-6.726225,-8.059027,109.059998,30.450001,64.050003,1729477842193.0,0.0
-2.976671,-8.54477,-8.269595,94.779999,35.77,17.5,1729477842199.0,0.0
-2.079363,-7.06122,-4.505685,74.410004,27.02,-16.940001,1729477842219.0,0.0
-1.892723,-7.142576,-4.4339,69.580002,10.43,-47.110001,1729477842240.0,0.0
-1.940579,-4.201797,-5.012963,35.139999,-8.96,-73.57,1729477842260.0,0.0
-2.392823,-1.581656,-5.60399,-38.150002,-26.18,-85.889999,1729477842280.0,0.0
-2.404787,0.679562,-7.719246,-109.480003,-38.220001,-85.330002,1729477842298.0,0.0
-2.608176,0.457029,-8.949157,-120.75,-38.639999,-58.52,1729477842319.0,0.0
-3.175276,-0.935594,-10.224532,-99.120003,-34.509998,-23.940001,1729477842339.0,0.0
-5.441278,-1.667797,-12.41875,-70.0,-15.4,14.49,1729477842361.0,0.0
-7.087541,-1.962115,-10.942378,-42.77,12.6,45.779999,1729477842380.0,0.0
-7.867601,-5.046463,-9.573684,29.33,22.540001,77.840004,1729477842398.0,0.0
-5.924629,-6.63769,-9.032906,68.389999,24.639999,79.730003,1729477842420.0,0.0
-5.166104,-5.367101,-8.614161,101.290001,26.32,69.440002,1729477842438.0,0.0
-4.445865,-5.754738,-8.827123,85.470001,37.59,51.66,1729477842460.0,0.0
-2.644069,-8.927622,-8.719445,69.510002,33.529999,26.74,1729477842480.0,0.0
-1.79701,-9.001799,-3.177669,80.43,27.23,-6.09,1729477842498.0,0.0
-2.507678,-6.317052,-4.938786,99.190002,8.05,-46.060001,1729477842519.0,0.0
-2.423929,-3.048456,-4.972286,12.88,-30.380001,-92.82,1729477842539.0,0.0
-1.600798,-1.294517,-6.508478,-81.410004,-49.139999,-98.489998,1729477842558.0,0.0
-1.531406,0.0335,-8.614161,-123.199997,-51.099998,-81.970001,1729477842579.0,0.0
-2.98385,1.301696,-9.836893,-111.720001,-30.870001,-38.639999,1729477842599.0,0.0
-3.9338,-2.24686,-9.205189,-72.660004,-22.960001,13.86,1729477842618.0,0.0
-4.917251,-3.414558,-10.018748,-22.26,-12.53,49.77,1729477842638.0,0.0
-7.850852,-1.974079,-9.123833,-18.969999,9.59,73.010002,1729477842660.0,0.0
-9.540184,-5.422136,-8.305488,-3.15,20.51,89.32,1729477842679.0,0.0
-6.285945,-8.879765,-10.145569,64.959999,14.28,83.370003,1729477842697.0,0.0
-4.409972,-6.675975,-8.922836,107.099998,25.48,73.849998,1729477842717.0,0.0
-3.993621,-6.965507,-8.200203,106.120003,41.02,51.939999,1729477842738.0,0.0
-2.452643,-8.465806,-7.82453,85.400002,29.960001,25.34,1729477842758.0,0.0
-1.739582,-8.293523,-4.998606,84.629997,20.440001,-8.96,1729477842787.0,0.0
-2.679961,-7.001399,-6.001199,70.769997,16.940001,-37.59,1729477842798.0,0.0
-2.129612,-5.54417,-4.850252,21.280001,-7.63,-68.040001,1729477842820.0,0.0
-1.488336,-1.899901,-7.384251,-50.400002,-29.190001,-81.269997,1729477842838.0,0.0
-1.756332,-3.29731,-8.408379,-103.389999,-31.710001,-82.879997,1729477842858.0,0.0
-2.455036,0.358923,-8.233703,-102.410004,-27.23,-71.470001,1729477842880.0,0.0
-3.302095,-0.062213,-7.771888,-97.650002,-34.860001,-38.290001,1729477842898.0,0.0
-4.62054,-2.337788,-10.91845,-111.160004,-28.07,-14.77,1729477842920.0,0.0
-6.242875,-2.811567,-11.595619,-88.129997,-9.03,15.4,1729477842939.0,0.0
-7.738388,-2.431108,-9.016156,-16.24,6.79,53.060001,1729477842959.0,0.0
-7.326823,-4.9675,-8.623734,41.16,12.46,72.099998,1729477842982.0,0.0
-5.367101,-5.855237,-9.559326,60.34,16.66,78.75,1729477842998.0,0.0
-4.632504,-5.795416,-9.674182,83.370003,29.610001,72.800003,1729477843018.0,0.0
-3.893122,-7.159326,-10.059426,103.739998,40.040001,54.880001,1729477843038.0,0.0
-2.624927,-6.912865,-5.661418,96.110001,38.990002,26.809999,1729477843058.0,0.0
-2.136791,-8.69791,-5.991628,57.119999,27.860001,-9.45,1729477843079.0,0.0
-1.85683,-7.444071,-4.220939,38.290001,10.64,-54.040001,1729477843097.0,0.0
-2.421536,-2.428715,-4.431508,-24.710001,-12.67,-83.300003,1729477843118.0,0.0
-2.868994,-2.744568,-7.776673,-120.68,-32.34,-99.330002,1729477843138.0,0.0
-2.524428,-1.59362,-8.817552,-163.449997,-36.68,-102.199997,1729477843160.0,0.0
-2.17029,-0.5001,-7.82453,-157.220001,-38.290001,-84.349998,1729477843184.0,0.0
-4.168297,-0.425922,-10.655239,-111.230003,-39.48,-19.18,1729477843198.0,0.0
-5.45085,-3.737589,-13.505091,-94.290001,-13.09,13.58,1729477843218.0,0.0
-6.34098,-2.435893,-9.803394,5.32,-1.75,51.450001,1729477843238.0,0.0
-7.046863,-4.699504,-9.564112,75.389999,13.58,70.910004,1729477843258.0,0.0
-4.491328,-5.369494,-10.415956,91.0,13.02,79.169998,1729477843282.0,0.0
-3.806981,-6.865008,-10.82513,121.029999,25.41,68.389999,1729477843297.0,0.0
-3.938586,-7.575676,-9.111869,143.990005,42.139999,44.799999,1729477843318.0,0.0
-3.136991,-6.166305,-7.369894,111.020004,40.529999,14.35,1729477843338.0,0.0
-1.533799,-8.003991,-6.477371,100.169998,16.799999,-19.530001,1729477843359.0,0.0
-1.055235,-4.424329,-5.326423,89.18,3.92,-50.470001,1729477843379.0,0.0
-2.270789,-1.150948,-5.635098,33.25,-10.01,-65.099998,1729477843397.0,0.0
-2.981457,-1.495514,-7.302894,-69.019997,-16.52,-72.590004,1729477843417.0,0.0
-1.730011,-2.289931,-7.987241,-120.470001,-33.950001,-71.75,1729477843438.0,0.0
-1.404587,-0.973879,-7.975278,-120.610001,-39.060001,-60.830002,1729477843459.0,0.0
-3.806981,-0.37328,-10.80838,-115.150002,-27.65,-30.940001,1729477843479.0,0.0
-5.886343,-1.055235,-10.143176,-136.289993,-7.07,-1.68,1729477843501.0,0.0
-5.429315,-4.831109,-10.272388,-72.940002,-1.82,36.049999,1729477843517.0,0.0
-6.242875,-4.39083,-9.844072,57.189999,21.0,71.120003,1729477843538.0,0.0
-5.190032,-7.238289,-9.056834,75.459999,31.99,74.900002,1729477843560.0,0.0
-3.495914,-9.420543,-9.901501,133.839996,32.900002,54.880001,1729477843579.0,0.0
-2.313859,-7.645068,-9.375079,193.339996,39.619999,26.67,1729477843597.0,0.0
-2.11047,-4.235296,-7.970492,166.25,40.880001,9.24,1729477843617.0,0.0
-1.141376,-7.228717,-7.001399,140.070007,32.900002,-17.710001,1729477843637.0,0.0
-0.667598,-6.910471,-6.45105,150.360001,27.58,-33.529999,1729477843659.0,0.0
-1.062413,-2.986243,-5.163712,144.550003,19.950001,-42.07,1729477843691.0,0.0
-2.282753,-3.962514,-5.111069,107.379997,11.83,-37.380001,1729477843697.0,0.0
-2.141576,-4.074977,-4.711468,40.040001,-6.72,-37.799999,1729477843716.0,0.0
-1.854438,-6.317052,-5.635098,8.05,-28.84,-30.1,1729477843738.0,0.0
-2.505285,-7.281359,-9.195618,14.91,-32.549999,-29.4,1729477843758.0,0.0
-4.019942,-5.98445,-9.336794,35.98,-19.6,-13.51,1729477843780.0,0.0
-5.60399,-6.776474,-9.181261,29.26,9.52,-5.18,1729477843798.0,0.0
-5.82413,-7.020542,-8.611769,35.84,28.139999,5.32,1729477843818.0,0.0
-3.412165,-6.553941,-8.516055,65.800003,15.75,29.26,1729477843838.0,0.0
-2.902494,-6.589834,-4.680361,67.970001,43.189999,42.700001,1729477843857.0,0.0
-3.079563,-6.252446,-3.409772,43.889999,55.860001,48.16,1729477843880.0,0.0
-2.124826,-8.496914,-2.866602,49.77,30.870001,50.959999,1729477843897.0,0.0
-1.150948,-10.164711,-3.050849,83.720001,10.71,38.779999,1729477843919.0,0.0
-0.602991,-8.492127,-2.277967,102.410004,-6.37,24.290001,1729477843939.0,0.0
-2.18704,-7.563712,-2.481357,78.400002,-24.01,3.71,1729477843958.0,0.0
-4.388437,-7.948956,-3.002992,15.82,-28.0,-19.460001,1729477843979.0,0.0
-3.18724,-7.556533,-5.228317,-35.07,-80.150002,-33.810001,1729477843998.0,0.0
-0.775275,-6.180661,-9.114261,-88.480003,-124.809998,-39.34,1729477844017.0,0.0
-2.79721,-3.991228,-9.403792,-192.779999,-106.400002,-43.400002,1729477844039.0,0.0
-5.632704,-4.646862,-12.313466,-261.029999,-17.5,-31.57,1729477844058.0,0.0
-6.692725,-9.65504,-14.469398,-153.649994,-5.53,-3.78,1729477844079.0,0.0
-4.254438,-12.114861,-9.573684,33.950001,34.580002,26.110001,1729477844097.0,0.0
-3.172883,-8.46102,-7.939385,149.729996,56.0,38.150002,1729477844118.0,0.0
-4.302295,-4.115655,-4.17069,133.630005,99.470001,28.98,1729477844138.0,0.0
-4.412365,-2.366502,0.122034,52.150002,86.169998,30.1,1729477844158.0,0.0
-2.175076,-6.783652,-1.146162,-19.389999,32.759998,26.880001,1729477844182.0,0.0
-0.002393,-9.915856,-1.119841,-36.330002,-14.7,13.440001,1729477844198.0,0.0
-3.148954,-10.346564,-3.931407,-18.34,-38.080002,-23.870001,1729477844218.0,0.0
-4.771288,-7.99442,-6.26441,1.33,-42.560001,-49.349998,1729477844238.0,0.0
-2.696711,-4.082155,-10.731809,37.240002,-101.989998,-49.84,1729477844257.0,0.0
-1.18684,-2.167897,-15.696917,14.14,-106.540001,-30.73,1729477844279.0,0.0
-4.862216,-6.565905,-8.006385,-85.190002,-15.26,-11.55,1729477844298.0,0.0
-9.401401,-7.898707,-10.392029,-117.110001,92.470001,-16.24,1729477844318.0,0.0
-6.089733,-8.79123,-6.680761,18.76,13.23,22.82,1729477844337.0,0.0
-0.468993,-7.484749,-9.190832,149.309998,-17.92,32.48,1729477844357.0,0.0
-1.316052,-3.931407,-5.711668,120.260002,61.18,29.33,1729477844380.0,0.0
-4.443472,-5.826523,-2.155933,49.349998,88.620003,29.68,1729477844397.0,0.0
-3.115455,-8.626125,-2.287539,13.72,56.07,22.82,1729477844418.0,0.0
-0.167498,-8.724231,0.069392,33.670002,0.98,19.18,1729477844438.0,0.0
-1.536192,-9.095119,0.76331,28.0,-5.88,4.41,1729477844457.0,0.0
-5.496314,-8.673983,-0.301496,-22.75,-10.57,-27.16,1729477844478.0,0.0
-4.986642,-7.525427,-4.31426,-58.170002,-60.760002,-40.25,1729477844498.0,0.0
-1.885544,-6.163911,-10.246067,-87.5,-133.910004,-45.57,1729477844518.0,0.0
-1.658226,-7.68096,-17.376677,-108.709999,-122.919998,-40.32,1729477844537.0,0.0
-6.400801,-8.640482,-8.898908,-68.25,44.310001,-25.41,1729477844558.0,0.0
-9.32483,-8.463413,-8.925228,65.940002,89.18,8.33,1729477844578.0,0.0
-3.507878,-6.197411,-5.395815,133.630005,20.51,24.710001,1729477844599.0,0.0
-0.832702,-6.769295,-5.508278,123.340004,27.58,23.309999,1729477844616.0,0.0
-3.385844,-6.051448,-4.046263,37.029999,94.010002,11.34,1729477844637.0,0.0
-4.465007,-7.939385,-2.421536,18.76,78.75,17.43,1729477844658.0,0.0
-1.301696,-8.248059,-1.299303,43.470001,29.469999,15.68,1729477844679.0,0.0
-0.081356,-6.721439,2.134398,47.529999,4.97,9.66,1729477844698.0,0.0
-3.017349,-8.166703,0.818345,0.84,-11.62,-7.49,1729477844716.0,0.0
-5.079963,-8.453842,-1.471586,-47.529999,-41.720001,-33.670002,1729477844737.0,0.0
-3.54377,-7.573284,-5.266603,-39.970001,-103.25,-38.709999,1729477844759.0,0.0
-1.438086,-5.67099,-11.538191,-21.35,-134.75,-38.709999,1729477844779.0,0.0
-3.59402,-8.228917,-16.809578,-17.99,-104.440002,-24.99,1729477844799.0,0.0
-6.843473,-5.383851,-12.543176,-81.760002,36.889999,-17.360001,1729477844817.0,0.0
-7.223931,-6.439085,-11.313265,-44.310001,50.189999,7.77,1729477844836.0,0.0
-2.644069,-9.946963,-5.429315,34.93,32.27,31.08,1729477844857.0,0.0
-2.514857,-6.101698,-2.490928,114.029999,71.470001,27.719999,1729477844878.0,0.0
-3.773481,-6.941578,1.416551,74.410004,73.010002,18.620001,1729477844899.0,0.0
-3.333202,-8.039884,-3.960121,-5.25,52.639999,3.15,1729477844916.0,0.0
-0.636491,-7.846066,-2.579463,1.68,13.65,6.3,1729477844937.0,0.0
0.090927,-8.145168,-0.691526,15.26,-9.73,3.57,1729477844958.0,0.0
-2.734996,-8.65484,-0.9667,-7.63,-11.2,-13.3,1729477844979.0,0.0
-4.268795,-8.764909,-4.656433,-29.33,-28.35,-28.280001,1729477844997.0,0.0
-2.694318,-7.853244,-8.094919,-37.66,-82.599998,-32.970001,1729477845017.0,0.0
-1.268196,-5.335995,-11.868401,-51.799999,-83.720001,-24.92,1729477845038.0,0.0
-4.04387,-9.035298,-8.377272,-69.580002,-31.639999,-9.17,1729477845057.0,0.0
-9.044869,-8.896514,-9.858429,-129.850006,66.290001,-16.309999,1729477845078.0,0.0
-6.635297,-9.099905,-9.789038,23.17,37.869999,15.05,1729477845095.0,0.0
-0.571885,-8.846266,-6.56112,123.270004,3.78,24.15,1729477845117.0,0.0
-0.969093,-7.57089,-4.639683,104.720001,60.200001,15.68,1729477845138.0,0.0
-4.295116,-6.58744,-4.457829,30.799999,98.0,0.7,1729477845158.0,0.0
-3.39063,-7.144968,-2.402394,-1.96,65.519997,3.43,1729477845182.0,0.0
1.507478,-6.860222,-1.866402,32.549999,7.07,8.68,1729477845197.0,0.0
-0.823131,-8.226524,-0.485743,41.439999,7.91,3.36,1729477845216.0,0.0
-4.61097,-9.020942,-0.832702,6.86,-0.35,-22.26,1729477845237.0,0.0
-4.73061,-8.133204,-2.70389,-12.46,-44.66,-29.120001,1729477845258.0,0.0
-2.22054,-6.982256,-5.563312,-26.460001,-105.559998,-31.57,1729477845280.0,0.0
-1.438086,-5.417351,-10.942378,-57.049999,-98.559998,-23.73,1729477845296.0,0.0
-4.307081,-8.228917,-14.033905,-67.059998,-36.610001,-6.23,1729477845316.0,0.0
-8.700303,-9.305687,-10.506885,-95.059998,55.369999,-9.1,1729477845339.0,0.0
-6.489335,-9.257831,-8.642875,19.25,49.209999,9.03,1729477845358.0,0.0
-0.985843,-7.001399,-6.520442,80.360001,9.59,21.98,1729477845378.0,0.0
-1.177269,-7.446464,-5.125426,63.420002,52.360001,13.09,1729477845397.0,0.0
-3.924229,-6.692725,-5.297709,-11.41,98.279999,0.98,1729477845417.0,0.0
-2.017149,-7.68096,-2.421536,-24.57,47.810001,5.67,1729477845437.0,0.0
1.617548,-6.221339,-0.229711,23.379999,-2.94,10.08,1729477845458.0,0.0
0.299103,-7.032506,-0.184247,32.689999,4.34,11.41,1729477845479.0,0.0
-3.974478,-8.377272,-0.619741,-13.51,-1.68,-8.82,1729477845496.0,0.0
-4.929214,-8.800802,-2.364109,-21.98,-36.889999,-20.51,1729477845517.0,0.0
-0.772882,-6.960721,-8.901299,-21.49,-106.75,-25.969999,1729477845538.0,0.0
-1.871187,-7.197611,-14.830715,-29.33,-79.029999,-14.98,1729477845559.0,0.0
-6.283553,-7.396214,-7.166504,-77.279999,4.2,-21.84,1729477845578.0,0.0
-8.305488,-8.99462,-11.042876,-28.91,38.57,-8.12,1729477845597.0,0.0
-3.842873,-7.379465,-10.779665,5.53,13.16,7.42,1729477845616.0,0.0
-0.655633,-8.963513,-6.474977,44.73,28.07,13.86,1729477845637.0,0.0
-2.799603,-9.023334,-5.273781,40.670002,72.099998,7.98,1729477845657.0,0.0
-4.039084,-6.585048,-5.161318,6.93,84.559998,-8.54,1729477845680.0,0.0
-0.835095,-7.235896,-2.292324,-15.61,44.450001,-3.71,1729477845696.0,0.0
1.79701,-5.819345,-0.143569,3.99,14.98,4.06,1729477845716.0,0.0
-0.167498,-7.393822,0.050249,1.75,9.45,3.43,1729477845738.0,0.0
-4.24726,-9.580862,-0.775275,-43.610001,-2.45,-17.92,1729477845757.0,0.0
-4.319045,-9.638289,-2.778067,-45.290001,-43.82,-33.18,1729477845778.0,0.0
-0.758525,-6.74776,-8.267202,-21.280001,-109.340004,-32.689999,1729477845797.0,0.0
0.385244,-4.692325,-11.60519,6.3,-93.800003,-14.56,1729477845817.0,0.0
-3.445665,-6.431907,-12.318252,-8.89,-28.559999,15.47,1729477845836.0,0.0
-11.41855,-9.786645,-10.370493,-105.419998,59.220001,0.35,1729477845856.0,0.0
-4.589434,-6.072984,-7.843673,-10.64,44.52,19.74,1729477845880.0,0.0
1.045663,-5.199604,-7.625926,19.18,-0.42,42.77,1729477845898.0,0.0
-1.567299,-8.149954,-6.039484,-22.049999,65.169998,40.459999,1729477845917.0,0.0
-4.735396,-7.838887,-5.826523,-50.330002,94.220001,30.17,1729477845936.0,0.0
-1.584049,-8.300702,-4.663611,-13.23,30.030001,31.85,1729477845959.0,0.0
1.787439,-7.211967,-1.509871,49.279999,-2.73,28.07,1729477845977.0,0.0
-0.212961,-7.049256,0.162712,54.110001,4.48,13.23,1729477845997.0,0.0
-4.096512,-8.535198,-1.301696,-12.25,-16.17,-17.15,1729477846017.0,0.0
-4.027121,-9.71486,-4.369294,-43.259998,-62.650002,-40.599998,1729477846104.0,0.0
-1.081556,-9.23151,-11.042876,-35.139999,-124.389999,-52.920002,1729477846105.0,0.0
-0.430708,-6.530013,-14.75893,-25.549999,-104.160004,-65.099998,1729477846105.0,0.0
-4.134798,-4.639683,-10.968699,-50.259998,-28.07,-51.170002,1729477846106.0,0.0
-9.896714,-6.472585,-11.631511,-85.959999,47.670002,-31.219999,1729477846116.0,0.0
-7.836494,-7.219146,-11.028521,-4.48,31.710001,-3.43,1729477846136.0,0.0
-1.261017,-7.534998,-9.566505,62.93,12.88,5.6,1729477846156.0,0.0
-0.715454,-6.549156,-6.577869,77.699997,60.48,7.35,1729477846180.0,0.0
-3.371487,-6.711867,-4.17069,53.130001,96.529999,1.19,1729477846196.0,0.0
-0.311067,-6.367301,-0.98345,23.59,40.810001,10.36,1729477846216.0,0.0
2.600998,-6.374479,-0.145962,23.309999,0.21,4.9,1729477846236.0,0.0
0.452243,-7.874779,-0.418744,3.57,-3.29,-0.35,1729477846257.0,0.0
-3.354738,-8.779266,-1.552942,-25.969999,-14.14,-22.68,1729477846278.0,0.0
-3.402594,-8.965906,-5.426922,-22.960001,-55.02,-28.91,1729477846296.0,0.0
-0.880559,-7.37468,-10.080962,-24.85,-113.959999,-36.119999,1729477846317.0,0.0
-1.430908,-5.582455,-11.906685,-38.990002,-73.919998,-32.830002,1729477846336.0,0.0
-5.381458,-8.279166,-8.688338,-67.129997,-20.09,-21.35,1729477846356.0,0.0
-8.092526,-6.771688,-12.574283,-100.730003,34.790001,-18.620001,1729477846378.0,0.0
-3.998406,-6.195018,-11.129018,6.44,3.15,19.74,1729477846396.0,0.0
0.428315,-7.046863,-7.913064,97.440002,11.83,37.799999,1729477846415.0,0.0
-2.103291,-7.712067,-4.790431,105.840004,76.93,39.060001,1729477846436.0,0.0
-4.9675,-6.592227,-4.048656,51.310001,94.919998,29.960001,1729477846456.0,0.0
-3.029313,-6.585048,-3.309274,3.71,51.029999,30.1,1729477846477.0,0.0
0.098106,-7.542177,-0.356531,10.29,16.030001,25.9,1729477846496.0,0.0
-0.356531,-6.989435,1.033699,11.34,-3.15,17.5,1729477846515.0,0.0
-4.283153,-9.990034,-4.9675,-3.64,-18.620001,1.05,1729477846535.0,0.0
-2.270789,-8.233703,-7.668997,8.4,-65.169998,-25.48,1729477846556.0,0.0
0.461815,-5.13739,-10.033106,22.120001,-100.519997,-27.790001,1729477846578.0,0.0
-0.157926,-4.402793,-12.815958,-16.379999,-65.239998,-18.83,1729477846596.0,0.0
-4.541577,-10.040283,-9.88475,-88.129997,1.68,-7.7,1729477846617.0,0.0
-7.970492,-10.51167,-13.323236,-135.449997,54.880001,-20.299999,1729477846637.0,0.0
-5.036892,-5.501099,-11.095518,-69.860001,48.509998,-6.3,1729477846656.0,0.0
-1.150948,-7.365108,-9.509077,10.22,46.27,4.34,1729477846686.0,0.0
-2.321038,-7.37468,-8.176274,12.67,108.709999,7.42,1729477846698.0,0.0
-2.165504,-7.269395,-2.172683,29.469999,110.110001,14.7,1729477846716.0,0.0
0.612563,-7.099504,1.615155,69.510002,54.880001,8.05,1729477846738.0,0.0
0.258425,-6.999006,2.26361,78.330002,22.26,1.19,1729477846758.0,0.0
-2.065006,-8.130811,-1.753939,81.269997,-4.34,-10.43,1729477846778.0,0.0
-2.40718,-6.245267,-3.175276,99.190002,-27.02,-12.88,1729477846797.0,0.0
-1.229911,-4.256832,-6.608976,93.940002,-74.760002,-2.38,1729477846818.0,0.0
-2.177469,-4.788038,-9.059227,1.12,-77.279999,-8.12,1729477846838.0,0.0
-4.395615,-9.116654,-10.360922,-130.130005,-48.93,-3.22,1729477846859.0,0.0
-6.470192,-9.281759,-15.50549,-133.070007,-12.46,-17.15,1729477846879.0,0.0
-5.07757,-7.712067,-14.708681,-26.460001,13.3,-2.17,1729477846898.0,0.0
-1.789831,-6.888937,-8.800802,39.970001,34.93,14.35,1729477846919.0,0.0
-2.512464,-9.41815,-5.498707,67.410004,73.290001,15.96,1729477846937.0,0.0
-3.337988,-6.116055,-4.663611,38.849998,91.559998,5.46,1729477846959.0,0.0
-0.806381,-5.742774,-0.772882,19.74,64.400002,16.66,1729477846979.0,0.0
1.514657,-6.297909,2.132005,14.84,32.970001,18.549999,1729477846999.0,0.0
0.098106,-9.260223,2.715853,13.02,1.05,15.12,1729477847017.0,0.0
-2.57707,-9.973285,-1.004985,0.49,-29.82,-10.08,1729477847039.0,0.0
-1.708475,-8.178668,-4.371687,27.16,-66.5,-19.530001,1729477847059.0,0.0
0.18664,-6.546762,-7.925028,54.529999,-110.459999,-19.74,1729477847078.0,0.0
-0.741775,-5.335995,-10.987842,17.92,-92.540001,-13.16,1729477847097.0,0.0
-7.168896,-7.858029,-11.090734,-128.589996,-9.1,-16.24,1729477847119.0,0.0
-7.013363,-9.040084,-16.596617,-39.970001,25.620001,4.34,1729477847140.0,0.0
-1.634298,-7.099504,-11.301301,91.840004,21.210001,31.290001,1729477847160.0,0.0
-0.882952,-7.984849,-5.391029,139.580002,75.040001,37.029999,1729477847182.0,0.0
-3.981657,-6.285945,-4.13719,70.349998,108.989998,23.66,1729477847199.0,0.0
-3.565305,-6.673582,-1.725225,-9.38,89.18,16.870001,1729477847220.0,0.0
-0.277567,-8.212167,-0.122034,-13.440001,28.280001,13.3,1729477847238.0,0.0
1.052842,-8.394022,1.586441,21.35,1.12,7.84,1729477847258.0,0.0
-1.45005,-9.698111,0.320638,33.389999,-19.389999,-4.13,1729477847280.0,0.0
-3.395415,-8.310273,-1.201197,18.9,-39.689999,-23.940001,1729477847298.0,0.0
-1.265803,-6.738188,-6.04427,32.200001,-91.279999,-23.030001,1729477847319.0,0.0
0.122034,-4.993821,-10.506885,13.51,-112.349998,-15.05,1729477847339.0,0.0
-1.801795,-6.12084,-12.167502,-55.510002,-67.129997,6.16,1729477847359.0,0.0
-6.238089,-12.114861,-8.664411,-133.139999,5.81,-1.05,1729477847382.0,0.0
-7.989635,-11.078769,-12.375679,-45.290001,42.630001,3.15,1729477847402.0,0.0
-2.89053,-7.491928,-8.379664,116.550003,16.309999,30.870001,1729477847420.0,0.0
-1.995614,-6.84108,-4.965107,122.639999,41.860001,27.23,1729477847438.0,0.0
-3.931407,-5.826523,-5.386244,-18.76,86.309998,13.86,1729477847459.0,0.0
-1.818545,-8.587841,-1.399801,-32.759998,52.920002,21.84,1729477847481.0,0.0
0.899701,-7.51107,-0.208176,-8.75,19.32,18.41,1729477847498.0,0.0
-0.210568,-8.549555,1.957329,10.08,1.75,13.3,1729477847519.0,0.0
-3.665804,-10.176675,-0.897308,-13.58,-22.33,-15.4,1729477847538.0,0.0
-3.558127,-8.82473,-4.333402,-23.379999,-54.950001,-32.970001,1729477847559.0,0.0
-0.926022,-6.283553,-7.238289,-14.7,-105.489998,-35.490002,1729477847581.0,0.0
-0.902094,-4.074977,-9.84168,-47.32,-92.82,-27.860001,1729477847599.0,0.0
-4.45065,-8.039884,-9.925428,-76.019997,-42.98,-8.89,1729477847619.0,0.0
-8.719445,-10.703095,-14.012369,-82.110001,16.59,-4.34,1729477847638.0,0.0
-5.570491,-9.346365,-12.30868,23.1,31.710001,14.14,1729477847659.0,0.0
-0.792024,-8.82473,-6.848258,97.790001,33.459999,25.34,1729477847681.0,0.0
-1.328017,-7.865208,-3.742374,80.779999,81.760002,15.75,1729477847699.0,0.0
-3.912265,-6.228518,-4.027121,12.04,96.459999,5.88,1729477847718.0,0.0
-3.034099,-8.240881,-1.043271,-20.65,66.5,10.15,1729477847738.0,0.0
0.332602,-8.642875,-0.291924,-6.65,12.67,2.52,1729477847759.0,0.0
-0.849452,-8.370094,0.284746,22.190001,-14.0,-5.95,1729477847782.0,0.0
-3.672983,-7.472785,-2.349752,-10.15,-40.880001,-34.509998,1729477847797.0,0.0
-2.617748,-6.628119,-7.228717,-24.15,-79.379997,-32.48,1729477847818.0,0.0
-1.198804,-5.795416,-9.822537,-45.009998,-98.419998,-24.57,1729477847838.0,0.0
-2.70389,-9.116654,-10.181459,-38.290001,-52.920002,-14.21,1729477847858.0,0.0
-6.640083,-9.530612,-8.906086,-41.509998,-1.61,-15.68,1729477847881.0,0.0
-7.128219,-7.690532,-12.071791,-7.21,37.029999,-5.46,1729477847898.0,0.0
-2.54357,-7.034898,-7.929814,52.990002,20.370001,18.129999,1729477847918.0,0.0
-0.894916,-7.750352,-5.489135,56.700001,46.200001,20.65,1729477847940.0,0.0
-3.414558,-7.819745,-5.259424,10.15,82.040001,13.37,1729477847958.0,0.0
-3.26381,-7.728817,-2.388037,-4.06,74.480003,14.56,1729477847980.0,0.0
-0.129212,-8.877372,-1.725225,23.73,25.48,17.290001,1729477847998.0,0.0
1.892723,-7.331609,0.308674,42.700001,-0.84,6.58,1729477848019.0,0.0
0.064606,-8.315059,0.088534,29.4,-14.56,0.14,1729477848037.0,0.0
-2.914458,-8.518449,-1.351945,-7.07,-35.490002,-18.969999,1729477848059.0,0.0
-2.931208,-6.498906,-5.529813,-7.28,-63.209999,-20.860001,1729477848079.0,0.0
-1.57687,-6.771688,-8.41795,-9.66,-100.870003,-16.52,1729477848098.0,0.0
-3.452843,-10.636096,-13.887943,-74.340004,-77.279999,-19.950001,1729477848119.0,0.0
-5.60399,-9.308081,-11.801401,-127.959999,5.39,-30.52,1729477848139.0,0.0
-4.469792,-7.958528,-12.734602,45.290001,20.719999,15.190001,1729477848159.0,0.0
-1.339981,-7.647461,-8.317451,138.529999,37.380001,28.98,1729477848184.0,0.0
-2.45025,-6.886543,-2.277967,133.0,84.769997,34.16,1729477848198.0,0.0
-4.969893,-6.558727,-2.117648,65.099998,89.879997,20.65,1729477848220.0,0.0
-3.881158,-7.164111,-0.679562,-4.9,55.860001,12.88,1729477848238.0,0.0
-1.337588,-8.834301,-2.85703,-16.870001,16.450001,12.25,1729477848258.0,0.0
0.401994,-9.487542,-2.191825,9.45,4.06,5.81,1729477848279.0,0.0
-0.289532,-8.798409,-1.488336,21.07,-6.44,-1.05,1729477848300.0,0.0
-3.299703,-9.870394,-2.471786,-11.41,-14.21,-21.91,1729477848317.0,0.0
-4.445865,-9.188439,-4.223332,-41.93,-36.119999,-42.91,1729477848339.0,0.0
-2.074577,-6.348158,-6.458229,-56.84,-81.900002,-53.41,1729477848358.0,0.0
0.210568,-4.67079,-10.176675,-44.869999,-90.440002,-47.810001,1729477848380.0,0.0
-3.065206,-8.29113,-7.226324,-16.309999,-39.34,-17.710001,1729477848398.0,0.0
-6.766902,-9.272188,-11.949757,7.07,39.549999,-7.7,1729477848419.0,0.0
-5.230711,-10.040283,-10.688738,75.040001,33.040001,15.12,1729477848437.0,0.0
-1.074377,-8.470592,-3.572484,165.130005,47.529999,24.219999,1729477848459.0,0.0
-2.921637,-6.652047,-1.45005,154.910004,80.639999,18.34,1729477848480.0,0.0
-3.156133,-6.929615,1.095913,83.510002,61.740002,11.62,1729477848498.0,0.0
-1.265803,-9.343972,-1.612763,53.27,12.95,14.07,1729477848518.0,0.0
0.990629,-9.79143,-1.131805,86.099998,1.12,9.87,1729477848538.0,0.0
0.531207,-8.599805,0.29671,102.620003,-3.92,11.83,1729477848559.0,0.0
-2.443072,-9.279366,-1.069592,77.489998,-5.74,2.17,1729477848578.0,0.0
-4.197011,-8.772088,-2.400001,33.110001,-26.950001,-10.15,1729477848598.0,0.0
-2.749353,-8.370094,-4.232903,4.62,-66.57,-6.86,1729477848617.0,0.0
-1.083949,-7.188039,-5.479564,-19.530001,-75.809998,-6.44,1729477848639.0,0.0
-1.172483,-9.126225,-2.167897,-11.27,-65.660004,7.49,1729477848658.0,0.0
-5.132604,-12.019149,0.325424,-15.54,-55.23,5.18,1729477848681.0,0.0
-6.34098,-10.604989,-4.218546,-12.95,-51.939999,-5.18,1729477848697.0,0.0
-3.570091,-9.212367,-6.276374,45.150002,-33.389999,7.98,1729477848724.0,0.0
-2.402394,-9.994821,-5.625526,94.220001,-1.89,15.12,1729477848739.0,0.0
-3.706482,-11.033305,-3.838088,122.080002,33.810001,13.09,1729477848757.0,0.0
-3.081956,-10.133603,-1.79701,153.089996,40.25,6.37,1729477848782.0,0.0
-1.813759,-8.68116,-0.904487,166.669998,36.049999,-0.49,1729477848797.0,0.0
-1.954936,-8.41795,-0.074178,145.529999,32.759998,-2.24,1729477848817.0,0.0
-2.596212,-9.178867,0.086142,121.309998,19.110001,-4.41,1729477848837.0,0.0
-2.708675,-10.717452,-1.048056,134.470001,7.91,-8.89,1729477848858.0,0.0
-2.266003,-12.390036,-1.600798,212.660004,17.780001,-15.12,1729477848881.0,0.0
-2.361716,-11.456835,-0.069392,302.470001,54.599998,-24.5,1729477848899.0,0.0
-3.823731,-9.98525,0.90688,351.959991,72.029999,-36.049999,1729477848918.0,0.0
-3.182454,-10.212566,1.459622,399.700012,68.389999,-60.200001,1729477848938.0,0.0
-2.074577,-8.118847,4.630112,434.910004,75.739998,-70.349998,1729477848960.0,0.0
-2.234896,-5.615955,6.01077,391.51001,86.660004,-72.730003,1729477848981.0,0.0
-3.270989,-4.488935,6.867401,230.089996,62.299999,-82.389999,1729477848999.0,0.0
-3.136991,-3.63709,4.759324,116.410004,58.240002,-53.830002,1729477849019.0,0.0
-2.998207,-5.35753,5.781059,68.389999,55.860001,-62.860001,1729477849039.0,0.0
-3.366701,-7.281359,7.022934,52.57,61.18,-59.080002,1729477849060.0,0.0
-2.529213,-3.802195,8.700303,87.849998,67.480003,-54.740002,1729477849080.0,0.0
-2.079363,0.4666,10.272388,74.830002,58.66,-34.720001,1729477849101.0,0.0
-1.057628,1.629512,10.057034,10.78,26.32,3.15,1729477849306.0,0.0
-2.478964,-2.105684,7.970492,-42.560001,-9.31,27.65,1729477849306.0,0.0
-2.632105,-2.624927,6.458229,-46.34,-23.030001,51.029999,1729477849307.0,0.0
-2.139183,-3.718446,7.032506,-24.99,-22.4,69.93,1729477849307.0,0.0
-5.395815,-8.930015,5.761917,-21.77,-34.439999,66.849998,1729477849307.0,0.0
-7.020542,-13.354343,5.87438,1.26,-33.459999,43.330002,1729477849307.0,0.0
-6.319445,-14.275579,5.651847,19.25,-11.69,-2.66,1729477849307.0,0.0
-4.342973,-9.468399,7.200003,39.759998,14.21,-46.830002,1729477849308.0,0.0
-2.931208,-6.424729,6.9009,32.200001,29.540001,-69.93,1729477849308.0,0.0
-4.457829,-7.094719,8.370094,31.43,27.790001,-78.400002,1729477849322.0,0.0
-1.820938,-3.089134,8.855836,32.689999,24.780001,-76.090004,1729477849325.0,0.0
-0.741775,1.002593,9.334401,19.809999,5.18,-42.77,1729477849338.0,0.0
-0.59342,0.306281,6.015556,-37.310001,-34.860001,2.73,1729477849358.0,0.0
-1.363909,-2.615355,5.407779,-98.910004,-54.389999,43.400002,1729477849389.0,0.0
-3.314059,-4.575077,4.9675,-95.900002,-62.02,57.330002,1729477849402.0,0.0
-1.234696,-4.220939,2.825923,-71.610001,-49.630001,71.75,1729477849419.0,0.0
-0.497707,-9.382257,4.488935,-44.59,-23.24,75.040001,1729477849444.0,0.0
-2.770889,-13.988441,7.518249,-4.83,-9.24,34.439999,1729477849459.0,0.0
-6.826723,-13.907085,10.619347,75.459999,13.93,2.94,1729477849491.0,0.0
-6.972685,-6.273981,6.199803,74.340004,34.299999,-22.68,1729477849499.0,0.0
-4.034299,-4.067799,7.209574,31.780001,45.57,-32.830002,1729477849519.0,0.0
-2.507678,-6.601797,6.489335,-7.35,43.82,-43.540001,1729477849540.0,0.0
-3.835695,-6.805188,7.999206,34.299999,53.27,-51.310001,1729477849560.0,0.0
-1.971686,-3.742374,7.99442,62.580002,54.18,-39.41,1729477849581.0,0.0
-1.940579,-1.641476,8.714661,44.170002,46.130001,-20.299999,1729477849599.0,0.0
-1.667797,-1.969293,7.9346,-10.64,19.74,-2.94,1729477849621.0,0.0
-1.445265,-3.24706,6.759724,-58.170002,6.44,18.34,1729477849639.0,0.0
-3.756732,-6.546762,6.740582,-56.139999,-15.12,31.780001,1729477849659.0,0.0
-3.349952,-3.754339,6.38405,-19.6,-15.05,42.139999,1729477849681.0,0.0
-1.627119,-4.15394,6.886543,-25.48,-12.46,59.639999,1729477849699.0,0.0
-3.034099,-10.427922,7.491928,-65.730003,-18.690001,35.77,1729477849718.0,0.0
-5.460421,-11.526227,9.97807,-16.030001,-4.13,14.77,1729477849739.0,0.0
-5.438886,-7.819745,7.721639,-22.889999,-5.18,-19.460001,1729477849759.0,0.0
-3.914658,-3.962514,6.786045,-37.310001,2.1,-18.690001,1729477849781.0,0.0
-2.222932,-3.677768,4.570292,-57.540001,-1.82,-14.7,1729477849800.0,0.0
-3.211168,-6.82433,3.85723,-77.209999,-7.98,-8.19,1729477849820.0,0.0
-3.754339,-7.307681,5.233103,-45.290001,-7.7,-7.21,1729477849839.0,0.0
-2.993421,-5.915058,6.094519,-6.79,5.6,-1.4,1729477849860.0,0.0
-1.928615,-3.833302,6.525227,-34.650002,-0.84,6.44,1729477849880.0,0.0
-2.550749,-5.35753,7.393822,-69.230003,-18.41,22.960001,1729477849900.0,0.0
-4.850252,-6.903293,5.491528,-88.620003,-42.84,37.450001,1729477849919.0,0.0
-2.151148,-6.360123,4.304688,-71.889999,-38.220001,45.57,1729477849941.0,0.0
-1.194018,-9.329616,4.673182,-56.98,-26.67,39.619999,1729477849959.0,0.0
-3.924229,-13.69891,4.761717,-17.5,-15.33,11.48,1729477849981.0,0.0
-5.54417,-12.803994,4.809574,87.010002,18.620001,-19.530001,1729477849999.0,0.0
-5.618347,-7.836494,5.927022,161.490005,62.439999,-36.82,1729477850021.0,0.0
-3.818945,-4.728218,7.551748,126.349998,71.050003,-51.73,1729477850048.0,0.0
-4.331009,-6.778866,8.166703,81.970001,45.290001,-52.220001,1729477850134.0,0.0
-4.26401,-4.649254,7.965706,113.330002,43.470001,-48.790001,1729477850135.0,0.0
-3.567699,-2.782853,6.405586,96.040001,28.42,-37.59,1729477850135.0,0.0
-2.026721,-2.548356,5.757132,27.65,10.57,-20.58,1729477850135.0,0.0
-1.567299,-2.866602,5.895915,-12.88,1.05,4.48,1729477850148.0,0.0
-3.629912,-5.075177,6.465407,-24.99,-10.85,19.389999,1729477850159.0,0.0
-3.160919,-3.634698,6.704689,-25.620001,-19.25,34.299999,1729477850239.0,0.0
-1.971686,-3.940979,6.972685,-49.139999,-21.91,52.779999,1729477850242.0,0.0
-3.615555,-9.62154,6.695118,-110.389999,-38.639999,52.57,1729477850244.0,0.0
-5.347959,-16.560726,4.795217,-126.980003,-52.779999,18.41,1729477850246.0,0.0
-4.125226,-14.435899,4.09412,-65.099998,-18.690001,-32.200001,1729477850259.0,0.0
-4.867002,-5.828916,6.025128,32.060001,39.759998,-38.849998,1729477850283.0,0.0
-4.859823,-2.67039,7.623533,39.830002,48.790001,-41.650002,1729477850298.0,0.0
-4.096512,-5.142176,6.915257,-25.059999,20.58,-41.09,1729477850322.0,0.0
-3.84048,-7.312466,6.546762,-32.27,4.13,-37.59,1729477850338.0,0.0
-2.471786,-4.031906,6.793223,16.379999,13.02,-30.940001,1729477850358.0,0.0
-0.933201,-1.318445,7.001399,40.32,9.8,-6.51,1729477850379.0,0.0
-1.634298,-3.629912,7.049256,-23.450001,-16.379999,25.620001,1729477850399.0,0.0
-3.177669,-5.328816,6.427122,-56.07,-38.920002,34.93,1729477850420.0,0.0
-1.397408,-4.520042,6.238089,-38.5,-35.98,53.34,1729477850438.0,0.0
-2.120041,-8.209774,5.572884,-36.400002,-36.68,62.580002,1729477850460.0,0.0
-4.316652,-15.060425,3.663411,-40.880001,-40.740002,36.889999,1729477850481.0,0.0
-4.831109,-19.36272,4.17069,43.68,-12.39,-9.59,1729477850499.0,0.0
-6.128019,-10.425529,6.130411,143.220001,48.23,-48.720001,1729477850519.0,0.0
-6.288338,-1.978864,7.89153,161.279999,72.870003,-48.369999,1729477850539.0,0.0
-4.443472,-2.727818,7.989635,61.32,40.25,-56.420002,1729477850560.0,0.0
-4.201797,-6.350551,5.752346,-14.14,7.63,-45.849998,1729477850581.0,0.0
-3.558127,-3.555735,6.819544,40.670002,22.540001,-38.779999,1729477850599.0,0.0
-2.947958,-0.600598,6.664011,57.959999,22.610001,-15.190001,1729477850620.0,0.0
-1.337588,-0.76331,6.436693,-10.71,0.42,14.49,1729477850639.0,0.0
-2.644069,-5.13739,6.716653,-75.459999,-18.27,36.540001,1729477850661.0,0.0
-3.452843,-6.38405,5.931807,-95.410004,-37.66,40.25,1729477850681.0,0.0
-1.421337,-5.264209,6.161518,-65.519997,-23.24,53.549999,1729477850699.0,0.0
-3.012564,-10.430314,4.890929,-85.75,-21.77,48.02,1729477850719.0,0.0
-5.142176,-17.73321,5.54417,-40.670002,-28.49,10.29,1729477850738.0,0.0
-5.426922,-13.497912,5.635098,87.150002,20.719999,-31.360001,1729477850768.0,0.0
-6.774081,-2.581856,6.836295,167.789993,70.07,-47.040001,1729477850780.0,0.0
-4.955536,-0.136391,9.075976,103.459999,60.200001,-46.48,1729477850800.0,0.0
-3.388237,-4.496114,8.133204,-14.7,24.85,-40.389999,1729477850819.0,0.0
-3.74716,-6.369694,7.848458,-4.55,11.55,-32.689999,1729477850841.0,0.0
-2.234896,-3.227918,6.460621,61.880001,18.27,-19.389999,1729477850861.0,0.0
-1.811367,-0.801596,4.716253,43.259998,7.63,-1.47,1729477850882.0,0.0
-1.90708,-2.957529,6.501299,-17.15,-0.07,29.960001,1729477850899.0,0.0
-3.835695,-8.097312,6.257231,-70.559998,-25.620001,34.23,1729477850919.0,0.0
-2.981457,-5.998806,5.513064,-69.090004,-23.870001,39.060001,1729477850941.0,0.0
-1.61037,-6.537192,5.65424,-69.230003,-14.28,51.240002,1729477850960.0,0.0
-3.335595,-11.609976,5.185246,-86.169998,-24.92,27.65,1729477850982.0,0.0
-5.070391,-15.304493,7.362715,24.639999,-10.78,-6.72,1729477851000.0,0.0
-7.472785,-3.050849,7.802995,127.75,39.48,-39.060001,1729477851019.0,0.0
-4.725825,-1.674976,8.329416,64.610001,35.420002,-36.540001,1729477851090.0,0.0
-3.694518,-5.472386,7.501499,-24.5,9.45,-30.030001,1729477851092.0,0.0
-4.079762,-6.216553,8.090133,3.85,2.31,-25.549999,1729477851111.0,0.0
-2.818745,-3.306881,7.702496,54.529999,4.83,-13.58,1729477851123.0,0.0
-1.897508,-1.902294,6.34098,14.42,-9.24,5.04,1729477851123.0,0.0
-1.768296,-3.067599,5.190032,-43.82,-21.77,32.200001,1729477851140.0,0.0
-3.065206,-8.46102,4.457829,-69.440002,-34.650002,37.170002,1729477851160.0,0.0
-3.242275,-8.472985,4.910072,-32.060001,-24.43,32.970001,1729477851185.0,0.0
-2.720639,-7.063612,6.999006,19.950001,3.57,28.700001,1729477851200.0,0.0
-3.708875,-11.100305,8.130811,18.76,0.14,0.84,1729477851221.0,0.0
-5.024928,-9.650253,8.370094,62.16,16.66,-30.66,1729477851240.0,0.0
-6.652047,-5.321638,7.360322,101.709999,35.91,-47.810001,1729477851262.0,0.0
-6.742974,-2.849852,7.06122,78.400002,37.52,-51.66,1729477851282.0,0.0
-3.964907,-5.156533,7.195218,25.27,32.48,-50.049999,1729477851301.0,0.0
-4.563113,-4.591826,8.154739,47.110001,26.950001,-39.830002,1729477851321.0,0.0
-2.849852,-0.854238,8.35813,47.32,22.82,-25.969999,1729477851341.0,0.0
-1.579263,0.76331,7.345965,-15.75,1.75,2.8,1729477851361.0,0.0
-1.036092,-1.832902,5.991628,-75.040001,-17.43,38.360001,1729477851382.0,0.0
-3.211168,-8.463413,4.682754,-84.489998,-32.619999,52.080002,1729477851402.0,0.0
-3.15374,-9.29133,4.185047,-46.759998,-29.82,39.200001,1729477851421.0,0.0
-1.942972,-6.300302,6.525227,-0.63,-0.42,37.380001,1729477851441.0,0.0
-4.187439,-10.49492,7.65464,-3.78,-6.65,24.01,1729477851461.0,0.0
-5.106283,-12.842279,6.570691,-0.35,-13.09,-13.65,1729477851486.0,0.0
-6.24766,-7.312466,6.345766,49.91,17.5,-40.459999,1729477851501.0,0.0
-6.9344,-2.368894,7.159326,70.980003,37.73,-44.029999,1729477851522.0,0.0
-4.421937,-3.416951,8.671589,21.700001,35.630001,-44.52,1729477851541.0,0.0
-3.538985,-5.096712,8.903693,-18.41,17.99,-41.650002,1729477851561.0,0.0
-3.302095,-3.706482,9.698111,11.06,9.8,-26.67,1729477851585.0,0.0
-2.54357,-2.021935,8.224132,9.87,-5.95,-8.47,1729477851601.0,0.0
-1.143769,-0.107677,5.340781,-35.209999,-20.16,5.88,1729477851621.0,0.0
-3.644269,-4.130012,6.494121,-56.98,-27.58,43.82,1729477851642.0,0.0
-4.45065,-6.898508,5.051248,-49.490002,-41.720001,43.959999,1729477851661.0,0.0
-1.689333,-6.008378,5.412565,-17.639999,-17.92,49.349998,1729477851683.0,0.0
-2.847459,-7.874779,7.716853,-7.7,-8.05,41.09,1729477851701.0,0.0
-4.907679,-11.404193,8.085347,1.75,-4.34,20.440001,1729477851721.0,0.0
-6.209375,-11.782259,8.281559,37.170002,6.72,-15.26,1729477851741.0,0.0
-7.889136,-6.800402,6.305088,75.949997,19.110001,-42.139999,1729477851769.0,0.0
-5.316852,-4.058227,7.487142,69.440002,40.040001,-50.470001,1729477851843.0,0.0
-3.878766,-5.309673,7.360322,29.469999,34.23,-59.150002,1729477851845.0,0.0
-4.362115,-5.072784,7.829315,29.889999,27.58,-52.220001,1729477851847.0,0.0
-2.912065,-2.878566,8.018349,48.369999,26.32,-38.990002,1729477851848.0,0.0
-2.533999,-1.615155,8.161918,27.860001,14.63,-26.25,1729477851866.0,0.0
-1.701297,0.059821,6.52762,-21.139999,-1.47,-4.69,1729477851882.0,0.0
-1.885544,-1.478764,5.096712,-61.32,-12.95,27.860001,1729477851900.0,0.0
-4.668397,-6.848258,5.582455,-60.689999,-25.83,44.799999,1729477851920.0,0.0
-2.790031,-5.046463,6.056234,-21.07,-13.58,44.450001,1729477851940.0,0.0
-4.414758,-7.618747,8.559127,1.54,-2.24,48.02,1729477851965.0,0.0
-5.659025,-12.351749,9.293723,-23.450001,-16.030001,23.66,1729477851983.0,0.0
-6.570691,-10.693524,5.938986,-5.6,-11.48,-16.940001,1729477852000.0,0.0
-5.91745,-5.690133,6.037091,39.41,13.93,-34.580002,1729477852020.0,0.0
-3.87398,-3.871587,8.023134,33.110001,25.690001,-38.849998,1729477852041.0,0.0
-4.070191,-5.883951,7.776673,-1.82,6.93,-42.98,1729477852061.0,0.0
-2.768496,-4.725825,8.350951,14.42,1.19,-37.450001,1729477852083.0,0.0
-2.548356,-1.892723,8.102098,28.139999,2.8,-25.34,1729477852099.0,0.0
-2.117648,0.301496,5.706882,-21.139999,-10.71,-4.27,1729477852121.0,0.0
-2.031506,-1.698904,5.379066,-66.080002,-18.059999,26.6,1729477852142.0,0.0
-4.146761,-7.111469,5.876772,-68.110001,-25.34,41.02,1729477852161.0,0.0
-3.486342,-6.888937,5.517848,-31.639999,-15.75,36.470001,1729477852186.0,0.0
-2.589034,-5.178068,7.326823,1.68,5.6,36.119999,1729477852201.0,0.0
-4.295116,-7.001399,8.60459,-10.22,10.22,28.77,1729477852220.0,0.0
-6.125626,-10.604989,9.992428,-9.8,-2.87,14.0,1729477852240.0,0.0
-6.972685,-10.870593,7.087541,12.81,-7.98,-17.01,1729477852261.0,0.0
-6.494121,-5.615955,5.175675,39.48,10.15,-36.400002,1729477852282.0,0.0
-3.024528,-3.9673,8.109276,40.740002,26.32,-37.380001,1729477852300.0,0.0
-3.381058,-5.460421,8.154739,2.45,4.83,-38.360001,1729477852320.0,0.0
-2.0004,-3.146562,7.872386,20.860001,4.83,-24.85,1729477852341.0,0.0
-2.043471,-1.292124,7.04447,13.86,0.14,-3.85,1729477852361.0,0.0
-1.581656,-1.820938,6.039484,-32.900002,-11.9,19.32,1729477852383.0,0.0
-2.723032,-5.424529,5.474778,-63.700001,-17.85,38.990002,1729477852400.0,0.0
-4.335794,-8.872586,4.902894,-51.240002,-19.809999,38.220001,1729477852420.0,0.0
-3.438486,-6.199803,5.838487,-5.39,5.18,30.59,1729477852441.0,0.0
-3.936193,-5.627919,8.360522,17.15,22.540001,26.74,1729477852460.0,0.0
-5.759524,-8.501699,10.04507,1.47,9.17,15.33,1729477852482.0,0.0
-7.551748,-11.504691,8.79123,17.57,-9.03,-10.22,1729477852500.0,0.0
-7.843673,-7.317252,5.491528,50.889999,4.41,-37.939999,1729477852520.0,0.0
-4.649254,-4.914857,6.632904,61.529999,22.190001,-46.970001,1729477852540.0,0.0
-3.354738,-6.664011,8.274381,50.119999,17.85,-59.150002,1729477852560.0,0.0
-3.548556,-5.091926,8.173882,53.760002,9.1,-61.389999,1729477852581.0,0.0
-1.643869,-1.337588,7.432107,53.48,13.16,-46.200001,1729477852600.0,0.0
-1.318445,-1.789831,6.403193,5.74,-1.68,-25.83,1729477852621.0,0.0
-0.973879,-1.923829,4.421937,-47.740002,-6.72,3.57,1729477852641.0,0.0
-3.448057,-5.218746,6.142376,-19.25,-3.29,27.23,1729477852671.0,0.0
-4.244867,-5.771489,6.67119,2.8,-3.29,26.880001,1729477852683.0,0.0
-2.924029,-3.347559,7.805387,11.97,5.81,33.040001,1729477852700.0,0.0
-3.854837,-5.209175,8.506484,-10.64,-0.21,37.939999,1729477852720.0,0.0
-4.960321,-8.073383,9.049655,-32.34,-7.49,31.08,1729477852741.0,0.0
-5.972485,-11.485549,10.057034,-0.14,-10.78,12.81,1729477852760.0,0.0
-7.068398,-10.332209,8.128418,33.459999,-11.9,-25.9,1729477852782.0,0.0
-6.020342,-5.769095,6.403193,40.950001,-2.03,-48.299999,1729477852808.0,0.0
-4.26401,-5.699703,6.321837,13.72,2.03,-56.0,1729477852821.0,0.0
-3.481557,-6.053841,6.235696,14.21,-0.7,-65.870003,1729477852841.0,0.0
-2.70389,-3.129812,8.013563,56.349998,15.47,-56.07,1729477852861.0,0.0
-2.038685,-1.414158,7.781459,32.689999,2.52,-39.130001,1729477852882.0,0.0
-1.194018,-1.222732,6.321837,-16.450001,-14.07,-16.52,1729477852900.0,0.0
-0.911665,-1.919044,6.396015,-29.82,-17.01,7.98,1729477852920.0,0.0
-1.550549,-2.974278,6.884151,-22.540001,-15.33,23.870001,1729477852941.0,0.0
-2.498107,-3.17049,7.893922,-12.18,-12.11,42.77,1729477852961.0,0.0
-1.641476,-2.74696,8.216952,-23.73,-7.56,53.48,1729477852984.0,0.0
-4.13719,-6.699903,8.037491,-37.59,-9.87,58.939999,1729477853001.0,0.0
-6.065805,-10.200603,7.913064,-18.27,-8.61,46.27,1729477853020.0,0.0
-7.123433,-13.229917,8.743374,32.34,-7.63,7.77,1729477853041.0,0.0
-7.836494,-10.411172,8.449057,73.919998,0.42,-34.369999,1729477853061.0,0.0
-5.441278,-4.819145,6.206983,64.260002,9.17,-57.75,1729477853086.0,0.0
-3.814159,-4.278367,6.348158,30.73,10.85,-63.279999,1729477853100.0,0.0
-2.744568,-1.952543,7.652246,12.67,14.0,-59.290001,1729477853120.0,0.0
-2.021935,-1.304088,8.001599,-2.1,9.66,-36.470001,1729477853141.0,0.0
-0.708275,-1.775474,6.78126,-18.48,-4.83,-13.58,1729477853161.0,0.0
0.193819,-0.842274,5.852845,-13.93,-2.1,12.32,1729477853188.0,0.0
-2.017149,-3.256632,6.709475,-14.63,0.49,36.82,1729477853201.0,0.0
-3.39063,-5.465207,6.652047,-26.25,-3.71,39.970001,1729477853222.0,0.0
-3.182454,-5.819345,8.283953,1.61,12.25,42.84,1729477853242.0,0.0
-4.934,-8.061419,8.721838,9.73,11.97,27.93,1729477853263.0,0.0
-6.608976,-9.446864,10.4016,38.43,18.059999,10.22,1729477853284.0,0.0
-8.796017,-9.609575,10.013963,50.959999,9.1,-25.48,1729477853301.0,0.0
-6.300302,-6.238089,6.518049,47.110001,11.06,-50.330002,1729477853322.0,0.0
-3.706482,-5.580062,6.094519,35.139999,22.26,-65.940002,1729477853342.0,0.0
-2.699104,-2.452643,7.932207,40.880001,28.280001,-66.360001,1729477853362.0,0.0
-2.359323,-0.461815,9.678967,14.77,27.23,-43.400002,1729477853385.0,0.0
-1.445265,-3.428915,7.556533,-26.25,-0.49,-24.57,1729477853402.0,0.0
-0.370888,-2.495714,6.85783,-11.83,-0.35,-11.76,1729477853423.0,0.0
-1.246661,-0.29671,5.749953,-11.69,1.68,10.43,1729477853441.0,0.0
-3.541377,-2.481357,6.955935,-37.170002,-5.53,32.970001,1729477853462.0,0.0
-4.23051,-4.292724,6.762117,-56.0,-17.219999,46.200001,1729477853485.0,0.0
-1.730011,-2.864209,6.788438,-30.1,-9.66,57.959999,1729477853502.0,0.0
-2.964707,-4.721039,8.319844,-16.24,-1.89,66.989998,1729477853526.0,0.0
-6.424729,-9.097511,9.810574,-20.440001,-13.79,56.07,1729477853541.0,0.0
-6.812366,-8.977871,8.487342,12.46,-5.25,29.889999,1729477853561.0,0.0
-7.855636,-7.922636,8.73141,42.07,1.68,-23.52,1729477853593.0,0.0
-5.211568,-5.187639,9.887143,66.360001,15.54,-44.450001,1729477853601.0,0.0
-3.053242,-2.48375,8.518449,70.559998,22.049999,-56.139999,1729477853621.0,0.0
-3.661019,-2.175076,6.893722,58.59,17.639999,-38.990002,1729477853643.0,0.0
-3.85723,-1.718047,7.185646,46.759998,14.91,-29.049999,1729477853662.0,0.0
-3.369094,-1.682154,8.128418,33.740002,10.01,-10.78,1729477853693.0,0.0
-3.629912,-1.947758,9.341579,4.76,0.42,5.6,1729477853701.0,0.0
-3.481557,-1.689333,8.757731,-55.650002,-15.61,24.219999,1729477853721.0,0.0
-3.330809,-2.17029,8.403593,-94.5,-28.559999,40.740002,1729477853741.0,0.0
-3.773481,-1.524228,7.716853,-120.82,-39.130001,56.349998,1729477853762.0,0.0
-4.06062,-2.029114,7.329216,-170.869995,-45.57,69.300003,1729477853783.0,0.0
-3.771089,-3.835695,6.118448,-266.48999,-64.330002,73.989998,1729477853801.0,0.0
-3.5007,-8.145168,4.733003,-342.160004,-89.459999,67.480003,1729477853822.0,0.0
-2.581856,-13.150953,1.452443,-359.23999,-97.440002,37.310001,1729477853841.0,0.0
-1.921437,-15.184854,0.564706,-316.049988,-68.389999,6.86,1729477853863.0,0.0
-1.342373,-14.258829,2.388037,-215.529999,-21.35,-1.89,1729477853884.0,0.0
-1.706082,-9.540184,2.550749,-133.630005,24.85,-22.120001,1729477853901.0,0.0
-2.232504,-7.707282,2.854637,-104.790001,38.5,-40.040001,1729477853921.0,0.0
-2.158326,-6.951149,2.579463,-122.5,30.030001,-37.029999,1729477853941.0,0.0
-2.505285,-7.269395,2.352145,-136.009995,21.49,-26.880001,1729477853961.0,0.0
-2.54357,-8.673983,2.739782,-119.07,5.6,-15.61,1729477853983.0,0.0
-2.634498,-8.571091,4.070191,-53.130001,-8.61,-10.57,1729477854001.0,0.0
-2.897708,-7.984849,4.316652,70.629997,-15.190001,10.22,1729477854021.0,0.0
-2.931208,-4.733003,6.003592,146.649994,3.29,26.389999,1729477854041.0,0.0
-3.649055,-2.301895,5.163712,94.080002,-11.13,38.849998,1729477854061.0,0.0
-4.070191,-3.737589,4.23051,10.85,-37.029999,60.619999,1729477854082.0,0.0
-4.328616,-7.24786,3.254239,-47.599998,-50.82,75.739998,1729477854100.0,0.0
-6.171089,-11.291731,3.091527,-64.470001,-55.510002,73.360001,1729477854121.0,0.0
-7.771888,-14.158331,2.723032,-81.760002,-52.849998,53.619999,1729477854142.0,0.0
-7.999206,-15.069997,1.741975,-118.790001,-30.799999,12.39,1729477854162.0,0.0
-6.778866,-13.756337,-1.196411,-141.399994,5.25,-32.27,1729477854188.0,0.0
-4.957928,-13.835299,-1.258625,-79.730003,24.01,-53.130001,1729477854202.0,0.0
-3.515057,-11.854043,-0.133998,-14.28,46.41,-79.169998,1729477854221.0,0.0
-1.962115,-5.709275,2.313859,13.65,52.150002,-69.440002,1729477854241.0,0.0
-1.962115,-4.699504,5.687739,49.420002,19.879999,-36.889999,1729477854262.0,0.0
2.306681,-4.244867,4.859823,76.510002,-7.91,-23.030001,1729477854284.0,0.0
0.133998,-3.641876,6.479764,53.760002,-3.08,-1.12,1729477854301.0,0.0
-2.775674,-5.783452,4.725825,-22.190001,-27.790001,15.89,1729477854321.0,0.0
-2.916851,-8.250452,1.409373,-66.080002,-46.970001,18.620001,1729477854341.0,0.0
-1.998007,-7.678568,-0.57667,-38.5,-46.130001,36.68,1729477854362.0,0.0
-3.828516,-9.946963,0.579063,13.86,-38.290001,51.099998,1729477854383.0,0.0
-5.912664,-10.602598,0.440279,11.97,-45.849998,40.389999,1729477854401.0,0.0
-6.829116,-13.481163,2.478964,-10.78,-35.0,35.91,1729477854422.0,0.0
-6.436693,-16.211372,0.210568,-56.490002,-18.549999,-8.96,1729477854441.0,0.0
-4.491328,-13.574483,-0.591027,-48.860001,8.75,-26.460001,1729477854461.0,0.0
-4.309474,-11.47837,1.385444,19.389999,43.68,-42.630001,1729477854484.0,0.0
-4.845466,-10.559525,2.143969,28.42,48.509998,-60.34,1729477854500.0,0.0
-3.491128,-6.738188,2.275574,-16.799999,45.43,-67.129997,1729477854521.0,0.0
-0.897308,-5.391029,7.051648,5.67,18.620001,-42.209999,1729477854542.0,0.0
1.928615,-3.799802,6.563512,40.740002,-9.17,-32.970001,1729477854562.0,0.0
0.117248,-3.194418,5.953342,25.41,-14.42,14.14,1729477854583.0,0.0
-1.651048,-6.168696,2.610569,-42.490002,-25.41,35.209999,1729477854602.0,0.0
-2.545963,-7.850852,-0.102891,-79.099998,-41.790001,44.029999,1729477854621.0,0.0
-1.782653,-7.960921,-1.854438,-21.139999,-45.57,65.800003,1729477854641.0,0.0
-5.008178,-12.303895,-0.208176,27.02,-32.549999,68.669998,1729477854661.0,0.0
-7.424929,-14.502897,1.208375,34.580002,-28.280001,52.290001,1729477854682.0,0.0
-7.810174,-15.783059,0.117248,10.36,-3.29,16.24,1729477854701.0,0.0
-6.482157,-13.07199,-0.990629,-22.610001,19.110001,-22.120001,1729477854721.0,0.0
-4.938786,-11.765509,1.179662,32.619999,37.029999,-40.32,1729477854740.0,0.0
-4.249653,-10.30828,3.486342,74.970001,46.130001,-54.459999,1729477854761.0,0.0
-3.677768,-8.523234,5.268995,63.84,43.470001,-62.299999,1729477854783.0,0.0
-2.021935,-4.381258,4.622933,9.87,31.01,-48.23,1729477854800.0,0.0
-0.251246,-5.419744,6.795617,-12.18,8.33,-31.710001,1729477854821.0,0.0
1.067199,-4.802395,4.644469,-17.290001,-19.25,-25.48,1729477854841.0,0.0
-0.325424,-4.359723,5.07757,3.29,-13.86,10.5,1729477854861.0,0.0
-1.801795,-5.15414,2.868994,-31.99,-23.1,29.75,1729477854882.0,0.0
-3.113062,-7.482357,-1.201197,-75.25,-35.560001,35.77,1729477854901.0,0.0
-1.933401,-7.963314,-1.177269,-20.02,-35.84,57.330002,1729477854921.0,0.0
-4.59422,-13.411771,0.68674,30.73,-26.74,59.990002,1729477854941.0,0.0
-6.436693,-14.754145,1.598405,41.439999,-19.879999,36.75,1729477854962.0,0.0
-6.908078,-14.754145,1.938186,16.17,4.27,6.65,1729477854982.0,0.0
-5.558527,-12.952348,0.713061,-25.27,18.41,-25.059999,1729477855000.0,0.0
-4.273581,-12.045469,1.85683,6.23,34.509998,-46.900002,1729477855021.0,0.0
-4.424329,-10.734202,3.816552,29.26,47.040001,-62.790001,1729477855041.0,0.0
-4.04387,-8.738588,4.565506,4.48,42.700001,-73.919998,1729477855061.0,0.0
-2.115255,-8.403593,2.87378,-9.1,35.139999,-74.690002,1729477855085.0,0.0
-0.837488,-8.626125,4.309474,26.74,24.92,-73.080002,1729477855099.0,0.0
0.160319,-3.337988,4.996214,98.139999,14.63,-51.380001,1729477855121.0,0.0
0.337388,-2.234896,6.477371,88.620003,4.13,-18.48,1729477855141.0,0.0
0.399601,-4.302295,3.940979,-23.799999,-17.85,0.56,1729477855161.0,0.0
-0.827917,-8.520842,1.849652,-75.110001,-23.24,19.389999,1729477855185.0,0.0
-0.957129,-9.114261,-0.308674,-43.189999,-27.23,33.25,1729477855201.0,0.0
-0.870987,-8.370094,-0.452243,29.75,-18.690001,50.540001,1729477855221.0,0.0
-5.340781,-12.136396,2.648855,64.75,-10.5,58.380001,1729477855241.0,0.0
-7.740781,-15.644274,3.034099,5.67,-14.91,34.790001,1729477855262.0,0.0
-7.04447,-16.340586,2.711068,-42.139999,-6.93,-27.23,1729477855283.0,0.0
-4.479364,-11.62194,1.454836,-35.98,19.6,-46.41,1729477855300.0,0.0
-4.4339,-9.659825,3.567699,-0.28,34.439999,-72.029999,1729477855321.0,0.0
-3.421736,-7.365108,3.278167,-22.540001,32.619999,-72.730003,1729477855340.0,0.0
-0.600598,-7.788638,4.261617,3.22,11.9,-72.239998,1729477855362.0,0.0
0.794417,-4.82393,4.876573,60.760002,12.46,-55.439999,1729477855382.0,0.0
-0.251246,-2.536392,6.26441,74.480003,10.78,-13.79,1729477855400.0,0.0
-0.736989,-3.897908,4.862216,-25.9,-9.38,3.43,1729477855421.0,0.0
-0.579063,-8.001599,2.352145,-102.690002,-28.49,18.549999,1729477855440.0,0.0
0.100499,-9.202796,-0.600598,-72.519997,-34.439999,30.17,1729477855461.0,0.0
-0.612563,-8.848659,-0.502493,6.86,-23.309999,45.360001,1729477855483.0,0.0
-2.778067,-9.540184,0.196211,42.490002,-18.059999,52.009998,1729477855500.0,0.0
-5.185246,-12.526425,1.162912,11.55,-19.25,50.049999,1729477855521.0,0.0
-7.008578,-18.513268,1.600798,-19.460001,-17.639999,10.78,1729477855541.0,0.0
-4.04387,-12.483356,0.641276,-36.400002,5.81,-32.759998,1729477855562.0,0.0
-3.141776,-10.707881,2.957529,10.43,31.08,-62.860001,1729477855582.0,0.0
-2.79721,-7.515855,3.567699,15.190001,46.34,-63.77,1729477855600.0,0.0
-1.249053,-5.190032,5.254639,9.66,35.209999,-56.630001,1729477855622.0,0.0
1.962115,-5.199604,6.218946,46.200001,7.56,-49.209999,1729477855641.0,0.0
1.198804,-2.471786,6.24766,49.209999,10.43,-12.46,1729477855660.0,0.0
0.184247,-3.562913,4.752146,-3.5,-0.21,17.43,1729477855682.0,0.0
-1.385444,-7.116255,2.517249,-95.129997,-16.870001,28.07,1729477855700.0,0.0
-1.421337,-8.910872,0.351745,-88.199997,-31.780001,38.639999,1729477855720.0,0.0
-0.693919,-7.944171,0.421137,-2.45,-26.389999,52.709999,1729477855740.0,0.0
-1.823331,-8.415558,1.064806,45.990002,-22.540001,64.330002,1729477855760.0,0.0
-4.45065,-10.916058,1.397408,32.619999,-29.960001,70.559998,1729477855782.0,0.0
-6.867401,-15.77588,1.698904,-9.24,-32.759998,55.580002,1729477855800.0,0.0
-6.65444,-18.405592,0.174676,-63.139999,-23.1,8.61,1729477855821.0,0.0
-4.304688,-15.591633,-0.851845,-53.200001,16.450001,-28.700001,1729477855841.0,0.0
-3.85723,-13.323236,0.98345,1.68,48.580002,-53.130001,1729477855861.0,0.0
-3.531806,-10.439885,2.476572,12.04,65.800003,-73.290001,1729477855882.0,0.0
-1.612763,-6.551548,3.476771,11.69,61.670002,-66.57,1729477855900.0,0.0
0.354138,-4.65404,6.673582,41.860001,34.580002,-48.720001,1729477855921.0,0.0
1.787439,-2.349752,6.616155,90.370003,17.710001,-13.16,1729477855941.0,0.0
0.473779,-3.256632,6.905686,68.739998,9.94,14.28,1729477855960.0,0.0
-0.794417,-4.893322,4.878965,-38.990002,-14.63,29.33,1729477855982.0,0.0
-0.394816,-7.032506,1.548156,-82.669998,-37.52,47.950001,1729477856000.0,0.0
-0.789631,-8.451449,0.236889,-56.0,-45.57,60.41,1729477856021.0,0.0
-2.691926,-10.480563,-0.337388,-14.0,-44.099998,71.540001,1729477856091.0,0.0
-5.728417,-14.189439,0.315853,-7.98,-43.610001,63.91,1729477856096.0,0.0
-7.003791,-18.384056,0.827917,-6.79,-33.389999,30.52,1729477856096.0,0.0
-5.474778,-15.723237,-0.658026,-18.549999,2.8,-10.64,1729477856103.0,0.0
-4.759324,-12.610175,0.9667,-0.77,30.17,-36.049999,1729477856120.0,0.0
-4.84068,-11.32523,2.277967,3.57,43.400002,-58.799999,1729477856140.0,0.0
-3.677768,-9.262616,4.962714,-3.5,41.93,-70.769997,1729477856161.0,0.0
-1.579263,-6.285945,3.199204,-0.49,40.18,-60.48,1729477856185.0,0.0
-0.351745,-4.941179,4.144369,-2.17,27.860001,-46.689999,1729477856200.0,0.0
1.777867,-4.675575,5.343173,43.68,1.12,-35.139999,1729477856220.0,0.0
-0.20339,-5.441278,4.85743,57.400002,3.64,3.08,1729477856240.0,0.0
-0.861416,-6.324231,2.586641,-30.450001,-24.290001,19.32,1729477856260.0,0.0
-0.356531,-6.927221,0.78006,-34.439999,-33.25,36.959999,1729477856281.0,0.0
-0.868595,-7.329216,-0.557528,-4.69,-32.759998,49.98,1729477856299.0,0.0
-2.971886,-9.829715,-1.026521,6.51,-30.870001,62.439999,1729477856320.0,0.0
-6.690332,-15.656239,1.765903,3.57,-34.650002,52.009998,1729477856340.0,0.0
-6.415157,-17.350357,2.294717,-6.79,-24.43,19.809999,1729477856360.0,0.0
-5.039285,-13.57209,0.090927,-36.82,7.35,-15.33,1729477856381.0,0.0
-5.187639,-12.423534,1.124627,-21.280001,24.15,-38.009998,1729477856401.0,0.0
-4.618148,-12.14836,2.701497,0.14,36.470001,-59.57,1729477856420.0,0.0
-2.974278,-8.714661,4.048656,18.41,45.920002,-68.25,1729477856439.0,0.0
-1.969293,-4.639683,3.773481,8.4,48.509998,-55.369999,1729477856461.0,0.0
-0.052642,-5.302495,5.304887,-4.27,19.25,-40.810001,1729477856491.0,0.0
2.07697,-5.4676,5.424529,22.82,3.5,-30.030001,1729477856500.0,0.0
1.292124,-4.838287,5.283352,48.720001,1.61,7.91,1729477856520.0,0.0
0.16989,-6.38405,3.5007,-11.55,-18.27,17.5,1729477856540.0,0.0
-0.174676,-7.755138,1.61037,-49.700001,-35.84,30.309999,1729477856561.0,0.0
-0.244068,-7.109076,0.476172,-5.11,-38.5,47.389999,1729477856584.0,0.0
-2.62732,-9.171689,-0.327817,22.469999,-37.66,66.010002,1729477856600.0,0.0
-6.159126,-13.92862,0.830309,14.7,-39.549999,59.990002,1729477856620.0,0.0
-6.788438,-16.886148,1.182054,10.92,-24.15,32.689999,1729477856641.0,0.0
-5.383851,-13.619946,1.115055,-29.26,4.97,-2.03,1729477856661.0,0.0
-4.790431,-10.937593,1.371087,-43.889999,26.950001,-20.440001,1729477856681.0,0.0
-4.878965,-12.897314,1.328017,-18.059999,32.759998,-38.990002,1729477856700.0,0.0
-4.101298,-11.191232,0.736989,-3.29,47.459999,-51.66,1729477856719.0,0.0
-2.928815,-9.219545,2.364109,16.030001,54.740002,-55.790001,1729477856740.0,0.0
-1.612763,-6.534799,2.459821,10.57,65.309998,-54.389999,1729477856760.0,0.0
-0.241675,-5.020142,3.907479,1.19,55.650002,-41.439999,1729477856781.0,0.0
2.249253,-4.39083,7.008578,19.74,18.620001,-24.5,1729477856801.0,0.0
1.48355,-5.087141,7.886744,37.380001,5.88,8.82,1729477856821.0,0.0
-0.928415,-6.649654,6.233303,-7.0,-19.74,17.5,1729477856839.0,0.0
-0.868595,-7.738388,2.89053,-65.940002,-48.02,25.83,1729477856861.0,0.0
-0.488136,-7.913064,-0.514457,-70.349998,-56.560001,40.040001,1729477856882.0,0.0
-1.320838,-9.257831,-1.947758,-25.34,-54.459999,48.860001,1729477856901.0,0.0
-4.673182,-11.169697,-1.452443,22.33,-45.080002,67.480003,1729477856920.0,0.0
-7.456036,-16.692331,1.342373,16.940001,-24.290001,40.389999,1729477856940.0,0.0
-5.991628,-16.551155,0.507278,-24.15,-7.0,0.28,1729477856960.0,0.0
-4.737789,-13.737194,0.772882,-13.86,27.02,-31.710001,1729477856981.0,0.0
-5.261817,-11.765509,2.591427,18.48,48.299999,-51.310001,1729477857000.0,0.0
-4.122833,-8.030313,3.053242,-0.14,52.5,-63.700001,1729477857020.0,0.0
-1.880759,-5.568098,3.797409,-3.78,46.619999,-56.139999,1729477857040.0,0.0
-0.122034,-4.177868,6.345766,3.57,28.77,-46.060001,1729477857061.0,0.0
1.335195,-1.954936,6.838687,28.35,5.32,-12.81,1729477857081.0,0.0
0.4666,-4.206582,5.776274,6.09,-12.74,17.710001,1729477857099.0,0.0
-1.710868,-7.659425,2.541178,-83.510002,-32.689999,28.280001,1729477857121.0,0.0
-1.651048,-8.886944,-1.514657,-99.400002,-51.59,37.029999,1729477857141.0,0.0
-1.301696,-9.212367,-3.474378,-35.490002,-46.34,50.330002,1729477857159.0,0.0
-2.799603,-10.566705,-2.924029,26.74,-32.130001,60.970001,1729477857185.0,0.0
-5.730811,-13.591233,-0.583849,34.860001,-17.57,56.279999,1729477857201.0,0.0
-7.972885,-18.362522,1.600798,-21.42,-11.76,14.0,1729477857219.0,0.0
-4.9675,-15.471991,0.191426,-65.870003,7.35,-26.809999,1729477857241.0,0.0
-4.199404,-11.97847,1.878366,18.34,38.150002,-56.07,1729477857261.0,0.0
-3.476771,-7.63789,2.526821,8.12,39.830002,-61.810001,1729477857281.0,0.0
-0.808774,-6.008378,5.706882,27.58,27.65,-54.389999,1729477857300.0,0.0
1.725225,-2.835495,7.152147,35.349998,0.49,-37.939999,1729477857320.0,0.0
1.698904,-1.98365,6.175875,10.64,-17.57,-2.31,1729477857341.0,0.0
0.681954,-5.206782,2.87378,-55.02,-34.650002,22.049999,1729477857360.0,0.0
-0.449851,-9.265009,0.416351,-106.540001,-47.040001,35.84,1729477857392.0,0.0
-0.191426,-9.724431,-2.883351,-71.400002,-46.830002,44.52,1729477857399.0,0.0
-0.358923,-8.049455,-3.744767,30.870001,-25.9,64.190002,1729477857419.0,0.0
-2.751746,-9.487542,-2.261217,81.830002,2.87,79.730003,1729477857441.0,0.0
-6.415157,-12.930815,1.629512,62.299999,5.88,70.699997,1729477857460.0,0.0
-8.51127,-16.096518,4.335794,-0.21,-5.81,49.07,1729477857492.0,0.0
-7.128219,-14.634504,-0.897308,-113.330002,3.5,6.09,1729477857499.0,0.0
-5.608776,-13.964513,-1.854438,-74.550003,18.83,-30.52,1729477857521.0,0.0
-5.563312,-12.047862,0.294317,19.32,46.200001,-48.02,1729477857540.0,0.0
-5.290531,-8.714661,2.096112,36.470001,62.23,-58.380001,1729477857560.0,0.0
-0.378066,-7.590034,5.32403,18.27,46.48,-59.639999,1729477857582.0,0.0
1.395016,-4.855037,6.479764,34.860001,12.74,-45.360001,1729477857600.0,0.0
1.122234,-2.679961,5.71406,9.73,-9.24,-13.23,1729477857619.0,0.0
0.89013,-4.802395,3.127419,-57.260002,-34.720001,11.76,1729477857639.0,0.0
-0.425922,-8.472985,0.256032,-89.669998,-45.080002,27.23,1729477857661.0,0.0
-1.268196,-8.705089,-2.98385,-64.68,-50.400002,41.02,1729477857682.0,0.0
-1.569692,-8.183454,-4.596612,-2.87,-40.670002,56.91,1729477857699.0,0.0
-5.522634,-14.093725,-1.813759,20.860001,-28.210001,58.450001,1729477857719.0,0.0
-8.46102,-18.300308,-1.045663,11.83,-29.049999,31.08,1729477857739.0,0.0
-6.333801,-14.811572,-2.835495,-4.2,14.63,-8.54,1729477857760.0,0.0
-5.12782,-13.280167,-2.244468,1.54,34.720001,-43.610001,1729477857781.0,0.0
-4.436293,-12.370893,1.019342,51.52,49.84,-63.07,1729477857801.0,0.0
-4.565506,-8.549555,2.828316,61.18,64.190002,-68.879997,1729477857819.0,0.0
-2.569891,-5.402994,6.367301,50.82,40.529999,-64.959999,1729477857840.0,0.0
0.31346,-4.405186,5.883951,51.799999,10.29,-59.290001,1729477857860.0,0.0
0.634098,-2.402394,6.407979,16.030001,-2.38,-29.889999,1729477857881.0,0.0
1.249053,-2.175076,4.331009,-29.190001,-22.68,-29.889999,1729477857901.0,0.0
-1.5003,-7.920243,1.258625,-81.830002,-34.23,29.960001,1729477857919.0,0.0
-1.349552,-8.796017,-2.711068,-87.5,-60.060001,45.779999,1729477857940.0,0.0
-0.954736,-8.30788,-5.577669,-25.34,-46.970001,66.849998,1729477857960.0,0.0
-3.902694,-12.784851,-4.414758,15.26,-21.0,79.239998,1729477857984.0,0.0
-8.652447,-18.786051,0.162712,6.37,-8.89,47.880001,1729477857999.0,0.0
-6.489335,-15.524633,-1.292124,-9.87,33.18,16.24,1729477858020.0,0.0
-5.149354,-12.370893,-1.239482,-3.92,58.029999,-17.780001,1729477858039.0,0.0
-6.032306,-12.784851,0.411566,11.97,67.970001,-43.959999,1729477858061.0,0.0
-5.740381,-9.719646,1.883151,-0.84,77.840004,-59.5,1729477858082.0,0.0
-3.074777,-5.395815,3.632305,-4.76,63.139999,-54.880001,1729477858098.0,0.0
0.844666,-6.568298,3.254239,50.400002,17.85,-48.580002,1729477858120.0,0.0
0.631705,-4.134798,6.240481,53.760002,19.32,-30.309999,1729477858140.0,0.0
1.131805,-2.897708,4.297509,23.17,-8.54,-2.73,1729477858160.0,0.0
0.069392,-6.305088,3.385844,-32.759998,-30.59,21.35,1729477858185.0,0.0
-1.495514,-8.977871,0.947558,-72.379997,-44.170002,27.23,1729477858199.0,0.0
-1.272982,-9.286544,-2.885744,-50.049999,-59.010002,38.009998,1729477858219.0,0.0
-1.071985,-9.487542,-5.036892,-0.42,-54.599998,53.130001,1729477858240.0,0.0
-7.647461,-16.663616,-0.16989,-13.3,-33.25,52.220001,1729477858260.0,0.0
-9.008978,-18.568304,-1.679761,-55.09,-15.190001,2.03,1729477858280.0,0.0
-4.862216,-14.390435,-2.218147,-7.84,41.439999,-26.809999,1729477858298.0,0.0
-4.539185,-11.34198,0.557528,65.519997,56.98,-50.889999,1729477858327.0,0.0
-5.319244,-9.066404,3.053242,70.910004,63.420002,-60.619999,1729477858341.0,0.0
-2.428715,-6.049056,3.275774,19.460001,44.52,-62.860001,1729477858361.0,0.0
0.698704,-5.266603,5.32403,3.29,17.92,-41.439999,1729477858382.0,0.0
2.682354,-3.206382,5.776274,28.07,-9.1,-27.09,1729477858400.0,0.0
0.964308,-2.837888,4.742575,20.09,-12.18,17.639999,1729477858419.0,0.0
-1.663012,-6.903293,2.665605,-50.400002,-33.32,30.17,1729477858441.0,0.0
-2.682354,-10.267602,-1.782653,-113.959999,-55.439999,32.34,1729477858461.0,0.0
-1.371087,-9.930215,-5.355137,-76.580002,-56.07,43.189999,1729477858482.0,0.0
-1.533799,-10.329816,-5.525027,10.99,-30.66,58.939999,1729477858500.0,0.0
-5.898308,-12.993028,-4.022335,40.529999,3.29,56.490002,1729477858520.0,0.0
-10.490135,-19.360327,0.378066,43.82,14.0,20.58,1729477858539.0,0.0
-4.969893,-12.990634,-0.272782,29.4,50.400002,-36.75,1729477858562.0,0.0
-3.885944,-10.832308,1.115055,55.790001,53.830002,-65.590004,1729477858582.0,0.0
-3.991228,-9.839286,3.74716,51.939999,55.580002,-68.459999,1729477858600.0,0.0
-2.230111,-6.089733,1.655833,5.04,43.540001,-70.629997,1729477858622.0,0.0
-0.926022,-8.54477,5.513064,20.09,21.0,-55.439999,1729477858640.0,0.0
-0.217747,-4.898108,4.689932,26.25,11.62,-57.400002,1729477858660.0,0.0
-2.115255,-2.612962,5.556134,27.93,2.52,-18.9,1729477858683.0,0.0
-3.39063,-1.579263,5.718846,-47.32,-31.710001,-7.98,1729477858701.0,0.0
-3.06042,-4.582255,3.45045,-146.089996,-75.949997,6.72,1729477858721.0,0.0
-2.318645,-7.377072,-0.275175,-255.149994,-107.449997,8.33,1729477858741.0,0.0
-1.847259,-9.013763,-3.34038,-293.860016,-122.010002,7.14,1729477858761.0,0.0
-1.777867,-10.370493,-5.417351,-278.25,-123.970001,7.28,1729477858783.0,0.0
-2.254039,-12.409179,-8.408379,-242.059998,-108.220001,-3.57,1729477858801.0,0.0
-2.962314,-13.13181,-7.836494,-182.419998,-83.720001,-14.84,1729477858821.0,0.0
-1.971686,-10.894521,-4.130012,-74.410004,-61.110001,-2.31,1729477858841.0,0.0
-1.024128,-9.865608,-3.156133,29.610001,-48.860001,-1.68,1729477858861.0,0.0
-0.959522,-8.810372,-3.517449,-28.0,-27.09,-10.78,1729477858884.0,0.0
-0.916451,-7.652246,-4.235296,-114.870003,-16.17,-14.35,1729477858901.0,0.0
-0.741775,-7.01097,-4.800002,-200.270004,-15.75,-10.36,1729477858921.0,0.0
-0.976272,-7.274181,-6.221339,-265.440002,-11.27,-8.96,1729477858941.0,0.0
-1.643869,-8.252845,-7.719246,-277.970001,-0.14,-7.0,1729477858961.0,0.0
-2.036292,-8.671589,-8.989835,-246.960007,8.26,-5.53,1729477858982.0,0.0
-2.18704,-8.578269,-8.84148,-203.070007,16.799999,-7.21,1729477859001.0,0.0
-2.349752,-8.4012,-8.391629,-162.190002,23.66,-7.7,1729477859020.0,0.0
-2.464607,-7.384251,-8.403593,-134.960007,27.65,-10.57,1729477859046.0,0.0
-2.801995,-6.927221,-8.513663,-118.580002,32.900002,-12.32,1729477859062.0,0.0
-3.732803,-7.73121,-5.953342,-101.639999,33.459999,-15.12,1729477859082.0,0.0
-3.515057,-8.425128,-4.704289,-42.91,19.110001,-23.52,1729477859101.0,0.0
-3.07717,-5.429315,-4.220939,-59.290001,2.1,-36.400002,1729477859121.0,0.0
-3.110669,-4.275974,-5.850451,-58.939999,-13.72,-38.57,1729477859141.0,0.0
-2.87378,-3.457629,-9.042477,-54.740002,-26.460001,-39.689999,1729477859163.0,0.0
-1.320838,-2.120041,-10.327423,-60.900002,-33.950001,-43.889999,1729477859186.0,0.0
-0.129212,-0.959522,-10.851451,-48.23,-31.08,-27.440001,1729477859200.0,0.0
-0.150748,0.617348,-10.614561,-32.200001,-18.27,-9.24,1729477859221.0,0.0
-1.007378,0.200997,-10.444671,-20.93,-6.44,16.73,1729477859241.0,0.0
-1.028914,-2.07697,-10.289137,-24.43,-3.78,37.66,1729477859262.0,0.0
-1.682154,-3.213561,-11.148161,-33.110001,6.86,54.389999,1729477859282.0,0.0
-2.957529,-7.585248,-9.946963,-30.940001,22.889999,64.120003,1729477859301.0,0.0
-3.830909,-8.85105,-8.583055,-21.98,28.91,51.170002,1729477859320.0,0.0
-2.902494,-7.915457,-9.903893,-18.129999,25.83,33.740002,1729477859341.0,0.0
-2.804388,-8.449057,-7.221539,-2.87,28.07,20.299999,1729477859362.0,0.0
-3.062813,-9.997212,-6.242875,12.39,26.74,-3.57,1729477859383.0,0.0
-1.083949,-6.575477,-6.04427,26.110001,-0.14,-32.48,1729477859401.0,0.0
-1.251446,-1.902294,-6.352944,34.369999,-10.43,-39.200001,1729477859420.0,0.0
-1.26341,-2.414358,-7.879565,-4.34,-22.4,-36.889999,1729477859442.0,0.0
-0.739382,-2.986243,-9.801002,-31.99,-32.619999,-38.5,1729477859462.0,0.0
-1.423729,-1.162912,-11.253445,-40.32,-23.940001,-37.939999,1729477859482.0,0.0
-1.789831,-0.856631,-11.334801,-35.209999,-10.15,-17.08,1729477859500.0,0.0
-1.954936,-2.718246,-10.387242,-26.950001,5.32,16.24,1729477859521.0,0.0
-2.799603,-3.376273,-9.643075,-21.700001,10.36,26.74,1729477859540.0,0.0
-4.223332,-6.254838,-9.561719,-13.58,16.030001,30.450001,1729477859560.0,0.0
-3.95055,-7.575676,-10.669596,-7.77,17.710001,20.93,1729477859582.0,0.0
-1.804188,-7.738388,-10.238889,20.719999,18.41,10.64,1729477859600.0,0.0
-0.507278,-6.71426,-7.350751,68.389999,20.860001,-2.31,1729477859620.0,0.0
-1.100698,-3.464807,-6.178268,73.639999,23.24,-13.93,1729477859640.0,0.0
-2.019542,-3.629912,-6.726225,33.810001,18.34,-15.54,1729477859660.0,0.0
-0.959522,-4.759324,-6.707082,11.62,-2.87,-18.83,1729477859683.0,0.0
-0.284746,-3.491128,-7.956135,25.690001,-17.710001,-24.780001,1729477859701.0,0.0
-1.529014,-1.167697,-9.059227,22.049999,-13.51,-21.98,1729477859721.0,0.0
-2.354537,-0.409173,-10.667203,-26.6,-9.66,-14.56,1729477859740.0,0.0
-2.057827,-3.235096,-10.243673,-46.48,-7.98,3.29,1729477859761.0,0.0
-1.579263,-3.869194,-10.140782,-21.42,-4.41,13.72,1729477859781.0,0.0
-1.31366,-4.579862,-10.167104,19.389999,0.56,21.77,1729477859800.0,0.0
-1.722832,-6.072984,-9.772287,22.33,9.94,22.049999,1729477859821.0,0.0
-2.007578,-6.539584,-9.987641,23.52,15.82,16.870001,1729477859840.0,0.0
-1.057628,-7.171289,-8.475377,49.420002,21.139999,1.47,1729477859861.0,0.0
-0.741775,-7.858029,-7.479963,52.360001,22.68,-19.32,1729477859882.0,0.0
-1.574477,-5.338387,-6.285945,49.98,20.299999,-31.780001,1729477859900.0,0.0
-2.117648,-2.818745,-7.226324,18.129999,15.61,-36.889999,1729477859921.0,0.0
-0.370888,-4.424329,-8.396415,1.33,-5.81,-34.09,1729477859940.0,0.0
0.150748,-2.545963,-7.89153,10.64,-19.389999,-28.49,1729477859961.0,0.0
-2.419144,-1.627119,-8.595018,-13.58,1.4,-19.950001,1729477859982.0,0.0
-3.055635,-2.160719,-9.329616,-37.869999,-1.33,-6.44,1729477860000.0,0.0
-1.028914,-2.715853,-9.176475,-40.18,-14.49,7.42,1729477860021.0,0.0
-0.617348,-6.13759,-8.798409,-41.369999,-10.01,12.25,1729477860041.0,0.0
-1.883151,-5.510671,-9.363115,-30.1,0.77,11.9,1729477860061.0,0.0
-3.395415,-4.146761,-9.812965,-22.469999,12.81,13.93,1729477860082.0,0.0
-2.782853,-6.056234,-9.547362,-16.450001,13.440001,19.67,1729477860100.0,0.0
-0.770489,-7.04447,-7.724032,6.44,8.05,18.690001,1729477860121.0,0.0
-0.366102,-6.640083,-6.867401,14.42,6.3,8.61,1729477860141.0,0.0
-1.17009,-4.989035,-6.530013,-4.83,5.74,-6.23,1729477860161.0,0.0
-1.115055,-4.409972,-7.965706,-6.3,-9.38,-13.58,1729477860186.0,0.0
-1.514657,-3.132205,-8.599805,3.08,-20.58,-17.290001,1729477860200.0,0.0
-2.572284,-2.108077,-9.006584,-33.18,-18.200001,-15.12,1729477860221.0,0.0
-2.478964,-3.335595,-10.097712,-56.84,-19.25,-10.5,1729477860241.0,0.0
-0.909273,-2.275574,-11.210374,-38.5,-21.84,-0.56,1729477860261.0,0.0
-0.653241,-3.481557,-10.380065,-23.17,-13.440001,11.97,1729477860282.0,0.0
-2.574677,-4.333402,-10.250853,-28.07,3.22,18.690001,1729477860301.0,0.0
-3.180061,-5.67099,-10.298709,-23.1,8.61,20.440001,1729477860321.0,0.0
-1.210768,-7.276574,-9.590433,-1.89,5.67,15.12,1729477860342.0,0.0
-0.047856,-7.755138,-8.530413,31.43,5.95,1.47,1729477860368.0,0.0
-0.595813,-5.60399,-6.221339,54.670002,6.44,-17.219999,1729477860384.0,0.0
-1.734797,-3.270989,-6.204589,42.279999,-1.68,-23.450001,1729477860401.0,0.0
-1.600798,-3.290131,-7.089933,10.92,-18.690001,-20.370001,1729477860422.0,0.0
-2.105684,-2.584249,-8.214561,-3.43,-26.809999,-14.49,1729477860440.0,0.0
-3.177669,-1.818545,-9.736395,-26.950001,-20.16,-12.95,1729477860461.0,0.0
-1.430908,-2.981457,-11.442478,-49.91,-20.09,-8.05,1729477860484.0,0.0
-1.622334,-2.397608,-11.662617,-26.67,-8.54,7.07,1729477860501.0,0.0
-3.419343,-3.48395,-9.911072,-10.08,8.26,23.870001,1729477860521.0,0.0
-4.022335,-5.795416,-9.138189,-20.440001,16.66,28.559999,1729477860541.0,0.0
-1.919044,-7.582855,-9.47797,-21.210001,12.25,22.33,1729477860561.0,0.0
-0.334995,-7.721639,-9.516255,16.59,6.72,6.65,1729477860584.0,0.0
-0.79681,-5.675776,-7.767102,68.669998,7.63,-12.95,1729477860601.0,0.0
-1.710868,-3.39063,-6.151947,55.580002,6.51,-26.530001,1729477860621.0,0.0
-1.694118,-4.07737,-6.118448,22.190001,-13.37,-29.120001,1729477860641.0,0.0
-2.213361,-2.091327,-6.707082,5.81,-24.15,-32.759998,1729477860662.0,0.0
-3.172883,-0.717847,-8.578269,-36.959999,-27.860001,-34.439999,1729477860693.0,0.0
-3.211168,-1.395016,-10.758131,-79.309998,-27.719999,-30.309999,1729477860701.0,0.0
-1.986043,-1.641476,-12.028719,-85.540001,-22.33,-19.389999,1729477860722.0,0.0
-1.270589,-2.007578,-11.889936,-50.82,-10.01,0.42,1729477860741.0,0.0
-1.722832,-2.294717,-11.251052,-25.9,5.88,20.440001,1729477860761.0,0.0
-2.624927,-2.871387,-10.523634,-11.62,17.710001,38.009998,1729477860793.0,0.0
-2.251646,-8.078169,-8.535198,-30.940001,21.07,38.849998,1729477860802.0,0.0
-0.208176,-9.963714,-8.583055,-10.08,6.93,21.0,1729477860823.0,0.0
-0.289532,-7.111469,-7.982457,36.119999,8.4,-5.11,1729477860843.0,0.0
-1.619941,-4.06062,-7.022934,63.98,7.84,-17.92,1729477860863.0,0.0
-2.445465,-3.096312,-6.297909,53.130001,-6.44,-21.49,1729477860884.0,0.0
-3.52702,-3.113062,-7.32443,19.32,-13.65,-22.33,1729477860904.0,0.0
-2.76371,-2.916851,-9.181261,-7.49,-25.9,-27.299999,1729477860922.0,0.0
-1.777867,-1.033699,-10.719845,-11.76,-29.33,-31.639999,1729477860944.0,0.0
-1.895115,0.914058,-11.150554,-5.46,-19.18,-14.49,1729477860963.0,0.0
-2.447858,-0.021535,-10.779665,-8.47,-6.72,17.43,1729477860984.0,0.0
-3.134598,-2.732604,-11.954542,-31.15,6.09,38.220001,1729477861002.0,0.0
-3.062813,-4.488935,-11.971292,-15.61,20.23,47.25,1729477861022.0,0.0
-2.507678,-5.733203,-8.425128,9.31,30.59,47.040001,1729477861089.0,0.0
-1.557728,-8.73141,-7.125826,12.67,21.42,33.810001,1729477861089.0,0.0
-0.392423,-8.750552,-7.003791,19.950001,7.84,1.75,1729477861090.0,0.0
-1.68694,-4.37408,-6.91765,26.950001,2.87,-26.040001,1729477861114.0,0.0
-2.914458,-2.112862,-6.819544,31.15,-10.29,-36.259998,1729477861125.0,0.0
-4.118048,-1.660619,-7.460821,-12.81,-18.200001,-33.18,1729477861142.0,0.0
-3.424129,-2.979064,-9.116654,-49.84,-30.73,-36.119999,1729477861162.0,0.0
-2.196611,-1.277767,-10.774881,-40.389999,-35.0,-39.060001,1729477861187.0,0.0
-2.191825,1.146162,-10.336994,-15.33,-25.76,-19.950001,1729477861203.0,0.0
-2.76371,0.679562,-11.289338,-26.18,-15.33,13.65,1729477861222.0,0.0
-3.235096,-2.806781,-12.533605,-43.68,1.75,43.119999,1729477861244.0,0.0
-2.943172,-5.161318,-11.363515,-7.77,14.98,56.630001,1729477861265.0,0.0
-1.895115,-6.422336,-8.295916,29.540001,24.360001,56.07,1729477861286.0,0.0
-1.253839,-8.475377,-6.707082,29.26,18.83,37.029999,1729477861302.0,0.0
-0.973879,-8.690732,-7.022934,8.82,4.69,0.14,1729477861323.0,0.0
-1.777867,-6.321837,-7.872386,15.61,-5.11,-34.509998,1729477861342.0,0.0
-2.254039,-3.031706,-7.704889,41.369999,-13.51,-45.639999,1729477861362.0,0.0
-3.034099,-0.528814,-7.750352,12.04,-17.08,-39.830002,1729477861384.0,0.0
-3.165704,-1.952543,-9.190832,-32.549999,-21.280001,-33.950001,1729477861402.0,0.0
-2.342573,-1.210768,-11.461621,-52.43,-23.940001,-32.130001,1729477861423.0,0.0
-2.443072,-0.468993,-10.91845,-42.139999,-4.76,-4.34,1729477861443.0,0.0
-2.790031,-1.892723,-11.466407,-20.93,6.58,22.120001,1729477861462.0,0.0
-3.421736,-2.718246,-11.47119,11.27,19.74,44.869999,1729477861484.0,0.0
-4.158726,-5.4676,-8.382057,13.79,35.630001,56.700001,1729477861504.0,0.0
-2.151148,-9.623933,-8.26481,-3.36,24.15,39.34,1729477861522.0,0.0
-0.454636,-8.427521,-7.534998,23.24,8.75,4.2,1729477861542.0,0.0
-1.356731,-4.697111,-6.235696,46.970001,10.01,-28.280001,1729477861563.0,0.0
-2.428715,-3.759124,-6.18784,37.869999,-5.88,-39.34,1729477861583.0,0.0
-2.902494,-2.586641,-7.310073,9.94,-21.0,-50.470001,1729477861602.0,0.0
-3.393023,-0.66999,-8.578269,-31.99,-30.52,-59.779999,1729477861622.0,0.0
-3.369094,0.196211,-10.884951,-77.980003,-32.689999,-68.879997,1729477861642.0,0.0
-2.624927,1.481157,-11.653046,-88.480003,-23.379999,-58.59,1729477861663.0,0.0
-2.096112,0.949951,-11.265409,-55.439999,-9.8,-23.940001,1729477861684.0,0.0
-2.414358,-0.748954,-12.265609,-31.219999,4.83,15.05,1729477861702.0,0.0
-3.651447,-2.435893,-11.088341,-13.58,23.59,46.27,1729477861725.0,0.0
-4.302295,-5.809773,-9.135797,-24.43,38.009998,56.07,1729477861746.0,0.0
0.20339,-7.156933,-6.896115,-30.17,25.83,44.099998,1729477861835.0,0.0
-0.902094,-3.237489,-6.089733,50.959999,17.710001,1.96,1729477861835.0,0.0
-1.990828,-3.28056,-6.606583,63.209999,11.76,-20.23,1729477861836.0,0.0
-2.569891,-2.533999,-8.614161,-2.87,-21.07,-41.299999,1729477861920.0,0.0
-3.09392,0.301496,-10.018748,-40.110001,-23.66,-49.349998,1729477861921.0,0.0
-2.498107,1.021735,-11.265409,-58.869999,-20.719999,-45.009998,1729477861921.0,0.0
-2.395216,1.356731,-11.827723,-35.77,-11.41,-16.309999,1729477861921.0,0.0
-3.493521,0.019143,-11.339586,-8.68,6.02,21.139999,1729477861923.0,0.0
-4.010371,-1.89033,-11.34198,-4.69,19.950001,48.580002,1729477861941.0,0.0
-3.704089,-4.84068,-9.779467,-0.56,30.1,62.369999,1729477861961.0,0.0
-1.820938,-7.960921,-9.623933,10.15,27.02,55.299999,1729477861984.0,0.0
0.035892,-8.212167,-7.853244,49.700001,15.61,30.380001,1729477862004.0,0.0
-0.5001,-5.84088,-6.972685,56.420002,16.1,-5.53,1729477862021.0,0.0
-1.153341,-6.096912,-7.657032,38.920002,1.82,-31.290001,1729477862042.0,0.0
-1.275374,-3.062813,-7.594819,48.650002,-12.6,-49.98,1729477862062.0,0.0
-2.835495,0.945165,-7.444071,22.049999,-16.379999,-50.189999,1729477862083.0,0.0
-2.859423,-0.868595,-10.585848,-43.959999,-22.469999,-45.57,1729477862101.0,0.0
-2.462214,1.256232,-10.664811,-27.09,-23.450001,-23.59,1729477862121.0,0.0
-3.168097,0.471386,-10.286745,-23.870001,-8.68,0.42,1729477862141.0,0.0
-2.957529,-2.189433,-11.574083,-36.330002,0.07,19.040001,1729477862163.0,0.0
-2.682354,-3.366701,-12.926028,-17.360001,10.08,34.369999,1729477862186.0,0.0
-2.830709,-4.333402,-10.561919,19.6,32.759998,49.0,1729477862201.0,0.0
-1.866402,-5.773881,-7.850852,56.139999,37.170002,55.439999,1729477862223.0,0.0
-0.775275,-7.295716,-6.159126,40.880001,27.02,41.580002,1729477862242.0,0.0
-1.01695,-6.994221,-6.867401,17.710001,15.54,11.55,1729477862262.0,0.0
-1.323231,-5.362316,-6.575477,25.059999,-0.63,-17.780001,1729477862283.0,0.0
-2.050649,-3.005385,-7.278966,35.98,-17.360001,-35.349998,1729477862301.0,0.0
-3.168097,-1.284946,-8.020741,4.62,-23.870001,-44.240002,1729477862326.0,0.0
-2.964707,-0.306281,-9.267403,-37.170002,-33.040001,-45.080002,1729477862342.0,0.0
-2.117648,0.794417,-10.269995,-51.380001,-35.07,-27.299999,1729477862362.0,0.0
-2.519642,-1.251446,-11.155338,-30.450001,-22.889999,8.96,1729477862383.0,0.0
-3.421736,-1.909473,-12.30868,-5.18,-10.64,35.0,1729477862409.0,0.0
-4.701896,-2.991028,-10.923235,0.84,13.93,50.259998,1729477862421.0,0.0
-1.694118,-6.295516,-10.083356,7.07,17.15,54.880001,1729477862441.0,0.0
-0.004786,-6.135197,-8.786445,54.459999,15.75,43.610001,1729477862463.0,0.0
-1.11027,-5.860023,-9.174082,69.720001,21.49,23.309999,1729477862483.0,0.0
-1.040878,-6.142376,-6.709475,61.740002,13.440001,-1.61,1729477862502.0,0.0
-1.387837,-4.517649,-5.929415,48.02,-3.22,-29.33,1729477862522.0,0.0
-2.847459,-2.426322,-6.520442,-3.99,-13.58,-49.209999,1729477862542.0,0.0
-3.751946,-1.098306,-8.788837,-66.010002,-27.370001,-56.98,1729477862562.0,0.0
-3.134598,-0.507278,-10.547562,-94.639999,-32.48,-52.990002,1729477862584.0,0.0
-2.143969,-1.696511,-11.227123,-65.590004,-25.200001,-26.040001,1729477862602.0,0.0
-2.024328,-1.569692,-11.392227,0.35,-9.24,10.08,1729477862622.0,0.0
-3.333202,-1.902294,-11.432907,47.459999,6.65,45.5,1729477862643.0,0.0
-5.058427,-4.558327,-8.999406,21.0,27.65,64.540001,1729477862663.0,0.0
-3.148954,-7.427321,-8.977871,12.88,23.030001,55.93,1729477862686.0,0.0
-0.937986,-6.733403,-8.212167,42.349998,11.97,35.560001,1729477862702.0,0.0
-1.684547,-5.659025,-8.35813,64.75,7.7,-3.5,1729477862724.0,0.0
-1.404587,-4.541577,-7.549356,49.91,-4.97,-29.049999,1729477862743.0,0.0
-1.974079,-2.129612,-6.283553,25.200001,-17.15,-45.080002,1729477862764.0,0.0
-4.036692,0.133998,-6.893722,-34.299999,-18.76,-54.950001,1729477862785.0,0.0
-3.63709,-0.452243,-9.284152,-84.279999,-30.59,-49.84,1729477862803.0,0.0
-2.447858,-0.878166,-10.983055,-51.939999,-33.950001,-22.610001,1729477862824.0,0.0
-3.897908,-1.246661,-11.358729,-1.47,-9.52,6.51,1729477862843.0,0.0
-4.754539,-2.26361,-11.279767,-2.94,10.22,29.610001,1729477862864.0,0.0
-4.058227,-3.773481,-10.576276,1.12,17.15,44.66,1729477862887.0,0.0
-2.067399,-5.927022,-9.755538,6.44,22.4,46.34,1729477862903.0,0.0
-0.196211,-7.45125,-8.334201,33.670002,15.68,39.200001,1729477862924.0,0.0
-1.062413,-6.271588,-8.427521,57.68,19.879999,16.24,1729477862944.0,0.0
-1.605584,-4.809574,-6.381658,48.299999,19.18,-6.79,1729477862963.0,0.0
-0.995414,-3.885944,-4.893322,31.92,-10.22,-21.139999,1729477862985.0,0.0
-3.254239,-1.634298,-5.804988,9.52,-18.129999,-33.740002,1729477863005.0,0.0
-4.666004,-2.129612,-8.116454,-58.450001,-30.870001,-42.279999,1729477863023.0,0.0
-1.926222,-1.430908,-11.466407,-116.970001,-48.509998,-53.200001,1729477863043.0,0.0
-2.78046,-0.90688,-12.220145,-59.709999,-23.030001,-22.469999,1729477863064.0,0.0
-4.09412,-1.895115,-12.662818,-9.87,-2.17,11.34,1729477863087.0,0.0
-4.352544,-2.660819,-12.299109,-1.82,21.42,37.029999,1729477863103.0,0.0
-1.706082,-4.515256,-10.518847,13.72,23.870001,53.48,1729477863128.0,0.0
-0.495314,-6.161518,-8.822337,50.470001,25.690001,51.029999,1729477863144.0,0.0
-1.438086,-5.991628,-7.980063,67.480003,30.380001,33.950001,1729477863163.0,0.0
-1.808974,-5.503492,-7.202396,61.599998,27.58,8.75,1729477863189.0,0.0
-1.153341,-4.974678,-4.977071,55.23,3.85,-11.34,1729477863203.0,0.0
-3.053242,-2.711068,-5.091926,47.740002,-6.23,-31.08,1729477863223.0,0.0
-4.699504,-1.909473,-6.759724,-21.49,-18.34,-41.439999,1729477863244.0,0.0
-2.9336,-2.794817,-9.454042,-90.720001,-41.299999,-51.799999,1729477863263.0,0.0
-1.464408,-2.062613,-11.490334,-79.870003,-40.599998,-44.029999,1729477863285.0,0.0
-2.536392,-1.136591,-12.289536,-18.83,-14.21,-11.55,1729477863303.0,0.0
-4.354938,-1.892723,-12.090932,20.09,5.25,24.43,1729477863323.0,0.0
-4.833502,-3.378666,-11.933006,4.27,30.030001,44.310001,1729477863343.0,0.0
-1.68694,-5.063213,-10.207782,20.93,25.27,54.529999,1729477863364.0,0.0
-2.012364,-5.347959,-9.059227,49.630001,33.389999,44.170002,1729477863384.0,0.0
-2.179861,-6.089733,-8.114061,84.0,42.139999,26.880001,1729477863403.0,0.0
-1.129412,-4.977071,-5.733203,81.340004,25.969999,5.81,1729477863423.0,0.0
-2.244468,-5.012963,-4.063013,56.139999,16.24,-18.620001,1729477863443.0,0.0
-3.414558,-2.694318,-4.524827,-31.08,-0.91,-45.43,1729477863463.0,0.0
-3.701697,-2.682354,-6.132804,-110.599998,-21.84,-56.139999,1729477863485.0,0.0
-2.021935,-4.567898,-8.276773,-124.949997,-49.07,-63.98,1729477863503.0,0.0
-1.404587,-2.902494,-10.786844,-81.129997,-53.060001,-70.279999,1729477863523.0,0.0
-3.254239,-0.679562,-13.253844,-43.540001,-30.870001,-52.150002,1729477863543.0,0.0
-4.771288,-0.179462,-12.581462,-41.93,-3.92,-13.58,1729477863564.0,0.0
-3.627519,-2.701497,-12.363714,-9.45,11.69,25.059999,1729477863584.0,0.0
-1.5003,-3.663411,-11.030912,40.32,19.110001,51.73,1729477863604.0,0.0
-1.677369,-4.254438,-9.554541,56.630001,35.77,52.5,1729477863623.0,0.0
-2.488536,-6.424729,-9.310472,51.029999,40.389999,33.740002,1729477863643.0,0.0
-1.418944,-7.927422,-7.503892,62.510002,27.440001,-0.07,1729477863664.0,0.0
-1.167697,-6.668797,-6.400801,85.260002,18.690001,-34.509998,1729477863684.0,0.0
-1.878366,-4.242475,-6.053841,65.519997,12.6,-56.139999,1729477863702.0,0.0
-1.368695,-3.61077,-7.24786,-26.950001,-7.98,-67.620003,1729477863724.0,0.0
0.349352,-3.103491,-9.066404,-38.57,-29.610001,-63.490002,1729477863743.0,0.0
-0.681954,-2.232504,-10.990234,-17.92,-18.48,-43.82,1729477863763.0,0.0
-2.859423,-1.416551,-10.932807,-19.530001,4.13,-19.18,1729477863785.0,0.0
-4.536791,-2.316252,-11.267801,-11.76,22.33,7.42,1729477863803.0,0.0
-3.924229,-3.730411,-11.279767,25.76,24.780001,26.460001,1729477863823.0,0.0
-2.751746,-4.4339,-10.052249,80.43,31.43,35.490002,1729477863844.0,0.0
-2.768496,-4.412365,-9.272188,110.459999,42.91,32.830002,1729477863863.0,0.0
-2.639283,-5.630312,-9.45165,129.360001,44.799999,24.710001,1729477863884.0,0.0
-1.737189,-7.405786,-8.286345,165.130005,48.860001,17.219999,1729477863903.0,0.0
-1.550549,-7.310073,-7.872386,194.389999,54.950001,7.07,1729477863923.0,0.0
-1.586441,-8.173882,-6.647261,231.490005,54.670002,-3.85,1729477863944.0,0.0
-1.368695,-8.51127,-5.965307,252.350006,41.93,-23.66,1729477863963.0,0.0
-0.990629,-8.767302,-7.018148,285.529999,23.17,-31.639999,1729477863984.0,0.0
-0.404387,-8.482556,-6.45105,321.649994,17.85,-33.110001,1729477864002.0,0.0
0.043071,-7.458428,-5.718846,352.23999,26.110001,-33.25,1729477864023.0,0.0
0.421137,-5.618347,-3.991228,370.299988,37.099998,-25.200001,1729477864043.0,0.0
0.382852,-5.924629,-2.031506,342.089996,56.420002,-3.85,1729477864063.0,0.0
0.011964,-7.712067,-1.335195,279.790009,68.040001,3.22,1729477864084.0,0.0
-0.942772,-9.853643,-0.717847,213.009995,76.440002,3.57,1729477864101.0,0.0
-1.0002,-9.21476,-1.347159,147.279999,80.080002,2.52,1729477864122.0,0.0
-2.019542,-8.769694,-3.273381,119.139999,88.970001,10.64,1729477864143.0,0.0
-3.711268,-10.911271,5.4676,137.759995,59.5,1.12,1729477864163.0,0.0
-2.098505,-9.166903,5.9677,117.529999,61.810001,2.52,1729477864187.0,0.0
-1.70369,-6.898508,4.398008,32.200001,56.420002,-2.31,1729477864203.0,0.0
-1.402194,-9.406186,2.632105,-32.619999,24.639999,-4.9,1729477864223.0,0.0
-0.942772,-12.679568,2.347359,-59.990002,20.65,-13.23,1729477864242.0,0.0
1.306481,-9.47797,2.62732,-16.870001,22.4,-5.18,1729477864263.0,0.0
2.081756,-7.092326,3.259024,101.639999,41.439999,7.21,1729477864285.0,0.0
1.40698,-4.673182,2.734996,119.840004,43.540001,13.02,1729477864302.0,0.0
-0.875773,-5.431707,3.629912,88.059998,29.889999,39.200001,1729477864323.0,0.0
-2.433501,-9.238688,3.957729,35.84,-5.53,46.200001,1729477864343.0,0.0
0.028714,-10.526026,0.591027,70.279999,-10.29,48.650002,1729477864363.0,0.0
-2.845066,-10.29153,4.331009,129.919998,12.46,58.029999,1729477864385.0,0.0
-5.788238,-14.395222,7.216753,67.550003,2.38,36.330002,1729477864403.0,0.0
-4.192225,-17.137396,4.65404,-91.139999,-24.43,-7.91,1729477864422.0,0.0
0.160319,-15.493526,0.581456,-132.020004,-12.25,-43.400002,1729477864451.0,0.0
0.665205,-12.217752,0.174676,3.92,31.360001,-61.040001,1729477864463.0,0.0
-1.919044,-8.212167,2.699104,73.290001,57.68,-68.32,1729477864485.0,0.0
-1.916651,-5.005785,6.513263,25.34,28.07,-75.949997,1729477864514.0,0.0
0.557528,-2.615355,4.9675,36.330002,14.91,-37.939999,1729477864523.0,0.0
0.177069,-0.382852,3.65384,26.809999,-2.73,-5.88,1729477864542.0,0.0
-1.287339,-1.162912,2.737389,-23.870001,-24.08,34.509998,1729477864564.0,0.0
-2.739782,-7.204789,2.18704,-45.779999,-39.130001,58.170002,1729477864586.0,0.0
-1.741975,-10.124033,1.155733,-20.719999,-35.91,64.190002,1729477864603.0,0.0
-4.240082,-13.744373,5.13739,49.630001,-16.1,66.010002,1729477864623.0,0.0
-4.228118,-16.084553,6.403193,54.389999,-23.73,29.33,1729477864643.0,0.0
-3.395415,-15.199209,5.15414,-33.18,-16.379999,3.5,1729477864664.0,0.0
-0.789631,-14.067404,0.222532,-127.82,-25.620001,-41.860001,1729477864685.0,0.0
-0.066999,-10.686346,0.512064,1.12,30.870001,-58.52,1729477864703.0,0.0
-2.309074,-8.336594,4.228118,55.93,49.84,-66.150002,1729477864724.0,0.0
-0.459422,-3.960121,4.455436,35.209999,34.580002,-62.369999,1729477864743.0,0.0
0.844666,-1.667797,4.488935,51.380001,29.33,-31.57,1729477864764.0,0.0
0.131605,-0.29671,4.567898,23.1,8.96,3.92,1729477864785.0,0.0
-2.012364,-4.914857,4.529613,2.73,-11.27,41.720001,1729477864803.0,0.0
-1.718047,-8.882158,2.012364,-8.33,-27.02,48.650002,1729477864824.0,0.0
-1.462015,-10.092925,2.629712,37.310001,-12.11,60.760002,1729477864844.0,0.0
-3.663411,-14.983855,6.84108,100.449997,-10.22,48.09,1729477864865.0,0.0
-4.565506,-13.990833,7.135397,66.080002,-1.33,20.719999,1729477864887.0,0.0
-2.462214,-15.41217,4.697111,-64.889999,-22.190001,-19.74,1729477864905.0,0.0
0.940379,-15.397814,1.689333,-94.150002,-11.97,-50.68,1729477864926.0,0.0
0.684347,-11.645866,0.969093,22.33,27.51,-62.02,1729477864944.0,0.0
-1.397408,-6.013163,4.539185,71.190002,45.57,-69.720001,1729477864965.0,0.0
0.57667,-3.924229,4.089334,23.1,23.52,-57.400002,1729477864987.0,0.0
0.818345,-1.191626,4.034299,45.080002,11.55,-28.77,1729477865005.0,0.0
-0.514457,1.014557,4.45065,42.0,3.57,10.57,1729477865024.0,0.0
-2.620141,-3.775874,4.788038,-2.8,-10.71,48.860001,1729477865045.0,0.0
-1.859223,-7.259824,1.885544,-68.949997,-28.280001,59.010002,1729477865065.0,0.0
-2.11047,-10.767702,3.981657,-2.1,-11.69,77.279999,1729477865087.0,0.0
-4.122833,-15.077175,8.719445,98.629997,-5.11,55.09,1729477865104.0,0.0
-5.551349,-13.696517,8.408379,49.349998,1.47,32.27,1729477865125.0,0.0
-3.326023,-13.730016,3.847659,-128.729996,-19.460001,-8.82,1729477865144.0,0.0
0.162712,-16.302301,0.047856,-146.369995,-13.09,-44.66,1729477865170.0,0.0
0.026321,-12.949955,0.315853,-6.72,36.68,-55.369999,1729477865190.0,0.0
-1.964507,-7.633104,2.328217,57.959999,64.82,-70.910004,1729477865204.0,0.0
-0.701097,-3.701697,5.221139,19.32,38.709999,-72.099998,1729477865225.0,0.0
1.509871,-2.06022,4.074977,37.869999,27.23,-30.66,1729477865245.0,0.0
0.868595,0.799203,3.823731,21.700001,11.27,2.45,1729477865265.0,0.0
-1.304088,-1.849652,5.347959,-19.67,-7.35,44.869999,1729477865286.0,0.0
-1.627119,-7.111469,1.931008,-85.959999,-36.330002,59.360001,1729477865304.0,0.0
-2.462214,-14.196616,4.517649,4.76,-30.940001,76.650002,1729477865324.0,0.0
-3.658626,-16.706688,6.553941,94.779999,-22.049999,43.330002,1729477865345.0,0.0
-6.460621,-14.230117,9.19801,42.0,-3.78,19.110001,1729477865365.0,0.0
-2.63689,-14.213367,4.539185,-151.059998,-34.369999,-43.189999,1729477865387.0,0.0
1.244268,-14.97907,1.524228,-139.160004,-20.02,-56.07,1729477865405.0,0.0
0.172283,-10.49492,1.205983,14.7,22.33,-64.889999,1729477865424.0,0.0
-2.512464,-5.745167,2.971886,52.849998,47.599998,-71.959999,1729477865444.0,0.0
-1.160519,-3.129812,5.223531,-10.43,18.41,-67.340004,1729477865466.0,0.0
2.22054,-1.976472,3.17049,1.33,8.82,-18.34,1729477865487.0,0.0
2.148755,-0.244068,3.364309,15.33,4.27,12.32,1729477865504.0,0.0
-1.246661,-3.235096,4.211368,-5.88,-1.33,49.07,1729477865525.0,0.0
-1.849652,-7.314859,1.98365,-36.889999,-23.030001,64.190002,1729477865544.0,0.0
-2.385644,-11.399406,3.031706,1.33,-21.35,78.540001,1729477865564.0,0.0
-3.929015,-17.144573,5.943772,74.620003,-25.27,57.400002,1729477865587.0,0.0
-5.326423,-15.160924,6.427122,47.529999,-5.32,21.629999,1729477865604.0,0.0
-3.397808,-15.359529,5.587241,-63.349998,-19.74,-21.139999,1729477865624.0,0.0
1.490728,-13.552947,0.236889,-111.160004,-17.92,-47.740002,1729477865644.0,0.0
-0.39003,-10.076177,0.837488,34.720001,39.27,-61.389999,1729477865665.0,0.0
-1.835295,-7.125826,5.180461,19.6,36.540001,-77.349998,1729477865686.0,0.0
1.057628,-4.350152,3.397808,26.110001,14.14,-54.599998,1729477865704.0,0.0
1.521835,-0.9667,3.072384,48.439999,15.54,-24.710001,1729477865724.0,0.0
0.301496,1.363909,3.579663,-8.68,7.14,4.55,1729477865744.0,0.0
-2.029114,-4.465007,4.307081,-50.610001,-14.49,45.709999,1729477865765.0,0.0
-0.662812,-8.054241,2.031506,-61.670002,-35.560001,62.02,1729477865786.0,0.0
-1.119841,-10.741381,1.749153,4.69,-19.809999,78.959999,1729477865804.0,0.0
-4.223332,-18.137594,5.606383,97.790001,-18.690001,59.709999,1729477865824.0,0.0
-4.864608,-15.469598,7.360322,69.090004,3.78,25.48,1729477865844.0,0.0
-3.668197,-14.043476,5.493921,-66.989998,-10.43,-13.23,1729477865864.0,0.0
-0.014357,-14.567505,0.638884,-122.360001,-19.460001,-43.330002,1729477865889.0,0.0
0.586242,-12.107682,0.385244,-14.07,15.89,-49.349998,1729477865904.0,0.0
-1.732404,-8.039884,2.409572,36.470001,42.0,-61.389999,1729477865924.0,0.0
-0.346959,-4.271189,4.388437,1.68,23.379999,-59.57,1729477865944.0,0.0
2.26361,-2.718246,3.60359,30.66,19.25,-21.0,1729477865964.0,0.0
0.287139,0.09332,3.402594,15.190001,9.59,4.34,1729477865985.0,0.0
-1.828116,-5.546563,3.790231,-28.98,-19.530001,58.170002,1729477866004.0,0.0
-0.002393,-7.549356,1.055235,-50.889999,-31.57,64.959999,1729477866023.0,0.0
-0.954736,-10.269995,2.971886,5.18,-20.02,85.959999,1729477866080.0,0.0
-3.15374,-14.981462,4.469792,45.290001,-16.799999,64.68,1729477866085.0,0.0
-6.104091,-16.931612,6.482157,20.58,-5.74,47.740002,1729477866087.0,0.0
-3.239882,-16.610975,3.818945,-91.139999,-18.34,-13.51,1729477866105.0,0.0
-0.765703,-14.988641,1.39023,-99.540001,-0.14,-33.740002,1729477866124.0,0.0
-0.662812,-11.985649,0.528814,7.14,27.02,-53.34,1729477866144.0,0.0
-2.309074,-8.472985,2.28036,54.670002,55.720001,-60.060001,1729477866164.0,0.0
-2.665605,-6.087341,4.465007,-21.280001,50.75,-70.0,1729477866189.0,0.0
1.033699,-4.835894,3.919443,-42.0,15.47,-43.68,1729477866204.0,0.0
1.9669,-3.012564,3.522235,30.73,17.290001,-13.23,1729477866224.0,0.0
-0.205783,-0.143569,4.39083,22.610001,3.29,15.89,1729477866245.0,0.0
-2.392823,-4.503292,3.976871,-10.08,-20.16,45.920002,1729477866264.0,0.0
-1.531406,-7.889136,0.859023,-59.849998,-43.959999,56.84,1729477866285.0,0.0
-2.318645,-13.813765,2.749353,2.03,-36.330002,70.0,1729477866305.0,0.0
-5.139783,-14.713466,3.85723,56.630001,-13.58,35.139999,1729477866323.0,0.0
-3.84048,-17.879169,6.577869,-3.57,-8.12,-9.87,1729477866343.0,0.0
-0.624527,-14.404793,1.878366,-72.660004,6.44,-37.869999,1729477866364.0,0.0
-0.102891,-11.157731,0.744168,10.15,26.530001,-53.060001,1729477866385.0,0.0
-2.115255,-8.817552,0.902094,60.27,47.389999,-58.59,1729477866404.0,0.0
-3.139383,-7.759924,3.328416,-9.45,46.619999,-65.730003,1729477866424.0,0.0
0.808774,-6.582655,3.266203,-41.369999,13.23,-55.439999,1729477866444.0,0.0
1.591227,-3.893122,2.959922,51.170002,30.1,-24.85,1729477866464.0,0.0
-0.069392,0.985843,3.651447,31.99,14.35,-2.31,1729477866486.0,0.0
-2.108077,-3.208775,4.271189,-8.61,-12.6,42.420002,1729477866503.0,0.0
-1.20359,-7.080362,1.172483,-76.790001,-39.970001,52.709999,1729477866523.0,0.0
-1.179662,-9.990034,0.212961,-39.130001,-33.110001,70.840004,1729477866544.0,0.0
-3.68734,-15.337994,3.883551,55.860001,-16.17,61.740002,1729477866564.0,0.0
-5.630312,-14.017156,4.15394,72.870003,7.42,35.420002,1729477866585.0,0.0
-3.921836,-16.962721,7.070791,-0.21,-4.34,-4.62,1729477866604.0,0.0
-0.725025,-14.782858,2.282753,-108.360001,-3.43,-36.189999,1729477866623.0,0.0
-0.150748,-12.79203,0.526421,-24.290001,22.120001,-51.799999,1729477866643.0,0.0
-2.679961,-8.035098,2.54357,27.299999,58.170002,-59.779999,1729477866664.0,0.0
0.291924,-6.125626,3.902694,-35.77,22.049999,-63.630001,1729477866686.0,0.0
2.136791,-4.82393,3.716053,3.71,16.309999,-30.24,1729477866703.0,0.0
0.42353,-1.552942,4.398008,22.540001,3.5,-10.5,1729477866724.0,0.0
-1.459622,-2.294717,3.952943,0.49,-18.620001,22.82,1729477866744.0,0.0
-0.600598,-5.594419,1.878366,-57.049999,-42.139999,43.68,1729477866764.0,0.0
-0.370888,-9.217153,-0.440279,-72.800003,-48.299999,60.41,1729477866787.0,0.0
-3.199204,-16.232908,2.57707,-10.29,-38.009998,60.200001,1729477866803.0,0.0
-4.776074,-18.369699,2.806781,24.43,-20.370001,25.34,1729477866823.0,0.0
-3.730411,-17.321644,4.45065,13.93,5.67,-13.86,1729477866851.0,0.0
-1.304088,-13.684553,1.899901,-45.43,12.11,-51.939999,1729477866864.0,0.0
-1.031307,-11.081161,0.478565,-8.89,35.700001,-59.080002,1729477866885.0,0.0
-1.237089,-7.903493,3.675375,15.05,38.779999,-64.050003,1729477866907.0,0.0
0.760918,-3.862016,2.524428,23.940001,35.07,-47.18,1729477866924.0,0.0
1.277767,-2.22054,3.737589,20.51,19.18,-21.42,1729477866944.0,0.0
-1.103091,-4.800002,2.555535,-19.74,-5.11,10.78,1729477866964.0,0.0
-1.036092,-7.503892,1.622334,-13.51,-23.1,39.759998,1729477866985.0,0.0
-0.22014,-7.503892,0.131605,-13.58,-23.940001,49.77,1729477867004.0,0.0
-2.433501,-11.174481,1.12702,6.86,-20.370001,60.760002,1729477867024.0,0.0
-4.584648,-16.572689,3.634698,42.560001,-20.299999,42.700001,1729477867044.0,0.0
-5.278566,-16.390835,5.781059,31.92,-0.35,7.35,1729477867065.0,0.0
-2.598605,-14.4024,2.921637,-65.099998,-6.72,-31.43,1729477867088.0,0.0
0.184247,-12.937992,0.069392,-65.660004,7.42,-47.040001,1729477867103.0,0.0
-0.571885,-10.179067,-0.009571,6.44,36.959999,-52.150002,1729477867124.0,0.0
-1.828116,-8.003991,3.024528,9.87,41.509998,-56.349998,1729477867144.0,0.0
0.971486,-5.749953,2.794817,12.39,24.710001,-44.869999,1729477867165.0,0.0
1.830509,-3.062813,3.854837,41.369999,23.379999,-19.879999,1729477867190.0,0.0
0.736989,-1.435694,3.991228,18.27,6.93,9.87,1729477867205.0,0.0
-1.710868,-5.386244,3.268596,-6.44,-15.26,41.790001,1729477867225.0,0.0
-0.236889,-7.831708,0.081356,-24.85,-32.060001,51.939999,1729477867248.0,0.0
-1.433301,-10.727024,1.72044,48.02,-12.46,71.889999,1729477867266.0,0.0
-5.134997,-13.995619,3.562913,70.769997,-9.59,60.760002,1729477867288.0,0.0
-7.233503,-15.641882,5.352744,59.920002,-3.29,36.330002,1729477867307.0,0.0
-4.56072,-16.074982,5.613562,-35.560001,-9.03,-20.51,1729477867327.0,0.0
-1.332802,-13.646267,2.012364,-83.440002,0.91,-37.73,1729477867347.0,0.0
-0.294317,-12.16511,0.904487,-4.9,8.82,-52.639999,1729477867367.0,0.0
-1.351945,-8.690732,1.414158,36.540001,29.049999,-58.170002,1729477867388.0,0.0
-0.579063,-5.757132,1.818545,1.54,37.869999,-53.970001,1729477867407.0,0.0
1.29691,-5.223531,4.579862,-49.77,12.53,-42.700001,1729477867425.0,0.0
2.467,-4.4339,2.258825,-16.59,-0.21,-5.39,1729477867446.0,0.0
0.421137,-2.701497,3.0006,37.59,3.57,18.48,1729477867468.0,0.0
-1.40698,-4.079762,3.290131,35.349998,-7.7,44.450001,1729477867487.0,0.0
-1.48355,-6.283553,2.014757,-15.54,-29.4,59.290001,1729477867507.0,0.0
-1.088734,-10.827522,2.225325,-28.98,-37.450001,71.68,1729477867525.0,0.0
-2.055435,-10.674382,1.696511,-41.860001,-19.879999,71.120003,1729477867546.0,0.0
-8.843873,-18.798016,6.798009,-18.620001,-23.030001,56.98,1729477867570.0,0.0
-3.668197,-15.03889,-0.236889,-73.010002,-37.380001,-14.7,1729477867589.0,0.0
-1.39023,-12.662818,0.39003,-34.93,16.24,-40.740002,1729477867606.0,0.0
-1.39023,-10.191031,0.825524,20.299999,33.810001,-54.740002,1729477867628.0,0.0
-0.68674,-5.730811,1.402194,4.9,56.07,-43.400002,1729477867646.0,0.0
0.227318,-3.120241,4.369294,-62.369999,32.689999,-35.700001,1729477867667.0,0.0
1.701297,-6.12084,1.694118,3.92,11.76,7.63,1729477867690.0,0.0
0.102891,-3.998406,2.45025,64.68,21.91,22.75,1729477867710.0,0.0
-1.942972,-4.642076,3.196811,63.77,8.75,43.330002,1729477867725.0,0.0
-2.15354,-10.30828,2.811567,25.200001,-16.66,53.41,1729477867747.0,0.0
-2.014757,-12.167502,-0.363709,-8.96,-25.76,48.369999,1729477867765.0,0.0
-5.577669,-13.13181,1.935793,26.67,-9.17,41.16,1729477867788.0,0.0
-6.994221,-18.987047,5.182854,29.049999,-15.54,-11.55,1729477867808.0,0.0
-3.498307,-13.631909,1.988436,-67.760002,-1.96,-37.52,1729477867824.0,0.0
-1.225125,-12.191431,1.59362,-42.420002,8.61,-54.040001,1729477867845.0,0.0
-1.887937,-10.427922,0.471386,-3.57,18.83,-67.059998,1729477867867.0,0.0
-1.605584,-7.063612,1.021735,-16.379999,32.689999,-59.639999,1729477867888.0,0.0
-0.150748,-5.570491,2.957529,-48.580002,22.26,-52.990002,1729477867905.0,0.0
2.242075,-3.644269,0.772882,19.809999,18.41,-7.14,1729477867927.0,0.0
1.375873,-0.323031,2.727818,113.190002,34.09,25.549999,1729477867946.0,0.0
-1.258625,-3.227918,3.108276,96.459999,21.35,61.18,1729477867967.0,0.0
-1.612763,-6.470192,2.340181,67.129997,5.74,75.529999,1729477867988.0,0.0
-4.979464,-10.954341,4.323831,55.790001,-4.76,91.769997,1729477868005.0,0.0
-7.412964,-15.120246,4.240082,16.66,-19.25,65.029999,1729477868025.0,0.0
-7.80778,-19.255045,4.785645,-24.290001,-19.6,25.83,1729477868045.0,0.0
-3.976871,-17.690138,3.024528,-59.639999,-6.09,-38.779999,1729477868067.0,0.0
-1.529014,-13.148561,3.134598,-13.65,23.799999,-55.23,1729477868089.0,0.0
-1.677369,-10.095319,3.192025,16.52,27.16,-74.199997,1729477868104.0,0.0
-2.459821,-7.465607,3.24706,0.77,30.380001,-72.449997,1729477868124.0,0.0
-1.112662,-4.386044,5.754738,-48.650002,13.440001,-69.790001,1729477868145.0,0.0
1.146162,-3.876373,3.627519,-38.849998,-4.2,-32.34,1729477868167.0,0.0
1.06002,-3.914658,2.29711,-9.17,-11.48,-6.23,1729477868192.0,0.0
-0.421137,-3.239882,2.756532,14.77,-6.86,20.93,1729477868206.0,0.0
-1.402194,-5.000999,3.103491,16.1,-14.7,43.470001,1729477868225.0,0.0
-1.359123,-7.300502,2.005185,3.71,-26.040001,58.170002,1729477868246.0,0.0
-3.589234,-13.469198,1.543371,-23.52,-46.200001,56.91,1729477868265.0,0.0
-5.479564,-14.969498,0.272782,-31.780001,-32.27,39.200001,1729477868288.0,0.0
-6.664011,-20.338991,3.194418,2.17,-15.82,-3.78,1729477868306.0,0.0
-3.268596,-14.409578,1.024128,-20.51,7.49,-47.740002,1729477868325.0,0.0
-1.596013,-10.573883,2.488536,54.529999,38.57,-53.200001,1729477868345.0,0.0
-1.639083,-5.919843,3.512664,53.130001,38.639999,-61.810001,1729477868365.0,0.0
-0.715454,-1.861616,5.211568,19.809999,32.759998,-42.209999,1729477868389.0,0.0
0.892523,-1.619941,4.163511,-27.51,5.46,-9.38,1729477868405.0,0.0
