acc_x,acc_y,acc_z,gyr_x,gyr_y,gyr_z,timestamp,label
-3.943372,-7.085148,-8.95155,-7.07,15.61,-10.5,1729424856180.0,0.0
-3.759124,-6.678369,-8.614161,6.86,13.23,-12.25,1729424856185.0,0.0
-3.718446,-6.185446,-8.815158,13.02,16.1,-14.77,1729424856186.0,0.0
-4.0008,-5.359922,-8.26481,9.38,27.16,-15.12,1729424856187.0,0.0
-3.828516,-4.938786,-8.410772,25.690001,31.43,-10.5,1729424856192.0,0.0
-3.156133,-4.876573,-8.79123,49.490002,30.309999,-1.61,1729424856212.0,0.0
-2.273181,-5.271388,-9.669396,63.84,29.960001,2.17,1729424856233.0,0.0
-1.832902,-5.833702,-10.025927,80.43,41.580002,6.58,1729424856254.0,0.0
-1.844866,-5.881558,-9.659825,114.590004,53.41,18.76,1729424856272.0,0.0
-1.605584,-5.721239,-8.867801,173.180008,60.549999,25.059999,1729424856296.0,0.0
-1.227518,-5.85763,-8.513663,219.729996,65.660004,30.309999,1729424856312.0,0.0
-0.62692,-6.329016,-9.293723,215.669998,67.900002,28.98,1729424856332.0,0.0
-0.708275,-5.111069,-5.508278,168.139999,84.769997,22.4,1729424856353.0,0.0
-1.588834,-6.290731,-3.816552,134.259995,101.43,29.960001,1729424856372.0,0.0
-0.710668,-6.908078,-3.991228,86.099998,82.110001,24.290001,1729424856391.0,0.0
1.194018,-8.709875,-2.947958,42.07,52.849998,22.889999,1729424856412.0,0.0
2.696711,-10.435099,-0.842274,19.110001,45.150002,19.110001,1729424856432.0,0.0
1.87358,-9.700503,1.37348,29.33,40.810001,15.89,1729424856454.0,0.0
-1.722832,-8.535198,2.309074,62.09,36.82,11.76,1729424856472.0,0.0
-3.536592,-6.087341,2.074577,72.730003,10.5,1.96,1729424856492.0,0.0
-2.344966,-4.790431,-1.493121,50.049999,-93.029999,24.639999,1729424856512.0,0.0
-1.091127,-5.563312,-6.522834,40.25,-120.75,39.970001,1729424856536.0,0.0
-1.940579,-9.767502,-10.530812,-3.71,-78.959999,52.290001,1729424856553.0,0.0
-4.177868,-15.268601,-15.079568,-71.050003,25.059999,29.469999,1729424856572.0,0.0
-6.848258,-15.816557,-13.69891,-91.769997,121.940002,13.37,1729424856592.0,0.0
-9.296116,-11.617154,-5.405386,-38.57,171.850006,25.41,1729424856612.0,0.0
-6.276374,-11.191232,-7.939385,103.040001,80.919998,46.970001,1729424856632.0,0.0
-1.399801,-8.245667,-7.156933,200.970001,15.89,32.41,1729424856653.0,0.0
0.648455,-8.298308,-2.550749,248.080002,79.309998,34.93,1729424856672.0,0.0
-0.267996,-6.398407,2.770889,193.130005,140.070007,16.870001,1729424856692.0,0.0
-1.485943,-3.151347,8.38445,101.779999,118.090004,2.24,1729424856713.0,0.0
-2.132005,-4.589434,2.007578,57.470001,38.290001,15.12,1729424856733.0,0.0
-2.254039,-3.751946,5.871986,-15.82,2.17,15.05,1729424856754.0,0.0
-1.282553,-6.54437,5.592027,-11.9,-38.709999,44.939999,1729424856773.0,0.0
0.882952,-8.91805,2.266003,-20.09,-146.930008,42.84,1729424856791.0,0.0
1.993221,-13.105491,-7.068398,-55.650002,-192.639999,19.040001,1729424856813.0,0.0
0.454636,-13.933406,-15.254245,-136.850006,-119.0,-3.22,1729424856833.0,0.0
-4.852644,-9.994821,-9.54497,-162.680008,98.489998,-16.030001,1729424856852.0,0.0
-9.377472,-13.593626,-7.616355,-33.110001,181.229996,9.52,1729424856872.0,0.0
-9.119047,-13.526627,-11.188839,100.379997,132.860001,12.46,1729424856892.0,0.0
-4.919643,-12.782458,-7.420143,238.0,67.129997,16.030001,1729424856911.0,0.0
-2.055435,-8.539984,3.814159,267.049988,82.809998,-5.88,1729424856933.0,0.0
-3.098706,-0.662812,12.110075,231.419998,105.209999,-2.52,1729424856953.0,0.0
-4.259224,2.663212,7.858029,209.229996,23.17,33.599998,1729424856972.0,0.0
-3.804588,2.591427,10.387242,101.989998,-65.169998,40.880001,1729424856997.0,0.0
-2.28036,-3.938586,7.221539,-12.81,-102.970001,56.91,1729424857020.0,0.0
-0.01675,-12.028719,-1.272982,-85.75,-182.490005,69.720001,1729424857032.0,0.0
2.632105,-15.393027,-10.092925,-142.800003,-230.020004,61.529999,1729424857052.0,0.0
1.22034,-16.484156,-15.239887,-158.479996,-103.599998,35.07,1729424857072.0,0.0
-4.505685,-15.400207,-9.812965,-144.479996,123.970001,-1.54,1729424857091.0,0.0
-13.201202,-16.448263,-4.443472,-4.83,258.230011,-14.91,1729424857112.0,0.0
-14.907285,-15.471991,-5.051248,207.339996,138.460007,12.81,1729424857134.0,0.0
-5.962914,-13.854443,-6.577869,356.160004,-20.370001,-0.14,1729424857152.0,0.0
0.825524,-7.755138,1.897508,378.209991,-28.280001,-23.52,1729424857172.0,0.0
0.624527,1.22034,9.265009,304.290009,80.919998,-56.07,1729424857193.0,0.0
-2.502892,8.087741,10.064213,251.089996,56.209999,-2.1,1729424857212.0,0.0
-5.678168,7.678568,12.23211,143.570007,-38.5,76.510002,1729424857233.0,0.0
-5.682954,-0.646062,9.253045,-11.13,-101.919998,87.849998,1729424857253.0,0.0
-3.591627,-9.803394,-1.5003,-135.309998,-173.25,78.82,1729424857272.0,0.0
0.043071,-16.536798,-8.46102,-244.160004,-227.009995,69.93,1729424857291.0,0.0
2.816352,-14.438292,-7.724032,-341.040009,-148.820007,50.610001,1729424857313.0,0.0
-2.330609,-14.940784,-7.4345,-212.940002,71.260002,4.69,1729424857332.0,0.0
-10.100104,-15.199209,1.337588,1.68,207.339996,-31.360001,1729424857352.0,0.0
-12.825529,-17.058434,-2.167897,144.690002,150.220001,-4.41,1729424857372.0,0.0
-5.826523,-14.100904,-0.9667,214.410004,20.719999,-59.920002,1729424857392.0,0.0
-0.5001,-6.975078,1.493121,227.009995,3.22,-54.110001,1729424857411.0,0.0
1.299303,2.651247,7.590034,206.289993,54.880001,-33.459999,1729424857432.0,0.0
-0.665205,12.533605,13.634303,195.789993,88.480003,15.82,1729424857453.0,0.0
-6.171089,7.542177,14.222939,156.309998,21.07,104.650002,1729424857471.0,0.0
-7.123433,-0.050249,7.030113,-75.949997,-28.630001,101.5,1729424857492.0,0.0
-3.180061,-12.705888,-2.108077,-174.089996,-77.419998,81.760002,1729424857512.0,0.0
0.028714,-15.708879,-5.651847,-315.0,-159.460007,106.68,1729424857537.0,0.0
0.667598,-14.469398,-8.539984,-358.119995,-60.27,70.629997,1729424857555.0,0.0
-5.570491,-20.671597,-5.134997,-182.419998,131.669998,22.889999,1729424857571.0,0.0
-13.890336,-19.944178,-2.400001,-33.880001,221.059998,-18.059999,1729424857591.0,0.0
-13.639089,-17.66621,-3.45045,168.279999,136.220001,-29.190001,1729424857618.0,0.0
-6.541977,-10.724631,-0.16989,244.369995,46.34,-67.760002,1729424857632.0,0.0
-2.512464,-1.481157,4.070191,241.430008,38.5,-49.349998,1729424857655.0,0.0
-0.588634,10.944772,12.55514,268.730011,33.459999,1.96,1729424857672.0,0.0
-1.308874,15.098711,16.208981,284.269989,-16.17,93.239998,1729424857692.0,0.0
-5.249853,6.943972,13.153346,32.619999,-53.060001,120.889999,1729424857712.0,0.0
-6.336195,-4.524827,0.48335,-248.009995,-65.940002,112.489998,1729424857733.0,0.0
-3.728018,-17.63271,-10.695917,-380.100006,-99.75,77.0,1729424857754.0,0.0
-0.68674,-13.148561,-11.01177,-632.52002,-132.089996,49.560001,1729424857772.0,0.0
-4.692325,-20.348562,-13.387842,-408.170013,66.57,38.779999,1729424857792.0,0.0
-15.251851,-20.922842,-6.843473,77.209999,221.619995,-12.81,1729424857813.0,0.0
-10.375278,-16.881365,-6.491727,328.230011,82.669998,-6.44,1729424857833.0,0.0
-4.261617,-11.827723,-2.471786,346.01001,28.77,-58.450001,1729424857854.0,0.0
-1.923829,0.248854,5.233103,268.660004,63.77,-72.449997,1729424857872.0,0.0
-2.531606,14.782858,13.986048,254.449997,69.160004,-20.09,1729424857893.0,0.0
-5.297709,16.912472,12.363714,225.960007,-46.759998,90.440002,1729424857912.0,0.0
-5.953342,4.591826,10.212566,-12.67,-80.010002,83.160004,1729424857933.0,0.0
-4.237689,-6.635297,-2.813959,-247.589996,-93.660004,62.510002,1729424857953.0,0.0
-0.87338,-19.262222,-11.272588,-349.369995,-159.880005,52.639999,1729424857973.0,0.0
1.514657,-17.766708,-12.040684,-511.980011,-144.619995,56.349998,1729424857993.0,0.0
-4.118048,-23.035704,-9.186047,-264.670013,121.169998,19.950001,1729424858013.0,0.0
-13.591233,-20.286352,-2.471786,8.89,249.199997,-36.330002,1729424858033.0,0.0
-15.337994,-15.062819,-2.545963,199.990005,159.880005,-28.77,1729424858054.0,0.0
-8.848659,-11.703296,-1.246661,294.769989,33.810001,-47.25,1729424858073.0,0.0
-5.012963,-3.962514,4.366901,265.790009,8.96,-67.690002,1729424858093.0,0.0
-3.998406,13.454842,6.728617,276.640015,10.64,24.08,1729424858114.0,0.0
-5.692525,11.540584,11.643474,279.019989,-75.599998,96.32,1729424858134.0,0.0
-5.000999,-0.40678,9.078369,48.369999,-58.450001,63.209999,1729424858155.0,0.0
-2.971886,-12.071791,-0.899701,-203.630005,-63.490002,48.720001,1729424858174.0,0.0
-1.261017,-20.729021,-14.256437,-406.980011,-136.570007,57.889999,1729424858194.0,0.0
1.232304,-25.880768,-7.336394,-446.880005,-84.07,-9.31,1729424858215.0,0.0
-7.62114,-24.299114,-0.387637,-149.589996,138.949997,-64.190002,1729424858234.0,0.0
-11.440084,-13.686946,0.961915,205.729996,139.930008,-63.490002,1729424858255.0,0.0
-8.745767,-8.047063,-2.830709,251.160004,71.68,-50.259998,1729424858274.0,0.0
-5.761917,-5.115855,3.211168,231.350006,32.200001,-70.769997,1729424858295.0,0.0
-3.517449,3.189633,8.705089,131.180008,39.200001,-78.400002,1729424858314.0,0.0
-1.782653,12.768101,7.848458,90.090004,-1.19,2.24,1729424858339.0,0.0
-2.354537,8.367701,13.708481,62.16,-72.660004,82.879997,1729424858354.0,0.0
-2.663212,-0.856631,5.386244,-170.169998,-60.41,73.220001,1729424858373.0,0.0
-3.381058,-11.770294,-6.238089,-350.0,-86.449997,77.0,1729424858394.0,0.0
-4.063013,-19.329222,-9.669396,-466.200012,-104.650002,36.400002,1729424858414.0,0.0
-9.674182,-25.282564,-11.980864,-296.450012,102.129997,-55.09,1729424858434.0,0.0
-13.995619,-19.262222,-4.139583,70.980003,147.139999,-37.52,1729424858456.0,0.0
-7.76471,-12.756138,-5.998806,234.080002,34.650002,-19.879999,1729424858475.0,0.0
-2.043471,-9.217153,-4.393222,264.529999,-13.65,-60.130001,1729424858493.0,0.0
0.959522,-2.026721,3.735196,214.270004,37.170002,-75.18,1729424858514.0,0.0
0.535992,6.345766,11.660224,200.970001,91.0,-34.16,1729424858539.0,0.0
-1.524228,11.815758,9.875179,209.300003,25.27,38.080002,1729424858555.0,0.0
-4.847858,6.742974,11.806188,61.25,-56.560001,97.370003,1729424858575.0,0.0
-7.513463,-2.909672,3.034099,-189.559998,-62.369999,86.590004,1729424858593.0,0.0
-6.403193,-16.110876,-9.430114,-298.690002,-70.0,17.5,1729424858614.0,0.0
-3.830909,-20.851057,-16.223339,-436.519989,-126.349998,1.75,1729424858634.0,0.0
-5.407779,-24.873392,-10.112068,-332.98999,18.41,-9.66,1729424858655.0,0.0
-9.348758,-20.817558,-1.651048,-76.790001,153.160004,-38.639999,1729424858673.0,0.0
-7.819745,-13.143774,-1.258625,163.940002,71.68,-6.65,1729424858694.0,0.0
-3.940979,-7.355537,-1.471586,229.460007,-0.14,-40.880001,1729424858714.0,0.0
-1.507478,-3.555735,0.452243,227.990005,-3.36,-60.830002,1729424858734.0,0.0
-2.790031,7.156933,9.169296,183.330002,26.389999,-31.08,1729424858755.0,0.0
-6.293124,6.477371,7.575676,117.669998,14.7,60.760002,1729424858773.0,0.0
-6.376873,-2.799603,5.108676,-2.52,-43.049999,59.220001,1729424858793.0,0.0
-3.172883,-11.349157,0.014357,-169.820007,-82.669998,22.469999,1729424858814.0,0.0
-0.351745,-16.242479,-6.740582,-236.040009,-140.139999,56.84,1729424858834.0,0.0
0.918844,-18.317057,-9.860823,-180.389999,-130.759995,53.760002,1729424858855.0,0.0
-2.648855,-15.909878,-8.159525,-136.570007,16.450001,6.86,1729424858873.0,0.0
-8.465806,-16.158731,-5.728417,-53.060001,146.160004,-27.93,1729424858894.0,0.0
-12.528819,-14.835501,-1.440479,10.08,159.600006,-48.720001,1729424858913.0,0.0
-9.533006,-11.80858,-1.70369,57.470001,79.029999,-48.93,1729424858935.0,0.0
-4.596612,-7.243074,-3.728018,105.279999,8.4,-47.810001,1729424858954.0,0.0
-2.488536,-5.4341,3.404987,140.630005,26.25,-56.490002,1729424858973.0,0.0
-3.306881,2.478964,13.002598,62.650002,83.019997,-49.139999,1729424858993.0,0.0
-5.020142,5.905487,10.224532,68.25,26.110001,25.129999,1729424859013.0,0.0
-3.572484,1.887937,9.355937,3.15,-106.959999,65.099998,1729424859035.0,0.0
-2.294717,-7.204789,1.09352,-151.619995,-144.830002,46.900002,1729424859055.0,0.0
-0.504886,-13.060026,-14.447863,-318.920013,-163.309998,23.799999,1729424859073.0,0.0
0.167498,-19.953749,-11.887544,-366.309998,-148.680008,21.77,1729424859093.0,0.0
-3.062813,-16.311872,-16.244873,-348.040009,61.880001,-41.720001,1729424859113.0,0.0
-8.590233,-14.038691,-8.626125,-87.220001,189.839996,-45.920002,1729424859134.0,0.0
-13.060026,-9.028119,-4.826324,83.019997,233.660004,-3.71,1729424859154.0,0.0
-10.025927,-6.525227,-3.54377,196.210007,99.959999,3.57,1729424859174.0,0.0
-4.847858,-5.168497,2.723032,182.559998,-0.98,-8.61,1729424859193.0,0.0
-1.758725,0.464208,11.263017,72.309998,10.99,7.91,1729424859213.0,0.0
-1.519442,2.524428,9.891929,29.960001,-8.82,31.639999,1729424859234.0,0.0
-2.981457,-2.947958,6.240481,-31.5,-80.150002,40.459999,1729424859254.0,0.0
-1.519442,-9.044869,-6.020342,-161.139999,-121.449997,21.0,1729424859274.0,0.0
1.485943,-16.182659,-13.933406,-154.699997,-166.460007,18.549999,1729424859294.0,0.0
0.31346,-15.031711,-14.445471,-159.320007,-72.099998,18.620001,1729424859313.0,0.0
-4.773681,-14.017156,-17.271393,-95.059998,124.18,5.32,1729424859333.0,0.0
-10.638489,-10.80838,-6.096912,8.82,231.839996,5.6,1729424859355.0,0.0
-13.35913,-10.090532,-6.750153,96.18,186.970001,38.150002,1729424859373.0,0.0
-6.551548,-9.458827,-5.548956,189.139999,34.299999,11.13,1729424859393.0,0.0
-1.957329,-7.410572,2.234896,191.309998,16.59,-0.07,1729424859413.0,0.0
-3.108276,1.459622,9.262616,124.459999,67.340004,10.22,1729424859434.0,0.0
-3.251846,0.691526,6.912865,88.340004,-53.549999,25.059999,1729424859454.0,0.0
-1.641476,-4.488935,3.744767,-27.23,-116.129997,32.830002,1729424859475.0,0.0
-0.088534,-10.411172,-2.57707,-117.599998,-165.270004,30.59,1729424859493.0,0.0
1.083949,-14.500504,-8.79123,-148.470001,-189.350006,8.4,1729424859513.0,0.0
-2.699104,-17.053648,-14.768501,-192.570007,-99.470001,-15.54,1729424859536.0,0.0
-6.343372,-16.668402,-15.859629,-147.559998,60.41,-53.27,1729424859554.0,0.0
-10.829915,-14.191832,-6.309873,-7.84,166.740005,-39.970001,1729424859575.0,0.0
-11.586047,-9.21476,-8.602197,98.489998,129.360001,-7.35,1729424859594.0,0.0
-6.149554,-9.078369,-5.199604,207.199997,17.290001,-36.049999,1729424859612.0,0.0
-2.304288,-7.501499,-0.095713,167.229996,8.68,-46.900002,1729424859633.0,0.0
-2.519642,-2.275574,10.176675,97.440002,47.110001,-47.25,1729424859666.0,0.0
-5.056034,3.63709,8.870193,29.889999,17.92,-31.43,1729424859673.0,0.0
-5.788238,-1.641476,6.125626,-24.99,-89.18,-8.33,1729424859692.0,0.0
-1.768296,-6.04427,-1.59362,-204.190002,-145.809998,-32.689999,1729424859715.0,0.0
1.284946,-10.875379,-4.35733,-275.799988,-206.009995,-28.84,1729424859734.0,0.0
0.933201,-4.589434,-9.643075,-384.230011,-202.020004,-56.560001,1729424859755.0,0.0
-3.620341,-2.945565,-13.940585,-457.309998,-45.43,-62.299999,1729424859774.0,0.0
-7.006185,-6.025128,-16.615761,-420.48999,32.759998,-55.93,1729424859793.0,0.0
-7.628319,-15.168103,-15.168103,-234.080002,62.790001,-31.290001,1729424859814.0,0.0
-5.388636,-14.569898,-12.363714,-72.309998,44.240002,-9.31,1729424859834.0,0.0
-1.387837,-9.032906,-11.01177,46.549999,20.51,-21.0,1729424859864.0,0.0
-0.98345,-2.943172,-5.163712,12.04,69.300003,-25.83,1729424859874.0,0.0
-1.895115,-4.254438,0.442672,2.45,70.910004,-8.19,1729424859894.0,0.0
-0.926022,-7.269395,4.003192,-10.01,18.41,-13.86,1729424859914.0,0.0
0.088534,-6.924829,2.07697,-41.02,-32.619999,-33.110001,1729424859935.0,0.0
-0.741775,-4.206582,-4.910072,-67.760002,-63.349998,-44.939999,1729424859957.0,0.0
-0.567099,-5.216353,-12.911672,-98.629997,-100.169998,-48.02,1729424859975.0,0.0
0.086142,-5.230711,-12.134004,-116.059998,-109.970001,-59.360001,1729424859994.0,0.0
-1.919044,-1.088734,-14.086546,-109.760002,-50.470001,-29.4,1729424860014.0,0.0
-6.530013,-3.081956,-16.266409,-86.800003,29.960001,15.26,1729424860034.0,0.0
-5.781059,-8.671589,-13.103097,37.799999,92.889999,46.900002,1729424860055.0,0.0
-3.658626,-7.202396,-11.909079,111.510002,81.410004,51.52,1729424860076.0,0.0
-3.620341,-2.57707,-4.347759,54.040001,109.970001,38.290001,1729424860096.0,0.0
-3.771089,-8.602197,1.85683,-3.01,86.379997,28.84,1729424860114.0,0.0
-0.480957,-13.256237,1.481157,-26.18,16.17,-12.04,1729424860136.0,0.0
1.512264,-9.365508,-2.519642,53.900002,-50.959999,-39.759998,1729424860156.0,0.0
-0.227318,-2.782853,-4.957928,55.299999,-49.07,-54.880001,1729424860174.0,0.0
-2.507678,-3.208775,-7.896315,1.19,-45.920002,-41.16,1729424860195.0,0.0
-2.316252,-4.053442,-9.84168,-0.35,-90.580002,-42.0,1729424860215.0,0.0
-2.026721,-0.189033,-12.650853,-41.860001,-74.620003,-33.110001,1729424860236.0,0.0
-4.252046,-0.153141,-17.237894,-52.57,-4.97,10.43,1729424860258.0,0.0
-5.024928,-3.639483,-17.285749,-5.67,68.879997,32.200001,1729424860275.0,0.0
-3.268596,-8.130811,-14.103296,88.550003,76.160004,53.060001,1729424860294.0,0.0
-0.48335,-6.960721,-9.88475,108.360001,73.5,42.279999,1729424860315.0,0.0
-0.990629,-3.739982,-0.57667,37.380001,112.629997,48.439999,1729424860335.0,0.0
-1.67019,-10.916058,3.038885,-12.11,84.209999,42.91,1729424860356.0,0.0
2.541178,-11.085947,2.041078,-8.26,-50.82,-35.07,1729424860379.0,0.0
0.334995,-3.644269,-3.400201,30.870001,-88.269997,-42.77,1729424860395.0,0.0
-1.59362,-4.307081,-8.329416,-44.170002,-95.690002,-34.93,1729424860415.0,0.0
-0.332602,-6.130411,-14.634504,-34.650002,-129.220001,-21.49,1729424860435.0,0.0
-2.376073,-0.488136,-18.077776,-23.17,-57.330002,21.0,1729424860456.0,0.0
-8.944371,-1.619941,-19.841284,-2.52,89.529999,69.510002,1729424860475.0,0.0
-9.920642,-6.171089,-14.770894,67.340004,151.410004,79.239998,1729424860495.0,0.0
-3.196811,-7.506285,-12.098111,141.820007,62.439999,81.830002,1729424860514.0,0.0
2.012364,-3.739982,0.189033,47.810001,47.389999,23.24,1729424860539.0,0.0
-0.710668,-5.735595,5.886343,-71.75,82.529999,27.860001,1729424860556.0,0.0
-0.066999,-10.368099,2.845066,-66.989998,-10.01,-3.78,1729424860575.0,0.0
0.87338,-10.920842,-0.222532,-48.790001,-92.959999,-63.560001,1729424860594.0,0.0
-1.464408,-5.046463,-4.582255,-73.989998,-95.410004,-86.449997,1729424860615.0,0.0
-3.498307,-6.805188,-9.676575,-78.68,-101.290001,-70.910004,1729424860636.0,0.0
-2.512464,-5.723632,-14.799608,-34.720001,-128.309998,-60.27,1729424860655.0,0.0
-4.354938,0.081356,-16.666008,-24.57,-74.970001,-5.32,1729424860675.0,0.0
-8.949157,2.148755,-18.319448,-43.959999,36.330002,41.720001,1729424860694.0,0.0
-5.008178,-5.881558,-14.033905,102.410004,48.16,74.410004,1729424860714.0,0.0
0.459422,-7.743174,-13.363914,135.869995,29.4,59.920002,1729424860735.0,0.0
-0.287139,-5.108676,-1.426122,39.200001,99.75,31.780001,1729424860756.0,0.0
-3.737589,-6.661618,2.065006,-74.830002,118.510002,29.540001,1729424860774.0,0.0
-1.416551,-11.3683,4.622933,-54.25,12.39,2.45,1729424860794.0,0.0
1.588834,-11.973685,1.136591,-14.77,-68.25,-47.810001,1729424860814.0,0.0
-0.449851,-5.436492,-3.871587,18.83,-78.68,-62.790001,1729424860835.0,0.0
-2.239682,-4.225725,-8.16431,39.970001,-83.510002,-46.060001,1729424860856.0,0.0
-2.325824,-5.704489,-12.067005,99.82,-130.130005,-31.01,1729424860874.0,0.0
-3.850052,-2.218147,-15.608383,126.279999,-79.449997,-12.25,1729424860894.0,0.0
-8.23131,-1.864009,-17.118254,122.849998,57.260002,37.52,1729424860915.0,0.0
-9.516255,-6.910471,-15.28535,126.209999,126.980003,57.400002,1729424860935.0,0.0
-6.750153,-11.4018,-7.668997,159.039993,94.43,41.09,1729424860956.0,0.0
-3.278167,-9.657433,-5.87438,156.869995,57.540001,29.889999,1729424860977.0,0.0
-2.924029,-7.929814,-3.132205,243.040009,63.139999,34.439999,1729424860995.0,0.0
-3.979264,-6.742974,-0.820738,360.360016,81.900002,48.23,1729424861014.0,0.0
-3.620341,-2.768496,-1.064806,459.830017,45.920002,60.970001,1729424861035.0,0.0
-1.902294,0.138784,1.586441,447.860016,-39.200001,72.730003,1729424861056.0,0.0
-0.710668,-2.423929,1.050449,298.690002,-41.93,82.459999,1729424861074.0,0.0
-0.643669,-8.386844,-1.141376,77.279999,-21.629999,61.32,1729424861095.0,0.0
-1.629512,-15.091532,-3.507878,-23.940001,2.73,30.52,1729424861163.0,0.0
-3.617948,-18.943977,-2.37368,20.719999,3.64,23.870001,1729424861164.0,0.0
-4.225725,-12.126825,-2.038685,45.080002,0.91,18.83,1729424861164.0,0.0
-3.665804,-9.54497,-0.918844,19.18,2.24,4.76,1729424861177.0,0.0
-2.938386,-6.233303,-1.392623,-108.57,5.6,-10.29,1729424861198.0,0.0
-3.376273,-6.723832,2.727818,-231.279999,24.43,-18.549999,1729424861214.0,0.0
-3.838088,-10.052249,0.102891,-357.140015,28.77,-45.990002,1729424861235.0,0.0
-2.481357,-13.808979,-0.59342,-372.26001,-3.5,-59.010002,1729424861255.0,0.0
-0.612563,-14.974284,-0.899701,-319.899994,-32.27,-63.0,1729424861275.0,0.0
0.20339,-13.947763,-1.74676,-244.160004,-40.950001,-88.129997,1729424861294.0,0.0
-0.768096,-9.865608,2.0004,-219.169998,-31.01,-108.5,1729424861314.0,0.0
-4.206582,-3.986443,3.012564,-281.470001,-1.89,-98.489998,1729424861336.0,0.0
-5.508278,-6.180661,0.236889,-290.920013,-41.650002,-92.610001,1729424861355.0,0.0
-0.758525,-5.094319,-2.419144,-290.290009,-108.360001,-96.739998,1729424861374.0,0.0
-1.715654,-7.750352,-8.276773,-50.049999,-118.020004,-25.76,1729424861395.0,0.0
-3.869194,-8.477771,-16.206589,45.920002,-84.0,-27.440001,1729424861413.0,0.0
-7.350751,-1.840081,-19.197617,-4.55,31.639999,-4.97,1729424861439.0,0.0
-11.842079,0.923629,-20.166712,-68.809998,120.75,63.91,1729424861455.0,0.0
-7.613962,-4.838287,-16.151552,3.99,70.559998,47.810001,1729424861474.0,0.0
-2.447858,-4.601398,-13.39502,81.690002,47.110001,83.300003,1729424861494.0,0.0
-1.174876,-2.175076,-5.759524,106.959999,100.029999,91.769997,1729424861514.0,0.0
-1.347159,-3.962514,-1.596013,2.24,123.830002,57.330002,1729424861537.0,0.0
-0.842274,-9.095119,1.067199,-119.209999,87.57,28.0,1729424861555.0,0.0
-0.689133,-14.557933,3.493521,-116.900002,44.869999,0.49,1729424861586.0,0.0
-0.361316,-12.380465,2.053042,-53.900002,-26.67,-43.610001,1729424861595.0,0.0
-0.875773,-7.362715,-3.548556,43.540001,-91.0,-79.449997,1729424861614.0,0.0
-1.177269,-5.685347,-11.854043,68.040001,-129.289993,-92.889999,1729424861635.0,0.0
-1.196411,-4.457829,-12.882957,13.79,-127.610001,-98.699997,1729424861655.0,0.0
-4.242475,1.722832,-15.268601,-138.809998,-14.49,-64.050003,1729424861680.0,0.0
-7.88435,0.782453,-21.702902,-70.840004,100.870003,12.11,1729424861700.0,0.0
-5.618347,-3.28056,-5.728417,77.489998,92.400002,76.510002,1729424861714.0,0.0
0.990629,-2.538785,-7.585248,0.49,-9.31,80.150002,1729424861736.0,0.0
0.48335,-5.278566,-7.192825,-33.599998,72.800003,66.150002,1729424861756.0,0.0
-4.185047,-8.188239,-4.019942,-34.720001,119.279999,57.75,1729424861775.0,0.0
-4.62054,-11.408978,1.040878,-31.290001,58.310001,35.84,1729424861795.0,0.0
-2.976671,-12.746566,3.337988,-5.95,-19.25,10.43,1729424861829.0,0.0
-2.105684,-11.617154,-0.815953,59.709999,-92.68,-47.810001,1729424861839.0,0.0
-2.009971,-9.430114,-7.953743,103.110001,-123.059998,-85.82,1729424861869.0,0.0
-1.414158,-7.427321,-9.473185,97.93,-153.369995,-95.480003,1729424861944.0,0.0
0.074178,-1.428515,-8.300702,-66.57,-150.919998,-106.68,1729424861946.0,0.0
-3.098706,1.897508,-12.074183,-210.839996,-57.540001,-48.580002,1729424861947.0,0.0
-7.585248,-1.773082,-21.82972,-70.629997,71.190002,0.84,1729424861948.0,0.0
-10.241282,-6.250053,-14.141582,125.650002,120.050003,62.720001,1729424861956.0,0.0
-5.283352,-6.568298,-8.183454,203.419998,-10.5,88.059998,1729424861974.0,0.0
0.741775,-4.625326,-12.923635,157.919998,-60.34,66.989998,1729424861997.0,0.0
0.859023,-2.249253,-8.870193,130.550003,28.630001,46.27,1729424862013.0,0.0
-3.369094,-5.383851,-4.163511,40.110001,139.229996,57.260002,1729424862034.0,0.0
-4.488935,-8.463413,-2.285146,-103.040001,92.330002,0.42,1729424862057.0,0.0
-2.95035,-11.858829,-2.9336,-186.619995,16.450001,-42.349998,1729424862076.0,0.0
-1.588834,-11.724831,-2.304288,-140.490005,-31.710001,-67.340004,1729424862095.0,0.0
-1.368695,-8.228917,-3.196811,-25.27,-45.150002,-85.050003,1729424862117.0,0.0
-2.11047,-4.792823,-1.502693,35.560001,-51.099998,-81.129997,1729424862135.0,0.0
-2.354537,-3.553342,-4.084548,-6.09,-70.699997,-72.940002,1729424862157.0,0.0
-2.057827,-5.438886,-9.305687,-108.150002,-83.93,-64.120003,1729424862176.0,0.0
-2.431108,-7.805387,-12.533605,-163.380005,-37.939999,-50.049999,1729424862196.0,0.0
-4.362115,-4.754539,-9.927821,-84.629997,20.370001,-17.639999,1729424862215.0,0.0
-7.970492,-6.886543,-13.722836,133.070007,72.519997,53.970001,1729424862238.0,0.0
-5.06082,-6.147161,-13.040883,184.240005,25.129999,58.450001,1729424862257.0,0.0
-0.122034,-5.094319,-13.844872,168.699997,-5.32,67.059998,1729424862277.0,0.0
1.701297,-5.922236,-10.91845,161.559998,56.0,68.739998,1729424862297.0,0.0
0.306281,-7.207181,-0.653241,164.710007,117.040001,57.049999,1729424862316.0,0.0
-0.090927,-6.218946,6.441479,186.270004,71.959999,50.75,1729424862336.0,0.0
-1.651048,-6.068198,4.163511,182.910004,-9.66,27.370001,1729424862359.0,0.0
-2.868994,-2.85703,0.306281,95.059998,-46.759998,4.76,1729424862383.0,0.0
-2.309074,-4.953143,-6.728617,47.740002,-84.769997,21.280001,1729424862399.0,0.0
-0.497707,-8.755339,-11.710474,14.07,-135.100006,16.940001,1729424862419.0,0.0
-2.0004,-11.504691,-12.509676,-17.43,-78.400002,5.53,1729424862437.0,0.0
-7.867601,-10.040283,-10.202995,-102.830002,97.440002,-28.07,1729424862460.0,0.0
-13.950156,-11.490334,-11.787045,-73.989998,205.169998,-7.91,1729424862477.0,0.0
-9.382257,-13.313664,-13.354343,81.340004,71.82,37.66,1729424862495.0,0.0
-0.990629,-11.057234,-9.918249,251.020004,-57.049999,16.450001,1729424862516.0,0.0
3.326023,-6.02752,-3.409772,324.660004,14.84,21.139999,1729424862539.0,0.0
3.29731,0.801596,8.173882,377.929993,122.290001,25.620001,1729424862559.0,0.0
-0.904487,1.22034,12.303895,437.290009,91.840004,53.970001,1729424862576.0,0.0
-4.613362,1.028914,8.437093,288.890015,-19.879999,72.519997,1729424862596.0,0.0
-4.587041,-2.639283,3.883551,133.910004,-66.360001,80.290001,1729424862616.0,0.0
-2.926422,-7.970492,-1.725225,115.639999,-107.099998,110.529999,1729424862636.0,0.0
-2.87378,-18.800407,-3.814159,119.489998,-71.75,105.840004,1729424862659.0,0.0
-7.202396,-18.745371,-3.517449,-30.799999,97.370003,31.639999,1729424862677.0,0.0
-12.552748,-19.365112,-1.557728,-42.420002,175.490005,-18.76,1729424862695.0,0.0
-11.748759,-16.962721,-2.464607,72.099998,62.09,0.63,1729424862715.0,0.0
-5.225924,-14.646468,-1.562513,200.059998,-16.59,-37.029999,1729424862736.0,0.0
-2.376073,-12.851851,-0.083749,247.449997,13.58,-60.549999,1729424862757.0,0.0
-2.56032,-6.833901,3.058028,252.770004,63.700001,-82.599998,1729424862776.0,0.0
-2.89053,2.086541,7.022934,257.390015,66.43,-65.239998,1729424862797.0,0.0
-2.529213,9.229117,6.874579,274.329987,-0.42,25.620001,1729424862815.0,0.0
-2.445465,6.570691,10.963913,189.979996,-59.43,67.199997,1729424862836.0,0.0
-1.883151,-0.693919,5.601598,-41.23,-43.189999,41.720001,1729424862857.0,0.0
-1.519442,-10.234102,0.562313,-189.210007,-58.450001,54.810001,1729424862876.0,0.0
-0.579063,-16.591831,-3.795017,-285.73999,-87.360001,51.52,1729424862896.0,0.0
-2.127219,-16.290337,-2.088934,-335.579987,-56.07,26.389999,1729424862916.0,0.0
-6.173482,-15.500705,-0.543171,-294.279999,11.34,-21.77,1729424862936.0,0.0
-9.729217,-14.143975,-0.057428,-254.729996,23.59,-74.199997,1729424862957.0,0.0
-7.817351,-12.878171,-2.739782,-151.970001,2.8,-95.199997,1729424862976.0,0.0
-4.4339,-8.614161,-0.191426,-155.539993,-29.120001,-98.980003,1729424862995.0,0.0
-2.904887,-3.802195,6.539584,-214.759995,-12.53,-79.590004,1729424863015.0,0.0
-4.342973,-0.653241,8.202596,-263.130005,2.87,-50.540001,1729424863035.0,0.0
-5.659025,-1.275374,4.668397,-299.040009,-36.82,-45.920002,1729424863058.0,0.0
-3.859623,-2.699104,-1.785046,-393.26001,-98.980003,-66.5,1729424863076.0,0.0
-1.284946,-5.24746,-8.561519,-442.330017,-142.729996,-65.590004,1729424863095.0,0.0
0.870987,-9.870394,-13.469198,-398.440002,-146.649994,-56.0,1729424863115.0,0.0
1.217947,-5.704489,-13.35913,-362.809998,-80.57,-35.07,1729424863136.0,0.0
-1.083949,-5.45085,-13.414164,-273.839996,18.690001,-2.31,1729424863158.0,0.0
-3.031706,-8.090133,-15.235102,-169.399994,68.879997,16.73,1729424863176.0,0.0
-3.981657,-11.442478,-14.845071,47.110001,97.370003,27.93,1729424863195.0,0.0
-5.745167,-12.636496,-6.805188,190.050003,118.230003,35.84,1729424863215.0,0.0
-5.4676,-7.628319,-3.024528,107.520004,110.599998,-4.06,1729424863236.0,0.0
-5.206782,-7.099504,2.172683,90.720001,69.93,11.76,1729424863258.0,0.0
-3.421736,-4.694718,4.455436,17.780001,22.049999,4.62,1729424863275.0,0.0
0.208176,-5.235496,-0.088534,19.809999,-43.049999,0.28,1729424863295.0,0.0
3.962514,-8.200203,-8.819944,44.59,-104.790001,-19.25,1729424863315.0,0.0
4.06062,-5.491528,-11.373087,36.330002,-81.900002,-21.629999,1729424863335.0,0.0
2.254039,-4.65404,-12.957134,55.09,-56.91,8.61,1729424863357.0,0.0
-0.177069,-6.276374,-11.298907,44.73,-16.73,29.049999,1729424863376.0,0.0
-2.289931,-6.589834,-12.016755,46.34,43.259998,40.040001,1729424863395.0,0.0
-4.833502,-7.585248,-11.265409,67.340004,92.190002,43.119999,1729424863416.0,0.0
-6.498906,-12.320643,-6.183054,64.120003,138.880005,24.360001,1729424863437.0,0.0
-6.970293,-15.617953,-6.273981,44.170002,128.869995,1.61,1729424863456.0,0.0
-6.053841,-13.524234,-5.4341,81.410004,97.019997,2.66,1729424863476.0,0.0
-3.792624,-8.55434,-1.68694,183.050003,84.0,13.65,1729424863495.0,0.0
-1.976472,-5.257031,-0.449851,318.920013,54.040001,44.170002,1729424863515.0,0.0
0.574277,-6.281159,-0.031107,438.269989,-6.16,51.310001,1729424863537.0,0.0
3.522235,-6.778866,0.480957,436.519989,-46.970001,32.619999,1729424863557.0,0.0
3.914658,-1.835295,1.136591,395.149994,-18.200001,36.82,1729424863575.0,0.0
1.069592,-1.160519,1.136591,415.660004,17.99,97.510002,1729424863594.0,0.0
-1.737189,-7.391429,-0.378066,314.579987,2.38,101.779999,1729424863614.0,0.0
-3.388237,-8.123632,-1.205983,60.060001,16.59,50.82,1729424863635.0,0.0
-7.424929,-12.356536,-4.364508,-77.419998,45.080002,66.080002,1729424863656.0,0.0
-11.9689,-17.642281,1.651048,-206.779999,74.269997,-9.66,1729424863676.0,0.0
-11.117055,-18.814764,-4.74736,-84.07,42.700001,-51.450001,1729424863695.0,0.0
-6.151947,-15.96252,-3.672983,115.919998,-12.74,-25.34,1729424863715.0,0.0
-2.431108,-11.274981,-0.535992,210.139999,5.53,-48.650002,1729424863737.0,0.0
-2.031506,-5.809773,5.087141,223.160004,60.830002,-57.959999,1729424863758.0,0.0
-2.658426,0.366102,8.606983,201.110001,79.449997,-37.52,1729424863776.0,0.0
-1.617548,4.479364,10.080962,172.479996,10.5,19.040001,1729424863795.0,0.0
0.09332,2.447858,15.47917,99.190002,-57.68,48.439999,1729424863816.0,0.0
-0.445065,-1.689333,11.246266,-64.82,-69.370003,66.779999,1729424863835.0,0.0
-2.048256,-7.549356,4.362115,-175.699997,-97.300003,88.129997,1729424863856.0,0.0
0.129212,-11.75833,-8.147561,-239.330002,-121.800003,55.580002,1729424863875.0,0.0
2.758924,-15.873986,-9.109475,-225.399994,-105.629997,43.259998,1729424863894.0,0.0
-2.54357,-20.623739,-5.321638,-88.269997,74.970001,26.32,1729424863915.0,0.0
-10.219746,-18.020348,-1.012164,73.919998,199.149994,-23.799999,1729424863935.0,0.0
-11.301301,-15.620347,0.294317,222.040009,142.100006,-14.07,1729424863956.0,0.0
-5.166104,-9.894321,1.818545,223.720001,60.689999,-48.16,1729424863976.0,0.0
-3.141776,-2.924029,4.740182,173.949997,32.689999,-52.849998,1729424863995.0,0.0
-2.974278,4.508078,8.159525,122.779999,44.450001,-15.96,1729424864015.0,0.0
-2.624927,8.458629,8.712267,136.5,-1.89,44.099998,1729424864036.0,0.0
-2.892922,4.319045,12.942777,110.25,-40.810001,80.989998,1729424864056.0,0.0
-2.845066,-0.198604,6.809973,-32.549999,-47.950001,95.199997,1729424864075.0,0.0
-2.134398,-7.058826,-0.114855,-130.270004,-79.800003,121.029999,1729424864095.0,0.0
-0.212961,-15.653846,-5.166104,-215.949997,-93.449997,102.340004,1729424864114.0,0.0
-0.882952,-16.864614,-7.91785,-341.179993,-17.08,62.02,1729424864135.0,0.0
-8.915657,-25.993233,-3.646662,-172.550003,146.300003,15.96,1729424864156.0,0.0
-13.598411,-21.547369,-1.533799,3.01,159.600006,-42.139999,1729424864175.0,0.0
-10.9352,-15.21596,-0.019143,184.169998,65.239998,-27.93,1729424864194.0,0.0
-5.237889,-11.107484,-1.205983,185.220001,2.38,-97.93,1729424864215.0,0.0
-2.325824,-7.982457,-0.748954,166.180008,15.54,-106.330002,1729424864235.0,0.0
-1.385444,-1.174876,1.189233,113.959999,52.849998,-97.650002,1729424864258.0,0.0
-2.270789,4.082155,7.219146,95.550003,77.07,-69.230003,1729424864275.0,0.0
-2.900101,5.91745,8.973085,83.790001,55.93,-30.030001,1729424864295.0,0.0
-3.701697,1.524228,10.231709,74.550003,16.379999,22.120001,1729424864314.0,0.0
-3.917051,-9.298509,7.74796,55.790001,-23.17,23.940001,1729424864335.0,0.0
-4.086941,-10.516455,7.611568,59.779999,-20.299999,29.889999,1729424864356.0,0.0
-4.768896,-7.166504,7.898707,49.630001,0.49,37.240002,1729424864376.0,0.0
-3.34038,-3.627519,8.530413,41.580002,-12.53,40.040001,1729424864396.0,0.0
-1.854438,-3.239882,9.934999,34.299999,-40.599998,62.860001,1729424864415.0,0.0
-1.962115,-5.618347,9.695717,-1.75,-48.23,75.739998,1729424864435.0,0.0
-3.172883,-7.831708,7.216753,-51.170002,-46.549999,71.82,1729424864456.0,0.0
-4.41715,-8.087741,4.017549,-91.07,-31.43,72.309998,1729424864475.0,0.0
-6.23091,-10.760524,0.882952,-86.099998,-14.42,74.760002,1729424864494.0,0.0
-8.551948,-14.577076,-4.218546,-80.5,15.68,39.060001,1729424864515.0,0.0
-11.499906,-17.759529,-3.127419,-54.18,57.400002,-15.96,1729424864538.0,0.0
-11.696117,-16.541582,-0.452243,10.64,75.739998,-57.68,1729424864555.0,0.0
-8.336594,-12.866207,2.218147,89.459999,20.58,-78.470001,1729424864575.0,0.0
-4.110869,-6.589834,0.643669,103.25,15.05,-98.349998,1729424864594.0,0.0
-1.727618,1.179662,0.392423,104.160004,28.35,-67.480003,1729424864614.0,0.0
1.533799,10.277173,5.927022,118.790001,5.39,-15.190001,1729424864635.0,0.0
4.208975,7.343572,13.134203,122.989998,-6.09,46.130001,1729424864656.0,0.0
0.275175,2.486143,8.001599,-92.120003,-5.81,161.699997,1729424864675.0,0.0
-1.849652,-2.553142,0.660419,-216.020004,-23.52,194.809998,1729424864695.0,0.0
-3.809374,-8.465806,-4.474578,-332.920013,-17.57,172.479996,1729424864714.0,0.0
-12.854243,-20.379669,-4.838287,-357.209991,69.160004,106.959999,1729424864735.0,0.0
-25.514668,-41.235512,-5.053641,-192.220001,165.690002,-65.870003,1729424864757.0,0.0
-17.611174,-23.511873,-1.844866,-8.4,24.43,-48.369999,1729424864775.0,0.0
-7.310073,-11.940186,2.675175,130.339996,-43.330002,-85.889999,1729424864795.0,0.0
-3.591627,-5.036892,1.48355,160.300003,-16.309999,-126.139999,1729424864816.0,0.0
-1.753939,3.605984,4.15394,172.059998,6.93,-108.43,1729424864835.0,0.0
-0.287139,11.739187,9.925428,187.740005,-4.34,-23.799999,1729424864855.0,0.0
2.237289,13.179667,11.983256,159.529999,-29.68,46.830002,1729424864875.0,0.0
1.959722,6.338587,8.059027,-26.25,-47.389999,103.040001,1729424864894.0,0.0
-1.344766,-1.347159,2.079363,-184.800003,-29.049999,138.740005,1729424864914.0,0.0
-5.321638,-7.649854,-5.039285,-281.959991,25.549999,127.470001,1729424864935.0,0.0
-12.263215,-17.168503,-7.491928,-324.730011,91.349998,66.989998,1729424864955.0,0.0
-26.866613,-34.028332,-5.379066,-247.729996,132.300003,-52.220001,1729424864974.0,0.0
-9.4349,-17.778673,-0.550349,-57.75,-34.439999,-79.029999,1729424864994.0,0.0
-3.127419,-10.076177,0.138784,169.820007,-79.099998,-84.349998,1729424865014.0,0.0
-1.387837,-2.529213,-0.631705,220.639999,6.65,-124.949997,1729424865035.0,0.0
-1.304088,7.74796,1.306481,239.119995,55.23,-82.459999,1729424865056.0,0.0
-0.995414,12.136396,11.042876,270.200012,21.77,30.450001,1729424865074.0,0.0
1.533799,8.472985,12.373285,155.820007,-14.35,64.260002,1729424865094.0,0.0
1.162912,3.37388,7.271788,-107.379997,-30.380001,98.629997,1729424865115.0,0.0
-1.878366,-3.67059,2.237289,-222.740005,-16.940001,139.229996,1729424865135.0,0.0
-6.209375,-11.253445,-3.988836,-297.570007,27.299999,132.930008,1729424865156.0,0.0
-13.837693,-18.800407,-7.769495,-339.709991,70.209999,62.16,1729424865175.0,0.0
-25.933411,-36.428333,-2.285146,-155.470001,85.400002,-50.049999,1729424865194.0,0.0
-14.029119,-22.731815,1.292124,37.73,-74.550003,-62.369999,1729424865214.0,0.0
-5.249853,-13.189239,1.945365,179.830002,-105.419998,-59.360001,1729424865237.0,0.0
-2.337788,-9.391829,-1.574477,248.850006,-53.130001,-133.839996,1729424865256.0,0.0
-2.306681,-3.364309,-0.425922,242.479996,-0.28,-149.660004,1729424865275.0,0.0
-1.301696,2.78046,0.306281,192.149994,10.29,-80.849998,1729424865295.0,0.0
1.808974,6.269196,4.350152,153.300003,-23.379999,-31.5,1729424865315.0,0.0
3.026921,5.087141,3.220739,7.7,-13.93,6.16,1729424865334.0,0.0
-0.428315,-0.717847,1.835295,-237.440002,30.17,60.830002,1729424865356.0,0.0
-4.965107,-6.577869,3.282953,-311.779999,58.029999,62.23,1729424865374.0,0.0
-8.870193,-11.655439,0.892523,-334.809998,41.09,51.170002,1729424865394.0,0.0
-10.631311,-16.587046,-1.062413,-279.649994,-19.389999,22.960001,1729424865415.0,0.0
-10.018748,-18.491734,-4.292724,-210.910004,-38.990002,6.58,1729424865434.0,0.0
-10.420743,-19.147367,-3.278167,-84.910004,-22.540001,-1.61,1729424865456.0,0.0
-8.336594,-12.916457,-0.619741,-45.920002,-0.56,-60.060001,1729424865475.0,0.0
-6.912865,-11.870793,-0.002393,30.309999,15.190001,-42.139999,1729424865494.0,0.0
-4.608576,-12.768101,0.351745,112.349998,26.6,-42.279999,1729424865514.0,0.0
-3.471986,-11.700903,1.981257,173.110001,66.709999,-47.529999,1729424865539.0,0.0
-3.199204,-4.960321,5.056034,203.979996,95.620003,-52.709999,1729424865555.0,0.0
-2.038685,1.852045,7.834101,243.740005,81.410004,-32.900002,1729424865574.0,0.0
-0.794417,5.4676,10.042676,256.899994,26.460001,13.51,1729424865595.0,0.0
-0.875773,6.034698,11.629118,157.850006,-9.45,47.389999,1729424865613.0,0.0
-4.488935,2.344966,12.124433,-17.290001,-13.440001,76.860001,1729424865634.0,0.0
-7.223931,-1.387837,3.725625,-213.080002,-40.110001,86.730003,1729424865656.0,0.0
-9.016156,-11.4353,-5.766702,-302.190002,-70.769997,47.670002,1729424865674.0,0.0
-10.176675,-14.009976,-10.691131,-397.880005,-24.15,15.61,1729424865693.0,0.0
-12.926028,-20.288744,-14.038691,-235.410004,36.259998,7.49,1729424865714.0,0.0
-10.822738,-19.774286,-8.391629,53.130001,32.34,-38.43,1729424865736.0,0.0
-6.771688,-15.905092,-6.305088,283.079987,31.01,-39.900002,1729424865756.0,0.0
-4.225725,-12.464212,-3.493521,322.070007,57.68,-90.440002,1729424865774.0,0.0
-3.443272,-5.644669,0.064606,229.880005,86.800003,-119.209999,1729424865795.0,0.0
-3.26381,5.469993,7.168896,136.149994,80.150002,-85.050003,1729424865814.0,0.0
-2.581856,12.337393,13.409377,145.809998,11.83,10.64,1729424865834.0,0.0
-1.442872,9.973285,15.471991,77.349998,-61.389999,53.130001,1729424865856.0,0.0
-3.177669,3.567699,9.686146,-150.919998,-75.879997,67.199997,1729424865873.0,0.0
-4.07737,-3.728018,-0.892523,-281.119995,-95.410004,98.349998,1729424865894.0,0.0
-2.952743,-13.957335,-11.306087,-319.690002,-122.779999,91.209999,1729424865915.0,0.0
-3.507878,-17.723637,-14.301902,-396.549988,-82.32,54.040001,1729424865934.0,0.0
-10.82513,-24.430719,-9.58804,-282.940002,126.559998,17.639999,1729424865955.0,0.0
-16.795221,-23.676981,-6.690332,-26.460001,150.360001,-29.4,1729424865976.0,0.0
-9.389436,-17.039289,-4.955536,239.960007,5.18,-18.969999,1729424865993.0,0.0
-1.90708,-7.936993,0.019143,295.540009,4.83,-77.910004,1729424866014.0,0.0
-2.926422,-2.947958,2.354537,284.059998,63.91,-80.5,1729424866033.0,0.0
-4.905287,4.512863,6.183054,209.720001,64.330002,-66.639999,1729424866055.0,0.0
-5.702096,11.126624,8.13799,143.5,0.7,9.17,1729424866076.0,0.0
-3.98405,6.089733,8.166703,129.639999,-92.050003,65.870003,1729424866094.0,0.0
-2.230111,-1.464408,6.556334,0.63,-99.470001,49.560001,1729424866180.0,0.0
-2.414358,-9.722038,0.421137,-108.779999,-75.949997,71.610001,1729424866180.0,0.0
-2.321038,-15.577275,-4.697111,-222.180008,-85.889999,87.709999,1729424866181.0,0.0
-3.440879,-16.907684,-1.160519,-307.720001,-55.510002,48.720001,1729424866186.0,0.0
-7.802995,-14.093725,-6.185446,-285.390015,45.290001,11.27,1729424866195.0,0.0
-12.47857,-21.224337,-3.407379,-68.599998,74.900002,-20.860001,1729424866213.0,0.0
-11.375479,-16.141981,-4.902894,-10.64,61.950001,-70.349998,1729424866234.0,0.0
-7.140182,-12.923635,-0.842274,106.190002,25.690001,-74.199997,1729424866255.0,0.0
-4.086941,-7.350751,0.315853,118.510002,25.059999,-90.230003,1729424866274.0,0.0
-3.991228,0.732204,9.611969,108.919998,52.990002,-74.410004,1729424866293.0,0.0
-4.295116,8.575876,9.013763,62.23,26.67,-11.34,1729424866314.0,0.0
-3.117848,5.625526,5.594419,16.379999,-72.870003,42.209999,1729424866334.0,0.0
-1.371087,-6.982256,4.634897,-147.0,-69.160004,52.360001,1729424866356.0,0.0
-1.789831,-16.060625,0.392423,-236.529999,-63.630001,54.599998,1729424866374.0,0.0
-1.299303,-15.656239,-8.408379,-336.910004,-74.059998,25.969999,1729424866394.0,0.0
-2.821138,-19.850857,-11.717653,-248.080002,-8.96,-1.54,1729424866423.0,0.0
-6.266802,-19.642681,-11.117055,-173.25,116.830002,-54.810001,1729424866435.0,0.0
-9.832108,-16.924435,-7.159326,19.74,170.169998,-48.720001,1729424866454.0,0.0
-8.41795,-9.997212,2.526821,162.680008,95.480003,-43.75,1729424866473.0,0.0
-5.855237,-1.770689,3.684947,146.300003,39.27,-41.93,1729424866494.0,0.0
-6.498906,1.57687,8.329416,123.340004,1.82,-22.82,1729424866513.0,0.0
-6.60419,2.431108,5.414958,35.560001,-22.469999,-16.1,1729424866536.0,0.0
-4.625326,-0.835095,3.926622,-23.379999,-54.599998,-1.61,1729424866555.0,0.0
-2.354537,-4.608576,1.454836,-47.389999,-92.260002,29.120001,1729424866573.0,0.0
-0.839881,-11.485549,-2.957529,-49.84,-108.849998,42.700001,1729424866593.0,0.0
0.311067,-18.843477,-7.290931,-96.25,-89.599998,21.42,1729424866614.0,0.0
-0.562313,-19.992033,-10.545169,-174.369995,-7.49,-10.43,1729424866634.0,0.0
-2.533999,-16.53919,-10.992627,-170.029999,71.470001,-38.360001,1729424866654.0,0.0
-5.718846,-8.614161,-3.850052,-90.650002,111.790001,-53.549999,1729424866674.0,0.0
-8.245667,-6.927221,-2.371287,34.790001,125.160004,-39.759998,1729424866693.0,0.0
-8.398808,-4.615755,0.641276,67.129997,72.870003,-40.18,1729424866713.0,0.0
-6.398407,-1.024128,4.969893,88.620003,18.76,-10.57,1729424866735.0,0.0
-3.869194,2.62732,7.956135,100.730003,-58.799999,32.48,1729424866756.0,0.0
-2.249253,1.143769,4.673182,84.489998,-109.270004,55.299999,1729424866774.0,0.0
-3.249453,-4.158726,0.385244,-7.42,-82.32,75.040001,1729424866793.0,0.0
-4.656433,-16.584654,-2.59382,-59.43,-61.459999,72.309998,1729424866814.0,0.0
-2.852244,-25.438099,-14.452648,-197.399994,-63.07,2.59,1729424866834.0,0.0
-1.543371,-23.48316,-9.724431,-197.190002,-22.68,-46.549999,1729424866855.0,0.0
-1.935793,-11.624333,-6.338587,-91.840004,54.459999,-56.349998,1729424866873.0,0.0
-2.821138,-3.639483,-3.445665,31.99,71.75,-32.27,1729424866893.0,0.0
-4.850252,-2.675175,0.631705,101.150002,69.650002,-10.71,1729424866913.0,0.0
-5.903094,-5.278566,2.007578,61.529999,50.82,-27.58,1729424866934.0,0.0
-5.647062,-7.281359,2.900101,-9.73,24.780001,-28.210001,1729424866955.0,0.0
-4.331009,-6.60419,3.199204,-26.25,-6.16,-10.64,1729424866973.0,0.0
-2.89053,-5.546563,4.766503,-11.55,-58.450001,2.59,1729424866993.0,0.0
-3.584448,-10.327423,0.971486,-31.57,-70.279999,26.6,1729424867013.0,0.0
-3.481557,-15.4361,-6.838687,-84.559998,-83.510002,-5.46,1729424867033.0,0.0
-2.062613,-17.903099,-10.514063,-70.769997,-83.510002,-23.870001,1729424867055.0,0.0
-1.521835,-13.363914,-12.758532,-59.57,-25.27,-34.299999,1729424867073.0,0.0
-1.45005,-8.822337,-10.167104,-13.58,34.16,-30.450001,1729424867093.0,0.0
-2.478964,-7.568498,-3.409772,10.22,69.090004,-30.59,1729424867113.0,0.0
-3.845266,-7.092326,-3.213561,-10.29,100.099998,-46.619999,1729424867134.0,0.0
-4.998606,-7.802995,-2.567499,1.33,90.300003,-44.170002,1729424867156.0,0.0
-5.118248,-7.161718,-3.919443,21.07,73.919998,-25.48,1729424867173.0,0.0
-4.558327,-5.661418,0.739382,53.619999,54.599998,-13.58,1729424867193.0,0.0
-3.290131,-1.931008,4.436293,68.599998,13.09,7.77,1729424867213.0,0.0
-2.715853,-1.356731,3.493521,48.23,-38.080002,30.940001,1729424867233.0,0.0
-3.74716,-5.108676,2.912065,-37.869999,-42.209999,26.18,1729424867254.0,0.0
-5.469993,-11.38505,1.119841,-106.330002,-38.639999,19.67,1729424867274.0,0.0
-4.010371,-16.342978,-2.895315,-136.430008,-90.720001,-6.93,1729424867293.0,0.0
-1.777867,-13.703696,-6.489335,-183.259995,-109.059998,-29.469999,1729424867313.0,0.0
-0.914058,-8.549555,-11.650653,-183.399994,-78.610001,-33.950001,1729424867335.0,0.0
-2.29711,-8.805587,-13.940585,-140.350006,-16.030001,-19.879999,1729424867354.0,0.0
-3.806981,-8.82473,-9.329616,-50.889999,101.360001,-14.21,1729424867373.0,0.0
-4.697111,-9.420543,-5.804988,28.49,88.900002,2.8,1729424867393.0,0.0
-4.244867,-10.08814,-5.039285,48.299999,56.07,-8.61,1729424867413.0,0.0
-3.129812,-9.659825,-3.495914,31.219999,49.560001,-31.99,1729424867434.0,0.0
-2.426322,-3.510271,-0.504886,4.13,36.889999,-19.74,1729424867454.0,0.0
-1.940579,0.014357,0.507278,25.48,-5.88,17.85,1729424867473.0,0.0
-0.892523,-4.718646,1.282553,11.13,-37.310001,19.389999,1729424867493.0,0.0
-0.803988,-7.281359,2.344966,-63.07,-46.34,-6.44,1729424867513.0,0.0
-2.266003,-8.102098,0.574277,-92.540001,-53.970001,-3.64,1729424867536.0,0.0
-3.244668,-10.411172,-3.761517,-81.199997,-79.029999,2.03,1729424867555.0,0.0
-2.840281,-9.336794,-10.552348,-99.610001,-91.209999,-26.110001,1729424867574.0,0.0
-1.753939,-11.612368,-14.474185,-58.099998,-78.330002,-9.8,1729424867593.0,0.0
-0.318245,-9.200402,-13.385449,-15.26,-60.48,11.41,1729424867613.0,0.0
-1.019342,-11.210374,-15.51267,96.32,-12.04,23.52,1729424867633.0,0.0
-3.299703,-11.454442,-10.944772,156.729996,90.160004,7.84,1729424867654.0,0.0
-9.365508,-7.88435,1.150948,140.279999,198.029999,9.24,1729424867673.0,0.0
-7.037291,-8.848659,0.416351,89.809998,41.09,-1.61,1729424867693.0,0.0
-2.545963,-7.613962,0.267996,50.259998,-29.33,-15.12,1729424867713.0,0.0
-1.138984,-5.058427,2.433501,25.129999,-3.99,-7.07,1729424867734.0,0.0
-1.959722,-2.694318,3.347559,1.68,6.58,1.54,1729424867756.0,0.0
-2.100898,-4.106083,0.768096,-16.799999,-33.32,15.89,1729424867773.0,0.0
-1.160519,-6.955935,-3.443272,-59.150002,-74.900002,13.02,1729424867793.0,0.0
-0.612563,-8.322237,-1.134198,-106.75,-74.059998,19.32,1729424867813.0,0.0
-2.146362,-8.092526,-3.072384,-136.360001,-78.400002,18.83,1729424867833.0,0.0
-3.163311,-6.680761,-11.672189,-144.270004,-103.18,-2.1,1729424867854.0,0.0
-5.029713,-8.800802,-18.317057,-167.789993,-59.360001,1.75,1729424867874.0,0.0
-6.506085,-9.016156,-19.913069,-153.649994,38.57,-22.889999,1729424867893.0,0.0
-9.769895,-10.643275,-12.562319,-13.72,108.779999,8.33,1729424867912.0,0.0
-7.45125,-10.375278,-7.381857,100.519997,68.949997,15.190001,1729424867935.0,0.0
-3.069991,-6.549156,-8.870193,137.059998,17.710001,6.3,1729424867953.0,0.0
-1.837688,-4.740182,-7.987241,132.369995,61.459999,5.81,1729424867973.0,0.0
-1.926222,-6.678369,-5.541777,119.209999,103.669998,-0.91,1729424867993.0,0.0
-1.514657,-5.209175,3.893122,49.630001,88.970001,-21.07,1729424868012.0,0.0
-1.39023,-3.314059,2.476572,-74.340004,12.53,-10.08,1729424868033.0,0.0
-0.478565,-3.287738,2.584249,-131.180008,-35.420002,-14.07,1729424868054.0,0.0
-0.502493,-4.029513,-0.416351,-177.449997,-70.840004,-7.91,1729424868073.0,0.0
0.011964,-5.496314,-3.948158,-201.880005,-107.309998,-30.030001,1729424868093.0,0.0
-1.136591,-5.496314,-10.183852,-236.600006,-104.230003,-18.27,1729424868113.0,0.0
-2.120041,-8.305488,-16.747364,-278.670013,-63.349998,-21.91,1729424868133.0,0.0
-2.699104,-12.167502,-17.986849,-240.940002,-13.93,-32.27,1729424868154.0,0.0
-4.192225,-10.394422,-15.187245,-157.360001,44.73,-22.889999,1729424868173.0,0.0
-5.924629,-6.884151,-9.073583,-45.639999,97.510002,15.82,1729424868192.0,0.0
-6.896115,-2.081756,-5.130211,-46.200001,61.740002,37.939999,1729424868213.0,0.0
-5.568098,-7.956135,-7.034898,-11.06,41.860001,29.68,1729424868234.0,0.0
-3.826123,-9.937392,-5.592027,45.009998,29.540001,18.76,1729424868255.0,0.0
-3.132205,-6.506085,-5.910272,101.43,18.76,29.540001,1729424868273.0,0.0
-3.658626,-6.355337,-4.378866,125.090004,18.83,22.82,1729424868293.0,0.0
-4.218546,-6.410372,-1.349552,65.309998,1.12,-7.21,1729424868312.0,0.0
-3.352344,-6.07777,-3.342773,-14.07,-36.889999,-32.549999,1729424868333.0,0.0
-2.368894,-6.266802,-6.24766,-31.780001,-73.709999,-41.09,1729424868354.0,0.0
-1.684547,-5.737988,-10.061819,-16.379999,-96.879997,-66.57,1729424868373.0,0.0
-0.725025,-2.880959,-10.705488,-34.16,-97.580002,-64.540001,1729424868392.0,0.0
-1.426122,-0.040678,-15.364313,-102.970001,-58.66,-39.200001,1729424868412.0,0.0
-3.65384,-2.132005,-14.548362,-73.080002,2.03,-7.56,1729424868433.0,0.0
-4.517649,-3.617948,-14.878571,-5.95,56.98,30.52,1729424868454.0,0.0
-3.460021,-5.814559,-11.454442,88.620003,56.420002,68.040001,1729424868473.0,0.0
-1.531406,-2.452643,-8.898908,120.190002,47.25,85.330002,1729424868492.0,0.0
-3.579663,-4.09412,-6.709475,129.430008,100.029999,86.239998,1729424868513.0,0.0
-4.603791,-7.018148,-6.446264,78.959999,118.020004,63.07,1729424868536.0,0.0
-4.206582,-8.003991,-2.495714,72.309998,72.379997,51.450001,1729424868553.0,0.0
-3.366701,-9.49472,0.344566,38.009998,25.34,11.13,1729424868572.0,0.0
-2.622534,-8.705089,0.205783,-49.420002,-10.08,-38.849998,1729424868593.0,0.0
-3.194418,-7.664211,-1.782653,-73.290001,-42.279999,-62.23,1729424868613.0,0.0
-3.814159,-6.513263,-3.663411,-56.700001,-74.059998,-85.82,1729424868633.0,0.0
-3.716053,-6.659225,-7.176075,-60.41,-106.82,-98.07,1729424868654.0,0.0
-1.636691,-5.709275,-10.688738,-102.410004,-139.369995,-112.980003,1729424868672.0,0.0
-1.464408,2.282753,-9.296116,-205.169998,-101.849998,-97.93,1729424868693.0,0.0
-5.785845,0.528814,-15.723237,-128.100006,9.03,3.99,1729424868712.0,0.0
-6.034698,-4.4339,-14.49572,8.61,45.920002,28.07,1729424868733.0,0.0
-3.629912,-3.141776,-12.344571,62.720001,28.84,86.590004,1729424868754.0,0.0
-0.765703,-2.749353,-9.281759,57.959999,28.91,97.300003,1729424868773.0,0.0
-2.227718,-5.867201,-7.348359,18.620001,77.910004,82.529999,1729424868792.0,0.0
-3.117848,-8.877372,-5.76431,16.309999,73.779999,61.670002,1729424868812.0,0.0
-2.467,-9.518648,-3.696911,25.48,35.0,28.49,1729424868833.0,0.0
-1.488336,-7.726424,-2.98385,3.01,-2.94,-15.47,1729424868853.0,0.0
-1.380659,-6.458229,-4.039084,-23.17,-33.459999,-51.73,1729424868873.0,0.0
-2.069792,-6.69751,-6.348158,-46.130001,-52.639999,-81.199997,1729424868892.0,0.0
-2.522035,-3.359523,-9.083155,-62.860001,-65.029999,-95.620003,1729424868912.0,0.0
-2.98385,-2.478964,-11.609976,-103.459999,-66.779999,-91.910004,1729424868933.0,0.0
-2.478964,-2.562713,-12.713067,-129.570007,-59.43,-84.699997,1729424868964.0,0.0
-4.893322,0.705883,-10.717452,-99.400002,-1.89,-39.27,1729424868972.0,0.0
-6.357729,0.842274,-14.890535,-14.07,36.959999,19.18,1729424868993.0,0.0
-4.321437,0.148355,-14.96232,69.580002,42.07,72.309998,1729424869013.0,0.0
-2.337788,-0.234497,-11.176874,104.090004,56.139999,120.470001,1729424869033.0,0.0
-3.323631,-5.245068,-8.018349,59.990002,109.129997,118.510002,1729424869055.0,0.0
-2.658426,-9.942179,-5.592027,40.32,94.57,86.309998,1729424869073.0,0.0
-1.509871,-9.836893,-3.15374,40.670002,57.540001,38.709999,1729424869092.0,0.0
-1.674976,-9.221939,-1.162912,25.9,21.84,-8.89,1729424869112.0,0.0
-2.325824,-9.712467,-1.531406,-20.09,-14.35,-61.389999,1729424869133.0,0.0
-2.610569,-7.989635,-3.029313,-39.549999,-59.57,-107.099998,1729424869154.0,0.0
-3.452843,-5.513064,-5.895915,-52.849998,-89.879997,-139.020004,1729424869172.0,0.0
-3.651447,-3.613162,-11.497513,-91.419998,-101.360001,-157.919998,1729424869192.0,0.0
-4.034299,-0.784846,-12.935599,-147.770004,-79.800003,-143.990005,1729424869212.0,0.0
-4.800002,-0.37328,-12.244074,-118.860001,-39.130001,-86.730003,1729424869232.0,0.0
-5.419744,2.275574,-13.861622,-17.08,-0.91,-20.93,1729424869255.0,0.0
-4.522435,4.194618,-16.010376,103.599998,14.21,57.540001,1729424869272.0,0.0
-2.562713,3.663411,-13.636696,118.510002,37.799999,102.410004,1729424869292.0,0.0
-1.794617,0.880559,-12.162716,79.309998,77.559998,129.289993,1729424869313.0,0.0
-2.586641,-1.615155,-8.707481,54.040001,100.519997,132.020004,1729424869332.0,0.0
-2.438286,-6.994221,-8.539984,24.57,101.709999,112.910004,1729424869355.0,0.0
-1.682154,-11.088341,-2.785245,7.07,72.870003,47.25,1729424869374.0,0.0
-1.847259,-10.351351,-1.596013,14.14,32.27,4.13,1729424869391.0,0.0
-1.701297,-10.638489,-1.564906,9.66,-13.440001,-48.02,1729424869412.0,0.0
-1.375873,-8.29113,-3.424129,-11.55,-56.349998,-91.209999,1729424869433.0,0.0
-2.256432,-6.262017,-5.312066,-40.670002,-74.269997,-110.32,1729424869453.0,0.0
-2.761317,-4.845466,-6.884151,-97.160004,-78.400002,-117.739998,1729424869474.0,0.0
-2.916851,-4.35733,-10.712667,-111.230003,-79.239998,-106.260002,1729424869493.0,0.0
-3.062813,-1.665405,-13.526627,-92.82,-69.790001,-93.029999,1729424869512.0,0.0
-4.285545,1.055235,-14.065011,-44.869999,-29.68,-44.869999,1729424869536.0,0.0
-5.592027,2.639283,-14.792429,28.559999,14.28,22.960001,1729424869553.0,0.0
-3.524628,3.180061,-15.622739,103.879997,20.02,70.07,1729424869572.0,0.0
-0.526421,3.517449,-13.964513,121.309998,24.5,104.93,1729424869592.0,0.0
-0.837488,-0.33021,-9.410972,80.709999,66.639999,119.840004,1729424869612.0,0.0
-2.514857,-6.577869,-8.571091,37.66,101.010002,105.840004,1729424869632.0,0.0
-3.68734,-9.942179,-4.871787,35.209999,93.730003,67.830002,1729424869653.0,0.0
-3.749553,-9.190832,-2.239682,26.67,54.110001,23.379999,1729424869674.0,0.0
-3.591627,-9.578469,-1.375873,19.6,3.78,-15.54,1729424869692.0,0.0
-2.254039,-9.040084,-4.106083,-25.200001,-57.82,-82.25,1729424869712.0,0.0
-2.713461,-6.393622,-5.812167,-29.960001,-70.980003,-95.550003,1729424869733.0,0.0
-3.115455,-5.058427,-6.766902,-61.670002,-71.330002,-98.279999,1729424869755.0,0.0
-2.885744,-3.759124,-10.382458,-81.480003,-74.199997,-87.5,1729424869773.0,0.0
-2.22054,-2.76371,-11.547763,-83.019997,-69.370003,-77.910004,1729424869792.0,0.0
-1.969293,-1.06002,-14.155938,-48.650002,-44.73,-43.119999,1729424869812.0,0.0
-1.775474,2.225325,-16.383656,26.950001,-14.0,7.14,1729424869833.0,0.0
-1.581656,3.091527,-15.527027,93.379997,14.0,60.34,1729424869853.0,0.0
-1.191626,2.574677,-13.739587,77.209999,50.889999,93.099998,1729424869873.0,0.0
-1.749153,-0.129212,-9.887143,57.049999,74.760002,108.57,1729424869891.0,0.0
-2.349752,-5.199604,-9.863215,25.76,94.779999,97.790001,1729424869912.0,0.0
-3.302095,-8.413164,-6.695118,46.27,90.720001,83.440002,1729424869933.0,0.0
-3.859623,-8.745767,-4.268795,57.82,77.139999,45.290001,1729424869953.0,0.0
-4.122833,-9.743573,-1.90708,32.549999,39.970001,7.49,1729424869972.0,0.0
-3.239882,-10.559525,-2.306681,-7.49,-3.64,-38.5,1729424869991.0,0.0
-2.443072,-8.525627,-4.036692,-19.18,-41.23,-72.800003,1729424870011.0,0.0
-3.026921,-5.742774,-5.869594,-28.07,-56.420002,-89.809998,1729424870033.0,0.0
-2.335395,-4.735396,-8.267202,-74.340004,-79.800003,-103.25,1729424870053.0,0.0
-2.266003,-2.756532,-9.509077,-92.330002,-73.220001,-93.099998,1729424870071.0,0.0
-2.445465,-2.871387,-12.459428,-70.980003,-55.299999,-76.720001,1729424870093.0,0.0
-1.773082,1.048056,-15.845272,-13.58,-37.939999,-31.639999,1729424870111.0,0.0
-1.658226,3.337988,-16.548761,90.720001,-5.25,38.360001,1729424870132.0,0.0
-1.622334,3.117848,-13.502698,123.620003,38.5,88.269997,1729424870153.0,0.0
-1.562513,1.447658,-11.475977,89.809998,70.699997,115.919998,1729424870172.0,0.0
-2.644069,-0.519243,-10.097712,59.150002,95.059998,132.300003,1729424870192.0,0.0
-3.84048,-5.915058,-8.901299,29.190001,115.010002,122.849998,1729424870212.0,0.0
-4.23051,-11.80858,-5.922236,33.25,101.779999,94.919998,1729424870233.0,0.0
-3.259024,-10.590633,-3.725625,21.700001,63.98,40.740002,1729424870252.0,0.0
-2.878566,-11.25823,-1.435694,22.68,21.280001,-7.14,1729424870273.0,0.0
-2.56032,-10.262815,-2.333002,-26.25,-12.11,-69.510002,1729424870291.0,0.0
-2.507678,-8.056634,-3.835695,-39.48,-46.41,-104.790001,1729424870311.0,0.0
-2.744568,-6.489335,-6.419943,-54.599998,-64.260002,-127.470001,1729424870333.0,0.0
-2.036292,-4.807181,-8.26481,-85.68,-77.139999,-139.369995,1729424870352.0,0.0
-1.18684,-1.785046,-10.540384,-119.840004,-80.220001,-124.809998,1729424870371.0,0.0
-1.459622,-0.457029,-12.973885,-82.879997,-45.779999,-85.470001,1729424870391.0,0.0
-2.120041,3.479164,-15.601204,-2.1,-9.94,-19.18,1729424870411.0,0.0
-2.203789,2.964707,-14.921642,93.800003,16.73,61.670002,1729424870432.0,0.0
-1.438086,1.677369,-12.693924,103.32,48.16,106.959999,1729424870454.0,0.0
-2.172683,0.301496,-10.772489,89.809998,76.650002,133.419998,1729424870473.0,0.0
-3.225525,-4.261617,-9.549755,62.650002,98.07,129.710007,1729424870492.0,0.0
-4.278367,-9.408579,-6.403193,57.400002,98.349998,107.730003,1729424870512.0,0.0
-4.333402,-10.856236,-3.553342,32.200001,75.669998,63.700001,1729424870535.0,0.0
-3.895515,-11.387443,-1.823331,19.32,29.960001,19.040001,1729424870552.0,0.0
-2.749353,-10.987842,-2.122434,0.21,-12.67,-35.279999,1729424870581.0,0.0
-2.206182,-8.147561,-2.778067,-6.23,-47.18,-70.629997,1729424870593.0,0.0
-2.852244,-6.297909,-4.725825,-21.559999,-60.689999,-91.209999,1729424870612.0,0.0
-2.720639,-5.572884,-6.58744,-69.860001,-68.599998,-103.949997,1729424870633.0,0.0
-1.641476,-4.058227,-9.607183,-98.07,-80.290001,-97.720001,1729424870653.0,0.0
-0.019143,-2.301895,-13.055241,-87.220001,-84.699997,-85.260002,1729424870672.0,0.0
-0.471386,1.540978,-16.007982,-25.9,-40.599998,-30.030001,1729424870693.0,0.0
-1.897508,2.871387,-16.998611,43.189999,9.1,24.01,1729424870712.0,0.0
-1.957329,1.28016,-14.344972,72.169998,43.259998,64.889999,1729424870733.0,0.0
-0.976272,-0.229711,-11.995219,71.610001,59.990002,96.949997,1729424870754.0,0.0
-1.832902,-1.904687,-9.226725,83.230003,85.190002,109.480003,1729424870773.0,0.0
-3.725625,-6.156733,-7.463214,69.720001,104.720001,99.959999,1729424870793.0,0.0
-4.529613,-10.279566,-4.603791,32.060001,91.769997,66.360001,1729424870813.0,0.0
-4.039084,-12.777672,-2.488536,3.15,50.959999,20.860001,1729424870833.0,0.0
-3.194418,-12.815958,-1.732404,-8.47,8.96,-30.799999,1729424870853.0,0.0
-2.505285,-11.629118,-2.823531,-4.41,-25.27,-77.840004,1729424870873.0,0.0
-2.304288,-8.717053,-3.940979,2.1,-51.380001,-111.860001,1729424870893.0,0.0
-2.196611,-5.991628,-5.910272,-16.24,-67.059998,-127.540001,1729424870912.0,0.0
-1.112662,-3.582055,-9.111869,-53.619999,-82.18,-132.720001,1729424870933.0,0.0
-0.09332,-1.849652,-11.940186,-77.699997,-84.489998,-115.849998,1729424870956.0,0.0
-0.062213,0.0335,-12.969098,-50.75,-54.880001,-74.199997,1729424870973.0,0.0
-1.028914,0.098106,-14.610575,14.7,-11.97,-23.450001,1729424870993.0,0.0
-0.727418,1.07677,-14.502897,173.460007,20.51,74.410004,1729424871013.0,0.0
-0.504886,2.940779,-11.050055,190.050003,44.170002,112.419998,1729424871033.0,0.0
-0.839881,1.040878,-10.571491,117.879997,74.620003,118.720001,1729424871056.0,0.0
-2.065006,-1.708475,-8.233703,52.290001,96.32,125.440002,1729424871074.0,0.0
-3.751946,-6.04427,-5.558527,1.54,105.0,116.900002,1729424871093.0,0.0
-4.54397,-11.732009,-4.472186,-30.24,83.440002,82.529999,1729424871170.0,0.0
-4.237689,-14.476578,-3.78066,-34.93,42.07,33.32,1729424871172.0,0.0
-3.917051,-12.870994,-3.105884,-14.21,-0.35,-17.15,1729424871180.0,0.0
-3.842873,-10.485349,-4.201797,-6.51,-36.330002,-65.239998,1729424871185.0,0.0
-3.273381,-8.061419,-4.852644,-46.41,-66.849998,-105.489998,1729424871201.0,0.0
-2.648855,-6.013163,-6.192625,-104.720001,-83.090004,-123.690002,1729424871216.0,0.0
-1.311267,-5.02732,-8.415558,-156.449997,-94.080002,-134.960007,1729424871235.0,0.0
0.177069,-2.562713,-10.911271,-175.839996,-91.279999,-124.110001,1729424871255.0,0.0
-0.947558,0.229711,-12.16511,-91.0,-53.689999,-65.800003,1729424871274.0,0.0
-1.701297,0.200997,-13.53859,84.07,11.69,38.990002,1729424871297.0,0.0
-1.184447,0.567099,-12.447463,157.710007,25.200001,103.949997,1729424871313.0,0.0
-1.287339,1.299303,-10.700702,148.680008,55.09,130.479996,1729424871336.0,0.0
-3.347559,-2.809174,-8.740981,73.360001,88.340004,124.809998,1729424871357.0,0.0
-4.185047,-9.272188,-7.01097,1.05,85.540001,93.660004,1729424871374.0,0.0
-4.199404,-12.208181,-5.149354,-23.59,54.810001,57.260002,1729424871396.0,0.0
-3.929015,-11.081161,-4.697111,-13.51,18.059999,10.22,1729424871414.0,0.0
-3.259024,-9.722038,-3.684947,-8.54,-20.370001,-36.470001,1729424871434.0,0.0
-2.656033,-8.195417,-3.433701,-44.170002,-47.670002,-71.400002,1729424871454.0,0.0
-2.39043,-7.439285,-5.321638,-71.959999,-61.950001,-96.459999,1729424871474.0,0.0
-2.007578,-5.627919,-7.853244,-78.889999,-71.190002,-109.830002,1729424871493.0,0.0
-1.045663,-3.711268,-10.992627,-86.590004,-73.010002,-100.730003,1729424871514.0,0.0
0.258425,-3.376273,-12.512069,-77.769997,-62.580002,-75.809998,1729424871537.0,0.0
0.397209,-2.878566,-13.153346,-28.280001,-27.93,-37.73,1729424871557.0,0.0
-0.66999,-1.828116,-12.323036,52.5,13.23,4.27,1729424871574.0,0.0
-1.442872,1.270589,-10.691131,116.900002,31.85,44.52,1729424871594.0,0.0
-1.385444,3.366701,-10.052249,114.449997,34.02,78.260002,1729424871613.0,0.0
-0.863809,-1.880759,-11.755937,0.98,61.810001,79.379997,1729424871634.0,0.0
-1.871187,-7.06122,-9.415757,-38.290001,82.389999,69.440002,1729424871662.0,0.0
-3.481557,-8.4347,-7.24786,-16.379999,77.699997,63.139999,1729424871685.0,0.0
-5.146961,-8.606983,-5.481956,16.799999,60.130001,30.309999,1729424871693.0,0.0
-5.608776,-9.722038,-3.871587,-7.56,25.129999,-7.91,1729424871714.0,0.0
-4.436293,-10.724631,-3.842873,-43.330002,-13.72,-46.830002,1729424871734.0,0.0
-3.337988,-10.339387,-4.309474,-51.52,-36.119999,-77.209999,1729424871756.0,0.0
-3.031706,-7.085148,-4.898108,-47.040001,-52.57,-90.720001,1729424871774.0,0.0
-2.742175,-6.970293,-7.381857,-48.790001,-59.290001,-91.840004,1729424871793.0,0.0
-1.861616,-5.510671,-9.133404,-39.689999,-62.860001,-85.540001,1729424871829.0,0.0
-0.777667,-3.725625,-10.372886,-32.34,-62.02,-70.279999,1729424871846.0,0.0
0.392423,-3.711268,-11.75833,-21.91,-51.099998,-55.02,1729424871856.0,0.0
1.038485,-1.68694,-11.96172,21.84,-30.940001,-28.42,1729424872066.0,0.0
1.043271,0.830309,-11.337193,67.900002,-9.66,4.27,1729424872067.0,0.0
1.019342,2.031506,-12.602997,88.900002,8.68,35.420002,1729424872068.0,0.0
0.39003,1.555335,-11.696117,65.169998,37.170002,59.5,1729424872070.0,0.0
-2.316252,-1.868794,-9.695717,21.559999,67.199997,77.0,1729424872073.0,0.0
-3.661019,-4.845466,-8.683553,-4.27,73.080002,77.769997,1729424872144.0,0.0
-4.345366,-7.506285,-7.408179,-1.4,61.670002,55.720001,1729424872149.0,0.0
-4.905287,-8.52802,-6.439085,2.87,42.07,35.279999,1729424872149.0,0.0
-5.149354,-8.29113,-4.972286,3.64,17.01,7.07,1729424872149.0,0.0
-4.651647,-9.296116,-5.005785,-22.4,-6.79,-19.110001,1729424872149.0,0.0
-3.223132,-9.298509,-5.608776,-31.92,-27.299999,-44.73,1729424872149.0,0.0
-2.689533,-5.79781,-4.756931,-22.049999,-41.580002,-46.549999,1729424872150.0,0.0
-2.447858,-7.125826,-8.140383,-25.27,-50.75,-49.84,1729424872150.0,0.0
-1.244268,-6.735795,-9.607183,-45.150002,-49.209999,-57.540001,1729424872150.0,0.0
-0.387637,-5.630312,-9.523434,-30.450001,-41.650002,-45.639999,1729424872153.0,0.0
0.849452,-4.500899,-10.628918,-10.43,-40.32,-39.970001,1729424872172.0,0.0
1.935793,-2.624927,-11.413764,14.28,-30.73,-31.710001,1729424872192.0,0.0
1.639083,-1.304088,-11.54537,29.4,-7.42,-12.95,1729424872212.0,0.0
1.112662,-1.328017,-11.954542,31.15,11.41,4.06,1729424872233.0,0.0
0.413958,-1.366302,-11.184053,26.460001,31.360001,19.18,1729424872257.0,0.0
-0.531207,-0.856631,-9.152546,29.540001,48.509998,38.639999,1729424872272.0,0.0
-3.785445,-2.206182,-8.317451,14.28,65.590004,55.09,1729424872292.0,0.0
-4.412365,-6.336195,-8.738588,-25.200001,59.010002,46.27,1729424872312.0,0.0
-4.086941,-7.960921,-7.853244,-4.97,40.950001,38.080002,1729424872332.0,0.0
-4.510471,-7.408179,-6.908078,27.16,29.82,27.16,1729424872365.0,0.0
-4.508078,-5.998806,-5.663811,33.110001,10.92,6.79,1729424872373.0,0.0
-3.816552,-7.221539,-5.735595,-3.15,-9.03,-9.1,1729424872393.0,0.0
-2.730211,-8.29113,-6.943972,-29.190001,-21.98,-29.190001,1729424872412.0,0.0
-2.11047,-6.829116,-6.678369,-28.35,-29.33,-39.549999,1729424872434.0,0.0
-1.885544,-6.166305,-7.412964,-18.34,-35.07,-42.139999,1729424872455.0,0.0
-1.20359,-5.355137,-8.432307,-14.98,-40.880001,-45.990002,1729424872474.0,0.0
-0.323031,-3.905087,-8.779266,-28.139999,-39.970001,-45.5,1729424872493.0,0.0
0.205783,-3.952943,-10.109675,-26.110001,-34.790001,-34.09,1729424872512.0,0.0
0.57667,-2.675175,-9.75793,1.75,-25.549999,-20.93,1729424872536.0,0.0
0.248854,-1.0002,-9.597611,28.280001,-12.88,0.84,1729424872559.0,0.0
-0.198604,-0.430708,-10.389636,35.0,-4.27,22.610001,1729424872574.0,0.0
-0.658026,-1.442872,-11.64826,13.72,10.64,39.759998,1729424872595.0,0.0
-1.430908,-2.825923,-10.640882,-11.69,27.58,50.540001,1729424872619.0,0.0
-2.861816,-5.314459,-9.489935,-29.049999,41.299999,49.700001,1729424872634.0,0.0
-3.266203,-6.821937,-9.164511,-24.08,37.799999,36.259998,1729424872655.0,0.0
-3.431308,-6.903293,-7.470392,1.26,31.15,23.870001,1729424872674.0,0.0
-3.692125,-6.458229,-6.642475,24.219999,18.200001,14.0,1729424872692.0,0.0
-3.720839,-6.63769,-6.058627,13.440001,2.94,-0.35,1729424872713.0,0.0
-3.172883,-6.896115,-6.424729,-11.9,-12.74,-15.68,1729424872734.0,0.0
-2.612962,-6.415157,-6.601797,-30.1,-23.66,-26.6,1729424872755.0,0.0
-2.07697,-6.668797,-8.317451,-37.869999,-31.15,-37.939999,1729424872773.0,0.0
-1.677369,-6.003592,-9.243474,-26.460001,-28.91,-44.59,1729424872793.0,0.0
-1.107877,-4.362115,-9.233903,-11.34,-25.969999,-40.040001,1729424872814.0,0.0
-0.227318,-3.213561,-9.973285,-1.75,-28.630001,-31.57,1729424872834.0,0.0
0.303888,-2.646462,-9.911072,5.88,-19.18,-22.4,1729424872855.0,0.0
0.009571,-2.385644,-10.181459,8.82,-0.98,-10.71,1729424872874.0,0.0
-0.358923,-2.301895,-10.301102,9.03,9.52,1.05,1729424872893.0,0.0
-0.591027,-2.311467,-10.174281,10.5,17.360001,12.46,1729424872915.0,0.0
-2.62732,-2.562713,-9.504292,-7.56,34.299999,26.389999,1729424872936.0,0.0
-3.134598,-4.754539,-9.047262,-30.450001,32.41,21.280001,1729424872955.0,0.0
-3.254239,-6.431907,-8.118847,-18.969999,23.870001,19.809999,1729424872975.0,0.0
-3.912265,-6.501299,-7.283752,5.04,17.639999,13.79,1729424872994.0,0.0
-4.393222,-6.67119,-7.496714,22.190001,6.16,1.33,1729424873013.0,0.0
-4.173083,-6.130411,-7.116255,20.02,-10.29,-10.99,1729424873036.0,0.0
-3.57727,-5.960521,-7.034898,-0.84,-24.290001,-20.02,1729424873057.0,0.0
-2.801995,-5.74756,-7.664211,-23.309999,-30.66,-31.43,1729424873076.0,0.0
-2.325824,-5.826523,-8.566305,-26.389999,-35.700001,-36.189999,1729424873098.0,0.0
-1.555335,-5.709275,-10.054641,-13.79,-36.68,-43.330002,1729424873116.0,0.0
-0.768096,-3.900301,-9.853643,-1.96,-33.810001,-38.150002,1729424873137.0,0.0
-0.107677,-2.794817,-9.403792,9.59,-31.290001,-27.02,1729424873157.0,0.0
0.200997,-1.098306,-8.324631,20.299999,-23.66,-13.51,1729424873176.0,0.0
-0.607777,0.772882,-7.970492,31.290001,-16.17,12.88,1729424873195.0,0.0
-0.684347,-1.811367,-10.688738,17.99,-14.42,26.67,1729424873216.0,0.0
-1.048056,-3.192025,-10.569098,-11.62,-0.56,44.73,1729424873237.0,0.0
-2.139183,-3.9338,-10.231709,-11.06,13.02,47.389999,1729424873258.0,0.0
-2.730211,-4.931608,-10.437491,-9.8,17.5,42.349998,1729424873277.0,0.0
-2.835495,-5.783452,-9.176475,-10.43,17.360001,32.48,1729424873296.0,0.0
-2.998207,-7.405786,-9.561719,-9.38,14.63,21.280001,1729424873314.0,0.0
-3.201597,-7.781459,-8.023134,-0.21,14.21,5.67,1729424873341.0,0.0
-3.570091,-6.156733,-6.396015,6.37,5.6,-4.2,1729424873358.0,0.0
-4.04387,-5.113462,-4.534399,-0.49,-8.33,-10.15,1729424873376.0,0.0
-4.132405,-6.412765,-4.864608,1.75,-21.0,-18.41,1729424873396.0,0.0
-4.053442,-5.642276,-5.417351,18.83,-34.790001,-17.290001,1729424873414.0,0.0
-3.175276,-5.056034,-7.881958,54.529999,-54.880001,-14.21,1729424873436.0,0.0
-1.426122,-4.486543,-8.800802,52.709999,-72.519997,-16.030001,1729424873457.0,0.0
-0.55992,-4.838287,-9.178867,7.91,-62.93,-18.41,1729424873475.0,0.0
-0.16989,-5.438886,-10.79163,-41.580002,-47.32,-25.76,1729424873494.0,0.0
-0.289532,-4.254438,-11.169697,-46.48,-32.689999,-24.08,1729424873515.0,0.0
-1.493121,-3.048456,-8.843873,1.82,-16.450001,-4.62,1729424873538.0,0.0
-3.842873,-2.787638,-10.222138,50.540001,-3.08,16.17,1729424873565.0,0.0
-4.505685,-4.790431,-11.569297,65.099998,23.799999,28.210001,1729424873576.0,0.0
-4.591826,-7.420143,-12.363714,71.75,36.82,33.32,1729424873595.0,0.0
-5.120641,-8.286345,-12.220145,115.010002,52.779999,29.960001,1729424873615.0,0.0
-4.989035,-7.587641,-11.464014,129.220001,63.91,17.57,1729424873636.0,0.0
-3.464807,-7.944171,-10.810772,128.660004,54.740002,0.77,1729424873657.0,0.0
-2.581856,-8.626125,-8.312666,137.270004,54.880001,-18.27,1729424873675.0,0.0
-2.510071,-6.941578,-5.752346,131.110001,60.27,-38.990002,1729424873694.0,0.0
-2.443072,-6.888937,-4.900501,113.540001,53.689999,-53.619999,1729424873714.0,0.0
-1.524228,-6.719046,-5.673382,102.620003,38.5,-62.860001,1729424873735.0,0.0
-0.971486,-5.891129,-4.122833,130.410004,29.960001,-56.279999,1729424873757.0,0.0
-1.146162,-4.347759,-2.510071,150.710007,29.610001,-45.990002,1729424873775.0,0.0
-0.229711,-3.098706,-1.794617,100.519997,18.059999,-45.849998,1729424873794.0,0.0
0.059821,-3.931407,-3.682554,19.950001,20.58,-20.16,1729424873815.0,0.0
1.28016,-2.352145,-5.048856,-82.879997,10.99,-14.84,1729424873835.0,0.0
0.856631,-2.433501,-4.73061,-98.559998,12.74,24.360001,1729424873856.0,0.0
-1.507478,-4.426722,-4.096512,-130.270004,18.48,39.27,1729424873875.0,0.0
-3.158526,-4.819145,-2.919244,-161.139999,11.9,50.119999,1729424873894.0,0.0
-4.756931,-4.141976,-1.512264,-181.649994,-33.810001,61.110001,1729424873916.0,0.0
-6.175875,-5.326423,-1.871187,-166.389999,-75.529999,64.190002,1729424873936.0,0.0
-7.290931,-28.66362,-11.729616,-155.330002,-107.239998,-18.690001,1729424873955.0,0.0
-2.557927,-9.037691,-15.41935,-351.329987,-97.090004,-106.889999,1729424873977.0,0.0
-5.84088,-8.989835,-13.66541,-3.5,-69.93,7.91,1729424873995.0,0.0
-6.084948,-3.189633,-12.650853,59.849998,-20.16,-59.57,1729424874015.0,0.0
-9.085547,-0.835095,-12.107682,63.560001,9.38,-8.05,1729424874034.0,0.0
-8.965906,-0.401994,-8.221739,-27.02,28.91,-12.46,1729424874056.0,0.0
-6.156733,-0.031107,-9.052048,-104.650002,52.290001,20.02,1729424874075.0,0.0
-3.192025,-0.9667,-12.875778,-45.290001,56.490002,69.370003,1729424874094.0,0.0
-0.937986,-1.753939,-13.933406,19.6,58.66,77.489998,1729424874115.0,0.0
0.612563,-4.644469,-13.232309,67.410004,64.470001,88.970001,1729424874135.0,0.0
1.923829,-5.510671,-8.042276,88.760002,81.059998,88.129997,1729424874156.0,0.0
1.588834,-5.735595,1.730011,88.269997,89.809998,76.720001,1729424874176.0,0.0
2.605784,-6.71426,4.424329,26.110001,42.139999,33.599998,1729424874194.0,0.0
2.909672,-9.413363,1.368695,-22.75,-35.209999,-3.64,1729424874215.0,0.0
1.115055,-10.358529,-7.992027,-28.42,-93.309998,-77.349998,1729424874235.0,0.0
-0.119641,-8.317451,-10.569098,-6.16,-96.32,-114.660004,1729424874256.0,0.0
-0.926022,-3.665804,-12.722638,9.8,-111.370003,-116.129997,1729424874274.0,0.0
-1.804188,3.249453,-10.731809,-78.470001,-114.660004,-99.260002,1729424874295.0,0.0
-5.029713,0.339781,-11.700903,-212.029999,-71.400002,-61.18,1729424874315.0,0.0
-6.45105,-4.532006,-13.907085,-238.210007,-20.58,-32.34,1729424874335.0,0.0
-8.930015,-5.656632,-16.031912,-68.040001,43.75,24.99,1729424874356.0,0.0
-9.119047,-3.682554,-16.883757,188.930008,69.300003,88.760002,1729424874374.0,0.0
-5.505885,0.926022,-13.591233,232.119995,62.650002,109.410004,1729424874395.0,0.0
-4.56072,-1.138984,-8.310273,167.300003,117.529999,105.139999,1729424874415.0,0.0
-5.647062,-6.678369,0.471386,64.889999,138.389999,74.129997,1729424874434.0,0.0
-3.462414,-9.765109,6.4678,-67.900002,73.919998,21.77,1729424874455.0,0.0
-0.057428,-9.918249,3.359523,-67.760002,-19.32,8.26,1729424874475.0,0.0
1.251446,-9.645468,-2.531606,-1.33,-90.720001,-36.049999,1729424874495.0,0.0
-0.150748,-9.80818,-4.053442,12.32,-112.910004,-88.690002,1729424874514.0,0.0
-1.51705,-6.276374,-4.601398,24.92,-127.68,-105.769997,1729424874540.0,0.0
-1.629512,-1.804188,-11.717653,27.16,-173.949997,-100.379997,1729424874559.0,0.0
-5.862415,5.422136,-14.565112,-200.270004,-120.050003,-60.48,1729424874575.0,0.0
-6.922436,0.177069,-18.295523,-254.800003,-53.689999,-13.23,1729424874594.0,0.0
-9.116654,-7.379465,-20.669203,-50.959999,12.95,43.330002,1729424874614.0,0.0
-7.798209,-5.510671,-17.807386,163.869995,50.959999,74.970001,1729424874635.0,0.0
-3.735196,-0.655633,-14.361722,207.759995,52.709999,93.169998,1729424874663.0,0.0
-2.447858,0.954736,-12.14836,126.0,122.290001,78.190002,1729424874674.0,0.0
-3.567699,-3.046063,-9.209974,63.209999,160.229996,80.849998,1729424874695.0,0.0
-2.723032,-5.237889,-3.309274,63.139999,138.669998,78.889999,1729424874715.0,0.0
-1.789831,-7.582855,3.428915,14.91,104.720001,50.540001,1729424874735.0,0.0
-0.502493,-9.923036,3.371487,-72.800003,51.869999,12.53,1729424874756.0,0.0
0.179462,-9.999605,-1.11027,-31.92,-17.08,4.2,1729424874775.0,0.0
-0.22014,-10.035499,-4.532006,22.190001,-60.619999,-39.759998,1729424874794.0,0.0
-1.660619,-9.470792,-5.300103,44.939999,-70.980003,-79.379997,1729424874814.0,0.0
-3.046063,-6.546762,-4.287938,59.220001,-84.489998,-86.169998,1729424874836.0,0.0
-4.146761,-4.252046,-7.190433,77.840004,-117.32,-77.840004,1729424874856.0,0.0
-6.941578,-0.370888,-12.550355,46.34,-123.199997,-69.860001,1729424874876.0,0.0
-9.200402,-2.132005,-15.924235,-66.849998,-50.68,-23.52,1729424874895.0,0.0
-8.288737,-4.45065,-16.362122,-99.470001,-1.47,3.08,1729424874915.0,0.0
-6.178268,-6.98465,-14.644074,1.19,19.6,41.439999,1729424874936.0,0.0
-4.175476,-6.458229,-13.119846,119.209999,57.540001,50.82,1729424874958.0,0.0
-3.395415,-6.65444,-11.629118,215.529999,89.809998,54.529999,1729424874977.0,0.0
-2.909672,-6.652047,-11.030912,266.140015,113.68,43.610001,1729424874996.0,0.0
-2.600998,-9.348758,-8.336594,345.869995,112.840004,39.34,1729424875019.0,0.0
-2.26361,-11.076375,-3.395415,422.660004,101.220001,19.950001,1729424875037.0,0.0
-1.239482,-8.154739,-4.182654,535.429993,70.699997,12.81,1729424875057.0,0.0
-0.102891,-5.185246,-3.177669,671.090027,25.129999,17.360001,1729424875077.0,0.0
1.627119,-1.344766,1.105484,608.090027,2.31,-9.94,1729424875096.0,0.0
2.924029,3.328416,2.787638,372.119995,22.120001,-34.369999,1729424875116.0,0.0
1.347159,5.998806,4.398008,25.83,45.849998,-8.19,1729424875137.0,0.0
-3.345166,-1.464408,10.224532,-248.009995,54.670002,36.470001,1729424875157.0,0.0
-7.018148,-13.426127,-1.100698,-451.5,-41.369999,-10.36,1729424875176.0,0.0
-5.67099,-13.85205,-6.635297,-421.119995,-120.470001,-38.220001,1729424875197.0,0.0
-4.130012,-11.782259,-7.972885,-322.980011,-131.529999,-20.440001,1729424875216.0,0.0
-3.778267,-12.019149,-8.556733,-99.120003,-86.660004,7.7,1729424875237.0,0.0
-4.969893,-11.066804,-7.678568,26.6,-8.26,28.210001,1729424875258.0,0.0
-6.577869,-8.865408,-6.915257,28.0,68.879997,28.280001,1729424875276.0,0.0
-7.563712,-7.401,-6.319445,-55.510002,93.660004,14.35,1729424875296.0,0.0
-6.563512,-7.724032,-5.898308,-153.300003,95.199997,-6.58,1729424875317.0,0.0
-5.221139,-11.540584,-5.955735,-130.339996,71.959999,11.69,1729424875337.0,0.0
-3.232704,-12.045469,-3.079563,-56.560001,32.900002,10.43,1729424875358.0,0.0
-1.660619,-10.133603,0.717847,-71.120003,6.16,-12.18,1729424875381.0,0.0
-0.622134,-6.929615,1.232304,-168.210007,-6.16,-41.09,1729424875395.0,0.0
-0.713061,-9.195618,-2.541178,-219.800003,-32.549999,-64.68,1729424875415.0,0.0
-0.131605,-8.26481,-5.307281,-262.779999,-52.080002,-97.160004,1729424875437.0,0.0
0.361316,-5.922236,-6.151947,-235.339996,-66.919998,-102.970001,1729424875456.0,0.0
3.156133,-4.074977,-9.10469,-173.529999,-98.139999,-102.900002,1729424875476.0,0.0
2.507678,-1.555335,-10.392029,-128.240005,-99.400002,-89.809998,1729424875496.0,0.0
-3.055635,-3.0006,-10.896914,-127.120003,20.65,-38.43,1729424875515.0,0.0
-4.871787,-6.333801,-14.148761,-153.789993,28.700001,-41.509998,1729424875542.0,0.0
-3.888337,-3.536592,-13.957335,-164.289993,32.060001,-19.67,1729424875558.0,0.0
-4.134798,-7.293324,-11.447264,-79.309998,53.27,14.91,1729424875576.0,0.0
-4.086941,-7.219146,-7.503892,-74.340004,68.040001,-9.31,1729424875596.0,0.0
-4.158726,-4.601398,-9.142976,0.77,61.25,21.49,1729424875616.0,0.0
-2.988636,-2.792424,-4.938786,82.25,48.93,37.869999,1729424875636.0,0.0
-1.818545,-5.606383,-2.256432,95.269997,26.6,43.75,1729424875657.0,0.0
-0.260818,-8.224132,-1.552942,59.709999,-7.35,12.25,1729424875678.0,0.0
-0.102891,-7.673782,-2.017149,24.360001,-33.880001,-12.25,1729424875695.0,0.0
-1.251446,-5.508278,-2.385644,-11.55,-52.920002,-31.219999,1729424875717.0,0.0
-1.813759,-5.692525,-7.877172,-16.309999,-74.620003,-43.189999,1729424875737.0,0.0
-1.165305,-4.15394,-12.318252,78.82,-110.459999,-36.540001,1729424875756.0,0.0
-2.586641,1.342373,-10.79163,78.959999,-90.510002,-24.5,1729424875776.0,0.0
-5.850451,6.486942,-10.411172,-65.660004,-57.470001,-4.27,1729424875796.0,0.0
-7.482357,0.392423,-14.134403,-168.910004,-29.540001,24.360001,1729424875815.0,0.0
-7.408179,-4.955536,-15.072391,-122.5,17.780001,25.969999,1729424875837.0,0.0
-5.048856,-3.349952,-14.636896,90.510002,24.780001,63.420002,1729424875857.0,0.0
-2.59382,-2.139183,-12.667603,116.199997,34.09,63.349998,1729424875875.0,0.0
-3.062813,-3.105884,-7.893922,60.970001,72.730003,59.43,1729424875895.0,0.0
-3.09392,-7.84128,-4.797609,-20.09,77.699997,43.119999,1729424875915.0,0.0
-0.911665,-11.239087,-1.416551,-72.590004,40.880001,3.22,1729424875936.0,0.0
1.179662,-11.700903,-2.333002,-61.110001,-9.94,-12.88,1729424875957.0,0.0
1.95015,-9.755538,-4.019942,-18.9,-44.869999,-42.349998,1729424875977.0,0.0
0.480957,-6.599405,-7.640282,24.43,-39.830002,-43.610001,1729424875995.0,0.0
-0.892523,-5.307281,-8.652447,44.380001,-35.279999,-29.82,1729424876016.0,0.0
-1.588834,-4.960321,-10.686346,19.32,-46.130001,-27.23,1729424876036.0,0.0
-2.287539,-3.031706,-12.141183,-25.27,-42.560001,-24.780001,1729424876058.0,0.0
-5.469993,-1.533799,-10.430314,-96.040001,3.78,-10.43,1729424876077.0,0.0
-7.185646,-2.203789,-11.547763,-134.050003,34.720001,6.79,1729424876096.0,0.0
-5.611169,-6.869793,-12.964314,-31.780001,23.379999,24.780001,1729424876189.0,0.0
-2.158326,-7.144968,-11.782259,88.900002,8.47,22.75,1729424876194.0,0.0
-1.409373,-3.78066,-10.109675,144.339996,35.630001,30.1,1729424876197.0,0.0
-2.95035,-3.981657,-5.359922,94.639999,75.32,24.57,1729424876202.0,0.0
-1.167697,-6.800402,-3.232704,-12.53,32.130001,5.04,1729424876204.0,0.0
0.658026,-8.035098,-1.785046,-16.030001,-7.77,-10.71,1729424876216.0,0.0
1.179662,-7.566105,-3.376273,-3.71,-36.82,-36.259998,1729424876236.0,0.0
0.437887,-6.412765,-6.642475,20.790001,-47.459999,-50.330002,1729424876259.0,0.0
0.177069,-5.235496,-8.221739,35.91,-58.73,-49.07,1729424876277.0,0.0
-1.196411,-4.041477,-9.95175,41.860001,-56.700001,-46.130001,1729424876297.0,0.0
-3.242275,-1.567299,-9.238688,16.030001,-34.650002,-42.07,1729424876316.0,0.0
-5.929415,-0.27996,-9.549755,-15.75,-18.059999,-19.32,1729424876337.0,0.0
-7.51107,-2.995814,-13.969299,-25.9,0.07,1.19,1729424876358.0,0.0
-6.91765,-4.606184,-15.35235,-4.48,19.6,13.72,1729424876376.0,0.0
-4.84068,-5.197211,-12.899707,73.220001,26.74,32.41,1729424876398.0,0.0
-2.438286,-5.288138,-10.750952,124.599998,26.32,33.950001,1729424876416.0,0.0
-1.85683,-4.59422,-8.812766,146.860001,46.130001,26.6,1729424876435.0,0.0
-2.09372,-4.23051,-4.929214,133.979996,60.760002,19.460001,1729424876457.0,0.0
-1.773082,-4.821537,-1.986043,81.340004,44.380001,9.59,1729424876476.0,0.0
-1.289732,-7.73121,1.411765,27.299999,3.78,-4.9,1729424876495.0,0.0
-2.852244,-8.149954,-1.634298,-0.84,-21.49,-34.93,1729424876516.0,0.0
-2.301895,-8.075776,-6.381658,8.75,-58.939999,-35.700001,1729424876540.0,0.0
0.349352,-8.166703,-10.652846,20.09,-104.300003,-44.66,1729424876557.0,0.0
0.540778,-5.438886,-11.502297,4.34,-69.650002,-34.369999,1729424876577.0,0.0
-2.423929,-3.629912,-11.22473,-28.0,11.62,-12.6,1729424876595.0,0.0
-4.091727,-6.06102,-12.315859,-32.549999,46.27,7.7,1729424876615.0,0.0
-2.737389,-8.618947,-10.640882,19.879999,31.43,14.21,1729424876636.0,0.0
-2.11047,-8.62134,-8.157133,84.349998,33.459999,24.639999,1729424876656.0,0.0
-2.383251,-6.91765,-5.955735,137.899994,50.889999,20.93,1729424876675.0,0.0
-3.639483,-7.597212,-1.45005,128.660004,47.599998,17.710001,1729424876703.0,0.0
-4.768896,-7.580462,-0.284746,61.950001,32.759998,-11.2,1729424876715.0,0.0
-4.924429,-7.659425,-0.098106,25.969999,0.14,-5.74,1729424876736.0,0.0
-2.679961,-9.159724,-2.488536,-34.650002,-66.709999,-13.02,1729424876761.0,0.0
-0.081356,-6.029913,-9.956534,-95.900002,-86.590004,-42.560001,1729424876776.0,0.0
0.234497,-3.333202,-15.577275,-66.989998,-52.920002,-11.69,1729424876795.0,0.0
-1.210768,-6.388836,-14.371292,-36.889999,6.93,2.38,1729424876816.0,0.0
-2.866602,-7.814958,-11.030912,-130.550003,59.5,-18.620001,1729424876836.0,0.0
-2.694318,-9.51147,-11.81815,-39.27,65.169998,-7.7,1729424876857.0,0.0
-1.931008,-7.13779,-6.285945,66.290001,61.32,-11.9,1729424876877.0,0.0
-3.105884,-9.652647,4.429115,125.650002,54.950001,-13.09,1729424876896.0,0.0
-4.103691,-9.846465,5.168497,52.220001,15.61,-44.73,1729424876916.0,0.0
-4.414758,-4.488935,1.677369,29.33,-41.23,-55.16,1729424876937.0,0.0
-3.17049,1.117448,-0.930808,-22.4,-85.330002,-14.7,1729424876958.0,0.0
0.270389,-0.928415,-7.855636,-70.910004,-125.790001,10.78,1729424876979.0,0.0
1.921437,-4.469792,-12.574283,-150.570007,-109.550003,-8.96,1729424876997.0,0.0
0.33021,-6.431907,-16.273586,-128.449997,-57.68,46.200001,1729424877016.0,0.0
-1.356731,-5.745167,-15.8357,-105.139999,12.67,35.420002,1729424877037.0,0.0
-3.364309,-6.745367,-15.474383,-67.900002,54.389999,52.290001,1729424877058.0,0.0
-4.606184,-8.865408,-12.335001,-5.88,72.239998,42.77,1729424877080.0,0.0
-5.690133,-15.428921,-2.835495,36.540001,82.110001,9.52,1729424877097.0,0.0
-4.12044,-10.655239,1.083949,85.540001,21.559999,-7.49,1729424877120.0,0.0
-3.256632,-4.709075,1.904687,118.93,-29.540001,-26.18,1729424877138.0,0.0
-1.830509,0.650848,-1.519442,84.419998,-72.519997,-10.57,1729424877160.0,0.0
0.200997,-1.878366,-4.634897,3.57,-107.309998,11.48,1729424877179.0,0.0
0.684347,-8.389235,-16.362122,-130.899994,-87.43,-16.66,1729424877197.0,0.0
-0.177069,-4.201797,-19.877178,-197.75,-21.91,0.28,1729424877218.0,0.0
-2.63689,-4.180261,-20.006388,-124.459999,19.040001,27.440001,1729424877240.0,0.0
-3.816552,-4.644469,-13.701303,-176.050003,76.510002,-0.98,1729424877260.0,0.0
-3.565305,-7.920243,-10.255639,-123.690002,89.669998,20.51,1729424877278.0,0.0
-4.563113,-9.542577,-7.750352,35.420002,89.32,22.75,1729424877298.0,0.0
-3.854837,-6.556334,-3.668197,90.300003,79.730003,-7.77,1729424877318.0,0.0
-2.402394,-2.471786,-1.825724,61.880001,49.91,8.75,1729424877337.0,0.0
-1.146162,-5.673382,0.145962,35.91,16.73,3.92,1729424877358.0,0.0
-1.978864,-6.991827,-2.962314,-6.93,-6.02,-17.57,1729424877381.0,0.0
-2.495714,-3.768696,-4.015156,-24.290001,-19.809999,-12.67,1729424877398.0,0.0
-0.241675,-4.125226,-6.71426,-7.63,-64.68,0.07,1729424877422.0,0.0
1.361516,-4.101298,-13.79223,-0.14,-81.620003,-9.38,1729424877438.0,0.0
-1.048056,-0.428315,-15.022141,-50.889999,-34.650002,-4.55,1729424877459.0,0.0
-3.661019,-1.112662,-13.440485,-120.190002,0.77,10.57,1729424877477.0,0.0
-3.802195,-5.290531,-12.839886,-112.279999,21.0,17.15,1729424877496.0,0.0
-3.649055,-8.147561,-12.720245,-16.1,33.32,17.5,1729424877518.0,0.0
-4.402793,-4.776074,-11.380265,39.130001,52.080002,15.47,1729424877542.0,0.0
-5.199604,-3.393023,-8.729016,9.52,70.279999,14.0,1729424877559.0,0.0
-3.34038,-6.85783,-5.503492,-4.48,64.190002,13.79,1729424877580.0,0.0
-0.409173,-10.217353,-1.919044,48.860001,18.969999,1.54,1729424877597.0,0.0
2.62732,-9.492328,-2.711068,63.0,-28.630001,-41.02,1729424877617.0,0.0
2.005185,-5.197211,-3.957729,50.959999,-48.09,-44.939999,1729424877640.0,0.0
-0.392423,-3.505485,-4.577469,13.02,-58.450001,-33.950001,1729424877659.0,0.0
-1.895115,-3.515057,-8.16431,-25.83,-88.129997,-44.310001,1729424877677.0,0.0
-3.404987,-1.048056,-8.51127,-63.490002,-87.5,-55.580002,1729424877697.0,0.0
-6.876972,2.349752,-13.040883,-105.840004,-30.450001,-20.719999,1729424877718.0,0.0
-8.920443,-0.993021,-16.532011,-61.18,21.210001,21.98,1729424877738.0,0.0
-7.295716,-4.677969,-16.170694,25.48,50.400002,32.830002,1729424877757.0,0.0
-3.649055,-4.692325,-12.591033,76.580002,46.689999,49.91,1729424877780.0,0.0
-2.316252,-3.376273,-5.661418,40.110001,82.32,29.469999,1729424877797.0,0.0
-1.177269,-5.623133,-1.648655,3.15,63.98,34.720001,1729424877817.0,0.0
1.85683,-9.102298,-1.371087,-26.25,11.34,8.96,1729424877837.0,0.0
3.141776,-10.061819,-2.782853,-22.190001,-17.639999,-10.71,1729424877858.0,0.0
2.091327,-9.346365,-4.393222,0.63,-33.529999,-28.630001,1729424877877.0,0.0
-0.009571,-6.218946,-5.625526,7.77,-42.630001,-30.59,1729424877897.0,0.0
-1.179662,-5.773881,-8.575876,3.92,-63.490002,-27.65,1729424877917.0,0.0
-1.526621,-2.986243,-10.774881,-25.9,-78.959999,-40.950001,1729424877937.0,0.0
-4.326223,-0.344566,-13.493127,-63.84,-41.580002,-23.379999,1729424877959.0,0.0
-7.415358,0.311067,-16.797615,-86.519997,26.74,-0.35,1729424877978.0,0.0
-8.13799,-2.87378,-16.393229,-23.799999,66.639999,33.880001,1729424877997.0,0.0
-4.431508,-3.76391,-14.368899,67.830002,54.880001,50.68,1729424878017.0,0.0
-1.887937,-3.402594,-12.430713,92.330002,70.980003,49.07,1729424878036.0,0.0
-3.232704,-4.493721,-9.243474,23.799999,125.860001,35.77,1729424878060.0,0.0
-3.900301,-7.525427,-6.075377,-60.41,135.240005,19.950001,1729424878079.0,0.0
-2.608176,-7.243074,-0.902094,-52.990002,103.599998,12.6,1729424878097.0,0.0
1.569692,-8.10449,2.141576,-6.51,44.450001,0.28,1729424878117.0,0.0
3.739982,-8.683553,-2.682354,47.18,-49.0,-48.16,1729424878138.0,0.0
3.948158,-5.63749,-8.190632,62.09,-71.190002,-63.77,1729424878158.0,0.0
1.588834,-4.055835,-8.037491,42.209999,-59.43,-55.790001,1729424878178.0,0.0
0.655633,-1.679761,-9.334401,-22.540001,-79.590004,-66.849998,1729424878197.0,0.0
-0.677169,2.194218,-12.863814,-115.290001,-77.349998,-56.560001,1729424878218.0,0.0
-3.893122,3.476771,-15.960127,-162.399994,-29.610001,-17.219999,1729424878237.0,0.0
-6.84108,-0.052642,-18.807585,-84.840004,32.200001,16.1,1729424878258.0,0.0
-7.302894,-3.316452,-17.807386,53.830002,75.669998,62.93,1729424878278.0,0.0
-3.519842,-2.124826,-15.189637,128.660004,57.049999,93.379997,1729424878296.0,0.0
-1.277767,0.272782,-11.767902,112.139999,91.559998,93.660004,1729424878318.0,0.0
-3.192025,-3.52702,-4.106083,34.790001,133.770004,89.949997,1729424878337.0,0.0
-2.012364,-7.099504,-0.363709,-46.34,106.82,67.830002,1729424878363.0,0.0
-0.416351,-9.001799,2.337788,-13.440001,42.91,71.330002,1729424878380.0,0.0
1.277767,-12.856635,0.308674,40.459999,-27.299999,21.35,1729424878397.0,0.0
2.328217,-11.619547,-1.40698,35.560001,-81.970001,-55.650002,1729424878416.0,0.0
-0.952343,-6.427122,-0.655633,-14.0,-85.540001,-81.760002,1729424878438.0,0.0
-2.512464,-5.383851,-10.631311,-76.440002,-115.080002,-86.660004,1729424878459.0,0.0
-2.541178,-4.608576,-11.095518,12.46,-165.059998,-82.879997,1729424878477.0,0.0
-4.579862,4.070191,-11.485549,-48.09,-107.590004,-80.43,1729424878497.0,0.0
-7.393822,2.864209,-17.496319,-103.110001,-69.720001,-8.89,1729424878517.0,0.0
-6.608976,-2.667997,-21.372692,-81.480003,-19.110001,35.0,1729424878540.0,0.0
-5.228317,-5.053641,-19.2694,56.349998,23.870001,79.239998,1729424878559.0,0.0
-2.615355,-2.732604,-14.218152,167.020004,48.650002,101.010002,1729424878577.0,0.0
-1.715654,-0.847059,-12.605389,184.309998,82.389999,104.580002,1729424878596.0,0.0
-2.991028,-0.81356,-7.587641,120.889999,124.110001,99.400002,1729424878616.0,0.0
-3.704089,-5.546563,-0.583849,26.32,116.830002,83.720001,1729424878637.0,0.0
-1.289732,-9.288938,2.574677,-59.779999,65.730003,52.5,1729424878658.0,0.0
1.086342,-12.052648,0.401994,-20.58,-8.19,36.049999,1729424878678.0,0.0
2.421536,-12.825529,-0.636491,40.670002,-65.309998,-31.99,1729424878697.0,0.0
-0.021535,-7.144968,-2.316252,40.110001,-76.790001,-66.849998,1729424878716.0,0.0
-1.942972,-5.285746,-9.047262,45.220001,-99.400002,-61.18,1729424878738.0,0.0
-2.084148,-2.572284,-9.174082,38.779999,-139.580002,-59.010002,1729424878758.0,0.0
-3.158526,-0.267996,-12.600604,-53.549999,-122.360001,-65.029999,1729424878776.0,0.0
-5.120641,-0.768096,-15.838093,-179.759995,-48.299999,-21.0,1729424878797.0,0.0
-7.070791,-5.553742,-19.877178,-76.580002,14.63,30.940001,1729424878816.0,0.0
-6.769295,-8.874979,-17.094324,93.029999,65.660004,49.84,1729424878837.0,0.0
-3.510271,-6.829116,-14.445471,231.070007,62.650002,75.459999,1729424878858.0,0.0
-1.758725,-4.919643,-12.021541,291.059998,91.489998,77.840004,1729424878876.0,0.0
-2.758924,-7.121039,-5.072784,282.940002,148.539993,64.050003,1729424878896.0,0.0
-3.804588,-8.930015,4.488935,200.410004,159.949997,26.460001,1729424878917.0,0.0
-2.26361,-9.49472,5.268995,171.430008,87.360001,19.040001,1729424878937.0,0.0
0.602991,-10.435099,2.517249,254.449997,-23.309999,16.940001,1729424878958.0,0.0
2.569891,-7.022934,-1.107877,320.73999,-88.550003,-10.15,1729424878977.0,0.0
1.859223,-4.462614,-2.053042,315.839996,-84.559998,3.57,1729424878996.0,0.0
-1.402194,-3.728018,-2.275574,210.210007,-68.879997,28.210001,1729424879016.0,0.0
-4.031906,-2.091327,-5.785845,-13.72,-76.440002,17.5,1729424879039.0,0.0
-6.4678,-3.608376,-11.028521,-246.540009,-62.439999,6.16,1729424879059.0,0.0
-8.073383,-7.290931,-15.902699,-397.529999,-24.290001,-9.45,1729424879078.0,0.0
-8.248059,-8.269595,-17.551353,-452.830017,7.14,-48.02,1729424879097.0,0.0
-6.912865,-8.743374,-15.464812,-331.869995,45.080002,-43.540001,1729424879116.0,0.0
-3.785445,-7.156933,-13.060026,-53.970001,57.959999,22.540001,1729424879137.0,0.0
-4.0008,-7.164111,-5.929415,-16.799999,98.699997,-4.83,1729424879158.0,0.0
-4.108476,-3.474378,-0.859023,-125.230003,99.470001,-32.41,1729424879176.0,0.0
-2.656033,-7.733603,2.526821,-97.93,45.779999,6.44,1729424879196.0,0.0
0.847059,-7.582855,2.56032,-47.040001,-10.29,-17.01,1729424879217.0,0.0
2.861816,-8.518449,-2.09372,19.110001,-69.720001,-34.299999,1729424879238.0,0.0
2.038685,-7.640282,-5.694918,22.190001,-79.660004,-48.16,1729424879257.0,0.0
0.332602,-5.06082,-5.118248,21.35,-67.059998,-34.720001,1729424879276.0,0.0
0.165105,-4.608576,-7.290931,21.559999,-98.209999,-20.65,1729424879296.0,0.0
0.002393,-4.249653,-10.317852,-10.29,-123.900002,-17.360001,1729424879316.0,0.0
-1.914258,-3.9673,-11.949757,-65.660004,-96.32,-16.379999,1729424879337.0,0.0
-5.63749,-2.634498,-12.251251,-146.440002,-34.93,-7.98,1729424879357.0,0.0
-8.937192,-5.079963,-15.084354,-162.470001,24.15,20.719999,1729424879378.0,0.0
-8.578269,-8.073383,-15.292529,-58.73,40.740002,35.07,1729424879396.0,0.0
-4.472186,-5.958128,-14.316258,69.510002,24.639999,45.709999,1729424879416.0,0.0
-2.912065,-3.814159,-13.234701,135.589996,47.950001,55.16,1729424879437.0,0.0
-4.457829,-5.850451,-2.17029,92.470001,103.809998,32.48,1729424879458.0,0.0
-2.261217,-6.707082,-0.854238,-107.169998,61.529999,2.24,1729424879476.0,0.0
0.732204,-9.111869,-1.854438,-81.970001,-7.63,5.04,1729424879496.0,0.0
2.68714,-9.066404,-3.249453,-50.82,-29.049999,-36.959999,1729424879517.0,0.0
0.411566,-6.821937,-4.278367,-29.4,-24.290001,-46.130001,1729424879540.0,0.0
-0.897308,-3.924229,-5.474778,-8.96,-46.549999,-44.52,1729424879557.0,0.0
-2.005185,-1.787439,-10.040283,22.960001,-76.860001,-25.129999,1729424879577.0,0.0
-2.232504,-1.911865,-11.854043,5.46,-67.830002,-24.780001,1729424879595.0,0.0
-3.641876,-1.485943,-12.748959,-24.710001,-20.16,-14.28,1729424879616.0,0.0
-6.534799,-2.854637,-12.866207,-21.0,19.67,10.92,1729424879637.0,0.0
-6.728617,-5.168497,-13.545769,5.53,20.860001,25.969999,1729424879657.0,0.0
-4.436293,-6.436693,-10.884951,13.16,15.89,18.48,1729424879677.0,0.0
-2.847459,-5.383851,-6.884151,15.12,32.970001,15.82,1729424879696.0,0.0
-2.519642,-5.17089,-3.838088,37.099998,27.299999,22.540001,1729424879716.0,0.0
-1.316052,-5.673382,-3.728018,36.119999,-6.65,10.36,1729424879737.0,0.0
-0.112463,-4.630112,-4.56072,0.07,-29.26,10.5,1729424879757.0,0.0
-0.442672,-4.867002,-5.82413,-33.459999,-32.759998,17.57,1729424879776.0,0.0
-2.596212,-4.409972,-10.624132,-21.91,-45.639999,19.879999,1729424879796.0,0.0
-4.862216,-3.622734,-11.609976,-18.620001,-29.33,11.83,1729424879816.0,0.0
-5.213961,-4.45065,-12.55514,-14.91,-3.36,8.05,1729424879837.0,0.0
-4.4339,-5.989235,-12.203396,28.42,36.049999,-4.41,1729424879857.0,0.0
-7.087541,-5.084748,-12.870994,46.34,72.449997,-9.87,1729424879876.0,0.0
-6.597012,-5.577669,-10.980663,47.389999,59.779999,9.87,1729424879896.0,0.0
-2.955136,-4.766503,-4.792823,22.540001,39.619999,-19.18,1729424879917.0,0.0
-1.550549,-2.440679,-1.840081,6.16,31.639999,-8.89,1729424879937.0,0.0
-0.710668,-4.601398,-2.852244,7.63,-1.12,-1.61,1729424879957.0,0.0
0.047856,-7.415358,-5.319244,-18.34,-28.559999,-20.65,1729424879976.0,0.0
-0.528814,-6.606583,-6.465407,-31.5,-26.67,-27.719999,1729424879996.0,0.0
-2.084148,-5.225924,-6.958328,-17.290001,-19.530001,-13.93,1729424880015.0,0.0
-1.87358,-4.189832,-9.099905,0.56,-35.560001,-7.21,1729424880035.0,0.0
-2.500499,-3.656233,-10.262815,9.8,-36.470001,3.5,1729424880057.0,0.0
-4.331009,-3.627519,-10.470992,-6.93,-9.66,2.73,1729424880076.0,0.0
-5.24746,-3.95055,-11.239087,-20.16,10.01,5.46,1729424880095.0,0.0
-3.940979,-6.118448,-11.41137,0.28,13.37,10.22,1729424880116.0,0.0
-2.775674,-5.749953,-11.916256,27.440001,20.23,-2.17,1729424880136.0,0.0
-4.4339,-4.699504,-8.877372,66.989998,54.599998,1.61,1729424880157.0,0.0
-3.900301,-2.507678,-5.000999,29.4,46.619999,-7.35,1729424880187.0,0.0
-2.519642,-3.742374,-3.881158,-0.14,19.74,-0.7,1729424880196.0,0.0
-1.818545,-6.836295,-3.885944,-30.870001,-1.61,-14.21,1729424880215.0,0.0
-1.497907,-6.635297,-4.807181,-51.450001,-11.83,-33.670002,1729424880239.0,0.0
-2.304288,-5.71406,-6.295516,-56.139999,-18.41,-25.200001,1729424880262.0,0.0
-1.789831,-4.876573,-7.89153,-47.25,-38.849998,-21.42,1729424880277.0,0.0
-1.938186,-4.017549,-9.674182,-24.01,-47.599998,-7.56,1729424880297.0,0.0
-2.419144,-3.821337,-10.222138,-25.200001,-35.349998,-7.21,1729424880315.0,0.0
-2.792424,-4.118048,-10.789237,-20.65,-12.6,0.84,1729424880335.0,0.0
-2.59382,-5.422136,-11.251052,16.030001,13.93,6.09,1729424880357.0,0.0
-3.56052,-5.632704,-12.423534,48.16,30.59,8.05,1729424880375.0,0.0
-4.096512,-5.649454,-12.545568,76.93,29.75,14.98,1729424880397.0,0.0
-3.182454,-4.649254,-10.157533,71.889999,36.610001,10.22,1729424880416.0,0.0
-2.768496,-3.139383,-5.845665,54.810001,45.080002,9.31,1729424880436.0,0.0
-2.179861,-2.316252,-3.101098,33.18,36.470001,18.690001,1729424880456.0,0.0
-1.095913,-6.398407,-3.249453,2.38,-14.0,10.64,1729424880476.0,0.0
-1.261017,-7.200003,-3.988836,-51.66,-24.92,-4.2,1729424880496.0,0.0
-2.254039,-6.015556,-5.374279,-51.450001,-35.279999,7.84,1729424880516.0,0.0
-3.065206,-4.759324,-7.319644,-19.530001,-61.459999,18.83,1729424880541.0,0.0
-3.134598,-4.67079,-10.174281,-4.27,-69.440002,14.98,1729424880559.0,0.0
-4.118048,-5.319244,-12.583855,3.36,-36.82,9.17,1729424880577.0,0.0
-5.419744,-6.62094,-13.442878,4.76,12.88,1.47,1729424880596.0,0.0
-6.628119,-6.568298,-14.471791,36.540001,40.810001,10.99,1729424880615.0,0.0
-5.819345,-4.938786,-12.150753,81.199997,33.18,24.15,1729424880636.0,0.0
-4.225725,-4.218546,-7.829315,71.82,35.349998,6.79,1729424880657.0,0.0
-3.239882,-3.371487,-3.395415,12.6,45.990002,-10.71,1729424880676.0,0.0
-2.715853,-5.391029,-2.428715,-13.440001,26.809999,-6.93,1729424880695.0,0.0
-1.713261,-7.178468,-3.426522,-41.02,-10.64,-24.780001,1729424880716.0,0.0
-0.993021,-9.212367,-6.305088,-69.860001,-29.82,-47.950001,1729424880736.0,0.0
-0.904487,-8.530413,-8.102098,-84.699997,-29.469999,-63.560001,1729424880756.0,0.0
-0.815953,-5.529813,-10.286745,-32.549999,-38.779999,-48.02,1729424880776.0,0.0
-0.909273,-2.294717,-8.913264,11.41,-45.290001,-25.48,1729424880795.0,0.0
-2.823531,-2.629712,-9.631111,-17.5,-8.12,-7.14,1729424880815.0,0.0
-3.113062,-4.424329,-11.222338,-29.049999,18.059999,1.19,1729424880836.0,0.0
-2.806781,-6.147161,-11.736795,8.89,31.5,6.93,1729424880856.0,0.0
-3.9673,-5.225924,-12.162716,71.82,39.619999,20.790001,1729424880875.0,0.0
-3.644269,-4.321437,-9.518648,104.93,38.990002,22.889999,1729424880895.0,0.0
-3.067599,-3.026921,-5.529813,48.299999,41.299999,5.88,1729424880915.0,0.0
-2.584249,-4.591826,-4.17069,-2.17,36.049999,8.4,1729424880936.0,0.0
-2.376073,-6.04427,-4.333402,-20.23,14.84,2.66,1729424880956.0,0.0
-2.715853,-7.57089,-4.419543,-39.34,0.14,-15.96,1729424880976.0,0.0
-2.897708,-8.243275,-6.111269,-76.580002,-8.26,-31.85,1729424880995.0,0.0
-2.598605,-6.278766,-6.865008,-41.720001,-38.57,-23.030001,1729424881015.0,0.0
-0.949951,-4.199404,-7.625926,-1.12,-64.889999,-18.34,1729424881035.0,0.0
-1.277767,-2.998207,-8.413164,-5.95,-51.380001,-9.24,1729424881056.0,0.0
-1.660619,-5.056034,-10.4016,-24.57,-8.89,-10.99,1729424881076.0,0.0
-2.885744,-5.465207,-10.782058,-3.08,29.960001,-8.33,1729424881095.0,0.0
-4.948357,-5.379066,-12.203396,45.009998,35.0,-3.5,1729424881176.0,0.0
-3.596412,-4.232903,-11.241481,93.029999,12.74,13.79,1729424881176.0,0.0
-2.376073,-3.232704,-8.989835,66.639999,23.17,6.23,1729424881176.0,0.0
-2.586641,-4.328616,-6.419943,8.68,39.130001,1.33,1729424881177.0,0.0
-2.400001,-5.565705,-5.101498,-31.710001,39.130001,-4.9,1729424881202.0,0.0
-2.584249,-7.063612,-4.342973,-31.43,17.43,-6.86,1729424881215.0,0.0
-2.28036,-7.245467,-5.364708,-37.170002,-0.49,-27.16,1729424881235.0,0.0
-2.22054,-6.82433,-6.331409,-45.849998,-12.81,-31.5,1729424881256.0,0.0
-1.57687,-5.831308,-7.412964,-23.66,-30.52,-26.18,1729424881275.0,0.0
-1.423729,-4.386044,-8.709875,1.75,-39.619999,-16.450001,1729424881295.0,0.0
-1.588834,-3.95055,-9.442079,3.85,-31.639999,-9.17,1729424881315.0,0.0
-2.199004,-4.515256,-9.851252,-6.65,-5.6,-4.2,1729424881335.0,0.0
-3.120241,-5.632704,-9.970891,-14.35,21.07,-6.23,1729424881357.0,0.0
-3.756732,-6.266802,-10.636096,-2.8,25.690001,-1.82,1729424881379.0,0.0
-4.118048,-6.417551,-10.600205,49.490002,21.77,6.86,1729424881395.0,0.0
-3.383451,-4.407579,-9.025726,77.559998,13.16,9.1,1729424881415.0,0.0
-2.76371,-3.196811,-7.243074,61.880001,15.61,6.23,1729424881439.0,0.0
-1.902294,-3.510271,-5.91745,13.86,18.27,-1.68,1729424881457.0,0.0
-1.842474,-6.728617,-5.56092,-25.9,13.23,0.35,1729424881475.0,0.0
-1.488336,-7.549356,-5.364708,-67.550003,-11.76,-25.9,1729424881497.0,0.0
-1.423729,-7.221539,-7.063612,-88.830002,-26.18,-25.27,1729424881515.0,0.0
-1.531406,-7.484749,-7.783852,-101.779999,-27.16,-32.27,1729424881539.0,0.0
-0.227318,-5.161318,-10.619347,-54.529999,-32.549999,-19.110001,1729424881558.0,0.0
-1.131805,-4.886144,-9.466006,-8.47,-29.540001,-2.38,1729424881575.0,0.0
-1.718047,-5.374279,-9.913465,-36.610001,7.42,-22.68,1729424881594.0,0.0
-2.505285,-5.194818,-9.815358,-0.56,18.27,6.3,1729424881615.0,0.0
-1.938186,-6.001199,-10.028319,39.619999,20.02,8.05,1729424881635.0,0.0
-2.368894,-5.032106,-10.018748,69.510002,23.59,13.3,1729424881657.0,0.0
-2.715853,-3.943372,-9.147761,80.150002,28.42,18.059999,1729424881676.0,0.0
-2.840281,-3.359523,-6.915257,45.990002,27.790001,12.32,1729424881694.0,0.0
-2.400001,-4.85743,-6.501299,3.85,20.16,12.74,1729424881715.0,0.0
-2.053042,-5.793024,-6.001199,-9.8,0.84,2.94,1729424881736.0,0.0
-2.756532,-6.503692,-5.974878,-46.689999,-2.03,-14.91,1729424881760.0,0.0
-3.007778,-7.037291,-6.695118,-93.730003,-13.440001,-32.48,1729424881775.0,0.0
-2.26361,-5.541777,-7.893922,-51.799999,-34.790001,-19.389999,1729424881795.0,0.0
-1.488336,-3.87398,-6.4343,-1.4,-40.459999,-20.65,1729424881815.0,0.0
-1.842474,-3.725625,-8.12124,10.22,-24.92,-15.47,1729424881837.0,0.0
-1.98365,-4.323831,-10.114462,32.970001,-14.49,0.28,1729424881870.0,0.0
-2.143969,-5.556134,-12.727424,61.389999,-2.73,18.200001,1729424881937.0,0.0
-1.978864,-7.307681,-13.500306,90.510002,15.12,23.799999,1729424881938.0,0.0
-2.711068,-5.541777,-10.150353,89.25,37.59,13.65,1729424881940.0,0.0
-2.959922,-4.749753,-7.685746,55.510002,38.709999,7.14,1729424881942.0,0.0
-2.40718,-5.584848,-5.65424,18.690001,22.75,0.77,1729424881956.0,0.0
-2.584249,-5.407779,-4.048656,-22.82,13.23,-19.18,1729424881975.0,0.0
-2.545963,-5.424529,-4.766503,-56.139999,-2.66,-25.76,1729424882001.0,0.0
-1.043271,-6.386444,-7.37468,-71.82,-32.130001,-29.82,1729424882016.0,0.0
-0.227318,-6.687939,-10.408779,-64.889999,-29.960001,-29.469999,1729424882035.0,0.0
-0.701097,-5.053641,-10.463813,-33.25,-8.75,-16.379999,1729424882057.0,0.0
-1.935793,-3.876373,-9.707682,-9.66,8.68,-2.17,1729424882076.0,0.0
-1.722832,-4.146761,-8.626125,-3.92,16.52,6.65,1729424882096.0,0.0
-1.4668,-5.273781,-9.300901,36.68,25.690001,17.360001,1729424882115.0,0.0
-3.196811,-5.290531,-9.492328,95.550003,33.18,36.75,1729424882136.0,0.0
-3.438486,-4.996214,-8.525627,95.199997,32.970001,25.9,1729424882156.0,0.0
-3.318845,-4.634897,-6.922436,28.0,30.309999,13.72,1729424882176.0,0.0
-3.139383,-6.175875,-5.510671,-22.960001,17.5,3.99,1729424882195.0,0.0
-3.634698,-5.99402,-4.271189,-71.190002,10.78,-16.309999,1729424882220.0,0.0
-3.206382,-6.656832,-5.63749,-105.489998,-11.2,-22.049999,1729424882239.0,0.0
-1.684547,-7.913064,-7.534998,-82.110001,-33.740002,-26.74,1729424882259.0,0.0
-0.90688,-5.431707,-8.606983,-21.91,-31.290001,-25.059999,1729424882277.0,0.0
-0.815953,-3.292524,-8.659625,34.509998,-29.68,-7.84,1729424882298.0,0.0
-0.911665,-4.266403,-9.659825,38.290001,-7.07,-2.24,1729424882317.0,0.0
-1.828116,-4.776074,-9.793823,43.610001,12.18,5.81,1729424882339.0,0.0
-3.261417,-4.847858,-9.934999,57.959999,22.610001,24.01,1729424882363.0,0.0
-3.538985,-5.407779,-9.626326,66.290001,21.559999,34.790001,1729424882383.0,0.0
-3.180061,-5.319244,-8.037491,60.27,22.26,30.73,1729424882402.0,0.0
-3.249453,-5.005785,-5.977271,50.119999,18.059999,26.460001,1729424882418.0,0.0
-4.06062,-6.74776,-3.699304,11.2,10.08,8.12,1729424882437.0,0.0
-3.723232,-7.850852,-4.005585,-64.610001,-4.41,-25.620001,1729424882459.0,0.0
-2.54357,-8.145168,-6.470192,-86.940002,-26.67,-24.710001,1729424882477.0,0.0
-0.792024,-7.692925,-9.879964,-49.07,-44.450001,-27.23,1729424882498.0,0.0
0.181855,-5.47717,-10.930414,-0.91,-36.540001,-27.299999,1729424882518.0,0.0
0.437887,-3.371487,-9.987641,41.299999,-21.629999,-12.88,1729424882540.0,0.0
0.244068,-2.76371,-9.293723,43.189999,-7.14,1.47,1729424882560.0,0.0
-0.411566,-3.905087,-8.669197,13.02,9.24,14.56,1729424882581.0,0.0
-2.024328,-5.759524,-9.025726,11.55,15.190001,32.200001,1729424882598.0,0.0
-2.95035,-7.834101,-9.166903,28.700001,19.879999,30.24,1729424882629.0,0.0
-3.182454,-7.355537,-8.559127,28.139999,27.65,6.86,1729424882648.0,0.0
-3.809374,-6.742974,-6.845865,38.009998,17.15,12.04,1729424882660.0,0.0
-3.893122,-5.673382,-4.445865,2.73,7.98,-7.21,1729424882677.0,0.0
-3.567699,-6.168696,-4.319045,-56.0,-7.84,-17.360001,1729424882699.0,0.0
-2.316252,-6.166305,-6.642475,-92.540001,-25.549999,-22.33,1729424882716.0,0.0
-1.45005,-6.419943,-9.918249,-74.129997,-26.32,-13.16,1729424882737.0,0.0
-0.614955,-5.91745,-9.542577,6.72,-17.15,-0.77,1729424882761.0,0.0
-0.346959,-4.87418,-9.092726,52.849998,-1.61,2.94,1729424882776.0,0.0
-1.141376,-4.682754,-8.822337,55.23,14.7,5.25,1729424882796.0,0.0
-2.684747,-5.726025,-9.406186,59.080002,20.440001,21.210001,1729424882816.0,0.0
-3.165704,-6.314659,-8.874979,46.48,23.030001,14.42,1729424882837.0,0.0
-3.141776,-6.240481,-7.750352,25.83,20.93,3.08,1729424882862.0,0.0
-3.046063,-5.393422,-6.898508,13.09,16.24,-0.28,1729424882877.0,0.0
-3.979264,-5.276174,-5.053641,-15.47,15.33,-14.7,1729424882897.0,0.0
-4.493721,-5.852845,-4.168297,-85.889999,4.55,-30.59,1729424882918.0,0.0
-2.696711,-7.133004,-7.865208,-118.370003,-24.290001,-32.200001,1729424882937.0,0.0
-1.160519,-7.003791,-8.496914,-70.629997,-31.360001,-20.02,1729424882957.0,0.0
-0.78006,-5.166104,-8.877372,-0.28,-25.34,-13.86,1729424882977.0,0.0
0.148355,-4.819145,-8.738588,48.439999,-11.06,-4.76,1729424882997.0,0.0
-1.251446,-4.735396,-8.130811,60.130001,16.450001,-5.67,1729424883016.0,0.0
-3.254239,-4.756931,-9.576077,68.110001,16.799999,15.54,1729424883036.0,0.0
-2.459821,-5.642276,-9.755538,65.870003,3.5,20.02,1729424883059.0,0.0
-3.273381,-6.185446,-7.188039,40.110001,21.35,16.940001,1729424883077.0,0.0
-2.682354,-4.481757,-7.226324,18.690001,12.95,7.98,1729424883096.0,0.0
-3.538985,-5.058427,-6.192625,19.530001,5.88,9.8,1729424883117.0,0.0
-4.378866,-5.661418,-4.259224,-38.639999,4.13,-12.18,1729424883137.0,0.0
-3.512664,-6.951149,-6.305088,-99.050003,-21.280001,-17.639999,1729424883158.0,0.0
-1.596013,-6.848258,-8.453842,-75.599998,-41.93,-8.19,1729424883177.0,0.0
-1.091127,-6.032306,-9.327222,-23.870001,-38.080002,0.63,1729424883196.0,0.0
-0.184247,-5.539384,-9.913465,8.19,-25.549999,-4.27,1729424883216.0,0.0
-0.394816,-5.970093,-9.590433,25.690001,-0.91,-2.59,1729424883237.0,0.0
-1.552942,-5.821737,-9.674182,40.040001,17.43,5.46,1729424883258.0,0.0
-2.62732,-5.548956,-9.229117,74.830002,18.34,28.139999,1729424883276.0,0.0
-2.634498,-4.366901,-8.973085,79.379997,21.07,30.030001,1729424883297.0,0.0
-2.809174,-3.993621,-7.125826,52.920002,24.5,25.34,1729424883316.0,0.0
-2.895315,-4.354938,-5.082355,8.12,23.17,15.61,1729424883337.0,0.0
-3.960121,-6.994221,-3.87398,-37.869999,10.78,3.99,1729424883358.0,0.0
-4.261617,-9.059227,-3.474378,-117.32,-5.04,-35.700001,1729424883381.0,0.0
-3.306881,-9.018548,-6.309873,-153.089996,-29.540001,-45.709999,1729424883396.0,0.0
-1.509871,-8.669197,-9.676575,-62.93,-45.990002,-37.73,1729424883416.0,0.0
-0.770489,-5.130211,-10.447062,5.95,-36.119999,-34.16,1729424883437.0,0.0
-0.815953,-3.964907,-9.80818,36.540001,-18.129999,-14.0,1729424883457.0,0.0
-0.81356,-4.409972,-9.224331,36.610001,5.46,1.82,1729424883477.0,0.0
-1.761117,-5.522634,-9.513863,43.400002,23.17,22.75,1729424883496.0,0.0
-2.612962,-6.355337,-9.257831,73.5,25.9,38.360001,1729424883516.0,0.0
-3.201597,-6.013163,-7.657032,80.57,28.42,28.630001,1729424883539.0,0.0
-3.239882,-4.68754,-7.45125,49.209999,30.52,16.870001,1729424883557.0,0.0
-3.634698,-5.221139,-6.135197,25.41,20.370001,14.56,1729424883576.0,0.0
-3.847659,-5.79781,-5.261817,-17.15,11.27,-10.5,1729424883596.0,0.0
-4.515256,-7.463214,-4.474578,-101.849998,2.17,-33.880001,1729424883615.0,0.0
-3.086741,-8.609376,-7.905886,-145.389999,-23.73,-47.18,1729424883636.0,0.0
-1.277767,-6.845865,-9.195618,-74.620003,-32.200001,-42.0,1729424883657.0,0.0
-1.318445,-4.859823,-8.839087,10.71,-24.92,-26.74,1729424883675.0,0.0
-0.509671,-3.790231,-8.970692,40.110001,-10.01,-21.0,1729424883695.0,0.0
-1.17009,-3.644269,-8.154739,65.169998,11.76,-4.41,1729424883718.0,0.0
-2.711068,-3.620341,-9.21476,73.639999,26.110001,13.86,1729424883737.0,0.0
-3.302095,-5.12782,-9.004191,62.860001,16.870001,26.809999,1729424883757.0,0.0
-3.393023,-5.486742,-7.972885,22.469999,19.32,15.54,1729424883777.0,0.0
-2.907279,-5.113462,-7.89153,6.86,14.14,11.27,1729424883796.0,0.0
-3.627519,-5.99402,-6.216553,-5.95,10.36,1.82,1729424883816.0,0.0
-4.498507,-7.305287,-4.189832,-68.459999,6.23,-29.049999,1729424883838.0,0.0
-3.455236,-8.097312,-5.699703,-139.229996,-13.02,-45.849998,1729424883858.0,0.0
-1.995614,-8.449057,-8.585447,-96.809998,-36.049999,-30.24,1729424883876.0,0.0
-0.775275,-5.723632,-8.939585,-26.809999,-30.380001,-32.34,1729424883903.0,0.0
-0.997807,-4.402793,-8.84148,31.01,-20.02,-13.16,1729424883917.0,0.0
-0.057428,-4.036692,-9.571291,49.560001,-11.2,-4.69,1729424883937.0,0.0
-0.770489,-4.441079,-9.382257,59.290001,10.22,10.5,1729424883958.0,0.0
-2.349752,-5.096712,-9.102298,67.199997,22.610001,31.99,1729424883977.0,0.0
-3.079563,-6.496514,-8.350951,56.420002,21.629999,34.16,1729424883997.0,0.0
-2.739782,-6.005985,-8.403593,19.67,22.190001,15.68,1729424884019.0,0.0
-2.718246,-5.479564,-7.530212,18.48,14.49,17.780001,1729424884037.0,0.0
-3.330809,-6.288338,-5.63749,1.82,13.86,1.33,1729424884058.0,0.0
-4.007978,-7.606783,-4.106083,-98.07,3.15,-28.139999,1729424884077.0,0.0
-2.242075,-7.831708,-7.432107,-135.800003,-22.75,-35.139999,1729424884097.0,0.0
-1.177269,-7.795816,-8.740981,-70.769997,-29.889999,-21.49,1729424884117.0,0.0
-0.729811,-5.386244,-9.078369,5.11,-23.17,-20.299999,1729424884138.0,0.0
-0.172283,-3.866802,-8.767302,56.630001,-14.28,-5.88,1729424884159.0,0.0
-0.524028,-3.924229,-8.755339,71.82,6.02,1.54,1729424884179.0,0.0
-2.005185,-4.287938,-9.523434,72.029999,19.32,19.530001,1729424884198.0,0.0
-2.981457,-5.414958,-9.020942,71.889999,20.299999,33.110001,1729424884217.0,0.0
-3.52702,-5.845665,-7.580462,34.790001,23.17,22.610001,1729424884241.0,0.0
-2.971886,-5.369494,-8.126025,9.59,15.89,14.49,1729424884261.0,0.0
-3.299703,-6.190232,-7.097112,4.97,9.59,7.98,1729424884280.0,0.0
-4.261617,-6.515656,-4.965107,-42.91,13.51,-18.129999,1729424884299.0,0.0
-3.778267,-7.063612,-5.103891,-124.110001,-1.89,-34.439999,1729424884319.0,0.0
-1.308874,-7.618747,-8.183454,-105.0,-27.65,-22.190001,1729424884340.0,0.0
-1.237089,-4.811966,-8.865408,7.77,-18.34,-17.08,1729424884363.0,0.0
-0.952343,-4.59422,-9.377472,53.27,-8.47,-9.1,1729424884381.0,0.0
-1.40698,-4.649254,-9.281759,60.689999,9.1,-3.78,1729424884399.0,0.0
-2.541178,-5.139783,-9.396614,63.490002,17.290001,14.0,1729424884418.0,0.0
-3.515057,-6.283553,-8.197811,42.420002,19.389999,19.67,1729424884441.0,0.0
-2.809174,-5.182854,-8.673983,3.5,19.6,4.9,1729424884461.0,0.0
-2.943172,-5.833702,-7.300502,10.71,12.81,7.84,1729424884479.0,0.0
-3.347559,-6.116055,-5.783452,-10.71,14.7,-17.01,1729424884498.0,0.0
-4.187439,-5.800202,-4.98425,-60.549999,8.33,-28.210001,1729424884519.0,0.0
-2.67039,-6.355337,-6.4678,-107.730003,-16.73,-33.18,1729424884541.0,0.0
-1.375873,-6.996613,-9.01137,-74.760002,-28.0,-19.32,1729424884563.0,0.0
-0.646062,-5.254639,-9.238688,-5.11,-18.690001,-13.79,1729424884578.0,0.0
-0.68674,-3.665804,-8.889337,52.709999,-7.7,-0.91,1729424884598.0,0.0
-0.368495,-4.065405,-8.829515,58.59,1.82,2.8,1729424884622.0,0.0
-1.904687,-5.206782,-9.209974,56.07,14.28,15.12,1729424884640.0,0.0
-3.486342,-6.118448,-8.240881,44.869999,18.969999,26.460001,1729424884660.0,0.0
-2.926422,-5.596812,-8.319844,3.57,15.12,14.07,1729424884679.0,0.0
-2.89053,-6.02752,-7.21436,2.52,4.76,13.09,1729424884698.0,0.0
-3.474378,-6.453443,-6.173482,-17.43,8.05,-12.32,1729424884718.0,0.0
-4.048656,-6.204589,-5.87438,-63.77,6.58,-23.870001,1729424884740.0,0.0
-2.70389,-7.302894,-7.606783,-95.620003,-12.11,-27.09,1729424884761.0,0.0
-1.392623,-6.946364,-9.600004,-68.040001,-20.719999,-18.549999,1729424884778.0,0.0
-0.681954,-5.276174,-9.212367,-3.64,-12.6,-10.64,1729424884798.0,0.0
-0.624527,-3.962514,-9.339187,48.16,-1.75,0.84,1729424884818.0,0.0
-0.172283,-4.405186,-9.24826,53.900002,9.24,3.08,1729424884839.0,0.0
-1.552942,-5.388636,-9.456435,54.880001,24.710001,14.63,1729424884861.0,0.0
-3.220739,-6.865008,-8.439486,49.0,34.23,20.58,1729424884879.0,0.0
-3.541377,-6.89133,-8.398808,20.299999,33.880001,0.35,1729424884899.0,0.0
-3.538985,-7.487142,-9.542577,28.280001,27.93,-4.48,1729424884918.0,0.0
-3.656233,-6.927221,-7.858029,51.59,27.790001,-21.07,1729424884938.0,0.0
-4.067799,-5.460421,-6.003592,67.340004,23.379999,-32.41,1729424884960.0,0.0
-4.17069,-4.570292,-4.146761,55.439999,9.45,-34.650002,1729424884978.0,0.0
-3.270989,-4.311867,-4.297509,35.279999,-9.87,-28.559999,1729424884999.0,0.0
-1.564906,-5.438886,-5.575277,35.279999,-31.57,-17.99,1729424885019.0,0.0
-0.930808,-5.158926,-6.037091,41.790001,-45.360001,-13.37,1729424885038.0,0.0
-0.727418,-2.749353,-4.558327,5.46,-46.689999,-9.17,1729424885059.0,0.0
-0.835095,-1.272982,-6.319445,-55.09,-43.189999,3.85,1729424885077.0,0.0
-0.497707,-3.751946,-7.71446,-127.050003,-53.970001,13.79,1729424885098.0,0.0
0.5001,-5.699703,-11.468799,-194.809998,-56.91,12.74,1729424885119.0,0.0
0.547956,-7.281359,-12.373285,-165.550003,-47.110001,20.58,1729424885140.0,0.0
-0.758525,-7.264609,-11.813366,-93.660004,-8.47,21.139999,1729424885159.0,0.0
-2.005185,-7.149754,-11.408978,-19.950001,14.77,29.26,1729424885180.0,0.0
-1.316052,-6.084948,-11.294124,24.43,10.29,31.780001,1729424885198.0,0.0
-0.48335,-5.891129,-11.181661,39.970001,16.59,36.82,1729424885219.0,0.0
-0.569492,-5.855237,-10.157533,25.549999,41.650002,33.32,1729424885238.0,0.0
-1.481157,-6.632904,-9.312866,1.89,60.760002,28.700001,1729424885259.0,0.0
-1.959722,-7.393822,-8.719445,-11.27,63.98,24.639999,1729424885281.0,0.0
-2.289931,-7.860423,-7.688138,-2.66,61.599998,19.25,1729424885298.0,0.0
-2.816352,-8.812766,-6.104091,15.61,59.080002,9.59,1729424885318.0,0.0
-3.031706,-9.442079,-4.785645,19.25,50.400002,-9.66,1729424885339.0,0.0
-3.09392,-6.053841,0.562313,32.34,21.210001,-34.650002,1729424885360.0,0.0
-6.506085,-2.56032,-0.586242,18.48,-3.43,-18.27,1729424885379.0,0.0
-6.142376,-6.726225,-5.123034,-10.29,-42.490002,-48.790001,1729424885398.0,0.0
-3.692125,-9.98525,-9.403792,-57.959999,-71.610001,-70.419998,1729424885419.0,0.0
-2.002793,-6.73101,-11.959327,-36.959999,-84.0,-76.230003,1729424885438.0,0.0
-2.342573,-1.785046,-13.505091,-19.25,-55.23,-61.040001,1729424885460.0,0.0
-3.005385,1.045663,-13.828122,-22.610001,-32.060001,-27.440001,1729424885479.0,0.0
-2.672783,0.995414,-14.455042,-15.190001,0.77,-0.14,1729424885500.0,0.0
-1.574477,-1.148555,-15.065211,56.560001,28.210001,47.32,1729424885517.0,0.0
-0.770489,0.045464,-12.921242,128.309998,56.560001,85.75,1729424885541.0,0.0
-2.505285,2.366502,-9.200402,139.229996,103.18,117.25,1729424885560.0,0.0
-5.187639,-1.871187,-4.788038,60.970001,131.25,118.93,1729424885578.0,0.0
-4.634897,-8.209774,-4.421937,-42.209999,112.419998,92.400002,1729424885600.0,0.0
-3.976871,-12.849458,-0.756132,-35.700001,65.590004,69.370003,1729424885617.0,0.0
-2.68714,-11.519048,-0.689133,-29.049999,18.41,10.85,1729424885638.0,0.0
-1.981257,-9.930215,-0.543171,-10.57,-33.599998,-29.82,1729424885658.0,0.0
-0.957129,-6.659225,-4.534399,0.77,-81.059998,-66.779999,1729424885680.0,0.0
0.344566,-6.128019,-9.157332,-40.18,-149.800003,-107.099998,1729424885700.0,0.0
1.351945,-2.462214,-13.421343,-149.589996,-146.720001,-124.389999,1729424885718.0,0.0
0.153141,-1.12702,-13.203594,-211.889999,-93.309998,-87.57,1729424885739.0,0.0
-2.897708,-3.431308,-14.883357,-141.960007,-19.879999,-33.880001,1729424885762.0,0.0
-5.206782,-3.227918,-18.223738,-4.06,55.02,28.630001,1729424885779.0,0.0
-5.615955,-2.943172,-15.340386,161.839996,68.459999,110.389999,1729424885798.0,0.0
-3.457629,-0.301496,-10.109675,177.660004,63.700001,130.059998,1729424885818.0,0.0
-3.07717,-2.737389,-6.922436,109.129997,94.290001,127.190002,1729424885839.0,0.0
-3.878766,-8.762517,-4.098906,25.76,108.150002,97.580002,1729424885859.0,0.0
-3.26381,-11.112268,-2.40718,-12.95,80.220001,58.170002,1729424885879.0,0.0
-2.555535,-11.935399,-0.052642,16.24,28.98,22.540001,1729424885898.0,0.0
-1.316052,-9.908678,-0.299103,29.049999,-24.01,-35.07,1729424885917.0,0.0
-0.681954,-7.329216,-2.196611,34.439999,-74.900002,-73.43,1729424885945.0,0.0
-0.512064,-6.025128,-6.372087,8.82,-110.389999,-110.110001,1729424885961.0,0.0
-0.394816,-5.335995,-9.982857,-51.240002,-131.320007,-139.089996,1729424885979.0,0.0
-0.567099,-0.976272,-12.382857,-149.100006,-115.43,-144.479996,1729424885999.0,0.0
-4.101298,-0.375673,-15.735202,-199.990005,-58.380001,-91.279999,1729424886018.0,0.0
-5.642276,-2.505285,-19.032511,-36.049999,48.790001,-7.84,1729424886037.0,0.0
-6.18784,-2.354537,-15.957734,149.380005,84.980003,95.480003,1729424886060.0,0.0
-4.132405,0.741775,-11.050055,219.800003,68.25,137.270004,1729424886078.0,0.0
-3.684947,0.428315,-6.108876,161.490005,99.120003,132.509995,1729424886098.0,0.0
-3.735196,-5.623133,-3.806981,33.389999,117.669998,103.32,1729424886188.0,0.0
-3.474378,-11.184053,-1.205983,-31.5,93.029999,72.660004,1729424886189.0,0.0
-2.445465,-12.892529,0.476172,-24.360001,34.02,33.740002,1729424886190.0,0.0
-0.839881,-11.779866,0.277567,8.33,-30.380001,-25.549999,1729424886190.0,0.0
-0.291924,-8.901299,-1.509871,23.940001,-82.599998,-73.709999,1729424886198.0,0.0
-0.564706,-6.005985,-4.685147,7.14,-119.559998,-106.889999,1729424886220.0,0.0
-1.423729,-6.008378,-10.432706,-46.970001,-139.649994,-128.589996,1729424886240.0,0.0
-1.048056,-3.029313,-14.837894,-167.300003,-130.550003,-153.580002,1729424886260.0,0.0
-2.117648,1.938186,-15.567703,-272.51001,-57.68,-104.93,1729424886279.0,0.0
-4.615755,-2.285146,-16.52244,-163.449997,26.25,-26.74,1729424886299.0,0.0
-5.565705,-3.385844,-13.753943,169.050003,93.940002,103.389999,1729424886319.0,0.0
-3.682554,1.351945,-9.745967,280.420013,53.619999,153.509995,1729424886339.0,0.0
-2.773281,1.490728,-5.024928,203.490005,88.129997,139.089996,1729424886360.0,0.0
-3.318845,-5.328816,-2.665605,60.549999,116.270004,113.82,1729424886380.0,0.0
-3.464807,-11.085947,0.074178,-0.42,83.230003,91.699997,1729424886399.0,0.0
-2.062613,-10.767702,1.679761,-7.28,7.84,43.540001,1729424886419.0,0.0
-0.801596,-9.403792,-0.646062,3.71,-64.889999,-13.65,1729424886439.0,0.0
-0.275175,-6.62094,-2.330609,-14.56,-119.209999,-66.080002,1729424886461.0,0.0
-1.172483,-5.350351,-7.056434,-50.959999,-147.419998,-95.620003,1729424886481.0,0.0
-1.155733,-4.333402,-10.234102,-123.830002,-174.509995,-128.169998,1729424886500.0,0.0
-1.995614,-1.404587,-10.930414,-231.279999,-138.529999,-125.370003,1729424886520.0,0.0
-5.266603,-3.522235,-10.10489,-217.210007,-69.860001,-69.440002,1729424886543.0,0.0
-7.188039,-6.879365,-19.774286,-77.769997,-6.58,-22.469999,1729424886561.0,0.0
-6.625726,-4.881358,-15.014962,204.820007,29.190001,63.420002,1729424886580.0,0.0
-4.472186,-1.160519,-10.08814,390.459991,9.1,138.25,1729424886601.0,0.0
-3.512664,-1.485943,-9.21476,253.399994,67.129997,97.790001,1729424886620.0,0.0
-3.804588,-5.962914,-11.779866,146.300003,105.209999,82.18,1729424886641.0,0.0
-3.294917,-8.688338,-8.149954,111.020004,113.82,73.360001,1729424886667.0,0.0
-2.720639,-8.16431,-4.675575,119.629997,115.43,69.090004,1729424886680.0,0.0
-2.871387,-8.965906,-1.048056,149.240005,104.160004,53.830002,1729424886700.0,0.0
-4.019942,-6.987042,7.49432,153.789993,85.330002,27.93,1729424886720.0,0.0
-6.226124,-5.328816,6.336195,115.709999,35.490002,22.469999,1729424886740.0,0.0
-4.122833,-6.874579,-0.619741,31.57,-64.470001,3.22,1729424886764.0,0.0
-1.713261,-7.360322,-2.883351,-54.389999,-105.0,-14.98,1729424886782.0,0.0
-1.057628,-7.039684,-4.893322,-118.090004,-103.110001,-19.18,1729424886801.0,0.0
-1.414158,-9.430114,-9.784252,-137.479996,-111.300003,-20.860001,1729424886820.0,0.0
-2.096112,-11.676974,-13.560125,-132.720001,-107.379997,-37.170002,1729424886840.0,0.0
-3.751946,-7.82453,-10.315458,-132.930008,-42.630001,-39.060001,1729424886865.0,0.0
-9.001799,-3.878766,-9.276974,-85.540001,61.040001,-5.25,1729424886880.0,0.0
-11.700903,-9.75793,-12.729815,48.16,113.330002,25.549999,1729424886902.0,0.0
-7.259824,-10.382458,-13.095919,144.550003,65.940002,38.779999,1729424886921.0,0.0
-1.332802,-7.60439,-9.882358,263.059998,43.259998,36.259998,1729424886940.0,0.0
-2.012364,-4.565506,-1.162912,296.869995,136.430008,28.139999,1729424886962.0,0.0
-5.041678,-0.957129,8.642875,239.330002,161.0,23.799999,1729424886980.0,0.0
-5.469993,0.911665,11.41137,144.619995,63.279999,34.369999,1729424886999.0,0.0
-2.579463,-2.036292,8.669197,40.459999,-70.559998,36.049999,1729424887020.0,0.0
-1.438086,-4.091727,4.962714,-101.57,-127.68,30.1,1729424887041.0,0.0
-2.354537,-6.776474,-1.880759,-210.210007,-153.580002,27.440001,1729424887070.0,0.0
-2.414358,-11.870793,-14.215759,-250.460007,-184.869995,0.49,1729424887081.0,0.0
-2.431108,-11.016556,-16.268801,-254.449997,-170.940002,-32.060001,1729424887099.0,0.0
-8.11167,-7.381857,-18.156738,-228.970001,-5.81,-12.74,1729424887120.0,0.0
-14.500504,-9.968499,-19.570896,-108.639999,134.190002,-5.95,1729424887141.0,0.0
-9.686146,-11.844472,-15.390635,88.970001,118.860001,16.799999,1729424887162.0,0.0
-3.48395,-10.760524,-11.820543,301.980011,15.68,47.110001,1729424887180.0,0.0
-0.882952,-8.293523,-7.283752,363.860016,70.139999,8.89,1729424887202.0,0.0
-2.885744,-3.524628,2.991028,298.899994,168.559998,-25.690001,1729424887220.0,0.0
-7.166504,2.309074,13.785051,215.389999,158.130005,-10.43,1729424887241.0,0.0
-6.106483,3.615555,12.078968,150.639999,-4.83,32.619999,1729424887263.0,0.0
-1.22034,-0.937986,5.233103,-43.049999,-151.270004,35.77,1729424887281.0,0.0
-0.715454,-6.908078,-1.98365,-158.690002,-167.509995,37.73,1729424887299.0,0.0
-1.009771,-13.028918,-13.655839,-199.009995,-167.229996,42.490002,1729424887320.0,0.0
-1.933401,-15.608383,-14.091332,-215.110001,-115.220001,19.460001,1729424887340.0,0.0
-7.046863,-13.014563,-13.505091,-234.779999,51.73,11.13,1729424887362.0,0.0
-13.615161,-12.756138,-15.799807,-134.470001,169.050003,-4.83,1729424887380.0,0.0
-11.617154,-12.985848,-13.409377,69.650002,137.970001,13.65,1729424887399.0,0.0
-5.108676,-11.873186,-8.812766,285.600006,16.1,28.559999,1729424887421.0,0.0
-1.952543,-9.963714,-5.98445,363.860016,31.710001,-4.69,1729424887443.0,0.0
