acc_x,acc_y,acc_z,gyr_x,gyr_y,gyr_z,timestamp,label
-3.787838,-7.788638,-5.577669,7.35,23.59,-9.94,1729418363791.0,0.0
-3.878766,-7.735995,-5.546563,2.17,21.42,-11.34,1729418363791.0,0.0
-3.9338,-7.908278,-5.582455,-2.8,18.620001,-14.35,1729418363792.0,0.0
-3.893122,-8.097312,-5.465207,-4.9,16.24,-15.96,1729418363792.0,0.0
-3.708875,-8.207381,-5.316852,-0.98,14.28,-17.43,1729418363795.0,0.0
-3.56052,-8.092526,-5.271388,1.12,11.62,-19.25,1729418363813.0,0.0
-3.354738,-7.862815,-5.209175,-0.98,9.87,-21.280001,1729418363836.0,0.0
-3.26381,-7.836494,-5.340781,0.49,10.36,-22.610001,1729418363856.0,0.0
-3.029313,-7.874779,-5.520242,5.74,11.97,-26.74,1729418363872.0,0.0
-2.943172,-7.779066,-5.632704,4.76,12.46,-28.84,1729418363893.0,0.0
-2.89053,-7.726424,-5.505885,-2.24,10.01,-32.27,1729418363913.0,0.0
-2.847459,-7.91785,-5.618347,-6.65,9.31,-35.139999,1729418363934.0,0.0
-2.562713,-7.800602,-6.096912,-8.96,8.33,-41.580002,1729418363954.0,0.0
-2.28036,-7.530212,-6.072984,-8.33,3.71,-46.759998,1729418363973.0,0.0
-1.978864,-7.518249,-5.740381,-10.08,-3.01,-51.869999,1729418363992.0,0.0
-1.485943,-7.379465,-5.742774,-9.03,-10.29,-54.389999,1729418364013.0,0.0
-1.318445,-7.111469,-5.546563,-7.77,-11.83,-54.599998,1729418364033.0,0.0
-1.497907,-6.419943,-4.867002,-22.120001,-8.54,-56.630001,1729418364053.0,0.0
-1.916651,-6.848258,-4.505685,-48.580002,-2.73,-60.060001,1729418364073.0,0.0
-2.206182,-7.951349,-5.254639,-68.669998,-1.82,-66.290001,1729418364093.0,0.0
-2.175076,-8.219346,-4.926822,-61.110001,-16.52,-65.449997,1729418364113.0,0.0
-1.902294,-7.68096,-4.285545,-41.23,-35.700001,-64.260002,1729418364134.0,0.0
-1.76351,-7.393822,-4.838287,-35.700001,-40.880001,-65.029999,1729418364153.0,0.0
-1.861616,-6.458229,-5.814559,-47.810001,-35.98,-69.580002,1729418364173.0,0.0
-1.799403,-4.165904,-9.274581,-58.799999,-26.74,-60.970001,1729418364193.0,0.0
-2.677568,-2.801995,-9.255438,0.91,-17.08,-29.120001,1729418364213.0,0.0
-5.084748,-7.219146,-6.218946,117.18,11.97,24.710001,1729418364234.0,0.0
-8.049455,-12.119646,5.883951,107.099998,11.83,4.55,1729418364255.0,0.0
-4.273581,-7.922636,-13.002598,-113.610001,17.99,-13.16,1729418364273.0,0.0
0.433101,-9.980463,-11.705689,61.599998,-20.51,15.05,1729418364293.0,0.0
1.162912,-8.501699,-4.244867,176.470001,52.639999,48.16,1729418364314.0,0.0
1.129412,-4.795217,1.639083,59.43,47.040001,10.22,1729418364336.0,0.0
0.914058,-6.474977,0.571885,-107.940002,6.02,-8.54,1729418364353.0,0.0
-0.023928,-9.035298,-5.180461,-111.510002,-57.82,-13.02,1729418364374.0,0.0
0.055035,-5.599205,-6.199803,-88.620003,-46.830002,-51.869999,1729418364399.0,0.0
-0.705883,-3.785445,-8.484949,-62.720001,-80.779999,-48.509998,1729418364419.0,0.0
-2.301895,-3.625126,-4.4674,-46.900002,-87.220001,-17.290001,1729418364434.0,0.0
-3.34038,-5.680561,-17.778673,-60.200001,1.05,-1.4,1729418364455.0,0.0
-3.5007,-7.398607,-14.407186,-167.020004,28.139999,-4.55,1729418364474.0,0.0
-0.452243,-12.579069,-12.220145,-122.5,-35.279999,20.58,1729418364493.0,0.0
1.87358,-9.659825,-12.445071,2.8,-15.89,33.670002,1729418364513.0,0.0
1.473979,-6.836295,-9.492328,99.330002,69.580002,32.759998,1729418364535.0,0.0
-1.753939,-6.305088,-4.852644,56.630001,117.18,27.65,1729418364555.0,0.0
-3.163311,-11.191232,-5.443672,17.639999,88.410004,0.84,1729418364572.0,0.0
-2.208575,-8.989835,-0.933201,51.310001,-3.15,-6.93,1729418364592.0,0.0
-1.246661,-3.117848,-1.253839,60.41,-48.720001,-31.219999,1729418364615.0,0.0
-0.404387,-2.847459,-7.049256,-36.82,-70.980003,-76.090004,1729418364633.0,0.0
0.672383,-1.433301,-9.221939,-9.87,-128.800003,-48.580002,1729418364653.0,0.0
-0.277567,-1.947758,-5.374279,42.139999,-119.910004,-2.24,1729418364673.0,0.0
-5.264209,-5.678168,-14.002798,-105.489998,11.13,17.99,1729418364694.0,0.0
-7.642675,-9.470792,-18.204596,-280.420013,67.410004,-1.54,1729418364714.0,0.0
-2.682354,-13.383057,-11.784652,-88.760002,-51.799999,58.799999,1729418364736.0,0.0
2.017149,-8.796017,-9.030513,64.260002,-62.299999,61.810001,1729418364755.0,0.0
1.445265,-4.292724,-4.350152,20.51,23.17,33.040001,1729418364772.0,0.0
-1.442872,-7.302894,-7.360322,-43.189999,68.18,21.49,1729418364794.0,0.0
-1.509871,-10.425529,-6.927221,-35.209999,27.790001,-6.02,1729418364812.0,0.0
-0.083749,-7.030113,-4.599005,6.09,-28.280001,-22.68,1729418364833.0,0.0
-0.70349,-2.928815,-2.385644,-11.9,-13.79,-49.91,1729418364857.0,0.0
-2.988636,-3.979264,-3.924229,-40.950001,-6.3,-67.970001,1729418364874.0,0.0
-2.366502,-2.340181,-7.690532,-40.810001,-52.150002,-81.760002,1729418364893.0,0.0
0.22014,0.332602,-8.980263,-42.77,-103.529999,-67.199997,1729418364913.0,0.0
0.162712,-0.167498,-7.623533,-35.91,-80.220001,-24.639999,1729418364936.0,0.0
-5.541777,-4.934,-11.356337,-72.169998,-9.94,11.62,1729418364953.0,0.0
-5.692525,-6.034698,-16.201803,-172.899994,12.6,12.88,1729418364975.0,0.0
-1.892723,-11.480762,-12.332609,-80.220001,-46.900002,27.860001,1729418364992.0,0.0
0.859023,-10.018748,-8.724231,4.9,-42.0,33.740002,1729418365013.0,0.0
-0.550349,-5.678168,-6.666404,48.580002,26.880001,13.93,1729418365035.0,0.0
-3.68734,-5.525027,-9.097511,45.639999,45.5,8.54,1729418365053.0,0.0
-4.259224,-7.255038,-7.295716,54.389999,26.389999,-4.83,1729418365074.0,0.0
-2.533999,-7.264609,-9.286544,31.08,-8.47,-16.59,1729418365093.0,0.0
-1.11027,-5.350351,-7.183254,29.75,-22.049999,-36.119999,1729418365115.0,0.0
-1.39023,-2.959922,-8.183454,40.459999,-7.98,-46.619999,1729418365133.0,0.0
-2.019542,2.519642,-9.449257,3.36,-6.16,-41.650002,1729418365153.0,0.0
-2.072184,0.794417,-9.059227,12.46,-14.14,-26.880001,1729418365172.0,0.0
-2.548356,0.332602,-7.745567,-20.09,-9.1,5.11,1729418365193.0,0.0
-3.89073,-1.057628,-9.602397,-44.099998,6.93,27.58,1729418365214.0,0.0
-5.142176,-4.204189,-11.832507,-78.470001,20.23,53.48,1729418365232.0,0.0
-5.379066,-6.549156,-11.217552,-85.68,8.54,62.790001,1729418365253.0,0.0
-3.811767,-10.683953,-11.751152,-100.449997,7.14,45.150002,1729418365273.0,0.0
-0.421137,-10.348958,-8.848659,-17.43,-14.63,33.810001,1729418365292.0,0.0
-0.76331,-7.71446,-7.877172,62.93,18.690001,13.3,1729418365313.0,0.0
-2.196611,-6.410372,-7.147361,70.769997,27.93,-1.19,1729418365335.0,0.0
-3.141776,-7.915457,-7.472785,50.889999,18.76,-29.190001,1729418365353.0,0.0
-2.634498,-7.448857,-7.925028,22.4,-7.56,-59.5,1729418365372.0,0.0
-1.56012,-7.424929,-7.9011,29.469999,-24.360001,-78.470001,1729418365395.0,0.0
-0.820738,-2.423929,-7.68096,27.09,-19.879999,-85.540001,1729418365412.0,0.0
-0.605384,2.352145,-9.415757,-10.99,-16.379999,-90.93,1729418365432.0,0.0
-0.26321,2.758924,-8.958728,0.7,-21.42,-59.010002,1729418365454.0,0.0
-0.035892,1.569692,-9.092726,10.78,-11.76,-10.78,1729418365474.0,0.0
-2.206182,-1.823331,-7.783852,-29.889999,18.83,22.960001,1729418365493.0,0.0
-4.206582,-2.632105,-11.057234,-48.16,37.380001,51.450001,1729418365513.0,0.0
-5.328816,-5.302495,-11.260624,-44.170002,47.599998,74.690002,1729418365533.0,0.0
-4.893322,-7.534998,-9.95175,-89.879997,37.170002,69.860001,1729418365553.0,0.0
-2.962314,-11.485549,-8.070991,-55.860001,6.93,55.790001,1729418365573.0,0.0
-1.239482,-11.313265,-8.633304,21.84,7.14,48.93,1729418365592.0,0.0
-1.550549,-6.003592,-6.884151,82.879997,23.379999,25.41,1729418365612.0,0.0
-3.421736,-6.711867,-5.510671,61.25,32.549999,-11.83,1729418365636.0,0.0
-3.505485,-7.245467,-8.910872,12.81,11.62,-47.459999,1729418365654.0,0.0
-1.880759,-5.367101,-8.312666,27.51,-32.27,-59.360001,1729418365672.0,0.0
-1.134198,-2.914458,-7.657032,19.18,-33.599998,-72.870003,1729418365692.0,0.0
-0.736989,1.51705,-10.293922,-37.799999,-24.01,-87.43,1729418365712.0,0.0
-0.378066,3.503092,-9.844072,3.85,-26.32,-44.170002,1729418365733.0,0.0
-0.57667,2.411965,-7.965706,5.88,-2.17,0.35,1729418365753.0,0.0
-3.108276,-1.51705,-7.317252,-44.240002,33.040001,30.66,1729418365773.0,0.0
-4.481757,-2.991028,-11.75833,-90.650002,35.349998,54.880001,1729418365792.0,0.0
-4.240082,-6.678369,-10.454242,-84.559998,3.99,68.599998,1729418365814.0,0.0
-3.120241,-12.026326,-12.13161,-93.449997,4.69,58.029999,1729418365833.0,0.0
-0.569492,-11.882757,-7.771888,16.1,-12.67,56.0,1729418365857.0,0.0
0.433101,-7.850852,-7.415358,72.940002,0.35,34.09,1729418365873.0,0.0
-1.363909,-7.908278,-8.614161,77.139999,37.799999,9.1,1729418365892.0,0.0
-2.756532,-6.836295,-7.389036,59.990002,37.73,-16.940001,1729418365913.0,0.0
-2.411965,-7.951349,-6.9009,60.200001,10.92,-37.029999,1729418365935.0,0.0
-0.916451,-4.577469,-8.9683,50.049999,-18.48,-53.200001,1729418365952.0,0.0
-0.394816,-1.751546,-8.760124,5.67,-17.43,-70.910004,1729418365974.0,0.0
0.332602,1.337588,-10.516455,-13.09,-15.12,-66.080002,1729418365993.0,0.0
0.344566,2.172683,-7.113862,26.040001,-22.82,-26.32,1729418366013.0,0.0
-1.471586,1.722832,-5.288138,-14.42,2.73,10.85,1729418366032.0,0.0
-4.716253,-1.787439,-13.624733,-119.770004,44.099998,28.91,1729418366055.0,0.0
-7.168896,-8.001599,-10.9352,-107.520004,25.34,50.400002,1729418366071.0,0.0
-3.87398,-8.891729,-14.634504,-153.089996,8.68,43.82,1729418366091.0,0.0
1.004985,-11.631511,-9.446864,-24.43,-49.07,53.200001,1729418366114.0,0.0
2.481357,-9.430114,-7.578069,62.439999,-7.35,41.790001,1729418366133.0,0.0
-0.413958,-6.084948,-7.446464,93.029999,39.130001,25.27,1729418366153.0,0.0
-3.084348,-5.62074,-6.793223,99.050003,58.170002,8.4,1729418366171.0,0.0
-3.675375,-6.695118,-6.556334,50.959999,25.059999,-18.969999,1729418366192.0,0.0
-1.591227,-7.903493,-8.032705,35.91,-22.889999,-41.93,1729418366213.0,0.0
-0.052642,-3.893122,-8.597411,37.240002,-42.209999,-60.48,1729418366234.0,0.0
-0.445065,-0.708275,-8.25763,1.82,-24.15,-81.900002,1729418366255.0,0.0
-0.624527,3.177669,-9.552148,-10.01,-16.66,-77.699997,1729418366271.0,0.0
-1.103091,2.311467,-9.037691,19.460001,-19.18,-31.219999,1729418366291.0,0.0
-2.866602,-0.303888,-11.241481,-75.040001,-2.31,25.34,1729418366311.0,0.0
-4.63729,-6.946364,-11.332408,-55.439999,22.75,61.25,1729418366332.0,0.0
-5.20439,-8.082954,-10.564312,-88.269997,30.52,65.940002,1729418366353.0,0.0
-2.148755,-11.782259,-9.47797,-53.27,-10.64,56.07,1729418366371.0,0.0
1.730011,-7.829315,-8.429914,34.23,-33.25,54.740002,1729418366393.0,0.0
1.993221,-6.163911,-6.683154,66.989998,1.75,39.689999,1729418366414.0,0.0
-1.674976,-8.116454,-7.881958,74.690002,40.389999,34.93,1729418366433.0,0.0
-3.342773,-5.144568,-6.819544,66.849998,43.400002,3.29,1729418366452.0,0.0
-3.448057,-7.080362,-9.099905,39.060001,9.73,-17.710001,1729418366475.0,0.0
-1.423729,-6.477371,-7.640282,38.360001,-35.139999,-39.41,1729418366493.0,0.0
-0.131605,-2.859423,-8.463413,22.469999,-35.84,-57.82,1729418366512.0,0.0
-0.646062,-0.981057,-7.982457,-12.95,-26.110001,-76.93,1729418366534.0,0.0
-0.502493,1.787439,-9.348758,-18.9,-17.639999,-65.590004,1729418366552.0,0.0
0.435494,2.804388,-9.966106,-1.33,-20.860001,-29.120001,1729418366571.0,0.0
-0.756132,0.337388,-8.896514,-26.389999,4.2,16.309999,1729418366593.0,0.0
-4.09412,-2.885744,-7.965706,-72.660004,53.619999,47.950001,1729418366612.0,0.0
-5.517848,-4.07737,-13.457234,-76.160004,38.360001,61.459999,1729418366636.0,0.0
-2.084148,-10.724631,-9.844072,-81.340004,-21.84,58.380001,1729418366655.0,0.0
1.143769,-11.909079,-8.355737,-14.0,-19.879999,57.260002,1729418366672.0,0.0
0.579063,-10.444671,-7.834101,54.18,16.309999,38.360001,1729418366692.0,0.0
-1.691726,-7.24786,-5.548956,98.0,33.110001,19.389999,1729418366713.0,0.0
-3.658626,-6.496514,-7.032506,114.800003,37.52,-6.72,1729418366732.0,0.0
-4.625326,-4.859823,-6.355337,49.279999,13.23,-39.970001,1729418366752.0,0.0
-2.258825,-7.408179,-9.233903,15.05,-34.23,-65.870003,1729418366772.0,0.0
0.184247,-3.211168,-9.377472,29.610001,-64.470001,-67.199997,1729418366792.0,0.0
1.115055,1.78026,-9.018548,10.64,-50.330002,-76.090004,1729418366811.0,0.0
0.344566,5.67099,-10.001998,-1.33,-14.91,-49.279999,1729418366832.0,0.0
-0.729811,3.081956,-6.704689,2.31,7.98,-4.62,1729418366855.0,0.0
-3.012564,-3.136991,-9.741181,-73.709999,35.139999,35.139999,1729418366872.0,0.0
-5.221139,-6.295516,-9.918249,-71.400002,38.43,66.639999,1729418366891.0,0.0
-4.752146,-6.151947,-10.296316,-81.690002,13.3,71.470001,1729418366911.0,0.0
-2.35693,-12.145968,-10.573883,-52.220001,-14.63,68.389999,1729418366933.0,0.0
0.792024,-9.114261,-8.437093,36.68,-27.02,71.120003,1729418366952.0,0.0
-1.70369,-8.877372,-8.178668,75.389999,9.87,41.650002,1729418366972.0,0.0
-3.337988,-7.611568,-7.099504,81.690002,42.700001,6.09,1729418366992.0,0.0
-3.196811,-7.767102,-8.133204,72.379997,14.0,-23.450001,1729418367012.0,0.0
-1.043271,-4.185047,-8.391629,46.48,-36.330002,-52.990002,1729418367032.0,0.0
1.107877,0.954736,-9.899107,4.62,-41.509998,-58.66,1729418367052.0,0.0
1.51705,0.370888,-8.688338,26.74,-15.54,-43.400002,1729418367071.0,0.0
1.167697,2.218147,-7.408179,11.48,12.53,-8.05,1729418367093.0,0.0
0.435494,3.517449,-6.71426,35.139999,13.09,41.650002,1729418367111.0,0.0
-2.974278,3.101098,-13.663017,-69.790001,65.590004,79.940002,1729418367133.0,0.0
-9.542577,-7.542177,-10.576276,-120.260002,81.760002,113.540001,1729418367152.0,0.0
-8.666803,-13.46202,-13.718053,-189.559998,39.48,82.599998,1729418367171.0,0.0
-1.548156,-15.979269,-8.465806,-16.73,-79.870003,78.959999,1729418367191.0,0.0
2.024328,-9.193225,-7.513463,83.720001,-60.34,49.139999,1729418367212.0,0.0
-2.189433,-5.864808,-7.080362,118.720001,38.290001,7.77,1729418367232.0,0.0
-6.096912,-4.869394,-8.427521,65.169998,85.540001,-41.720001,1729418367253.0,0.0
-5.034499,-7.41775,-5.977271,20.58,2.1,-63.700001,1729418367271.0,0.0
-0.758525,-4.924429,-8.501699,20.370001,-69.370003,-52.779999,1729418367291.0,0.0
2.055435,0.914058,-9.925428,-15.190001,-53.060001,-48.09,1729418367311.0,0.0
1.663012,0.909273,-7.367501,-14.28,-21.559999,-54.670002,1729418367332.0,0.0
1.177269,0.133998,-7.489535,-65.449997,-20.58,-47.950001,1729418367353.0,0.0
-0.385244,0.713061,-10.717452,-60.619999,-0.84,5.88,1729418367371.0,0.0
-4.405186,-5.213961,-14.069797,-83.580002,52.360001,56.91,1729418367390.0,0.0
-9.257831,-9.387043,-13.349558,-118.090004,76.300003,63.209999,1729418367411.0,0.0
-7.116255,-17.166111,-9.193225,-38.5,28.630001,57.330002,1729418367432.0,0.0
-0.799203,-10.293922,-8.714661,54.950001,-31.5,55.439999,1729418367451.0,0.0
0.662812,-4.292724,-8.140383,103.110001,-9.73,17.639999,1729418367471.0,0.0
-3.096312,-5.785845,-6.936793,96.879997,62.93,-2.66,1729418367491.0,0.0
-4.902894,-6.611369,-6.853044,72.870003,55.860001,-39.830002,1729418367512.0,0.0
-3.050849,-5.345565,-5.651847,67.550003,-14.98,-51.869999,1729418367532.0,0.0
-0.078963,-2.742175,-7.549356,42.560001,-75.879997,-67.970001,1729418367558.0,0.0
1.335195,-0.150748,-9.552148,-2.87,-65.940002,-75.669998,1729418367573.0,0.0
0.531207,0.409173,-7.439285,16.379999,-19.389999,-51.59,1729418367591.0,0.0
0.392423,1.98365,-5.300103,-11.41,-37.52,-35.77,1729418367614.0,0.0
-0.172283,1.148555,-12.387643,-111.300003,-10.64,-2.52,1729418367632.0,0.0
-4.895715,-7.56132,-13.397413,-138.600006,32.48,32.48,1729418367652.0,0.0
-7.015756,-9.949356,-15.737594,-178.919998,63.700001,14.21,1729418367673.0,0.0
-4.371687,-14.13919,-8.188239,14.84,-9.38,35.349998,1729418367692.0,0.0
0.002393,-6.831509,-8.173882,90.790001,-43.330002,44.170002,1729418367712.0,0.0
0.095713,-2.730211,-7.386643,100.029999,-12.88,17.99,1729418367735.0,0.0
-3.538985,-4.309474,-7.472785,65.519997,64.75,9.8,1729418367753.0,0.0
-5.551349,-7.290931,-8.281559,35.07,66.290001,-21.700001,1729418367773.0,0.0
-3.661019,-6.577869,-7.683353,32.48,-0.77,-27.16,1729418367793.0,0.0
-0.545564,-4.254438,-6.345766,32.900002,-59.220001,-38.709999,1729418367815.0,0.0
1.514657,-4.666004,-7.956135,-10.78,-63.490002,-59.779999,1729418367834.0,0.0
1.540978,-5.347959,-7.709675,-30.73,-39.759998,-65.519997,1729418367857.0,0.0
0.770489,-4.244867,-8.513663,-9.17,-15.96,-63.84,1729418367873.0,0.0
-0.368495,-3.141776,-8.003991,10.99,-12.18,-45.990002,1729418367895.0,0.0
-1.182054,-1.887937,-7.779066,-1.33,-23.73,-37.73,1729418367915.0,0.0
-1.67019,-2.615355,-10.186246,-9.45,-22.889999,-14.35,1729418367935.0,0.0
-1.629512,-2.998207,-11.028521,-7.91,-7.21,-7.42,1729418367953.0,0.0
-1.689333,-3.328416,-11.050055,-2.94,-0.84,14.98,1729418367972.0,0.0
-1.435694,-3.242275,-10.607382,15.54,10.64,26.74,1729418367993.0,0.0
-1.28016,-3.239882,-10.504492,27.860001,23.73,38.360001,1729418368013.0,0.0
-1.28016,-5.264209,-7.491928,51.73,15.54,40.880001,1729418368037.0,0.0
-1.29691,-4.881358,-6.049056,73.080002,1.4,35.700001,1729418368055.0,0.0
-1.78026,-3.120241,-4.888536,9.59,-12.04,27.440001,1729418368076.0,0.0
-1.90708,-6.403193,-7.60439,-49.700001,-12.67,9.17,1729418368094.0,0.0
-2.385644,-9.600004,-9.750752,-53.549999,-29.26,2.1,1729418368116.0,0.0
-3.182454,-9.803394,-7.178468,-59.57,-35.560001,-15.05,1729418368135.0,0.0
-4.283153,-7.57089,-6.309873,-66.290001,-20.370001,-24.43,1729418368155.0,0.0
-4.158726,-6.608976,-9.571291,-33.32,-3.64,-21.42,1729418368174.0,0.0
-3.677768,-4.529613,-8.506484,-11.48,-10.43,-13.02,1729418368193.0,0.0
-3.823731,-7.015756,-7.700103,-44.310001,-13.51,-25.200001,1729418368215.0,0.0
-3.436093,-8.688338,-8.583055,-17.360001,-21.07,-26.950001,1729418368235.0,0.0
-3.268596,-4.106083,-7.661818,37.240002,-21.700001,-26.389999,1729418368255.0,0.0
-3.754339,-1.246661,-9.458827,69.160004,5.04,-21.0,1729418368277.0,0.0
-3.759124,-1.057628,-9.619147,38.290001,-7.91,-17.290001,1729418368293.0,0.0
-2.902494,-2.720639,-10.449455,5.74,-21.07,-2.59,1729418368314.0,0.0
-1.619941,-3.912265,-10.731809,18.9,-28.07,4.97,1729418368335.0,0.0
-0.744168,-3.242275,-10.430314,30.309999,-14.28,8.82,1729418368356.0,0.0
-0.342174,-1.847259,-10.614561,35.630001,9.8,14.0,1729418368375.0,0.0
-0.160319,-2.053042,-9.781858,85.260002,10.85,27.440001,1729418368395.0,0.0
-0.332602,-1.749153,-7.9681,51.59,21.139999,31.710001,1729418368414.0,0.0
-0.806381,-5.374279,-7.393822,-14.98,24.85,31.08,1729418368434.0,0.0
-1.45005,-9.504292,-6.096912,-57.400002,2.03,12.6,1729418368454.0,0.0
-2.120041,-11.05484,-5.84088,-76.019997,7.0,4.76,1729418368475.0,0.0
-4.587041,-13.983655,-3.328416,-82.040001,-2.73,-30.24,1729418368495.0,0.0
-4.850252,-12.935599,-11.023734,-64.400002,20.93,-45.290001,1729418368516.0,0.0
-3.517449,-6.407979,-7.566105,44.170002,-22.26,-42.07,1729418368536.0,0.0
-4.797609,-2.347359,-5.651847,50.189999,3.92,-29.33,1729418368554.0,0.0
-5.307281,-5.249853,-8.650054,1.12,13.51,-31.43,1729418368574.0,0.0
-4.163511,-4.321437,-11.38505,33.389999,-16.940001,-15.05,1729418368593.0,0.0
-2.629712,-1.471586,-11.408978,88.269997,-25.549999,7.07,1729418368613.0,0.0
-1.009771,-0.215354,-10.526026,93.730003,-17.15,12.95,1729418368634.0,0.0
-0.177069,-0.859023,-10.186246,63.84,-3.36,19.879999,1729418368654.0,0.0
-0.052642,-1.892723,-10.372886,5.11,21.91,25.41,1729418368675.0,0.0
0.004786,-3.37388,-9.932607,11.06,22.610001,34.650002,1729418368694.0,0.0
-0.11007,-4.541577,-8.587841,20.93,30.1,42.209999,1729418368776.0,0.0
-1.155733,-6.099305,-6.494121,-33.18,39.830002,38.360001,1729418368776.0,0.0
-2.167897,-10.009177,-4.283153,-70.910004,20.51,21.700001,1729418368777.0,0.0
-4.283153,-10.633704,-3.677768,-136.919998,13.65,3.99,1729418368777.0,0.0
-4.622933,-12.260822,-6.508478,-179.899994,0.77,-47.389999,1729418368808.0,0.0
-3.536592,-10.327423,-8.353344,-90.650002,-29.469999,-38.849998,1729418368819.0,0.0
-3.168097,-6.367301,-7.305287,39.27,-22.33,-42.0,1729418368833.0,0.0
-5.307281,-4.622933,-7.250252,74.550003,24.710001,-35.700001,1729418368856.0,0.0
-4.821537,-2.486143,-10.595419,66.080002,12.67,-29.190001,1729418368873.0,0.0
-2.199004,-1.339981,-11.006985,30.799999,-41.369999,-3.57,1729418368893.0,0.0
0.066999,-1.840081,-11.3683,51.170002,-37.799999,9.38,1729418368913.0,0.0
0.705883,-1.945365,-11.583653,88.550003,-4.97,24.639999,1729418368934.0,0.0
0.179462,-0.940379,-10.908878,50.68,50.259998,33.18,1729418368953.0,0.0
-0.521635,-3.163311,-10.332209,43.330002,47.040001,41.93,1729418368973.0,0.0
-0.701097,-6.202196,-6.491727,38.779999,38.5,42.420002,1729418368993.0,0.0
-2.344966,-9.183653,-2.426322,24.639999,27.93,40.32,1729418369014.0,0.0
-3.534199,-10.561919,-2.510071,-38.849998,47.32,17.57,1729418369035.0,0.0
-4.503292,-10.51167,-7.039684,-141.470001,29.469999,-25.9,1729418369054.0,0.0
-5.091926,-11.222338,-7.161718,-108.080002,-1.47,-27.790001,1729418369073.0,0.0
-3.596412,-9.729217,-7.228717,-16.309999,-22.469999,-47.389999,1729418369093.0,0.0
-3.510271,-6.013163,-7.944171,45.849998,-8.61,-42.139999,1729418369114.0,0.0
-4.364508,-3.290131,-6.905686,60.970001,5.32,-38.360001,1729418369134.0,0.0
-4.15394,-1.471586,-8.319844,26.950001,-10.71,-38.150002,1729418369155.0,0.0
-2.510071,-2.557927,-10.315458,11.06,-35.84,-24.85,1729418369173.0,0.0
-0.722632,-3.067599,-11.222338,23.52,-46.830002,-10.78,1729418369193.0,0.0
0.349352,-1.892723,-10.633704,38.290001,-26.460001,-0.28,1729418369213.0,0.0
0.057428,-2.809174,-11.193624,44.029999,33.810001,20.790001,1729418369234.0,0.0
-0.480957,-3.208775,-9.585647,50.610001,47.880001,35.209999,1729418369254.0,0.0
-0.988236,-4.905287,-8.350951,47.810001,55.580002,49.07,1729418369273.0,0.0
-1.998007,-7.633104,-5.103891,24.08,49.77,47.950001,1729418369293.0,0.0
-2.328217,-7.661818,-5.213961,-21.84,46.970001,40.529999,1729418369313.0,0.0
-3.522235,-9.047262,-4.07737,-89.809998,28.77,9.38,1729418369335.0,0.0
-4.828716,-11.624333,-6.575477,-131.880005,26.18,-11.13,1729418369354.0,0.0
-5.017749,-12.705888,-6.953543,-90.019997,-1.47,-39.48,1729418369373.0,0.0
-4.041477,-9.631111,-6.642475,16.66,-25.969999,-47.389999,1729418369394.0,0.0
-3.469593,-4.977071,-7.238289,75.459999,-23.450001,-56.07,1729418369414.0,0.0
-3.696911,-0.957129,-8.405986,42.700001,-14.28,-57.68,1729418369470.0,0.0
-3.07717,-2.100898,-9.848858,-11.2,-35.91,-46.549999,1729418369470.0,0.0
-0.997807,-2.959922,-11.272588,-16.52,-62.93,-28.630001,1729418369527.0,0.0
0.59342,-2.562713,-11.399406,72.169998,-49.490002,5.04,1729418369527.0,0.0
1.476372,-0.18664,-10.387242,72.800003,-14.7,12.39,1729418369527.0,0.0
1.079163,-1.471586,-10.054641,20.440001,23.24,28.280001,1729418369559.0,0.0
-0.114855,-6.233303,-7.587641,-17.08,31.15,38.779999,1729418369562.0,0.0
-1.227518,-8.331808,-5.266603,-41.93,28.210001,34.23,1729418369581.0,0.0
-2.237289,-10.688738,-6.608976,-54.25,32.970001,23.799999,1729418369600.0,0.0
-3.4672,-11.923435,-2.914458,-88.690002,29.540001,-12.04,1729418369614.0,0.0
-4.563113,-11.272588,-6.570691,-118.860001,19.18,-33.25,1729418369642.0,0.0
-4.579862,-9.824929,-7.836494,-61.670002,-1.89,-39.689999,1729418369653.0,0.0
-4.003192,-6.209375,-7.424929,1.19,-19.950001,-47.389999,1729418369672.0,0.0
-4.0008,-3.940979,-7.089933,34.580002,-20.370001,-41.299999,1729418369692.0,0.0
-4.441079,-2.378466,-7.257431,34.580002,-16.309999,-33.599998,1729418369713.0,0.0
-3.699304,-2.598605,-9.856036,42.349998,-21.139999,-13.72,1729418369732.0,0.0
-1.696511,-2.11047,-10.877771,65.099998,-40.810001,8.75,1729418369752.0,0.0
0.275175,-1.880759,-11.023734,90.650002,-45.360001,23.73,1729418369772.0,0.0
1.430908,-1.18684,-10.30828,37.66,-24.5,21.07,1729418369792.0,0.0
0.753739,-4.206582,-10.557133,8.75,10.71,32.060001,1729418369812.0,0.0
-0.117248,-5.465207,-9.346365,-11.97,37.869999,31.219999,1729418369833.0,0.0
-1.761117,-9.942179,-6.582655,-1.96,46.619999,36.889999,1729418369855.0,0.0
-2.079363,-9.906286,-5.252246,3.64,23.799999,16.1,1729418369872.0,0.0
-3.385844,-9.561719,-3.443272,-27.790001,26.18,-7.14,1729418369893.0,0.0
-4.838287,-10.336994,-4.584648,-66.989998,17.99,-37.380001,1729418369912.0,0.0
-4.565506,-9.805787,-8.190632,-51.450001,-1.75,-48.650002,1729418369932.0,0.0
-2.995814,-5.733203,-8.202596,13.79,-36.049999,-33.040001,1729418369953.0,0.0
-3.397808,-2.261217,-6.759724,63.209999,-25.76,-14.7,1729418369972.0,0.0
-3.479164,-1.734797,-8.65484,69.510002,4.06,-11.27,1729418369992.0,0.0
-3.096312,-2.251646,-9.686146,31.01,-14.28,4.41,1729418370014.0,0.0
-1.12702,-3.292524,-10.815558,23.52,-37.099998,15.96,1729418370034.0,0.0
0.87338,-3.337988,-10.803595,16.030001,-48.09,14.07,1729418370054.0,0.0
1.438086,-3.816552,-10.645668,2.38,-12.18,16.309999,1729418370074.0,0.0
0.562313,-5.455636,-10.344172,28.210001,34.439999,22.75,1729418370093.0,0.0
-1.210768,-5.881558,-8.008778,28.49,64.050003,26.18,1729418370113.0,0.0
-2.706282,-9.047262,-4.254438,8.05,63.0,28.98,1729418370135.0,0.0
-4.019942,-12.320643,0.87338,-46.759998,7.0,-4.13,1729418370157.0,0.0
-4.331009,-11.265409,-5.644669,-128.240005,9.8,-45.849998,1729418370175.0,0.0
-4.168297,-10.320245,-9.298509,-66.779999,-7.42,-36.610001,1729418370194.0,0.0
-2.880959,-5.627919,-8.312666,23.450001,-31.43,-32.41,1729418370214.0,0.0
-3.108276,-2.837888,-7.386643,56.349998,-6.23,-20.51,1729418370236.0,0.0
-3.553342,-1.938186,-9.298509,49.349998,8.61,-11.41,1729418370256.0,0.0
-3.06042,-2.277967,-10.480563,48.860001,0.98,10.85,1729418370274.0,0.0
-1.402194,-3.022135,-10.789237,60.900002,-20.299999,28.559999,1729418370294.0,0.0
0.258425,-3.397808,-9.793823,46.759998,-25.620001,30.17,1729418370319.0,0.0
0.782453,-3.895515,-9.765109,17.5,0.63,28.210001,1729418370335.0,0.0
0.311067,-6.001199,-9.446864,34.439999,25.690001,29.960001,1729418370355.0,0.0
-0.713061,-6.06102,-7.123433,12.81,37.59,18.9,1729418370375.0,0.0
-1.978864,-8.02792,-5.783452,-11.83,45.43,15.05,1729418370394.0,0.0
-2.845066,-10.159925,-3.464807,-53.619999,21.42,-7.35,1729418370415.0,0.0
-4.175476,-11.990433,-2.464607,-86.379997,0.84,-29.540001,1729418370435.0,0.0
-4.496114,-9.360723,-5.869594,-131.529999,1.4,-52.150002,1729418370455.0,0.0
-3.347559,-8.018349,-9.561719,-81.830002,-24.85,-47.880001,1729418370476.0,0.0
-3.555735,-4.945964,-6.453443,41.16,-25.48,-22.960001,1729418370496.0,0.0
-3.974478,-2.524428,-7.915457,58.310001,3.85,-19.74,1729418370514.0,0.0
-3.682554,-2.579463,-9.497113,51.450001,-10.85,-0.84,1729418370535.0,0.0
-1.990828,-2.754139,-9.925428,35.490002,-40.670002,18.48,1729418370555.0,0.0
-0.253639,-3.388237,-10.083356,29.4,-46.27,28.700001,1729418370574.0,0.0
0.655633,-4.362115,-10.260423,22.26,-16.309999,30.52,1729418370594.0,0.0
0.859023,-4.366901,-9.956534,30.24,13.37,29.75,1729418370614.0,0.0
0.138784,-4.917251,-9.60479,31.92,39.34,29.68,1729418370635.0,0.0
-1.138984,-6.38405,-7.68096,-5.53,48.02,23.1,1729418370655.0,0.0
-2.325824,-8.463413,-6.123233,-33.599998,42.490002,18.129999,1729418370674.0,0.0
-3.412165,-11.107484,-1.95015,-43.189999,17.99,-2.8,1729418370695.0,0.0
-4.579862,-9.848858,-3.050849,-125.090004,14.84,-40.599998,1729418370714.0,0.0
-4.61097,-10.080962,-8.729016,-144.270004,-9.03,-56.490002,1729418370737.0,0.0
-4.173083,-7.690532,-6.920043,-78.120003,-47.459999,-50.889999,1729418370755.0,0.0
-4.110869,-5.338387,-7.238289,4.9,-23.030001,-48.23,1729418370774.0,0.0
-4.529613,-3.924229,-8.547162,41.02,-7.63,-36.75,1729418370794.0,0.0
-3.012564,-1.502693,-10.377672,35.560001,-21.98,-2.24,1729418370815.0,0.0
-0.847059,-2.007578,-10.660025,25.690001,-48.02,7.91,1729418370834.0,0.0
0.653241,-3.053242,-10.956735,41.23,-38.080002,17.08,1729418370857.0,0.0
1.646262,-2.801995,-10.253245,24.360001,-6.86,16.24,1729418370874.0,0.0
0.949951,-4.455436,-10.657632,38.779999,17.99,21.280001,1729418370894.0,0.0
-0.117248,-4.04387,-8.812766,13.02,49.91,26.25,1729418370914.0,0.0
-1.923829,-7.470392,-6.79083,2.03,55.16,37.240002,1729418370935.0,0.0
-2.830709,-9.719646,-4.402793,-26.880001,33.25,17.5,1729418370954.0,0.0
-4.488935,-11.136196,-2.988636,-75.18,21.629999,-8.47,1729418370974.0,0.0
-5.290531,-10.861022,-5.862415,-131.669998,17.780001,-41.509998,1729418370994.0,0.0
-4.192225,-10.298709,-9.279366,-60.41,-21.49,-45.43,1729418371014.0,0.0
-3.314059,-5.192425,-6.814759,23.940001,-30.17,-42.279999,1729418371035.0,0.0
-4.405186,-2.811567,-7.403394,59.220001,-4.2,-33.18,1729418371055.0,0.0
-4.235296,-2.167897,-9.578469,33.459999,-4.48,-25.41,1729418371074.0,0.0
-2.474179,-2.282753,-10.279566,19.18,-44.52,-4.83,1729418371094.0,0.0
-0.48335,-2.344966,-11.49512,29.26,-54.18,8.05,1729418371114.0,0.0
0.892523,-2.459821,-11.009377,48.580002,-27.23,12.6,1729418371136.0,0.0
0.684347,-2.959922,-9.96132,40.32,30.309999,20.790001,1729418371155.0,0.0
-0.634098,-5.249853,-9.135797,42.139999,45.57,29.540001,1729418371174.0,0.0
-1.87358,-6.07777,-6.89133,-2.03,48.93,25.41,1729418371195.0,0.0
-2.859423,-8.446664,-4.850252,-36.470001,34.02,20.93,1729418371214.0,0.0
-4.058227,-11.023734,-2.37368,-72.730003,10.43,-14.49,1729418371236.0,0.0
-4.618148,-11.576476,-6.943972,-111.93,22.120001,-32.900002,1729418371255.0,0.0
-3.744767,-9.798609,-9.422935,-48.580002,-13.72,-36.400002,1729418371275.0,0.0
-3.18724,-5.876772,-6.786045,28.35,-16.799999,-30.73,1729418371294.0,0.0
-4.244867,-2.433501,-6.635297,50.330002,6.86,-23.17,1729418371314.0,0.0
-4.342973,-2.366502,-9.066404,55.790001,5.88,-15.68,1729418371338.0,0.0
-2.787638,-2.304288,-9.753145,38.779999,-35.77,0.21,1729418371355.0,0.0
-0.708275,-2.397608,-9.906286,25.549999,-54.110001,10.01,1729418371376.0,0.0
0.835095,-2.689533,-10.609775,16.1,-40.529999,7.98,1729418371394.0,0.0
0.961915,-2.837888,-10.796415,-1.4,0.49,10.64,1729418371414.0,0.0
0.043071,-4.180261,-9.88475,23.73,26.74,20.09,1729418371435.0,0.0
-0.978664,-4.532006,-8.449057,12.81,44.869999,26.32,1729418371455.0,0.0
-2.711068,-7.463214,-6.941578,-10.08,49.560001,33.880001,1729418371473.0,0.0
-2.98385,-8.898908,-5.032106,-38.43,17.85,15.82,1729418371493.0,0.0
-4.290331,-9.702895,-2.885744,-94.989998,15.96,-3.5,1729418371515.0,0.0
-4.728218,-11.631511,-7.520642,-118.300003,9.1,-34.790001,1729418371534.0,0.0
-4.522435,-9.923036,-7.795816,-61.599998,-21.139999,-35.91,1729418371553.0,0.0
-3.914658,-6.809973,-6.319445,37.170002,-27.58,-41.509998,1729418371573.0,0.0
-3.739982,-3.862016,-8.183454,51.52,-12.32,-41.439999,1729418371593.0,0.0
-3.354738,-2.428715,-8.740981,39.48,-30.52,-27.65,1729418371613.0,0.0
-1.615155,-2.782853,-9.628718,4.41,-53.689999,-23.940001,1729418371643.0,0.0
-0.37328,-4.469792,-10.552348,8.26,-56.91,-14.91,1729418371654.0,0.0
0.583849,-2.95035,-11.145767,38.779999,-30.309999,-18.690001,1729418371675.0,0.0
0.629312,-0.68674,-12.198609,21.700001,-0.07,-13.51,1729418371694.0,0.0
0.22014,-1.270589,-11.913863,7.35,27.23,0.35,1729418371713.0,0.0
-0.957129,-4.319045,-10.353743,2.52,47.670002,29.540001,1729418371735.0,0.0
-1.964507,-8.032705,-7.716853,42.560001,59.639999,48.02,1729418371754.0,0.0
-3.452843,-7.922636,-3.663411,57.260002,52.709999,41.93,1729418371773.0,0.0
-5.735595,-5.855237,-3.07717,20.860001,59.43,36.400002,1729418371793.0,0.0
-5.608776,-9.779467,-7.300502,-119.489998,18.549999,-4.27,1729418371814.0,0.0
-3.802195,-12.466606,-7.123433,-42.420002,-39.200001,-1.47,1729418371835.0,0.0
-2.701497,-7.075576,-5.749953,42.07,-30.799999,-7.07,1729418371857.0,0.0
-3.414558,-2.825923,-6.874579,79.590004,-1.75,-16.799999,1729418371875.0,0.0
-3.601198,-2.665605,-8.037491,60.200001,-10.5,-14.63,1729418371895.0,0.0
-1.854438,-2.63689,-9.24826,1.4,-60.830002,-12.04,1729418371917.0,0.0
-0.007178,-3.038885,-10.906486,-18.969999,-74.830002,-8.96,1729418371936.0,0.0
1.177269,-1.284946,-12.825529,-15.54,-50.75,-12.25,1729418371955.0,0.0
0.490529,-1.081556,-12.303895,1.68,3.71,7.35,1729418371974.0,0.0
-1.713261,-4.070191,-11.688939,-0.14,65.379997,45.150002,1729418371995.0,0.0
-3.146562,-5.979663,-9.702895,3.01,74.830002,72.660004,1729418372016.0,0.0
-3.699304,-8.755339,-2.199004,-12.74,26.530001,51.380001,1729418372037.0,0.0
-4.618148,-11.205588,-2.85703,-111.580002,27.370001,18.76,1729418372057.0,0.0
-4.500899,-13.048061,-6.295516,-130.550003,-3.78,-20.58,1729418372077.0,0.0
-3.416951,-9.518648,-7.075576,42.209999,-24.15,-40.810001,1729418372097.0,0.0
-4.029513,-4.297509,-7.613962,76.650002,0.28,-39.34,1729418372117.0,0.0
-4.328616,-1.4668,-6.745367,34.93,-4.83,-33.32,1729418372138.0,0.0
-2.921637,-3.596412,-9.281759,-16.870001,-60.830002,-33.389999,1729418372158.0,0.0
-0.416351,-3.199204,-11.712867,-21.84,-83.650002,-31.290001,1729418372177.0,0.0
0.914058,-0.9667,-12.409179,39.41,-55.16,-20.02,1729418372196.0,0.0
0.691526,1.552942,-12.689137,35.07,6.58,-8.33,1729418372217.0,0.0
-1.155733,-1.713261,-11.736795,37.59,52.57,24.92,1729418372238.0,0.0
-3.328416,-4.431508,-9.195618,21.42,79.590004,63.560001,1729418372256.0,0.0
-3.902694,-5.962914,-4.941179,6.86,61.880001,72.940002,1729418372277.0,0.0
-3.39063,-8.877372,-5.393422,-56.98,19.950001,38.990002,1729418372297.0,0.0
-4.400401,-12.330215,-4.9675,-102.199997,16.450001,19.110001,1729418372317.0,0.0
-4.910072,-13.574483,-5.398208,-72.800003,13.440001,-16.940001,1729418372336.0,0.0
-4.211368,-10.487741,-6.513263,21.139999,-0.91,-28.35,1729418372361.0,0.0
-3.739982,-4.673182,-7.01097,63.420002,-9.17,-35.700001,1729418372376.0,0.0
-3.694518,-2.40718,-7.666604,52.849998,-10.08,-28.98,1729418372396.0,0.0
-2.251646,-3.311667,-9.059227,18.41,-37.099998,-32.34,1729418372416.0,0.0
-0.861416,-2.876173,-11.602797,7.77,-65.169998,-28.0,1729418372436.0,0.0
0.583849,0.028714,-12.461821,21.42,-44.869999,-33.25,1729418372457.0,0.0
0.260818,1.031307,-12.284752,14.84,2.73,-14.21,1729418372477.0,0.0
-1.174876,-2.548356,-10.435099,13.440001,41.09,15.26,1729418372495.0,0.0
-3.026921,-5.237889,-8.331808,4.69,67.410004,52.43,1729418372517.0,0.0
-3.862016,-5.84088,-4.98425,-14.7,55.790001,65.029999,1729418372537.0,0.0
-3.65384,-8.68116,-5.194818,-61.950001,19.879999,35.0,1729418372556.0,0.0
-4.768896,-12.411572,-6.173482,-108.779999,19.32,14.98,1729418372576.0,0.0
-4.744967,-13.476377,-6.128019,-61.25,5.18,-18.76,1729418372596.0,0.0
-3.993621,-9.525827,-6.008378,38.57,-10.71,-29.610001,1729418372616.0,0.0
-3.598805,-4.570292,-6.79083,71.610001,-7.0,-36.189999,1729418372636.0,0.0
-3.644269,-2.40718,-8.032705,43.68,-16.940001,-33.810001,1729418372656.0,0.0
-2.57707,-3.878766,-9.284152,9.24,-40.18,-32.549999,1729418372675.0,0.0
-0.827917,-3.031706,-11.363515,-11.55,-69.510002,-31.92,1729418372696.0,0.0
0.476172,-0.375673,-12.957134,31.15,-53.34,-28.77,1729418372716.0,0.0
0.72024,3.046063,-12.878171,34.580002,-3.64,-15.190001,1729418372738.0,0.0
-2.270789,-3.428915,-11.34198,18.27,84.07,57.68,1729418372756.0,0.0
-3.976871,-7.121039,-6.180661,13.3,84.699997,85.050003,1729418372778.0,0.0
-4.398008,-8.403593,-1.524228,-42.560001,23.1,46.34,1729418372796.0,0.0
-4.948357,-12.098111,-4.197011,-109.970001,17.15,17.15,1729418372816.0,0.0
-4.606184,-15.117853,-6.568298,-73.919998,-9.17,-23.379999,1729418372839.0,0.0
-3.345166,-10.159925,-7.111469,24.5,-20.370001,-30.17,1729418372858.0,0.0
-3.395415,-3.766303,-7.097112,68.25,-10.71,-40.599998,1729418372875.0,0.0
-4.024727,-2.95035,-8.082954,50.259998,-7.91,-39.130001,1729418372896.0,0.0
-2.962314,-4.74736,-9.616754,3.36,-39.900002,-42.07,1729418372917.0,0.0
-1.048056,-4.345366,-11.38505,-12.18,-70.139999,-38.009998,1729418372937.0,0.0
0.07657,-3.656233,-11.306087,23.870001,-57.260002,-38.920002,1729418372956.0,0.0
-0.538385,-3.582055,-10.822738,42.209999,-2.17,-40.32,1729418372975.0,0.0
-2.045863,-3.347559,-11.803794,29.120001,44.799999,-35.700001,1729418372995.0,0.0
-3.019742,-4.646862,-11.298907,42.77,34.369999,-24.08,1729418373016.0,0.0
-2.909672,-4.622933,-9.607183,63.98,44.799999,5.04,1729418373036.0,0.0
-2.467,-6.774081,-7.970492,86.379997,23.52,-0.28,1729418373057.0,0.0
-2.289931,-7.41775,-6.515656,125.860001,47.040001,26.67,1729418373077.0,0.0
-2.471786,-7.087541,-6.491727,225.960007,45.990002,30.52,1729418373095.0,0.0
-2.598605,-6.429514,-7.01097,281.26001,52.5,41.93,1729418373117.0,0.0
-3.026921,-6.058627,-6.238089,299.73999,49.209999,50.68,1729418373138.0,0.0
-2.67039,-5.749953,-5.010571,260.399994,35.07,43.400002,1729418373156.0,0.0
-2.507678,-6.675975,-3.907479,195.860001,11.83,48.23,1729418373175.0,0.0
-2.074577,-7.853244,-2.646462,155.75,8.26,49.490002,1729418373196.0,0.0
-2.218147,-7.183254,-1.12702,129.919998,23.799999,44.66,1729418373217.0,0.0
-2.591427,-7.176075,-0.413958,96.040001,52.709999,24.08,1729418373236.0,0.0
-2.98385,-10.583455,-2.632105,26.950001,91.629997,-1.89,1729418373256.0,0.0
-5.802595,-12.370893,0.827917,-41.720001,60.200001,-21.559999,1729418373275.0,0.0
-5.67099,-12.741781,0.859023,8.82,-9.52,7.7,1729418373296.0,0.0
-0.894916,-9.58804,-1.325624,66.5,-17.360001,-12.95,1729418373316.0,0.0
-0.437887,-9.169296,-2.222932,93.519997,14.28,-12.18,1729418373337.0,0.0
-2.029114,-9.461221,0.165105,105.279999,38.009998,-14.28,1729418373355.0,0.0
-1.919044,-9.32483,-0.004786,106.190002,37.099998,-13.09,1729418373375.0,0.0
-1.395016,-7.345965,0.567099,93.309998,18.059999,1.12,1729418373395.0,0.0
-1.529014,-6.405586,0.916451,70.559998,6.65,15.26,1729418373417.0,0.0
-2.132005,-8.051848,-0.22014,12.32,24.710001,23.940001,1729418373436.0,0.0
-2.888137,-8.252845,-1.9669,3.36,36.82,30.66,1729418373455.0,0.0
-3.132205,-8.587841,-4.031906,31.01,44.029999,43.75,1729418373475.0,0.0
-3.201597,-8.798409,-2.756532,55.23,15.33,54.740002,1729418373496.0,0.0
-3.034099,-9.887143,-0.770489,72.870003,-2.45,71.82,1729418373515.0,0.0
-3.09392,-10.722239,0.177069,8.68,-2.66,43.189999,1729418373549.0,0.0
-4.074977,-13.658232,1.328017,-30.380001,16.379999,37.240002,1729418373556.0,0.0
-2.809174,-15.010178,-1.658226,-45.360001,-3.08,7.98,1729418373576.0,0.0
-1.813759,-13.03849,-0.122034,23.1,-30.1,2.17,1729418373596.0,0.0
-1.198804,-9.468399,0.37328,70.559998,-31.43,3.01,1729418373617.0,0.0
-1.629512,-8.11167,1.103091,57.470001,-32.970001,-3.78,1729418373636.0,0.0
-3.139383,-8.69791,1.208375,-11.34,-25.129999,-3.92,1729418373656.0,0.0
-2.773281,-10.095319,-1.789831,-50.119999,-31.08,-15.190001,1729418373682.0,0.0
-3.854837,-10.124033,-2.837888,-29.049999,-20.719999,-21.35,1729418373698.0,0.0
-4.780859,-11.176874,-3.395415,34.369999,0.35,-20.02,1729418373779.0,0.0
-6.656832,-10.260423,-4.795217,4.69,20.860001,-44.380001,1729418373783.0,0.0
-6.972685,-8.159525,-2.287539,67.970001,39.41,-22.469999,1729418373784.0,0.0
-6.113662,-7.989635,-0.928415,9.59,34.09,-51.799999,1729418373784.0,0.0
-4.520042,-8.149954,-0.818345,-15.47,29.120001,-38.849998,1729418373796.0,0.0
-3.036492,-8.030313,-2.043471,-17.780001,24.5,-47.459999,1729418373815.0,0.0
-3.086741,-8.425128,0.133998,14.84,45.080002,-33.950001,1729418373837.0,0.0
-3.613162,-7.542177,3.17049,71.68,9.38,-10.5,1729418373859.0,0.0
-1.234696,-5.71406,3.596412,74.410004,7.42,-11.55,1729418373876.0,0.0
0.404387,-6.656832,3.639483,52.43,-26.460001,5.74,1729418373896.0,0.0
1.72044,-7.121039,3.876373,30.799999,-29.540001,21.629999,1729418373916.0,0.0
1.036092,-7.54457,3.388237,3.22,-8.75,29.190001,1729418373936.0,0.0
-0.294317,-8.386844,1.90708,-11.76,27.299999,41.369999,1729418373957.0,0.0
-0.705883,-9.262616,0.87338,32.27,14.56,61.459999,1729418373978.0,0.0
-1.792224,-8.482556,1.916651,58.66,-17.57,76.160004,1729418373996.0,0.0
-6.876972,-14.134403,2.660819,18.76,-20.09,51.799999,1729418374017.0,0.0
-7.788638,-17.891134,-2.74696,-119.770004,-12.32,-16.17,1729418374049.0,0.0
-5.9342,-13.710874,-5.496314,-110.389999,-34.790001,-14.42,1729418374058.0,0.0
-4.421937,-12.289536,-5.948557,-10.71,-22.960001,-26.110001,1729418374077.0,0.0
-3.223132,-13.148561,-4.82393,8.4,4.41,-68.669998,1729418374097.0,0.0
-5.084748,-9.363115,2.35693,43.400002,28.98,-46.900002,1729418374117.0,0.0
-4.108476,-6.463014,1.473979,55.93,27.23,-47.950001,1729418374142.0,0.0
-2.239682,-6.91765,-0.981057,-22.889999,36.400002,-68.18,1729418374158.0,0.0
-2.09372,-6.817152,3.938586,4.2,-1.26,-30.59,1729418374176.0,0.0
-0.0335,-4.843073,4.45065,83.090004,-15.05,-7.84,1729418374197.0,0.0
0.021535,-3.211168,4.682754,66.779999,-2.8,8.47,1729418374218.0,0.0
-0.655633,-6.319445,3.778267,-40.25,15.96,8.96,1729418374238.0,0.0
-1.426122,-10.633704,0.964308,-86.379997,30.870001,12.67,1729418374258.0,0.0
-1.172483,-10.624132,-0.540778,28.91,23.24,42.560001,1729418374278.0,0.0
-1.464408,-6.958328,1.612763,123.340004,-9.87,60.970001,1729418374296.0,0.0
-3.438486,-9.152546,2.947958,103.25,-8.61,68.529999,1729418374318.0,0.0
-6.305088,-12.667603,2.254039,-0.42,-3.57,25.76,1729418374348.0,0.0
-6.80758,-13.995619,-4.567898,-70.349998,-9.8,-4.83,1729418374357.0,0.0
-5.558527,-12.430713,-5.833702,-91.419998,-35.490002,-29.960001,1729418374378.0,0.0
-3.26381,-12.141183,-6.139983,-48.09,-17.15,-43.75,1729418374401.0,0.0
-3.74716,-10.631311,-0.179462,9.73,4.06,-42.420002,1729418374417.0,0.0
-4.235296,-6.726225,2.852244,52.709999,27.58,-30.380001,1729418374437.0,0.0
-3.215954,-4.955536,1.095913,-33.880001,29.049999,-55.650002,1729418374458.0,0.0
-2.533999,-8.193025,-1.146162,-105.279999,23.940001,-44.939999,1729418374476.0,0.0
-2.299503,-9.930215,4.39083,-44.939999,-11.2,-28.91,1729418374497.0,0.0
-0.294317,-7.482357,3.421736,77.629997,-6.65,-5.39,1729418374518.0,0.0
0.023928,-3.797409,3.512664,91.139999,4.55,4.76,1729418374539.0,0.0
-0.129212,-6.118448,2.679961,2.24,2.31,7.35,1729418374558.0,0.0
-0.370888,-9.370294,2.041078,-35.490002,21.77,17.639999,1729418374577.0,0.0
-0.782453,-10.064213,1.725225,7.07,13.16,37.73,1729418374596.0,0.0
-0.787239,-10.131211,0.332602,32.970001,-4.34,52.920002,1729418374617.0,0.0
-2.431108,-10.542776,1.658226,21.98,-11.41,55.02,1729418374637.0,0.0
-4.570292,-11.54537,1.569692,-2.94,-8.89,37.52,1729418374657.0,0.0
-5.548956,-13.72523,-0.198604,-5.11,-14.35,6.58,1729418374676.0,0.0
-4.835894,-12.435498,-3.041277,-37.380001,-43.049999,-4.55,1729418374697.0,0.0
-5.4676,-11.155338,-4.240082,-69.019997,-28.49,-25.41,1729418374717.0,0.0
-4.563113,-12.966705,-5.706882,-58.029999,-1.61,-54.389999,1729418374738.0,0.0
-3.548556,-12.071791,-1.758725,-10.43,2.73,-62.93,1729418374757.0,0.0
-3.639483,-6.91765,2.507678,85.68,17.43,-29.68,1729418374776.0,0.0
-2.65364,-4.666004,0.545564,7.91,31.290001,-61.810001,1729418374797.0,0.0
-3.038885,-8.982656,2.218147,-72.590004,32.34,-48.02,1729418374817.0,0.0
-1.612763,-10.492528,3.376273,-3.36,-6.79,-29.120001,1729418374840.0,0.0
0.066999,-6.276374,3.522235,92.959999,0.49,-7.0,1729418374860.0,0.0
0.339781,-3.519842,2.720639,84.349998,1.26,1.33,1729418374877.0,0.0
0.12682,-5.630312,2.120041,-5.74,21.559999,4.27,1729418374897.0,0.0
-0.801596,-8.891729,1.562513,-29.049999,35.84,22.889999,1729418374918.0,0.0
-1.045663,-8.886944,1.371087,28.210001,35.98,40.810001,1729418374938.0,0.0
-1.222732,-7.298109,2.682354,82.389999,7.28,66.010002,1729418374957.0,0.0
-1.990828,-9.193225,2.871387,61.389999,-7.91,73.57,1729418374976.0,0.0
-4.622933,-11.277373,2.139183,-4.83,-8.82,59.849998,1729418374997.0,0.0
-7.080362,-16.194624,-3.345166,-58.939999,-9.17,18.41,1729418375016.0,0.0
-5.067998,-15.517454,-5.101498,-99.190002,-53.549999,-11.27,1729418375037.0,0.0
-3.337988,-12.765708,-6.453443,-62.790001,-48.93,-36.470001,1729418375057.0,0.0
-4.24726,-12.021541,-4.046263,91.279999,22.190001,-15.75,1729418375076.0,0.0
-4.685147,-9.542577,1.172483,84.840004,39.060001,-56.349998,1729418375096.0,0.0
-4.572684,-7.001399,3.476771,-20.860001,40.389999,-53.689999,1729418375118.0,0.0
-3.069991,-7.566105,3.613162,-7.42,13.86,-32.619999,1729418375137.0,0.0
-0.923629,-7.84128,3.56052,-3.71,1.54,-48.439999,1729418375158.0,0.0
-0.624527,-5.998806,4.409972,18.9,5.18,-12.18,1729418375177.0,0.0
0.741775,-3.759124,4.68754,30.52,1.54,-4.34,1729418375197.0,0.0
1.064806,-6.106483,4.089334,-21.07,-6.02,10.08,1729418375216.0,0.0
0.052642,-9.226725,3.864408,-56.420002,15.68,23.379999,1729418375237.0,0.0
-0.971486,-9.530612,0.928415,-14.84,24.92,36.049999,1729418375257.0,0.0
-1.177269,-6.84108,-0.066999,56.349998,6.37,66.919998,1729418375277.0,0.0
-3.311667,-8.757731,1.871187,31.08,-26.110001,70.0,1729418375297.0,0.0
-7.4345,-14.658432,2.143969,-72.449997,-12.25,24.85,1729418375317.0,0.0
-7.075576,-16.764114,-2.459821,-87.989998,-28.559999,-9.03,1729418375336.0,0.0
-4.931608,-12.918849,-5.139783,-88.340004,-74.970001,-8.68,1729418375357.0,0.0
-1.777867,-13.574483,-9.611969,-63.349998,-31.43,-70.07,1729418375377.0,0.0
-2.773281,-12.083755,-6.218946,3.08,6.86,-37.869999,1729418375397.0,0.0
-2.242075,-6.625726,-0.923629,62.16,42.560001,-62.510002,1729418375418.0,0.0
-4.651647,-6.226124,5.099105,87.150002,45.360001,-21.77,1729418375436.0,0.0
-3.022135,-4.639683,4.304688,-29.889999,34.439999,-45.220001,1729418375457.0,0.0
-2.062613,-8.106883,3.823731,-30.66,-21.84,-14.28,1729418375476.0,0.0
-0.435494,-8.446664,2.311467,-8.26,-21.139999,-19.040001,1729418375496.0,0.0
-0.909273,-8.312666,1.631905,34.720001,14.42,-2.03,1729418375517.0,0.0
-1.993221,-6.814759,1.665405,53.760002,34.860001,0.07,1729418375540.0,0.0
-2.435893,-6.659225,0.622134,48.860001,42.84,14.91,1729418375556.0,0.0
-1.70369,-7.594819,-0.083749,37.939999,33.950001,30.380001,1729418375577.0,0.0
-1.347159,-9.272188,1.11027,60.41,29.960001,50.540001,1729418375596.0,0.0
-2.199004,-9.449257,4.998606,60.130001,28.84,48.369999,1729418375616.0,0.0
-2.065006,-10.861022,2.378466,-20.02,26.530001,31.01,1729418375636.0,0.0
-2.09372,-12.186646,1.74676,-53.41,-1.05,33.32,1729418375656.0,0.0
-1.684547,-12.693924,0.978664,-38.150002,-27.790001,26.389999,1729418375675.0,0.0
-3.136991,-10.461421,1.064806,-5.6,-30.380001,17.08,1729418375697.0,0.0
-5.376673,-11.062018,1.033699,-11.55,-25.129999,-5.53,1729418375717.0,0.0
-4.902894,-13.859229,-5.089533,-46.970001,-44.52,-24.92,1729418375738.0,0.0
-4.989035,-10.552348,-4.331009,-19.530001,-37.52,-29.26,1729418375756.0,0.0
-2.646462,-9.860823,-5.821737,51.380001,-4.69,-34.509998,1729418375776.0,0.0
-5.489135,-9.908678,3.359523,6.79,14.07,-36.330002,1729418375796.0,0.0
-5.185246,-8.439486,2.706282,-5.88,36.470001,-38.5,1729418375826.0,0.0
-3.89073,-9.303294,0.674776,-27.09,14.84,-44.029999,1729418375837.0,0.0
-1.957329,-8.202596,0.040678,-50.470001,20.16,-45.43,1729418375862.0,0.0
-1.165305,-7.822137,4.563113,21.559999,-0.7,-17.639999,1729418375877.0,0.0
0.574277,-5.295317,4.024727,92.68,-7.49,0.91,1729418375896.0,0.0
0.926022,-3.921836,4.206582,52.990002,1.4,10.92,1729418375916.0,0.0
0.148355,-8.391629,3.347559,-32.970001,8.47,14.91,1729418375938.0,0.0
-1.103091,-11.026128,1.995614,-21.84,24.99,19.6,1729418375956.0,0.0
-1.552942,-8.248059,1.713261,70.279999,16.450001,42.139999,1729418375976.0,0.0
-1.088734,-6.168696,1.0002,107.870003,-30.380001,66.989998,1729418375996.0,0.0
-5.388636,-12.801601,1.663012,11.06,-47.040001,50.959999,1729418376016.0,0.0
-7.070791,-17.898314,-4.359723,-81.059998,0.77,4.27,1729418376036.0,0.0
-7.156933,-14.239687,-6.101698,-59.709999,-21.700001,-14.21,1729418376056.0,0.0
-4.366901,-10.923235,-5.443672,43.119999,20.02,-5.6,1729418376076.0,0.0
-3.84048,-6.872187,2.184647,39.200001,6.09,-23.24,1729418376096.0,0.0
-3.218346,-8.25763,3.249453,-70.980003,21.700001,-41.93,1729418376117.0,0.0
-3.074777,-12.13161,-1.251446,-119.0,24.57,-43.75,1729418376138.0,0.0
-1.718047,-11.612368,-1.06002,-150.710007,24.01,-63.139999,1729418376156.0,0.0
-1.335195,-10.593026,3.684947,-38.709999,-8.89,-32.41,1729418376176.0,0.0
-0.212961,-6.343372,4.034299,22.82,-14.42,-38.920002,1729418376198.0,0.0
-0.227318,-2.70389,4.053442,-36.75,-12.18,-31.92,1729418376217.0,0.0
-0.68674,-4.888536,2.132005,-128.729996,-19.950001,-17.780001,1729418376238.0,0.0
-0.141177,-11.152946,-1.830509,-178.710007,-17.08,-11.76,1729418376257.0,0.0
-0.27996,-14.158331,-0.978664,-66.919998,-38.639999,10.57,1729418376275.0,0.0
0.260818,-8.126025,-1.442872,101.220001,-14.84,29.4,1729418376295.0,0.0
-0.251246,-3.632305,-0.155533,152.110001,1.33,48.650002,1729418376316.0,0.0
-2.194218,-5.989235,2.87378,54.18,-7.35,54.040001,1729418376336.0,0.0
-3.802195,-12.358929,0.12682,-44.52,0.7,46.619999,1729418376355.0,0.0
-5.529813,-17.005791,-2.584249,-36.68,-28.139999,-2.45,1729418376376.0,0.0
-4.381258,-13.095919,-2.986243,23.66,-37.52,1.61,1729418376396.0,0.0
-3.751946,-10.69831,-2.400001,-10.43,-36.959999,-35.77,1729418376416.0,0.0
-3.615555,-8.863015,-2.35693,-76.720001,-11.13,-60.549999,1729418376436.0,0.0
-1.806581,-14.711074,-10.664811,7.21,6.3,-48.650002,1729418376456.0,0.0
-4.24726,-9.312866,-0.514457,93.449997,33.810001,-18.059999,1729418376477.0,0.0
-3.15374,-1.289732,0.830309,126.0,50.259998,-18.9,1729418376496.0,0.0
-3.900301,-3.069991,2.651247,41.369999,39.619999,-5.04,1729418376516.0,0.0
-2.689533,-8.865408,0.583849,-62.299999,26.809999,-12.6,1729418376537.0,0.0
-2.234896,-9.08794,1.584049,-38.220001,15.33,10.43,1729418376557.0,0.0
-1.569692,-6.893722,0.921237,57.82,13.16,31.710001,1729418376576.0,0.0
-0.741775,-6.087341,0.346959,60.900002,26.530001,32.200001,1729418376596.0,0.0
-0.583849,-8.805587,1.174876,29.610001,16.030001,48.790001,1729418376617.0,0.0
-0.775275,-11.217552,3.704089,14.07,4.76,51.52,1729418376640.0,0.0
-1.495514,-11.57169,2.431108,6.86,5.32,43.259998,1729418376655.0,0.0
-2.335395,-11.332408,0.741775,11.83,9.31,36.119999,1729418376676.0,0.0
-2.737389,-15.005391,-0.478565,-19.67,-33.32,12.39,1729418376695.0,0.0
-3.517449,-14.100904,-0.102891,20.93,-41.93,-7.14,1729418376717.0,0.0
-5.668597,-12.782458,-0.131605,-22.540001,-23.030001,-44.799999,1729418376737.0,0.0
-4.130012,-12.813565,-7.113862,-109.410004,-19.040001,-84.07,1729418376756.0,0.0
-3.292524,-14.624931,-3.184847,-0.84,-30.66,-54.389999,1729418376775.0,0.0
-2.799603,-5.216353,1.378266,23.379999,13.58,-67.970001,1729418376796.0,0.0
-2.991028,-3.938586,-1.954936,33.670002,35.77,-46.830002,1729418376816.0,0.0
-2.696711,-5.977271,-0.600598,-93.449997,53.27,-72.029999,1729418376836.0,0.0
-2.648855,-8.815158,2.344966,-57.260002,6.09,-5.32,1729418376859.0,0.0
0.0335,-6.82433,4.173083,56.98,-3.08,5.32,1729418376877.0,0.0
0.143569,-4.4674,3.54377,126.279999,0.49,30.380001,1729418376895.0,0.0
-0.59342,-4.311867,1.95015,52.43,31.639999,27.299999,1729418376916.0,0.0
-1.734797,-7.712067,-0.323031,-17.15,46.900002,46.759998,1729418376937.0,0.0
-1.926222,-10.8682,-1.167697,21.210001,34.16,60.619999,1729418376956.0,0.0
-2.103291,-10.143176,3.431308,117.949997,30.030001,80.639999,1729418376975.0,0.0
-2.833102,-10.128819,3.716053,70.419998,6.16,57.540001,1729418376996.0,0.0
-3.704089,-14.641682,-0.088534,-63.91,2.8,25.34,1729418377015.0,0.0
-2.744568,-17.003399,-1.584049,-105.910004,-51.380001,-2.52,1729418377038.0,0.0
-3.469593,-13.045669,-0.947558,47.389999,-52.150002,-15.26,1729418377056.0,0.0
-6.151947,-11.399406,0.476172,40.810001,-14.63,-46.200001,1729418377076.0,0.0
-4.742575,-10.727024,-5.828916,-58.380001,-15.05,-79.660004,1729418377096.0,0.0
-4.926822,-11.624333,-0.952343,45.5,-24.290001,-27.58,1729418377115.0,0.0
-2.11047,-4.867002,-0.074178,-24.780001,16.799999,-87.290001,1729418377137.0,0.0
-3.692125,-6.156733,0.952343,25.48,27.16,-15.05,1729418377156.0,0.0
-1.67019,-6.183054,-0.744168,-58.52,35.209999,-64.260002,1729418377175.0,0.0
-2.227718,-8.539984,3.139383,-84.559998,34.299999,-21.0,1729418377195.0,0.0
-0.634098,-7.252645,4.61097,-11.06,0.14,2.66,1729418377216.0,0.0
1.237089,-4.402793,4.027121,11.2,-13.16,13.51,1729418377238.0,0.0
1.689333,-3.948158,2.667997,-79.449997,-22.75,29.889999,1729418377256.0,0.0
1.356731,-9.38465,-1.761117,-155.399994,-18.059999,35.91,1729418377275.0,0.0
0.851845,-13.966907,-2.24686,-41.369999,-11.55,48.299999,1729418377295.0,0.0
-1.418944,-10.018748,1.978864,110.32,-14.28,63.490002,1729418377317.0,0.0
-5.264209,-8.245667,4.517649,-12.32,-23.309999,20.299999,1729418377336.0,0.0
-7.958528,-10.999805,-0.985843,-274.470001,-35.490002,-18.059999,1729418377356.0,0.0
-3.26381,-15.790236,-7.793423,-250.110001,-96.459999,-47.32,1729418377376.0,0.0
-4.419543,-10.581062,-5.240282,-149.309998,-72.590004,-45.290001,1729418377396.0,0.0
-3.515057,-7.79103,-12.083755,-173.110001,17.5,-90.370003,1729418377416.0,0.0
-6.350551,-8.26481,-5.553742,-133.210007,6.23,-54.389999,1729418377437.0,0.0
-2.711068,-10.372886,-7.204789,-140.350006,-1.89,-88.340004,1729418377456.0,0.0
-2.292324,-11.205588,-3.713661,-30.17,-26.950001,-24.710001,1729418377475.0,0.0
-0.172283,-6.903293,-6.486942,18.83,21.700001,-48.509998,1729418377495.0,0.0
-0.839881,-6.819544,-1.507478,41.509998,54.32,-25.41,1729418377517.0,0.0
0.133998,-4.505685,0.021535,74.480003,19.879999,9.87,1729418377535.0,0.0
0.914058,-5.804988,3.696911,115.639999,-12.25,27.16,1729418377556.0,0.0
1.138984,-6.699903,1.768296,142.729996,-14.98,37.869999,1729418377575.0,0.0
-0.035892,-2.366502,0.765703,73.010002,41.02,36.470001,1729418377596.0,0.0
-2.031506,-5.757132,-2.151148,-36.119999,55.720001,65.099998,1729418377615.0,0.0
-1.361516,-11.743973,-4.701896,-21.49,33.740002,54.670002,1729418377636.0,0.0
-2.002793,-13.146168,-3.067599,98.279999,16.24,94.220001,1729418377657.0,0.0
-2.079363,-10.533205,-2.612962,130.970001,25.690001,85.470001,1729418377675.0,0.0
-3.125026,-13.349558,-3.239882,46.48,32.689999,47.32,1729418377696.0,0.0
-3.689733,-17.991632,-4.199404,14.77,6.51,-1.26,1729418377715.0,0.0
-3.352344,-14.947963,-4.084548,71.610001,-1.61,-15.96,1729418377738.0,0.0
-3.730411,-11.241481,-2.545963,77.0,0.14,-42.420002,1729418377756.0,0.0
-2.002793,-9.21476,-6.477371,-13.79,-5.81,-77.769997,1729418377776.0,0.0
-2.383251,-10.286745,-2.902494,-62.09,-27.51,-72.870003,1729418377795.0,0.0
-0.681954,-6.628119,-2.045863,-27.93,1.89,-72.660004,1729418377815.0,0.0
-0.870987,-4.62054,-3.591627,76.720001,9.52,-34.02,1729418377836.0,0.0
-1.878366,-2.533999,3.45045,38.639999,32.689999,-16.940001,1729418377858.0,0.0
-1.727618,-4.156333,2.742175,7.49,4.76,16.940001,1729418377876.0,0.0
-1.299303,-7.948956,1.45005,-32.759998,-6.58,15.89,1729418377896.0,0.0
-1.722832,-8.415558,-0.801596,-20.790001,-0.63,39.48,1729418377916.0,0.0
-1.268196,-6.446264,-3.215954,105.349998,24.219999,71.260002,1729418377937.0,0.0
-1.383051,-5.149354,-0.624527,160.580002,24.08,92.330002,1729418377955.0,0.0
-3.675375,-10.310673,1.469193,23.1,25.34,85.540001,1729418377975.0,0.0
-4.941179,-17.13261,-3.926622,-164.220001,30.59,33.810001,1729418377996.0,0.0
-5.386244,-23.076382,-5.728417,-153.089996,-22.120001,-10.64,1729418378014.0,0.0
-2.349752,-13.426127,-3.67059,-47.670002,-46.41,-22.26,1729418378037.0,0.0
-2.584249,-5.690133,-2.660819,-34.09,-34.23,-59.220001,1729418378057.0,0.0
-4.457829,-8.688338,-1.957329,-76.440002,-25.129999,-69.650002,1729418378077.0,0.0
-2.476572,-9.982857,-8.16431,-166.809998,-12.95,-109.129997,1729418378094.0,0.0
-1.237089,-10.202995,-8.55434,-100.309998,-34.299999,-87.779999,1729418378116.0,0.0
-0.619741,-6.750153,1.146162,7.35,10.64,-62.720001,1729418378135.0,0.0
-1.696511,-2.500499,-1.497907,97.790001,-4.13,4.2,1729418378156.0,0.0
-1.811367,-2.864209,3.397808,-27.02,40.18,-44.029999,1729418378175.0,0.0
-2.160719,-6.970293,1.217947,-52.150002,-4.2,24.639999,1729418378195.0,0.0
-0.358923,-8.159525,0.098106,-33.670002,-12.88,17.15,1729418378216.0,0.0
-1.122234,-9.157332,-1.11027,17.01,-2.24,43.470001,1729418378238.0,0.0
-1.213161,-6.915257,-3.110669,85.050003,22.68,60.200001,1729418378255.0,0.0
-1.411765,-6.271588,-4.173083,126.629997,24.15,84.980003,1729418378275.0,0.0
-2.572284,-10.937593,-1.87358,84.489998,22.68,78.470001,1729418378296.0,0.0
-3.964907,-15.46242,0.631705,33.740002,24.01,59.990002,1729418378315.0,0.0
-3.555735,-15.984055,-2.050649,-25.76,13.440001,24.710001,1729418378336.0,0.0
-1.85683,-15.498313,-4.699504,-11.2,-20.51,1.4,1729418378355.0,0.0
-1.294517,-9.537791,-2.79721,66.779999,-37.099998,2.03,1729418378377.0,0.0
-3.091527,-7.972885,0.294317,91.840004,-17.01,-21.139999,1729418378395.0,0.0
-4.261617,-10.58824,-2.57707,-15.89,-1.4,-47.950001,1729418378415.0,0.0
-5.711668,-13.270595,-4.194618,-79.099998,-0.84,-68.459999,1729418378435.0,0.0
-3.517449,-13.311273,-8.394022,-8.12,-1.82,-59.5,1729418378455.0,0.0
-1.11027,-7.647461,-4.460221,-3.92,12.04,-77.559998,1729418378477.0,0.0
-2.344966,-5.900701,0.528814,76.720001,14.77,-12.95,1729418378494.0,0.0
-0.413958,-4.086941,0.09332,-22.049999,57.82,-71.260002,1729418378515.0,0.0
-1.371087,-7.24786,1.540978,-77.699997,48.02,-30.799999,1729418378537.0,0.0
0.031107,-9.073583,1.533799,7.91,5.67,-4.76,1729418378556.0,0.0
1.691726,-5.513064,1.89033,159.460007,-7.7,30.59,1729418378574.0,0.0
1.529014,-2.959922,0.567099,154.0,-7.07,48.02,1729418378595.0,0.0
0.043071,-4.661219,-1.706082,75.739998,17.360001,73.150002,1729418378616.0,0.0
-2.254039,-9.47797,-1.617548,77.769997,37.73,86.870003,1729418378636.0,0.0
-7.60439,-15.603597,0.078963,-14.35,27.370001,32.549999,1729418378655.0,0.0
-6.486942,-18.340984,-3.072384,-41.509998,5.67,-0.28,1729418378674.0,0.0
-3.431308,-13.720445,-1.849652,-65.519997,-47.040001,6.51,1729418378694.0,0.0
-1.375873,-8.377272,-1.473979,-102.480003,-66.360001,-43.75,1729418378772.0,0.0
-1.457229,-8.803195,-4.34058,-124.25,-39.48,-42.349998,1729418378778.0,0.0
-1.426122,-7.91785,-5.218746,-120.120003,-4.48,-47.459999,1729418378783.0,0.0
-2.849852,-7.267002,-1.105484,-75.529999,21.91,-6.09,1729418378784.0,0.0
-2.730211,-7.601997,-3.787838,-90.160004,53.48,-3.5,1729418378807.0,0.0
-3.799802,-9.51147,-7.719246,-203.979996,90.650002,-13.51,1729418378814.0,0.0
-5.953342,-16.642082,-2.852244,-193.059998,48.439999,-34.650002,1729418378836.0,0.0
-0.26321,-15.713666,-2.866602,55.650002,7.28,-7.14,1729418378857.0,0.0
2.892922,-7.647461,1.416551,133.839996,-4.62,5.74,1729418378874.0,0.0
2.184647,-5.635098,2.189433,54.18,20.860001,-12.95,1729418378895.0,0.0
0.588634,-8.350951,0.346959,-57.470001,34.02,-30.66,1729418378914.0,0.0
-1.521835,-10.480563,-1.495514,-31.360001,30.870001,-20.719999,1729418378935.0,0.0
-1.773082,-7.453642,-1.339981,24.360001,0.7,-9.31,1729418378955.0,0.0
-2.065006,-7.348359,-2.364109,25.83,-50.959999,-8.26,1729418378974.0,0.0
-3.369094,-7.542177,-5.371887,-10.43,-57.330002,-22.469999,1729418378995.0,0.0
-3.034099,-3.421736,-10.298709,-83.790001,-30.73,-16.59,1729418379015.0,0.0
-3.608376,-8.606983,-13.864014,-66.5,-54.389999,8.68,1729418379035.0,0.0
-2.809174,-12.382857,-6.616155,67.830002,45.5,21.35,1729418379055.0,0.0
-3.132205,-8.738588,-0.047856,87.010002,36.959999,22.33,1729418379074.0,0.0
-3.065206,-7.927422,-0.148355,12.18,72.309998,-1.19,1729418379095.0,0.0
-1.706082,-9.657433,-4.807181,-70.629997,68.949997,-16.030001,1729418379114.0,0.0
0.476172,-10.10489,0.009571,-49.139999,25.9,10.15,1729418379136.0,0.0
3.888337,-10.700702,0.119641,4.83,-53.970001,23.52,1729418379157.0,0.0
3.826123,-9.633504,-0.37328,25.200001,-8.61,11.62,1729418379173.0,0.0
1.146162,-7.195218,-0.655633,21.49,31.43,-6.65,1729418379196.0,0.0
-2.304288,-8.240881,-2.880959,-26.6,40.25,-12.32,1729418379214.0,0.0
-3.960121,-9.607183,-4.869394,-36.049999,34.720001,-19.040001,1729418379235.0,0.0
-2.744568,-7.719246,-4.599005,19.530001,-47.18,-5.25,1729418379255.0,0.0
-1.911865,-6.283553,-5.565705,47.599998,-107.029999,5.46,1729418379275.0,0.0
-2.567499,-3.661019,-7.63789,-29.75,-56.560001,1.89,1729418379294.0,0.0
-4.512863,-10.693524,-11.078769,-127.050003,-22.26,-11.83,1729418379315.0,0.0
-5.118248,-17.254644,-8.896514,-85.889999,33.389999,-8.33,1729418379336.0,0.0
-2.031506,-13.787444,-2.500499,116.620003,-22.26,29.889999,1729418379354.0,0.0
0.495314,-5.594419,-1.651048,149.660004,9.03,35.07,1729418379376.0,0.0
0.375673,-8.487342,-4.785645,-41.93,64.190002,-5.88,1729418379395.0,0.0
-0.33021,-11.894722,-1.416551,-34.860001,78.190002,5.39,1729418379414.0,0.0
0.272782,-11.219944,1.954936,30.450001,36.889999,11.34,1729418379444.0,0.0
0.837488,-8.200203,2.567499,83.720001,11.76,18.41,1729418379510.0,0.0
-1.138984,-5.886343,0.820738,61.670002,2.1,12.18,1729418379511.0,0.0
-3.644269,-7.453642,-1.68694,-38.920002,31.92,-15.89,1729418379511.0,0.0
-4.510471,-10.112068,-2.711068,-67.550003,-11.9,-26.18,1729418379515.0,0.0
-2.380858,-7.556533,-4.206582,-41.299999,-97.720001,-10.99,1729418379535.0,0.0
-2.883351,-4.709075,-7.226324,-71.260002,-114.800003,-6.86,1729418379554.0,0.0
-2.79721,-5.419744,-15.378671,-150.919998,-43.400002,-29.68,1729418379573.0,0.0
-3.976871,-15.627523,-14.723038,-62.299999,-37.73,-5.53,1729418379593.0,0.0
-1.172483,-16.570297,-4.577469,134.470001,3.15,28.139999,1729418379614.0,0.0
-0.9667,-8.195417,3.541377,188.509995,12.6,36.75,1729418379633.0,0.0
-1.021735,-4.957928,-1.002593,41.790001,70.279999,-6.86,1729418379653.0,0.0
-0.270389,-8.894121,-1.545763,-123.760002,67.620003,-30.17,1729418379673.0,0.0
0.708275,-15.24228,-1.926222,-35.420002,-8.54,0.7,1729418379692.0,0.0
1.158126,-7.015756,0.057428,50.75,28.49,5.39,1729418379713.0,0.0
-1.658226,-4.232903,0.921237,49.91,34.439999,8.12,1729418379733.0,0.0
-3.725625,-7.283752,-2.900101,-36.259998,45.080002,-10.5,1729418379753.0,0.0
-3.622734,-10.564312,-4.180261,-62.02,-3.08,-26.110001,1729418379772.0,0.0
-1.830509,-8.262416,-3.897908,-31.57,-93.449997,-11.06,1729418379793.0,0.0
-2.009971,-6.678369,-5.221139,24.639999,-106.190002,2.03,1729418379813.0,0.0
-3.192025,-4.876573,-11.035697,-37.099998,-35.279999,-23.799999,1729418379833.0,0.0
-5.860023,-12.019149,-9.489935,-70.07,-30.66,-25.34,1729418379856.0,0.0
-3.804588,-14.691931,-8.590233,-24.99,16.379999,-0.63,1729418379872.0,0.0
-1.311267,-12.279965,-2.002793,79.730003,-40.880001,13.65,1729418379892.0,0.0
-0.301496,-8.719445,-2.395216,81.760002,27.93,4.06,1729418379913.0,0.0
-0.401994,-7.525427,-6.178268,-2.8,55.860001,-19.74,1729418379933.0,0.0
-0.667598,-9.449257,-4.118048,-34.650002,74.410004,-4.9,1729418379953.0,0.0
0.337388,-11.389835,-0.069392,21.07,52.290001,2.8,1729418379973.0,0.0
0.622134,-8.879765,5.06082,89.18,36.75,12.25,1729418379992.0,0.0
-0.557528,-5.039285,5.376673,83.090004,17.57,9.38,1729418380014.0,0.0
-3.002992,-6.087341,0.512064,-46.27,18.549999,-13.65,1729418380039.0,0.0
-3.038885,-10.861022,-3.790231,-109.970001,6.58,-36.119999,1729418380054.0,0.0
-1.031307,-8.020741,-3.74716,-37.380001,-113.400002,-8.68,1729418380072.0,0.0
-0.574277,-6.032306,-6.54437,-7.91,-108.010002,1.19,1729418380095.0,0.0
-3.35713,-6.518049,-11.373087,-70.07,-41.790001,-10.85,1729418380129.0,0.0
-4.386044,-13.660624,-14.883357,-31.360001,17.57,-9.17,1729418380149.0,0.0
-2.189433,-12.59821,-6.750153,75.110001,10.29,33.18,1729418380187.0,0.0
-0.437887,-9.856036,-0.713061,179.130005,-9.24,52.290001,1729418380188.0,0.0
-0.882952,-6.12084,0.244068,95.830002,58.099998,19.67,1729418380194.0,0.0
-1.438086,-9.355937,-3.046063,-55.23,82.110001,-14.28,1729418380213.0,0.0
-1.395016,-12.337393,0.650848,-54.040001,47.459999,-4.83,1729418380233.0,0.0
-0.078963,-10.279566,1.505085,48.720001,3.99,14.7,1729418380253.0,0.0
0.040678,-5.718846,0.832702,73.709999,11.83,10.99,1729418380272.0,0.0
-2.215754,-5.771489,-1.392623,6.93,18.48,8.33,1729418380293.0,0.0
-3.395415,-9.403792,-5.106283,-90.090004,28.42,-23.379999,1729418380315.0,0.0
-2.79721,-10.822738,-5.070391,-77.279999,-37.450001,-20.719999,1729418380337.0,0.0
-0.897308,-7.578069,-4.436293,-23.450001,-100.099998,-5.67,1729418380354.0,0.0
-2.411965,-4.797609,-4.661219,-10.01,-63.07,-1.19,1729418380373.0,0.0
-3.613162,-7.322037,-9.102298,-75.32,-54.389999,-11.69,1729418380394.0,0.0
-3.87398,-15.194424,-13.060026,-60.760002,-19.809999,6.79,1729418380415.0,0.0
-2.108077,-16.744972,-6.04427,114.800003,6.79,27.860001,1729418380434.0,0.0
-1.462015,-8.188239,-1.502693,206.919998,34.23,37.380001,1729418380455.0,0.0
-2.148755,-5.005785,-0.291924,97.090004,86.099998,3.78,1729418380475.0,0.0
-1.665405,-9.454042,-0.504886,-71.330002,81.760002,-13.65,1729418380493.0,0.0
-0.167498,-13.009777,1.129412,-45.639999,13.58,-3.29,1729418380515.0,0.0
0.641276,-10.820344,0.734596,60.619999,19.18,12.95,1729418380544.0,0.0
-0.246461,-5.228317,1.222732,86.590004,40.950001,5.46,1729418380553.0,0.0
-2.854637,-6.022735,-0.062213,6.65,32.41,6.86,1729418380574.0,0.0
-4.015156,-9.695717,-2.268396,-76.440002,30.66,-16.940001,1729418380593.0,0.0
-3.412165,-9.698111,-2.938386,-65.449997,-30.52,-12.25,1729418380613.0,0.0
-1.722832,-5.919843,-4.457829,-55.369999,-89.459999,-4.2,1729418380639.0,0.0
-3.665804,-5.611169,-4.139583,-76.440002,-72.870003,-12.25,1729418380654.0,0.0
-2.388037,-7.829315,-12.390036,-102.199997,-30.450001,-22.68,1729418380673.0,0.0
-3.893122,-13.48834,-11.109876,-20.860001,-59.5,10.71,1729418380694.0,0.0
-2.56032,-12.303895,-2.088934,94.290001,30.73,24.639999,1729418380713.0,0.0
-2.612962,-8.410772,-0.191426,96.110001,38.290001,10.43,1729418380735.0,0.0
-1.557728,-8.193025,-3.369094,-7.84,60.900002,-13.37,1729418380754.0,0.0
-0.495314,-9.815358,-1.852045,-49.490002,39.200001,-5.46,1729418380772.0,0.0
0.291924,-11.887544,0.007178,0.49,23.379999,2.17,1729418380793.0,0.0
0.215354,-9.32483,2.009971,70.629997,32.41,4.06,1729418380813.0,0.0
-1.246661,-5.06082,1.885544,81.620003,23.24,5.95,1729418380834.0,0.0
-3.369094,-6.084948,-0.624527,-11.27,26.880001,-8.19,1729418380857.0,0.0
-3.495914,-9.879964,-3.361916,-82.949997,-1.26,-30.309999,1729418380873.0,0.0
-2.37368,-9.781858,-3.802195,-83.300003,-89.529999,-25.41,1729418380893.0,0.0
-1.545763,-7.499106,-3.799802,-52.360001,-109.970001,-14.49,1729418380913.0,0.0
-2.935993,-4.981857,-8.80798,-94.57,-63.77,-23.66,1729418380934.0,0.0
-3.596412,-12.086146,-14.730216,-57.889999,-10.78,-21.280001,1729418380954.0,0.0
-3.34038,-14.665611,-9.269794,28.98,14.0,2.87,1729418380973.0,0.0
-1.878366,-11.992826,-1.586441,132.860001,6.51,24.08,1729418380993.0,0.0
-0.851845,-8.073383,-1.588834,111.650002,30.1,1.47,1729418381013.0,0.0
-0.521635,-7.130611,-4.768896,11.76,59.290001,-16.309999,1729418381036.0,0.0
-0.464208,-10.667203,-2.270789,-49.560001,66.57,-11.9,1729418381056.0,0.0
-0.066999,-10.502099,1.179662,35.279999,47.18,1.12,1729418381074.0,0.0
-0.507278,-6.733403,3.905087,86.590004,30.66,5.39,1729418381098.0,0.0
-2.945565,-4.206582,2.562713,47.740002,17.43,2.1,1729418381115.0,0.0
-4.577469,-6.508478,-0.239282,-58.310001,22.82,-19.18,1729418381135.0,0.0
-4.115655,-9.676575,-3.395415,-109.410004,-45.080002,-31.219999,1729418381153.0,0.0
-1.68694,-9.497113,-6.405586,-78.050003,-128.169998,-14.7,1729418381173.0,0.0
-0.181855,-7.116255,-9.202796,-31.710001,-127.959999,-0.77,1729418381193.0,0.0
-2.285146,-9.903893,-10.406385,-11.9,-47.810001,-3.99,1729418381214.0,0.0
-5.24746,-14.215759,-8.587841,-31.360001,65.660004,-17.43,1729418381234.0,0.0
-4.943572,-14.658432,-3.007778,23.450001,37.869999,-3.71,1729418381254.0,0.0
-1.430908,-10.011569,-3.457629,124.25,7.07,20.65,1729418381272.0,0.0
0.937986,-5.647062,-4.007978,81.480003,20.719999,4.48,1729418381294.0,0.0
1.024128,-6.89133,-0.894916,-22.120001,57.189999,-0.28,1729418381313.0,0.0
-0.145962,-11.062018,0.528814,-41.790001,72.800003,-5.32,1729418381337.0,0.0
-0.638884,-10.482956,1.174876,48.650002,48.93,2.87,1729418381354.0,0.0
-0.885344,-4.622933,1.801795,94.849998,4.69,15.96,1729418381373.0,0.0
-2.78046,-6.762117,-2.878566,10.92,6.3,10.43,1729418381393.0,0.0
-2.854637,-10.624132,-3.460021,-92.75,-38.150002,-27.16,1729418381413.0,0.0
-2.017149,-8.599805,-4.546363,-70.209999,-105.07,-4.62,1729418381432.0,0.0
-3.306881,-4.311867,-5.436492,-126.910004,-97.019997,-7.98,1729418381453.0,0.0
-3.39063,-12.859028,-16.878971,-92.260002,-4.13,-5.74,1729418381472.0,0.0
-4.031906,-19.34597,-7.89153,97.720001,21.0,15.12,1729418381493.0,0.0
-2.993421,-11.880364,0.078963,175.699997,24.15,34.790001,1729418381513.0,0.0
-1.531406,-6.616155,-2.306681,119.629997,52.57,7.63,1729418381534.0,0.0
0.138784,-6.793223,-4.402793,4.13,62.23,-12.25,1729418381553.0,0.0
0.526421,-9.530612,0.607777,-50.68,28.98,-6.86,1729418381572.0,0.0
0.863809,-10.686346,0.679562,38.009998,31.08,10.29,1729418381593.0,0.0
0.495314,-6.257231,1.440479,73.989998,44.869999,-0.28,1729418381613.0,0.0
-1.773082,-5.469993,1.0002,48.93,24.360001,18.620001,1729418381634.0,0.0
-3.345166,-7.499106,-1.540978,-48.650002,21.91,-8.47,1729418381653.0,0.0
-3.486342,-9.425328,-2.478964,-88.269997,-21.42,-19.110001,1729418381672.0,0.0
-2.050649,-7.927422,-4.122833,-77.07,-100.519997,-7.07,1729418381693.0,0.0
-3.735196,-6.080163,-8.346166,-69.230003,-104.230003,-4.13,1729418381712.0,0.0
-3.349952,-12.890135,-15.919449,-78.190002,-24.15,-18.690001,1729418381733.0,0.0
-2.828316,-15.007784,-9.489935,33.110001,-13.51,12.81,1729418381752.0,0.0
-1.459622,-11.035697,-0.459422,136.850006,-3.99,30.309999,1729418381772.0,0.0
-1.380659,-7.82453,-1.430908,89.809998,44.73,9.17,1729418381792.0,0.0
-0.856631,-8.295916,-1.371087,-32.41,78.330002,-24.360001,1729418381812.0,0.0
-0.648455,-11.521441,-0.244068,-53.619999,24.92,-10.92,1729418381833.0,0.0
0.189033,-10.722239,-0.445065,24.01,28.84,0.14,1729418381855.0,0.0
0.299103,-6.4343,0.892523,61.599998,28.91,-4.06,1729418381872.0,0.0
-1.320838,-5.072784,0.11007,28.91,13.93,8.05,1729418381892.0,0.0
-3.347559,-7.745567,-1.399801,-58.240002,12.67,-17.290001,1729418381912.0,0.0
-3.68734,-10.317852,-2.988636,-86.169998,-24.290001,-34.369999,1729418381933.0,0.0
-2.371287,-8.109276,-5.242674,-56.139999,-104.93,-24.290001,1729418381953.0,0.0
-2.761317,-5.266603,-5.864808,-43.610001,-110.25,-14.07,1729418381971.0,0.0
-3.069991,-9.566505,-13.339987,-75.389999,-41.369999,-23.450001,1729418381992.0,0.0
-4.795217,-17.970098,-8.35813,-1.33,12.53,-21.0,1729418382013.0,0.0
-3.407379,-13.81855,-2.574677,60.27,21.42,1.61,1729418382034.0,0.0
-1.323231,-9.540184,-2.562713,122.220001,10.71,10.22,1729418382053.0,0.0
0.933201,-6.235696,-4.919643,15.47,59.5,-14.7,1729418382074.0,0.0
0.306281,-8.422735,2.383251,-47.110001,68.389999,-0.49,1729418382095.0,0.0
-0.397209,-12.480963,0.911665,10.92,61.740002,1.89,1729418382114.0,0.0
-0.244068,-9.365508,2.062613,63.349998,40.880001,-9.52,1729418382135.0,0.0
-1.136591,-5.192425,1.521835,62.16,-3.57,3.57,1729418382153.0,0.0
-2.871387,-5.276174,-0.287139,-9.87,-0.07,-7.56,1729418382172.0,0.0
-2.742175,-8.169096,-2.711068,-74.129997,-21.559999,-26.460001,1729418382194.0,0.0
-1.933401,-8.999406,-4.584648,-81.410004,-94.360001,-19.18,1729418382212.0,0.0
-2.210968,-7.975278,-5.65424,-55.09,-107.660004,-3.85,1729418382234.0,0.0
-2.895315,-7.822137,-14.177474,-58.66,-39.130001,-10.01,1729418382253.0,0.0
-3.567699,-15.337994,-12.385249,20.860001,8.4,-7.28,1729418382274.0,0.0
-2.45025,-12.713067,-4.651647,52.080002,19.809999,16.73,1729418382293.0,0.0
-1.847259,-9.375079,-0.33021,98.910004,15.05,26.6,1729418382313.0,0.0
-0.624527,-6.84108,-2.239682,44.170002,55.510002,-1.89,1729418382333.0,0.0
-0.602991,-8.281559,-1.007378,-36.259998,60.130001,-7.21,1729418382353.0,0.0
-0.234497,-11.363515,-0.129212,-24.01,18.34,3.43,1729418382375.0,0.0
0.09332,-7.290931,-0.047856,37.59,32.830002,5.11,1729418382394.0,0.0
-0.72024,-5.783452,0.11007,34.02,13.23,7.63,1729418382415.0,0.0
-2.510071,-7.939385,-0.629312,-35.560001,3.85,-5.18,1729418382434.0,0.0
-2.962314,-10.415956,-2.59382,-70.349998,-10.78,-24.08,1729418382453.0,0.0
-2.002793,-8.898908,-4.158726,-61.810001,-71.82,-23.66,1729418382474.0,0.0
-1.485943,-6.774081,-5.812167,-46.41,-100.449997,-12.11,1729418382493.0,0.0
-2.9671,-4.297509,-8.906086,-123.480003,-62.02,-27.790001,1729418382513.0,0.0
-2.792424,-12.205789,-14.947963,-87.709999,11.41,-16.309999,1729418382533.0,0.0
-2.667997,-17.407784,-6.159126,65.660004,-0.56,16.940001,1729418382553.0,0.0
-2.124826,-11.576476,0.088534,179.410004,16.1,42.84,1729418382574.0,0.0
-1.222732,-4.965107,-1.718047,110.459999,67.269997,14.49,1729418382593.0,0.0
-0.12682,-5.639884,-2.081756,-42.98,69.860001,-9.87,1729418382613.0,0.0
-0.363709,-11.722438,-1.768296,-95.340004,12.53,-1.33,1729418382635.0,0.0
1.103091,-12.780065,-1.323231,-11.41,15.4,2.1,1729418382654.0,0.0
1.586441,-7.13779,-0.239282,68.25,-1.89,9.03,1729418382674.0,0.0
-0.815953,-4.302295,-0.732204,34.02,12.25,10.64,1729418382694.0,0.0
-3.117848,-6.649654,-1.89033,-65.519997,31.08,-18.200001,1729418382712.0,0.0
-3.519842,-10.504492,-2.828316,-117.949997,-18.129999,-34.790001,1729418382735.0,0.0
-2.553142,-9.600004,-3.864408,-53.41,-119.699997,-15.61,1729418382753.0,0.0
-2.435893,-6.800402,-11.131411,-43.610001,-61.32,-18.690001,1729418382774.0,0.0
-2.392823,-9.320045,-13.619946,-39.759998,-3.5,-16.450001,1729418382794.0,0.0
-2.725425,-12.768101,-5.9677,-15.190001,9.38,9.87,1729418382812.0,0.0
-2.163112,-14.108082,-3.06042,89.32,7.35,30.309999,1729418382834.0,0.0
-1.179662,-8.425128,-3.582055,98.769997,60.48,17.43,1729418382856.0,0.0
-0.691526,-6.21416,-3.053242,-2.87,77.209999,-3.78,1729418382874.0,0.0
-0.55992,-9.628718,-1.600798,-48.860001,28.91,3.36,1729418382892.0,0.0
0.428315,-11.609976,-1.971686,-1.19,25.9,5.04,1729418382915.0,0.0
0.942772,-8.377272,-0.114855,65.169998,11.9,4.55,1729418382933.0,0.0
-0.760918,-5.659025,-0.095713,57.189999,14.98,7.28,1729418382954.0,0.0
-2.610569,-6.329016,-1.605584,-20.02,30.940001,-18.9,1729418382975.0,0.0
-3.010171,-9.363115,-3.95055,-70.279999,-12.95,-28.630001,1729418382992.0,0.0
-2.667997,-9.872787,-2.952743,-72.239998,-93.449997,-26.6,1729418383014.0,0.0
-1.579263,-6.139983,-6.001199,-60.830002,-108.080002,-23.940001,1729418383035.0,0.0
-2.129612,-5.383851,-12.909278,-91.980003,-50.889999,-19.950001,1729418383053.0,0.0
-3.366701,-15.840486,-7.609176,-3.64,16.52,8.96,1729418383074.0,0.0
-2.943172,-11.976077,-1.76351,112.07,30.1,27.370001,1729418383092.0,0.0
-1.713261,-7.398607,-2.845066,96.040001,51.240002,19.460001,1729418383114.0,0.0
-0.043071,-5.682954,-3.426522,-3.43,63.07,-5.18,1729418383133.0,0.0
0.004786,-9.12144,-0.55992,-69.790001,15.82,2.8,1729418383155.0,0.0
1.055235,-12.035898,-2.785245,-29.120001,16.030001,0.7,1729418383172.0,0.0
1.447658,-8.669197,-0.641276,37.59,13.58,-3.22,1729418383194.0,0.0
-0.131605,-5.252246,-1.323231,51.380001,7.42,6.37,1729418383212.0,0.0
-2.682354,-4.98425,-1.134198,-17.01,23.309999,-12.18,1729418383234.0,0.0
-3.818945,-8.678767,-3.103491,-81.480003,0.14,-28.07,1729418383255.0,0.0
-3.615555,-9.95175,-3.5007,-73.220001,-83.440002,-23.59,1729418383273.0,0.0
-2.11047,-7.211967,-8.863015,-23.17,-109.480003,-3.15,1729418383294.0,0.0
-1.351945,-8.642875,-15.292529,5.18,-40.670002,-2.8,1729418383314.0,0.0
-2.720639,-11.748759,-8.877372,15.75,14.63,12.67,1729418383334.0,0.0
-3.455236,-14.108082,-2.498107,15.12,44.029999,11.83,1729418383354.0,0.0
-2.371287,-10.798808,-3.4672,58.450001,38.920002,9.73,1729418383371.0,0.0
-0.071785,-6.125626,-3.012564,34.790001,54.040001,0.7,1729418383392.0,0.0
0.155533,-9.932607,-1.182054,-17.08,1.54,3.08,1729418383414.0,0.0
0.586242,-10.597812,-1.359123,-7.49,32.48,-13.440001,1729418383433.0,0.0
0.277567,-6.833901,-1.002593,59.639999,10.57,5.53,1729418383454.0,0.0
-1.359123,-4.740182,-0.806381,44.310001,3.08,9.8,1729418383472.0,0.0
-2.651247,-7.735995,-2.550749,-26.18,10.57,-12.32,1729418383491.0,0.0
-2.622534,-11.145767,-4.625326,-62.439999,-36.82,-19.950001,1729418383512.0,0.0
-0.600598,-8.157133,-11.026128,-32.34,-86.940002,-5.6,1729418383533.0,0.0
-3.225525,-6.673582,-7.771888,-15.82,-53.830002,-1.68,1729418383553.0,0.0
-3.17049,-13.854443,-13.060026,23.73,49.139999,-2.8,1729418383574.0,0.0
-3.811767,-13.694124,-3.893122,56.279999,23.66,7.49,1729418383593.0,0.0
-2.732604,-10.973484,-1.543371,88.760002,14.49,21.629999,1729418383613.0,0.0
-0.660419,-7.278966,-3.572484,53.830002,43.82,-2.52,1729418383635.0,0.0
0.492921,-6.58744,-1.622334,-17.290001,38.150002,-11.48,1729418383652.0,0.0
-0.167498,-10.174281,-1.375873,-25.27,12.53,-3.57,1729418383672.0,0.0
0.320638,-9.824929,-1.87358,22.82,35.209999,-11.55,1729418383693.0,0.0
0.430708,-5.67099,-0.617348,76.720001,7.98,5.74,1729418383774.0,0.0
-1.648655,-4.926822,-1.550549,48.650002,-5.25,17.15,1729418383776.0,0.0
-2.330609,-8.449057,-3.940979,-69.300003,-5.39,-13.51,1729418383785.0,0.0
-2.39043,-10.731809,-3.672983,-70.629997,-60.830002,-11.69,1729418383786.0,0.0
-1.244268,-8.410772,-3.716053,-2.94,-83.019997,11.27,1729418383792.0,0.0
-3.019742,-7.037291,-6.65444,-15.96,-49.560001,4.83,1729418383812.0,0.0
-3.306881,-13.971692,-12.875778,-54.599998,23.24,-11.13,1729418383838.0,0.0
-4.244867,-13.569696,-8.219346,-82.809998,3.64,-9.38,1729418383854.0,0.0
-1.794617,-11.581261,-5.000999,55.299999,-1.47,14.14,1729418383873.0,0.0
-0.12682,-8.647661,-5.493921,114.520004,21.91,11.48,1729418383891.0,0.0
-0.540778,-7.369894,-6.159126,34.09,70.629997,-12.18,1729418383912.0,0.0
-1.739582,-6.82433,-3.35713,-84.699997,87.150002,-22.540001,1729418383933.0,0.0
-1.586441,-11.373087,-2.612962,-83.230003,51.450001,-23.799999,1729418383952.0,0.0
0.68674,-10.990234,0.468993,33.880001,-13.37,-11.27,1729418383971.0,0.0
1.328017,-4.070191,2.706282,99.120003,-19.18,15.89,1729418383992.0,0.0
-0.567099,-1.612763,2.141576,43.119999,-6.09,3.15,1729418384011.0,0.0
-1.61037,-5.532206,-1.198804,-72.870003,11.48,-12.67,1729418384033.0,0.0
-1.875973,-10.715059,-4.110869,-120.260002,-25.34,-23.17,1729418384052.0,0.0
-1.29691,-9.401401,-5.903094,-56.630001,-98.349998,3.64,1729418384071.0,0.0
-2.368894,-7.625926,-9.090333,-62.09,-60.060001,3.01,1729418384091.0,0.0
-3.469593,-14.100904,-14.189439,-74.900002,21.35,-5.04,1729418384112.0,0.0
-4.065405,-14.813965,-7.420143,24.99,42.0,13.86,1729418384132.0,0.0
-2.63689,-10.057034,-2.818745,193.830002,23.799999,48.09,1729418384152.0,0.0
-1.629512,-6.912865,-1.146162,195.369995,42.77,31.99,1729418384172.0,0.0
-1.957329,-5.448457,-1.268196,81.340004,54.950001,11.06,1729418384193.0,0.0
-2.517249,-7.432107,-2.364109,-13.16,47.950001,5.32,1729418384211.0,0.0
-2.230111,-12.847065,-4.625326,26.950001,20.51,12.39,1729418384234.0,0.0
-0.361316,-15.376277,-3.948158,171.360001,-10.78,14.56,1729418384254.0,0.0
0.545564,-11.270195,-3.28056,304.01001,7.07,44.939999,1729418384271.0,0.0
0.741775,-9.77468,-3.163311,436.940002,28.35,51.240002,1729418384293.0,0.0
0.442672,-9.169296,-1.057628,533.820007,46.27,52.779999,1729418384311.0,0.0
-0.301496,-9.930215,0.492921,592.47998,53.060001,60.060001,1729418384333.0,0.0
-0.954736,-9.406186,1.715654,618.659973,63.420002,53.060001,1729418384352.0,0.0
-1.182054,-5.807381,0.792024,643.650024,65.660004,49.209999,1729418384372.0,0.0
-2.208575,-1.962115,5.254639,567.280029,61.25,42.209999,1729418384391.0,0.0
-4.319045,-2.644069,10.837094,395.429993,53.27,-7.91,1729418384412.0,0.0
-4.898108,-3.706482,11.100305,189.210007,45.290001,-56.279999,1729418384432.0,0.0
-4.749753,-4.680361,9.444471,144.130005,20.58,-61.880001,1729418384453.0,0.0
-4.65404,-2.148755,8.501699,132.229996,16.24,-53.900002,1729418384473.0,0.0
-4.342973,2.361716,8.444271,114.520004,24.219999,-44.52,1729418384491.0,0.0
-4.4674,1.617548,7.410572,41.509998,23.030001,-26.6,1729418384511.0,0.0
-3.893122,-0.744168,5.814559,7.84,11.13,-34.509998,1729418384535.0,0.0
-4.249653,-1.012164,6.903293,36.82,21.91,-18.690001,1729418384554.0,0.0
-5.271388,-1.95015,6.776474,32.970001,37.59,-13.37,1729418384572.0,0.0
-5.225924,-1.438086,7.848458,46.48,29.4,-4.41,1729418384591.0,0.0
-4.101298,-0.155533,9.24826,45.150002,3.57,-1.75,1729418384611.0,0.0
-3.134598,-0.574277,8.451449,19.32,-11.69,1.89,1729418384635.0,0.0
-3.842873,-1.392623,9.777073,33.529999,-8.05,13.51,1729418384654.0,0.0
-6.58744,-4.268795,12.244074,49.279999,19.18,13.58,1729418384671.0,0.0
-8.013563,-4.460221,9.343972,18.34,30.799999,-17.08,1729418384690.0,0.0
-5.962914,-3.960121,6.872187,-7.63,-30.1,-44.029999,1729418384711.0,0.0
-3.062813,-1.995614,6.884151,0.56,-50.959999,-45.009998,1729418384732.0,0.0
-2.222932,2.711068,7.860423,9.31,-18.83,-28.84,1729418384753.0,0.0
-2.421536,2.500499,6.766902,-7.21,6.16,-21.42,1729418384778.0,0.0
-2.072184,3.058028,6.321837,-13.23,0.77,5.53,1729418384790.0,0.0
-2.294717,0.141177,7.752745,-24.01,2.31,13.3,1729418384814.0,0.0
-3.931407,-1.887937,8.015956,-19.389999,34.299999,13.23,1729418384832.0,0.0
-4.127619,0.01675,7.721639,9.24,33.599998,26.040001,1729418384855.0,0.0
-2.072184,0.344566,7.489535,0.42,-1.75,30.24,1729418384872.0,0.0
-1.222732,-1.878366,6.680761,-31.290001,6.09,24.43,1729418384892.0,0.0
-4.029513,-7.597212,11.196017,-9.52,29.469999,15.05,1729418384913.0,0.0
-8.872586,-8.805587,14.782858,51.310001,83.720001,12.74,1729418384934.0,0.0
-10.358529,-0.485743,12.684352,88.129997,68.25,3.71,1729418384953.0,0.0
-6.733403,1.438086,7.79103,-10.22,-26.18,-24.85,1729418384971.0,0.0
-3.034099,-2.849852,6.379266,-85.190002,-86.870003,-43.68,1729418384993.0,0.0
-2.163112,-3.409772,7.401,-31.5,-52.220001,-34.860001,1729418385014.0,0.0
-3.601198,0.662812,9.408579,56.98,5.88,-15.12,1729418385034.0,0.0
-5.312066,0.768096,9.533006,19.32,5.18,-11.2,1729418385053.0,0.0
-2.837888,0.595813,8.319844,-5.81,-41.02,-10.71,1729418385074.0,0.0
0.026321,1.071985,5.718846,-42.77,-52.639999,-2.45,1729418385094.0,0.0
-0.569492,-1.607977,5.565705,-55.93,-12.32,-9.1,1729418385112.0,0.0
-3.400201,-1.339981,8.078169,10.92,43.75,5.6,1729418385136.0,0.0
-5.525027,0.59342,8.070991,22.889999,62.860001,17.360001,1729418385154.0,0.0
-4.297509,-0.512064,6.13759,-20.51,19.74,9.03,1729418385175.0,0.0
-1.730011,0.11007,5.458029,-17.710001,-12.32,17.92,1729418385195.0,0.0
-1.526621,-0.820738,6.876972,-9.24,15.75,28.98,1729418385215.0,0.0
-5.015356,-6.946364,10.875379,-1.96,63.98,19.809999,1729418385235.0,0.0
-16.302301,-10.576276,13.201202,37.59,93.239998,13.3,1729418385255.0,0.0
-9.099905,-0.993021,13.603197,89.529999,-70.07,45.639999,1729418385274.0,0.0
2.641676,0.921237,9.856036,-7.7,-126.139999,-43.400002,1729418385294.0,0.0
-2.438286,-2.438286,8.977871,-71.050003,35.630001,-25.34,1729418385314.0,0.0
-7.164111,-2.318645,8.003991,-46.27,83.440002,-34.02,1729418385334.0,0.0
-5.625526,1.040878,9.030513,45.360001,-13.72,-9.59,1729418385355.0,0.0
-4.481757,-0.162712,8.092526,5.53,-28.559999,-25.27,1729418385373.0,0.0
-3.639483,0.315853,8.367701,-6.72,-25.969999,-27.16,1729418385394.0,0.0
-2.191825,1.471586,8.123632,-25.76,-36.119999,-18.690001,1729418385414.0,0.0
-1.20359,1.378266,8.178668,-29.68,-38.920002,-6.58,1729418385434.0,0.0
-2.072184,-0.863809,7.101898,-28.77,-13.93,4.55,1729418385456.0,0.0
-3.361916,0.088534,5.194818,-16.870001,21.629999,18.549999,1729418385474.0,0.0
-3.172883,1.244268,5.405386,-6.16,10.64,28.559999,1729418385497.0,0.0
-2.600998,0.038285,5.268995,-21.559999,8.61,33.25,1729418385514.0,0.0
-3.404987,-3.768696,6.54437,-36.259998,29.4,29.540001,1729418385536.0,0.0
-18.589838,-12.933208,10.648061,14.56,35.77,23.799999,1729418385556.0,0.0
-3.988836,-3.371487,17.003399,124.18,-170.449997,31.57,1729418385574.0,0.0
4.029513,-0.291924,14.366508,34.09,-91.209999,17.5,1729418385593.0,0.0
-2.651247,-2.801995,9.47797,-100.449997,88.480003,-60.970001,1729418385614.0,0.0
-7.267002,-6.051448,6.151947,-103.599998,134.680008,-59.779999,1729418385634.0,0.0
-7.310073,-1.864009,8.939585,26.809999,27.51,-32.130001,1729418385653.0,0.0
-4.015156,0.440279,9.88475,56.420002,-38.360001,-22.190001,1729418385674.0,0.0
-2.359323,0.62692,6.943972,-17.360001,-38.220001,-26.67,1729418385693.0,0.0
-0.684347,0.830309,6.104091,-35.490002,-46.689999,-14.14,1729418385713.0,0.0
0.301496,0.272782,5.558527,-39.830002,-35.700001,-7.35,1729418385736.0,0.0
-1.543371,-0.308674,6.431907,-13.02,10.64,0.98,1729418385755.0,0.0
-4.07737,0.892523,6.424729,1.47,61.670002,17.290001,1729418385775.0,0.0
-4.268795,1.505085,4.838287,-10.99,45.290001,31.290001,1729418385793.0,0.0
-3.110669,-0.78006,5.666204,-26.460001,2.87,43.610001,1729418385813.0,0.0
-4.476971,-8.386844,10.497313,-19.040001,8.33,37.59,1729418385834.0,0.0
-22.432711,-13.304093,9.592826,25.9,9.45,14.21,1729418385856.0,0.0
3.957729,-1.976472,15.536596,128.660004,-205.449997,44.099998,1729418385872.0,0.0
2.021935,-0.019143,12.145968,7.07,25.129999,-32.130001,1729418385893.0,0.0
-5.237889,-4.733003,10.834702,-72.379997,130.619995,-52.080002,1729418385915.0,0.0
-8.303094,-5.510671,8.518449,-44.099998,111.370003,-42.630001,1729418385935.0,0.0
-6.422336,0.040678,8.322237,38.639999,1.12,-25.129999,1729418385953.0,0.0
-3.65384,1.294517,7.903493,29.469999,-60.27,-30.66,1729418385974.0,0.0
-1.028914,1.830509,6.589834,-2.94,-52.990002,-34.93,1729418385992.0,0.0
0.648455,3.639483,4.421937,-28.630001,-42.490002,-13.37,1729418386013.0,0.0
-0.765703,-0.641276,6.575477,-12.74,13.79,8.05,1729418386036.0,0.0
-3.134598,0.191426,5.647062,2.94,72.590004,24.01,1729418386054.0,0.0
-3.751946,2.299503,4.409972,2.59,62.650002,49.07,1729418386073.0,0.0
-3.07717,-1.095913,5.223531,-32.900002,30.52,48.439999,1729418386095.0,0.0
-11.889936,-13.856836,12.193825,-13.3,44.73,31.710001,1729418386113.0,0.0
-12.983455,-9.281759,15.098711,78.050003,-144.970001,8.61,1729418386134.0,0.0
9.32483,1.990828,14.840286,118.020004,-156.660004,49.77,1729418386154.0,0.0
-2.100898,-0.430708,11.251052,-57.75,91.769997,-33.950001,1729418386172.0,0.0
-5.711668,-6.908078,8.12124,-116.900002,143.710007,-50.889999,1729418386192.0,0.0
-7.814958,-5.424529,6.379266,-12.6,99.120003,-43.330002,1729418386215.0,0.0
-5.393422,0.344566,7.989635,72.870003,-21.559999,-10.92,1729418386236.0,0.0
-2.787638,1.490728,9.207582,54.950001,-67.690002,-28.0,1729418386254.0,0.0
-1.402194,1.935793,7.56132,5.81,-40.880001,-29.75,1729418386273.0,0.0
-0.837488,2.210968,5.534599,-33.040001,-26.74,-14.56,1729418386292.0,0.0
-1.052842,0.318245,6.18784,-33.950001,-13.23,-0.21,1729418386314.0,0.0
-3.089134,-0.057428,5.953342,-25.969999,33.18,11.41,1729418386336.0,0.0
-4.321437,1.892723,5.28096,-8.4,33.810001,48.02,1729418386354.0,0.0
-3.04367,-0.636491,3.287738,-47.810001,12.04,44.029999,1729418386372.0,0.0
-14.502897,-13.371094,10.396815,-8.68,6.23,38.220001,1729418386393.0,0.0
-6.458229,-7.752745,16.156338,88.830002,-151.270004,21.0,1729418386414.0,0.0
3.328416,0.064606,18.003597,109.550003,-84.629997,30.450001,1729418386433.0,0.0
-4.536791,-1.871187,10.925629,-69.93,66.220001,-14.0,1729418386454.0,0.0
-4.575077,-5.02732,6.996613,-112.980003,70.209999,-44.450001,1729418386474.0,0.0
-6.101698,-3.426522,6.941578,-3.92,52.990002,-42.420002,1729418386493.0,0.0
-6.099305,-0.875773,6.455836,45.920002,17.290001,-23.66,1729418386514.0,0.0
-4.290331,-0.416351,8.01117,54.599998,-32.200001,-33.040001,1729418386533.0,0.0
-2.892922,0.177069,8.039884,43.400002,-42.91,-28.700001,1729418386553.0,0.0
-1.021735,2.727818,7.628319,20.370001,-32.619999,-19.74,1729418386573.0,0.0
0.057428,2.242075,6.041877,-42.98,-31.85,-11.62,1729418386594.0,0.0
-0.861416,-0.68674,5.242674,-56.560001,-1.75,-3.5,1729418386614.0,0.0
-3.017349,0.031107,4.398008,-24.360001,49.209999,21.700001,1729418386633.0,0.0
-4.067799,1.651048,5.024928,3.92,50.119999,44.099998,1729418386653.0,0.0
-3.464807,0.344566,8.195417,-24.43,24.219999,45.150002,1729418386674.0,0.0
-21.817757,-14.134403,8.676375,-15.61,-30.380001,19.040001,1729418386694.0,0.0
6.116055,-3.424129,17.577675,128.240005,-209.300003,29.75,1729418386714.0,0.0
-0.323031,-0.631705,14.462219,28.98,53.830002,13.440001,1729418386734.0,0.0
-5.659025,-4.701896,9.769895,-97.370003,126.910004,-54.529999,1729418386755.0,0.0
-8.154739,-6.632904,6.771688,-77.279999,134.050003,-58.73,1729418386772.0,0.0
-7.156933,-2.486143,6.960721,21.35,14.07,-27.58,1729418386794.0,0.0
-3.833302,-0.129212,9.300901,63.77,-60.830002,-30.030001,1729418386820.0,0.0
-1.897508,1.804188,8.353344,33.18,-52.639999,-31.360001,1729418386835.0,0.0
-0.981057,3.266203,7.613962,-5.04,-32.34,-22.26,1729418386856.0,0.0
-0.861416,1.677369,6.735795,-37.799999,-10.64,1.19,1729418386874.0,0.0
-1.698904,-0.241675,6.008378,-35.07,5.81,4.55,1729418386893.0,0.0
-3.129812,1.081556,6.142376,-7.42,32.130001,34.369999,1729418386913.0,0.0
-3.287738,1.931008,5.754738,-11.13,20.58,52.990002,1729418386935.0,0.0
-3.931407,-2.914458,6.281159,-47.459999,15.190001,48.650002,1729418386954.0,0.0
-25.631916,-17.900705,9.126225,-16.52,11.9,28.0,1729418386974.0,0.0
6.687939,-0.839881,14.194223,115.57,-182.139999,48.439999,1729418386996.0,0.0
-0.722632,-1.402194,11.425728,-1.61,73.360001,-31.290001,1729418387014.0,0.0
-5.501099,-4.596612,9.205189,-71.75,140.0,-66.989998,1729418387046.0,0.0
-8.379664,-4.895715,7.343572,-32.689999,103.25,-37.59,1729418387055.0,0.0
-6.343372,-0.973879,8.298308,46.689999,-15.4,-23.030001,1729418387073.0,0.0
-3.512664,-0.421137,7.649854,39.900002,-67.970001,-35.98,1729418387096.0,0.0
-1.28016,1.395016,7.104291,18.059999,-56.490002,-36.330002,1729418387114.0,0.0
-0.428315,2.471786,7.633104,-7.28,-51.240002,-17.43,1729418387136.0,0.0
-0.914058,0.229711,8.008778,-26.6,-17.780001,-2.8,1729418387154.0,0.0
-2.533999,-0.681954,5.639884,-27.51,24.219999,6.86,1729418387175.0,0.0
-3.61077,0.569492,5.919843,-3.92,27.299999,28.630001,1729418387194.0,0.0
-3.019742,1.004985,5.513064,-11.76,-0.42,41.439999,1729418387215.0,0.0
-2.830709,-1.469193,5.611169,-35.490002,3.85,43.959999,1729418387236.0,0.0
-13.095919,-10.743774,10.506885,-5.25,15.82,40.32,1729418387256.0,0.0
-4.773681,-5.551349,15.373885,86.029999,-100.449997,29.469999,1729418387276.0,0.0
0.368495,-2.897708,13.77548,41.09,-51.939999,17.290001,1729418387295.0,0.0
-3.26381,-3.515057,10.222138,-52.220001,64.610001,-53.760002,1729418387316.0,0.0
-6.503692,-5.668597,7.810174,-69.93,79.309998,-41.720001,1729418387339.0,0.0
-6.211767,-1.667797,8.788837,25.48,18.48,-40.18,1729418387356.0,0.0
-5.17089,0.138784,9.542577,55.369999,-29.190001,-24.43,1729418387376.0,0.0
-3.184847,0.447458,7.345965,22.190001,-34.93,-35.07,1729418387395.0,0.0
-1.430908,1.545763,7.211967,-3.43,-52.080002,-20.790001,1729418387415.0,0.0
-0.059821,1.148555,6.656832,-29.889999,-42.490002,-14.28,1729418387436.0,0.0
-1.342373,-0.078963,6.168696,-24.710001,-0.35,-3.15,1729418387457.0,0.0
-2.938386,0.480957,5.402994,-15.61,38.009998,13.440001,1729418387475.0,0.0
-2.900101,0.942772,5.345565,-13.93,13.79,32.900002,1729418387495.0,0.0
-2.522035,-0.404387,6.802795,-22.610001,13.79,45.709999,1729418387517.0,0.0
-3.98405,-4.065405,9.116654,-20.860001,17.710001,47.459999,1729418387540.0,0.0
-18.582661,-13.036098,9.351151,14.56,3.43,36.049999,1729418387555.0,0.0
1.804188,-6.506085,14.730216,94.849998,-188.229996,23.799999,1729418387574.0,0.0
-2.512464,-2.778067,11.263017,33.950001,4.97,-1.82,1729418387596.0,0.0
-6.470192,-3.833302,9.506684,-42.560001,156.029999,-63.98,1729418387616.0,0.0
-7.987241,-4.59422,7.307681,-29.82,85.330002,-58.869999,1729418387635.0,0.0
-4.321437,1.167697,8.008778,41.16,-30.030001,-46.970001,1729418387656.0,0.0
-1.828116,2.507678,9.114261,29.82,-67.480003,-43.889999,1729418387676.0,0.0
-0.349352,3.464807,9.293723,1.26,-39.549999,-27.370001,1729418387695.0,0.0
0.485743,2.715853,7.204789,-39.41,-35.420002,-9.03,1729418387717.0,0.0
0.102891,-0.591027,5.682954,-53.900002,-14.98,6.65,1729418387737.0,0.0
-1.816152,-1.627119,6.015556,-22.960001,26.809999,13.93,1729418387756.0,0.0
-3.259024,0.172283,6.376873,8.47,41.02,27.02,1729418387775.0,0.0
-3.010171,1.502693,6.853044,5.32,16.73,43.889999,1729418387796.0,0.0
-2.579463,0.937986,7.783852,-17.01,3.64,59.920002,1729418387815.0,0.0
-4.529613,-3.098706,9.717253,-40.670002,26.950001,68.32,1729418387837.0,0.0
-23.447269,-19.357935,7.819745,-15.05,5.53,36.119999,1729418387857.0,0.0
3.878766,-4.814359,15.615561,130.899994,-219.869995,40.459999,1729418387875.0,0.0
-0.253639,-1.789831,12.239288,31.780001,28.630001,-2.31,1729418387896.0,0.0
-6.441479,-6.171089,8.685946,-84.769997,120.470001,-76.860001,1729418387917.0,0.0
-6.85783,-3.022135,8.599805,-42.77,95.480003,-40.25,1729418387937.0,0.0
-3.668197,0.81356,8.327023,46.759998,-43.82,-31.5,1729418387955.0,0.0
-1.954936,0.222532,6.963113,14.56,-53.619999,-42.0,1729418387975.0,0.0
-1.155733,1.399801,7.472785,9.59,-25.620001,-34.299999,1729418387995.0,0.0
-0.351745,2.443072,6.848258,-9.94,-19.389999,-23.24,1729418388015.0,0.0
-0.947558,1.581656,7.546963,-13.3,0.7,-4.06,1729418388035.0,0.0
-2.471786,0.122034,6.680761,-25.9,37.869999,10.29,1729418388057.0,0.0
-3.213561,-0.789631,4.697111,-26.110001,35.349998,29.889999,1729418388076.0,0.0
-2.452643,-0.045464,4.122833,-19.67,15.47,48.580002,1729418388096.0,0.0
-2.723032,-2.210968,6.994221,-17.85,13.02,53.34,1729418388116.0,0.0
-14.177474,-13.58884,12.964314,30.380001,31.710001,39.27,1729418388135.0,0.0
-5.510671,-6.216553,15.273388,99.050003,-83.720001,36.75,1729418388155.0,0.0
1.055235,-0.957129,12.256038,62.369999,-43.189999,-1.4,1729418388174.0,0.0
-4.058227,-2.325824,11.251052,-40.599998,79.379997,-67.760002,1729418388194.0,0.0
-6.740582,-7.314859,8.346166,-81.690002,85.82,-70.209999,1729418388216.0,0.0
-6.319445,-3.761517,8.628519,26.530001,21.49,-53.619999,1729418388235.0,0.0
-4.350152,0.265603,8.219346,64.540001,-34.720001,-47.110001,1729418388256.0,0.0
-1.167697,4.338188,8.405986,-1.26,-56.279999,-41.09,1729418388275.0,0.0
0.425922,3.105884,6.915257,-47.810001,-46.130001,-17.43,1729418388295.0,0.0
0.021535,-0.622134,6.319445,-53.27,-10.43,1.75,1729418388315.0,0.0
-1.416551,-1.402194,4.031906,-49.279999,41.720001,6.23,1729418388335.0,0.0
-2.76371,0.945165,5.493921,4.69,35.84,38.779999,1729418388355.0,0.0
-2.033899,2.888137,6.001199,10.22,15.33,55.09,1729418388376.0,0.0
-2.885744,-0.574277,6.312266,-28.77,19.6,61.110001,1729418388396.0,0.0
-12.823137,-13.361522,10.944772,-8.05,42.77,52.709999,1729418388414.0,0.0
-7.369894,-8.070991,16.201803,104.860001,-116.550003,42.91,1729418388436.0,0.0
1.725225,-0.902094,17.012968,119.559998,-76.650002,31.15,1729418388455.0,0.0
-4.240082,-2.596212,11.586047,-43.75,117.949997,-76.93,1729418388476.0,0.0
-8.286345,-7.678568,6.156733,-125.860001,122.849998,-63.279999,1729418388495.0,0.0
-5.986843,-2.919244,8.02792,16.799999,-21.629999,-47.389999,1729418388514.0,0.0
-2.718246,2.45025,8.233703,79.309998,-81.760002,-25.690001,1729418388535.0,0.0
-0.33021,4.218546,8.276773,34.650002,-66.919998,-26.389999,1729418388556.0,0.0
0.55992,2.199004,5.594419,-44.310001,-43.82,-14.98,1729418388574.0,0.0
0.081356,-1.335195,4.797609,-43.259998,-4.76,-5.6,1729418388594.0,0.0
-2.646462,0.9667,5.465207,4.27,50.189999,22.26,1729418388615.0,0.0
-2.76371,3.242275,5.493921,21.280001,24.57,50.889999,1729418388634.0,0.0
-2.935993,-0.741775,6.178268,-10.64,11.97,56.07,1729418388654.0,0.0
-10.904092,-12.921242,12.526425,13.72,30.030001,46.48,1729418388676.0,0.0
-9.126225,-7.848458,14.443078,79.029999,-76.510002,32.060001,1729418388694.0,0.0
2.091327,-0.270389,15.098711,87.989998,-89.739998,27.860001,1729418388772.0,0.0
-3.292524,-3.019742,11.679367,-53.900002,80.150002,-73.010002,1729418388809.0,0.0
-6.683154,-7.523034,6.829116,-119.209999,106.260002,-63.0,1729418388810.0,0.0
-5.79781,-3.376273,6.606583,-8.47,12.39,-50.75,1729418388810.0,0.0
-3.553342,2.234896,7.678568,65.099998,-53.060001,-31.360001,1729418388811.0,0.0
-1.261017,5.221139,8.585447,32.689999,-51.029999,-34.860001,1729418388816.0,0.0
0.081356,3.708875,6.932007,-38.360001,-45.849998,-11.27,1729418388835.0,0.0
0.083749,-0.088534,5.663811,-51.029999,-10.99,2.59,1729418388864.0,0.0
-1.533799,0.392423,4.491328,-25.969999,41.720001,18.059999,1729418388874.0,0.0
-2.727818,3.122634,5.833702,9.17,44.66,45.57,1729418388894.0,0.0
-2.603391,0.356531,5.862415,-31.43,22.4,55.93,1729418388916.0,0.0
-14.684752,-12.689137,11.10509,-31.290001,19.74,55.23,1729418388935.0,0.0
-3.972085,-5.551349,17.137396,90.580002,-131.25,38.150002,1729418388954.0,0.0
2.830709,-3.199204,15.56531,43.82,-45.779999,31.01,1729418388974.0,0.0
-4.914857,-6.151947,10.387242,-66.290001,117.949997,-43.959999,1729418388995.0,0.0
-8.295916,-7.23111,7.719246,-81.690002,141.259995,-67.550003,1729418389015.0,0.0
-8.128418,-3.646662,7.582855,-0.07,27.23,-52.57,1729418389036.0,0.0
-5.005785,-0.9667,9.533006,55.369999,-57.75,-35.349998,1729418389055.0,0.0
-2.955136,1.20359,8.54477,42.490002,-65.099998,-36.959999,1729418389074.0,0.0
-1.246661,4.110869,7.76471,11.48,-49.139999,-30.030001,1729418389094.0,0.0
0.382852,3.072384,5.383851,-40.670002,-44.59,-10.15,1729418389114.0,0.0
0.653241,0.988236,5.192425,-46.200001,-21.91,-1.4,1729418389135.0,0.0
-1.09352,1.397408,5.733203,-13.3,30.24,31.780001,1729418389155.0,0.0
-2.524428,2.392823,6.211767,7.63,43.82,52.360001,1729418389173.0,0.0
-3.35713,-0.61017,6.733403,-27.16,33.389999,57.400002,1729418389194.0,0.0
-7.958528,-7.439285,10.387242,-31.5,31.780001,52.080002,1729418389214.0,0.0
-12.440285,-8.788837,12.134004,18.41,-110.739998,33.040001,1729418389235.0,0.0
7.738388,-1.124627,11.684153,40.25,-152.669998,67.760002,1729418389254.0,0.0
-4.838287,-3.661019,8.793623,-54.32,107.449997,-4.97,1729418389274.0,0.0
-9.609575,-3.656233,8.535198,-70.699997,179.550003,-0.63,1729418389295.0,0.0
-9.442079,-3.591627,7.724032,-54.459999,28.07,-3.36,1729418389315.0,0.0
-6.159126,-3.199204,6.673582,-46.970001,-57.540001,-0.35,1729418389335.0,0.0
-4.491328,-2.057827,7.073184,-28.35,-71.120003,0.35,1729418389354.0,0.0
-3.821337,-1.677369,7.635497,-29.540001,-44.73,-8.89,1729418389373.0,0.0
-4.046263,-2.931208,8.645268,-47.32,-29.049999,-10.43,1729418389395.0,0.0
-3.414558,-1.677369,8.630912,-48.860001,-25.9,-8.05,1729418389416.0,0.0
-3.239882,-0.789631,9.75793,-35.84,-38.5,17.639999,1729418389434.0,0.0
-2.35693,-1.086342,10.085747,-64.75,-43.75,28.0,1729418389612.0,0.0
-1.478764,-3.337988,9.537791,-108.43,-59.57,37.59,1729418389612.0,0.0
-0.318245,-3.546163,8.415558,-122.709999,-82.949997,46.830002,1729418389612.0,0.0
0.435494,-3.505485,8.13799,-139.020004,-88.760002,52.849998,1729418389613.0,0.0
0.177069,-4.54397,6.805188,-187.25,-67.269997,38.779999,1729418389613.0,0.0
-0.985843,-7.479963,7.381857,-231.279999,-42.07,15.82,1729418389613.0,0.0
-1.308874,-9.784252,4.733003,-232.190002,-30.73,-15.33,1729418389613.0,0.0
-0.681954,-9.535398,3.565305,-172.339996,-7.21,-38.009998,1729418389614.0,0.0
-0.691526,-7.077969,3.06042,-156.589996,17.15,-40.040001,1729418389624.0,0.0
-1.538585,-6.924829,4.273581,-178.850006,43.400002,-27.790001,1729418389634.0,0.0
-1.902294,-6.735795,4.249653,-165.410004,54.529999,-9.31,1729418389653.0,0.0
-1.476372,-5.9342,6.932007,-76.160004,51.799999,22.75,1729418389672.0,0.0
-5.548956,-1.081556,16.149158,-22.82,-1.26,56.77,1729418389692.0,0.0
-2.59382,-3.809374,6.326623,-179.830002,-18.48,34.720001,1729418389713.0,0.0
-1.148555,-10.013963,2.019542,-227.290009,-17.43,22.190001,1729418389734.0,0.0
-2.275574,-11.270195,-1.007378,-117.529999,20.23,52.009998,1729418389753.0,0.0
-4.740182,-10.387242,-0.267996,-17.780001,50.68,57.75,1729418389772.0,0.0
-8.367701,-13.138988,2.701497,-55.09,58.310001,31.85,1729418389792.0,0.0
-8.779266,-12.827922,2.708675,-74.690002,57.889999,3.71,1729418389814.0,0.0
-6.874579,-10.715059,0.969093,-96.739998,18.27,-8.61,1729418389834.0,0.0
-4.005585,-12.538391,-0.363709,-94.919998,11.48,-39.41,1729418389855.0,0.0
-3.010171,-14.718252,-0.837488,-73.010002,29.960001,-59.5,1729418389872.0,0.0
-2.761317,-12.210573,0.145962,5.25,50.189999,-55.580002,1729418389892.0,0.0
-2.713461,-7.896315,2.029114,51.869999,36.610001,-40.25,1729418389912.0,0.0
-0.976272,-6.695118,4.895715,58.59,16.870001,-37.380001,1729418389934.0,0.0
0.059821,-0.581456,8.327023,83.580002,-11.69,1.75,1729418389952.0,0.0
-0.260818,-1.596013,9.626326,28.210001,-46.970001,30.66,1729418389972.0,0.0
-1.261017,-7.118648,6.211767,-97.230003,10.64,9.31,1729418389992.0,0.0
-3.144169,-10.157533,0.880559,-96.739998,56.490002,11.13,1729418390013.0,0.0
-4.323831,-7.673782,-0.57667,-36.049999,10.43,45.43,1729418390033.0,0.0
-3.24706,-8.463413,-1.691726,-3.64,-44.240002,62.790001,1729418390053.0,0.0
-4.929214,-13.777873,-3.677768,-18.41,-15.96,42.700001,1729418390072.0,0.0
-7.915457,-19.010977,-5.125426,-17.43,50.049999,0.14,1729418390092.0,0.0
-8.01117,-16.488941,-1.438086,38.009998,41.23,-21.91,1729418390113.0,0.0
-5.855237,-10.518847,3.275774,97.300003,-19.110001,-26.460001,1729418390133.0,0.0
-2.737389,-7.506285,2.120041,63.560001,-18.059999,-54.459999,1729418390155.0,0.0
-1.598405,-7.444071,0.727418,25.129999,19.040001,-64.330002,1729418390173.0,0.0
-1.567299,-4.646862,2.196611,56.91,42.139999,-48.580002,1729418390194.0,0.0
-0.851845,-0.859023,6.472585,64.470001,5.18,-21.629999,1729418390213.0,0.0
1.311267,0.89013,10.930414,38.849998,-48.650002,8.75,1729418390238.0,0.0
0.437887,-3.244668,10.557133,-45.220001,-31.290001,29.540001,1729418390254.0,0.0
-2.845066,-7.307681,2.287539,-133.630005,28.77,24.219999,1729418390274.0,0.0
-3.261417,-8.896514,0.394816,-99.540001,-18.34,45.779999,1729418390293.0,0.0
-4.146761,-14.610575,-3.474378,-66.220001,-41.09,57.610001,1729418390315.0,0.0
-7.149754,-20.81995,-7.80778,-38.779999,25.200001,34.02,1729418390337.0,0.0
-9.224331,-18.623339,-4.4339,41.369999,45.849998,13.16,1729418390355.0,0.0
-6.592227,-11.006985,1.557728,68.949997,-7.49,-4.83,1729418390372.0,0.0
-4.409972,-9.60479,4.740182,72.449997,-33.389999,-29.33,1729418390392.0,0.0
-3.002992,-10.13839,2.100898,33.880001,17.219999,-62.650002,1729418390414.0,0.0
-3.347559,-10.265208,0.086142,8.68,53.060001,-70.209999,1729418390433.0,0.0
-2.383251,-6.393622,0.303888,40.599998,47.599998,-57.470001,1729418390453.0,0.0
-1.026521,-4.067799,5.149354,70.840004,6.72,-36.540001,1729418390473.0,0.0
0.48335,-1.277767,9.614362,71.540001,-23.59,-13.79,1729418390493.0,0.0
0.416351,-2.160719,11.193624,40.18,-38.639999,7.63,1729418390513.0,0.0
-1.730011,-4.778467,7.65464,-50.82,-2.45,10.64,1729418390534.0,0.0
-2.940779,-6.723832,3.541377,-70.279999,-1.75,19.6,1729418390553.0,0.0
-3.024528,-6.886543,1.952543,-63.560001,-31.08,32.130001,1729418390574.0,0.0
-2.258825,-9.037691,-0.318245,-47.18,-53.48,42.77,1729418390593.0,0.0
-4.642076,-16.709082,-4.232903,-42.0,-32.689999,45.360001,1729418390613.0,0.0
-6.788438,-19.40579,-3.096312,0.21,27.16,15.54,1729418390648.0,0.0
-6.053841,-14.230117,-0.535992,24.5,8.82,-2.38,1729418390656.0,0.0
-5.13739,-11.083554,2.273181,59.779999,-11.76,-17.360001,1729418390673.0,0.0
-4.388437,-9.980463,2.656033,48.509998,14.7,-46.41,1729418390693.0,0.0
-3.550949,-9.487542,1.272982,10.08,39.830002,-68.389999,1729418390713.0,0.0
-2.244468,-6.195018,0.909273,19.74,40.32,-61.740002,1729418390734.0,0.0
-1.081556,-2.277967,5.04407,62.299999,7.7,-32.830002,1729418390754.0,0.0
0.904487,-0.191426,9.820145,47.459999,-41.09,-10.43,1729418390772.0,0.0
0.674776,-3.811767,11.131411,-13.440001,-34.09,4.55,1729418390793.0,0.0
-2.457429,-6.087341,5.402994,-86.730003,22.68,11.55,1729418390812.0,0.0
-3.278167,-6.589834,2.266003,-70.910004,0.07,27.860001,1729418390834.0,0.0
-2.268396,-7.252645,0.866202,-50.400002,-52.290001,47.880001,1729418390856.0,0.0
-1.820938,-10.91845,-0.964308,-25.34,-61.810001,57.330002,1729418390872.0,0.0
-4.546363,-14.708681,-4.366901,-36.470001,-3.78,53.34,1729418390900.0,0.0
-8.496914,-21.291336,-2.768496,-9.24,32.48,23.940001,1729418390913.0,0.0
-6.733403,-16.130018,-1.378266,13.16,21.559999,-4.06,1729418390935.0,0.0
-4.45065,-8.453842,2.95035,88.340004,-10.57,-27.860001,1729418390953.0,0.0
-3.598805,-8.829515,2.055435,40.389999,26.950001,-56.98,1729418390973.0,0.0
-2.529213,-9.23151,0.282353,4.69,43.82,-68.18,1729418390993.0,0.0
-1.739582,-3.854837,1.440479,35.490002,43.75,-47.32,1729418391014.0,0.0
-0.299103,-2.155933,7.290931,55.02,0.28,-24.710001,1729418391036.0,0.0
0.861416,-2.005185,12.105289,27.719999,-28.07,-4.62,1729418391053.0,0.0
-0.715454,-5.04407,10.571491,-33.459999,-13.58,8.26,1729418391074.0,0.0
-2.70389,-6.494121,4.524827,-85.470001,20.16,12.53,1729418391093.0,0.0
-2.825923,-6.939186,1.832902,-79.730003,-15.190001,27.09,1729418391113.0,0.0
-2.0004,-7.941778,1.040878,-62.720001,-55.720001,45.220001,1729418391134.0,0.0
-1.744368,-11.423335,-1.866402,-43.119999,-49.349998,50.119999,1729418391152.0,0.0
-4.395615,-15.443277,-3.625126,-25.41,-1.4,46.34,1729418391172.0,0.0
-8.142776,-19.156939,-1.954936,4.41,25.27,28.98,1729418391192.0,0.0
-6.453443,-14.560326,-1.514657,13.37,19.040001,-2.38,1729418391213.0,0.0
-4.871787,-10.470992,1.895115,68.040001,-9.59,-9.66,1729418391234.0,0.0
-4.627719,-8.652447,2.54357,58.099998,13.02,-41.09,1729418391254.0,0.0
-3.742374,-9.777073,1.811367,14.91,33.459999,-65.099998,1729418391274.0,0.0
-2.136791,-5.577669,1.816152,19.389999,39.619999,-51.380001,1729418391292.0,0.0
-0.842274,-1.447658,5.099105,33.32,22.33,-24.219999,1729418391314.0,0.0
0.394816,-1.710868,10.186246,16.73,-22.960001,-4.13,1729418391334.0,0.0
-1.067199,-5.982057,9.602397,-31.710001,-13.51,5.95,1729418391353.0,0.0
-2.9671,-6.4678,4.134798,-57.68,13.58,14.56,1729418391374.0,0.0
-2.555535,-6.924829,1.366302,-58.099998,-24.290001,31.290001,1729418391393.0,0.0
-1.26341,-8.449057,-0.308674,-40.389999,-56.560001,44.66,1729418391412.0,0.0
-2.261217,-12.059827,-1.758725,-14.91,-42.420002,50.68,1729418391435.0,0.0
-4.905287,-17.52264,-1.701297,-9.94,-2.03,34.580002,1729418391452.0,0.0
-7.207181,-19.750359,-2.385644,-26.880001,23.66,2.73,1729418391472.0,0.0
-6.175875,-14.737395,-1.165305,27.370001,9.59,-8.96,1729418391492.0,0.0
-5.350351,-10.406385,1.765903,74.620003,-6.65,-26.6,1729418391512.0,0.0
-3.902694,-8.970692,2.438286,50.959999,9.1,-62.580002,1729418391535.0,0.0
-1.87358,-6.690332,1.974079,23.52,25.620001,-74.059998,1729418391555.0,0.0
-0.227318,-0.555135,3.158526,29.469999,23.17,-42.91,1729418391572.0,0.0
1.383051,-0.208176,8.913264,32.970001,-14.63,-16.24,1729418391591.0,0.0
-1.739582,-6.206983,9.396614,-16.17,-19.6,0.21,1729418391616.0,0.0
-2.770889,-6.171089,3.95055,-48.720001,0.28,23.870001,1729418391634.0,0.0
-1.316052,-5.864808,0.272782,-35.84,-46.060001,51.73,1729418391652.0,0.0
-1.550549,-9.473185,-1.509871,-23.940001,-54.040001,63.490002,1729418391671.0,0.0
-5.352744,-14.349757,-2.699104,-14.35,1.75,57.189999,1729418391692.0,0.0
-8.688338,-21.427727,-3.163311,-19.950001,35.84,15.96,1729418391711.0,0.0
-6.994221,-14.615361,-2.065006,13.79,27.65,2.66,1729418391732.0,0.0
-4.797609,-9.975677,2.677568,66.080002,-7.84,-13.3,1729418391752.0,0.0
-3.871587,-9.305687,3.436093,49.490002,17.99,-48.580002,1729418391771.0,0.0
-3.486342,-8.822337,2.419144,17.639999,37.52,-60.549999,1729418391792.0,0.0
-1.476372,-6.240481,2.306681,14.28,31.360001,-55.790001,1729418391811.0,0.0
0.253639,-2.210968,3.555735,14.07,23.17,-30.24,1729418391832.0,0.0
0.337388,-1.895115,8.020741,14.77,4.27,-4.2,1729418391855.0,0.0
-1.143769,-6.666404,10.549955,-23.73,-12.53,2.52,1729418391871.0,0.0
-2.842674,-6.833901,5.651847,-45.220001,0.63,20.51,1729418391891.0,0.0
-2.624927,-5.9342,2.555535,-36.259998,-32.48,41.23,1729418391912.0,0.0
-2.086541,-7.302894,-0.002393,-39.34,-58.799999,57.260002,1729418391933.0,0.0
-4.216154,-14.897714,-2.488536,-23.870001,-36.049999,55.860001,1729418391952.0,0.0
-7.874779,-21.518654,-2.065006,-20.790001,15.75,20.09,1729418391971.0,0.0
-6.589834,-15.732809,-1.198804,4.76,21.42,-7.91,1729418391993.0,0.0
-4.331009,-10.353743,2.163112,54.810001,-6.93,-18.27,1729418392012.0,0.0
-3.184847,-9.279366,3.096312,47.040001,11.48,-47.529999,1729418392033.0,0.0
-2.991028,-8.894121,1.801795,14.56,33.32,-59.639999,1729418392053.0,0.0
-1.957329,-7.305287,1.462015,12.18,38.43,-60.619999,1729418392073.0,0.0
-0.708275,-3.902694,2.778067,15.54,30.309999,-41.16,1729418392094.0,0.0
-0.272782,-2.359323,7.130611,20.65,9.59,-15.12,1729418392114.0,0.0
-0.839881,-5.510671,11.112268,0.84,-15.68,-2.94,1729418392134.0,0.0
-2.392823,-6.144768,6.979864,-40.459999,-1.4,11.27,1729418392153.0,0.0
-3.005385,-5.546563,3.385844,-38.009998,-20.65,34.720001,1729418392172.0,0.0
-2.160719,-6.443871,0.55992,-45.150002,-47.599998,49.279999,1729418392192.0,0.0
-3.239882,-9.738789,-1.184447,-36.259998,-42.0,55.439999,1729418392214.0,0.0
-5.04407,-15.35235,-3.062813,-21.42,-5.39,37.099998,1729418392236.0,0.0
-7.104291,-21.080769,-3.735196,-24.780001,18.200001,10.01,1729418392253.0,0.0
-5.694918,-14.096118,-1.036092,29.68,7.07,-1.12,1729418392273.0,0.0
-3.383451,-8.901299,4.12044,79.309998,-16.52,-16.379999,1729418392294.0,0.0
-3.306881,-8.803195,2.701497,20.23,30.17,-55.299999,1729418392313.0,0.0
-2.493321,-8.145168,1.337588,-5.6,44.240002,-63.349998,1729418392335.0,0.0
-0.878166,-5.108676,1.990828,2.17,32.48,-49.420002,1729418392353.0,0.0
-0.114855,-2.232504,5.783452,18.41,14.84,-20.299999,1729418392372.0,0.0
-0.870987,-4.871787,10.949556,10.22,-11.41,-2.31,1729418392394.0,0.0
-2.478964,-6.556334,7.668997,-40.529999,-3.08,6.93,1729418392414.0,0.0
-3.148954,-5.871986,3.515057,-38.290001,-16.17,30.940001,1729418392432.0,0.0
-2.663212,-6.309873,1.143769,-44.380001,-43.189999,45.920002,1729418392453.0,0.0
-2.876173,-9.052048,-2.050649,-47.25,-42.84,49.279999,1729418392474.0,0.0
-3.828516,-15.153747,-4.536791,-33.110001,-10.29,34.16,1729418392493.0,0.0
-7.101898,-22.305893,-2.837888,-12.81,21.49,10.36,1729418392514.0,0.0
-6.254838,-14.187045,-0.122034,42.07,14.42,4.34,1729418392533.0,0.0
-3.862016,-10.04507,3.668197,73.639999,-19.67,-17.08,1729418392555.0,0.0
-3.261417,-9.724431,2.988636,33.18,16.66,-54.040001,1729418392573.0,0.0
-3.259024,-9.116654,1.562513,2.59,43.959999,-69.160004,1729418392594.0,0.0
-0.693919,-4.175476,2.239682,11.83,32.41,-57.889999,1729418392612.0,0.0
-0.019143,-2.347359,5.778666,36.540001,15.26,-20.790001,1729418392632.0,0.0
-1.040878,-4.692325,10.705488,15.61,-8.47,-7.35,1729418392654.0,0.0
-1.832902,-7.046863,8.054241,-40.810001,-11.48,0.14,1729418392672.0,0.0
-2.490928,-5.577669,3.948158,-31.639999,-20.299999,30.309999,1729418392693.0,0.0
-1.785046,-5.879165,1.007378,-36.959999,-42.98,44.029999,1729418392712.0,0.0
-2.067399,-8.650054,-0.827917,-21.210001,-48.93,59.080002,1729418392735.0,0.0
-4.304688,-13.390236,-2.749353,-4.69,-19.389999,52.57,1729418392754.0,0.0
-6.874579,-21.272192,-2.160719,-17.780001,13.02,15.68,1729418392773.0,0.0
-6.410372,-15.883555,-1.416551,2.87,28.139999,-2.87,1729418392792.0,0.0
-5.046463,-10.91845,2.234896,45.849998,3.43,-22.049999,1729418392813.0,0.0
-3.517449,-10.152746,2.392823,23.030001,19.32,-56.98,1729418392832.0,0.0
-2.799603,-9.377472,1.787439,-0.84,37.450001,-70.279999,1729418392855.0,0.0
-1.418944,-5.314459,1.990828,13.02,35.84,-59.010002,1729418392872.0,0.0
0.289532,-1.48355,3.787838,28.77,20.299999,-34.439999,1729418392892.0,0.0
0.114855,-1.816152,9.142976,39.689999,-0.21,-8.89,1729418392914.0,0.0
-1.732404,-6.501299,10.856236,-16.17,-8.75,1.12,1729418392936.0,0.0
-2.603391,-6.089733,3.704089,-35.0,-9.73,23.59,1729418392952.0,0.0
-1.368695,-5.776274,0.607777,-30.870001,-52.360001,53.970001,1729418392972.0,0.0
-2.443072,-9.298509,-2.055435,-33.040001,-48.299999,62.580002,1729418392992.0,0.0
-5.536992,-14.617754,-1.447658,-26.74,-10.29,45.080002,1729418393013.0,0.0
-7.066005,-21.260227,-3.9673,-57.470001,6.44,10.08,1729418393034.0,0.0
-5.47717,-15.397814,-3.37388,0.49,9.94,-4.34,1729418393055.0,0.0
-4.744967,-11.109876,3.326023,71.120003,-12.53,-20.370001,1729418393072.0,0.0
-3.294917,-9.150154,4.055835,47.18,5.46,-48.93,1729418393091.0,0.0
-2.388037,-8.587841,2.120041,0.56,28.35,-63.0,1729418393112.0,0.0
-1.330409,-6.558727,1.852045,-7.91,27.860001,-54.670002,1729418393133.0,0.0
0.229711,-3.416951,3.361916,3.43,15.190001,-34.580002,1729418393153.0,0.0
0.753739,-2.289931,8.126025,16.24,-7.14,-10.64,1729418393171.0,0.0
-0.167498,-6.556334,10.100104,-22.190001,-23.17,0.77,1729418393191.0,0.0
-2.232504,-5.79781,5.962914,-28.98,-2.73,30.030001,1729418393213.0,0.0
-2.033899,-5.130211,2.050649,-27.299999,-27.440001,53.27,1729418393234.0,0.0
-1.957329,-8.566305,-1.158126,-32.41,-41.790001,69.720001,1729418393252.0,0.0
-4.149154,-14.493326,-3.732803,-21.91,0.42,56.139999,1729418393273.0,0.0
-9.171689,-22.181467,-2.792424,-15.82,36.75,13.58,1729418393299.0,0.0
-5.895915,-12.282358,-0.227318,57.400002,-3.43,-0.84,1729418393314.0,0.0
-3.256632,-9.147761,3.462414,73.849998,-14.35,-39.549999,1729418393334.0,0.0
-2.79721,-9.123833,2.723032,20.299999,26.6,-71.190002,1729418393354.0,0.0
-2.557927,-7.685746,1.799403,9.66,43.330002,-68.879997,1729418393371.0,0.0
-1.105484,-5.333601,1.931008,13.79,28.35,-53.689999,1729418393391.0,0.0
-0.282353,-2.199004,3.505485,17.15,25.76,-34.02,1729418393414.0,0.0
-0.059821,-1.806581,8.470592,26.110001,1.68,-9.24,1729418393433.0,0.0
-0.756132,-5.364708,10.762917,-15.12,-20.51,4.76,1729418393451.0,0.0
-1.806581,-4.926822,6.575477,-29.120001,-11.97,31.219999,1729418393471.0,0.0
-1.868794,-4.536791,2.598605,-37.029999,-31.780001,51.450001,1729418393491.0,0.0
-1.550549,-7.678568,-0.765703,-46.34,-48.439999,67.760002,1729418393511.0,0.0
-3.883551,-12.519248,-3.57727,-45.220001,-22.960001,65.379997,1729418393533.0,0.0
-6.522834,-21.879971,-3.115455,-26.67,23.73,18.129999,1729418393551.0,0.0
-7.939385,-20.145176,-3.649055,-0.35,48.580002,7.14,1729418393571.0,0.0
-6.008378,-11.880364,0.133998,54.810001,1.75,1.19,1729418393592.0,0.0
-3.929015,-10.150353,3.309274,59.709999,-1.12,-48.720001,1729418393612.0,0.0
-2.804388,-9.150154,2.438286,8.47,28.49,-78.190002,1729418393637.0,0.0
-1.734797,-6.482157,2.426322,0.98,32.549999,-70.279999,1729418393652.0,0.0
-0.564706,-2.366502,3.792624,15.96,19.74,-46.34,1729418393671.0,0.0
-0.253639,-1.105484,8.518449,40.040001,-7.84,-14.07,1729418393691.0,0.0
-0.624527,-3.096312,10.444671,4.41,-28.35,2.59,1729418393778.0,0.0
-1.361516,-3.917051,6.4678,-32.34,-26.74,27.299999,1729418393778.0,0.0
-1.330409,-4.663611,2.833102,-41.439999,-42.07,50.68,1729418393779.0,0.0
-1.119841,-7.518249,-0.827917,-53.970001,-54.18,68.739998,1729418393779.0,0.0
-3.036492,-12.976277,-4.9675,-59.220001,-16.24,63.0,1729418393791.0,0.0
-7.290931,-24.275187,-3.962514,-36.400002,30.030001,14.35,1729418393812.0,0.0
-8.008778,-20.042282,-2.828316,23.17,53.830002,0.07,1729418393840.0,0.0
-5.62074,-10.346564,1.081556,67.550003,-9.38,6.58,1729418393854.0,0.0
-3.739982,-9.738789,3.285345,33.459999,-2.66,-49.77,1729418393872.0,0.0
-4.067799,-13.507483,1.229911,-50.119999,43.610001,-94.150002,1729418393892.0,0.0
-3.65384,-12.985848,-0.607777,-48.02,59.360001,-97.790001,1729418393912.0,0.0
-1.880759,-6.987042,0.488136,-1.96,40.459999,-89.809998,1729418393932.0,0.0
-0.588634,-3.948158,4.09412,74.199997,30.73,-64.68,1729418393952.0,0.0
-0.823131,-0.215354,7.551748,116.690002,20.719999,-30.799999,1729418393971.0,0.0
-0.509671,-2.09372,8.073383,82.110001,-19.389999,-15.12,1729418393992.0,0.0
-0.387637,-4.85743,5.458029,25.76,-24.99,-0.7,1729418394015.0,0.0
-1.59362,-6.391229,4.587041,-13.79,-27.16,13.65,1729418394032.0,0.0
-2.617748,-7.695317,3.469593,-61.880001,-38.639999,14.91,1729418394051.0,0.0
-2.59382,-9.95175,2.06022,-84.769997,-44.799999,5.95,1729418394072.0,0.0
-2.502892,-10.863414,1.832902,-58.310001,-49.139999,5.46,1729418394090.0,0.0
-2.321038,-9.040084,2.017149,-20.93,-56.490002,13.440001,1729418394111.0,0.0
-1.150948,-7.946564,2.299503,-1.54,-68.040001,23.799999,1729418394132.0,0.0
-1.325624,-7.925028,3.445665,13.58,-80.360001,49.279999,1729418394151.0,0.0
-2.045863,-9.099905,3.814159,-24.08,-74.830002,40.110001,1729418394171.0,0.0
-3.146562,-9.468399,3.06042,-141.75,-64.330002,22.190001,1729418394192.0,0.0
-2.979064,-11.507084,0.301496,-228.130005,-75.110001,25.83,1729418394211.0,0.0
-2.388037,-10.380065,-0.31346,-240.940002,-77.07,24.43,1729418394233.0,0.0
-0.863809,-8.492127,-1.471586,-256.339996,-50.189999,8.61,1729418394252.0,0.0
-0.727418,-7.240681,-3.002992,-309.820007,-10.71,-5.53,1729418394270.0,0.0
-1.141376,-6.503692,-5.4341,-394.450012,18.200001,-30.030001,1729418394291.0,0.0
-0.430708,-10.229317,-10.822738,-413.559998,75.809998,-36.959999,1729418394312.0,0.0
-0.72024,-11.483156,-9.635897,-329.700012,43.889999,-43.959999,1729418394331.0,0.0
-0.674776,-9.925428,-8.762517,-246.610001,27.370001,-20.02,1729418394351.0,0.0
-0.308674,-8.130811,-7.633104,-195.300003,27.93,-12.67,1729418394371.0,0.0
-1.392623,-9.425328,-5.711668,-154.070007,37.66,4.55,1729418394390.0,0.0
-2.316252,-7.908278,-4.943572,-130.830002,33.529999,12.46,1729418394419.0,0.0
-1.98365,-4.685147,-5.912664,-110.669998,13.16,29.610001,1729418394433.0,0.0
-1.107877,-2.98385,-8.01117,-101.360001,4.2,35.07,1729418394451.0,0.0
-1.067199,-3.519842,-9.355937,-90.370003,24.290001,25.9,1729418394470.0,0.0
-2.404787,-5.788238,-9.820145,-95.340004,39.549999,30.940001,1729418394491.0,0.0
-2.163112,-8.642875,-10.817951,-81.900002,21.98,15.54,1729418394511.0,0.0
-0.552742,-10.121639,-12.014362,-39.830002,-11.41,-6.79,1729418394531.0,0.0
1.440479,-8.116454,-11.607583,44.939999,-14.63,-8.33,1729418394554.0,0.0
2.581856,-3.852444,-9.485149,93.099998,-17.5,-21.629999,1729418394570.0,0.0
2.62732,-2.866602,-6.063413,61.529999,-24.5,-58.170002,1729418394590.0,0.0
1.064806,-5.788238,-8.094919,-6.79,15.4,-62.16,1729418394612.0,0.0
-0.971486,-9.784252,-7.558927,-22.26,42.84,-70.279999,1729418394631.0,0.0
-0.509671,-6.491727,-5.781059,56.139999,17.219999,-29.75,1729418394651.0,0.0
-1.215554,-4.694718,-2.9336,68.949997,-20.23,-16.379999,1729418394671.0,0.0
-4.036692,-6.879365,-4.096512,35.279999,17.710001,-0.7,1729418394690.0,0.0
-5.962914,-8.300702,-5.659025,3.57,53.900002,5.53,1729418394712.0,0.0
-5.187639,-9.449257,-6.15434,25.9,24.639999,31.99,1729418394733.0,0.0
-3.065206,-8.341379,-5.036892,57.68,-7.14,43.330002,1729418394751.0,0.0
-1.222732,-6.4343,-6.362515,69.510002,0.49,47.599998,1729418394770.0,0.0
-0.732204,-5.395815,-6.125626,39.830002,12.6,50.889999,1729418394790.0,0.0
-0.827917,-6.362515,-6.407979,0.98,25.27,61.18,1729418394810.0,0.0
0.440279,-6.319445,-9.073583,-18.9,-6.86,75.879997,1729418394831.0,0.0
1.804188,-5.443672,-10.356135,10.22,-56.07,112.629997,1729418394853.0,0.0
2.67039,-2.108077,-10.676775,38.639999,-50.330002,113.470001,1729418394870.0,0.0
2.321038,-3.069991,-8.305488,14.91,-18.27,97.160004,1729418394890.0,0.0
-0.660419,-6.903293,-6.278766,-27.65,30.309999,56.490002,1729418394911.0,0.0
-3.278167,-10.114462,-9.24108,-52.290001,56.209999,-2.24,1729418394931.0,0.0
-3.663411,-10.191031,-11.25823,-41.02,23.309999,-35.630001,1729418394951.0,0.0
-0.059821,-6.259624,-8.642875,4.34,-31.92,-55.650002,1729418394970.0,0.0
0.583849,-5.331209,-5.960521,-10.15,-61.670002,-91.980003,1729418394990.0,0.0
1.067199,-3.658626,-8.583055,-58.939999,-36.540001,-105.629997,1729418395010.0,0.0
0.397209,-4.211368,-10.080962,-80.989998,4.69,-92.889999,1729418395033.0,0.0
-1.572084,-6.336195,-6.860222,-92.260002,25.34,-90.370003,1729418395050.0,0.0
-2.959922,-7.379465,-8.128418,-64.540001,31.5,-70.559998,1729418395070.0,0.0
-2.132005,-5.091926,-8.55434,-26.25,12.53,-16.59,1729418395090.0,0.0
-1.438086,-4.09412,-5.268995,-20.440001,-33.599998,3.08,1729418395110.0,0.0
-3.706482,-12.27518,-2.732604,-49.07,-3.78,26.18,1729418395131.0,0.0
-4.046263,-12.835101,-7.281359,-19.879999,24.99,21.0,1729418395151.0,0.0
-3.299703,-6.826723,-6.726225,77.769997,25.200001,37.170002,1729418395170.0,0.0
-2.833102,-4.481757,-6.376873,102.970001,24.15,63.209999,1729418395190.0,0.0
-3.086741,-6.192625,-6.381658,62.860001,13.58,63.279999,1729418395212.0,0.0
-3.014957,-8.449057,-7.56132,32.200001,3.99,68.389999,1729418395231.0,0.0
-1.112662,-7.802995,-10.047462,49.98,-24.5,68.25,1729418395250.0,0.0
1.605584,-7.001399,-10.49492,93.449997,-47.880001,98.279999,1729418395270.0,0.0
2.18704,-3.706482,-10.451849,114.169998,-48.93,127.82,1729418395290.0,0.0
1.847259,-0.244068,-10.095319,125.160004,2.17,108.080002,1729418395310.0,0.0
-2.706282,-2.787638,-4.45065,61.389999,40.529999,94.57,1729418395339.0,0.0
-4.04387,-7.45125,-6.920043,-39.27,47.599998,24.360001,1729418395351.0,0.0
-4.596612,-10.774881,-9.238688,-74.199997,29.26,-42.0,1729418395370.0,0.0
-2.761317,-8.472985,-9.186047,-46.689999,-14.77,-77.0,1729418395393.0,0.0
-1.258625,-6.585048,-6.326623,-36.610001,-53.200001,-93.800003,1729418395410.0,0.0
0.009571,-6.269196,-8.166703,-76.370003,-56.560001,-113.190002,1729418395431.0,0.0
1.048056,-3.323631,-11.246266,-116.270004,-33.110001,-111.370003,1729418395454.0,0.0
0.562313,-2.007578,-7.563712,-147.839996,-45.220001,-96.529999,1729418395470.0,0.0
-2.292324,-9.293723,-7.439285,-140.210007,12.18,-83.790001,1729418395490.0,0.0
-4.048656,-9.145369,-8.377272,-95.480003,62.369999,-79.449997,1729418395512.0,0.0
-3.615555,-4.407579,-6.534799,-39.34,12.67,-45.920002,1729418395534.0,0.0
-2.333002,-6.920043,-4.718646,3.64,-10.57,28.98,1729418395552.0,0.0
-2.845066,-12.533605,-5.355137,-47.32,-24.219999,12.95,1729418395571.0,0.0
-2.732604,-12.500106,-9.430114,10.57,23.379999,26.32,1729418395591.0,0.0
-2.739782,-2.225325,-6.238089,107.730003,26.6,37.799999,1729418395611.0,0.0
-3.381058,-5.15414,-5.69731,91.910004,39.48,63.490002,1729418395635.0,0.0
-3.503092,-8.628519,-5.268995,37.099998,5.11,62.09,1729418395652.0,0.0
-4.024727,-11.274981,-4.735396,58.59,-1.96,74.690002,1729418395671.0,0.0
-3.625126,-10.755738,-9.944571,92.400002,12.67,82.389999,1729418395692.0,0.0
-0.193819,-6.745367,-14.165509,150.779999,-8.12,91.489998,1729418395711.0,0.0
1.272982,-1.718047,-12.758532,191.449997,-43.330002,157.710007,1729418395731.0,0.0
2.557927,0.480957,-12.579069,199.779999,-33.529999,151.479996,1729418395753.0,0.0
-0.643669,-1.624727,-4.4674,167.720001,10.71,114.379997,1729418395774.0,0.0
-3.354738,-2.95035,-2.943172,33.110001,54.110001,45.920002,1729418395793.0,0.0
-5.814559,-8.551948,-4.053442,-92.470001,52.43,-18.27,1729418395814.0,0.0
-5.673382,-10.133603,-7.271788,-122.779999,12.74,-63.139999,1729418395835.0,0.0
-3.438486,-6.309873,-7.99442,-112.139999,-43.75,-93.239998,1729418395857.0,0.0
-1.057628,-6.809973,-6.209375,-109.550003,-70.699997,-124.599998,1729418395872.0,0.0
-0.744168,-7.716853,-6.104091,-159.809998,-69.650002,-138.460007,1729418395892.0,0.0
0.198604,-6.76451,-12.23211,-180.110001,-34.93,-137.830002,1729418395914.0,0.0
-1.124627,-5.245068,-7.724032,-91.209999,-10.64,-76.510002,1729418395935.0,0.0
-1.287339,-5.907879,-6.869793,-39.970001,12.46,-47.25,1729418395952.0,0.0
-2.007578,-5.029713,-5.223531,-95.760002,6.3,-39.549999,1729418395974.0,0.0
-2.770889,-8.52802,-9.564112,-88.269997,17.99,-22.469999,1729418395992.0,0.0
