acc_x,acc_y,acc_z,gyr_x,gyr_y,gyr_z,timestamp,label
-2.840281,-4.438686,-8.032705,36.119999,100.099998,-12.18,1729425025601.0,0.0
-1.801795,-5.223531,-6.321837,25.48,86.099998,-19.74,1729425025608.0,0.0
-0.29671,-5.95095,-5.101498,8.05,68.669998,-30.24,1729425025609.0,0.0
1.038485,-5.936593,-5.352744,6.93,49.349998,-29.82,1729425025610.0,0.0
2.48375,-4.912465,-4.847858,35.490002,29.75,-36.470001,1729425025628.0,0.0
3.270989,-4.618148,-3.909872,43.330002,2.24,-40.32,1729425025646.0,0.0
2.995814,-3.596412,-1.70369,15.54,-8.05,-36.330002,1729425025668.0,0.0
1.287339,-2.244468,-4.189832,8.89,-12.88,-10.5,1729425025687.0,0.0
0.933201,-2.423929,-5.929415,17.43,-29.82,-2.38,1729425025706.0,0.0
1.036092,-4.235296,-9.073583,16.1,-33.389999,14.42,1729425025726.0,0.0
1.519442,-6.130411,-11.073983,-10.15,-26.040001,22.049999,1729425025748.0,0.0
0.282353,-7.908278,-12.495319,-37.869999,12.32,34.650002,1729425025768.0,0.0
-0.607777,-9.501899,-11.090734,-34.790001,37.869999,38.920002,1729425025787.0,0.0
-0.51685,-7.960921,-8.408379,28.49,35.77,39.549999,1729425025806.0,0.0
-1.696511,-5.965307,-7.49432,110.879997,46.48,59.43,1729425025826.0,0.0
-1.986043,-6.01077,-6.453443,130.199997,46.27,55.510002,1729425025847.0,0.0
-0.997807,-5.692525,-5.182854,94.290001,28.07,45.990002,1729425025868.0,0.0
0.081356,-5.163712,-6.410372,59.220001,1.19,38.009998,1729425025887.0,0.0
-0.717847,-4.759324,-4.508078,46.900002,12.67,32.900002,1729425025906.0,0.0
-1.043271,-6.74776,-3.23031,36.259998,-5.32,28.280001,1729425025927.0,0.0
0.234497,-5.197211,-5.520242,-6.72,-60.549999,3.22,1729425025947.0,0.0
-1.550549,-5.893522,-7.130611,-135.240005,-49.349998,-9.8,1729425025967.0,0.0
-3.821337,-9.116654,-8.592626,-215.389999,-9.17,-27.719999,1729425025987.0,0.0
-3.503092,-9.365508,-12.126825,-194.460007,-9.73,-36.75,1729425026006.0,0.0
-2.794817,-8.389235,-13.777873,-38.57,-18.76,-9.94,1729425026026.0,0.0
-2.285146,-7.460821,-11.837293,66.639999,6.09,-0.98,1729425026050.0,0.0
-3.524628,-7.489535,-8.245667,73.360001,44.59,3.57,1729425026067.0,0.0
-3.5007,-6.549156,-6.175875,31.360001,38.639999,-14.7,1729425026086.0,0.0
-1.811367,-6.62094,-5.910272,8.12,-12.25,-28.77,1729425026106.0,0.0
-0.107677,-4.242475,-6.34098,-25.48,-37.450001,-45.990002,1729425026127.0,0.0
-1.20359,-2.249253,-5.010571,-36.82,-12.88,-41.299999,1729425026148.0,0.0
-1.136591,-3.888337,-6.113662,-15.05,-30.309999,-32.27,1729425026169.0,0.0
0.79681,-1.978864,-7.056434,-8.12,-63.349998,-18.969999,1729425026186.0,0.0
0.562313,-1.174876,-6.979864,0.84,-44.099998,20.860001,1729425026206.0,0.0
-2.244468,-2.701497,-8.271988,-10.85,6.86,46.130001,1729425026227.0,0.0
-4.960321,-4.579862,-12.279965,-27.440001,38.849998,57.75,1729425026246.0,0.0
-3.852444,-7.085148,-12.361321,-41.860001,30.450001,54.670002,1729425026267.0,0.0
-0.174676,-9.65504,-10.370493,-22.120001,6.3,58.73,1729425026287.0,0.0
-0.311067,-9.415757,-9.62154,12.88,38.5,19.67,1729425026308.0,0.0
-1.964507,-9.60479,-7.290931,28.98,50.889999,-8.96,1729425026326.0,0.0
-3.034099,-7.453642,-6.439085,23.940001,36.330002,-34.93,1729425026348.0,0.0
-2.502892,-7.046863,-6.999006,18.620001,-1.82,-52.709999,1729425026367.0,0.0
-1.725225,-4.900501,-8.549555,2.52,-12.67,-66.849998,1729425026386.0,0.0
-2.734996,-3.105884,-6.24766,-10.22,5.46,-61.880001,1729425026407.0,0.0
-2.24686,-5.982057,-6.869793,-28.84,-12.46,-58.450001,1729425026428.0,0.0
0.40678,-4.285545,-7.523034,-46.549999,-47.040001,-56.0,1729425026447.0,0.0
1.019342,-1.459622,-8.161918,-17.360001,-31.57,-22.469999,1729425026467.0,0.0
-0.569492,-1.174876,-8.389235,-10.71,8.26,5.74,1729425026486.0,0.0
-1.70369,-4.62054,-10.729417,-12.67,28.91,29.68,1729425026506.0,0.0
-0.758525,-5.374279,-11.272588,-19.18,24.5,45.920002,1729425026530.0,0.0
0.014357,-6.209375,-10.253245,-5.11,26.25,59.080002,1729425026547.0,0.0
-0.301496,-7.530212,-8.82473,20.93,40.529999,47.32,1729425026567.0,0.0
-1.308874,-8.173882,-9.219545,28.98,49.420002,29.889999,1729425026587.0,0.0
-1.555335,-8.85105,-7.77428,38.290001,35.139999,8.05,1729425026606.0,0.0
-1.629512,-6.994221,-6.774081,27.09,18.129999,-15.05,1729425026626.0,0.0
-1.835295,-6.465407,-7.515855,-2.73,-0.56,-50.610001,1729425026647.0,0.0
-1.919044,-4.776074,-6.845865,-5.11,-6.79,-57.68,1729425026667.0,0.0
-2.371287,-3.524628,-6.139983,-17.01,-10.43,-55.860001,1729425026686.0,0.0
-1.794617,-5.647062,-6.977471,-32.200001,-26.25,-57.68,1729425026707.0,0.0
-0.734596,-3.314059,-7.125826,-28.280001,-32.900002,-46.689999,1729425026726.0,0.0
-0.131605,-1.244268,-8.535198,-12.81,-30.17,-20.58,1729425026746.0,0.0
0.323031,-1.603191,-8.169096,-10.43,-26.32,4.34,1729425026769.0,0.0
0.083749,-3.215954,-9.760324,-2.73,-8.89,32.27,1729425026785.0,0.0
-0.232104,-4.338188,-11.550155,0.42,7.77,44.310001,1729425026806.0,0.0
-0.342174,-4.890929,-11.076375,-11.27,21.139999,50.75,1729425026826.0,0.0
-0.57667,-5.845665,-10.07139,-11.06,32.900002,52.779999,1729425026846.0,0.0
-0.952343,-7.664211,-8.350951,12.25,32.48,47.529999,1729425026866.0,0.0
-2.146362,-7.929814,-7.13779,39.34,36.959999,31.15,1729425026887.0,0.0
-2.770889,-7.45125,-7.635497,37.380001,25.969999,9.31,1729425026905.0,0.0
-2.081756,-7.709675,-7.365108,14.0,0.07,-9.87,1729425026925.0,0.0
-1.368695,-6.943972,-7.123433,3.36,-13.72,-25.83,1729425026948.0,0.0
-1.375873,-4.163511,-8.573483,6.16,-17.639999,-37.240002,1729425026967.0,0.0
-1.72044,-3.091527,-8.30788,-7.77,-10.85,-33.040001,1729425026986.0,0.0
-2.333002,-4.240082,-8.140383,-20.860001,-3.71,-22.120001,1729425027006.0,0.0
-1.380659,-6.080163,-8.26481,-24.43,-15.26,-20.299999,1729425027025.0,0.0
0.09332,-4.378866,-7.826923,-9.03,-27.02,-14.0,1729425027050.0,0.0
0.775275,-2.813959,-7.597212,-2.87,-24.92,-7.63,1729425027067.0,0.0
0.696311,-2.165504,-7.582855,-17.15,-20.860001,4.62,1729425027086.0,0.0
-0.507278,-3.962514,-9.085547,-21.07,-6.09,22.960001,1729425027105.0,0.0
-0.842274,-5.888737,-11.12184,-29.049999,3.57,25.690001,1729425027126.0,0.0
-0.698704,-5.816952,-10.614561,-20.440001,10.92,35.139999,1729425027146.0,0.0
-0.550349,-6.393622,-9.590433,-4.76,14.56,39.970001,1729425027166.0,0.0
-0.978664,-7.209574,-7.936993,14.35,20.370001,30.24,1729425027186.0,0.0
-1.816152,-7.683353,-8.413164,30.799999,22.190001,17.360001,1729425027205.0,0.0
-1.526621,-8.061419,-9.339187,19.879999,10.15,-2.38,1729425027225.0,0.0
-1.308874,-8.154739,-8.343772,7.56,3.78,-17.290001,1729425027247.0,0.0
-1.612763,-7.216753,-7.587641,7.28,6.09,-34.720001,1729425027268.0,0.0
-1.543371,-5.678168,-9.059227,11.41,-2.38,-47.040001,1729425027286.0,0.0
-1.311267,-4.352544,-8.425128,7.35,-3.29,-50.75,1729425027306.0,0.0
-1.68694,-3.852444,-7.022934,4.83,3.57,-45.920002,1729425027325.0,0.0
-1.172483,-4.977071,-7.195218,-6.79,-7.7,-44.869999,1729425027346.0,0.0
0.069392,-3.148954,-7.37468,-9.45,-20.299999,-37.939999,1729425027368.0,0.0
0.270389,-1.318445,-6.855437,-6.23,-16.940001,-18.690001,1729425027387.0,0.0
-0.224925,-0.844666,-6.805188,-9.52,-11.41,-0.49,1729425027405.0,0.0
-1.339981,-2.620141,-8.547162,-8.54,-3.22,21.35,1729425027425.0,0.0
-0.921237,-4.345366,-11.131411,-21.280001,-4.27,25.76,1729425027446.0,0.0
-0.380459,-5.4341,-10.413565,-27.370001,3.92,33.880001,1729425027467.0,0.0
-0.071785,-6.494121,-9.363115,-20.16,7.14,31.219999,1729425027486.0,0.0
-0.550349,-6.740582,-7.783852,7.0,12.81,25.200001,1729425027505.0,0.0
-1.639083,-7.209574,-8.037491,31.99,14.77,16.1,1729425027525.0,0.0
-1.713261,-7.245467,-8.68116,22.82,4.69,-0.91,1729425027547.0,0.0
-1.268196,-7.898707,-8.958728,-6.51,-7.91,-11.62,1729425027567.0,0.0
-1.397408,-8.267202,-7.9346,-2.73,-6.37,-26.950001,1729425027586.0,0.0
-1.868794,-5.711668,-8.142776,12.32,-3.08,-40.18,1729425027606.0,0.0
-1.304088,-3.632305,-9.253045,20.370001,-14.28,-40.880001,1729425027626.0,0.0
-1.462015,-4.074977,-8.394022,-5.81,-7.0,-32.34,1729425027646.0,0.0
-1.225125,-5.067998,-8.60459,-15.68,-4.2,-30.24,1729425027667.0,0.0
-0.732204,-4.366901,-8.082954,2.45,-7.42,-19.950001,1729425027686.0,0.0
0.083749,-3.282953,-7.657032,7.14,-11.55,-13.58,1729425027705.0,0.0
0.928415,-3.20399,-7.501499,-9.17,-15.89,-5.6,1729425027726.0,0.0
1.172483,-3.141776,-7.877172,-21.77,-14.0,8.26,1729425027745.0,0.0
0.27996,-3.9673,-8.561519,-10.01,-2.45,24.99,1729425027767.0,0.0
-0.830309,-4.608576,-11.01177,-10.22,13.3,29.469999,1729425027786.0,0.0
-1.596013,-4.821537,-10.789237,-10.64,24.219999,36.68,1729425027805.0,0.0
-1.744368,-6.288338,-9.075976,-10.29,26.950001,40.810001,1729425027825.0,0.0
-1.258625,-6.91765,-7.762317,1.47,20.65,31.01,1729425027846.0,0.0
-1.524228,-7.293324,-7.67139,14.7,17.08,19.460001,1729425027866.0,0.0
-1.627119,-7.664211,-8.762517,18.9,9.1,-1.12,1729425027885.0,0.0
-1.222732,-7.601997,-8.422735,9.73,0.07,-13.02,1729425027905.0,0.0
-0.770489,-7.106683,-7.798209,5.04,-9.03,-22.469999,1729425027925.0,0.0
-1.136591,-6.374479,-7.487142,5.95,-5.25,-35.0,1729425027946.0,0.0
-1.272982,-4.201797,-8.910872,9.24,-14.35,-38.709999,1729425027967.0,0.0
-1.978864,-4.713861,-8.145168,-18.9,-9.73,-37.869999,1729425027986.0,0.0
-2.033899,-6.204589,-9.296116,-30.940001,-6.86,-36.82,1729425028006.0,0.0
-0.9667,-5.405386,-8.391629,-4.48,-15.47,-31.710001,1729425028025.0,0.0
0.114855,-3.431308,-8.140383,12.81,-19.32,-22.469999,1729425028049.0,0.0
0.751346,-2.471786,-7.704889,4.34,-14.63,-13.02,1729425028068.0,0.0
-0.031107,-2.804388,-8.200203,7.56,-0.21,11.48,1729425028086.0,0.0
-0.57667,-3.720839,-9.016156,17.15,6.93,26.040001,1729425028105.0,0.0
-0.605384,-4.565506,-11.200804,10.92,11.76,33.880001,1729425028125.0,0.0
-0.0335,-5.309673,-10.597812,-2.03,15.68,36.470001,1729425028146.0,0.0
0.0335,-5.505885,-9.729217,-8.47,25.129999,32.619999,1729425028167.0,0.0
-0.370888,-5.716454,-8.070991,8.26,25.83,32.759998,1729425028185.0,0.0
-1.270589,-5.706882,-7.190433,22.469999,32.34,25.129999,1729425028205.0,0.0
-2.005185,-7.106683,-7.980063,31.85,27.51,17.08,1729425028225.0,0.0
-1.648655,-7.635497,-8.135597,20.23,12.67,2.03,1729425028245.0,0.0
-1.40698,-7.063612,-6.45105,7.63,4.41,-10.92,1729425028266.0,0.0
-1.478764,-6.319445,-6.865008,3.5,-4.55,-26.880001,1729425028286.0,0.0
-1.677369,-4.776074,-7.52782,3.57,-16.1,-36.259998,1729425028305.0,0.0
-1.718047,-4.307081,-8.504091,-5.67,-23.52,-35.91,1729425028325.0,0.0
-1.713261,-5.398208,-8.877372,-21.35,-22.960001,-32.200001,1729425028345.0,0.0
-1.067199,-6.113662,-9.497113,-28.630001,-21.49,-29.26,1729425028366.0,0.0
-0.224925,-3.677768,-8.597411,-13.58,-16.030001,-20.58,1729425028386.0,0.0
0.681954,-3.565305,-8.647661,1.05,-18.48,-7.56,1729425028405.0,0.0
1.639083,-3.462414,-9.724431,-6.37,-13.72,4.83,1729425028425.0,0.0
1.17009,-3.974478,-8.781659,1.47,6.02,26.809999,1729425028446.0,0.0
-0.004786,-4.510471,-8.989835,23.940001,25.200001,39.48,1729425028467.0,0.0
-1.026521,-4.108476,-10.892128,20.860001,38.709999,46.27,1729425028485.0,0.0
-1.081556,-4.642076,-9.994821,5.46,36.400002,52.220001,1729425028505.0,0.0
-1.143769,-6.939186,-7.590034,-1.82,36.189999,52.779999,1729425028525.0,0.0
-2.050649,-7.862815,-6.558727,-0.14,38.920002,38.990002,1729425028546.0,0.0
-2.620141,-8.980263,-8.063812,14.84,27.65,17.92,1729425028567.0,0.0
-2.07697,-8.657232,-7.69771,15.75,9.73,-4.55,1729425028586.0,0.0
-1.043271,-7.192825,-6.812366,4.41,-6.37,-22.26,1729425028605.0,0.0
-0.624527,-6.525227,-6.788438,1.05,-15.61,-38.360001,1729425028627.0,0.0
-1.18684,-4.675575,-7.606783,-3.92,-18.620001,-49.139999,1729425028646.0,0.0
-1.502693,-5.716454,-7.951349,-22.960001,-21.629999,-50.259998,1729425028666.0,0.0
-0.899701,-5.647062,-9.518648,-25.41,-25.34,-48.93,1729425028685.0,0.0
-0.253639,-3.622734,-9.164511,3.36,-22.26,-35.349998,1729425028704.0,0.0
-0.131605,-4.029513,-8.65484,23.870001,-12.88,-21.139999,1729425028724.0,0.0
0.605384,-2.754139,-8.506484,16.450001,-9.1,-12.32,1729425028746.0,0.0
0.399601,-3.505485,-8.025528,24.92,-1.89,13.72,1729425028766.0,0.0
-0.064606,-3.802195,-7.999206,24.290001,2.24,26.6,1729425028784.0,0.0
-1.182054,-3.713661,-9.657433,25.48,14.84,42.139999,1729425028805.0,0.0
-1.356731,-4.701896,-10.487741,-8.54,19.18,46.41,1729425028824.0,0.0
-0.887737,-6.38405,-10.351351,-24.85,19.530001,48.650002,1729425028845.0,0.0
-1.122234,-6.575477,-7.472785,-6.09,28.42,53.760002,1729425028866.0,0.0
-2.251646,-6.733403,-6.520442,10.64,32.900002,46.619999,1729425028884.0,0.0
-2.529213,-9.025726,-9.422935,21.49,20.02,29.960001,1729425028904.0,0.0
-1.770689,-8.573483,-8.547162,8.05,12.04,8.4,1729425028925.0,0.0
-1.253839,-7.140182,-6.707082,2.73,4.9,-6.65,1729425028946.0,0.0
-1.17009,-6.498906,-7.216753,-8.33,-1.82,-27.93,1729425028967.0,0.0
-0.887737,-6.422336,-8.032705,4.83,-18.27,-43.889999,1729425028985.0,0.0
-0.62692,-5.814559,-9.016156,3.64,-16.24,-49.560001,1729425029005.0,0.0
-0.844666,-4.65404,-8.226524,-0.63,-4.62,-45.220001,1729425029026.0,0.0
-0.933201,-4.311867,-7.566105,4.27,-1.47,-38.220001,1729425029050.0,0.0
-0.598206,-4.833502,-7.233503,11.48,-7.77,-26.6,1729425029067.0,0.0
0.143569,-4.139583,-6.872187,7.98,-14.28,-22.610001,1729425029085.0,0.0
0.586242,-3.766303,-7.24786,-4.27,-19.32,-10.71,1729425029105.0,0.0
0.655633,-5.233103,-8.181061,-17.99,-21.559999,-2.1,1729425029125.0,0.0
0.074178,-6.072984,-9.209974,-23.379999,-11.48,1.33,1729425029145.0,0.0
-1.136591,-5.871986,-9.96132,2.59,8.12,10.71,1729425029166.0,0.0
-1.871187,-5.699703,-9.08794,11.27,16.73,16.24,1729425029185.0,0.0
-1.201197,-5.91745,-9.958927,-10.57,13.93,15.54,1729425029205.0,0.0
-0.591027,-6.479764,-8.776874,-14.21,12.11,19.460001,1729425029225.0,0.0
-0.859023,-5.761917,-7.594819,11.41,20.299999,22.049999,1729425029245.0,0.0
-1.916651,-5.989235,-7.628319,31.780001,28.559999,22.75,1729425029265.0,0.0
-2.242075,-7.054041,-9.626326,45.779999,25.34,17.08,1729425029286.0,0.0
-1.380659,-7.283752,-8.585447,40.880001,18.620001,7.49,1729425029306.0,0.0
-1.421337,-6.12084,-6.273981,19.809999,20.299999,-13.51,1729425029325.0,0.0
-1.579263,-4.979464,-6.242875,23.59,6.58,-23.1,1729425029345.0,0.0
-0.629312,-5.663811,-8.195417,23.030001,-17.43,-28.42,1729425029365.0,0.0
1.411765,-5.240282,-10.669596,25.059999,-30.24,-27.65,1729425029386.0,0.0
2.672783,-2.833102,-11.519048,43.259998,-22.469999,-14.49,1729425029405.0,0.0
1.550549,-4.943572,-6.331409,42.98,27.719999,-2.73,1729425029424.0,0.0
1.265803,-8.061419,-4.65404,-11.2,25.059999,-12.53,1729425029446.0,0.0
2.440679,-6.69751,-5.376673,-51.869999,-14.21,-25.27,1729425029466.0,0.0
2.151148,-3.481557,-2.177469,-61.32,-21.210001,-14.14,1729425029486.0,0.0
-1.20359,-3.438486,-3.672983,-77.629997,-4.06,3.85,1729425029504.0,0.0
-3.605984,-8.181061,-7.606783,-45.990002,-9.59,1.68,1729425029525.0,0.0
-4.082155,-8.595018,-10.04507,-37.52,4.27,13.58,1729425029545.0,0.0
-3.579663,-9.346365,-9.535398,39.759998,-2.17,44.66,1729425029566.0,0.0
-2.036292,-8.537591,-9.803394,93.309998,-16.73,52.150002,1729425029586.0,0.0
-1.342373,-8.927622,-7.073184,135.029999,-8.89,52.290001,1729425029604.0,0.0
-1.959722,-10.731809,-7.475177,194.949997,17.01,57.260002,1729425029625.0,0.0
-2.141576,-11.473583,-4.888536,312.269989,15.82,63.490002,1729425029645.0,0.0
-1.835295,-14.208582,-5.627919,545.090027,-3.99,70.0,1729425029666.0,0.0
-1.167697,-13.607983,-7.645068,665.070007,-29.82,55.439999,1729425029685.0,0.0
-0.591027,-11.863614,-6.616155,711.47998,-18.129999,44.939999,1729425029704.0,0.0
-0.251246,-8.882158,-3.615555,655.340027,6.3,33.880001,1729425029724.0,0.0
0.026321,-5.828916,1.636691,552.22998,16.309999,25.059999,1729425029745.0,0.0
-0.368495,-5.410172,5.209175,436.309998,8.4,20.370001,1729425029768.0,0.0
-0.923629,-5.742774,5.807381,328.860016,-11.41,9.59,1729425029783.0,0.0
-1.37348,-7.262216,6.874579,246.190002,-29.960001,8.89,1729425029804.0,0.0
-1.655833,-7.716853,6.063413,159.320007,-26.040001,-0.21,1729425029824.0,0.0
-1.67019,-7.661818,5.285746,103.389999,-23.52,-9.38,1729425029844.0,0.0
-0.732204,-6.76451,4.811966,87.57,-31.15,-12.11,1729425029866.0,0.0
-1.012164,-6.343372,5.821737,87.360001,-15.61,-14.14,1729425029885.0,0.0
-2.679961,-5.62074,4.969893,70.629997,13.16,-32.900002,1729425029904.0,0.0
-3.76391,-3.957729,5.493921,75.110001,29.190001,-27.370001,1729425029924.0,0.0
-2.730211,-2.672783,6.769295,74.970001,29.610001,-14.28,1729425029945.0,0.0
-1.22034,-1.12702,6.18784,27.23,31.85,-36.959999,1729425029965.0,0.0
-1.189233,-0.358923,6.360123,8.47,38.5,-7.77,1729425029984.0,0.0
-1.332802,0.119641,7.283752,8.47,53.200001,-11.27,1729425030005.0,0.0
-1.189233,0.045464,7.331609,-8.05,56.420002,-2.1,1729425030024.0,0.0
-1.024128,-0.949951,5.568098,-29.469999,56.91,6.09,1729425030048.0,0.0
-0.691526,-0.143569,4.972286,-30.1,59.849998,28.210001,1729425030067.0,0.0
-1.677369,-0.227318,4.500899,-15.89,66.360001,57.470001,1729425030084.0,0.0
-3.919443,-3.04367,5.931807,-36.049999,74.830002,68.529999,1729425030105.0,0.0
-6.745367,-9.525827,7.491928,-56.490002,67.269997,61.950001,1729425030124.0,0.0
-13.162917,-14.751752,8.159525,-54.810001,33.459999,20.51,1729425030146.0,0.0
-1.785046,-9.702895,13.514663,14.35,-107.029999,-69.300003,1729425030165.0,0.0
1.122234,-7.458428,11.270195,-47.670002,-62.860001,134.470001,1729425030185.0,0.0
-1.509871,-11.449656,8.614161,-108.010002,51.240002,15.12,1729425030292.0,0.0
-4.328616,-10.358529,7.006185,-24.01,54.740002,-85.470001,1729425030296.0,0.0
-10.107283,-6.56112,6.54437,62.650002,67.900002,-43.889999,1729425030299.0,0.0
-9.049655,-2.880959,7.872386,81.480003,20.790001,-6.23,1729425030301.0,0.0
-5.206782,-0.837488,7.989635,49.700001,-10.36,-26.460001,1729425030311.0,0.0
-3.818945,-0.648455,6.541977,-4.41,-1.54,-19.530001,1729425030313.0,0.0
-3.878766,-4.510471,7.898707,-71.400002,13.440001,12.88,1729425030353.0,0.0
-3.529413,-5.893522,7.67139,-84.0,7.91,9.24,1729425030353.0,0.0
-3.785445,-7.879565,6.908078,-41.299999,14.49,25.620001,1729425030390.0,0.0
-3.491128,-6.329016,6.259624,-8.75,23.799999,18.27,1729425030392.0,0.0
-2.376073,-4.522435,7.025328,26.18,22.190001,27.16,1729425030413.0,0.0
-0.949951,-4.680361,7.185646,33.389999,21.42,24.290001,1729425030423.0,0.0
-1.074377,-6.204589,6.943972,18.34,30.309999,18.9,1729425030443.0,0.0
-2.416751,-7.858029,4.845466,21.0,41.720001,23.030001,1729425030472.0,0.0
-3.117848,-8.315059,3.431308,36.470001,53.619999,17.780001,1729425030484.0,0.0
-3.5007,-7.62114,6.975078,64.68,55.510002,8.75,1729425030503.0,0.0
-5.295317,-8.906086,10.112068,96.809998,54.599998,3.99,1729425030525.0,0.0
-7.56132,-5.814559,10.676775,103.879997,52.220001,-29.68,1729425030645.0,0.0
-6.702296,-3.328416,8.300702,113.540001,36.75,-35.91,1729425030646.0,0.0
-6.297909,-3.062813,8.032705,101.220001,21.280001,-31.5,1729425030646.0,0.0
-7.180861,-2.955136,6.125626,48.580002,7.91,-39.970001,1729425030646.0,0.0
-7.207181,-2.751746,8.863015,8.12,-4.34,-45.150002,1729425030647.0,0.0
-4.977071,-2.584249,8.283953,21.210001,-0.84,-33.740002,1729425030665.0,0.0
-3.615555,-2.809174,7.647461,-19.25,-20.370001,-52.150002,1729425030683.0,0.0
-3.804588,-3.699304,8.262416,-31.43,-28.98,-26.18,1729425030704.0,0.0
-5.60399,-4.962714,7.573284,-35.279999,-24.780001,0.35,1729425030723.0,0.0
-5.194818,-2.679961,5.139783,-40.110001,-23.940001,-9.31,1729425030743.0,0.0
-3.562913,-0.22014,4.924429,10.29,-24.92,36.82,1729425030764.0,0.0
-2.029114,-0.088534,4.438686,-7.63,-28.42,30.380001,1729425030783.0,0.0
-2.141576,-2.337788,3.35713,-39.41,-6.72,32.619999,1729425030804.0,0.0
-3.318845,-3.361916,2.433501,-52.150002,21.84,47.950001,1729425030823.0,0.0
-4.378866,-5.960521,5.4006,-29.049999,23.309999,54.25,1729425030844.0,0.0
-6.970293,-10.179067,8.389235,-16.73,24.15,29.960001,1729425030865.0,0.0
-8.070991,-12.129218,10.597812,23.24,12.95,7.0,1729425030883.0,0.0
-6.91765,-8.097312,9.772287,45.779999,4.34,3.78,1729425030903.0,0.0
-4.642076,-5.32403,8.422735,31.710001,-11.2,-7.84,1729425030923.0,0.0
-4.21376,-5.302495,7.362715,-5.32,-11.27,-22.540001,1729425030943.0,0.0
-6.173482,-5.505885,6.266802,-24.639999,-3.08,-28.0,1729425030966.0,0.0
-4.606184,-2.634498,7.405786,-3.01,-12.46,-30.66,1729425030985.0,0.0
-3.505485,-1.667797,6.893722,-0.07,-11.41,-23.66,1729425031005.0,0.0
-3.888337,-2.136791,5.905487,-30.030001,1.12,-9.17,1729425031027.0,0.0
-5.986843,-3.445665,9.159724,-47.18,9.8,6.44,1729425031046.0,0.0
-7.111469,-4.821537,7.613962,-54.459999,0.63,-0.49,1729425031072.0,0.0
-5.795416,-3.400201,6.285945,-30.870001,-7.77,10.64,1729425031085.0,0.0
-3.438486,-2.756532,6.26441,-14.77,-23.66,31.780001,1729425031103.0,0.0
-1.792224,-3.136991,5.802595,-22.540001,-18.9,20.16,1729425031123.0,0.0
-2.100898,-4.563113,6.037091,-20.790001,4.41,32.549999,1729425031144.0,0.0
-4.295116,-8.250452,8.145168,-8.82,20.02,32.619999,1729425031164.0,0.0
-6.977471,-10.4016,9.183653,4.34,19.530001,3.15,1729425031185.0,0.0
-7.197611,-10.047462,10.329816,41.369999,1.33,-4.62,1729425031204.0,0.0
-4.955536,-5.943772,8.413164,51.73,-14.98,-19.25,1729425031222.0,0.0
-2.63689,-3.842873,6.977471,38.990002,-25.969999,-19.879999,1729425031243.0,0.0
-2.48375,-3.512664,6.788438,17.57,-18.9,-23.1,1729425031270.0,0.0
-4.785645,-4.584648,6.537192,4.69,-6.86,-26.809999,1729425031495.0,0.0
-5.168497,-4.383651,6.087341,20.58,-12.39,-31.08,1729425031496.0,0.0
-2.651247,-2.610569,8.085347,38.220001,-20.16,-28.77,1729425031496.0,0.0
-2.165504,-2.498107,5.345565,-13.37,-4.2,-29.26,1729425031496.0,0.0
-3.098706,-1.909473,4.639683,-38.43,15.12,-10.85,1729425031496.0,0.0
-5.223531,-4.323831,8.126025,-40.670002,20.299999,6.02,1729425031496.0,0.0
-6.652047,-6.113662,7.429714,-38.779999,12.39,-12.67,1729425031497.0,0.0
-6.979864,-4.244867,6.032306,-1.96,23.030001,11.55,1729425031497.0,0.0
-4.890929,-1.68694,6.888937,24.08,3.57,41.650002,1729425031497.0,0.0
-3.0006,-2.708675,7.235896,1.75,-11.2,30.870001,1729425031497.0,0.0
-3.732803,-5.659025,6.345766,-35.630001,12.11,28.630001,1729425031498.0,0.0
-5.910272,-8.949157,7.460821,-30.24,19.18,32.759998,1729425031502.0,0.0
-6.977471,-10.439885,8.68116,-2.45,12.53,8.54,1729425031523.0,0.0
-5.974878,-8.963513,9.485149,40.389999,5.18,-7.91,1729425031542.0,0.0
-4.582255,-5.903094,8.614161,61.810001,-1.47,-16.940001,1729425031574.0,0.0
-3.177669,-4.06062,7.546963,51.52,-8.26,-24.08,1729425031585.0,0.0
-2.70389,-3.622734,6.929615,31.780001,-12.11,-21.629999,1729425031603.0,0.0
-3.684947,-3.586841,6.855437,18.83,-2.94,-22.82,1729425031622.0,0.0
-5.115855,-4.24726,6.503692,10.22,1.54,-21.700001,1729425031649.0,0.0
-3.986443,-3.598805,6.463014,25.620001,-7.42,-33.25,1729425031663.0,0.0
-2.478964,-2.854637,7.716853,25.129999,-8.47,-28.700001,1729425031682.0,0.0
-2.301895,-1.579263,6.4678,-8.33,3.92,-25.83,1729425031702.0,0.0
-2.615355,-0.823131,5.429315,-32.689999,11.9,-6.72,1729425031722.0,0.0
-3.955336,-2.63689,7.377072,-41.93,20.23,17.57,1729425031742.0,0.0
-6.24766,-6.06102,7.814958,-47.880001,18.620001,5.18,1729425031763.0,0.0
-7.087541,-5.24746,6.245267,-26.880001,21.280001,7.91,1729425031783.0,0.0
-5.264209,-1.940579,7.211967,13.79,3.5,51.52,1729425031809.0,0.0
-2.68714,-0.914058,6.853044,1.82,-14.91,45.709999,1729425031822.0,0.0
-2.598605,-2.589034,6.649654,-26.6,-0.56,53.549999,1729425031844.0,0.0
-5.716454,-8.767302,7.77428,-42.07,15.54,67.970001,1729425031865.0,0.0
-8.35813,-12.698709,7.68096,-41.369999,12.25,16.870001,1729425031882.0,0.0
-8.051848,-12.811172,8.618947,23.1,-6.58,7.21,1729425031903.0,0.0
-5.618347,-6.786045,7.556533,61.32,-5.32,-16.379999,1729425031922.0,0.0
-3.084348,-3.134598,6.675975,61.32,-3.43,-23.940001,1729425031944.0,0.0
-2.459821,-2.713461,6.795617,38.080002,3.08,-28.91,1729425031963.0,0.0
-5.661418,-4.132405,6.750153,10.57,16.940001,-34.860001,1729425031982.0,0.0
-5.517848,-2.57707,7.556533,29.82,6.79,-25.48,1729425032002.0,0.0
-3.323631,-1.433301,7.592427,33.040001,-2.17,-24.219999,1729425032021.0,0.0
-3.139383,-1.988436,7.558927,-1.96,4.27,-20.65,1729425032046.0,0.0
-3.761517,-2.402394,6.183054,-36.959999,11.06,-8.61,1729425032063.0,0.0
-4.613362,-2.876173,6.273981,-51.170002,15.190001,3.78,1729425032082.0,0.0
-6.400801,-6.484549,6.929615,-49.91,11.2,-1.82,1729425032102.0,0.0
-7.049256,-5.924629,5.883951,-24.85,15.190001,-15.05,1729425032122.0,0.0
-5.630312,-1.942972,7.257431,30.450001,8.05,21.07,1729425032144.0,0.0
-3.445665,-0.26321,7.446464,36.330002,-7.42,25.690001,1729425032164.0,0.0
-3.026921,-1.658226,7.487142,5.74,-2.45,25.48,1729425032182.0,0.0
-4.981857,-6.472585,8.279166,-23.940001,5.25,38.990002,1729425032201.0,0.0
-7.192825,-9.341579,7.391429,-35.700001,0.98,10.57,1729425032222.0,0.0
-6.704689,-9.54497,8.185846,7.07,-12.46,6.72,1729425032242.0,0.0
-4.85743,-7.458428,8.240881,33.32,-17.15,-11.48,1729425032263.0,0.0
-3.26381,-5.515456,7.9681,41.93,-12.53,-23.030001,1729425032283.0,0.0
-2.340181,-3.598805,6.987042,36.400002,-12.81,-24.01,1729425032302.0,0.0
-5.048856,-4.752146,6.367301,22.33,-2.52,-18.969999,1729425032322.0,0.0
-6.783652,-5.099105,7.042077,15.89,-2.45,-27.790001,1729425032353.0,0.0
-4.173083,-2.242075,7.357929,47.950001,-16.379999,-30.870001,1729425032364.0,0.0
-2.505285,-2.507678,8.99462,34.299999,-10.22,-26.040001,1729425032384.0,0.0
-3.079563,-3.141776,6.695118,-25.83,6.58,-29.68,1729425032403.0,0.0
-4.189832,-3.342773,6.183054,-48.02,18.059999,-17.99,1729425032421.0,0.0
-4.185047,-2.9671,6.343372,-43.959999,14.98,-10.57,1729425032442.0,0.0
-6.161518,-4.697111,7.465607,-33.110001,18.200001,-3.36,1729425032464.0,0.0
-7.310073,-4.673182,7.317252,-15.54,21.98,-1.12,1729425032482.0,0.0
-5.06082,-1.182054,7.712067,10.71,4.27,14.84,1729425032502.0,0.0
-2.809174,-0.555135,7.568498,1.4,-14.0,25.41,1729425032526.0,0.0
-3.189633,-2.811567,6.795617,-35.07,-3.92,39.619999,1729425032543.0,0.0
-6.58744,-9.056834,8.525627,-51.029999,10.78,41.93,1729425032566.0,0.0
-9.023334,-11.52862,7.932207,-31.15,7.84,6.44,1729425032583.0,0.0
-7.04447,-9.444471,8.300702,24.639999,-11.06,-8.33,1729425032602.0,0.0
-4.371687,-5.974878,7.558927,45.57,-16.450001,-31.5,1729425032621.0,0.0
-2.612962,-3.440879,7.070791,43.259998,-14.56,-27.16,1729425032643.0,0.0
-3.050849,-2.993421,6.771688,36.889999,-6.23,-21.84,1729425032662.0,0.0
-5.702096,-4.256832,6.319445,13.86,6.79,-16.24,1729425032684.0,0.0
-6.087341,-4.328616,7.235896,27.58,-3.99,-20.16,1729425032702.0,0.0
-3.699304,-2.380858,6.661618,38.080002,-14.07,-23.17,1729425032722.0,0.0
-2.548356,-2.201397,7.920243,15.33,-7.35,-22.82,1729425032742.0,0.0
-2.914458,-2.117648,5.551349,-33.459999,8.68,-18.059999,1729425032765.0,0.0
-3.558127,-1.414158,4.455436,-53.970001,20.58,-3.22,1729425032782.0,0.0
-4.326223,-2.847459,7.32443,-45.009998,18.549999,15.05,1729425032803.0,0.0
-6.029913,-5.163712,7.735995,-42.139999,20.370001,3.5,1729425032822.0,0.0
-6.630512,-3.460021,6.436693,-21.49,26.110001,16.52,1729425032842.0,0.0
-4.790431,-1.246661,7.549356,5.53,4.97,46.549999,1729425032864.0,0.0
-2.79721,-2.103291,6.953543,-20.23,-10.08,41.93,1729425032882.0,0.0
-3.986443,-6.151947,7.188039,-59.57,9.17,50.959999,1729425032902.0,0.0
-7.752745,-11.925828,8.10449,-64.889999,15.33,36.259998,1729425032922.0,0.0
-9.037691,-12.256038,8.750552,-14.77,11.76,8.61,1729425032942.0,0.0
-7.427321,-9.150154,9.65504,38.920002,-7.21,-7.77,1729425032963.0,0.0
-4.328616,-5.300103,6.958328,38.009998,-16.030001,-40.950001,1729425032982.0,0.0
-2.734996,-3.589234,5.99402,34.509998,-21.77,-32.060001,1729425033003.0,0.0
-2.701497,-3.014957,6.293124,33.389999,-6.09,-32.689999,1729425033022.0,0.0
-5.039285,-3.833302,6.317052,11.83,8.89,-32.549999,1729425033045.0,0.0
-5.252246,-4.912465,6.814759,16.030001,-0.7,-34.23,1729425033064.0,0.0
-2.962314,-3.773481,6.78126,33.740002,-10.64,-39.48,1729425033081.0,0.0
-1.98365,-2.445465,7.546963,36.959999,-1.82,-28.98,1729425033101.0,0.0
-2.816352,-1.091127,6.302694,1.33,14.07,-21.139999,1729425033122.0,0.0
-3.314059,-0.667598,5.175675,-28.77,15.89,-7.77,1729425033142.0,0.0
-4.24726,-2.184647,6.668797,-46.200001,13.79,10.22,1729425033163.0,0.0
-6.218946,-4.465007,6.836295,-53.48,14.28,9.17,1729425033182.0,0.0
-7.183254,-4.912465,6.436693,-34.299999,15.96,11.34,1729425033201.0,0.0
-5.47717,-2.318645,6.821937,-10.99,3.15,32.130001,1729425033222.0,0.0
-3.261417,-2.419144,6.898508,-15.61,-15.26,41.16,1729425033242.0,0.0
-3.519842,-4.575077,6.537192,-46.27,-1.54,42.0,1729425033265.0,0.0
-7.267002,-10.435099,8.362915,-46.689999,12.32,46.27,1729425033282.0,0.0
-9.463614,-11.956935,7.336394,-15.26,11.13,11.62,1729425033302.0,0.0
-8.30788,-10.112068,9.030513,44.73,-3.08,0.56,1729425033322.0,0.0
-4.541577,-5.852845,8.202596,65.309998,-11.13,-32.900002,1729425033342.0,0.0
-3.689733,-3.589234,7.092326,57.82,-7.35,-20.790001,1729425033363.0,0.0
-3.591627,-3.737589,7.525427,30.030001,-7.56,-27.02,1729425033382.0,0.0
-5.347959,-5.4676,6.534799,-10.29,-3.64,-44.59,1729425033401.0,0.0
-5.67099,-6.12084,6.759724,5.04,-10.5,-45.220001,1729425033424.0,0.0
-2.943172,-3.335595,6.896115,39.27,-17.290001,-41.93,1729425033442.0,0.0
-2.309074,-2.895315,7.838887,38.360001,-7.63,-40.670002,1729425033463.0,0.0
-3.218346,-1.677369,6.386444,0.84,7.98,-42.77,1729425033482.0,0.0
-3.019742,-0.222532,4.936393,-13.58,6.58,-18.48,1729425033501.0,0.0
-3.163311,-0.215354,5.893522,-20.299999,5.95,1.61,1729425033522.0,0.0
-4.790431,-2.878566,7.235896,-31.219999,7.91,-2.45,1729425033542.0,0.0
-6.4678,-4.663611,6.262017,-30.380001,12.6,-1.96,1729425033566.0,0.0
-5.623133,-2.091327,6.13759,-2.1,8.26,22.82,1729425033583.0,0.0
-2.897708,-0.507278,6.946364,10.08,-15.47,38.009998,1729425033603.0,0.0
-1.399801,0.086142,5.046463,-26.32,-7.84,37.310001,1729425033621.0,0.0
-2.943172,-4.161119,6.685547,-50.330002,14.28,68.040001,1729425033643.0,0.0
-7.659425,-11.531013,7.168896,-62.650002,24.290001,52.57,1729425033663.0,0.0
-8.638089,-9.638289,8.513663,28.630001,5.88,38.5,1729425033682.0,0.0
-5.4341,-4.462614,9.71486,56.560001,-10.57,27.299999,1729425033702.0,0.0
-4.661219,-3.20399,9.789038,18.059999,-7.84,-0.07,1729425033723.0,0.0
-5.682954,-1.679761,9.415757,-23.24,-6.16,10.43,1729425033742.0,0.0
-5.898308,-0.014357,9.317651,-49.490002,-19.67,22.960001,1729425033764.0,0.0
-5.79063,0.574277,9.217153,-71.889999,-35.700001,38.5,1729425033783.0,0.0
-5.836094,-0.5001,8.085347,-108.989998,-51.240002,61.389999,1729425033801.0,0.0
-6.202196,-2.553142,7.219146,-158.899994,-55.16,71.82,1729425033821.0,0.0
-7.001399,-4.555934,6.288338,-227.080002,-49.420002,59.849998,1729425033849.0,0.0
-7.45125,-6.38405,4.527221,-317.869995,-47.18,37.799999,1729425033865.0,0.0
-7.319644,-9.741181,2.775674,-388.079987,-61.25,8.47,1729425033882.0,0.0
-6.494121,-12.796815,1.103091,-403.200012,-86.029999,-16.309999,1729425033901.0,0.0
-5.989235,-13.734802,3.28056,-390.459991,-82.949997,-36.68,1729425033921.0,0.0
-4.201797,-14.084153,-1.234696,-313.529999,-43.330002,-75.599998,1729425033942.0,0.0
-1.813759,-12.705888,-5.589634,-199.009995,-2.24,-96.529999,1729425033966.0,0.0
-0.256032,-12.591033,-6.721439,-88.760002,7.98,-81.340004,1729425034089.0,0.0
0.842274,-8.46102,-4.570292,-29.889999,25.969999,-71.610001,1729425034091.0,0.0
0.16989,-5.855237,-2.732604,44.66,124.879997,-55.510002,1729425034092.0,0.0
-1.083949,-4.125226,-0.961915,59.220001,155.610001,-42.630001,1729425034093.0,0.0
-2.206182,-4.663611,1.112662,50.75,139.649994,-30.1,1729425034098.0,0.0
-1.727618,-5.472386,1.940579,56.279999,91.699997,-14.84,1729425034098.0,0.0
-0.792024,-4.24726,4.146761,94.919998,48.720001,25.200001,1729425034101.0,0.0
-0.272782,-2.502892,6.436693,119.559998,35.77,45.43,1729425034121.0,0.0
-1.529014,0.323031,7.99442,61.950001,29.540001,63.07,1729425034186.0,0.0
-3.227918,0.5001,6.424729,-12.88,11.06,91.629997,1729425034187.0,0.0
-4.666004,-3.517449,4.462614,-95.830002,-19.6,117.739998,1729425034191.0,0.0
-7.858029,-10.475778,3.06042,-177.240005,-22.75,100.379997,1729425034201.0,0.0
-10.435099,-16.232908,-1.871187,-226.240005,1.19,36.259998,1729425034221.0,0.0
-12.964314,-21.360727,-5.075177,-210.279999,11.55,14.42,1729425034241.0,0.0
-9.925428,-20.872591,-5.965307,-76.090004,-5.25,-14.91,1729425034263.0,0.0
-7.401,-15.799807,-4.63729,44.939999,5.32,-3.92,1729425034281.0,0.0
-6.896115,-12.095718,-0.854238,134.680008,48.439999,-23.030001,1729425034300.0,0.0
-7.609176,-10.523634,2.134398,163.309998,56.84,-39.830002,1729425034321.0,0.0
-6.149554,-7.963314,1.567299,108.010002,39.900002,-57.75,1729425034341.0,0.0
-4.577469,-9.667004,-0.196211,59.5,8.68,-56.0,1729425034362.0,0.0
-2.54357,-8.865408,-0.143569,24.15,1.05,-76.93,1729425034381.0,0.0
-1.4668,-7.65464,0.701097,48.23,8.05,-60.900002,1729425034401.0,0.0
-1.134198,-7.056434,3.211168,84.629997,14.0,-51.170002,1729425034422.0,0.0
-1.316052,-5.046463,4.500899,89.809998,26.880001,-47.25,1729425034445.0,0.0
-1.153341,-1.837688,6.204589,82.949997,14.42,-34.16,1729425034461.0,0.0
-0.014357,0.019143,6.683154,72.449997,-24.780001,0.49,1729425034482.0,0.0
0.602991,-0.4666,5.816952,37.170002,-55.580002,30.24,1729425034501.0,0.0
0.284746,-0.550349,4.242475,-26.460001,-39.130001,42.0,1729425034521.0,0.0
-0.526421,-1.655833,1.773082,-66.150002,-23.66,69.230003,1729425034542.0,0.0
-1.57687,-5.534599,0.909273,-86.309998,-28.98,89.040001,1729425034566.0,0.0
-2.897708,-10.526026,2.328217,-110.110001,-14.84,80.290001,1729425034582.0,0.0
-5.45085,-14.964713,-1.339981,-124.25,20.09,69.580002,1729425034601.0,0.0
-7.958528,-15.749558,-6.458229,-111.300003,51.59,53.130001,1729425034622.0,0.0
-10.506885,-18.013168,-4.115655,-53.200001,68.040001,51.310001,1729425034641.0,0.0
-11.916256,-17.874384,1.131805,-24.92,46.759998,14.49,1729425034662.0,0.0
-10.430314,-15.25903,0.378066,60.830002,26.25,-26.460001,1729425034682.0,0.0
-8.956335,-11.497513,0.308674,49.490002,12.6,-57.82,1729425034702.0,0.0
-7.49432,-7.594819,-0.839881,33.32,22.190001,-72.730003,1729425034721.0,0.0
-5.125426,-5.132604,-1.328017,51.869999,-0.35,-69.790001,1729425034742.0,0.0
-2.644069,-5.493921,1.631905,85.400002,-27.58,-46.200001,1729425034762.0,0.0
-0.29671,-4.548756,4.486543,85.540001,-29.469999,-32.200001,1729425034783.0,0.0
0.617348,-3.481557,6.9344,91.0,-14.42,-16.59,1729425034801.0,0.0
-0.040678,-3.144169,6.666404,66.290001,-11.9,-2.73,1729425034820.0,0.0
-1.349552,-2.959922,4.867002,0.49,-13.02,9.17,1729425034843.0,0.0
-1.9669,-4.0008,3.048456,-71.190002,-20.93,24.08,1729425034864.0,0.0
-1.184447,-3.809374,0.9667,-124.809998,-41.439999,34.650002,1729425034881.0,0.0
-0.088534,-4.476971,0.050249,-110.459999,-59.920002,59.010002,1729425034902.0,0.0
-0.435494,-7.980063,1.447658,-79.590004,-59.57,75.32,1729425034921.0,0.0
-1.923829,-9.12144,1.713261,-85.260002,-28.700001,63.139999,1729425034942.0,0.0
-5.254639,-9.956534,0.014357,-36.049999,14.84,84.629997,1729425034966.0,0.0
-8.082954,-10.894521,-3.424129,-11.9,36.330002,89.25,1729425034982.0,0.0
-9.875179,-15.08914,-5.297709,-29.68,49.84,60.27,1729425035001.0,0.0
-12.141183,-17.821743,-3.381058,-51.170002,80.010002,-7.77,1729425035021.0,0.0
-11.538191,-17.075182,2.258825,72.730003,41.299999,-20.09,1729425035044.0,0.0
-9.497113,-12.526425,3.84048,119.840004,3.29,-32.619999,1729425035063.0,0.0
-7.9011,-7.625926,1.215554,69.720001,12.46,-62.790001,1729425035082.0,0.0
-6.369694,-7.331609,0.040678,36.82,11.41,-80.080002,1729425035101.0,0.0
-4.017549,-6.180661,0.090927,-10.57,-8.96,-85.610001,1729425035122.0,0.0
-2.127219,-6.623333,1.85683,22.68,-16.030001,-61.18,1729425035142.0,0.0
-0.803988,-6.809973,5.158926,38.5,-15.82,-50.75,1729425035162.0,0.0
-1.17009,-6.881758,6.314659,50.119999,3.92,-45.709999,1729425035181.0,0.0
-1.773082,-4.17069,6.352944,37.73,-7.0,-32.900002,1729425035201.0,0.0
-1.153341,-2.251646,5.345565,13.93,-41.09,-9.31,1729425035221.0,0.0
-0.428315,-3.278167,3.617948,-28.280001,-72.519997,15.12,1729425035241.0,0.0
-0.605384,-5.132604,1.615155,-83.019997,-62.720001,17.290001,1729425035262.0,0.0
-1.086342,-5.273781,0.42353,-101.360001,-37.73,25.549999,1729425035281.0,0.0
-1.684547,-6.07777,-0.270389,-70.07,-35.0,50.330002,1729425035301.0,0.0
-1.919044,-8.425128,1.141376,-38.360001,-35.77,62.09,1729425035322.0,0.0
-4.371687,-8.238488,1.45005,-29.610001,-14.7,65.519997,1729425035342.0,0.0
-7.389036,-8.829515,-3.132205,3.5,35.84,97.93,1729425035362.0,0.0
-10.679168,-10.887343,-5.118248,-21.700001,66.360001,84.139999,1729425035382.0,0.0
-11.68176,-14.955141,-5.852845,-51.170002,88.690002,23.379999,1729425035400.0,0.0
-11.827723,-14.821144,-3.835695,-38.220001,67.480003,6.79,1729425035421.0,0.0
-9.949356,-15.620347,1.363909,88.199997,21.139999,-5.88,1729425035440.0,0.0
-8.470592,-12.710674,3.541377,124.040001,3.15,-23.450001,1729425035465.0,0.0
-8.185846,-8.685946,2.065006,63.420002,28.42,-57.959999,1729425035482.0,0.0
-7.008578,-7.4345,0.035892,-10.92,31.01,-81.830002,1729425035502.0,0.0
-4.304688,-8.427521,-0.701097,-43.400002,-8.54,-86.519997,1729425035522.0,0.0
-1.811367,-8.894121,1.385444,-10.57,-21.98,-72.730003,1729425035605.0,0.0
-0.543171,-7.472785,3.299703,47.459999,-9.8,-52.920002,1729425035609.0,0.0
-0.392423,-4.95075,4.558327,76.860001,2.31,-38.360001,1729425035611.0,0.0
-0.562313,-3.144169,5.386244,65.169998,-3.71,-22.469999,1729425035612.0,0.0
-0.433101,-3.448057,4.393222,23.450001,-25.969999,-4.27,1729425035621.0,0.0
-0.916451,-5.242674,3.349952,-41.23,-35.420002,5.95,1729425035642.0,0.0
-2.237289,-6.417551,2.120041,-96.32,-14.42,6.23,1729425035662.0,0.0
-2.524428,-6.345766,-0.550349,-105.980003,-11.55,18.059999,1729425035681.0,0.0
-1.462015,-6.881758,-1.493121,-58.52,-47.740002,47.599998,1729425035701.0,0.0
-2.155933,-10.279566,-0.61017,-7.28,-24.57,60.549999,1729425035720.0,0.0
-5.218746,-11.88515,0.662812,36.400002,33.810001,55.369999,1729425035741.0,0.0
-8.506484,-9.329616,-1.643869,56.07,71.889999,60.34,1729425035761.0,0.0
-10.293922,-10.930414,-1.825724,36.540001,52.639999,54.25,1729425035780.0,0.0
-8.685946,-12.193825,-2.986243,-29.469999,17.85,7.28,1729425035800.0,0.0
-7.623533,-13.631909,-0.366102,4.2,12.04,2.66,1729425035822.0,0.0
-7.625926,-13.318451,4.012764,64.959999,9.8,-7.07,1729425035842.0,0.0
-8.690732,-10.681561,4.005585,54.810001,13.93,-32.27,1729425035861.0,0.0
-8.611769,-8.815158,0.765703,2.52,19.389999,-57.75,1729425035887.0,0.0
-6.352944,-8.865408,-1.179662,-39.41,-10.43,-68.669998,1729425035901.0,0.0
-3.361916,-9.219545,-0.98345,-42.349998,-40.670002,-71.540001,1729425035921.0,0.0
-1.629512,-8.389235,1.794617,9.73,-30.870001,-52.639999,1729425035942.0,0.0
-0.995414,-6.235696,3.177669,54.599998,-15.190001,-32.619999,1729425035962.0,0.0
-0.904487,-4.091727,4.048656,60.970001,-13.23,-14.49,1729425035981.0,0.0
-1.342373,-5.312066,3.854837,36.049999,-21.42,3.15,1729425036001.0,0.0
-1.914258,-6.250053,2.15354,-56.98,-14.21,4.41,1729425036021.0,0.0
-2.117648,-5.982057,0.468993,-89.669998,-7.49,15.47,1729425036044.0,0.0
-1.366302,-6.9344,0.258425,-79.730003,-29.469999,31.99,1729425036062.0,0.0
-1.100698,-9.128618,2.091327,-51.799999,-40.670002,36.68,1729425036082.0,0.0
-2.761317,-7.76471,2.641676,-9.66,-19.809999,43.119999,1729425036101.0,0.0
-5.989235,-7.779066,-0.79681,47.880001,9.24,73.43,1729425036121.0,0.0
-7.970492,-8.432307,-3.988836,6.72,24.92,59.990002,1729425036142.0,0.0
-9.152546,-12.753745,-5.520242,-58.099998,38.080002,30.59,1729425036164.0,0.0
-9.303294,-15.03889,-5.223531,-61.950001,48.580002,-7.35,1729425036183.0,0.0
-9.784252,-16.541582,0.882952,26.880001,31.710001,-15.54,1729425036201.0,0.0
-9.016156,-13.466805,3.996014,83.440002,7.98,-34.23,1729425036221.0,0.0
-8.226524,-9.183653,1.974079,62.93,9.8,-51.170002,1729425036253.0,0.0
-6.525227,-7.781459,-0.038285,14.7,0.77,-71.889999,1729425036263.0,0.0
-3.969693,-8.367701,-0.617348,-22.4,-26.67,-76.440002,1729425036282.0,0.0
-0.823131,-9.79143,2.347359,9.38,-33.950001,-65.660004,1729425036303.0,0.0
-0.753739,-7.946564,4.694718,69.230003,-9.24,-50.330002,1729425036321.0,0.0
-1.892723,-4.575077,4.254438,53.830002,10.43,-43.049999,1729425036342.0,0.0
-1.998007,-3.125026,3.692125,23.66,-5.88,-23.940001,1729425036364.0,0.0
-0.729811,-4.553542,2.878566,-5.81,-42.279999,-5.53,1729425036383.0,0.0
-0.124427,-6.642475,2.189433,-37.73,-36.68,1.05,1729425036402.0,0.0
-0.741775,-5.659025,1.684547,-47.040001,-3.15,9.59,1729425036423.0,0.0
-1.11027,-4.859823,0.038285,-18.549999,-2.31,35.91,1729425036443.0,0.0
-0.837488,-5.87438,-0.538385,-1.47,-19.32,54.459999,1729425036464.0,0.0
-2.514857,-9.930215,4.290331,10.5,0.77,57.470001,1729425036483.0,0.0
-6.326623,-10.547562,2.684747,-1.4,39.619999,54.040001,1729425036502.0,0.0
-8.035098,-7.814958,-4.197011,-34.509998,40.670002,59.639999,1729425036523.0,0.0
-8.329416,-12.236896,-5.261817,-85.330002,14.0,49.560001,1729425036544.0,0.0
-7.228717,-16.709082,-5.587241,-90.580002,18.34,-6.3,1729425036564.0,0.0
-7.989635,-18.132809,3.397808,26.530001,27.860001,-6.93,1729425036583.0,0.0
-8.999406,-10.703095,5.190032,156.240005,17.780001,-0.21,1729425036607.0,0.0
-9.06162,-7.874779,0.4666,72.099998,20.93,-40.599998,1729425036622.0,0.0
-7.001399,-7.025328,-1.036092,-39.130001,5.11,-69.440002,1729425036643.0,0.0
-3.852444,-10.633704,-0.870987,-41.93,-28.139999,-78.120003,1729425036664.0,0.0
-1.043271,-10.805987,1.840081,23.52,-34.580002,-68.18,1729425036683.0,0.0
-0.145962,-6.4343,3.235096,91.559998,-11.06,-43.189999,1729425036702.0,0.0
-0.18664,-3.182454,5.010571,102.269997,0.56,-23.309999,1729425036723.0,0.0
-0.181855,-3.48395,4.163511,82.18,-10.36,-7.28,1729425036743.0,0.0
-0.727418,-5.520242,2.971886,28.559999,-13.51,3.36,1729425036765.0,0.0
-1.715654,-5.661418,1.706082,-26.32,13.16,2.94,1729425036784.0,0.0
-2.033899,-4.831109,1.655833,-33.670002,15.26,19.74,1729425036802.0,0.0
-1.770689,-5.501099,2.845066,-7.98,-11.48,41.650002,1729425036822.0,0.0
-2.711068,-6.577869,4.587041,20.719999,-12.74,53.830002,1729425036844.0,0.0
-4.591826,-7.82453,4.539185,47.110001,0.91,62.790001,1729425036864.0,0.0
-5.709275,-7.063612,0.547956,2.94,5.67,66.43,1729425036883.0,0.0
-6.218946,-9.745967,-1.320838,-63.07,3.08,61.389999,1729425036904.0,0.0
-6.687939,-13.801801,-3.237489,-122.010002,18.27,29.190001,1729425036923.0,0.0
-8.635696,-16.79283,-0.430708,-52.639999,46.900002,-0.14,1729425036943.0,0.0
-9.097511,-14.88575,3.244668,61.18,30.66,-13.23,1729425036965.0,0.0
-9.236296,-11.205588,4.053442,106.68,16.1,-23.309999,1729425036983.0,0.0
-8.635696,-8.69791,2.203789,42.490002,19.32,-52.990002,1729425037003.0,0.0
-6.642475,-8.846266,-0.165105,-45.639999,4.55,-74.620003,1729425037023.0,0.0
-3.345166,-8.683553,-2.043471,-66.290001,-21.91,-80.220001,1729425037054.0,0.0
-0.181855,-9.901501,1.868794,47.32,-45.43,-49.98,1729425037065.0,0.0
1.758725,-6.025128,4.177868,138.460007,-45.43,-22.75,1729425037084.0,0.0
0.68674,-1.782653,7.298109,152.740005,-6.02,-10.01,1729425037103.0,0.0
-2.531606,-1.404587,6.558727,78.75,22.469999,-1.19,1729425037123.0,0.0
-4.54397,-3.098706,3.421736,-48.860001,15.89,5.11,1729425037145.0,0.0
-3.799802,-5.201996,0.976272,-137.550003,-9.31,7.98,1729425037164.0,0.0
-2.481357,-6.393622,1.749153,-135.800003,-33.040001,24.639999,1729425037183.0,0.0
-2.065006,-7.980063,2.787638,-89.18,-43.049999,48.580002,1729425037203.0,0.0
-3.103491,-8.46102,3.002992,-21.91,-27.93,53.970001,1729425037224.0,0.0
-4.175476,-6.98465,-2.151148,32.48,-8.05,71.610001,1729425037243.0,0.0
-4.82393,-8.341379,-2.409572,21.0,-5.53,84.349998,1729425037264.0,0.0
-6.250053,-13.48834,-4.359723,-109.199997,43.049999,32.200001,1729425037283.0,0.0
-8.018349,-16.266409,-3.694518,-114.660004,86.449997,3.78,1729425037303.0,0.0
-9.147761,-17.185251,2.419144,-18.620001,56.77,-13.58,1729425037323.0,0.0
-9.265009,-13.639089,3.76391,49.630001,14.07,-20.02,1729425037343.0,0.0
-8.35813,-10.028319,1.957329,26.110001,7.91,-53.27,1729425037364.0,0.0
-7.008578,-8.79123,-0.229711,-32.200001,-4.55,-70.910004,1729425037384.0,0.0
-4.48415,-9.200402,-1.933401,-67.269997,-23.17,-85.610001,1729425037403.0,0.0
-2.29711,-9.769895,1.002593,-20.65,-30.24,-76.510002,1729425037423.0,0.0
-0.693919,-8.69791,2.395216,65.519997,-34.369999,-53.689999,1729425037443.0,0.0
-1.287339,-5.613562,4.338188,92.260002,-10.64,-39.130001,1729425037463.0,0.0
-2.849852,-3.641876,4.498507,59.639999,14.0,-36.189999,1729425037483.0,0.0
-3.452843,-3.574877,3.871587,17.360001,2.03,-20.09,1729425037503.0,0.0
-2.605784,-4.993821,3.136991,-30.66,-30.940001,-2.45,1729425037523.0,0.0
-1.347159,-5.123034,1.887937,-59.849998,-37.029999,7.0,1729425037543.0,0.0
-0.600598,-4.759324,1.299303,-44.310001,-32.060001,32.830002,1729425037566.0,0.0
-0.356531,-5.965307,0.727418,-24.57,-32.619999,54.670002,1729425037583.0,0.0
-3.065206,-9.554541,2.883351,-12.46,-14.63,57.330002,1729425037603.0,0.0
-5.733203,-9.236296,-1.007378,-15.26,30.17,59.43,1729425037623.0,0.0
-7.144968,-9.456435,-2.522035,-44.099998,24.08,62.790001,1729425037643.0,0.0
-6.67119,-12.406786,-4.09412,-97.650002,12.88,34.509998,1729425037664.0,0.0
-5.845665,-13.49552,-4.642076,-92.470001,22.540001,5.25,1729425037684.0,0.0
-5.972485,-14.072189,-1.514657,3.36,29.26,12.53,1729425037703.0,0.0
-6.735795,-13.426127,2.794817,95.129997,22.610001,4.76,1729425037722.0,0.0
-8.65484,-11.62194,4.682754,79.730003,22.75,-18.41,1729425037745.0,0.0
-9.023334,-9.741181,0.488136,-8.61,26.18,-53.830002,1729425037764.0,0.0
-6.819544,-9.334401,-2.993421,-75.879997,0.28,-74.199997,1729425037783.0,0.0
-3.651447,-9.205189,-2.318645,-68.32,-32.900002,-69.93,1729425037803.0,0.0
-1.105484,-10.320245,0.598206,43.049999,-34.790001,-42.700001,1729425037822.0,0.0
-0.270389,-7.49432,3.862016,109.270004,-17.290001,-28.630001,1729425037842.0,0.0
-1.414158,-4.630112,5.893522,116.620003,11.06,-24.01,1729425037864.0,0.0
-2.9336,-4.407579,5.472386,69.300003,6.23,-16.59,1729425037883.0,0.0
-3.469593,-5.871986,3.120241,-16.030001,-15.4,-13.86,1729425037903.0,0.0
-2.833102,-6.905686,1.227518,-70.840004,-24.99,-6.16,1729425037931.0,0.0
-0.981057,-5.592027,0.224925,-70.840004,-33.459999,12.46,1729425037944.0,0.0
-0.308674,-7.01097,1.22034,-24.85,-47.740002,46.060001,1729425037966.0,0.0
-1.048056,-8.590233,3.15374,-33.25,-34.860001,42.420002,1729425037984.0,0.0
-3.122634,-7.829315,0.531207,-37.099998,-4.97,48.439999,1729425038003.0,0.0
-5.003392,-7.549356,-2.041078,-20.93,9.1,61.18,1729425038023.0,0.0
-6.015556,-8.537591,-2.957529,-41.509998,11.9,60.200001,1729425038048.0,0.0
-6.037091,-11.069198,-3.938586,-66.220001,21.210001,40.599998,1729425038065.0,0.0
-6.582655,-10.937593,-2.70389,-80.010002,43.049999,23.59,1729425038084.0,0.0
-6.76451,-10.595419,-0.701097,-28.35,39.619999,24.5,1729425038104.0,0.0
-6.405586,-9.387043,2.139183,13.58,-1.54,19.67,1729425038123.0,0.0
-6.046663,-8.015956,1.294517,28.77,-23.379999,13.51,1729425038145.0,0.0
-6.199803,-6.60419,-0.086142,3.43,-29.4,8.33,1729425038166.0,0.0
-6.613762,-5.948557,-1.330409,-53.34,-28.07,2.45,1729425038185.0,0.0
-6.838687,-6.295516,-3.165704,-122.5,-26.880001,-6.86,1729425038204.0,0.0
-6.551548,-9.698111,-5.594419,-177.660004,-23.73,-18.41,1729425038224.0,0.0
-6.293124,-11.665009,-5.28096,-186.270004,-11.27,-29.68,1729425038244.0,0.0
-6.202196,-12.172288,-3.515057,-147.770004,1.61,-29.960001,1729425038265.0,0.0
-5.838487,-11.475977,-2.907279,-111.510002,7.49,-32.130001,1729425038285.0,0.0
-4.804788,-10.896914,-4.376472,-71.120003,3.43,-31.290001,1729425038306.0,0.0
-3.5007,-10.899307,-6.403193,-44.73,-3.78,-29.960001,1729425038324.0,0.0
-1.962115,-10.552348,-5.977271,-51.380001,3.08,-37.170002,1729425038345.0,0.0
-1.179662,-9.741181,-4.76411,-59.849998,35.630001,-37.170002,1729425038365.0,0.0
-1.78026,-11.057234,-4.084548,-42.349998,64.190002,-33.950001,1729425038386.0,0.0
-2.409572,-11.552547,-4.591826,-25.969999,77.980003,-45.360001,1729425038406.0,0.0
-2.526821,-10.068997,-6.223732,15.26,87.220001,-46.48,1729425038425.0,0.0
-1.986043,-9.726824,-4.299902,71.260002,86.449997,-45.080002,1729425038446.0,0.0
-2.112862,-8.068598,7.381857,68.040001,90.440002,-47.459999,1729425038466.0,0.0
-4.977071,-3.37388,7.688138,-1.12,102.269997,-51.240002,1729425038486.0,0.0
-5.821737,-5.295317,4.194618,11.41,22.75,-32.970001,1729425038506.0,0.0
-1.392623,-5.314459,1.335195,4.55,-95.970001,-20.860001,1729425038525.0,0.0
0.327817,-4.613362,-1.225125,22.540001,-106.330002,8.68,1729425038546.0,0.0
-0.318245,-6.520442,-1.39023,5.81,-79.449997,24.08,1729425038566.0,0.0
-1.938186,-7.908278,-0.622134,-45.990002,-30.940001,26.18,1729425038586.0,0.0
-3.945765,-9.468399,-0.490529,-42.490002,-23.309999,38.360001,1729425038605.0,0.0
-5.453243,-11.8349,-1.737189,-8.82,-49.490002,35.560001,1729425038626.0,0.0
-6.465407,-14.244473,-5.508278,4.97,-69.650002,20.16,1729425038651.0,0.0
-6.518049,-13.323236,-8.432307,2.38,-53.619999,-2.03,1729425038666.0,0.0
-6.446264,-12.081362,-9.925428,41.860001,-15.4,3.64,1729425038685.0,0.0
-6.094519,-10.973484,-9.595219,72.590004,4.2,4.9,1729425038705.0,0.0
-4.878965,-10.399208,-9.322437,77.349998,23.1,5.6,1729425038725.0,0.0
-3.381058,-9.738789,-6.235696,68.110001,18.41,3.85,1729425038746.0,0.0
-2.895315,-8.987441,-3.39063,58.240002,25.9,-3.5,1729425038768.0,0.0
-3.785445,-9.073583,-3.830909,30.450001,50.400002,-23.030001,1729425038785.0,0.0
-4.378866,-9.377472,-6.149554,-9.1,68.32,-50.610001,1729425038805.0,0.0
-4.122833,-10.930414,-8.51127,-1.61,62.16,-49.07,1729425038825.0,0.0
-2.622534,-5.793024,2.770889,2.38,42.349998,-33.32,1729425038845.0,0.0
-2.435893,-5.532206,0.524028,90.230003,32.200001,-23.799999,1729425038868.0,0.0
-2.395216,-4.31426,5.266603,7.84,29.33,-35.279999,1729425038887.0,0.0
-2.349752,-5.898308,2.275574,-7.77,18.34,-6.3,1729425038905.0,0.0
-1.655833,-6.396015,-0.167498,-12.25,-34.09,-2.03,1729425038924.0,0.0
-1.356731,-6.336195,-0.760918,-22.469999,-33.599998,3.5,1729425038946.0,0.0
-1.57687,-6.884151,0.11007,-21.77,-9.66,25.27,1729425038966.0,0.0
-1.543371,-7.858029,-0.232104,-8.19,-21.77,44.240002,1729425038985.0,0.0
-1.749153,-10.628918,-0.815953,8.19,-51.939999,46.970001,1729425039005.0,0.0
-3.04367,-10.475778,-0.911665,-37.799999,-45.220001,35.490002,1729425039024.0,0.0
-4.864608,-12.117253,-5.309673,-80.709999,-25.27,27.09,1729425039048.0,0.0
-6.405586,-9.260223,-9.059227,-171.289993,-1.26,11.2,1729425039067.0,0.0
-6.960721,-12.047862,-9.726824,-121.099998,30.59,16.52,1729425039085.0,0.0
-7.037291,-14.380865,-5.056034,-41.02,47.32,11.48,1729425039105.0,0.0
-6.711867,-14.457435,-1.208375,62.510002,31.99,11.27,1729425039125.0,0.0
-6.075377,-10.985448,-3.034099,105.349998,14.91,-6.09,1729425039145.0,0.0
-4.924429,-8.848659,-6.489335,91.699997,19.040001,-21.559999,1729425039166.0,0.0
-2.005185,-7.834101,-5.63749,63.209999,16.1,-31.15,1729425039185.0,0.0
-0.90688,-5.4341,-1.533799,34.860001,32.200001,-12.32,1729425039205.0,0.0
-0.634098,-6.580262,1.538585,86.590004,30.52,-5.18,1729425039225.0,0.0
-0.33021,-4.242475,3.969693,28.49,19.32,-20.09,1729425039246.0,0.0
-1.323231,-3.723232,3.369094,4.69,5.11,-7.49,1729425039266.0,0.0
-2.572284,-5.316852,0.698704,-30.73,-22.4,-1.89,1729425039285.0,0.0
-2.522035,-6.85783,-0.835095,-66.779999,-35.84,1.05,1729425039305.0,0.0
-1.751546,-7.657032,-1.040878,-64.330002,-56.98,21.139999,1729425039324.0,0.0
-0.952343,-8.906086,-1.533799,-46.900002,-86.029999,29.75,1729425039345.0,0.0
-1.337588,-9.238688,-2.397608,-48.650002,-82.040001,20.860001,1729425039366.0,0.0
-3.929015,-11.097912,-4.962714,-40.950001,-37.099998,24.639999,1729425039385.0,0.0
-6.522834,-9.353544,-10.080962,-62.93,17.92,18.200001,1729425039405.0,0.0
-7.843673,-15.404992,-12.306287,-6.02,42.349998,18.620001,1729425039425.0,0.0
-7.759924,-15.081962,-8.740981,-17.43,42.91,-13.09,1729425039445.0,0.0
-7.223931,-12.394822,-2.931208,36.119999,65.660004,4.69,1729425039466.0,0.0
-6.472585,-9.466006,-0.334995,68.110001,35.420002,-0.98,1729425039485.0,0.0
-5.711668,-9.676575,-2.897708,57.68,24.780001,-36.959999,1729425039504.0,0.0
-3.249453,-9.090333,-3.816552,0.14,27.790001,-54.950001,1729425039524.0,0.0
-2.234896,-8.516055,-0.564706,5.74,18.27,-19.74,1729425039546.0,0.0
-0.918844,-6.374479,2.505285,45.709999,-14.56,-25.059999,1729425039566.0,0.0
-0.0335,-5.020142,1.17009,42.91,-13.72,-24.01,1729425039585.0,0.0
-0.251246,-5.087141,0.789631,66.779999,-17.639999,-1.19,1729425039605.0,0.0
-1.679761,-6.573084,-0.361316,68.529999,-8.54,5.18,1729425039624.0,0.0
-2.792424,-7.54457,-1.194018,49.98,10.15,5.95,1729425039645.0,0.0
-3.211168,-7.920243,-0.315853,41.509998,5.6,22.82,1729425039666.0,0.0
-2.311467,-9.099905,-0.454636,33.810001,-31.780001,31.290001,1729425039685.0,0.0
-0.878166,-9.812965,-0.717847,1.68,-67.059998,19.460001,1729425039704.0,0.0
-1.100698,-8.580662,-0.239282,-43.330002,-50.82,9.66,1729425039724.0,0.0
-3.854837,-7.106683,-2.141576,-78.330002,-4.41,7.07,1729425039744.0,0.0
-5.766702,-6.458229,-6.91765,-88.690002,20.860001,7.42,1729425039765.0,0.0
-5.599205,-10.013963,-10.073784,-51.59,-7.56,15.05,1729425039785.0,0.0
-4.453043,-13.72523,-8.4347,20.440001,-11.76,13.3,1729425039804.0,0.0
-4.259224,-12.27518,-4.290331,75.669998,29.75,23.870001,1729425039824.0,0.0
-6.084948,-9.23151,1.29691,112.07,67.760002,25.620001,1729425039845.0,0.0
-9.327222,-10.389636,-1.919044,74.900002,60.900002,-13.23,1729425039866.0,0.0
-7.293324,-9.209974,-3.144169,-13.02,28.42,-43.82,1729425039885.0,0.0
-5.101498,-9.518648,-0.985843,18.83,-5.67,3.29,1729425039905.0,0.0
-2.517249,-7.582855,0.447458,42.209999,-44.029999,4.06,1729425039924.0,0.0
-0.89013,-7.166504,1.864009,37.52,-29.4,-4.13,1729425039945.0,0.0
-1.294517,-7.334002,1.842474,24.08,-0.49,9.45,1729425039966.0,0.0
-2.443072,-8.044669,1.708475,1.54,7.77,5.67,1729425039985.0,0.0
-3.615555,-9.463614,-0.380459,-14.28,4.55,-0.63,1729425040008.0,0.0
-3.598805,-9.288938,-1.31366,-25.27,-4.48,1.96,1729425040025.0,0.0
-2.644069,-8.250452,-1.488336,-18.34,-26.530001,13.72,1729425040049.0,0.0
-1.227518,-7.097112,-0.631705,-14.21,-45.080002,20.93,1729425040067.0,0.0
-0.253639,-6.62094,-0.392423,-18.48,-48.720001,29.190001,1729425040085.0,0.0
-0.81356,-6.972685,1.014557,-30.030001,-37.380001,30.309999,1729425040104.0,0.0
-2.89053,-6.640083,0.074178,-59.990002,-13.72,27.719999,1729425040124.0,0.0
-6.54437,-6.257231,0.251246,-125.860001,1.89,16.24,1729425040145.0,0.0
-6.719046,-7.659425,-7.783852,-171.220001,2.8,5.25,1729425040165.0,0.0
-3.902694,-12.007183,-7.077969,-122.010002,-74.830002,30.380001,1729425040185.0,0.0
-3.055635,-14.108082,-7.278966,24.360001,-48.93,26.530001,1729425040204.0,0.0
-4.520042,-11.095518,-6.029913,35.209999,45.290001,15.33,1729425040224.0,0.0
-8.02792,-10.126426,-1.447658,32.060001,95.760002,12.11,1729425040245.0,0.0
-10.657632,-11.191232,-3.014957,-16.799999,68.040001,-21.49,1729425040266.0,0.0
-9.119047,-12.112469,-6.302694,-87.010002,22.540001,-60.619999,1729425040286.0,0.0
-5.699703,-11.454442,-9.327222,-97.650002,0.35,-60.689999,1729425040304.0,0.0
-3.436093,-6.733403,-2.400001,-38.849998,9.73,-32.830002,1729425040324.0,0.0
-3.010171,-7.487142,-0.89013,78.400002,32.689999,-9.66,1729425040345.0,0.0
-2.443072,-4.584648,3.936193,26.460001,18.969999,-32.200001,1729425040365.0,0.0
-2.730211,-4.807181,3.428915,1.4,20.51,-16.379999,1729425040387.0,0.0
-3.730411,-8.451449,0.811167,-17.780001,-7.14,-8.05,1729425040404.0,0.0
-3.529413,-8.463413,-2.098505,-55.720001,-13.23,-25.200001,1729425040424.0,0.0
-2.787638,-8.525627,-2.416751,-19.6,-23.450001,3.78,1729425040445.0,0.0
-0.823131,-7.123433,-2.572284,12.25,-61.18,14.21,1729425040466.0,0.0
0.473779,-7.116255,-3.105884,42.349998,-70.769997,20.790001,1729425040484.0,0.0
-0.229711,-7.121039,-1.59362,58.170002,-34.02,27.370001,1729425040504.0,0.0
-3.711268,-8.410772,-2.998207,68.809998,9.31,32.27,1729425040524.0,0.0
-6.60419,-5.465207,-3.885944,-12.39,38.360001,24.92,1729425040617.0,0.0
-7.958528,-9.918249,-7.140182,-58.66,27.370001,30.380001,1729425040617.0,0.0
-6.573084,-11.026128,-8.504091,-120.610001,-5.11,4.27,1729425040618.0,0.0
-5.661418,-14.409578,-5.656632,-48.299999,-2.31,15.54,1729425040618.0,0.0
-5.087141,-12.112469,-3.163311,-5.11,15.89,-7.49,1729425040638.0,0.0
-5.706882,-9.339187,-7.156933,24.780001,49.0,-25.620001,1729425040649.0,0.0
-4.386044,-5.240282,-4.888536,16.309999,62.02,-36.610001,1729425040666.0,0.0
-5.594419,-6.630512,-1.043271,61.040001,64.190002,13.23,1729425040685.0,0.0
-3.993621,-6.149554,0.801596,55.439999,32.759998,-12.32,1729425040704.0,0.0
-3.412165,-7.080362,3.163311,-0.56,31.5,0.42,1729425040723.0,0.0
-3.318845,-8.260024,2.634498,-0.49,8.75,12.11,1729425040745.0,0.0
-4.113262,-9.887143,-0.473779,2.8,-15.96,-4.13,1729425040765.0,0.0
-4.910072,-9.030513,-2.723032,-9.59,-0.84,-14.35,1729425040784.0,0.0
-4.455436,-8.157133,-3.014957,19.6,-8.47,14.28,1729425040804.0,0.0
-2.785245,-8.133204,-1.497907,48.650002,-61.670002,30.309999,1729425040829.0,0.0
-2.062613,-8.396415,-1.493121,50.75,-69.790001,25.129999,1729425040845.0,0.0
-4.922036,-6.745367,-2.486143,37.799999,-41.860001,16.24,1729425040865.0,0.0
-6.690332,-5.922236,-6.666404,-64.68,33.459999,10.5,1729425040884.0,0.0
-6.721439,-10.183852,-8.4347,-69.720001,-29.190001,10.99,1729425040904.0,0.0
-4.699504,-12.150753,-9.911072,-72.309998,-30.380001,-12.25,1729425040924.0,0.0
-3.948158,-11.825329,-6.204589,-13.72,15.33,6.09,1729425040945.0,0.0
-4.512863,-9.614362,-1.864009,52.57,40.25,1.82,1729425040965.0,0.0
-5.580062,-8.839087,-2.589034,73.43,35.490002,-20.09,1729425040985.0,0.0
-5.635098,-8.542377,-5.69731,14.63,29.82,-46.48,1729425041004.0,0.0
-4.953143,-9.023334,-7.314859,-40.110001,35.98,-48.580002,1729425041024.0,0.0
-3.254239,-7.683353,-4.677969,-51.029999,42.279999,-46.27,1729425041054.0,0.0
-3.823731,-7.389036,1.502693,3.92,56.630001,-10.85,1729425041066.0,0.0
-3.376273,-6.723832,1.727618,59.010002,42.84,-16.379999,1729425041085.0,0.0
-3.275774,-5.752346,4.122833,40.040001,13.37,-15.47,1729425041104.0,0.0
-3.292524,-4.591826,3.299703,10.29,-4.9,-3.71,1729425041124.0,0.0
-4.034299,-7.422535,-1.272982,11.2,-25.620001,7.91,1729425041144.0,0.0
-5.005785,-8.456236,-2.07697,-25.34,-14.7,0.35,1729425041165.0,0.0
-4.579862,-8.695518,-0.574277,-17.15,-1.82,18.690001,1729425041184.0,0.0
-2.821138,-10.571491,-2.266003,65.379997,-51.869999,47.110001,1729425041204.0,0.0
-1.636691,-10.140782,0.416351,38.009998,-108.989998,25.27,1729425041225.0,0.0
-3.304488,-10.939985,-4.615755,-23.030001,-47.810001,18.48,1729425041245.0,0.0
-5.910272,-5.970093,-4.876573,-117.599998,-4.27,-2.31,1729425041298.0,0.0
-7.350751,-10.336994,-10.411172,-100.590004,16.73,6.51,1729425041299.0,0.0
-6.687939,-11.32523,-9.571291,-87.010002,-12.18,-12.74,1729425041350.0,0.0
-4.589434,-12.559926,-7.362715,13.23,5.46,1.33,1729425041352.0,0.0
-3.354738,-10.229317,-3.546163,98.279999,5.11,9.73,1729425041353.0,0.0
-3.474378,-9.030513,-3.716053,145.180008,20.790001,-8.12,1729425041460.0,0.0
-4.201797,-7.915457,-5.120641,93.309998,50.82,-36.889999,1729425041465.0,0.0
-5.271388,-9.150154,-5.996413,28.630001,75.879997,-46.689999,1729425041466.0,0.0
-4.496114,-6.498906,-1.76351,-11.13,76.019997,-43.049999,1729425041467.0,0.0
-4.902894,-5.752346,3.646662,22.120001,59.709999,-9.24,1729425041468.0,0.0
-3.759124,-6.838687,3.079563,46.549999,20.02,-15.4,1729425041469.0,0.0
-3.065206,-5.359922,4.809574,-5.39,-6.93,-23.450001,1729425041483.0,0.0
-3.261417,-6.498906,1.205983,-8.61,-13.86,-4.2,1729425041504.0,0.0
-4.082155,-8.322237,-1.629512,-27.02,-31.08,-5.81,1729425041524.0,0.0
-4.455436,-8.599805,-1.507478,-46.759998,-17.92,6.3,1729425041543.0,0.0
-2.957529,-8.52802,-2.213361,-25.41,-58.170002,24.92,1729425041567.0,0.0
-2.024328,-9.401401,-1.792224,-14.56,-86.870003,21.77,1729425041585.0,0.0
-3.0006,-9.255438,-4.771288,-32.200001,-46.830002,11.2,1729425041603.0,0.0
-4.828716,-9.377472,-4.307081,-25.48,-14.14,3.64,1729425041623.0,0.0
-6.049056,-7.709675,-7.606783,-54.950001,12.53,16.030001,1729425041644.0,0.0
-5.412565,-11.899508,-8.075776,15.4,-19.040001,24.08,1729425041666.0,0.0
-3.78066,-12.669996,-5.735595,24.15,-2.38,1.89,1729425041685.0,0.0
-3.706482,-10.858629,-2.476572,35.700001,33.32,5.11,1729425041703.0,0.0
-4.742575,-8.647661,-1.574477,39.48,37.59,-4.41,1729425041722.0,0.0
-5.721239,-9.157332,-4.31426,2.59,32.34,-25.83,1729425041745.0,0.0
-5.290531,-10.246067,-7.164111,-56.0,40.810001,-45.360001,1729425041771.0,0.0
-4.527221,-10.559525,-6.946364,-42.349998,51.170002,-45.57,1729425041783.0,0.0
-3.400201,-5.639884,-2.672783,-1.12,64.050003,-32.34,1729425041804.0,0.0
-4.199404,-3.948158,3.067599,52.990002,61.25,-3.64,1729425041824.0,0.0
-3.522235,-4.723432,3.862016,48.369999,21.84,-17.360001,1729425041845.0,0.0
-3.316452,-5.702096,0.981057,-21.84,-7.84,-18.129999,1729425041864.0,0.0
-4.13719,-8.755339,-1.938186,-44.310001,-28.559999,-10.78,1729425041887.0,0.0
-4.515256,-8.587841,-2.199004,-61.880001,-21.629999,-15.75,1729425041906.0,0.0
-3.921836,-7.958528,-2.378466,-20.370001,-36.189999,12.95,1729425041924.0,0.0
-2.057827,-8.49452,-2.660819,6.37,-90.019997,22.190001,1729425041944.0,0.0
-1.368695,-9.102298,-1.631905,-25.83,-96.529999,10.29,1729425041964.0,0.0
-2.842674,-8.930015,-5.929415,-52.849998,-48.720001,7.35,1729425041983.0,0.0
-5.230711,-7.245467,-4.85743,-83.230003,-9.59,13.16,1729425042003.0,0.0
-6.245267,-13.148561,-9.408579,-50.75,-7.28,10.57,1729425042025.0,0.0
-5.4006,-13.684553,-8.85105,-33.32,-15.89,-16.17,1729425042048.0,0.0
-4.232903,-11.320443,-5.546563,10.99,19.040001,4.55,1729425042067.0,0.0
-3.639483,-9.564112,-1.938186,59.010002,4.97,10.85,1729425042085.0,0.0
-3.548556,-8.700303,-3.366701,42.209999,0.98,-15.33,1729425042103.0,0.0
-4.378866,-10.186246,-6.65444,-7.42,32.48,-35.490002,1729425042123.0,0.0
-4.711468,-10.602598,-6.692725,-41.439999,59.849998,-44.869999,1729425042145.0,0.0
-4.307081,-11.181661,-6.642475,-12.67,51.73,-41.369999,1729425042167.0,0.0
-2.644069,-5.659025,-3.558127,13.58,54.599998,-43.189999,1729425042184.0,0.0
-3.452843,-3.696911,2.368894,82.739998,64.82,-4.55,1729425042203.0,0.0
-3.041277,-3.282953,4.235296,48.439999,12.53,-15.33,1729425042223.0,0.0
-3.318845,-5.075177,1.251446,-5.25,-3.71,0.56,1729425042244.0,0.0
-3.929015,-8.669197,-1.914258,-27.93,-17.01,3.92,1729425042267.0,0.0
-4.323831,-9.54497,-3.754339,-46.830002,-13.86,-2.66,1729425042283.0,0.0
-4.024727,-8.403593,-2.294717,-21.84,-17.639999,17.99,1729425042304.0,0.0
-2.380858,-9.195618,-4.015156,25.41,-57.75,35.420002,1729425042323.0,0.0
-1.368695,-8.796017,-0.815953,24.57,-81.199997,28.91,1729425042344.0,0.0
-2.175076,-8.248059,-6.606583,10.85,-41.650002,29.82,1729425042375.0,0.0
-4.180261,-5.773881,-1.878366,-41.860001,-24.15,19.950001,1729425042385.0,0.0
-6.455836,-9.209974,-8.606983,-68.809998,10.36,33.110001,1729425042404.0,0.0
-6.178268,-12.574283,-9.142976,-65.309998,-24.15,3.64,1729425042425.0,0.0
-4.469792,-11.782259,-8.922836,-63.07,3.08,2.59,1729425042444.0,0.0
-3.615555,-10.183852,-5.608776,14.49,2.66,23.73,1729425042464.0,0.0
-3.326023,-9.044869,-3.412165,46.41,3.71,6.44,1729425042484.0,0.0
-4.244867,-9.556933,-4.503292,7.98,29.049999,-15.96,1729425042503.0,0.0
-5.024928,-10.554741,-7.106683,-39.970001,52.5,-35.77,1729425042522.0,0.0
-4.41715,-11.521441,-7.848458,-45.080002,50.610001,-38.57,1729425042544.0,0.0
-2.548356,-7.054041,-7.037291,10.92,68.809998,-37.869999,1729425042563.0,0.0
-3.177669,-3.74716,3.878766,65.239998,69.93,-8.26,1729425042583.0,0.0
-3.306881,-3.641876,4.331009,79.800003,44.59,-12.67,1729425042603.0,0.0
-3.37388,-3.266203,3.634698,-4.76,5.95,-14.63,1729425042622.0,0.0
-3.309274,-6.317052,1.024128,-55.439999,-12.67,-2.73,1729425042643.0,0.0
-3.074777,-9.590433,-3.125026,-43.189999,-39.48,0.35,1729425042666.0,0.0
-3.361916,-10.305886,-5.046463,-25.059999,-39.060001,-0.28,1729425042683.0,0.0
-3.550949,-9.623933,-4.575077,9.38,-17.99,11.62,1729425042703.0,0.0
-2.87378,-8.267202,-2.651247,31.219999,-36.470001,27.02,1729425042722.0,0.0
-1.825724,-7.515855,0.145962,21.280001,-61.040001,27.790001,1729425042743.0,0.0
-1.37348,-8.013563,-2.120041,-7.28,-70.629997,27.02,1729425042766.0,0.0
-3.328416,-9.856036,-0.681954,-62.790001,-52.849998,10.57,1729425042783.0,0.0
-4.831109,-10.451849,-5.864808,-81.970001,-27.51,-5.04,1729425042802.0,0.0
-6.582655,-7.566105,-6.965507,-85.330002,-34.720001,-1.61,1729425042822.0,0.0
-7.51107,-8.906086,-10.631311,-69.860001,-13.09,-4.13,1729425042844.0,0.0
-5.79781,-9.755538,-13.406984,-56.07,6.3,-2.1,1729425042863.0,0.0
-3.105884,-10.408779,-6.640083,61.110001,-2.66,6.02,1729425042883.0,0.0
-2.383251,-7.893922,-3.991228,66.220001,22.120001,-2.45,1729425042903.0,0.0
-3.132205,-7.125826,-6.319445,31.360001,52.290001,-18.059999,1729425042922.0,0.0
-3.84048,-7.496714,-5.871986,-8.75,66.919998,-37.869999,1729425042943.0,0.0
-4.400401,-9.406186,-5.946165,12.04,64.050003,-27.299999,1729425042964.0,0.0
-3.201597,-6.173482,-3.397808,52.849998,51.73,-24.01,1729425042982.0,0.0
-5.082355,-7.362715,2.988636,117.459999,48.16,9.38,1729425043003.0,0.0
-4.601398,-7.130611,0.468993,97.790001,30.940001,-20.16,1729425043023.0,0.0
-4.558327,-9.250652,-1.383051,69.720001,5.25,-4.13,1729425043046.0,0.0
-3.924229,-11.124231,-2.955136,62.510002,-3.64,-10.92,1729425043065.0,0.0
-3.84048,-11.042876,-4.15394,76.440002,12.25,-11.06,1729425043091.0,0.0
-4.453043,-11.13859,-4.493721,121.449997,33.18,-3.78,1729425043104.0,0.0
-4.673182,-9.35833,-3.617948,158.970001,47.25,-5.88,1729425043123.0,0.0
-4.862216,-8.066205,-1.641476,216.860001,53.830002,6.23,1729425043144.0,0.0
-4.601398,-7.439285,-0.081356,272.089996,46.48,19.25,1729425043165.0,0.0
-4.182654,-7.343572,1.268196,309.610016,36.610001,21.84,1729425043183.0,0.0
-3.869194,-7.412964,3.034099,334.880005,34.580002,23.17,1729425043204.0,0.0
-3.383451,-6.54437,3.352344,351.399994,38.5,24.43,1729425043223.0,0.0
-2.945565,-5.809773,4.419543,328.230011,40.950001,19.040001,1729425043243.0,0.0
-2.677568,-5.757132,5.314459,285.600006,42.07,16.870001,1729425043264.0,0.0
-2.624927,-5.893522,6.087341,241.009995,37.170002,20.16,1729425043283.0,0.0
-2.495714,-5.761917,6.477371,195.720001,33.529999,16.030001,1729425043302.0,0.0
-2.428715,-5.35753,6.101698,161.490005,34.299999,18.200001,1729425043324.0,0.0
-2.251646,-5.273781,4.82393,122.290001,33.670002,23.1,1729425043343.0,0.0
-3.17049,-7.477571,9.422935,78.400002,28.210001,17.639999,1729425043364.0,0.0
-4.208975,-9.820145,8.248059,34.439999,16.66,-1.89,1729425043383.0,0.0
-3.795017,-10.313066,5.845665,36.959999,1.33,-1.47,1729425043405.0,0.0
-3.101098,-9.870394,4.481757,50.259998,1.68,2.87,1729425043423.0,0.0
-2.615355,-10.289137,4.206582,63.279999,7.07,-17.08,1729425043444.0,0.0
-3.115455,-9.329616,4.62054,68.739998,27.02,-39.830002,1729425043464.0,0.0
-4.649254,-8.032705,5.4006,91.769997,51.380001,-48.09,1729425043483.0,0.0
-5.221139,-6.396015,5.9677,103.389999,56.77,-50.75,1729425043503.0,0.0
-5.118248,-5.958128,5.852845,93.660004,47.950001,-52.43,1729425043524.0,0.0
-5.371887,-3.95055,7.750352,94.639999,42.420002,-49.91,1729425043543.0,0.0
-5.034499,-3.182454,7.456036,126.139999,39.759998,-38.360001,1729425043565.0,0.0
-5.630312,0.722632,8.846266,101.709999,41.09,-17.85,1729425043583.0,0.0
-6.178268,1.677369,9.769895,95.690002,21.07,18.48,1729425043603.0,0.0
-6.360123,2.347359,9.734003,21.77,4.27,26.460001,1729425043623.0,0.0
-6.802795,-1.301696,9.389436,-45.080002,-29.120001,41.720001,1729425043643.0,0.0
-6.707082,-5.9342,7.628319,-98.559998,-57.400002,26.040001,1729425043665.0,0.0
-4.934,-7.936993,5.058427,-105.840004,-72.099998,17.01,1729425043684.0,0.0
-3.823731,-4.960321,4.493721,-86.309998,-67.480003,45.849998,1729425043703.0,0.0
-3.148954,-5.496314,5.601598,-51.450001,-54.18,43.189999,1729425043722.0,0.0
-3.938586,-7.980063,4.766503,-85.120003,-34.02,9.87,1729425043743.0,0.0
-4.864608,-13.483556,4.115655,-79.449997,-11.76,-36.540001,1729425043764.0,0.0
-4.292724,-11.703296,4.335794,-90.93,2.1,-68.669998,1729425043784.0,0.0
-4.369294,-8.279166,4.553542,0.91,10.15,-39.689999,1729425043807.0,0.0
-3.771089,-5.321638,4.833502,76.720001,18.690001,-40.740002,1729425043822.0,0.0
-3.541377,-3.29731,5.4676,70.349998,22.68,-47.880001,1729425043843.0,0.0
-3.57727,-2.9671,7.424929,49.0,24.15,-53.970001,1729425043864.0,0.0
-3.029313,-4.625326,6.802795,10.85,27.790001,-61.740002,1729425043883.0,0.0
-3.759124,-1.043271,7.62114,13.09,43.470001,-46.549999,1729425043903.0,0.0
-4.618148,2.39043,9.717253,89.32,46.34,4.55,1729425043923.0,0.0
-4.563113,5.123034,11.617154,112.349998,31.85,50.82,1729425043943.0,0.0
-4.919643,0.698704,11.351551,84.0,-12.32,71.889999,1729425043964.0,0.0
-5.659025,-4.125226,8.937192,-44.869999,-29.26,49.490002,1729425043984.0,0.0
-5.635098,-7.649854,5.989235,-132.930008,-37.73,47.110001,1729425044002.0,0.0
-4.766503,-9.568897,4.441079,-129.5,-57.400002,57.189999,1729425044022.0,0.0
-4.024727,-11.002198,7.113862,-105.910004,-61.810001,30.870001,1729425044046.0,0.0
-4.811966,-12.277573,6.314659,-78.889999,-24.85,-7.35,1729425044064.0,0.0
-5.034499,-14.42872,5.297709,-12.53,1.96,-21.49,1729425044083.0,0.0
-4.122833,-9.812965,5.103891,36.68,5.6,-34.299999,1729425044103.0,0.0
-4.0008,-4.376472,5.9677,85.75,12.67,-24.08,1729425044123.0,0.0
-4.31426,-1.952543,7.209574,76.790001,22.68,-29.540001,1729425044142.0,0.0
-4.4674,-2.316252,7.283752,33.18,20.58,-44.799999,1729425044165.0,0.0
-3.802195,-3.433701,7.190433,12.39,6.72,-44.380001,1729425044184.0,0.0
-2.790031,-2.658426,6.927221,26.950001,0.07,-34.16,1729425044202.0,0.0
-2.78046,-1.744368,5.912664,53.760002,11.55,-24.5,1729425044222.0,0.0
-3.756732,-1.854438,5.314459,56.560001,38.57,-15.61,1729425044243.0,0.0
-4.175476,-1.418944,6.996613,63.07,39.900002,1.19,1729425044265.0,0.0
-4.067799,0.473779,8.370094,47.950001,28.42,17.57,1729425044283.0,0.0
-4.216154,0.265603,9.276974,34.93,14.07,39.830002,1729425044302.0,0.0
-4.326223,-1.909473,8.310273,-6.93,4.97,44.59,1729425044322.0,0.0
-4.601398,-3.617948,7.740781,-70.349998,1.61,48.439999,1729425044343.0,0.0
-5.06082,-3.809374,5.539384,-103.949997,2.52,73.150002,1729425044363.0,0.0
-6.049056,-7.601997,7.106683,-91.349998,-7.98,74.129997,1729425044382.0,0.0
-5.804988,-13.414164,5.99402,-135.520004,-9.52,4.62,1729425044402.0,0.0
-5.838487,-16.278372,5.230711,-176.889999,-1.19,-3.64,1729425044423.0,0.0
-4.457829,-16.350157,5.723632,-81.970001,-7.7,-28.700001,1729425044443.0,0.0
-3.672983,-9.092726,5.520242,39.830002,9.66,-38.43,1729425044465.0,0.0
-4.95075,-4.711468,6.108876,126.139999,41.93,-25.27,1729425044482.0,0.0
-5.79781,-2.364109,7.307681,108.5,46.619999,-44.240002,1729425044502.0,0.0
-5.819345,-1.986043,8.085347,51.310001,26.040001,-53.619999,1729425044522.0,0.0
-4.721039,-3.314059,8.396415,16.1,5.32,-57.049999,1729425044542.0,0.0
-3.067599,-3.029313,6.06102,49.209999,0.63,-43.189999,1729425044573.0,0.0
-3.20399,-0.648455,6.683154,89.25,15.12,-18.549999,1729425044583.0,0.0
-3.692125,2.658426,7.836494,118.090004,18.83,24.5,1729425044602.0,0.0
-3.972085,2.833102,8.99462,100.309998,4.48,54.389999,1729425044622.0,0.0
-4.486543,0.078963,9.023334,1.19,-6.72,46.060001,1729425044643.0,0.0
-5.115855,-3.117848,7.015756,-111.720001,-17.290001,47.110001,1729425044663.0,0.0
-4.644469,-4.725825,6.101698,-165.410004,-37.52,50.82,1729425044682.0,0.0
-4.48415,-6.005985,4.04387,-124.389999,-54.459999,75.529999,1729425044702.0,0.0
-4.541577,-8.671589,5.158926,-57.959999,-43.119999,61.670002,1729425044721.0,0.0
-5.213961,-11.251052,4.972286,-51.029999,-5.46,18.059999,1729425044742.0,0.0
-6.041877,-12.741781,5.338387,-60.27,20.790001,10.36,1729425044763.0,0.0
-5.723632,-12.811172,6.250053,-56.490002,14.56,-24.290001,1729425044782.0,0.0
-4.888536,-9.597611,6.482157,13.58,3.01,-38.290001,1729425044802.0,0.0
-4.993821,-5.486742,6.642475,77.840004,22.33,-23.309999,1729425044822.0,0.0
-5.115855,-3.940979,8.219346,85.330002,29.960001,-39.200001,1729425044843.0,0.0
-4.924429,-2.519642,10.009177,60.619999,15.33,-54.25,1729425044863.0,0.0
-4.596612,-0.806381,8.310273,58.029999,0.14,-31.290001,1729425044883.0,0.0
-4.110869,-2.282753,6.295516,54.599998,3.71,-24.99,1729425044902.0,0.0
-4.168297,-1.952543,6.092126,25.27,8.12,-25.690001,1729425044922.0,0.0
-4.371687,-0.799203,7.819745,45.150002,9.87,11.76,1729425044944.0,0.0
-4.376472,0.387637,9.133404,30.59,5.25,21.84,1729425044963.0,0.0
-4.945964,-1.990828,8.920443,-1.89,-8.54,23.379999,1729425044982.0,0.0
-5.008178,-5.517848,7.04447,-29.610001,-19.18,20.790001,1729425045008.0,0.0
-4.151547,-7.948956,5.927022,-29.049999,-26.25,15.33,1729425045022.0,0.0
-3.488736,-5.005785,5.381458,-21.35,-21.77,23.73,1729425045045.0,0.0
-4.046263,-5.010571,5.879165,21.98,-9.24,40.950001,1729425045067.0,0.0
-4.553542,-5.335995,6.927221,-31.57,2.94,0.63,1729425045083.0,0.0
-4.917251,-6.960721,5.355137,-59.709999,2.03,-0.35,1729425045101.0,0.0
-4.414758,-9.413363,4.989035,-37.240002,-2.52,3.29,1729425045130.0,0.0
-3.737589,-8.992228,5.955735,-34.720001,6.79,-30.52,1729425045142.0,0.0
-4.972286,-6.183054,7.319644,-4.34,30.309999,-25.83,1729425045165.0,0.0
-5.816952,-4.811966,8.243275,29.68,31.85,-23.379999,1729425045182.0,0.0
-5.024928,-3.823731,8.930015,28.700001,13.02,-37.66,1729425045202.0,0.0
-3.957729,-1.495514,8.985049,24.99,0.35,-26.25,1729425045222.0,0.0
-4.199404,-0.370888,9.138189,17.780001,9.1,-7.84,1729425045243.0,0.0
-4.723432,-0.583849,8.559127,9.73,8.75,-1.12,1729425045263.0,0.0
-5.130211,-2.041078,8.039884,3.64,2.1,9.52,1729425045282.0,0.0
-5.130211,-4.096512,8.475377,14.63,-8.89,16.799999,1729425045303.0,0.0
-4.520042,-4.878965,8.149954,23.52,-18.690001,19.67,1729425045321.0,0.0
-4.220939,-4.62054,7.649854,27.860001,-21.700001,34.02,1729425045342.0,0.0
-3.854837,-3.735196,6.82433,5.88,-21.42,37.66,1729425045364.0,0.0
-4.651647,-5.082355,7.020542,-30.030001,-20.65,41.509998,1729425045382.0,0.0
-3.95055,-8.977871,6.037091,-65.169998,-23.1,-1.47,1729425045401.0,0.0
-4.058227,-10.69831,5.376673,-87.080002,-11.48,-14.49,1729425045421.0,0.0
-3.979264,-9.887143,4.515256,-30.1,4.27,-13.3,1729425045442.0,0.0
-3.87398,-7.200003,5.4341,31.43,13.93,-24.08,1729425045463.0,0.0
-4.412365,-4.448257,6.056234,67.199997,28.07,-29.4,1729425045483.0,0.0
-5.302495,-2.959922,6.884151,69.790001,30.309999,-27.790001,1729425045502.0,0.0
-5.149354,-2.995814,7.470392,40.950001,14.98,-38.779999,1729425045521.0,0.0
-4.237689,-3.144169,7.077969,9.17,3.92,-41.93,1729425045604.0,0.0
-4.517649,-2.531606,6.721439,-1.54,9.87,-30.309999,1729425045607.0,0.0
-4.699504,-1.521835,7.879565,-0.91,23.030001,-21.84,1729425045611.0,0.0
-4.668397,-1.217947,8.178668,44.310001,11.27,16.66,1729425045613.0,0.0
-4.405186,-0.260818,8.941978,50.68,4.2,26.18,1729425045621.0,0.0
-5.106283,-2.005185,8.973085,26.809999,1.26,39.759998,1729425045642.0,0.0
-5.314459,-4.37408,7.652246,-24.57,-4.48,34.439999,1729425045663.0,0.0
-4.960321,-5.115855,7.951349,-65.309998,-14.49,35.420002,1729425045682.0,0.0
-5.07757,-6.022735,7.087541,-69.510002,-13.86,38.990002,1729425045702.0,0.0
-5.462814,-10.241282,7.676175,-61.529999,-7.63,9.31,1729425045721.0,0.0
-5.54417,-10.009177,6.522834,-56.700001,-3.08,-29.190001,1729425045743.0,0.0
-5.56092,-10.516455,5.469993,55.23,6.79,-8.89,1729425045764.0,0.0
-4.309474,-8.008778,5.611169,77.980003,20.51,-54.670002,1729425045782.0,0.0
-4.778467,-4.852644,6.096912,98.209999,33.459999,-56.420002,1729425045801.0,0.0
-5.070391,-1.751546,7.329216,90.860001,38.360001,-47.110001,1729425045822.0,0.0
-4.697111,-0.607777,8.705089,50.400002,22.75,-49.560001,1729425045846.0,0.0
-4.106083,-0.210568,8.638089,5.18,7.28,-46.41,1729425045863.0,0.0
-4.302295,0.753739,8.769694,5.6,6.16,-14.84,1729425045882.0,0.0
-3.668197,0.806381,7.953743,22.75,-0.84,16.940001,1729425045902.0,0.0
-3.448057,0.275175,6.910471,4.41,-10.99,36.540001,1729425045921.0,0.0
-3.61077,-1.387837,6.795617,-23.59,-11.34,47.040001,1729425045941.0,0.0
-3.795017,-2.782853,7.111469,-66.5,-10.22,39.549999,1729425045963.0,0.0
-4.278367,-4.034299,7.202396,-96.040001,-10.5,46.830002,1729425045982.0,0.0
-4.283153,-6.987042,7.362715,-103.809998,-15.68,38.360001,1729425046002.0,0.0
-3.991228,-10.947165,6.872187,-99.400002,-22.610001,8.4,1729425046022.0,0.0
-3.689733,-10.561919,5.525027,-61.810001,-9.1,-3.57,1729425046044.0,0.0
-4.673182,-9.257831,5.63749,28.98,12.67,7.63,1729425046064.0,0.0
-4.575077,-8.762517,6.262017,38.779999,22.889999,-45.709999,1729425046082.0,0.0
-5.094319,-7.23111,6.324231,23.940001,24.57,-60.549999,1729425046102.0,0.0
-4.917251,-5.759524,6.972685,35.420002,22.82,-55.16,1729425046122.0,0.0
-4.589434,-4.788038,6.470192,22.889999,22.049999,-62.720001,1729425046144.0,0.0
-4.4339,-3.60359,8.193025,14.42,28.35,-73.010002,1729425046163.0,0.0
-5.472386,-2.608176,9.193225,46.27,21.139999,-42.84,1729425046182.0,0.0
-4.326223,0.863809,9.23151,68.739998,9.59,-31.43,1729425046203.0,0.0
-4.491328,1.18684,9.51147,79.379997,-1.68,9.87,1729425046221.0,0.0
-4.579862,0.485743,7.975278,58.310001,-12.04,24.57,1729425046242.0,0.0
-5.02732,-0.930808,7.757531,27.02,-13.02,54.040001,1729425046262.0,0.0
-4.84068,-2.665605,7.197611,-39.48,-19.25,44.099998,1729425046282.0,0.0
-4.697111,-5.462814,6.826723,-84.0,-25.200001,35.209999,1729425046302.0,0.0
-4.342973,-5.718846,6.396015,-83.580002,-20.23,32.130001,1729425046322.0,0.0
-4.536791,-4.319045,6.295516,-24.5,-9.17,55.02,1729425046342.0,0.0
-4.503292,-4.208975,5.838487,22.68,-0.77,57.189999,1729425046362.0,0.0
-4.656433,-5.508278,7.317252,-21.210001,1.54,25.620001,1729425046381.0,0.0
-6.221339,-13.194024,6.692725,-38.639999,3.29,2.31,1729425046401.0,0.0
-4.189832,-16.632511,5.288138,-103.879997,8.68,-83.580002,1729425046421.0,0.0
-5.209175,-11.042876,5.020142,-7.42,26.389999,-58.240002,1729425046443.0,0.0
-5.309673,-3.412165,5.718846,106.610001,41.09,-35.700001,1729425046462.0,0.0
-4.673182,0.236889,7.032506,107.449997,34.509998,-46.549999,1729425046481.0,0.0
-4.62054,1.095913,7.767102,73.290001,21.49,-46.759998,1729425046502.0,0.0
-4.194618,0.715454,8.015956,41.09,16.799999,-38.990002,1729425046523.0,0.0
-4.254438,0.715454,8.870193,10.71,17.5,-19.74,1729425046542.0,0.0
-4.168297,2.773281,9.363115,12.18,9.8,19.74,1729425046566.0,0.0
-4.536791,0.875773,9.738789,-8.12,-0.98,51.450001,1729425046581.0,0.0
-5.484349,-3.239882,8.903693,-68.669998,-9.31,43.75,1729425046601.0,0.0
-5.414958,-6.441479,7.829315,-111.720001,-24.08,38.080002,1729425046622.0,0.0
-4.716253,-8.353344,6.836295,-114.590004,-39.619999,37.799999,1729425046642.0,0.0
-4.151547,-9.824929,5.587241,-78.050003,-42.209999,29.610001,1729425046664.0,0.0
-4.13719,-10.250853,5.848059,-31.360001,-25.059999,2.38,1729425046682.0,0.0
-5.45085,-7.676175,6.831509,5.95,1.33,-10.15,1729425046701.0,0.0
-5.651847,-6.661618,6.56112,35.560001,11.55,-15.26,1729425046721.0,0.0
-5.379066,-6.936793,6.245267,25.200001,11.69,-36.470001,1729425046742.0,0.0
-5.515456,-5.893522,5.943772,34.720001,15.12,-41.02,1729425046763.0,0.0
-5.15414,-3.591627,6.144768,50.959999,17.15,-35.349998,1729425046781.0,0.0
-4.386044,-2.498107,6.774081,47.880001,12.25,-33.740002,1729425046802.0,0.0
-3.723232,-2.596212,6.489335,39.060001,11.9,-35.209999,1729425046821.0,0.0
-4.268795,-3.117848,6.869793,29.540001,20.16,-37.450001,1729425046842.0,0.0
-4.582255,-1.347159,6.678369,19.25,29.469999,-31.360001,1729425046863.0,0.0
-4.431508,0.303888,7.613962,36.119999,23.52,2.87,1729425046881.0,0.0
-4.517649,0.820738,8.487342,32.200001,18.41,9.03,1729425046902.0,0.0
-6.01077,-2.232504,9.016156,17.5,12.6,35.700001,1729425046921.0,0.0
-6.02752,-5.173282,8.559127,-27.51,-2.87,22.75,1729425046941.0,0.0
-5.235496,-6.623333,7.755138,-65.379997,-21.49,29.120001,1729425046962.0,0.0
-4.536791,-4.666004,7.664211,-83.650002,-27.58,40.810001,1729425046982.0,0.0
-5.036892,-4.005585,5.709275,-36.400002,-21.42,72.029999,1729425047003.0,0.0
-4.551149,-9.209974,7.700103,-60.830002,-21.49,18.620001,1729425047021.0,0.0
-4.800002,-8.157133,4.766503,-108.779999,-12.04,-7.56,1729425047044.0,0.0
-5.314459,-11.897114,6.759724,-9.03,6.79,7.84,1729425047062.0,0.0
-5.039285,-9.190832,7.424929,-17.780001,9.59,-48.93,1729425047081.0,0.0
-5.307281,-5.587241,7.113862,60.41,16.030001,-26.880001,1729425047103.0,0.0
-4.871787,-2.26361,7.209574,65.169998,12.25,-14.84,1729425047121.0,0.0
-3.895515,-0.433101,7.939385,49.279999,12.25,-22.960001,1729425047142.0,0.0
-3.692125,1.337588,8.269595,13.51,0.07,-10.43,1729425047169.0,0.0
-4.074977,1.275374,7.896315,-14.35,2.66,6.02,1729425047182.0,0.0
-4.130012,-0.256032,7.76471,-39.060001,-4.55,8.68,1729425047201.0,0.0
-3.98405,-3.091527,6.649654,-31.5,-11.55,17.43,1729425047222.0,0.0
-4.455436,-4.326223,7.123433,30.52,-7.77,37.310001,1729425047241.0,0.0
-4.905287,-4.481757,7.372287,20.370001,-6.37,38.290001,1729425047261.0,0.0
-5.381458,-5.326423,7.77428,-37.59,-12.88,38.990002,1729425047282.0,0.0
-5.07757,-4.61097,8.508877,-108.989998,-28.35,29.33,1729425047302.0,0.0
-5.642276,-7.391429,4.634897,-79.379997,-28.98,56.630001,1729425047321.0,0.0
-4.749753,-12.825529,4.855037,-73.639999,-11.48,-8.89,1729425047342.0,0.0
-5.948557,-13.050454,4.237689,-58.380001,13.3,-36.330002,1729425047363.0,0.0
-6.271588,-9.868,5.946165,69.510002,36.259998,-37.66,1729425047382.0,0.0
-6.025128,-4.584648,6.496514,102.199997,35.630001,-30.870001,1729425047405.0,0.0
-5.69731,-2.605784,6.817152,85.120003,32.970001,-26.6,1729425047423.0,0.0
-4.776074,-3.574877,7.23111,33.740002,28.139999,-48.02,1729425047443.0,0.0
-3.768696,-3.567699,7.41775,5.39,21.210001,-57.470001,1729425047464.0,0.0
-3.830909,-0.875773,9.145369,20.790001,20.93,-31.15,1729425047482.0,0.0
-3.814159,3.213561,9.609575,22.960001,22.4,-11.55,1729425047502.0,0.0
-3.835695,2.679961,8.738588,25.9,-3.71,28.49,1729425047523.0,0.0
-4.098906,-0.375673,7.984849,-4.41,-18.200001,37.799999,1729425047543.0,0.0
-5.158926,-4.299902,7.623533,-44.240002,-21.49,44.310001,1729425047565.0,0.0
-5.273781,-5.876772,7.759924,-76.790001,-29.889999,42.560001,1729425047584.0,0.0
-4.862216,-3.792624,6.826723,-111.370003,-46.549999,59.360001,1729425047603.0,0.0
-4.76411,-6.163911,5.15414,-81.830002,-51.939999,62.93,1729425047622.0,0.0
-3.838088,-8.583055,4.934,-89.739998,-41.09,25.27,1729425047644.0,0.0
-4.23051,-8.063812,4.61097,-118.300003,-20.16,28.49,1729425047663.0,0.0
-5.632704,-5.860023,4.460221,-99.82,9.24,25.9,1729425047682.0,0.0
-6.987042,-7.499106,4.505685,-17.710001,25.83,20.299999,1729425047703.0,0.0
-7.625926,-7.987241,5.91745,-12.32,31.08,3.15,1729425047722.0,0.0
-7.724032,-6.740582,6.005985,-19.67,28.700001,7.91,1729425047745.0,0.0
-7.518249,-4.852644,6.738188,-15.190001,22.469999,15.75,1729425047765.0,0.0
-6.515656,-3.474378,6.927221,-24.85,8.26,13.440001,1729425047783.0,0.0
-5.376673,-5.029713,6.886543,-40.110001,-13.440001,17.219999,1729425047802.0,0.0
-4.496114,-6.927221,6.845865,-75.669998,-22.82,9.31,1729425047822.0,0.0
-3.866802,-9.006584,6.678369,-87.57,-15.26,3.71,1729425047843.0,0.0
-3.393023,-8.484949,7.501499,-94.43,-10.36,-15.33,1729425047863.0,0.0
-2.895315,-6.522834,7.235896,-90.090004,-11.27,-14.35,1729425047887.0,0.0
-2.62732,-5.185246,7.020542,-96.25,-12.39,-6.51,1729425047903.0,0.0
-2.624927,-4.807181,6.295516,-126.419998,-14.56,-14.56,1729425047922.0,0.0
-3.244668,-5.395815,6.675975,-168.559998,-24.43,-19.950001,1729425047943.0,0.0
-3.438486,-6.106483,4.668397,-190.190002,-37.73,-11.13,1729425047964.0,0.0
-3.328416,-6.644868,3.67059,-198.100006,-48.23,-8.75,1729425047982.0,0.0
-3.316452,-7.274181,3.148954,-219.869995,-47.25,-19.110001,1729425048003.0,0.0
-3.759124,-8.154739,1.17009,-241.149994,-35.490002,-31.710001,1729425048023.0,0.0
-4.694718,-9.851252,-0.847059,-215.529999,-16.52,-34.580002,1729425048046.0,0.0
-5.572884,-10.856236,-1.658226,-149.800003,-8.75,-26.67,1729425048064.0,0.0
-5.484349,-10.339387,-2.242075,-54.880001,-22.610001,-10.29,1729425048083.0,0.0
-5.692525,-10.490135,0.978664,43.189999,-33.810001,-1.4,1729425048103.0,0.0
-5.441278,-9.997212,2.646462,89.529999,-19.25,-19.25,1729425048122.0,0.0
-5.187639,-9.083155,4.512863,107.099998,-12.11,-21.700001,1729425048142.0,0.0
-4.24726,-7.812566,4.12044,169.820007,-29.33,-3.92,1729425048163.0,0.0
-4.465007,-5.613562,3.158526,310.450012,-17.08,24.99,1729425048184.0,0.0
-5.261817,-5.814559,2.902494,277.829987,16.870001,4.83,1729425048202.0,0.0
-5.211568,-6.379266,4.778467,173.669998,28.77,-22.75,1729425048223.0,0.0
-4.862216,-6.762117,6.867401,79.379997,19.110001,-20.23,1729425048243.0,0.0
-4.520042,-7.427321,8.396415,53.549999,5.6,-10.85,1729425048265.0,0.0
-3.464807,-6.687939,7.448857,40.529999,-11.06,-6.79,1729425048282.0,0.0
-2.589034,-6.788438,4.754539,54.880001,-24.710001,1.33,1729425048302.0,0.0
-1.859223,-6.12084,3.0006,81.690002,-12.25,1.96,1729425048322.0,0.0
-2.385644,-4.072584,2.002793,76.93,24.92,13.79,1729425048342.0,0.0
-3.907479,-1.749153,2.959922,24.710001,59.43,20.719999,1729425048364.0,0.0
-5.723632,-0.098106,3.988836,-41.02,78.190002,31.5,1729425048382.0,0.0
-6.422336,-0.571885,6.687939,-96.599998,62.650002,52.009998,1729425048401.0,0.0
-5.513064,-2.282753,10.009177,-189.839996,22.049999,60.689999,1729425048422.0,0.0
-4.95075,-5.383851,10.614561,-329.350006,-18.76,58.099998,1729425048442.0,0.0
-5.661418,-11.863614,5.649454,-452.76001,-59.709999,43.259998,1729425048465.0,0.0
-5.785845,-19.176081,-6.58744,-473.619995,-77.419998,-12.39,1729425048483.0,0.0
-4.575077,-22.78685,-5.587241,-347.130005,-47.529999,-52.990002,1729425048502.0,0.0
-3.081956,-13.787444,1.476372,68.879997,21.629999,-21.49,1729425048522.0,0.0
-3.017349,-6.400801,2.182254,202.020004,26.880001,-24.5,1729425048544.0,0.0
-3.476771,-2.203789,2.794817,264.320007,31.639999,-11.34,1729425048564.0,0.0
-4.630112,-0.602991,3.826123,234.360001,14.0,22.33,1729425048582.0,0.0
-5.190032,-1.335195,4.412365,160.509995,5.53,19.950001,1729425048602.0,0.0
-5.958128,-3.163311,1.519442,72.099998,23.870001,10.5,1729425048622.0,0.0
-7.350751,-6.575477,0.612563,21.07,50.470001,10.57,1729425048644.0,0.0
-7.63789,-10.028319,-0.4666,-14.77,59.5,-7.56,1729425048674.0,0.0
-6.367301,-11.964113,1.56012,-61.32,39.970001,-32.130001,1729425048682.0,0.0
-4.785645,-12.902101,4.934,-85.050003,12.25,-35.490002,1729425048702.0,0.0
-3.041277,-14.230117,4.740182,-39.41,-7.98,-33.599998,1729425048722.0,0.0
-1.292124,-11.787045,4.424329,22.120001,-26.25,-42.420002,1729425048742.0,0.0
-1.222732,-8.516055,3.720839,129.639999,-21.559999,-30.59,1729425048763.0,0.0
-2.806781,-4.998606,2.825923,196.070007,1.75,-15.12,1729425048782.0,0.0
-4.773681,-0.404387,1.993221,177.869995,30.17,1.96,1729425048802.0,0.0
-6.21416,4.438686,1.581656,104.090004,43.540001,42.560001,1729425048822.0,0.0
-7.312466,4.445865,11.373087,-13.51,30.940001,74.410004,1729425048843.0,0.0
-7.274181,-1.031307,10.995021,-356.720001,-15.47,45.220001,1729425048863.0,0.0
-7.037291,-7.616355,-1.287339,-574.77002,-47.599998,-0.42,1729425048882.0,0.0
-7.128219,-16.467405,-13.564911,-599.970032,-62.439999,-21.280001,1729425048902.0,0.0
-4.802395,-22.91367,-13.016955,-434.420013,-52.709999,-38.639999,1729425048922.0,0.0
-2.639283,-18.848263,-6.608976,-95.620003,-3.78,-9.52,1729425048944.0,0.0
-3.215954,-10.8682,-0.019143,186.830002,31.01,25.34,1729425048965.0,0.0
-4.319045,-5.221139,2.167897,278.110016,54.880001,11.69,1729425048982.0,0.0
-5.800202,-2.234896,2.086541,276.850006,44.380001,22.190001,1729425049002.0,0.0
-6.898508,-2.435893,2.275574,209.300003,8.47,47.740002,1729425049023.0,0.0
-6.692725,-5.036892,1.660619,122.360001,0.14,28.700001,1729425049045.0,0.0
-6.30748,-8.157133,-0.5001,51.939999,21.139999,5.88,1729425049062.0,0.0
-6.218946,-10.813165,-0.854238,5.32,41.09,-7.28,1729425049082.0,0.0
-5.333601,-11.423335,1.131805,-43.889999,35.84,-24.01,1729425049101.0,0.0
-4.570292,-11.490334,3.285345,-60.200001,16.73,-24.710001,1729425049122.0,0.0
-3.792624,-11.748759,3.960121,-34.860001,-0.56,-29.960001,1729425049143.0,0.0
-2.433501,-10.315458,3.239882,29.68,-22.75,-27.370001,1729425049164.0,0.0
-1.895115,-6.73101,1.835295,134.119995,-34.439999,-2.94,1729425049182.0,0.0
-3.196811,-2.452643,1.40698,171.220001,8.89,9.94,1729425049203.0,0.0
-5.47717,2.316252,1.849652,103.18,49.07,43.540001,1729425049221.0,0.0
-7.834101,3.98405,9.131011,-42.98,41.93,74.199997,1729425049244.0,0.0
-8.549555,2.364109,11.837293,-302.399994,-15.26,59.010002,1729425049262.0,0.0
-8.810372,-4.409972,-1.385444,-557.200012,-54.740002,13.51,1729425049282.0,0.0
-8.427521,-14.237295,-17.37907,-623.070007,-37.450001,-46.830002,1729425049301.0,0.0
-6.029913,-20.149961,-17.690138,-472.640015,-23.450001,-46.41,1729425049322.0,0.0
-3.663411,-17.960526,-8.513663,-96.459999,3.22,5.6,1729425049343.0,0.0
-2.402394,-11.497513,-0.454636,203.279999,-2.66,44.73,1729425049362.0,0.0
-2.56032,-4.871787,2.227718,278.809998,16.73,26.880001,1729425049383.0,0.0
-5.290531,-1.545763,-0.179462,258.019989,36.75,34.02,1729425049401.0,0.0
-8.159525,-4.103691,-1.397408,158.410004,33.880001,43.119999,1729425049421.0,0.0
-8.035098,-8.221739,-3.349952,28.49,38.639999,-3.43,1729425049443.0,0.0
-7.305287,-13.213166,-3.479164,-11.34,39.759998,-24.360001,1729425049462.0,0.0
-5.704489,-14.390435,-0.918844,-28.559999,22.540001,-37.73,1729425049482.0,0.0
-3.912265,-12.401999,0.476172,-18.9,4.76,-43.889999,1729425049502.0,0.0
-3.531806,-9.767502,2.165504,37.939999,0.7,-51.450001,1729425049521.0,0.0
-3.510271,-7.867601,2.349752,161.350006,-5.88,-42.209999,1729425049542.0,0.0
-3.285345,-4.847858,2.072184,221.059998,-22.889999,-16.73,1729425049563.0,0.0
-3.433701,-0.725025,2.124826,195.229996,-17.57,5.18,1729425049583.0,0.0
-4.651647,5.053641,2.376073,66.709999,10.43,42.84,1729425049602.0,0.0
-7.422535,6.257231,7.678568,-120.82,23.450001,86.449997,1729425049623.0,0.0
-9.174082,1.636691,5.632704,-395.98999,-4.97,57.610001,1729425049643.0,0.0
-9.779467,-8.348558,-7.384251,-605.080017,-34.02,-15.82,1729425049662.0,0.0
-8.35813,-18.841085,-17.38625,-638.400024,-46.619999,-80.5,1729425049682.0,0.0
-5.9342,-22.78685,-21.073587,-427.630005,-25.129999,-61.810001,1729425049702.0,0.0
-3.024528,-16.338192,-9.444471,36.68,-1.75,-7.42,1729425049720.0,0.0
-2.0004,-8.116454,-1.366302,318.709991,-15.61,43.119999,1729425049742.0,0.0
-2.330609,-1.488336,0.662812,382.339996,5.46,18.83,1729425049762.0,0.0
-4.76411,1.335195,0.019143,294.48999,13.37,27.299999,1729425049781.0,0.0
-6.989435,-1.349552,-0.772882,94.919998,17.639999,29.610001,1729425049802.0,0.0
-6.843473,-6.436693,-3.37388,-42.84,29.33,-8.12,1729425049822.0,0.0
-6.89133,-10.875379,-4.859823,-53.830002,28.0,-12.11,1729425049842.0,0.0
-6.778866,-13.926227,-4.864608,46.48,35.349998,-8.82,1729425049863.0,0.0
-5.740381,-12.045469,-1.78026,96.25,24.92,-15.12,1729425049881.0,0.0
-4.84068,-9.217153,1.048056,112.980003,10.29,-24.85,1729425049901.0,0.0
-4.072584,-8.252845,1.777867,124.529999,-3.57,-29.120001,1729425049921.0,0.0
-3.579663,-8.240881,1.677369,147.350006,-17.92,-26.880001,1729425049942.0,0.0
-3.342773,-6.809973,0.717847,170.869995,-20.93,-18.200001,1729425049964.0,0.0
-3.536592,-3.814159,0.574277,165.970001,-10.71,-2.1,1729425049982.0,0.0
-4.673182,1.112662,3.54377,91.840004,10.78,23.940001,1729425050002.0,0.0
-6.309873,4.627719,8.145168,-68.459999,17.01,59.57,1729425050021.0,0.0
-10.102496,0.210568,8.762517,-387.519989,-9.8,47.670002,1729425050047.0,0.0
-10.152746,-4.54397,-4.778467,-636.580017,-56.490002,-16.59,1729425050062.0,0.0
-7.657032,-11.765509,-18.812372,-705.390015,-67.480003,-72.099998,1729425050083.0,0.0
-4.847858,-16.316658,-24.818357,-502.25,-42.84,-71.68,1729425050102.0,0.0
-2.402394,-18.21895,-11.806188,-86.519997,-5.74,-22.26,1729425050121.0,0.0
-1.225125,-11.748759,-3.172883,202.509995,-4.41,25.48,1729425050142.0,0.0
-2.490928,-5.515456,1.356731,355.320007,20.02,24.639999,1729425050173.0,0.0
-6.905686,0.902094,-1.519442,334.040009,43.400002,17.43,1729425050181.0,0.0
-7.793423,-2.54357,-2.634498,158.619995,6.58,40.950001,1729425050201.0,0.0
-6.443871,-6.608976,-3.565305,65.379997,9.8,6.44,1729425050222.0,0.0
-6.525227,-9.68136,-3.972085,68.25,21.629999,15.75,1729425050242.0,0.0
-6.656832,-11.365908,-3.510271,111.300003,33.740002,14.84,1729425050262.0,0.0
-6.245267,-11.466407,-3.165704,135.169998,38.150002,2.66,1729425050282.0,0.0
-5.639884,-10.937593,-1.359123,126.980003,33.18,-11.34,1729425050301.0,0.0
-4.838287,-9.896714,0.729811,93.239998,16.66,-23.52,1729425050321.0,0.0
-4.053442,-8.482556,1.902294,77.139999,-7.98,-25.76,1729425050342.0,0.0
-3.426522,-7.625926,1.706082,107.029999,-30.799999,-21.77,1729425050364.0,0.0
-3.144169,-6.522834,2.155933,152.180008,-42.560001,-14.21,1729425050382.0,0.0
-3.39063,-4.713861,0.447458,213.639999,-32.970001,7.14,1729425050401.0,0.0
-4.455436,-1.5003,1.100698,151.479996,23.940001,67.410004,1729425050422.0,0.0
-5.869594,-3.672983,2.37368,48.650002,18.34,57.330002,1729425050442.0,0.0
-7.003791,-5.319244,4.493721,-99.120003,15.33,36.259998,1729425050462.0,0.0
-9.078369,-8.941978,6.436693,-235.270004,14.07,22.75,1729425050482.0,0.0
-11.042876,-6.716653,-0.22014,-323.049988,18.48,-14.7,1729425050502.0,0.0
-7.216753,-10.234102,-10.253245,-344.119995,-88.690002,-70.209999,1729425050521.0,0.0
-4.62054,-14.017156,-9.662218,-157.710007,-26.6,11.76,1729425050598.0,0.0
-2.794817,-14.416756,-2.474179,50.330002,-20.51,1.12,1729425050601.0,0.0
-3.285345,-10.973484,0.806381,167.300003,14.28,-0.14,1729425050609.0,0.0
-6.053841,-2.897708,3.371487,221.059998,57.75,2.38,1729425050643.0,0.0
-7.525427,-1.205983,0.823131,221.130005,45.43,25.129999,1729425050643.0,0.0
-6.831509,-3.562913,-0.842274,126.349998,26.950001,42.209999,1729425050660.0,0.0
-7.491928,-8.662018,-2.964707,37.799999,8.4,24.639999,1729425050681.0,0.0
-7.65464,-12.715459,-3.486342,22.049999,31.08,8.75,1729425050701.0,0.0
-6.673582,-12.988241,-0.638884,5.39,44.73,-14.49,1729425050720.0,0.0
-5.4341,-10.159925,1.481157,-1.47,17.15,-16.66,1729425050741.0,0.0
-4.615755,-9.401401,2.313859,40.040001,5.95,-11.2,1729425050762.0,0.0
-4.290331,-10.006784,1.753939,62.860001,-12.18,-28.84,1729425050783.0,0.0
-4.024727,-9.609575,1.189233,83.650002,-13.37,-36.68,1729425050801.0,0.0
-4.252046,-7.999206,0.760918,126.279999,-8.96,-24.360001,1729425050821.0,0.0
-4.740182,-5.575277,0.693919,145.740005,-0.35,-10.71,1729425050841.0,0.0
-4.902894,-1.98365,2.203789,119.489998,10.15,-1.47,1729425050862.0,0.0
-5.687739,0.413958,3.349952,-28.77,19.67,25.34,1729425050893.0,0.0
-6.766902,-3.002992,5.742774,-140.070007,11.48,29.960001,1729425050901.0,0.0
-9.29133,-7.322037,7.307681,-244.300003,-13.79,8.68,1729425050921.0,0.0
-9.190832,-8.989835,-0.289532,-329.140015,-73.5,-47.389999,1729425050943.0,0.0
-8.214561,-13.567304,-8.236095,-312.059998,-87.919998,-46.689999,1729425050962.0,0.0
-6.087341,-17.314465,-8.599805,-164.710007,-57.049999,-44.939999,1729425050981.0,0.0
-2.909672,-15.670596,-4.759324,71.540001,-53.41,-31.15,1729425051001.0,0.0
-1.835295,-10.109675,-1.304088,255.5,-13.3,-10.08,1729425051021.0,0.0
-3.09392,-5.209175,1.718047,318.570007,39.48,-12.25,1729425051045.0,0.0
-5.438886,-1.320838,3.546163,274.679993,54.599998,-2.1,1729425051063.0,0.0
-7.951349,-0.232104,2.897708,197.820007,32.619999,26.809999,1729425051082.0,0.0
-9.068797,-3.321238,0.124427,132.860001,17.43,32.549999,1729425051101.0,0.0
-8.532805,-7.293324,-2.256432,61.25,26.040001,3.22,1729425051122.0,0.0
-6.606583,-11.102697,-0.811167,-13.16,24.92,-27.93,1729425051142.0,0.0
-3.713661,-11.892329,2.160719,-97.720001,7.0,-38.639999,1729425051162.0,0.0
-3.376273,-13.361522,2.545963,-72.940002,6.93,-28.280001,1729425051182.0,0.0
-3.105884,-12.973885,2.464607,6.44,2.59,-43.119999,1729425051201.0,0.0
-3.156133,-10.643275,2.730211,125.510002,-3.99,-39.689999,1729425051221.0,0.0
-3.754339,-7.113862,2.54357,225.399994,-0.42,-28.42,1729425051243.0,0.0
-4.689932,-3.292524,2.199004,245.559998,8.54,-12.25,1729425051282.0,0.0
-5.54417,-0.035892,2.249253,193.059998,7.14,5.88,1729425051282.0,0.0
-5.71406,1.567299,2.397608,121.099998,-3.22,28.559999,1729425051318.0,0.0
-5.302495,0.411566,5.067998,57.049999,-16.59,50.400002,1729425051329.0,0.0
-4.981857,-2.876173,7.805387,-31.780001,-19.460001,58.099998,1729425051435.0,0.0
-5.249853,-5.65424,8.812766,-183.190002,-20.58,45.920002,1729425051435.0,0.0
-6.884151,-7.57089,3.316452,-359.23999,-28.559999,17.92,1729425051435.0,0.0
-8.499306,-10.695917,-5.410172,-420.279999,-34.369999,-8.19,1729425051436.0,0.0
-9.286544,-18.556339,-6.501299,-279.299988,-22.68,-7.7,1729425051436.0,0.0
-5.900701,-18.934404,-1.538585,-51.939999,-34.09,-19.110001,1729425051444.0,0.0
-2.354537,-6.89133,1.926222,151.130005,-27.58,-0.35,1729425051464.0,0.0
-3.665804,-2.136791,3.881158,244.089996,42.0,5.46,1729425051482.0,0.0
-7.077969,0.145962,3.579663,177.660004,52.920002,25.129999,1729425051501.0,0.0
-9.21476,-2.06022,1.852045,84.910004,36.889999,28.98,1729425051521.0,0.0
-8.683553,-6.618547,0.102891,-8.82,17.639999,6.51,1729425051543.0,0.0
-6.687939,-10.815558,-0.303888,-70.07,3.36,-18.48,1729425051566.0,0.0
-4.73061,-12.799208,0.70349,-109.970001,1.61,-29.049999,1729425051582.0,0.0
-3.969693,-12.550355,1.835295,-104.160004,14.42,-28.630001,1729425051605.0,0.0
-3.871587,-11.428121,2.648855,-46.200001,19.6,-27.719999,1729425051621.0,0.0
-4.010371,-9.858429,3.412165,12.74,13.16,-30.309999,1729425051642.0,0.0
-4.046263,-7.987241,3.905087,59.360001,1.75,-27.16,1729425051665.0,0.0
-4.086941,-5.781059,3.306881,90.370003,-8.33,-14.0,1729425051681.0,0.0
-4.405186,-4.532006,2.897708,90.580002,-8.12,-1.33,1729425051701.0,0.0
-5.213961,-3.036492,2.428715,39.759998,3.92,3.01,1729425051721.0,0.0
-6.147161,-2.438286,2.194218,-7.7,18.200001,20.02,1729425051742.0,0.0
-6.393622,-3.098706,4.558327,-59.779999,9.45,32.830002,1729425051765.0,0.0
-7.317252,-4.945964,7.886744,-169.259995,-17.08,30.66,1729425051784.0,0.0
-8.391629,-6.855437,1.878366,-438.059998,-43.400002,-14.28,1729425051802.0,0.0
-7.322037,-9.095119,-10.695917,-526.330017,-54.110001,-55.790001,1729425051822.0,0.0
-5.960521,-15.728023,-12.521641,-350.700012,-62.23,-25.83,1729425051844.0,0.0
-3.366701,-19.427328,-4.034299,-5.74,-37.59,-10.64,1729425051863.0,0.0
-2.057827,-13.004992,-1.65344,244.369995,-1.19,5.46,1729425051882.0,0.0
-2.931208,-6.659225,0.820738,338.799988,41.580002,6.23,1729425051904.0,0.0
-5.254639,-0.753739,2.234896,305.269989,64.120003,14.14,1729425051923.0,0.0
-8.152347,0.964308,2.402394,227.149994,47.32,48.509998,1729425051942.0,0.0
-8.769694,-2.579463,1.37348,134.399994,15.05,45.57,1729425051963.0,0.0
-9.030513,-5.462814,7.362715,73.57,11.06,21.77,1729425051982.0,0.0
-8.23131,-8.513663,-2.868994,-133.0,25.76,-16.450001,1729425052002.0,0.0
-6.041877,-16.701902,-2.160719,-88.340004,-5.46,-28.49,1729425052022.0,0.0
-3.751946,-16.953148,-0.399601,-40.25,-18.059999,-33.18,1729425052046.0,0.0
-2.878566,-14.263616,0.612563,90.370003,1.75,-19.040001,1729425052062.0,0.0
-4.689932,-9.38465,3.783052,149.240005,83.440002,-9.24,1729425052083.0,0.0
-3.515057,-5.630312,3.696911,174.160004,-12.11,-53.760002,1729425052102.0,0.0
-3.074777,-4.271189,1.76351,158.130005,-35.77,-4.34,1729425052123.0,0.0
-2.148755,-2.143969,1.713261,88.340004,-21.07,0.7,1729425052144.0,0.0
-3.26381,0.770489,2.732604,12.6,13.65,29.190001,1729425052164.0,0.0
-6.4678,-0.849452,8.185846,-60.27,35.91,52.360001,1729425052185.0,0.0
-10.820344,-2.24686,9.348758,-261.170013,28.77,42.84,1729425052202.0,0.0
-12.878171,-9.224331,-0.701097,-363.649994,-12.81,-29.049999,1729425052222.0,0.0
-10.731809,-17.793028,-8.73141,-400.540009,-86.169998,-77.980003,1729425052243.0,0.0
-5.678168,-22.992632,-7.77428,-196.070007,-105.769997,-34.93,1729425052264.0,0.0
0.868595,-15.687346,-3.213561,138.809998,-101.43,-28.77,1729425052282.0,0.0
1.158126,-7.353144,-1.904687,299.040009,27.93,-32.48,1729425052301.0,0.0
-3.282953,-2.163112,3.68734,334.950012,133.279999,-29.960001,1729425052322.0,0.0
-9.068797,1.959722,6.635297,269.5,136.5,-1.61,1729425052342.0,0.0
-9.973285,1.098306,3.859623,134.259995,32.41,28.700001,1729425052362.0,0.0
-7.582855,-3.089134,2.45025,-37.099998,-23.309999,4.55,1729425052386.0,0.0
-5.788238,-7.800602,1.320838,-142.800003,-20.719999,-22.049999,1729425052405.0,0.0
-5.673382,-10.784451,0.66999,-164.149994,-19.879999,-20.65,1729425052423.0,0.0
-6.422336,-11.56451,0.768096,-124.18,-6.3,-17.710001,1729425052443.0,0.0
-7.539784,-11.088341,-0.521635,-33.740002,5.18,-21.77,1729425052463.0,0.0
-6.867401,-10.427922,0.035892,118.020004,-2.59,-22.610001,1729425052481.0,0.0
-5.761917,-9.533006,1.691726,169.75,-11.48,-23.52,1729425052503.0,0.0
-5.28096,-7.834101,4.438686,170.729996,-14.98,-27.51,1729425052523.0,0.0
-4.814359,-7.094719,5.120641,139.300003,-22.82,-31.219999,1729425052543.0,0.0
-3.436093,-8.520842,3.646662,94.709999,-42.349998,-35.700001,1729425052563.0,0.0
-1.902294,-9.064013,2.639283,33.110001,-53.760002,-42.420002,1729425052582.0,0.0
-1.363909,-9.674182,3.136991,7.21,-42.560001,-45.290001,1729425052601.0,0.0
-1.816152,-8.348558,4.24726,5.46,-22.960001,-45.43,1729425052623.0,0.0
-2.859423,-7.980063,3.014957,46.200001,-8.26,-28.91,1729425052642.0,0.0
-2.608176,-8.16431,3.302095,136.710007,-4.48,-20.370001,1729425052664.0,0.0
-2.359323,-4.792823,5.04407,165.970001,9.52,-7.91,1729425052683.0,0.0
-2.916851,-4.709075,5.072784,154.630005,26.950001,13.37,1729425052701.0,0.0
-4.345366,-7.4345,7.140182,107.520004,15.96,-3.36,1729425052720.0,0.0
-4.460221,-7.905886,5.63749,92.260002,-5.11,-15.12,1729425052743.0,0.0
-4.271189,-5.120641,6.422336,93.519997,1.61,2.38,1729425052764.0,0.0
-4.26401,-3.586841,5.123034,85.540001,9.94,19.040001,1729425052782.0,0.0
-3.507878,-4.898108,4.319045,55.09,0.21,8.12,1729425052802.0,0.0
-3.582055,-6.070591,4.912465,13.09,5.81,9.38,1729425052821.0,0.0
-4.603791,-5.443672,7.353144,-19.809999,30.17,2.45,1729425052842.0,0.0
-5.548956,-4.127619,5.706882,-56.630001,51.799999,-2.31,1729425052862.0,0.0
-5.962914,-4.285545,4.48415,-97.300003,54.18,2.66,1729425052881.0,0.0
-6.161518,-5.446064,5.115855,-128.100006,33.599998,1.68,1729425052900.0,0.0
-6.178268,-5.69731,5.328816,-132.860001,7.98,-0.77,1729425052928.0,0.0
-5.936593,-8.252845,1.923829,-74.620003,20.299999,12.46,1729425052942.0,0.0
-4.847858,-10.908878,2.033899,-2.45,48.509998,10.85,1729425052965.0,0.0
-3.663411,-7.51107,2.70389,-41.720001,46.200001,0.84,1729425052983.0,0.0
-4.163511,-6.673582,7.515855,-45.43,10.85,1.89,1729425053003.0,0.0
-5.146961,-9.157332,9.178867,-44.66,-9.38,-3.85,1729425053022.0,0.0
-5.146961,-8.178668,5.056034,-53.41,22.82,-11.34,1729425053046.0,0.0
-5.848059,-5.687739,1.081556,-52.150002,50.330002,4.69,1729425053064.0,0.0
-7.008578,-7.039684,-0.612563,-8.4,45.639999,8.05,1729425053082.0,0.0
-7.601997,-9.044869,2.201397,39.130001,22.469999,-7.14,1729425053103.0,0.0
-6.644868,-7.104291,4.883751,74.690002,-25.9,14.77,1729425053123.0,0.0
-5.300103,-6.068198,7.726424,60.549999,-45.360001,22.33,1729425053143.0,0.0
-3.859623,-7.74796,6.278766,-7.42,-53.830002,7.49,1729425053165.0,0.0
-2.304288,-10.41835,5.070391,-53.900002,-70.840004,-19.74,1729425053183.0,0.0
-1.038485,-10.049855,3.897908,-15.33,-85.470001,-16.17,1729425053203.0,0.0
-1.29691,-7.427321,3.404987,90.580002,-48.93,6.65,1729425053223.0,0.0
-3.242275,-4.201797,4.606184,154.0,20.719999,5.81,1729425053243.0,0.0
-6.149554,-2.258825,6.659225,142.240005,67.410004,7.0,1729425053263.0,0.0
-8.848659,-1.785046,8.635696,79.379997,68.110001,16.870001,1729425053283.0,0.0
-9.332008,-1.337588,7.24786,-34.509998,47.040001,11.2,1729425053303.0,0.0
-7.094719,-1.567299,3.486342,-164.080002,31.290001,-4.76,1729425053324.0,0.0
-4.127619,-2.639283,-0.143569,-262.98999,10.43,-10.57,1729425053345.0,0.0
-1.526621,-3.586841,-0.837488,-322.630005,-7.14,-17.43,1729425053365.0,0.0
-2.660819,-9.628718,3.010171,-367.779999,-2.52,-9.24,1729425053385.0,0.0
-5.737988,-12.650853,1.294517,-383.73999,45.920002,-14.98,1729425053404.0,0.0
-8.11167,-15.247066,-1.844866,-246.680008,64.82,-8.54,1729425053424.0,0.0
-9.420543,-15.562919,-3.414558,-102.269997,36.68,-2.45,1729425053445.0,0.0
-8.063812,-14.809179,-3.254239,63.209999,-7.56,6.09,1729425053465.0,0.0
-5.548956,-11.837293,-1.569692,167.930008,-49.420002,6.58,1729425053484.0,0.0
-4.378866,-9.937392,2.103291,202.509995,-74.059998,8.61,1729425053504.0,0.0
-3.256632,-8.647661,4.429115,175.419998,-74.620003,0.14,1729425053524.0,0.0
-2.029114,-8.970692,1.4668,136.570007,-64.82,-15.75,1729425053544.0,0.0
-1.311267,-9.815358,1.129412,153.649994,-46.619999,-34.580002,1729425053566.0,0.0
-2.639283,-8.630912,2.201397,217.839996,-23.66,-13.79,1729425053584.0,0.0
-4.086941,-6.092126,2.565106,311.290009,4.83,2.45,1729425053604.0,0.0
-5.553742,-2.395216,4.728218,319.200012,31.92,18.9,1729425053623.0,0.0
-6.855437,-0.430708,7.408179,251.440002,28.139999,28.98,1729425053650.0,0.0
-5.898308,-0.799203,5.54417,132.020004,13.23,10.57,1729425053665.0,0.0
-4.807181,-2.024328,4.706682,-17.08,17.5,-2.17,1729425053684.0,0.0
-3.622734,-3.050849,2.127219,-146.300003,36.330002,-11.76,1729425053704.0,0.0
-2.663212,-0.79681,0.224925,-218.889999,67.620003,-9.66,1729425053723.0,0.0
-4.847858,-1.871187,3.412165,-279.649994,118.090004,23.59,1729425053744.0,0.0
-8.305488,-6.594619,5.520242,-351.540009,112.699997,1.19,1729425053766.0,0.0
-9.765109,-12.227324,1.454836,-372.890015,94.919998,-24.710001,1729425053784.0,0.0
-10.389636,-15.802199,-2.249253,-306.950012,68.669998,-18.9,1729425053804.0,0.0
-7.99442,-16.733009,-4.65404,-166.110001,3.5,3.99,1729425053824.0,0.0
-5.501099,-16.13241,-4.063013,-5.88,-26.18,11.55,1729425053844.0,0.0
-5.211568,-13.153346,-2.041078,126.699997,-8.05,7.63,1729425053865.0,0.0
-6.008378,-9.664611,-0.940379,215.529999,8.68,5.32,1729425053884.0,0.0
-6.73101,-6.795617,0.619741,231.070007,0.21,-0.98,1729425053903.0,0.0
-6.474977,-6.537192,1.799403,210.0,-19.32,-7.56,1729425053923.0,0.0
-5.407779,-6.910471,2.098505,174.160004,-45.290001,-12.39,1729425053944.0,0.0
-4.046263,-8.784052,2.493321,168.699997,-65.730003,-14.35,1729425053964.0,0.0
-2.957529,-9.040084,4.24726,166.809998,-80.150002,-22.610001,1729425053984.0,0.0
-2.584249,-6.716653,4.149154,199.009995,-63.560001,-14.7,1729425054004.0,0.0
-3.182454,-5.570491,4.290331,242.899994,-20.09,-1.61,1729425054023.0,0.0
-7.611568,-1.816152,5.819345,212.520004,10.43,0.35,1729425054121.0,0.0
-7.846066,-0.605384,4.613362,203.979996,20.719999,7.7,1729425054123.0,0.0
-6.539584,0.208176,3.716053,82.949997,31.08,15.68,1729425054124.0,0.0
-4.457829,0.294317,2.787638,-49.84,31.43,-8.19,1729425054141.0,0.0
-3.165704,-2.883351,1.007378,-184.449997,28.77,-23.309999,1729425054146.0,0.0
-3.254239,-7.566105,2.481357,-285.390015,26.040001,-7.84,1729425054165.0,0.0
-5.261817,-11.184053,4.82393,-401.029999,33.18,-37.170002,1729425054236.0,0.0
-6.979864,-13.825729,4.04387,-310.23999,19.74,-28.07,1729425054238.0,0.0
-6.955935,-11.377872,1.20359,-184.309998,12.04,-5.53,1729425054239.0,0.0
-6.9679,-9.370294,-2.902494,-70.629997,14.56,29.610001,1729425054243.0,0.0
-7.142576,-11.447264,-3.639483,23.379999,27.790001,15.12,1729425054264.0,0.0
-7.444071,-11.083554,-0.789631,72.029999,11.83,-7.77,1729425054282.0,0.0
-6.62094,-10.011569,0.921237,119.559998,-14.42,4.83,1729425054304.0,0.0
-5.498707,-9.138189,3.739982,124.599998,-34.860001,-5.11,1729425054323.0,0.0
-4.218546,-10.509278,3.067599,130.410004,-48.580002,-3.85,1729425054344.0,0.0
-2.54357,-11.918649,0.875773,163.029999,-62.439999,-13.72,1729425054365.0,0.0
-2.019542,-6.946364,0.102891,223.440002,-53.619999,-22.469999,1729425054383.0,0.0
-3.828516,-3.251846,1.87358,300.369995,-11.69,13.02,1729425054403.0,0.0
-6.632904,0.0335,5.733203,277.76001,50.470001,18.129999,1729425054423.0,0.0
-8.733803,1.67019,6.611369,188.580002,54.040001,13.93,1729425054447.0,0.0
-9.01137,0.256032,6.955935,98.139999,31.01,12.67,1729425054464.0,0.0
-7.479963,-1.052842,6.312266,-45.709999,14.07,-3.99,1729425054483.0,0.0
-5.76431,-3.022135,4.431508,-165.199997,9.24,-21.49,1729425054503.0,0.0
-4.869394,-5.816952,2.876173,-215.389999,20.16,-20.16,1729425054523.0,0.0
-4.706682,-9.083155,1.655833,-201.669998,38.009998,-14.49,1729425054545.0,0.0
-3.976871,-10.779665,1.849652,-156.520004,47.110001,-22.610001,1729425054565.0,0.0
-3.682554,-8.413164,4.448257,-142.869995,41.93,-18.9,1729425054583.0,0.0
-4.577469,-6.656832,5.352744,-132.300003,33.810001,2.31,1729425054603.0,0.0
-5.510671,-9.298509,2.9336,-119.699997,33.389999,1.47,1729425054623.0,0.0
-7.618747,-10.612168,4.292724,-111.580002,29.190001,-15.26,1729425054644.0,0.0
-8.324631,-8.405986,1.806581,-37.799999,23.1,-0.14,1729425054665.0,0.0
-7.975278,-5.649454,-0.141177,23.030001,23.450001,24.01,1729425054683.0,0.0
-7.240681,-6.410372,-0.631705,30.380001,15.82,18.059999,1729425054703.0,0.0
-6.728617,-9.973285,0.212961,9.8,0.21,-4.27,1729425054723.0,0.0
-7.89153,-11.315658,4.208975,36.610001,-8.61,-8.05,1729425054743.0,0.0
-7.513463,-8.848659,4.721039,110.599998,-16.1,11.76,1729425054764.0,0.0
-6.235696,-6.675975,3.672983,139.300003,-32.41,16.799999,1729425054783.0,0.0
-4.788038,-5.675776,3.366701,122.919998,-55.23,9.17,1729425054803.0,0.0
-3.598805,-6.197411,4.429115,116.129997,-76.160004,12.18,1729425054822.0,0.0
-2.524428,-6.470192,6.336195,109.550003,-78.260002,8.05,1729425054844.0,0.0
-2.701497,-5.836094,5.187639,104.090004,-42.84,3.36,1729425054864.0,0.0
-4.625326,-4.520042,2.809174,100.169998,17.43,2.03,1729425054883.0,0.0
-7.424929,-3.146562,2.512464,103.599998,60.27,11.97,1729425054903.0,0.0
-9.875179,-3.644269,4.402793,107.870003,57.260002,18.129999,1729425054922.0,0.0
-9.492328,-4.225725,4.878965,53.760002,25.549999,2.52,1729425054944.0,0.0
-7.159326,-4.486543,4.596612,-26.880001,1.47,-1.61,1729425054971.0,0.0
-5.295317,-3.510271,4.110869,-100.800003,3.01,0.21,1729425054985.0,0.0
-4.316652,-4.101298,2.660819,-139.229996,21.84,-3.71,1729425055003.0,0.0
-3.811767,-5.836094,0.196211,-176.119995,39.48,-11.48,1729425055024.0,0.0
-3.845266,-9.518648,0.043071,-188.789993,44.170002,-11.83,1729425055047.0,0.0
-6.429514,-13.138988,7.04447,-150.850006,18.129999,-18.129999,1729425055064.0,0.0
-7.329216,-10.13839,6.472585,-70.489998,5.81,-10.36,1729425055084.0,0.0
-7.539784,-5.242674,3.84048,16.1,19.040001,14.07,1729425055103.0,0.0
-7.836494,-3.646662,0.918844,69.720001,26.880001,23.1,1729425055123.0,0.0
-8.212167,-6.4678,1.648655,68.529999,14.84,3.36,1729425055145.0,0.0
-8.441878,-7.386643,3.699304,2.24,0.56,-4.48,1729425055165.0,0.0
-8.690732,-8.733803,4.752146,-11.06,-8.82,4.27,1729425055184.0,0.0
-8.705089,-9.044869,5.723632,-27.02,-22.26,-9.8,1729425055204.0,0.0
-8.140383,-9.908678,6.932007,-35.700001,-51.73,-23.24,1729425055224.0,0.0
-6.070591,-10.777272,5.819345,-17.219999,-94.849998,-25.76,1729425055246.0,0.0
-2.945565,-10.25803,4.125226,42.560001,-127.260002,-23.17,1729425055267.0,0.0
-1.052842,-7.523034,1.299303,122.010002,-114.449997,-8.61,1729425055285.0,0.0
-1.859223,-5.465207,-0.045464,181.509995,-46.830002,-12.04,1729425055305.0,0.0
-4.835894,-2.68714,1.730011,157.149994,45.5,-23.1,1729425055325.0,0.0
-11.006985,-2.866602,3.907479,112.840004,94.639999,4.76,1729425055346.0,0.0
-10.810772,-4.199404,3.682554,36.540001,33.740002,-11.55,1729425055368.0,0.0
-7.149754,-4.771288,2.584249,-63.630001,-32.200001,-29.190001,1729425055388.0,0.0
-4.12044,-5.919843,0.39003,-118.300003,-48.09,-19.6,1729425055405.0,0.0
-2.261217,-7.015756,-0.519243,-124.25,-20.719999,-16.940001,1729425055424.0,0.0
-1.4668,-8.183454,1.871187,-104.300003,16.66,-17.290001,1729425055446.0,0.0
-2.469393,-8.539984,6.089733,-102.340004,37.73,-8.54,1729425055465.0,0.0
-4.053442,-8.855836,5.989235,-94.080002,38.360001,-6.72,1729425055486.0,0.0
-5.582455,-7.45125,5.158926,-57.400002,31.85,-5.46,1729425055505.0,0.0
-7.183254,-5.228317,5.065606,7.56,24.43,17.710001,1729425055525.0,0.0
-8.51127,-3.957729,3.895515,32.48,18.9,27.09,1729425055610.0,0.0
-8.626125,-5.795416,2.40718,0.07,14.98,9.45,1729425055613.0,0.0
-7.9346,-8.207381,2.677568,-63.98,3.36,-2.73,1729425055613.0,0.0
-7.257431,-9.95175,3.65384,-68.599998,-15.4,3.08,1729425055614.0,0.0
-6.76451,-9.760324,4.024727,-17.15,-20.02,5.39,1729425055625.0,0.0
-6.908078,-8.843873,5.151747,41.369999,-10.08,3.01,1729425055645.0,0.0
-6.996613,-8.379664,5.98445,66.709999,-12.11,-3.08,1729425055665.0,0.0
-5.575277,-7.257431,6.963113,66.639999,-55.720001,-2.59,1729425055690.0,0.0
-3.756732,-6.549156,6.087341,55.09,-80.5,5.04,1729425055704.0,0.0
-2.115255,-7.322037,2.957529,38.57,-78.120003,-0.14,1729425055725.0,0.0
-2.146362,-7.743174,1.337588,36.82,-46.970001,-9.73,1729425055745.0,0.0
-4.211368,-6.893722,2.371287,78.540001,10.64,-9.45,1729425055766.0,0.0
-6.975078,-4.905287,4.003192,115.360001,57.400002,-1.47,1729425055785.0,0.0
-9.12144,-3.452843,4.443472,124.739998,58.099998,12.74,1729425055805.0,0.0
-9.071191,-3.172883,3.412165,95.620003,31.08,16.799999,1729425055824.0,0.0
-6.982256,-3.192025,1.457229,30.450001,10.15,3.57,1729425055845.0,0.0
-5.536992,-4.108476,1.677369,-27.09,6.37,0.07,1729425055867.0,0.0
-4.388437,-6.142376,0.638884,-58.240002,19.460001,-3.15,1729425055885.0,0.0
-3.457629,-8.331808,1.67019,-83.860001,29.4,-5.18,1729425055904.0,0.0
-4.173083,-10.085747,8.092526,-120.75,10.92,-4.13,1729425055925.0,0.0
-4.993821,-10.944772,7.719246,-121.239998,-13.58,-8.54,1729425055945.0,0.0
-6.168696,-9.611969,5.905487,-48.720001,-4.41,-6.09,1729425055966.0,0.0
-7.195218,-5.977271,3.78066,39.34,24.43,6.93,1729425055986.0,0.0
-8.319844,-1.916651,2.605784,88.340004,36.470001,14.49,1729425056004.0,0.0
-8.420342,-3.596412,5.213961,41.790001,21.139999,8.54,1729425056024.0,0.0
-7.575676,-5.783452,6.034698,-92.82,-7.35,-11.9,1729425056047.0,0.0
-7.45125,-9.619147,6.951149,-140.630005,-34.369999,-14.7,1729425056066.0,0.0
-7.051648,-11.760723,6.649654,-101.989998,-56.84,-15.190001,1729425056084.0,0.0
-5.295317,-10.717452,5.663811,-25.690001,-66.010002,-15.68,1729425056104.0,0.0
-3.871587,-8.709875,5.709275,53.900002,-58.52,-12.88,1729425056124.0,0.0
-3.196811,-6.52762,5.362316,93.660004,-48.580002,-12.74,1729425056145.0,0.0
-3.038885,-5.491528,3.699304,115.5,-41.23,-9.59,1729425056165.0,0.0
-3.876373,-5.65424,2.67039,113.050003,-19.950001,-10.92,1729425056185.0,0.0
-5.312066,-4.259224,2.462214,87.849998,13.72,-13.09,1729425056204.0,0.0
-7.099504,-4.06062,2.289931,118.090004,38.220001,7.07,1729425056224.0,0.0
-8.707481,-4.185047,3.881158,120.260002,44.310001,10.99,1729425056246.0,0.0
-8.886944,-4.539185,4.855037,64.470001,31.639999,-5.25,1729425056265.0,0.0
-7.56132,-4.955536,4.630112,0.56,7.84,-8.61,1729425056285.0,0.0
-5.706882,-4.658825,4.23051,-26.950001,-7.84,-2.1,1729425056319.0,0.0
-4.599005,-5.067998,4.072584,-27.299999,0.84,2.38,1729425056331.0,0.0
-3.589234,-8.343772,1.325624,-29.469999,21.91,-0.56,1729425056345.0,0.0
-3.041277,-7.702496,3.553342,-95.760002,35.07,-14.07,1729425056365.0,0.0
-4.309474,-7.846066,10.238889,-144.970001,4.27,-14.56,1729425056385.0,0.0
-5.242674,-8.786445,8.13799,-148.330002,-34.02,-18.549999,1729425056405.0,0.0
-6.412765,-8.800802,5.364708,-70.769997,-29.049999,-4.97,1729425056425.0,0.0
-7.046863,-5.223531,3.239882,24.01,4.76,8.12,1729425056445.0,0.0
-7.712067,-2.306681,2.218147,81.550003,29.4,19.460001,1729425056465.0,0.0
-7.970492,-2.830709,5.266603,56.0,21.280001,7.07,1729425056484.0,0.0
-6.963113,-5.292924,6.472585,-52.57,-18.9,-7.7,1729425056504.0,0.0
-6.848258,-9.145369,8.161918,-114.660004,-49.630001,-8.12,1729425056524.0,0.0
-6.18784,-10.676775,7.039684,-108.290001,-58.029999,-13.65,1729425056546.0,0.0
-4.618148,-10.387242,5.278566,-50.119999,-58.799999,-17.01,1729425056566.0,0.0
-3.299703,-9.109475,4.852644,27.299999,-58.450001,-15.33,1729425056585.0,0.0
-2.35693,-6.513263,3.239882,85.400002,-48.439999,-10.85,1729425056604.0,0.0
-2.514857,-5.216353,1.859223,119.279999,-21.35,-4.69,1729425056624.0,0.0
-4.369294,-5.120641,3.605984,107.520004,16.1,-8.61,1729425056645.0,0.0
-6.611369,-4.630112,3.952943,83.510002,39.689999,-12.81,1729425056665.0,0.0
-8.626125,-4.582255,4.065405,118.580002,39.27,16.309999,1729425056684.0,0.0
-8.343772,-3.929015,4.642076,110.739998,28.210001,2.38,1729425056704.0,0.0
-7.152147,-3.61077,4.644469,42.560001,21.84,-9.87,1729425056724.0,0.0
-5.864808,-3.797409,3.981657,-15.4,9.52,-3.99,1729425056744.0,0.0
-4.627719,-4.555934,2.62732,-38.57,15.96,-1.05,1729425056765.0,0.0
-3.708875,-5.245068,2.191825,-60.970001,40.25,-1.33,1729425056784.0,0.0
-2.988636,-6.008378,3.194418,-87.5,52.5,-2.8,1729425056803.0,0.0
-3.615555,-8.444271,8.410772,-121.099998,38.009998,-2.1,1729425056824.0,0.0
-5.034499,-10.746166,9.044869,-154.139999,10.43,-8.89,1729425056844.0,0.0
-6.273981,-10.547562,7.652246,-114.169998,-1.33,-11.2,1729425056865.0,0.0
-6.905686,-7.326823,5.168497,-29.190001,9.17,4.69,1729425056886.0,0.0
-7.439285,-4.74736,3.68734,46.34,16.1,15.05,1729425056904.0,0.0
-7.63789,-4.271189,3.220739,70.349998,17.08,9.31,1729425056924.0,0.0
-7.197611,-4.587041,3.744767,22.190001,10.36,1.96,1729425056944.0,0.0
-7.094719,-6.130411,5.422136,-43.049999,-4.2,-1.54,1729425056965.0,0.0
-7.202396,-8.236095,6.695118,-78.959999,-18.83,-12.18,1729425056986.0,0.0
-6.630512,-9.533006,6.67119,-84.279999,-34.299999,-18.129999,1729425057012.0,0.0
-4.096512,-9.650253,5.869594,-26.460001,-65.590004,-16.799999,1729425057023.0,0.0
-2.340181,-8.097312,3.65384,22.33,-70.769997,-12.46,1729425057049.0,0.0
-1.990828,-6.541977,1.672583,79.449997,-47.880001,-6.09,1729425057065.0,0.0
-3.574877,-5.046463,2.684747,92.75,-2.31,-8.96,1729425057084.0,0.0
-5.943772,-3.416951,3.584448,59.360001,39.689999,-10.5,1729425057104.0,0.0
-8.312666,-3.5007,3.718446,42.84,51.450001,1.89,1729425057124.0,0.0
-9.576077,-4.608576,4.326223,32.34,31.08,6.93,1729425057145.0,0.0
-8.611769,-5.328816,3.424129,3.22,6.3,-2.38,1729425057166.0,0.0
-6.855437,-6.640083,2.160719,2.38,-5.74,1.82,1729425057185.0,0.0
-4.780859,-8.154739,0.433101,31.01,2.1,5.04,1729425057204.0,0.0
-2.057827,-7.992027,-0.323031,25.83,21.559999,-4.27,1729425057225.0,0.0
-0.808774,-7.427321,6.850651,-16.379999,35.700001,-10.29,1729425057245.0,0.0
-2.98385,-6.38405,12.607781,-98.910004,38.150002,-17.639999,1729425057266.0,0.0
-5.283352,-8.224132,7.513463,-112.770004,35.0,-26.809999,1729425057285.0,0.0
-7.269395,-6.484549,4.520042,-96.599998,28.84,-13.72,1729425057305.0,0.0
-8.669197,-2.885744,3.249453,-24.360001,12.32,19.389999,1729425057324.0,0.0
-7.963314,-3.294917,2.89053,-34.23,-14.28,1.26,1729425057344.0,0.0
-6.666404,-5.828916,2.732604,-146.160004,-26.530001,-22.82,1729425057369.0,0.0
-6.139983,-8.324631,3.591627,-256.339996,-42.07,-30.870001,1729425057386.0,0.0
-5.881558,-10.336994,3.251846,-280.209991,-45.709999,-34.93,1729425057406.0,0.0
-5.285746,-10.784451,1.452443,-248.080002,-35.91,-39.27,1729425057426.0,0.0
-5.290531,-9.872787,1.521835,-208.600006,-29.049999,-46.970001,1729425057447.0,0.0
-5.498707,-7.300502,2.825923,-203.770004,-34.860001,-54.670002,1729425057467.0,0.0
-6.329016,-5.448457,4.493721,-237.160004,-52.639999,-39.130001,1729425057487.0,0.0
-6.592227,-3.89073,3.897908,-316.049988,-71.82,-34.16,1729425057505.0,0.0
-5.663811,-4.273581,-1.131805,-397.670013,-94.989998,-53.830002,1729425057525.0,0.0
-3.979264,-5.24746,-6.106483,-467.390015,-122.150002,-70.980003,1729425057547.0,0.0
-2.292324,-6.135197,-9.829715,-492.029999,-115.849998,-64.260002,1729425057567.0,0.0
-1.316052,-6.52762,-11.641083,-455.839996,-65.519997,-43.889999,1729425057586.0,0.0
-2.419144,-10.459028,-10.420743,-343.279999,-1.96,-18.549999,1729425057606.0,0.0
-4.007978,-9.982857,-8.575876,-190.190002,25.27,-14.49,1729425057625.0,0.0
-3.771089,-8.781659,-8.535198,-84.349998,8.19,-9.59,1729425057647.0,0.0
-3.105884,-6.817152,-8.73141,-7.56,0.91,-8.75,1729425057668.0,0.0
-3.424129,-5.635098,-8.228917,28.700001,12.39,-13.02,1729425057686.0,0.0
-3.960121,-5.161318,-7.702496,7.84,20.65,-22.960001,1729425057706.0,0.0
-5.039285,-4.785645,-3.979264,-54.599998,19.950001,-24.219999,1729425057730.0,0.0
-4.649254,-5.381458,-5.54417,-92.190002,9.03,-33.110001,1729425057746.0,0.0
-4.182654,-5.225924,-6.939186,-76.300003,-8.68,-23.1,1729425057766.0,0.0
-3.881158,-5.594419,-7.221539,-26.040001,-11.83,-20.370001,1729425057786.0,0.0
-4.522435,-6.283553,-7.688138,12.11,-7.84,-11.62,1729425057805.0,0.0
-4.577469,-6.058627,-7.642675,21.42,-8.89,-13.93,1729425057826.0,0.0
-4.517649,-5.271388,-7.534998,18.27,-11.76,-12.04,1729425057847.0,0.0
-4.73061,-4.225725,-6.168696,-2.31,-7.21,-11.83,1729425057866.0,0.0
-5.053641,-4.429115,-5.757132,-12.18,-7.98,-3.71,1729425057886.0,0.0
-4.893322,-5.173282,-6.374479,-6.93,-13.16,1.05,1729425057906.0,0.0
-4.402793,-5.4341,-7.738388,13.09,-12.67,5.81,1729425057925.0,0.0
-3.888337,-5.742774,-7.953743,31.290001,-9.38,11.97,1729425057946.0,0.0
-3.239882,-6.309873,-7.649854,9.59,1.89,9.87,1729425057967.0,0.0
-2.964707,-6.379266,-7.209574,4.55,3.92,5.18,1729425057986.0,0.0
-3.012564,-5.974878,-7.21436,10.92,2.38,2.94,1729425058005.0,0.0
-3.388237,-6.563512,-7.49432,15.12,4.48,-0.77,1729425058026.0,0.0
-4.010371,-6.058627,-6.589834,21.210001,8.33,-3.43,1729425058048.0,0.0
-4.713861,-5.532206,-6.360123,22.190001,5.88,-1.19,1729425058066.0,0.0
-4.85743,-5.295317,-6.632904,11.69,-3.36,-0.91,1729425058086.0,0.0
-5.120641,-5.706882,-7.128219,7.84,-5.53,1.89,1729425058106.0,0.0
-5.419744,-6.668797,-6.522834,17.639999,-2.17,3.15,1729425058125.0,0.0
-5.178068,-7.015756,-6.45105,36.259998,-6.93,2.8,1729425058148.0,0.0
-4.524827,-6.357729,-6.23091,54.740002,-16.940001,5.04,1729425058166.0,0.0
-4.299902,-5.661418,-6.020342,54.740002,-18.620001,4.83,1729425058185.0,0.0
-4.364508,-5.666204,-6.376873,38.009998,-14.91,4.13,1729425058206.0,0.0
-4.211368,-6.209375,-6.762117,17.99,-13.440001,4.97,1729425058225.0,0.0
-3.926622,-6.415157,-6.429514,-0.7,-10.85,3.99,1729425058245.0,0.0
