acc_x,acc_y,acc_z,gyr_x,gyr_y,gyr_z,timestamp,label
-2.438286,-5.211568,-8.293523,37.52,35.490002,23.52,1729475676984.0,0.0
-2.340181,-5.553742,-8.240881,31.08,35.560001,27.02,1729475676988.0,0.0
-2.402394,-5.958128,-8.181061,27.299999,31.360001,25.549999,1729475676988.0,0.0
-2.517249,-6.001199,-8.171489,9.24,30.1,19.879999,1729475676996.0,0.0
-2.531606,-6.156733,-8.305488,-10.64,27.09,16.66,1729475677015.0,0.0
-2.306681,-6.23091,-8.595018,-29.049999,20.790001,10.57,1729475677035.0,0.0
-2.017149,-6.305088,-8.891729,-35.279999,17.639999,4.69,1729475677056.0,0.0
-1.615155,-6.020342,-9.205189,-26.32,16.24,-1.47,1729475677076.0,0.0
-1.227518,-5.690133,-9.181261,-5.81,14.21,-4.41,1729475677096.0,0.0
-0.897308,-5.510671,-8.99462,6.93,14.07,-8.19,1729475677116.0,0.0
-0.784846,-5.570491,-8.688338,4.27,19.389999,-13.23,1729475677135.0,0.0
-0.689133,-5.462814,-8.41795,-4.55,21.07,-18.200001,1729475677156.0,0.0
-0.473779,-5.111069,-8.367701,-7.91,17.360001,-20.51,1729475677227.0,0.0
-0.399601,-4.914857,-8.688338,-6.86,16.1,-21.42,1729475677228.0,0.0
-0.253639,-5.082355,-9.049655,-7.0,16.379999,-23.17,1729475677229.0,0.0
-0.047856,-5.022535,-9.099905,-4.13,14.35,-25.34,1729475677235.0,0.0
0.239282,-4.48415,-8.848659,-0.21,10.71,-27.440001,1729475677256.0,0.0
0.861416,-4.199404,-8.786445,-9.87,10.01,-30.030001,1729475677275.0,0.0
1.256232,-5.005785,-9.092726,-37.939999,17.710001,-33.25,1729475677296.0,0.0
1.251446,-5.292924,-9.559326,-33.389999,19.950001,-34.439999,1729475677315.0,0.0
0.555135,-4.733003,-9.468399,-10.08,26.880001,-34.369999,1729475677335.0,0.0
-0.552742,-4.575077,-9.406186,-4.9,34.439999,-35.209999,1729475677356.0,0.0
-1.09352,-4.850252,-8.800802,-14.14,32.970001,-36.330002,1729475677375.0,0.0
-1.062413,-5.000999,-8.539984,-23.309999,24.85,-38.290001,1729475677396.0,0.0
-0.815953,-4.713861,-8.288737,-29.68,17.710001,-39.549999,1729475677415.0,0.0
-1.036092,-4.632504,-8.4347,-35.560001,17.43,-38.360001,1729475677435.0,0.0
-1.134198,-4.61097,-8.41795,-39.48,15.26,-35.91,1729475677459.0,0.0
-1.038485,-4.790431,-8.38445,-38.360001,9.87,-31.57,1729475677477.0,0.0
-1.007378,-4.723432,-8.032705,-29.26,7.91,-27.370001,1729475677497.0,0.0
-1.208375,-4.412365,-7.759924,-16.24,3.08,-23.17,1729475677515.0,0.0
-1.701297,-4.199404,-8.066205,-10.5,0.42,-18.34,1729475677537.0,0.0
-1.799403,-4.228118,-8.209774,-13.440001,-2.87,-15.26,1729475677555.0,0.0
-1.828116,-4.395615,-8.23131,-16.940001,-4.9,-12.67,1729475677576.0,0.0
-2.007578,-4.41715,-8.171489,-16.52,-2.52,-10.64,1729475677597.0,0.0
-2.18704,-4.41715,-8.260024,-9.94,-2.03,-8.19,1729475677616.0,0.0
-2.088934,-4.098906,-8.520842,-4.48,-0.56,-8.12,1729475677635.0,0.0
-2.115255,-3.9673,-8.657232,-3.15,0.63,-7.56,1729475677658.0,0.0
-2.344966,-3.95055,-8.659625,-10.5,4.97,-7.42,1729475677675.0,0.0
-2.304288,-3.945765,-8.652447,-17.08,5.74,-7.91,1729475677696.0,0.0
-1.897508,-4.106083,-8.693125,-19.809999,-1.05,-9.66,1729475677715.0,0.0
-1.976472,-5.458029,-7.60439,-16.309999,-1.05,-10.85,1729475677735.0,0.0
-1.588834,-5.316852,-8.23131,-15.89,-10.08,-18.76,1729475677756.0,0.0
-1.234696,-4.070191,-8.46102,-16.450001,-14.63,-21.280001,1729475677777.0,0.0
-1.048056,-3.804588,-9.236296,-22.33,-18.83,-20.719999,1729475677795.0,0.0
-0.717847,-3.909872,-9.786645,-19.67,-21.629999,-16.59,1729475677815.0,0.0
-0.617348,-3.833302,-9.913465,-2.73,-16.66,-10.57,1729475677835.0,0.0
-0.696311,-3.976871,-9.729217,13.79,-12.74,-5.6,1729475677858.0,0.0
-0.734596,-4.225725,-9.753145,14.56,-12.53,-6.02,1729475677876.0,0.0
-0.89013,-4.051049,-9.79143,1.96,-9.31,-8.82,1729475677896.0,0.0
-0.72024,-3.572484,-9.580862,-7.07,-9.03,-10.64,1729475677914.0,0.0
-0.447458,-3.436093,-9.645468,-2.31,-9.52,-8.54,1729475677935.0,0.0
-0.729811,-3.649055,-9.492328,9.31,-3.85,-4.62,1729475677963.0,0.0
-0.799203,-3.699304,-9.21476,9.8,-2.38,-3.78,1729475677977.0,0.0
-0.236889,-3.742374,-9.183653,7.49,-6.58,-4.48,1729475677997.0,0.0
0.062213,-3.806981,-9.267403,8.19,-9.94,-4.62,1729475678016.0,0.0
-0.287139,-3.804588,-9.140583,12.95,-5.32,-3.29,1729475678037.0,0.0
-0.863809,-3.929015,-8.992228,14.42,-2.94,-3.22,1729475678058.0,0.0
-1.172483,-4.292724,-9.29133,2.31,-7.63,-5.04,1729475678078.0,0.0
-1.37348,-4.711468,-9.456435,-4.2,-4.76,-4.55,1729475678097.0,0.0
-1.37348,-4.548756,-9.332008,9.94,-3.43,-4.62,1729475678116.0,0.0
-1.409373,-4.345366,-9.401401,26.18,-0.91,-3.29,1729475678136.0,0.0
-1.641476,-4.328616,-9.209974,30.66,2.52,-1.96,1729475678156.0,0.0
-1.708475,-4.577469,-9.135797,25.200001,2.52,-1.4,1729475678177.0,0.0
-1.895115,-4.869394,-8.987441,16.940001,1.19,-1.89,1729475678201.0,0.0
-2.395216,-5.008178,-9.083155,17.360001,4.62,-2.24,1729475678216.0,0.0
-2.756532,-5.125426,-8.793623,31.219999,11.06,-0.77,1729475678237.0,0.0
-2.794817,-5.146961,-8.415558,35.07,12.46,-0.84,1729475678258.0,0.0
-2.62732,-5.472386,-8.10449,37.799999,9.8,1.54,1729475678276.0,0.0
-2.725425,-5.919843,-7.817351,42.279999,11.2,2.59,1729475678299.0,0.0
-2.845066,-5.948557,-7.776673,45.080002,12.25,-0.07,1729475678317.0,0.0
-2.512464,-5.424529,-8.059027,48.93,2.45,-2.8,1729475678338.0,0.0
-2.158326,-4.811966,-8.482556,49.139999,-7.14,-3.43,1729475678359.0,0.0
-2.321038,-4.996214,-8.250452,35.0,-6.23,-3.08,1729475678377.0,0.0
-2.622534,-5.386244,-8.350951,12.39,-1.75,-2.1,1729475678401.0,0.0
-2.766103,-6.21416,-7.951349,4.55,-1.4,2.73,1729475678418.0,0.0
-2.584249,-6.51087,-7.874779,8.61,-4.76,3.01,1729475678439.0,0.0
-2.134398,-5.9342,-8.248059,17.780001,-14.07,2.31,1729475678461.0,0.0
-1.684547,-5.041678,-8.79123,22.540001,-16.24,2.87,1729475678478.0,0.0
-1.442872,-4.455436,-8.556733,3.22,-15.61,6.93,1729475678500.0,0.0
-1.495514,-5.178068,-7.786245,-60.200001,-3.64,11.2,1729475678517.0,0.0
-0.885344,-5.474778,-8.233703,-84.349998,-18.620001,14.63,1729475678540.0,0.0
-0.337388,-4.931608,-8.652447,-82.389999,-29.469999,19.530001,1729475678558.0,0.0
-0.478565,-3.960121,-7.956135,-89.599998,-28.98,20.860001,1729475678580.0,0.0
-1.167697,-3.783052,-9.734003,-105.980003,-19.110001,22.469999,1729475678601.0,0.0
-0.768096,-4.539185,-11.01177,-137.199997,-43.119999,20.09,1729475678619.0,0.0
-0.011964,-4.847858,-11.41855,-120.540001,-49.349998,22.889999,1729475678638.0,0.0
-0.066999,-5.134997,-11.392227,-57.610001,-37.170002,19.530001,1729475678658.0,0.0
-0.368495,-4.311867,-11.399406,8.12,-24.360001,14.77,1729475678682.0,0.0
-0.739382,-3.218346,-10.920842,52.150002,-12.95,13.51,1729475678700.0,0.0
-1.052842,-2.78046,-10.482956,59.779999,-4.2,14.98,1729475678718.0,0.0
-1.294517,-3.050849,-9.863215,44.450001,7.0,14.0,1729475678737.0,0.0
-1.459622,-4.400401,-10.822738,31.92,13.09,7.28,1729475678759.0,0.0
-0.882952,-4.158726,-7.84128,71.610001,26.25,-9.59,1729475678778.0,0.0
-0.416351,-3.041277,-6.333801,178.009995,3.85,-8.33,1729475678799.0,0.0
-0.299103,0.208176,-9.030513,146.229996,-19.67,-27.860001,1729475678817.0,0.0
-1.70369,-2.012364,-10.9352,40.880001,26.25,-27.370001,1729475678837.0,0.0
-1.495514,-4.185047,-9.176475,2.87,37.73,-23.309999,1729475678859.0,0.0
0.138784,-6.195018,-6.474977,27.370001,26.67,-40.25,1729475678880.0,0.0
1.105484,-7.068398,-4.98425,36.82,19.040001,-58.799999,1729475678901.0,0.0
0.583849,-6.161518,-3.385844,3.64,13.02,-82.25,1729475678919.0,0.0
0.902094,-6.716653,-4.285545,-30.870001,-6.44,-94.43,1729475678937.0,0.0
2.739782,-5.972485,-8.152347,-25.48,-44.029999,-92.889999,1729475678960.0,0.0
3.811767,-4.960321,-10.411172,44.52,-55.860001,-76.370003,1729475678979.0,0.0
2.069792,-3.223132,-8.645268,100.239998,-18.969999,-55.720001,1729475679000.0,0.0
-0.5001,-3.488736,-6.656832,90.370003,13.72,-23.73,1729475679018.0,0.0
-2.311467,-6.04427,-3.895515,26.460001,13.51,1.26,1729475679039.0,0.0
-2.634498,-8.394022,-4.436293,-72.730003,-7.63,3.5,1729475679060.0,0.0
-1.634298,-9.966106,-7.286145,-144.550003,-57.330002,-7.14,1729475679079.0,0.0
-0.607777,-8.267202,-8.480164,-201.880005,-68.389999,-5.74,1729475679100.0,0.0
-0.947558,-5.4006,-9.556933,-210.279999,-66.290001,-2.24,1729475679117.0,0.0
-1.682154,-2.304288,-11.710474,-189.279999,-59.920002,18.41,1729475679137.0,0.0
-1.205983,-1.818545,-14.108082,-92.050003,-67.620003,47.810001,1729475679159.0,0.0
-1.237089,-0.586242,-13.49552,33.32,-69.860001,87.5,1729475679179.0,0.0
-0.87338,-1.591227,-13.42852,176.889999,11.76,125.300003,1729475679201.0,0.0
-1.318445,0.026321,-9.078369,143.710007,17.92,143.009995,1729475679218.0,0.0
-1.215554,-1.89033,-8.922836,70.559998,26.67,115.5,1729475679238.0,0.0
-1.194018,-3.89073,-8.513663,18.41,14.42,96.040001,1729475679259.0,0.0
-1.440479,-2.98385,-11.949757,13.37,16.309999,56.07,1729475679280.0,0.0
-2.258825,-2.306681,-13.828122,33.670002,50.470001,13.09,1729475679298.0,0.0
-2.055435,-1.421337,-13.246667,25.969999,74.690002,-27.370001,1729475679317.0,0.0
-0.993021,-1.792224,-10.442278,-13.65,75.669998,-56.77,1729475679337.0,0.0
-0.433101,-4.445865,-6.283553,-77.769997,86.660004,-82.599998,1729475679359.0,0.0
-1.146162,-6.793223,-5.242674,-127.470001,103.949997,-86.870003,1729475679378.0,0.0
-0.129212,-7.54457,-7.905886,-103.739998,51.310001,-117.739998,1729475679398.0,0.0
1.119841,-5.017749,-6.826723,-24.85,39.130001,-107.449997,1729475679418.0,0.0
0.27996,-2.151148,-5.611169,67.059998,46.27,-87.43,1729475679437.0,0.0
-0.021535,-0.940379,-5.283352,77.07,33.529999,-40.040001,1729475679462.0,0.0
0.122034,-4.855037,-4.697111,46.27,-7.07,21.0,1729475679478.0,0.0
-0.409173,-7.910671,-5.852845,-24.360001,-25.41,39.759998,1729475679498.0,0.0
-3.168097,-7.365108,-8.109276,-60.970001,-36.259998,43.470001,1729475679517.0,0.0
-4.063013,-6.218946,-8.685946,-40.880001,-63.420002,52.009998,1729475679539.0,0.0
-3.656233,-2.624927,-9.887143,-51.450001,-95.269997,63.84,1729475679557.0,0.0
-2.706282,-0.119641,-15.206388,-31.08,-115.57,86.730003,1729475679579.0,0.0
-2.105684,-1.048056,-15.998412,44.73,-93.169998,116.760002,1729475679598.0,0.0
-2.146362,-1.17009,-14.134403,63.98,-38.709999,118.790001,1729475679617.0,0.0
-3.074777,-3.306881,-12.622139,80.709999,2.45,110.040001,1729475679639.0,0.0
-2.708675,-3.232704,-9.286544,60.41,16.940001,75.529999,1729475679659.0,0.0
-2.081756,-2.880959,-8.642875,31.780001,2.94,48.93,1729475679677.0,0.0
-1.301696,-1.753939,-8.657232,-19.18,4.34,9.45,1729475679698.0,0.0
-1.215554,-1.172483,-12.667603,-57.610001,24.15,-21.98,1729475679717.0,0.0
-0.291924,-1.529014,-14.904892,-65.029999,36.049999,-55.439999,1729475679737.0,0.0
0.765703,-2.435893,-12.217752,-74.830002,74.970001,-84.559998,1729475679760.0,0.0
0.282353,-4.036692,-5.4676,-67.340004,110.949997,-107.870003,1729475679777.0,0.0
-1.572084,-6.809973,-1.215554,-14.42,120.400002,-119.0,1729475679800.0,0.0
-1.222732,-5.79063,-2.589034,19.950001,62.439999,-138.389999,1729475679818.0,0.0
-0.428315,-5.012963,-8.25763,115.849998,-7.77,-118.020004,1729475679837.0,0.0
-0.619741,-2.342573,-8.329416,149.449997,-7.14,-82.040001,1729475679859.0,0.0
-3.065206,-3.546163,-3.67059,56.98,27.860001,-24.92,1729475679878.0,0.0
-4.878965,-8.827123,-4.398008,-2.1,-25.129999,10.57,1729475679899.0,0.0
-1.694118,-9.109475,-8.161918,-13.37,-92.400002,45.360001,1729475679917.0,0.0
-1.122234,-6.037091,-7.709675,-53.830002,-56.349998,54.670002,1729475679938.0,0.0
-2.866602,-4.577469,-8.441878,-117.18,-58.66,59.43,1729475679959.0,0.0
-3.969693,-5.718846,-10.370493,-162.330002,-67.900002,56.420002,1729475679978.0,0.0
-3.031706,-5.891129,-13.813765,-162.190002,-107.449997,44.66,1729475680005.0,0.0
-1.150948,-2.880959,-17.469997,-59.639999,-116.830002,56.630001,1729475680019.0,0.0
-1.502693,0.289532,-15.065211,136.430008,-44.310001,79.870003,1729475680039.0,0.0
-2.909672,0.595813,-12.655639,238.490005,36.75,88.830002,1729475680059.0,0.0
-3.294917,1.864009,-7.446464,163.169998,47.389999,77.699997,1729475680079.0,0.0
-3.282953,0.480957,-7.085148,38.5,29.190001,63.560001,1729475680099.0,0.0
-3.086741,-2.215754,-9.430114,-66.849998,3.78,37.939999,1729475680119.0,0.0
-1.852045,-4.027121,-12.428321,-93.169998,-11.69,-0.77,1729475680139.0,0.0
-0.540778,-4.335794,-13.682159,-52.779999,14.0,-31.85,1729475680158.0,0.0
-0.990629,-3.517449,-9.166903,73.849998,101.849998,-76.090004,1729475680180.0,0.0
-2.333002,-3.388237,-6.23091,76.93,109.410004,-92.68,1729475680198.0,0.0
-2.232504,-5.051248,-5.67099,40.599998,78.889999,-101.639999,1729475680219.0,0.0
0.066999,-6.314659,-3.842873,64.190002,22.68,-99.190002,1729475680238.0,0.0
0.677169,-7.738388,-4.180261,147.699997,-5.46,-83.93,1729475680258.0,0.0
-1.471586,-6.652047,-4.369294,197.610001,-8.26,-63.630001,1729475680280.0,0.0
-3.620341,-4.795217,-2.632105,144.410004,7.98,-33.389999,1729475680301.0,0.0
-5.053641,-4.302295,-1.28016,-19.110001,-12.04,-2.31,1729475680317.0,0.0
-4.744967,-5.02732,-4.34058,-180.949997,-65.590004,25.83,1729475680337.0,0.0
-3.574877,-6.836295,-8.496914,-268.450012,-103.879997,41.720001,1729475680360.0,0.0
-1.95015,-6.183054,-12.614961,-282.940002,-120.260002,38.009998,1729475680379.0,0.0
-1.308874,-6.23091,-15.034104,-200.479996,-134.960007,59.360001,1729475680398.0,0.0
-0.859023,-6.305088,-16.986649,-31.360001,-97.93,72.309998,1729475680419.0,0.0
-2.600998,0.023928,-14.658432,123.760002,-19.879999,79.379997,1729475680439.0,0.0
-4.462614,1.189233,-11.832507,216.020004,52.43,115.43,1729475680462.0,0.0
-4.907679,1.68694,-8.152347,108.57,71.260002,79.730003,1729475680480.0,0.0
-4.651647,-0.311067,-9.492328,-61.25,35.630001,39.27,1729475680503.0,0.0
-2.756532,-4.034299,-12.729815,-143.430008,-23.24,-6.09,1729475680519.0,0.0
0.524028,-5.972485,-13.473984,-121.870003,-18.690001,-43.959999,1729475680540.0,0.0
1.825724,-5.599205,-10.700702,-16.73,75.669998,-69.860001,1729475680559.0,0.0
-0.153141,-6.013163,-6.26441,63.420002,129.080002,-96.110001,1729475680579.0,0.0
-1.545763,-4.096512,-5.123034,45.43,115.57,-116.129997,1729475680601.0,0.0
-1.548156,-3.608376,-4.606184,64.120003,55.860001,-116.480003,1729475680618.0,0.0
-1.232304,-4.405186,-4.524827,117.529999,21.91,-93.239998,1729475680638.0,0.0
-1.911865,-5.024928,-4.35733,153.720001,7.49,-62.650002,1729475680661.0,0.0
-2.919244,-4.012764,-4.175476,139.580002,-13.72,-32.759998,1729475680679.0,0.0
-4.307081,-1.923829,-5.130211,-0.84,-3.29,-9.03,1729475680701.0,0.0
-5.596812,-2.053042,-6.443871,-160.789993,-2.38,16.52,1729475680722.0,0.0
-4.977071,-4.328616,-7.534998,-280.140015,-60.41,23.1,1729475680740.0,0.0
-3.696911,-6.379266,-11.971292,-338.170013,-144.970001,32.34,1729475680760.0,0.0
0.284746,-9.01137,-15.371492,-229.600006,-169.330002,39.48,1729475680780.0,0.0
-1.727618,-5.489135,-15.091532,73.919998,-17.219999,42.560001,1729475680800.0,0.0
-4.302295,-2.175076,-12.401999,209.720001,54.32,46.27,1729475680820.0,0.0
-4.649254,0.882952,-10.530812,204.119995,47.880001,59.010002,1729475680839.0,0.0
-2.665605,3.002992,-8.317451,122.5,-8.54,43.540001,1729475680860.0,0.0
0.387637,1.543371,-9.193225,-8.75,-58.099998,26.67,1729475680880.0,0.0
2.091327,-2.045863,-13.048061,-113.610001,-50.68,12.39,1729475680900.0,0.0
1.51705,-3.723232,-14.179866,-76.720001,43.330002,-9.73,1729475680921.0,0.0
-0.043071,-3.069991,-11.810973,37.450001,95.269997,-42.560001,1729475680938.0,0.0
-0.571885,-2.378466,-8.650054,119.07,94.919998,-62.93,1729475680959.0,0.0
-0.62692,-2.206182,-6.168696,135.520004,82.25,-74.340004,1729475680979.0,0.0
-1.289732,-3.680161,-3.055635,124.599998,61.110001,-68.32,1729475680999.0,0.0
-3.189633,-4.661219,-4.625326,96.809998,50.400002,-61.529999,1729475681020.0,0.0
-6.195018,-8.611769,-4.187439,79.730003,28.98,-51.73,1729475681038.0,0.0
-6.501299,-8.456236,-8.853443,12.88,-12.53,-48.439999,1729475681059.0,0.0
-2.778067,-7.446464,-9.365508,11.13,-35.560001,-8.96,1729475681079.0,0.0
-0.320638,-9.126225,-5.625526,20.719999,-29.75,16.66,1729475681099.0,0.0
-0.859023,-10.794022,-5.821737,-8.61,-20.65,26.25,1729475681118.0,0.0
-1.605584,-8.446664,-7.02772,-10.15,-21.77,20.51,1729475681140.0,0.0
-2.591427,-5.328816,-6.285945,-36.259998,-18.549999,16.940001,1729475681161.0,0.0
-2.768496,-3.455236,-8.776874,-109.129997,-38.709999,11.9,1729475681180.0,0.0
-1.782653,-0.478565,-12.500106,-144.550003,-89.809998,15.96,1729475681200.0,0.0
-1.414158,1.301696,-14.311473,-48.790001,-73.709999,58.240002,1729475681220.0,0.0
-1.777867,1.019342,-13.706088,76.160004,-15.54,85.82,1729475681239.0,0.0
-2.335395,2.74696,-10.877771,36.82,6.65,94.5,1729475681261.0,0.0
-2.818745,-1.160519,-8.95155,-39.619999,17.43,78.540001,1729475681278.0,0.0
-2.423929,-4.754539,-9.221939,-96.599998,8.4,35.139999,1729475681299.0,0.0
-0.928415,-6.458229,-9.262616,-65.239998,-5.04,-3.92,1729475681319.0,0.0
-0.602991,-3.924229,-13.196418,10.99,9.1,-30.73,1729475681340.0,0.0
-1.002593,-1.89033,-14.254045,115.709999,55.23,-50.959999,1729475681360.0,0.0
-1.143769,-2.39043,-10.621738,152.25,92.400002,-67.129997,1729475681379.0,0.0
-0.928415,-1.878366,-6.407979,85.540001,88.690002,-85.959999,1729475681400.0,0.0
-1.062413,-3.634698,-6.556334,6.86,68.110001,-87.43,1729475681419.0,0.0
-0.502493,-6.506085,-4.819145,-25.27,40.880001,-76.160004,1729475681439.0,0.0
-2.012364,-10.593026,-4.398008,63.209999,-2.94,-55.299999,1729475681461.0,0.0
-2.849852,-10.396815,-4.400401,127.190002,-3.01,-44.029999,1729475681479.0,0.0
-3.493521,-6.364908,-3.591627,56.139999,13.16,-39.27,1729475681501.0,0.0
-3.266203,-4.321437,-4.019942,-60.27,-10.5,-6.23,1729475681518.0,0.0
-2.502892,-6.446264,-4.888536,-135.449997,-51.380001,22.190001,1729475681538.0,0.0
-1.579263,-8.547162,-7.018148,-153.720001,-81.760002,34.93,1729475681559.0,0.0
-1.134198,-8.336594,-9.064013,-126.419998,-80.150002,38.639999,1729475681581.0,0.0
-1.648655,-6.407979,-10.815558,-128.100006,-73.220001,23.309999,1729475681601.0,0.0
-0.933201,-1.11027,-13.098311,-123.760002,-98.419998,26.25,1729475681620.0,0.0
-1.119841,1.4668,-15.493526,22.33,-87.360001,77.769997,1729475681639.0,0.0
-1.447658,2.222932,-15.744773,148.119995,-25.200001,112.840004,1729475681659.0,0.0
-2.974278,0.988236,-9.846465,144.199997,12.6,121.590004,1729475681680.0,0.0
-4.469792,-0.923629,-8.664411,1.96,52.009998,84.699997,1729475681699.0,0.0
-4.345366,-3.964907,-8.870193,-91.980003,21.0,25.76,1729475681717.0,0.0
-2.160719,-5.759524,-12.32543,-94.57,-30.17,-15.33,1729475681738.0,0.0
0.212961,-3.275774,-14.41197,-39.759998,-18.9,-41.509998,1729475681760.0,0.0
-1.490728,-2.005185,-11.337193,70.629997,77.279999,-69.440002,1729475681778.0,0.0
-3.428915,-3.938586,-7.049256,98.980003,143.220001,-86.379997,1729475681799.0,0.0
-2.306681,-4.022335,-6.884151,50.610001,88.340004,-105.0,1729475681819.0,0.0
-0.378066,-6.379266,-3.433701,77.559998,28.700001,-85.959999,1729475681839.0,0.0
0.72024,-7.702496,-3.550949,139.160004,0.28,-71.82,1729475681859.0,0.0
-1.37348,-5.663811,-1.823331,142.660004,19.460001,-53.34,1729475681879.0,0.0
-3.974478,-5.87438,0.138784,84.980003,17.219999,-26.25,1729475681900.0,0.0
-5.271388,-5.082355,-1.586441,-62.93,-15.89,-8.33,1729475681919.0,0.0
-4.101298,-5.489135,-6.372087,-166.25,-72.519997,14.63,1729475681991.0,0.0
-1.471586,-8.958728,-11.9689,-175.139999,-136.639999,30.450001,1729475681992.0,0.0
-0.736989,-9.054441,-14.297115,-153.229996,-99.190002,28.0,1729475681992.0,0.0
-1.215554,-5.903094,-15.270994,-73.360001,-52.290001,37.240002,1729475682000.0,0.0
-1.308874,-2.24686,-13.593626,48.16,-50.75,55.93,1729475682019.0,0.0
-3.412165,0.902094,-11.021341,89.18,25.41,91.769997,1729475682045.0,0.0
-4.828716,0.289532,-10.112068,112.139999,55.369999,90.510002,1729475682059.0,0.0
-4.625326,0.378066,-7.37468,29.190001,27.93,72.940002,1729475682081.0,0.0
-2.993421,0.227318,-10.033106,-101.150002,-30.73,52.009998,1729475682099.0,0.0
0.811167,-4.926822,-16.802401,-141.889999,-50.889999,3.57,1729475682118.0,0.0
2.667997,-6.85783,-12.696317,-53.549999,34.23,-21.35,1729475682138.0,0.0
0.964308,-6.02752,-10.561919,43.470001,98.209999,-62.23,1729475682160.0,0.0
-0.40678,-2.500499,-6.113662,64.540001,120.120003,-97.370003,1729475682180.0,0.0
-2.005185,-3.359523,-5.630312,99.610001,99.610001,-87.57,1729475682201.0,0.0
-2.160719,-4.828716,-4.065405,174.369995,70.419998,-59.639999,1729475682219.0,0.0
-1.399801,-7.298109,-3.036492,264.809998,2.17,-37.73,1729475682240.0,0.0
-1.086342,-4.864608,-3.105884,188.160004,-15.96,-35.209999,1729475682259.0,0.0
-4.453043,-5.438886,-0.48335,-5.25,13.93,-27.860001,1729475682280.0,0.0
-7.298109,-4.65404,-6.07777,-205.240005,0.77,-29.190001,1729475682299.0,0.0
-4.63729,-6.123233,-10.549955,-192.080002,-90.650002,8.82,1729475682319.0,0.0
-0.78006,-7.771888,-10.415956,-114.940002,-112.840004,42.91,1729475682340.0,0.0
-0.468993,-9.269794,-9.533006,-35.420002,-63.07,52.360001,1729475682361.0,0.0
-2.134398,-7.795816,-10.370493,-30.940001,-29.049999,30.66,1729475682379.0,0.0
-2.842674,-4.522435,-9.923036,-56.490002,-27.719999,13.65,1729475682401.0,0.0
-2.775674,0.267996,-12.397215,-28.0,-49.139999,28.77,1729475682419.0,0.0
-2.299503,1.019342,-12.466606,105.139999,-49.349998,81.410004,1729475682440.0,0.0
-2.56032,1.493121,-11.301301,68.879997,-1.68,89.879997,1729475682465.0,0.0
-3.424129,-1.318445,-8.712267,-19.74,31.08,76.720001,1729475682480.0,0.0
-2.833102,-4.354938,-8.422735,-88.760002,5.67,37.170002,1729475682501.0,0.0
-1.222732,-5.190032,-10.274779,-99.68,-23.17,8.26,1729475682521.0,0.0
-0.150748,-3.792624,-14.277972,-52.360001,-17.710001,-21.49,1729475682540.0,0.0
-0.859023,-1.643869,-14.603395,-52.360001,57.68,-48.580002,1729475682561.0,0.0
-2.079363,-1.737189,-10.750952,16.73,118.720001,-70.139999,1729475682581.0,0.0
-3.127419,-4.113262,-8.932407,-13.65,119.910004,-78.68,1729475682603.0,0.0
-2.40718,-7.259824,-4.326223,-4.9,77.980003,-79.590004,1729475682621.0,0.0
-0.248854,-8.827123,-3.175276,-2.87,32.41,-86.309998,1729475682642.0,0.0
-0.354138,-9.298509,-3.371487,73.360001,5.18,-67.550003,1729475682788.0,0.0
-2.062613,-6.331409,-4.108476,196.490005,-0.49,-47.040001,1729475682789.0,0.0
-4.122833,-2.562713,-4.419543,259.910004,4.48,-1.89,1729475682790.0,0.0
-6.250053,-1.792224,-4.59422,10.08,28.91,37.170002,1729475682792.0,0.0
-5.666204,-5.123034,-5.436492,-164.5,-28.98,28.98,1729475682793.0,0.0
-2.68714,-4.192225,-9.281759,-311.709991,-154.419998,35.630001,1729475682795.0,0.0
-0.007178,-4.409972,-16.426727,-267.329987,-243.740005,67.269997,1729475682802.0,0.0
1.205983,-3.821337,-20.913269,-41.720001,-135.660004,84.910004,1729475682802.0,0.0
-2.878566,-3.768696,-15.316458,193.759995,69.93,87.849998,1729475682821.0,0.0
-6.21416,-2.916851,-9.702895,227.639999,130.550003,85.470001,1729475682839.0,0.0
-6.23091,-1.600798,-7.042077,111.440002,92.959999,49.560001,1729475682860.0,0.0
-4.010371,-1.619941,-8.135597,-28.139999,-23.24,3.08,1729475682880.0,0.0
-0.430708,-1.813759,-11.179268,-118.230003,-76.090004,-20.51,1729475682901.0,0.0
2.548356,-5.340781,-10.533205,-126.139999,-50.610001,-31.290001,1729475682920.0,0.0
2.344966,-5.704489,-9.300901,-126.07,26.040001,-52.220001,1729475682940.0,0.0
-1.540978,-5.4341,-6.594619,-51.66,83.440002,-52.639999,1729475682960.0,0.0
-3.728018,-4.735396,-5.407779,6.65,75.949997,-56.98,1729475682980.0,0.0
-4.204189,-3.546163,-4.287938,4.55,19.110001,-46.970001,1729475683001.0,0.0
-3.952943,-2.165504,-6.616155,-23.379999,-32.549999,-27.02,1729475683019.0,0.0
-4.252046,-1.4668,-8.870193,-28.559999,-42.139999,20.860001,1729475683040.0,0.0
-4.785645,-3.548556,-9.623933,-4.34,-32.689999,78.610001,1729475683061.0,0.0
-4.704289,-4.445865,-9.79143,1.89,-40.670002,90.160004,1729475683080.0,0.0
-3.845266,-3.931407,-10.626525,29.889999,-49.279999,81.480003,1729475683101.0,0.0
-2.63689,-3.091527,-12.421142,63.91,-46.619999,60.549999,1729475683120.0,0.0
-1.787439,-1.471586,-15.809379,67.269997,-27.58,31.290001,1729475683140.0,0.0
-1.682154,-2.294717,-12.928421,89.32,36.119999,8.19,1729475683160.0,0.0
-1.825724,-2.514857,-10.899307,61.32,67.900002,-29.33,1729475683180.0,0.0
-1.519442,-3.290131,-8.860621,42.98,79.449997,-63.560001,1729475683200.0,0.0
-1.067199,-3.479164,-7.84128,52.220001,75.669998,-79.590004,1729475683220.0,0.0
-1.026521,-4.019942,-6.039484,58.099998,65.379997,-86.449997,1729475683240.0,0.0
-1.208375,-3.716053,-5.558527,94.290001,59.709999,-77.07,1729475683260.0,0.0
-2.629712,-7.539784,-3.981657,220.430008,18.83,-45.150002,1729475683281.0,0.0
-1.875973,-3.785445,-5.759524,222.25,-6.16,-29.889999,1729475683302.0,0.0
-3.048456,-3.720839,-1.416551,111.440002,15.54,-9.31,1729475683320.0,0.0
-5.556134,-6.38405,-3.991228,-85.889999,3.78,1.33,1729475683340.0,0.0
-5.941379,-9.482756,-7.207181,-187.039993,-52.290001,6.65,1729475683361.0,0.0
-3.881158,-13.493127,-11.80858,-165.199997,-64.959999,-2.03,1729475683381.0,0.0
-1.497907,-10.853845,-8.178668,-157.149994,-44.170002,-20.65,1729475683402.0,0.0
-1.753939,-4.268795,-6.498906,-203.839996,-27.93,-33.740002,1729475683420.0,0.0
-2.112862,0.854238,-8.88455,-197.610001,-47.25,-13.440001,1729475683439.0,0.0
-2.76371,3.845266,-13.198811,-48.509998,-66.989998,54.459999,1729475683466.0,0.0
-2.069792,0.909273,-13.210773,117.599998,-43.470001,74.199997,1729475683480.0,0.0
-1.911865,0.820738,-10.344172,50.119999,-7.98,69.300003,1729475683501.0,0.0
-2.708675,-1.342373,-10.688738,-42.0,15.33,58.799999,1729475683520.0,0.0
-1.864009,-4.41715,-8.673983,-51.73,-2.31,15.4,1729475683540.0,0.0
-1.4668,-3.964907,-9.020942,-56.700001,-1.4,-0.07,1729475683560.0,0.0
-2.151148,-2.742175,-10.703095,-34.369999,15.96,-15.61,1729475683580.0,0.0
-2.87378,-2.37368,-10.767702,-21.559999,38.43,-35.490002,1729475683601.0,0.0
-3.402594,-3.189633,-11.753544,3.71,47.670002,-41.23,1729475683619.0,0.0
-2.54357,-3.354738,-12.859028,56.630001,40.389999,-50.119999,1729475683639.0,0.0
-1.270589,-3.227918,-10.571491,112.980003,52.639999,-57.889999,1729475683661.0,0.0
-0.473779,-4.378866,-8.145168,157.009995,59.290001,-60.549999,1729475683680.0,0.0
-0.306281,-5.173282,-5.067998,178.990005,69.510002,-55.23,1729475683702.0,0.0
-1.964507,-4.35733,-4.381258,222.600006,52.360001,-27.719999,1729475683720.0,0.0
-2.490928,-3.141776,-3.838088,167.369995,21.0,-11.97,1729475683739.0,0.0
-3.677768,-0.990629,-5.362316,16.379999,22.889999,-0.49,1729475683761.0,0.0
-5.903094,-5.644669,-4.027121,-64.260002,5.32,15.75,1729475683780.0,0.0
-5.754738,-8.860621,-9.162118,-99.75,-50.540001,5.11,1729475683800.0,0.0
-2.830709,-8.760124,-10.758131,-70.07,-64.400002,14.56,1729475683820.0,0.0
-0.519243,-6.570691,-10.770095,2.17,-39.689999,19.040001,1729475683841.0,0.0
-0.162712,-4.575077,-10.021141,43.259998,-18.76,18.620001,1729475683860.0,0.0
-0.949951,-4.240082,-9.391829,29.4,4.9,17.15,1729475683881.0,0.0
-1.866402,-5.199604,-8.702696,-1.61,14.98,14.14,1729475683901.0,0.0
-1.818545,-5.996413,-8.896514,-5.04,2.8,8.4,1729475683919.0,0.0
-1.155733,-6.058627,-8.468199,24.219999,-6.3,5.25,1729475683939.0,0.0
-0.921237,-5.300103,-8.26481,41.369999,0.07,-2.38,1729475683960.0,0.0
-1.550549,-4.541577,-8.360522,16.24,10.01,-8.89,1729475683981.0,0.0
-2.079363,-4.979464,-8.300702,-26.530001,11.48,-9.73,1729475684000.0,0.0
-2.0004,-5.9342,-8.209774,-52.920002,0.91,-10.64,1729475684020.0,0.0
-1.899901,-6.436693,-7.848458,-44.939999,-1.54,-10.57,1729475684039.0,0.0
-2.29711,-5.651847,-7.65464,-12.25,4.2,-13.72,1729475684061.0,0.0
-2.555535,-4.986642,-7.4345,-11.55,1.68,-13.02,1729475684086.0,0.0
-2.507678,-4.912465,-7.479963,-27.370001,-6.37,-10.71,1729475684104.0,0.0
-2.108077,-5.288138,-7.659425,-42.77,-14.07,-8.68,1729475684120.0,0.0
-1.976472,-5.367101,-7.652246,-36.119999,-17.219999,-6.23,1729475684139.0,0.0
-2.108077,-4.986642,-8.377272,-13.23,-13.79,-3.85,1729475684161.0,0.0
-2.155933,-4.802395,-8.793623,0.42,-12.88,-4.55,1729475684181.0,0.0
-2.072184,-4.910072,-9.219545,-1.96,-12.88,-4.27,1729475684200.0,0.0
-1.691726,-5.304887,-8.209774,-7.84,-13.51,-7.63,1729475684221.0,0.0
-1.550549,-4.9675,-8.465806,-2.8,-13.23,-8.54,1729475684240.0,0.0
-1.37348,-4.534399,-9.238688,11.55,-12.32,-10.85,1729475684262.0,0.0
-1.672583,-4.785645,-9.346365,24.15,-8.19,-7.84,1729475684281.0,0.0
-2.045863,-5.821737,-9.798609,29.82,-1.54,-8.89,1729475684303.0,0.0
-2.531606,-6.45105,-8.714661,37.310001,2.17,-10.15,1729475684320.0,0.0
-1.806581,-5.726025,-8.872586,49.630001,2.94,-13.86,1729475684340.0,0.0
-1.9669,-5.28096,-8.413164,40.389999,6.3,-15.33,1729475684360.0,0.0
-2.184647,-4.67079,-8.303094,34.369999,12.04,-9.66,1729475684380.0,0.0
-2.385644,-5.022535,-7.980063,20.440001,9.17,-3.43,1729475684402.0,0.0
-2.517249,-6.149554,-7.987241,16.52,7.77,2.52,1729475684420.0,0.0
-2.182254,-6.163911,-7.716853,47.32,7.28,8.05,1729475684441.0,0.0
-2.067399,-5.4006,-6.802795,65.169998,7.56,10.78,1729475684464.0,0.0
-2.309074,-5.505885,-6.367301,35.490002,3.36,9.1,1729475684482.0,0.0
-2.354537,-6.297909,-6.819544,3.85,-5.74,7.07,1729475684503.0,0.0
-2.050649,-7.15454,-8.039884,4.34,-11.97,5.04,1729475684521.0,0.0
-1.473979,-7.286145,-8.740981,38.709999,-11.76,5.95,1729475684541.0,0.0
-1.40698,-6.678369,-8.070991,61.740002,-5.81,3.71,1729475684562.0,0.0
-1.78026,-6.393622,-7.489535,52.360001,-3.01,2.38,1729475684581.0,0.0
-1.868794,-6.300302,-6.793223,33.040001,-5.81,0.91,1729475684603.0,0.0
-1.909473,-6.733403,-6.860222,21.07,-6.09,0.7,1729475684621.0,0.0
-1.667797,-6.776474,-7.015756,9.59,-6.51,-2.1,1729475684641.0,0.0
-1.316052,-6.843473,-7.269395,-1.75,-8.61,-3.78,1729475684662.0,0.0
-1.241875,-6.439085,-7.24786,2.45,-7.14,-2.45,1729475684682.0,0.0
-1.770689,-6.350551,-6.855437,5.53,-4.76,-0.91,1729475684702.0,0.0
-2.017149,-6.156733,-6.692725,4.41,-4.76,0.42,1729475684720.0,0.0
-2.17029,-7.087541,-6.9009,2.87,-6.51,0.98,1729475684741.0,0.0
-1.519442,-7.996813,-8.11167,22.610001,-10.01,0.63,1729475684761.0,0.0
-0.827917,-7.345965,-8.056634,55.790001,-1.89,4.41,1729475684782.0,0.0
-1.65344,-8.207381,-5.723632,43.889999,1.05,0.14,1729475684807.0,0.0
-2.830709,-10.047462,-6.06102,-3.36,-10.5,-15.12,1729475684821.0,0.0
-3.005385,-9.973285,-7.709675,20.440001,-10.71,-23.799999,1729475684841.0,0.0
-2.562713,-7.503892,-6.939186,80.080002,1.89,-27.23,1729475684861.0,0.0
-2.70389,-6.415157,-6.707082,97.720001,9.17,-22.049999,1729475684882.0,0.0
-1.976472,-6.482157,-4.342973,82.110001,11.62,-15.96,1729475684901.0,0.0
-0.11007,-7.307681,-2.522035,88.340004,-3.15,-3.5,1729475684921.0,0.0
0.818345,-8.367701,-4.024727,87.360001,-10.92,-4.9,1729475684941.0,0.0
-1.339981,-8.992228,-4.532006,76.720001,-11.69,-10.57,1729475684961.0,0.0
-1.375873,-6.573084,-2.706282,92.82,-26.18,-6.79,1729475684982.0,0.0
-1.452443,-5.979663,-5.472386,24.85,-42.0,-10.92,1729475685003.0,0.0
-5.06082,-5.508278,-4.177868,-83.160004,-48.23,-21.98,1729475685021.0,0.0
-5.690133,-6.632904,-10.911271,-165.479996,-52.920002,-21.629999,1729475685041.0,0.0
-5.213961,-8.626125,-13.964513,-153.160004,-46.830002,-13.79,1729475685061.0,0.0
-5.07757,-8.331808,-14.4024,-13.02,17.219999,19.879999,1729475685082.0,0.0
-4.106083,-6.278766,-7.549356,108.57,70.559998,25.200001,1729475685102.0,0.0
-3.23031,-5.721239,-5.960521,98.279999,77.910004,26.25,1729475685120.0,0.0
-2.694318,-5.056034,-7.223931,-9.52,84.279999,9.45,1729475685141.0,0.0
-1.287339,-5.702096,-2.656033,-80.779999,76.510002,19.25,1729475685161.0,0.0
0.492921,-8.480164,3.366701,-97.790001,45.57,29.68,1729475685181.0,0.0
2.426322,-14.502897,3.270989,4.9,0.49,32.970001,1729475685203.0,0.0
1.107877,-9.872787,0.59342,69.230003,-28.0,-7.49,1729475685222.0,0.0
-3.9673,-9.664611,-3.586841,30.59,-29.469999,-17.219999,1729475685241.0,0.0
-4.862216,-8.276773,-6.192625,-64.470001,-55.93,-42.209999,1729475685262.0,0.0
-1.435694,-6.896115,-7.056434,-62.02,-83.160004,-29.049999,1729475685282.0,0.0
-2.885744,-6.809973,-11.480762,-28.559999,-66.849998,-17.85,1729475685302.0,0.0
-6.223732,-8.037491,-15.306887,-55.23,-26.880001,-12.81,1729475685320.0,0.0
-6.996613,-8.075776,-12.571891,-14.07,17.5,5.25,1729475685342.0,0.0
-5.469993,-5.386244,-7.439285,66.220001,70.769997,20.790001,1729475685361.0,0.0
-2.199004,-5.003392,-6.719046,56.91,59.290001,26.460001,1729475685382.0,0.0
-1.081556,-6.573084,-7.592427,9.52,63.91,26.110001,1729475685402.0,0.0
0.138784,-6.530013,-4.41715,-27.93,73.010002,25.76,1729475685420.0,0.0
0.782453,-6.216553,6.455836,-43.400002,53.619999,34.369999,1729475685441.0,0.0
3.369094,-10.001998,3.041277,-43.68,-21.35,23.030001,1729475685464.0,0.0
0.083749,-11.265409,-4.728218,-28.84,-59.290001,-8.19,1729475685481.0,0.0
-5.539384,-10.983055,-5.266603,-10.15,-36.540001,-44.66,1729475685501.0,0.0
-4.701896,-6.309873,-6.922436,-2.1,-64.540001,-38.009998,1729475685522.0,0.0
-2.986243,-8.480164,-6.209375,-4.2,-69.720001,-22.190001,1729475685542.0,0.0
-4.249653,-5.022535,-10.303494,-75.18,-59.709999,-42.07,1729475685562.0,0.0
-5.113462,-6.826723,-13.478769,-82.459999,-60.27,-22.4,1729475685581.0,0.0
-5.642276,-8.161918,-14.074582,-32.27,-17.85,-6.37,1729475685602.0,0.0
-5.436492,-7.250252,-12.361321,65.029999,33.110001,20.370001,1729475685620.0,0.0
-3.206382,-5.268995,-5.084748,108.639999,73.080002,20.93,1729475685641.0,0.0
-1.722832,-6.551548,-8.597411,43.540001,59.639999,17.290001,1729475685662.0,0.0
-0.705883,-4.725825,-7.685746,-28.07,75.459999,5.32,1729475685681.0,0.0
0.01675,-6.673582,-0.521635,-32.970001,66.220001,24.360001,1729475685703.0,0.0
1.770689,-8.142776,4.218546,-76.510002,26.25,20.02,1729475685720.0,0.0
1.887937,-15.046068,-1.636691,8.75,-48.23,7.07,1729475685740.0,0.0
-2.536392,-10.202995,-4.197011,21.700001,-28.49,-59.920002,1729475685762.0,0.0
-4.424329,-8.456236,-7.458428,52.57,-43.610001,-51.869999,1729475685781.0,0.0
-1.569692,-5.17089,-7.156933,28.49,-66.080002,-48.509998,1729475685802.0,0.0
-0.306281,-5.862415,-5.175675,26.110001,-69.580002,-18.83,1729475685821.0,0.0
-3.775874,-6.759724,-7.01097,5.11,-53.900002,-21.139999,1729475685841.0,0.0
-6.302694,-9.52822,-12.067005,-23.73,-61.389999,-17.08,1729475685861.0,0.0
-7.381857,-8.559127,-10.887343,-17.639999,-23.73,-14.28,1729475685881.0,0.0
-5.891129,-6.702296,-12.698709,12.46,25.83,-2.8,1729475685902.0,0.0
-2.821138,-5.972485,-9.600004,24.92,49.630001,4.34,1729475685921.0,0.0
-0.827917,-5.391029,-11.47837,29.049999,67.199997,18.48,1729475685942.0,0.0
-0.069392,-3.701697,-7.453642,24.290001,95.830002,26.880001,1729475685960.0,0.0
0.028714,-7.030113,7.204789,2.24,96.879997,42.77,1729475685981.0,0.0
1.969293,-10.289137,6.771688,-45.43,5.04,28.559999,1729475686002.0,0.0
-1.138984,-13.497912,-1.454836,-17.01,-49.91,-7.98,1729475686021.0,0.0
-4.591826,-11.389835,-4.54397,-11.9,-52.43,-65.800003,1729475686040.0,0.0
-1.78026,-6.711867,-7.259824,14.84,-77.489998,-44.59,1729475686061.0,0.0
-0.990629,-4.878965,-4.563113,-15.26,-82.459999,-32.130001,1729475686081.0,0.0
-4.211368,-3.550949,-10.432706,-93.590004,-56.490002,-27.719999,1729475686104.0,0.0
-7.281359,-10.461421,-15.773487,-75.040001,-54.670002,-2.31,1729475686120.0,0.0
-7.463214,-10.016356,-15.488741,2.31,-2.66,-3.36,1729475686140.0,0.0
-5.103891,-5.13739,-9.839286,80.989998,72.029999,10.29,1729475686161.0,0.0
-2.175076,-4.402793,-9.260223,49.77,62.93,17.08,1729475686181.0,0.0
-0.210568,-2.835495,-7.802995,-38.009998,75.110001,11.55,1729475686202.0,0.0
1.557728,-4.646862,-6.364908,-65.940002,79.169998,37.310001,1729475686227.0,0.0
2.816352,-5.594419,7.482357,-63.420002,65.449997,46.619999,1729475686240.0,0.0
1.414158,-12.952348,3.349952,44.869999,-17.01,46.970001,1729475686262.0,0.0
-1.651048,-10.844273,-2.163112,28.700001,-40.389999,-23.52,1729475686281.0,0.0
-5.63749,-11.07159,-5.254639,-9.45,-54.32,-45.080002,1729475686301.0,0.0
-0.684347,-6.149554,-8.745767,0.49,-84.489998,-34.23,1729475686321.0,0.0
-2.09372,-5.45085,-2.452643,-41.650002,-64.330002,-30.17,1729475686340.0,0.0
-7.01097,-5.17089,-12.528819,-186.899994,-27.860001,-44.52,1729475686361.0,0.0
-7.432107,-7.293324,-17.539389,-130.410004,-29.82,-13.93,1729475686381.0,0.0
-5.891129,-6.448657,-13.820943,39.830002,42.77,22.889999,1729475686403.0,0.0
-3.61077,-4.658825,-6.211767,134.820007,81.269997,44.73,1729475686420.0,0.0
-1.964507,-5.149354,-7.216753,90.790001,69.510002,37.029999,1729475686440.0,0.0
-1.215554,-2.811567,-7.063612,-14.0,70.0,17.5,1729475686464.0,0.0
-0.746561,-5.498707,-2.251646,-82.040001,67.059998,30.66,1729475686481.0,0.0
-0.301496,-6.881758,-0.215354,-132.580002,30.799999,25.76,1729475686502.0,0.0
2.041078,-14.091332,-0.315853,-59.43,-9.31,12.88,1729475686520.0,0.0
-0.11007,-11.631511,-3.39063,-35.700001,-21.98,-31.360001,1729475686540.0,0.0
-3.385844,-8.578269,-7.683353,-30.030001,-34.02,-72.099998,1729475686560.0,0.0
-3.802195,-5.491528,-10.119246,-50.049999,-40.32,-74.620003,1729475686580.0,0.0
-0.734596,-3.421736,-8.863015,-22.33,-58.380001,-54.18,1729475686602.0,0.0
0.832702,-4.898108,-11.07159,82.25,-68.25,-9.17,1729475686620.0,0.0
-7.109076,-3.919443,-14.395222,85.889999,-8.26,-8.26,1729475686640.0,0.0
-8.566305,-3.926622,-14.041083,-15.33,32.549999,7.63,1729475686661.0,0.0
-4.721039,-3.737589,-9.090333,-37.59,31.92,16.52,1729475686680.0,0.0
-0.059821,-7.144968,-8.233703,-1.61,10.5,38.080002,1729475686702.0,0.0
0.555135,-6.436693,-9.29133,20.65,40.810001,33.389999,1729475686719.0,0.0
-1.588834,-3.481557,-3.598805,30.17,93.239998,28.0,1729475686740.0,0.0
-2.409572,-7.539784,-4.871787,16.379999,52.57,37.869999,1729475686760.0,0.0
0.768096,-7.183254,-0.59342,-60.760002,24.219999,7.63,1729475686781.0,0.0
2.945565,-11.770294,-2.510071,-1.12,-36.189999,19.460001,1729475686801.0,0.0
-0.760918,-10.985448,-5.419744,-0.98,-33.459999,-37.170002,1729475686820.0,0.0
-4.821537,-9.260223,-8.020741,-21.280001,-26.460001,-67.480003,1729475686841.0,0.0
-3.148954,-6.302694,-8.776874,26.67,-60.619999,-57.959999,1729475686860.0,0.0
0.741775,-0.868595,-8.664411,121.029999,-70.07,-34.09,1729475686881.0,0.0
-2.359323,-5.391029,-5.333601,153.300003,-61.810001,4.69,1729475686901.0,0.0
-7.896315,-5.233103,-14.333008,14.63,37.099998,-7.14,1729475686920.0,0.0
-9.181261,-6.352944,-13.677374,-48.720001,18.620001,9.31,1729475687015.0,0.0
-4.596612,-5.989235,-6.719046,-55.650002,22.049999,17.219999,1729475687017.0,0.0
0.514457,-5.465207,-11.255837,-30.309999,12.6,31.360001,1729475687017.0,0.0
-0.289532,-3.582055,-6.302694,32.619999,72.800003,42.139999,1729475687020.0,0.0
-1.552942,-7.733603,-3.713661,44.029999,68.25,53.619999,1729475687020.0,0.0
0.071785,-7.281359,2.586641,-35.279999,41.23,23.59,1729475687039.0,0.0
2.376073,-12.653246,-1.09352,-0.98,-37.52,26.110001,1729475687062.0,0.0
-1.813759,-12.614961,-4.118048,-31.710001,-41.650002,-41.650002,1729475687081.0,0.0
-4.541577,-9.399008,-7.092326,-23.870001,-53.060001,-76.790001,1729475687101.0,0.0
-1.765903,-4.261617,-8.508877,65.660004,-76.720001,-51.450001,1729475687120.0,0.0
0.39003,-2.084148,-10.707881,110.389999,-83.019997,-22.120001,1729475687140.0,0.0
-5.338387,-4.682754,-10.468598,8.61,-22.75,0.63,1729475687160.0,0.0
-10.839487,-9.427721,-12.124433,-84.07,2.73,-1.47,1729475687180.0,0.0
-8.578269,-7.910671,-11.918649,-66.57,7.35,-1.47,1729475687202.0,0.0
-2.481357,-5.663811,-7.422535,16.24,30.52,17.290001,1729475687220.0,0.0
0.689133,-4.220939,-9.817751,14.77,25.129999,22.540001,1729475687240.0,0.0
0.993021,-5.424529,-9.80818,16.940001,54.599998,29.120001,1729475687261.0,0.0
0.459422,-5.187639,-2.63689,-13.3,87.919998,31.01,1729475687280.0,0.0
0.229711,-3.869194,1.361516,-54.32,65.309998,40.25,1729475687300.0,0.0
0.533599,-13.457234,-3.761517,-27.23,-8.89,26.74,1729475687320.0,0.0
-5.075177,-13.526627,-4.022335,-62.860001,-35.139999,-59.709999,1729475687339.0,0.0
-4.790431,-7.893922,-7.996813,12.11,-72.660004,-63.490002,1729475687360.0,0.0
-0.926022,-3.134598,-12.492928,105.699997,-77.489998,-32.759998,1729475687380.0,0.0
-3.634698,-2.770889,-8.781659,46.830002,-55.16,-17.15,1729475687400.0,0.0
-9.126225,-5.580062,-14.266008,-76.790001,16.940001,-10.85,1729475687419.0,0.0
-9.288938,-7.326823,-14.294723,-70.629997,7.98,6.16,1729475687440.0,0.0
-3.84048,-5.056034,-7.939385,18.48,35.91,19.67,1729475687463.0,0.0
-0.114855,-6.271588,-8.750552,48.09,30.940001,29.33,1729475687480.0,0.0
0.954736,-4.268795,-9.925428,-21.280001,52.709999,8.12,1729475687502.0,0.0
0.442672,-5.623133,-3.591627,-31.08,76.790001,19.67,1729475687519.0,0.0
1.172483,-5.623133,2.167897,-71.120003,58.73,26.18,1729475687541.0,0.0
2.129612,-11.803794,0.222532,-29.540001,3.57,35.139999,1729475687567.0,0.0
-0.521635,-12.239288,-3.34038,-3.99,-25.200001,-11.62,1729475687579.0,0.0
-5.565705,-10.490135,-4.795217,-26.32,-26.040001,-52.779999,1729475687600.0,0.0
-4.443472,-8.322237,-7.9346,-7.35,-68.739998,-57.400002,1729475687621.0,0.0
0.808774,-2.579463,-11.284552,81.760002,-83.580002,-36.330002,1729475687639.0,0.0
-5.828916,-3.318845,-13.469198,42.420002,-15.82,-7.7,1729475687660.0,0.0
-10.880164,-7.161718,-14.388042,-31.219999,13.86,-4.13,1729475687681.0,0.0
-8.568698,-6.929615,-11.995219,-25.969999,28.42,-2.73,1729475687710.0,0.0
-2.663212,-5.642276,-7.077969,27.370001,39.48,13.51,1729475687720.0,0.0
0.468993,-5.283352,-10.174281,23.030001,41.509998,9.45,1729475687739.0,0.0
0.799203,-3.682554,-9.183653,7.21,74.480003,6.02,1729475687761.0,0.0
0.643669,-6.628119,-2.182254,12.39,83.860001,27.719999,1729475687780.0,0.0
1.323231,-4.328616,4.307081,-49.700001,63.91,24.57,1729475687801.0,0.0
2.232504,-10.425529,0.323031,21.139999,-9.87,41.650002,1729475687820.0,0.0
-2.007578,-13.483556,-1.964507,10.78,-49.07,-12.46,1729475687840.0,0.0
-6.159126,-11.320443,-6.391229,-29.190001,-53.549999,-70.769997,1729475687860.0,0.0
-3.397808,-6.029913,-8.317451,45.990002,-89.529999,-47.110001,1729475687880.0,0.0
-0.102891,-2.261217,-9.939785,108.849998,-84.349998,-19.879999,1729475687901.0,0.0
-6.139983,-3.314059,-11.85165,-9.31,-38.080002,-11.41,1729475687920.0,0.0
-10.578669,-7.735995,-13.69173,-76.300003,-8.89,-1.33,1729475687941.0,0.0
-5.606383,-6.63769,-8.965906,13.02,37.869999,11.34,1729475687960.0,0.0
-1.189233,-5.757132,-8.685946,41.93,37.939999,19.32,1729475687981.0,0.0
0.571885,-3.723232,-10.468598,1.82,44.310001,5.04,1729475688002.0,0.0
0.820738,-3.605984,-9.171689,8.82,69.790001,21.07,1729475688021.0,0.0
0.933201,-7.310073,-1.462015,12.04,78.190002,35.77,1729475688042.0,0.0
1.20359,-6.113662,6.719046,-41.509998,56.560001,25.690001,1729475688061.0,0.0
0.595813,-10.296316,1.404587,4.06,-11.41,30.380001,1729475688081.0,0.0
-3.850052,-11.949757,-2.251646,-45.990002,-44.66,-31.85,1729475688102.0,0.0
-6.319445,-9.946963,-7.393822,-80.849998,-66.57,-75.32,1729475688121.0,0.0
-1.648655,-5.35753,-9.872787,3.22,-104.090004,-43.189999,1729475688141.0,0.0
0.727418,-5.108676,-12.457035,49.560001,-103.110001,-13.440001,1729475688162.0,0.0
-5.479564,-6.472585,-17.343178,-51.029999,-1.4,-10.22,1729475688181.0,0.0
-11.286944,-9.040084,-14.452648,-9.45,35.84,10.08,1729475688202.0,0.0
-7.989635,-5.936593,-8.279166,101.989998,52.360001,18.690001,1729475688221.0,0.0
-1.722832,-4.091727,-5.407779,114.870003,37.240002,23.24,1729475688241.0,0.0
2.684747,-5.082355,-10.320245,-6.02,-2.45,14.35,1729475688261.0,0.0
0.734596,-3.474378,-8.922836,-45.43,85.82,15.26,1729475688286.0,0.0
-0.993021,-7.176075,-4.551149,-20.719999,88.269997,31.08,1729475688302.0,0.0
0.538385,-6.788438,7.056434,-39.689999,45.360001,14.77,1729475688321.0,0.0
0.507278,-10.375278,-1.184447,-18.549999,-19.110001,9.1,1729475688341.0,0.0
-3.778267,-12.346965,-3.086741,-53.41,-25.83,-44.66,1729475688362.0,0.0
-6.04427,-10.126426,-7.472785,-96.879997,-44.52,-85.400002,1729475688382.0,0.0
-2.285146,-5.304887,-8.55434,-24.57,-79.309998,-57.400002,1729475688403.0,0.0
-1.009771,-4.811966,-7.843673,71.470001,-82.32,-13.72,1729475688421.0,0.0
-4.84068,-3.498307,-16.328621,11.48,-18.76,-6.58,1729475688441.0,0.0
-8.4347,-5.257031,-15.153747,5.46,40.740002,29.610001,1729475688464.0,0.0
-5.802595,-4.776074,-9.475577,29.190001,36.75,37.66,1729475688481.0,0.0
-1.596013,-5.424529,-5.338387,16.59,31.01,38.849998,1729475688502.0,0.0
0.069392,-7.846066,-9.408579,1.19,26.32,29.4,1729475688521.0,0.0
-0.509671,-6.235696,-11.210374,-0.56,64.540001,4.06,1729475688541.0,0.0
-0.971486,-7.142576,-5.151747,41.299999,73.5,21.49,1729475688562.0,0.0
0.308674,-7.951349,2.868994,-14.35,54.670002,5.18,1729475688581.0,0.0
1.969293,-9.399008,-0.26321,-11.06,-22.33,2.59,1729475688602.0,0.0
-2.143969,-8.305488,-4.922036,1.75,-25.200001,-29.75,1729475688622.0,0.0
-6.245267,-8.025528,-6.429514,-47.459999,-34.650002,-54.599998,1729475688641.0,0.0
-3.440879,-7.429714,-7.939385,-30.450001,-87.360001,-50.330002,1729475688661.0,0.0
1.639083,-1.921437,-8.116454,79.309998,-87.849998,-25.34,1729475688681.0,0.0
-1.799403,-6.594619,-7.384251,114.730003,-66.010002,16.1,1729475688711.0,0.0
-8.295916,-6.017949,-12.906885,-50.540001,18.27,-7.42,1729475688722.0,0.0
-10.444671,-8.676375,-15.134604,-98.279999,15.4,16.799999,1729475688741.0,0.0
-4.807181,-6.4343,-7.99442,-18.690001,34.299999,20.790001,1729475688762.0,0.0
0.009571,-5.972485,-8.666803,39.27,27.23,28.35,1729475688781.0,0.0
-0.078963,-4.871787,-8.941978,7.7,50.049999,13.93,1729475688801.0,0.0
-1.674976,-5.13739,-3.940979,-13.16,83.650002,14.35,1729475688822.0,0.0
-0.81356,-5.726025,-7.927422,-16.66,50.75,20.02,1729475688842.0,0.0
0.622134,-6.427122,3.854837,-46.060001,56.630001,12.04,1729475688861.0,0.0
2.136791,-9.078369,-1.115055,-30.1,-22.610001,9.31,1729475688881.0,0.0
-2.24686,-10.772489,-3.862016,-67.269997,-24.57,-41.580002,1729475688902.0,0.0
-4.862216,-7.441679,-9.79143,-108.639999,-43.400002,-82.110001,1729475688921.0,0.0
-0.655633,-1.847259,-8.370094,-48.439999,-78.120003,-57.540001,1729475688941.0,0.0
0.990629,-3.742374,-14.579469,-11.13,-89.949997,-10.08,1729475688961.0,0.0
-4.689932,-5.316852,-18.640089,-37.310001,14.0,10.85,1729475688981.0,0.0
-9.410972,-7.467999,-13.366307,43.82,62.369999,30.1,1729475689003.0,0.0
-6.410372,-4.498507,-4.996214,109.760002,59.57,36.889999,1729475689020.0,0.0
-1.045663,-5.158926,-6.343372,94.290001,10.22,30.24,1729475689042.0,0.0
0.435494,-3.866802,-7.89153,5.67,14.7,7.77,1729475689061.0,0.0
-1.612763,-4.902894,-6.616155,-14.98,50.189999,15.75,1729475689082.0,0.0
-1.246661,-4.835894,-8.616554,-35.07,36.889999,8.47,1729475689101.0,0.0
-0.055035,-4.086941,-0.112463,-64.889999,58.59,22.610001,1729475689121.0,0.0
3.055635,-9.643075,-2.045863,3.08,-31.219999,31.92,1729475689141.0,0.0
-0.660419,-11.612368,-3.347559,-16.59,-30.1,-24.08,1729475689161.0,0.0
-6.046663,-10.018748,-6.101698,-74.059998,-33.599998,-78.610001,1729475689181.0,0.0
-3.859623,-5.850451,-9.853643,-26.32,-87.57,-71.959999,1729475689201.0,0.0
1.679761,-0.641276,-10.253245,74.410004,-90.650002,-38.009998,1729475689220.0,0.0
-2.139183,-4.048656,-8.315059,57.82,-61.880001,13.23,1729475689241.0,0.0
-10.537991,-6.541977,-16.926826,-39.619999,23.24,10.22,1729475689261.0,0.0
-7.707282,-6.142376,-9.96132,1.12,28.139999,18.969999,1729475689282.0,0.0
-1.433301,-5.551349,-8.372486,50.75,24.01,24.43,1729475689303.0,0.0
0.799203,-4.386044,-10.475778,17.780001,31.43,5.18,1729475689320.0,0.0
-1.031307,-3.108276,-8.79123,3.71,66.150002,6.79,1729475689340.0,0.0
-1.756332,-5.302495,-7.776673,20.860001,64.540001,18.83,1729475689361.0,0.0
-0.040678,-2.522035,-4.551149,-31.08,53.130001,9.59,1729475689381.0,0.0
0.509671,-7.889136,2.842674,-39.27,38.849998,30.380001,1729475689401.0,0.0
1.775474,-11.897114,0.043071,-30.24,-27.370001,4.83,1729475689420.0,0.0
-3.596412,-10.959127,-4.39083,-42.98,-33.950001,-50.189999,1729475689440.0,0.0
-5.012963,-5.493921,-8.898908,-30.309999,-54.599998,-67.970001,1729475689464.0,0.0
-1.95015,-2.395216,-10.523634,18.129999,-77.699997,-41.439999,1729475689481.0,0.0
1.579263,-2.529213,-12.844672,127.959999,-77.419998,10.29,1729475689502.0,0.0
-3.412165,-9.200402,-8.298308,217.910004,-24.08,58.240002,1729475689521.0,0.0
-9.729217,-6.465407,-10.121639,140.419998,62.16,23.73,1729475689540.0,0.0
-9.427721,-5.773881,-10.377672,18.76,35.209999,22.26,1729475689561.0,0.0
0.677169,-7.910671,-9.781858,-40.599998,2.73,14.28,1729475689582.0,0.0
1.48355,-8.322237,-8.662018,27.51,47.25,25.9,1729475689609.0,0.0
-1.885544,-6.26441,-3.103491,67.550003,81.900002,13.02,1729475689620.0,0.0
-3.182454,-5.79781,-3.326023,7.7,65.239998,-0.42,1729475689642.0,0.0
-0.37328,-3.158526,1.550549,-131.039993,17.219999,-28.35,1729475689661.0,0.0
1.722832,-7.281359,-2.433501,-123.410004,-53.830002,-1.54,1729475689680.0,0.0
-1.993221,-11.679367,-6.005985,-86.940002,-48.860001,-35.77,1729475689703.0,0.0
-5.35753,-7.879565,-9.370294,-51.799999,-41.16,-57.959999,1729475689721.0,0.0
-2.768496,-2.203789,-9.413363,-26.6,-49.84,-44.380001,1729475689740.0,0.0
0.514457,-2.266003,-9.375079,-37.869999,-60.41,-19.530001,1729475689761.0,0.0
-2.813959,-8.796017,-11.710474,-52.779999,-41.439999,-1.05,1729475689781.0,0.0
-8.154739,-8.516055,-12.863814,-36.259998,11.55,-14.63,1729475689802.0,0.0
-8.547162,-3.507878,-11.645866,27.58,40.670002,4.69,1729475689820.0,0.0
-3.771089,-2.79721,-7.860423,74.059998,41.439999,27.65,1729475689842.0,0.0
-0.897308,-6.82433,-9.066404,50.889999,30.73,34.790001,1729475689862.0,0.0
-2.026721,-7.082755,-7.788638,38.5,65.309998,29.540001,1729475689880.0,0.0
-1.887937,-6.482157,-10.253245,67.550003,68.18,24.43,1729475689902.0,0.0
-0.174676,-2.117648,1.378266,-26.950001,71.330002,-1.19,1729475689920.0,0.0
4.776074,-8.549555,-0.392423,-11.06,-28.49,18.27,1729475689940.0,0.0
-0.485743,-8.930015,-3.675375,8.47,-17.780001,-17.08,1729475689961.0,0.0
-7.307681,-7.006185,-2.122434,-21.07,-0.56,-44.73,1729475689981.0,0.0
-6.716653,-6.771688,-7.798209,-20.23,-73.43,-40.18,1729475690001.0,0.0
-1.146162,-3.225525,-8.628519,19.67,-104.090004,-29.68,1729475690022.0,0.0
2.120041,-2.555535,-15.002998,21.98,-135.029999,-2.66,1729475690041.0,0.0
-3.818945,-7.066005,-15.783059,-76.019997,-25.059999,1.61,1729475690061.0,0.0
-11.727223,-10.650455,-12.940384,-44.52,48.860001,2.24,1729475690081.0,0.0
-7.539784,-6.960721,-10.703095,113.889999,31.85,30.309999,1729475690104.0,0.0
-1.234696,-5.376673,-8.4347,180.529999,30.24,35.209999,1729475690121.0,0.0
0.870987,-4.273581,-9.365508,91.419998,26.530001,14.84,1729475690141.0,0.0
-1.237089,-3.680161,-8.061419,19.18,83.230003,6.51,1729475690161.0,0.0
-2.268396,-6.704689,-10.243673,14.7,75.949997,9.31,1729475690182.0,0.0
-0.701097,-4.118048,1.179662,-20.790001,76.720001,2.38,1729475690203.0,0.0
2.289931,-11.47837,2.68714,22.960001,4.97,7.0,1729475690221.0,0.0
-3.012564,-11.971292,-0.425922,-33.25,-41.369999,-59.220001,1729475690241.0,0.0
-4.914857,-8.848659,-5.991628,-48.720001,-71.610001,-81.690002,1729475690264.0,0.0
-2.486143,-4.943572,-7.463214,-9.66,-94.360001,-64.889999,1729475690282.0,0.0
1.40698,-2.347359,-11.633904,29.960001,-95.620003,-31.92,1729475690303.0,0.0
-1.844866,-4.766503,-9.891929,-18.41,-64.400002,0.56,1729475690326.0,0.0
-9.083155,-9.487542,-13.569696,-87.080002,19.460001,4.27,1729475690341.0,0.0
-9.803394,-10.24846,-12.497713,-20.58,0.84,9.38,1729475690362.0,0.0
-4.912465,-5.355137,-7.69771,84.279999,53.27,22.049999,1729475690383.0,0.0
-1.024128,-4.85743,-7.798209,75.25,33.740002,26.18,1729475690403.0,0.0
-0.165105,-6.898508,-10.272388,24.219999,37.59,15.26,1729475690421.0,0.0
-1.67019,-6.381658,-10.705488,32.41,73.360001,3.99,1729475690442.0,0.0
-1.392623,-4.991428,-5.826523,76.300003,75.18,10.15,1729475690465.0,0.0
-0.270389,-3.596412,-3.912265,37.73,69.93,10.71,1729475690482.0,0.0
0.442672,-6.65444,3.45045,-4.48,46.970001,13.79,1729475690505.0,0.0
1.083949,-9.925428,2.206182,19.110001,-3.29,17.43,1729475690521.0,0.0
-5.096712,-7.523034,-1.672583,4.27,-33.740002,-31.92,1729475690541.0,0.0
-5.166104,-5.575277,-5.998806,-87.080002,-55.93,-31.710001,1729475690562.0,0.0
-2.720639,-4.208975,-9.504292,-180.110001,-90.019997,-36.470001,1729475690581.0,0.0
-0.619741,-3.979264,-12.057433,-203.979996,-92.190002,-21.42,1729475690603.0,0.0
-1.363909,-8.669197,-14.368899,-103.599998,-71.82,10.99,1729475690621.0,0.0
-5.742774,-8.233703,-14.895321,21.91,3.01,23.030001,1729475690641.0,0.0
-7.920243,-5.4676,-11.344372,122.919998,56.700001,38.290001,1729475690662.0,0.0
-5.680561,-3.349952,-5.079963,84.07,54.740002,41.299999,1729475690682.0,0.0
-2.009971,-7.360322,-7.149754,14.14,14.91,38.290001,1729475690703.0,0.0
-0.959522,-8.530413,-8.898908,-21.0,32.830002,18.620001,1729475690721.0,0.0
-1.78026,-7.077969,-12.019149,20.23,61.110001,13.86,1729475690741.0,0.0
-1.562513,-3.158526,-0.969093,-5.04,89.459999,9.73,1729475690763.0,0.0
1.883151,-6.508478,0.607777,25.76,15.68,33.389999,1729475690781.0,0.0
1.20359,-9.724431,-0.234497,-17.57,-22.68,-0.84,1729475690803.0,0.0
-5.185246,-10.865808,-2.395216,-71.889999,-25.27,-51.450001,1729475690821.0,0.0
-5.362316,-7.886744,-8.360522,-56.0,-66.57,-63.490002,1729475690842.0,0.0
-1.921437,-3.122634,-10.162319,-36.610001,-71.540001,-58.66,1729475690862.0,0.0
0.904487,-4.366901,-13.641481,-23.73,-61.18,1.19,1729475690881.0,0.0
-4.292724,-6.049056,-12.686745,-30.309999,3.29,16.379999,1729475690903.0,0.0
-9.224331,-7.719246,-10.925629,12.6,43.959999,23.309999,1729475690923.0,0.0
-7.563712,-5.79063,-11.162518,36.330002,42.209999,21.91,1729475690942.0,0.0
-2.782853,-6.640083,-9.540184,87.849998,24.85,31.290001,1729475690964.0,0.0
-1.741975,-5.407779,-8.930015,73.639999,55.580002,14.56,1729475690982.0,0.0
-2.043471,-4.163511,-6.76451,56.490002,74.059998,9.38,1729475691012.0,0.0
-1.344766,-3.775874,-8.188239,14.0,61.459999,7.21,1729475691021.0,0.0
-0.023928,-3.182454,3.105884,-45.849998,69.860001,5.6,1729475691041.0,0.0
2.495714,-8.635696,0.978664,7.21,-10.71,31.5,1729475691062.0,0.0
-0.509671,-10.219746,-1.457229,-24.360001,-41.369999,-16.66,1729475691081.0,0.0
-5.584848,-9.990034,-4.106083,-72.730003,-43.540001,-64.75,1729475691102.0,0.0
-4.661219,-7.719246,-9.367901,-54.459999,-87.010002,-59.43,1729475691121.0,0.0
-0.677169,-3.055635,-9.449257,-5.32,-85.959999,-49.630001,1729475691142.0,0.0
1.021735,-2.694318,-15.002998,27.02,-76.580002,-7.84,1729475691162.0,0.0
-3.768696,-5.943772,-11.303694,-7.56,-11.97,13.16,1729475691182.0,0.0
-9.059227,-8.25763,-11.533404,28.700001,41.93,23.940001,1729475691204.0,0.0
-5.254639,-5.257031,-9.492328,85.540001,44.310001,21.0,1729475691221.0,0.0
-1.629512,-4.807181,-7.666604,61.110001,28.84,14.0,1729475691241.0,0.0
-1.239482,-6.635297,-8.092526,29.82,40.110001,6.37,1729475691262.0,0.0
-2.041078,-5.47717,-7.865208,41.09,66.709999,-2.17,1729475691281.0,0.0
-1.366302,-5.570491,-7.420143,88.269997,55.369999,12.39,1729475691302.0,0.0
-0.746561,-3.644269,-3.294917,10.99,65.660004,-4.48,1729475691322.0,0.0
0.145962,-6.89133,2.85703,-23.450001,25.690001,7.49,1729475691341.0,0.0
1.299303,-8.60459,-0.198604,-1.82,-23.940001,3.64,1729475691361.0,0.0
-2.854637,-7.415358,-1.976472,-30.380001,-36.610001,-30.799999,1729475691382.0,0.0
-5.742774,-7.767102,-5.312066,-61.110001,-62.580002,-49.279999,1729475691403.0,0.0
-3.751946,-7.819745,-9.083155,-55.650002,-98.139999,-44.380001,1729475691421.0,0.0
0.497707,-3.926622,-10.535598,4.41,-96.599998,-28.91,1729475691441.0,0.0
1.215554,-4.084548,-15.163318,54.459999,-69.93,11.69,1729475691465.0,0.0
-6.118448,-9.308081,-6.439085,-11.2,2.94,24.780001,1729475691481.0,0.0
-11.676974,-11.222338,-9.195618,-4.62,36.540001,17.639999,1729475691502.0,0.0
-6.927221,-6.675975,-9.540184,39.619999,32.759998,9.59,1729475691521.0,0.0
0.064606,-5.843273,-8.293523,53.130001,32.689999,13.02,1729475691542.0,0.0
0.009571,-7.422535,-9.135797,-27.16,41.02,2.73,1729475691562.0,0.0
-2.029114,-5.60399,-7.274181,-8.4,68.25,-3.57,1729475691581.0,0.0
-1.275374,-5.35753,-5.123034,50.889999,54.25,12.04,1729475691603.0,0.0
-0.81356,-4.926822,-3.761517,0.98,48.23,0.77,1729475691621.0,0.0
-1.036092,-6.417551,-1.091127,-46.34,28.84,-0.42,1729475691650.0,0.0
-0.18664,-8.709875,0.133998,-18.9,-20.860001,-0.21,1729475691662.0,0.0
-1.993221,-7.99442,-2.213361,-10.85,-43.889999,-26.950001,1729475691681.0,0.0
-4.261617,-7.915457,-5.65424,-31.780001,-57.82,-50.959999,1729475691706.0,0.0
-3.180061,-7.429714,-9.140583,-15.12,-83.790001,-38.709999,1729475691721.0,0.0
-0.320638,-3.416951,-8.970692,-0.21,-76.580002,-21.84,1729475691741.0,0.0
-0.023928,-3.225525,-10.758131,-27.02,-56.139999,5.74,1729475691762.0,0.0
-4.520042,-12.282358,-10.633704,-64.470001,-28.559999,30.24,1729475691781.0,0.0
-7.893922,-11.562119,-14.457435,4.83,24.360001,24.85,1729475691802.0,0.0
-6.869793,-7.073184,-9.040084,128.240005,60.41,17.92,1729475691821.0,0.0
-3.536592,-3.926622,-5.828916,95.059998,54.810001,8.4,1729475691841.0,0.0
-0.885344,-5.998806,-7.623533,0.7,31.15,0.91,1729475691861.0,0.0
-0.87338,-5.807381,-6.582655,-43.049999,42.98,-5.18,1729475691881.0,0.0
-0.713061,-5.661418,-6.709475,6.58,39.689999,-0.91,1729475691904.0,0.0
-1.423729,-4.113262,-3.976871,-14.84,45.920002,-8.33,1729475691921.0,0.0
-1.356731,-5.173282,-0.045464,-28.700001,16.940001,1.54,1729475691989.0,0.0
-0.200997,-6.678369,-0.701097,-23.799999,-31.219999,0.42,1729475691991.0,0.0
-2.684747,-8.827123,-5.034499,-48.860001,-48.93,-21.91,1729475691993.0,0.0
-3.998406,-8.60459,-8.209774,-50.330002,-61.810001,-38.849998,1729475692035.0,0.0
-2.029114,-6.594619,-8.350951,11.13,-67.550003,-18.9,1729475692035.0,0.0
-0.181855,-4.134798,-8.288737,17.639999,-57.119999,-6.86,1729475692045.0,0.0
-1.935793,-5.76431,-11.361122,-42.91,-40.25,9.8,1729475692089.0,0.0
-5.651847,-9.669396,-9.79143,-56.560001,-7.28,21.210001,1729475692093.0,0.0
-7.006185,-8.147561,-10.370493,2.31,14.49,22.540001,1729475692115.0,0.0
-4.974678,-5.563312,-7.920243,80.709999,24.290001,31.43,1729475692121.0,0.0
-2.9336,-4.852644,-4.948357,92.540001,21.559999,30.380001,1729475692143.0,0.0
-1.885544,-6.388836,-4.194618,59.57,3.57,27.790001,1729475692187.0,0.0
-2.167897,-8.23131,-6.443871,49.349998,-13.79,16.66,1729475692239.0,0.0
-2.112862,-6.903293,-6.809973,86.449997,-16.450001,6.37,1729475692239.0,0.0
-1.660619,-7.475177,-7.018148,180.320007,-18.200001,7.77,1729475692248.0,0.0
-2.005185,-8.693125,-5.936593,222.25,-17.360001,16.309999,1729475692260.0,0.0
-3.512664,-9.389436,-3.871587,229.320007,-5.88,21.0,1729475692280.0,0.0
-4.668397,-10.310673,-3.424129,144.059998,3.36,3.15,1729475692301.0,0.0
-4.015156,-10.947165,-3.328416,124.389999,-7.0,-7.14,1729475692320.0,0.0
-3.098706,-10.437491,-2.531606,159.669998,-0.14,-7.28,1729475692342.0,0.0
-3.381058,-9.288938,-0.859023,197.820007,8.96,-9.45,1729475692366.0,0.0
-4.072584,-8.733803,-0.442672,184.380005,9.1,-16.24,1729475692381.0,0.0
-4.223332,-9.889536,-0.492921,164.430008,0.7,-14.42,1729475692403.0,0.0
-3.041277,-9.908678,-2.091327,174.720001,-0.7,-13.86,1729475692422.0,0.0
-2.737389,-9.071191,-2.184647,212.660004,16.17,-5.46,1729475692441.0,0.0
-3.361916,-8.970692,-0.521635,226.169998,25.129999,-10.57,1729475692464.0,0.0
-3.924229,-9.58804,0.332602,197.050003,20.719999,-21.98,1729475692481.0,0.0
-3.309274,-9.834501,0.985843,182.070007,24.43,-23.030001,1729475692502.0,0.0
-2.569891,-9.446864,2.115255,167.930008,33.389999,-23.73,1729475692520.0,0.0
-2.354537,-8.843873,2.840281,128.029999,34.580002,-31.219999,1729475692541.0,0.0
-2.182254,-9.035298,2.964707,71.190002,27.51,-33.389999,1729475692562.0,0.0
-1.9669,-8.676375,3.558127,80.360001,26.389999,-26.809999,1729475692581.0,0.0
-2.151148,-7.183254,3.948158,102.480003,26.950001,-19.67,1729475692603.0,0.0
-3.002992,-6.683154,4.76411,119.770004,26.74,-14.0,1729475692620.0,0.0
-3.381058,-8.003991,5.63749,108.010002,16.450001,-13.3,1729475692643.0,0.0
-2.804388,-9.564112,5.364708,91.489998,11.2,-12.6,1729475692776.0,0.0
-2.754139,-8.762517,4.819145,76.650002,12.95,-18.76,1729475692776.0,0.0
-3.852444,-8.037491,4.804788,56.279999,15.190001,-20.93,1729475692777.0,0.0
-3.452843,-6.673582,3.768696,37.029999,10.71,-23.59,1729475692777.0,0.0
-3.103491,-7.73121,3.572484,70.209999,19.67,-10.08,1729475692777.0,0.0
-2.603391,-8.530413,3.400201,83.510002,32.970001,-24.639999,1729475692777.0,0.0
-2.041078,-8.214561,4.465007,71.190002,45.080002,-23.940001,1729475692784.0,0.0
-1.90708,-5.986843,5.919843,65.730003,50.119999,-23.1,1729475692800.0,0.0
-2.309074,-3.639483,7.240681,63.0,45.57,-10.5,1729475692821.0,0.0
-2.639283,-3.503092,7.860423,51.380001,26.950001,6.65,1729475692839.0,0.0
-2.371287,-5.498707,8.126025,33.880001,8.19,20.65,1729475692860.0,0.0
-2.861816,-5.816952,6.273981,31.01,-3.43,30.309999,1729475692880.0,0.0
-3.550949,-4.041477,5.206782,22.75,-5.04,44.52,1729475692902.0,0.0
-6.56112,-9.322437,5.52742,-2.73,-12.6,45.920002,1729475692921.0,0.0
-5.826523,-12.820745,5.816952,-35.07,-17.57,22.960001,1729475692941.0,0.0
-4.273581,-11.126624,5.67099,-6.16,-5.74,-1.61,1729475692961.0,0.0
-4.201797,-10.236496,5.441278,7.28,-3.29,-15.47,1729475692980.0,0.0
-2.581856,-8.55434,4.893322,-14.35,-3.08,-35.560001,1729475693011.0,0.0
-2.266003,-7.549356,4.381258,-6.23,9.94,-35.0,1729475693020.0,0.0
-3.4672,-8.039884,5.151747,-12.11,7.28,-42.84,1729475693042.0,0.0
-2.727818,-8.123632,7.149754,6.37,9.38,-46.27,1729475693061.0,0.0
-1.581656,-5.493921,7.556533,25.059999,16.870001,-39.200001,1729475693081.0,0.0
-0.4666,-1.919044,5.668597,-19.460001,0.63,-34.790001,1729475693101.0,0.0
-1.0002,-1.378266,4.785645,-15.54,5.88,2.8,1729475693120.0,0.0
-4.65404,-4.108476,5.87438,3.5,0.14,28.91,1729475693140.0,0.0
-6.396015,-6.094519,6.809973,-13.440001,-15.89,35.139999,1729475693160.0,0.0
-3.318845,-5.580062,8.181061,19.18,1.05,60.48,1729475693180.0,0.0
-3.605984,-5.910272,8.77448,24.57,-5.53,54.459999,1729475693201.0,0.0
-4.15394,-8.88455,6.484549,-58.099998,-20.299999,51.59,1729475693220.0,0.0
-5.630312,-11.205588,4.481757,-72.239998,-25.27,27.23,1729475693240.0,0.0
-4.847858,-12.413965,4.567898,-32.34,-14.14,10.15,1729475693261.0,0.0
-3.565305,-10.442278,4.577469,20.02,3.57,-11.97,1729475693280.0,0.0
-2.364109,-8.11167,5.278566,19.110001,8.75,-28.77,1729475693302.0,0.0
-1.514657,-6.948757,5.486742,-3.36,11.13,-28.139999,1729475693321.0,0.0
-1.79701,-6.393622,5.245068,-25.200001,7.07,-27.51,1729475693341.0,0.0
-2.935993,-7.111469,5.185246,-31.290001,0.63,-23.450001,1729475693360.0,0.0
-2.758924,-8.080563,5.290531,-10.5,1.68,-24.08,1729475693381.0,0.0
-2.07697,-7.429714,6.211767,6.79,4.9,-26.530001,1729475693402.0,0.0
-2.132005,-2.756532,4.701896,12.67,12.04,-7.49,1729475693420.0,0.0
-2.512464,-3.359523,5.020142,-2.8,15.33,18.200001,1729475693442.0,0.0
-3.665804,-6.336195,6.379266,-7.63,13.37,32.34,1729475693464.0,0.0
-5.517848,-6.692725,6.924829,-6.93,-4.97,26.67,1729475693480.0,0.0
-3.89073,-5.905487,8.650054,12.32,-3.01,43.119999,1729475693504.0,0.0
-3.371487,-4.95075,6.173482,-11.13,-12.81,36.68,1729475693520.0,0.0
-5.4341,-9.571291,4.577469,-27.93,-16.73,45.009998,1729475693540.0,0.0
-4.680361,-12.543176,4.807181,9.17,4.62,9.24,1729475693561.0,0.0
-4.223332,-12.416357,4.800002,18.83,12.95,-23.24,1729475693580.0,0.0
-1.555335,-9.202796,5.12782,23.1,24.219999,-39.689999,1729475693601.0,0.0
-2.201397,-7.73121,5.52742,35.490002,27.02,-41.93,1729475693620.0,0.0
-2.718246,-7.116255,5.221139,-1.19,13.16,-48.299999,1729475693639.0,0.0
-0.736989,-2.053042,4.536791,3.15,17.99,-39.060001,1729475693661.0,0.0
-3.924229,-2.852244,4.905287,42.98,16.24,3.15,1729475693688.0,0.0
-2.651247,-4.13719,6.355337,-10.01,3.22,2.17,1729475693702.0,0.0
-4.993821,-6.04427,7.144968,-6.51,-4.76,37.73,1729475693720.0,0.0
-5.871986,-6.300302,7.415358,-22.120001,-23.52,27.02,1729475693740.0,0.0
-3.802195,-5.678168,7.688138,-14.77,-18.129999,37.939999,1729475693760.0,0.0
-3.445665,-5.458029,6.113662,-22.68,-23.52,38.220001,1729475693781.0,0.0
-5.601598,-10.231709,4.965107,-28.700001,-21.84,43.540001,1729475693802.0,0.0
-5.735595,-12.088539,5.651847,-24.360001,-20.09,19.18,1729475693820.0,0.0
-4.833502,-10.516455,5.381458,28.559999,-1.05,-1.26,1729475693840.0,0.0
-3.871587,-10.121639,4.347759,14.0,2.31,-22.26,1729475693861.0,0.0
-1.402194,-8.755339,3.972085,-15.61,6.79,-39.689999,1729475693880.0,0.0
-3.443272,-8.559127,3.201597,6.44,15.61,-42.07,1729475693902.0,0.0
-4.084548,-8.717053,4.706682,9.1,16.17,-46.619999,1729475693920.0,0.0
-1.521835,-4.570292,5.312066,19.460001,22.960001,-50.959999,1729475693940.0,0.0
-2.533999,-1.909473,4.177868,34.439999,29.26,-16.52,1729475693961.0,0.0
-2.309074,-2.067399,5.711668,-9.1,19.389999,-12.11,1729475693980.0,0.0
-5.60399,-5.168497,7.255038,0.84,13.51,30.030001,1729475694002.0,0.0
-5.618347,-6.302694,8.695518,-20.02,-12.46,21.700001,1729475694020.0,0.0
-3.062813,-6.501299,8.303094,-13.16,-13.51,34.439999,1729475694040.0,0.0
-2.505285,-5.474778,6.053841,-11.41,-17.08,36.049999,1729475694062.0,0.0
-4.797609,-10.348958,5.548956,-7.28,-10.57,40.529999,1729475694080.0,0.0
-5.876772,-12.265609,6.149554,-23.940001,-10.92,15.82,1729475694101.0,0.0
-5.570491,-12.265609,5.589634,14.14,0.98,-10.64,1729475694120.0,0.0
-2.988636,-9.449257,4.101298,7.14,5.25,-35.98,1729475694140.0,0.0
-0.581456,-7.56132,4.151547,11.62,19.25,-42.560001,1729475694161.0,0.0
-3.285345,-9.253045,4.716253,-2.73,13.440001,-41.580002,1729475694180.0,0.0
-3.59402,-8.449057,5.410172,-3.64,10.08,-48.720001,1729475694212.0,0.0
-4.807181,-7.063612,5.225924,25.549999,17.01,-43.330002,1729475694220.0,0.0
-2.474179,-4.871787,5.412565,-32.900002,-0.14,-55.369999,1729475694241.0,0.0
-1.895115,-2.615355,5.781059,4.27,10.01,-6.37,1729475694260.0,0.0
-3.65384,-2.196611,5.785845,0.42,-7.0,-5.74,1729475694281.0,0.0
-3.708875,-4.969893,8.724231,-2.03,-14.0,30.030001,1729475694300.0,0.0
-1.964507,-4.934,9.123833,17.01,-14.14,36.119999,1729475694321.0,0.0
-3.005385,-4.371687,5.828916,1.47,-26.389999,43.82,1729475694340.0,0.0
-4.23051,-5.462814,4.426722,-25.27,-20.790001,58.799999,1729475694361.0,0.0
-5.625526,-13.603197,4.54397,-53.830002,-13.93,43.049999,1729475694380.0,0.0
-8.420342,-16.450655,1.332802,-28.49,-5.39,10.29,1729475694405.0,0.0
-2.744568,-10.858629,4.895715,48.09,30.17,-22.540001,1729475694419.0,0.0
-2.141576,-7.633104,4.022335,31.639999,27.790001,-45.360001,1729475694440.0,0.0
-4.192225,-8.882158,5.166104,8.12,25.83,-40.25,1729475694464.0,0.0
-3.192025,-9.473185,5.589634,-27.93,8.82,-54.459999,1729475694480.0,0.0
-1.74676,-5.225924,3.795017,11.76,20.58,-51.799999,1729475694500.0,0.0
-1.196411,-0.502493,4.199404,39.619999,25.690001,-22.120001,1729475694520.0,0.0
-2.54357,0.990629,4.359723,2.94,13.09,-5.53,1729475694539.0,0.0
-6.008378,-6.508478,8.245667,-32.200001,-18.34,36.470001,1729475694560.0,0.0
-2.766103,-6.338587,9.016156,-16.1,-16.940001,46.48,1729475694580.0,0.0
-1.572084,-7.200003,7.762317,2.66,-23.1,47.529999,1729475694601.0,0.0
-3.416951,-6.577869,6.865008,-30.52,-32.060001,49.420002,1729475694619.0,0.0
-6.843473,-12.25843,5.472386,-12.6,-17.99,54.529999,1729475694639.0,0.0
-6.582655,-16.000805,5.278566,-45.57,-20.51,5.18,1729475694661.0,0.0
-3.84048,-13.600803,4.634897,1.4,-0.77,-32.130001,1729475694680.0,0.0
-1.464408,-6.908078,4.503292,53.060001,15.33,-39.27,1729475694700.0,0.0
-2.952743,-6.592227,4.917251,41.509998,8.75,-39.830002,1729475694719.0,0.0
-3.63709,-10.236496,4.134798,-25.129999,-5.04,-46.41,1729475694739.0,0.0
-1.040878,-4.902894,2.811567,-22.68,10.99,-52.920002,1729475694760.0,0.0
-3.304488,-5.063213,4.472186,28.0,22.469999,-33.810001,1729475694780.0,0.0
-1.617548,-4.036692,5.800202,-28.700001,12.81,-35.91,1729475694800.0,0.0
-3.189633,-3.309274,6.788438,1.47,6.02,0.77,1729475694820.0,0.0
-5.601598,-4.922036,9.166903,12.25,-18.969999,18.690001,1729475694840.0,0.0
-2.569891,-4.82393,9.207582,9.38,-23.52,31.219999,1729475694860.0,0.0
-2.079363,-4.26401,4.754539,-5.46,-29.120001,38.5,1729475694879.0,0.0
-5.469993,-10.128819,2.974278,-22.68,-17.639999,57.68,1729475694901.0,0.0
-6.675975,-15.582061,5.302495,-5.39,-7.84,26.809999,1729475694919.0,0.0
-5.826523,-15.002998,5.876772,45.220001,10.85,-17.780001,1729475694940.0,0.0
-1.849652,-7.62114,4.405186,50.889999,22.4,-39.48,1729475694960.0,0.0
-1.490728,-5.807381,4.280759,38.150002,23.940001,-35.349998,1729475694979.0,0.0
-4.567898,-9.128618,3.814159,-14.42,3.64,-30.940001,1729475695001.0,0.0
-2.041078,-6.218946,4.079762,-6.02,18.969999,-36.259998,1729475695021.0,0.0
-3.63709,-5.345565,3.826123,36.470001,24.639999,-17.85,1729475695041.0,0.0
-2.397608,-3.464807,5.510671,-20.65,21.35,-30.870001,1729475695060.0,0.0
-2.876173,-3.404987,6.262017,-6.93,19.25,5.46,1729475695081.0,0.0
-5.429315,-5.036892,7.783852,-10.78,-8.68,12.32,1729475695103.0,0.0
-3.223132,-6.556334,9.370294,-1.26,-16.450001,30.799999,1729475695119.0,0.0
-1.452443,-6.084948,7.034898,-6.86,-22.82,32.27,1729475695139.0,0.0
-1.208375,-5.927022,4.445865,-40.529999,-25.83,36.119999,1729475695160.0,0.0
-3.376273,-5.862415,1.294517,-17.780001,-9.8,49.84,1729475695180.0,0.0
-5.438886,-11.832507,4.649254,-9.24,-2.38,34.860001,1729475695200.0,0.0
-4.656433,-13.584054,6.123233,1.19,6.58,3.57,1729475695219.0,0.0
-1.875973,-7.037291,5.082355,23.73,24.360001,-32.060001,1729475695239.0,0.0
-2.545963,-6.056234,4.45065,7.14,20.02,-32.619999,1729475695260.0,0.0
-5.254639,-9.24826,5.175675,-22.960001,3.01,-30.309999,1729475695279.0,0.0
-2.036292,-7.642675,6.809973,9.31,16.17,-40.32,1729475695301.0,0.0
-2.467,-4.15394,4.981857,32.970001,14.84,-30.59,1729475695320.0,0.0
-2.009971,-2.490928,5.91745,-0.84,12.25,-25.620001,1729475695339.0,0.0
-2.421536,-2.438286,5.711668,-28.559999,1.82,9.24,1729475695360.0,0.0
-5.974878,-6.003592,6.752545,-31.15,-19.18,17.43,1729475695381.0,0.0
-4.261617,-6.206983,9.272188,-2.73,-23.450001,41.650002,1729475695402.0,0.0
-2.091327,-4.261617,7.977671,36.75,-22.540001,41.439999,1729475695419.0,0.0
-3.402594,-4.163511,4.646862,-18.34,-32.060001,51.310001,1729475695439.0,0.0
-4.62054,-8.46102,3.993621,-51.52,-23.309999,66.709999,1729475695463.0,0.0
-6.396015,-15.349957,5.079963,-74.199997,-29.120001,27.09,1729475695480.0,0.0
-5.295317,-15.297315,4.491328,-11.76,-10.78,-0.35,1729475695503.0,0.0
-3.517449,-10.719845,3.871587,53.41,6.09,-34.580002,1729475695518.0,0.0
-1.31366,-7.367501,4.76411,50.68,15.61,-43.82,1729475695540.0,0.0
-3.862016,-9.712467,4.630112,20.370001,7.0,-45.290001,1729475695560.0,0.0
-1.536192,-6.250053,3.783052,9.94,4.76,-58.450001,1729475695579.0,0.0
-2.845066,-2.550749,2.696711,58.59,22.190001,-27.16,1729475695600.0,0.0
-3.15374,-2.924029,5.295317,11.97,19.25,-33.25,1729475695619.0,0.0
-2.038685,-1.555335,6.020342,-17.710001,22.960001,3.22,1729475695640.0,0.0
-6.541977,-4.835894,6.958328,-13.79,2.59,21.280001,1729475695660.0,0.0
-5.005785,-6.805188,8.439486,-30.450001,-13.51,38.5,1729475695680.0,0.0
-2.141576,-6.496514,8.472985,3.5,-13.23,37.52,1729475695700.0,0.0
-1.751546,-6.518049,5.584848,-3.22,-16.030001,43.889999,1729475695718.0,0.0
-4.469792,-8.063812,3.651447,-26.530001,-15.47,47.32,1729475695739.0,0.0
-6.829116,-13.344771,5.314459,-38.57,-18.41,21.77,1729475695759.0,0.0
-4.682754,-14.108082,4.632504,-16.870001,0.91,-6.44,1729475695781.0,0.0
-2.727818,-10.803595,4.62054,17.360001,12.18,-41.790001,1729475695799.0,0.0
-0.744168,-6.477371,5.20439,31.57,23.940001,-41.93,1729475695819.0,0.0
-3.567699,-7.331609,4.383651,8.19,12.53,-36.470001,1729475695840.0,0.0
-4.65404,-10.490135,4.218546,-31.01,-2.24,-48.439999,1729475695859.0,0.0
-1.287339,-2.792424,2.9336,-2.31,19.32,-52.5,1729475695881.0,0.0
-2.24686,-1.928615,4.331009,16.030001,27.02,-28.49,1729475695900.0,0.0
-2.481357,-2.151148,6.568298,-8.82,19.74,2.17,1729475695919.0,0.0
-6.13759,-5.17089,8.391629,-5.6,-2.31,21.559999,1729475695940.0,0.0
-4.12044,-7.173682,10.19821,-6.79,-17.92,41.02,1729475695961.0,0.0
-1.562513,-5.242674,7.269395,-2.03,-20.51,37.029999,1729475695980.0,0.0
-1.115055,-3.567699,3.969693,-11.06,-20.16,48.439999,1729475696000.0,0.0
-7.097112,-9.844072,4.864608,-13.02,-7.21,63.279999,1729475696020.0,0.0
-7.587641,-14.368899,6.161518,-37.939999,-11.76,39.27,1729475696039.0,0.0
-6.099305,-15.000606,5.187639,-22.469999,3.36,-1.68,1729475696060.0,0.0
-3.601198,-12.650853,3.026921,-19.25,4.13,-40.25,1729475696081.0,0.0
-1.363909,-8.602197,3.854837,21.98,22.120001,-39.48,1729475696099.0,0.0
-3.802195,-8.985049,3.321238,21.629999,15.12,-50.68,1729475696119.0,0.0
-1.603191,-9.413363,4.996214,1.75,15.47,-67.410004,1729475696138.0,0.0
0.519243,-0.863809,2.660819,45.709999,35.139999,-55.510002,1729475696160.0,0.0
-1.540978,1.100698,4.328616,56.98,38.779999,-26.32,1729475696179.0,0.0
-3.409772,-1.272982,6.632904,-24.639999,14.77,9.24,1729475696202.0,0.0
-5.180461,-7.23111,8.216952,-60.41,-17.710001,32.689999,1729475696218.0,0.0
-2.567499,-5.84088,8.470592,2.73,-13.93,47.810001,1729475696238.0,0.0
-3.158526,-3.18724,6.398407,10.71,-17.5,56.700001,1729475696259.0,0.0
-5.74756,-5.833702,2.821138,-18.969999,-17.219999,80.360001,1729475696279.0,0.0
-7.408179,-12.547962,4.847858,-77.0,-25.059999,57.470001,1729475696301.0,0.0
-6.063413,-15.919449,4.704289,-52.57,-4.83,31.01,1729475696319.0,0.0
-5.709275,-14.340185,2.955136,7.63,7.7,-12.81,1729475696339.0,0.0
-3.17049,-11.456835,3.491128,22.610001,15.190001,-42.84,1729475696359.0,0.0
-1.89033,-11.042876,4.031906,33.670002,22.190001,-48.650002,1729475696379.0,0.0
-2.792424,-11.590833,3.273381,10.36,8.19,-70.769997,1729475696402.0,0.0
-2.368894,-9.796216,5.635098,39.689999,13.65,-82.459999,1729475696418.0,0.0
-1.021735,-1.217947,3.65384,66.220001,26.6,-69.440002,1729475696438.0,0.0
-2.242075,0.62692,5.206782,43.049999,24.08,-60.760002,1729475696461.0,0.0
-2.581856,0.751346,5.766702,-37.73,0.21,-16.73,1729475696479.0,0.0
-6.202196,-3.969693,7.329216,-53.970001,-31.57,18.83,1729475696499.0,0.0
-3.194418,-5.149354,9.422935,-25.76,-37.799999,42.630001,1729475696518.0,0.0
-2.529213,-5.146961,8.056634,25.690001,-36.540001,54.18,1729475696538.0,0.0
-5.197211,-9.444471,3.84048,0.07,-31.780001,68.25,1729475696559.0,0.0
-7.384251,-17.240288,4.063013,-95.760002,-31.15,22.960001,1729475696579.0,0.0
-5.072784,-17.989241,2.900101,-50.959999,-0.63,-18.059999,1729475696601.0,0.0
-1.68694,-10.427922,2.328217,44.73,28.139999,-47.18,1729475696625.0,0.0
-0.799203,-6.403193,3.811767,88.900002,44.170002,-41.860001,1729475696638.0,0.0
-3.330809,-8.446664,4.400401,20.299999,21.280001,-51.240002,1729475696659.0,0.0
-1.284946,-6.084948,4.055835,-21.77,18.41,-53.060001,1729475696679.0,0.0
-3.337988,-5.60399,5.965307,42.630001,33.459999,-33.529999,1729475696699.0,0.0
-1.177269,-1.088734,5.180461,7.21,30.24,-37.170002,1729475696718.0,0.0
-2.620141,-1.153341,5.314459,-11.76,16.17,4.62,1729475696740.0,0.0
-6.319445,-6.118448,6.518049,-54.389999,-16.799999,24.92,1729475696759.0,0.0
-3.924229,-6.829116,8.118847,-37.66,-25.41,42.77,1729475696778.0,0.0
-2.624927,-4.713861,7.534998,44.66,-19.74,50.75,1729475696798.0,0.0
-3.620341,-2.304288,4.639683,19.389999,-28.35,57.260002,1729475696818.0,0.0
-6.300302,-8.274381,4.388437,-23.24,-14.07,80.849998,1729475696838.0,0.0
-7.307681,-16.201803,4.029513,-99.610001,-26.460001,33.670002,1729475696860.0,0.0
-3.675375,-14.517255,3.07717,-49.91,-0.21,3.43,1729475696880.0,0.0
-1.4668,-8.020741,3.869194,63.98,23.870001,-24.219999,1729475696901.0,0.0
-3.108276,-7.757531,4.421937,48.369999,30.030001,-28.630001,1729475696992.0,0.0
-4.051049,-12.686745,3.735196,-32.619999,4.2,-46.900002,1729475696997.0,0.0
-0.416351,-11.784652,5.491528,-22.82,14.14,-69.93,1729475696999.0,0.0
-1.026521,-2.498107,4.735396,64.330002,29.540001,-50.470001,1729475697002.0,0.0
-0.942772,2.991028,4.23051,43.68,25.620001,-46.060001,1729475697004.0,0.0
-3.969693,-2.500499,5.752346,-10.5,2.03,0.42,1729475697018.0,0.0
-5.76431,-6.65444,7.958528,-43.959999,-26.32,24.360001,1729475697038.0,0.0
-2.708675,-6.30748,8.85823,23.940001,-17.360001,36.189999,1729475697058.0,0.0
-3.024528,-4.936393,5.02732,49.700001,-19.32,37.59,1729475697078.0,0.0
-3.737589,-3.821337,3.613162,-4.48,-16.59,56.630001,1729475697099.0,0.0
-6.405586,-13.883157,5.314459,-38.779999,-9.1,35.490002,1729475697118.0,0.0
-6.163911,-18.147165,4.488935,-57.75,-6.65,0.42,1729475697138.0,0.0
-2.646462,-11.203196,3.816552,27.51,19.389999,-34.299999,1729475697160.0,0.0
-1.227518,-5.290531,3.778267,63.349998,34.23,-33.32,1729475697178.0,0.0
-5.012963,-8.355737,4.175476,8.82,15.89,-39.900002,1729475697199.0,0.0
-3.115455,-9.162118,4.163511,-37.310001,7.0,-49.209999,1729475697218.0,0.0
-3.352344,-5.996413,5.594419,60.060001,23.24,-42.139999,1729475697238.0,0.0
-1.631905,-2.012364,6.905686,7.56,22.540001,-37.939999,1729475697259.0,0.0
-1.347159,-1.064806,5.206782,-19.460001,4.48,1.75,1729475697279.0,0.0
-5.635098,-5.752346,6.9679,-34.16,-20.58,19.6,1729475697299.0,0.0
-4.68754,-6.946364,7.951349,-18.41,-27.860001,39.200001,1729475697318.0,0.0
-2.378466,-4.761717,6.58744,42.349998,-20.790001,40.459999,1729475697338.0,0.0
-3.17049,-5.446064,3.945765,20.790001,-24.219999,46.619999,1729475697358.0,0.0
-3.869194,-5.481956,2.976671,-20.09,-11.13,57.049999,1729475697378.0,0.0
-5.596812,-13.933406,5.082355,-21.98,2.94,40.529999,1729475697400.0,0.0
-5.910272,-15.862022,4.780859,-30.66,3.22,8.12,1729475697418.0,0.0
-4.206582,-12.583855,4.668397,29.889999,18.129999,-26.809999,1729475697438.0,0.0
-1.584049,-6.987042,4.711468,34.299999,24.57,-36.119999,1729475697462.0,0.0
-2.912065,-7.319644,5.192425,5.67,20.16,-38.43,1729475697479.0,0.0
-3.993621,-11.076375,5.79063,-49.279999,-3.43,-51.939999,1729475697500.0,0.0
-1.284946,-8.477771,5.465207,1.12,7.42,-53.48,1729475697518.0,0.0
-2.457429,-3.122634,5.000999,48.860001,10.08,-39.900002,1729475697540.0,0.0
-1.426122,0.600598,3.845266,29.190001,19.879999,-21.139999,1729475697559.0,0.0
-6.128019,-5.249853,6.312266,-24.92,-6.37,30.940001,1729475697578.0,0.0
-5.178068,-6.788438,8.394022,-22.049999,-16.59,46.689999,1729475697599.0,0.0
-2.612962,-5.728417,7.838887,37.380001,-9.38,49.84,1729475697620.0,0.0
-4.268795,-5.180461,5.036892,5.88,-19.25,53.830002,1729475697642.0,0.0
-3.656233,-8.563912,3.900301,-38.57,-5.95,75.25,1729475697658.0,0.0
-6.750153,-16.663616,5.063213,-85.540001,-22.33,24.43,1729475697678.0,0.0
-5.740381,-15.842879,4.512863,-41.09,-5.67,2.1,1729475697701.0,0.0
-4.287938,-8.870193,3.39063,34.09,9.17,-39.34,1729475697717.0,0.0
-1.90708,-6.881758,4.532006,27.860001,19.74,-28.139999,1729475697737.0,0.0
-3.838088,-9.154939,4.218546,-13.23,5.46,-58.59,1729475697759.0,0.0
-3.548556,-9.963714,5.422136,-2.03,0.7,-47.110001,1729475697778.0,0.0
-2.029114,-5.938986,3.790231,41.369999,15.68,-52.849998,1729475697800.0,0.0
-2.270789,-3.440879,4.979464,26.32,8.89,-50.889999,1729475697820.0,0.0
-1.268196,-1.639083,5.268995,-1.26,16.450001,-22.33,1729475697839.0,0.0
-2.555535,-3.005385,5.130211,-26.530001,3.99,-5.88,1729475697858.0,0.0
-5.541777,-6.216553,8.779266,-30.870001,-16.799999,25.690001,1729475697878.0,0.0
-2.663212,-4.56072,8.537591,17.57,-17.639999,42.0,1729475697899.0,0.0
-3.165704,-4.23051,4.701896,15.47,-31.57,50.82,1729475697919.0,0.0
-3.249453,-5.199604,3.383451,-47.32,-27.860001,71.260002,1729475697938.0,0.0
-5.831308,-14.849857,4.493721,-84.07,-24.780001,46.689999,1729475697959.0,0.0
-6.470192,-18.491734,4.06062,-62.09,-14.35,10.43,1729475697978.0,0.0
-4.768896,-14.277972,3.900301,35.700001,9.38,-33.599998,1729475698000.0,0.0
-1.806581,-7.798209,3.905087,68.879997,25.690001,-47.389999,1729475698019.0,0.0
-2.89053,-8.130811,4.252046,40.950001,19.6,-55.369999,1729475698038.0,0.0
-2.562713,-10.064213,4.979464,-18.200001,4.13,-68.669998,1729475698059.0,0.0
-0.701097,-5.053641,2.849852,25.549999,21.84,-59.849998,1729475698080.0,0.0
-1.004985,-0.047856,4.299902,52.57,24.15,-47.880001,1729475698101.0,0.0
-0.662812,1.744368,3.826123,22.68,24.5,-11.48,1729475698120.0,0.0
-5.386244,-4.182654,6.740582,-19.040001,4.55,23.59,1729475698139.0,0.0
-6.30748,-7.568498,7.965706,-51.52,-22.049999,44.310001,1729475698159.0,0.0
-2.24686,-6.013163,8.013563,23.66,-7.21,50.259998,1729475698179.0,0.0
-3.414558,-6.056234,5.816952,38.360001,-16.1,51.170002,1729475698200.0,0.0
-3.742374,-5.123034,4.216154,-32.34,-21.0,65.870003,1729475698218.0,0.0
-6.565905,-17.094324,4.266403,-77.07,-17.710001,15.82,1729475698237.0,0.0
-5.881558,-16.249659,4.993821,-2.66,3.57,-10.29,1729475698259.0,0.0
-2.773281,-9.097511,4.800002,68.529999,20.23,-44.59,1729475698278.0,0.0
-1.416551,-5.453243,4.634897,60.34,24.43,-42.420002,1729475698298.0,0.0
-3.76391,-8.767302,4.536791,-6.02,5.11,-49.139999,1729475698317.0,0.0
-1.931008,-8.915657,4.307081,-21.98,2.38,-53.830002,1729475698337.0,0.0
-2.782853,-5.596812,3.548556,50.82,20.51,-48.369999,1729475698360.0,0.0
-1.732404,-1.351945,5.218746,47.599998,23.1,-42.490002,1729475698379.0,0.0
-1.442872,0.217747,4.910072,7.14,18.41,-15.33,1729475698399.0,0.0
-3.955336,-3.668197,5.84088,-29.82,1.33,15.05,1729475698417.0,0.0
-5.702096,-7.200003,8.250452,-32.619999,-17.92,43.470001,1729475698438.0,0.0
-2.842674,-5.690133,8.580662,23.799999,-15.05,49.209999,1729475698460.0,0.0
-2.574677,-4.723432,6.039484,28.630001,-20.16,51.029999,1729475698479.0,0.0
-3.739982,-6.582655,5.532206,-42.420002,-24.15,56.349998,1729475698500.0,0.0
-6.522834,-12.220145,4.656433,-50.189999,-12.18,64.330002,1729475698520.0,0.0
-6.862615,-16.395622,4.438686,-53.900002,-14.98,9.94,1729475698538.0,0.0
-5.259424,-15.096318,4.182654,5.46,4.27,-21.98,1729475698559.0,0.0
-1.447658,-6.927221,4.998606,67.970001,27.65,-42.98,1729475698578.0,0.0
-4.359723,-8.614161,5.12782,13.86,11.69,-55.720001,1729475698599.0,0.0
-2.237289,-7.862815,3.728018,-26.880001,3.29,-65.870003,1729475698617.0,0.0
-3.34038,-6.338587,4.642076,49.07,21.07,-50.400002,1729475698639.0,0.0
-1.217947,-2.711068,5.556134,23.799999,15.68,-67.199997,1729475698659.0,0.0
-1.246661,-1.234696,5.225924,-0.28,12.18,-25.129999,1729475698680.0,0.0
-1.421337,-1.335195,5.266603,-21.139999,3.78,-2.87,1729475698697.0,0.0
-5.101498,-5.659025,7.144968,-15.75,-10.64,36.049999,1729475698717.0,0.0
-4.26401,-6.503692,7.532606,3.71,-15.4,39.759998,1729475698737.0,0.0
-2.218147,-4.517649,6.675975,28.210001,-10.08,50.75,1729475698758.0,0.0
-3.438486,-7.757531,5.07757,-11.27,-17.99,50.119999,1729475698778.0,0.0
-6.750153,-10.624132,4.613362,-69.090004,-30.030001,39.970001,1729475698797.0,0.0
-6.144768,-14.191832,4.457829,-25.76,-8.12,30.799999,1729475698817.0,0.0
-4.62054,-14.928822,3.89073,-4.97,-0.84,-28.07,1729475698839.0,0.0
-2.206182,-9.556933,5.833702,43.540001,12.67,-35.700001,1729475698859.0,0.0
-1.395016,-5.235496,6.994221,67.620003,21.35,-42.77,1729475698879.0,0.0
-3.907479,-6.345766,2.603391,-2.73,1.68,-37.099998,1729475698898.0,0.0
-2.87378,-7.977671,3.067599,-16.940001,6.16,-28.91,1729475698919.0,0.0
-2.254039,-8.300702,5.848059,34.369999,18.48,-40.810001,1729475698938.0,0.0
-0.040678,-1.816152,7.278966,45.360001,24.99,-24.710001,1729475698967.0,0.0
0.315853,0.043071,7.618747,37.66,16.450001,9.38,1729475698977.0,0.0
-5.257031,-4.831109,7.329216,-49.490002,-20.370001,32.48,1729475698998.0,0.0
-4.182654,-5.441278,6.439085,-66.639999,-31.290001,56.209999,1729475699020.0,0.0
-2.306681,-3.158526,6.329016,0.63,-17.08,58.240002,1729475699039.0,0.0
-4.460221,-3.993621,6.386444,-25.41,-26.389999,72.730003,1729475699058.0,0.0
-6.853044,-10.786844,4.091727,-78.540001,-32.900002,85.260002,1729475699079.0,0.0
-8.087741,-15.407385,4.180261,-119.489998,-44.310001,37.939999,1729475699099.0,0.0
-4.584648,-15.24228,4.826324,4.76,-4.9,6.44,1729475699118.0,0.0
-2.175076,-7.393822,4.541577,32.48,9.1,-24.92,1729475699140.0,0.0
-3.366701,-12.416357,4.371687,-33.810001,6.51,2.52,1729475699160.0,0.0
-2.103291,-11.236694,2.981457,-14.0,17.85,-67.760002,1729475699178.0,0.0
-3.304488,-9.360723,3.352344,64.75,21.49,-43.470001,1729475699200.0,0.0
-2.536392,-4.934,5.484349,65.449997,29.82,-55.299999,1729475699218.0,0.0
-2.586641,-4.74736,5.910272,8.75,18.059999,-57.189999,1729475699238.0,0.0
-1.39023,-4.240082,6.171089,-47.670002,1.05,-40.529999,1729475699261.0,0.0
-1.356731,-2.201397,5.4676,-23.1,-6.16,-8.33,1729475699279.0,0.0
-3.804588,-2.545963,6.927221,3.92,-20.719999,22.960001,1729475699301.0,0.0
-3.199204,-3.464807,8.671589,1.89,-28.559999,48.299999,1729475699319.0,0.0
-3.507878,-5.132604,8.310273,-38.360001,-39.970001,57.189999,1729475699340.0,0.0
-4.756931,-7.948956,4.788038,-124.110001,-55.510002,54.880001,1729475699360.0,0.0
-5.32403,-11.193624,2.088934,-168.559998,-48.860001,33.040001,1729475699380.0,0.0
-3.069991,-12.906885,2.574677,-104.230003,-16.870001,28.49,1729475699401.0,0.0
-3.768696,-14.773287,3.062813,-30.59,3.71,-6.65,1729475699419.0,0.0
-3.646662,-13.52902,2.359323,-20.58,8.05,-22.68,1729475699439.0,0.0
-1.339981,-8.551948,0.102891,33.040001,29.33,-24.08,1729475699462.0,0.0
-5.551349,-9.652647,1.615155,83.090004,38.57,-17.5,1729475699479.0,0.0
-3.220739,-9.4349,4.563113,47.389999,51.310001,-68.739998,1729475699500.0,0.0
-1.265803,-5.20439,5.268995,83.090004,60.760002,-52.080002,1729475699518.0,0.0
-0.112463,-2.203789,7.678568,73.919998,48.650002,-37.66,1729475699540.0,0.0
-0.512064,-0.815953,7.403394,34.299999,22.26,-3.29,1729475699560.0,0.0
-4.144369,-4.034299,6.216553,-11.97,-7.35,18.83,1729475699579.0,0.0
-4.65404,-6.168696,5.608776,-61.810001,-34.09,36.049999,1729475699603.0,0.0
-2.199004,-6.21416,5.132604,-15.05,-27.58,49.490002,1729475699619.0,0.0
-2.699104,-5.845665,4.445865,21.629999,-22.469999,56.98,1729475699639.0,0.0
-7.235896,-11.358729,4.302295,-10.99,-27.440001,55.510002,1729475699660.0,0.0
-6.427122,-16.895721,5.103891,-50.540001,-22.26,25.76,1729475699693.0,0.0
-4.759324,-15.873986,3.235096,-44.66,-4.62,-27.93,1729475699699.0,0.0
-2.486143,-9.571291,3.0006,16.17,15.61,-42.279999,1729475699718.0,0.0
-1.643869,-5.596812,3.912265,70.980003,31.710001,-39.900002,1729475699739.0,0.0
-4.493721,-7.819745,4.692325,48.790001,20.719999,-46.549999,1729475699760.0,0.0
-4.386044,-9.432507,3.158526,-20.860001,-0.21,-61.32,1729475699780.0,0.0
-3.878766,-7.767102,4.220939,34.16,12.11,-41.93,1729475699799.0,0.0
-2.876173,-5.79781,4.512863,27.93,10.15,-59.990002,1729475699819.0,0.0
0.870987,-0.792024,4.424329,-9.94,4.06,-18.41,1729475699838.0,0.0
-0.607777,-2.423929,6.733403,27.440001,7.84,22.889999,1729475699861.0,0.0
-5.063213,-5.769095,7.68096,-33.389999,-25.76,34.369999,1729475699880.0,0.0
-3.550949,-6.721439,6.393622,-35.279999,-27.51,55.369999,1729475699900.0,0.0
-2.440679,-4.773681,5.883951,-3.85,-27.65,56.279999,1729475699919.0,0.0
-4.649254,-8.958728,2.651247,-20.09,-26.18,74.550003,1729475699938.0,0.0
-5.412565,-14.835501,4.098906,-73.360001,-30.309999,41.09,1729475699960.0,0.0
-4.35733,-16.395622,4.084548,-52.639999,-10.08,17.92,1729475699979.0,0.0
-4.266403,-13.596018,4.31426,11.76,8.68,-18.83,1729475700001.0,0.0
-2.868994,-8.992228,4.125226,38.360001,15.82,-35.700001,1729475700019.0,0.0
-2.201397,-7.006185,3.795017,53.689999,19.18,-35.490002,1729475700039.0,0.0
-3.37388,-8.370094,2.945565,27.58,13.3,-43.610001,1729475700060.0,0.0
-3.029313,-8.650054,3.677768,18.620001,11.27,-46.759998,1729475700080.0,0.0
-3.160919,-6.623333,4.488935,71.540001,24.15,-40.040001,1729475700102.0,0.0
-2.866602,-6.795617,5.785845,56.279999,22.33,-49.560001,1729475700119.0,0.0
-2.06022,-5.685347,6.283553,-17.15,10.36,-40.670002,1729475700138.0,0.0
-1.217947,-3.199204,4.639683,-42.490002,3.92,-22.26,1729475700159.0,0.0
-3.744767,-4.658825,5.860023,-14.77,-5.95,16.66,1729475700180.0,0.0
-4.010371,-5.398208,7.872386,-4.55,-14.07,34.580002,1729475700199.0,0.0
-2.924029,-4.45065,7.223931,-6.23,-24.219999,51.380001,1729475700219.0,0.0
-2.548356,-5.118248,6.58744,-31.290001,-36.119999,59.849998,1729475700240.0,0.0
-2.761317,-7.57089,4.900501,-83.090004,-43.119999,63.349998,1729475700259.0,0.0
-4.706682,-11.073983,4.187439,-129.220001,-54.740002,54.389999,1729475700279.0,0.0
-4.934,-11.499906,5.362316,-138.949997,-60.549999,49.560001,1729475700300.0,0.0
-4.469792,-8.80798,5.517848,-134.75,-52.150002,32.970001,1729475700318.0,0.0
-4.596612,-7.592427,3.76391,-186.619995,-61.950001,16.73,1729475700341.0,0.0
-3.98405,-7.719246,1.603191,-276.290009,-68.18,2.87,1729475700360.0,0.0
-3.512664,-9.183653,-0.375673,-331.799988,-66.220001,-5.18,1729475700380.0,0.0
-2.945565,-10.389636,-2.591427,-332.709991,-54.880001,-6.65,1729475700400.0,0.0
-2.35693,-10.571491,-2.012364,-269.5,-35.07,-2.59,1729475700418.0,0.0
-2.230111,-9.597611,-1.062413,-227.220001,-14.98,0.42,1729475700439.0,0.0
-2.589034,-8.51127,-1.792224,-257.040009,-9.66,-2.59,1729475700461.0,0.0
-2.694318,-8.472985,-3.223132,-309.399994,-10.01,-6.37,1729475700478.0,0.0
-2.139183,-6.63769,-4.855037,-350.070007,-12.81,-3.5,1729475700500.0,0.0
-2.344966,-6.759724,-6.898508,-334.320007,-9.8,2.03,1729475700520.0,0.0
-2.974278,-7.537392,-7.034898,-299.390015,-3.5,-4.27,1729475700537.0,0.0
-3.54377,-7.001399,-8.317451,-296.730011,2.59,-12.46,1729475700561.0,0.0
-3.048456,-5.539384,-9.219545,-311.5,5.74,-24.92,1729475700579.0,0.0
-2.502892,-4.175476,-9.954143,-327.459991,3.64,-21.84,1729475700600.0,0.0
-2.203789,-2.919244,-10.214959,-323.119995,6.16,-17.01,1729475700617.0,0.0
-2.383251,-3.393023,-11.035697,-273.559998,12.88,-5.04,1729475700640.0,0.0
-2.306681,-4.369294,-10.951948,-217.350006,16.870001,-4.06,1729475700659.0,0.0
-2.495714,-4.354938,-10.454242,-179.690002,23.940001,-5.32,1729475700678.0,0.0
-2.553142,-5.644669,-9.95175,-105.349998,18.34,-3.99,1729475700701.0,0.0
-2.569891,-6.79083,-9.123833,-20.16,28.139999,-11.55,1729475700718.0,0.0
-2.986243,-5.034499,-9.111869,29.82,33.529999,-23.870001,1729475700738.0,0.0
-2.828316,-3.936193,-8.571091,30.73,30.17,-35.77,1729475700759.0,0.0
-2.28036,-3.89073,-8.913264,15.61,16.24,-44.869999,1729475700778.0,0.0
-1.438086,-1.971686,-7.927422,23.450001,12.46,-48.580002,1729475700801.0,0.0
-1.105484,-0.993021,-9.178867,27.16,6.58,-41.23,1729475700830.0,0.0
-2.478964,0.708275,-7.556533,-0.42,19.32,-26.530001,1729475700839.0,0.0
-1.828116,0.485743,-8.913264,-25.129999,-6.3,-0.49,1729475700858.0,0.0
-0.98345,-0.29671,-9.777073,-31.08,-10.29,12.81,1729475700879.0,0.0
-0.454636,-1.782653,-11.13859,-28.77,-16.030001,18.200001,1729475700900.0,0.0
-0.464208,-1.191626,-10.753345,-12.25,-3.71,20.719999,1729475700918.0,0.0
-1.916651,0.435494,-8.489735,-8.82,17.99,26.460001,1729475700938.0,0.0
-3.620341,-0.143569,-12.356536,-21.42,19.6,39.970001,1729475700959.0,0.0
-3.376273,-3.550949,-8.872586,-22.4,14.42,47.25,1729475700979.0,0.0
-3.955336,-6.45105,-6.948757,-64.540001,22.540001,29.82,1729475701008.0,0.0
-2.605784,-7.743174,-9.798609,-66.709999,-7.49,-1.61,1729475701018.0,0.0
-1.375873,-7.020542,-11.930614,32.619999,-6.86,-20.65,1729475701040.0,0.0
-2.557927,-2.749353,-10.533205,97.090004,24.85,-29.540001,1729475701059.0,0.0
-3.940979,-0.533599,-9.399008,49.91,30.17,-34.720001,1729475701080.0,0.0
-3.086741,-0.935594,-8.946764,-20.51,14.56,-36.470001,1729475701099.0,0.0
-1.471586,-0.825524,-8.102098,-22.960001,-4.9,-20.93,1729475701119.0,0.0
-1.768296,0.674776,-8.16431,-34.790001,7.91,-16.1,1729475701138.0,0.0
-0.902094,1.213161,-8.664411,-29.610001,-2.52,-0.35,1729475701159.0,0.0
-0.270389,0.490529,-8.432307,27.23,-12.81,24.57,1729475701181.0,0.0
0.325424,0.660419,-9.497113,3.08,-22.4,26.530001,1729475701211.0,0.0
-0.5001,0.567099,-11.322837,-51.310001,-21.77,28.84,1729475701218.0,0.0
-2.490928,-1.51705,-13.110275,-49.07,-0.49,41.509998,1729475701238.0,0.0
-3.665804,-5.108676,-5.010571,23.17,8.19,50.75,1729475701259.0,0.0
-4.091727,-6.07777,-8.764909,5.25,0.98,28.559999,1729475701281.0,0.0
-2.287539,-5.548956,-12.014362,-16.24,-19.389999,-0.21,1729475701301.0,0.0
-2.163112,-6.518049,-11.63869,20.02,-7.77,-17.99,1729475701321.0,0.0
-3.232704,-3.876373,-11.782259,44.450001,19.110001,-35.490002,1729475701340.0,0.0
-3.61077,-1.055235,-9.071191,32.970001,25.200001,-41.439999,1729475701361.0,0.0
-2.203789,-0.457029,-7.793423,9.24,9.52,-38.009998,1729475701380.0,0.0
-1.189233,0.145962,-6.960721,5.04,0.42,-21.0,1729475701404.0,0.0
-1.694118,0.696311,-7.958528,-7.35,1.05,-8.33,1729475701420.0,0.0
-1.160519,0.086142,-9.422935,-18.129999,-7.07,2.87,1729475701440.0,0.0
-0.26321,-0.461815,-9.982857,-5.88,-16.030001,9.1,1729475701463.0,0.0
0.267996,-0.361316,-10.164711,18.549999,-17.01,16.52,1729475701480.0,0.0
-1.493121,-0.602991,-8.944371,-6.09,-6.51,20.719999,1729475701501.0,0.0
-2.708675,-0.789631,-11.609976,-16.66,-6.44,33.740002,1729475701520.0,0.0
-3.352344,-2.615355,-8.157133,12.39,-5.32,47.950001,1729475701540.0,0.0
-3.900301,-5.221139,-9.138189,-7.35,-3.22,37.310001,1729475701561.0,0.0
-2.897708,-5.9342,-12.296716,7.63,-8.82,16.870001,1729475701581.0,0.0
-2.756532,-5.156533,-10.571491,52.009998,10.78,-3.43,1729475701603.0,0.0
-3.215954,-3.314059,-10.102496,38.57,22.26,-21.280001,1729475701620.0,0.0
-2.667997,-3.512664,-9.413363,2.38,17.57,-34.16,1729475701640.0,0.0
-1.421337,-2.624927,-7.721639,11.27,9.52,-36.68,1729475701662.0,0.0
-2.033899,-1.182054,-7.305287,33.32,9.1,-28.559999,1729475701681.0,0.0
-2.866602,-0.179462,-8.23131,9.8,6.58,-26.950001,1729475701700.0,0.0
-2.234896,0.473779,-8.724231,-21.139999,-7.0,-18.76,1729475701724.0,0.0
-1.045663,0.562313,-9.109475,-30.940001,-17.639999,-6.09,1729475701739.0,0.0
-0.911665,0.184247,-8.903693,-24.780001,-15.47,7.0,1729475701760.0,0.0
-1.411765,0.01675,-9.645468,1.82,-17.43,29.33,1729475701780.0,0.0
-2.213361,0.270389,-11.081161,-40.529999,-12.39,27.58,1729475701801.0,0.0
-2.809174,-1.433301,-13.375877,-58.52,-13.02,35.490002,1729475701819.0,0.0
-2.677568,-4.905287,-10.703095,-24.360001,-4.13,34.509998,1729475701840.0,0.0
-2.959922,-6.592227,-9.181261,9.03,7.21,21.35,1729475701861.0,0.0
-2.744568,-6.075377,-11.507084,45.990002,3.29,-2.1,1729475701881.0,0.0
-2.79721,-4.666004,-10.387242,59.290001,17.219999,-22.26,1729475701911.0,0.0
-2.943172,-3.641876,-9.54497,32.27,17.43,-35.77,1729475701920.0,0.0
-3.404987,-4.051049,-10.485349,-3.99,18.969999,-47.670002,1729475701979.0,0.0
-1.859223,-1.76351,-8.382057,5.95,11.55,-50.889999,1729475701984.0,0.0
-1.864009,-0.538385,-7.415358,28.49,5.46,-31.710001,1729475701986.0,0.0
-2.787638,1.292124,-7.032506,-3.5,9.66,-24.57,1729475702000.0,0.0
-2.682354,1.904687,-8.398808,-13.440001,-2.94,1.96,1729475702021.0,0.0
-0.87338,0.277567,-9.408579,-16.799999,-30.380001,8.19,1729475702040.0,0.0
-0.043071,0.105284,-10.097712,12.32,-27.299999,21.559999,1729475702061.0,0.0
-0.447458,0.387637,-11.193624,15.4,-17.08,25.129999,1729475702080.0,0.0
-2.091327,-1.062413,-11.454442,-50.889999,-3.64,18.76,1729475702102.0,0.0
-1.892723,-3.223132,-13.507483,-50.68,-5.53,27.860001,1729475702120.0,0.0
-2.203789,-5.24746,-8.752945,23.1,18.620001,31.99,1729475702139.0,0.0
-2.739782,-5.584848,-9.437292,54.110001,18.129999,19.389999,1729475702161.0,0.0
-2.667997,-5.446064,-10.344172,58.73,13.93,-0.7,1729475702180.0,0.0
-2.974278,-4.630112,-9.245867,49.630001,17.43,-18.200001,1729475702202.0,0.0
-3.74716,-3.196811,-8.102098,20.16,20.09,-32.200001,1729475702221.0,0.0
-4.21376,-3.273381,-8.080563,-19.040001,11.34,-40.25,1729475702240.0,0.0
-2.682354,-1.292124,-7.963314,-13.09,-6.93,-33.110001,1729475702260.0,0.0
-2.507678,0.155533,-7.963314,-23.030001,-8.26,-22.469999,1729475702280.0,0.0
-2.835495,1.495514,-8.568698,-37.170002,-11.48,-7.42,1729475702302.0,0.0
-1.89033,0.459422,-9.126225,-15.54,-23.799999,12.25,1729475702320.0,0.0
-0.782453,0.18664,-9.731609,4.83,-31.43,20.02,1729475702341.0,0.0
-0.978664,0.605384,-10.951948,19.32,-20.440001,29.190001,1729475702360.0,0.0
-1.134198,-0.301496,-11.150554,-33.32,-14.42,24.219999,1729475702380.0,0.0
-1.68694,-1.852045,-12.035898,-70.209999,-3.29,25.48,1729475702401.0,0.0
-1.607977,-3.692125,-12.035898,-37.310001,4.2,27.860001,1729475702420.0,0.0
-2.773281,-5.242674,-9.176475,14.14,21.49,28.35,1729475702441.0,0.0
-3.541377,-5.79781,-10.171888,61.32,18.129999,11.76,1729475702462.0,0.0
-3.783052,-4.991428,-10.356135,60.200001,19.530001,-8.96,1729475702480.0,0.0
-3.708875,-3.524628,-8.721838,38.360001,20.65,-26.110001,1729475702501.0,0.0
-3.85723,-3.986443,-9.805787,7.0,15.26,-37.380001,1729475702520.0,0.0
-2.940779,-3.041277,-8.195417,-0.07,8.19,-47.670002,1729475702540.0,0.0
-1.923829,-0.937986,-7.829315,41.369999,-0.42,-30.66,1729475702560.0,0.0
-2.385644,0.672383,-6.922436,25.76,7.35,-22.610001,1729475702579.0,0.0
-2.57707,3.225525,-7.556533,-22.049999,-2.31,-2.1,1729475702603.0,0.0
-1.392623,1.028914,-9.207582,-14.91,-28.49,20.09,1729475702620.0,0.0
-0.370888,-0.248854,-10.346564,-23.870001,-29.68,24.92,1729475702654.0,0.0
-0.354138,-0.681954,-10.272388,-47.529999,-24.360001,23.66,1729475702747.0,0.0
-1.048056,-1.392623,-12.282358,-78.190002,-11.76,16.870001,1729475702747.0,0.0
-1.741975,-3.59402,-12.356536,-45.150002,3.01,20.860001,1729475702748.0,0.0
-2.270789,-5.508278,-8.405986,38.009998,13.86,26.460001,1729475702749.0,0.0
-2.689533,-3.842873,-10.253245,48.23,17.85,15.12,1729475702749.0,0.0
-3.189633,-4.685147,-10.949556,44.59,15.4,7.91,1729475702760.0,0.0
-3.45045,-4.426722,-9.365508,33.110001,18.059999,-13.37,1729475702780.0,0.0
-3.706482,-4.565506,-9.286544,20.16,16.66,-26.67,1729475702799.0,0.0
-3.412165,-2.842674,-6.65444,30.17,13.09,-35.84,1729475702818.0,0.0
-3.031706,-1.105484,-7.02772,21.559999,0.98,-31.08,1729475702839.0,0.0
-2.589034,-0.031107,-8.02792,-7.49,-8.75,-26.110001,1729475702860.0,0.0
-1.761117,3.201597,-8.082954,-32.970001,-16.17,-8.89,1729475702879.0,0.0
-1.514657,0.256032,-10.224532,-22.960001,-23.799999,22.120001,1729475702900.0,0.0
-0.411566,-1.931008,-9.973285,-45.43,-32.549999,17.57,1729475702919.0,0.0
-0.205783,-1.567299,-12.06222,-51.099998,-20.09,15.12,1729475702939.0,0.0
-0.418744,-2.108077,-13.457234,-41.23,-12.6,13.09,1729475702961.0,0.0
-2.065006,-3.471986,-9.145369,-3.29,12.88,19.110001,1729475702980.0,0.0
-3.218346,-3.56052,-8.585447,19.460001,23.450001,25.129999,1729475703000.0,0.0
-3.067599,-3.658626,-11.365908,17.01,12.88,23.309999,1729475703019.0,0.0
-3.086741,-4.666004,-10.49492,34.299999,15.82,19.389999,1729475703046.0,0.0
-3.326023,-4.345366,-9.300901,32.060001,25.48,-0.35,1729475703059.0,0.0
-3.273381,-3.256632,-8.319844,21.77,23.73,-20.09,1729475703079.0,0.0
-3.885944,-4.661219,-7.915457,3.01,18.27,-40.32,1729475703102.0,0.0
-2.907279,-3.407379,-7.625926,20.58,2.03,-45.57,1729475703120.0,0.0
-1.959722,0.990629,-6.431907,37.73,-1.12,-38.43,1729475703140.0,0.0
-1.832902,2.426322,-7.197611,-17.219999,-12.88,-25.83,1729475703160.0,0.0
-1.239482,1.409373,-9.736395,-71.889999,-31.85,-4.48,1729475703179.0,0.0
-0.378066,-1.57687,-12.157932,-71.190002,-38.639999,10.92,1729475703201.0,0.0
0.212961,-1.832902,-11.722438,-52.43,-24.99,11.48,1729475703225.0,0.0
-1.361516,-1.67019,-11.284552,-14.21,-0.21,14.77,1729475703240.0,0.0
-3.148954,-1.399801,-10.51167,16.030001,11.62,24.01,1729475703260.0,0.0
-3.108276,-2.63689,-9.731609,12.18,6.65,24.01,1729475703280.0,0.0
-2.928815,-3.806981,-10.937593,-0.49,6.3,24.780001,1729475703301.0,0.0
-3.002992,-5.012963,-11.217552,31.57,10.64,19.6,1729475703320.0,0.0
-3.314059,-4.225725,-9.930215,67.129997,25.9,5.46,1729475703340.0,0.0
-3.57727,-3.034099,-9.540184,67.900002,28.280001,-10.15,1729475703360.0,0.0
-3.546163,-3.244668,-8.446664,38.290001,21.35,-26.040001,1729475703381.0,0.0
-2.54357,-1.866402,-6.888937,21.77,7.63,-30.799999,1729475703401.0,0.0
-2.277967,-1.229911,-6.750153,6.79,-3.36,-23.24,1729475703421.0,0.0
-2.167897,2.488536,-7.066005,-12.18,-6.86,-13.72,1729475703442.0,0.0
-1.818545,2.323431,-8.729016,-28.49,-21.84,14.84,1729475703466.0,0.0
-0.256032,-1.921437,-11.760723,-67.900002,-46.970001,17.639999,1729475703481.0,0.0
0.212961,-2.404787,-11.593226,-89.739998,-27.09,13.79,1729475703503.0,0.0
-0.954736,-2.337788,-11.708081,-53.130001,-12.39,11.48,1729475703521.0,0.0
-2.249253,-3.751946,-9.547362,0.14,5.81,16.870001,1729475703541.0,0.0
-2.840281,-2.660819,-10.715059,12.74,16.940001,19.530001,1729475703561.0,0.0
-2.986243,-2.785245,-11.152946,2.38,9.73,20.58,1729475703581.0,0.0
-2.830709,-5.029713,-11.691331,12.6,6.51,17.15,1729475703603.0,0.0
-3.09392,-5.101498,-10.054641,40.529999,25.41,3.15,1729475703621.0,0.0
-3.089134,-3.352344,-10.016356,56.560001,27.790001,-12.95,1729475703641.0,0.0
-3.337988,-3.213561,-9.700503,42.91,27.790001,-26.74,1729475703662.0,0.0
-2.943172,-3.316452,-7.846066,18.200001,20.58,-40.18,1729475703681.0,0.0
-2.438286,-1.282553,-6.331409,35.0,9.1,-35.139999,1729475703703.0,0.0
-2.507678,0.679562,-7.659425,17.99,3.22,-24.219999,1729475703720.0,0.0
-1.605584,3.306881,-7.779066,-2.73,-9.1,-0.63,1729475703740.0,0.0
-1.201197,0.112463,-8.427521,-16.52,-28.210001,27.58,1729475703766.0,0.0
-0.497707,-1.72044,-9.801002,-76.300003,-36.540001,16.940001,1729475703781.0,0.0
-0.468993,-2.134398,-10.875379,-79.940002,-36.330002,14.07,1729475703801.0,0.0
-0.739382,-2.15354,-11.550155,-58.240002,-24.780001,9.87,1729475703821.0,0.0
-1.993221,-2.15354,-12.684352,-39.130001,-5.95,14.84,1729475703840.0,0.0
-3.129812,-1.184447,-9.815358,8.75,7.07,28.07,1729475703861.0,0.0
-3.476771,-3.041277,-10.186246,9.38,8.33,33.32,1729475703882.0,0.0
-3.069991,-4.565506,-11.389835,-4.48,9.73,27.860001,1729475703902.0,0.0
-2.567499,-5.718846,-10.394422,31.15,11.83,17.57,1729475703920.0,0.0
-2.675175,-4.173083,-9.858429,53.34,24.5,-5.74,1729475703941.0,0.0
-2.924029,-3.311667,-9.454042,47.599998,24.360001,-23.870001,1729475703961.0,0.0
-3.290131,-3.562913,-8.927622,22.960001,22.75,-37.099998,1729475703982.0,0.0
-2.959922,-3.495914,-7.144968,5.25,15.82,-48.23,1729475704002.0,0.0
-2.108077,-0.614955,-7.058826,23.24,4.76,-40.040001,1729475704020.0,0.0
-1.545763,1.239482,-8.300702,5.53,-4.97,-22.540001,1729475704040.0,0.0
-0.928415,1.899901,-8.965906,-1.61,-19.809999,8.33,1729475704061.0,0.0
-1.598405,-1.033699,-9.186047,4.76,-21.559999,30.940001,1729475704081.0,0.0
-1.878366,-0.875773,-9.4349,-60.900002,-21.629999,17.99,1729475704102.0,0.0
-1.540978,-2.266003,-12.378072,-95.900002,-29.33,10.92,1729475704120.0,0.0
-1.091127,-3.751946,-11.81815,-52.080002,-18.76,9.66,1729475704141.0,0.0
-2.818745,-1.993221,-10.478169,-3.57,13.440001,11.62,1729475704161.0,0.0
-3.517449,-2.624927,-10.439885,15.4,9.03,15.61,1729475704182.0,0.0
-3.048456,-3.979264,-11.789437,1.61,5.88,9.73,1729475704201.0,0.0
-2.699104,-4.448257,-10.971091,15.4,12.39,2.94,1729475704221.0,0.0
-2.644069,-3.512664,-9.317651,43.470001,22.75,-10.85,1729475704241.0,0.0
-2.940779,-3.570091,-9.202796,53.619999,22.960001,-21.629999,1729475704261.0,0.0
-3.61077,-1.758725,-8.015956,44.59,26.389999,-30.52,1729475704281.0,0.0
-3.0006,-2.68714,-9.23151,30.59,12.25,-29.960001,1729475704302.0,0.0
-1.909473,0.138784,-6.98465,24.290001,6.58,-25.27,1729475704321.0,0.0
-1.667797,1.976472,-7.286145,5.88,-0.7,-5.81,1729475704340.0,0.0
-1.744368,0.16989,-7.168896,-17.85,-13.65,12.74,1729475704361.0,0.0
-0.294317,-1.428515,-9.834501,-74.900002,-36.959999,9.38,1729475704380.0,0.0
-0.172283,-2.486143,-11.815758,-80.709999,-30.870001,5.46,1729475704405.0,0.0
-1.265803,-4.007978,-10.695917,-45.080002,-17.780001,7.98,1729475704421.0,0.0
-2.677568,-2.474179,-10.19821,20.23,5.53,18.27,1729475704440.0,0.0
-2.897708,-1.261017,-10.782058,33.529999,10.01,24.99,1729475704464.0,0.0
-2.952743,-1.112662,-9.824929,17.08,4.48,34.02,1729475704481.0,0.0
-2.773281,-3.534199,-11.124231,4.13,0.77,30.52,1729475704501.0,0.0
-2.837888,-4.237689,-11.251052,25.83,9.8,21.91,1729475704520.0,0.0
-3.0006,-3.869194,-10.162319,54.040001,20.16,7.28,1729475704541.0,0.0
-2.79721,-2.979064,-8.839087,60.060001,22.610001,-9.17,1729475704561.0,0.0
-3.290131,-3.160919,-8.484949,45.220001,18.969999,-21.629999,1729475704581.0,0.0
-3.689733,-2.122434,-7.164111,14.98,18.27,-34.650002,1729475704603.0,0.0
-3.192025,-0.784846,-6.776474,1.54,5.32,-28.210001,1729475704621.0,0.0
-1.842474,-0.256032,-7.76471,-12.81,-17.08,-19.25,1729475704641.0,0.0
-1.806581,0.547956,-8.590233,-25.41,-16.379999,-3.01,1729475704661.0,0.0
-1.885544,-0.803988,-10.102496,-62.16,-27.09,1.05,1729475704681.0,0.0
-0.33021,-3.57727,-11.449656,-70.769997,-26.6,-0.07,1729475704702.0,0.0
-0.524028,-3.067599,-10.851451,-19.950001,-9.31,-2.94,1729475704723.0,0.0
-1.799403,-2.524428,-9.999605,6.51,5.95,-2.45,1729475704740.0,0.0
-3.239882,-3.139383,-9.650253,2.45,9.03,1.68,1729475704762.0,0.0
-3.194418,-4.13719,-12.157932,-12.32,1.47,-3.22,1729475704781.0,0.0
-2.67039,-3.701697,-12.30868,19.6,5.11,-4.76,1729475704800.0,0.0
-3.34038,-2.713461,-9.868,71.610001,27.93,-6.93,1729475704820.0,0.0
-4.185047,-1.596013,-10.30828,73.290001,33.740002,-13.02,1729475704841.0,0.0
-3.862016,-1.665405,-7.295716,50.119999,28.91,-23.73,1729475704861.0,0.0
-2.586641,-2.318645,-7.836494,43.119999,12.53,-25.200001,1729475704881.0,0.0
-1.799403,-0.677169,-7.326823,39.48,12.46,-29.120001,1729475704902.0,0.0
-1.615155,0.820738,-6.742974,-16.379999,3.57,-28.35,1729475704920.0,0.0
-0.629312,-0.131605,-7.365108,-42.07,-17.780001,-13.02,1729475704941.0,0.0
0.122034,-1.115055,-8.513663,-44.59,-26.74,2.03,1729475704961.0,0.0
0.234497,-2.18704,-10.04507,-62.860001,-34.790001,3.78,1729475704981.0,0.0
-0.665205,-1.844866,-11.598011,-52.43,-22.82,10.71,1729475705001.0,0.0
-2.115255,-2.656033,-11.583653,-22.049999,-6.16,23.24,1729475705021.0,0.0
-3.735196,-1.536192,-9.812965,11.55,12.95,34.02,1729475705041.0,0.0
-3.503092,-2.849852,-9.966106,-2.03,3.01,31.780001,1729475705061.0,0.0
-2.986243,-5.072784,-11.507084,-12.95,3.64,18.9,1729475705081.0,0.0
-2.648855,-4.993821,-10.116854,1.33,13.37,-0.21,1729475705103.0,0.0
-2.639283,-3.728018,-8.853443,22.82,19.67,-18.200001,1729475705120.0,0.0
-3.534199,-3.546163,-9.085547,30.380001,17.219999,-28.139999,1729475705141.0,0.0
-3.443272,-1.600798,-7.539784,14.63,14.0,-38.5,1729475705161.0,0.0
-2.758924,-0.734596,-7.281359,17.15,-0.14,-27.440001,1729475705180.0,0.0
-1.969293,-0.023928,-7.609176,-13.3,-5.18,-21.700001,1729475705203.0,0.0
-1.462015,1.31366,-7.283752,-15.54,-16.66,2.31,1729475705221.0,0.0
-1.057628,0.078963,-8.949157,-31.15,-25.48,14.07,1729475705241.0,0.0
0.086142,-0.760918,-10.083356,-71.260002,-40.389999,11.9,1729475705261.0,0.0
-0.464208,-1.48355,-11.949757,-85.68,-33.670002,7.63,1729475705280.0,0.0
-1.914258,-3.053242,-10.954341,-33.670002,-13.65,14.56,1729475705300.0,0.0
-2.383251,-1.509871,-11.511869,12.81,4.69,20.93,1729475705320.0,0.0
-2.909672,-0.244068,-10.951948,13.16,11.27,32.34,1729475705341.0,0.0
-2.909672,-2.993421,-11.246266,-4.76,3.43,36.259998,1729475705360.0,0.0
-2.935993,-5.151747,-11.487941,38.360001,7.21,24.99,1729475705381.0,0.0
-3.354738,-3.974478,-10.200603,60.060001,28.84,4.83,1729475705403.0,0.0
-3.225525,-2.758924,-8.664411,36.75,30.17,-15.54,1729475705420.0,0.0
-3.282953,-4.323831,-8.295916,-13.16,21.42,-33.040001,1729475705441.0,0.0
-2.744568,-5.809773,-7.925028,3.85,8.54,-43.610001,1729475705463.0,0.0
-2.086541,-1.584049,-7.635497,75.040001,11.2,-37.869999,1729475705480.0,0.0
-2.050649,2.648855,-6.522834,68.110001,2.87,-27.790001,1729475705501.0,0.0
-1.828116,3.474378,-7.554141,-4.76,-20.790001,-7.56,1729475705520.0,0.0
-1.103091,0.165105,-10.392029,-67.690002,-41.09,7.77,1729475705540.0,0.0
-0.435494,-1.744368,-11.988041,-94.080002,-42.279999,9.8,1729475705561.0,0.0
-1.014557,-2.385644,-12.110075,-61.810001,-22.82,11.13,1729475705581.0,0.0
-2.103291,-2.644069,-10.884951,-0.42,-22.82,16.870001,1729475705602.0,0.0
-2.682354,-1.658226,-11.093125,18.690001,11.34,19.25,1729475705620.0,0.0
-2.754139,-1.816152,-10.504492,6.16,6.16,21.77,1729475705639.0,0.0
-2.897708,-3.957729,-12.014362,-10.64,8.33,17.43,1729475705661.0,0.0
-2.849852,-5.424529,-10.523634,15.4,15.89,8.68,1729475705681.0,0.0
-2.85703,-4.867002,-9.238688,52.639999,23.940001,-9.03,1729475705701.0,0.0
-3.259024,-3.139383,-8.865408,71.82,25.76,-30.73,1729475705719.0,0.0
-3.924229,-2.617748,-8.348558,40.25,22.82,-40.740002,1729475705740.0,0.0
-3.026921,-0.928415,-6.331409,19.809999,8.75,-43.330002,1729475705760.0,0.0
-1.710868,0.655633,-6.912865,3.64,-8.96,-30.870001,1729475705781.0,0.0
-1.019342,0.792024,-7.944171,-12.39,-18.48,-11.69,1729475705800.0,0.0
-1.009771,0.404387,-8.46102,-46.689999,-26.110001,-0.21,1729475705821.0,0.0
-1.184447,-0.942772,-9.829715,-70.139999,-33.25,6.02,1729475705840.0,0.0
-1.351945,-1.184447,-10.959127,-64.470001,-30.73,9.73,1729475705861.0,0.0
-2.268396,-1.945365,-11.655439,-47.599998,-21.42,15.33,1729475705881.0,0.0
-2.478964,-2.117648,-11.186446,-7.91,-7.77,23.450001,1729475705901.0,0.0
-2.734996,-1.706082,-10.829915,15.75,8.82,30.66,1729475705919.0,0.0
-3.079563,-2.24686,-10.389636,10.08,11.83,30.940001,1729475705941.0,0.0
-2.706282,-4.027121,-11.913863,2.1,5.11,22.049999,1729475705960.0,0.0
-2.565106,-5.005785,-10.518847,23.450001,17.08,7.56,1729475705980.0,0.0
-2.861816,-3.749553,-8.975478,40.040001,28.630001,-11.34,1729475706004.0,0.0
-3.524628,-2.998207,-8.178668,44.939999,26.18,-23.1,1729475706019.0,0.0
-3.259024,-1.335195,-6.884151,28.42,20.440001,-31.219999,1729475706041.0,0.0
-2.538785,-0.440279,-6.9009,24.639999,-4.62,-21.42,1729475706061.0,0.0
-2.184647,0.114855,-6.888937,-7.98,-8.96,-17.08,1729475706081.0,0.0
-1.68694,2.400001,-8.293523,-26.530001,-21.91,3.22,1729475706102.0,0.0
-1.234696,0.42353,-9.628718,-40.810001,-35.84,20.65,1729475706120.0,0.0
-0.684347,-1.445265,-11.064411,-85.610001,-40.670002,17.85,1729475706140.0,0.0
-0.765703,-2.744568,-11.810973,-101.709999,-33.25,9.52,1729475706162.0,0.0
-1.945365,-3.56052,-12.617353,-43.68,-6.3,11.27,1729475706181.0,0.0
-2.790031,-1.459622,-12.461821,18.690001,13.09,17.219999,1729475706200.0,0.0
-3.168097,-0.591027,-10.083356,30.66,16.799999,24.08,1729475706220.0,0.0
-3.053242,-2.751746,-10.451849,5.39,12.18,25.48,1729475706241.0,0.0
-2.720639,-4.41715,-10.9017,6.02,11.83,17.780001,1729475706261.0,0.0
-3.098706,-4.412365,-10.124033,34.650002,21.77,4.34,1729475706281.0,0.0
-3.069991,-3.63709,-9.253045,60.549999,24.43,-13.23,1729475706301.0,0.0
-3.249453,-2.782853,-9.628718,56.84,25.34,-27.16,1729475706321.0,0.0
-3.732803,-3.0006,-9.552148,24.639999,24.99,-39.060001,1729475706340.0,0.0
-2.758924,-1.165305,-6.972685,24.290001,10.36,-39.689999,1729475706360.0,0.0
-2.038685,1.021735,-7.025328,40.880001,-2.52,-19.18,1729475706380.0,0.0
-2.100898,2.256432,-7.834101,-10.71,-15.33,6.16,1729475706401.0,0.0
-1.74676,0.105284,-9.131011,-42.84,-29.469999,21.280001,1729475706420.0,0.0
-0.729811,-1.789831,-11.112268,-92.470001,-41.860001,11.34,1729475706440.0,0.0
-0.18664,-2.699104,-12.098111,-91.0,-34.02,1.4,1729475706463.0,0.0
-1.773082,-2.428715,-11.397014,-36.75,-2.73,0.21,1729475706479.0,0.0
-3.598805,-1.627119,-9.686146,17.99,12.18,7.77,1729475706501.0,0.0
-3.471986,-1.124627,-10.671989,20.860001,6.58,12.95,1729475706520.0,0.0
-3.04367,-2.287539,-11.131411,-1.68,7.14,20.860001,1729475706540.0,0.0
-2.754139,-4.149154,-11.004591,-5.25,5.53,18.83,1729475706561.0,0.0
-2.574677,-4.898108,-10.877771,42.420002,11.9,10.5,1729475706580.0,0.0
-2.481357,-3.658626,-9.863215,84.139999,22.75,-6.3,1729475706600.0,0.0
-2.880959,-2.270789,-9.176475,86.029999,27.58,-21.280001,1729475706620.0,0.0
-3.74716,-2.182254,-8.889337,56.07,27.93,-30.52,1729475706639.0,0.0
-3.622734,0.789631,-6.441479,3.71,20.23,-35.420002,1729475706661.0,0.0
-2.402394,-1.663012,-7.008578,1.96,-17.01,-19.950001,1729475706680.0,0.0
-0.993021,1.040878,-6.879365,12.11,-9.1,-6.23,1729475706701.0,0.0
-1.586441,0.411566,-9.262616,-7.91,-20.719999,26.040001,1729475706719.0,0.0
-2.11047,-1.519442,-8.664411,-51.73,-22.049999,24.780001,1729475706740.0,0.0
-1.581656,-2.691926,-10.762917,-82.110001,-31.08,16.52,1729475706760.0,0.0
-1.507478,-2.938386,-9.391829,-76.300003,-28.07,9.73,1729475706780.0,0.0
-2.634498,-2.079363,-10.564312,-39.200001,-13.09,14.56,1729475706800.0,0.0
-3.20399,-1.383051,-11.645866,-8.47,-1.68,23.66,1729475706821.0,0.0
-3.206382,-0.993021,-12.033505,1.26,0.49,33.110001,1729475706839.0,0.0
-2.900101,-2.864209,-11.277373,-0.42,3.57,33.040001,1729475706860.0,0.0
-2.809174,-4.627719,-10.537991,2.8,12.18,15.61,1729475706881.0,0.0
-2.773281,-4.816752,-10.408779,17.99,19.389999,-6.37,1729475706900.0,0.0
-2.845066,-3.940979,-9.95175,22.469999,23.52,-28.77,1729475706919.0,0.0
-3.256632,-3.125026,-8.190632,18.690001,24.5,-41.860001,1729475706991.0,0.0
-4.271189,-3.818945,-8.609376,12.6,22.540001,-46.619999,1729475706992.0,0.0
-3.536592,-2.392823,-6.953543,17.57,11.06,-52.920002,1729475706992.0,0.0
-2.069792,0.430708,-6.817152,70.209999,-2.38,-25.9,1729475707001.0,0.0
-1.153341,3.321238,-7.345965,31.08,-12.11,-7.49,1729475707019.0,0.0
-1.603191,1.74676,-10.41835,-27.719999,-25.41,21.77,1729475707039.0,0.0
-1.698904,-2.033899,-10.959127,-64.050003,-25.41,22.82,1729475707060.0,0.0
-1.06002,-2.651247,-11.550155,-48.580002,-21.42,11.83,1729475707079.0,0.0
-1.648655,-1.387837,-10.614561,-11.34,-1.47,4.13,1729475707101.0,0.0
-2.926422,-1.552942,-9.796216,4.69,10.71,4.76,1729475707120.0,0.0
-2.959922,-1.70369,-10.499706,-15.89,8.05,4.34,1729475707139.0,0.0
-2.679961,-3.050849,-10.956735,-21.91,8.61,7.07,1729475707160.0,0.0
-3.029313,-4.07737,-11.124231,2.1,14.28,6.93,1729475707180.0,0.0
-3.414558,-3.818945,-10.348958,33.040001,23.17,-1.61,1729475707211.0,0.0
-3.349952,-3.548556,-9.667004,49.420002,23.73,-11.62,1729475707222.0,0.0
-3.081956,-2.916851,-8.25763,43.189999,21.700001,-24.219999,1729475707239.0,0.0
-3.885944,-3.326023,-9.375079,31.360001,19.74,-29.610001,1729475707260.0,0.0
-3.728018,-1.940579,-8.01117,3.71,17.08,-41.439999,1729475707279.0,0.0
-2.48375,-0.409173,-6.690332,28.42,-2.03,-28.91,1729475707301.0,0.0
-1.06002,1.555335,-7.432107,22.120001,-10.15,-16.59,1729475707319.0,0.0
-1.019342,1.70369,-8.109276,1.68,-19.389999,8.61,1729475707339.0,0.0
-1.708475,-0.519243,-10.07139,-39.689999,-19.389999,18.76,1729475707360.0,0.0
-0.89013,-2.184647,-10.624132,-62.16,-21.98,14.21,1729475707379.0,0.0
-0.971486,-2.400001,-10.748559,-40.110001,-19.530001,7.84,1729475707400.0,0.0
-2.143969,-1.629512,-10.435099,-12.53,0.14,10.43,1729475707419.0,0.0
-3.309274,-1.581656,-11.196017,-12.53,7.7,16.59,1729475707439.0,0.0
-3.48395,-1.014557,-10.58824,-3.01,5.81,23.17,1729475707462.0,0.0
-3.306881,-3.273381,-10.583455,-0.28,0.56,27.51,1729475707479.0,0.0
-3.15374,-4.307081,-10.841879,2.17,5.81,18.200001,1729475707500.0,0.0
-3.23031,-4.527221,-9.822537,26.530001,13.09,5.18,1729475707519.0,0.0
-3.175276,-3.902694,-8.822337,46.689999,14.63,-12.88,1729475707541.0,0.0
-3.055635,-3.519842,-8.410772,48.439999,10.29,-28.210001,1729475707561.0,0.0
-3.046063,-2.622534,-8.54477,33.810001,5.95,-41.860001,1729475707579.0,0.0
-3.376273,-4.098906,-10.102496,42.560001,1.75,-42.07,1729475707600.0,0.0
-3.23031,-2.89053,-9.753145,54.389999,11.41,-44.869999,1729475707619.0,0.0
-3.201597,-4.376472,-8.355737,81.760002,-5.95,-37.869999,1729475707640.0,0.0
-2.366502,-5.9677,-11.521441,141.960007,-10.99,-36.959999,1729475707660.0,0.0
-0.856631,-6.850651,-13.634303,260.610016,-23.24,-32.970001,1729475707681.0,0.0
0.004786,-7.030113,-15.421742,405.860016,-8.47,-24.01,1729475707700.0,0.0
0.971486,-5.307281,-15.680167,572.320007,36.049999,-6.09,1729475707719.0,0.0
-0.397209,-3.550949,-10.600205,716.169983,122.43,17.43,1729475707740.0,0.0
-2.215754,-2.574677,-2.507678,648.830017,124.739998,26.74,1729475707761.0,0.0
-3.04367,-4.036692,2.395216,528.01001,95.129997,-0.98,1729475707780.0,0.0
-2.56032,-8.374879,2.376073,395.149994,66.43,-20.299999,1729475707799.0,0.0
-1.174876,-9.480364,1.667797,236.180008,44.939999,-48.509998,1729475707820.0,0.0
-1.619941,-9.193225,2.423929,115.57,16.73,-47.670002,1729475707839.0,0.0
-2.361716,-8.13799,5.166104,53.549999,7.91,-32.900002,1729475707860.0,0.0
-1.067199,-8.910872,4.462614,-33.529999,-15.12,-44.170002,1729475707879.0,0.0
-0.681954,-10.798808,1.464408,-69.860001,-27.719999,-41.860001,1729475707900.0,0.0
-1.409373,-10.794022,-2.165504,-67.480003,-11.69,-51.73,1729475707918.0,0.0
-1.74676,-10.832308,-0.885344,-32.759998,-3.71,-56.700001,1729475707941.0,0.0
-1.45005,-9.966106,1.392623,56.560001,19.809999,-20.93,1729475707961.0,0.0
-0.059821,-6.041877,3.139383,98.349998,30.24,-22.4,1729475707979.0,0.0
1.057628,-3.017349,4.173083,63.77,20.58,-11.48,1729475708000.0,0.0
1.301696,-2.868994,5.4676,3.01,2.17,10.85,1729475708020.0,0.0
0.198604,-4.689932,3.694518,-73.150002,-6.58,29.540001,1729475708040.0,0.0
-0.301496,-10.473385,1.476372,-128.660004,-38.779999,40.459999,1729475708060.0,0.0
0.586242,-9.686146,-0.600598,-86.099998,-39.689999,50.330002,1729475708080.0,0.0
0.129212,-8.267202,-0.600598,-2.38,-24.01,69.090004,1729475708101.0,0.0
-2.072184,-9.80818,-0.612563,31.5,-8.54,79.870003,1729475708118.0,0.0
-6.075377,-15.359529,-2.383251,0.21,-7.84,66.57,1729475708138.0,0.0
-9.018548,-16.843079,-4.108476,-37.869999,-9.87,19.110001,1729475708161.0,0.0
-6.9679,-14.22533,-2.361716,14.91,14.42,9.1,1729475708179.0,0.0
-4.744967,-12.03829,0.378066,54.040001,21.42,-33.670002,1729475708201.0,0.0
-3.156133,-9.879964,1.990828,30.24,17.99,-51.939999,1729475708220.0,0.0
-1.160519,-10.834702,2.864209,24.92,10.71,-59.639999,1729475708241.0,0.0
-0.995414,-9.750752,2.610569,-38.360001,0.49,-72.449997,1729475708259.0,0.0
-0.157926,-7.429714,1.744368,-38.150002,-1.75,-69.93,1729475708279.0,0.0
1.301696,-5.47717,3.562913,6.44,-16.940001,-58.59,1729475708301.0,0.0
2.569891,-2.541178,4.108476,45.290001,-19.460001,-20.16,1729475708319.0,0.0
2.502892,-2.175076,4.957928,35.630001,-24.92,15.89,1729475708340.0,0.0
0.811167,-3.196811,2.974278,-45.639999,-41.23,46.34,1729475708359.0,0.0
-1.698904,-8.587841,-1.691726,-98.769997,-50.68,71.260002,1729475708379.0,0.0
-1.78026,-10.403993,-4.242475,-83.160004,-42.91,83.370003,1729475708410.0,0.0
-2.35693,-11.966506,-3.512664,11.62,-13.72,96.949997,1729475708420.0,0.0
-6.065805,-19.434505,0.945165,44.240002,3.22,74.830002,1729475708439.0,0.0
-7.307681,-18.022739,-2.40718,-1.61,7.98,26.74,1729475708461.0,0.0
-5.099105,-16.285551,-2.744568,15.05,21.0,-10.43,1729475708479.0,0.0
-3.321238,-15.172889,-0.272782,43.540001,33.25,-44.869999,1729475708501.0,0.0
-2.864209,-12.562319,-0.89013,25.549999,44.59,-80.849998,1729475708519.0,0.0
-1.651048,-8.25763,-0.988236,18.9,46.549999,-88.199997,1729475708538.0,0.0
-0.153141,-9.037691,3.0006,62.580002,48.790001,-81.129997,1729475708560.0,0.0
0.870987,-4.323831,6.041877,45.009998,32.619999,-79.519997,1729475708579.0,0.0
2.033899,-0.375673,6.644868,63.279999,15.61,-46.619999,1729475708600.0,0.0
2.732604,-0.832702,7.439285,44.450001,-20.440001,-1.4,1729475708619.0,0.0
1.402194,-1.732404,4.319045,-38.5,-47.110001,36.189999,1729475708638.0,0.0
-0.614955,-5.103891,1.502693,-74.620003,-56.77,73.360001,1729475708659.0,0.0
-1.493121,-7.970492,-2.009971,-79.239998,-55.860001,87.989998,1729475708679.0,0.0
-2.634498,-11.705689,-2.342573,-35.490002,-43.119999,100.309998,1729475708701.0,0.0
-7.908278,-17.391035,-3.433701,0.07,-28.35,91.840004,1729475708717.0,0.0
-8.470592,-19.111473,-3.201597,27.719999,10.99,40.529999,1729475708739.0,0.0
-5.058427,-13.875979,-3.29731,17.99,36.119999,-20.719999,1729475708759.0,0.0
-3.266203,-13.074384,0.725025,64.610001,50.540001,-38.43,1729475708778.0,0.0
-2.663212,-11.387443,1.395016,20.09,54.110001,-69.790001,1729475708799.0,0.0
-2.261217,-9.858429,0.930808,-28.35,48.93,-73.290001,1729475708818.0,0.0
-1.385444,-8.114061,1.416551,-25.34,40.950001,-75.040001,1729475708840.0,0.0
-0.325424,-7.013363,3.524628,7.07,33.040001,-71.470001,1729475708859.0,0.0
0.765703,-3.651447,5.716454,39.549999,15.190001,-58.66,1729475708878.0,0.0
1.665405,-2.679961,7.121039,61.740002,-9.17,-22.540001,1729475708901.0,0.0
1.134198,-1.938186,4.98425,-7.0,-40.110001,8.12,1729475708919.0,0.0
0.031107,-3.347559,1.543371,-52.57,-53.970001,50.119999,1729475708938.0,0.0
-1.318445,-7.063612,-1.105484,-69.720001,-54.529999,74.620003,1729475708958.0,0.0
-1.844866,-10.238889,-1.820938,-50.259998,-45.5,82.739998,1729475708978.0,0.0
-4.072584,-17.458033,0.507278,12.74,-19.67,95.129997,1729475709000.0,0.0
-6.479764,-17.111074,-3.61077,-25.200001,-17.15,51.380001,1729475709019.0,0.0
-6.192625,-17.03211,-3.909872,25.969999,13.86,28.630001,1729475709040.0,0.0
-3.622734,-13.897513,-0.39003,33.670002,33.670002,-30.59,1729475709058.0,0.0
-3.287738,-12.385249,0.358923,38.220001,46.549999,-66.010002,1729475709080.0,0.0
-3.148954,-11.140982,0.342174,-4.97,47.950001,-79.730003,1729475709099.0,0.0
-1.634298,-8.348558,0.756132,-17.08,40.18,-86.099998,1729475709118.0,0.0
-0.557528,-6.613762,4.103691,9.1,35.700001,-83.580002,1729475709139.0,0.0
0.815953,-2.737389,6.625726,46.48,15.82,-67.129997,1729475709161.0,0.0
2.048256,-0.435494,7.82453,67.199997,-7.0,-26.809999,1729475709178.0,0.0
1.148555,-1.134198,6.362515,-7.98,-41.23,14.35,1729475709199.0,0.0
-0.179462,-3.806981,2.455036,-80.150002,-62.580002,48.02,1729475709218.0,0.0
-1.107877,-7.255038,-0.933201,-97.580002,-69.300003,73.779999,1729475709239.0,0.0
-1.225125,-10.607382,-1.65344,-60.549999,-61.25,86.870003,1729475709259.0,0.0
-3.713661,-17.862421,-0.057428,-1.4,-37.240002,96.18,1729475709280.0,0.0
-7.135397,-18.932013,-4.536791,-29.469999,-27.299999,56.349998,1729475709299.0,0.0
-7.314859,-18.407984,-4.249653,17.360001,9.45,20.16,1729475709319.0,0.0
-4.285545,-13.619946,-3.54377,17.639999,34.23,-37.029999,1729475709340.0,0.0
-2.921637,-13.043276,-0.31346,56.630001,50.189999,-59.990002,1729475709360.0,0.0
-1.868794,-10.15514,-0.055035,12.88,50.610001,-82.669998,1729475709378.0,0.0
-0.969093,-7.300502,1.268196,-17.360001,44.59,-87.5,1729475709399.0,0.0
-0.473779,-7.188039,3.713661,9.8,42.630001,-72.660004,1729475709419.0,0.0
0.311067,-3.955336,6.135197,19.18,22.4,-67.550003,1729475709440.0,0.0
1.579263,-1.521835,6.084948,30.66,-8.33,-33.18,1729475709462.0,0.0
1.751546,-3.304488,5.742774,6.65,-36.75,9.73,1729475709478.0,0.0
1.031307,-3.572484,2.959922,-35.91,-53.200001,42.0,1729475709500.0,0.0
0.449851,-5.120641,0.935594,-25.690001,-52.5,83.650002,1729475709518.0,0.0
