acc_x,acc_y,acc_z,gyr_x,gyr_y,gyr_z,timestamp,label
-1.385444,-8.006385,-4.87418,29.120001,-2.45,7.84,1729477480099.0,0.0
-1.261017,-8.650054,-4.766503,23.940001,-0.42,7.98,1729477480103.0,0.0
-1.806581,-8.882158,-4.936393,24.5,10.29,4.83,1729477480104.0,0.0
-1.919044,-8.62134,-4.639683,35.07,13.09,2.52,1729477480115.0,0.0
-1.505085,-8.197811,-4.326223,36.049999,9.03,2.8,1729477480134.0,0.0
-1.404587,-8.432307,-4.254438,17.219999,9.24,2.03,1729477480154.0,0.0
-1.854438,-9.083155,-4.122833,-8.4,12.6,-1.54,1729477480175.0,0.0
-2.115255,-9.24826,-4.256832,-21.210001,10.64,-6.3,1729477480194.0,0.0
-1.775474,-9.346365,-4.307081,-22.469999,4.06,-9.52,1729477480214.0,0.0
-1.79701,-9.226725,-4.15394,-28.98,6.16,-16.17,1729477480235.0,0.0
-1.765903,-8.85823,-4.237689,-37.240002,8.54,-20.65,1729477480255.0,0.0
-0.961915,-8.635696,-4.321437,-34.93,-0.56,-19.040001,1729477480274.0,0.0
-1.29691,-8.88455,-4.063013,-31.219999,0.91,-16.1,1729477480294.0,0.0
-2.041078,-8.707481,-4.051049,-11.76,11.2,-10.92,1729477480315.0,0.0
-1.567299,-8.69791,-3.728018,-2.52,0.28,-10.15,1729477480335.0,0.0
-1.129412,-8.798409,-4.055835,-4.83,-4.55,-9.45,1729477480355.0,0.0
-1.395016,-8.910872,-4.173083,-10.85,0.14,-9.59,1729477480378.0,0.0
-1.150948,-8.939585,-4.520042,-20.93,-3.36,-9.52,1729477480393.0,0.0
-0.665205,-9.178867,-4.965107,-21.139999,-4.97,-8.89,1729477480421.0,0.0
-0.782453,-9.006584,-5.223531,-9.87,0.56,-7.77,1729477480434.0,0.0
-0.981057,-8.767302,-4.936393,-3.01,4.13,-6.44,1729477480455.0,0.0
-1.131805,-8.85105,-4.744967,-4.48,5.46,-5.6,1729477480475.0,0.0
-1.26341,-8.985049,-4.821537,-9.1,5.6,-7.14,1729477480494.0,0.0
-1.234696,-8.597411,-4.761717,-13.72,3.01,-8.33,1729477480514.0,0.0
-0.935594,-8.709875,-4.785645,-17.57,0.35,-7.63,1729477480535.0,0.0
-0.717847,-9.073583,-4.902894,-18.48,-0.77,-6.93,1729477480557.0,0.0
-0.758525,-8.769694,-4.867002,-14.63,0.42,-7.56,1729477480575.0,0.0
-0.629312,-8.659625,-5.12782,-8.75,-3.22,-8.05,1729477480595.0,0.0
-0.533599,-8.599805,-5.28096,-1.96,-4.9,-6.09,1729477480615.0,0.0
-0.693919,-8.578269,-5.101498,2.17,-1.4,-5.53,1729477480636.0,0.0
-0.540778,-8.571091,-5.151747,2.66,-3.36,-5.32,1729477480656.0,0.0
-0.351745,-8.269595,-5.237889,2.45,-3.08,-4.69,1729477480676.0,0.0
-0.564706,-8.166703,-5.355137,1.26,0.56,-3.15,1729477480695.0,0.0
-0.567099,-8.456236,-5.158926,-1.05,1.26,-0.42,1729477480715.0,0.0
-0.772882,-8.719445,-5.020142,-1.12,2.73,-0.35,1729477480735.0,0.0
-0.894916,-8.798409,-4.989035,-5.11,3.5,-3.43,1729477480756.0,0.0
-0.937986,-8.819944,-4.953143,-5.53,4.76,-6.86,1729477480777.0,0.0
-0.856631,-8.700303,-5.017749,-5.32,3.64,-10.29,1729477480798.0,0.0
-0.756132,-8.635696,-4.780859,-14.07,1.19,-12.46,1729477480818.0,0.0
-0.89013,-8.836694,-4.814359,-27.16,0.84,-15.33,1729477480838.0,0.0
-1.064806,-9.131011,-5.288138,-31.639999,-0.7,-19.67,1729477480857.0,0.0
-0.930808,-8.889337,-5.630312,-18.41,-3.5,-21.700001,1729477480877.0,0.0
-0.629312,-8.377272,-5.340781,-6.79,0.7,-19.67,1729477480896.0,0.0
-0.725025,-8.315059,-5.304887,-9.38,3.01,-17.85,1729477480918.0,0.0
-0.815953,-8.12124,-5.371887,-15.12,4.97,-15.190001,1729477480938.0,0.0
-0.583849,-8.322237,-5.350351,-17.57,0.91,-11.13,1729477480957.0,0.0
-0.48335,-8.506484,-5.4676,-12.18,-1.33,-8.47,1729477480978.0,0.0
-0.81356,-8.451449,-5.735595,-6.09,-0.91,-7.07,1729477480997.0,0.0
-1.052842,-8.865408,-5.431707,-0.7,2.1,-5.46,1729477481019.0,0.0
-0.794417,-9.360723,-5.048856,5.95,-1.68,-7.42,1729477481037.0,0.0
-0.988236,-8.79123,-4.496114,15.4,-2.94,-11.48,1729477481057.0,0.0
-1.552942,-8.035098,-4.472186,25.129999,-3.08,-12.32,1729477481077.0,0.0
-1.660619,-7.831708,-4.577469,17.5,-11.76,-14.56,1729477481098.0,0.0
-1.679761,-7.77428,-4.558327,1.47,-16.1,-17.710001,1729477481117.0,0.0
-1.871187,-7.587641,-4.656433,-5.6,-18.34,-20.51,1729477481140.0,0.0
-1.756332,-7.322037,-4.84068,-8.47,-25.34,-22.610001,1729477481158.0,0.0
-1.497907,-7.104291,-4.945964,-10.08,-30.73,-21.210001,1729477481178.0,0.0
-1.65344,-7.295716,-5.156533,-14.91,-31.85,-19.530001,1729477481198.0,0.0
-1.899901,-7.496714,-5.651847,-23.17,-31.92,-19.32,1729477481217.0,0.0
-1.892723,-7.436893,-6.221339,-31.219999,-37.450001,-20.299999,1729477481236.0,0.0
-2.036292,-7.23111,-6.326623,-41.09,-34.720001,-21.42,1729477481257.0,0.0
-1.741975,-7.054041,-6.443871,-53.549999,-34.23,-21.210001,1729477481277.0,0.0
-0.947558,-6.908078,-6.886543,-63.279999,-42.630001,-20.299999,1729477481297.0,0.0
-0.502493,-6.666404,-7.202396,-68.949997,-42.630001,-17.92,1729477481316.0,0.0
-0.507278,-6.305088,-7.336394,-76.370003,-37.450001,-16.309999,1729477481338.0,0.0
-0.002393,-6.01077,-7.977671,-75.739998,-36.68,-13.23,1729477481359.0,0.0
0.478565,-6.300302,-8.283953,-54.810001,-39.830002,-4.83,1729477481379.0,0.0
0.524028,-6.491727,-8.516055,-38.5,-32.830002,-1.05,1729477481397.0,0.0
0.258425,-6.664011,-7.085148,-29.469999,-24.08,1.33,1729477481416.0,0.0
0.165105,-7.207181,-5.577669,-28.84,-26.389999,3.99,1729477481438.0,0.0
0.504886,-8.350951,-6.343372,-34.02,-48.860001,-3.01,1729477481458.0,0.0
0.61017,-8.26481,-6.180661,-36.330002,-55.580002,-11.9,1729477481477.0,0.0
-0.064606,-9.006584,-5.735595,-37.170002,-64.400002,-21.280001,1729477481497.0,0.0
0.011964,-5.757132,-4.383651,-59.990002,-73.150002,-31.01,1729477481516.0,0.0
-0.600598,-5.484349,-3.948158,-84.769997,-97.860001,-24.639999,1729477481538.0,0.0
-3.536592,-6.30748,-5.460421,-125.510002,-106.540001,-26.6,1729477481559.0,0.0
-3.235096,-4.725825,-9.250652,-161.699997,-139.509995,-39.200001,1729477481577.0,0.0
-2.892922,-3.605984,-11.523834,-184.380005,-128.660004,-27.719999,1729477481596.0,0.0
-3.620341,-5.338387,-15.263817,-131.949997,-98.279999,-2.73,1729477481618.0,0.0
-3.689733,-8.350951,-14.735002,-24.08,-51.869999,27.790001,1729477481636.0,0.0
-1.931008,-5.649454,-13.220345,58.52,-13.65,45.360001,1729477481660.0,0.0
-0.995414,-4.479364,-10.303494,115.779999,0.63,61.950001,1729477481679.0,0.0
-1.11027,-6.685547,-9.059227,106.540001,24.219999,55.860001,1729477481695.0,0.0
-1.182054,-7.312466,-7.099504,72.239998,25.9,30.59,1729477481716.0,0.0
-0.856631,-7.71446,-6.898508,44.73,6.23,-0.35,1729477481738.0,0.0
-0.521635,-8.745767,-6.793223,19.25,-17.99,-36.259998,1729477481756.0,0.0
-0.143569,-7.171289,-7.166504,-2.45,-34.09,-70.629997,1729477481778.0,0.0
-0.827917,-4.771288,-7.310073,-24.360001,-42.420002,-88.410004,1729477481796.0,0.0
-1.861616,-3.242275,-6.013163,-71.959999,-42.07,-95.129997,1729477481816.0,0.0
-2.569891,-2.017149,-6.355337,-105.349998,-46.759998,-90.019997,1729477481839.0,0.0
-1.95015,-1.854438,-7.051648,-122.919998,-64.540001,-76.300003,1729477481859.0,0.0
-2.115255,-2.165504,-9.937392,-127.75,-65.029999,-53.900002,1729477481876.0,0.0
-4.285545,-3.866802,-11.624333,-103.040001,-24.710001,-15.05,1729477481897.0,0.0
-4.807181,-4.716253,-12.753745,-23.450001,-2.38,21.77,1729477481917.0,0.0
-4.666004,-4.12044,-11.854043,37.73,23.309999,53.060001,1729477481936.0,0.0
-3.708875,-3.833302,-10.676775,26.74,39.970001,68.25,1729477481957.0,0.0
-2.555535,-6.18784,-8.745767,40.32,50.049999,72.309998,1729477481977.0,0.0
-1.569692,-7.441679,-8.551948,65.870003,46.549999,56.490002,1729477481996.0,0.0
-0.947558,-7.869993,-7.075576,69.160004,38.639999,22.889999,1729477482018.0,0.0
-0.473779,-6.597012,-4.871787,31.5,26.809999,-19.809999,1729477482037.0,0.0
-0.210568,-5.551349,-4.508078,-23.309999,-1.75,-58.310001,1729477482059.0,0.0
-1.722832,-3.117848,-4.907679,-62.299999,-21.280001,-81.410004,1729477482076.0,0.0
-4.295116,0.674776,-5.99402,-100.239998,-26.809999,-83.650002,1729477482097.0,0.0
-2.57707,0.435494,-8.444271,-159.320007,-66.150002,-65.169998,1729477482117.0,0.0
-2.014757,-1.804188,-9.894321,-191.729996,-61.389999,-38.220001,1729477482135.0,0.0
-4.869394,-2.684747,-12.074183,-90.300003,-29.540001,5.6,1729477482159.0,0.0
-8.626125,-2.924029,-13.677374,12.46,-8.05,56.630001,1729477482176.0,0.0
-6.982256,-3.909872,-10.214959,4.69,15.82,87.360001,1729477482196.0,0.0
-2.749353,-4.898108,-9.695717,25.27,13.65,94.290001,1729477482217.0,0.0
-1.639083,-6.927221,-9.564112,101.080002,30.309999,77.419998,1729477482237.0,0.0
-0.344566,-8.810372,-8.599805,116.690002,27.58,44.380001,1729477482257.0,0.0
-0.117248,-6.271588,-4.713861,101.150002,17.43,-3.15,1729477482277.0,0.0
-1.182054,-5.242674,-3.510271,48.439999,-3.43,-52.220001,1729477482296.0,0.0
-1.622334,-1.064806,-7.252645,-46.549999,-38.779999,-82.389999,1729477482316.0,0.0
-3.345166,1.722832,-9.568897,-109.129997,-43.400002,-87.080002,1729477482339.0,0.0
-3.232704,2.766103,-9.700503,-154.419998,-38.709999,-54.880001,1729477482356.0,0.0
-2.59382,-2.124826,-11.937792,-138.949997,-36.82,-5.81,1729477482378.0,0.0
-5.321638,-1.270589,-11.992826,-21.84,-10.36,41.720001,1729477482397.0,0.0
-9.820145,-1.89033,-10.980663,36.959999,20.02,83.650002,1729477482417.0,0.0
-6.087341,-5.838487,-11.196017,15.82,28.139999,94.290001,1729477482435.0,0.0
-1.816152,-7.580462,-9.355937,66.220001,19.389999,91.209999,1729477482464.0,0.0
-0.911665,-5.687739,-9.946963,127.82,27.93,71.050003,1729477482477.0,0.0
-0.818345,-7.84128,-7.944171,124.389999,36.540001,35.279999,1729477482495.0,0.0
-1.014557,-5.876772,-5.381458,85.190002,29.75,-8.82,1729477482517.0,0.0
-1.485943,-2.478964,-3.864408,44.450001,-3.08,-56.139999,1729477482536.0,0.0
-4.460221,2.227718,-7.9681,-54.25,-37.029999,-84.769997,1729477482559.0,0.0
-5.28096,1.607977,-10.487741,-145.25,-39.130001,-74.900002,1729477482577.0,0.0
-1.584049,-2.39043,-11.140982,-172.059998,-51.240002,-41.439999,1729477482597.0,0.0
-3.850052,-0.614955,-10.059426,-62.650002,-24.99,12.18,1729477482615.0,0.0
-10.798808,-0.713061,-11.4353,20.93,8.54,65.519997,1729477482637.0,0.0
-9.437292,-5.213961,-11.270195,-6.02,29.469999,95.059998,1729477482657.0,0.0
-4.321437,-9.35833,-10.387242,35.98,27.65,100.449997,1729477482677.0,0.0
-1.756332,-6.506085,-9.966106,123.270004,29.120001,80.010002,1729477482697.0,0.0
-1.741975,-5.79781,-9.454042,130.199997,41.790001,50.75,1729477482717.0,0.0
-0.447458,-9.245867,-6.271588,85.889999,37.939999,5.32,1729477482737.0,0.0
0.253639,-6.661618,-3.113062,32.34,12.95,-48.299999,1729477482758.0,0.0
-0.289532,-4.668397,-5.455636,-4.06,-22.190001,-99.68,1729477482777.0,0.0
-1.969293,0.191426,-7.058826,-68.18,-31.01,-120.959999,1729477482796.0,0.0
-2.474179,3.9338,-8.537591,-120.190002,-33.040001,-103.739998,1729477482817.0,0.0
-2.68714,-2.572284,-11.320443,-105.840004,-35.0,-41.650002,1729477482837.0,0.0
-4.979464,-0.677169,-10.368099,-68.459999,-4.83,7.42,1729477482859.0,0.0
-9.540184,-0.758525,-8.16431,3.92,15.61,57.75,1729477482879.0,0.0
-8.286345,-5.012963,-11.219944,-20.02,20.719999,82.25,1729477482899.0,0.0
-3.426522,-7.987241,-11.85165,-14.7,16.17,97.230003,1729477482917.0,0.0
0.241675,-6.82433,-12.459428,85.470001,18.76,87.639999,1729477482937.0,0.0
-0.62692,-5.383851,-10.487741,165.199997,47.810001,76.860001,1729477482960.0,0.0
-2.323431,-5.85763,-5.096712,106.889999,71.050003,37.869999,1729477482978.0,0.0
-1.131805,-9.645468,-4.601398,68.809998,34.439999,-12.6,1729477482997.0,0.0
-0.007178,-5.735595,-3.412165,43.470001,6.44,-74.199997,1729477483017.0,0.0
-2.179861,0.514457,-3.414558,-3.78,-11.76,-107.029999,1729477483037.0,0.0
-3.945765,2.847459,-6.599405,-73.709999,-37.939999,-108.849998,1729477483058.0,0.0
-1.792224,0.904487,-10.135997,-120.190002,-67.550003,-88.970001,1729477483079.0,0.0
-0.866202,-1.600798,-12.399607,-125.860001,-68.25,-62.580002,1729477483098.0,0.0
-5.644669,0.588634,-10.662418,-63.07,-23.379999,-6.65,1729477483117.0,0.0
-10.846665,-1.052842,-12.567105,3.15,0.07,53.48,1729477483138.0,0.0
-6.783652,-4.101298,-11.846866,9.17,4.13,87.5,1729477483159.0,0.0
-2.462214,-6.472585,-9.315259,66.150002,8.61,101.080002,1729477483182.0,0.0
-2.782853,-6.288338,-9.870394,150.080002,32.200001,84.07,1729477483197.0,0.0
-1.909473,-7.915457,-9.245867,123.830002,34.439999,46.34,1729477483218.0,0.0
-0.902094,-6.534799,-3.381058,63.91,20.58,-2.66,1729477483239.0,0.0
-0.342174,-8.159525,-4.563113,30.940001,-16.52,-58.73,1729477483259.0,0.0
-1.485943,-2.455036,-4.089334,-12.67,-35.490002,-94.150002,1729477483279.0,0.0
-3.591627,-0.320638,-8.12124,-87.5,-53.48,-102.550003,1729477483297.0,0.0
-3.665804,2.885744,-9.801002,-141.820007,-58.170002,-83.019997,1729477483316.0,0.0
-2.730211,-0.758525,-10.983055,-129.289993,-56.0,-22.610001,1729477483337.0,0.0
-3.316452,-3.68734,-12.05504,-46.130001,-39.830002,28.630001,1729477483358.0,0.0
-6.793223,-0.502493,-9.556933,43.470001,-11.48,65.870003,1729477483380.0,0.0
-10.214959,-3.981657,-10.289137,37.52,12.81,91.349998,1729477483396.0,0.0
-5.623133,-6.85783,-10.284351,13.86,7.42,94.010002,1729477483418.0,0.0
-1.849652,-8.403593,-9.521042,88.970001,0.91,81.340004,1729477483438.0,0.0
-1.964507,-5.91745,-10.183852,144.619995,18.83,60.34,1729477483458.0,0.0
-1.538585,-8.061419,-8.252845,112.980003,30.1,21.77,1729477483478.0,0.0
-0.973879,-6.049056,-4.977071,60.060001,12.11,-22.33,1729477483498.0,0.0
-0.725025,-3.986443,-3.359523,10.22,-24.43,-87.43,1729477483518.0,0.0
-2.830709,-0.689133,-5.814559,-47.18,-48.720001,-95.340004,1729477483539.0,0.0
-3.974478,1.430908,-8.827123,-127.959999,-57.82,-93.940002,1729477483560.0,0.0
-3.132205,-1.61037,-10.803595,-147.419998,-56.560001,-70.349998,1729477483577.0,0.0
-2.426322,-1.071985,-12.660425,-91.209999,-38.779999,-33.110001,1729477483596.0,0.0
-4.725825,-0.411566,-12.330215,-8.12,0.56,34.299999,1729477483616.0,0.0
-9.126225,-3.37388,-7.286145,14.28,26.74,83.860001,1729477483639.0,0.0
-7.525427,-8.73141,-11.643474,13.3,32.759998,90.090004,1729477483658.0,0.0
-4.019942,-7.831708,-9.312866,73.5,19.879999,74.970001,1729477483677.0,0.0
-4.103691,-5.795416,-9.001799,136.5,32.48,49.77,1729477483699.0,0.0
-3.189633,-5.864808,-8.666803,106.889999,41.720001,23.030001,1729477483716.0,0.0
-2.041078,-6.946364,-3.87398,83.019997,31.57,-1.19,1729477483738.0,0.0
-1.758725,-6.209375,-4.400401,49.77,11.34,-37.939999,1729477483758.0,0.0
-1.89033,-4.249653,-5.895915,6.51,-10.85,-71.540001,1729477483777.0,0.0
-2.701497,-1.538585,-5.56092,-46.689999,-25.620001,-87.360001,1729477483796.0,0.0
-3.125026,1.177269,-7.592427,-84.349998,-35.560001,-84.0,1729477483817.0,0.0
-2.876173,0.074178,-10.241282,-107.590004,-44.869999,-51.799999,1729477483839.0,0.0
-3.749553,-2.85703,-14.294723,-115.290001,-27.58,5.88,1729477483858.0,0.0
-7.834101,-1.691726,-8.602197,-30.380001,4.34,53.619999,1729477483876.0,0.0
-8.853443,-5.168497,-11.971292,24.710001,22.889999,83.090004,1729477483898.0,0.0
-5.178068,-7.503892,-9.592826,77.209999,8.19,100.590004,1729477483916.0,0.0
-3.711268,-7.520642,-9.131011,108.290001,22.889999,82.040001,1729477483938.0,0.0
-2.658426,-8.260024,-9.379865,112.279999,25.48,52.57,1729477483957.0,0.0
-1.12702,-9.037691,-7.001399,81.480003,24.639999,3.29,1729477483977.0,0.0
-1.040878,-5.582455,-3.014957,45.779999,7.21,-43.049999,1729477483997.0,0.0
-1.574477,-6.209375,-5.807381,4.9,-20.719999,-83.580002,1729477484017.0,0.0
-2.421536,-4.902894,-5.187639,-62.720001,-34.369999,-111.650002,1729477484037.0,0.0
-3.56052,0.248854,-6.491727,-124.18,-43.959999,-122.290001,1729477484067.0,0.0
-4.575077,2.758924,-7.274181,-132.229996,-47.880001,-95.620003,1729477484078.0,0.0
-4.173083,2.237289,-11.167303,-92.190002,-52.150002,-34.650002,1729477484097.0,0.0
-5.690133,-2.09372,-12.765708,-56.490002,-28.35,29.190001,1729477484118.0,0.0
-8.812766,-3.318845,-11.674582,-9.59,4.69,63.0,1729477484137.0,0.0
-7.030113,-5.065606,-10.911271,34.509998,10.57,71.75,1729477484158.0,0.0
-4.907679,-7.534998,-9.150154,70.279999,12.81,84.769997,1729477484178.0,0.0
-2.883351,-7.886744,-8.91805,103.809998,9.87,55.09,1729477484196.0,0.0
-2.383251,-6.9009,-9.49472,86.590004,19.879999,20.23,1729477484218.0,0.0
-2.091327,-8.949157,-6.049056,59.150002,20.02,-25.83,1729477484236.0,0.0
-1.658226,-6.821937,-6.092126,33.25,1.47,-72.449997,1729477484258.0,0.0
-2.088934,-3.737589,-5.012963,-2.73,-12.88,-102.129997,1729477484279.0,0.0
-3.299703,0.758525,-3.34038,-80.919998,-28.07,-107.730003,1729477484298.0,0.0
-3.955336,0.236889,-7.310073,-139.649994,-42.630001,-92.68,1729477484318.0,0.0
-3.041277,-0.155533,-9.133404,-126.489998,-50.259998,-58.869999,1729477484337.0,0.0
-4.098906,-0.16989,-10.626525,-100.519997,-34.16,-8.61,1729477484358.0,0.0
-6.455836,-3.991228,-9.52822,-35.98,-8.89,41.580002,1729477484379.0,0.0
-8.738588,-5.402994,-9.375079,15.68,11.41,69.720001,1729477484397.0,0.0
-6.838687,-4.788038,-9.169296,50.610001,19.6,89.25,1729477484416.0,0.0
-5.134997,-6.484549,-10.25803,66.639999,25.34,95.059998,1729477484436.0,0.0
-4.235296,-7.965706,-9.308081,125.650002,28.139999,87.43,1729477484456.0,0.0
-4.046263,-9.253045,-9.095119,110.529999,49.139999,55.439999,1729477484478.0,0.0
-2.622534,-8.54477,-3.20399,70.139999,35.630001,8.61,1729477484502.0,0.0
-1.337588,-7.343572,-3.359523,37.52,7.35,-67.269997,1729477484516.0,0.0
-1.689333,-3.048456,-5.051248,-28.559999,-25.76,-103.389999,1729477484537.0,0.0
-2.050649,-1.694118,-5.771489,-101.57,-48.580002,-111.790001,1729477484558.0,0.0
-2.378466,2.402394,-9.281759,-127.540001,-55.860001,-104.93,1729477484578.0,0.0
-3.680161,2.749353,-11.507084,-118.860001,-48.580002,-55.369999,1729477484597.0,0.0
-4.917251,-0.997807,-13.445271,-97.230003,-23.73,-1.82,1729477484616.0,0.0
-6.209375,-2.476572,-11.186446,-8.47,4.06,46.27,1729477484637.0,0.0
-9.267403,-2.459821,-8.690732,46.27,22.26,83.720001,1729477484659.0,0.0
-6.465407,-5.673382,-8.831908,32.970001,22.610001,88.830002,1729477484679.0,0.0
-3.799802,-7.252645,-8.989835,72.029999,4.2,88.269997,1729477484696.0,0.0
-3.524628,-7.996813,-10.413565,87.779999,21.0,59.57,1729477484716.0,0.0
-2.617748,-9.695717,-7.712067,79.660004,23.73,15.82,1729477484737.0,0.0
-1.533799,-6.594619,-4.795217,30.030001,8.68,-37.73,1729477484759.0,0.0
-1.397408,-6.13759,-3.538985,14.14,-17.780001,-79.169998,1729477484777.0,0.0
-2.813959,-0.62692,-4.524827,-49.98,-34.509998,-100.590004,1729477484796.0,0.0
-3.055635,2.732604,-9.183653,-171.779999,-51.240002,-93.239998,1729477484817.0,0.0
-1.538585,-0.004786,-10.966305,-140.210007,-48.16,-27.51,1729477484838.0,0.0
-4.070191,-2.254039,-12.765708,-60.900002,-16.52,44.380001,1729477484858.0,0.0
-8.240881,-3.869194,-10.018748,29.540001,22.960001,97.93,1729477484879.0,0.0
-8.499306,-5.084748,-11.102697,74.620003,30.1,118.580002,1729477484897.0,0.0
-4.955536,-4.735396,-7.149754,100.449997,17.5,111.790001,1729477484919.0,0.0
-4.62054,-5.998806,-8.614161,84.0,18.200001,86.099998,1729477484938.0,0.0
-3.220739,-8.116454,-9.74836,57.540001,16.59,50.049999,1729477484960.0,0.0
-1.945365,-7.482357,-7.484749,59.220001,16.17,3.85,1729477484979.0,0.0
-2.378466,-6.271588,-6.319445,50.68,18.27,-38.43,1729477484999.0,0.0
-2.108077,-3.665804,-5.706882,17.01,-1.4,-75.32,1729477485018.0,0.0
-3.144169,-0.830309,-6.568298,-33.529999,-11.9,-87.43,1729477485039.0,0.0
-3.814159,0.820738,-6.98465,-111.93,-17.99,-85.400002,1729477485112.0,0.0
-2.239682,-0.973879,-8.798409,-118.230003,-30.52,-72.099998,1729477485119.0,0.0
-2.895315,-1.438086,-9.473185,-86.660004,-26.6,-43.889999,1729477485120.0,0.0
-5.936593,-1.217947,-11.971292,-33.599998,-7.07,-1.12,1729477485120.0,0.0
-8.556733,-3.443272,-11.160125,44.66,20.51,56.630001,1729477485144.0,0.0
-5.063213,-4.685147,-8.410772,80.220001,25.690001,77.559998,1729477485158.0,0.0
-4.204189,-4.993821,-7.779066,82.809998,30.66,76.090004,1729477485178.0,0.0
-3.905087,-6.575477,-9.712467,104.090004,28.559999,64.540001,1729477485197.0,0.0
-3.926622,-8.240881,-8.099705,105.910004,39.34,38.709999,1729477485221.0,0.0
-3.053242,-7.975278,-3.716053,57.959999,31.43,-9.94,1729477485237.0,0.0
-2.26361,-8.300702,-4.35733,24.360001,4.62,-57.260002,1729477485258.0,0.0
-2.39043,-3.706482,-4.476971,-15.54,-20.09,-96.040001,1729477485278.0,0.0
-2.813959,1.119841,-7.013363,-82.599998,-33.459999,-101.010002,1729477485298.0,0.0
-3.136991,2.416751,-8.99462,-130.830002,-35.630001,-63.91,1729477485318.0,0.0
-3.878766,-0.653241,-8.566305,-116.270004,-31.43,-1.54,1729477485340.0,0.0
-5.178068,-2.742175,-10.238889,-57.189999,-21.210001,34.23,1729477485358.0,0.0
-6.838687,-0.811167,-10.396815,8.89,-7.42,64.120003,1729477485380.0,0.0
-7.166504,-3.737589,-10.573883,20.860001,8.26,85.190002,1729477485398.0,0.0
-4.414758,-7.216753,-9.288938,33.670002,9.38,84.980003,1729477485418.0,0.0
-3.067599,-7.65464,-8.525627,67.900002,6.58,67.900002,1729477485437.0,0.0
-3.244668,-7.719246,-9.68136,89.949997,14.7,40.32,1729477485457.0,0.0
-3.139383,-7.345965,-5.749953,56.349998,24.92,-16.59,1729477485479.0,0.0
-2.912065,-7.743174,-5.864808,12.04,10.64,-57.82,1729477485498.0,0.0
-2.529213,-4.912465,-4.37408,-14.35,-10.99,-91.349998,1729477485517.0,0.0
-3.838088,1.299303,-5.242674,-75.669998,-24.360001,-105.699997,1729477485538.0,0.0
-3.541377,3.345166,-11.251052,-143.850006,-34.509998,-83.580002,1729477485558.0,0.0
-3.948158,0.129212,-10.243673,-136.360001,-20.860001,-15.96,1729477485578.0,0.0
-5.041678,-3.381058,-8.085347,-82.110001,7.91,32.830002,1729477485598.0,0.0
-6.12084,-0.684347,-9.590433,30.799999,8.47,59.150002,1729477485618.0,0.0
-7.271788,-0.150748,-8.784052,31.360001,14.14,86.379997,1729477485638.0,0.0
-5.599205,-6.623333,-9.74836,9.94,13.51,87.709999,1729477485657.0,0.0
-2.902494,-7.858029,-10.033106,39.34,2.45,74.760002,1729477485677.0,0.0
-3.053242,-5.974878,-9.894321,84.349998,20.93,46.27,1729477485698.0,0.0
-3.519842,-6.939186,-9.973285,82.949997,35.209999,20.23,1729477485725.0,0.0
-2.672783,-7.530212,-5.608776,68.949997,30.17,-15.61,1729477485737.0,0.0
-3.06042,-6.630512,-4.271189,20.58,17.360001,-57.189999,1729477485796.0,0.0
-3.318845,-5.606383,-3.201597,-15.05,-9.94,-93.590004,1729477485797.0,0.0
-4.23051,-0.803988,-7.281359,-67.059998,-36.400002,-117.669998,1729477485797.0,0.0
-3.936193,2.268396,-8.221739,-166.460007,-54.040001,-119.279999,1729477485883.0,0.0
-3.010171,2.151148,-11.767902,-152.180008,-52.220001,-67.129997,1729477485884.0,0.0
-3.960121,-0.689133,-13.122239,-68.389999,-30.450001,1.96,1729477485885.0,0.0
-6.06102,-1.033699,-11.313265,42.0,-0.28,57.400002,1729477485887.0,0.0
-7.278966,-3.084348,-10.913664,56.209999,25.48,86.870003,1729477485896.0,0.0
-4.192225,-5.123034,-9.580862,65.660004,23.24,95.830002,1729477485916.0,0.0
-3.617948,-4.752146,-8.817552,102.129997,22.75,95.340004,1729477485937.0,0.0
-3.981657,-7.389036,-10.753345,121.590004,36.400002,78.889999,1729477485957.0,0.0
-2.823531,-8.965906,-8.116454,97.090004,46.41,35.91,1729477485977.0,0.0
-1.954936,-8.161918,-4.816752,49.279999,28.84,-22.82,1729477485997.0,0.0
-1.9669,-7.606783,-3.211168,35.490002,1.68,-78.82,1729477486016.0,0.0
-3.017349,-3.448057,-4.4674,-10.71,-20.09,-113.470001,1729477486037.0,0.0
-3.282953,1.368695,-6.652047,-105.489998,-40.950001,-126.559998,1729477486058.0,0.0
-3.333202,3.589234,-10.380065,-153.509995,-43.189999,-100.099998,1729477486077.0,0.0
-3.26381,0.370888,-10.858629,-142.729996,-33.389999,-40.670002,1729477486097.0,0.0
-4.072584,0.200997,-13.426127,-54.459999,-16.17,9.8,1729477486117.0,0.0
-6.262017,-0.174676,-12.574283,-23.870001,14.42,67.690002,1729477486137.0,0.0
-6.599405,-3.208775,-10.621738,-24.219999,32.34,82.879997,1729477486157.0,0.0
-5.194818,-5.379066,-10.743774,0.21,39.689999,78.889999,1729477486177.0,0.0
-2.340181,-7.762317,-8.360522,66.779999,33.529999,70.489998,1729477486196.0,0.0
-2.009971,-7.996813,-7.877172,130.410004,40.880001,47.32,1729477486216.0,0.0
-2.600998,-6.582655,-4.62054,117.669998,44.099998,7.42,1729477486237.0,0.0
-1.880759,-6.809973,-4.996214,76.019997,13.09,-32.48,1729477486260.0,0.0
-1.591227,-4.084548,-4.814359,21.42,-10.99,-68.25,1729477486279.0,0.0
-2.830709,-0.531207,-6.786045,-66.220001,-28.07,-86.730003,1729477486297.0,0.0
-3.471986,-1.246661,-9.547362,-117.32,-36.259998,-87.5,1729477486316.0,0.0
-2.766103,0.244068,-10.24846,-78.889999,-39.34,-65.800003,1729477486337.0,0.0
-4.132405,-0.019143,-10.152746,-41.16,-24.01,-26.950001,1729477486359.0,0.0
-5.163712,-1.119841,-11.492726,-18.969999,-4.76,4.97,1729477486380.0,0.0
-6.869793,-2.859423,-9.064013,21.559999,7.0,46.130001,1729477486396.0,0.0
-6.874579,-3.235096,-10.631311,45.990002,17.290001,61.950001,1729477486417.0,0.0
-5.118248,-4.704289,-10.375278,53.760002,21.0,75.32,1729477486437.0,0.0
-3.98405,-4.833502,-10.329816,75.949997,29.610001,76.160004,1729477486458.0,0.0
-2.021935,-6.879365,-8.738588,116.830002,41.509998,63.560001,1729477486478.0,0.0
-1.375873,-7.470392,-5.28096,102.340004,40.670002,36.470001,1729477486496.0,0.0
-1.481157,-8.961121,-2.969493,91.489998,21.77,-5.11,1729477486518.0,0.0
-1.85683,-6.01077,-5.187639,48.720001,-8.33,-51.240002,1729477486544.0,0.0
-2.371287,-1.885544,-5.362316,-40.950001,-37.240002,-81.410004,1729477486558.0,0.0
-3.699304,0.806381,-7.661818,-136.5,-43.119999,-89.599998,1729477486578.0,0.0
-3.814159,2.289931,-7.759924,-167.649994,-52.009998,-76.090004,1729477486596.0,0.0
-3.883551,1.875973,-9.652647,-142.660004,-60.060001,-32.549999,1729477486618.0,0.0
-5.211568,0.672383,-13.390236,-124.25,-42.07,14.14,1729477486638.0,0.0
-6.415157,-2.316252,-12.971491,-82.25,-15.61,57.189999,1729477486661.0,0.0
-6.659225,-3.254239,-9.028119,-0.91,-0.63,89.389999,1729477486677.0,0.0
-5.264209,-6.82433,-10.181459,47.599998,11.76,90.510002,1729477486697.0,0.0
-3.005385,-7.13779,-12.25843,92.959999,14.49,75.949997,1729477486717.0,0.0
-2.711068,-6.908078,-8.714661,79.099998,32.689999,42.490002,1729477486738.0,0.0
-1.691726,-8.592626,-5.915058,33.389999,24.780001,-7.42,1729477486761.0,0.0
-0.926022,-7.52782,-6.218946,29.049999,5.32,-78.120003,1729477486778.0,0.0
-2.184647,-2.880959,-5.304887,-2.94,-8.05,-104.650002,1729477486798.0,0.0
-2.196611,-2.261217,-8.377272,-72.590004,-21.42,-112.629997,1729477486819.0,0.0
-1.26341,-0.57667,-10.023535,-69.860001,-27.790001,-105.0,1729477486838.0,0.0
-2.65364,2.842674,-9.454042,-52.5,-15.12,-74.199997,1729477486858.0,0.0
-3.251846,1.619941,-8.176274,-63.279999,-15.68,-36.540001,1729477486878.0,0.0
-3.821337,0.177069,-11.540584,-33.740002,-21.77,4.2,1729477486899.0,0.0
-6.702296,-0.646062,-12.284752,-5.88,-4.2,43.75,1729477486918.0,0.0
-8.398808,-3.615555,-8.989835,-8.68,19.950001,65.590004,1729477486938.0,0.0
-6.295516,-5.769095,-8.796017,32.900002,23.379999,75.949997,1729477486959.0,0.0
-3.651447,-7.350751,-9.836893,77.07,25.200001,72.239998,1729477486979.0,0.0
-2.347359,-7.427321,-8.566305,116.129997,29.68,53.689999,1729477486997.0,0.0
-2.203789,-6.719046,-7.76471,106.610001,32.34,21.700001,1729477487019.0,0.0
-0.942772,-7.013363,-5.364708,91.349998,21.84,-18.48,1729477487039.0,0.0
-1.339981,-2.321038,-4.292724,71.959999,-8.96,-62.23,1729477487060.0,0.0
-3.098706,0.480957,-6.838687,-12.18,-23.799999,-74.340004,1729477487080.0,0.0
-3.735196,-0.488136,-9.367901,-82.949997,-31.780001,-75.739998,1729477487100.0,0.0
-2.124826,-2.682354,-10.535598,-108.080002,-48.93,-69.090004,1729477487120.0,0.0
-2.85703,-1.416551,-13.373486,-115.360001,-32.27,-62.93,1729477487139.0,0.0
-6.458229,-1.036092,-12.157932,-85.82,3.85,-30.52,1729477487159.0,0.0
-8.776874,-4.783253,-11.140982,-32.759998,34.09,9.73,1729477487181.0,0.0
-6.151947,-3.862016,-10.191031,28.49,40.040001,35.0,1729477487199.0,0.0
-2.459821,-3.002992,-9.755538,52.360001,29.190001,54.040001,1729477487220.0,0.0
-1.885544,-3.651447,-10.202995,76.230003,52.080002,58.029999,1729477487239.0,0.0
-1.813759,-4.4674,-9.805787,96.669998,55.790001,67.129997,1729477487265.0,0.0
0.047856,-5.883951,-6.625726,120.610001,50.189999,54.389999,1729477487280.0,0.0
-0.241675,-6.283553,-2.469393,111.860001,43.889999,35.209999,1729477487298.0,0.0
0.045464,-6.635297,-3.574877,37.380001,15.54,-8.54,1729477487319.0,0.0
-1.416551,-3.751946,-5.091926,14.35,-9.17,-35.84,1729477487339.0,0.0
-2.218147,-3.589234,-6.795617,-8.68,-26.67,-48.860001,1729477487360.0,0.0
-0.588634,-2.572284,-8.848659,-54.110001,-58.310001,-64.889999,1729477487382.0,0.0
-3.862016,-1.11027,-14.809179,-93.660004,-45.639999,-46.34,1729477487398.0,0.0
-6.453443,-1.612763,-15.924235,-113.260002,0.35,-20.65,1729477487419.0,0.0
-7.793423,-4.811966,-12.239288,63.630001,36.959999,51.099998,1729477487439.0,0.0
-5.761917,-3.979264,-10.9017,157.779999,46.060001,90.93,1729477487462.0,0.0
-5.072784,-1.854438,-10.210175,128.240005,76.090004,102.830002,1729477487479.0,0.0
-3.022135,-6.929615,-9.84168,90.790001,79.449997,90.860001,1729477487500.0,0.0
-1.359123,-9.123833,0.236889,107.449997,69.650002,68.110001,1729477487517.0,0.0
-1.627119,-7.472785,-4.608576,94.43,43.330002,33.110001,1729477487539.0,0.0
0.028714,-6.072984,-3.591627,-2.59,20.719999,-6.72,1729477487561.0,0.0
1.055235,-6.233303,-4.347759,-34.509998,-13.86,-29.960001,1729477487579.0,0.0
-1.261017,-3.014957,-3.046063,-35.349998,-14.0,-45.849998,1729477487599.0,0.0
-2.347359,-3.20399,-4.63729,-50.68,-39.830002,-43.119999,1729477487618.0,0.0
-0.650848,-5.039285,-9.12144,-102.340004,-82.459999,-47.529999,1729477487639.0,0.0
-2.129612,-3.321238,-10.683953,-149.449997,-72.099998,-58.310001,1729477487661.0,0.0
-6.262017,-0.088534,-12.595818,-170.449997,-43.470001,-43.400002,1729477487679.0,0.0
-6.355337,-4.599005,-12.770494,-113.260002,-34.580002,-7.84,1729477487700.0,0.0
-5.98445,-2.414358,-11.691331,-12.25,-16.52,20.09,1729477487718.0,0.0
-5.010571,-3.534199,-10.435099,27.23,22.190001,50.889999,1729477487739.0,0.0
-2.823531,-6.506085,-9.595219,55.650002,22.190001,54.529999,1729477487759.0,0.0
-1.605584,-6.802795,-8.985049,74.480003,27.719999,36.400002,1729477487780.0,0.0
-1.253839,-8.152347,-5.149354,83.230003,29.469999,6.93,1729477487799.0,0.0
-1.301696,-4.828716,-2.431108,56.700001,11.27,-28.280001,1729477487818.0,0.0
-1.083949,-4.063013,-5.388636,-21.98,-19.389999,-53.760002,1729477487838.0,0.0
-1.414158,-4.548756,-7.506285,-61.810001,-33.810001,-67.480003,1729477487861.0,0.0
-1.835295,-3.223132,-9.085547,-40.670002,-39.689999,-75.25,1729477487878.0,0.0
-1.115055,0.007178,-8.958728,-64.959999,-51.66,-76.160004,1729477487897.0,0.0
-2.172683,0.878166,-10.820344,-107.029999,-38.639999,-50.400002,1729477487920.0,0.0
-4.280759,-2.115255,-14.160725,-105.349998,-16.940001,-4.34,1729477487938.0,0.0
-5.850451,-5.185246,-12.725031,-34.369999,8.26,36.75,1729477487961.0,0.0
-7.190433,-2.462214,-10.832308,50.400002,31.08,62.790001,1729477487979.0,0.0
-5.446064,-3.830909,-9.65504,68.529999,34.509998,71.470001,1729477487998.0,0.0
-2.98385,-5.391029,-10.4016,99.68,27.93,70.769997,1729477488019.0,0.0
-2.184647,-4.613362,-7.676175,111.370003,44.310001,60.48,1729477488039.0,0.0
-2.230111,-8.690732,-5.625526,91.279999,55.860001,47.32,1729477488061.0,0.0
-0.930808,-7.800602,-3.345166,83.93,16.030001,-5.39,1729477488079.0,0.0
-0.366102,-5.056034,-4.759324,36.119999,-13.3,-49.349998,1729477488098.0,0.0
-1.265803,-2.68714,-5.891129,-31.710001,-25.41,-73.010002,1729477488119.0,0.0
-2.165504,-1.562513,-7.460821,-66.080002,-35.700001,-79.800003,1729477488139.0,0.0
-1.225125,-1.136591,-9.332008,-93.099998,-54.459999,-75.040001,1729477488161.0,0.0
-1.808974,0.772882,-9.693325,-148.190002,-49.77,-64.610001,1729477488178.0,0.0
-3.720839,-2.09372,-14.646468,-142.729996,-26.880001,-34.860001,1729477488198.0,0.0
-4.754539,-3.519842,-10.877771,-62.369999,-2.1,6.58,1729477488219.0,0.0
-6.21416,-4.015156,-10.805987,44.240002,14.35,46.48,1729477488240.0,0.0
-4.790431,-5.900701,-10.193424,61.599998,22.960001,53.060001,1729477488259.0,0.0
-2.756532,-6.742974,-10.116854,97.370003,21.91,51.450001,1729477488279.0,0.0
-2.464607,-5.912664,-8.671589,144.130005,32.759998,40.110001,1729477488298.0,0.0
-3.136991,-7.716853,-8.523234,151.759995,45.849998,22.26,1729477488318.0,0.0
-2.306681,-8.671589,-7.936993,154.770004,36.75,-5.67,1729477488339.0,0.0
-1.828116,-7.910671,-6.235696,181.300003,31.01,-21.629999,1729477488359.0,0.0
-1.636691,-6.678369,-6.817152,184.869995,24.43,-35.630001,1729477488381.0,0.0
-1.306481,-5.35753,-6.60419,159.110001,9.31,-32.900002,1729477488397.0,0.0
-0.861416,-4.960321,-7.970492,127.75,1.61,-31.08,1729477488418.0,0.0
-0.622134,-5.599205,-7.781459,136.5,3.85,-16.799999,1729477488438.0,0.0
-0.26321,-4.752146,-6.324231,148.539993,1.26,-3.15,1729477488458.0,0.0
-0.837488,-3.792624,-4.821537,122.639999,4.9,10.64,1729477488478.0,0.0
-1.785046,-4.223332,-4.211368,32.130001,11.62,17.360001,1729477488503.0,0.0
-1.493121,-6.568298,-4.725825,-57.400002,-5.6,18.76,1729477488518.0,0.0
-0.78006,-8.087741,-5.998806,-79.519997,-26.880001,15.190001,1729477488538.0,0.0
-1.612763,-8.712267,-4.943572,-42.279999,-27.16,14.42,1729477488558.0,0.0
-3.60359,-11.274981,-7.889136,19.6,-22.960001,9.24,1729477488578.0,0.0
-6.635297,-6.893722,-6.199803,0.77,-6.16,0.77,1729477488598.0,0.0
-6.632904,-6.017949,-8.932407,-17.01,-4.62,9.38,1729477488618.0,0.0
-4.510471,-9.068797,-8.324631,-68.32,-20.370001,9.94,1729477488638.0,0.0
-3.565305,-11.832507,-6.608976,-6.51,17.5,22.120001,1729477488658.0,0.0
-3.37388,-8.181061,-4.644469,69.230003,45.009998,22.33,1729477488678.0,0.0
-2.098505,-7.568498,0.291924,76.790001,34.650002,24.219999,1729477488698.0,0.0
-0.930808,-6.826723,-3.596412,9.45,-3.57,5.46,1729477488719.0,0.0
0.571885,-8.190632,-5.65424,-53.27,-31.5,-8.33,1729477488737.0,0.0
1.244268,-9.442079,-7.013363,-43.889999,-55.09,-10.64,1729477488759.0,0.0
-1.677369,-9.442079,-5.754738,-28.77,-23.24,-24.710001,1729477488778.0,0.0
-3.909872,-7.013363,-5.199604,-17.57,-15.82,-38.779999,1729477488797.0,0.0
-2.684747,-5.084748,-7.300502,-22.120001,-74.340004,-46.34,1729477488818.0,0.0
-3.211168,-5.453243,-11.301301,-35.98,-88.690002,-30.380001,1729477488838.0,0.0
-6.862615,-6.116055,-14.624931,-67.129997,1.12,-15.68,1729477488859.0,0.0
-7.200003,-6.597012,-12.847065,-50.610001,40.740002,-3.15,1729477488879.0,0.0
-3.783052,-11.004591,-5.072784,36.330002,57.889999,26.809999,1729477488900.0,0.0
-1.5003,-9.24826,-5.371887,116.690002,57.330002,31.290001,1729477488917.0,0.0
-2.495714,-4.4674,-3.826123,94.709999,105.0,27.440001,1729477488938.0,0.0
-2.48375,-5.742774,2.567499,24.92,82.389999,35.84,1729477488970.0,0.0
0.760918,-8.987441,0.212961,-12.53,9.66,22.75,1729477488978.0,0.0
0.808774,-11.77508,-0.646062,-16.17,-32.900002,3.78,1729477488999.0,0.0
-3.306881,-10.506885,-3.261417,-1.05,-24.219999,-39.900002,1729477489018.0,0.0
-4.345366,-7.649854,-6.766902,33.18,-46.900002,-53.689999,1729477489038.0,0.0
-0.476172,-1.311267,-14.388042,26.67,-106.82,-51.66,1729477489059.0,0.0
-3.189633,-6.092126,-6.723832,-40.810001,-50.330002,-8.89,1729477489079.0,0.0
-8.394022,-7.365108,-10.557133,-101.5,77.209999,-2.17,1729477489097.0,0.0
-7.080362,-8.910872,-10.58824,-4.48,36.470001,26.389999,1729477489118.0,0.0
-1.012164,-10.131211,-7.41775,91.980003,-0.14,34.16,1729477489138.0,0.0
-0.937986,-7.369894,-4.273581,95.269997,60.34,28.42,1729477489158.0,0.0
-3.101098,-4.869394,-4.252046,18.549999,97.580002,16.379999,1729477489179.0,0.0
-2.062613,-7.640282,3.151347,-32.48,60.900002,29.26,1729477489199.0,0.0
2.189433,-7.740781,3.328416,-15.33,-20.93,23.24,1729477489218.0,0.0
0.315853,-10.514063,-0.184247,-4.41,-50.189999,14.0,1729477489239.0,0.0
-4.118048,-10.370493,-3.440879,-18.9,-39.27,-27.23,1729477489259.0,0.0
-4.216154,-8.343772,-7.479963,6.58,-82.110001,-24.85,1729477489279.0,0.0
-1.57687,-3.63709,-12.540783,-16.799999,-122.779999,-16.799999,1729477489298.0,0.0
-2.100898,-6.577869,-14.167902,-57.189999,-94.57,-0.56,1729477489317.0,0.0
-7.738388,-9.671788,-7.688138,-99.889999,22.75,4.83,1729477489337.0,0.0
-9.580862,-9.899107,-12.892529,3.57,70.910004,1.68,1729477489360.0,0.0
-3.213561,-9.195618,-6.568298,82.949997,10.57,33.599998,1729477489381.0,0.0
-0.22014,-8.02792,-3.936193,99.540001,20.65,14.42,1729477489397.0,0.0
-3.09392,-6.563512,-6.094519,28.98,94.43,-1.33,1729477489418.0,0.0
-2.266003,-5.386244,1.371087,-23.73,70.699997,5.53,1729477489439.0,0.0
0.289532,-8.236095,0.646062,-0.14,1.4,15.54,1729477489459.0,0.0
-0.909273,-9.975677,-0.722632,8.19,-25.549999,-7.21,1729477489479.0,0.0
-5.343173,-10.715059,-3.54377,-14.42,-9.66,-42.349998,1729477489497.0,0.0
-4.615755,-7.89153,-8.013563,-9.1,-46.060001,-50.119999,1729477489518.0,0.0
0.179462,-3.383451,-10.920842,-5.74,-106.68,-40.810001,1729477489539.0,0.0
-0.464208,-7.23111,-7.178468,-25.200001,-77.279999,-20.16,1729477489559.0,0.0
-6.9679,-7.812566,-10.437491,-66.639999,53.619999,-19.530001,1729477489579.0,0.0
-9.174082,-9.875179,-13.497912,1.54,36.470001,-9.03,1729477489598.0,0.0
-3.4672,-10.353743,-6.240481,25.83,36.049999,-4.83,1729477489617.0,0.0
-0.679562,-8.355737,-7.008578,98.699997,42.139999,-0.07,1729477489638.0,0.0
-2.876173,-4.307081,-5.675776,92.470001,107.660004,-4.55,1729477489659.0,0.0
-3.031706,-3.778267,1.710868,15.190001,87.989998,6.3,1729477489678.0,0.0
-0.193819,-7.84128,-3.177669,-30.24,31.639999,6.44,1729477489697.0,0.0
2.182254,-9.442079,1.349552,-8.19,4.62,5.04,1729477489718.0,0.0
-2.287539,-8.255238,-1.409373,-5.6,-17.92,-18.76,1729477489737.0,0.0
-5.173282,-6.80758,-3.828516,-31.15,-20.09,-27.370001,1729477489760.0,0.0
-1.411765,-5.065606,-8.204988,-64.540001,-91.910004,-23.450001,1729477489778.0,0.0
0.727418,-5.769095,-8.444271,-93.309998,-106.120003,-11.13,1729477489799.0,0.0
-2.536392,-9.186047,-9.834501,-72.309998,-29.889999,-5.39,1729477489817.0,0.0
-7.88435,-12.607781,-6.9344,-20.23,10.22,-7.21,1729477489839.0,0.0
-9.535398,-8.037491,-12.538391,4.13,67.480003,-5.67,1729477489858.0,0.0
-2.251646,-8.216952,-5.438886,34.790001,-2.73,14.42,1729477489877.0,0.0
2.242075,-9.41815,-5.213961,55.720001,5.11,8.26,1729477489897.0,0.0
-0.9667,-6.563512,-5.819345,31.5,76.160004,6.3,1729477489918.0,0.0
-2.254039,-7.329216,-2.756532,5.18,71.610001,7.35,1729477489938.0,0.0
0.291924,-8.288737,-3.876373,11.76,23.799999,9.8,1729477489961.0,0.0
2.40718,-8.585447,-0.174676,31.85,-0.7,7.21,1729477489978.0,0.0
-0.366102,-9.623933,-2.244468,17.08,-12.04,-10.78,1729477489998.0,0.0
-3.562913,-9.030513,-4.082155,-4.97,-11.83,-31.5,1729477490019.0,0.0
-2.368894,-7.106683,-7.183254,-14.42,-59.57,-35.209999,1729477490038.0,0.0
-0.069392,-6.12084,-10.676775,-12.81,-72.660004,-21.0,1729477490120.0,0.0
-5.024928,-7.073184,-7.879565,-57.68,7.42,-20.23,1729477490121.0,0.0
-7.79103,-5.479564,-9.75793,5.81,62.02,9.1,1729477490122.0,0.0
-2.646462,-7.039684,-6.24766,38.080002,3.99,32.27,1729477490122.0,0.0
-0.177069,-9.030513,-4.917251,78.400002,14.63,39.830002,1729477490137.0,0.0
-3.404987,-4.890929,-7.286145,54.32,69.090004,28.84,1729477490158.0,0.0
-4.280759,-4.041477,-4.529613,4.62,71.82,37.099998,1729477490177.0,0.0
-2.069792,-8.85823,-3.184847,-18.690001,31.290001,42.209999,1729477490197.0,0.0
0.990629,-9.602397,0.069392,-5.04,4.13,27.58,1729477490217.0,0.0
0.526421,-11.152946,-0.375673,1.54,-25.969999,11.2,1729477490237.0,0.0
-3.376273,-10.272388,-3.438486,-33.389999,-28.77,-26.32,1729477490258.0,0.0
-4.019942,-7.721639,-7.240681,-31.08,-44.869999,-37.380001,1729477490277.0,0.0
-0.579063,-5.237889,-9.174082,-32.34,-101.220001,-29.33,1729477490297.0,0.0
-0.050249,-7.659425,-11.05484,-42.91,-84.419998,-20.58,1729477490319.0,0.0
-5.175675,-12.430713,-8.757731,-66.150002,-7.28,-25.41,1729477490338.0,0.0
-9.353544,-6.403193,-12.918849,-63.560001,67.480003,-29.889999,1729477490358.0,0.0
-3.859623,-7.338787,-7.487142,24.360001,8.33,4.34,1729477490380.0,0.0
0.375673,-8.066205,-5.572884,50.049999,3.71,4.76,1729477490397.0,0.0
-2.876173,-4.240082,-4.426722,4.9,97.650002,3.71,1729477490416.0,0.0
-2.804388,-7.278966,-0.667598,-16.379999,69.580002,20.719999,1729477490437.0,0.0
0.935594,-8.173882,-2.242075,-3.57,4.83,16.799999,1729477490457.0,0.0
1.497907,-9.95175,-0.397209,32.48,-13.23,10.57,1729477490477.0,0.0
-2.847459,-9.119047,-2.813959,10.64,-17.15,-17.360001,1729477490497.0,0.0
-5.146961,-8.061419,-5.257031,-3.71,-20.23,-32.200001,1729477490517.0,0.0
-1.789831,-6.348158,-7.920243,-13.37,-90.300003,-33.529999,1729477490537.0,0.0
0.162712,-6.427122,-12.181859,-27.299999,-94.43,-27.719999,1729477490558.0,0.0
-2.40718,-10.571491,-13.227524,-45.290001,-28.42,-22.33,1729477490577.0,0.0
-7.690532,-7.549356,-8.657232,-34.580002,50.610001,-29.190001,1729477490596.0,0.0
-6.463014,-6.099305,-8.788837,77.139999,52.5,4.41,1729477490618.0,0.0
-0.344566,-7.762317,-7.185646,89.389999,0.84,7.91,1729477490636.0,0.0
-0.964308,-7.171289,-6.893722,29.75,64.260002,1.26,1729477490659.0,0.0
-3.433701,-6.85783,-3.184847,-10.99,101.43,3.85,1729477490679.0,0.0
-0.894916,-7.489535,-2.48375,-5.53,58.029999,8.19,1729477490697.0,0.0
2.464607,-7.21436,1.990828,7.28,17.360001,11.62,1729477490717.0,0.0
-1.150948,-9.75793,-0.387637,19.18,-3.08,9.8,1729477490738.0,0.0
-5.130211,-8.233703,-1.837688,-4.55,-3.08,-13.72,1729477490757.0,0.0
-2.550749,-6.67119,-5.568098,-9.45,-69.370003,-14.28,1729477490778.0,0.0
1.045663,-6.948757,-6.594619,-23.940001,-118.790001,-10.43,1729477490798.0,0.0
0.59342,-6.254838,-6.331409,-17.15,-86.029999,-8.05,1729477490817.0,0.0
-3.089134,-9.509077,-10.853845,-16.450001,-71.260002,2.1,1729477490837.0,0.0
-7.73121,-8.539984,-12.954741,-64.68,-19.6,-7.84,1729477490860.0,0.0
-6.862615,-6.577869,-13.777873,-13.3,18.200001,13.79,1729477490878.0,0.0
-2.014757,-8.752945,-7.326823,52.57,4.48,34.369999,1729477490899.0,0.0
-1.215554,-8.877372,-7.209574,111.230003,45.220001,32.900002,1729477490917.0,0.0
-3.639483,-5.989235,-6.302694,88.340004,92.68,23.73,1729477490937.0,0.0
-3.136991,-5.424529,-2.112862,-2.66,88.129997,20.65,1729477490957.0,0.0
0.512064,-8.9348,-0.442672,-46.689999,29.4,17.5,1729477490977.0,0.0
2.203789,-11.75833,3.445665,-21.84,-7.7,8.68,1729477490998.0,0.0
-2.22054,-10.073784,-0.705883,11.55,-34.860001,-26.110001,1729477491016.0,0.0
-5.216353,-8.075776,-4.721039,2.94,-33.32,-43.540001,1729477491039.0,0.0
-2.648855,-5.486742,-7.156933,-31.85,-95.129997,-42.0,1729477491070.0,0.0
-0.31346,-7.676175,-13.708481,-60.41,-99.610001,-21.35,1729477491077.0,0.0
-6.549156,-9.351151,-8.233703,-90.720001,2.1,-21.91,1729477491097.0,0.0
-8.35813,-6.9009,-13.105491,7.28,53.41,-9.24,1729477491116.0,0.0
-2.143969,-8.178668,-8.128418,112.0,4.83,29.469999,1729477491138.0,0.0
0.717847,-7.573284,-5.651847,114.520004,29.960001,22.4,1729477491157.0,0.0
-3.783052,-5.07757,-2.419144,28.139999,94.779999,14.35,1729477491178.0,0.0
-4.445865,-6.661618,-2.029114,-57.470001,64.889999,14.21,1729477491196.0,0.0
-0.758525,-9.427721,-0.739382,-67.410004,-4.48,13.51,1729477491218.0,0.0
1.227518,-11.708081,0.856631,-3.64,-17.85,11.9,1729477491237.0,0.0
-2.313859,-9.399008,-0.81356,9.38,-18.83,-20.440001,1729477491259.0,0.0
-4.65404,-7.290931,-3.596412,-18.969999,-17.99,-30.17,1729477491284.0,0.0
-1.787439,-6.283553,-6.802795,-66.43,-88.760002,-29.75,1729477491297.0,0.0
0.770489,-5.986843,-9.796216,-88.760002,-100.660004,-19.110001,1729477491317.0,0.0
-1.048056,-8.322237,-14.821144,-102.480003,-55.860001,-7.84,1729477491340.0,0.0
-6.580262,-10.894521,-12.043077,-75.879997,37.450001,-14.77,1729477491360.0,0.0
-4.704289,-8.348558,-9.054441,137.410004,51.170002,27.790001,1729477491380.0,0.0
-0.299103,-6.513263,-6.211767,139.089996,44.029999,5.6,1729477491399.0,0.0
-1.679761,-5.67099,-2.976671,43.68,96.25,1.12,1729477491417.0,0.0
-1.811367,-7.233503,-2.591427,-45.990002,78.610001,-7.77,1729477491439.0,0.0
0.854238,-9.444471,0.995414,-40.040001,31.639999,-5.46,1729477491460.0,0.0
1.603191,-9.255438,1.65344,-3.15,4.27,-12.18,1729477491477.0,0.0
-2.95035,-8.762517,-0.133998,6.02,-8.68,-24.639999,1729477491498.0,0.0
-4.886144,-6.412765,-0.602991,-6.23,-23.379999,-30.940001,1729477491520.0,0.0
-0.997807,-4.945964,-5.163712,-27.58,-97.160004,-24.5,1729477491539.0,0.0
0.035892,-6.087341,-10.037891,-48.16,-114.029999,-14.91,1729477491560.0,0.0
-3.055635,-9.396614,-14.165509,-52.150002,-47.529999,-8.05,1729477491579.0,0.0
-7.489535,-11.47837,-11.030912,-63.490002,2.45,-14.28,1729477491599.0,0.0
-6.721439,-4.862216,-12.15554,-4.48,56.139999,-1.12,1729477491618.0,0.0
-1.138984,-5.06082,-7.831708,88.620003,2.87,38.849998,1729477491639.0,0.0
0.385244,-6.195018,-5.56092,89.389999,41.509998,32.41,1729477491659.0,0.0
-4.402793,-7.712067,-2.660819,14.0,98.419998,34.299999,1729477491678.0,0.0
-1.636691,-8.60459,-3.809374,-53.34,34.650002,17.15,1729477491700.0,0.0
1.426122,-9.899107,-0.181855,-25.9,-5.39,12.67,1729477491718.0,0.0
-0.488136,-11.018949,-1.928615,8.33,-16.309999,-13.65,1729477491738.0,0.0
-4.24726,-7.628319,-0.449851,24.92,-4.34,-32.689999,1729477491761.0,0.0
-2.871387,-5.273781,-5.831308,2.45,-75.459999,-40.040001,1729477491779.0,0.0
-0.543171,-5.230711,-8.532805,-69.230003,-114.660004,-52.639999,1729477491799.0,0.0
-1.028914,-7.288538,-14.581861,-81.059998,-91.349998,-46.48,1729477491821.0,0.0
-5.960521,-4.68754,-13.150953,-116.270004,-24.92,-35.84,1729477491840.0,0.0
-6.757331,-4.082155,-15.615561,-76.019997,38.5,-6.58,1729477491860.0,0.0
-1.835295,-10.092925,-8.135597,40.880001,13.09,29.82,1729477491881.0,0.0
-0.449851,-9.107083,-5.161318,159.740005,49.700001,33.810001,1729477491900.0,0.0
-2.352145,-4.194618,-2.806781,129.009995,92.889999,22.610001,1729477491919.0,0.0
-2.316252,-6.096912,-0.452243,27.370001,54.389999,21.91,1729477491941.0,0.0
0.540778,-9.573684,-0.047856,-27.93,18.620001,13.02,1729477491960.0,0.0
0.315853,-11.892329,-2.380858,30.17,-29.33,-7.56,1729477491980.0,0.0
-4.426722,-8.939585,-3.086741,47.670002,-4.48,-35.91,1729477492003.0,0.0
-3.586841,-7.070791,-6.98465,78.959999,-43.959999,-25.9,1729477492021.0,0.0
-0.430708,-5.12782,-8.583055,34.23,-89.18,-18.76,1729477492040.0,0.0
-0.129212,-4.969893,-12.488142,-39.619999,-73.779999,-13.440001,1729477492060.0,0.0
-4.742575,-9.413363,-7.219146,-172.759995,-13.09,-14.56,1729477492079.0,0.0
-8.420342,-9.332008,-13.749159,-138.529999,62.790001,-8.33,1729477492100.0,0.0
-3.993621,-10.322637,-9.523434,126.07,23.73,36.049999,1729477492119.0,0.0
-0.636491,-6.484549,-5.039285,186.059998,40.599998,21.07,1729477492140.0,0.0
-3.333202,-4.333402,-4.95075,50.119999,102.970001,13.58,1729477492160.0,0.0
-2.993421,-6.139983,-1.864009,-76.720001,77.629997,13.93,1729477492180.0,0.0
1.323231,-9.274581,-3.031706,-45.709999,26.32,20.51,1729477492199.0,0.0
3.95055,-9.439686,2.500499,39.130001,5.53,24.57,1729477492220.0,0.0
-0.086142,-9.958927,0.792024,65.870003,-12.74,3.92,1729477492239.0,0.0
-5.4676,-7.582855,-2.053042,-0.77,-17.360001,-35.279999,1729477492261.0,0.0
-3.565305,-6.915257,-9.913465,-29.33,-77.980003,-35.209999,1729477492279.0,0.0
1.155733,-5.458029,-11.892329,-54.040001,-121.520004,-30.030001,1729477492300.0,0.0
-2.926422,-10.533205,-10.645668,-75.529999,-24.5,-8.05,1729477492319.0,0.0
-9.487542,-8.623734,-12.270394,-82.739998,62.16,-22.469999,1729477492339.0,0.0
-6.302694,-8.906086,-8.484949,44.099998,50.470001,11.34,1729477492361.0,0.0
0.636491,-8.114061,-7.030113,82.879997,2.59,10.99,1729477492382.0,0.0
0.083749,-5.915058,-5.132604,51.52,73.639999,6.09,1729477492400.0,0.0
-1.842474,-6.477371,-0.990629,24.01,82.599998,16.24,1729477492419.0,0.0
-0.574277,-7.795816,0.435494,15.12,47.880001,14.63,1729477492439.0,0.0
2.115255,-8.157133,1.433301,20.23,-4.69,15.89,1729477492460.0,0.0
-0.248854,-9.602397,-2.194218,6.09,-36.82,-4.13,1729477492480.0,0.0
-4.388437,-8.678767,-4.95075,3.92,-23.379999,-28.07,1729477492499.0,0.0
-3.168097,-6.60419,-9.19801,19.809999,-63.700001,-17.92,1729477492519.0,0.0
0.248854,-4.084548,-12.315859,-44.099998,-99.82,-17.08,1729477492539.0,0.0
0.33021,-7.15454,-10.301102,-99.400002,-54.810001,-10.29,1729477492560.0,0.0
-6.183054,-14.079369,-6.927221,-71.120003,22.540001,-4.76,1729477492579.0,0.0
-9.944571,-8.726624,-12.050256,31.780001,75.739998,-12.04,1729477492599.0,0.0
-4.072584,-5.754738,-4.675575,114.099998,15.05,21.84,1729477492620.0,0.0
0.430708,-6.888937,-5.69731,44.170002,7.14,3.08,1729477492641.0,0.0
-1.962115,-7.477571,-3.278167,-43.189999,95.690002,18.129999,1729477492660.0,0.0
-1.07677,-8.606983,-1.488336,5.46,52.360001,23.17,1729477492678.0,0.0
2.24686,-6.769295,1.404587,50.610001,10.99,20.16,1729477492698.0,0.0
2.021935,-7.590034,0.055035,37.380001,-24.15,12.88,1729477492718.0,0.0
-2.622534,-8.365308,-2.210968,-26.530001,-31.01,-12.11,1729477492739.0,0.0
-3.89073,-7.489535,-6.046663,-44.66,-48.790001,-19.6,1729477492761.0,0.0
-0.533599,-6.597012,-10.310673,-41.860001,-115.849998,-14.77,1729477492780.0,0.0
-0.612563,-8.836694,-12.076575,-62.650002,-84.419998,-4.9,1729477492798.0,0.0
-6.041877,-14.723038,-7.197611,-48.790001,-0.07,-13.79,1729477492819.0,0.0
-10.325029,-8.092526,-15.402599,-0.7,74.900002,-14.56,1729477492839.0,0.0
-4.23051,-6.551548,-7.066005,94.849998,20.65,21.84,1729477492860.0,0.0
2.177469,-7.56132,-6.805188,69.019997,2.38,9.59,1729477492879.0,0.0
-0.765703,-7.49432,-6.075377,-1.96,92.540001,8.89,1729477492899.0,0.0
-3.591627,-8.238488,-1.622334,-33.389999,104.370003,6.72,1729477492921.0,0.0
-0.825524,-7.369894,-1.751546,-5.67,46.900002,5.04,1729477492939.0,0.0
2.481357,-7.341179,0.665205,44.450001,2.52,7.0,1729477492961.0,0.0
-0.650848,-8.973085,-1.596013,55.860001,-10.78,-7.49,1729477492979.0,0.0
-4.101298,-7.67139,-2.112862,28.139999,-20.790001,-23.73,1729477492998.0,0.0
-1.775474,-5.106283,-6.649654,18.27,-74.340004,-14.14,1729477493019.0,0.0
-0.543171,-7.121039,-10.327423,-19.950001,-103.599998,0.21,1729477493040.0,0.0
-4.09412,-10.159925,-13.246667,-70.699997,-23.309999,0.84,1729477493062.0,0.0
-7.84128,-11.442478,-10.375278,-67.690002,21.629999,-9.38,1729477493080.0,0.0
-6.898508,-7.125826,-9.138189,-54.18,46.759998,-7.35,1729477493100.0,0.0
-0.976272,-8.200203,-7.482357,19.879999,-1.75,13.79,1729477493118.0,0.0
0.792024,-7.855636,-5.687739,20.58,38.849998,10.64,1729477493141.0,0.0
-0.782453,-8.188239,-2.955136,7.07,79.239998,17.639999,1729477493159.0,0.0
0.131605,-8.12124,-0.648455,9.1,45.43,11.41,1729477493179.0,0.0
2.227718,-7.360322,2.498107,32.34,3.71,6.72,1729477493200.0,0.0
-0.528814,-9.60479,0.571885,20.860001,-23.24,-4.55,1729477493219.0,0.0
-3.909872,-8.338986,-1.335195,-1.82,-19.530001,-29.120001,1729477493240.0,0.0
-1.61037,-6.809973,-5.429315,28.0,-81.550003,-20.58,1729477493260.0,0.0
0.208176,-5.52742,-9.777073,17.639999,-109.199997,-13.3,1729477493279.0,0.0
-3.445665,-7.099504,-12.655639,-57.75,-71.190002,-17.85,1729477493298.0,0.0
-8.274381,-8.015956,-15.81895,-135.100006,25.969999,1.19,1729477493326.0,0.0
-4.048656,-10.815558,-14.007583,44.799999,6.72,29.75,1729477493339.0,0.0
-0.311067,-8.173882,-6.45105,161.350006,39.200001,37.029999,1729477493363.0,0.0
-2.096112,-5.565705,-2.172683,125.160004,87.150002,20.860001,1729477493384.0,0.0
-3.550949,-5.041678,0.62692,-17.57,87.290001,13.58,1729477493398.0,0.0
-1.993221,-9.437292,-2.522035,-59.779999,29.889999,18.34,1729477493419.0,0.0
1.552942,-9.635897,-0.789631,-29.26,13.16,12.88,1729477493441.0,0.0
1.462015,-10.492528,1.395016,16.450001,-9.8,10.85,1729477493459.0,0.0
-2.868994,-10.392029,-0.756132,-17.43,-15.12,-26.32,1729477493480.0,0.0
-3.433701,-9.004191,-6.369694,-15.89,-39.759998,-38.709999,1729477493501.0,0.0
-0.090927,-5.704489,-7.759924,3.22,-100.730003,-35.77,1729477493519.0,0.0
0.952343,-4.23051,-10.738988,5.11,-87.989998,-20.860001,1729477493539.0,0.0
-5.209175,-8.678767,-5.06082,-83.650002,-28.77,-3.5,1729477493561.0,0.0
-8.640482,-5.103891,-14.299508,-199.5,34.790001,-15.05,1729477493581.0,0.0
-1.464408,-8.941978,-9.777073,-85.400002,-8.05,23.66,1729477493599.0,0.0
-0.552742,-8.066205,-4.481757,69.580002,37.59,31.290001,1729477493621.0,0.0
-3.428915,-5.13739,-1.141376,14.28,82.040001,15.89,1729477493640.0,0.0
-2.677568,-7.695317,-1.995614,-43.889999,17.85,13.51,1729477493664.0,0.0
-0.043071,-8.054241,-4.007978,-56.560001,-2.24,4.48,1729477493680.0,0.0
1.502693,-8.25763,-4.699504,-35.07,-27.58,1.75,1729477493699.0,0.0
-1.469193,-11.25823,-6.860222,-19.32,-18.129999,-14.7,1729477493720.0,0.0
-3.811767,-10.083356,-8.087741,33.389999,3.29,-33.32,1729477493740.0,0.0
-1.562513,-5.295317,-8.099705,115.290001,-42.98,-32.27,1729477493761.0,0.0
0.323031,-2.210968,-9.693325,95.410004,-50.610001,-20.790001,1729477493781.0,0.0
-4.333402,-7.606783,-4.692325,-36.400002,-10.64,-13.79,1729477493801.0,0.0
-8.090133,-5.814559,-11.428121,-136.289993,48.93,-17.290001,1729477493821.0,0.0
-4.606184,-6.699903,-11.442478,-9.73,5.11,23.379999,1729477493841.0,0.0
-0.0335,-8.070991,-5.649454,82.32,18.83,30.940001,1729477493863.0,0.0
-1.737189,-7.556533,-3.364309,72.449997,57.959999,25.620001,1729477493881.0,0.0
-2.727818,-7.360322,-0.792024,-7.0,61.529999,13.58,1729477493901.0,0.0
-0.638884,-6.673582,-3.163311,-32.060001,-1.33,10.29,1729477493921.0,0.0
1.117448,-6.955935,-2.9671,-17.639999,-31.219999,11.97,1729477493941.0,0.0
-1.78026,-10.561919,-4.335794,-21.700001,-31.92,0.56,1729477493961.0,0.0
-4.572684,-10.679168,-4.682754,-5.11,-18.83,-29.049999,1729477493981.0,0.0
-2.794817,-7.896315,-5.76431,58.029999,-68.599998,-28.98,1729477494002.0,0.0
-0.165105,-4.74736,-7.295716,68.669998,-100.660004,-28.42,1729477494020.0,0.0
-1.68694,-4.512863,-10.114462,-9.52,-87.57,-16.66,1729477494044.0,0.0
-5.860023,-4.309474,-10.849058,-153.930008,-22.469999,-10.15,1729477494061.0,0.0
-6.855437,-8.396415,-13.696517,-145.669998,-6.58,4.41,1729477494081.0,0.0
-4.419543,-11.923435,-14.318651,24.99,14.84,21.77,1729477494101.0,0.0
-2.615355,-8.784052,-9.279366,185.570007,54.950001,30.870001,1729477494120.0,0.0
-2.557927,-6.635297,-3.208775,207.059998,73.5,17.639999,1729477494140.0,0.0
-2.902494,-4.316652,-1.354338,78.82,72.169998,-0.63,1729477494161.0,0.0
-1.952543,-6.417551,2.175076,-38.709999,41.580002,-1.4,1729477494180.0,0.0
-0.533599,-8.683553,-4.496114,-61.670002,-3.92,-9.03,1729477494200.0,0.0
0.62692,-8.130811,-4.534399,-21.84,-7.77,-7.56,1729477494220.0,0.0
-1.026521,-7.872386,-4.134798,10.43,-18.690001,-5.88,1729477494240.0,0.0
-4.285545,-8.279166,-4.460221,-18.549999,-3.15,-22.120001,1729477494261.0,0.0
-3.495914,-7.767102,-7.585248,-15.75,-38.920002,-25.83,1729477494281.0,0.0
-0.282353,-6.034698,-8.987441,15.61,-71.540001,-17.01,1729477494300.0,0.0
-0.722632,-7.750352,-9.796216,11.69,-46.830002,-2.87,1729477494320.0,0.0
-6.192625,-10.035499,-6.065805,-70.349998,26.040001,-9.66,1729477494342.0,0.0
-8.176274,-9.176475,-10.389636,-34.790001,43.82,-10.71,1729477494361.0,0.0
-3.5007,-7.668997,-8.463413,75.32,16.1,19.25,1729477494384.0,0.0
0.177069,-7.13779,-4.998606,109.410004,21.629999,19.74,1729477494400.0,0.0
-2.538785,-6.943972,-4.441079,56.77,75.949997,11.55,1729477494421.0,0.0
-3.701697,-6.314659,-2.065006,-16.52,78.260002,7.07,1729477494441.0,0.0
-1.294517,-6.977471,-2.986243,-18.27,18.620001,13.09,1729477494460.0,0.0
1.366302,-6.910471,-1.940579,13.23,-8.05,12.81,1729477494480.0,0.0
0.052642,-8.803195,-1.459622,19.67,-21.84,6.51,1729477494500.0,0.0
-3.5007,-9.444471,-3.993621,0.7,-11.62,-20.23,1729477494521.0,0.0
-3.369094,-8.516055,-7.41775,15.4,-39.619999,-21.07,1729477494540.0,0.0
0.916451,-5.848059,-10.497313,34.93,-83.160004,-13.58,1729477494561.0,0.0
-2.117648,-10.143176,-5.314459,-48.650002,-20.719999,-4.55,1729477494581.0,0.0
-8.623734,-10.157533,-4.85743,-67.830002,46.549999,-13.58,1729477494600.0,0.0
-6.762117,-10.648061,-10.865808,106.190002,10.43,12.88,1729477494620.0,0.0
-0.701097,-9.442079,-5.491528,170.100006,-11.55,19.6,1729477494640.0,0.0
0.641276,-8.73141,-1.684547,158.899994,13.16,16.379999,1729477494661.0,0.0
-3.177669,-8.090133,-1.842474,96.879997,50.889999,0.84,1729477494680.0,0.0
-5.343173,-9.363115,-2.947958,52.080002,33.950001,-14.28,1729477494701.0,0.0
-2.914458,-9.200402,-4.007978,48.790001,-13.58,-21.91,1729477494719.0,0.0
-1.11027,-9.133404,-3.18724,77.419998,-30.59,-19.879999,1729477494740.0,0.0
-1.160519,-7.558927,-1.770689,75.32,-22.190001,-24.780001,1729477494764.0,0.0
-1.835295,-6.69751,-1.217947,48.650002,-29.469999,-19.389999,1729477494780.0,0.0
-2.06022,-8.042276,-2.232504,41.650002,-37.310001,-6.79,1729477494800.0,0.0
-1.835295,-11.002198,-3.725625,72.169998,-37.099998,0.28,1729477494822.0,0.0
-1.940579,-11.765509,-4.115655,119.419998,-21.139999,5.53,1729477494840.0,0.0
-2.507678,-10.899307,-2.880959,145.949997,5.46,-1.96,1729477494861.0,0.0
-2.663212,-10.356135,-1.153341,148.050003,9.17,-3.78,1729477494882.0,0.0
-2.608176,-8.898908,1.775474,112.489998,6.58,-3.92,1729477494901.0,0.0
-2.739782,-7.01097,1.26341,-39.549999,-7.35,-11.97,1729477494920.0,0.0
-2.402394,-7.128219,-1.926222,-128.869995,-27.93,-9.94,1729477494941.0,0.0
-1.813759,-8.484949,-5.111069,-169.330002,-39.900002,-7.0,1729477494961.0,0.0
-1.402194,-9.98525,-6.228518,-164.360001,-34.860001,-12.39,1729477494981.0,0.0
-1.722832,-10.078569,-5.486742,-128.520004,-18.620001,-13.16,1729477495000.0,0.0
-2.041078,-10.762917,-7.420143,-26.809999,5.39,-6.93,1729477495020.0,0.0
-2.366502,-11.150554,-5.60399,115.5,25.83,3.01,1729477495053.0,0.0
-1.828116,-8.350951,-4.742575,207.619995,42.91,5.25,1729477495252.0,0.0
-2.215754,-8.355737,-1.349552,253.75,63.420002,7.35,1729477495252.0,0.0
-3.038885,-8.4347,0.488136,245.0,75.25,-1.89,1729477495252.0,0.0
-4.321437,-6.474977,5.742774,214.970001,75.529999,-8.61,1729477495253.0,0.0
-4.476971,-5.283352,5.182854,188.789993,62.16,-6.09,1729477495253.0,0.0
-3.988836,-10.100104,3.850052,142.029999,24.85,2.66,1729477495253.0,0.0
-1.605584,-12.937992,2.033899,132.369995,-12.18,-9.66,1729477495253.0,0.0
-1.004985,-10.975878,4.146761,183.399994,-21.49,-19.460001,1729477495253.0,0.0
-2.550749,-6.029913,6.709475,266.070007,9.52,-19.18,1729477495254.0,0.0
-3.194418,-4.515256,5.268995,278.459991,35.07,-17.219999,1729477495261.0,0.0
-2.088934,-5.673382,2.723032,6.65,4.97,-17.57,1729477495280.0,0.0
-1.4668,-7.015756,0.887737,-196.630005,-21.84,-0.56,1729477495299.0,0.0
-1.619941,-7.609176,0.277567,-320.040009,-28.280001,5.11,1729477495318.0,0.0
-1.782653,-7.836494,-0.90688,-371.350006,-17.360001,21.42,1729477495340.0,0.0
-1.773082,-8.114061,-1.452443,-383.950012,-16.73,26.880001,1729477495368.0,0.0
-2.103291,-8.999406,-3.912265,-391.579987,-22.610001,31.219999,1729477495384.0,0.0
-2.718246,-10.971091,-4.859823,-335.369995,-16.379999,31.219999,1729477495401.0,0.0
-3.239882,-11.236694,-6.927221,-253.050003,-3.36,26.32,1729477495421.0,0.0
-2.991028,-10.813165,-9.619147,-132.720001,7.91,24.43,1729477495441.0,0.0
-2.957529,-12.957134,-10.068997,60.41,26.530001,24.92,1729477495464.0,0.0
-3.95055,-13.9358,-7.788638,307.019989,57.889999,18.620001,1729477495483.0,0.0
-4.168297,-10.552348,-3.287738,504.140015,73.5,6.58,1729477495501.0,0.0
-2.935993,-6.704689,0.679562,590.52002,58.73,-7.07,1729477495520.0,0.0
-3.069991,-6.549156,5.029713,578.130005,46.41,-21.280001,1729477495541.0,0.0
-3.108276,-6.525227,5.345565,441.980011,23.59,-44.799999,1729477495564.0,0.0
-2.191825,-7.080362,6.015556,332.640015,11.48,-40.670002,1729477495582.0,0.0
-1.445265,-6.522834,7.645068,248.290009,13.65,-41.23,1729477495601.0,0.0
-1.004985,-5.13739,7.113862,161.0,10.29,-35.98,1729477495620.0,0.0
-1.141376,-4.579862,6.369694,56.420002,8.4,-23.870001,1729477495642.0,0.0
-2.392823,-3.433701,6.101698,-100.730003,-1.05,-8.47,1729477495662.0,0.0
-2.849852,-4.15394,5.304887,-258.720001,-21.07,11.69,1729477495681.0,0.0
-3.168097,-5.663811,4.299902,-398.369995,-43.330002,25.27,1729477495701.0,0.0
-2.402394,-6.278766,-0.184247,-520.169983,-71.610001,25.34,1729477495726.0,0.0
-1.739582,-7.834101,-3.010171,-577.150024,-77.07,24.99,1729477495741.0,0.0
-1.887937,-9.040084,-4.704289,-558.599976,-68.25,13.09,1729477495762.0,0.0
-2.512464,-11.251052,-5.005785,-449.119995,-43.75,10.08,1729477495782.0,0.0
-2.711068,-10.91845,-4.723432,-346.709991,-30.66,2.1,1729477495801.0,0.0
-2.344966,-9.628718,-5.668597,-275.519989,-32.759998,-5.53,1729477495822.0,0.0
-2.486143,-9.722038,-5.850451,-166.600006,-15.54,-6.51,1729477495842.0,0.0
-2.665605,-11.344372,-6.4678,-78.400002,-3.43,-2.94,1729477495864.0,0.0
-2.299503,-10.262815,-5.74756,-16.309999,-1.89,-5.74,1729477495893.0,0.0
-2.490928,-9.918249,-5.848059,41.860001,6.58,-2.52,1729477495984.0,0.0
-2.914458,-10.363315,-5.721239,122.5,20.790001,0.28,1729477495986.0,0.0
-2.289931,-9.437292,-5.45085,207.130005,21.84,5.81,1729477495987.0,0.0
-1.993221,-8.678767,-3.732803,278.950012,27.719999,10.29,1729477495988.0,0.0
-2.988636,-8.133204,-1.665405,299.459991,40.599998,10.36,1729477495990.0,0.0
-3.567699,-9.020942,-1.897508,296.940002,31.780001,3.08,1729477496000.0,0.0
-2.9336,-10.466206,-0.882952,288.75,16.309999,-3.71,1729477496033.0,0.0
-2.321038,-10.51167,0.071785,270.480011,16.309999,-14.35,1729477496041.0,0.0
-1.885544,-11.078769,2.033899,225.330002,16.73,-24.92,1729477496061.0,0.0
-1.117448,-11.459228,2.299503,150.009995,-3.29,-38.779999,1729477496086.0,0.0
-0.294317,-10.911271,1.751546,136.149994,-4.2,-40.459999,1729477496101.0,0.0
-0.760918,-8.587841,1.057628,183.259995,11.9,-33.18,1729477496121.0,0.0
-2.486143,-5.71406,2.720639,223.020004,26.809999,-25.200001,1729477496142.0,0.0
-2.079363,-5.989235,3.629912,209.720001,16.940001,-19.32,1729477496162.0,0.0
-1.045663,-7.039684,2.957529,136.360001,2.8,-9.52,1729477496181.0,0.0
-0.98345,-7.465607,2.957529,128.869995,7.84,2.45,1729477496202.0,0.0
-2.433501,-8.102098,3.804588,108.080002,11.69,3.64,1729477496221.0,0.0
-2.079363,-8.329416,4.773681,104.160004,3.71,3.92,1729477496241.0,0.0
-1.801795,-7.640282,5.218746,125.650002,9.03,5.25,1729477496262.0,0.0
-1.615155,-7.042077,5.879165,142.869995,16.450001,8.05,1729477496282.0,0.0
-2.37368,-6.472585,5.79063,98.489998,15.4,9.1,1729477496301.0,0.0
-2.313859,-5.867201,6.132804,22.120001,18.620001,21.84,1729477496322.0,0.0
-1.885544,-5.187639,6.302694,-103.32,17.5,26.6,1729477496342.0,0.0
-2.462214,-5.996413,5.783452,-275.519989,6.16,27.860001,1729477496362.0,0.0
-3.270989,-7.68096,5.716454,-434.910004,-23.17,18.129999,1729477496385.0,0.0
-2.529213,-10.265208,5.391029,-478.519989,-49.0,13.72,1729477496401.0,0.0
-1.567299,-10.643275,1.962115,-482.440002,-48.16,20.719999,1729477496422.0,0.0
-1.921437,-9.580862,-1.06002,-499.799988,-34.16,15.96,1729477496442.0,0.0
-2.237289,-7.592427,-4.476971,-509.110016,-23.1,8.47,1729477496461.0,0.0
-2.675175,-7.925028,-6.455836,-461.440002,-7.0,8.96,1729477496481.0,0.0
-2.469393,-12.373285,-11.892329,-366.100006,4.41,10.78,1729477496502.0,0.0
-2.277967,-15.19203,-8.860621,22.4,34.09,12.81,1729477496522.0,0.0
-2.804388,-10.037891,-3.505485,232.820007,60.830002,13.72,1729477496542.0,0.0
-3.165704,-6.618547,0.222532,343.420013,54.18,6.23,1729477496563.0,0.0
-3.089134,-6.190232,-0.035892,352.170013,27.02,5.67,1729477496581.0,0.0
-2.842674,-11.184053,0.325424,339.920013,4.34,-7.42,1729477496602.0,0.0
-2.323431,-12.691531,-0.732204,348.25,-3.99,-26.18,1729477496621.0,0.0
-2.108077,-11.868401,-0.964308,434.350006,10.78,-24.57,1729477496642.0,0.0
-2.002793,-10.29153,0.39003,525.77002,32.34,-31.43,1729477496663.0,0.0
-1.89033,-7.219146,2.359323,546.349976,56.139999,-35.77,1729477496682.0,0.0
-1.909473,-4.733003,6.235696,490.070007,67.970001,-51.380001,1729477496702.0,0.0
-2.129612,-4.773681,6.989435,294.630005,45.639999,-55.860001,1729477496721.0,0.0
-2.675175,-6.072984,6.336195,132.580002,20.370001,-35.700001,1729477496741.0,0.0
-2.404787,-5.278566,6.800402,81.340004,17.5,-29.540001,1729477496762.0,0.0
-2.124826,-3.354738,6.958328,41.580002,13.23,-21.77,1729477496781.0,0.0
-1.782653,-2.646462,7.422535,-20.299999,3.92,-0.56,1729477496801.0,0.0
-1.847259,-3.002992,7.300502,-125.160004,-3.92,15.96,1729477496822.0,0.0
-2.342573,-4.596612,6.975078,-305.059998,-14.91,34.509998,1729477496841.0,0.0
-2.639283,-6.180661,5.812167,-410.829987,-43.189999,30.450001,1729477496862.0,0.0
-1.85683,-6.082555,2.660819,-480.970001,-61.740002,35.349998,1729477496881.0,0.0
-2.931208,-9.32483,1.947758,-494.269989,-56.349998,41.16,1729477496901.0,0.0
-3.546163,-10.794022,-1.828116,-544.460022,-55.439999,12.6,1729477496922.0,0.0
-3.232704,-11.413764,-4.859823,-546.909973,-52.779999,4.97,1729477496941.0,0.0
-1.962115,-11.473583,-5.273781,-451.360016,-47.110001,7.21,1729477496963.0,0.0
-1.710868,-9.442079,-6.18784,-339.709991,-25.200001,5.18,1729477496982.0,0.0
-2.486143,-7.946564,-7.338787,-251.020004,2.59,0.98,1729477497002.0,0.0
-2.868994,-8.671589,-7.087541,-171.779999,12.18,3.01,1729477497020.0,0.0
-2.411965,-10.715059,-6.56112,-65.449997,9.24,8.19,1729477497041.0,0.0
-1.942972,-12.68196,-6.819544,103.739998,12.74,5.18,1729477497061.0,0.0
-2.007578,-11.112268,-5.347959,251.369995,22.120001,-1.4,1729477497081.0,0.0
-2.464607,-8.501699,-3.481557,355.600006,27.370001,-5.88,1729477497101.0,0.0
-2.840281,-8.62134,-1.715654,428.679993,24.92,-7.7,1729477497121.0,0.0
-3.189633,-10.619347,0.480957,487.970001,15.61,-16.52,1729477497141.0,0.0
-2.840281,-11.026128,0.677169,537.950012,-3.92,-27.299999,1729477497162.0,0.0
-1.67019,-7.855636,3.440879,582.75,27.65,-32.900002,1729477497181.0,0.0
-1.423729,-4.914857,5.783452,506.029999,40.880001,-36.540001,1729477497200.0,0.0
-1.98365,-3.605984,7.070791,304.5,20.65,-33.670002,1729477497222.0,0.0
-1.462015,-7.32443,4.735396,108.150002,-6.93,-16.799999,1729477497242.0,0.0
-1.351945,-7.88435,3.65384,62.720001,3.57,-13.93,1729477497263.0,0.0
-2.021935,-5.163712,5.577669,83.160004,23.66,-18.27,1729477497281.0,0.0
-1.761117,-4.053442,6.283553,40.040001,23.73,-10.01,1729477497300.0,0.0
-1.801795,-3.586841,7.008578,-56.560001,16.450001,0.98,1729477497320.0,0.0
-2.165504,-4.862216,6.958328,-158.059998,8.05,19.110001,1729477497342.0,0.0
-2.419144,-6.642475,6.07777,-263.619995,-7.49,23.66,1729477497362.0,0.0
-1.976472,-7.814958,5.85763,-341.880005,-20.09,18.129999,1729477497385.0,0.0
-1.399801,-8.441878,4.778467,-402.01001,-38.220001,17.219999,1729477497408.0,0.0
-1.962115,-8.336594,3.196811,-470.610016,-49.700001,21.559999,1729477497420.0,0.0
-2.596212,-9.52822,0.61017,-519.679993,-57.82,13.02,1729477497442.0,0.0
-3.397808,-9.62154,-2.096112,-553.700012,-54.110001,1.75,1729477497462.0,0.0
-3.081956,-9.382257,-5.106283,-523.320007,-51.59,-7.63,1729477497482.0,0.0
-2.103291,-8.013563,-6.9009,-379.119995,-37.029999,-7.35,1729477497501.0,0.0
-2.569891,-8.504091,-8.49452,-260.959991,-9.8,-4.55,1729477497521.0,0.0
-2.725425,-9.116654,-8.664411,-163.309998,10.29,-3.85,1729477497542.0,0.0
-1.935793,-10.133603,-7.503892,-49.77,11.48,3.15,1729477497563.0,0.0
-1.555335,-10.542776,-6.652047,87.57,16.450001,4.83,1729477497583.0,0.0
-2.021935,-10.080962,-6.415157,222.040009,28.07,2.8,1729477497601.0,0.0
-2.548356,-9.006584,-4.859823,337.890015,34.02,3.57,1729477497621.0,0.0
-2.517249,-8.769694,-2.163112,422.799988,33.950001,3.57,1729477497642.0,0.0
-2.301895,-8.803195,-0.428315,465.429993,28.139999,-1.89,1729477497664.0,0.0
-2.768496,-8.102098,0.583849,472.360016,28.84,-8.4,1729477497681.0,0.0
-3.881158,-11.260624,2.072184,473.339996,15.54,-16.030001,1729477497701.0,0.0
-1.083949,-12.990634,1.165305,466.690002,-4.69,-43.540001,1729477497722.0,0.0
0.028714,-9.403792,3.09392,465.360016,34.23,-37.170002,1729477497742.0,0.0
-1.136591,-5.233103,6.692725,451.98999,55.720001,-43.75,1729477497766.0,0.0
-1.57687,-3.321238,6.683154,282.23999,29.540001,-41.580002,1729477497783.0,0.0
-1.117448,-6.391229,5.106283,69.93,-3.5,-24.08,1729477497802.0,0.0
-1.189233,-5.991628,5.338387,68.110001,11.55,-25.200001,1729477497822.0,0.0
-1.174876,-4.331009,6.288338,66.43,18.76,-15.12,1729477497843.0,0.0
-1.004985,-4.158726,6.486942,38.990002,15.75,-1.54,1729477497863.0,0.0
-1.658226,-4.828716,6.63769,10.5,14.42,11.41,1729477497883.0,0.0
-1.859223,-4.788038,6.999006,-41.439999,16.73,26.809999,1729477497902.0,0.0
-1.832902,-4.589434,6.317052,-142.729996,15.96,38.080002,1729477497922.0,0.0
-2.809174,-4.517649,6.599405,-272.860016,6.72,44.029999,1729477497943.0,0.0
-3.17049,-6.415157,6.348158,-368.829987,-15.33,43.75,1729477497963.0,0.0
-2.938386,-8.556733,5.257031,-447.089996,-43.330002,34.650002,1729477497982.0,0.0
-2.770889,-9.815358,4.307081,-501.410004,-63.139999,35.490002,1729477498002.0,0.0
-2.660819,-10.743774,1.351945,-529.47998,-72.870003,28.07,1729477498022.0,0.0
-2.904887,-9.181261,-1.842474,-562.169983,-68.110001,13.3,1729477498042.0,0.0
-2.414358,-7.889136,-6.092126,-516.73999,-60.830002,1.68,1729477498063.0,0.0
-2.502892,-8.595018,-8.310273,-418.950012,-46.689999,-1.54,1729477498085.0,0.0
-2.959922,-9.944571,-10.695917,-297.360016,-8.96,-8.33,1729477498102.0,0.0
-2.474179,-14.933606,-9.296116,63.490002,27.16,2.8,1729477498127.0,0.0
-2.254039,-11.56451,-4.785645,290.920013,47.25,4.48,1729477498142.0,0.0
-2.751746,-7.259824,-0.899701,432.809998,53.27,0.7,1729477498163.0,0.0
-3.029313,-6.259624,-0.830309,483.279999,42.560001,-0.84,1729477498182.0,0.0
-2.531606,-8.035098,1.332802,488.880005,26.880001,-7.42,1729477498201.0,0.0
-1.765903,-9.202796,2.031506,471.029999,9.8,-12.04,1729477498222.0,0.0
-1.598405,-11.047661,2.622534,469.910004,20.299999,-30.309999,1729477498243.0,0.0
-1.842474,-10.540384,2.919244,486.01001,22.889999,-38.990002,1729477498263.0,0.0
-1.835295,-5.946165,5.541777,513.23999,57.470001,-38.290001,1729477498282.0,0.0
-2.328217,-1.4668,8.60459,386.119995,60.130001,-48.23,1729477498303.0,0.0
-2.021935,-3.26381,8.032705,156.169998,18.41,-33.459999,1729477498322.0,0.0
-2.108077,-5.883951,5.422136,44.73,7.21,-21.629999,1729477498342.0,0.0
-2.462214,-3.517449,5.974878,17.219999,19.530001,-17.15,1729477498364.0,0.0
-2.172683,-2.514857,7.458428,-37.029999,21.700001,-0.77,1729477498387.0,0.0
-2.541178,-2.505285,7.283752,-160.930008,15.82,17.290001,1729477498403.0,0.0
-3.34038,-4.326223,7.123433,-297.149994,-1.4,34.650002,1729477498422.0,0.0
-2.993421,-7.879565,5.771489,-419.369995,-33.25,28.77,1729477498442.0,0.0
-2.179861,-10.992627,4.283153,-511.839996,-77.980003,21.700001,1729477498462.0,0.0
-1.48355,-13.892728,1.706082,-494.76001,-83.090004,13.02,1729477498482.0,0.0
-1.141376,-13.55534,-0.133998,-423.220001,-62.650002,-1.89,1729477498501.0,0.0
-1.770689,-9.975677,-2.809174,-381.5,-30.24,-13.37,1729477498521.0,0.0
-2.007578,-7.444071,-4.900501,-354.549988,-22.889999,-25.620001,1729477498542.0,0.0
-1.801795,-8.298308,-6.008378,-316.399994,-17.99,-25.27,1729477498563.0,0.0
-1.533799,-10.090532,-6.728617,-229.600006,-1.89,-21.49,1729477498582.0,0.0
-1.916651,-10.803595,-6.161518,-91.910004,19.950001,-16.59,1729477498602.0,0.0
-2.254039,-9.851252,-5.101498,46.689999,28.84,-10.78,1729477498621.0,0.0
-1.998007,-10.485349,-5.288138,184.380005,26.6,-9.1,1729477498649.0,0.0
-2.258825,-11.018949,-4.31426,321.860016,36.68,-12.6,1729477498665.0,0.0
-3.242275,-10.325029,-2.26361,436.100006,52.709999,-20.58,1729477498682.0,0.0
-3.292524,-9.059227,0.660419,520.869995,48.720001,-28.210001,1729477498702.0,0.0
-1.978864,-7.243074,2.423929,563.429993,30.799999,-26.18,1729477498722.0,0.0
-2.122434,-6.429514,5.115855,591.01001,33.110001,-38.920002,1729477498746.0,0.0
-0.617348,-4.015156,4.807181,575.049988,34.720001,-39.48,1729477498763.0,0.0
-1.643869,-3.661019,9.726824,431.339996,46.34,-33.670002,1729477498783.0,0.0
-2.545963,-6.4678,10.212566,0.07,-27.370001,-21.49,1729477498801.0,0.0
-1.837688,-7.326823,7.848458,-133.770004,-39.48,-24.639999,1729477498821.0,0.0
-1.282553,-5.333601,6.776474,-151.619995,-32.48,-21.700001,1729477498842.0,0.0
-1.299303,-4.733003,6.013163,-133.139999,-31.15,-6.44,1729477498862.0,0.0
-1.256232,-5.972485,5.546563,-129.430008,-32.689999,-3.08,1729477498882.0,0.0
-1.09352,-7.700103,4.256832,-129.850006,-34.509998,-8.12,1729477498902.0,0.0
-0.617348,-8.874979,4.469792,-98.209999,-24.290001,-9.59,1729477498922.0,0.0
-0.059821,-8.470592,5.06082,-29.960001,-6.3,0.28,1729477498941.0,0.0
-0.437887,-7.740781,6.218946,42.700001,13.79,13.09,1729477498962.0,0.0
-0.090927,-6.628119,7.45125,74.410004,8.4,3.5,1729477498982.0,0.0
0.835095,-7.207181,4.352544,47.32,10.15,1.4,1729477499001.0,0.0
1.244268,-8.530413,0.052642,-24.5,33.810001,-23.379999,1729477499021.0,0.0
-0.459422,-8.611769,-1.356731,-72.379997,47.529999,-24.780001,1729477499041.0,0.0
-1.715654,-10.4016,4.82393,-2.31,48.93,-8.19,1729477499062.0,0.0
0.411566,-9.059227,6.608976,93.449997,55.510002,2.45,1729477499082.0,0.0
-0.090927,-5.867201,6.474977,159.529999,76.510002,2.73,1729477499101.0,0.0
-1.01695,-1.177269,6.338587,145.949997,71.610001,23.24,1729477499121.0,0.0
-2.318645,-2.330609,7.300502,-16.52,65.029999,40.110001,1729477499142.0,0.0
-3.876373,-5.668597,7.255038,-155.680008,35.560001,43.610001,1729477499163.0,0.0
-2.811567,-8.80798,6.549156,-206.009995,-3.22,45.990002,1729477499182.0,0.0
-1.914258,-9.611969,6.020342,-213.080002,10.85,48.16,1729477499202.0,0.0
-1.562513,-7.984849,7.458428,-184.029999,2.66,49.279999,1729477499223.0,0.0
-4.498507,-9.990034,8.432307,-158.619995,-15.190001,49.209999,1729477499241.0,0.0
-4.139583,-13.674981,5.091926,-97.720001,-43.68,7.77,1729477499263.0,0.0
-2.344966,-12.464212,3.787838,-57.400002,-29.889999,20.299999,1729477499282.0,0.0
-0.677169,-11.540584,2.892922,-17.15,-26.389999,10.01,1729477499301.0,0.0
-1.878366,-11.085947,1.426122,-24.780001,-7.21,-5.32,1729477499323.0,0.0
-3.24706,-12.078968,0.899701,2.1,10.71,-17.43,1729477499341.0,0.0
-2.737389,-10.04507,1.789831,71.470001,16.59,-13.23,1729477499363.0,0.0
-2.804388,-7.798209,2.196611,114.590004,31.57,-2.45,1729477499386.0,0.0
-4.06062,-6.333801,2.739782,96.949997,36.540001,-2.87,1729477499401.0,0.0
-4.407579,-6.02752,2.486143,41.860001,29.26,-7.28,1729477499421.0,0.0
-4.206582,-8.025528,2.969493,-4.06,16.17,-16.17,1729477499442.0,0.0
-4.082155,-10.571491,2.711068,-6.02,-6.58,-34.650002,1729477499462.0,0.0
-2.907279,-10.956735,2.981457,58.66,-13.79,-37.380001,1729477499481.0,0.0
-1.490728,-8.937192,4.04387,130.759995,0.35,-19.6,1729477499503.0,0.0
-1.17009,-5.800202,5.010571,155.470001,20.58,-8.54,1729477499521.0,0.0
-1.878366,-9.190832,6.412765,149.869995,12.88,-23.940001,1729477499542.0,0.0
0.193819,-8.685946,5.541777,133.559998,-14.49,-43.470001,1729477499562.0,0.0
0.222532,-6.556334,7.628319,209.300003,22.190001,-24.290001,1729477499581.0,0.0
-1.538585,-3.519842,8.640482,202.440002,29.120001,-23.030001,1729477499601.0,0.0
-2.15354,-3.156133,8.173882,114.449997,8.47,-18.969999,1729477499621.0,0.0
-2.447858,-4.82393,7.980063,20.23,-10.08,-3.36,1729477499641.0,0.0
-2.600998,-4.646862,8.293523,-16.379999,-9.1,-0.21,1729477499662.0,0.0
-3.61077,-3.476771,7.850852,-40.950001,8.82,18.620001,1729477499682.0,0.0
-3.696911,-3.921836,9.183653,-108.639999,10.92,24.92,1729477499701.0,0.0
-2.270789,-4.735396,7.594819,-219.729996,-10.29,36.82,1729477499721.0,0.0
-1.208375,-5.190032,6.647261,-303.869995,-34.299999,51.59,1729477499742.0,0.0
-0.153141,-7.704889,3.656233,-286.230011,-46.41,59.5,1729477499762.0,0.0
-1.68694,-10.171888,2.517249,-203.0,-36.330002,33.740002,1729477499781.0,0.0
-3.127419,-10.226924,1.713261,-120.82,-1.33,34.09,1729477499801.0,0.0
-3.936193,-11.267801,0.133998,-120.050003,24.290001,6.51,1729477499822.0,0.0
-3.862016,-11.361122,1.545763,-84.769997,27.09,12.04,1729477499841.0,0.0
-2.488536,-9.224331,3.34038,-13.79,29.610001,13.93,1729477499863.0,0.0
-3.010171,-8.714661,3.244668,-3.78,32.48,20.790001,1729477499881.0,0.0
-3.101098,-10.277173,2.378466,-38.990002,18.83,10.64,1729477499901.0,0.0
-2.151148,-10.829915,1.789831,-36.75,3.43,-3.43,1729477499922.0,0.0
-3.476771,-9.96132,1.26341,5.04,14.28,-13.86,1729477499941.0,0.0
-3.675375,-9.243474,1.557728,21.139999,9.66,-19.950001,1729477499962.0,0.0
-3.84048,-10.205389,1.079163,16.1,13.58,-34.02,1729477499982.0,0.0
-3.632305,-12.177074,0.859023,57.189999,2.31,-52.57,1729477500001.0,0.0
-2.096112,-10.770095,1.26341,132.860001,-9.38,-46.200001,1729477500021.0,0.0
-1.064806,-7.633104,3.369094,207.619995,11.97,-29.26,1729477500042.0,0.0
-1.988436,-6.910471,3.735196,235.199997,32.27,-32.130001,1729477500124.0,0.0
-3.098706,-9.903893,4.189832,217.279999,17.5,-51.869999,1729477500125.0,0.0
-0.878166,-7.606783,6.041877,225.960007,1.61,-55.369999,1729477500130.0,0.0
-2.158326,-2.366502,8.606983,275.309998,46.549999,-29.33,1729477500130.0,0.0
-2.938386,-0.775275,10.377672,190.610001,23.030001,-36.330002,1729477500141.0,0.0
-2.512464,-3.134598,9.004191,57.75,-8.68,-8.26,1729477500172.0,0.0
-2.222932,-5.95095,7.838887,-21.84,-22.120001,6.09,1729477500182.0,0.0
-2.550749,-5.630312,7.939385,-41.09,-12.32,2.24,1729477500201.0,0.0
-3.254239,-5.230711,9.858429,-67.760002,-0.98,11.13,1729477500221.0,0.0
-2.78046,-4.007978,9.152546,-157.080002,-7.98,11.34,1729477500241.0,0.0
-2.411965,-2.598605,6.69751,-246.050003,-12.53,26.460001,1729477500262.0,0.0
-1.849652,-4.584648,4.496114,-302.399994,-31.290001,34.369999,1729477500282.0,0.0
-1.316052,-8.130811,2.333002,-311.98999,-45.849998,27.16,1729477500301.0,0.0
-1.363909,-9.932607,1.359123,-245.559998,-28.0,21.35,1729477500321.0,0.0
-2.289931,-9.083155,1.555335,-143.639999,2.31,46.900002,1729477500342.0,0.0
-2.854637,-8.822337,1.526621,-108.639999,26.67,56.700001,1729477500362.0,0.0
-2.574677,-9.224331,1.131805,-129.850006,26.18,28.98,1729477500384.0,0.0
-2.902494,-11.052447,1.069592,-132.509995,19.110001,29.190001,1729477500401.0,0.0
-3.531806,-11.358729,1.588834,-104.019997,14.98,19.460001,1729477500421.0,0.0
-4.09412,-11.600404,0.789631,-57.68,10.15,14.07,1729477500441.0,0.0
-3.385844,-11.322837,-0.282353,-13.23,1.89,-8.82,1729477500461.0,0.0
-2.646462,-10.765309,-0.378066,37.450001,-3.64,-14.28,1729477500481.0,0.0
-2.172683,-10.451849,-0.430708,69.93,2.8,-19.74,1729477500500.0,0.0
-2.691926,-11.74158,-0.124427,123.199997,17.710001,-32.619999,1729477500522.0,0.0
-2.021935,-11.12184,0.256032,226.240005,12.81,-45.639999,1729477500541.0,0.0
-0.708275,-6.128019,2.586641,310.869995,40.880001,-20.65,1729477500564.0,0.0
-1.672583,-3.069991,5.410172,349.019989,67.340004,2.03,1729477500581.0,0.0
-3.4672,-5.778666,8.920443,315.209991,40.950001,-36.330002,1729477500601.0,0.0
-2.294717,-5.577669,7.558927,210.699997,-6.44,-45.849998,1729477500621.0,0.0
-1.76351,-6.185446,8.829515,187.740005,7.98,-2.03,1729477500641.0,0.0
-1.895115,-4.587041,9.62154,112.489998,6.3,-14.84,1729477500663.0,0.0
-3.031706,-4.728218,7.956135,19.809999,-10.15,-12.95,1729477500681.0,0.0
-3.010171,-6.15434,6.429514,-12.39,-18.129999,0.21,1729477500701.0,0.0
-2.720639,-6.125626,8.207381,-2.38,-6.23,-2.31,1729477500721.0,0.0
-3.888337,-4.465007,9.188439,-27.02,8.19,6.65,1729477500741.0,0.0
-3.862016,-3.988836,9.193225,-112.0,2.38,14.84,1729477500763.0,0.0
-2.955136,-3.120241,7.757531,-229.25,-8.4,22.610001,1729477500781.0,0.0
-1.57687,-5.539384,4.426722,-333.549988,-36.75,35.209999,1729477500800.0,0.0
-1.603191,-7.726424,0.607777,-311.5,-35.77,40.670002,1729477500822.0,0.0
-1.636691,-11.913863,0.602991,-183.960007,-20.23,16.66,1729477500841.0,0.0
-2.074577,-9.899107,2.842674,-96.599998,5.11,23.73,1729477500861.0,0.0
-2.620141,-7.267002,3.407379,-76.160004,22.33,47.670002,1729477500881.0,0.0
-2.447858,-8.085347,1.028914,-123.970001,11.41,27.370001,1729477500900.0,0.0
-3.213561,-10.715059,-0.289532,-155.610001,11.55,15.05,1729477500921.0,0.0
-3.220739,-12.942777,0.459422,-100.029999,12.81,9.1,1729477500942.0,0.0
-3.632305,-11.41855,1.318445,-34.860001,27.16,9.87,1729477500963.0,0.0
-4.354938,-10.10489,1.550549,15.4,29.190001,10.57,1729477500981.0,0.0
-4.575077,-10.504492,0.859023,21.91,16.450001,-6.09,1729477501000.0,0.0
-3.814159,-11.129018,-0.145962,31.5,7.77,-15.190001,1729477501020.0,0.0
-3.510271,-11.619547,-0.086142,73.5,5.95,-20.370001,1729477501041.0,0.0
-3.041277,-11.760723,0.272782,147.770004,6.72,-36.75,1729477501062.0,0.0
-1.667797,-9.616754,1.359123,232.259995,4.34,-44.59,1729477501081.0,0.0
-1.718047,-6.71426,2.928815,276.079987,34.369999,-32.830002,1729477501101.0,0.0
-3.189633,-8.673983,6.350551,274.329987,30.17,-36.610001,1729477501122.0,0.0
-0.748954,-7.549356,5.321638,242.339996,-9.66,-61.25,1729477501141.0,0.0
-1.146162,-5.003392,7.573284,304.570007,26.809999,-29.610001,1729477501161.0,0.0
-2.87378,-1.837688,9.193225,268.029999,27.02,-38.150002,1729477501183.0,0.0
-3.455236,-1.103091,9.085547,117.809998,0.84,-33.110001,1729477501200.0,0.0
-2.909672,-3.541377,7.578069,0.21,-21.210001,1.4,1729477501220.0,0.0
-3.335595,-5.065606,7.377072,-31.08,-15.4,13.16,1729477501241.0,0.0
-3.74716,-4.515256,7.779066,-33.740002,-2.24,11.41,1729477501261.0,0.0
-3.321238,-4.87418,8.405986,-75.949997,0.84,15.4,1729477501281.0,0.0
-1.897508,-5.005785,7.750352,-164.710007,-6.16,17.780001,1729477501301.0,0.0
-1.5003,-4.76411,5.752346,-256.899994,-14.98,21.42,1729477501320.0,0.0
-2.22054,-5.577669,4.448257,-295.329987,-23.030001,27.790001,1729477501341.0,0.0
-3.251846,-7.781459,3.84048,-272.160004,-33.810001,29.190001,1729477501362.0,0.0
-3.842873,-9.29133,4.572684,-213.430008,-30.380001,37.52,1729477501384.0,0.0
-2.194218,-8.662018,5.201996,-177.240005,-15.89,42.630001,1729477501401.0,0.0
-1.09352,-8.638089,2.854637,-194.880005,-13.37,37.029999,1729477501420.0,0.0
-1.430908,-11.124231,-0.026321,-209.509995,-20.440001,12.53,1729477501440.0,0.0
-3.194418,-13.471591,-0.535992,-194.809998,-8.61,-7.28,1729477501461.0,0.0
-3.35713,-11.124231,0.454636,-99.260002,0.63,-14.56,1729477501481.0,0.0
-3.503092,-9.473185,0.512064,-20.09,5.18,-7.42,1729477501501.0,0.0
-4.151547,-9.020942,-0.495314,14.63,16.870001,-9.45,1729477501521.0,0.0
-3.897908,-10.504492,-1.069592,24.57,13.65,-19.950001,1729477501541.0,0.0
-2.986243,-12.550355,-1.40698,29.4,3.22,-30.1,1729477501564.0,0.0
-2.158326,-14.000405,-1.071985,104.440002,5.25,-45.57,1729477501581.0,0.0
-1.038485,-11.88515,-0.691526,240.169998,9.87,-48.720001,1729477501600.0,0.0
-0.567099,-7.066005,1.28016,336.630005,47.880001,-24.5,1729477501621.0,0.0
-2.605784,-6.439085,4.677969,354.339996,64.400002,-21.91,1729477501640.0,0.0
-0.918844,-8.219346,5.831308,333.76001,4.55,-80.639999,1729477501661.0,0.0
-0.646062,-4.804788,6.204589,321.160004,20.860001,-56.209999,1729477501681.0,0.0
-1.902294,-1.969293,8.982656,335.579987,38.990002,-27.860001,1729477501701.0,0.0
-2.481357,1.071985,9.903893,198.869995,15.33,-32.41,1729477501721.0,0.0
-2.610569,-1.366302,8.606983,24.85,-17.99,2.31,1729477501740.0,0.0
-2.825923,-4.957928,6.955935,-100.800003,-35.77,20.790001,1729477501761.0,0.0
-3.4672,-6.209375,6.69751,-157.289993,-20.370001,24.92,1729477501781.0,0.0
-2.574677,-5.379066,7.030113,-187.880005,-6.93,26.389999,1729477501801.0,0.0
-1.785046,-5.242674,6.553941,-233.240005,-12.11,35.700001,1729477501820.0,0.0
-1.617548,-6.537192,4.682754,-250.600006,-25.76,39.200001,1729477501842.0,0.0
-2.273181,-8.652447,3.524628,-238.699997,-27.23,34.790001,1729477501861.0,0.0
-2.699104,-9.355937,2.227718,-211.539993,-27.02,26.6,1729477501880.0,0.0
-2.502892,-10.097712,3.034099,-177.589996,-10.64,40.040001,1729477501901.0,0.0
-1.596013,-11.705689,1.691726,-174.720001,-9.73,23.870001,1729477501920.0,0.0
-1.978864,-12.253645,0.588634,-167.580002,-5.32,2.8,1729477501941.0,0.0
-2.675175,-11.665009,1.134198,-126.349998,-1.05,-4.83,1729477501961.0,0.0
-2.986243,-9.889536,1.648655,-89.389999,-3.64,-3.85,1729477501981.0,0.0
-3.074777,-9.832108,0.756132,-65.940002,-9.45,-4.27,1729477502000.0,0.0
-2.98385,-10.356135,-0.452243,-62.439999,-7.98,-14.28,1729477502020.0,0.0
-2.964707,-10.650455,-1.423729,-51.59,-1.19,-19.879999,1729477502040.0,0.0
-2.340181,-11.018949,-1.600798,-14.49,0.28,-26.18,1729477502062.0,0.0
-2.014757,-11.909079,-1.182054,29.469999,7.35,-33.25,1729477502080.0,0.0
-1.67019,-12.074183,-0.770489,105.0,13.37,-41.299999,1729477502100.0,0.0
-0.81356,-10.892128,-0.004786,232.960007,18.76,-38.849998,1729477502120.0,0.0
-0.526421,-6.522834,1.012164,374.149994,42.560001,-9.17,1729477502140.0,0.0
-1.859223,-6.4343,4.553542,362.25,55.510002,-17.290001,1729477502161.0,0.0
-0.993021,-8.221739,4.424329,309.75,12.81,-59.010002,1729477502180.0,0.0
-0.504886,-5.486742,6.762117,310.519989,20.65,-47.529999,1729477502200.0,0.0
-1.648655,-2.251646,9.169296,323.890015,42.560001,-20.790001,1729477502220.0,0.0
-2.254039,0.928415,10.454242,188.789993,24.01,-27.02,1729477502241.0,0.0
-1.832902,-1.241875,9.420543,14.56,-14.42,6.51,1729477502263.0,0.0
-2.062613,-5.194818,7.130611,-118.370003,-36.610001,28.630001,1729477502280.0,0.0
-3.046063,-7.298109,6.541977,-175.490005,-32.900002,18.27,1729477502300.0,0.0
-3.359523,-7.101898,6.195018,-211.680008,-19.110001,12.11,1729477502321.0,0.0
-2.45025,-6.611369,5.946165,-233.029999,-14.49,20.65,1729477502340.0,0.0
-1.361516,-6.477371,5.773881,-248.5,-16.379999,27.299999,1729477502361.0,0.0
-0.933201,-7.228717,4.84068,-258.790009,-22.960001,32.759998,1729477502383.0,0.0
-1.361516,-8.01117,3.876373,-266.559998,-28.07,35.490002,1729477502400.0,0.0
-1.337588,-8.518449,1.945365,-256.899994,-22.75,26.809999,1729477502421.0,0.0
-2.261217,-9.226725,1.672583,-228.550003,-19.040001,30.1,1729477502440.0,0.0
-2.600998,-10.803595,0.81356,-195.720001,-14.56,29.68,1729477502460.0,0.0
-2.457429,-10.997414,-0.028714,-173.809998,-11.48,20.23,1729477502480.0,0.0
-2.459821,-10.743774,-0.181855,-145.529999,-13.09,19.74,1729477502500.0,0.0
-2.368894,-10.683953,-1.452443,-106.050003,-6.65,16.940001,1729477502520.0,0.0
-2.646462,-11.222338,-2.828316,-66.5,4.62,8.68,1729477502540.0,0.0
-2.758924,-12.318252,-3.565305,-20.58,6.44,-4.34,1729477502561.0,0.0
-2.177469,-13.447663,-3.565305,45.150002,3.57,-14.42,1729477502580.0,0.0
-1.165305,-13.947763,-3.206382,147.699997,10.99,-24.290001,1729477502601.0,0.0
-0.538385,-11.899508,-2.172683,270.410004,30.73,-26.389999,1729477502620.0,0.0
-0.59342,-8.276773,-0.308674,384.929993,55.860001,-17.01,1729477502640.0,0.0
-2.105684,-6.786045,3.445665,445.200012,63.279999,-12.25,1729477502660.0,0.0
-1.505085,-6.45105,4.271189,453.459991,35.279999,-43.189999,1729477502681.0,0.0
-1.988436,-4.682754,6.163911,427.140015,40.110001,-45.150002,1729477502701.0,0.0
-2.634498,-1.87358,8.803195,378.140015,39.41,-30.73,1729477502720.0,0.0
-2.775674,0.12682,10.942378,220.430008,22.469999,-27.440001,1729477502967.0,0.0
-2.502892,-1.447658,9.178867,15.89,-22.75,3.99,1729477502972.0,0.0
-2.344966,-4.711468,6.400801,-113.120003,-42.77,20.65,1729477502978.0,0.0
-2.553142,-7.862815,6.254838,-128.240005,-37.59,17.5,1729477502980.0,0.0
-2.78046,-7.073184,7.721639,-94.360001,-6.37,14.28,1729477502981.0,0.0
-2.871387,-6.022735,8.470592,-119.0,-2.87,22.610001,1729477502981.0,0.0
-1.926222,-5.592027,6.116055,-172.830002,-9.17,23.52,1729477502981.0,0.0
-1.301696,-6.221339,5.125426,-212.589996,-20.16,21.42,1729477502982.0,0.0
-1.356731,-7.331609,4.510471,-219.660004,-30.24,30.52,1729477502982.0,0.0
-1.433301,-8.336594,3.177669,-195.300003,-25.34,30.24,1729477502982.0,0.0
-1.5003,-9.585647,2.730211,-152.039993,-14.0,29.889999,1729477502983.0,0.0
-1.79701,-9.308081,2.402394,-122.080002,-6.37,31.290001,1729477502983.0,0.0
-2.545963,-9.260223,2.833102,-99.400002,1.96,35.91,1729477502983.0,0.0
-2.311467,-10.061819,2.273181,-91.349998,2.03,28.630001,1729477502999.0,0.0
-2.510071,-10.317852,2.462214,-98.840004,0.28,22.75,1729477503019.0,0.0
-2.742175,-10.657632,2.124826,-92.470001,-4.55,14.14,1729477503040.0,0.0
-3.103491,-10.691131,2.493321,-74.830002,-4.13,5.88,1729477503063.0,0.0
-3.218346,-10.38485,1.988436,-63.0,-3.15,3.15,1729477503081.0,0.0
-3.232704,-9.509077,0.449851,-64.540001,-0.91,-2.17,1729477503101.0,0.0
-3.089134,-10.51167,-0.909273,-48.439999,7.0,-10.01,1729477503120.0,0.0
-3.292524,-11.629118,-0.617348,-31.57,9.24,-13.23,1729477503145.0,0.0
-2.557927,-12.129218,-0.937986,-4.62,6.3,-18.129999,1729477503164.0,0.0
-1.957329,-12.729815,-1.502693,51.099998,21.280001,-27.16,1729477503291.0,0.0
-1.493121,-12.129218,-1.481157,158.619995,29.4,-41.790001,1729477503292.0,0.0
-0.167498,-8.760124,-0.624527,283.079987,44.59,-32.41,1729477503294.0,0.0
-2.227718,-6.888937,5.551349,326.970001,58.939999,-15.05,1729477503295.0,0.0
-2.524428,-6.54437,7.838887,283.640015,8.33,-53.549999,1729477503295.0,0.0
-1.294517,-5.625526,5.498707,231.559998,4.2,-62.02,1729477503295.0,0.0
-1.414158,-5.611169,6.448657,236.880005,8.82,-29.540001,1729477503301.0,0.0
-1.540978,-4.37408,8.305488,205.869995,-5.32,-26.389999,1729477503321.0,0.0
-2.079363,-3.63709,8.197811,128.029999,-11.83,-22.82,1729477503346.0,0.0
-2.304288,-3.864408,7.300502,55.580002,-15.75,-8.4,1729477503366.0,0.0
-2.100898,-4.541577,7.211967,19.18,-14.07,0.42,1729477503384.0,0.0
-2.89053,-4.204189,7.862815,-83.720001,0.91,14.91,1729477503401.0,0.0
-2.770889,-4.522435,6.831509,-181.649994,-8.33,21.91,1729477503420.0,0.0
-1.533799,-5.816952,5.278566,-239.610001,-17.15,26.389999,1729477503441.0,0.0
-0.949951,-6.204589,3.761517,-275.170013,-18.34,30.309999,1729477503463.0,0.0
-1.265803,-7.465607,3.014957,-266.769989,-15.190001,41.650002,1729477503482.0,0.0
-1.940579,-9.128618,2.912065,-243.180008,-14.14,41.790001,1729477503501.0,0.0
-2.167897,-11.423335,2.39043,-204.330002,-26.040001,33.459999,1729477503521.0,0.0
-2.199004,-12.03829,2.490928,-165.690002,-21.42,27.370001,1729477503541.0,0.0
-2.268396,-10.734202,2.388037,-138.809998,-11.34,29.26,1729477503565.0,0.0
-2.342573,-9.712467,1.794617,-112.419998,-7.49,25.83,1729477503591.0,0.0
-2.744568,-10.169496,0.418744,-106.050003,-3.15,17.290001,1729477503608.0,0.0
-3.251846,-11.430513,-0.600598,-113.470001,-7.35,4.62,1729477503622.0,0.0
-3.361916,-11.899508,-2.129612,-93.449997,-5.53,-7.56,1729477503641.0,0.0
-3.701697,-12.973885,-3.460021,6.51,11.41,-20.58,1729477503661.0,0.0
-3.333202,-14.677574,-2.366502,172.690002,19.110001,-36.189999,1729477503681.0,0.0
-1.854438,-12.071791,-0.885344,295.610016,8.89,-25.059999,1729477503701.0,0.0
-0.416351,-5.71406,2.455036,368.619995,36.75,-21.42,1729477503721.0,0.0
-1.540978,-3.452843,4.957928,354.970001,61.950001,-16.450001,1729477503741.0,0.0
-2.938386,-4.742575,7.484749,272.860016,26.809999,-19.25,1729477503763.0,0.0
-1.947758,-8.79123,7.771888,170.309998,-21.280001,-34.93,1729477503782.0,0.0
0.832702,-9.305687,6.577869,136.080002,-18.9,-46.27,1729477503801.0,0.0
-0.150748,-6.659225,7.721639,205.100006,20.440001,-28.35,1729477503822.0,0.0
-2.344966,-1.988436,8.482556,203.419998,26.25,-25.27,1729477503842.0,0.0
-2.385644,-1.435694,8.425128,105.910004,1.68,-19.74,1729477503863.0,0.0
-1.569692,-3.9673,7.121039,3.43,-19.32,2.8,1729477503882.0,0.0
-2.227718,-5.946165,7.111469,-22.4,-15.68,10.85,1729477503901.0,0.0
-2.691926,-5.687739,6.640083,-26.460001,-3.22,14.49,1729477503922.0,0.0
-2.072184,-4.816752,6.329016,-51.099998,1.89,22.610001,1729477503941.0,0.0
-2.433501,-6.116055,6.752545,-83.510002,-0.07,32.830002,1729477503962.0,0.0
-2.557927,-7.144968,6.532406,-103.879997,-6.65,25.620001,1729477503982.0,0.0
-2.505285,-7.836494,6.283553,-91.980003,-8.89,25.27,1729477504003.0,0.0
-2.715853,-7.467999,6.295516,-65.800003,-9.1,27.65,1729477504021.0,0.0
-2.756532,-7.334002,7.178468,-44.869999,-17.43,33.599998,1729477504041.0,0.0
-2.443072,-6.005985,6.867401,-50.540001,-28.630001,36.75,1729477504063.0,0.0
-2.775674,-5.213961,6.628119,-89.389999,-35.07,44.66,1729477504082.0,0.0
-3.84048,-4.036692,5.692525,-171.710007,-34.16,42.349998,1729477504101.0,0.0
-4.39083,-4.938786,4.292724,-280.48999,-44.099998,34.790001,1729477504121.0,0.0
-4.039084,-7.401,1.945365,-400.890015,-58.099998,27.370001,1729477504142.0,0.0
-2.876173,-10.07139,0.48335,-485.730011,-64.120003,14.35,1729477504163.0,0.0
-1.926222,-11.181661,-1.371087,-525.210022,-42.0,7.56,1729477504182.0,0.0
-2.414358,-10.954341,-1.65344,-537.530029,-17.219999,4.41,1729477504201.0,0.0
-2.160719,-8.465806,-3.546163,-545.440002,-23.870001,-12.18,1729477504221.0,0.0
-1.895115,-7.783852,-5.17089,-523.530029,-32.34,-18.34,1729477504242.0,0.0
-1.399801,-7.664211,-8.595018,-476.910004,-26.040001,-23.17,1729477504263.0,0.0
-0.887737,-7.310073,-10.626525,-394.309998,-17.710001,-20.23,1729477504281.0,0.0
-0.933201,-7.460821,-10.832308,-319.059998,-0.14,-12.11,1729477504302.0,0.0
-0.961915,-7.788638,-10.456635,-260.470001,18.76,-8.61,1729477504321.0,0.0
-1.698904,-7.759924,-9.731609,-204.680008,26.809999,-10.71,1729477504342.0,0.0
-3.622734,-7.161718,-6.922436,-191.869995,25.620001,-27.299999,1729477504362.0,0.0
-3.536592,-7.597212,-7.948956,-121.870003,5.88,-38.43,1729477504384.0,0.0
-3.065206,-4.488935,-7.956135,-105.349998,-6.23,-63.77,1729477504401.0,0.0
-2.854637,-4.948357,-8.484949,-61.670002,-7.35,-62.580002,1729477504421.0,0.0
-1.641476,-1.526621,-9.628718,-20.370001,-9.94,-61.25,1729477504442.0,0.0
-0.665205,0.308674,-8.755339,5.53,-9.52,-40.599998,1729477504461.0,0.0
-0.196211,-0.646062,-8.779266,-9.8,-9.45,-17.780001,1729477504481.0,0.0
0.619741,-1.818545,-9.463614,-26.32,-11.62,-2.1,1729477504501.0,0.0
0.952343,-2.682354,-10.351351,-23.030001,-11.13,8.4,1729477504521.0,0.0
0.179462,-2.677568,-10.983055,-3.43,-3.92,17.92,1729477504542.0,0.0
-0.591027,-3.512664,-10.454242,13.09,7.42,24.5,1729477504562.0,0.0
-1.251446,-7.133004,-9.408579,-1.54,14.98,22.190001,1729477504581.0,0.0
-2.041078,-7.881958,-9.008978,-3.64,15.12,4.55,1729477504602.0,0.0
-3.326023,-4.309474,-8.635696,7.7,13.93,-14.63,1729477504621.0,0.0
-3.952943,-4.252046,-8.796017,-7.56,12.53,-15.05,1729477504641.0,0.0
-2.395216,-5.048856,-8.542377,-10.64,2.31,-18.48,1729477504665.0,0.0
-2.112862,-1.899901,-9.056834,5.18,0.35,-22.82,1729477504681.0,0.0
-1.509871,-0.758525,-9.671788,11.83,0.21,-10.71,1729477504700.0,0.0
-0.710668,-1.215554,-9.676575,0.84,-0.21,1.61,1729477504720.0,0.0
-0.418744,-2.143969,-9.698111,-4.69,4.48,12.53,1729477504741.0,0.0
-0.346959,-3.708875,-9.348758,-2.1,7.7,15.75,1729477504762.0,0.0
-0.521635,-2.467,-8.872586,13.3,9.52,19.530001,1729477504782.0,0.0
-0.710668,-3.720839,-8.355737,19.6,9.38,24.710001,1729477504801.0,0.0
-1.909473,-6.91765,-7.582855,7.0,7.56,18.969999,1729477504828.0,0.0
-2.756532,-5.635098,-8.953942,-15.68,0.49,-1.96,1729477504841.0,0.0
-2.344966,-4.005585,-8.997013,-23.1,-7.14,-12.95,1729477504861.0,0.0
-2.191825,-4.532006,-8.446664,-21.210001,-10.64,-17.01,1729477504881.0,0.0
-2.151148,-3.680161,-9.784252,-9.03,-11.76,-22.610001,1729477504901.0,0.0
-1.411765,-3.555735,-9.923036,-15.47,-12.18,-29.960001,1729477504920.0,0.0
-1.816152,-1.196411,-11.75833,-10.71,-4.13,-25.969999,1729477504941.0,0.0
-0.437887,0.624527,-11.298907,6.16,2.03,-7.84,1729477504963.0,0.0
0.050249,-1.028914,-9.092726,16.940001,10.57,23.17,1729477504981.0,0.0
-0.851845,-3.783052,-8.705089,2.52,17.639999,33.670002,1729477505000.0,0.0
-1.107877,-3.716053,-8.769694,3.43,16.59,32.900002,1729477505021.0,0.0
-1.215554,-5.505885,-8.504091,13.86,11.62,30.870001,1729477505041.0,0.0
-3.146562,-7.436893,-7.590034,10.64,5.25,7.35,1729477505116.0,0.0
-2.778067,-4.118048,-9.298509,-20.299999,-9.87,-35.420002,1729477505122.0,0.0
-2.17029,-4.005585,-9.267403,-26.25,-14.28,-38.5,1729477505138.0,0.0
-1.957329,-3.388237,-9.628718,-13.86,-14.98,-40.529999,1729477505149.0,0.0
-1.718047,-2.005185,-9.320045,-17.360001,-15.68,-42.91,1729477505150.0,0.0
-1.634298,-0.354138,-11.887544,-15.89,-9.45,-33.459999,1729477505161.0,0.0
-0.717847,0.725025,-12.16511,-1.82,-9.45,-8.33,1729477505181.0,0.0
-0.734596,-1.287339,-9.554541,10.85,11.83,21.98,1729477505201.0,0.0
-1.210768,-2.828316,-8.889337,0.49,18.200001,30.309999,1729477505221.0,0.0
-0.775275,-3.756732,-8.702696,-5.95,13.51,30.52,1729477505241.0,0.0
-0.658026,-6.008378,-7.444071,1.47,7.35,25.059999,1729477505262.0,0.0
-1.825724,-8.79123,-8.109276,-1.54,0.21,-0.84,1729477505282.0,0.0
-2.414358,-5.493921,-9.444471,-16.940001,-5.18,-35.0,1729477505300.0,0.0
-2.689533,-3.273381,-9.348758,-16.030001,-7.42,-41.509998,1729477505321.0,0.0
-1.349552,-3.59402,-8.932407,-13.02,-11.06,-38.639999,1729477505341.0,0.0
-1.787439,-2.878566,-9.10469,-7.0,-10.36,-37.939999,1729477505361.0,0.0
-2.56032,-0.918844,-11.20798,1.54,-3.08,-32.549999,1729477505384.0,0.0
-0.141177,0.409173,-11.875579,13.79,1.33,-11.83,1729477505400.0,0.0
0.023928,-2.400001,-9.083155,42.07,21.07,29.4,1729477505421.0,0.0
-0.9667,-3.378666,-8.425128,32.27,27.790001,32.48,1729477505441.0,0.0
-0.629312,-3.608376,-8.853443,10.71,24.57,33.389999,1729477505462.0,0.0
-0.586242,-6.269196,-7.903493,5.46,17.5,32.41,1729477505482.0,0.0
-1.909473,-8.707481,-7.953743,13.440001,11.55,9.52,1729477505501.0,0.0
-2.443072,-6.9679,-8.941978,-8.33,4.48,-25.200001,1729477505521.0,0.0
-2.383251,-3.409772,-8.982656,1.4,-4.06,-39.689999,1729477505542.0,0.0
-2.251646,-2.09372,-7.903493,9.87,-7.35,-35.560001,1729477505563.0,0.0
-2.684747,-2.041078,-8.348558,5.95,-9.03,-30.030001,1729477505582.0,0.0
-2.385644,-0.217747,-10.731809,-10.64,-9.31,-25.34,1729477505601.0,0.0
-0.497707,0.428315,-11.60519,-15.26,-10.78,-8.19,1729477505621.0,0.0
0.66999,-1.210768,-10.114462,-4.9,-4.34,12.67,1729477505641.0,0.0
0.31346,-2.014757,-8.52802,8.19,2.87,25.48,1729477505662.0,0.0
-0.4666,-1.916651,-9.611969,4.76,5.53,33.32,1729477505682.0,0.0
-0.342174,-3.756732,-9.504292,-5.67,5.25,43.049999,1729477505700.0,0.0
-1.383051,-6.415157,-8.815158,0.28,9.66,44.029999,1729477505720.0,0.0
-2.809174,-8.386844,-8.389235,-14.56,9.8,4.34,1729477505740.0,0.0
-2.029114,-6.685547,-8.647661,-24.99,-8.33,-27.440001,1729477505786.0,0.0
-2.28036,-4.393222,-8.209774,-7.56,-12.53,-44.869999,1729477505787.0,0.0
-2.852244,-2.952743,-9.212367,-8.75,-15.26,-48.369999,1729477505829.0,0.0
-1.849652,-0.409173,-10.719845,-7.7,-16.940001,-42.279999,1729477505833.0,0.0
-0.363709,0.882952,-11.119448,-5.81,-14.21,-17.219999,1729477505928.0,0.0
0.174676,-1.184447,-10.143176,-4.06,-6.65,10.92,1729477505928.0,0.0
-0.586242,-2.194218,-9.552148,-6.23,1.4,22.469999,1729477505928.0,0.0
-0.856631,-2.447858,-10.38485,0.98,4.55,27.51,1729477505929.0,0.0
-0.181855,-4.005585,-9.918249,14.56,7.07,34.02,1729477505929.0,0.0
-1.229911,-7.046863,-7.68096,17.360001,13.58,29.4,1729477505940.0,0.0
-3.036492,-8.817552,-8.322237,-2.66,10.08,-1.75,1729477505960.0,0.0
-3.014957,-6.01077,-9.111869,-16.17,-0.77,-36.330002,1729477505981.0,0.0
-2.37368,-2.866602,-9.540184,-1.33,-6.16,-42.349998,1729477506000.0,0.0
-1.244268,-2.904887,-8.382057,5.04,-10.29,-34.509998,1729477506020.0,0.0
-1.540978,-3.04367,-8.95155,-6.16,-10.29,-33.459999,1729477506041.0,0.0
-1.883151,-0.997807,-10.779665,-3.22,-7.98,-28.559999,1729477506072.0,0.0
-0.468993,1.418944,-11.150554,18.83,-0.28,8.75,1729477506080.0,0.0
0.380459,-0.595813,-9.65504,34.299999,7.07,41.650002,1729477506100.0,0.0
-0.894916,-2.739782,-8.188239,26.460001,16.24,53.34,1729477506120.0,0.0
-1.899901,-3.790231,-9.375079,3.08,17.43,49.98,1729477506140.0,0.0
-1.045663,-5.996413,-9.45165,1.26,11.41,41.580002,1729477506161.0,0.0
-2.230111,-8.568698,-8.559127,12.53,14.21,20.51,1729477506181.0,0.0
-2.804388,-8.130811,-9.626326,-7.0,12.25,-20.719999,1729477506200.0,0.0
-1.533799,-4.807181,-9.260223,-26.460001,5.46,-47.389999,1729477506222.0,0.0
-1.586441,-3.376273,-7.846066,-28.0,3.64,-51.029999,1729477506240.0,0.0
-1.995614,-2.510071,-7.252645,-34.860001,-5.88,-49.560001,1729477506261.0,0.0
-2.486143,-0.914058,-9.741181,-32.549999,-16.379999,-39.830002,1729477506288.0,0.0
-1.718047,0.835095,-11.49512,-29.82,-16.73,-24.57,1729477506301.0,0.0
-0.90688,0.725025,-11.425728,-37.380001,-10.22,-0.07,1729477506320.0,0.0
-0.973879,-0.971486,-10.794022,-42.84,5.18,17.639999,1729477506341.0,0.0
-0.665205,-2.718246,-10.638489,-25.48,12.18,27.51,1729477506363.0,0.0
-0.234497,-3.034099,-11.021341,9.24,19.18,32.549999,1729477506384.0,0.0
-0.66999,-6.9344,-7.348359,16.24,27.16,32.200001,1729477506402.0,0.0
-1.732404,-9.920642,-7.317252,-8.12,20.440001,-2.52,1729477506421.0,0.0
-2.478964,-7.350751,-8.195417,-18.41,9.94,-43.82,1729477506441.0,0.0
-2.201397,-3.929015,-8.77448,8.47,0.07,-61.389999,1729477506463.0,0.0
-1.026521,-2.091327,-8.087741,33.32,-10.01,-59.360001,1729477506481.0,0.0
-1.129412,-0.480957,-7.429714,17.5,-16.309999,-56.209999,1729477506500.0,0.0
-1.79701,0.064606,-9.796216,-14.28,-20.370001,-47.950001,1729477506521.0,0.0
-0.904487,1.935793,-11.882757,-22.4,-21.0,-29.540001,1729477506542.0,0.0
0.07657,1.430908,-11.193624,-6.51,-12.39,2.73,1729477506562.0,0.0
0.258425,-0.449851,-9.722038,11.69,-4.41,29.960001,1729477506582.0,0.0
-0.823131,-1.426122,-9.001799,10.57,3.22,39.619999,1729477506601.0,0.0
-0.574277,-2.912065,-9.437292,1.19,3.22,45.709999,1729477506621.0,0.0
-0.902094,-5.503492,-8.595018,2.87,-1.61,44.59,1729477506642.0,0.0
-2.567499,-7.848458,-7.592427,9.17,-3.71,28.84,1729477506673.0,0.0
-2.24686,-5.259424,-8.204988,-21.42,-22.68,-16.73,1729477506682.0,0.0
-2.828316,-3.644269,-8.075776,-23.799999,-28.91,-26.950001,1729477506702.0,0.0
-2.701497,-3.574877,-7.982457,-17.85,-36.400002,-32.48,1729477506722.0,0.0
-2.526821,-2.383251,-9.425328,3.99,-44.52,-33.599998,1729477506742.0,0.0
-2.304288,0.650848,-10.731809,12.81,-42.91,-28.42,1729477506763.0,0.0
-1.311267,0.059821,-10.671989,-2.24,-38.990002,-6.09,1729477506782.0,0.0
-1.009771,-1.655833,-11.217552,-6.58,-29.120001,10.78,1729477506802.0,0.0
-0.997807,-1.76351,-11.167303,6.09,-20.860001,20.02,1729477506822.0,0.0
-0.926022,-1.969293,-11.200804,24.99,-14.35,31.360001,1729477506842.0,0.0
-1.246661,-3.232704,-9.164511,23.52,-3.64,37.939999,1729477506866.0,0.0
-2.651247,-5.17089,-8.295916,18.34,-0.91,35.91,1729477506884.0,0.0
-3.404987,-8.398808,-7.721639,-9.73,-6.72,10.43,1729477506901.0,0.0
-3.471986,-6.032306,-7.661818,-18.969999,-19.6,-25.41,1729477506922.0,0.0
-3.505485,-4.362115,-7.142576,-22.120001,-28.77,-41.860001,1729477506942.0,0.0
-3.792624,-3.09392,-7.630712,-15.82,-38.360001,-48.580002,1729477506963.0,0.0
-3.428915,-1.411765,-10.140782,-2.03,-43.610001,-50.889999,1729477506982.0,0.0
-1.835295,-0.129212,-11.076375,-7.63,-45.990002,-34.860001,1729477507007.0,0.0
-1.715654,-0.667598,-10.789237,-0.77,-29.889999,-17.57,1729477507021.0,0.0
-1.777867,-0.232104,-10.805987,20.719999,-22.26,-0.56,1729477507042.0,0.0
-1.617548,-0.521635,-11.432907,34.16,-15.33,17.08,1729477507063.0,0.0
-2.268396,-2.773281,-9.982857,17.5,-3.92,27.370001,1729477507082.0,0.0
-3.658626,-4.551149,-8.508877,2.94,4.48,27.16,1729477507102.0,0.0
-3.996014,-4.661219,-9.262616,-14.14,3.71,20.370001,1729477507122.0,0.0
-3.816552,-6.218946,-8.953942,-31.5,1.54,11.27,1729477507142.0,0.0
-4.996214,-6.733403,-6.788438,-28.35,3.36,-10.29,1729477507163.0,0.0
-5.520242,-5.481956,-7.066005,-6.02,-3.15,-30.870001,1729477507182.0,0.0
-3.613162,-2.505285,-7.9011,12.74,-21.139999,-37.240002,1729477507203.0,0.0
-2.9336,0.0335,-9.556933,1.61,-21.49,-31.780001,1729477507222.0,0.0
-2.196611,-0.143569,-10.303494,-13.86,-17.43,-14.42,1729477507244.0,0.0
-1.782653,-0.775275,-10.382458,-8.4,-12.32,3.99,1729477507263.0,0.0
-1.713261,-1.198804,-10.451849,11.76,-6.93,18.76,1729477507283.0,0.0
-1.536192,-2.043471,-10.057034,21.210001,-5.6,29.33,1729477507302.0,0.0
-2.230111,-4.472186,-8.874979,19.6,-1.89,32.549999,1729477507323.0,0.0
-3.76391,-6.74776,-8.394022,6.72,-2.94,12.67,1729477507342.0,0.0
-3.907479,-6.656832,-7.817351,1.05,-12.6,-13.93,1729477507363.0,0.0
-4.266403,-4.307081,-7.819745,16.1,-18.41,-33.110001,1729477507387.0,0.0
-3.739982,-2.605784,-8.018349,45.290001,-28.84,-31.43,1729477507403.0,0.0
-3.991228,-1.806581,-9.556933,43.889999,-30.450001,-24.639999,1729477507422.0,0.0
-4.749753,-0.9667,-10.774881,-8.96,-17.43,-17.43,1729477507442.0,0.0
-3.773481,-0.923629,-11.96172,-29.75,-9.38,-4.76,1729477507462.0,0.0
-2.744568,-0.629312,-11.251052,4.34,1.12,9.45,1729477507482.0,0.0
-2.904887,-0.112463,-10.040283,47.040001,17.290001,22.4,1729477507501.0,0.0
-3.553342,-1.057628,-9.750752,36.82,29.75,33.110001,1729477507521.0,0.0
-2.629712,-4.589434,-8.078169,10.85,29.26,41.860001,1729477507542.0,0.0
-3.239882,-7.889136,-5.288138,8.12,29.75,33.810001,1729477507565.0,0.0
-5.180461,-8.999406,-4.953143,-21.91,21.49,-0.21,1729477507582.0,0.0
-5.580062,-7.712067,-6.262017,-43.470001,-1.19,-33.110001,1729477507602.0,0.0
-4.67079,-5.580062,-7.322037,-25.83,-16.870001,-49.98,1729477507622.0,0.0
-4.41715,-3.409772,-7.558927,11.13,-19.460001,-47.459999,1729477507642.0,0.0
-4.036692,0.825524,-9.992428,17.92,-21.700001,-38.150002,1729477507663.0,0.0
-3.266203,0.550349,-10.729417,-7.28,-16.870001,-4.41,1729477507683.0,0.0
-2.275574,-1.071985,-11.117055,-11.48,-11.48,17.99,1729477507701.0,0.0
-2.28036,-1.823331,-11.538191,5.18,3.43,26.67,1729477507722.0,0.0
-2.323431,-1.854438,-11.038091,24.639999,17.15,35.420002,1729477507741.0,0.0
-1.830509,-4.15394,-8.709875,43.049999,18.48,43.330002,1729477507762.0,0.0
-2.790031,-5.728417,-7.427321,25.620001,29.049999,36.119999,1729477507782.0,0.0
-4.342973,-8.587841,-5.718846,-13.72,24.780001,14.77,1729477507801.0,0.0
-4.912465,-7.281359,-6.719046,-55.16,6.79,-25.34,1729477507822.0,0.0
-4.783253,-6.254838,-7.013363,-55.93,-9.52,-49.700001,1729477507841.0,0.0
-4.960321,-4.601398,-7.276574,-24.92,-18.76,-58.939999,1729477507862.0,0.0
-4.912465,-1.165305,-8.800802,-8.82,-22.049999,-57.959999,1729477507883.0,0.0
-4.09412,1.782653,-10.49492,-2.73,-22.75,-33.389999,1729477507901.0,0.0
-3.270989,2.242075,-11.456835,-5.95,-13.440001,3.43,1729477507922.0,0.0
-2.598605,-0.18664,-10.715059,-8.75,-0.42,36.82,1729477507941.0,0.0
-2.213361,-1.926222,-10.614561,12.95,10.99,47.529999,1729477507964.0,0.0
-2.194218,-1.87358,-9.970891,35.77,16.73,50.75,1729477507982.0,0.0
-2.251646,-7.60439,-6.704689,24.15,25.549999,50.540001,1729477508001.0,0.0
-2.830709,-6.735795,-7.420143,-4.41,18.41,15.33,1729477508022.0,0.0
-4.663611,-7.133004,-6.829116,-28.84,14.77,-13.440001,1729477508042.0,0.0
-5.005785,-6.613762,-7.32443,-40.25,0.63,-40.110001,1729477508062.0,0.0
-4.491328,-5.005785,-7.219146,-37.380001,-12.32,-57.330002,1729477508082.0,0.0
-3.905087,-3.323631,-8.743374,-23.66,-20.58,-62.02,1729477508102.0,0.0
-4.177868,-0.775275,-10.772489,10.15,-14.77,-49.209999,1729477508121.0,0.0
-4.271189,-0.131605,-11.270195,51.099998,-4.27,-20.09,1729477508142.0,0.0
-3.783052,-1.454836,-10.408779,88.199997,5.46,6.86,1729477508163.0,0.0
-3.419343,-2.419144,-9.992428,105.699997,15.96,18.129999,1729477508181.0,0.0
-3.522235,-3.239882,-9.901501,113.470001,27.65,20.16,1729477508202.0,0.0
-3.347559,-3.742374,-9.954143,129.080002,34.93,17.360001,1729477508221.0,0.0
-2.799603,-4.608576,-10.171888,193.690002,38.709999,19.67,1729477508242.0,0.0
-2.790031,-5.589634,-9.592826,288.049988,50.400002,24.710001,1729477508265.0,0.0
-3.206382,-5.785845,-9.62154,371.420013,65.379997,31.08,1729477508281.0,0.0
-3.479164,-5.946165,-7.783852,427.630005,85.050003,35.91,1729477508301.0,0.0
-3.316452,-5.54417,-6.12084,415.869995,95.410004,33.32,1729477508330.0,0.0
-3.010171,-6.494121,-3.316452,346.5,89.599998,19.879999,1729477508342.0,0.0
-3.134598,-7.278966,-2.493321,156.380005,87.220001,5.32,1729477508364.0,0.0
-3.299703,-9.111869,-2.734996,73.360001,72.169998,-1.19,1729477508387.0,0.0
-4.235296,-11.676974,-2.409572,67.480003,50.259998,-1.33,1729477508401.0,0.0
-3.433701,-11.631511,2.715853,125.300003,8.47,-3.57,1729477508422.0,0.0
-2.09372,-8.583055,2.199004,170.380005,10.29,-3.78,1729477508442.0,0.0
-4.091727,-8.623734,1.225125,140.0,35.560001,-11.55,1729477508464.0,0.0
-4.017549,-7.951349,0.248854,60.760002,-3.29,-13.16,1729477508482.0,0.0
-1.844866,-9.188439,-1.299303,18.27,-1.96,-5.11,1729477508502.0,0.0
0.181855,-10.126426,0.299103,12.67,-5.25,2.24,1729477508522.0,0.0
1.361516,-10.265208,-0.698704,61.529999,2.52,10.5,1729477508542.0,0.0
-0.004786,-10.377672,-0.937986,134.399994,17.639999,16.030001,1729477508563.0,0.0
-1.947758,-11.028521,-0.567099,197.050003,22.68,9.73,1729477508583.0,0.0
-2.804388,-10.872985,-0.571885,205.309998,-2.17,2.45,1729477508602.0,0.0
-1.20359,-6.814759,0.081356,163.240005,5.6,9.8,1729477508622.0,0.0
-4.273581,-6.288338,-1.87358,-15.54,9.66,12.32,1729477508642.0,0.0
-9.171689,-16.567905,1.811367,-48.09,-26.6,-6.09,1729477508663.0,0.0
-3.290131,-16.955542,1.050449,44.52,-21.42,-34.509998,1729477508684.0,0.0
-2.433501,-8.51127,1.562513,112.07,64.540001,-26.110001,1729477508704.0,0.0
-3.914658,-5.905487,3.893122,35.279999,43.540001,-52.57,1729477508723.0,0.0
-1.990828,-8.843873,2.730211,-58.59,11.55,-44.939999,1729477508744.0,0.0
2.002793,-6.319445,3.227918,-56.209999,4.9,-21.139999,1729477508764.0,0.0
1.859223,-6.314659,2.935993,57.610001,23.24,10.99,1729477508784.0,0.0
-1.277767,-5.525027,2.306681,72.239998,12.6,29.75,1729477508805.0,0.0
-3.45045,-9.382257,1.409373,22.540001,-20.58,31.290001,1729477508823.0,0.0
-2.388037,-10.8682,0.428315,-23.24,-43.959999,24.85,1729477508847.0,0.0
-3.038885,-11.557333,-1.328017,-11.9,-35.279999,20.23,1729477508867.0,0.0
-5.553742,-12.330215,-1.665405,-2.24,-16.799999,2.73,1729477508884.0,0.0
-6.410372,-13.552947,1.550549,0.49,-6.72,-23.17,1729477508903.0,0.0
-2.452643,-8.855836,0.90688,2.1,14.35,-30.52,1729477508924.0,0.0
-2.261217,-8.003991,1.18684,29.190001,27.23,-26.880001,1729477508943.0,0.0
-3.397808,-9.157332,2.333002,16.309999,25.48,-26.809999,1729477508964.0,0.0
-1.718047,-9.530612,3.151347,3.64,25.76,-26.530001,1729477508984.0,0.0
0.133998,-7.99442,4.725825,7.28,23.309999,-17.639999,1729477509004.0,0.0
0.696311,-6.448657,2.964707,54.110001,16.940001,5.88,1729477509023.0,0.0
-1.70369,-7.159326,3.601198,77.840004,6.93,15.82,1729477509048.0,0.0
-2.835495,-9.561719,2.35693,26.110001,-21.280001,11.34,1729477509064.0,0.0
-0.40678,-9.298509,0.256032,-10.01,-29.26,14.7,1729477509084.0,0.0
-1.794617,-8.982656,-0.124427,13.51,-11.83,21.700001,1729477509104.0,0.0
-6.226124,-10.846665,0.299103,16.17,-4.27,12.6,1729477509123.0,0.0
-6.800402,-16.065411,4.065405,17.57,-4.55,-14.63,1729477509143.0,0.0
-3.505485,-11.059627,3.529413,-39.060001,17.290001,-32.060001,1729477509167.0,0.0
-2.730211,-10.269995,2.514857,-20.370001,23.59,-38.150002,1729477509184.0,0.0
-2.404787,-9.564112,1.158126,-30.799999,14.42,-48.369999,1729477509203.0,0.0
-0.349352,-7.185646,2.821138,-50.259998,31.639999,-43.82,1729477509224.0,0.0
2.191825,-5.513064,4.256832,7.77,23.030001,-13.440001,1729477509243.0,0.0
-0.693919,-4.271189,4.797609,78.260002,23.24,22.540001,1729477509266.0,0.0
-3.699304,-7.317252,4.321437,12.04,-18.620001,29.75,1729477509284.0,0.0
-1.691726,-8.403593,1.148555,-57.68,-46.759998,28.139999,1729477509303.0,0.0
-1.387837,-12.564712,0.76331,-20.09,-48.439999,35.139999,1729477509323.0,0.0
-3.270989,-10.04507,-1.607977,-32.060001,-27.09,21.42,1729477509344.0,0.0
-6.640083,-13.263416,-0.133998,-20.860001,-7.84,10.64,1729477509364.0,0.0
-4.663611,-16.168303,1.787439,11.97,0.77,-24.15,1729477509387.0,0.0
-2.371287,-9.942179,1.600798,29.68,45.080002,-18.48,1729477509403.0,0.0
-1.990828,-8.398808,2.045863,43.049999,38.5,-30.73,1729477509423.0,0.0
-2.955136,-9.205189,2.333002,20.440001,33.950001,-27.860001,1729477509443.0,0.0
-1.253839,-7.970492,2.053042,-0.56,39.41,-28.210001,1729477509465.0,0.0
0.11007,-6.144768,4.345366,-2.94,42.560001,-17.219999,1729477509483.0,0.0
1.055235,-4.199404,4.493721,11.06,19.110001,11.55,1729477509503.0,0.0
-1.253839,-6.690332,5.642276,53.900002,4.9,35.07,1729477509523.0,0.0
-3.134598,-8.303094,4.350152,-8.96,-32.830002,27.02,1729477509543.0,0.0
-0.830309,-8.269595,1.957329,-57.470001,-53.900002,33.110001,1729477509564.0,0.0
-0.81356,-9.233903,-1.378266,-49.209999,-51.66,41.16,1729477509584.0,0.0
-6.685547,-15.543776,-0.129212,13.65,-29.960001,30.73,1729477509603.0,0.0
-6.388836,-12.96192,-0.502493,-27.370001,15.61,-6.16,1729477509623.0,0.0
-4.108476,-11.748759,2.299503,-33.670002,27.58,-15.190001,1729477509643.0,0.0
-3.349952,-11.617154,2.70389,17.780001,40.389999,-20.58,1729477509664.0,0.0
-3.326023,-8.762517,2.266003,22.82,35.77,-36.75,1729477509683.0,0.0
-2.938386,-8.106883,2.340181,30.309999,40.670002,-28.35,1729477509703.0,0.0
-1.76351,-6.659225,3.811767,18.27,42.279999,-26.18,1729477509724.0,0.0
-0.208176,-4.740182,6.532406,30.870001,28.07,-2.1,1729477509743.0,0.0
-0.605384,-4.409972,6.345766,63.560001,11.62,24.710001,1729477509764.0,0.0
-2.897708,-6.613762,5.931807,34.23,-22.33,31.99,1729477509784.0,0.0
-2.067399,-8.331808,2.476572,-41.509998,-48.509998,35.98,1729477509803.0,0.0
-0.978664,-10.191031,-0.145962,-54.740002,-50.400002,47.810001,1729477509823.0,0.0
-4.642076,-12.58864,-1.68694,-10.08,-31.99,45.57,1729477509844.0,0.0
-7.709675,-15.761523,-0.660419,16.1,-17.08,10.71,1729477509864.0,0.0
-5.252246,-13.53859,0.447458,-14.91,13.16,-18.27,1729477509884.0,0.0
-1.916651,-10.128819,1.272982,8.05,34.16,-25.129999,1729477509903.0,0.0
-2.964707,-7.908278,1.732404,40.389999,38.639999,-31.219999,1729477509923.0,0.0
-2.227718,-7.831708,0.842274,-18.34,29.82,-24.290001,1729477509943.0,0.0
-1.708475,-8.135597,2.799603,-50.189999,27.440001,-25.690001,1729477509964.0,0.0
1.150948,-5.596812,5.089533,-6.44,7.91,-4.48,1729477509983.0,0.0
-0.619741,-3.397808,5.958128,73.360001,15.82,18.41,1729477510003.0,0.0
-4.421937,-5.111069,6.757331,36.259998,-16.1,30.17,1729477510024.0,0.0
-3.914658,-9.35833,3.649055,-67.550003,-53.549999,28.35,1729477510043.0,0.0
-1.225125,-12.117253,1.079163,-86.449997,-62.790001,26.460001,1729477510119.0,0.0
-1.244268,-11.41137,-0.535992,-15.96,-39.900002,29.33,1729477510129.0,0.0
-5.742774,-11.449656,-0.880559,33.670002,-15.68,24.290001,1729477510131.0,0.0
-8.920443,-16.809578,2.586641,33.529999,-11.55,-13.23,1729477510133.0,0.0
-4.101298,-11.4353,1.816152,-16.309999,17.01,-38.43,1729477510143.0,0.0
-1.744368,-8.977871,3.014957,18.620001,29.889999,-40.810001,1729477510164.0,0.0
-3.505485,-9.128618,3.342773,32.759998,23.59,-45.009998,1729477510183.0,0.0
-2.883351,-7.283752,2.048256,-0.98,21.77,-41.93,1729477510202.0,0.0
-0.940379,-6.893722,0.693919,-26.950001,30.17,-32.41,1729477510224.0,0.0
0.081356,-5.79781,5.024928,-35.420002,14.63,-16.66,1729477510243.0,0.0
-0.090927,-4.996214,6.039484,73.150002,15.75,18.690001,1729477510263.0,0.0
-4.039084,-6.656832,5.802595,62.790001,-17.57,32.830002,1729477510284.0,0.0
-3.830909,-10.578669,3.148954,-38.360001,-53.060001,31.43,1729477510303.0,0.0
-1.885544,-11.772687,-0.89013,-48.02,-52.290001,31.219999,1729477510325.0,0.0
-4.244867,-12.268002,-1.868794,24.639999,-18.690001,25.34,1729477510344.0,0.0
-7.881958,-15.448064,1.643869,37.869999,1.96,-13.72,1729477510371.0,0.0
-4.54397,-12.157932,1.945365,-10.29,21.0,-43.049999,1729477510388.0,0.0
-1.854438,-9.832108,1.909473,6.16,40.459999,-40.599998,1729477510403.0,0.0
-2.859423,-9.671788,2.462214,17.360001,38.009998,-52.57,1729477510423.0,0.0
-2.177469,-7.185646,0.949951,-4.55,47.950001,-49.630001,1729477510443.0,0.0
-0.691526,-6.994221,0.81356,-22.120001,56.349998,-39.759998,1729477510463.0,0.0
1.330409,-4.924429,6.26441,-14.49,27.860001,-24.639999,1729477510484.0,0.0
1.105484,-3.421736,5.659025,113.260002,38.080002,16.66,1729477510503.0,0.0
-2.464607,-4.039084,7.410572,107.239998,5.11,31.15,1729477510523.0,0.0
-3.945765,-8.329416,5.139783,-17.43,-42.420002,37.66,1729477510544.0,0.0
-1.816152,-11.586047,-0.112463,-70.489998,-67.690002,38.779999,1729477510564.0,0.0
-6.364908,-14.892928,0.241675,-8.05,-30.799999,19.67,1729477510584.0,0.0
-7.735995,-17.051254,2.809174,-23.940001,-23.799999,-35.0,1729477510603.0,0.0
-3.079563,-10.403993,2.385644,-19.040001,28.77,-42.349998,1729477510623.0,0.0
-1.65344,-8.561519,2.426322,5.04,29.82,-51.099998,1729477510644.0,0.0
-2.691926,-8.941978,2.127219,5.18,26.32,-48.439999,1729477510664.0,0.0
-1.237089,-7.001399,1.689333,-21.0,39.759998,-43.259998,1729477510683.0,0.0
-0.167498,-5.804988,6.029913,-50.470001,30.73,-32.900002,1729477510705.0,0.0
2.127219,-4.13719,4.797609,28.630001,12.32,6.86,1729477510724.0,0.0
-0.662812,-3.787838,5.91745,96.949997,5.67,28.630001,1729477510746.0,0.0
-3.783052,-6.276374,5.836094,26.389999,-27.09,39.27,1729477510766.0,0.0
-2.45025,-10.762917,2.70389,-70.769997,-62.650002,39.900002,1729477510789.0,0.0
-1.51705,-12.497713,-0.964308,-76.230003,-60.41,40.040001,1729477510805.0,0.0
-4.675575,-12.796815,-1.395016,-20.51,-31.5,25.83,1729477510824.0,0.0
-7.037291,-15.57249,2.134398,-2.38,-12.95,-19.18,1729477510846.0,0.0
-3.134598,-11.736795,2.127219,-68.949997,1.12,-52.290001,1729477510865.0,0.0
-1.861616,-10.274779,1.816152,0.91,30.24,-62.16,1729477510885.0,0.0
-2.108077,-7.566105,1.292124,8.33,44.170002,-65.660004,1729477510906.0,0.0
-1.024128,-4.922036,5.65424,-26.74,42.84,-57.049999,1729477510924.0,0.0
3.069991,-3.326023,4.577469,26.950001,19.809999,-14.84,1729477510945.0,0.0
2.072184,-1.51705,4.354938,102.340004,23.030001,14.56,1729477510965.0,0.0
-2.062613,-4.005585,6.498906,81.690002,4.27,43.330002,1729477510985.0,0.0
-3.199204,-8.269595,2.825923,7.35,-36.68,47.810001,1729477511004.0,0.0
-2.840281,-12.739388,2.361716,9.1,-51.170002,59.150002,1729477511026.0,0.0
-3.012564,-13.261024,1.361516,21.210001,-41.09,38.920002,1729477511045.0,0.0
-5.862415,-12.452249,0.911665,-12.6,-18.83,20.16,1729477511065.0,0.0
-5.766702,-16.795221,0.744168,-54.880001,-18.41,-18.059999,1729477511089.0,0.0
-2.067399,-12.098111,-0.90688,-86.099998,23.030001,-32.130001,1729477511104.0,0.0
-1.344766,-10.887343,0.239282,-5.11,43.540001,-39.130001,1729477511124.0,0.0
-3.768696,-9.480364,1.722832,26.950001,55.790001,-51.310001,1729477511145.0,0.0
-3.06042,-8.444271,1.914258,-3.43,64.889999,-52.639999,1729477511165.0,0.0
-0.078963,-5.087141,6.293124,-51.869999,23.24,-47.459999,1729477511185.0,0.0
2.323431,-2.682354,5.223531,86.309998,23.24,-3.15,1729477511206.0,0.0
-0.177069,-2.06022,7.307681,73.080002,-1.68,27.23,1729477511224.0,0.0
-1.674976,-6.228518,4.141976,-15.68,-35.700001,44.310001,1729477511244.0,0.0
-1.493121,-11.514263,1.971686,-54.740002,-58.799999,53.549999,1729477511266.0,0.0
-1.947758,-13.706088,0.334995,-10.15,-46.200001,44.240002,1729477511287.0,0.0
-5.285746,-12.303895,0.586242,17.290001,-10.57,32.27,1729477511304.0,0.0
-7.13779,-17.058434,3.402594,4.62,-3.36,-7.07,1729477511325.0,0.0
-3.531806,-11.949757,1.804188,-56.279999,16.52,-31.219999,1729477511344.0,0.0
-1.811367,-10.332209,1.988436,8.89,36.119999,-26.950001,1729477511365.0,0.0
-3.931407,-9.920642,2.775674,42.139999,36.119999,-42.07,1729477511389.0,0.0
-2.801995,-8.006385,3.09392,24.01,36.68,-38.920002,1729477511404.0,0.0
-1.071985,-6.228518,4.859823,-14.28,27.65,-32.41,1729477511424.0,0.0
1.383051,-3.859623,5.209175,31.43,13.79,-0.98,1729477511445.0,0.0
0.789631,-2.277967,4.539185,98.419998,20.16,21.0,1729477511464.0,0.0
-2.206182,-4.771288,5.814559,60.41,-5.11,43.330002,1729477511486.0,0.0
-2.364109,-9.736395,3.74716,-8.68,-38.920002,48.860001,1729477511504.0,0.0
-0.598206,-12.940384,0.07657,-11.55,-52.639999,46.41,1729477511524.0,0.0
-2.191825,-10.777272,-1.083949,52.009998,-14.84,29.610001,1729477511544.0,0.0
-7.147361,-14.218152,1.85683,33.040001,3.92,5.18,1729477511566.0,0.0
-4.381258,-14.038691,2.24686,-35.630001,-1.75,-42.279999,1729477511584.0,0.0
-1.473979,-10.803595,2.545963,-5.81,35.630001,-35.630001,1729477511604.0,0.0
-2.880959,-9.236296,3.728018,35.349998,41.02,-56.77,1729477511624.0,0.0
-2.871387,-6.9679,3.582055,18.200001,40.950001,-56.91,1729477511644.0,0.0
-1.677369,-6.575477,5.446064,-14.14,41.580002,-51.170002,1729477511664.0,0.0
0.849452,-2.675175,6.881758,-25.41,8.4,-25.200001,1729477511686.0,0.0
0.947558,-2.526821,5.735595,73.360001,9.31,11.83,1729477511704.0,0.0
-2.182254,-3.878766,7.501499,61.670002,-12.81,38.849998,1729477511724.0,0.0
-2.517249,-6.223732,3.701697,-38.43,-47.599998,45.150002,1729477511744.0,0.0
-0.646062,-13.607983,2.467,-38.5,-59.43,52.849998,1729477511765.0,0.0
-1.823331,-12.239288,0.849452,-3.99,-36.259998,42.209999,1729477511784.0,0.0
-5.82413,-13.801801,1.385444,40.880001,-4.34,25.41,1729477511804.0,0.0
-5.749953,-16.285551,3.919443,-4.27,-2.94,-26.25,1729477511824.0,0.0
-2.007578,-11.542977,3.421736,-32.41,29.610001,-38.290001,1729477511844.0,0.0
-2.756532,-8.717053,4.17069,15.33,42.98,-45.5,1729477511865.0,0.0
-1.840081,-5.711668,4.249653,-4.27,38.5,-52.080002,1729477511884.0,0.0
-1.205983,-5.343173,7.798209,-31.43,24.290001,-37.240002,1729477511904.0,0.0
-0.057428,-4.304688,6.788438,-19.879999,-9.66,-7.91,1729477511924.0,0.0
-0.964308,-4.364508,5.13739,34.93,-20.93,17.710001,1729477511944.0,0.0
-2.847459,-6.78126,6.139983,23.52,-38.779999,29.33,1729477511965.0,0.0
-1.509871,-7.762317,3.883551,-27.370001,-58.029999,28.700001,1729477511984.0,0.0
-0.031107,-9.329616,2.304288,1.12,-51.66,37.450001,1729477512003.0,0.0
-2.782853,-9.377472,2.586641,32.619999,-33.110001,38.009998,1729477512024.0,0.0
-6.530013,-13.134203,2.428715,39.619999,-26.67,28.280001,1729477512045.0,0.0
-5.867201,-15.840486,3.067599,28.77,-5.11,-3.15,1729477512064.0,0.0
-2.524428,-10.638489,1.768296,-6.72,25.129999,-26.880001,1729477512084.0,0.0
-2.311467,-8.956335,2.529213,21.49,42.98,-30.1,1729477512104.0,0.0
-3.524628,-8.207381,2.665605,9.31,48.299999,-37.380001,1729477512124.0,0.0
-2.105684,-8.109276,3.696911,-15.68,50.189999,-35.07,1729477512144.0,0.0
0.117248,-7.144968,5.553742,-18.83,47.25,-26.32,1729477512165.0,0.0
0.775275,-4.426722,7.874779,9.94,31.15,-8.33,1729477512184.0,0.0
-0.332602,-2.914458,6.948757,54.599998,6.93,26.460001,1729477512203.0,0.0
-1.904687,-6.941578,5.225924,-12.25,-48.369999,48.860001,1729477512224.0,0.0
-1.67019,-11.47119,3.235096,-79.099998,-79.099998,47.32,1729477512244.0,0.0
-1.337588,-13.021741,1.244268,-52.009998,-66.849998,42.84,1729477512265.0,0.0
-4.197011,-14.031512,-0.457029,-12.18,-35.490002,16.309999,1729477512285.0,0.0
-6.116055,-16.79283,1.629512,0.84,-21.210001,-23.030001,1729477512303.0,0.0
-3.07717,-11.260624,1.739582,16.379999,25.059999,-44.52,1729477512323.0,0.0
-2.706282,-7.331609,4.448257,68.669998,47.32,-46.060001,1729477512346.0,0.0
-3.694518,-6.879365,5.915058,55.790001,41.439999,-51.380001,1729477512365.0,0.0
-2.045863,-5.721239,5.245068,1.68,37.73,-45.009998,1729477512390.0,0.0
