acc_x,acc_y,acc_z,gyr_x,gyr_y,gyr_z,timestamp,label
-6.388836,-6.099305,-7.829315,-152.949997,-14.42,-20.09,1729417482942.0,0.0
-6.180661,-4.292724,-7.482357,-115.57,-46.200001,1.12,1729417482943.0,0.0
-5.048856,-4.646862,-9.4349,-95.690002,-48.16,0.21,1729417482947.0,0.0
-6.60419,-6.491727,-8.664411,-28.0,-36.470001,9.17,1729417482955.0,0.0
-5.268995,-2.900101,-9.209974,29.26,-45.779999,14.21,1729417482975.0,0.0
-6.221339,-3.376273,-8.281559,91.419998,-36.189999,52.290001,1729417482995.0,0.0
-6.278766,-3.9673,-8.836694,127.959999,1.75,20.370001,1729417483017.0,0.0
-7.032506,-2.816352,-5.680561,136.639999,-14.77,66.43,1729417483035.0,0.0
-4.895715,-4.61097,-6.484549,109.059998,17.710001,18.83,1729417483055.0,0.0
-6.965507,-7.298109,-7.448857,157.779999,36.68,20.51,1729417483075.0,0.0
-5.4341,-2.756532,-4.259224,333.480011,14.7,33.529999,1729417483096.0,0.0
-5.381458,-0.244068,-5.261817,284.200012,35.139999,17.99,1729417483116.0,0.0
-8.047063,-6.07777,-2.89053,160.229996,55.369999,-12.25,1729417483135.0,0.0
-8.176274,-7.659425,-2.620141,94.360001,12.81,-23.379999,1729417483154.0,0.0
-5.592027,-6.317052,-3.404987,45.220001,-2.8,-23.799999,1729417483175.0,0.0
-5.094319,-6.338587,-4.871787,-1.19,34.369999,-36.049999,1729417483195.0,0.0
-5.441278,-7.903493,-6.549156,-33.389999,60.130001,-51.380001,1729417483221.0,0.0
-5.374279,-7.9681,-6.817152,-42.0,39.34,-40.389999,1729417483234.0,0.0
-4.4674,-6.833901,-5.52742,-25.27,10.57,-20.51,1729417483255.0,0.0
-2.981457,-6.15434,-5.168497,-1.19,5.53,-13.86,1729417483274.0,0.0
-3.26381,-6.506085,-5.4676,10.57,18.690001,-7.14,1729417483295.0,0.0
-4.089334,-6.410372,-5.819345,-1.96,23.379999,-0.98,1729417483316.0,0.0
-4.218546,-6.484549,-5.577669,-7.56,17.85,2.73,1729417483335.0,0.0
-3.921836,-6.896115,-5.570491,-1.89,15.68,7.14,1729417483354.0,0.0
-3.864408,-7.058826,-5.716454,11.97,18.549999,10.15,1729417483375.0,0.0
-4.579862,-7.018148,-5.678168,17.780001,20.65,15.61,1729417483395.0,0.0
-5.058427,-6.771688,-5.465207,10.57,17.639999,15.82,1729417483416.0,0.0
-5.103891,-6.618547,-5.522634,-0.91,14.91,12.88,1729417483437.0,0.0
-4.804788,-6.738188,-5.647062,-2.73,18.129999,7.98,1729417483455.0,0.0
-4.778467,-6.886543,-5.4006,-6.37,19.389999,5.6,1729417483474.0,0.0
-4.845466,-7.006185,-5.407779,-10.36,18.200001,5.46,1729417483497.0,0.0
-4.855037,-6.970293,-5.718846,-10.85,15.89,5.18,1729417483518.0,0.0
-4.859823,-6.862615,-5.611169,-8.96,13.93,5.11,1729417483535.0,0.0
-4.737789,-6.915257,-5.266603,-6.93,9.24,4.69,1729417483556.0,0.0
-4.713861,-7.235896,-4.838287,-8.75,7.98,2.66,1729417483574.0,0.0
-4.800002,-7.398607,-5.005785,-11.83,9.03,2.66,1729417483596.0,0.0
-4.673182,-6.845865,-5.553742,-12.32,7.84,-1.19,1729417483616.0,0.0
-4.393222,-6.893722,-5.79781,-2.59,3.71,0.21,1729417483636.0,0.0
-4.302295,-7.022934,-5.508278,3.92,3.99,1.26,1729417483654.0,0.0
-4.283153,-6.711867,-5.254639,7.21,3.78,2.87,1729417483676.0,0.0
-4.218546,-6.486942,-5.35753,7.56,3.29,2.66,1729417483695.0,0.0
-4.182654,-6.477371,-5.84088,5.81,3.64,2.1,1729417483719.0,0.0
-4.41715,-6.558727,-5.962914,3.99,3.99,2.1,1729417483735.0,0.0
-4.4674,-6.726225,-5.828916,3.15,0.84,2.17,1729417483754.0,0.0
-4.474578,-6.728617,-5.831308,2.52,0.35,0.98,1729417483775.0,0.0
-4.646862,-6.771688,-5.924629,2.03,4.97,-0.49,1729417483797.0,0.0
-4.807181,-6.623333,-6.058627,0.84,7.21,-0.7,1729417483818.0,0.0
-4.847858,-6.664011,-6.192625,1.19,5.95,-0.21,1729417483834.0,0.0
-4.797609,-6.541977,-6.025128,2.17,6.09,-0.21,1729417483855.0,0.0
-4.711468,-6.518049,-5.876772,3.85,7.42,-0.98,1729417483876.0,0.0
-4.701896,-6.597012,-5.828916,2.38,8.82,-1.96,1729417483896.0,0.0
-4.905287,-6.76451,-5.778666,2.38,10.22,-2.31,1729417483916.0,0.0
-4.974678,-6.62094,-5.936593,0.42,8.33,-1.89,1729417483934.0,0.0
-4.85743,-6.300302,-5.785845,6.23,4.62,0.84,1729417483954.0,0.0
-4.802395,-6.357729,-5.56092,6.72,4.9,0.91,1729417483975.0,0.0
-4.773681,-6.331409,-5.563312,0.21,7.49,0.63,1729417483995.0,0.0
-4.721039,-6.38405,-5.692525,-4.76,7.77,0.56,1729417484017.0,0.0
-4.835894,-6.532406,-5.972485,-4.62,8.61,0.84,1729417484035.0,0.0
-5.065606,-6.613762,-6.032306,-1.19,11.06,1.33,1729417484055.0,0.0
-5.218746,-6.56112,-5.788238,0.7,9.66,2.24,1729417484074.0,0.0
-4.934,-6.518049,-5.716454,-1.12,5.46,1.75,1729417484094.0,0.0
-4.816752,-6.58744,-5.852845,-2.73,5.6,0.91,1729417484117.0,0.0
-5.13739,-6.829116,-5.922236,-3.99,10.71,-0.7,1729417484134.0,0.0
-5.405386,-6.943972,-5.843273,-4.62,10.57,-0.07,1729417484155.0,0.0
-5.149354,-6.879365,-5.766702,-1.19,4.41,0.77,1729417484174.0,0.0
-4.788038,-6.79083,-6.118448,3.5,3.22,-0.91,1729417484196.0,0.0
-4.912465,-6.855437,-6.195018,7.49,8.4,-3.29,1729417484219.0,0.0
-5.02732,-6.953543,-6.628119,11.69,11.41,-4.76,1729417484235.0,0.0
-4.878965,-7.211967,-6.448657,17.85,9.94,-6.23,1729417484255.0,0.0
-4.522435,-7.130611,-6.687939,23.940001,11.9,-8.4,1729417484275.0,0.0
-3.407379,-7.077969,-8.489735,23.52,22.469999,-22.4,1729417484296.0,0.0
-2.847459,-6.259624,-8.250452,-7.49,23.940001,-29.190001,1729417484316.0,0.0
-2.134398,-7.013363,-8.037491,-45.639999,27.58,-38.009998,1729417484337.0,0.0
-1.579263,-8.410772,-8.863015,-75.389999,42.700001,-46.060001,1729417484354.0,0.0
-1.679761,-8.760124,-9.052048,-67.690002,61.810001,-46.689999,1729417484373.0,0.0
-2.141576,-7.738388,-7.539784,-47.32,70.769997,-45.43,1729417484396.0,0.0
-2.586641,-7.606783,-6.647261,-33.740002,70.699997,-48.439999,1729417484415.0,0.0
-2.902494,-7.668997,-6.18784,-31.219999,74.129997,-57.75,1729417484434.0,0.0
-3.512664,-6.443871,-4.398008,-49.560001,68.879997,-63.349998,1729417484456.0,0.0
-4.185047,-5.927022,-3.378666,-104.440002,58.099998,-74.830002,1729417484475.0,0.0
-4.587041,-6.972685,-5.335995,-149.380005,47.529999,-86.519997,1729417484494.0,0.0
-4.792823,-7.503892,-6.18784,-123.199997,26.32,-82.599998,1729417484516.0,0.0
-5.04407,-7.022934,-5.268995,-86.029999,3.01,-80.010002,1729417484536.0,0.0
-5.17089,-7.678568,-3.852444,-89.25,-9.8,-85.82,1729417484555.0,0.0
-4.376472,-7.9011,-5.017749,-97.370003,-24.99,-90.160004,1729417484574.0,0.0
-3.141776,-6.448657,-5.388636,-57.75,-42.0,-82.25,1729417484594.0,0.0
-4.041477,-3.67059,-3.842873,-14.07,-50.889999,-56.84,1729417484618.0,0.0
-3.98405,-0.495314,-9.260223,47.950001,-63.0,-30.17,1729417484634.0,0.0
-2.507678,2.232504,-15.862022,63.84,-71.75,-14.42,1729417484654.0,0.0
-1.823331,-3.314059,-15.058033,170.940002,-31.57,26.809999,1729417484674.0,0.0
-7.690532,-10.298709,7.975278,166.039993,8.4,25.969999,1729417484694.0,0.0
-4.491328,-10.219746,-13.533805,13.79,70.419998,-18.83,1729417484715.0,0.0
-1.875973,-9.506684,-12.378072,183.050003,-66.57,14.21,1729417484735.0,0.0
-1.241875,-10.298709,-15.98884,402.640015,0.14,54.529999,1729417484755.0,0.0
-0.806381,-7.951349,-11.612368,453.73999,107.239998,51.380001,1729417484775.0,0.0
-0.425922,3.448057,-0.72024,246.540009,36.959999,32.27,1729417484794.0,0.0
-0.191426,-1.538585,3.785445,180.880005,-5.67,43.400002,1729417484818.0,0.0
1.141376,-5.259424,3.158526,137.550003,-15.68,37.869999,1729417484834.0,0.0
-0.177069,-5.498707,-0.945165,62.02,-7.14,32.759998,1729417484855.0,0.0
-3.555735,-7.063612,-2.117648,-34.509998,48.509998,38.220001,1729417484874.0,0.0
-4.493721,-9.439686,1.28016,-9.73,-42.420002,47.670002,1729417484896.0,0.0
-4.630112,-10.502099,-0.050249,-60.760002,-133.699997,45.779999,1729417484916.0,0.0
-3.830909,-14.560326,-17.673388,-187.880005,-69.019997,-19.809999,1729417484936.0,0.0
-5.034499,-17.369499,-10.207782,-93.730003,12.18,-40.32,1729417484954.0,0.0
-2.742175,-9.760324,-12.605389,146.580002,36.82,19.040001,1729417484974.0,0.0
-0.631705,-2.538785,0.332602,141.960007,28.84,-6.86,1729417484995.0,0.0
-1.464408,-3.105884,3.510271,124.599998,78.959999,4.27,1729417485017.0,0.0
-1.423729,0.155533,8.973085,142.029999,66.849998,20.09,1729417485034.0,0.0
-1.816152,-1.012164,3.512664,66.57,-42.84,55.16,1729417485056.0,0.0
-3.749553,-7.412964,0.911665,-140.139999,8.82,26.809999,1729417485074.0,0.0
-4.828716,-15.046068,4.34058,-273.769989,-74.199997,-0.07,1729417485096.0,0.0
-1.878366,-14.806787,-10.79163,-247.589996,-145.180008,0.56,1729417485117.0,0.0
-3.665804,-10.415956,-17.101503,-138.320007,-90.370003,-19.32,1729417485135.0,0.0
-6.518049,-11.07159,-22.183859,-35.91,68.949997,-33.670002,1729417485154.0,0.0
-7.422535,-13.371094,-6.836295,66.290001,57.959999,-25.129999,1729417485174.0,0.0
-3.661019,-11.985649,-10.339387,122.290001,34.580002,10.64,1729417485197.0,0.0
-1.244268,-3.651447,-3.428915,187.740005,49.560001,-14.7,1729417485218.0,0.0
-0.741775,-3.285345,-4.62054,157.639999,73.989998,-7.28,1729417485234.0,0.0
-0.634098,-7.245467,6.319445,74.620003,58.099998,-14.7,1729417485253.0,0.0
-1.682154,-6.666404,9.767502,94.360001,15.47,22.4,1729417485273.0,0.0
-6.297909,-3.524628,1.347159,68.389999,36.049999,14.77,1729417485295.0,0.0
-5.261817,-8.355737,-5.594419,-62.93,-16.940001,11.34,1729417485316.0,0.0
-0.174676,-11.550155,2.256432,-8.68,-152.809998,43.330002,1729417485334.0,0.0
-0.39003,-8.609376,-3.328416,-56.91,-133.839996,48.299999,1729417485354.0,0.0
-4.319045,-9.056834,-7.393822,-141.330002,15.96,4.48,1729417485375.0,0.0
-8.343772,-15.043676,-14.433505,-146.649994,19.530001,-23.52,1729417485396.0,0.0
-7.65464,-18.132809,-10.975878,-41.02,12.74,-25.690001,1729417485415.0,0.0
-3.302095,-10.990234,-5.9677,105.769997,-20.299999,19.389999,1729417485433.0,0.0
-2.679961,-6.726225,-7.322037,115.080002,46.900002,0.28,1729417485453.0,0.0
-4.419543,-9.631111,-3.488736,58.52,116.690002,-53.619999,1729417485475.0,0.0
-3.26381,-8.260024,-0.368495,124.529999,124.879997,-36.75,1729417485496.0,0.0
-1.320838,3.931407,8.035098,195.089996,36.68,18.129999,1729417485515.0,0.0
-1.205983,2.411965,5.690133,143.009995,-39.619999,46.34,1729417485534.0,0.0
-2.620141,-4.981857,0.882952,-36.330002,18.200001,14.28,1729417485553.0,0.0
-2.787638,-13.146168,-3.062813,-77.07,-8.96,14.42,1729417485574.0,0.0
-3.017349,-12.873385,-0.155533,-1.82,-104.300003,40.110001,1729417485596.0,0.0
-3.493521,-13.52902,-11.004591,-7.42,-39.060001,28.0,1729417485617.0,0.0
-5.802595,-11.921042,-7.707282,-61.32,4.27,-24.92,1729417485633.0,0.0
-4.235296,-10.975878,-0.387637,23.309999,1.33,-5.39,1729417485655.0,0.0
-2.770889,-8.73141,-3.158526,79.029999,-13.16,17.15,1729417485673.0,0.0
-3.35713,-9.609575,-4.4674,25.129999,50.959999,-21.42,1729417485696.0,0.0
-4.398008,-9.066404,1.01695,-35.349998,47.529999,-45.360001,1729417485715.0,0.0
-4.438686,-8.676375,2.258825,-74.059998,-9.8,-36.330002,1729417485734.0,0.0
-4.058227,-8.843873,1.90708,-83.510002,-45.290001,-41.09,1729417485755.0,0.0
-4.371687,-8.800802,-0.978664,-131.740005,-42.77,-69.510002,1729417485775.0,0.0
-4.826324,-6.62094,-0.68674,-188.580002,-25.83,-74.620003,1729417485795.0,0.0
-2.725425,-5.886343,-4.328616,-209.020004,-41.93,-70.139999,1729417485814.0,0.0
-1.698904,-4.237689,-5.149354,-259.910004,-51.029999,-61.529999,1729417485834.0,0.0
-1.842474,-5.367101,-5.130211,-299.529999,-39.27,-55.299999,1729417485855.0,0.0
-1.954936,-6.668797,-6.955935,-319.130005,-39.759998,-55.860001,1729417485874.0,0.0
-0.399601,-1.045663,-13.663017,-352.940002,-32.34,-50.610001,1729417485894.0,0.0
-3.625126,-9.327222,-7.867601,-325.01001,-45.5,-50.82,1729417485915.0,0.0
-2.959922,-8.303094,-6.479764,-164.919998,-1.19,-48.369999,1729417485934.0,0.0
-2.445465,-0.765703,-8.561519,-136.990005,-15.54,-8.82,1729417485955.0,0.0
-2.756532,-5.627919,-10.466206,-234.990005,-0.98,-35.91,1729417485975.0,0.0
-2.237289,-4.084548,-9.789038,-189.210007,-1.89,-3.5,1729417485993.0,0.0
-0.835095,-9.365508,-11.574083,-73.639999,22.33,6.23,1729417486016.0,0.0
0.586242,-6.666404,-10.24846,72.379997,9.66,49.560001,1729417486033.0,0.0
0.583849,-7.020542,-6.668797,87.290001,20.23,27.719999,1729417486052.0,0.0
-0.808774,-9.353544,-6.470192,51.799999,12.53,17.639999,1729417486074.0,0.0
-0.035892,-6.422336,-6.79083,39.689999,-5.46,5.53,1729417486094.0,0.0
-1.615155,-3.744767,-9.717253,44.939999,18.690001,-0.98,1729417486117.0,0.0
-5.864808,-1.78026,-10.41835,3.57,49.349998,-21.84,1729417486134.0,0.0
-4.752146,-4.847858,-11.265409,7.28,-18.27,-21.77,1729417486154.0,0.0
-2.026721,-2.849852,-12.196217,-20.299999,-32.200001,-35.420002,1729417486173.0,0.0
-4.309474,3.742374,-9.891929,4.55,-5.81,-0.21,1729417486194.0,0.0
-5.350351,-0.985843,-11.952149,18.969999,26.950001,-2.24,1729417486219.0,0.0
-2.024328,-2.277967,-9.918249,35.84,-8.26,30.17,1729417486233.0,0.0
-0.241675,-8.293523,-3.302095,36.119999,-6.44,21.07,1729417486253.0,0.0
-5.706882,-8.382057,-4.26401,-21.35,108.360001,76.790001,1729417486273.0,0.0
-0.538385,-8.750552,-4.773681,0.56,-10.08,24.639999,1729417486293.0,0.0
-2.057827,-10.738988,-6.625726,-18.969999,-15.26,-5.32,1729417486316.0,0.0
-0.961915,-6.288338,-7.984849,22.960001,-24.5,-13.86,1729417486334.0,0.0
-1.208375,-3.672983,-12.256038,4.41,3.08,-23.309999,1729417486353.0,0.0
-2.11047,-1.416551,-14.038691,-0.98,34.299999,-22.049999,1729417486374.0,0.0
-2.172683,-5.259424,-15.696917,162.610001,-28.98,44.799999,1729417486395.0,0.0
-1.17009,-5.419744,-11.016556,246.75,25.059999,53.48,1729417486415.0,0.0
-1.51705,-6.850651,-10.238889,426.720001,38.009998,108.989998,1729417486435.0,0.0
-1.459622,-9.332008,-8.240881,502.179993,48.509998,87.43,1729417486454.0,0.0
-2.201397,-9.676575,-5.438886,578.340027,39.34,100.870003,1729417486473.0,0.0
-2.68714,-5.151747,-3.388237,725.76001,53.760002,114.660004,1729417486495.0,0.0
-2.892922,1.356731,-5.328816,806.609985,70.559998,137.199997,1729417486516.0,0.0
-3.938586,3.426522,-3.26381,723.450012,67.690002,165.619995,1729417486533.0,0.0
-12.435498,2.091327,22.435104,362.459991,-24.639999,90.019997,1729417486553.0,0.0
-2.87378,-11.574083,1.864009,-226.800003,21.77,-62.510002,1729417486573.0,0.0
-5.039285,-26.536404,-3.053242,-142.309998,3.5,17.780001,1729417486594.0,0.0
-2.648855,-11.13859,-2.254039,95.410004,-47.18,-4.41,1729417486617.0,0.0
-2.679961,-5.261817,-0.449851,110.669998,14.7,57.959999,1729417486632.0,0.0
-2.59382,-5.455636,5.245068,-38.009998,-43.540001,-7.91,1729417486653.0,0.0
-4.208975,-6.132804,4.969893,-78.400002,-4.2,-10.85,1729417486673.0,0.0
-5.663811,-9.317651,1.344766,-96.529999,23.309999,-22.4,1729417486693.0,0.0
-5.264209,-10.971091,0.239282,-85.82,3.57,-21.98,1729417486718.0,0.0
-3.976871,-8.82473,2.459821,-111.93,-25.27,-20.51,1729417486734.0,0.0
-3.739982,-8.114061,3.876373,-175.210007,-26.110001,-38.849998,1729417486754.0,0.0
-3.905087,-11.286944,0.866202,-189.630005,-6.58,-47.529999,1729417486773.0,0.0
-3.383451,-12.291929,-0.760918,-171.149994,-10.5,-47.389999,1729417486795.0,0.0
-2.287539,-8.061419,-1.78026,-191.589996,-17.85,-26.32,1729417486817.0,0.0
-2.452643,-7.125826,0.617348,-242.690002,-41.299999,-28.84,1729417486833.0,0.0
-2.256432,-4.101298,-0.069392,-353.920013,-32.27,-74.900002,1729417486853.0,0.0
-2.754139,-9.135797,-5.606383,-288.470001,17.01,-43.400002,1729417486873.0,0.0
-2.854637,-11.56451,-1.840081,-156.309998,33.32,-55.860001,1729417486895.0,0.0
-3.814159,-8.532805,-4.144369,-139.089996,25.690001,-24.5,1729417486923.0,0.0
-3.160919,-6.742974,-6.025128,-149.800003,7.77,-52.5,1729417486934.0,0.0
-3.364309,-6.080163,-3.455236,-235.479996,-27.23,-60.060001,1729417486954.0,0.0
-1.663012,-11.016556,-8.216952,-201.600006,-35.77,-60.689999,1729417486975.0,0.0
-1.490728,-5.307281,-8.671589,-226.800003,-35.84,-78.540001,1729417486994.0,0.0
-2.531606,-6.874579,-4.453043,-153.300003,-28.35,-50.610001,1729417487017.0,0.0
-2.495714,-7.951349,-6.163911,-127.050003,-20.440001,-58.450001,1729417487034.0,0.0
-2.541178,-7.4345,-8.094919,-135.100006,-12.11,-61.389999,1729417487053.0,0.0
-2.541178,-5.812167,-8.719445,-108.639999,-10.29,-57.049999,1729417487074.0,0.0
-2.486143,-5.034499,-7.889136,-114.520004,-15.26,-54.389999,1729417487096.0,0.0
-1.978864,-4.651647,-8.16431,-116.550003,-23.379999,-49.0,1729417487116.0,0.0
-1.679761,-4.555934,-7.173682,-100.730003,-42.91,-33.459999,1729417487134.0,0.0
-1.342373,-6.13759,-6.463014,-94.43,-29.049999,-31.219999,1729417487156.0,0.0
-1.68694,-3.826123,-8.671589,-112.139999,-13.02,-25.27,1729417487174.0,0.0
-1.294517,-1.428515,-9.60479,-108.290001,-9.87,-22.68,1729417487197.0,0.0
-2.29711,-2.919244,-7.353144,-86.800003,-23.450001,-4.27,1729417487218.0,0.0
-3.548556,-1.909473,-8.9683,-167.229996,-9.94,-4.76,1729417487233.0,0.0
-2.622534,-4.84068,-9.274581,-193.899994,-31.08,-12.88,1729417487256.0,0.0
-1.854438,-2.730211,-8.834301,-47.389999,-34.790001,35.349998,1729417487274.0,0.0
-3.156133,-1.942972,-5.692525,-40.670002,-6.79,22.75,1729417487295.0,0.0
-2.98385,-3.304488,-5.836094,-61.18,31.15,1.33,1729417487315.0,0.0
-3.838088,-0.89013,-11.420943,-95.760002,-3.15,40.25,1729417487336.0,0.0
-2.938386,-2.766103,-13.351951,-97.720001,-0.91,-10.08,1729417487354.0,0.0
-0.784846,-0.830309,-10.803595,-42.0,-38.43,7.35,1729417487374.0,0.0
-2.861816,-3.754339,-9.250652,-2.03,-19.040001,23.309999,1729417487396.0,0.0
-1.045663,-3.108276,-10.229317,-2.1,-12.95,-9.87,1729417487417.0,0.0
-1.06002,-0.753739,-11.772687,8.05,-26.6,30.1,1729417487435.0,0.0
-3.024528,-5.156533,-11.387443,-31.639999,-0.56,-10.92,1729417487457.0,0.0
-2.242075,-3.558127,-10.564312,14.35,-22.049999,15.33,1729417487475.0,0.0
-2.39043,-1.820938,-8.977871,29.889999,-30.799999,32.060001,1729417487497.0,0.0
-2.443072,-0.031107,-10.305886,45.639999,-10.22,29.26,1729417487517.0,0.0
-2.785245,-0.772882,-10.624132,53.830002,2.38,21.210001,1729417487535.0,0.0
-2.756532,-2.531606,-9.619147,72.449997,-10.43,26.18,1729417487557.0,0.0
-2.301895,-2.512464,-10.260423,74.830002,-2.73,15.61,1729417487575.0,0.0
-2.445465,-1.526621,-10.664811,76.720001,3.36,12.32,1729417487597.0,0.0
-2.691926,-3.0006,-10.492528,88.410004,0.07,6.79,1729417487617.0,0.0
-3.227918,-3.98405,-8.233703,128.100006,-14.14,11.97,1729417487641.0,0.0
-3.438486,-3.78066,-9.095119,178.289993,-23.309999,30.870001,1729417487655.0,0.0
-2.749353,-4.524827,-8.396415,162.259995,-39.900002,4.06,1729417487676.0,0.0
-2.79721,-6.065805,-7.51107,124.739998,-39.970001,12.53,1729417487696.0,0.0
-2.158326,-5.410172,-7.099504,110.040001,-39.48,0.42,1729417487728.0,0.0
-2.053042,-4.558327,-3.172883,99.400002,-27.790001,-6.58,1729417487735.0,0.0
-2.612962,-5.094319,-5.532206,86.660004,-28.84,-5.18,1729417487756.0,0.0
-3.926622,-1.627119,-2.799603,55.790001,-32.34,27.440001,1729417487777.0,0.0
-1.90708,-2.991028,-7.908278,-21.700001,0.14,14.56,1729417487795.0,0.0
-2.658426,-3.074777,-9.729217,-90.230003,49.420002,1.82,1729417487819.0,0.0
-2.256432,-3.596412,-8.288737,-133.419998,71.050003,-0.28,1729417487835.0,0.0
-3.163311,-5.635098,-2.096112,-160.440002,71.540001,-6.58,1729417487856.0,0.0
-4.977071,-7.149754,-9.882358,-164.220001,25.969999,-10.29,1729417487876.0,0.0
-3.823731,-3.852444,-18.929621,-127.82,18.9,-63.0,1729417487945.0,0.0
-2.938386,-6.738188,-12.490535,-115.43,-29.889999,-42.84,1729417487946.0,0.0
-2.632105,-7.252645,-9.102298,-11.69,-16.379999,-23.799999,1729417487947.0,0.0
-3.311667,-0.681954,-10.853845,58.450001,22.960001,-8.82,1729417487955.0,0.0
-5.201996,1.923829,-8.896514,45.990002,27.299999,3.08,1729417487978.0,0.0
-5.053641,-0.22014,-8.126025,-22.68,9.17,-23.870001,1729417487995.0,0.0
-3.756732,-2.861816,-8.819944,-65.169998,-24.290001,-47.32,1729417488016.0,0.0
-3.026921,-3.06042,-7.719246,-49.77,-39.900002,-51.59,1729417488038.0,0.0
-2.935993,-1.050449,-12.983455,-41.299999,-15.82,-45.57,1729417488057.0,0.0
-4.06062,1.088734,-16.450655,-4.97,14.0,-32.48,1729417488075.0,0.0
-5.213961,4.086941,-13.009777,52.43,7.28,6.93,1729417488096.0,0.0
-2.103291,6.379266,-7.879565,37.170002,-20.23,21.35,1729417488118.0,0.0
0.497707,-3.718446,-14.749359,-73.43,0.91,8.61,1729417488136.0,0.0
-1.222732,-9.844072,-5.831308,52.150002,55.23,74.760002,1729417488155.0,0.0
-4.768896,-9.245867,0.882952,92.190002,120.68,104.160004,1729417488176.0,0.0
-5.039285,-14.091332,-4.185047,6.3,80.080002,32.34,1729417488195.0,0.0
-0.619741,-13.076776,-9.377472,-103.110001,-42.139999,-61.529999,1729417488220.0,0.0
0.334995,-6.092126,-13.282558,16.799999,-58.310001,-40.880001,1729417488235.0,0.0
-2.289931,-2.880959,-9.138189,21.700001,4.06,-75.459999,1729417488255.0,0.0
-4.443472,-1.064806,-12.141183,-29.190001,6.37,-103.040001,1729417488275.0,0.0
-2.892922,5.881558,-13.198811,-28.77,-24.43,-78.190002,1729417488296.0,0.0
-1.840081,10.284351,-14.029119,68.32,-25.059999,15.4,1729417488317.0,0.0
-4.737789,4.646862,-10.480563,108.080002,57.119999,70.559998,1729417488335.0,0.0
-5.821737,-4.962714,-4.024727,36.259998,36.889999,42.279999,1729417488355.0,0.0
-2.017149,-9.836893,-7.783852,-42.560001,-21.49,5.6,1729417488376.0,0.0
-0.165105,-9.750752,-6.288338,23.309999,-35.0,34.369999,1729417488396.0,0.0
-2.249253,-8.585447,-5.510671,39.900002,24.92,21.700001,1729417488419.0,0.0
-4.469792,-8.810372,-7.616355,11.06,35.560001,-9.38,1729417488435.0,0.0
-3.622734,-7.283752,-8.752945,14.28,-6.02,-28.139999,1729417488455.0,0.0
-1.787439,-2.550749,-12.071791,18.9,-44.099998,-56.91,1729417488475.0,0.0
-1.040878,-0.550349,-9.564112,-31.99,-51.380001,-93.590004,1729417488495.0,0.0
-0.727418,4.699504,-14.392829,-53.970001,-20.23,-84.980003,1729417488517.0,0.0
-3.168097,9.274581,-15.81895,53.130001,46.200001,22.75,1729417488535.0,0.0
-5.800202,-1.828116,-7.692925,10.92,45.220001,52.150002,1729417488555.0,0.0
-3.275774,-6.60419,-7.046863,-32.41,25.620001,43.610001,1729417488575.0,0.0
-1.806581,-6.204589,-5.606383,36.75,7.91,89.32,1729417488614.0,0.0
-3.268596,-8.142776,-4.95075,31.57,42.420002,81.340004,1729417488670.0,0.0
-4.977071,-12.318252,-4.486543,-3.85,49.07,42.560001,1729417488678.0,0.0
-3.522235,-13.371094,-4.740182,-15.61,-19.879999,-6.79,1729417488680.0,0.0
-1.39023,-7.348359,-7.221539,21.0,-56.560001,-21.07,1729417488827.0,0.0
-2.206182,-1.045663,-11.184053,33.459999,-29.049999,-29.540001,1729417488828.0,0.0
-4.0008,-1.964507,-10.719845,-28.210001,-19.530001,-70.139999,1729417488830.0,0.0
-3.244668,-4.589434,-10.827522,-103.739998,-39.689999,-99.120003,1729417488832.0,0.0
-1.67019,-1.866402,-10.396815,-42.279999,-63.420002,-72.379997,1729417488834.0,0.0
-1.009771,2.945565,-14.347364,74.480003,-23.870001,-33.040001,1729417488836.0,0.0
-4.036692,1.914258,-10.253245,119.910004,32.34,39.970001,1729417488837.0,0.0
-3.940979,-4.704289,-7.269395,81.129997,17.290001,20.23,1729417488838.0,0.0
-2.215754,-9.726824,-9.45165,74.059998,-19.74,13.79,1729417488841.0,0.0
-0.411566,-10.380065,-9.662218,187.460007,-36.75,29.4,1729417488855.0,0.0
-0.801596,-8.666803,-7.858029,377.089996,3.01,67.760002,1729417488874.0,0.0
-4.108476,-3.641876,-5.424529,484.399994,59.010002,72.029999,1729417488894.0,0.0
-6.324231,-5.07757,-2.701497,368.269989,40.740002,57.400002,1729417488921.0,0.0
-4.268795,-5.314459,-9.777073,139.930008,23.799999,16.73,1729417488934.0,0.0
-2.402394,-6.285945,-13.988441,27.93,26.74,18.620001,1729417488962.0,0.0
0.849452,-7.314859,-17.503498,-16.66,84.489998,7.14,1729417488974.0,0.0
-6.463014,-15.366707,14.94557,115.5,106.260002,79.449997,1729417488996.0,0.0
-8.595018,-6.259624,1.512264,17.290001,111.790001,-7.14,1729417489019.0,0.0
-4.34058,-6.991827,-8.070991,5.95,150.220001,-9.8,1729417489035.0,0.0
-2.261217,-3.924229,1.957329,30.52,-23.24,51.380001,1729417489054.0,0.0
-2.385644,-6.991827,8.516055,20.719999,-14.63,47.810001,1729417489075.0,0.0
-2.299503,-10.516455,-0.18664,-70.209999,18.48,-10.15,1729417489095.0,0.0
-2.56032,-9.506684,-2.912065,-75.389999,-25.76,-17.360001,1729417489116.0,0.0
-1.878366,-7.003791,-10.047462,-87.150002,-134.539993,-11.9,1729417489135.0,0.0
-2.811567,-8.997013,-15.943377,-68.110001,-93.239998,-33.25,1729417489154.0,0.0
-6.829116,-12.366108,-13.797016,-32.060001,41.16,-24.360001,1729417489175.0,0.0
-5.761917,-10.669596,-9.274581,51.52,45.779999,-5.18,1729417489195.0,0.0
-2.78046,-5.876772,-5.893522,66.57,55.720001,0.21,1729417489221.0,0.0
-0.047856,-2.397608,-3.579663,54.740002,75.669998,9.38,1729417489235.0,0.0
-0.445065,-2.660819,9.047262,81.550003,33.25,45.920002,1729417489255.0,0.0
-2.055435,-9.315259,11.736795,28.91,-34.720001,40.25,1729417489275.0,0.0
-3.52702,-11.083554,4.240082,-122.639999,43.330002,-40.25,1729417489296.0,0.0
-4.701896,-9.58804,-3.09392,-137.270004,-8.96,-48.860001,1729417489319.0,0.0
-2.194218,-4.232903,-18.329021,-87.919998,-155.539993,-15.4,1729417489338.0,0.0
-3.108276,-7.41775,-12.760924,-15.68,-151.550003,-11.41,1729417489356.0,0.0
-8.422735,-14.270795,-18.642481,-88.620003,65.379997,-33.110001,1729417489376.0,0.0
-6.896115,-12.739388,-13.902299,24.01,55.650002,-27.790001,1729417489395.0,0.0
-2.007578,-6.924829,-10.959127,133.490005,-20.09,20.860001,1729417489418.0,0.0
-0.418744,-4.019942,-8.630912,100.379997,55.93,7.91,1729417489446.0,0.0
-0.078963,-6.046663,-2.629712,80.360001,135.660004,-2.24,1729417489456.0,0.0
-4.409972,-6.125626,15.625132,135.029999,20.299999,46.689999,1729417489477.0,0.0
-1.988436,-5.180461,9.332008,34.580002,-13.93,-0.77,1729417489497.0,0.0
-1.79701,-8.729016,1.916651,-63.91,-22.82,-21.559999,1729417489518.0,0.0
0.248854,-10.317852,-8.843873,-83.440002,-51.799999,-54.880001,1729417489541.0,0.0
-3.431308,-9.549755,-9.722038,-41.23,-111.93,6.86,1729417489558.0,0.0
-5.347959,-9.848858,-16.701902,-37.66,-35.0,-14.42,1729417489577.0,0.0
-8.65484,-11.468799,-18.142382,-5.81,65.730003,-2.8,1729417489597.0,0.0
-5.000999,-11.602797,-9.238688,102.550003,35.700001,21.07,1729417489630.0,0.0
-1.904687,-7.353144,-10.576276,100.519997,30.450001,14.7,1729417489644.0,0.0
-0.677169,-6.979864,-10.573883,116.410004,105.910004,0.21,1729417489657.0,0.0
-2.050649,-7.850852,1.213161,140.490005,147.350006,-0.91,1729417489682.0,0.0
-5.28096,-1.986043,15.471991,148.190002,102.760002,10.99,1729417489698.0,0.0
-2.562713,0.064606,14.909678,171.570007,-21.49,52.639999,1729417489718.0,0.0
-1.933401,-1.89033,9.580862,49.279999,-80.989998,48.02,1729417489739.0,0.0
0.832702,-5.941379,-6.716653,-112.279999,-38.43,8.33,1729417489756.0,0.0
-3.400201,-10.430314,-0.59342,-95.269997,-91.349998,29.190001,1729417489777.0,0.0
-6.67119,-11.995219,-15.661024,-79.029999,-60.619999,58.73,1729417489799.0,0.0
-9.351151,-14.251652,-18.838692,-122.010002,-13.86,20.23,1729417489820.0,0.0
-5.644669,-17.247467,-13.397413,-100.590004,-15.33,-41.09,1729417489836.0,0.0
-2.553142,-15.608383,-6.989435,6.58,-25.27,-7.07,1729417489857.0,0.0
-2.194218,-9.245867,-6.4678,34.580002,61.950001,-37.450001,1729417489876.0,0.0
-4.0008,-7.178468,-3.828516,46.34,108.919998,-49.279999,1729417489899.0,0.0
-4.378866,-7.91785,-0.818345,74.900002,98.489998,-47.529999,1729417489920.0,0.0
-3.201597,-4.173083,3.931407,67.970001,45.639999,-28.700001,1729417489937.0,0.0
-1.584049,1.265803,8.008778,49.560001,-37.029999,7.91,1729417489957.0,0.0
-0.634098,0.710668,3.098706,14.63,-67.059998,29.049999,1729417489977.0,0.0
-0.090927,-6.673582,-0.514457,-66.220001,-0.7,-6.16,1729417489998.0,0.0
-2.806781,-13.24906,0.447458,-136.779999,-1.19,-19.6,1729417490018.0,0.0
-3.457629,-11.921042,-4.591826,-161.630005,-95.410004,-1.33,1729417490037.0,0.0
-2.0004,-8.757731,-12.605389,-139.649994,-92.190002,3.43,1729417490056.0,0.0
-4.079762,-12.571891,-16.431513,-88.340004,-34.650002,-14.35,1729417490076.0,0.0
-7.410572,-16.900507,-10.356135,-27.860001,73.150002,-31.780001,1729417490098.0,0.0
-5.28096,-12.485749,-8.336594,109.129997,4.76,-7.42,1729417490118.0,0.0
-1.473979,-4.426722,-8.319844,215.180008,44.099998,-2.45,1729417490136.0,0.0
-1.421337,-5.443672,-2.306681,190.470001,78.889999,-2.1,1729417490156.0,0.0
-1.18684,-4.723432,5.802595,150.289993,71.959999,-9.17,1729417490176.0,0.0
-3.510271,-1.820938,10.51167,121.309998,17.15,33.670002,1729417490198.0,0.0
-4.007978,-2.823531,1.648655,30.59,26.6,7.49,1729417490221.0,0.0
-2.959922,-9.437292,-6.989435,-57.049999,34.299999,-18.83,1729417490239.0,0.0
-1.380659,-13.631909,-4.201797,-11.69,-79.099998,13.65,1729417490256.0,0.0
-0.244068,-12.782458,-5.225924,51.799999,-68.110001,24.5,1729417490276.0,0.0
-1.830509,-8.796017,-5.580062,22.610001,-4.97,5.39,1729417490297.0,0.0
-4.220939,-7.52782,-3.766303,-43.119999,12.81,-11.34,1729417490319.0,0.0
-5.252246,-9.865608,-1.761117,-101.150002,-6.02,-25.200001,1729417490337.0,0.0
-4.725825,-13.165311,-2.529213,-115.849998,-27.58,-35.279999,1729417490357.0,0.0
-4.072584,-13.184454,-4.089334,-114.449997,-26.74,-48.860001,1729417490377.0,0.0
-2.313859,-10.040283,-5.63749,-16.24,-41.299999,-30.24,1729417490396.0,0.0
-1.65344,-7.630712,-3.053242,28.630001,-45.009998,-5.6,1729417490419.0,0.0
-2.108077,-5.546563,-3.409772,-104.510002,-9.8,-40.459999,1729417490436.0,0.0
-3.838088,-9.229117,-5.589634,-203.350006,50.470001,-65.730003,1729417490456.0,0.0
-2.900101,-9.308081,-5.103891,-161.070007,59.5,-61.25,1729417490476.0,0.0
0.200997,-1.895115,2.313859,63.209999,-7.7,31.01,1729417490501.0,0.0
0.885344,-2.742175,8.647661,107.940002,-75.739998,78.260002,1729417490518.0,0.0
-0.31346,-7.429714,1.658226,-74.410004,-24.360001,21.07,1729417490536.0,0.0
-1.31366,-9.647861,-4.285545,-176.680008,41.299999,4.55,1729417490556.0,0.0
-4.443472,-13.813765,-2.758924,-96.32,-87.709999,16.52,1729417490577.0,0.0
-4.469792,-8.872586,-6.982256,-167.229996,-63.0,-23.24,1729417490597.0,0.0
-3.701697,-5.118248,-15.993626,-172.199997,-64.959999,-16.940001,1729417490626.0,0.0
-4.345366,-5.525027,-12.624532,-87.010002,-36.959999,6.72,1729417490645.0,0.0
-4.369294,-8.650054,-11.710474,-95.059998,38.220001,-2.73,1729417490661.0,0.0
-5.075177,-10.894521,-11.521441,-155.610001,27.370001,-1.33,1729417490680.0,0.0
-4.634897,-10.870593,-8.846266,-139.789993,34.650002,-26.530001,1729417490698.0,0.0
-3.132205,-11.779866,-12.083755,-5.04,56.0,-31.5,1729417490720.0,0.0
-1.672583,-5.070391,-8.403593,46.060001,66.43,-19.18,1729417490735.0,0.0
-1.864009,-1.974079,0.086142,-19.25,47.18,-10.57,1729417490756.0,0.0
-0.717847,-6.357729,-1.663012,-60.760002,46.060001,-19.040001,1729417490775.0,0.0
1.835295,-5.359922,-0.081356,-37.66,12.25,-21.280001,1729417490796.0,0.0
-0.019143,0.007178,1.636691,-11.62,-43.470001,16.870001,1729417490820.0,0.0
-0.081356,-2.54357,-6.419943,-11.76,-38.43,-12.39,1729417490835.0,0.0
-1.801795,-5.182854,-8.628519,-108.010002,-61.810001,-31.08,1729417490856.0,0.0
-5.759524,-8.700303,-8.367701,-174.509995,-66.360001,-21.559999,1729417490875.0,0.0
-5.706882,-6.819544,-19.877178,-181.860001,2.52,-58.73,1729417490895.0,0.0
-6.072984,-2.665605,-16.268801,-64.400002,17.01,21.91,1729417490917.0,0.0
-2.416751,-6.541977,-10.679168,-18.83,-3.92,11.34,1729417490936.0,0.0
-1.375873,-7.67139,-11.373087,-43.330002,11.2,27.51,1729417490954.0,0.0
-2.333002,-6.465407,-15.627523,30.24,59.220001,22.68,1729417490975.0,0.0
-4.474578,-4.991428,-10.066606,113.120003,95.059998,28.84,1729417491005.0,0.0
-4.158726,-5.702096,-3.826123,125.090004,64.75,12.95,1729417491020.0,0.0
-1.213161,-4.957928,0.306281,109.410004,6.79,2.8,1729417491036.0,0.0
1.033699,-4.567898,-1.940579,124.459999,-44.170002,16.1,1729417491057.0,0.0
2.699104,-3.586841,-5.627919,99.120003,-53.619999,-8.05,1729417491077.0,0.0
1.414158,-3.067599,-3.893122,35.77,-32.830002,-5.18,1729417491097.0,0.0
-1.098306,-6.355337,-3.641876,-23.379999,-40.529999,-18.27,1729417491119.0,0.0
-2.584249,-4.338188,-8.633304,-29.26,-35.700001,8.05,1729417491138.0,0.0
-4.876573,-6.836295,-18.721445,2.66,-35.700001,36.470001,1729417491157.0,0.0
-8.693125,-14.048263,-13.904692,-8.54,70.559998,11.2,1729417491177.0,0.0
-7.082755,-14.344972,-12.172288,-8.89,60.130001,-3.85,1729417491198.0,0.0
-1.942972,-7.479963,-11.129018,146.789993,-22.68,25.76,1729417491222.0,0.0
0.760918,-0.133998,-7.415358,176.259995,-3.99,34.509998,1729417491237.0,0.0
0.387637,-2.215754,-2.778067,88.480003,49.98,27.58,1729417491257.0,0.0
-0.787239,-6.250053,1.808974,-3.92,80.57,6.16,1729417491278.0,0.0
-3.06042,-8.688338,3.586841,-16.17,28.35,17.57,1729417491298.0,0.0
-4.17069,-6.922436,-1.418944,8.33,12.53,-0.35,1729417491320.0,0.0
-4.445865,-6.575477,-4.558327,-2.03,6.51,2.03,1729417491337.0,0.0
-1.751546,-6.939186,-5.199604,-24.15,-114.099998,-15.96,1729417491357.0,0.0
0.79681,-6.101698,-14.732609,-60.060001,-160.860001,-19.460001,1729417491377.0,0.0
0.799203,-4.622933,-15.926627,-63.279999,-101.989998,-37.52,1729417491397.0,0.0
-5.778666,-9.635897,-15.306887,-29.610001,81.480003,-0.98,1729417491419.0,0.0
-7.951349,-11.875579,-9.145369,93.730003,50.540001,11.34,1729417491438.0,0.0
-2.868994,-7.482357,-10.229317,136.360001,-37.66,22.540001,1729417491458.0,0.0
-0.689133,-2.828316,-11.63869,119.209999,8.61,15.54,1729417491480.0,0.0
0.289532,-4.792823,-8.059027,71.470001,118.020004,-2.94,1729417491499.0,0.0
-2.057827,-6.869793,3.601198,85.190002,114.309998,28.0,1729417491522.0,0.0
-4.697111,-7.745567,9.547362,110.949997,37.799999,38.57,1729417491539.0,0.0
-2.778067,-6.250053,2.404787,103.599998,18.200001,-0.14,1729417491559.0,0.0
-2.359323,-5.17089,-0.715454,40.880001,4.13,2.24,1729417491578.0,0.0
0.232104,-6.738188,-3.9338,24.08,-89.459999,5.88,1729417491599.0,0.0
-0.155533,-9.123833,-3.249453,40.810001,-150.289993,24.219999,1729417491624.0,0.0
-0.457029,-8.946764,-8.190632,79.309998,-81.830002,18.549999,1729417491638.0,0.0
-4.744967,-11.466407,-7.71446,135.309998,14.14,28.280001,1729417491658.0,0.0
-7.310073,-15.515062,-12.13161,139.089996,95.830002,26.809999,1729417491680.0,0.0
-5.347959,-10.858629,-3.9673,129.919998,18.549999,39.27,1729417491698.0,0.0
-1.701297,-8.312666,-3.622734,204.330002,-29.190001,54.599998,1729417491726.0,0.0
-2.852244,-9.492328,-4.419543,309.26001,66.290001,38.849998,1729417491738.0,0.0
-5.130211,-8.126025,-0.636491,353.360016,115.360001,40.950001,1729417491758.0,0.0
-6.336195,-5.146961,4.055835,312.130005,98.629997,45.220001,1729417491778.0,0.0
-5.594419,-9.365508,6.865008,294.630005,65.940002,20.23,1729417491798.0,0.0
-5.048856,-13.03849,4.098906,377.929993,49.490002,42.700001,1729417491820.0,0.0
-3.761517,-13.765909,3.728018,459.410004,14.98,68.809998,1729417491839.0,0.0
-3.029313,-9.781858,7.647461,398.160004,-17.57,77.980003,1729417491858.0,0.0
-1.533799,-7.781459,8.319844,265.089996,-53.760002,29.120001,1729417491878.0,0.0
-1.249053,-10.150353,5.958128,226.380005,-44.66,15.26,1729417491899.0,0.0
-0.638884,-10.286745,4.771288,197.399994,-44.869999,-25.620001,1729417491920.0,0.0
-0.071785,-1.706082,-0.023928,150.779999,-14.91,-52.920002,1729417491938.0,0.0
-4.027121,5.52742,1.426122,172.619995,88.760002,43.049999,1729417491958.0,0.0
-6.573084,1.179662,5.493921,108.709999,96.599998,7.63,1729417491979.0,0.0
-5.367101,-2.292324,4.187439,3.99,35.279999,-45.639999,1729417491998.0,0.0
-5.580062,-0.356531,7.04447,18.41,25.27,24.01,1729417492020.0,0.0
-5.156533,-0.524028,10.604989,-39.900002,8.61,7.14,1729417492038.0,0.0
-6.338587,-13.96212,4.41715,-176.75,18.83,-17.15,1729417492057.0,0.0
-6.183054,-18.50609,1.536192,-152.25,24.290001,-35.700001,1729417492079.0,0.0
-4.945964,-12.605389,3.268596,47.18,-21.07,-1.54,1729417492098.0,0.0
-3.440879,-2.038685,6.326623,126.0,-29.33,-7.21,1729417492121.0,0.0
-3.266203,1.847259,7.250252,106.68,-15.4,-13.72,1729417492138.0,0.0
-3.914658,-1.591227,6.005985,19.25,10.99,-17.15,1729417492159.0,0.0
-5.4006,-5.297709,5.371887,-43.400002,33.110001,-30.73,1729417492178.0,0.0
-7.305287,-8.977871,6.79083,-37.380001,34.720001,-27.16,1729417492199.0,0.0
-6.037091,-9.851252,8.547162,28.0,-8.68,-35.0,1729417492223.0,0.0
-3.330809,-5.769095,7.365108,132.509995,-55.510002,-19.67,1729417492238.0,0.0
-2.120041,-0.526421,5.012963,119.489998,-62.860001,-5.67,1729417492258.0,0.0
-2.868994,-0.236889,4.237689,45.080002,-26.25,-5.95,1729417492277.0,0.0
-5.237889,-3.790231,6.15434,-13.37,11.97,-10.01,1729417492298.0,0.0
-7.834101,-5.340781,7.21436,0.14,-2.45,-5.6,1729417492321.0,0.0
-4.831109,-4.776074,7.982457,-1.33,-56.98,-16.73,1729417492338.0,0.0
-3.132205,-4.649254,5.752346,-23.940001,-46.970001,-12.18,1729417492358.0,0.0
-2.888137,-6.455836,6.283553,-14.28,-44.939999,-17.85,1729417492378.0,0.0
-2.790031,-7.130611,9.375079,13.72,-39.27,-9.8,1729417492400.0,0.0
-6.455836,-3.117848,10.394422,48.23,10.36,-8.68,1729417492419.0,0.0
-3.074777,-4.268795,8.020741,85.889999,17.15,-16.379999,1729417492438.0,0.0
-3.876373,-5.216353,8.147561,92.610001,35.98,-8.96,1729417492458.0,0.0
-2.979064,-4.163511,9.461221,59.920002,25.549999,-17.92,1729417492478.0,0.0
-0.641276,-4.59422,10.068997,-31.01,0.77,-28.0,1729417492499.0,0.0
-2.340181,-7.666604,9.879964,-78.330002,-3.92,-5.18,1729417492519.0,0.0
-3.184847,-7.948956,7.532606,-43.540001,-28.700001,9.59,1729417492538.0,0.0
-3.713661,-3.304488,5.728417,-20.23,-41.09,20.58,1729417492558.0,0.0
-3.658626,-1.57687,7.267002,-74.620003,-43.68,41.790001,1729417492578.0,0.0
-4.608576,-5.398208,7.874779,-119.209999,-54.880001,37.799999,1729417492598.0,0.0
-4.027121,-5.692525,5.158926,-178.990005,-87.360001,39.130001,1729417492620.0,0.0
-2.878566,-7.384251,4.022335,-200.899994,-101.220001,36.68,1729417492639.0,0.0
-3.136991,-6.975078,5.79063,-229.949997,-112.840004,34.23,1729417492658.0,0.0
-2.026721,-9.016156,8.999406,-289.589996,-141.190002,27.299999,1729417492678.0,0.0
-1.651048,-10.382458,7.700103,-297.360016,-117.389999,37.450001,1729417492698.0,0.0
-1.39023,-10.159925,2.632105,-325.640015,-94.360001,26.74,1729417492719.0,0.0
-2.758924,-6.439085,3.661019,-260.75,-58.240002,20.440001,1729417492738.0,0.0
-1.713261,-7.312466,2.773281,-148.470001,-43.959999,20.23,1729417492758.0,0.0
-2.715853,-8.216952,3.17049,-121.449997,8.68,19.809999,1729417492779.0,0.0
-3.024528,-8.925228,2.500499,-111.510002,4.83,30.66,1729417492798.0,0.0
-2.926422,-10.140782,0.583849,-110.18,-11.34,24.360001,1729417492820.0,0.0
-3.728018,-11.519048,-0.315853,-56.0,1.05,22.33,1729417492838.0,0.0
-2.361716,-8.362915,4.402793,2.66,-46.41,14.49,1729417492858.0,0.0
-1.138984,-7.300502,5.977271,26.74,-33.880001,22.4,1729417492879.0,0.0
-3.433701,-7.549356,3.826123,24.01,17.710001,0.14,1729417492964.0,0.0
-3.957729,-9.832108,3.261417,-12.32,3.57,6.58,1729417492968.0,0.0
-3.416951,-10.650455,2.531606,6.86,4.2,-1.54,1729417492970.0,0.0
-1.878366,-7.360322,2.553142,56.209999,16.379999,-0.7,1729417492971.0,0.0
-2.007578,-5.460421,4.864608,49.490002,29.26,7.21,1729417492979.0,0.0
-2.215754,-6.21416,3.979264,-39.689999,46.34,28.84,1729417492999.0,0.0
-1.514657,-10.805987,-1.299303,-31.710001,83.019997,37.73,1729417493019.0,0.0
-3.608376,-8.444271,-3.337988,-20.16,123.690002,27.299999,1729417493045.0,0.0
-4.694718,-9.52822,-1.579263,22.960001,97.720001,14.35,1729417493057.0,0.0
-5.175675,-11.430513,0.20339,-34.369999,43.959999,11.9,1729417493077.0,0.0
-4.249653,-10.619347,0.071785,-27.51,31.710001,9.31,1729417493099.0,0.0
-3.28056,-10.351351,2.565106,-47.880001,-5.11,-0.63,1729417493119.0,0.0
-1.205983,-9.279366,0.579063,-87.639999,-6.3,-8.89,1729417493137.0,0.0
-2.852244,-7.125826,3.364309,-157.009995,-10.57,-2.87,1729417493158.0,0.0
-4.15394,-8.018349,1.564906,-158.970001,11.55,-3.22,1729417493177.0,0.0
-3.24706,-7.846066,2.333002,-167.300003,-10.15,-10.15,1729417493198.0,0.0
-2.196611,-9.276974,0.722632,-232.889999,-61.32,-13.02,1729417493223.0,0.0
-1.976472,-17.874384,-6.738188,-202.369995,-54.040001,-23.1,1729417493238.0,0.0
-2.617748,-12.892529,-3.517449,-87.010002,17.92,-40.599998,1729417493258.0,0.0
-3.54377,-6.805188,-1.141376,-109.970001,23.17,-33.459999,1729417493278.0,0.0
-3.629912,-4.113262,1.153341,-225.820007,-51.029999,-55.650002,1729417493298.0,0.0
-2.928815,-4.039084,-3.498307,-355.950012,-90.230003,-71.190002,1729417493320.0,0.0
-2.522035,-8.764909,-6.704689,-334.529999,-42.07,-68.599998,1729417493338.0,0.0
-3.493521,-9.317651,-8.865408,-222.040009,-2.03,-74.620003,1729417493360.0,0.0
-4.290331,-8.293523,-6.518049,-181.089996,-12.18,-60.760002,1729417493379.0,0.0
-3.464807,-7.683353,-5.656632,-157.639999,-37.240002,-47.740002,1729417493400.0,0.0
-1.899901,-5.843273,-8.843873,-163.589996,-46.060001,-63.139999,1729417493421.0,0.0
-2.132005,-2.912065,-7.343572,-162.680008,-29.4,-53.689999,1729417493439.0,0.0
-2.639283,-6.329016,-6.680761,-112.980003,-16.17,-44.939999,1729417493460.0,0.0
-2.385644,-6.178268,-5.740381,-137.759995,-11.69,-45.920002,1729417493479.0,0.0
-2.304288,-4.072584,-6.455836,-160.089996,-35.420002,-42.91,1729417493500.0,0.0
-1.782653,-4.369294,-10.798808,-173.110001,-25.41,-40.18,1729417493521.0,0.0
-2.502892,-6.039484,-10.628918,-140.419998,-1.26,-42.349998,1729417493539.0,0.0
-3.072384,-6.525227,-9.068797,-85.330002,-11.55,-28.35,1729417493559.0,0.0
-1.304088,-4.12044,-8.920443,-46.060001,-31.57,-18.41,1729417493580.0,0.0
-1.531406,-3.428915,-9.147761,-57.610001,-15.05,-9.73,1729417493600.0,0.0
-2.230111,-2.608176,-9.518648,-87.57,9.45,-16.1,1729417493621.0,0.0
-2.208575,-4.309474,-8.286345,-59.849998,0.91,-3.64,1729417493640.0,0.0
-2.301895,-2.751746,-7.965706,-63.98,6.86,10.08,1729417493659.0,0.0
-2.589034,0.26321,-11.136196,-126.770004,27.790001,12.53,1729417493679.0,0.0
-3.558127,-4.945964,-11.038091,-115.849998,12.39,-16.309999,1729417493700.0,0.0
-1.718047,-2.926422,-9.128618,-48.860001,-44.73,15.68,1729417493721.0,0.0
-1.07677,-0.949951,-8.738588,-14.63,-25.549999,21.0,1729417493739.0,0.0
-3.239882,-1.253839,-7.080362,-33.110001,4.9,7.49,1729417493765.0,0.0
-2.598605,-2.821138,-8.169096,-30.66,3.64,5.67,1729417493779.0,0.0
-2.694318,-0.193819,-10.504492,-27.719999,15.12,20.440001,1729417493799.0,0.0
-2.17029,-3.115455,-10.459028,-27.719999,13.86,5.25,1729417493821.0,0.0
-2.086541,-2.287539,-12.3685,-26.25,5.88,25.059999,1729417493839.0,0.0
-2.35693,-0.658026,-8.956335,-20.02,-16.450001,25.48,1729417493859.0,0.0
-1.787439,-2.177469,-9.597611,-29.4,-16.450001,6.3,1729417493880.0,0.0
-2.667997,-2.926422,-11.4353,-19.32,-6.51,5.74,1729417493900.0,0.0
-1.344766,-0.842274,-11.485549,21.559999,-16.940001,19.110001,1729417493921.0,0.0
-1.78026,-3.053242,-9.439686,23.52,-33.459999,19.530001,1729417493939.0,0.0
-2.045863,-3.022135,-8.85105,19.6,-9.59,5.46,1729417493959.0,0.0
-3.218346,-0.775275,-9.559326,44.869999,8.05,26.530001,1729417493979.0,0.0
-2.804388,-2.199004,-13.134203,56.07,15.68,17.01,1729417494000.0,0.0
-2.512464,-4.811966,-11.849257,168.699997,8.12,36.68,1729417494020.0,0.0
-1.72044,-2.947958,-9.006584,250.949997,25.27,52.290001,1729417494039.0,0.0
-2.304288,-0.993021,-7.109076,246.610001,16.379999,72.379997,1729417494059.0,0.0
-2.65364,-3.515057,-6.317052,154.0,20.51,29.540001,1729417494080.0,0.0
-2.603391,-4.768896,-9.482756,111.300003,23.24,17.710001,1729417494099.0,0.0
-2.167897,-5.307281,-9.487542,138.039993,12.11,12.6,1729417494121.0,0.0
-2.344966,-4.555934,-7.188039,149.520004,-5.18,24.43,1729417494139.0,0.0
-2.598605,-4.737789,-5.819345,106.889999,-23.379999,14.07,1729417494160.0,0.0
-2.421536,-6.843473,-6.958328,52.150002,-28.35,-4.83,1729417494180.0,0.0
-2.414358,-6.73101,-8.65484,31.43,-29.469999,-10.71,1729417494199.0,0.0
-2.402394,-6.21416,-8.295916,64.400002,-31.219999,-4.06,1729417494237.0,0.0
-2.440679,-5.912664,-4.599005,131.809998,-23.940001,4.27,1729417494241.0,0.0
-3.503092,-5.158926,-2.122434,193.130005,-10.5,20.09,1729417494260.0,0.0
-3.830909,-3.306881,-4.689932,105.489998,-17.290001,-1.82,1729417494280.0,0.0
-4.41715,-7.668997,-4.41715,-13.93,-28.559999,16.379999,1729417494300.0,0.0
-1.600798,-8.989835,-7.783852,-59.010002,-17.01,13.3,1729417494321.0,0.0
-1.304088,-4.646862,-8.432307,-57.189999,36.330002,5.25,1729417494339.0,0.0
-2.615355,-4.73061,-6.367301,-143.149994,50.330002,7.0,1729417494359.0,0.0
-8.484949,-8.300702,2.443072,-168.910004,17.57,-14.91,1729417494380.0,0.0
-3.821337,-11.722438,-6.494121,-62.720001,-0.07,-11.83,1729417494399.0,0.0
-2.249253,-7.049256,-7.01097,-20.93,4.2,-38.009998,1729417494421.0,0.0
-3.881158,-2.572284,-4.733003,-91.489998,-15.75,-0.07,1729417494439.0,0.0
-3.9338,-3.270989,-7.343572,-175.490005,-3.29,-18.34,1729417494462.0,0.0
-2.57707,-7.618747,-15.689737,-202.649994,9.03,-72.519997,1729417494479.0,0.0
-2.510071,-5.905487,-12.713067,-142.449997,13.440001,-61.040001,1729417494499.0,0.0
-2.270789,-3.61077,-9.430114,-14.63,-4.9,-20.65,1729417494520.0,0.0
-1.892723,0.638884,-8.671589,-1.26,2.03,-8.4,1729417494539.0,0.0
-3.23031,1.225125,-11.538191,-29.190001,27.790001,4.97,1729417494559.0,0.0
-4.130012,-1.710868,-14.534004,-26.460001,34.580002,-8.68,1729417494578.0,0.0
-4.565506,-3.665804,-10.650455,-13.16,20.860001,3.57,1729417494599.0,0.0
-3.136991,-4.888536,-10.202995,25.549999,-3.64,11.13,1729417494620.0,0.0
-0.823131,-5.24746,-6.664011,60.549999,-33.389999,3.64,1729417494648.0,0.0
0.825524,-5.352744,-5.285746,52.779999,-66.849998,18.41,1729417494660.0,0.0
-0.758525,-5.496314,-4.996214,46.970001,-59.57,1.12,1729417494678.0,0.0
-4.898108,-5.465207,-7.530212,-7.49,68.18,-1.82,1729417494699.0,0.0
-5.513064,-8.420342,-16.421942,13.51,100.099998,-18.83,1729417494721.0,0.0
-3.811767,-9.71486,-8.997013,80.779999,-17.639999,9.94,1729417494739.0,0.0
-0.693919,-5.589634,-9.217153,129.779999,-73.709999,34.09,1729417494759.0,0.0
0.533599,-2.811567,-11.849257,188.509995,-60.34,34.720001,1729417494779.0,0.0
-2.06022,-1.351945,-6.628119,190.539993,-6.93,38.849998,1729417494799.0,0.0
-5.168497,-3.024528,-3.163311,166.669998,15.82,27.65,1729417494820.0,0.0
-5.848059,-2.54357,-7.929814,148.75,14.98,33.950001,1729417494839.0,0.0
-5.929415,-5.003392,-5.108676,138.949997,-17.780001,16.52,1729417494858.0,0.0
-3.041277,-8.989835,-9.408579,125.860001,-52.779999,23.940001,1729417494878.0,0.0
-3.768696,-10.518847,-6.290731,176.889999,-35.420002,18.200001,1729417494899.0,0.0
-4.608576,-8.870193,-6.482157,250.809998,-43.400002,21.49,1729417494920.0,0.0
-4.907679,-8.013563,-4.630112,210.630005,-35.560001,1.26,1729417494939.0,0.0
-4.141976,-9.726824,-3.742374,144.759995,-36.610001,-4.62,1729417494959.0,0.0
-1.859223,-10.616954,-7.566105,140.559998,33.18,-22.82,1729417494978.0,0.0
-5.551349,-6.719046,-8.317451,164.080002,138.669998,-29.68,1729417494999.0,0.0
-4.524827,-8.477771,-8.353344,50.610001,198.240005,-46.900002,1729417495020.0,0.0
-5.757132,-8.760124,0.260818,17.92,117.809998,-14.0,1729417495038.0,0.0
-2.24686,-8.353344,0.705883,36.82,32.130001,-4.83,1729417495058.0,0.0
1.057628,-7.04447,0.533599,58.240002,43.259998,3.71,1729417495079.0,0.0
-0.808774,-5.419744,10.798808,50.400002,-4.27,2.73,1729417495098.0,0.0
-3.67059,-4.788038,7.173682,-30.73,-16.73,10.08,1729417495121.0,0.0
-6.135197,-5.613562,4.0008,-142.520004,22.68,-37.52,1729417495138.0,0.0
-5.130211,-8.549555,-0.622134,-194.669998,-56.700001,-41.02,1729417495158.0,0.0
-1.806581,-10.169496,-5.860023,-151.059998,-133.979996,-22.4,1729417495178.0,0.0
-0.569492,-10.07139,-16.888542,-100.449997,-108.709999,-30.59,1729417495199.0,0.0
-4.821537,-10.569098,-17.371893,-46.48,-2.38,-21.91,1729417495224.0,0.0
-6.589834,-9.693325,-12.256038,61.32,91.209999,6.58,1729417495238.0,0.0
-2.699104,-8.870193,-9.401401,135.520004,20.65,39.970001,1729417495258.0,0.0
0.148355,-6.477371,-7.23111,67.199997,49.0,18.48,1729417495277.0,0.0
0.775275,-5.101498,-3.20399,23.309999,87.989998,22.049999,1729417495299.0,0.0
-2.928815,-6.415157,11.076375,5.6,90.860001,21.42,1729417495320.0,0.0
-3.909872,-9.142976,7.563712,-6.79,20.51,24.08,1729417495338.0,0.0
-5.032106,-9.578469,3.029313,-57.049999,-37.450001,-17.219999,1729417495359.0,0.0
-2.366502,-7.219146,-3.462414,-105.840004,-79.590004,-37.799999,1729417495379.0,0.0
-0.976272,-5.048856,-9.41815,-147.490005,-170.240005,-22.4,1729417495399.0,0.0
-2.385644,-9.506684,-15.483955,-106.610001,-99.540001,-16.940001,1729417495420.0,0.0
-7.987241,-13.830515,-19.046867,-67.830002,68.459999,-30.940001,1729417495438.0,0.0
-7.116255,-13.411771,-13.294522,-12.32,60.689999,-21.139999,1729417495458.0,0.0
-1.261017,-8.353344,-7.941778,56.07,0.49,14.21,1729417495478.0,0.0
-0.344566,-5.91745,-6.075377,82.669998,30.66,13.72,1729417495507.0,0.0
0.287139,-4.034299,-8.449057,56.91,115.150002,-3.85,1729417495520.0,0.0
-2.081756,-3.996014,3.151347,50.470001,119.980003,12.32,1729417495539.0,0.0
-5.28096,-4.582255,12.179466,55.23,6.65,57.119999,1729417495559.0,0.0
-2.842674,-6.65444,7.058826,23.799999,-43.119999,46.549999,1729417495579.0,0.0
-2.885744,-6.333801,-0.440279,-116.059998,2.1,-9.8,1729417495599.0,0.0
-2.928815,-6.80758,-6.623333,-154.279999,-17.92,-22.049999,1729417495621.0,0.0
-2.921637,-7.946564,-13.686946,-125.020004,-92.82,-2.59,1729417495638.0,0.0
-3.897908,-10.758131,-14.268401,-91.419998,-61.599998,1.61,1729417495658.0,0.0
-7.039684,-15.158531,-12.952348,-25.690001,53.27,-15.82,1729417495680.0,0.0
-3.562913,-11.205588,-8.336594,74.340004,24.15,2.59,1729417495699.0,0.0
-1.399801,-6.12084,-7.980063,129.850006,46.48,14.21,1729417495721.0,0.0
-1.600798,-3.617948,-6.920043,74.550003,93.309998,1.96,1729417495740.0,0.0
-2.85703,-5.364708,-0.291924,10.78,102.760002,-4.69,1729417495758.0,0.0
-3.538985,-5.312066,6.585048,20.16,34.23,12.95,1729417495781.0,0.0
-1.507478,-4.261617,4.962714,50.540001,-48.23,39.830002,1729417495800.0,0.0
-1.694118,-5.225924,1.007378,-27.440001,-35.349998,12.53,1729417495822.0,0.0
-2.40718,-7.759924,-5.352744,-142.729996,3.71,-29.889999,1729417495839.0,0.0
-3.017349,-8.762517,-8.614161,-140.839996,-60.549999,-37.240002,1729417495859.0,0.0
-2.861816,-8.420342,-10.07139,-55.93,-118.160004,-4.76,1729417495880.0,0.0
-4.144369,-10.648061,-14.00519,-32.549999,-42.0,0.14,1729417495900.0,0.0
-6.082555,-13.373486,-13.92862,-50.82,57.540001,-23.66,1729417495923.0,0.0
-4.414758,-13.734802,-8.879765,27.440001,21.84,-10.99,1729417495939.0,0.0
-1.739582,-9.341579,-8.365308,122.989998,18.34,11.34,1729417495960.0,0.0
-1.753939,-4.072584,-8.585447,109.340004,74.620003,4.06,1729417495980.0,0.0
-2.478964,-5.943772,-2.988636,30.17,113.75,-14.77,1729417496002.0,0.0
-2.476572,-2.976671,5.819345,2.52,60.200001,-3.85,1729417496022.0,0.0
-1.524228,-0.859023,6.632904,69.720001,-58.939999,63.07,1729417496041.0,0.0
-1.98365,-1.682154,2.352145,9.24,-65.590004,38.080002,1729417496061.0,0.0
-2.79721,-5.886343,-4.386044,-135.869995,13.51,-18.41,1729417496082.0,0.0
-5.237889,-11.559726,-6.599405,-141.889999,-68.32,-31.710001,1729417496102.0,0.0
-4.455436,-9.119047,-13.229917,-115.010002,-127.190002,-7.0,1729417496123.0,0.0
-4.029513,-9.475577,-18.046667,-54.32,-73.989998,-3.92,1729417496142.0,0.0
-6.159126,-12.660425,-13.746766,-60.760002,43.82,-17.219999,1729417496162.0,0.0
-5.570491,-12.949955,-10.9017,-14.98,74.269997,-20.51,1729417496181.0,0.0
-2.289931,-8.910872,-7.886744,81.269997,20.58,1.12,1729417496202.0,0.0
-0.679562,-4.54397,-7.862815,90.580002,37.939999,19.74,1729417496231.0,0.0
-0.744168,-5.998806,-5.656632,55.650002,74.550003,-0.49,1729417496240.0,0.0
-3.59402,-6.470192,2.754139,24.92,86.169998,-4.48,1729417496260.0,0.0
-2.54357,-4.414758,2.823531,53.130001,10.01,0.77,1729417496280.0,0.0
-1.258625,-3.09392,0.239282,29.120001,-38.5,5.67,1729417496301.0,0.0
-2.208575,-4.634897,-0.746561,-52.009998,-47.529999,6.65,1729417496322.0,0.0
-1.990828,-7.080362,-6.355337,-129.5,-45.990002,-34.580002,1729417496341.0,0.0
-3.196811,-9.71486,-7.724032,-106.68,-92.610001,-29.610001,1729417496360.0,0.0
-3.617948,-10.549955,-12.366108,-85.260002,-98.629997,-32.900002,1729417496380.0,0.0
-4.718646,-10.279566,-14.433505,-38.43,-36.470001,-24.639999,1729417496401.0,0.0
-5.398208,-9.422935,-11.97847,19.18,42.349998,-11.27,1729417496422.0,0.0
-3.720839,-9.667004,-9.262616,33.810001,35.490002,5.04,1729417496441.0,0.0
-1.895115,-9.233903,-9.229117,51.869999,21.700001,17.15,1729417496461.0,0.0
-1.22034,-7.647461,-9.80818,63.91,63.0,7.28,1729417496481.0,0.0
-1.897508,-7.123433,-7.831708,93.309998,94.639999,10.43,1729417496501.0,0.0
-2.723032,-4.955536,0.394816,67.059998,89.32,2.94,1729417496523.0,0.0
-3.220739,-2.285146,7.286145,76.300003,33.040001,25.969999,1729417496540.0,0.0
-0.497707,-2.254039,2.790031,59.990002,-51.799999,17.43,1729417496560.0,0.0
-1.734797,-3.337988,1.033699,-58.099998,-69.230003,17.92,1729417496581.0,0.0
-2.11047,-7.755138,-8.91805,-144.899994,-56.490002,-42.209999,1729417496601.0,0.0
-3.931407,-8.748159,-9.765109,-59.080002,-109.620003,10.22,1729417496623.0,0.0
-4.407579,-7.668997,-15.538989,-71.470001,-37.52,17.290001,1729417496642.0,0.0
-6.707082,-11.705689,-15.13221,-87.779999,43.75,12.95,1729417496660.0,0.0
-6.305088,-13.356737,-12.23211,-47.459999,54.599998,-0.98,1729417496680.0,0.0
-3.275774,-10.07139,-10.327423,39.060001,15.12,1.47,1729417496701.0,0.0
-1.201197,-7.381857,-7.767102,100.379997,11.69,7.98,1729417496722.0,0.0
-1.28016,-5.54417,-5.393422,99.470001,43.049999,6.3,1729417496742.0,0.0
-2.321038,-4.941179,-2.325824,72.590004,69.93,-11.62,1729417496761.0,0.0
-3.952943,-3.713661,0.947558,15.12,48.439999,-12.95,1729417496780.0,0.0
-2.215754,-5.79781,0.387637,9.31,-4.34,-26.389999,1729417496801.0,0.0
-1.770689,-2.533999,0.4666,-10.01,-54.670002,10.43,1729417496824.0,0.0
-0.677169,-4.886144,-1.883151,-45.150002,-83.230003,-13.65,1729417496840.0,0.0
-0.993021,-8.956335,-5.74756,-121.940002,-71.82,-33.599998,1729417496861.0,0.0
-2.282753,-9.401401,-10.655239,-122.639999,-83.440002,-29.120001,1729417496880.0,0.0
-3.986443,-10.413565,-15.567703,-52.990002,-31.360001,-14.35,1729417496900.0,0.0
-6.412765,-12.385249,-14.155938,26.67,60.41,1.89,1729417496923.0,0.0
-3.67059,-11.25823,-9.645468,40.599998,59.920002,0.21,1729417496940.0,0.0
-1.299303,-6.209375,-8.906086,79.029999,21.559999,15.47,1729417496960.0,0.0
-1.131805,-5.663811,-8.69791,101.989998,65.870003,9.03,1729417496982.0,0.0
-2.065006,-5.730811,-6.798009,62.720001,109.340004,8.47,1729417497002.0,0.0
-3.943372,-3.385844,2.689533,48.720001,92.260002,17.01,1729417497022.0,0.0
-4.220939,-6.441479,7.006185,86.940002,26.67,28.49,1729417497040.0,0.0
-2.732604,-2.493321,3.419343,6.23,-44.170002,19.879999,1729417497061.0,0.0
-2.014757,-5.441278,-0.926022,-38.5,-83.230003,-1.05,1729417497080.0,0.0
-1.098306,-7.4345,-6.632904,-88.620003,-87.220001,-32.34,1729417497100.0,0.0
-1.878366,-7.67139,-12.732209,-64.400002,-124.739998,-4.48,1729417497122.0,0.0
-3.505485,-9.650253,-17.048861,-53.689999,-44.170002,1.47,1729417497140.0,0.0
-7.874779,-15.012569,-15.883555,-68.599998,80.709999,-7.98,1729417497160.0,0.0
-7.415358,-16.862221,-10.174281,14.84,83.370003,-31.15,1729417497180.0,0.0
-2.428715,-10.021141,-9.025726,155.119995,16.73,3.29,1729417497200.0,0.0
0.241675,-3.419343,-9.29133,159.949997,26.809999,0.21,1729417497225.0,0.0
1.06002,-1.552942,-4.65404,86.029999,65.519997,-6.58,1729417497240.0,0.0
-0.854238,-2.790031,8.02792,44.029999,66.639999,5.81,1729417497260.0,0.0
-3.407379,-3.309274,5.965307,30.799999,-1.47,45.920002,1729417497280.0,0.0
-3.254239,-4.87418,0.727418,-59.220001,8.05,-1.12,1729417497301.0,0.0
-3.359523,-7.307681,-5.706882,-118.510002,-31.5,-17.360001,1729417497323.0,0.0
-2.976671,-9.193225,-13.859229,-117.879997,-120.190002,-5.25,1729417497340.0,0.0
-3.278167,-9.006584,-15.309279,-90.160004,-93.309998,8.26,1729417497360.0,0.0
-6.960721,-13.016955,-17.08954,-45.990002,48.16,2.38,1729417497380.0,0.0
-7.700103,-14.96232,-13.667803,-18.9,107.660004,-22.120001,1729417497400.0,0.0
-3.108276,-8.810372,-8.836694,74.830002,15.89,9.45,1729417497423.0,0.0
0.33021,-5.484349,-8.12124,129.220001,4.13,14.7,1729417497440.0,0.0
1.509871,-4.579862,-6.211767,77.139999,49.84,-0.84,1729417497460.0,0.0
-1.514657,-4.400401,5.000999,41.16,82.669998,8.89,1729417497480.0,0.0
-4.541577,-4.587041,9.145369,31.01,40.18,17.780001,1729417497500.0,0.0
-3.326023,-5.178068,2.388037,-2.87,0.42,-1.54,1729417497522.0,0.0
-1.462015,-5.647062,-1.024128,-43.610001,-46.34,-8.33,1729417497547.0,0.0
-0.665205,-6.269196,-3.326023,-69.160004,-109.480003,-2.52,1729417497561.0,0.0
-0.940379,-6.07777,-11.301301,-97.790001,-112.209999,-5.88,1729417497580.0,0.0
-7.71446,-14.507684,-13.497912,-77.07,-38.57,-3.5,1729417497601.0,0.0
-10.645668,-16.764114,-16.819151,-68.459999,114.800003,-43.959999,1729417497624.0,0.0
-4.072584,-11.205588,-12.323036,57.68,-22.26,-6.44,1729417497640.0,0.0
0.863809,-6.805188,-11.064411,156.449997,-48.23,2.94,1729417497660.0,0.0
2.086541,-3.663411,-9.695717,114.520004,24.5,-11.69,1729417497680.0,0.0
0.234497,-3.84048,-2.177469,54.389999,109.830002,-18.83,1729417497700.0,0.0
-5.07757,-4.019942,12.229716,62.790001,93.169998,5.53,1729417497722.0,0.0
-2.837888,-5.565705,6.266802,93.309998,9.66,3.64,1729417497740.0,0.0
-2.842674,-4.326223,8.059027,36.959999,-51.310001,22.190001,1729417497760.0,0.0
-1.28016,-5.367101,0.102891,-53.689999,-79.940002,3.5,1729417497780.0,0.0
-0.449851,-8.355737,-9.138189,-118.510002,-65.169998,-14.21,1729417497800.0,0.0
-2.433501,-10.959127,-19.250257,-125.300003,-82.739998,6.44,1729417497822.0,0.0
-7.63789,-12.725031,-14.797215,-45.360001,11.27,17.219999,1729417497841.0,0.0
-10.121639,-12.323036,-14.510076,-3.22,113.120003,-20.790001,1729417497860.0,0.0
-4.579862,-9.784252,-9.047262,86.099998,-16.52,6.79,1729417497880.0,0.0
-0.086142,-5.776274,-7.396214,124.529999,-28.77,16.1,1729417497944.0,0.0
0.808774,-3.878766,-8.429914,90.860001,26.460001,7.42,1729417497946.0,0.0
-1.485943,-4.991428,2.328217,55.650002,108.57,-1.47,1729417497950.0,0.0
-4.366901,-3.98405,10.760524,84.279999,46.759998,43.610001,1729417497967.0,0.0
-4.510471,-5.788238,6.376873,65.519997,-30.52,39.900002,1729417497980.0,0.0
-2.675175,-7.357929,-0.550349,-32.900002,-19.040001,2.03,1729417498000.0,0.0
-2.007578,-8.360522,-5.07757,-40.880001,-87.989998,19.460001,1729417498022.0,0.0
-1.899901,-10.478169,-11.557333,-7.56,-120.540001,42.420002,1729417498042.0,0.0
-5.216353,-11.899508,-16.625332,-66.080002,-9.87,10.5,1729417498060.0,0.0
-9.475577,-15.919449,-16.084553,-77.699997,117.25,-30.17,1729417498080.0,0.0
-7.104291,-15.227923,-9.745967,72.870003,43.959999,-20.790001,1729417498100.0,0.0
-1.521835,-8.236095,-7.116255,154.419998,18.200001,-6.3,1729417498123.0,0.0
1.371087,-3.622734,-3.68734,141.960007,5.25,-4.2,1729417498140.0,0.0
1.813759,-0.969093,4.945964,99.68,12.6,5.25,1729417498160.0,0.0
-1.543371,-0.59342,13.442878,30.59,-13.93,23.030001,1729417498180.0,0.0
-4.328616,-5.012963,5.101498,-40.529999,7.35,23.450001,1729417498200.0,0.0
-3.337988,-9.188439,-4.606184,-122.849998,75.879997,-46.41,1729417498225.0,0.0
-5.022535,-11.966506,-4.378866,-118.790001,-74.550003,-18.48,1729417498240.0,0.0
-3.012564,-10.461421,-12.423534,-122.849998,-115.43,22.190001,1729417498265.0,0.0
-6.745367,-13.383057,-14.739788,-88.340004,-16.309999,-18.129999,1729417498279.0,0.0
-6.953543,-13.684553,-8.260024,76.580002,59.360001,-17.85,1729417498300.0,0.0
-1.945365,-8.252845,-7.62114,123.410004,11.69,-1.75,1729417498321.0,0.0
0.351745,-3.897908,-4.907679,71.82,11.97,-13.02,1729417498340.0,0.0
1.392623,-1.440479,0.399601,7.21,29.33,-10.08,1729417498359.0,0.0
-0.976272,-3.586841,9.090333,14.91,3.15,31.01,1729417498379.0,0.0
-2.904887,-7.56132,4.754539,1.68,-6.79,28.35,1729417498401.0,0.0
-4.627719,-9.320045,0.404387,-84.349998,53.619999,-28.49,1729417498421.0,0.0
-4.895715,-9.911072,-3.249453,-74.480003,-23.73,-17.639999,1729417498440.0,0.0
-2.447858,-9.178867,-7.207181,-35.420002,-132.020004,21.629999,1729417498459.0,0.0
-1.761117,-5.539384,-10.219746,-147.699997,-115.290001,-5.88,1729417498480.0,0.0
-5.534599,-9.686146,-15.244674,-175.0,7.98,-9.66,1729417498500.0,0.0
-8.049455,-13.646267,-12.859028,-40.529999,111.650002,-31.01,1729417498521.0,0.0
-5.237889,-11.49512,-8.018349,77.489998,31.219999,11.9,1729417498539.0,0.0
-1.342373,-6.565905,-7.659425,73.849998,2.17,10.71,1729417498560.0,0.0
-0.667598,-3.929015,-7.9346,27.790001,15.12,3.85,1729417498579.0,0.0
-0.985843,-6.577869,-4.058227,-7.56,82.18,-17.99,1729417498678.0,0.0
-4.34058,-7.996813,1.105484,-21.559999,98.349998,-12.81,1729417498681.0,0.0
-3.979264,-7.542177,1.59362,-15.96,37.099998,-13.65,1729417498684.0,0.0
-1.251446,-4.474578,1.569692,5.67,-33.670002,0.56,1729417498685.0,0.0
0.301496,-2.907279,0.265603,-26.74,-69.790001,13.09,1729417498754.0,0.0
0.533599,-7.391429,-5.15414,-101.919998,-71.330002,-1.61,1729417498754.0,0.0
-1.59362,-12.559926,-4.469792,-163.380005,-46.27,-25.83,1729417498754.0,0.0
-5.233103,-13.426127,-9.734003,-173.740005,-28.35,-43.400002,1729417498754.0,0.0
-6.656832,-9.798609,-15.488741,-109.900002,-7.49,-49.700001,1729417498765.0,0.0
-5.745167,-7.484749,-14.510076,10.36,4.62,-22.120001,1729417498778.0,0.0
-3.251846,-8.551948,-9.765109,132.160004,-5.67,11.48,1729417498802.0,0.0
-1.713261,-5.95095,-9.181261,105.559998,11.9,13.37,1729417498822.0,0.0
-1.57687,-5.802595,-8.949157,40.529999,56.0,1.05,1729417498839.0,0.0
-2.646462,-6.896115,-3.582055,25.48,76.230003,-1.82,1729417498858.0,0.0
-3.902694,-8.513663,-0.397209,67.340004,62.369999,9.38,1729417498878.0,0.0
-2.589034,-10.9017,-1.414158,94.849998,38.639999,-7.91,1729417498898.0,0.0
-1.861616,-8.200203,-0.401994,99.260002,5.04,11.27,1729417498919.0,0.0
-1.95015,-7.082755,-0.5001,140.490005,-15.96,34.439999,1729417498940.0,0.0
-1.026521,-8.303094,-4.831109,198.029999,-16.66,42.07,1729417498958.0,0.0
-1.021735,-9.159724,-5.125426,259.630005,-35.98,66.43,1729417498979.0,0.0
-0.765703,-10.683953,-6.350551,260.049988,-29.82,76.580002,1729417498998.0,0.0
-1.938186,-11.303694,-4.015156,268.170013,8.96,73.150002,1729417499067.0,0.0
-2.809174,-10.841879,-0.713061,291.410004,36.049999,57.470001,1729417499068.0,0.0
-3.129812,-9.710074,0.177069,302.26001,43.959999,38.920002,1729417499081.0,0.0
-4.462614,-11.715261,4.232903,248.149994,23.24,14.77,1729417499112.0,0.0
-7.582855,-4.424329,3.481557,293.790009,28.98,71.260002,1729417499119.0,0.0
-8.458629,-1.998007,5.455636,283.149994,13.79,84.910004,1729417499140.0,0.0
-5.876772,-7.188039,2.419144,111.230003,-19.040001,-13.02,1729417499188.0,0.0
-3.058028,-11.839686,0.648455,-3.01,2.8,-46.130001,1729417499190.0,0.0
-2.35693,-8.396415,1.753939,50.259998,30.030001,-11.13,1729417499202.0,0.0
-3.964907,-5.608776,3.981657,100.800003,59.080002,8.96,1729417499223.0,0.0
-5.395815,-9.702895,4.225725,53.760002,57.189999,-13.23,1729417499238.0,0.0
-6.24766,-10.415956,3.421736,47.110001,45.639999,-9.52,1729417499258.0,0.0
-4.486543,-5.960521,2.809174,93.940002,-0.28,17.360001,1729417499278.0,0.0
-3.096312,-3.127419,3.029313,59.779999,2.45,-3.92,1729417499299.0,0.0
-5.13739,-5.706882,3.759124,-23.1,33.32,2.87,1729417499319.0,0.0
-4.658825,-7.532606,3.735196,-12.67,-3.57,18.690001,1729417499338.0,0.0
-2.225325,-5.776274,6.001199,61.25,-63.139999,17.01,1729417499357.0,0.0
-4.063013,-5.424529,5.816952,1.96,-16.799999,28.91,1729417499378.0,0.0
-7.475177,-8.877372,2.842674,-88.340004,51.450001,-11.41,1729417499398.0,0.0
-3.936193,-9.958927,0.270389,-81.480003,29.68,-27.09,1729417499419.0,0.0
-1.995614,-10.454242,2.632105,-5.74,-25.690001,-8.47,1729417499439.0,0.0
-4.725825,-9.968499,4.941179,56.560001,36.119999,12.32,1729417499460.0,0.0
-7.477571,-6.726225,6.262017,87.5,44.939999,21.91,1729417499485.0,0.0
-5.881558,-4.35733,7.709675,63.560001,6.86,11.62,1729417499498.0,0.0
0.459422,-6.192625,6.04427,-26.950001,0.21,14.35,1729417499521.0,0.0
-14.452648,-7.195218,7.312466,-81.269997,86.379997,-10.08,1729417499539.0,0.0
-5.335995,-8.197811,6.62094,-79.800003,-91.07,-57.68,1729417499559.0,0.0
1.820938,-5.458029,5.082355,3.71,-139.160004,-28.35,1729417499586.0,0.0
-1.572084,-7.350751,3.684947,-7.07,-55.790001,1.96,1729417499599.0,0.0
-3.378666,-10.121639,1.347159,-65.590004,9.66,-34.369999,1729417499625.0,0.0
-6.628119,-8.961121,3.957729,-11.62,12.74,-0.21,1729417499645.0,0.0
-5.340781,-8.379664,2.971886,4.9,11.62,-30.66,1729417499660.0,0.0
-1.524228,-9.145369,2.368894,15.190001,-25.83,-28.42,1729417499678.0,0.0
-1.339981,-9.738789,3.105884,28.77,5.39,-17.43,1729417499699.0,0.0
-4.065405,-7.728817,3.620341,58.73,44.799999,12.25,1729417499721.0,0.0
-5.678168,-4.240082,3.055635,92.120003,44.380001,28.139999,1729417499739.0,0.0
-5.548956,-3.227918,2.778067,74.129997,24.780001,16.52,1729417499759.0,0.0
-5.314459,-6.092126,3.414558,-7.77,3.5,-3.92,1729417499779.0,0.0
-5.9677,-9.84168,3.859623,-64.610001,-18.690001,-20.65,1729417499804.0,0.0
-4.034299,-10.459028,4.352544,-40.389999,-55.790001,-17.57,1729417499823.0,0.0
-3.282953,-8.559127,5.199604,-4.27,-65.519997,-1.89,1729417499840.0,0.0
-3.553342,-7.202396,5.012963,-3.29,-57.470001,-0.7,1729417499862.0,0.0
-4.0008,-6.494121,4.388437,-14.49,-50.189999,-2.94,1729417499881.0,0.0
-4.084548,-5.85763,4.242475,-36.119999,-53.900002,-7.07,1729417499900.0,0.0
-3.218346,-6.489335,3.878766,-56.700001,-59.990002,-15.89,1729417499922.0,0.0
-3.20399,-7.590034,5.094319,-89.040001,-47.459999,-24.5,1729417499952.0,0.0
-3.498307,-8.592626,2.9336,-82.669998,-26.74,-33.18,1729417499961.0,0.0
-3.629912,-8.41795,0.356531,-96.110001,-21.84,-29.68,1729417499981.0,0.0
-2.67039,-8.99462,0.650848,-98.07,-23.59,-26.809999,1729417500003.0,0.0
-2.361716,-9.918249,2.423929,-59.57,-7.21,-22.26,1729417500023.0,0.0
-2.376073,-8.398808,3.677768,-23.309999,20.299999,-17.710001,1729417500041.0,0.0
-3.172883,-7.32443,3.771089,-5.46,48.23,-3.29,1729417500061.0,0.0
-2.225325,-6.391229,6.369694,-20.02,19.25,-0.91,1729417500081.0,0.0
-1.61037,-6.144768,6.405586,-9.1,14.56,29.889999,1729417500101.0,0.0
-2.053042,-6.204589,8.350951,-11.69,10.5,40.040001,1729417500123.0,0.0
-4.98425,-8.286345,10.394422,-10.64,-1.89,48.23,1729417500143.0,0.0
-5.749953,-8.310273,5.864808,-43.82,-11.76,44.099998,1729417500161.0,0.0
-3.443272,-7.037291,2.928815,-97.090004,-62.16,46.130001,1729417500181.0,0.0
-1.816152,-8.676375,4.73061,-99.82,-78.330002,56.630001,1729417500201.0,0.0
-5.742774,-10.475778,3.85723,-53.41,-50.049999,46.34,1729417500225.0,0.0
-6.920043,-14.251652,-1.878366,-88.199997,2.03,35.07,1729417500241.0,0.0
-5.266603,-23.270203,-9.004191,-111.090004,7.84,2.94,1729417500261.0,0.0
-5.096712,-22.573889,-5.742774,-74.269997,62.439999,-78.82,1729417500280.0,0.0
-4.321437,-8.030313,-0.308674,21.280001,34.369999,-53.34,1729417500307.0,0.0
-1.347159,-5.721239,3.299703,47.599998,0.7,-57.119999,1729417500322.0,0.0
0.571885,-4.012764,5.228317,23.59,-3.71,-72.169998,1729417500341.0,0.0
-2.079363,2.615355,13.938192,11.55,9.1,-31.780001,1729417500361.0,0.0
-6.005985,0.459422,10.095319,27.09,35.209999,33.32,1729417500381.0,0.0
-7.41775,-4.524827,3.735196,-62.720001,38.849998,13.3,1729417500401.0,0.0
-5.54417,-6.798009,3.842873,-132.720001,-61.529999,32.060001,1729417500423.0,0.0
-1.9669,-7.781459,1.411765,-104.93,-96.389999,73.709999,1729417500440.0,0.0
-2.464607,-8.082954,-0.964308,-112.349998,-78.540001,79.169998,1729417500461.0,0.0
-5.568098,-11.660224,-4.364508,-160.789993,-8.26,49.84,1729417500481.0,0.0
-7.422535,-13.196418,-7.097112,-184.800003,6.3,3.15,1729417500501.0,0.0
-6.422336,-11.16491,-7.286145,-157.779999,-37.939999,10.36,1729417500522.0,0.0
-4.024727,-10.030712,-5.843273,-175.699997,-62.439999,-21.0,1729417500541.0,0.0
-3.330809,-9.315259,-2.586641,-307.089996,-43.959999,-58.869999,1729417500563.0,0.0
-2.620141,-9.824929,-3.823731,-352.940002,-13.72,-63.91,1729417500582.0,0.0
-1.007378,-9.078369,-6.826723,-310.450012,28.280001,-64.190002,1729417500601.0,0.0
-1.225125,-7.01097,-7.369894,-245.979996,45.920002,-42.91,1729417500625.0,0.0
-2.017149,-5.630312,-7.32443,-226.589996,82.529999,-45.779999,1729417500642.0,0.0
-3.354738,-6.242875,-8.453842,-246.75,101.080002,-47.389999,1729417500662.0,0.0
-3.012564,-8.963513,-6.506085,-205.869995,92.82,-28.0,1729417500680.0,0.0
-5.431707,-9.499505,0.318245,-136.360001,23.030001,22.26,1729417500700.0,0.0
-4.146761,-11.669796,0.902094,-33.110001,-25.059999,-11.55,1729417500722.0,0.0
-3.45045,-6.498906,-4.843073,-107.940002,-20.23,-45.009998,1729417500741.0,0.0
-3.223132,-5.347959,-8.372486,-126.489998,-42.98,-65.449997,1729417500760.0,0.0
-2.462214,-6.908078,-8.30788,-122.220001,-68.529999,-84.139999,1729417500781.0,0.0
-1.392623,-6.400801,-10.315458,-110.949997,-85.400002,-96.32,1729417500801.0,0.0
-0.088534,2.18704,-17.551353,-75.32,-60.760002,-64.260002,1729417500823.0,0.0
-1.40698,4.309474,-13.703696,67.830002,12.11,41.860001,1729417500840.0,0.0
-3.180061,-1.974079,-9.798609,116.900002,106.260002,102.059998,1729417500860.0,0.0
-4.931608,-4.249653,-5.283352,66.639999,112.489998,117.879997,1729417500880.0,0.0
-3.78066,-7.152147,-2.830709,26.67,30.030001,83.860001,1729417500900.0,0.0
-3.06042,-12.394822,-2.333002,-70.910004,3.01,37.029999,1729417500922.0,0.0
-2.371287,-15.079568,-3.522235,-102.690002,-17.219999,-22.190001,1729417500940.0,0.0
-1.775474,-12.078968,-7.597212,-33.110001,-40.32,-45.639999,1729417500960.0,0.0
-2.328217,-5.278566,-9.188439,27.65,-22.68,-42.77,1729417500981.0,0.0
-3.754339,-1.536192,-10.025927,0.7,-6.86,-53.760002,1729417501000.0,0.0
-3.864408,-3.376273,-9.145369,-65.169998,-37.310001,-94.150002,1729417501022.0,0.0
-1.552942,-0.521635,-10.526026,-109.480003,-71.68,-85.68,1729417501039.0,0.0
-0.141177,0.952343,-14.294723,30.450001,-44.66,8.47,1729417501059.0,0.0
-2.502892,-2.041078,-11.461621,93.379997,47.32,67.830002,1729417501080.0,0.0
-4.831109,-3.60359,-8.886944,22.26,84.209999,52.639999,1729417501099.0,0.0
-3.498307,-4.259224,-7.465607,-7.49,24.57,59.220001,1729417501122.0,0.0
-1.954936,-7.412964,-6.54437,-1.4,9.66,73.57,1729417501140.0,0.0
-2.806781,-10.851451,-5.417351,-26.25,44.939999,54.459999,1729417501160.0,0.0
-4.058227,-13.91187,-4.141976,-23.52,38.220001,3.22,1729417501180.0,0.0
-3.412165,-9.777073,-6.762117,10.22,-1.82,-35.420002,1729417501201.0,0.0
-3.084348,-1.505085,-7.424929,50.470001,-23.450001,-42.209999,1729417501227.0,0.0
-3.06042,-2.481357,-8.805587,-35.279999,-35.279999,-82.669998,1729417501240.0,0.0
-0.794417,-2.06022,-11.897114,-99.400002,-67.550003,-123.270004,1729417501261.0,0.0
0.653241,5.070391,-14.993427,-56.630001,-51.52,-47.18,1729417501280.0,0.0
-1.820938,-0.349352,-8.614161,96.949997,34.23,65.730003,1729417501300.0,0.0
-4.922036,-4.689932,-10.518847,48.02,119.419998,80.639999,1729417501322.0,0.0
-5.668597,-5.340781,-7.826923,28.84,71.75,115.639999,1729417501340.0,0.0
-3.182454,-8.214561,-6.216553,32.41,14.14,108.989998,1729417501360.0,0.0
-2.304288,-13.167704,-3.704089,5.32,5.6,57.540001,1729417501380.0,0.0
-2.732604,-15.065211,-4.26401,-22.68,7.07,-6.37,1729417501400.0,0.0
-2.730211,-9.176475,-6.685547,25.34,-4.13,-50.400002,1729417501422.0,0.0
-3.699304,-3.711268,-6.551548,40.110001,-9.52,-61.110001,1729417501440.0,0.0
-4.431508,-4.151547,-6.757331,-26.18,-24.360001,-103.040001,1729417501460.0,0.0
-2.005185,-5.151747,-10.475778,-108.220001,-83.93,-166.110001,1729417501480.0,0.0
0.413958,2.474179,-15.426528,-111.300003,-95.410004,-128.309998,1729417501502.0,0.0
0.598206,7.436893,-15.967306,33.740002,-22.4,-23.24,1729417501523.0,0.0
-3.364309,-1.567299,-6.159126,126.489998,83.860001,78.260002,1729417501540.0,0.0
-5.082355,-2.464607,-7.106683,48.580002,98.910004,78.75,1729417501560.0,0.0
-2.959922,-5.548956,-7.255038,52.990002,13.16,128.449997,1729417501580.0,0.0
-2.742175,-11.095518,-6.750153,13.37,25.690001,102.059998,1729417501600.0,0.0
-4.462614,-16.376478,-1.842474,-17.92,42.279999,41.790001,1729417501628.0,0.0
-3.713661,-12.260822,-5.862415,-11.97,3.15,-28.0,1729417501643.0,0.0
-3.127419,-4.869394,-8.532805,53.549999,-30.59,-37.450001,1729417501660.0,0.0
-3.199204,-1.804188,-8.295916,-3.5,-32.48,-63.490002,1729417501681.0,0.0
-2.89053,-7.221539,-8.16431,-84.419998,-45.220001,-131.600006,1729417501701.0,0.0
-0.256032,-2.691926,-11.980864,-140.770004,-79.099998,-157.360001,1729417501722.0,0.0
1.57687,5.883951,-15.194424,-31.15,-76.860001,-76.650002,1729417501741.0,0.0
-0.478565,3.5007,-9.877571,120.260002,25.48,53.48,1729417501760.0,0.0
-4.938786,-4.316652,-7.54457,60.27,106.330002,78.68,1729417501782.0,0.0
-6.108876,-5.158926,-9.147761,12.25,94.010002,100.870003,1729417501804.0,0.0
-3.854837,-8.523234,-6.161518,60.900002,11.34,124.599998,1729417501825.0,0.0
-3.522235,-13.988441,-1.643869,20.23,13.02,91.559998,1729417501842.0,0.0
-3.816552,-13.191631,-4.733003,-22.75,19.950001,-21.35,1729417501862.0,0.0
-3.412165,-7.161718,-8.176274,41.720001,-9.8,-36.540001,1729417501882.0,0.0
-3.048456,-3.129812,-7.980063,30.940001,-27.51,-45.220001,1729417501903.0,0.0
-2.842674,-6.302694,-7.520642,-42.0,-28.84,-82.599998,1729417501923.0,0.0
-0.868595,-6.802795,-8.707481,-98.139999,-69.580002,-134.680008,1729417501942.0,0.0
0.787239,1.06002,-12.763316,-83.790001,-90.580002,-111.510002,1729417501962.0,0.0
1.311267,7.9346,-16.249659,-9.73,-35.420002,-42.490002,1729417501993.0,0.0
-2.821138,-2.648855,-5.630312,82.669998,63.98,60.760002,1729417502004.0,0.0
-4.601398,-6.26441,-7.24786,42.630001,91.980003,60.970001,1729417502024.0,0.0
-5.4341,-4.900501,-8.11167,54.740002,59.849998,128.169998,1729417502042.0,0.0
-3.582055,-7.695317,-6.58744,49.349998,11.48,108.290001,1729417502064.0,0.0
-3.850052,-12.619746,-4.113262,9.73,27.860001,76.300003,1729417502084.0,0.0
-4.421937,-13.51227,-3.079563,-12.6,16.870001,8.05,1729417502104.0,0.0
-3.498307,-8.025528,-8.059027,18.34,-10.15,-26.6,1729417502125.0,0.0
-2.871387,-4.479364,-7.436893,19.950001,-31.08,-41.650002,1729417502143.0,0.0
-1.945365,-7.613962,-7.300502,-63.420002,-45.639999,-103.879997,1729417502165.0,0.0
0.074178,-4.515256,-10.41835,-105.209999,-84.910004,-135.240005,1729417502184.0,0.0
1.627119,3.991228,-15.555739,-80.360001,-74.760002,-105.769997,1729417502205.0,0.0
0.782453,6.123233,-12.473784,59.709999,-1.68,9.24,1729417502231.0,0.0
-3.481557,-4.096512,-6.104091,88.199997,80.5,80.989998,1729417502243.0,0.0
-5.213961,-4.26401,-9.111869,21.629999,106.260002,86.730003,1729417502262.0,0.0
-5.570491,-5.876772,-7.609176,51.240002,46.900002,132.089996,1729417502283.0,0.0
-3.615555,-10.140782,-5.515456,23.1,16.450001,97.580002,1729417502303.0,0.0
-4.173083,-14.950355,-1.68694,-23.379999,24.01,51.869999,1729417502325.0,0.0
-3.739982,-12.880564,-4.938786,-30.799999,7.07,-21.700001,1729417502348.0,0.0
-3.002992,-6.721439,-8.499306,49.420002,-21.35,-32.48,1729417502364.0,0.0
-3.050849,-2.919244,-8.159525,31.5,-28.210001,-39.549999,1729417502384.0,0.0
-2.656033,-6.898508,-6.474977,-45.990002,-29.960001,-83.370003,1729417502404.0,0.0
-0.76331,-7.424929,-8.382057,-102.410004,-72.590004,-126.840004,1729417502424.0,0.0
0.504886,-1.37348,-12.818351,-69.650002,-83.090004,-110.669998,1729417502443.0,0.0
0.705883,6.632904,-15.998412,-3.01,-43.049999,-61.18,1729417502462.0,0.0
-4.615755,-3.778267,-4.395615,70.07,53.060001,55.720001,1729417502482.0,0.0
-4.618148,-4.869394,-8.750552,-7.35,69.230003,53.760002,1729417502503.0,0.0
-4.101298,-3.957729,-8.724231,28.84,25.549999,109.059998,1729417502526.0,0.0
-3.883551,-8.496914,-5.381458,22.610001,32.970001,107.940002,1729417502544.0,0.0
-5.883951,-13.785051,-2.663212,-37.170002,66.150002,70.769997,1729417502563.0,0.0
-5.367101,-15.527027,-4.582255,-39.060001,22.26,-0.98,1729417502584.0,0.0
-2.723032,-9.877571,-8.360522,38.290001,-42.630001,-22.610001,1729417502602.0,0.0
-1.677369,-3.661019,-7.147361,61.389999,-55.510002,-36.049999,1729417502627.0,0.0
-2.493321,-4.350152,-6.099305,-28.210001,-25.83,-76.720001,1729417502643.0,0.0
-1.335195,-6.26441,-8.530413,-122.5,-55.02,-138.949997,1729417502663.0,0.0
0.653241,-0.772882,-15.857236,-82.949997,-79.870003,-112.770004,1729417502683.0,0.0
1.277767,7.128219,-17.333607,16.379999,-37.029999,-37.099998,1729417502705.0,0.0
-4.122833,-2.423929,-4.723432,98.699997,71.889999,70.279999,1729417502727.0,0.0
-4.814359,-4.783253,-7.702496,19.18,99.75,45.709999,1729417502743.0,0.0
-4.486543,-3.852444,-7.37468,36.189999,40.040001,112.349998,1729417502763.0,0.0
-2.723032,-8.149954,-5.307281,37.310001,9.52,100.940002,1729417502783.0,0.0
-5.4676,-15.498313,-1.806581,-25.34,45.43,66.010002,1729417502803.0,0.0
-4.529613,-11.502297,-7.580462,-12.53,11.97,-21.210001,1729417502837.0,0.0
-3.541377,-5.402994,-8.29113,71.889999,-30.24,-21.07,1729417502843.0,0.0
-2.813959,-2.536392,-6.955935,11.41,-36.470001,-46.060001,1729417502864.0,0.0
-1.337588,-6.128019,-6.924829,-67.410004,-56.490002,-103.949997,1729417502962.0,0.0
1.272982,-1.794617,-12.988241,-114.379997,-87.57,-125.230003,1729417502966.0,0.0
2.143969,6.376873,-16.271194,-34.860001,-59.920002,-56.560001,1729417502968.0,0.0
-1.971686,-1.543371,-7.171289,86.169998,50.189999,53.689999,1729417502974.0,0.0
-5.922236,-6.297909,-9.066404,15.190001,117.809998,58.799999,1729417502975.0,0.0
-6.599405,-5.608776,-8.561519,18.129999,71.540001,97.300003,1729417502982.0,0.0
-3.708875,-7.922636,-4.900501,62.23,3.64,105.489998,1729417503003.0,0.0
-3.024528,-12.296716,-2.675175,8.89,10.01,74.830002,1729417503024.0,0.0
-4.13719,-14.909678,-3.680161,-12.6,25.549999,11.55,1729417503042.0,0.0
-4.096512,-9.250652,-8.094919,45.080002,10.57,-20.65,1729417503063.0,0.0
-3.493521,-2.868994,-7.338787,73.290001,-29.33,-32.48,1729417503082.0,0.0
-2.835495,-3.986443,-6.046663,-16.59,-53.41,-76.860001,1729417503102.0,0.0
-0.22014,-4.591826,-9.571291,-128.869995,-85.889999,-143.289993,1729417503124.0,0.0
2.258825,6.352944,-17.041683,-93.730003,-84.910004,-99.68,1729417503143.0,0.0
-1.588834,0.138784,-7.341179,101.919998,31.219999,63.420002,1729417503165.0,0.0
-5.651847,-6.168696,-9.116654,26.389999,107.800003,71.610001,1729417503182.0,0.0
-7.140182,-6.037091,-8.322237,13.440001,80.779999,98.910004,1729417503203.0,0.0
-4.76411,-9.918249,-4.776074,45.220001,12.53,104.860001,1729417503226.0,0.0
-3.28056,-13.567304,-3.062813,-3.92,2.38,63.420002,1729417503242.0,0.0
-3.519842,-15.046068,-4.283153,-14.56,2.45,-6.65,1729417503262.0,0.0
-2.98385,-8.980263,-8.444271,42.490002,-0.98,-44.380001,1729417503281.0,0.0
-2.589034,-3.735196,-6.601797,55.93,-27.58,-52.57,1729417503303.0,0.0
-1.864009,-5.802595,-4.204189,-31.219999,-58.240002,-94.010002,1729417503324.0,0.0
0.138784,-6.728617,-10.329816,-113.889999,-93.169998,-145.529999,1729417503342.0,0.0
0.878166,-1.490728,-13.820943,-81.550003,-81.480003,-127.050003,1729417503362.0,0.0
-0.358923,5.402994,-16.106089,25.969999,-18.549999,-45.009998,1729417503382.0,0.0
-3.991228,-0.332602,-8.444271,199.080002,71.540001,66.080002,1729417503402.0,0.0
-6.400801,-6.13759,-3.85723,146.720001,93.099998,78.190002,1729417503424.0,0.0
-5.85763,-9.190832,-4.113262,71.68,33.950001,64.120003,1729417503443.0,0.0
-3.469593,-9.583255,-7.24786,84.139999,-31.92,60.830002,1729417503463.0,0.0
-2.919244,-9.446864,-7.164111,135.660004,-34.509998,55.369999,1729417503483.0,0.0
-4.130012,-7.601997,-6.982256,216.369995,17.99,45.5,1729417503504.0,0.0
-4.522435,-6.573084,-6.522834,236.25,-9.45,36.68,1729417503524.0,0.0
-2.538785,-6.922436,-5.292924,214.759995,-52.709999,26.25,1729417503543.0,0.0
-1.45005,-7.91785,-4.998606,202.930008,-58.52,34.439999,1729417503564.0,0.0
-1.344766,-8.228917,-6.116055,143.430008,-14.28,4.76,1729417503582.0,0.0
-1.931008,-7.518249,-8.516055,30.52,58.310001,-13.3,1729417503602.0,0.0
-3.869194,-9.023334,-6.211767,12.11,73.919998,1.4,1729417503625.0,0.0
-8.023134,-8.595018,2.87378,25.41,48.02,13.72,1729417503641.0,0.0
-5.273781,-6.989435,0.600598,-8.19,46.130001,-5.11,1729417503663.0,0.0
-2.617748,-9.74836,-6.216553,-70.279999,86.099998,-21.559999,1729417503683.0,0.0
-3.893122,-13.679767,-0.629312,-39.619999,70.279999,-24.710001,1729417503702.0,0.0
-3.852444,-10.25803,4.211368,16.66,22.26,-24.710001,1729417503731.0,0.0
-3.361916,-3.98405,5.290531,40.670002,-29.4,4.34,1729417503742.0,0.0
-3.215954,-4.924429,2.299503,-16.1,-46.34,-20.719999,1729417503763.0,0.0
-1.806581,-7.88435,-4.570292,-116.270004,-52.009998,-58.59,1729417503784.0,0.0
-0.727418,-8.752945,-15.69931,-120.959999,-101.43,-48.860001,1729417503804.0,0.0
-4.21376,-10.394422,-15.067604,-22.190001,-25.969999,-14.84,1729417503824.0,0.0
-6.975078,-13.746766,-11.631511,38.220001,100.730003,-5.6,1729417503844.0,0.0
-4.122833,-9.032906,-7.771888,14.77,70.769997,-13.86,1729417503864.0,0.0
0.22014,-3.847659,-5.735595,31.15,61.110001,17.639999,1729417503882.0,0.0
-0.306281,-3.050849,6.766902,60.619999,29.049999,51.170002,1729417503904.0,0.0
-1.739582,-6.735795,12.569498,17.15,13.93,52.990002,1729417503935.0,0.0
-3.168097,-13.986048,6.642475,-38.849998,30.17,-3.85,1729417503946.0,0.0
-4.352544,-12.227324,1.153341,-128.309998,6.65,-61.810001,1729417503963.0,0.0
-3.52702,-8.997013,-5.417351,-88.199997,-117.389999,-47.529999,1729417503983.0,0.0
-0.51685,-3.972085,-21.894329,-64.120003,-154.070007,-62.369999,1729417504004.0,0.0
-6.460621,-9.80818,-15.393027,-15.47,-68.669998,-21.0,1729417504037.0,0.0
-8.745767,-11.63869,-14.931213,-2.59,126.840004,-38.57,1729417504043.0,0.0
-3.790231,-9.334401,-6.979864,104.090004,39.34,25.34,1729417504064.0,0.0
-0.165105,-5.051248,-5.98445,101.360001,24.57,35.560001,1729417504085.0,0.0
0.727418,-1.332802,0.311067,62.23,61.670002,35.700001,1729417504104.0,0.0
-2.392823,-5.386244,8.520842,48.509998,58.66,59.080002,1729417504124.0,0.0
-5.118248,-12.043077,7.276574,-26.950001,41.650002,20.440001,1729417504145.0,0.0
-5.615955,-11.806188,-0.815953,-141.680008,30.309999,-60.060001,1729417504164.0,0.0
-3.105884,-8.982656,-5.474778,-94.010002,-91.980003,-45.43,1729417504184.0,0.0
0.004786,-3.962514,-11.308479,-36.189999,-176.399994,-25.969999,1729417504205.0,0.0
-2.038685,-5.903094,-10.013963,-43.259998,-114.449997,-12.95,1729417504227.0,0.0
-6.242875,-13.77548,-17.596817,-110.25,80.849998,-40.950001,1729417504245.0,0.0
-7.762317,-17.130217,-12.880564,-41.93,77.910004,-35.700001,1729417504265.0,0.0
-1.521835,-9.391829,-8.049455,97.300003,14.84,16.24,1729417504284.0,0.0
0.332602,-3.462414,-7.353144,136.430008,34.16,21.49,1729417504306.0,0.0
0.775275,-0.916451,1.349552,78.190002,73.43,12.95,1729417504328.0,0.0
-1.775474,-2.691926,11.880364,26.25,21.84,46.619999,1729417504344.0,0.0
-3.471986,-7.305287,6.800402,-33.459999,13.72,32.27,1729417504365.0,0.0
-3.9338,-10.135997,-4.699504,-122.919998,21.42,-36.259998,1729417504385.0,0.0
-1.658226,-7.034898,-10.925629,-65.239998,-99.889999,-36.119999,1729417504406.0,0.0
-3.457629,-8.183454,-14.919249,-0.84,-103.040001,3.92,1729417504427.0,0.0
-8.729016,-13.864014,-16.376478,-72.379997,65.239998,-29.26,1729417504448.0,0.0
-7.518249,-15.608383,-12.969098,-24.5,60.830002,-30.940001,1729417504464.0,0.0
-0.581456,-8.922836,-7.609176,135.589996,10.29,2.73,1729417504485.0,0.0
2.237289,0.51685,-5.350351,137.899994,27.790001,29.469999,1729417504506.0,0.0
1.253839,2.644069,9.762716,76.860001,11.55,60.41,1729417504526.0,0.0
-0.294317,-5.589634,10.34178,-4.34,24.01,58.450001,1729417504544.0,0.0
-4.07737,-12.562319,3.649055,-82.389999,52.150002,-12.25,1729417504564.0,0.0
-6.089733,-12.145968,-3.438486,-135.660004,31.360001,-54.110001,1729417504584.0,0.0
-2.74696,-8.702696,-8.592626,-63.420002,-118.790001,-34.439999,1729417504606.0,0.0
-0.51685,-5.187639,-20.114067,-35.07,-162.680008,-14.77,1729417504626.0,0.0
-5.800202,-11.274981,-16.780865,-34.580002,-19.040001,-15.89,1729417504644.0,0.0
-9.128618,-13.459626,-14.782858,-35.560001,126.840004,-38.990002,1729417504664.0,0.0
-3.074777,-10.904092,-8.477771,97.580002,10.08,-2.17,1729417504686.0,0.0
0.638884,-5.259424,-6.65444,107.449997,4.62,5.6,1729417504706.0,0.0
1.70369,1.009771,3.838088,67.970001,24.360001,13.37,1729417504725.0,0.0
-0.617348,-3.677768,8.973085,35.84,14.91,52.709999,1729417504745.0,0.0
-3.955336,-11.674582,2.974278,-23.17,61.459999,3.43,1729417504764.0,0.0
-6.52762,-12.375679,-2.562713,-110.529999,91.139999,-42.84,1729417504785.0,0.0
-3.519842,-8.470592,-4.089334,-34.09,-69.019997,-0.63,1729417504806.0,0.0
0.141177,-4.551149,-5.711668,21.559999,-165.130005,31.290001,1729417504828.0,0.0
-0.988236,-6.07777,-12.782458,-52.57,-120.400002,6.79,1729417504844.0,0.0
-6.539584,-12.196217,-19.111473,-140.0,65.800003,-40.950001,1729417504867.0,0.0
-10.667203,-16.814365,-15.141781,-7.35,77.209999,-25.76,1729417504886.0,0.0
-2.206182,-10.279566,-8.171489,135.029999,-16.73,9.17,1729417504905.0,0.0
0.059821,-4.414758,-6.74776,99.470001,-4.83,10.36,1729417504928.0,0.0
1.028914,-2.476572,-5.852845,35.630001,42.420002,-3.92,1729417504944.0,0.0
-0.79681,-4.386044,2.699104,40.040001,71.889999,9.24,1729417504964.0,0.0
-4.058227,-5.54417,9.174082,55.299999,33.18,38.150002,1729417504985.0,0.0
-4.728218,-7.188039,4.835894,18.129999,23.17,16.1,1729417505007.0,0.0
-2.871387,-8.458629,-2.175076,-32.27,20.02,1.89,1729417505027.0,0.0
-1.019342,-6.862615,-2.9671,-29.049999,-63.630001,13.440001,1729417505044.0,0.0
-0.832702,-8.451449,-11.684153,0.14,-121.169998,35.700001,1729417505065.0,0.0
-5.391029,-11.956935,-13.471591,-46.830002,5.6,-3.29,1729417505084.0,0.0
-8.925228,-13.849657,-12.823137,-17.290001,81.410004,-17.710001,1729417505105.0,0.0
-5.376673,-12.366108,-8.693125,103.809998,-2.66,18.83,1729417505126.0,0.0
-1.95015,-7.092326,-6.886543,127.260002,2.31,8.19,1729417505144.0,0.0
-0.947558,-5.723632,-6.331409,96.739998,33.880001,-1.12,1729417505165.0,0.0
-0.971486,-5.259424,-1.069592,80.43,57.330002,-1.26,1729417505186.0,0.0
-3.227918,-4.498507,8.60459,107.379997,24.43,27.09,1729417505206.0,0.0
-4.625326,-5.871986,6.326623,68.389999,-6.79,31.01,1729417505228.0,0.0
-2.976671,-7.286145,-0.818345,-38.009998,43.119999,-11.27,1729417505244.0,0.0
-2.986243,-10.013963,-2.225325,-57.75,-21.35,-1.26,1729417505266.0,0.0
-2.163112,-10.327423,-1.947758,-20.370001,-103.110001,35.420002,1729417505285.0,0.0
-1.672583,-10.394422,-9.870394,14.14,-70.07,20.16,1729417505304.0,0.0
-4.405186,-10.951948,-14.668003,-30.799999,4.83,-1.82,1729417505326.0,0.0
-7.066005,-12.129218,-8.717053,-31.5,69.230003,0.07,1729417505344.0,0.0
-5.982057,-11.459228,-7.688138,77.07,36.470001,9.59,1729417505365.0,0.0
-3.369094,-8.685946,-5.582455,114.449997,26.460001,7.07,1729417505385.0,0.0
-1.674976,-8.054241,-2.057827,122.5,22.4,-3.85,1729417505404.0,0.0
-1.674976,-4.268795,4.206582,139.160004,53.689999,-2.52,1729417505426.0,0.0
-3.866802,-3.168097,9.150154,150.570007,20.860001,31.08,1729417505443.0,0.0
-4.577469,-5.252246,2.742175,4.06,10.78,-5.39,1729417505465.0,0.0
-3.436093,-10.779665,-5.386244,-81.199997,35.700001,-19.67,1729417505486.0,0.0
-3.206382,-12.839886,-3.488736,3.01,-45.920002,19.809999,1729417505504.0,0.0
-2.086541,-9.470792,-3.361916,58.170002,-27.23,24.99,1729417505528.0,0.0
-2.85703,-8.161918,-3.658626,27.719999,-3.71,20.719999,1729417505543.0,0.0
-3.888337,-9.152546,-1.538585,-33.389999,-6.44,-5.81,1729417505564.0,0.0
-4.383651,-10.286745,-1.844866,-79.870003,-18.620001,-13.02,1729417505584.0,0.0
-4.469792,-10.719845,-3.57727,-82.669998,-35.139999,-10.71,1729417505604.0,0.0
-4.589434,-9.671788,-3.213561,-103.32,-33.25,-20.299999,1729417505626.0,0.0
-3.905087,-8.997013,-3.85723,-143.009995,-42.91,-34.299999,1729417505643.0,0.0
-3.345166,-8.193025,-5.046463,-196.279999,-47.459999,-53.41,1729417505665.0,0.0
-3.436093,-8.133204,-4.426722,-226.729996,-58.380001,-61.810001,1729417505684.0,0.0
-3.54377,-8.561519,-3.151347,-239.540009,-60.830002,-64.260002,1729417505704.0,0.0
-2.976671,-8.609376,-5.635098,-238.699997,-61.25,-60.060001,1729417505727.0,0.0
-3.23031,-6.735795,-6.865008,-207.899994,-33.18,-61.880001,1729417505745.0,0.0
-3.888337,-6.79083,-6.046663,-191.240005,-21.139999,-59.290001,1729417505770.0,0.0
-4.146761,-7.003791,-5.891129,-203.979996,-17.639999,-60.970001,1729417505783.0,0.0
-2.804388,-6.668797,-8.913264,-240.169998,-45.220001,-91.629997,1729417505805.0,0.0
-2.129612,-6.723832,-8.77448,-235.970001,-45.5,-73.080002,1729417505825.0,0.0
-2.036292,-7.216753,-7.496714,-134.820007,-35.0,-57.119999,1729417505846.0,0.0
-2.443072,-4.828716,-6.709475,-91.419998,-10.36,-61.32,1729417505866.0,0.0
-2.919244,-2.981457,-8.779266,-85.470001,8.12,-59.010002,1729417505885.0,0.0
-3.505485,-3.28056,-7.989635,-86.800003,-0.35,-37.450001,1729417505905.0,0.0
-2.311467,-3.869194,-8.23131,-98.419998,-24.99,-22.889999,1729417505927.0,0.0
-1.588834,-4.565506,-7.037291,-94.639999,-27.719999,-26.389999,1729417505945.0,0.0
-2.237289,-3.23031,-8.061419,-98.489998,-16.940001,-18.549999,1729417505964.0,0.0
-2.766103,-3.337988,-9.619147,-90.019997,-0.28,-18.200001,1729417505985.0,0.0
-3.797409,-1.933401,-10.478169,-106.330002,9.24,-8.61,1729417506007.0,0.0
-4.13719,-4.733003,-8.171489,-81.199997,-3.43,-13.09,1729417506027.0,0.0
-1.832902,1.875973,-4.565506,-60.34,-20.93,2.24,1729417506045.0,0.0
-2.639283,1.124627,-8.85105,-55.439999,7.35,24.780001,1729417506066.0,0.0
-3.65384,-4.414758,-12.102897,-74.830002,41.16,-19.950001,1729417506084.0,0.0
-2.794817,-4.582255,-11.521441,-54.18,15.4,10.29,1729417506105.0,0.0
-0.480957,-2.100898,-10.085747,-21.49,-25.129999,16.52,1729417506127.0,0.0
-1.741975,-2.208575,-9.379865,-33.110001,-2.24,5.25,1729417506147.0,0.0
-2.732604,-3.215954,-10.066606,-26.110001,1.05,-0.77,1729417506165.0,0.0
-2.495714,-3.364309,-11.124231,-11.62,-13.86,5.53,1729417506185.0,0.0
-2.522035,-2.821138,-11.531013,-0.49,-14.56,11.55,1729417506206.0,0.0
-2.225325,-0.98345,-9.923036,26.040001,-14.84,21.0,1729417506231.0,0.0
-2.301895,-2.337788,-9.662218,24.85,3.85,8.54,1729417506244.0,0.0
-3.108276,-3.117848,-9.75793,22.610001,5.67,13.58,1729417506266.0,0.0
-3.201597,-3.570091,-10.561919,17.99,6.23,7.21,1729417506286.0,0.0
-2.15354,-2.337788,-10.437491,26.809999,1.47,7.63,1729417506306.0,0.0
-1.526621,-2.490928,-9.925428,38.150002,7.28,3.01,1729417506327.0,0.0
-1.68694,-2.134398,-8.556733,42.84,15.96,5.95,1729417506346.0,0.0
-1.916651,-2.545963,-8.444271,35.98,16.24,4.55,1729417506367.0,0.0
-2.359323,-3.151347,-8.365308,32.060001,13.02,5.39,1729417506386.0,0.0
-2.775674,-3.548556,-8.585447,35.0,12.39,5.81,1729417506407.0,0.0
-3.431308,-3.065206,-8.793623,42.91,11.13,10.57,1729417506427.0,0.0
-4.003192,-3.445665,-10.047462,57.260002,16.450001,4.62,1729417506446.0,0.0
-4.326223,-5.623133,-9.260223,79.730003,7.07,-6.93,1729417506466.0,0.0
-4.048656,-6.252446,-7.767102,128.449997,-8.75,0.42,1729417506490.0,0.0
-3.558127,-3.347559,-5.668597,161.350006,-27.860001,10.71,1729417506506.0,0.0
-1.895115,-1.055235,-9.394222,168.559998,-59.360001,5.81,1729417506528.0,0.0
-0.078963,-0.502493,-11.313265,128.169998,-56.98,2.24,1729417506546.0,0.0
1.497907,-2.562713,-13.138988,60.830002,-33.459999,5.46,1729417506565.0,0.0
1.533799,-2.998207,-12.830315,41.23,4.41,23.799999,1729417506586.0,0.0
-0.26321,-3.84048,-12.619746,60.619999,55.299999,34.509998,1729417506606.0,0.0
-3.326023,-4.754539,-7.496714,99.330002,96.18,33.810001,1729417506629.0,0.0
-13.890336,-9.944571,19.503897,80.919998,39.200001,34.790001,1729417506645.0,0.0
-8.429914,-6.927221,-17.19961,-23.73,79.730003,-56.630001,1729417506666.0,0.0
-3.811767,-11.006985,-14.438292,52.639999,-43.470001,30.940001,1729417506687.0,0.0
0.184247,-5.965307,-8.331808,150.990005,7.07,46.060001,1729417506707.0,0.0
0.832702,-1.227518,-6.508478,142.240005,58.450001,45.220001,1729417506727.0,0.0
-0.741775,-2.952743,0.102891,58.099998,57.330002,30.380001,1729417506747.0,0.0
-1.710868,-7.025328,3.26381,-0.7,31.219999,3.92,1729417506767.0,0.0
-3.321238,-7.865208,1.9669,-36.75,3.71,-11.48,1729417506785.0,0.0
-2.349752,-9.600004,-6.285945,-17.01,-32.759998,-38.639999,1729417506805.0,0.0
-2.37368,-5.522634,-8.815158,-40.459999,-95.550003,-48.580002,1729417506827.0,0.0
-2.507678,-1.971686,-16.706688,-10.85,-61.25,-9.1,1729417506847.0,0.0
-4.625326,-4.780859,-17.520248,44.380001,25.34,20.370001,1729417506865.0,0.0
-4.821537,-8.707481,-12.031113,5.53,69.300003,32.48,1729417506887.0,0.0
-1.622334,-8.295916,-9.848858,25.9,13.58,23.030001,1729417506907.0,0.0
1.12702,-2.849852,-8.705089,75.739998,31.5,36.68,1729417506930.0,0.0
0.447458,-1.459622,-2.423929,84.980003,57.119999,61.529999,1729417506946.0,0.0
-2.854637,-7.836494,5.058427,29.75,75.599998,50.189999,1729417506967.0,0.0
-5.907879,-14.696717,0.411566,-41.790001,74.900002,-1.68,1729417506985.0,0.0
-5.651847,-9.205189,-4.945964,-35.490002,-28.07,-35.0,1729417507006.0,0.0
-1.773082,-3.211168,-9.824929,28.700001,-136.919998,-30.1,1729417507028.0,0.0
-0.531207,0.629312,-17.053648,2.45,-144.270004,-31.639999,1729417507045.0,0.0
-5.053641,-6.211767,-14.799608,-15.75,-7.91,-8.89,1729417507066.0,0.0
-7.563712,-10.147961,-13.062418,13.65,138.25,-8.33,1729417507086.0,0.0
-4.656433,-9.626326,-7.788638,87.919998,20.09,35.560001,1729417507106.0,0.0
0.579063,-4.740182,-8.932407,86.379997,-20.51,31.01,1729417507127.0,0.0
2.935993,-0.844666,-6.625726,49.84,17.639999,33.25,1729417507146.0,0.0
1.045663,-4.754539,1.28016,71.889999,50.049999,57.68,1729417507166.0,0.0
-3.330809,-9.834501,7.908278,31.08,71.190002,42.700001,1729417507186.0,0.0
-7.173682,-12.248858,1.40698,-65.099998,83.510002,-23.17,1729417507207.0,0.0
-7.719246,-9.925428,-5.142176,-77.980003,21.280001,-43.259998,1729417507232.0,0.0
-2.761317,-4.666004,-8.800802,-14.14,-135.240005,-28.210001,1729417507245.0,0.0
0.636491,-2.155933,-15.608383,16.59,-183.050003,-16.379999,1729417507267.0,0.0
-2.409572,-5.534599,-12.672389,-37.939999,-70.769997,-8.12,1729417507285.0,0.0
-7.092326,-9.875179,-16.079767,-52.5,138.460007,-28.630001,1729417507306.0,0.0
-4.54397,-9.322437,-8.652447,84.559998,72.590004,19.950001,1729417507328.0,0.0
0.492921,-4.689932,-9.38465,105.629997,-23.17,23.450001,1729417507345.0,0.0
2.189433,-2.912065,-8.504091,60.900002,29.26,17.99,1729417507366.0,0.0
0.301496,-4.989035,0.806381,75.529999,78.610001,32.27,1729417507386.0,0.0
-4.419543,-7.45125,11.076375,56.139999,64.470001,38.360001,1729417507407.0,0.0
-6.360123,-9.949356,3.445665,-21.629999,45.009998,-0.14,1729417507438.0,0.0
-4.974678,-9.525827,-4.630112,-72.169998,26.530001,-42.98,1729417507446.0,0.0
-2.696711,-7.152147,-6.065805,-45.849998,-102.970001,-30.030001,1729417507465.0,0.0
0.052642,-4.051049,-11.47119,-33.529999,-157.710007,-17.57,1729417507486.0,0.0
-1.660619,-3.759124,-13.203594,-54.880001,-104.230003,-13.3,1729417507506.0,0.0
-7.209574,-9.183653,-17.376677,-59.57,80.080002,-15.75,1729417507528.0,0.0
-9.427721,-13.998013,-13.191631,11.83,106.190002,0.35,1729417507546.0,0.0
-3.649055,-9.042477,-8.499306,86.800003,11.9,25.27,1729417507566.0,0.0
0.27996,-5.458029,-8.714661,122.639999,-0.63,24.92,1729417507586.0,0.0
1.421337,-3.689733,-5.412565,79.730003,41.580002,18.9,1729417507607.0,0.0
-0.545564,-5.233103,3.452843,55.580002,68.25,20.860001,1729417507629.0,0.0
-3.369094,-5.852845,9.875179,25.549999,29.540001,30.799999,1729417507645.0,0.0
-4.268795,-6.932007,0.212961,-9.45,4.13,18.9,1729417507665.0,0.0
-3.74716,-7.551748,-5.575277,-87.709999,-22.33,-24.219999,1729417507686.0,0.0
-1.878366,-7.862815,-9.659825,-79.309998,-116.340004,-22.960001,1729417507707.0,0.0
-1.902294,-7.341179,-15.878771,-76.650002,-137.690002,-19.809999,1729417507729.0,0.0
-6.144768,-8.106883,-14.99582,-66.919998,-13.440001,-24.5,1729417507746.0,0.0
-7.52782,-8.583055,-14.172688,-24.08,82.529999,-22.889999,1729417507766.0,0.0
-4.608576,-10.057034,-9.157332,55.09,13.09,12.11,1729417507786.0,0.0
-1.469193,-7.314859,-8.812766,84.840004,23.309999,18.969999,1729417507813.0,0.0
-0.306281,-4.359723,-9.035298,72.730003,52.290001,16.66,1729417507827.0,0.0
-0.344566,-4.012764,-3.285345,46.759998,83.510002,16.24,1729417507845.0,0.0
-3.37388,-5.733203,9.97807,43.610001,44.52,36.470001,1729417507868.0,0.0
-3.443272,-7.506285,6.908078,16.450001,-24.01,35.77,1729417507946.0,0.0
-3.278167,-7.317252,1.306481,-57.119999,6.3,-15.54,1729417507949.0,0.0
-2.945565,-7.860423,-5.402994,-79.590004,-24.92,-28.07,1729417507949.0,0.0
-2.854637,-8.248059,-7.094719,-42.0,-110.040001,-14.63,1729417507950.0,0.0
-4.893322,-7.312466,-14.974284,-56.0,-110.18,-29.889999,1729417507970.0,0.0
-6.912865,-9.705289,-19.67618,-75.529999,38.990002,-43.470001,1729417507985.0,0.0
-5.836094,-11.062018,-12.057433,14.21,36.470001,-4.34,1729417508006.0,0.0
-2.254039,-7.743174,-9.906286,110.739998,0.35,18.41,1729417508027.0,0.0
-0.705883,-5.328816,-9.731609,143.360001,28.84,31.15,1729417508047.0,0.0
-0.634098,-5.02732,-8.638089,107.379997,81.900002,13.440001,1729417508067.0,0.0
-2.45025,-6.642475,-0.234497,59.639999,107.449997,-0.28,1729417508088.0,0.0
-5.12782,-5.295317,9.678967,46.060001,34.790001,17.57,1729417508108.0,0.0
-2.732604,-6.01077,6.752545,57.68,-32.830002,9.03,1729417508128.0,0.0
-1.887937,-7.951349,2.940779,-0.84,-39.34,-20.16,1729417508147.0,0.0
-1.512264,-7.111469,-3.589234,-91.419998,-35.139999,-37.869999,1729417508168.0,0.0
-1.684547,-6.398407,-9.329616,-97.090004,-75.809998,-22.68,1729417508187.0,0.0
-2.464607,-6.273981,-16.371693,-89.459999,-92.889999,-14.14,1729417508206.0,0.0
-6.278766,-11.279767,-16.426727,-47.529999,-0.98,-3.64,1729417508232.0,0.0
-9.159724,-12.744174,-11.985649,6.51,93.309998,-8.4,1729417508248.0,0.0
-4.309474,-10.195816,-8.506484,118.860001,11.34,16.59,1729417508266.0,0.0
0.713061,-3.110669,-8.865408,106.120003,14.98,16.379999,1729417508288.0,0.0
0.823131,-3.120241,-3.117848,56.91,63.139999,18.690001,1729417508308.0,0.0
-2.54357,-4.553542,10.281959,50.119999,57.400002,37.66,1729417508329.0,0.0
-4.297509,-8.396415,7.353144,55.720001,7.98,42.700001,1729417508348.0,0.0
-4.342973,-8.989835,1.344766,-24.219999,36.889999,-14.0,1729417508367.0,0.0
-3.182454,-8.410772,-4.546363,-36.259998,-9.66,-14.28,1729417508388.0,0.0
-3.0006,-8.446664,-4.335794,5.67,-125.93,23.940001,1729417508409.0,0.0
-1.940579,-10.38485,-17.426928,-36.959999,-97.510002,-8.68,1729417508429.0,0.0
-6.075377,-12.315859,-19.144974,-62.16,12.95,-19.879999,1729417508447.0,0.0
-8.312666,-12.875778,-10.841879,59.290001,88.830002,-4.41,1729417508468.0,0.0
-4.319045,-8.446664,-9.573684,165.479996,28.07,12.88,1729417508487.0,0.0
-1.275374,-5.802595,-6.754939,137.130005,28.07,8.89,1729417508508.0,0.0
-0.416351,-4.536791,-1.598405,54.389999,48.93,-3.01,1729417508534.0,0.0
-1.462015,-4.271189,8.580662,47.529999,45.5,4.13,1729417508548.0,0.0
-3.469593,-5.146961,7.628319,63.420002,-24.360001,35.209999,1729417508567.0,0.0
-2.766103,-7.57089,0.023928,-65.449997,12.25,-34.650002,1729417508588.0,0.0
-3.158526,-9.765109,-4.175476,-102.550003,-35.139999,-25.83,1729417508608.0,0.0
-2.868994,-10.399208,-12.459428,-100.169998,-119.139999,9.87,1729417508640.0,0.0
-3.924229,-10.499706,-17.517855,-86.730003,-48.509998,-24.360001,1729417508813.0,0.0
-7.393822,-12.543176,-13.483556,-39.41,71.260002,-18.9,1729417508814.0,0.0
-6.180661,-12.935599,-8.975478,97.440002,41.509998,-4.9,1729417508815.0,0.0
-2.28036,-7.563712,-9.750752,126.0,28.98,3.29,1729417508816.0,0.0
-0.473779,-6.455836,-7.463214,116.620003,39.200001,-9.8,1729417508817.0,0.0
-1.347159,-5.659025,-0.193819,72.379997,92.889999,-19.110001,1729417508820.0,0.0
-3.139383,-2.775674,9.944571,81.480003,67.269997,-3.64,1729417508820.0,0.0
-3.287738,-5.175675,8.585447,142.800003,-18.48,40.25,1729417508821.0,0.0
-1.808974,-7.80778,1.730011,50.049999,-13.72,-15.47,1729417508822.0,0.0
-1.529014,-12.203396,-5.245068,8.54,29.4,-12.67,1729417508829.0,0.0
-2.086541,-9.79143,-2.053042,51.450001,-40.110001,15.33,1729417508846.0,0.0
-1.282553,-4.759324,0.727418,115.150002,-48.02,57.75,1729417508866.0,0.0
-2.201397,-7.429714,-0.847059,87.010002,-43.75,73.43,1729417508887.0,0.0
-5.118248,-13.634303,-6.580262,-19.530001,27.299999,45.43,1729417508907.0,0.0
-9.461221,-16.31905,-5.316852,45.220001,54.950001,37.240002,1729417508927.0,0.0
-7.939385,-16.149158,-2.95035,228.830002,5.67,57.189999,1729417508947.0,0.0
-3.804588,-11.918649,-0.98345,340.619995,-35.560001,65.940002,1729417508966.0,0.0
-1.718047,-10.274779,0.830309,385.420013,-34.860001,53.060001,1729417508986.0,0.0
-2.478964,-9.695717,2.0004,331.309998,4.55,36.959999,1729417509007.0,0.0
-4.465007,-11.715261,2.335395,285.390015,31.5,10.22,1729417509027.0,0.0
-4.922036,-11.990433,1.887937,300.720001,31.360001,10.36,1729417509046.0,0.0
-3.761517,-7.664211,2.328217,346.570007,9.03,48.02,1729417509066.0,0.0
-4.331009,-6.051448,2.596212,389.690002,-8.19,85.68,1729417509087.0,0.0
-3.347559,-2.914458,3.160919,349.51001,-7.35,30.940001,1729417509106.0,0.0
-3.510271,1.31366,3.254239,244.509995,3.92,14.0,1729417509127.0,0.0
-4.792823,-0.547956,3.68734,156.729996,33.18,-12.11,1729417509317.0,0.0
-4.515256,-6.362515,2.833102,111.440002,47.32,-54.040001,1729417509318.0,0.0
-4.761717,-2.924029,4.965107,148.960007,38.849998,-34.16,1729417509319.0,0.0
-5.599205,2.76371,9.729217,161.699997,31.15,-0.28,1729417509320.0,0.0
-5.632704,2.754139,9.62154,74.830002,24.219999,1.54,1729417509321.0,0.0
-6.166305,-6.745367,5.711668,-19.25,36.119999,20.02,1729417509322.0,0.0
-5.831308,-7.65464,6.769295,-4.48,13.23,13.86,1729417509331.0,0.0
-8.315059,-8.602197,10.052249,3.57,16.309999,8.47,1729417509331.0,0.0
-9.669396,-7.635497,7.496714,-23.1,25.76,-13.72,1729417509331.0,0.0
-4.902894,-3.644269,5.041678,14.91,-52.849998,7.14,1729417509332.0,0.0
-3.493521,0.153141,5.888737,31.219999,-87.150002,57.330002,1729417509346.0,0.0
-6.742974,1.868794,7.661818,-8.05,-22.889999,-3.08,1729417509368.0,0.0
-6.460621,-1.007378,8.171489,-73.849998,-74.900002,2.87,1729417509394.0,0.0
-3.804588,-6.089733,9.533006,-87.5,-118.230003,-13.09,1729417509415.0,0.0
-0.605384,-6.520442,4.546363,-75.040001,-126.139999,-29.960001,1729417509430.0,0.0
-0.708275,-0.306281,2.971886,-17.08,-81.129997,-5.32,1729417509448.0,0.0
0.504886,5.453243,1.916651,-93.870003,-45.150002,-11.83,1729417509468.0,0.0
0.346959,1.600798,2.600998,-223.720001,-26.880001,-14.7,1729417509487.0,0.0
-1.332802,-3.177669,4.139583,-359.730011,53.200001,-29.68,1729417509508.0,0.0
-4.48415,-9.013763,3.507878,-567.140015,78.470001,-66.709999,1729417509581.0,0.0
-9.657433,-19.298115,1.124627,-312.76001,-129.009995,-33.459999,1729417509582.0,0.0
-4.902894,-14.313866,2.115255,-308.279999,-131.320007,-2.17,1729417509583.0,0.0
-0.351745,-10.566705,-2.35693,-328.440002,-81.620003,-17.219999,1729417509738.0,0.0
-3.235096,-11.947363,1.519442,-270.269989,-9.66,-29.68,1729417509745.0,0.0
-6.015556,-13.124631,3.292524,-170.800003,-3.08,-35.490002,1729417509745.0,0.0
-2.629712,-13.067204,-1.318445,-118.020004,-1.4,-17.5,1729417509746.0,0.0
-3.0006,-6.455836,0.349352,-166.039993,-2.52,-16.450001,1729417509747.0,0.0
-2.962314,-6.721439,-0.143569,-183.960007,-50.189999,-41.16,1729417509747.0,0.0
-2.732604,-9.236296,-1.646262,-209.160004,-24.57,-44.66,1729417509747.0,0.0
-3.302095,-9.95175,-2.98385,-252.839996,-33.810001,-57.049999,1729417509750.0,0.0
-3.041277,-9.990034,-5.166104,-238.279999,-22.190001,-54.880001,1729417509773.0,0.0
-3.220739,-6.814759,-4.311867,-246.050003,-38.779999,-66.779999,1729417509856.0,0.0
-3.515057,-6.376873,-3.981657,-240.309998,-54.950001,-65.800003,1729417509857.0,0.0
-2.758924,-7.257431,-5.986843,-236.180008,-44.73,-66.709999,1729417509858.0,0.0
-2.517249,-9.339187,-4.445865,-156.729996,-23.940001,-49.98,1729417509859.0,0.0
-2.165504,-6.65444,-5.673382,-138.389999,-21.84,-47.18,1729417509869.0,0.0
-1.56012,-5.065606,-7.211967,-149.100006,-19.389999,-36.189999,1729417509887.0,0.0
-1.086342,-5.096712,-7.489535,-138.669998,-24.639999,-31.290001,1729417509908.0,0.0
-1.531406,-6.080163,-7.037291,-155.539993,-25.9,-21.629999,1729417509930.0,0.0
-1.536192,-7.133004,-9.128618,-165.619995,-19.460001,-30.73,1729417509948.0,0.0
-2.230111,-5.56092,-8.281559,-172.130005,-40.110001,-23.799999,1729417509976.0,0.0
-0.973879,-2.883351,-9.111869,-160.020004,-48.439999,-18.129999,1729417509990.0,0.0
-1.612763,-1.837688,-12.902101,-132.160004,-24.43,-9.24,1729417510011.0,0.0
-4.587041,-2.22054,-10.540384,-113.330002,-15.89,-10.08,1729417510029.0,0.0
-3.541377,-3.907479,-10.375278,-86.590004,-44.939999,5.39,1729417510048.0,0.0
-1.885544,-3.797409,-10.128819,-30.870001,-32.970001,9.66,1729417510069.0,0.0
-3.986443,-1.813759,-6.242875,0.49,-14.56,24.710001,1729417510088.0,0.0
-3.675375,-1.153341,-8.166703,-3.92,-0.91,18.620001,1729417510108.0,0.0
-4.393222,3.005385,-10.705488,-18.76,12.95,37.240002,1729417510128.0,0.0
-2.720639,-1.897508,-14.840286,-43.330002,7.91,31.01,1729417510150.0,0.0
-2.605784,-7.456036,-11.085947,7.49,31.219999,2.73,1729417510168.0,0.0
-1.832902,-3.689733,-7.56132,52.290001,5.88,51.869999,1729417510188.0,0.0
-1.543371,-4.070191,-8.906086,48.16,5.04,16.59,1729417510209.0,0.0
-2.007578,-5.032106,-10.624132,57.540001,30.24,13.23,1729417510235.0,0.0
-2.811567,-4.890929,-8.88455,67.269997,28.280001,20.51,1729417510250.0,0.0
-2.639283,-4.225725,-8.269595,42.84,12.81,20.65,1729417510269.0,0.0
-2.29711,-5.309673,-10.655239,29.75,13.58,7.77,1729417510297.0,0.0
-2.541178,-5.893522,-10.760524,57.68,18.76,3.5,1729417510310.0,0.0
-2.538785,-4.481757,-7.814958,126.279999,17.639999,13.79,1729417510331.0,0.0
-2.129612,-1.605584,-6.89133,132.930008,20.58,20.93,1729417510348.0,0.0
-2.787638,-3.924229,-7.06122,66.220001,10.29,10.29,1729417510368.0,0.0
-2.969493,-7.647461,-5.532206,43.189999,7.07,10.29,1729417510392.0,0.0
-2.151148,-7.211967,-5.13739,73.010002,-2.31,13.440001,1729417510411.0,0.0
-1.234696,-1.217947,-7.046863,91.489998,8.89,33.18,1729417510429.0,0.0
-4.012764,-4.462614,-2.122434,31.92,-16.59,22.469999,1729417510448.0,0.0
-3.132205,-6.903293,-6.336195,-74.340004,8.19,-14.91,1729417510469.0,0.0
-2.825923,-8.492127,-9.781858,-82.040001,-4.97,-19.460001,1729417510488.0,0.0
-1.835295,-7.537392,-11.160125,-37.52,-16.59,-12.6,1729417510508.0,0.0
-2.524428,-6.087341,-9.327222,20.16,-14.91,3.15,1729417510529.0,0.0
-3.148954,-5.04407,-8.099705,54.32,4.83,-0.56,1729417510549.0,0.0
-3.424129,-5.278566,-7.802995,38.779999,2.66,2.24,1729417510568.0,0.0
-2.538785,-5.74756,-7.427321,26.32,-11.2,-1.54,1729417510590.0,0.0
-1.914258,-2.739782,-3.761517,9.1,-21.77,9.66,1729417510608.0,0.0
-1.696511,-4.084548,-7.814958,16.309999,-41.790001,1.89,1729417510631.0,0.0
-2.957529,-6.305088,-8.961121,-14.42,-13.51,-18.690001,1729417510652.0,0.0
-4.031906,-5.388636,-11.820543,-18.83,28.210001,-7.7,1729417510668.0,0.0
-3.572484,-3.929015,-11.739187,-25.41,30.309999,13.3,1729417510689.0,0.0
-2.809174,-5.381458,-8.676375,-8.68,17.92,16.030001,1729417510708.0,0.0
-2.005185,-6.068198,-11.519048,56.91,1.26,17.85,1729417510730.0,0.0
-2.268396,-3.493521,-13.007384,87.010002,44.59,20.93,1729417510750.0,0.0
-3.15374,-4.072584,-12.937992,35.98,64.75,17.639999,1729417510768.0,0.0
-1.792224,-4.981857,-8.427521,28.91,50.189999,14.35,1729417510790.0,0.0
-1.428515,-7.293324,-3.261417,44.310001,46.200001,23.450001,1729417510808.0,0.0
-2.849852,-6.273981,1.509871,36.610001,29.26,15.89,1729417510829.0,0.0
-0.930808,-7.688138,-2.928815,64.400002,22.469999,-3.15,1729417510848.0,0.0
-1.887937,-6.357729,-2.249253,35.420002,-25.690001,19.110001,1729417510870.0,0.0
-4.139583,-7.465607,-1.543371,-9.59,-5.88,9.94,1729417510888.0,0.0
-4.534399,-6.412765,-8.717053,-86.800003,-14.84,-14.98,1729417510909.0,0.0
-5.115855,-6.412765,-14.421541,-66.010002,-53.27,-25.200001,1729417510932.0,0.0
-3.04367,-3.273381,-20.468204,-41.299999,-37.59,-20.58,1729417510948.0,0.0
-2.603391,-5.71406,-17.170895,25.549999,-18.27,-6.65,1729417510967.0,0.0
-3.799802,-6.087341,-8.085347,100.099998,36.82,11.62,1729417510989.0,0.0
-4.278367,-5.85763,-1.002593,160.649994,12.39,23.1,1729417511008.0,0.0
-3.620341,-4.106083,-5.577669,63.349998,13.72,15.68,1729417511030.0,0.0
-2.254039,-7.948956,-11.710474,-35.98,71.889999,-18.48,1729417511049.0,0.0
-0.270389,-9.468399,-7.953743,7.63,46.27,-0.91,1729417511067.0,0.0
0.57667,-8.468199,-0.837488,91.910004,-31.01,37.59,1729417511089.0,0.0
0.727418,-5.577669,3.759124,65.449997,-13.3,17.01,1729417511108.0,0.0
-0.808774,-5.103891,-1.385444,1.61,12.81,5.11,1729417511128.0,0.0
-3.402594,-6.089733,-7.192825,-39.759998,60.549999,-10.92,1729417511148.0,0.0
-6.396015,-7.551748,-7.168896,-68.32,48.16,-9.38,1729417511167.0,0.0
-4.838287,-7.953743,-5.608776,5.74,-72.870003,-9.38,1729417511187.0,0.0
-0.78006,-0.851845,-12.409179,10.71,-117.459999,-17.5,1729417511208.0,0.0
-1.732404,-3.608376,-19.700108,-65.309998,-54.599998,-22.33,1729417511232.0,0.0
-4.869394,-10.700702,-15.110674,-58.310001,55.510002,-28.91,1729417511247.0,0.0
-8.279166,-11.466407,-3.507878,62.860001,50.049999,14.7,1729417511267.0,0.0
-4.175476,-7.692925,-8.693125,118.020004,8.47,16.379999,1729417511287.0,0.0
-1.926222,-5.496314,-7.767102,48.860001,18.620001,-0.14,1729417511307.0,0.0
-0.028714,-7.312466,-8.233703,30.66,36.259998,-5.53,1729417511328.0,0.0
1.272982,-6.903293,-5.417351,47.389999,61.18,3.92,1729417511347.0,0.0
0.933201,-5.194818,3.658626,78.470001,33.389999,28.559999,1729417511367.0,0.0
-2.514857,-6.692725,5.663811,71.050003,-1.05,48.860001,1729417511387.0,0.0
-5.608776,-5.836094,-2.316252,-54.18,81.830002,-17.290001,1729417511408.0,0.0
-5.735595,-6.862615,-7.288538,-59.639999,70.980003,-29.75,1729417511429.0,0.0
-2.739782,-5.802595,-3.440879,-11.83,-110.949997,20.02,1729417511448.0,0.0
0.392423,-6.333801,-2.423929,26.32,-185.220001,29.049999,1729417511468.0,0.0
-1.804188,-7.936993,-16.211372,-93.730003,-107.239998,-18.969999,1729417511487.0,0.0
-7.140182,-11.090734,-23.75355,-128.869995,133.699997,-49.349998,1729417511508.0,0.0
-6.283553,-11.021341,-5.910272,65.660004,84.559998,10.15,1729417511530.0,0.0
-0.701097,-4.295116,-2.143969,108.43,-86.309998,25.27,1729417511548.0,0.0
1.395016,-4.658825,-7.039684,0.91,-22.4,-4.41,1729417511567.0,0.0
1.11027,-7.944171,-9.937392,-42.700001,88.059998,-29.33,1729417511588.0,0.0
-1.646262,-8.575876,-4.634897,23.450001,112.699997,9.17,1729417511608.0,0.0
-3.378666,-4.567898,4.953143,76.790001,60.900002,38.57,1729417511629.0,0.0
-5.245068,-6.053841,5.618347,57.959999,-13.72,41.16,1729417511648.0,0.0
-4.835894,-7.288538,-2.612962,-85.400002,50.959999,-19.6,1729417511667.0,0.0
-3.629912,-9.454042,-7.164111,-113.470001,-16.1,-30.450001,1729417511688.0,0.0
0.20339,-6.65444,-5.699703,-35.0,-141.119995,5.25,1729417511708.0,0.0
1.261017,-5.005785,-8.805587,31.57,-164.080002,15.68,1729417511729.0,0.0
-2.533999,-5.070391,-16.058231,-46.27,-30.030001,-28.35,1729417511747.0,0.0
-9.025726,-9.001799,-17.915062,-92.330002,134.119995,-43.959999,1729417511768.0,0.0
-8.882158,-12.894921,-7.977671,55.16,5.25,6.93,1729417511787.0,0.0
-2.120041,-8.518449,-4.972286,125.650002,-90.720001,25.41,1729417511808.0,0.0
-0.911665,-5.642276,-9.370294,54.950001,1.33,6.02,1729417511829.0,0.0
-2.074577,-8.085347,-11.301301,11.27,114.660004,-32.689999,1729417511848.0,0.0
-1.380659,-6.070591,-5.075177,31.01,123.690002,-6.79,1729417511868.0,0.0
-1.538585,-4.45065,7.319644,120.75,-10.15,47.950001,1729417511888.0,0.0
-2.696711,-6.685547,7.054041,84.07,-9.45,16.799999,1729417511908.0,0.0
-3.54377,-7.60439,-2.792424,-69.300003,98.629997,-36.610001,1729417511932.0,0.0
-2.74696,-9.288938,-8.157133,-85.260002,24.57,-39.41,1729417511949.0,0.0
0.378066,-7.750352,-4.697111,-19.32,-118.93,9.03,1729417511967.0,0.0
1.136591,-6.570691,-0.256032,18.200001,-144.550003,13.65,1729417511988.0,0.0
-0.978664,-5.355137,-8.097312,-47.740002,-65.239998,-15.05,1729417512008.0,0.0
-4.56072,-7.118648,-15.625132,-85.470001,55.16,-38.849998,1729417512029.0,0.0
-9.387043,-12.380465,-14.907285,-24.85,77.139999,-8.19,1729417512048.0,0.0
-6.161518,-10.392029,-5.723632,53.34,-25.9,14.91,1729417512068.0,0.0
-1.866402,-6.999006,-6.975078,75.18,-89.25,17.43,1729417512088.0,0.0
-0.311067,-5.206782,-10.571491,35.84,2.45,-12.25,1729417512108.0,0.0
-2.87378,-7.255038,-8.465806,-10.22,91.489998,-12.46,1729417512130.0,0.0
-4.175476,-10.798808,-7.783852,12.95,122.5,-14.84,1729417512149.0,0.0
-4.522435,-7.767102,0.435494,43.82,57.189999,10.22,1729417512168.0,0.0
-2.895315,-6.161518,3.565305,64.050003,1.82,6.02,1729417512188.0,0.0
-0.72024,-6.793223,-4.252046,31.360001,-4.27,-8.26,1729417512207.0,0.0
-0.758525,-6.460621,-6.819544,-13.37,18.620001,-11.27,1729417512235.0,0.0
-0.42353,-6.831509,-7.063612,6.51,-0.91,3.08,1729417512249.0,0.0
-0.241675,-6.278766,-5.577669,31.43,-24.360001,14.35,1729417512267.0,0.0
-1.012164,-7.537392,-3.481557,30.17,-24.01,6.09,1729417512287.0,0.0
-2.201397,-12.535997,-5.410172,1.89,1.4,-18.83,1729417512308.0,0.0
-3.309274,-13.993226,-3.680161,9.1,13.93,-45.360001,1729417512329.0,0.0
-3.61077,-7.867601,-4.601398,59.849998,9.1,-23.450001,1729417512347.0,0.0
-3.622734,-3.273381,-6.008378,67.199997,7.0,-12.95,1729417512368.0,0.0
-3.584448,-3.505485,-5.178068,-10.85,-15.61,-19.950001,1729417512388.0,0.0
-2.191825,-9.06162,-7.496714,-102.199997,-39.970001,-30.799999,1729417512408.0,0.0
-1.440479,-12.612568,-7.24786,-149.589996,-61.670002,-25.059999,1729417512429.0,0.0
-1.308874,-9.894321,-5.446064,-156.520004,-64.75,-26.530001,1729417512447.0,0.0
-1.787439,-6.436693,-4.345366,-194.460007,-64.330002,-49.700001,1729417512468.0,0.0
-3.261417,-5.355137,-3.364309,-259.070007,-64.050003,-64.470001,1729417512488.0,0.0
-3.759124,-6.4343,-7.267002,-250.880005,-52.43,-70.699997,1729417512508.0,0.0
-3.160919,-6.393622,-8.10449,-170.589996,-54.880001,-62.790001,1729417512528.0,0.0
-2.749353,-3.615555,-8.374879,-143.149994,-58.66,-54.040001,1729417512547.0,0.0
-2.976671,-6.23091,-7.817351,-152.25,-46.27,-44.869999,1729417512568.0,0.0
-2.22054,-5.472386,-9.150154,-131.669998,-29.610001,-46.689999,1729417512587.0,0.0
-2.804388,-5.625526,-10.303494,-96.459999,-10.43,-42.279999,1729417512608.0,0.0
-2.517249,-6.9344,-11.861222,-76.580002,8.4,-38.920002,1729417512631.0,0.0
-1.612763,-5.15414,-11.49512,-51.029999,3.43,-35.84,1729417512647.0,0.0
-1.332802,-2.031506,-6.9009,-53.970001,-22.469999,-25.549999,1729417512667.0,0.0
-0.624527,-0.323031,-8.126025,-75.32,-32.759998,-20.09,1729417512688.0,0.0
-2.309074,-0.954736,-6.977471,-53.48,-12.53,-1.54,1729417512708.0,0.0
-2.979064,-3.773481,-8.496914,-46.689999,-20.02,-10.5,1729417512731.0,0.0
-2.955136,-2.344966,-10.861022,-96.669998,-26.530001,-26.809999,1729417512750.0,0.0
-2.85703,0.098106,-9.018548,-98.209999,-44.240002,-19.460001,1729417512767.0,0.0
-2.782853,-0.435494,-9.372685,-66.779999,-14.42,-12.88,1729417512788.0,0.0
-3.452843,-4.87418,-9.903893,-11.76,1.89,-3.92,1729417512807.0,0.0
-2.59382,-5.144568,-10.487741,-14.49,-15.12,3.43,1729417512829.0,0.0
-0.837488,-5.379066,-10.157533,57.470001,-28.559999,24.360001,1729417512847.0,0.0
-0.253639,-4.785645,-10.480563,140.910004,-20.790001,39.759998,1729417512867.0,0.0
-1.124627,-2.287539,-12.401999,231.979996,35.420002,53.830002,1729417512963.0,0.0
-3.416951,-4.689932,-8.070991,297.290009,43.82,82.949997,1729417512969.0,0.0
-5.084748,-7.707282,-6.372087,219.520004,42.91,72.239998,1729417512969.0,0.0
-3.900301,-7.377072,-8.587841,112.980003,6.93,44.59,1729417512970.0,0.0
-2.328217,-7.707282,-5.230711,73.779999,-21.77,31.43,1729417512970.0,0.0
-2.354537,-8.252845,-3.969693,37.52,-27.440001,16.379999,1729417512987.0,0.0
-2.562713,-7.479963,-5.635098,-6.93,-11.55,-12.74,1729417513007.0,0.0
-3.244668,-5.094319,-6.640083,-25.48,-27.370001,-13.440001,1729417513031.0,0.0
-4.101298,-3.735196,-7.312466,-64.120003,-32.27,-10.08,1729417513047.0,0.0
-3.725625,-4.106083,-8.394022,-100.169998,7.77,-31.85,1729417513067.0,0.0
-3.117848,-6.597012,-10.535598,-78.120003,35.700001,-35.630001,1729417513094.0,0.0
-3.663411,-6.549156,-9.085547,-45.779999,47.459999,-30.030001,1729417513109.0,0.0
-3.912265,-4.890929,-7.429714,-59.779999,33.18,-28.210001,1729417513129.0,0.0
-3.287738,-2.880959,-8.422735,-104.160004,13.65,-37.310001,1729417513148.0,0.0
-2.928815,-3.866802,-9.267403,-121.099998,4.2,-48.509998,1729417513168.0,0.0
-3.689733,-3.28056,-9.212367,-134.75,16.59,-55.09,1729417513187.0,0.0
-4.682754,-3.125026,-6.618547,-87.57,-9.24,-32.48,1729417513209.0,0.0
-1.617548,-1.112662,-6.161518,-89.32,-38.290001,-23.799999,1729417513232.0,0.0
-0.394816,3.888337,-11.727223,-184.589996,4.76,-31.01,1729417513248.0,0.0
-3.29731,-3.046063,-13.722836,-143.639999,57.959999,-52.920002,1729417513268.0,0.0
-3.897908,-5.915058,-10.224532,-37.170002,-19.67,-32.41,1729417513287.0,0.0
-0.658026,-1.526621,-7.037291,52.009998,-46.619999,34.860001,1729417513308.0,0.0
-0.765703,0.40678,-7.915457,21.91,-15.89,32.619999,1729417513330.0,0.0
-2.07697,-3.60359,-9.652647,-23.309999,24.85,4.27,1729417513348.0,0.0
-2.215754,-6.360123,-10.600205,34.16,24.92,9.59,1729417513368.0,0.0
-1.457229,-3.493521,-12.203396,132.789993,-8.89,52.150002,1729417513388.0,0.0
-1.765903,-4.577469,-13.584054,213.639999,-6.37,54.040001,1729417513408.0,0.0
-2.912065,-2.091327,-12.435498,242.830002,32.830002,40.389999,1729417513430.0,0.0
-3.943372,-2.053042,-7.659425,217.0,-12.18,38.920002,1729417513448.0,0.0
-2.435893,-6.515656,-4.048656,126.349998,-42.490002,0.63,1729417513468.0,0.0
-0.433101,-11.334801,-3.352344,52.009998,-39.130001,-24.219999,1729417513488.0,0.0
-2.981457,-5.517848,-7.049256,19.18,-2.66,-5.11,1729417513509.0,0.0
-5.513064,-3.656233,-7.984849,51.310001,33.389999,-6.86,1729417513531.0,0.0
-3.469593,-6.168696,-5.773881,47.529999,-9.38,-1.82,1729417513549.0,0.0
-1.868794,-8.458629,-6.271588,9.31,-29.68,10.29,1729417513570.0,0.0
-3.783052,-6.580262,-7.623533,3.85,-11.55,-8.33,1729417513589.0,0.0
-4.618148,-4.113262,-7.312466,4.69,-21.91,3.01,1729417513609.0,0.0
-1.947758,-5.496314,-5.436492,-1.05,-44.66,5.67,1729417513631.0,0.0
-2.744568,-6.54437,-6.171089,-64.889999,-13.58,-1.33,1729417513649.0,0.0
-3.002992,-4.034299,-9.568897,-102.900002,1.19,-16.309999,1729417513670.0,0.0
-3.409772,-3.113062,-11.160125,-91.910004,-4.06,-10.15,1729417513689.0,0.0
-3.139383,-5.338387,-8.760124,-68.040001,0.28,-22.68,1729417513709.0,0.0
-2.790031,-2.615355,-8.597411,-56.279999,22.610001,-11.55,1729417513730.0,0.0
-3.428915,-1.758725,-7.305287,-71.260002,35.560001,-18.690001,1729417513749.0,0.0
-2.959922,-2.928815,-9.755538,-103.18,34.650002,-29.610001,1729417513770.0,0.0
-3.476771,-4.127619,-6.9009,-87.709999,19.879999,-13.79,1729417513789.0,0.0
-2.117648,-3.180061,-8.195417,-76.93,3.99,0.14,1729417513815.0,0.0
-2.471786,-1.928615,-9.281759,-73.220001,3.22,5.6,1729417513831.0,0.0
-2.868994,-1.651048,-8.618947,-53.619999,0.56,9.87,1729417513849.0,0.0
-3.120241,-1.392623,-9.966106,-49.560001,5.74,8.26,1729417513869.0,0.0
-4.278367,-2.502892,-8.726624,-50.68,-4.62,-0.49,1729417513889.0,0.0
-2.931208,-3.462414,-9.276974,-24.780001,-24.99,8.96,1729417513909.0,0.0
-2.074577,-3.270989,-11.454442,24.85,-22.889999,7.77,1729417513931.0,0.0
-2.761317,-3.144169,-11.380265,84.910004,-19.6,6.86,1729417513950.0,0.0
-2.833102,-4.82393,-9.939785,151.830002,-18.83,3.43,1729417513969.0,0.0
-2.859423,-4.886144,-7.659425,234.360001,-36.400002,23.799999,1729417513989.0,0.0
-2.249253,-4.938786,-6.364908,320.110016,-37.59,21.77,1729417514009.0,0.0
-2.818745,-1.813759,-7.118648,249.970001,-16.1,34.650002,1729417514030.0,0.0
-4.893322,-3.579663,-5.635098,92.330002,10.36,50.259998,1729417514049.0,0.0
-3.512664,-7.767102,-7.379465,26.809999,6.09,64.470001,1729417514069.0,0.0
-1.998007,-8.635696,-9.379865,38.080002,24.92,64.120003,1729417514090.0,0.0
-1.854438,-6.362515,-8.441878,94.010002,32.27,72.660004,1729417514109.0,0.0
-4.072584,-5.134997,-6.884151,66.57,42.139999,80.57,1729417514130.0,0.0
-4.788038,-8.449057,-3.285345,-41.509998,16.66,17.710001,1729417514150.0,0.0
-5.264209,-12.665211,-3.084348,-121.520004,-29.610001,4.69,1729417514169.0,0.0
-2.292324,-9.820145,-7.427321,-81.830002,-25.690001,-3.78,1729417514189.0,0.0
-3.139383,-4.95075,-8.245667,0.63,8.47,-10.57,1729417514209.0,0.0
-5.012963,-4.663611,-8.214561,-10.85,63.490002,-33.18,1729417514235.0,0.0
-6.135197,-6.905686,-8.492127,-42.209999,63.07,-41.580002,1729417514249.0,0.0
-5.04407,-5.493921,-9.399008,-9.17,38.779999,-22.33,1729417514268.0,0.0
-3.436093,-4.053442,-7.944171,58.52,18.969999,-3.08,1729417514288.0,0.0
-3.024528,-3.993621,-5.522634,75.040001,-6.3,10.5,1729417514309.0,0.0
-2.876173,-4.273581,-7.034898,5.6,9.38,1.47,1729417514331.0,0.0
-2.677568,-6.776474,-10.064213,-26.32,27.440001,-14.56,1729417514350.0,0.0
-2.861816,-8.827123,-9.131011,14.07,12.39,-11.55,1729417514368.0,0.0
-2.921637,-9.772287,-9.848858,68.389999,2.52,5.67,1729417514390.0,0.0
-3.110669,-7.432107,-8.341379,107.169998,10.29,7.63,1729417514410.0,0.0
-3.407379,-5.781059,-4.436293,129.360001,8.68,11.76,1729417514431.0,0.0
-2.847459,-5.115855,-4.017549,121.449997,7.28,8.19,1729417514449.0,0.0
-1.380659,-6.049056,-6.513263,91.0,39.759998,-7.42,1729417514469.0,0.0
-2.383251,-8.499306,-5.000999,33.389999,32.130001,-9.31,1729417514489.0,0.0
-3.108276,-8.547162,-5.20439,44.59,44.099998,-11.27,1729417514509.0,0.0
-3.601198,-5.663811,-3.976871,68.25,21.49,-0.7,1729417514534.0,0.0
-3.125026,-3.196811,-3.60359,5.81,-11.27,4.06,1729417514549.0,0.0
-3.110669,-6.063413,-7.769495,-84.279999,-11.13,-9.17,1729417514569.0,0.0
-3.268596,-11.447264,-10.325029,-105.910004,-7.49,-36.959999,1729417514589.0,0.0
-3.895515,-11.279767,-9.468399,-82.879997,-11.76,-15.4,1729417514610.0,0.0
-3.412165,-7.695317,-6.757331,-8.33,-20.370001,-2.31,1729417514631.0,0.0
-2.926422,-4.48415,-5.04407,-18.549999,-46.48,-12.04,1729417514649.0,0.0
-2.158326,-6.12084,-7.458428,-51.170002,-62.580002,-21.700001,1729417514668.0,0.0
-2.541178,-9.097511,-7.618747,-13.65,-68.669998,-26.18,1729417514688.0,0.0
-3.634698,-7.781459,-7.872386,55.369999,-17.360001,-11.34,1729417514710.0,0.0
-4.421937,-4.759324,-7.463214,113.470001,16.24,3.36,1729417514730.0,0.0
-5.130211,-0.880559,-6.685547,73.57,-7.84,24.85,1729417514748.0,0.0
-3.900301,-2.924029,-8.147561,7.07,-23.24,6.44,1729417514769.0,0.0
-3.294917,-6.443871,-6.702296,-50.75,-20.370001,-11.97,1729417514788.0,0.0
-3.694518,-8.114061,-6.625726,-25.41,4.76,-7.28,1729417514808.0,0.0
-4.110869,-7.688138,-6.608976,29.33,26.74,2.45,1729417514831.0,0.0
-3.943372,-8.140383,-4.536791,27.790001,4.97,4.41,1729417514849.0,0.0
-3.158526,-9.375079,-5.517848,10.01,-0.7,7.14,1729417514868.0,0.0
