acc_x,acc_y,acc_z,gyr_x,gyr_y,gyr_z,timestamp,label
5.79063,-4.192225,19.554146,152.809998,48.720001,25.549999,1729428888489.0,0.0
-0.945165,-9.020942,5.424529,11.97,-61.810001,-0.14,1729428888493.0,0.0
-2.199004,-8.171489,-0.227318,-20.02,-135.940002,-2.17,1729428888494.0,0.0
-0.404387,-7.456036,-7.298109,-43.400002,-171.919998,-5.25,1729428888495.0,0.0
-7.477571,-10.834702,-12.291929,-175.139999,-145.180008,-19.6,1729428888514.0,0.0
-16.555939,-14.215759,-14.622539,-135.309998,-97.300003,-18.969999,1729428888533.0,0.0
-19.518253,-0.251246,-21.257835,-126.840004,9.1,-45.009998,1729428888554.0,0.0
-2.744568,-1.56012,-14.718252,-6.93,83.300003,-2.59,1729428888574.0,0.0
-6.017949,-5.316852,-12.138789,-43.82,140.770004,16.799999,1729428888595.0,0.0
-1.825724,-2.979064,-4.65404,-18.549999,138.740005,21.700001,1729428888614.0,0.0
1.4668,-5.577669,5.565705,-15.75,117.879997,23.1,1729428888635.0,0.0
4.82393,-5.716454,13.646267,77.489998,26.460001,37.52,1729428888654.0,0.0
0.4666,-10.442278,0.586242,85.400002,-61.459999,18.549999,1729428888674.0,0.0
-3.225525,-7.357929,-0.612563,46.689999,-111.160004,-16.309999,1729428888695.0,0.0
0.399601,-4.735396,-3.95055,59.709999,-165.059998,4.2,1729428888714.0,0.0
-5.60399,-4.61097,-11.91147,-112.980003,-157.639999,-7.28,1729428888734.0,0.0
-15.388243,-12.693924,-11.143374,-234.5,-130.339996,-12.04,1729428888754.0,0.0
-19.415363,-7.822137,-29.211576,-168.839996,-42.209999,-20.790001,1729428888774.0,0.0
-10.066606,-4.290331,-17.623138,24.290001,82.599998,13.93,1729428888796.0,0.0
-3.024528,4.907679,-13.016955,37.380001,125.160004,3.99,1729428888814.0,0.0
-5.802595,-6.4678,-12.983455,-95.410004,138.320007,-5.32,1729428888834.0,0.0
-2.266003,-2.591427,-6.905686,-12.39,139.580002,-2.87,1729428888854.0,0.0
-2.581856,-3.306881,3.34038,9.03,145.110001,-1.47,1729428888875.0,0.0
0.413958,-6.558727,3.491128,-24.290001,70.279999,0.56,1729428888896.0,0.0
1.931008,-6.02752,1.708475,-37.73,3.22,-18.549999,1729428888914.0,0.0
-2.37368,-7.343572,-5.474778,-56.77,-72.800003,-32.27,1729428888934.0,0.0
-3.335595,-5.972485,-11.057234,-123.830002,-76.370003,-54.18,1729428888954.0,0.0
-2.914458,-4.481757,-11.009377,-199.710007,-68.739998,-52.080002,1729428888977.0,0.0
-5.362316,-6.149554,-7.673782,-215.389999,-61.459999,-36.470001,1729428888996.0,0.0
-5.979663,-5.903094,-9.827322,-143.850006,-60.970001,-43.610001,1729428889014.0,0.0
-4.517649,-2.002793,-11.68176,-27.93,-44.59,-38.57,1729428889034.0,0.0
-3.912265,-3.132205,-12.270394,-28.280001,-26.110001,-22.610001,1729428889054.0,0.0
-5.242674,-7.724032,-11.241481,-5.74,-1.12,-17.08,1729428889074.0,0.0
-4.855037,-2.24686,-6.723832,15.05,-0.49,-41.09,1729428889095.0,0.0
-4.615755,-1.493121,-6.455836,26.18,-12.46,-30.59,1729428889114.0,0.0
-3.503092,-2.505285,-8.513663,17.5,-21.559999,-29.75,1729428889135.0,0.0
-2.916851,-2.672783,-10.688738,13.79,-21.84,-34.509998,1729428889154.0,0.0
-3.462414,-4.074977,-8.819944,23.870001,-13.79,-33.529999,1729428889174.0,0.0
-4.113262,-4.740182,-7.965706,103.599998,-14.63,-28.139999,1729428889195.0,0.0
-4.524827,-3.041277,-8.896514,187.180008,-14.63,-13.23,1729428889214.0,0.0
-5.905487,-3.766303,-11.167303,113.330002,0.56,-9.94,1729428889241.0,0.0
-5.008178,-4.352544,-9.257831,18.41,22.610001,1.19,1729428889254.0,0.0
-4.302295,-4.252046,-6.391229,8.33,37.869999,2.94,1729428889275.0,0.0
-4.175476,-3.041277,-7.709675,-36.889999,34.580002,-1.61,1729428889296.0,0.0
-3.460021,-3.54377,-9.889536,-117.18,37.799999,0.91,1729428889314.0,0.0
-3.538985,-3.644269,-10.272388,-124.879997,53.200001,7.7,1729428889334.0,0.0
-3.902694,-3.239882,-8.563912,-75.669998,65.870003,20.16,1729428889354.0,0.0
-3.050849,-3.668197,-6.932007,-28.49,61.459999,25.83,1729428889375.0,0.0
-2.416751,-4.110869,-5.572884,-23.66,51.869999,14.63,1729428889395.0,0.0
-1.086342,-5.757132,-4.902894,-48.509998,33.25,14.63,1729428889450.0,0.0
-0.040678,-5.149354,-6.778866,-49.77,12.53,-12.88,1729428889457.0,0.0
0.119641,-5.029713,-8.106883,-39.759998,-2.45,-15.54,1729428889457.0,0.0
-1.454836,-6.262017,-8.338986,-20.09,-12.32,-17.710001,1729428889475.0,0.0
-2.409572,-4.09412,-8.84148,-20.09,-18.549999,-24.639999,1729428889497.0,0.0
-1.971686,-4.261617,-9.994821,-39.48,-21.91,-23.1,1729428889517.0,0.0
-2.691926,-3.37388,-10.607382,-36.75,-19.32,-24.43,1729428889535.0,0.0
-3.419343,-3.584448,-9.327222,-34.299999,-10.64,-23.66,1729428889555.0,0.0
-4.328616,-2.749353,-8.65484,-14.63,-5.39,-21.139999,1729428889575.0,0.0
-4.15394,-1.706082,-9.521042,6.02,-4.62,-15.68,1729428889598.0,0.0
-4.151547,-1.057628,-10.399208,4.76,2.31,-9.03,1729428889616.0,0.0
-4.666004,-0.038285,-11.947363,2.73,12.88,4.76,1729428889636.0,0.0
-4.26401,1.710868,-13.261024,34.02,29.540001,29.26,1729428889656.0,0.0
-2.07697,-0.363709,-10.628918,40.459999,49.420002,46.970001,1729428889676.0,0.0
-2.988636,-2.199004,-10.899307,35.07,59.920002,49.98,1729428889697.0,0.0
-4.149154,-6.12084,-7.62114,78.75,67.269997,52.43,1729428889716.0,0.0
-3.412165,-1.674976,-7.68096,104.300003,64.959999,31.43,1729428889735.0,0.0
-2.892922,-2.041078,-5.190032,19.040001,57.959999,35.84,1729428889755.0,0.0
0.275175,-5.572884,-7.645068,-42.84,30.380001,25.549999,1729428889776.0,0.0
-0.736989,-5.541777,-9.583255,-11.41,21.0,23.1,1729428889797.0,0.0
0.39003,-6.750153,-6.848258,24.360001,17.710001,17.85,1729428889816.0,0.0
1.459622,-10.102496,-6.798009,12.18,-0.77,-2.73,1729428889836.0,0.0
-4.065405,-4.12044,-10.243673,-17.360001,-22.469999,-55.720001,1729428889855.0,0.0
-2.203789,-4.091727,-11.562119,-22.960001,-16.799999,-42.0,1729428889876.0,0.0
-1.887937,-4.953143,-10.983055,-47.599998,-4.76,-46.759998,1729428889897.0,0.0
-1.607977,-1.696511,-9.332008,-48.860001,-0.21,-51.170002,1729428889916.0,0.0
-1.282553,-2.07697,-8.327023,-75.040001,-1.68,-47.599998,1729428889936.0,0.0
-3.270989,-2.409572,-6.774081,-39.970001,-4.62,-37.170002,1729428889961.0,0.0
-2.725425,-3.838088,-7.9681,20.58,-9.24,-22.4,1729428889982.0,0.0
-1.801795,-1.993221,-8.255238,14.42,-16.73,-32.130001,1729428889997.0,0.0
-3.440879,-1.959722,-8.580662,-18.83,-19.389999,-30.24,1729428890016.0,0.0
-2.615355,-2.129612,-9.676575,-29.540001,-23.870001,-26.6,1729428890035.0,0.0
-3.52702,-1.694118,-9.896714,-3.01,-20.719999,-16.52,1729428890055.0,0.0
-3.510271,0.18664,-13.282558,28.210001,-15.12,5.74,1729428890076.0,0.0
-4.694718,1.18684,-14.378471,42.0,10.57,32.41,1729428890098.0,0.0
-3.268596,-3.081956,-8.965906,50.540001,34.93,57.68,1729428890116.0,0.0
-3.026921,-3.589234,-11.497513,54.32,33.389999,56.490002,1729428890136.0,0.0
-3.081956,-0.746561,-10.875379,53.900002,47.740002,44.869999,1729428890156.0,0.0
-2.201397,-5.572884,-3.019742,52.220001,57.400002,63.139999,1729428890176.0,0.0
0.488136,-3.634698,-5.749953,-22.4,33.110001,42.490002,1729428890197.0,0.0
0.20339,-6.506085,-6.982256,-45.080002,15.96,31.92,1729428890216.0,0.0
2.457429,-7.829315,-5.266603,9.59,-5.6,16.66,1729428890235.0,0.0
-0.354138,-6.862615,-7.302894,38.920002,-23.940001,-12.18,1729428890256.0,0.0
-3.567699,-4.481757,-9.439686,-7.07,-27.65,-40.25,1729428890276.0,0.0
-2.129612,-4.723432,-10.794022,-52.290001,-26.880001,-37.869999,1729428890296.0,0.0
-2.691926,-4.673182,-10.30828,-57.889999,-17.5,-39.34,1729428890316.0,0.0
-1.775474,-3.376273,-9.836893,-33.389999,-18.129999,-36.610001,1729428890337.0,0.0
-1.998007,-3.268596,-10.813165,-24.710001,-16.73,-40.25,1729428890355.0,0.0
-3.479164,-2.864209,-8.348558,2.66,-10.85,-34.580002,1729428890376.0,0.0
-2.89053,-2.861816,-8.001599,11.9,-13.93,-30.66,1729428890396.0,0.0
-3.61077,-1.048056,-8.925228,8.75,-17.639999,-25.969999,1729428890416.0,0.0
-3.314059,-0.952343,-10.514063,-7.7,-14.91,-14.91,1729428890436.0,0.0
-3.555735,1.215554,-13.533805,7.42,-3.92,10.57,1729428890455.0,0.0
-3.462414,1.473979,-13.52902,44.170002,20.09,47.389999,1729428890476.0,0.0
-2.732604,-3.019742,-6.809973,36.400002,35.560001,63.91,1729428890497.0,0.0
-1.883151,-3.881158,-9.509077,17.99,22.82,52.080002,1729428890515.0,0.0
-2.239682,-4.419543,-10.523634,61.740002,27.02,41.369999,1729428890536.0,0.0
-1.617548,-4.307081,-9.260223,93.590004,36.68,51.66,1729428890555.0,0.0
-1.361516,-3.091527,-6.67119,100.449997,35.700001,57.470001,1729428890576.0,0.0
-1.146162,-3.718446,-6.206983,48.580002,20.440001,46.549999,1729428890598.0,0.0
-2.050649,-3.567699,-8.054241,17.15,10.78,38.150002,1729428890616.0,0.0
-0.995414,-5.075177,-7.60439,11.76,9.87,36.610001,1729428890635.0,0.0
0.777667,-7.79103,-4.972286,-1.12,0.49,20.790001,1729428890655.0,0.0
-0.739382,-6.446264,-9.162118,-35.420002,-20.23,-17.08,1729428890676.0,0.0
-4.426722,-4.371687,-9.856036,-64.120003,-11.83,-41.02,1729428890698.0,0.0
-2.557927,-7.597212,-9.360723,-72.169998,-16.799999,-41.09,1729428890715.0,0.0
-3.517449,-3.661019,-8.736196,-47.18,-15.61,-49.420002,1729428890735.0,0.0
-1.572084,-3.814159,-9.74836,-41.439999,-20.65,-45.290001,1729428890755.0,0.0
-3.84048,-4.398008,-8.647661,-27.51,-14.07,-43.540001,1729428890775.0,0.0
-2.938386,-4.551149,-7.104291,5.25,-16.799999,-37.73,1729428890797.0,0.0
-4.429115,-2.761317,-8.650054,7.42,-22.26,-34.439999,1729428890815.0,0.0
-3.175276,-1.442872,-10.037891,-10.5,-17.219999,-23.24,1729428890837.0,0.0
-3.026921,-0.325424,-10.061819,-9.17,-5.04,12.81,1729428890855.0,0.0
-1.234696,-1.31366,-9.052048,-14.7,0.35,20.860001,1729428890875.0,0.0
-0.512064,-2.912065,-11.10509,-31.15,-6.65,23.1,1729428890896.0,0.0
-2.007578,-4.948357,-10.15514,-33.599998,5.25,9.03,1729428890915.0,0.0
-3.538985,-4.498507,-9.561719,31.57,16.52,17.290001,1729428890935.0,0.0
-2.691926,-4.845466,-7.456036,55.720001,25.34,30.030001,1729428890956.0,0.0
-1.875973,-5.371887,-8.334201,15.75,20.58,25.059999,1729428890978.0,0.0
-2.943172,-5.225924,-8.126025,21.84,16.030001,23.24,1729428890996.0,0.0
-1.026521,-5.56092,-6.647261,54.110001,7.28,17.780001,1729428891015.0,0.0
1.237089,-7.331609,-5.986843,47.670002,-8.89,2.52,1729428891035.0,0.0
-2.744568,-4.82393,-10.119246,0.56,-19.040001,-22.889999,1729428891055.0,0.0
-2.086541,-4.376472,-11.679367,-14.56,-12.18,-28.07,1729428891075.0,0.0
-2.744568,-4.62054,-9.140583,-37.450001,-3.43,-40.459999,1729428891101.0,0.0
-2.70389,-4.721039,-7.506285,-21.98,-8.47,-38.990002,1729428891115.0,0.0
-3.105884,-3.323631,-8.353344,-15.75,-17.08,-47.25,1729428891137.0,0.0
-2.969493,-3.517449,-6.888937,10.78,-19.389999,-43.119999,1729428891155.0,0.0
-2.794817,-2.462214,-8.726624,13.58,-26.32,-42.07,1729428891175.0,0.0
-3.900301,-0.930808,-12.222539,-12.74,-17.290001,-17.639999,1729428891196.0,0.0
-6.305088,0.665205,-12.892529,-2.59,10.5,15.05,1729428891215.0,0.0
-1.294517,-5.20439,-6.802795,24.99,27.09,40.670002,1729428891235.0,0.0
0.179462,-5.376673,-7.381857,-14.35,13.86,14.35,1729428891254.0,0.0
-0.526421,-1.947758,-9.789038,-17.43,2.31,-12.53,1729428891283.0,0.0
-4.536791,-3.302095,-12.504892,6.86,19.25,7.63,1729428891298.0,0.0
-3.062813,-5.699703,-7.281359,68.110001,40.950001,34.720001,1729428891316.0,0.0
-1.452443,-5.003392,-5.996413,11.34,31.290001,18.76,1729428891336.0,0.0
-0.251246,-6.039484,-7.144968,-34.93,12.18,2.24,1729428891355.0,0.0
1.122234,-6.374479,-6.099305,16.309999,0.21,-3.78,1729428891376.0,0.0
-0.124427,-6.819544,-5.879165,58.310001,-17.290001,-7.63,1729428891398.0,0.0
-4.34058,-6.202196,-8.901299,31.08,-24.99,-16.1,1729428891417.0,0.0
-2.038685,-5.206782,-9.844072,13.02,-27.02,-23.17,1729428891437.0,0.0
-4.132405,-4.07737,-10.164711,6.93,-24.219999,-25.27,1729428891456.0,0.0
-1.825724,-2.730211,-8.973085,13.16,-21.700001,-20.299999,1729428891476.0,0.0
-1.945365,-3.125026,-9.348758,-2.1,-19.6,-20.790001,1729428891498.0,0.0
-0.937986,-3.041277,-8.985049,1.05,-15.190001,-22.540001,1729428891516.0,0.0
-3.452843,-2.285146,-7.936993,5.11,-13.65,-20.65,1729428891536.0,0.0
-4.024727,-3.273381,-10.423136,-8.82,-13.58,-10.29,1729428891556.0,0.0
-4.867002,-3.053242,-14.184652,-5.18,0.42,-0.07,1729428891579.0,0.0
-3.259024,-2.900101,-8.752945,17.43,31.639999,13.65,1729428891598.0,0.0
-2.175076,-6.943972,-7.63789,-20.58,30.309999,17.01,1729428891618.0,0.0
-4.749753,-3.081956,-11.468799,-14.77,24.99,7.49,1729428891637.0,0.0
-2.538785,-4.321437,-8.030313,-3.99,43.82,21.629999,1729428891656.0,0.0
-2.09372,-6.381658,-5.915058,-2.59,43.400002,23.870001,1729428891677.0,0.0
-0.837488,-7.037291,-7.549356,-37.029999,29.120001,-0.98,1729428891698.0,0.0
-0.239282,-5.62074,-6.843473,-40.529999,19.809999,-19.6,1729428891718.0,0.0
2.773281,-5.362316,-3.261417,-5.18,3.08,-17.57,1729428891737.0,0.0
-5.082355,-6.369694,-8.810372,5.95,-29.540001,-17.57,1729428891761.0,0.0
-2.021935,-6.178268,-9.975677,-35.209999,-28.07,-25.41,1729428891781.0,0.0
-3.850052,-4.919643,-9.657433,-24.639999,-23.940001,-30.799999,1729428891801.0,0.0
-2.794817,-1.225125,-10.162319,-1.75,-22.33,-22.469999,1729428891818.0,0.0
-0.598206,-3.393023,-10.533205,-36.119999,-20.16,-16.309999,1729428891837.0,0.0
-1.878366,-3.232704,-11.227123,-33.25,-12.32,-14.91,1729428891860.0,0.0
-1.057628,-3.017349,-10.774881,-15.33,-1.89,-15.68,1729428891880.0,0.0
-3.223132,-2.321038,-8.922836,-28.280001,4.2,-10.5,1729428891901.0,0.0
-3.586841,-2.600998,-11.270195,-49.560001,8.89,-0.77,1729428891918.0,0.0
-4.278367,0.744168,-11.88515,-19.110001,27.02,11.13,1729428891940.0,0.0
-2.500499,-0.239282,-8.394022,-12.81,37.310001,32.759998,1729428891960.0,0.0
-2.07697,-4.584648,-7.786245,-17.57,27.58,40.670002,1729428891982.0,0.0
-1.359123,-4.838287,-6.63769,-4.83,20.93,20.719999,1729428892004.0,0.0
-2.861816,-2.512464,-11.85165,-9.17,20.16,-6.09,1729428892018.0,0.0
-2.471786,-1.643869,-11.789437,48.299999,31.01,7.28,1729428892037.0,0.0
-1.641476,-1.789831,-7.618747,80.010002,35.700001,27.299999,1729428892059.0,0.0
-1.555335,-4.371687,-8.676375,10.99,22.82,26.040001,1729428892079.0,0.0
0.480957,-6.051448,-5.589634,25.83,16.59,15.47,1729428892099.0,0.0
2.557927,-9.119047,-4.795217,76.300003,-12.81,2.66,1729428892118.0,0.0
-2.275574,-5.084748,-7.661818,58.73,-30.799999,-27.93,1729428892137.0,0.0
-4.555934,-4.955536,-9.54497,3.29,-34.439999,-30.1,1729428892158.0,0.0
-2.404787,-5.991628,-10.547562,-28.559999,-30.309999,-33.950001,1729428892180.0,0.0
-3.481557,-2.505285,-10.602598,-11.97,-20.02,-31.43,1729428892198.0,0.0
0.122034,-3.160919,-9.332008,-5.11,-19.530001,-22.540001,1729428892218.0,0.0
-0.244068,-3.15374,-9.049655,-19.040001,-18.969999,-22.33,1729428892239.0,0.0
0.40678,-4.067799,-8.829515,-9.1,-17.57,-18.129999,1729428892258.0,0.0
-1.866402,-4.591826,-6.999006,-0.14,-16.870001,-18.41,1729428892280.0,0.0
-3.694518,-4.194618,-9.410972,17.99,-22.049999,-8.4,1729428892299.0,0.0
-4.146761,-4.125226,-10.925629,20.790001,-9.52,-2.17,1729428892318.0,0.0
-5.62074,-3.847659,-12.045469,26.040001,8.4,5.67,1729428892337.0,0.0
-0.413958,-3.115455,-10.064213,24.85,20.16,14.84,1729428892359.0,0.0
-1.572084,-4.768896,-11.947363,-31.780001,28.91,11.55,1729428892377.0,0.0
-4.254438,-3.510271,-13.019348,-21.42,54.880001,13.440001,1729428892398.0,0.0
-2.993421,-5.54417,-5.118248,71.82,81.760002,37.939999,1729428892420.0,0.0
-1.555335,-4.567898,-7.176075,33.950001,68.529999,19.18,1729428892438.0,0.0
0.583849,-5.290531,-9.267403,-1.54,57.260002,7.91,1729428892458.0,0.0
2.713461,-5.680561,-4.479364,50.189999,50.610001,7.56,1729428892478.0,0.0
1.251446,-5.936593,-2.342573,63.0,26.389999,3.43,1729428892500.0,0.0
0.820738,-6.723832,-3.739982,5.74,-9.59,-13.72,1729428892516.0,0.0
-2.096112,-6.881758,-8.006385,-55.02,-32.759998,-30.940001,1729428892538.0,0.0
-3.014957,-4.275974,-9.801002,-44.73,-32.689999,-30.380001,1729428892557.0,0.0
-2.347359,-4.673182,-9.432507,-46.900002,-26.67,-21.629999,1729428892578.0,0.0
-0.863809,-5.010571,-9.209974,-44.099998,-23.73,-18.41,1729428892600.0,0.0
-1.095913,-4.407579,-8.472985,-26.32,-22.540001,-18.34,1729428892620.0,0.0
-1.253839,-3.976871,-8.068598,-25.549999,-24.15,-20.719999,1729428892637.0,0.0
-1.512264,-4.168297,-8.437093,-32.759998,-26.32,-21.77,1729428892657.0,0.0
-1.234696,-3.78066,-9.968499,-23.870001,-27.16,-19.74,1729428892678.0,0.0
-1.462015,-2.514857,-12.547962,-8.47,-20.790001,-17.360001,1729428892699.0,0.0
-2.639283,-2.40718,-12.093326,5.18,-7.91,-8.96,1729428892720.0,0.0
-4.23051,-2.991028,-15.955342,11.06,11.27,2.31,1729428892738.0,0.0
-2.045863,-3.732803,-7.475177,50.75,46.619999,19.809999,1729428892757.0,0.0
-2.443072,-6.123233,-4.9675,52.360001,42.98,26.67,1729428892779.0,0.0
-3.254239,-3.981657,-6.721439,80.150002,34.23,19.32,1729428892798.0,0.0
-1.067199,-4.922036,-8.606983,0.21,26.460001,17.08,1729428892820.0,0.0
-1.098306,-4.520042,-10.585848,-15.4,25.41,15.89,1729428892837.0,0.0
-0.002393,-4.718646,-8.561519,17.710001,27.02,17.99,1729428892856.0,0.0
1.643869,-5.663811,-3.905087,30.52,16.66,13.09,1729428892877.0,0.0
3.35713,-4.381258,-1.512264,45.920002,-14.77,4.2,1729428892900.0,0.0
-1.665405,-7.84128,-6.754939,-4.06,-41.02,-7.91,1729428892917.0,0.0
-2.404787,-6.372087,-9.016156,-53.060001,-52.009998,-23.66,1729428892937.0,0.0
-2.715853,-5.718846,-10.109675,-64.260002,-50.540001,-28.559999,1729428892957.0,0.0
-0.586242,-5.048856,-9.312866,-38.150002,-47.529999,-23.450001,1729428892982.0,0.0
-1.433301,-4.383651,-9.028119,-18.549999,-46.48,-22.190001,1729428892998.0,0.0
-1.469193,-4.194618,-9.463614,-8.4,-43.889999,-19.950001,1729428893017.0,0.0
-2.400001,-4.651647,-9.600004,-16.73,-34.580002,-20.65,1729428893037.0,0.0
-4.333402,-4.742575,-8.657232,-0.14,-25.200001,-17.08,1729428893057.0,0.0
-2.974278,-3.067599,-10.865808,14.91,-19.879999,-12.11,1729428893078.0,0.0
-2.457429,-1.938186,-12.466606,14.42,-7.63,-8.33,1729428893102.0,0.0
-2.734996,-1.031307,-16.25205,-9.24,22.190001,-0.14,1729428893117.0,0.0
-1.349552,-0.775275,-14.723038,23.870001,60.549999,25.059999,1729428893137.0,0.0
-4.06062,-3.136991,-12.337393,66.639999,105.699997,53.619999,1729428893156.0,0.0
-3.570091,-4.469792,-9.336794,59.220001,115.010002,51.52,1729428893179.0,0.0
-1.397408,-6.357729,-1.969293,10.57,93.379997,24.360001,1729428893198.0,0.0
0.555135,-6.075377,-7.310073,21.0,61.389999,12.46,1729428893218.0,0.0
-0.358923,-5.948557,-10.212566,74.690002,55.02,15.33,1729428893236.0,0.0
1.734797,-7.243074,-3.491128,189.979996,48.369999,30.66,1729428893257.0,0.0
1.990828,-5.836094,0.227318,274.329987,24.08,37.240002,1729428893278.0,0.0
1.292124,-6.525227,-1.368695,253.470001,-9.45,42.84,1729428893297.0,0.0
-0.461815,-8.506484,-4.567898,268.23999,-36.470001,53.34,1729428893324.0,0.0
-2.237289,-8.458629,-7.298109,368.410004,-52.080002,63.91,1729428893337.0,0.0
-3.634698,-7.757531,-6.513263,555.380005,-57.470001,89.32,1729428893357.0,0.0
-6.565905,-8.52802,-1.646262,687.539978,-28.98,98.910004,1729428893380.0,0.0
-5.307281,-10.535598,-2.120041,720.159973,-23.799999,61.110001,1729428893399.0,0.0
-0.507278,-9.028119,7.487142,772.169983,25.200001,31.5,1729428893417.0,0.0
-2.514857,-9.135797,7.613962,650.299988,98.139999,-13.65,1729428893494.0,0.0
-0.679562,-7.125826,6.817152,491.679993,108.639999,-26.950001,1729428893494.0,0.0
-2.230111,-4.292724,8.516055,339.149994,106.190002,-48.299999,1729428893531.0,0.0
-3.661019,-4.26401,9.784252,173.880005,63.77,-35.139999,1729428893532.0,0.0
-2.935993,-3.787838,10.554741,93.519997,33.599998,-28.42,1729428893533.0,0.0
-2.699104,-3.35713,10.222138,66.360001,12.74,-20.23,1729428893537.0,0.0
-2.78046,-3.23031,10.353743,45.080002,-4.34,-7.49,1729428893558.0,0.0
-3.213561,-3.859623,8.609376,34.23,-10.99,2.03,1729428893580.0,0.0
-2.455036,-3.878766,6.707082,31.710001,-7.42,-2.8,1729428893600.0,0.0
-3.634698,-3.649055,6.726225,50.889999,5.88,-4.2,1729428893619.0,0.0
-4.051049,-2.909672,7.391429,52.57,17.08,-6.51,1729428893639.0,0.0
-4.206582,-3.251846,7.532606,32.130001,17.710001,-5.39,1729428893659.0,0.0
-3.957729,-3.893122,7.523034,23.450001,18.200001,-4.06,1729428893680.0,0.0
-3.893122,-4.728218,7.685746,31.08,19.040001,-3.85,1729428893700.0,0.0
-4.273581,-4.505685,8.245667,32.970001,18.620001,-9.66,1729428893720.0,0.0
-3.998406,-3.37388,8.147561,22.540001,11.76,-14.35,1729428893738.0,0.0
-3.225525,-3.768696,7.45125,6.79,5.67,-12.04,1729428893760.0,0.0
-3.316452,-3.129812,8.365308,13.16,9.73,-10.36,1729428893781.0,0.0
-3.574877,-3.086741,8.41795,7.77,7.21,-8.89,1729428893800.0,0.0
-3.835695,-2.376073,7.740781,-7.07,7.7,-6.23,1729428893819.0,0.0
-4.448257,-3.141776,7.109076,-22.960001,5.46,-0.84,1729428893839.0,0.0
-4.642076,-3.326023,7.910671,-10.64,10.78,6.51,1729428893861.0,0.0
-4.613362,-2.68714,9.047262,4.48,11.83,0.91,1729428893880.0,0.0
-4.096512,-3.586841,8.932407,1.75,7.42,-1.47,1729428893901.0,0.0
-3.759124,-3.847659,8.539984,2.24,6.23,-6.3,1729428893920.0,0.0
-3.792624,-3.28056,8.575876,14.35,7.7,-9.52,1729428893940.0,0.0
-3.952943,-2.038685,8.642875,23.940001,6.65,-12.88,1729428893959.0,0.0
-3.785445,-2.756532,8.202596,3.85,2.66,-12.46,1729428893983.0,0.0
-4.21376,-5.228317,7.037291,-18.48,2.24,-8.89,1729428894001.0,0.0
-5.644669,-7.290931,7.360322,-5.04,8.96,-9.66,1729428894022.0,0.0
-4.237689,-6.709475,7.9681,5.39,7.0,-19.530001,1729428894043.0,0.0
-3.665804,-6.608976,9.509077,14.98,0.49,-38.779999,1729428894060.0,0.0
-2.120041,-7.345965,8.458629,1.19,1.12,-50.330002,1729428894080.0,0.0
-0.90688,5.460421,9.236296,-0.63,24.43,-42.139999,1729428894102.0,0.0
1.112662,9.975677,3.294917,-88.690002,10.43,13.93,1729428894120.0,0.0
-6.936793,-4.237689,2.656033,-123.059998,-13.02,59.57,1729428894141.0,0.0
-4.795217,-2.533999,6.85783,2.31,46.619999,65.870003,1729428894184.0,0.0
-6.104091,-3.589234,11.485549,25.48,49.349998,51.52,1729428894222.0,0.0
-5.69731,-4.065405,13.268202,-9.45,33.810001,55.369999,1729428894224.0,0.0
-4.553542,-3.235096,10.621738,-32.48,13.93,49.84,1729428894226.0,0.0
-5.099105,-3.227918,7.618747,-40.25,2.94,54.32,1729428894328.0,0.0
-6.45105,-4.074977,7.501499,-22.33,1.96,47.459999,1729428894329.0,0.0
-6.616155,-5.379066,7.862815,-5.04,-2.31,33.040001,1729428894330.0,0.0
-6.087341,-6.84108,7.965706,8.4,-6.16,12.95,1729428894332.0,0.0
-5.079963,-7.345965,7.692925,24.15,-5.6,-10.29,1729428894334.0,0.0
-3.799802,-5.74756,8.561519,30.799999,-5.6,-26.67,1729428894338.0,0.0
-3.749553,-5.022535,7.484749,15.47,-12.81,-39.34,1729428894358.0,0.0
-3.242275,-3.579663,6.474977,7.07,-14.49,-41.02,1729428894379.0,0.0
-5.412565,-7.948956,7.006185,7.84,-20.16,-51.240002,1729428894399.0,0.0
-4.910072,-5.06082,7.04447,34.369999,-10.85,-61.459999,1729428894418.0,0.0
-2.754139,-4.922036,6.79083,13.16,-10.01,-68.32,1729428894438.0,0.0
-5.79063,0.526421,3.61077,-32.830002,0.21,-25.34,1729428894458.0,0.0
3.282953,9.875179,4.457829,-86.800003,28.77,-12.95,1729428894478.0,0.0
-10.978271,-4.244867,5.551349,-70.699997,8.82,55.790001,1729428894498.0,0.0
-6.733403,-3.931407,8.334201,-24.92,27.790001,41.23,1729428894518.0,0.0
-6.513263,-2.981457,11.150554,25.129999,26.32,34.439999,1729428894538.0,0.0
-5.257031,-5.352744,11.641083,-17.15,7.77,23.799999,1729428894558.0,0.0
-2.883351,-3.440879,10.439885,-24.57,-1.75,21.77,1729428894583.0,0.0
-3.625126,-0.815953,8.403593,-22.469999,-4.34,28.98,1729428894601.0,0.0
-4.386044,-4.098906,6.553941,-54.950001,-12.67,39.41,1729428894619.0,0.0
-5.233103,-7.082755,6.396015,-15.4,-7.98,33.459999,1729428894639.0,0.0
-6.482157,-5.178068,7.944171,42.07,5.39,17.780001,1729428894658.0,0.0
-5.103891,-6.9344,7.929814,25.48,0.14,0.91,1729428894679.0,0.0
-4.989035,-8.327023,7.609176,22.190001,-5.88,-19.389999,1729428894701.0,0.0
-4.031906,-7.077969,8.60459,46.549999,-6.3,-39.48,1729428894719.0,0.0
-4.570292,-6.726225,9.142976,35.420002,-14.98,-54.810001,1729428894738.0,0.0
-5.651847,-10.504492,8.520842,-11.48,-30.309999,-66.150002,1729428894759.0,0.0
-2.981457,-8.705089,7.15454,-18.059999,-30.24,-90.160004,1729428894779.0,0.0
-1.421337,-2.009971,4.84068,-18.059999,-18.27,-99.610001,1729428894799.0,0.0
-6.465407,6.551548,2.270789,-7.49,-8.33,12.39,1729428894819.0,0.0
4.749753,8.051848,3.091527,-76.580002,20.65,-15.82,1729428894838.0,0.0
-8.707481,-3.785445,6.843473,-46.689999,21.91,41.509998,1729428894858.0,0.0
-6.238089,-4.926822,9.116654,-33.040001,20.790001,33.810001,1729428894879.0,0.0
-5.496314,-3.742374,10.688738,-6.44,18.549999,34.369999,1729428894904.0,0.0
-4.393222,-5.479564,9.513863,-35.0,2.45,30.309999,1729428894921.0,0.0
-2.62732,-3.5007,9.166903,-22.610001,1.12,27.860001,1729428894940.0,0.0
-3.962514,-0.691526,8.073383,-7.7,0.56,36.049999,1729428894959.0,0.0
-4.957928,-4.261617,6.178268,-46.060001,-8.05,44.939999,1729428894981.0,0.0
-5.197211,-5.678168,6.206983,-20.09,-2.1,36.610001,1729428894999.0,0.0
-6.168696,-4.63729,7.415358,25.48,10.08,28.98,1729428895019.0,0.0
-5.821737,-6.912865,7.41775,-6.51,2.52,13.23,1729428895039.0,0.0
-5.335995,-8.38445,6.709475,-3.36,3.22,-1.47,1729428895060.0,0.0
-4.82393,-7.568498,7.848458,18.34,7.14,-18.620001,1729428895081.0,0.0
-4.326223,-5.075177,8.283953,16.1,7.0,-29.540001,1729428895106.0,0.0
-3.448057,-7.721639,7.49432,-24.639999,-6.79,-35.84,1729428895120.0,0.0
-3.809374,-5.869594,7.269395,-20.02,-2.8,-45.57,1729428895138.0,0.0
-4.402793,-9.08794,7.45125,-27.370001,-12.67,-62.650002,1729428895159.0,0.0
-3.65384,-3.902694,7.226324,-0.77,-5.88,-67.760002,1729428895179.0,0.0
4.658825,0.284746,6.946364,-16.799999,-13.79,-72.730003,1729428895199.0,0.0
-0.449851,3.931407,4.61097,-35.560001,2.45,16.799999,1729428895219.0,0.0
0.662812,1.545763,5.35753,-104.230003,20.16,20.16,1729428895239.0,0.0
-7.958528,-4.524827,7.688138,-61.880001,11.69,41.790001,1729428895263.0,0.0
-7.60439,-5.496314,9.554541,-4.55,17.57,42.700001,1729428895280.0,0.0
-5.98445,-5.682954,10.978271,9.66,13.86,26.809999,1729428895299.0,0.0
-4.407579,-6.79083,8.908479,-19.25,2.31,18.059999,1729428895319.0,0.0
-3.68734,-3.481557,7.779066,-2.24,5.04,19.040001,1729428895338.0,0.0
-5.003392,-5.314459,6.116055,-25.83,1.61,30.24,1729428895359.0,0.0
-5.649454,-7.740781,6.092126,-0.35,0.35,23.73,1729428895379.0,0.0
-6.070591,-6.699903,6.996613,33.110001,6.23,11.55,1729428895399.0,0.0
-5.52742,-7.022934,7.030113,11.97,2.87,0.63,1729428895420.0,0.0
-5.008178,-7.996813,6.458229,-9.87,0.14,-7.0,1729428895439.0,0.0
-4.591826,-8.752945,6.417551,-8.89,-2.45,-13.23,1729428895458.0,0.0
-4.445865,-8.547162,6.869793,13.72,-2.45,-18.969999,1729428895486.0,0.0
-5.245068,-6.465407,7.506285,23.870001,-2.87,-25.9,1729428895504.0,0.0
-4.735396,-4.151547,6.776474,-10.43,-17.639999,-31.01,1729428895521.0,0.0
-7.075576,-9.329616,5.955735,-38.709999,-31.780001,-18.27,1729428895539.0,0.0
-5.525027,-7.094719,5.178068,-5.53,-20.58,-33.810001,1729428895673.0,0.0
-6.005985,-3.826123,7.616355,16.870001,-13.58,-56.07,1729428895674.0,0.0
-9.24826,-1.155733,1.799403,-29.120001,-30.030001,-50.330002,1729428895766.0,0.0
2.055435,-0.70349,3.038885,-58.380001,-26.6,-0.28,1729428895768.0,0.0
-7.874779,-7.164111,6.721439,-56.77,2.17,-13.65,1729428895770.0,0.0
-6.321837,-5.881558,8.961121,-41.02,11.97,35.490002,1729428895772.0,0.0
-4.972286,-5.924629,10.057034,0.7,15.54,32.900002,1729428895772.0,0.0
-2.955136,-5.972485,8.128418,16.17,9.1,30.309999,1729428895773.0,0.0
-3.431308,-3.412165,7.384251,-21.700001,-0.42,24.99,1729428895773.0,0.0
-4.419543,-6.058627,5.173282,-21.07,2.31,34.09,1729428895773.0,0.0
-4.955536,-7.518249,6.096912,-41.299999,-4.83,41.439999,1729428895781.0,0.0
-5.419744,-5.84088,7.345965,-2.52,-0.14,36.68,1729428895799.0,0.0
-4.900501,-7.491928,7.034898,7.7,-1.82,16.24,1729428895852.0,0.0
-4.271189,-7.858029,6.530013,-1.96,-3.64,8.61,1729428895853.0,0.0
-4.706682,-6.874579,6.07777,3.92,-2.1,1.26,1729428895864.0,0.0
-4.76411,-7.908278,6.644868,-2.94,-7.77,-5.46,1729428895879.0,0.0
-4.0008,-6.592227,6.888937,-8.75,-10.15,-11.13,1729428895899.0,0.0
-3.65384,-6.240481,5.52742,-23.030001,-15.05,-8.05,1729428895919.0,0.0
-4.65404,-8.020741,5.343173,-26.460001,-15.12,-3.15,1729428895972.0,0.0
-7.271788,-9.949356,5.084748,-6.23,-7.49,-9.73,1729428895973.0,0.0
-5.304887,-9.284152,6.020342,10.92,-1.61,-38.990002,1729428895985.0,0.0
-4.089334,-7.984849,6.647261,11.13,1.82,-58.029999,1729428896000.0,0.0
-3.098706,-7.795816,5.960521,-3.36,0.56,-60.060001,1729428896021.0,0.0
4.342973,-0.114855,5.651847,-2.52,5.95,-57.959999,1729428896040.0,0.0
-11.361122,-1.756332,3.448057,-17.639999,-1.75,46.549999,1729428896060.0,0.0
-0.031107,-3.476771,5.912664,-65.379997,23.17,2.87,1729428896082.0,0.0
-7.63789,-5.034499,7.393822,-10.5,25.27,31.360001,1729428896102.0,0.0
-5.907879,-5.816952,9.056834,1.12,21.700001,35.77,1729428896120.0,0.0
-4.941179,-6.565905,9.10469,-0.56,18.200001,33.950001,1729428896141.0,0.0
-4.378866,-4.584648,8.427521,-8.96,17.219999,28.280001,1729428896160.0,0.0
-4.508078,-5.072784,7.161718,-19.809999,10.78,35.349998,1729428896181.0,0.0
-4.606184,-6.539584,6.082555,-9.73,7.42,33.459999,1729428896206.0,0.0
-5.300103,-6.092126,6.98465,23.309999,11.97,25.690001,1729428896220.0,0.0
-5.649454,-5.864808,7.276574,28.42,9.52,20.370001,1729428896241.0,0.0
-4.871787,-7.759924,6.537192,14.07,2.1,8.54,1729428896261.0,0.0
-4.733003,-7.06122,6.515656,28.07,1.54,0.49,1729428896282.0,0.0
-5.000999,-6.606583,6.78126,25.27,-3.08,-3.5,1729428896302.0,0.0
-4.721039,-6.26441,6.757331,10.36,-12.32,-4.06,1729428896322.0,0.0
-4.297509,-6.618547,6.477371,1.19,-20.58,-2.94,1729428896341.0,0.0
-4.342973,-7.022934,5.922236,3.78,-21.0,-4.06,1729428896360.0,0.0
-4.859823,-7.508677,6.139983,21.91,-14.63,-9.59,1729428896383.0,0.0
-5.929415,-8.195417,6.58744,35.560001,-8.33,-21.77,1729428896403.0,0.0
-5.319244,-8.69791,6.611369,32.130001,-11.41,-43.049999,1729428896422.0,0.0
-6.343372,-8.422735,6.977471,11.2,-6.16,-51.73,1729428896441.0,0.0
-2.85703,-9.128618,6.398407,-4.83,-16.309999,-66.639999,1729428896463.0,0.0
-4.378866,-6.762117,6.360123,48.16,-9.66,-66.080002,1729428896481.0,0.0
-0.631705,0.794417,7.168896,36.959999,-8.75,-62.580002,1729428896502.0,0.0
-4.376472,0.543171,1.926222,-34.790001,-26.6,17.780001,1729428896520.0,0.0
1.600798,-0.957129,4.443472,-76.160004,9.45,9.73,1729428896542.0,0.0
-6.281159,-6.369694,5.548956,-28.35,14.84,14.49,1729428896562.0,0.0
-5.879165,-3.254239,9.52822,44.029999,29.540001,28.98,1729428896581.0,0.0
-4.173083,-5.867201,8.575876,-9.45,3.36,30.309999,1729428896602.0,0.0
-2.897708,-5.915058,8.671589,-12.11,5.53,25.9,1729428896621.0,0.0
-3.60359,-3.998406,7.49432,-7.77,7.42,29.120001,1729428896640.0,0.0
-4.256832,-4.953143,5.536992,-28.77,1.05,32.689999,1729428896662.0,0.0
-4.790431,-5.659025,5.910272,-1.47,6.02,33.459999,1729428896682.0,0.0
-5.568098,-5.761917,6.829116,21.49,9.8,28.139999,1729428896702.0,0.0
-5.096712,-6.647261,6.920043,7.84,5.32,21.700001,1729428896721.0,0.0
-4.814359,-7.271788,6.819544,0.21,2.87,16.73,1729428896741.0,0.0
-4.790431,-6.833901,6.537192,0.07,1.82,13.02,1729428896761.0,0.0
-4.890929,-6.601797,6.491727,-7.91,-0.42,11.55,1729428896783.0,0.0
-4.867002,-8.078169,6.45105,-13.23,-4.62,6.65,1729428896805.0,0.0
-5.072784,-8.843873,6.419943,4.62,-2.8,-5.67,1729428896823.0,0.0
-6.391229,-7.874779,6.845865,24.639999,3.08,-21.98,1729428896843.0,0.0
-5.369494,-5.235496,6.317052,5.32,3.08,-41.299999,1729428896861.0,0.0
-6.405586,-10.145569,5.04407,-34.09,-16.450001,-50.400002,1729428896881.0,0.0
-3.570091,-5.876772,5.769095,19.18,2.1,-51.73,1729428896904.0,0.0
1.572084,7.956135,1.356731,20.790001,-3.22,-57.610001,1729428896922.0,0.0
2.057827,-0.830309,5.745167,-26.809999,15.4,-15.12,1729428896940.0,0.0
-5.56092,-6.520442,6.166305,-42.209999,41.860001,9.17,1729428896960.0,0.0
-6.092126,-3.345166,9.212367,-1.19,26.67,18.41,1729428896984.0,0.0
-5.4676,-5.460421,9.327222,1.33,10.78,30.940001,1729428897003.0,0.0
-3.948158,-6.412765,8.707481,-12.39,5.53,26.74,1729428897021.0,0.0
-3.799802,-5.034499,8.274381,-3.64,6.44,20.02,1729428897040.0,0.0
-4.130012,-4.441079,7.030113,-9.66,4.62,20.65,1729428897060.0,0.0
-4.366901,-5.580062,6.171089,-11.06,2.52,22.26,1729428897081.0,0.0
-5.146961,-5.974878,6.611369,11.34,5.6,20.93,1729428897101.0,0.0
-5.510671,-5.891129,6.843473,22.889999,4.34,16.52,1729428897122.0,0.0
-5.635098,-6.312266,6.585048,14.98,-0.42,11.06,1729428897141.0,0.0
-5.340781,-6.649654,6.321837,9.38,-3.15,4.48,1729428897161.0,0.0
-5.314459,-6.850651,6.022735,11.34,-4.2,-0.63,1729428897181.0,0.0
-5.35753,-6.721439,6.539584,16.66,-3.85,-4.06,1729428897205.0,0.0
-5.343173,-6.929615,6.4678,16.59,-6.02,-9.45,1729428897221.0,0.0
-5.558527,-7.537392,6.843473,19.74,-7.7,-16.799999,1729428897240.0,0.0
-6.419943,-8.886944,7.716853,29.75,-10.08,-29.68,1729428897260.0,0.0
-5.352744,-4.632504,6.707082,29.610001,-9.03,-61.670002,1729428897282.0,0.0
-5.17089,-9.640682,4.756931,-23.52,-35.98,-79.870003,1729428897304.0,0.0
-4.606184,-4.61097,6.699903,53.060001,-4.41,-70.419998,1729428897321.0,0.0
-1.304088,-1.397408,6.716653,33.599998,-18.200001,-71.260002,1729428897340.0,0.0
-4.130012,2.794817,1.897508,-8.89,-17.01,-28.700001,1729428897360.0,0.0
2.172683,4.955536,2.63689,-40.599998,0.91,-24.710001,1729428897382.0,0.0
-5.381458,-5.63749,4.754539,-34.16,9.31,30.030001,1729428897403.0,0.0
-5.761917,-4.965107,6.920043,-13.58,12.25,22.120001,1729428897421.0,0.0
-5.20439,-4.855037,8.114061,9.8,14.63,35.209999,1729428897440.0,0.0
-4.295116,-5.213961,7.946564,-10.29,12.18,35.349998,1729428897461.0,0.0
-3.78066,-6.101698,8.638089,-23.799999,6.44,33.040001,1729428897482.0,0.0
-4.4674,-4.388437,8.025528,-7.7,7.98,27.09,1729428897503.0,0.0
-4.711468,-4.802395,5.895915,-24.360001,1.54,29.4,1729428897527.0,0.0
-4.962714,-5.831308,5.254639,-18.83,3.57,28.559999,1729428897540.0,0.0
-5.611169,-5.702096,6.534799,11.62,12.88,25.41,1729428897562.0,0.0
-5.642276,-6.096912,7.37468,20.860001,12.39,19.389999,1729428897584.0,0.0
-5.194818,-6.85783,6.876972,-2.31,-0.14,11.48,1729428897603.0,0.0
-4.855037,-6.685547,6.649654,-0.84,-2.24,6.79,1729428897621.0,0.0
-4.833502,-6.520442,6.486942,3.29,-3.57,3.22,1729428897642.0,0.0
-4.663611,-6.319445,6.673582,5.53,-3.99,0.28,1729428897661.0,0.0
-4.788038,-6.029913,7.013363,7.7,-5.11,-2.17,1729428897683.0,0.0
-4.589434,-5.912664,6.735795,1.75,-8.12,-5.46,1729428897704.0,0.0
-4.476971,-5.721239,6.51087,-1.68,-8.54,-7.21,1729428897723.0,0.0
-4.457829,-6.211767,6.628119,-1.96,-8.33,-8.75,1729428897741.0,0.0
-4.986642,-7.288538,6.843473,5.88,-7.49,-15.12,1729428897763.0,0.0
-4.900501,-9.377472,7.424929,28.630001,-11.34,-29.82,1729428897783.0,0.0
-5.594419,-9.480364,8.173882,62.23,-9.17,-57.540001,1729428897804.0,0.0
-2.385644,-0.981057,8.267202,49.420002,-9.03,-83.160004,1729428897822.0,0.0
-5.883951,-9.52822,5.314459,-29.68,-37.799999,-80.43,1729428897842.0,0.0
0.55992,-4.481757,8.51127,35.91,-15.96,-73.709999,1729428897862.0,0.0
-4.402793,5.565705,1.469193,50.68,-22.190001,2.24,1729428897883.0,0.0
-2.924029,-8.4347,6.821937,-62.720001,36.470001,14.63,1729428897904.0,0.0
-5.436492,-4.460221,7.142576,-16.59,18.690001,-13.58,1729428897922.0,0.0
-7.01097,-1.282553,9.640682,46.549999,25.969999,27.860001,1729428897943.0,0.0
-4.943572,-5.52742,8.41795,-32.619999,-5.53,37.240002,1729428897963.0,0.0
-3.517449,-8.051848,7.805387,-48.93,-6.23,32.27,1729428897986.0,0.0
-3.361916,-6.525227,8.035098,-15.82,5.6,13.65,1729428898003.0,0.0
-3.316452,-6.348158,7.743174,-7.49,1.96,7.84,1729428898024.0,0.0
-3.615555,-5.682954,7.410572,0.14,1.89,4.2,1729428898043.0,0.0
-4.189832,-5.405386,6.975078,2.17,1.26,-0.35,1729428898063.0,0.0
-4.307081,-5.838487,6.465407,-0.56,0.35,-1.61,1729428898083.0,0.0
-4.455436,-6.238089,6.575477,5.11,0.56,-1.96,1729428898107.0,0.0
-4.630112,-5.546563,7.092326,18.48,1.89,-4.48,1729428898123.0,0.0
-4.615755,-5.376673,6.884151,12.74,-2.03,-5.25,1729428898142.0,0.0
-4.316652,-5.970093,6.460621,3.92,-5.6,-5.18,1729428898162.0,0.0
-4.244867,-5.422136,6.530013,8.82,-2.31,-7.56,1729428898184.0,0.0
-4.04387,-4.407579,6.996613,8.54,-0.42,-8.19,1729428898207.0,0.0
-3.969693,-3.871587,7.398607,4.13,0.84,-1.33,1729428898222.0,0.0
-3.938586,-4.034299,7.396214,-17.85,-3.22,5.32,1729428898246.0,0.0
-3.735196,-5.381458,6.723832,-22.049999,-6.44,14.28,1729428898262.0,0.0
-4.082155,-5.123034,6.537192,-2.87,-1.26,15.82,1729428898284.0,0.0
-4.563113,-6.053841,7.228717,9.1,1.4,16.17,1729428898304.0,0.0
-4.644469,-7.164111,7.534998,22.75,-0.35,8.68,1729428898322.0,0.0
-4.445865,-6.080163,7.611568,28.98,2.31,-2.52,1729428898343.0,0.0
-3.929015,-5.558527,7.365108,10.5,-0.7,-8.61,1729428898362.0,0.0
-3.443272,-6.082555,7.01097,2.8,-3.15,-7.28,1729428898384.0,0.0
-3.328416,-5.376673,7.312466,13.72,-1.4,-8.54,1729428898403.0,0.0
-3.696911,-4.800002,7.534998,13.65,-2.94,-7.98,1729428898422.0,0.0
-3.909872,-4.902894,6.786045,-5.18,-7.56,-6.02,1729428898490.0,0.0
-4.180261,-4.807181,6.183054,-14.56,-7.91,-3.57,1729428898491.0,0.0
-4.338188,-4.881358,6.415157,-9.94,-4.97,0.21,1729428898491.0,0.0
-4.596612,-4.302295,7.334002,-2.94,-4.13,3.01,1729428898505.0,0.0
-4.331009,-5.233103,7.245467,-4.97,-4.9,6.3,1729428898522.0,0.0
-4.098906,-5.900701,6.845865,-8.05,-4.41,3.36,1729428898542.0,0.0
-4.15394,-5.359922,6.960721,5.6,2.45,-1.33,1729428898562.0,0.0
-4.431508,-5.218746,7.087541,1.12,4.13,-6.51,1729428898583.0,0.0
-3.900301,-5.436492,7.283752,-5.81,1.89,-7.14,1729428898604.0,0.0
-3.795017,-5.139783,7.628319,-1.54,1.47,-7.7,1729428898622.0,0.0
-3.859623,-5.008178,7.77428,-4.48,-1.89,-5.18,1729428898642.0,0.0
-3.909872,-4.331009,7.89153,-11.55,-4.13,-2.38,1729428898662.0,0.0
-3.955336,-4.512863,7.664211,-25.48,-9.8,1.33,1729428898682.0,0.0
-3.754339,-5.424529,6.943972,-38.779999,-14.35,2.45,1729428898702.0,0.0
-3.818945,-5.836094,6.501299,-30.1,-12.04,3.43,1729428898722.0,0.0
-3.61077,-6.314659,6.250053,-9.45,-7.35,2.52,1729428898742.0,0.0
-3.804588,-5.532206,7.109076,14.77,1.19,-0.49,1729428898763.0,0.0
-3.962514,-5.259424,7.446464,12.67,2.17,-3.64,1729428898783.0,0.0
-3.833302,-5.520242,7.101898,-0.49,-0.21,-4.2,1729428898803.0,0.0
-3.562913,-5.855237,6.625726,2.87,-0.21,-4.9,1729428898822.0,0.0
-3.766303,-5.02732,7.063612,15.75,3.85,-5.81,1729428898842.0,0.0
-4.206582,-4.577469,6.941578,7.91,4.83,-4.34,1729428898861.0,0.0
-4.0008,-5.453243,7.185646,-16.030001,-1.89,2.94,1729428898882.0,0.0
-4.165904,-5.388636,7.465607,-10.57,-2.45,5.11,1729428898904.0,0.0
-3.940979,-4.845466,7.444071,-15.75,-5.81,7.07,1729428898922.0,0.0
-4.266403,-3.464807,7.094719,-35.98,-6.79,11.34,1729428898942.0,0.0
-4.216154,-4.922036,7.362715,-80.989998,-16.66,17.780001,1729428898962.0,0.0
-3.854837,-5.577669,7.599605,-114.520004,-25.48,22.190001,1729428898986.0,0.0
-3.948158,-3.716053,7.073184,-163.169998,-22.469999,26.25,1729428899003.0,0.0
-4.584648,-3.634698,5.733203,-278.25,-41.509998,28.210001,1729428899022.0,0.0
-4.673182,-7.52782,3.945765,-390.880005,-63.77,32.200001,1729428899042.0,0.0
-3.979264,-9.712467,1.440479,-442.330017,-69.300003,23.24,1729428899063.0,0.0
-3.443272,-9.154939,-1.083949,-420.980011,-59.220001,13.02,1729428899083.0,0.0
-3.60359,-9.915856,0.291924,-361.059998,-43.889999,13.3,1729428899104.0,0.0
-3.321238,-10.368099,0.277567,-333.269989,-38.57,3.08,1729428899122.0,0.0
-3.012564,-8.317451,-0.815953,-328.230011,-25.549999,-3.29,1729428899143.0,0.0
-4.101298,-8.41795,0.0335,-355.110016,-9.73,-5.39,1729428899232.0,0.0
-4.244867,-9.387043,-2.132005,-391.160004,-23.870001,-21.35,1729428899250.0,0.0
-2.368894,-8.925228,-6.453443,-371.700012,-25.9,-36.119999,1729428899259.0,0.0
-2.732604,-8.937192,-7.57089,-261.100006,-3.78,-26.18,1729428899262.0,0.0
-2.244468,-9.267403,-7.623533,-161.770004,-0.42,-21.210001,1729428899263.0,0.0
-3.4672,-8.128418,-3.931407,-39.900002,16.1,-2.31,1729428899273.0,0.0
-3.658626,-6.9009,-3.912265,-14.63,5.67,-3.64,1729428899281.0,0.0
-3.110669,-7.929814,-5.814559,-51.380001,-2.52,-14.14,1729428899303.0,0.0
-3.098706,-8.015956,-6.525227,-75.32,-1.96,-16.450001,1729428899359.0,0.0
-3.259024,-7.499106,-6.020342,-70.07,-0.28,-13.440001,1729428899362.0,0.0
-3.251846,-7.63789,-5.845665,-54.529999,-0.14,-12.74,1729428899363.0,0.0
-3.046063,-7.767102,-5.761917,-29.33,-2.03,-11.55,1729428899382.0,0.0
-2.883351,-7.520642,-5.802595,-6.09,-4.48,-9.94,1729428899401.0,0.0
-3.184847,-6.936793,-5.410172,1.47,-3.08,-7.42,1729428899420.0,0.0
-3.598805,-6.929615,-5.776274,-23.52,-3.29,-6.65,1729428899441.0,0.0
-3.491128,-7.771888,-5.221139,-44.240002,-7.35,-7.28,1729428899461.0,0.0
-3.117848,-7.52782,-6.778866,-34.650002,-8.82,-8.12,1729428899482.0,0.0
-2.785245,-7.479963,-6.388836,-1.75,-10.5,-6.51,1729428899504.0,0.0
-3.87398,-6.939186,-5.709275,29.82,-8.75,-2.87,1729428899520.0,0.0
-3.474378,-7.286145,-7.01097,-1.26,-10.43,-5.18,1729428899540.0,0.0
-3.87398,-7.180861,-7.759924,-5.74,-1.89,-2.94,1729428899569.0,0.0
-3.37388,-6.996613,-7.585248,-7.21,4.83,-1.82,1729428899581.0,0.0
-3.04367,-6.865008,-7.058826,3.29,9.94,1.12,1729428899605.0,0.0
-3.347559,-6.836295,-6.541977,1.12,12.25,-1.26,1729428899622.0,0.0
-3.342773,-7.180861,-6.589834,-9.1,10.71,-4.48,1729428899643.0,0.0
-3.005385,-6.843473,-6.297909,-8.47,10.29,-7.49,1729428899662.0,0.0
-3.050849,-6.005985,-5.821737,-0.35,10.08,-4.34,1729428899683.0,0.0
-3.005385,-6.826723,-5.675776,-12.04,5.39,-3.85,1729428899703.0,0.0
-2.794817,-7.235896,-6.235696,-27.299999,1.19,-5.74,1729428899722.0,0.0
-3.012564,-7.338787,-6.221339,-35.700001,-0.84,-8.47,1729428899743.0,0.0
-2.715853,-6.613762,-6.62094,-40.32,-2.03,-10.29,1729428899763.0,0.0
-3.019742,-6.776474,-6.491727,-36.75,-1.05,-7.7,1729428899784.0,0.0
-2.840281,-7.080362,-6.888937,-25.76,-0.56,-3.15,1729428899804.0,0.0
-2.612962,-7.625926,-6.666404,-0.56,2.31,1.75,1729428899822.0,0.0
-3.046063,-7.257431,-5.733203,31.85,3.64,0.42,1729428899843.0,0.0
-2.928815,-6.278766,-6.168696,21.35,-1.26,-2.52,1729428899864.0,0.0
-2.78046,-5.996413,-6.233303,-18.76,-5.74,-5.04,1729428899883.0,0.0
-2.907279,-7.223931,-6.623333,-58.310001,-10.5,-6.23,1729428899903.0,0.0
-2.56032,-7.767102,-7.599605,-44.099998,-11.2,-7.84,1729428899924.0,0.0
-2.605784,-6.874579,-7.032506,1.05,-8.96,-7.91,1729428899944.0,0.0
-2.87378,-6.321837,-6.441479,43.400002,-9.52,-3.85,1729428899964.0,0.0
-3.400201,-6.441479,-5.886343,50.75,-10.57,0.56,1729428899988.0,0.0
-3.692125,-6.922436,-5.912664,35.84,-12.74,2.59,1729428900006.0,0.0
-3.943372,-6.771688,-6.831509,6.02,-13.09,0.49,1729428900023.0,0.0
-3.625126,-6.855437,-7.52782,-18.969999,-11.76,-1.96,1729428900044.0,0.0
-3.436093,-7.130611,-7.721639,-17.15,-9.45,-1.54,1729428900064.0,0.0
-3.122634,-7.135397,-6.431907,21.0,-7.42,0.21,1729428900084.0,0.0
-3.737589,-6.321837,-5.235496,59.290001,-5.53,5.88,1729428900109.0,0.0
-3.85723,-6.987042,-5.788238,41.09,-9.03,4.41,1729428900124.0,0.0
-3.294917,-7.15454,-6.070591,-28.559999,-11.76,-3.71,1729428900143.0,0.0
-3.189633,-7.525427,-6.829116,-22.190001,-14.21,-2.66,1729428900163.0,0.0
-3.136991,-6.948757,-7.721639,3.15,-9.52,-1.89,1729428900185.0,0.0
-3.184847,-6.915257,-7.530212,1.26,-2.31,-0.49,1729428900204.0,0.0
-3.18724,-7.140182,-7.173682,3.64,3.99,2.73,1729428900224.0,0.0
-3.005385,-7.04447,-6.551548,21.700001,7.56,3.64,1729428900244.0,0.0
-3.445665,-6.733403,-5.728417,37.869999,9.52,4.9,1729428900263.0,0.0
-3.608376,-7.063612,-5.900701,27.09,6.16,2.52,1729428900289.0,0.0
-3.735196,-7.001399,-5.694918,5.6,3.64,-1.54,1729428900304.0,0.0
-3.464807,-7.034898,-6.273981,-17.710001,0.56,-4.62,1729428900323.0,0.0
-3.275774,-7.171289,-6.218946,-19.6,-1.54,-3.92,1729428900343.0,0.0
-3.505485,-7.293324,-6.692725,-6.58,-0.77,-2.87,1729428900363.0,0.0
-3.522235,-7.200003,-6.185446,2.87,3.22,-1.75,1729428900384.0,0.0
-3.56052,-6.54437,-5.558527,-12.18,4.13,-4.13,1729428900405.0,0.0
-3.629912,-6.673582,-5.446064,-59.57,-0.07,-9.24,1729428900423.0,0.0
-3.180061,-7.226324,-6.293124,-88.480003,-8.47,-10.85,1729428900443.0,0.0
-3.089134,-7.073184,-6.982256,-71.190002,-10.92,-10.15,1729428900463.0,0.0
-3.103491,-7.082755,-7.250252,-21.35,-6.16,-7.35,1729428900484.0,0.0
-3.180061,-6.491727,-6.812366,6.3,-2.45,-4.76,1729428900505.0,0.0
-3.515057,-6.312266,-6.4678,14.56,-0.63,-1.89,1729428900524.0,0.0
-3.574877,-6.553941,-6.30748,11.76,-2.8,-0.35,1729428900560.0,0.0
-3.407379,-6.908078,-6.345766,13.16,-4.62,-0.42,1729428900570.0,0.0
-3.460021,-7.640282,-7.625926,10.43,-4.2,-3.5,1729428900608.0,0.0
-3.273381,-7.829315,-7.810174,38.920002,-3.71,-5.74,1729428900609.0,0.0
-3.795017,-7.836494,-7.082755,64.330002,6.16,-6.09,1729428900626.0,0.0
-3.651447,-8.817552,-7.276574,47.880001,9.03,-16.52,1729428900647.0,0.0
-3.615555,-8.504091,-7.200003,75.599998,13.16,-21.35,1729428900662.0,0.0
-4.149154,-8.867801,-6.745367,104.370003,16.66,-28.559999,1729428900683.0,0.0
-3.751946,-9.396614,-7.573284,139.509995,12.88,-30.73,1729428900705.0,0.0
-3.416951,-8.267202,-6.51087,221.339996,12.81,-25.620001,1729428900723.0,0.0
-4.405186,-8.571091,-4.158726,279.649994,19.530001,-18.690001,1729428900743.0,0.0
-3.811767,-10.231709,-5.079963,313.529999,3.57,-35.91,1729428900765.0,0.0
-1.897508,-9.784252,-4.522435,367.149994,5.18,-42.209999,1729428900783.0,0.0
-2.15354,-10.037891,-1.064806,406.48999,26.880001,-41.369999,1729428900805.0,0.0
-0.619741,-9.95175,0.428315,413.0,48.299999,-53.760002,1729428900823.0,0.0
-0.349352,-8.590233,2.254039,377.649994,67.690002,-68.949997,1729428900843.0,0.0
-0.141177,-8.477771,3.314059,278.529999,66.290001,-72.590004,1729428900863.0,0.0
0.777667,-7.238289,2.801995,144.970001,66.150002,-77.980003,1729428900884.0,0.0
-0.370888,-4.07737,1.342373,62.650002,66.639999,-59.150002,1729428900905.0,0.0
-2.072184,-4.177868,0.713061,59.360001,59.709999,-28.630001,1729428900923.0,0.0
-2.852244,-5.15414,2.361716,80.150002,67.059998,-10.15,1729428900944.0,0.0
-3.134598,-4.132405,9.439686,60.48,65.099998,21.42,1729428900964.0,0.0
-3.52702,-4.089334,9.279366,-47.599998,20.860001,28.700001,1729428900986.0,0.0
-3.656233,-8.870193,5.065606,-114.730003,-19.67,49.279999,1729428901005.0,0.0
-3.383451,-11.320443,3.328416,-119.209999,-27.16,45.290001,1729428901023.0,0.0
-2.761317,-11.136196,1.852045,-125.300003,-19.25,30.66,1729428901044.0,0.0
-2.371287,-11.729616,-1.993221,-98.419998,-11.34,16.66,1729428901063.0,0.0
-1.083949,-11.825329,-2.378466,4.2,1.89,9.1,1729428901084.0,0.0
-1.859223,-9.351151,2.457429,125.020004,26.18,17.01,1729428901103.0,0.0
-4.347759,-7.518249,6.733403,146.580002,27.51,10.36,1729428901125.0,0.0
-4.012764,-7.853244,4.816752,-10.71,4.48,3.08,1729428901142.0,0.0
-3.692125,-8.52802,2.787638,-86.169998,-3.36,2.45,1729428901162.0,0.0
-3.701697,-9.142976,2.366502,-91.559998,-0.7,8.33,1729428901184.0,0.0
-3.462414,-8.41795,2.880959,-86.379997,4.55,7.14,1729428901205.0,0.0
-4.919643,-8.736196,3.505485,-139.300003,12.18,4.27,1729428901223.0,0.0
-4.658825,-9.183653,-0.837488,-286.019989,18.76,-16.73,1729428901244.0,0.0
-2.081756,-17.065611,-1.600798,-277.200012,-23.24,-34.580002,1729428901263.0,0.0
-0.830309,-8.932407,-5.304887,-45.080002,30.450001,-33.389999,1729428901283.0,0.0
3.129812,-4.108476,-1.998007,96.669998,37.59,-17.639999,1729428901304.0,0.0
-4.945964,-6.754939,9.896714,118.370003,18.41,5.95,1729428901323.0,0.0
-2.512464,-7.259824,6.941578,-36.959999,-23.379999,-14.7,1729428901343.0,0.0
-2.986243,-6.592227,2.998207,-96.25,-38.080002,-12.18,1729428901364.0,0.0
-3.081956,-10.183852,-0.622134,-69.93,-31.57,-2.17,1729428901383.0,0.0
-1.117448,-12.516854,-1.378266,-12.6,-24.43,8.26,1729428901404.0,0.0
-2.227718,-10.425529,1.067199,59.220001,-2.52,10.85,1729428901423.0,0.0
-2.227718,-9.178867,1.586441,64.68,-7.42,11.34,1729428901444.0,0.0
-1.854438,-8.590233,0.157926,57.610001,-10.29,12.95,1729428901463.0,0.0
-1.160519,-8.221739,0.167498,55.720001,-10.57,21.84,1729428901483.0,0.0
-2.385644,-9.028119,0.926022,83.300003,-12.18,31.360001,1729428901513.0,0.0
-4.922036,-11.92822,2.89053,87.639999,-14.14,28.49,1729428901522.0,0.0
-4.311867,-9.308081,2.340181,65.379997,-14.77,13.51,1729428901543.0,0.0
-6.448657,-11.346765,3.555735,17.01,-3.15,1.89,1729428901564.0,0.0
-6.573084,-9.363115,-0.935594,-81.059998,10.08,-11.27,1729428901583.0,0.0
-4.661219,-12.710674,-0.734596,-97.230003,17.57,-18.34,1729428901613.0,0.0
-3.63709,-12.660425,0.646062,-77.840004,35.0,-26.32,1729428901624.0,0.0
-4.280759,-11.820543,0.705883,-100.800003,49.630001,-47.740002,1729428901644.0,0.0
-2.732604,-7.76471,-1.519442,-122.709999,47.110001,-58.380001,1729428901663.0,0.0
1.825724,-5.95095,-1.880759,-37.170002,43.400002,-39.48,1729428901684.0,0.0
3.507878,-7.405786,14.340185,105.910004,30.59,12.81,1729428901704.0,0.0
-4.216154,-12.222539,6.702296,-16.799999,-34.299999,7.84,1729428901724.0,0.0
-0.459422,-8.207381,-0.078963,-81.410004,-38.990002,4.06,1729428901744.0,0.0
-2.667997,-11.873186,-3.414558,-53.27,-25.76,8.96,1729428901763.0,0.0
-1.718047,-8.941978,-0.12682,80.080002,4.97,12.53,1729428901784.0,0.0
-0.830309,-7.183254,1.438086,101.57,3.01,18.41,1729428901805.0,0.0
-1.940579,-7.156933,0.870987,77.139999,-12.53,25.76,1729428901824.0,0.0
-3.005385,-7.65464,1.215554,53.830002,-22.469999,31.219999,1729428901844.0,0.0
-4.017549,-9.84168,3.352344,73.290001,-23.59,38.990002,1729428901864.0,0.0
-5.012963,-10.040283,2.825923,54.110001,-27.790001,26.67,1729428901887.0,0.0
-5.223531,-9.542577,1.378266,1.05,-20.93,21.139999,1729428901906.0,0.0
-6.448657,-12.076575,1.091127,-69.370003,-20.719999,13.02,1729428901924.0,0.0
-5.625526,-11.456835,-1.48355,-126.910004,-3.5,1.89,1729428901944.0,0.0
-7.245467,-14.610575,-3.270989,-156.589996,11.13,-25.200001,1729428901964.0,0.0
-2.596212,-15.017354,-2.610569,-96.879997,39.830002,-45.57,1729428901988.0,0.0
-3.555735,-10.327423,-3.895515,-36.68,63.139999,-74.690002,1729428902006.0,0.0
2.734996,1.07677,-3.361916,-3.15,40.110001,-65.660004,1729428902025.0,0.0
3.68734,-4.587041,10.085747,105.139999,36.470001,-7.98,1729428902044.0,0.0
-1.732404,-6.197411,5.426922,60.619999,-30.309999,-3.92,1729428902064.0,0.0
-1.95015,-8.738588,0.665205,-93.309998,-46.41,8.26,1729428902086.0,0.0
-1.897508,-11.612368,-0.868595,-80.779999,-38.5,17.219999,1729428902107.0,0.0
-2.730211,-11.148161,-1.205983,-3.22,-14.84,20.09,1729428902124.0,0.0
-2.617748,-9.690931,-0.555135,14.77,-16.450001,18.41,1729428902144.0,0.0
-1.440479,-8.99462,0.052642,41.650002,-23.66,17.92,1729428902164.0,0.0
-2.991028,-6.606583,1.497907,71.959999,-10.78,30.380001,1729428902185.0,0.0
-2.761317,-8.989835,0.464208,43.049999,-29.469999,26.809999,1729428902206.0,0.0
-4.292724,-9.616754,2.409572,74.340004,-29.540001,36.68,1729428902224.0,0.0
-5.584848,-11.38505,1.741975,52.150002,-32.27,26.74,1729428902244.0,0.0
-5.568098,-13.22513,0.866202,10.57,-29.610001,10.15,1729428902264.0,0.0
-6.819544,-14.266008,-1.050449,-19.32,-9.66,-18.27,1729428902285.0,0.0
-6.032306,-13.08874,-3.259024,-35.98,28.559999,-36.400002,1729428902306.0,0.0
-3.177669,-12.579069,-3.756732,-25.34,44.59,-62.23,1729428902329.0,0.0
-3.694518,-9.832108,-0.59342,6.02,63.700001,-67.830002,1729428902344.0,0.0
-2.012364,-8.953942,-4.134798,-32.48,66.709999,-78.540001,1729428902364.0,0.0
4.713861,0.811167,-1.485943,24.43,45.009998,-61.459999,1729428902385.0,0.0
-3.20399,-11.145767,13.598411,186.619995,31.290001,-7.91,1729428902405.0,0.0
-1.660619,-6.092126,5.769095,33.040001,-30.030001,-1.33,1729428902424.0,0.0
-2.794817,-6.245267,2.021935,-83.090004,-29.049999,4.76,1729428902445.0,0.0
-1.813759,-13.112667,-2.883351,-74.970001,-34.09,10.01,1729428902464.0,0.0
-1.887937,-12.102897,-0.79681,62.439999,8.96,16.799999,1729428902484.0,0.0
-2.682354,-9.209974,1.627119,111.720001,20.860001,10.15,1729428902506.0,0.0
-1.971686,-9.466006,2.955136,84.769997,7.35,7.84,1729428902524.0,0.0
-2.167897,-8.475377,3.07717,59.290001,-6.44,9.87,1729428902545.0,0.0
-1.696511,-8.037491,1.880759,41.369999,-22.540001,5.95,1729428902564.0,0.0
-2.699104,-9.868,1.89033,50.889999,-26.18,12.25,1729428902584.0,0.0
-2.498107,-9.109475,1.158126,66.989998,-27.370001,14.84,1729428902611.0,0.0
-3.979264,-8.91805,4.187439,64.540001,-25.27,13.09,1729428902625.0,0.0
-7.056434,-8.877372,3.069991,17.57,-18.48,6.58,1729428902646.0,0.0
-0.179462,-14.519648,-0.660419,-48.860001,-33.040001,0.56,1729428902664.0,0.0
-4.371687,-11.75833,0.035892,63.77,4.62,-13.09,1729428902685.0,0.0
-4.596612,-12.210573,3.445665,103.25,13.93,-27.370001,1729428902707.0,0.0
-5.955735,-5.910272,5.503492,42.0,9.8,-61.880001,1729428902724.0,0.0
-2.182254,-11.633904,2.849852,-131.039993,-7.07,-68.949997,1729428902744.0,0.0
-0.086142,0.519243,2.40718,-114.309998,-0.77,-70.559998,1729428902764.0,0.0
3.625126,-0.90688,-1.129412,35.349998,14.07,-38.849998,1729428902784.0,0.0
-1.933401,-12.653246,11.820543,72.379997,4.13,23.030001,1729428902805.0,0.0
0.435494,-9.851252,7.152147,-9.45,-26.6,-7.7,1729428902825.0,0.0
-1.741975,-7.209574,3.383451,-17.92,-7.14,-4.55,1729428902844.0,0.0
-0.569492,-9.614362,0.569492,-27.299999,-12.53,7.42,1729428902864.0,0.0
-0.765703,-9.217153,2.129612,44.240002,9.8,10.64,1729428902884.0,0.0
-1.440479,-7.436893,3.89073,69.440002,12.46,20.790001,1729428902905.0,0.0
-0.928415,-7.161718,3.859623,31.43,-2.59,24.360001,1729428902924.0,0.0
-2.072184,-8.932407,2.112862,20.02,-21.77,21.91,1729428902944.0,0.0
-3.091527,-9.602397,2.490928,57.610001,-16.17,37.869999,1729428902965.0,0.0
-3.287738,-10.906486,3.034099,67.550003,-19.809999,16.1,1729428902988.0,0.0
-4.177868,-8.80798,3.862016,88.410004,-8.61,27.860001,1729428903006.0,0.0
-7.410572,-8.863015,5.134997,17.57,-0.91,20.58,1729428903024.0,0.0
-1.672583,-14.191832,1.808974,-84.489998,-21.07,14.63,1729428903044.0,0.0
-4.369294,-11.839686,-1.038485,-27.93,-11.41,-15.4,1729428903064.0,0.0
-6.080163,-12.562319,4.713861,20.02,15.33,-41.299999,1729428903084.0,0.0
-3.129812,-13.13181,5.063213,-48.93,14.14,-59.709999,1729428903109.0,0.0
-2.423929,-11.810973,3.20399,-101.57,16.379999,-93.940002,1729428903124.0,0.0
1.981257,-6.132804,-1.284946,-120.120003,5.39,-81.340004,1729428903144.0,0.0
2.65364,-8.62134,4.113262,32.549999,13.58,-73.57,1729428903164.0,0.0
6.606583,7.271788,5.402994,90.300003,21.98,-39.619999,1729428903184.0,0.0
-3.007778,-11.05484,12.201002,95.480003,-8.19,-8.26,1729428903205.0,0.0
0.768096,-9.858429,5.180461,-3.64,-26.6,-6.16,1729428903224.0,0.0
-0.693919,-7.472785,2.155933,12.74,-9.31,-12.88,1729428903245.0,0.0
-0.251246,-8.377272,1.153341,12.18,-0.7,-5.74,1729428903264.0,0.0
-0.698704,-7.537392,2.945565,47.32,17.01,0.98,1729428903284.0,0.0
-1.428515,-7.24786,4.644469,38.150002,15.47,10.08,1729428903305.0,0.0
-1.588834,-6.932007,4.134798,14.77,4.9,14.49,1729428903323.0,0.0
-1.588834,-6.139983,3.584448,22.82,-3.64,30.309999,1729428903344.0,0.0
-1.794617,-6.391229,4.510471,29.190001,-8.47,38.849998,1729428903364.0,0.0
-1.823331,-8.391629,5.290531,38.779999,-10.64,52.920002,1729428903384.0,0.0
-2.715853,-10.853845,6.324231,27.719999,-11.2,48.860001,1729428903406.0,0.0
-1.61037,-9.128618,6.128019,-55.439999,-6.58,26.809999,1729428903424.0,0.0
-1.217947,-14.847464,2.555535,-117.879997,-17.01,38.290001,1729428903493.0,0.0
-2.526821,-9.219545,1.117448,-91.139999,-6.79,13.37,1729428903493.0,0.0
-5.240282,-11.547763,3.108276,-88.690002,10.57,9.59,1729428903494.0,0.0
-4.072584,-13.091133,4.469792,-133.839996,17.5,-8.96,1729428903507.0,0.0
-2.931208,-12.483356,1.919044,-154.350006,22.33,-36.540001,1729428903529.0,0.0
-2.541178,-8.324631,-3.885944,-156.309998,40.110001,-57.049999,1729428903544.0,0.0
3.189633,-6.62094,-2.940779,-68.669998,28.35,-40.18,1729428903564.0,0.0
5.012963,-6.051448,6.668797,133.839996,59.220001,-8.12,1729428903585.0,0.0
-1.921437,-8.341379,12.181859,153.789993,19.6,2.31,1729428903605.0,0.0
-0.050249,-5.101498,8.690732,15.89,2.59,11.62,1729428903625.0,0.0
-1.007378,-8.752945,0.772882,-86.590004,-32.48,17.43,1729428903644.0,0.0
-0.72024,-11.49512,-0.751346,-34.299999,-11.55,25.200001,1729428903664.0,0.0
-2.072184,-10.353743,2.340181,55.720001,21.629999,30.1,1729428903686.0,0.0
-2.926422,-9.262616,2.275574,51.799999,12.18,20.299999,1729428903707.0,0.0
-1.59362,-8.963513,2.189433,31.290001,5.04,21.0,1729428903724.0,0.0
-2.005185,-7.479963,1.940579,35.91,-2.38,30.380001,1729428903743.0,0.0
-2.512464,-10.547562,2.579463,54.810001,-18.129999,39.27,1729428903764.0,0.0
-3.885944,-9.635897,5.024928,70.139999,-19.74,39.549999,1729428903784.0,0.0
-4.850252,-10.277173,6.096912,21.91,-17.08,35.700001,1729428903804.0,0.0
-4.642076,-12.68196,2.742175,-108.5,-29.540001,7.42,1729428903824.0,0.0
-3.914658,-11.921042,0.119641,-195.930008,-12.04,5.39,1729428903844.0,0.0
-3.474378,-12.751352,0.236889,-205.800003,6.51,-27.719999,1729428903864.0,0.0
-3.471986,-13.459626,-0.177069,-188.440002,24.01,-31.08,1729428903884.0,0.0
-2.684747,-10.822738,-3.725625,-152.809998,48.860001,-52.849998,1729428903905.0,0.0
-1.22034,-0.969093,-8.73141,-100.099998,62.720001,-56.349998,1729428903924.0,0.0
3.902694,-6.802795,-2.866602,73.639999,67.760002,-33.880001,1729428903943.0,0.0
-2.122434,-11.416157,8.188239,258.790009,46.619999,-7.7,1729428903963.0,0.0
0.112463,-3.572484,12.782458,228.899994,41.509998,-4.34,1729428903988.0,0.0
-2.775674,-4.666004,8.085347,13.37,-4.9,5.46,1729428904004.0,0.0
-0.837488,-11.100305,0.107677,-103.18,-51.799999,11.76,1729428904023.0,0.0
-1.182054,-11.509477,-1.165305,-14.63,-12.74,15.68,1729428904043.0,0.0
-1.942972,-9.018548,0.772882,66.709999,15.75,22.82,1729428904064.0,0.0
-2.871387,-7.798209,1.933401,65.379997,12.46,23.940001,1729428904084.0,0.0
-2.402394,-8.140383,2.59382,49.279999,-6.23,39.759998,1729428904116.0,0.0
-3.117848,-10.475778,3.24706,54.32,-15.26,37.099998,1729428904128.0,0.0
-3.282953,-7.862815,4.201797,59.360001,-14.56,35.84,1729428904145.0,0.0
-4.194618,-8.353344,4.685147,20.299999,-14.56,38.360001,1729428904241.0,0.0
-3.328416,-10.205389,3.68734,-63.700001,-24.290001,31.85,1729428904246.0,0.0
-3.694518,-13.105491,0.01675,-81.269997,-25.969999,22.469999,1729428904247.0,0.0
-3.426522,-11.337193,-1.414158,-51.66,-8.96,7.49,1729428904250.0,0.0
-3.68734,-10.4016,-0.875773,-16.799999,6.65,2.73,1729428904252.0,0.0
-3.692125,-11.045268,0.29671,0.21,11.55,-10.29,1729428904263.0,0.0
-4.476971,-11.542977,1.375873,-7.63,20.790001,-18.549999,1729428904284.0,0.0
-4.469792,-11.755937,1.277767,-49.630001,24.57,-40.459999,1729428904305.0,0.0
-3.895515,-10.509278,-0.880559,-107.660004,33.040001,-57.68,1729428904323.0,0.0
-3.436093,-10.8682,-4.381258,-120.75,42.91,-72.730003,1729428904342.0,0.0
0.555135,-5.350351,-1.495514,1.33,51.59,-69.019997,1729428904363.0,0.0
5.213961,4.754539,2.459821,146.509995,51.73,-42.560001,1729428904383.0,0.0
-1.718047,-9.717253,17.075182,195.930008,6.16,6.79,1729428904404.0,0.0
-1.416551,-5.838487,6.721439,4.27,-29.049999,-2.45,1729428904423.0,0.0
-1.820938,-9.705289,-0.368495,-148.190002,-51.450001,4.55,1729428904442.0,0.0
-0.533599,-10.432706,-1.342373,-49.490002,-10.57,11.13,1729428904462.0,0.0
-1.691726,-9.276974,0.62692,36.889999,19.18,24.99,1729428904483.0,0.0
-1.552942,-10.078569,1.56012,44.869999,9.17,31.710001,1729428904503.0,0.0
-1.459622,-7.592427,1.713261,57.610001,2.8,30.1,1729428904522.0,0.0
-2.510071,-8.4347,2.830709,63.490002,-5.18,42.139999,1729428904542.0,0.0
-3.132205,-10.147961,2.859423,41.369999,-15.05,37.73,1729428904562.0,0.0
-4.127619,-10.061819,2.734996,31.57,-27.16,32.130001,1729428904582.0,0.0
-4.26401,-10.025927,2.801995,23.870001,-22.120001,30.799999,1729428904603.0,0.0
-4.036692,-10.576276,2.275574,-1.82,-20.440001,21.91,1729428904623.0,0.0
-3.182454,-10.607382,1.734797,-12.95,-14.49,7.98,1729428904645.0,0.0
-3.448057,-9.786645,1.196411,-7.84,-5.32,2.52,1729428904663.0,0.0
-3.299703,-9.690931,1.617548,-14.63,-0.91,-0.42,1729428904683.0,0.0
-2.952743,-8.712267,1.162912,-23.870001,2.59,-0.84,1729428904703.0,0.0
-2.854637,-9.45165,1.040878,-16.799999,3.15,-0.56,1729428904723.0,0.0
-2.895315,-9.537791,1.730011,3.92,5.11,-1.54,1729428904742.0,0.0
-2.825923,-9.12144,1.976472,14.07,5.46,-2.38,1729428904762.0,0.0
-3.708875,-8.997013,1.732404,-13.09,8.05,-0.7,1729428904783.0,0.0
-5.986843,-12.533605,0.26321,-71.610001,14.42,-3.92,1729428904805.0,0.0
-3.720839,-17.060825,-2.608176,-42.279999,25.969999,-30.870001,1729428904824.0,0.0
-3.282953,-11.856436,-2.756532,9.73,59.360001,-66.5,1729428904843.0,0.0
-2.900101,-8.051848,-4.570292,-6.44,81.059998,-71.68,1729428904862.0,0.0
1.119841,-8.508877,-2.108077,1.82,79.099998,-50.540001,1729428904883.0,0.0
6.71426,6.360123,17.211573,212.729996,74.059998,-15.89,1729428904903.0,0.0
-9.638289,-10.380065,15.486347,100.590004,-17.57,26.25,1729428904923.0,0.0
-0.504886,-9.537791,5.486742,-107.099998,-50.68,-6.93,1729428904942.0,0.0
-2.876173,-8.690732,1.153341,-95.199997,-21.0,-1.68,1729428904963.0,0.0
-1.844866,-11.193624,-0.057428,-54.32,3.85,7.42,1729428904987.0,0.0
-1.160519,-11.028521,0.990629,0.49,20.09,11.97,1729428905006.0,0.0
-1.320838,-10.253245,2.275574,39.130001,22.190001,7.49,1729428905023.0,0.0
-1.840081,-9.334401,2.725425,42.630001,14.49,1.19,1729428905042.0,0.0
-2.498107,-8.666803,3.261417,25.41,3.57,0.91,1729428905063.0,0.0
-2.830709,-8.597411,2.62732,-3.08,-7.63,3.08,1729428905083.0,0.0
-3.067599,-9.308081,2.041078,-37.799999,-19.460001,4.13,1729428905106.0,0.0
-2.392823,-9.406186,2.249253,-34.720001,-20.65,5.46,1729428905123.0,0.0
-2.158326,-8.939585,2.146362,-29.4,-19.67,5.46,1729428905144.0,0.0
-2.210968,-9.236296,1.954936,-39.27,-15.75,3.92,1729428905163.0,0.0
-2.474179,-9.956534,1.122234,-43.400002,-12.11,1.82,1729428905183.0,0.0
-2.646462,-10.430314,1.476372,-23.24,-7.63,-0.7,1729428905204.0,0.0
-2.163112,-10.207782,2.770889,-0.28,-6.44,3.71,1729428905223.0,0.0
-2.062613,-7.302894,2.134398,-5.04,-4.9,-1.89,1729428905243.0,0.0
-0.710668,-5.115855,0.303888,-8.68,-9.59,11.13,1729428905262.0,0.0
-1.969293,-8.707481,0.567099,-0.84,-5.53,28.35,1729428905283.0,0.0
-3.292524,-13.8688,2.177469,20.65,-23.66,17.57,1729428905307.0,0.0
-2.234896,-9.020942,2.904887,82.18,2.24,20.299999,1729428905323.0,0.0
-4.177868,-8.499306,3.68734,63.420002,1.33,22.469999,1729428905343.0,0.0
-6.06102,-12.622139,3.256632,-27.370001,-8.4,21.210001,1729428905362.0,0.0
-5.201996,-13.086348,-0.969093,-100.449997,-10.99,-8.47,1729428905383.0,0.0
-5.479564,-11.712867,-0.504886,-92.75,28.07,-20.860001,1729428905407.0,0.0
-2.15354,-11.839686,-2.210968,-104.510002,32.48,-43.259998,1729428905423.0,0.0
-0.528814,-8.116454,-1.478764,-20.58,34.439999,-59.57,1729428905444.0,0.0
3.029313,-3.29731,1.550549,70.07,44.170002,-31.5,1729428905462.0,0.0
-1.928615,-8.415558,10.006784,125.650002,7.14,-13.51,1729428905485.0,0.0
-1.751546,-6.666404,6.977471,36.75,-12.46,-9.87,1729428905506.0,0.0
-2.778067,-7.099504,2.773281,-56.07,-27.719999,-4.06,1729428905523.0,0.0
-2.732604,-8.664411,0.851845,-77.07,-25.549999,2.59,1729428905543.0,0.0
-2.876173,-8.640482,-0.011964,-40.18,-10.5,9.1,1729428905562.0,0.0
-3.079563,-9.052048,1.251446,-25.76,-9.1,13.37,1729428905583.0,0.0
-2.907279,-9.262616,2.151148,-24.5,-13.23,11.34,1729428905610.0,0.0
-3.220739,-8.267202,2.718246,-32.060001,-20.23,12.53,1729428905622.0,0.0
-3.634698,-7.233503,1.658226,-66.150002,-43.189999,12.88,1729428905642.0,0.0
-3.18724,-7.65464,0.375673,-100.169998,-63.349998,19.809999,1729428905663.0,0.0
-2.914458,-8.724231,-0.870987,-135.100006,-72.660004,23.66,1729428905683.0,0.0
-2.711068,-9.437292,-1.351945,-140.770004,-64.82,27.299999,1729428905705.0,0.0
-3.842873,-10.040283,-0.775275,-128.520004,-49.279999,29.26,1729428905723.0,0.0
-3.249453,-8.776874,-2.880959,-126.139999,-52.290001,17.360001,1729428905742.0,0.0
-2.567499,-11.586047,-2.124826,-72.870003,-54.459999,31.5,1729428905762.0,0.0
-2.883351,-11.679367,-0.971486,23.17,-47.459999,21.49,1729428905782.0,0.0
-3.488736,-8.930015,1.639083,22.68,-38.220001,18.41,1729428905811.0,0.0
-5.45085,-7.046863,0.327817,-109.900002,-27.65,14.07,1729428905822.0,0.0
-3.847659,-8.312666,-5.374279,-310.869995,-46.34,-7.7,1729428905843.0,0.0
-2.239682,-12.306287,-9.020942,-350.209991,-42.420002,-10.08,1729428905862.0,0.0
-1.820938,-10.664811,-9.556933,-226.309998,1.47,-8.54,1729428905882.0,0.0
-2.799603,-8.726624,-9.23151,-139.789993,34.650002,-13.09,1729428905904.0,0.0
-2.213361,-9.377472,-6.707082,-69.510002,51.310001,-9.87,1729428905922.0,0.0
-1.830509,-9.693325,-3.742374,24.43,45.639999,-5.81,1729428905942.0,0.0
-1.540978,-7.68096,0.325424,108.220001,42.420002,-4.69,1729428905962.0,0.0
-1.603191,-8.13799,-1.40698,22.540001,23.940001,-12.53,1729428905986.0,0.0
-1.59362,-9.245867,-3.601198,-84.0,0.98,-15.75,1729428906005.0,0.0
-2.139183,-10.375278,-4.271189,-63.279999,-8.19,-6.51,1729428906023.0,0.0
-3.936193,-8.865408,-4.108476,6.37,-1.75,-5.46,1729428906043.0,0.0
-3.773481,-8.449057,-4.699504,15.05,8.05,-6.79,1729428906071.0,0.0
-3.053242,-8.331808,-5.678168,-27.09,12.46,-8.26,1729428906083.0,0.0
-3.538985,-8.288737,-7.099504,-42.279999,13.16,-6.72,1729428906109.0,0.0
-3.759124,-6.656832,-6.412765,-17.15,33.529999,0.56,1729428906124.0,0.0
-4.309474,-6.829116,-6.546762,-27.16,44.170002,7.63,1729428906142.0,0.0
-4.761717,-8.193025,-7.104291,-78.68,55.650002,5.81,1729428906162.0,0.0
-3.864408,-7.01097,-10.942378,-113.82,69.510002,-4.13,1729428906182.0,0.0
-2.476572,-10.284351,-11.004591,-99.260002,94.080002,0.56,1729428906204.0,0.0
-0.981057,-11.782259,-5.972485,42.349998,100.099998,-0.77,1729428906222.0,0.0
-2.055435,-2.160719,2.634498,155.330002,99.68,-14.07,1729428906241.0,0.0
-0.820738,-6.084948,-4.003192,-41.509998,48.16,-23.1,1729428906263.0,0.0
5.958128,-5.656632,1.718047,33.880001,20.790001,7.21,1729428906282.0,0.0
-2.019542,-8.673983,0.399601,125.440002,20.51,27.65,1729428906314.0,0.0
-1.543371,-11.464014,-2.644069,1.05,-12.25,9.1,1729428906322.0,0.0
-0.29671,-8.877372,-4.278367,-11.48,-26.25,-0.91,1729428906343.0,0.0
-2.086541,-9.430114,-5.692525,-4.55,-37.73,-5.88,1729428906362.0,0.0
-2.957529,-8.628519,-7.190433,10.15,-36.610001,-7.63,1729428906382.0,0.0
-3.739982,-7.350751,-6.865008,-35.630001,-25.34,-14.63,1729428906406.0,0.0
-2.699104,-8.16431,-8.068598,-75.389999,-26.74,-16.870001,1729428906424.0,0.0
0.655633,-4.646862,-6.477371,29.960001,-12.95,-6.16,1729428906442.0,0.0
1.253839,-5.594419,-1.567299,116.970001,-30.52,17.08,1729428906463.0,0.0
-3.491128,-6.929615,0.299103,172.059998,-44.380001,33.459999,1729428906483.0,0.0
-6.049056,-9.638289,-3.909872,54.670002,-57.540001,13.93,1729428906503.0,0.0
-4.599005,-9.966106,-5.580062,-42.420002,-55.650002,0.35,1729428906522.0,0.0
-5.675776,-11.310873,-9.066404,-105.07,-41.23,-10.57,1729428906543.0,0.0
-5.053641,-9.078369,-13.184454,-64.190002,-5.95,-14.35,1729428906562.0,0.0
-3.199204,-7.702496,-11.918649,-0.42,47.950001,8.82,1729428906584.0,0.0
-2.701497,-7.946564,-8.815158,-39.549999,80.639999,9.24,1729428906604.0,0.0
-3.266203,-9.157332,-5.297709,-108.849998,83.370003,-10.85,1729428906622.0,0.0
-0.751346,-7.52782,-4.694718,-74.760002,68.879997,-19.879999,1729428906642.0,0.0
-1.148555,-5.364708,-3.773481,-0.98,63.630001,-13.58,1729428906661.0,0.0
0.191426,-6.872187,-6.343372,10.71,50.049999,-8.47,1729428906684.0,0.0
1.244268,-5.761917,-0.916451,50.259998,56.0,17.639999,1729428906704.0,0.0
2.952743,-6.089733,5.771489,133.139999,22.610001,52.5,1729428906722.0,0.0
-0.189033,-10.033106,2.823531,111.790001,-8.4,47.110001,1729428906742.0,0.0
-1.672583,-9.190832,-2.699104,40.670002,-42.139999,33.740002,1729428906763.0,0.0
-2.419144,-11.667403,-7.695317,-97.090004,-71.540001,12.53,1729428906783.0,0.0
-2.976671,-10.750952,-7.68096,-58.310001,-66.919998,12.11,1729428906805.0,0.0
-1.990828,-5.9677,-4.701896,42.490002,-50.049999,27.09,1729428906823.0,0.0
-3.20399,-7.503892,-3.996014,65.519997,-54.880001,37.099998,1729428906842.0,0.0
-5.175675,-9.934999,-6.429514,35.560001,-54.32,23.870001,1729428906862.0,0.0
-5.45085,-11.016556,-6.585048,-18.27,-43.889999,4.34,1729428906884.0,0.0
-4.76411,-9.207582,-7.355537,-59.290001,-35.98,-9.38,1729428906905.0,0.0
-3.524628,-9.219545,-8.159525,-26.460001,-23.940001,-7.56,1729428906922.0,0.0
-5.096712,-9.035298,-9.245867,23.73,1.96,-6.79,1729428906943.0,0.0
-2.732604,-4.859823,-8.092526,32.27,27.440001,-2.59,1729428906963.0,0.0
-3.838088,-6.357729,-7.958528,-24.780001,38.150002,7.07,1729428906984.0,0.0
-6.022735,-9.279366,-5.982057,-102.269997,49.630001,0.35,1729428907004.0,0.0
-3.952943,-11.136196,-7.152147,-74.199997,53.27,-15.54,1729428907022.0,0.0
-3.87398,-7.726424,-5.13739,-60.130001,69.019997,-34.16,1729428907043.0,0.0
-2.091327,-6.541977,-7.982457,-102.129997,58.52,-38.150002,1729428907063.0,0.0
1.079163,-4.991428,-3.675375,-51.170002,64.82,-26.67,1729428907084.0,0.0
2.512464,-4.735396,4.091727,92.190002,34.16,16.450001,1729428907104.0,0.0
-2.928815,-9.312866,1.036092,102.199997,-9.59,21.98,1729428907122.0,0.0
-2.256432,-9.212367,-1.095913,14.77,-38.849998,1.12,1729428907141.0,0.0
-1.378266,-8.370094,-4.84068,-40.110001,-58.310001,-12.32,1729428907161.0,0.0
-2.811567,-10.253245,-7.817351,-43.82,-66.989998,-8.68,1729428907184.0,0.0
-2.438286,-6.802795,-7.594819,-17.08,-51.310001,-9.24,1729428907203.0,0.0
-1.019342,-6.410372,-6.520442,-14.14,-53.830002,1.33,1729428907222.0,0.0
-2.112862,-8.834301,-5.252246,39.830002,-55.02,13.72,1729428907242.0,0.0
-4.869394,-7.779066,-5.513064,70.629997,-45.779999,6.3,1729428907264.0,0.0
-5.364708,-7.834101,-5.230711,20.65,-39.619999,3.57,1729428907283.0,0.0
-5.254639,-10.485349,-7.826923,-41.09,-34.509998,-1.75,1729428907305.0,0.0
-7.37468,-10.604989,-12.311072,-51.73,2.59,-14.91,1729428907322.0,0.0
-6.331409,-7.65464,-12.141183,-78.120003,60.41,-10.5,1729428907342.0,0.0
-3.28056,-10.351351,-9.54497,-40.32,77.279999,-3.36,1729428907362.0,0.0
-4.639683,-7.69771,-7.152147,32.759998,100.730003,-24.01,1729428907383.0,0.0
-2.474179,-6.022735,-2.54357,16.450001,90.790001,-20.93,1729428907403.0,0.0
-0.311067,-2.318645,-3.211168,-33.18,69.230003,-23.030001,1729428907422.0,0.0
4.041477,-8.181061,1.540978,-15.12,60.619999,30.73,1729428907443.0,0.0
-0.540778,-10.41835,3.227918,122.5,5.39,23.52,1729428907462.0,0.0
-3.632305,-11.133803,-1.462015,24.360001,-41.369999,-6.23,1729428907482.0,0.0
-0.976272,-8.69791,-4.59422,-20.16,-56.0,-15.190001,1729428907502.0,0.0
-2.256432,-9.923036,-6.235696,-53.900002,-54.18,-17.5,1729428907522.0,0.0
-2.328217,-9.272188,-7.721639,-26.460001,-47.459999,-15.4,1729428907542.0,0.0
-1.892723,-5.678168,-6.113662,9.45,-35.0,-10.57,1729428907564.0,0.0
-0.658026,-6.257231,-4.144369,55.93,-45.5,8.05,1729428907582.0,0.0
-2.478964,-7.858029,-4.022335,115.57,-47.880001,19.950001,1729428907603.0,0.0
-6.331409,-10.554741,-4.4674,51.310001,-39.900002,3.5,1729428907622.0,0.0
-4.902894,-9.035298,-6.111269,-52.849998,-49.700001,-11.69,1729428907641.0,0.0
-4.426722,-9.812965,-8.382057,-76.93,-32.27,-16.450001,1729428907663.0,0.0
-6.506085,-6.754939,-12.823137,-76.580002,6.93,-22.049999,1729428907682.0,0.0
-3.744767,-7.058826,-14.42872,-49.420002,52.290001,-6.09,1729428907703.0,0.0
-3.986443,-7.649854,-9.865608,-7.77,97.440002,2.73,1729428907722.0,0.0
-5.584848,-7.01097,-6.821937,18.34,124.25,-12.32,1729428907742.0,0.0
-3.242275,-6.800402,-5.491528,-35.209999,111.300003,-21.559999,1729428907761.0,0.0
-0.277567,-1.246661,-0.277567,-5.67,76.580002,-23.309999,1729428907782.0,0.0
4.039084,-4.728218,5.632704,67.970001,17.360001,24.710001,1729428907802.0,0.0
0.385244,-10.738988,3.349952,126.349998,-11.48,28.0,1729428907823.0,0.0
-2.512464,-11.444871,-1.586441,28.630001,-47.810001,0.49,1729428907843.0,0.0
-0.619741,-9.327222,-5.134997,-50.82,-62.650002,-5.74,1729428907861.0,0.0
-1.986043,-10.332209,-6.912865,-109.480003,-66.919998,-15.05,1729428907882.0,0.0
-2.445465,-7.910671,-8.403593,-61.040001,-60.830002,-13.02,1729428907904.0,0.0
-1.363909,-6.635297,-6.78126,16.1,-49.77,-1.68,1729428907922.0,0.0
-2.26361,-7.046863,-5.79063,74.760002,-46.200001,9.03,1729428907944.0,0.0
-5.029713,-8.372486,-6.541977,63.490002,-32.830002,4.83,1729428907962.0,0.0
-5.639884,-8.056634,-6.879365,-16.940001,-21.07,-10.5,1729428907984.0,0.0
-4.766503,-5.290531,-10.470992,-116.620003,-9.52,-20.790001,1729428908013.0,0.0
-2.199004,-4.898108,-14.869,-190.190002,17.360001,-12.81,1729428908022.0,0.0
-2.639283,-7.992027,-15.919449,-185.779999,63.420002,-4.48,1729428908042.0,0.0
-5.096712,-9.631111,-9.336794,-71.75,114.660004,16.030001,1729428908061.0,0.0
-3.883551,-8.341379,-8.015956,65.239998,128.589996,9.03,1729428908083.0,0.0
-1.591227,-5.970093,-1.928615,70.769997,125.860001,-9.03,1729428908102.0,0.0
1.533799,-4.271189,3.661019,4.2,77.209999,-17.08,1729428908121.0,0.0
5.300103,-5.536992,7.034898,70.559998,-7.98,20.370001,1729428908141.0,0.0
-1.445265,-9.801002,-0.81356,97.090004,-23.52,26.67,1729428908162.0,0.0
-3.266203,-11.239087,-3.584448,36.75,-56.209999,0.35,1729428908181.0,0.0
-0.713061,-8.508877,-5.553742,3.43,-68.809998,3.92,1729428908204.0,0.0
-2.988636,-11.004591,-8.382057,-73.639999,-69.090004,-8.33,1729428908222.0,0.0
-3.029313,-8.786445,-8.772088,-65.519997,-59.57,-16.870001,1729428908241.0,0.0
-1.117448,-2.340181,-7.558927,-18.76,-48.23,-4.27,1729428908262.0,0.0
0.320638,-5.694918,-7.312466,58.939999,-57.049999,20.93,1729428908283.0,0.0
-1.146162,-7.915457,-5.661418,190.190002,-45.43,30.799999,1729428908302.0,0.0
-9.102298,-8.106883,1.421337,163.940002,-19.389999,21.84,1729428908323.0,0.0
-6.678369,-9.600004,-4.319045,33.459999,-52.639999,30.870001,1729428908341.0,0.0
-4.919643,-9.487542,-8.798409,-109.970001,-47.25,-5.39,1729428908363.0,0.0
-5.474778,-9.49472,-13.282558,-135.309998,-23.59,-13.79,1729428908383.0,0.0
-5.252246,-7.843673,-14.924035,-64.610001,28.42,0.56,1729428908402.0,0.0
-3.821337,-7.484749,-12.294323,-40.529999,79.379997,-3.64,1729428908421.0,0.0
-3.448057,-7.915457,-9.786645,-42.84,116.970001,-12.74,1729428908496.0,0.0
-0.181855,-6.273981,1.715654,-26.74,112.0,-17.99,1729428908498.0,0.0
0.930808,-2.273181,-1.816152,8.54,80.290001,-11.48,1729428908502.0,0.0
5.647062,-5.173282,8.305488,130.830002,26.530001,36.889999,1729428908504.0,0.0
-0.5001,-11.85165,5.056034,122.709999,-11.76,20.440001,1729428908521.0,0.0
-3.09392,-10.983055,-0.784846,-29.120001,-66.290001,-22.960001,1729428908541.0,0.0
0.674776,-7.846066,-5.551349,-83.300003,-87.849998,-20.719999,1729428908561.0,0.0
-1.785046,-10.683953,-7.982457,-110.809998,-86.940002,-14.42,1729428908581.0,0.0
-3.696911,-7.295716,-7.590034,-63.349998,-71.75,-8.82,1729428908602.0,0.0
-1.009771,-4.481757,-5.91745,24.290001,-69.580002,19.530001,1729428908622.0,0.0
-3.773481,-7.219146,-5.391029,80.080002,-63.139999,33.110001,1729428908641.0,0.0
-8.583055,-7.578069,-4.898108,65.169998,-46.549999,19.389999,1729428908661.0,0.0
-5.723632,-8.997013,-6.943972,-10.5,-48.23,15.68,1729428908682.0,0.0
-5.103891,-7.905886,-10.504492,-96.389999,-41.790001,-6.09,1729428908705.0,0.0
-4.596612,-5.860023,-14.641682,-122.779999,-17.5,-10.01,1729428908721.0,0.0
-3.567699,-7.243074,-16.718651,-99.120003,31.99,3.71,1729428908741.0,0.0
-3.515057,-8.573483,-13.48834,-19.74,86.800003,7.42,1729428908761.0,0.0
-4.342973,-5.788238,-8.140383,51.799999,130.059998,-4.69,1729428908781.0,0.0
-0.722632,-9.990034,2.672783,-37.099998,102.059998,-21.42,1729428908804.0,0.0
0.098106,-4.65404,-2.258825,3.64,65.379997,-31.360001,1729428908821.0,0.0
3.996014,-6.640083,4.907679,59.639999,18.969999,9.24,1729428908841.0,0.0
0.89013,-10.628918,1.275374,116.760002,-19.460001,9.03,1729428908861.0,0.0
-3.955336,-11.07159,-2.553142,29.82,-47.18,-19.530001,1729428908882.0,0.0
-1.244268,-8.4347,-5.862415,-20.860001,-74.199997,-20.299999,1729428908903.0,0.0
-2.622534,-9.150154,-6.84108,-53.970001,-74.199997,-21.139999,1729428908921.0,0.0
-3.622734,-4.103691,-8.410772,-96.529999,-64.190002,-32.549999,1729428908941.0,0.0
-0.229711,-6.929615,-9.298509,-45.849998,-71.540001,-0.77,1729428908961.0,0.0
-2.105684,-6.288338,-7.465607,117.529999,-55.650002,9.24,1729428908984.0,0.0
-3.062813,-3.979264,-6.640083,224.279999,-34.720001,20.58,1729428909003.0,0.0
-5.900701,-7.537392,-3.869194,67.830002,-26.880001,14.63,1729428909021.0,0.0
-4.685147,-9.810574,-6.281159,-74.900002,-50.75,6.23,1729428909042.0,0.0
-6.111269,-9.614362,-10.765309,-121.940002,-39.48,-9.45,1729428909060.0,0.0
-6.62094,-6.865008,-15.955342,-138.600006,12.53,-21.07,1729428909081.0,0.0
-2.744568,-8.147561,-14.579469,-83.790001,59.43,3.22,1729428909102.0,0.0
-4.292724,-4.338188,-9.552148,13.51,97.650002,-17.43,1729428909120.0,0.0
-2.361716,-7.049256,-13.600803,-28.280001,112.0,-7.07,1729428909140.0,0.0
-0.473779,-8.650054,-8.80798,2.66,126.489998,-11.34,1729428909161.0,0.0
0.935594,-3.029313,-2.019542,265.720001,125.300003,14.35,1729428909181.0,0.0
-0.55992,-0.0335,8.982656,219.029999,97.300003,17.99,1729428909214.0,0.0
0.375673,-9.186047,9.707682,88.059998,-2.31,29.889999,1729428909221.0,0.0
-3.905087,-14.191832,1.658226,-34.509998,-63.77,-10.57,1729428909242.0,0.0
-2.222932,-10.346564,-5.63749,-108.919998,-89.040001,-31.99,1729428909262.0,0.0
-1.51705,-10.650455,-9.188439,-195.300003,-83.720001,-34.650002,1729428909281.0,0.0
-1.945365,-8.891729,-10.803595,-162.610001,-55.369999,-31.85,1729428909303.0,0.0
0.014357,-4.898108,-8.020741,3.15,-27.23,-5.04,1729428909321.0,0.0
-1.22034,-5.630312,-4.931608,111.300003,-24.57,23.870001,1729428909341.0,0.0
-2.667997,-6.958328,-6.556334,161.910004,-29.82,30.030001,1729428909360.0,0.0
-5.111069,-8.9348,-6.142376,86.099998,-26.110001,15.33,1729428909381.0,0.0
-4.165904,-9.200402,-7.719246,2.94,-39.200001,-1.96,1729428909404.0,0.0
-2.9336,-7.410572,-9.300901,-24.290001,-24.360001,-12.11,1729428909423.0,0.0
-4.37408,-7.534998,-14.280365,-45.920002,3.57,-9.03,1729428909442.0,0.0
-4.338188,-6.774081,-12.923635,-63.98,79.800003,10.5,1729428909461.0,0.0
-5.838487,-6.750153,-15.735202,-125.230003,131.110001,-1.68,1729428909481.0,0.0
-2.002793,-8.776874,-11.542977,-74.760002,153.509995,3.36,1729428909502.0,0.0
0.471386,-2.35693,1.933401,145.25,148.119995,14.63,1729428909520.0,0.0
2.778067,-2.603391,6.721439,90.790001,104.230003,9.66,1729428909542.0,0.0
0.512064,-5.142176,8.901299,38.990002,23.52,23.450001,1729428909560.0,0.0
-0.760918,-12.461821,8.901299,31.360001,-24.639999,23.799999,1729428909583.0,0.0
-3.266203,-12.59821,-3.952943,-5.88,-40.810001,-0.77,1729428909601.0,0.0
-0.973879,-8.827123,-6.427122,-40.18,-44.59,-15.26,1729428909622.0,0.0
-0.832702,-8.413164,-9.327222,-39.41,-43.259998,-9.8,1729428909641.0,0.0
-1.268196,-7.463214,-9.784252,-3.71,-31.5,-6.37,1729428909660.0,0.0
-1.040878,-5.644669,-8.499306,46.48,-16.940001,1.33,1729428909680.0,0.0
-1.574477,-5.261817,-6.723832,50.400002,-5.88,8.75,1729428909705.0,0.0
-1.708475,-6.795617,-5.9342,18.969999,-5.18,9.38,1729428909721.0,0.0
-1.328017,-7.724032,-5.161318,-10.01,-9.24,3.5,1729428909740.0,0.0
-2.091327,-9.059227,-3.95055,-27.23,-21.07,-2.8,1729428909760.0,0.0
-2.498107,-8.025528,-5.328816,-18.690001,-33.389999,-9.24,1729428909782.0,0.0
-3.146562,-7.936993,-5.254639,-63.700001,-31.01,-13.37,1729428909812.0,0.0
-2.830709,-8.752945,-5.331209,-112.07,-35.349998,-15.61,1729428909821.0,0.0
-2.380858,-9.343972,-4.500899,-97.230003,-40.529999,-17.360001,1729428909840.0,0.0
-3.125026,-8.298308,-4.826324,-103.25,-48.439999,-30.24,1729428909862.0,0.0
-3.096312,-8.319844,-6.886543,-129.990005,-60.130001,-41.299999,1729428909883.0,0.0
-3.68734,-8.685946,-8.204988,-140.910004,-60.060001,-56.279999,1729428909902.0,0.0
-3.720839,-5.907879,-7.348359,-119.279999,-53.27,-60.760002,1729428909922.0,0.0
-4.208975,-3.768696,-9.123833,-107.660004,-34.23,-42.84,1729428909940.0,0.0
-3.510271,-7.235896,-10.526026,-47.18,-11.97,3.92,1729428909962.0,0.0
-2.112862,-7.551748,-7.640282,83.230003,3.57,35.209999,1729428909983.0,0.0
-3.165704,-3.254239,-6.989435,96.040001,18.200001,42.349998,1729428910003.0,0.0
-1.895115,-2.871387,-9.535398,-29.33,17.780001,48.16,1729428910020.0,0.0
-0.095713,-3.041277,-11.066804,-112.209999,18.059999,52.779999,1729428910040.0,0.0
0.265603,-3.9338,-11.196017,-108.849998,23.1,62.23,1729428910062.0,0.0
0.851845,-5.211568,-11.188839,-75.529999,35.77,68.459999,1729428910081.0,0.0
0.89013,-5.13739,-9.812965,-36.610001,50.610001,61.25,1729428910103.0,0.0
-0.09332,-6.405586,-8.989835,-21.77,56.560001,51.939999,1729428910120.0,0.0
-0.526421,-6.144768,-9.111869,2.17,51.240002,41.02,1729428910140.0,0.0
-2.057827,-6.515656,-7.424929,24.639999,53.549999,38.779999,1729428910162.0,0.0
-2.500499,-6.750153,-6.793223,78.540001,38.639999,52.150002,1729428910181.0,0.0
-3.251846,-5.048856,-6.302694,99.120003,31.780001,57.959999,1729428910201.0,0.0
-3.290131,-4.852644,-8.465806,69.720001,23.940001,63.139999,1729428910221.0,0.0
-2.029114,-6.793223,-9.38465,42.560001,18.620001,58.939999,1729428910241.0,0.0
-2.141576,-5.718846,-10.243673,70.489998,25.34,51.310001,1729428910262.0,0.0
-2.610569,-5.76431,-11.085947,86.449997,39.830002,40.599998,1729428910282.0,0.0
-2.385644,-5.785845,-10.437491,83.860001,50.610001,20.65,1729428910301.0,0.0
-3.199204,-4.811966,-9.49472,73.080002,63.700001,-5.67,1729428910321.0,0.0
-2.773281,-4.673182,-11.966506,44.029999,71.470001,-26.67,1729428910341.0,0.0
-2.0004,-5.493921,-9.925428,37.380001,83.090004,-42.91,1729428910368.0,0.0
-0.086142,-4.567898,-7.020542,67.410004,73.919998,-56.560001,1729428910381.0,0.0
1.493121,-5.647062,-5.099105,125.440002,64.959999,-73.080002,1729428910401.0,0.0
-0.198604,-6.398407,-1.852045,156.660004,53.970001,-82.25,1729428910423.0,0.0
-3.902694,-7.441679,-2.249253,199.289993,35.77,-69.580002,1729428910440.0,0.0
-0.658026,-11.24866,0.337388,405.860016,-26.25,-16.66,1729428910462.0,0.0
-2.213361,-6.139983,4.752146,559.090027,-49.700001,23.17,1729428910481.0,0.0
-9.506684,-7.298109,-0.535992,367.709991,-21.98,26.880001,1729428910501.0,0.0
-1.65344,-9.41815,-3.952943,126.279999,-62.790001,18.9,1729428910520.0,0.0
0.629312,-8.245667,-1.036092,12.88,-1.12,43.330002,1729428910542.0,0.0
-1.679761,-10.021141,1.031307,-104.230003,25.969999,48.650002,1729428910562.0,0.0
-1.828116,-11.251052,1.51705,-262.360016,12.04,30.380001,1729428910581.0,0.0
-0.552742,-10.047462,-0.445065,-378.839996,-11.69,14.63,1729428910603.0,0.0
1.196411,-7.769495,-5.551349,-428.679993,-33.389999,-5.6,1729428910622.0,0.0
2.632105,-9.480364,-8.504091,-337.75,-49.490002,-4.9,1729428910641.0,0.0
1.663012,-9.131011,-9.956534,-182.699997,-26.18,-1.05,1729428910662.0,0.0
0.050249,-5.314459,-10.30828,-100.519997,4.48,-2.45,1729428910682.0,0.0
-0.89013,-4.182654,-10.815558,-58.939999,19.25,15.61,1729428910705.0,0.0
0.031107,-3.914658,-14.572289,-69.160004,36.400002,18.48,1729428910722.0,0.0
-1.18684,-4.173083,-12.784851,-86.660004,76.510002,26.530001,1729428910743.0,0.0
-2.658426,-8.142776,-4.35733,-51.099998,90.440002,22.960001,1729428910763.0,0.0
-2.026721,-7.372287,-4.677969,-54.670002,55.720001,-21.280001,1729428910782.0,0.0
-0.717847,-5.398208,-8.865408,-28.91,44.170002,-64.330002,1729428910804.0,0.0
2.871387,-8.834301,-4.723432,29.82,31.5,-70.139999,1729428910823.0,0.0
1.715654,-10.085747,-1.37348,78.190002,20.23,-67.760002,1729428910843.0,0.0
-0.612563,-8.147561,-5.096712,129.009995,-13.16,-82.459999,1729428910862.0,0.0
0.631705,-8.374879,-2.103291,237.020004,-36.470001,-52.5,1729428910882.0,0.0
-1.739582,-9.695717,-0.701097,289.589996,-58.73,-7.28,1729428910904.0,0.0
-4.311867,-10.459028,0.476172,242.759995,-62.02,8.47,1729428910922.0,0.0
-3.799802,-8.362915,-4.302295,106.540001,-66.57,23.66,1729428910942.0,0.0
-2.718246,-10.516455,-5.288138,70.07,-53.760002,55.439999,1729428910962.0,0.0
-2.249253,-12.703495,-6.245267,91.559998,-18.48,67.690002,1729428910986.0,0.0
-2.383251,-11.155338,-1.761117,49.07,15.190001,55.439999,1729428911002.0,0.0
-1.978864,-8.425128,-0.746561,-159.180008,11.97,23.59,1729428911022.0,0.0
1.069592,-6.345766,-5.242674,-346.290009,-22.82,-2.8,1729428911043.0,0.0
3.646662,-6.18784,-10.145569,-339.429993,-38.779999,5.18,1729428911061.0,0.0
1.09352,-6.431907,-9.363115,-148.399994,-4.34,20.51,1729428911087.0,0.0
0.29671,-3.005385,-9.638289,-143.570007,9.03,7.84,1729428911106.0,0.0
0.057428,-5.381458,-10.315458,-130.690002,1.05,25.129999,1729428911122.0,0.0
0.035892,-5.79781,-9.47797,-78.68,9.1,22.469999,1729428911141.0,0.0
-1.792224,-4.718646,-7.724032,-27.51,18.41,17.360001,1729428911162.0,0.0
-2.658426,-6.022735,-6.082555,-15.68,13.440001,-1.96,1729428911183.0,0.0
-1.641476,-8.85823,-7.633104,7.07,-5.88,-27.440001,1729428911204.0,0.0
-0.543171,-5.393422,-10.346564,17.99,-11.97,-68.459999,1729428911221.0,0.0
-0.258425,-1.514657,-8.776874,65.870003,-3.43,-70.209999,1729428911241.0,0.0
-2.648855,-6.221339,-0.382852,119.489998,-12.46,-44.59,1729428911262.0,0.0
-3.321238,-4.063013,-6.372087,191.100006,-52.290001,-44.099998,1729428911283.0,0.0
-0.662812,-5.175675,-3.180061,323.820007,-73.360001,-0.07,1729428911304.0,0.0
-5.216353,-2.529213,-1.777867,105.559998,-73.5,23.52,1729428911322.0,0.0
-4.457829,-12.272788,-5.407779,35.630001,-82.18,36.82,1729428911341.0,0.0
-4.524827,-10.437491,-4.103691,129.570007,-51.380001,88.340004,1729428911362.0,0.0
-5.65424,-10.006784,-2.70389,70.209999,-33.950001,78.68,1729428911383.0,0.0
-3.402594,-9.51147,-4.041477,-112.0,-43.82,61.880001,1729428911404.0,0.0
-1.043271,-10.499706,-10.219746,-176.680008,-57.260002,41.299999,1729428911421.0,0.0
0.323031,-9.29133,-10.059426,-52.080002,-43.889999,44.170002,1729428911442.0,0.0
-1.162912,-4.173083,-9.970891,0.21,-10.08,35.91,1729428911462.0,0.0
-1.741975,-4.122833,-10.334601,-61.599998,6.51,54.810001,1729428911482.0,0.0
-0.227318,-8.365308,-11.306087,-102.830002,2.52,55.510002,1729428911503.0,0.0
-0.981057,-6.611369,-9.504292,-6.72,18.200001,45.779999,1729428911520.0,0.0
-4.606184,-5.075177,-7.491928,67.550003,39.41,46.200001,1729428911542.0,0.0
-5.15414,-4.455436,-5.587241,46.900002,37.450001,32.130001,1729428911563.0,0.0
-4.572684,-5.745167,-6.568298,17.92,25.34,20.09,1729428911582.0,0.0
-4.929214,-5.580062,-10.095319,12.18,33.670002,4.55,1729428911604.0,0.0
-3.215954,-7.310073,-4.321437,14.49,39.060001,-24.5,1729428911622.0,0.0
-3.799802,-11.356337,1.478764,-97.720001,-7.0,-64.540001,1729428911641.0,0.0
-8.001599,-11.894722,-8.743374,-134.820007,-43.400002,-106.959999,1729428911661.0,0.0
-3.029313,-0.48335,-15.227923,71.120003,-16.59,-93.660004,1729428911683.0,0.0
-1.820938,-8.226524,-1.378266,38.57,-1.61,-59.080002,1729428911703.0,0.0
-7.601997,-9.844072,-5.910272,18.9,-34.650002,-51.310001,1729428911721.0,0.0
-2.778067,-0.870987,0.892523,158.830002,-16.73,-9.87,1729428911743.0,0.0
-4.855037,-8.133204,-5.046463,2.24,-26.6,20.860001,1729428911761.0,0.0
-3.189633,-8.532805,-5.201996,32.689999,-18.200001,53.689999,1729428911781.0,0.0
-4.84068,-8.49452,-2.184647,-45.920002,-14.77,31.43,1729428911803.0,0.0
-4.412365,-11.07159,-7.32443,-133.070007,-34.93,25.129999,1729428911821.0,0.0
-2.459821,-7.566105,-7.965706,-88.760002,-28.559999,18.620001,1729428911842.0,0.0
-2.041078,-5.659025,-9.559326,-61.459999,-11.69,21.49,1729428911862.0,0.0
-2.68714,-6.178268,-8.561519,-23.450001,-4.06,49.700001,1729428911882.0,0.0
-2.474179,-4.792823,-8.559127,25.27,3.78,57.330002,1729428911902.0,0.0
-2.333002,-1.813759,-10.066606,35.349998,17.5,59.57,1729428911921.0,0.0
1.502693,-5.089533,-10.162319,61.880001,23.66,71.400002,1729428911942.0,0.0
-1.861616,-7.590034,-7.676175,59.849998,50.189999,74.129997,1729428911961.0,0.0
-4.086941,-6.649654,-5.809773,57.889999,47.18,40.040001,1729428911984.0,0.0
-4.632504,-1.868794,-2.498107,78.400002,25.690001,26.18,1729428912002.0,0.0
-6.123233,-1.682154,-3.347559,-36.610001,12.32,5.04,1729428912022.0,0.0
-4.199404,-8.413164,-6.431907,-187.460007,-10.22,-6.65,1729428912042.0,0.0
-5.659025,-17.266607,-11.535798,-243.809998,-30.24,-55.510002,1729428912063.0,0.0
-3.017349,-11.47837,-8.109276,99.190002,-0.21,-90.510002,1729428912083.0,0.0
-6.73101,-3.249453,-6.372087,238.070007,24.15,-58.52,1729428912103.0,0.0
-4.06062,-7.176075,-0.004786,93.099998,-1.89,-56.490002,1729428912121.0,0.0
-4.943572,-9.209974,-6.441479,79.379997,-44.029999,-34.720001,1729428912142.0,0.0
-1.45005,-8.286345,-1.844866,273.209991,-17.780001,-12.04,1729428912161.0,0.0
-6.422336,-6.075377,-1.213161,234.009995,3.29,27.65,1729428912181.0,0.0
-4.529613,-8.721838,-4.756931,154.070007,-13.16,27.440001,1729428912202.0,0.0
-1.785046,-9.705289,-4.177868,95.129997,-7.56,26.110001,1729428912221.0,0.0
-4.572684,-9.963714,-4.168297,49.349998,-5.53,22.889999,1729428912242.0,0.0
-5.053641,-8.38445,-4.007978,9.66,3.29,13.51,1729428912261.0,0.0
-3.98405,-7.534998,-2.141576,-70.699997,0.91,21.700001,1729428912282.0,0.0
-2.943172,-7.537392,-4.579862,-154.559998,4.76,10.99,1729428912303.0,0.0
-2.380858,-6.884151,-5.91745,-176.75,8.4,20.65,1729428912322.0,0.0
-3.476771,-8.154739,-4.589434,-157.5,20.09,36.259998,1729428912341.0,0.0
-3.050849,-5.893522,-7.977671,-140.419998,4.76,23.940001,1729428912360.0,0.0
-1.811367,-7.65464,-7.826923,-47.740002,2.38,22.960001,1729428912381.0,0.0
-4.113262,-4.070191,-6.376873,-24.57,3.57,21.139999,1729428912452.0,0.0
-7.020542,-4.644469,-8.693125,-76.160004,-7.98,1.47,1729428912457.0,0.0
-6.687939,-6.173482,-10.913664,-109.620003,-11.13,-42.0,1729428912459.0,0.0
-5.740381,-7.334002,-10.583455,-74.340004,-6.65,-75.25,1729428912460.0,0.0
-2.787638,-3.314059,-8.451449,-11.48,8.96,-93.730003,1729428912481.0,0.0
-2.335395,-6.003592,-2.033899,35.420002,12.95,-89.32,1729428912502.0,0.0
-3.010171,-10.356135,-8.690732,0.14,3.22,-86.099998,1729428912522.0,0.0
-2.426322,-5.101498,-2.651247,269.640015,6.51,-33.950001,1729428912542.0,0.0
-5.65424,-4.37408,5.465207,296.940002,4.13,10.57,1729428912561.0,0.0
-7.06122,-10.516455,-1.684547,127.120003,-38.290001,14.7,1729428912582.0,0.0
-2.486143,-12.028719,-1.351945,56.209999,-37.73,6.72,1729428912604.0,0.0
-6.039484,-8.764909,-3.656233,24.710001,-11.2,29.540001,1729428912621.0,0.0
-4.675575,-9.856036,-3.663411,-78.82,-11.27,17.92,1729428912643.0,0.0
-2.955136,-8.726624,-3.105884,-132.649994,-6.93,15.54,1729428912661.0,0.0
-3.414558,-7.987241,-5.635098,-172.759995,-10.29,14.42,1729428912683.0,0.0
-3.129812,-8.425128,-7.611568,-98.489998,-7.84,21.98,1729428912706.0,0.0
-2.586641,-5.048856,-9.044869,-63.139999,8.26,20.65,1729428912723.0,0.0
-3.620341,-6.202196,-9.212367,-47.880001,17.5,35.77,1729428912742.0,0.0
-1.387837,-2.361716,-12.801601,-12.04,26.25,42.07,1729428912763.0,0.0
-2.002793,-5.369494,-7.838887,62.650002,50.400002,62.93,1729428912783.0,0.0
-0.949951,-2.366502,-7.886744,20.440001,60.41,36.959999,1729428912805.0,0.0
-2.179861,-3.883551,-7.793423,-61.32,64.260002,39.060001,1729428912823.0,0.0
-3.570091,-4.151547,-8.982656,-107.169998,59.990002,11.55,1729428912842.0,0.0
-6.001199,-10.224532,4.76411,-47.810001,49.279999,11.55,1729428912863.0,0.0
-8.197811,-13.397413,6.522834,-45.360001,-22.190001,-31.219999,1729428912883.0,0.0
-5.431707,-5.008178,-6.101698,-156.869995,-76.790001,-90.650002,1729428912905.0,0.0
-3.385844,-9.341579,-12.203396,-157.149994,-74.690002,-64.610001,1729428912924.0,0.0
-5.898308,-10.535598,-12.820745,-91.209999,-22.960001,-43.330002,1729428912943.0,0.0
-4.85743,-1.194018,-13.490734,5.95,-16.450001,-46.549999,1729428912962.0,0.0
-1.885544,3.242275,-11.97847,29.68,-6.16,-31.360001,1729428912985.0,0.0
-5.003392,-4.993821,-9.482756,-73.779999,3.92,8.26,1729428913005.0,0.0
-5.333601,-10.715059,-6.051448,-71.959999,-14.91,5.95,1729428913023.0,0.0
-5.9342,-4.938786,-5.946165,20.16,-15.68,-19.389999,1729428913043.0,0.0
-5.041678,-8.788837,-7.453642,1.33,-21.139999,-1.05,1729428913063.0,0.0
-3.39063,-11.38505,-9.12144,-65.239998,-16.379999,-22.68,1729428913083.0,0.0
-3.09392,-10.762917,-9.415757,-5.04,-4.69,-23.52,1729428913103.0,0.0
-2.868994,-6.175875,-8.343772,97.580002,5.95,-17.360001,1729428913127.0,0.0
-3.481557,-4.108476,-7.532606,117.739998,11.13,1.33,1729428913143.0,0.0
-3.555735,-5.592027,-8.84148,67.970001,16.030001,6.65,1729428913162.0,0.0
-3.412165,-4.965107,-10.38485,28.49,37.939999,7.63,1729428913184.0,0.0
-1.861616,-1.892723,-12.380465,31.43,47.25,19.040001,1729428913204.0,0.0
0.394816,1.811367,-10.784451,158.339996,65.660004,56.91,1729428913223.0,0.0
-1.976472,5.876772,-8.02792,206.710007,96.389999,119.629997,1729428913243.0,0.0
-3.29731,-2.62732,-4.926822,34.720001,102.690002,132.509995,1729428913263.0,0.0
-6.068198,-10.150353,2.151148,-141.820007,55.720001,91.07,1729428913284.0,0.0
-6.331409,-11.169697,-5.656632,-197.75,-6.93,-6.09,1729428913304.0,0.0
-3.675375,-8.226524,-17.536997,-114.520004,-23.52,-76.650002,1729428913333.0,0.0
-2.809174,-8.30788,-6.252446,28.280001,20.370001,-82.459999,1729428913344.0,0.0
-5.548956,-5.180461,-4.053442,-21.0,26.18,-88.620003,1729428913363.0,0.0
-6.288338,-5.800202,-12.897314,33.110001,17.639999,-88.690002,1729428913384.0,0.0
-0.122034,0.930808,-5.819345,252.210007,18.83,-46.689999,1729428913403.0,0.0
-1.201197,1.868794,-1.875973,271.110016,32.130001,26.25,1729428913423.0,0.0
-5.558527,-14.75893,-1.572084,24.639999,22.610001,13.23,1729428913494.0,0.0
-8.16431,-14.476578,-1.624727,-123.690002,-7.98,-27.790001,1729428913494.0,0.0
-6.884151,-9.420543,-2.644069,12.11,-31.360001,-17.639999,1729428913494.0,0.0
-5.075177,-5.819345,-1.974079,63.349998,-22.190001,-4.41,1729428913504.0,0.0
-5.108676,-7.850852,-2.895315,-38.779999,-26.880001,19.110001,1729428913540.0,0.0
-4.429115,-10.186246,-2.562713,-117.389999,-47.389999,11.76,1729428913543.0,0.0
-2.304288,-7.501499,-7.345965,-142.660004,-62.580002,-7.91,1729428913562.0,0.0
-2.507678,-4.45065,-12.899707,-137.970001,-47.389999,-4.83,1729428913584.0,0.0
0.823131,-3.78066,-15.634703,-71.400002,-36.959999,12.74,1729428913604.0,0.0
0.504886,-2.888137,-13.71566,62.93,11.83,48.509998,1729428913623.0,0.0
-0.612563,0.926022,-12.653246,71.75,48.02,58.029999,1729428913643.0,0.0
0.957129,-4.285545,-12.303895,58.59,54.599998,64.68,1729428913663.0,0.0
-7.84128,-3.048456,-1.581656,49.279999,69.650002,27.65,1729428913683.0,0.0
-7.4345,-8.630912,-5.845665,-55.23,38.009998,-27.299999,1729428913704.0,0.0
-1.249053,-7.460821,-8.583055,-85.330002,13.440001,-65.519997,1729428913724.0,0.0
0.39003,-6.455836,-6.776474,-47.740002,23.17,-58.170002,1729428913741.0,0.0
-1.208375,-11.408978,-4.95075,43.959999,33.25,-21.77,1729428913762.0,0.0
-3.730411,-8.303094,-3.474378,115.5,21.77,-3.78,1729428913784.0,0.0
-4.642076,1.232304,-5.335995,102.970001,9.73,15.68,1729428913803.0,0.0
-7.24786,-9.942179,-3.469593,32.689999,-0.49,54.459999,1729428913822.0,0.0
-6.470192,-14.711074,-3.335595,-94.849998,-28.77,4.34,1729428913842.0,0.0
-5.529813,-9.915856,-5.910272,-132.160004,-49.0,-34.790001,1729428913863.0,0.0
-5.589634,-7.348359,-5.881558,-131.740005,-40.810001,-44.170002,1729428913883.0,0.0
-5.07757,-7.250252,-8.099705,-100.870003,-36.470001,-23.59,1729428913903.0,0.0
-4.132405,-5.726025,-9.023334,-73.220001,-27.65,-18.690001,1729428913924.0,0.0
-3.385844,-5.883951,-9.846465,-54.32,-18.41,-16.799999,1729428913943.0,0.0
-2.139183,-4.376472,-10.30828,-38.920002,-4.62,-22.33,1729428913962.0,0.0
-1.342373,1.488336,-9.638289,42.560001,-2.87,4.69,1729428913986.0,0.0
-2.569891,-1.26341,-7.762317,125.650002,15.75,45.5,1729428914002.0,0.0
-1.981257,-4.15394,-7.786245,3.01,6.86,53.760002,1729428914023.0,0.0
-0.547956,-6.666404,-8.015956,-22.75,6.79,42.560001,1729428914043.0,0.0
-1.68694,-5.041678,-8.315059,5.04,11.48,24.290001,1729428914062.0,0.0
-3.101098,-4.800002,-8.109276,5.04,16.799999,22.75,1729428914083.0,0.0
-1.990828,-6.223732,-10.124033,-29.190001,15.68,13.79,1729428914112.0,0.0
-0.981057,-4.06062,-15.35235,-17.219999,22.120001,6.58,1729428914122.0,0.0
-3.471986,-3.002992,-13.316057,114.309998,59.43,27.02,1729428914142.0,0.0
-8.85823,-7.910671,-2.902494,206.080002,50.82,28.49,1729428914327.0,0.0
-4.027121,-9.250652,-4.149154,98.489998,21.139999,-63.139999,1729428914327.0,0.0
-0.768096,-7.396214,-4.529613,9.73,-7.63,-99.330002,1729428914327.0,0.0
-2.581856,-4.924429,-8.006385,1.96,23.450001,-89.110001,1729428914328.0,0.0
-3.809374,-1.138984,-8.597411,203.279999,28.630001,-7.07,1729428914328.0,0.0
-2.897708,-13.423735,6.139983,268.799988,12.74,22.049999,1729428914328.0,0.0
-7.343572,-8.889337,3.718446,60.970001,-23.450001,-36.959999,1729428914328.0,0.0
-4.271189,-14.203795,-5.903094,32.689999,-110.040001,-27.23,1729428914328.0,0.0
-0.397209,-12.981063,-9.068797,286.160004,-113.190002,-9.94,1729428914329.0,0.0
-5.216353,-7.21436,0.306281,549.710022,-31.710001,28.139999,1729428914341.0,0.0
-8.054241,-3.854837,3.067599,443.799988,19.040001,62.439999,1729428914361.0,0.0
-7.463214,-6.805188,2.227718,144.759995,-6.16,29.120001,1729428914382.0,0.0
-4.496114,-12.045469,-1.698904,-45.920002,-75.18,-1.75,1729428914401.0,0.0
-3.117848,-13.797016,-2.400001,26.460001,-48.02,0.49,1729428914421.0,0.0
-1.964507,-11.339586,-1.414158,181.649994,-24.5,-4.27,1729428914448.0,0.0
-1.31366,-9.939785,-0.89013,247.520004,-0.42,-7.07,1729428914462.0,0.0
-0.717847,-9.583255,-0.952343,227.5,6.72,-12.53,1729428914481.0,0.0
-1.124627,-9.647861,-0.602991,227.570007,17.43,-15.05,1729428914502.0,0.0
-0.851845,-9.934999,1.665405,276.98999,31.85,-20.23,1729428914520.0,0.0
-1.679761,-8.867801,3.24706,279.579987,43.82,-35.279999,1729428914541.0,0.0
-1.265803,-9.004191,2.402394,264.529999,30.73,-51.799999,1729428914561.0,0.0
-1.478764,-9.188439,3.110669,295.26001,47.529999,-61.599998,1729428914581.0,0.0
-2.63689,-6.783652,5.79063,348.040009,60.689999,-62.580002,1729428914603.0,0.0
-3.471986,-4.800002,7.587641,361.899994,58.52,-61.459999,1729428914622.0,0.0
-4.292724,-3.646662,8.300702,308.0,38.009998,-66.290001,1729428914642.0,0.0
-5.912664,-0.102891,10.224532,232.050003,19.18,-42.560001,1729428914662.0,0.0
-4.326223,-2.708675,9.796216,165.690002,-7.35,-29.190001,1729428914683.0,0.0
-4.412365,-2.548356,7.987241,115.5,-15.54,-31.710001,1729428914703.0,0.0
-2.85703,-3.651447,6.652047,45.849998,-5.74,-27.09,1729428914724.0,0.0
-1.586441,-3.182454,7.144968,-29.75,-13.37,-22.75,1729428914743.0,0.0
-4.443472,-1.512264,9.334401,-62.23,-22.68,-2.1,1729428914763.0,0.0
-3.555735,-0.921237,7.104291,-148.399994,-23.870001,14.07,1729428914785.0,0.0
-3.972085,2.017149,4.850252,-300.720001,-7.07,28.139999,1729428914806.0,0.0
-0.818345,1.442872,3.598805,-430.920013,33.529999,50.540001,1729428914824.0,0.0
-5.292924,0.445065,5.134997,-671.299988,43.400002,64.470001,1729428914843.0,0.0
-8.475377,-8.372486,0.114855,-942.76001,-47.810001,46.900002,1729428914864.0,0.0
-1.789831,-12.201002,-8.568698,-1020.460022,-53.970001,-15.26,1729428914883.0,0.0
-0.583849,-9.274581,-2.462214,-800.23999,-30.799999,-19.18,1729428914904.0,0.0
-2.711068,-1.545763,-12.930815,-661.919983,-42.0,-6.79,1729428914926.0,0.0
-4.697111,-15.720845,-19.50629,-470.540009,-13.02,22.75,1729428914943.0,0.0
-3.78066,-17.249859,-9.602397,68.32,62.860001,38.360001,1729428914963.0,0.0
-3.919443,-8.719445,1.375873,371.0,61.810001,10.15,1729428914987.0,0.0
-4.867002,-4.271189,3.407379,519.679993,15.75,32.549999,1729428915006.0,0.0
-3.072384,-6.300302,1.476372,589.609985,-36.540001,45.43,1729428915026.0,0.0
-3.802195,-9.202796,-0.854238,668.780029,-45.709999,51.799999,1729428915044.0,0.0
-5.515456,-12.942777,-0.698704,749.070007,-23.030001,20.09,1729428915063.0,0.0
-1.301696,-13.643874,3.136991,685.090027,37.59,-27.440001,1729428915083.0,0.0
0.449851,-11.921042,4.754539,558.950012,40.599998,-60.970001,1729428915110.0,0.0
-1.31366,-4.244867,4.929214,502.880005,32.970001,-68.25,1729428915128.0,0.0
-2.385644,-2.270789,8.140383,422.380005,9.66,-53.970001,1729428915144.0,0.0
-3.275774,-0.751346,4.601398,297.850006,-5.81,-32.689999,1729428915167.0,0.0
-7.147361,3.775874,-1.174876,110.040001,41.299999,-20.790001,1729428915184.0,0.0
-4.68754,8.870193,7.365108,-149.240005,85.330002,21.98,1729428915204.0,0.0
-6.161518,1.715654,14.723038,-454.720001,54.880001,69.370003,1729428915224.0,0.0
-9.322437,-10.537991,4.773681,-830.47998,-61.599998,47.950001,1729428915244.0,0.0
-3.017349,-12.23211,-7.204789,-1053.01001,-117.32,16.73,1729428915264.0,0.0
-2.768496,-7.865208,-4.17069,-924.77002,-23.17,-6.16,1729428915288.0,0.0
-4.974678,-6.374479,-3.718446,-642.809998,-18.620001,-25.059999,1729428915308.0,0.0
-2.493321,-10.212566,-11.306087,-308.839996,-39.759998,-13.09,1729428915325.0,0.0
-3.665804,-11.430513,-10.963913,92.540001,24.92,34.02,1729428915343.0,0.0
-5.249853,-11.140982,-0.794417,262.149994,48.02,12.25,1729428915363.0,0.0
-5.278566,-4.9675,6.608976,376.459991,-5.95,46.759998,1729428915386.0,0.0
-5.922236,-7.972885,3.04367,478.730011,-57.889999,44.59,1729428915408.0,0.0
-4.146761,-11.727223,-2.06022,588.210022,-79.239998,4.06,1729428915423.0,0.0
-4.426722,-10.267602,1.349552,695.380005,21.139999,1.26,1729428915442.0,0.0
-3.5007,-12.516854,5.032106,608.02002,28.91,-56.349998,1729428915464.0,0.0
-0.351745,-11.799009,5.539384,512.330017,19.18,-54.110001,1729428915484.0,0.0
-2.359323,-6.333801,10.224532,482.160004,24.219999,-65.239998,1729428915505.0,0.0
-3.59402,-3.103491,10.128819,372.399994,-13.65,-64.330002,1729428915523.0,0.0
-3.09392,-0.33021,7.980063,267.890015,-27.09,-61.32,1729428915542.0,0.0
-5.192425,2.701497,4.735396,159.529999,-21.77,-36.82,1729428915564.0,0.0
-4.95075,1.543371,3.95055,-11.06,6.37,-16.030001,1729428915584.0,0.0
-4.469792,2.069792,10.021141,-218.259995,47.040001,-11.41,1729428915604.0,0.0
-3.002992,5.513064,12.471392,-549.429993,46.130001,83.019997,1729428915623.0,0.0
-7.51107,-1.019342,7.432107,-777.97998,-13.58,106.889999,1729428915645.0,0.0
-6.996613,-2.055435,-5.699703,-1111.319946,-98.910004,-9.31,1729428915666.0,0.0
-4.4339,-9.68136,-11.38505,-1164.310059,-98.489998,-29.120001,1729428915683.0,0.0
-2.751746,-13.89512,-10.411172,-768.669983,-52.5,-24.639999,1729428915704.0,0.0
-1.308874,-13.028918,-11.437693,-415.869995,-25.200001,-7.91,1729428915723.0,0.0
-2.919244,-14.234902,-15.550954,-16.1,14.21,17.710001,1729428915742.0,0.0
-1.942972,-10.9352,-10.114462,312.339996,64.120003,1.89,1729428915763.0,0.0
-2.67039,-2.354537,-1.217947,472.290009,68.809998,5.81,1729428915784.0,0.0
-4.852644,-4.579862,6.233303,554.400024,24.57,48.93,1729428915804.0,0.0
-6.345766,-7.530212,5.87438,647.710022,-43.540001,27.51,1729428915824.0,0.0
-3.366701,-9.159724,-2.723032,797.580017,-66.43,-38.709999,1729428915842.0,0.0
-5.484349,-9.671788,7.420143,915.390015,66.360001,-35.560001,1729428915865.0,0.0
-4.266403,-10.576276,9.911072,637.349976,45.080002,-86.169998,1729428915884.0,0.0
-0.76331,-11.112268,8.539984,384.299988,-6.09,-84.559998,1729428915903.0,0.0
-2.438286,-2.18704,9.102298,315.769989,-6.93,-75.669998,1729428915923.0,0.0
-3.9673,0.478565,7.02772,230.509995,-24.219999,-62.16,1729428915943.0,0.0
-6.958328,2.914458,3.608376,47.599998,8.82,-39.41,1729428915963.0,0.0
-4.565506,6.446264,4.48415,-192.5,36.959999,-21.77,1729428915986.0,0.0
-4.070191,4.737789,9.099905,-393.049988,43.75,25.9,1729428916006.0,0.0
-1.986043,0.646062,7.740781,-540.330017,-10.36,94.849998,1729428916023.0,0.0
-6.211767,-3.888337,7.429714,-668.98999,-22.75,112.279999,1729428916043.0,0.0
-8.135597,-8.673983,3.17049,-905.099976,-93.800003,36.68,1729428916063.0,0.0
-3.617948,-11.918649,-5.099105,-1011.849976,-95.340004,-20.23,1729428916083.0,0.0
-3.259024,-5.563312,-6.403193,-860.789978,-73.57,-46.060001,1729428916105.0,0.0
-3.524628,-7.846066,-13.9358,-639.590027,-88.480003,-27.790001,1729428916123.0,0.0
-3.510271,-9.932607,-20.585453,-277.76001,-35.630001,15.75,1729428916142.0,0.0
-3.215954,-12.521641,-18.156738,132.369995,47.810001,31.92,1729428916163.0,0.0
-2.768496,-9.408579,-8.389235,389.269989,106.540001,9.73,1729428916183.0,0.0
-3.582055,-2.801995,7.176075,526.190002,98.980003,41.02,1729428916203.0,0.0
-6.661618,-3.87398,11.186446,482.230011,18.129999,62.790001,1729428916223.0,0.0
-6.058627,-10.152746,1.787439,566.22998,-92.330002,8.33,1729428916244.0,0.0
-2.380858,-8.271988,-4.359723,821.450012,-67.129997,-24.219999,1729428916264.0,0.0
-5.529813,-7.408179,12.433105,936.809998,99.190002,-29.68,1729428916284.0,0.0
-1.861616,-11.58844,10.612168,341.110016,-2.1,-58.939999,1729428916304.0,0.0
-0.540778,-7.692925,8.623734,201.740005,-14.56,-46.759998,1729428916323.0,0.0
-2.639283,-2.471786,6.496514,185.570007,-4.97,-44.73,1729428916343.0,0.0
-3.888337,0.002393,7.927422,80.360001,2.31,-48.509998,1729428916363.0,0.0
-5.766702,3.242275,2.447858,-56.700001,9.38,-24.360001,1729428916383.0,0.0
-2.378466,12.605389,5.175675,-238.770004,75.040001,21.98,1729428916404.0,0.0
-4.034299,4.110869,6.9679,-509.73999,25.83,95.830002,1729428916423.0,0.0
-8.484949,-10.360922,7.850852,-789.390015,-26.530001,97.300003,1729428916443.0,0.0
-5.288138,-9.556933,-8.252845,-1099.069946,-99.610001,-10.29,1729428916462.0,0.0
-4.063013,-9.705289,-7.420143,-952.910034,-48.09,-27.860001,1729428916492.0,0.0
-3.225525,-2.880959,-8.874979,-742.210022,-72.449997,-19.950001,1729428916505.0,0.0
-3.529413,-9.513863,-16.457834,-521.710022,-71.540001,-17.57,1729428916524.0,0.0
-2.837888,-12.083755,-16.7689,-45.990002,0.28,18.83,1729428916544.0,0.0
-4.036692,-11.629118,-6.520442,292.179993,66.919998,8.68,1729428916563.0,0.0
-5.666204,-6.24766,5.793024,360.570007,36.82,10.08,1729428916583.0,0.0
-3.457629,-6.54437,3.196811,419.649994,-53.900002,19.879999,1729428916605.0,0.0
-5.213961,-7.345965,1.026521,635.390015,-69.160004,43.959999,1729428916623.0,0.0
-3.65384,-6.290731,2.426322,774.619995,-61.25,10.85,1729428916643.0,0.0
-7.79103,-8.781659,8.329416,845.950012,23.450001,20.02,1729428916664.0,0.0
-4.613362,-10.925629,12.141183,606.76001,15.61,-19.879999,1729428916684.0,0.0
-1.816152,-11.897114,6.652047,384.860016,-13.09,-35.700001,1729428916706.0,0.0
-2.172683,-5.895915,4.900501,286.019989,7.77,-55.23,1729428916724.0,0.0
-2.62732,-1.225125,5.393422,210.979996,7.42,-54.389999,1729428916746.0,0.0
-4.4339,3.232704,9.525827,121.309998,2.38,-40.25,1729428916766.0,0.0
-5.20439,2.871387,6.290731,-40.389999,-7.14,1.96,1729428916786.0,0.0
-1.083949,0.928415,9.628718,-247.940002,18.129999,9.17,1729428916807.0,0.0
-0.818345,4.046263,11.136196,-485.799988,18.690001,39.970001,1729428916825.0,0.0
-7.24786,5.084748,8.310273,-714.559998,-4.9,99.470001,1729428916844.0,0.0
-11.935399,-5.359922,-4.539185,-1054.47998,-57.610001,21.629999,1729428916864.0,0.0
-2.737389,-6.278766,-12.918849,-1205.400024,-122.220001,-36.610001,1729428916884.0,0.0
-1.710868,-9.310472,-7.329216,-896.0,-56.630001,-49.700001,1729428916905.0,0.0
-5.656632,-6.73101,-12.595818,-417.970001,-22.82,-8.75,1729428916924.0,0.0
-5.359922,-12.485749,-15.139388,-137.339996,-3.43,15.12,1729428916945.0,0.0
-4.275974,-11.217552,-9.32483,116.129997,31.92,-6.09,1729428916965.0,0.0
-5.07757,-9.552148,-2.809174,295.049988,31.710001,-5.74,1729428916991.0,0.0
-5.414958,-7.54457,2.818745,504.209991,-5.46,25.059999,1729428917006.0,0.0
-4.895715,-4.146761,5.35753,690.340027,-24.5,46.619999,1729428917026.0,0.0
-7.233503,-6.965507,2.924029,758.72998,-53.34,37.66,1729428917045.0,0.0
-6.372087,-7.365108,2.749353,890.119995,-34.09,-4.2,1729428917065.0,0.0
-6.800402,-8.391629,14.950355,861.630005,66.290001,-40.529999,1729428917086.0,0.0
-3.835695,-13.859229,11.334801,525.140015,4.62,-58.099998,1729428917106.0,0.0
-1.433301,-8.221739,6.484549,356.790009,0.84,-86.099998,1729428917128.0,0.0
-3.510271,1.902294,7.690532,264.25,-3.78,-68.949997,1729428917150.0,0.0
-3.957729,2.529213,3.299703,88.690002,-11.48,-54.25,1729428917407.0,0.0
-3.433701,2.708675,6.297909,-152.669998,20.23,-39.200001,1729428917411.0,0.0
0.349352,5.201996,11.63869,-559.090027,21.629999,11.34,1729428917413.0,0.0
-5.673382,5.295317,5.99402,-840.48999,-36.889999,64.82,1729428917414.0,0.0
-11.696117,-2.414358,-9.176475,-1195.810059,-69.019997,-20.93,1729428917414.0,0.0
-3.15374,-11.62194,-17.687746,-1239.48999,-84.279999,-103.949997,1729428917415.0,0.0
-0.863809,-8.618947,-12.296716,-784.630005,9.31,-48.790001,1729428917416.0,0.0
-1.663012,-8.200203,-11.332408,-500.779999,41.02,-29.82,1729428917417.0,0.0
-3.151347,-13.88555,-9.678967,-210.559998,62.580002,9.24,1729428917418.0,0.0
-3.208775,-11.753544,-4.685147,83.440002,73.43,-1.75,1729428917419.0,0.0
-4.62054,-9.140583,-0.768096,265.160004,51.66,-3.22,1729428917420.0,0.0
-5.017749,-9.217153,2.132005,452.130005,9.87,19.25,1729428917421.0,0.0
-5.276174,-8.078169,1.103091,623.700012,-21.98,31.85,1729428917422.0,0.0
-7.889136,-7.743174,1.057628,718.059998,-31.780001,38.849998,1729428917426.0,0.0
-4.965107,-8.879765,-2.055435,835.169983,-39.130001,-9.38,1729428917457.0,0.0
-4.063013,-8.468199,9.030513,924.97998,58.029999,-20.09,1729428917470.0,0.0
-2.56032,-14.361722,7.826923,665.700012,38.57,-70.910004,1729428917485.0,0.0
-1.658226,-7.657032,6.903293,351.959991,6.79,-109.970001,1729428917506.0,0.0
-3.28056,-1.545763,10.533205,272.440002,-3.57,-94.220001,1729428917525.0,0.0
-3.905087,2.964707,6.98465,161.910004,-25.41,-70.139999,1729428917546.0,0.0
-1.744368,0.184247,6.025128,16.59,-22.4,-49.77,1729428917566.0,0.0
-1.026521,0.344566,7.936993,-200.410004,-13.09,-42.630001,1729428917588.0,0.0
0.636491,4.615755,8.025528,-410.059998,9.8,-19.809999,1729428917607.0,0.0
-1.74676,1.885544,6.297909,-652.820007,11.13,39.060001,1729428917627.0,0.0
-3.842873,0.660419,2.89053,-887.460022,-14.0,65.449997,1729428917646.0,0.0
-4.074977,-6.975078,-2.208575,-1090.459961,-31.639999,4.76,1729428917666.0,0.0
-3.151347,-11.294124,-16.613367,-1085.0,-77.209999,-96.32,1729428917688.0,0.0
-0.4666,-2.818745,-15.196816,-666.190002,-12.46,-15.68,1729428917710.0,0.0
0.375673,-8.757731,-13.957335,-435.890015,8.89,6.16,1729428917728.0,0.0
-3.440879,-14.679967,-13.196418,-192.220001,33.670002,15.190001,1729428917750.0,0.0
-2.103291,-9.946963,-7.76471,175.279999,51.939999,2.45,1729428917767.0,0.0
-3.022135,-8.516055,-4.850252,364.559998,43.049999,-5.25,1729428917790.0,0.0
-2.9336,-7.077969,-3.022135,655.619995,-0.21,19.040001,1729428917809.0,0.0
-4.63729,-1.512264,0.447458,798.909973,-3.85,43.610001,1729428917829.0,0.0
-4.146761,-7.499106,1.852045,852.599976,-24.92,10.78,1729428917850.0,0.0
-4.06062,-5.111069,5.965307,839.720032,34.09,-13.09,1729428917868.0,0.0
0.038285,-11.799009,9.394222,627.830017,36.68,-35.91,1729428917890.0,0.0
1.136591,-14.443078,6.185446,407.75,-2.52,-66.919998,1729428917908.0,0.0
-0.717847,-5.371887,7.331609,395.220001,28.280001,-78.82,1729428917929.0,0.0
-2.749353,1.660619,9.769895,277.970001,5.88,-68.18,1729428917963.0,0.0
-4.31426,5.881558,4.319045,167.369995,-14.91,-33.32,1729428917968.0,0.0
-1.765903,1.182054,4.515256,54.950001,14.14,3.15,1729428917994.0,0.0
-2.397608,-0.524028,7.034898,-148.610001,24.57,13.440001,1729428918008.0,0.0
-2.388037,1.239482,8.803195,-303.380005,40.670002,29.960001,1729428918029.0,0.0
-2.268396,-3.534199,9.049655,-503.51001,26.880001,54.950001,1729428918048.0,0.0
-3.706482,-5.082355,10.894521,-715.890015,-25.76,109.970001,1729428918067.0,0.0
-7.76471,-7.860423,5.575277,-990.01001,-59.920002,66.010002,1729428918088.0,0.0
-5.003392,-3.627519,-12.734602,-1272.810059,-149.240005,-65.660004,1729428918112.0,0.0
-0.349352,-1.529014,-11.937792,-836.5,-106.190002,-21.559999,1729428918129.0,0.0
-3.18724,-4.938786,-10.58824,-573.159973,-47.040001,-16.66,1729428918147.0,0.0
-4.711468,-13.445271,-17.950956,-212.940002,-29.960001,8.33,1729428918167.0,0.0
-1.418944,-13.990833,-14.584253,200.830002,23.66,11.97,1729428918187.0,0.0
-3.235096,-7.348359,-6.345766,329.839996,46.689999,-9.1,1729428918211.0,0.0
-3.069991,-8.99462,-1.021735,468.089996,3.64,18.549999,1729428918230.0,0.0
-2.495714,-6.908078,2.036292,635.950012,-13.72,37.59,1729428918248.0,0.0
-4.912465,-6.266802,2.854637,725.130005,-36.119999,44.59,1729428918268.0,0.0
-4.448257,-9.406186,1.512264,848.119995,-58.029999,2.24,1729428918288.0,0.0
-6.38405,-7.963314,5.740381,941.5,32.549999,-14.07,1729428918308.0,0.0
-4.371687,-8.757731,11.614761,743.820007,50.75,-50.119999,1729428918328.0,0.0
-1.785046,-13.332808,8.087741,413.0,-0.07,-63.77,1729428918348.0,0.0
1.028914,-10.786844,6.896115,341.179993,8.47,-94.919998,1729428918367.0,0.0
-2.825923,-2.301895,9.518648,320.600006,23.030001,-97.790001,1729428918388.0,0.0
-1.112662,0.265603,8.370094,181.300003,-16.799999,-99.260002,1729428918422.0,0.0
-0.497707,0.770489,8.492127,87.010002,-32.41,-75.25,1729428918522.0,0.0
-5.132604,5.979663,0.806381,73.709999,-35.07,-36.330002,1729428918522.0,0.0
-3.273381,0.12682,2.790031,22.049999,43.400002,-13.440001,1729428918523.0,0.0
-4.051049,2.854637,7.915457,-19.389999,66.709999,31.57,1729428918523.0,0.0
-2.888137,-2.330609,8.394022,-141.050003,54.32,55.09,1729428918523.0,0.0
-1.756332,-2.677568,9.332008,-308.769989,55.16,48.439999,1729428918528.0,0.0
-3.885944,-2.794817,12.05504,-484.190002,33.599998,69.090004,1729428918546.0,0.0
-6.786045,-13.765909,3.797409,-614.179993,-24.290001,75.809998,1729428918566.0,0.0
-2.761317,-11.41137,-2.120041,-785.539978,-37.52,6.86,1729428918586.0,0.0
2.232504,-10.396815,-3.907479,-865.549988,-45.290001,-11.41,1729428918607.0,0.0
0.282353,-9.042477,0.004786,-836.570007,-5.18,-46.41,1729428918626.0,0.0
-2.87378,-18.477375,6.869793,-688.799988,-66.010002,-11.41,1729428918648.0,0.0
-4.249653,-12.638889,1.909473,-629.02002,-41.720001,-59.43,1729428918727.0,0.0
-4.972286,-10.298709,-10.916058,-474.179993,-58.029999,-38.709999,1729428918731.0,0.0
-2.634498,-9.020942,-13.237095,-217.070007,-27.370001,-32.130001,1729428918732.0,0.0
-3.701697,-10.707881,-9.829715,-18.620001,-11.9,-20.16,1729428918734.0,0.0
-3.52702,-9.650253,-6.975078,55.790001,1.47,-14.42,1729428918808.0,0.0
-2.955136,-9.205189,-5.429315,85.400002,4.97,-7.21,1729428918810.0,0.0
-3.517449,-8.463413,-6.293124,112.840004,9.8,-5.67,1729428918812.0,0.0
-4.9675,-8.822337,-5.563312,187.740005,11.62,0.42,1729428918813.0,0.0
-5.642276,-7.479963,-3.440879,233.309998,13.86,6.65,1729428918827.0,0.0
-5.407779,-9.848858,-3.682554,277.690002,-11.55,-2.94,1729428918862.0,0.0
-3.134598,-8.788837,-6.096912,414.329987,-38.639999,-8.26,1729428918870.0,0.0
-2.031506,-4.821537,-3.912265,498.470001,17.360001,13.37,1729428918887.0,0.0
-3.227918,-7.645068,2.364109,466.130005,22.75,19.67,1729428918910.0,0.0
-2.213361,-10.492528,1.842474,405.579987,-12.18,12.04,1729428918926.0,0.0
-1.359123,-11.047661,2.416751,446.670013,34.16,-11.27,1729428918946.0,0.0
-1.828116,-10.023535,3.17049,516.109985,97.650002,-29.610001,1729428918966.0,0.0
-1.67019,-8.248059,4.345366,507.01001,127.959999,-49.84,1729428918989.0,0.0
-1.026521,-8.997013,5.443672,428.190002,122.150002,-69.160004,1729428919008.0,0.0
-1.770689,-4.883751,8.41795,315.630005,123.059998,-82.18,1729428919027.0,0.0
-2.825923,2.761317,9.934999,185.080002,97.440002,-60.830002,1729428919180.0,0.0
-2.713461,-1.782653,9.229117,85.260002,26.809999,-18.620001,1729428919181.0,0.0
-1.409373,-5.242674,8.355737,78.610001,-3.36,-17.43,1729428919185.0,0.0
-2.713461,-2.596212,11.200804,114.099998,-1.54,-14.42,1729428919186.0,0.0
-4.304688,-2.684747,12.064612,34.23,-26.18,0.7,1729428919187.0,0.0
-5.613562,-0.799203,12.157932,-158.690002,-76.230003,14.42,1729428919188.0,0.0
-5.099105,-1.205983,10.514063,-270.970001,-93.169998,26.110001,1729428919189.0,0.0
-5.000999,-2.490928,0.863809,-357.980011,-86.730003,24.08,1729428919194.0,0.0
-7.77428,-5.730811,1.988436,-355.880005,-45.290001,7.35,1729428919212.0,0.0
-4.204189,-6.228518,5.735595,-371.350006,19.389999,29.4,1729428919226.0,0.0
1.045663,-10.040283,4.065405,-367.920013,29.960001,0.49,1729428919247.0,0.0
0.284746,-9.442079,6.357729,-308.350006,53.34,17.99,1729428919268.0,0.0
-0.997807,-10.033106,3.428915,-308.630005,28.700001,14.21,1729428919287.0,0.0
-1.287339,-6.391229,2.024328,-314.440002,-3.78,20.65,1729428919308.0,0.0
-5.718846,-5.726025,-2.026721,-269.920013,-6.79,24.219999,1729428919329.0,0.0
-7.228717,-11.583653,-5.757132,-189.559998,-19.18,6.16,1729428919351.0,0.0
-6.168696,-16.268801,-6.513263,6.58,-24.99,-16.17,1729428919458.0,0.0
-4.780859,-13.272987,-5.295317,206.009995,-15.75,-40.529999,1729428919459.0,0.0
-3.885944,-8.638089,-4.689932,310.450012,-6.79,-47.740002,1729428919473.0,0.0
-2.510071,-4.902894,-4.740182,379.26001,-9.03,-47.110001,1729428919473.0,0.0
-0.825524,-0.437887,0.210568,470.190002,2.52,-11.41,1729428919473.0,0.0
-0.133998,0.346959,13.440485,475.51001,32.689999,37.099998,1729428919474.0,0.0
-4.61097,-4.285545,18.63291,304.98999,-35.700001,35.420002,1729428919671.0,0.0
-4.13719,-11.531013,6.336195,243.25,-108.709999,7.49,1729428919672.0,0.0
1.177269,-6.309873,5.678168,283.850006,-16.73,19.6,1729428919674.0,0.0
-7.125826,-6.276374,4.395615,228.059998,18.200001,14.28,1729428919674.0,0.0
-4.039084,-4.26401,7.79103,138.25,39.48,8.4,1729428919676.0,0.0
-7.776673,5.422136,14.560326,46.900002,57.119999,8.75,1729428919678.0,0.0
-5.254639,-2.715853,11.997612,-146.720001,-14.14,44.52,1729428919679.0,0.0
-1.844866,-10.114462,7.551748,-220.080002,-44.59,6.79,1729428919680.0,0.0
-2.304288,-5.998806,8.348558,-190.399994,18.27,-33.25,1729428919681.0,0.0
-6.630512,1.878366,14.172688,-275.519989,52.709999,8.19,1729428919682.0,0.0
-0.861416,-2.711068,8.714661,-345.380005,10.08,28.91,1729428919687.0,0.0
3.519842,-0.540778,3.909872,-426.230011,31.43,-13.93,1729428919710.0,0.0
-0.148355,-2.912065,-0.057428,-468.929993,14.0,47.32,1729428919759.0,0.0
-6.046663,-8.236095,-1.926222,-450.100006,10.99,40.740002,1729428919760.0,0.0
-5.694918,-14.632111,-4.890929,-266.209991,13.79,25.549999,1729428919766.0,0.0
-6.498906,-15.371492,-6.664011,-74.199997,10.78,8.96,1729428919788.0,0.0
-5.386244,-12.16511,-5.089533,148.820007,18.549999,-19.32,1729428919808.0,0.0
-4.479364,-6.618547,-3.029313,292.390015,23.66,-23.66,1729428919829.0,0.0
-5.276174,-7.939385,-1.782653,365.540009,-5.18,-25.9,1729428919868.0,0.0
-2.445465,-3.699304,2.380858,444.709991,-32.060001,-12.74,1729428919868.0,0.0
1.287339,2.191825,11.344372,536.549988,6.02,25.48,1729428920253.0,0.0
-1.801795,3.680161,29.285755,343.420013,24.5,31.01,1729428920254.0,0.0
-7.503892,-11.866007,7.642675,-3.78,-245.070007,35.91,1729428920255.0,0.0
6.262017,-14.490934,-3.622734,19.110001,-118.860001,17.92,1729428920256.0,0.0
-7.546963,-7.743174,6.642475,162.820007,6.58,0.84,1729428920258.0,0.0
-9.614362,-5.85763,5.766702,124.739998,16.59,-44.66,1729428920259.0,0.0
-7.032506,6.142376,13.804193,80.010002,55.09,-15.75,1729428920260.0,0.0
-9.140583,-0.490529,9.990034,-125.510002,-12.81,41.509998,1729428920262.0,0.0
-2.610569,-8.456236,4.773681,-188.509995,-50.82,9.94,1729428920262.0,0.0
-3.072384,-6.037091,9.169296,-91.980003,36.119999,-3.78,1729428920262.0,0.0
-5.678168,-4.881358,7.255038,-118.790001,44.939999,-2.31,1729428920263.0,0.0
1.883151,-7.757531,10.176675,-288.399994,32.41,13.79,1729428920263.0,0.0
4.929214,-6.903293,8.499306,-354.76001,37.099998,19.67,1729428920263.0,0.0
-0.854238,-5.816952,1.26341,-409.640015,-13.37,22.4,1729428920263.0,0.0
-5.13739,-10.779665,-2.227718,-347.619995,-28.91,8.26,1729428920263.0,0.0
-5.130211,-12.052648,-1.062413,-171.149994,-15.4,-9.87,1729428920263.0,0.0
-6.821937,-11.38505,0.380459,-48.860001,-21.42,-17.15,1729428920264.0,0.0
-5.429315,-7.616355,-0.681954,29.82,-35.700001,-40.599998,1729428920264.0,0.0
-6.69751,-8.327023,-2.227718,87.220001,-36.470001,-31.219999,1729428920264.0,0.0
-5.848059,-8.597411,-3.345166,165.410004,-44.66,-28.98,1729428920270.0,0.0
-2.833102,-6.183054,-1.885544,273.559998,-15.96,-17.219999,1729428920295.0,0.0
0.019143,-4.149154,3.952943,369.320007,26.389999,9.8,1729428920321.0,0.0
4.292724,-2.574677,15.531813,380.380005,15.96,22.049999,1729428920332.0,0.0
-2.782853,-4.752146,12.201002,275.170013,-56.139999,35.279999,1729428920351.0,0.0
2.723032,-6.874579,2.931208,282.029999,-77.840004,18.969999,1729428920367.0,0.0
-3.256632,-3.773481,8.822337,278.600006,6.37,37.59,1729428920389.0,0.0
-5.505885,-7.298109,9.109475,87.709999,-11.55,34.720001,1729428920408.0,0.0
-3.964907,-5.091926,12.234503,41.790001,5.39,26.6,1729428920495.0,0.0
-6.472585,4.82393,15.708879,-78.050003,-6.02,31.710001,1729428920499.0,0.0
-7.183254,-3.294917,11.265409,-201.25,-74.830002,71.959999,1729428920500.0,0.0
-4.436293,-4.974678,8.176274,-195.089996,-56.139999,30.380001,1729428920501.0,0.0
-4.273581,-5.175675,5.438886,-166.039993,-7.0,14.98,1729428920511.0,0.0
-4.488935,-5.139783,13.533805,-178.5,12.04,29.120001,1729428920529.0,0.0
-1.287339,-8.559127,12.059827,-196.070007,13.79,25.969999,1729428920549.0,0.0
2.428715,-4.110869,2.974278,-233.660004,24.360001,17.780001,1729428920569.0,0.0
0.282353,-1.840081,-1.26341,-237.300003,34.16,29.33,1729428920589.0,0.0
-5.369494,-7.415358,-1.497907,-238.350006,24.99,57.189999,1729428920611.0,0.0
-6.463014,-12.607781,0.442672,-218.119995,-5.04,35.98,1729428920629.0,0.0
-5.582455,-13.079168,0.62692,-134.820007,-16.1,7.7,1729428920648.0,0.0
-5.965307,-10.633704,-2.45025,-19.6,-12.04,-17.99,1729428920670.0,0.0
-5.742774,-9.422935,-2.069792,80.709999,-25.41,-49.139999,1729428920691.0,0.0
-4.867002,-8.798409,-1.801795,156.380005,-8.68,-55.720001,1729428920711.0,0.0
-3.716053,-5.740381,1.332802,276.429993,12.6,-48.09,1729428920730.0,0.0
-0.658026,0.885344,3.055635,416.290009,45.009998,-17.639999,1729428920754.0,0.0
0.550349,2.828316,14.447863,410.059998,85.959999,-10.36,1729428920771.0,0.0
-2.644069,-1.471586,16.364515,209.229996,-11.48,3.85,1729428920790.0,0.0
-2.517249,-9.315259,10.863414,102.830002,-78.540001,-6.93,1729428920811.0,0.0
2.78046,-4.182654,6.80758,111.160004,-7.14,-9.17,1729428920831.0,0.0
-0.205783,-5.084748,5.52742,44.66,-16.379999,5.04,1729428920851.0,0.0
-3.955336,-5.190032,10.356135,37.029999,-14.49,21.210001,1729428920870.0,0.0
-4.132405,1.033699,14.562718,58.799999,11.76,0.42,1729428920892.0,0.0
-10.846665,3.728018,17.8361,-55.860001,-0.98,13.65,1729428920913.0,0.0
-6.183054,-6.250053,11.995219,-196.070007,-77.209999,5.81,1729428920930.0,0.0
-3.349952,-7.771888,10.880164,-149.940002,-41.509998,-24.57,1729428920950.0,0.0
