acc_x,acc_y,acc_z,gyr_x,gyr_y,gyr_z,timestamp,label
-2.143969,-0.071785,-9.176475,9.8,-41.299999,-9.24,1729428213274.0,0.0
-3.883551,-6.226124,-13.828122,68.739998,-36.330002,-5.11,1729428213279.0,0.0
-3.28056,-2.713461,-14.897714,226.660004,-18.059999,1.12,1729428213279.0,0.0
-5.142176,-0.784846,-11.581261,396.619995,13.65,25.9,1729428213279.0,0.0
-2.629712,-0.665205,-10.506885,506.170013,8.26,58.939999,1729428213292.0,0.0
-3.127419,-3.893122,-1.438086,584.5,-2.52,82.25,1729428213313.0,0.0
0.66999,-10.140782,-13.404593,669.27002,-65.309998,18.76,1729428213332.0,0.0
-7.118648,-7.676175,-4.790431,706.929993,21.98,16.66,1729428213353.0,0.0
-11.490334,-5.809773,-1.816152,665.48999,50.189999,50.959999,1729428213372.0,0.0
-5.855237,-9.693325,-5.103891,241.5,48.299999,-2.87,1729428213392.0,0.0
-8.327023,-18.297915,-12.674782,101.709999,38.990002,-24.43,1729428213413.0,0.0
-9.920642,-4.599005,-6.843473,265.369995,177.380005,-66.57,1729428213432.0,0.0
-8.803195,-1.734797,2.646462,78.330002,163.729996,-51.73,1729428213453.0,0.0
-0.602991,-7.539784,6.364908,-196.839996,75.25,-37.799999,1729428213472.0,0.0
8.571091,-9.109475,11.480762,-162.190002,60.689999,-21.84,1729428213492.0,0.0
8.008778,-10.133603,9.920642,-109.410004,7.21,-4.41,1729428213517.0,0.0
-1.253839,-10.437491,8.865408,-124.809998,-46.130001,-13.72,1729428213533.0,0.0
-0.117248,-5.072784,3.529413,-144.339996,-89.599998,8.61,1729428213552.0,0.0
-8.616554,-7.345965,-2.696711,-35.349998,-114.590004,20.370001,1729428213572.0,0.0
-4.278367,-4.443472,-5.941379,-147.070007,-101.150002,32.689999,1729428213592.0,0.0
-7.834101,-9.887143,-14.356936,-225.050003,-106.68,18.34,1729428213613.0,0.0
-11.54537,-3.718446,-22.506889,-132.930008,-44.66,24.780001,1729428213632.0,0.0
-14.419148,-7.771888,-15.393027,-34.720001,71.889999,20.440001,1729428213657.0,0.0
-6.376873,-2.720639,-13.012171,-108.360001,105.559998,-23.309999,1729428213672.0,0.0
-9.403792,-7.566105,-16.687544,-169.75,127.75,-41.650002,1729428213693.0,0.0
-2.383251,-5.929415,-6.326623,-90.370003,164.919998,-36.610001,1729428213713.0,0.0
1.153341,-8.575876,21.056837,-25.48,156.169998,0.77,1729428213732.0,0.0
1.928615,-17.079967,7.69771,-148.259995,-25.48,-15.47,1729428213753.0,0.0
-0.868595,-8.317451,1.256232,-108.639999,-73.290001,-48.16,1729428213773.0,0.0
4.058227,-10.34178,-2.455036,-72.029999,-114.730003,-27.09,1729428213792.0,0.0
0.887737,-4.134798,-9.006584,-50.189999,-153.369995,-24.290001,1729428213814.0,0.0
-13.13181,-8.752945,-11.308479,-50.610001,-123.410004,20.93,1729428213832.0,0.0
-21.188446,-6.946364,-27.352356,-119.419998,-31.5,23.52,1729428213852.0,0.0
-12.672389,1.641476,-16.347765,-74.269997,60.760002,9.52,1729428213872.0,0.0
-4.48415,-3.098706,-11.574083,-54.110001,70.559998,-17.780001,1729428213892.0,0.0
-9.071191,-3.079563,-14.825929,-208.529999,92.470001,-70.139999,1729428213912.0,0.0
-0.717847,-0.057428,-7.855636,-181.369995,107.169998,-61.389999,1729428213932.0,0.0
-0.660419,-8.482556,-0.232104,-166.600006,96.529999,-29.33,1729428213952.0,0.0
-0.459422,-6.295516,-3.010171,-207.619995,55.510002,-55.93,1729428213972.0,0.0
1.600798,-6.886543,0.598206,-250.389999,5.95,-75.110001,1729428213993.0,0.0
1.31366,-6.254838,-0.291924,-238.839996,-43.75,-88.760002,1729428214013.0,0.0
2.507678,1.698904,-8.068598,-231.210007,-81.760002,-83.440002,1729428214033.0,0.0
-2.014757,3.096312,-5.218746,-223.089996,-89.809998,-27.299999,1729428214054.0,0.0
-2.979064,-1.081556,-11.933006,-291.899994,-85.050003,26.950001,1729428214073.0,0.0
-1.18684,-1.526621,-12.674782,-54.529999,-54.25,38.990002,1729428214093.0,0.0
-5.199604,-7.147361,-9.365508,2.45,-44.59,9.03,1729428214113.0,0.0
-5.462814,-0.543171,-11.150554,-56.700001,-56.84,-11.83,1729428214132.0,0.0
-2.376073,0.260818,-16.692331,-50.68,-28.49,-6.37,1729428214153.0,0.0
-5.922236,-5.166104,-13.07199,90.090004,7.28,17.710001,1729428214173.0,0.0
-0.823131,-5.809773,-8.556733,167.649994,9.66,-6.23,1729428214192.0,0.0
-2.328217,-5.726025,-8.176274,274.329987,0.63,-21.84,1729428214212.0,0.0
-2.512464,-6.932007,-13.177275,343.420013,-13.93,-29.610001,1729428214233.0,0.0
-3.115455,-2.883351,-18.211773,468.019989,4.69,-10.29,1729428214252.0,0.0
-3.59402,-2.09372,-8.566305,530.809998,31.85,31.15,1729428214272.0,0.0
-9.97807,6.759724,-12.416357,449.75,39.130001,55.02,1729428214292.0,0.0
-6.372087,-5.223531,2.347359,303.23999,44.66,41.720001,1729428214316.0,0.0
-1.548156,-9.918249,-13.002598,183.050003,-37.59,-32.34,1729428214332.0,0.0
-7.432107,-14.761322,3.07717,298.200012,22.540001,-8.47,1729428214353.0,0.0
2.222932,-1.883151,-0.090927,568.75,-14.35,7.98,1729428214372.0,0.0
-9.253045,5.099105,-5.726025,370.019989,92.330002,-50.889999,1729428214391.0,0.0
4.979464,-23.00699,9.609575,95.340004,-18.27,-13.16,1729428214415.0,0.0
-7.929814,-24.698715,-3.680161,20.09,-36.75,-46.41,1729428214433.0,0.0
-12.911672,-17.44607,1.875973,203.070007,112.699997,18.76,1729428214453.0,0.0
-6.597012,-8.609376,-5.682954,19.110001,62.650002,-76.860001,1729428214472.0,0.0
-6.321837,-5.948557,-4.079762,-10.92,109.410004,-42.420002,1729428214491.0,0.0
-2.273181,-4.938786,-1.071985,-183.399994,84.07,-57.119999,1729428214514.0,0.0
1.232304,-4.26401,-8.322237,-278.73999,63.84,-52.709999,1729428214532.0,0.0
2.900101,-4.412365,-1.098306,-264.390015,68.110001,-32.130001,1729428214553.0,0.0
2.438286,-9.044869,10.904092,-243.180008,42.630001,-11.06,1729428214571.0,0.0
0.581456,-10.624132,5.168497,-305.130005,-13.09,-34.860001,1729428214592.0,0.0
-0.26321,-7.920243,-0.083749,-406.980011,-57.470001,-77.699997,1729428214616.0,0.0
-0.543171,-6.702296,-4.749753,-413.070007,-79.099998,-90.580002,1729428214631.0,0.0
-3.57727,-1.119841,-10.375278,-347.829987,-72.519997,-63.700001,1729428214655.0,0.0
-2.120041,-2.088934,-6.594619,-283.149994,-90.650002,-40.810001,1729428214671.0,0.0
-1.476372,-1.284946,-7.872386,-242.759995,-118.440002,-33.25,1729428214691.0,0.0
-1.658226,2.323431,-14.206188,-251.930008,-128.309998,-32.41,1729428214713.0,0.0
-9.24826,1.816152,-13.07199,-214.619995,-106.959999,-16.66,1729428214733.0,0.0
-1.447658,8.11167,-7.312466,-40.810001,-103.669998,1.05,1729428214753.0,0.0
-11.34198,-6.204589,-7.846066,-99.82,-90.860001,33.670002,1729428214773.0,0.0
-8.571091,-4.331009,-11.705689,-70.769997,-76.510002,-23.73,1729428214792.0,0.0
-3.165704,3.062813,-7.980063,9.1,-67.690002,-27.440001,1729428214814.0,0.0
-5.965307,3.074777,-10.135997,-31.5,-72.870003,10.57,1729428214839.0,0.0
-3.948158,-8.446664,-5.699703,-32.27,-78.75,33.25,1729428214851.0,0.0
-4.141976,-2.706282,-10.4016,-79.800003,-75.809998,-32.200001,1729428214872.0,0.0
-5.091926,2.586641,-15.864414,-16.940001,-63.98,-11.62,1729428214893.0,0.0
-5.960521,-6.501299,-18.941584,-65.379997,-16.870001,-21.700001,1729428214914.0,0.0
-5.405386,-3.952943,-21.329622,-9.38,30.1,-64.540001,1729428214932.0,0.0
-6.798009,-4.541577,-11.935399,102.690002,59.010002,-67.970001,1729428214952.0,0.0
-4.771288,-2.120041,-5.749953,206.149994,84.279999,-56.07,1729428214971.0,0.0
-3.515057,-0.011964,-5.424529,362.459991,106.540001,-3.08,1729428214992.0,0.0
-2.009971,-6.838687,-10.095319,333.619995,102.760002,-8.26,1729428215012.0,0.0
-7.097112,0.507278,-5.297709,424.410004,98.980003,4.97,1729428215031.0,0.0
-5.264209,-9.272188,-4.17069,394.170013,81.900002,6.37,1729428215051.0,0.0
-1.770689,-2.005185,-1.804188,259.769989,58.450001,14.56,1729428215071.0,0.0
-5.582455,-13.466805,-5.079963,138.460007,22.190001,19.040001,1729428215093.0,0.0
-5.711668,-8.939585,0.78006,278.809998,8.82,32.130001,1729428215112.0,0.0
-8.688338,-4.929214,2.711068,241.220001,47.25,38.639999,1729428215132.0,0.0
-10.289137,-5.376673,-3.919443,25.83,20.299999,6.72,1729428215152.0,0.0
-5.611169,-7.195218,-11.767902,-122.150002,18.059999,-23.379999,1729428215171.0,0.0
-6.400801,-9.801002,-10.499706,-42.91,67.480003,-24.219999,1729428215193.0,0.0
-8.642875,-5.816952,-9.561719,63.630001,129.220001,-11.97,1729428215213.0,0.0
-3.065206,-5.252246,-4.740182,56.560001,143.080002,-9.24,1729428215231.0,0.0
3.146562,-4.424329,-7.767102,20.16,145.529999,-11.9,1729428215252.0,0.0
7.877172,-3.208775,7.441679,36.889999,130.970001,34.720001,1729428215271.0,0.0
9.29133,-13.89512,5.268995,-4.2,30.380001,49.490002,1729428215291.0,0.0
-1.337588,-8.243275,0.349352,-11.48,-24.780001,11.9,1729428215314.0,0.0
0.155533,-7.793423,7.393822,4.9,-80.5,30.73,1729428215331.0,0.0
-7.200003,-8.870193,-4.919643,-49.77,-154.0,18.41,1729428215351.0,0.0
-14.486149,-10.609775,-12.768101,-65.169998,-111.230003,42.0,1729428215371.0,0.0
-15.881163,-10.375278,-25.684559,-233.309998,-15.4,0.35,1729428215391.0,0.0
-0.717847,-3.718446,-13.08874,-123.970001,85.82,10.36,1729428215414.0,0.0
-4.302295,-2.694318,-14.177474,-43.959999,138.529999,-3.64,1729428215432.0,0.0
-7.800602,-7.290931,-6.034698,-75.809998,164.289993,-5.74,1729428215452.0,0.0
-1.038485,-6.345766,-5.374279,-38.009998,153.930008,2.17,1729428215472.0,0.0
5.292924,-9.056834,8.439486,-10.5,115.989998,2.8,1729428215491.0,0.0
9.784252,-14.249258,11.181661,76.93,6.65,-2.45,1729428215512.0,0.0
0.212961,-6.939186,6.642475,70.489998,-75.599998,-31.290001,1729428215531.0,0.0
4.398008,-7.987241,-1.825724,-103.32,-140.979996,-14.07,1729428215556.0,0.0
0.658026,-5.235496,-8.618947,-224.910004,-171.220001,-23.309999,1729428215571.0,0.0
-16.125233,-5.592027,-4.871787,-234.5,-158.759995,-7.56,1729428215593.0,0.0
-18.652052,-4.895715,-31.779076,-217.139999,-128.869995,-24.219999,1729428215612.0,0.0
-13.847265,-2.993421,-22.028324,86.730003,30.1,4.76,1729428215631.0,0.0
-5.831308,3.883551,-14.924035,146.860001,85.260002,-5.04,1729428215654.0,0.0
-6.180661,-3.256632,-10.619347,-35.349998,115.360001,-33.32,1729428215672.0,0.0
-0.885344,-4.912465,-11.306087,-64.75,114.379997,-32.27,1729428215691.0,0.0
2.9671,-6.711867,3.842873,2.8,112.840004,-25.549999,1729428215712.0,0.0
5.9677,-9.300901,2.744568,-40.459999,59.849998,-48.790001,1729428215733.0,0.0
4.103691,-6.766902,-5.036892,-170.100006,-9.52,-73.290001,1729428215752.0,0.0
-2.167897,-4.173083,-2.821138,-182.490005,-17.43,-60.900002,1729428215772.0,0.0
-2.938386,-2.127219,-3.134598,-232.75,-50.330002,-43.470001,1729428215791.0,0.0
-5.010571,-3.369094,-5.690133,-314.019989,-92.540001,-54.599998,1729428215812.0,0.0
-5.056034,-1.416551,-14.134403,-342.860016,-112.209999,-89.809998,1729428215831.0,0.0
-5.639884,-2.639283,-15.639489,-281.890015,-75.739998,-98.419998,1729428215853.0,0.0
-3.426522,1.462015,-14.148761,-122.43,-40.599998,-70.279999,1729428215872.0,0.0
-2.486143,0.191426,-9.963714,6.44,-16.59,-23.1,1729428215890.0,0.0
-0.631705,-1.213161,-11.767902,5.18,-12.11,-21.280001,1729428215913.0,0.0
0.09332,2.481357,-9.812965,-44.310001,-4.48,-22.68,1729428215931.0,0.0
0.148355,2.804388,-3.498307,17.780001,-14.21,1.54,1729428215952.0,0.0
-1.701297,2.328217,-3.799802,45.150002,-52.080002,17.360001,1729428215971.0,0.0
-2.524428,1.148555,-9.420543,18.48,-81.620003,27.370001,1729428215991.0,0.0
-5.17089,-6.742974,-14.648861,0.28,-71.540001,10.99,1729428216012.0,0.0
-6.608976,-8.279166,-13.550553,-21.139999,-33.810001,-47.670002,1729428216031.0,0.0
-4.216154,-2.100898,-11.045268,52.009998,-24.639999,-45.360001,1729428216051.0,0.0
-4.041477,-3.885944,-11.653046,229.600006,-10.15,5.53,1729428216070.0,0.0
-4.871787,0.976272,-7.472785,368.200012,22.889999,15.89,1729428216092.0,0.0
-4.005585,-1.998007,-4.426722,330.75,13.93,21.700001,1729428216113.0,0.0
-0.442672,-12.734602,-8.891729,344.399994,-40.25,-11.06,1729428216131.0,0.0
0.739382,-10.581062,-10.518847,410.899994,-64.050003,-47.810001,1729428216152.0,0.0
0.031107,-2.538785,-10.169496,535.359985,-15.75,-29.82,1729428216172.0,0.0
-5.960521,0.693919,-0.512064,541.940002,32.27,48.23,1729428216190.0,0.0
-9.360723,-12.68196,-1.11027,425.670013,-47.880001,43.119999,1729428216214.0,0.0
-15.424134,-7.867601,-6.297909,233.660004,16.59,-3.99,1729428216231.0,0.0
-7.372287,-13.521841,-5.953342,110.110001,-10.5,-7.7,1729428216251.0,0.0
-8.638089,-8.420342,-4.95075,93.800003,88.480003,-28.77,1729428216271.0,0.0
-7.685746,-4.634897,-1.710868,-46.060001,103.669998,-61.32,1729428216290.0,0.0
-6.632904,-4.481757,-8.353344,-200.690002,98.0,-61.459999,1729428216312.0,0.0
-3.689733,-5.460421,-7.915457,-182.070007,124.669998,-52.639999,1729428216330.0,0.0
-0.028714,-8.209774,-1.024128,-44.380001,130.970001,-23.030001,1729428216352.0,0.0
2.737389,-4.582255,6.640083,10.71,111.580002,10.43,1729428216370.0,0.0
8.973085,-11.358729,7.01097,-66.709999,24.360001,-1.19,1729428216390.0,0.0
-0.143569,-7.972885,2.445465,-44.170002,-18.549999,-9.52,1729428216413.0,0.0
1.380659,-10.741381,3.0006,15.89,-73.989998,12.53,1729428216430.0,0.0
-3.314059,-9.638289,0.952343,96.739998,-110.599998,17.780001,1729428216451.0,0.0
-4.914857,-8.738588,-4.661219,127.470001,-111.230003,40.880001,1729428216470.0,0.0
-7.338787,-7.195218,-7.826923,-1.4,-89.879997,41.02,1729428216492.0,0.0
-10.243673,-7.101898,-15.732809,-130.690002,-41.439999,34.93,1729428216512.0,0.0
-12.253645,-5.785845,-21.94936,-88.199997,5.25,31.08,1729428216532.0,0.0
-7.752745,-6.422336,-7.298109,71.260002,108.290001,37.59,1729428216551.0,0.0
-11.272588,-6.630512,-7.652246,-65.660004,153.229996,-13.79,1729428216572.0,0.0
-6.838687,-7.23111,-11.877973,-247.800003,150.570007,-63.139999,1729428216591.0,0.0
-0.930808,-5.919843,-5.761917,-200.479996,158.899994,-35.420002,1729428216614.0,0.0
5.4006,-6.611369,11.691331,-74.760002,130.759995,6.3,1729428216631.0,0.0
8.425128,-14.488542,12.839886,-31.57,17.219999,26.18,1729428216654.0,0.0
-4.168297,-19.054047,-2.227718,-117.32,-81.129997,-41.650002,1729428216670.0,0.0
2.07697,-7.590034,-3.201597,-70.489998,-93.239998,-53.27,1729428216690.0,0.0
5.106283,-5.737988,-1.562513,10.22,-121.800003,-5.39,1729428216714.0,0.0
-8.063812,-8.159525,-7.099504,84.139999,-133.699997,46.830002,1729428216730.0,0.0
-16.328621,-7.616355,-21.267408,-47.110001,-122.360001,28.42,1729428216751.0,0.0
-14.950355,-6.116055,-20.425133,-113.610001,20.23,-6.51,1729428216770.0,0.0
-0.267996,1.617548,-5.692525,63.77,68.25,-2.17,1729428216791.0,0.0
-5.149354,-3.768696,-18.537197,-144.199997,83.93,-20.790001,1729428216814.0,0.0
-5.443672,-5.577669,-6.355337,-130.410004,126.629997,-9.17,1729428216830.0,0.0
0.327817,-2.524428,-6.123233,-67.690002,134.330002,-7.14,1729428216852.0,0.0
-2.830709,-9.906286,-0.212961,-61.529999,107.590004,9.73,1729428216878.0,0.0
0.543171,-8.626125,-2.445465,-125.300003,68.599998,-38.779999,1729428216890.0,0.0
1.864009,-9.973285,0.356531,-148.470001,22.4,-57.610001,1729428216913.0,0.0
1.885544,-7.116255,-1.751546,-85.889999,-17.780001,-67.690002,1729428216931.0,0.0
0.959522,-5.903094,-8.628519,-54.810001,-46.41,-60.689999,1729428216952.0,0.0
-2.998207,-4.431508,-9.257831,-8.61,-38.5,-46.060001,1729428216971.0,0.0
-2.89053,-6.345766,-13.560125,-111.720001,-28.84,-58.170002,1729428216990.0,0.0
-1.785046,-5.56092,-13.966907,-242.270004,-8.68,-68.739998,1729428217011.0,0.0
-1.584049,-2.218147,-7.69771,-199.850006,17.57,-58.240002,1729428217031.0,0.0
-1.89033,2.067399,-0.823131,-73.080002,17.43,0.28,1729428217050.0,0.0
-1.674976,-4.996214,-1.674976,-110.809998,-27.65,28.210001,1729428217069.0,0.0
-2.512464,-3.658626,-6.350551,-128.660004,-73.779999,-12.6,1729428217092.0,0.0
-5.65424,-9.339187,-16.103697,-3.15,-67.129997,-15.68,1729428217111.0,0.0
-4.752146,-1.787439,-10.415956,48.299999,-40.529999,-44.59,1729428217130.0,0.0
-2.273181,2.488536,-10.832308,77.489998,-35.349998,-16.799999,1729428217152.0,0.0
-3.239882,-1.962115,-13.110275,110.599998,-23.379999,20.370001,1729428217172.0,0.0
-2.598605,-5.711668,-11.456835,200.550003,-16.799999,10.15,1729428217191.0,0.0
-3.816552,-6.116055,-9.707682,234.710007,-2.03,-3.57,1729428217212.0,0.0
-3.806981,-5.261817,-10.904092,208.180008,13.93,-8.68,1729428217233.0,0.0
-3.347559,-12.050256,-2.28036,279.649994,-23.52,-11.13,1729428217252.0,0.0
5.369494,-15.120246,-13.96212,664.789978,-74.199997,-5.95,1729428217272.0,0.0
0.952343,-3.871587,-9.722038,952.280029,71.400002,-16.870001,1729428217290.0,0.0
-11.009377,-6.178268,-8.788837,758.030029,148.330002,15.82,1729428217311.0,0.0
-13.808979,-4.328616,9.906286,320.529999,39.970001,80.919998,1729428217329.0,0.0
0.172283,-9.638289,-4.881358,-41.650002,-81.550003,-8.96,1729428217353.0,0.0
1.545763,-19.936998,-4.421937,-25.41,-65.940002,-9.45,1729428217371.0,0.0
-9.119047,-7.235896,1.938186,313.600006,51.66,24.710001,1729428217390.0,0.0
-5.446064,-0.993021,5.570491,182.279999,53.970001,-19.530001,1729428217411.0,0.0
-2.486143,-15.275781,-5.156533,-147.210007,-51.869999,4.76,1729428217431.0,0.0
-5.180461,-13.069597,2.612962,47.459999,10.99,16.52,1729428217450.0,0.0
-9.702895,-25.359137,8.032705,93.660004,0.84,-4.55,1729428217471.0,0.0
-10.667203,-10.358529,-6.623333,256.480011,87.360001,-7.49,1729428217490.0,0.0
-5.252246,-8.872586,-9.678967,89.32,92.68,-98.699997,1729428217512.0,0.0
-4.070191,-17.941383,-3.797409,0.7,98.139999,-77.139999,1729428217530.0,0.0
1.471586,-2.562713,3.503092,-51.799999,115.5,-106.260002,1729428217551.0,0.0
-1.902294,-0.083749,7.554141,-138.600006,51.799999,-64.889999,1729428217570.0,0.0
4.204189,-0.040678,10.573883,-198.520004,29.469999,-37.799999,1729428217594.0,0.0
1.864009,-3.754339,17.05604,-170.869995,-1.68,28.35,1729428217612.0,0.0
-1.146162,-14.096118,4.608576,-313.670013,-47.670002,4.9,1729428217631.0,0.0
-0.055035,-12.114861,-4.811966,-354.200012,-56.209999,-15.33,1729428217654.0,0.0
-2.084148,-6.793223,-4.419543,-222.809998,-39.34,6.51,1729428217669.0,0.0
-1.548156,-1.555335,1.756332,-215.040009,-49.279999,15.61,1729428217690.0,0.0
-4.139583,-6.118448,1.143769,-310.100006,-86.590004,36.400002,1729428217711.0,0.0
-4.759324,-17.36232,2.012364,-326.829987,-131.180008,-33.670002,1729428217730.0,0.0
-6.472585,-4.479364,-7.276574,-283.01001,-119.980003,-35.490002,1729428217750.0,0.0
-3.550949,1.801795,-20.606989,-297.290009,-104.160004,-39.900002,1729428217770.0,0.0
-8.133204,-7.530212,-20.458633,-63.279999,-27.93,40.25,1729428217789.0,0.0
-16.094126,-15.979269,-18.431911,206.639999,77.980003,44.52,1729428217812.0,0.0
-4.855037,1.794617,-13.521841,74.059998,114.870003,-31.15,1729428217830.0,0.0
-2.318645,-2.603391,-15.323636,88.340004,143.289993,-6.79,1729428217852.0,0.0
-8.396415,-2.289931,-11.665009,179.970001,228.130005,36.259998,1729428217870.0,0.0
3.993621,-1.655833,8.573483,69.230003,220.430008,45.009998,1729428217890.0,0.0
3.393023,-9.762716,16.223339,-37.170002,121.029999,72.590004,1729428217912.0,0.0
4.082155,-17.737993,4.146761,-17.57,-7.0,49.0,1729428217930.0,0.0
-1.148555,-12.902101,4.965107,5.25,-68.529999,-22.960001,1729428217950.0,0.0
4.955536,-6.759724,-0.0335,34.860001,-118.440002,-14.14,1729428217970.0,0.0
-2.971886,-6.333801,-2.148755,-9.45,-153.229996,-11.69,1729428217989.0,0.0
-4.165904,-5.242674,-12.516854,0.49,-168.350006,27.65,1729428218013.0,0.0
-14.438292,-12.607781,-19.477577,2.59,-101.43,44.170002,1729428218031.0,0.0
-22.375286,-6.364908,-25.591238,-123.199997,7.84,12.53,1729428218050.0,0.0
-2.651247,-0.835095,-15.694524,-42.91,79.870003,-13.93,1729428218070.0,0.0
-5.627919,-8.018349,-14.967105,-51.380001,141.050003,-22.190001,1729428218089.0,0.0
1.040878,-0.260818,-1.744368,-23.52,183.470001,-23.799999,1729428218110.0,0.0
-2.11047,-10.681561,9.209974,-83.860001,138.669998,-9.8,1729428218130.0,0.0
3.443272,-10.145569,11.23191,-75.739998,41.720001,-38.150002,1729428218150.0,0.0
-3.460021,-9.729217,-1.284946,-79.940002,-12.74,-68.529999,1729428218170.0,0.0
-0.667598,-5.15414,-5.718846,-86.940002,-42.07,-67.900002,1729428218191.0,0.0
5.69731,-2.823531,-2.426322,-82.25,-79.519997,-34.23,1729428218287.0,0.0
2.629712,-10.724631,-6.446264,-56.279999,-117.110001,2.38,1729428218288.0,0.0
-6.130411,-13.902299,-5.589634,-47.459999,-113.540001,-33.18,1729428218288.0,0.0
-4.323831,-4.453043,-11.74158,-122.290001,-126.840004,-65.379997,1729428218288.0,0.0
-9.387043,-3.802195,-17.778673,-130.270004,-75.040001,-49.139999,1729428218289.0,0.0
-13.52902,1.284946,-19.51586,-57.400002,7.56,-4.69,1729428218312.0,0.0
-1.440479,0.229711,-14.481362,53.830002,53.200001,17.57,1729428218329.0,0.0
-6.874579,-3.022135,-15.25903,52.639999,112.07,-22.960001,1729428218349.0,0.0
-1.753939,-0.447458,-11.933006,-38.43,125.510002,-44.59,1729428218370.0,0.0
2.438286,-4.606184,-2.134398,-82.32,132.160004,-33.599998,1729428218390.0,0.0
2.433501,-4.249653,1.765903,-35.420002,103.110001,-22.26,1729428218410.0,0.0
3.541377,-8.757731,1.641476,-107.800003,35.209999,-19.389999,1729428218430.0,0.0
2.679961,-8.650054,-5.187639,-130.130005,-41.02,-48.09,1729428218450.0,0.0
-0.902094,-5.259424,-7.788638,-160.300003,-54.110001,-59.150002,1729428218469.0,0.0
-1.009771,-0.727418,-8.147561,-205.100006,-69.019997,-66.080002,1729428218489.0,0.0
-0.79681,1.923829,-9.875179,-250.740005,-86.940002,-57.330002,1729428218510.0,0.0
-1.050449,-0.141177,-14.802001,-274.26001,-82.739998,-41.509998,1729428218530.0,0.0
-2.330609,0.945165,-12.760924,-116.410004,-60.48,-16.379999,1729428218550.0,0.0
-3.426522,-1.584049,-9.616754,-31.290001,-43.259998,-4.41,1729428218569.0,0.0
-2.907279,-7.623533,-9.88475,-7.28,-40.670002,-17.639999,1729428218589.0,0.0
-3.419343,-4.323831,-7.008578,61.880001,-52.709999,-47.18,1729428218610.0,0.0
-1.993221,1.088734,-12.954741,84.419998,-66.010002,-45.709999,1729428218629.0,0.0
-2.361716,-2.486143,-11.626726,151.059998,-39.48,-6.93,1729428218652.0,0.0
-2.230111,-6.458229,-10.006784,281.329987,-34.860001,4.06,1729428218669.0,0.0
-4.041477,-2.947958,-10.841879,490.559998,-34.23,19.950001,1729428218692.0,0.0
-8.355737,-2.17029,-15.323636,690.409973,-0.28,74.480003,1729428218710.0,0.0
-4.957928,2.354537,-4.070191,402.98999,37.170002,50.400002,1729428218730.0,0.0
-5.496314,-15.182461,-0.320638,-5.18,-6.93,22.469999,1729428218749.0,0.0
-5.651847,-7.405786,-9.209974,129.639999,47.599998,19.809999,1729428218770.0,0.0
1.643869,3.67059,-5.91745,459.269989,-4.9,6.79,1729428218795.0,0.0
-8.647661,-5.572884,-3.227918,369.809998,120.75,13.93,1729428218810.0,0.0
-3.259024,-5.848059,-11.949757,80.779999,-92.610001,9.24,1729428218829.0,0.0
-4.240082,-11.215159,8.068598,310.660004,94.989998,57.260002,1729428218850.0,0.0
-6.537192,-8.819944,-9.796216,-100.519997,-30.59,3.08,1729428218869.0,0.0
-6.987042,-4.271189,-16.711473,-85.540001,21.91,9.59,1729428218889.0,0.0
-4.644469,-12.602997,-14.273187,-12.11,87.57,-6.86,1729428218918.0,0.0
-6.262017,-10.262815,-9.296116,115.290001,156.940002,-9.94,1729428218931.0,0.0
-7.104291,-8.642875,1.237089,55.580002,151.759995,-1.33,1729428219057.0,0.0
-1.706082,-8.872586,1.428515,-120.959999,89.389999,-59.290001,1729428219057.0,0.0
0.602991,-10.643275,0.315853,-183.050003,47.810001,-47.18,1729428219057.0,0.0
2.175076,-3.771089,9.466006,-137.619995,52.5,-34.790001,1729428219058.0,0.0
2.533999,-7.063612,7.798209,-207.970001,-0.42,-20.58,1729428219058.0,0.0
1.756332,-13.325629,-1.351945,-260.399994,-53.549999,-53.27,1729428219058.0,0.0
-2.541178,-4.345366,-2.87378,-306.950012,-87.43,-48.16,1729428219070.0,0.0
-6.01077,-0.208176,-4.926822,-396.619995,-99.959999,-63.84,1729428219090.0,0.0
-6.209375,0.526421,-7.109076,-397.880005,-136.990005,-46.130001,1729428219131.0,0.0
-5.812167,-0.028714,-19.858034,-183.190002,-101.779999,-9.66,1729428219131.0,0.0
-1.5003,4.737789,-26.297121,8.12,-42.98,22.960001,1729428219150.0,0.0
0.978664,0.643669,-6.463014,-72.519997,-83.650002,-36.119999,1729428219190.0,0.0
-1.586441,1.471586,-3.768696,-230.440002,-91.0,-23.1,1729428219213.0,0.0
-5.419744,-7.946564,-14.617754,-173.880005,-99.540001,-11.62,1729428219230.0,0.0
-4.845466,-2.007578,-10.301102,12.32,-79.239998,-29.82,1729428219250.0,0.0
-6.381658,3.364309,-7.314859,-81.269997,-76.370003,-37.66,1729428219271.0,0.0
-5.039285,-6.407979,-13.194024,-153.089996,-65.800003,-27.16,1729428219290.0,0.0
-6.709475,-2.213361,-12.083755,-91.209999,-48.23,-50.610001,1729428219312.0,0.0
-5.513064,-0.346959,-11.090734,-51.869999,-26.6,-40.880001,1729428219330.0,0.0
-2.68714,-1.794617,-11.150554,-49.91,-20.02,-21.35,1729428219350.0,0.0
-3.067599,-4.673182,-11.595619,-11.97,-11.62,-21.49,1729428219369.0,0.0
-4.187439,-4.151547,-15.708879,146.020004,6.79,-35.07,1729428219391.0,0.0
-5.687739,-3.61077,-19.89632,234.290009,35.98,-53.760002,1729428219411.0,0.0
-7.262216,7.018148,-10.236496,324.940002,79.870003,-57.470001,1729428219431.0,0.0
-4.960321,12.875778,-2.366502,321.860016,68.809998,2.73,1729428219452.0,0.0
-4.362115,-3.493521,-5.960521,88.340004,67.830002,16.73,1729428219471.0,0.0
-5.259424,-5.558527,-11.708081,74.970001,49.139999,17.08,1729428219492.0,0.0
-2.134398,-8.99462,-10.08814,218.470001,58.380001,2.31,1729428219520.0,0.0
-1.840081,7.456036,6.101698,178.639999,46.27,13.65,1729428219533.0,0.0
-9.162118,-10.693524,-21.844078,-36.540001,7.63,29.33,1729428219552.0,0.0
3.617948,-14.921642,-11.918649,13.09,29.33,-33.32,1729428219571.0,0.0
-0.851845,3.412165,-3.002992,269.429993,39.970001,42.77,1729428219591.0,0.0
-21.2363,-8.370094,-7.84128,239.889999,94.220001,52.849998,1729428219613.0,0.0
-3.814159,-4.68754,-5.134997,81.550003,-19.110001,-37.029999,1729428219638.0,0.0
2.014757,-0.772882,-4.831109,36.189999,-4.9,24.5,1729428219654.0,0.0
-6.498906,-3.438486,-13.473984,8.47,19.67,16.24,1729428219671.0,0.0
-10.473385,-2.888137,-13.493127,-20.58,78.050003,44.52,1729428219691.0,0.0
-9.004191,-6.644868,-8.937192,-28.35,105.980003,8.12,1729428219715.0,0.0
-5.271388,-3.78066,-8.173882,-24.43,103.110001,9.45,1729428219732.0,0.0
1.998007,-7.118648,-16.158731,1.68,84.910004,-8.61,1729428219752.0,0.0
-0.244068,-7.60439,-3.955336,167.229996,145.460007,43.119999,1729428219771.0,0.0
-0.727418,-9.097511,2.067399,141.75,124.529999,27.719999,1729428219791.0,0.0
3.122634,-11.370694,-1.141376,91.07,78.68,-9.59,1729428219812.0,0.0
4.661219,-5.115855,5.534599,84.629997,66.779999,-10.85,1729428219831.0,0.0
-1.234696,-4.182654,0.040678,1.4,19.32,13.93,1729428219852.0,0.0
-8.099705,-2.234896,2.842674,-44.029999,2.87,33.599998,1729428219871.0,0.0
-0.277567,-7.314859,2.325824,-190.470001,-35.0,11.55,1729428219891.0,0.0
-0.160319,-9.576077,0.540778,-280.839996,-103.040001,-1.4,1729428219913.0,0.0
-3.259024,-13.265808,-6.116055,-284.549988,-135.029999,-40.25,1729428219931.0,0.0
0.062213,-2.818745,-12.849458,-186.830002,-157.990005,-43.470001,1729428219951.0,0.0
-14.833108,-4.347759,-20.937197,-111.020004,-100.940002,-23.1,1729428219970.0,0.0
-17.369499,-8.602197,-28.919655,-7.0,-28.210001,-21.07,1729428219991.0,0.0
-3.754339,3.242275,-5.685347,245.979996,62.439999,10.08,1729428220012.0,0.0
-4.579862,-5.259424,-14.732609,8.96,98.279999,-19.110001,1729428220032.0,0.0
-1.055235,-4.744967,-14.4024,80.010002,114.449997,3.99,1729428220052.0,0.0
2.782853,-4.39083,-1.718047,157.919998,142.449997,10.64,1729428220070.0,0.0
2.847459,-5.647062,9.475577,115.779999,114.520004,17.639999,1729428220090.0,0.0
7.379465,-9.475577,3.9673,-18.200001,2.45,-18.620001,1729428220111.0,0.0
-3.893122,-5.070391,2.751746,-39.34,-42.98,-29.469999,1729428220132.0,0.0
2.634498,-4.09412,0.933201,-21.77,-111.650002,-19.74,1729428220151.0,0.0
-1.399801,-6.24766,-3.122634,-3.08,-161.630005,-5.74,1729428220170.0,0.0
-6.015556,-6.108876,-14.624931,-8.82,-170.520004,18.27,1729428220190.0,0.0
-15.63231,-16.213766,-16.118053,-68.669998,-126.629997,14.49,1729428220211.0,0.0
-22.27718,-3.18724,-32.906097,-6.58,-14.91,-21.98,1729428220232.0,0.0
-5.412565,3.852444,-16.811972,239.050003,94.849998,34.509998,1729428220252.0,0.0
1.844866,3.017349,-14.940784,158.059998,139.720001,36.540001,1729428220271.0,0.0
-8.262416,-4.701896,-13.971692,-32.200001,189.770004,49.0,1729428220290.0,0.0
-0.942772,-1.332802,-10.655239,39.060001,197.330002,66.989998,1729428220316.0,0.0
-1.938186,-8.920443,16.460228,114.660004,211.119995,68.809998,1729428220330.0,0.0
3.629912,-11.863614,14.737395,-32.200001,136.710007,-8.33,1729428220353.0,0.0
3.294917,-10.69831,2.524428,-89.32,-55.93,-38.43,1729428220371.0,0.0
-3.192025,-11.047661,0.148355,-32.48,-98.349998,-53.48,1729428220391.0,0.0
3.440879,-3.756732,-2.684747,26.880001,-126.07,-24.01,1729428220417.0,0.0
-3.663411,-11.404193,-1.923829,-6.51,-140.559998,0.91,1729428220432.0,0.0
-6.608976,-8.571091,-3.620341,-32.48,-167.440002,-6.65,1729428220451.0,0.0
-9.286544,-10.614561,-10.497313,-17.780001,-172.690002,11.41,1729428220471.0,0.0
-10.973484,-8.353344,-22.76053,-30.309999,-112.980003,-7.42,1729428220490.0,0.0
-20.425133,-5.178068,-25.462027,-28.84,20.370001,31.08,1729428220514.0,0.0
-3.096312,1.124627,-12.095718,89.459999,89.949997,12.18,1729428220534.0,0.0
-5.316852,-2.914458,-13.773087,-50.68,111.790001,-7.49,1729428220552.0,0.0
-2.830709,-1.945365,-9.942179,-47.040001,131.529999,1.12,1729428220571.0,0.0
-2.914458,-8.781659,-7.030113,-30.450001,157.009995,10.15,1729428220593.0,0.0
-0.971486,-11.193624,2.813959,-13.72,139.440002,-1.75,1729428220626.0,0.0
-0.418744,-11.645866,2.344966,-51.310001,81.900002,-56.0,1729428220632.0,0.0
2.495714,-5.443672,5.146961,-65.519997,24.780001,-79.099998,1729428220654.0,0.0
2.524428,-7.396214,-3.311667,-104.230003,-48.580002,-74.690002,1729428220670.0,0.0
-3.68734,-6.558727,-9.284152,-175.630005,-80.989998,-72.660004,1729428220690.0,0.0
-3.050849,-5.613562,-10.794022,-276.850006,-79.800003,-90.720001,1729428220715.0,0.0
-2.785245,-4.577469,-11.980864,-253.330002,-71.120003,-90.230003,1729428220731.0,0.0
-1.768296,-2.947958,-10.073784,-200.619995,-60.200001,-79.519997,1729428220752.0,0.0
-1.261017,-3.574877,-9.923036,-147.490005,-47.110001,-53.200001,1729428220771.0,0.0
-0.665205,-1.418944,-6.218946,-105.419998,-36.119999,-39.549999,1729428220790.0,0.0
2.026721,-0.09332,-16.130018,-68.18,-32.27,-32.970001,1729428220811.0,0.0
0.428315,-0.445065,-13.304093,-101.57,-8.12,-38.43,1729428220831.0,0.0
-2.184647,2.505285,-5.766702,-56.349998,-15.61,-17.639999,1729428220851.0,0.0
-2.041078,-1.301696,-2.234896,-44.66,-39.689999,-13.72,1729428220870.0,0.0
-3.773481,-2.337788,-2.555535,-34.09,-81.550003,-1.61,1729428220892.0,0.0
-6.415157,-6.65444,-9.425328,-67.830002,-105.489998,-21.35,1729428220911.0,0.0
-3.854837,-2.062613,-18.613768,-86.169998,-96.739998,-46.41,1729428220932.0,0.0
-4.197011,-4.395615,-15.13221,17.57,-57.959999,-29.82,1729428220951.0,0.0
-2.275574,-0.751346,-11.279767,163.800003,-48.650002,-12.81,1729428220972.0,0.0
-5.249853,-5.903094,-14.502897,287.980011,-32.549999,19.809999,1729428220992.0,0.0
-5.316852,3.859623,-12.564712,353.850006,6.37,19.460001,1729428221014.0,0.0
-3.929015,-4.721039,-8.173882,352.23999,48.02,57.75,1729428221031.0,0.0
-5.089533,-7.37468,-1.689333,227.570007,36.540001,20.58,1729428221051.0,0.0
-1.002593,-3.742374,-9.387043,315.209991,-3.08,22.540001,1729428221070.0,0.0
3.783052,-5.572884,-3.105884,459.130005,-34.09,4.9,1729428221092.0,0.0
-0.930808,-13.670196,-7.893922,703.919983,7.42,39.830002,1729428221111.0,0.0
-16.603796,-1.39023,1.445265,564.690002,123.830002,18.83,1729428221131.0,0.0
-10.540384,1.545763,4.9675,232.540009,83.370003,31.5,1729428221152.0,0.0
0.454636,-14.431112,-3.962514,-24.92,-53.760002,-26.950001,1729428221172.0,0.0
-7.006185,-11.724831,-2.299503,90.300003,-11.97,4.27,1729428221190.0,0.0
-6.766902,-4.15394,6.62094,262.920013,21.98,-2.45,1729428221212.0,0.0
-4.206582,-8.767302,4.957928,102.830002,-25.129999,-4.48,1729428221231.0,0.0
0.827917,-5.166104,4.177868,72.730003,-19.879999,6.09,1729428221252.0,0.0
-11.078769,-9.523434,-9.719646,-16.73,-1.4,21.0,1729428221271.0,0.0
-7.01097,-11.172089,-3.649055,77.840004,-9.38,-8.26,1729428221292.0,0.0
-9.332008,-9.174082,-7.709675,270.059998,115.150002,-33.18,1729428221313.0,0.0
-10.095319,-9.595219,-5.271388,98.489998,116.970001,-60.34,1729428221330.0,0.0
-2.95035,-7.235896,1.849652,-27.65,120.959999,-77.699997,1729428221352.0,0.0
0.193819,-3.39063,2.782853,-209.580002,105.209999,-68.739998,1729428221371.0,0.0
3.491128,-6.484549,7.960921,-262.779999,77.629997,-32.900002,1729428221390.0,0.0
5.302495,-8.867801,15.766309,-167.509995,21.700001,-13.79,1729428221411.0,0.0
-2.87378,-14.703895,6.680761,-146.789993,-29.190001,-19.530001,1729428221431.0,0.0
-4.465007,-14.589039,-0.961915,-210.770004,-37.73,-48.02,1729428221452.0,0.0
1.911865,-7.317252,1.418944,-184.800003,-27.65,-37.66,1729428221470.0,0.0
-2.514857,-6.470192,3.613162,-108.43,-55.16,-6.23,1729428221492.0,0.0
-2.476572,-4.788038,4.907679,-98.489998,-83.230003,15.26,1729428221511.0,0.0
-4.201797,-4.922036,1.22034,-188.649994,-116.480003,19.040001,1729428221531.0,0.0
-3.878766,-6.991827,-4.776074,-228.199997,-138.320007,14.28,1729428221551.0,0.0
-5.211568,-6.436693,-6.357729,-217.979996,-141.539993,9.31,1729428221570.0,0.0
-4.84068,-1.782653,-10.131211,-206.990005,-145.039993,32.34,1729428221591.0,0.0
-9.102298,-2.713461,-9.741181,-203.979996,-116.620003,38.080002,1729428221611.0,0.0
-7.733603,-5.991628,-14.129619,-218.889999,-102.760002,35.420002,1729428221632.0,0.0
-5.84088,-6.367301,-13.636696,-162.259995,-81.340004,26.389999,1729428221654.0,0.0
-8.173882,-2.541178,-8.626125,-51.939999,-40.599998,9.94,1729428221672.0,0.0
-7.410572,-3.37388,-8.30788,-77.840004,-10.29,11.34,1729428221690.0,0.0
-7.066005,-4.228118,-8.032705,-186.619995,-0.98,3.92,1729428221711.0,0.0
-10.116854,-1.438086,-12.818351,-165.619995,25.549999,-13.37,1729428221730.0,0.0
-8.975478,-2.880959,-14.050655,-156.800003,65.800003,-8.19,1729428221752.0,0.0
-8.193025,-4.493721,-12.361321,-91.209999,108.57,-3.78,1729428221772.0,0.0
-5.481956,-2.979064,-4.524827,-89.25,119.0,-16.52,1729428221790.0,0.0
-3.038885,-1.189233,-7.609176,-195.229996,94.010002,-34.23,1729428221816.0,0.0
-0.634098,-10.664811,-7.664211,-166.669998,78.82,-20.299999,1729428221831.0,0.0
-1.631905,-4.790431,-6.439085,-147.210007,72.309998,-54.110001,1729428221851.0,0.0
0.990629,-4.68754,-6.766902,-198.940002,45.220001,-68.739998,1729428221870.0,0.0
0.167498,-3.78066,-3.371487,-179.410004,15.89,-66.779999,1729428221890.0,0.0
-0.055035,-0.12682,-8.865408,-187.110001,-20.02,-54.740002,1729428221915.0,0.0
-1.09352,-5.843273,-9.516255,-207.339996,-15.61,-29.26,1729428221930.0,0.0
-2.620141,3.443272,-5.460421,-28.210001,-32.27,-0.98,1729428221952.0,0.0
-4.048656,2.072184,-7.482357,-31.92,-55.02,19.879999,1729428221971.0,0.0
-6.388836,-6.575477,-14.184652,-35.77,-47.950001,19.32,1729428221992.0,0.0
-3.421736,-1.540978,-13.040883,-37.59,-30.450001,-25.969999,1729428222013.0,0.0
-5.237889,0.997807,-6.898508,24.219999,-23.66,-11.27,1729428222031.0,0.0
-4.113262,-0.550349,-7.140182,54.810001,-36.889999,9.73,1729428222052.0,0.0
-5.237889,-0.547956,-9.592826,49.209999,-42.0,10.01,1729428222069.0,0.0
-5.539384,-0.088534,-10.040283,30.1,-25.690001,4.9,1729428222092.0,0.0
-5.307281,-1.344766,-6.104091,42.700001,-13.65,3.36,1729428222113.0,0.0
-2.902494,-3.438486,-8.271988,58.73,-22.75,-0.91,1729428222131.0,0.0
-5.520242,0.904487,-9.688539,50.540001,-21.280001,-19.040001,1729428222152.0,0.0
-4.651647,-0.835095,-11.035697,58.380001,-20.58,-3.22,1729428222170.0,0.0
-4.187439,0.09332,-10.224532,30.450001,-16.030001,-4.97,1729428222190.0,0.0
-6.106483,-1.921437,-8.465806,6.51,-7.21,5.18,1729428222214.0,0.0
-5.194818,-2.0004,-7.274181,5.46,-8.61,3.64,1729428222231.0,0.0
-4.376472,-2.969493,-8.212167,26.32,-13.16,0.63,1729428222256.0,0.0
-5.290531,-2.213361,-8.987441,47.529999,-11.83,-2.45,1729428222270.0,0.0
-4.493721,-3.591627,-10.633704,53.549999,-8.4,-5.95,1729428222291.0,0.0
-5.563312,-0.715454,-9.250652,56.77,9.24,-7.56,1729428222312.0,0.0
-4.304688,-5.223531,-8.492127,50.540001,9.31,-5.04,1729428222330.0,0.0
-3.235096,-1.418944,-9.107083,99.959999,9.17,-7.56,1729428222351.0,0.0
-4.929214,-2.610569,-8.958728,138.809998,13.79,-2.1,1729428222370.0,0.0
-4.024727,-3.330809,-8.25763,96.459999,11.76,3.01,1729428222391.0,0.0
-4.778467,-5.276174,-8.106883,102.340004,7.63,8.19,1729428222412.0,0.0
-5.108676,-7.657032,-8.910872,189.0,3.5,3.22,1729428222430.0,0.0
-3.244668,-4.520042,-11.830115,382.899994,4.06,14.84,1729428222450.0,0.0
-3.378666,-0.971486,-6.111269,565.880005,41.720001,56.91,1729428222471.0,0.0
-9.872787,-0.70349,-4.084548,303.23999,71.889999,6.09,1729428222490.0,0.0
-8.336594,-8.020741,-5.91745,-88.269997,18.27,5.67,1729428222511.0,0.0
-1.555335,-13.3352,-13.505091,18.76,-28.139999,-52.849998,1729428222530.0,0.0
-2.40718,-2.667997,-7.640282,349.579987,59.220001,17.360001,1729428222550.0,0.0
-5.85763,-3.084348,0.674776,307.089996,87.150002,10.36,1729428222572.0,0.0
-5.319244,-10.621738,0.835095,56.0,18.620001,-5.81,1729428222590.0,0.0
-1.435694,-9.468399,-1.488336,-10.64,1.12,-29.68,1729428222614.0,0.0
-1.753939,-4.149154,-1.801795,-22.4,-1.26,-4.41,1729428222630.0,0.0
-2.136791,-8.338986,-4.639683,-42.77,-14.49,12.11,1729428222653.0,0.0
-4.608576,-12.394822,-3.165704,23.52,-17.85,15.33,1729428222671.0,0.0
-5.381458,-3.445665,-3.414558,83.230003,-16.59,28.280001,1729428222690.0,0.0
-7.4345,-11.148161,-4.977071,25.27,-38.43,2.66,1729428222712.0,0.0
-3.601198,-8.671589,-5.498707,90.93,-24.5,21.98,1729428222730.0,0.0
-6.726225,-6.046663,-3.443272,119.209999,-4.69,38.849998,1729428222750.0,0.0
-6.642475,-7.719246,-5.015356,58.380001,-11.55,23.379999,1729428222771.0,0.0
-6.733403,-9.425328,-6.903293,123.550003,-7.98,27.790001,1729428222791.0,0.0
-6.089733,-8.4347,-4.84068,221.690002,6.16,26.67,1729428222812.0,0.0
-5.4006,-4.287938,-1.227518,217.210007,18.9,27.719999,1729428222830.0,0.0
-4.524827,-8.353344,-1.476372,218.330002,-10.36,33.459999,1729428222850.0,0.0
-4.95075,-9.377472,-0.497707,329.910004,15.26,37.099998,1729428222870.0,0.0
-6.922436,-7.171289,2.172683,349.440002,33.459999,22.33,1729428222889.0,0.0
-8.836694,-9.600004,2.132005,197.889999,17.15,12.67,1729428222911.0,0.0
-5.565705,-9.887143,-0.18664,81.340004,-0.77,-6.3,1729428222930.0,0.0
-5.417351,-8.65484,0.911665,123.059998,20.790001,-19.32,1729428222951.0,0.0
-5.314459,-7.944171,0.643669,99.330002,19.25,-24.360001,1729428222969.0,0.0
-3.254239,-6.446264,2.419144,35.84,23.17,-21.0,1729428222989.0,0.0
-4.572684,-7.140182,0.949951,-78.260002,16.450001,-11.97,1729428223010.0,0.0
-4.881358,-8.810372,0.772882,-153.369995,14.21,-6.09,1729428223030.0,0.0
-5.338387,-6.685547,1.052842,-254.380005,17.01,-24.360001,1729428223052.0,0.0
-5.228317,-7.508677,-0.358923,-289.940002,17.01,-22.960001,1729428223071.0,0.0
-4.366901,-8.343772,-3.249453,-313.73999,-5.88,-32.900002,1729428223090.0,0.0
-6.592227,-12.282358,-0.241675,-287.140015,9.38,-32.34,1729428223122.0,0.0
-5.118248,-8.346166,-0.598206,-183.680008,-2.87,-36.540001,1729428223130.0,0.0
-4.95075,-4.48415,-1.021735,-174.300003,2.1,-31.99,1729428223153.0,0.0
-4.529613,-7.556533,-3.175276,-300.299988,-15.82,-50.470001,1729428223170.0,0.0
-4.4674,-8.499306,-7.530212,-347.269989,-23.17,-44.939999,1729428223191.0,0.0
-5.601598,-12.282358,-7.881958,-135.940002,-29.889999,-24.92,1729428223272.0,0.0
-5.484349,-2.574677,-8.853443,-13.79,14.98,-38.360001,1729428223273.0,0.0
-4.036692,-7.826923,-8.044669,-167.649994,13.58,-31.08,1729428223273.0,0.0
-3.998406,-7.269395,-3.120241,-92.330002,21.98,-18.969999,1729428223273.0,0.0
-4.316652,-4.206582,-5.735595,-68.949997,10.57,-33.880001,1729428223290.0,0.0
-4.254438,-4.630112,-7.348359,-173.949997,11.97,-24.5,1729428223312.0,0.0
-2.605784,-8.116454,-7.850852,-108.57,7.28,-8.19,1729428223330.0,0.0
-3.859623,-6.939186,-6.530013,-56.490002,17.08,-19.32,1729428223351.0,0.0
-5.010571,-5.60399,-3.115455,-63.420002,16.450001,-24.710001,1729428223371.0,0.0
-4.56072,-6.273981,-4.228118,-54.880001,-1.61,-21.07,1729428223391.0,0.0
-3.907479,-4.721039,-7.49432,-115.150002,-10.36,-28.84,1729428223412.0,0.0
-3.574877,-7.802995,-8.154739,-168.350006,-14.21,-22.889999,1729428223431.0,0.0
-4.503292,-7.649854,-7.611568,-127.82,-14.14,-33.040001,1729428223451.0,0.0
-5.249853,-3.646662,-8.520842,-89.18,-11.76,-49.98,1729428223471.0,0.0
-2.586641,-5.020142,-10.526026,-93.519997,-7.77,-53.689999,1729428223492.0,0.0
-3.84048,-1.564906,-9.688539,-108.709999,1.61,-53.34,1729428223512.0,0.0
-1.624727,-1.756332,-7.087541,-184.240005,-2.45,-53.760002,1729428223533.0,0.0
-2.136791,-0.612563,-5.541777,-171.639999,-18.27,-29.960001,1729428223552.0,0.0
-4.393222,-2.474179,-5.362316,-99.68,-34.650002,-29.960001,1729428223571.0,0.0
-5.728417,-3.895515,-8.413164,-92.610001,-38.43,4.2,1729428223592.0,0.0
-4.634897,-5.367101,-8.95155,-143.639999,-35.139999,-1.19,1729428223613.0,0.0
-3.426522,-0.33021,-10.686346,-82.459999,-25.690001,-7.28,1729428223632.0,0.0
-2.955136,-2.517249,-10.803595,-61.950001,-20.860001,-0.07,1729428223655.0,0.0
-3.182454,-3.677768,-10.959127,-25.620001,-18.129999,-1.33,1729428223681.0,0.0
-3.567699,-4.512863,-10.078569,17.57,-10.71,-6.02,1729428223693.0,0.0
-3.110669,-2.732604,-9.695717,64.050003,-10.5,-7.21,1729428223714.0,0.0
-5.359922,-4.603791,-9.071191,65.870003,-3.22,-9.24,1729428223732.0,0.0
-4.505685,-5.268995,-10.140782,110.669998,-4.48,-12.32,1729428223753.0,0.0
-5.130211,-3.771089,-10.657632,211.889999,3.15,-8.89,1729428223772.0,0.0
-5.587241,-0.689133,-11.956935,312.480011,24.08,2.1,1729428223792.0,0.0
-4.589434,-3.854837,-11.085947,371.630005,43.400002,22.33,1729428223814.0,0.0
-2.301895,-2.85703,-6.592227,324.029999,50.959999,7.84,1729428223836.0,0.0
-2.589034,-3.292524,-4.811966,222.460007,32.130001,6.23,1729428223852.0,0.0
-5.146961,-3.988836,-3.816552,131.529999,27.790001,11.27,1729428223871.0,0.0
-3.852444,-7.238289,-7.099504,68.949997,12.18,-1.47,1729428223891.0,0.0
-0.629312,-17.998812,-10.054641,246.610001,-41.09,-1.12,1729428223913.0,0.0
-0.162712,-5.201996,-5.635098,537.809998,69.790001,18.9,1729428223932.0,0.0
-13.031311,3.412165,-2.455036,220.710007,109.620003,38.009998,1729428223952.0,0.0
-5.431707,-16.139589,-7.625926,-101.779999,-56.91,-39.34,1729428223971.0,0.0
3.302095,-12.15554,0.631705,298.269989,9.94,8.96,1729428223991.0,0.0
-15.077175,-5.146961,4.285545,238.630005,72.099998,-22.26,1729428224013.0,0.0
8.822337,-3.479164,-6.817152,191.520004,-47.740002,-13.02,1729428224032.0,0.0
-8.185846,5.986843,-7.367501,107.730003,37.799999,-40.599998,1729428224052.0,0.0
-1.832902,-8.070991,1.861616,26.32,35.560001,44.380001,1729428224073.0,0.0
-4.675575,-11.339586,-3.361916,-100.449997,-19.25,-10.01,1729428224093.0,0.0
-5.946165,-10.353743,-1.354338,-19.32,0.84,-6.72,1729428224112.0,0.0
-1.562513,-9.568897,-0.619741,76.019997,5.32,-11.55,1729428224133.0,0.0
-10.133603,-20.039888,0.957129,5.74,4.2,-19.460001,1729428224152.0,0.0
-1.85683,-4.613362,-9.396614,123.129997,0.7,-21.629999,1729428224172.0,0.0
-2.57707,0.270389,3.117848,111.230003,90.370003,-32.34,1729428224192.0,0.0
-6.987042,-13.256237,2.775674,-220.570007,-28.98,6.65,1729428224214.0,0.0
-0.136391,-15.907485,-11.799009,-247.240005,-44.939999,-35.77,1729428224232.0,0.0
-2.411965,-12.607781,-8.977871,-12.18,33.529999,-33.389999,1729428224252.0,0.0
-4.804788,-5.285746,-4.204189,39.060001,93.660004,-31.57,1729428224272.0,0.0
-3.309274,-7.879565,1.674976,-80.779999,57.470001,-24.85,1729428224292.0,0.0
-3.266203,-3.515057,2.811567,-159.949997,58.73,-18.690001,1729428224315.0,0.0
-1.225125,-6.570691,-3.369094,-304.360016,9.87,-44.240002,1729428224331.0,0.0
-1.150948,-8.73141,-3.460021,-308.630005,10.85,-34.790001,1729428224352.0,0.0
-3.878766,-10.375278,-1.639083,-274.470001,10.15,-32.689999,1729428224372.0,0.0
-3.952943,-5.254639,-1.799403,-268.450012,3.5,-42.209999,1729428224391.0,0.0
-2.364109,-4.768896,-4.398008,-330.329987,-14.0,-42.07,1729428224413.0,0.0
0.997807,-7.879565,-11.145767,-264.320007,-33.599998,-49.209999,1729428224432.0,0.0
-2.316252,-4.599005,-8.410772,-182.979996,-17.780001,-25.34,1729428224453.0,0.0
-3.706482,-5.084748,-6.025128,-164.220001,-26.110001,-26.25,1729428224472.0,0.0
-4.010371,-4.39083,-6.565905,-118.720001,-33.670002,-29.4,1729428224493.0,0.0
-3.627519,-3.065206,-9.595219,-137.410004,-47.18,-34.16,1729428224513.0,0.0
-3.199204,-2.821138,-11.863614,-131.389999,-49.209999,-22.190001,1729428224531.0,0.0
-2.65364,-0.957129,-9.372685,-63.279999,-40.389999,-9.1,1729428224553.0,0.0
-3.151347,0.323031,-8.408379,-38.5,-44.939999,5.74,1729428224572.0,0.0
-2.744568,0.480957,-9.906286,-67.760002,-46.689999,17.639999,1729428224593.0,0.0
-3.562913,-3.201597,-9.274581,-82.529999,-35.630001,24.639999,1729428224623.0,0.0
-3.773481,-2.610569,-5.955735,-86.940002,-40.529999,5.25,1729428224631.0,0.0
-4.685147,-0.698704,-4.158726,-51.380001,-62.650002,5.39,1729428224654.0,0.0
-5.773881,-1.150948,-4.768896,-101.290001,-88.059998,21.07,1729428224671.0,0.0
-4.632504,-2.069792,-12.777672,-188.720001,-103.459999,5.74,1729428224692.0,0.0
-2.330609,-3.134598,-16.570297,-142.800003,-85.540001,-15.26,1729428224712.0,0.0
-0.827917,-0.827917,-14.124832,-22.33,-55.860001,-15.75,1729428224733.0,0.0
-1.56012,0.497707,-12.576675,-39.689999,-34.09,-15.61,1729428224753.0,0.0
-7.360322,-2.323431,-7.051648,-102.199997,-30.450001,-22.120001,1729428224772.0,0.0
-5.266603,-3.349952,-10.356135,-64.540001,-38.779999,-25.200001,1729428224791.0,0.0
-5.615955,-0.567099,-11.691331,-7.42,-24.5,-31.5,1729428224812.0,0.0
-6.329016,-2.053042,-11.066804,33.599998,-5.11,-12.25,1729428224832.0,0.0
-5.529813,0.48335,-10.865808,41.23,3.08,-15.4,1729428224852.0,0.0
-4.34058,-1.631905,-12.143576,31.08,17.219999,-14.56,1729428224871.0,0.0
-4.572684,-0.224925,-9.12144,44.52,30.799999,-16.379999,1729428224891.0,0.0
-5.319244,1.658226,-6.970293,104.720001,32.130001,-3.5,1729428224914.0,0.0
-3.680161,-1.835295,-10.195816,161.350006,25.9,2.94,1729428224931.0,0.0
-4.441079,0.177069,-9.355937,228.059998,28.280001,2.94,1729428224952.0,0.0
-5.17089,-0.421137,-6.740582,177.100006,22.190001,-9.45,1729428224973.0,0.0
-6.319445,-2.100898,-7.379465,111.93,13.3,4.34,1729428224990.0,0.0
-6.017949,-2.720639,-18.991835,105.349998,16.17,10.57,1729428225013.0,0.0
2.081756,-12.512069,-14.639289,431.690002,-53.830002,20.299999,1729428225032.0,0.0
-2.45025,-4.756931,0.547956,627.27002,88.690002,69.720001,1729428225051.0,0.0
-13.909478,1.158126,4.189832,290.01001,77.629997,43.75,1729428225070.0,0.0
-12.15554,-2.603391,-10.872985,-155.330002,-22.4,-52.360001,1729428225091.0,0.0
-2.435893,-8.075776,-12.3685,-119.0,-52.990002,-13.16,1729428225114.0,0.0
-0.366102,-3.9338,-5.915058,58.240002,16.52,26.389999,1729428225131.0,0.0
-5.000999,-7.207181,-3.799802,174.720001,15.33,8.54,1729428225158.0,0.0
-3.036492,-7.319644,-1.540978,172.479996,-32.900002,2.31,1729428225172.0,0.0
-5.362316,-6.049056,0.045464,147.070007,-27.16,13.16,1729428225191.0,0.0
-8.240881,-6.415157,-4.711468,36.400002,-26.809999,6.65,1729428225214.0,0.0
-7.709675,-8.41795,-11.272588,-72.029999,-25.48,-16.940001,1729428225232.0,0.0
-10.79163,-7.771888,-9.348758,-108.220001,-5.25,-21.629999,1729428225253.0,0.0
-6.549156,-0.267996,-4.175476,-113.82,24.15,-30.380001,1729428225272.0,0.0
-5.580062,-2.495714,-13.617554,-429.380005,41.439999,-60.760002,1729428225292.0,0.0
-3.352344,-10.762917,-10.607382,-354.970001,59.220001,-34.439999,1729428225314.0,0.0
-2.59382,-3.771089,-9.485149,-61.110001,61.670002,-18.76,1729428225332.0,0.0
-3.031706,-6.101698,-12.937992,-20.299999,74.410004,-11.41,1729428225352.0,0.0
-1.17009,-10.631311,-4.656433,64.68,76.160004,-16.940001,1729428225371.0,0.0
-4.35733,-0.332602,0.837488,59.010002,80.220001,-27.23,1729428225391.0,0.0
-1.387837,-4.98425,-6.740582,-189.979996,30.799999,-41.509998,1729428225414.0,0.0
-1.433301,-6.025128,-10.772489,-193.410004,18.76,-27.51,1729428225432.0,0.0
-2.277967,-3.663411,-9.322437,-128.660004,31.15,-30.309999,1729428225452.0,0.0
-1.68694,0.736989,-8.829515,-154.490005,34.650002,-29.610001,1729428225473.0,0.0
-2.103291,-0.837488,-11.464014,-263.059998,23.799999,-27.719999,1729428225491.0,0.0
-2.242075,-5.556134,-13.371094,-321.790009,24.15,-39.27,1729428225515.0,0.0
-2.421536,-2.993421,-7.810174,-228.830002,30.309999,-48.16,1729428225532.0,0.0
-4.063013,-1.828116,-8.499306,-74.129997,26.110001,-41.23,1729428225552.0,0.0
-3.680161,-0.473779,-7.439285,-7.7,20.02,-14.28,1729428225572.0,0.0
-2.579463,-3.07717,-9.343972,-65.730003,10.08,-15.89,1729428225593.0,0.0
-2.59382,-0.51685,-7.415358,-37.380001,1.96,-22.610001,1729428225615.0,0.0
-2.70389,1.615155,-6.06102,1.12,-5.88,-19.110001,1729428225634.0,0.0
-1.423729,1.043271,-10.502099,14.0,-17.290001,-16.450001,1729428225656.0,0.0
-0.531207,-5.343173,-15.622739,-14.14,-7.07,-19.74,1729428225672.0,0.0
-1.095913,1.543371,-10.195816,12.46,11.69,-29.469999,1729428225694.0,0.0
-2.426322,4.905287,-5.295317,46.900002,1.89,11.69,1729428225714.0,0.0
-2.538785,0.459422,-5.118248,39.27,-22.540001,33.040001,1729428225733.0,0.0
-3.237489,-1.158126,-6.982256,43.889999,-48.299999,34.23,1729428225754.0,0.0
-3.220739,-0.658026,-10.427922,-28.35,-59.709999,0.42,1729428225773.0,0.0
-3.955336,-2.502892,-12.519248,-58.170002,-47.810001,-19.460001,1729428225794.0,0.0
-2.95035,-3.129812,-13.050454,-25.549999,-27.16,-31.639999,1729428225814.0,0.0
-2.065006,-0.708275,-11.866007,38.150002,-14.49,-19.530001,1729428225833.0,0.0
-1.971686,0.038285,-7.810174,65.730003,-6.93,-3.43,1729428225856.0,0.0
-1.880759,-2.112862,-10.212566,46.48,-16.309999,1.96,1729428225877.0,0.0
-2.792424,-3.570091,-12.208181,101.5,-11.83,-9.66,1729428225892.0,0.0
-2.74696,-1.569692,-12.401999,202.369995,-3.08,-11.69,1729428225915.0,0.0
-3.627519,-3.708875,-11.942577,327.459991,6.02,7.56,1729428225933.0,0.0
-5.709275,-0.90688,-17.297714,426.649994,20.299999,23.1,1729428225953.0,0.0
-8.429914,7.389036,-4.76411,461.089996,63.490002,77.419998,1729428225974.0,0.0
-3.627519,-1.689333,-1.954936,288.329987,29.26,71.260002,1729428225994.0,0.0
-2.993421,-8.496914,-4.199404,162.889999,3.15,10.64,1729428226015.0,0.0
-3.17049,-7.479963,-6.063413,153.720001,0.42,-6.79,1729428226033.0,0.0
-4.366901,-7.520642,-9.760324,103.32,14.77,1.75,1729428226053.0,0.0
-5.151747,-9.657433,0.964308,60.34,9.94,12.39,1729428226072.0,0.0
4.141976,-3.072384,-12.210573,222.949997,-67.480003,-19.67,1729428226093.0,0.0
-8.403593,-4.63729,1.052842,302.329987,106.330002,74.550003,1729428226114.0,0.0
-7.441679,-7.164111,-5.546563,-34.09,-34.16,30.17,1729428226133.0,0.0
-3.486342,-18.876978,-6.953543,-20.09,-45.360001,-8.33,1729428226154.0,0.0
1.036092,-20.286352,9.456435,417.829987,-25.969999,97.300003,1729428226173.0,0.0
-12.488142,-0.916451,1.167697,180.460007,104.440002,-26.67,1729428226193.0,0.0
-6.336195,-10.581062,-7.858029,-219.940002,-89.529999,8.26,1729428226214.0,0.0
-5.551349,-8.532805,-5.955735,57.75,1.19,13.37,1729428226233.0,0.0
-4.299902,-10.059426,-12.914064,173.320007,-43.75,-45.709999,1729428226254.0,0.0
0.430708,-4.09412,2.007578,358.470001,55.860001,27.16,1729428226273.0,0.0
-7.018148,-10.025927,-8.212167,229.180008,3.36,-8.68,1729428226293.0,0.0
-3.436093,-8.867801,-4.546363,161.350006,88.340004,-28.0,1729428226314.0,0.0
-4.453043,-9.489935,-2.340181,-42.560001,126.209999,-36.400002,1729428226334.0,0.0
-0.835095,-11.090734,-4.407579,-258.369995,18.620001,-32.549999,1729428226354.0,0.0
-3.565305,-4.151547,3.35713,-117.669998,70.910004,-4.13,1729428226373.0,0.0
-3.395415,-9.456435,-3.897908,-92.400002,17.780001,-28.35,1729428226393.0,0.0
-2.062613,-8.879765,-2.608176,-73.919998,38.360001,-43.049999,1729428226415.0,0.0
-0.552742,-5.986843,-2.610569,-55.790001,64.120003,-24.01,1729428226432.0,0.0
-3.424129,-9.784252,0.210568,-56.91,49.490002,5.25,1729428226453.0,0.0
-3.09392,-8.312666,-1.883151,-153.229996,32.130001,11.41,1729428226473.0,0.0
-3.103491,-3.960121,-4.606184,-248.570007,18.27,6.3,1729428226492.0,0.0
-2.285146,-11.720046,-6.329016,-224.070007,-11.48,-6.44,1729428226514.0,0.0
-5.120641,-8.592626,-3.199204,-100.449997,2.87,7.21,1729428226533.0,0.0
-2.021935,-5.690133,-2.823531,-11.62,-4.83,-7.42,1729428226553.0,0.0
-3.292524,-6.659225,-4.048656,-118.580002,-31.08,-10.78,1729428226572.0,0.0
-3.270989,-4.299902,-8.659625,-206.850006,-50.400002,-22.190001,1729428226593.0,0.0
-2.723032,-4.553542,-10.581062,-224.559998,-42.209999,-20.790001,1729428226614.0,0.0
-1.328017,-5.85763,-6.699903,-91.209999,-30.940001,5.53,1729428226632.0,0.0
-2.959922,-5.319244,-3.215954,-5.11,-23.940001,35.139999,1729428226656.0,0.0
-5.266603,-4.223332,-6.407979,-103.599998,-52.360001,23.870001,1729428226672.0,0.0
-5.12782,-2.359323,-8.456236,-161.770004,-60.27,8.05,1729428226693.0,0.0
-4.634897,-2.519642,-13.761123,-132.720001,-48.580002,13.23,1729428226725.0,0.0
-5.474778,-8.542377,-11.633904,-76.160004,-36.400002,15.190001,1729428226732.0,0.0
-5.65424,-3.790231,-6.226124,33.670002,-26.110001,16.309999,1729428226754.0,0.0
-4.565506,-0.758525,-4.146761,-66.080002,-32.900002,-0.91,1729428226773.0,0.0
-3.955336,-6.01077,-8.293523,-195.160004,-49.98,-12.04,1729428226793.0,0.0
-3.567699,-1.674976,-7.585248,-166.740005,-54.459999,-19.389999,1729428226813.0,0.0
-3.416951,0.083749,-13.617554,-191.169998,-47.040001,-12.74,1729428226833.0,0.0
-3.412165,-6.989435,-17.50589,-137.130005,-35.349998,-0.84,1729428226854.0,0.0
-5.656632,-3.404987,-10.447062,93.870003,4.62,1.75,1729428226872.0,0.0
-6.757331,1.986043,5.493921,91.559998,-6.72,-4.41,1729428226892.0,0.0
-0.961915,-2.569891,-5.883951,-233.520004,-73.150002,-6.3,1729428226913.0,0.0
-3.134598,-3.072384,-9.260223,-196.630005,-85.540001,-9.24,1729428226934.0,0.0
-7.853244,-15.036497,-14.416756,52.849998,-57.400002,-11.9,1729428226953.0,0.0
-8.870193,0.899701,-9.631111,12.11,-19.67,-85.470001,1729428226972.0,0.0
-6.522834,2.096112,-7.381857,-66.709999,-16.450001,-16.1,1729428226992.0,0.0
-2.9336,-5.237889,-8.233703,-90.720001,-15.54,-5.6,1729428227015.0,0.0
-2.526821,-3.388237,-11.473583,-120.959999,-21.42,-36.189999,1729428227032.0,0.0
-3.61077,-1.497907,-13.536198,-57.119999,-10.71,-45.779999,1729428227052.0,0.0
-4.953143,-0.540778,-8.49452,56.420002,1.33,-33.389999,1729428227072.0,0.0
-5.111069,-2.440679,-9.150154,-12.53,-1.4,-42.630001,1729428227092.0,0.0
-5.649454,-4.149154,-8.23131,-27.51,-1.4,-36.68,1729428227113.0,0.0
-9.408579,-1.603191,-8.516055,64.540001,5.25,-35.98,1729428227133.0,0.0
-8.070991,-2.218147,-10.107283,130.690002,33.040001,-19.18,1729428227153.0,0.0
-6.190232,-0.937986,-10.313066,97.440002,40.599998,-24.780001,1729428227172.0,0.0
-3.522235,-1.70369,-10.399208,80.290001,37.029999,-27.02,1729428227199.0,0.0
-4.333402,-2.340181,-9.073583,110.599998,26.950001,-22.33,1729428227213.0,0.0
-5.876772,2.120041,-9.308081,141.680008,36.330002,-15.82,1729428227232.0,0.0
-6.441479,-3.227918,-3.620341,108.5,27.65,-22.26,1729428227254.0,0.0
-4.615755,-8.755339,-9.458827,137.759995,23.1,-11.13,1729428227272.0,0.0
-5.462814,-5.292924,-6.611369,164.779999,0.35,-1.75,1729428227293.0,0.0
-5.04407,3.651447,-4.127619,105.419998,8.26,13.58,1729428227316.0,0.0
-3.766303,-2.079363,-7.02772,-127.889999,1.75,-0.14,1729428227332.0,0.0
-4.151547,-8.736196,-11.825329,-243.320007,-4.27,-15.96,1729428227355.0,0.0
-3.158526,-18.400805,-26.825935,-104.860001,23.450001,-45.009998,1729428227373.0,0.0
-3.316452,-8.315059,-14.313866,185.919998,52.150002,-54.459999,1729428227393.0,0.0
-4.036692,8.047063,8.379664,534.659973,87.779999,-16.799999,1729428227414.0,0.0
-4.388437,3.706482,1.112662,406.070007,12.25,64.610001,1729428227433.0,0.0
-6.695118,4.728218,0.624527,-68.32,57.540001,-12.88,1729428227454.0,0.0
-6.678369,-15.720845,-10.755738,-94.57,-16.1,9.66,1729428227474.0,0.0
-5.924629,-4.481757,-5.9342,113.050003,34.720001,1.54,1729428227494.0,0.0
-6.853044,-3.278167,-0.210568,77.840004,27.860001,-4.9,1729428227515.0,0.0
-3.629912,-5.936593,-3.354738,-10.36,25.76,-15.33,1729428227533.0,0.0
-4.579862,-2.600998,-6.211767,92.540001,30.799999,43.82,1729428227554.0,0.0
-7.01097,-8.140383,-9.879964,-44.310001,42.630001,-0.42,1729428227574.0,0.0
-4.244867,-6.577869,-12.107682,-53.549999,44.73,-11.69,1729428227594.0,0.0
-2.438286,-4.773681,-4.278367,-1.96,67.340004,2.66,1729428227616.0,0.0
-3.524628,-6.24766,-6.068198,-40.950001,47.110001,3.85,1729428227636.0,0.0
-3.120241,-8.078169,-7.77428,-58.450001,44.380001,5.74,1729428227658.0,0.0
-1.462015,-9.257831,-7.893922,-13.79,47.880001,-2.1,1729428227676.0,0.0
-2.014757,-9.150154,-6.293124,67.550003,54.25,6.37,1729428227694.0,0.0
-0.964308,-8.874979,-4.646862,109.620003,54.670002,1.75,1729428227715.0,0.0
-0.327817,-7.606783,-2.222932,175.0,45.080002,7.07,1729428227735.0,0.0
-2.548356,-6.666404,-3.251846,219.660004,43.540001,16.24,1729428227755.0,0.0
-4.232903,-5.970093,-3.567699,163.800003,45.779999,15.68,1729428227774.0,0.0
-4.335794,-7.685746,-3.972085,11.55,38.920002,2.66,1729428227795.0,0.0
-2.366502,-9.805787,-7.092326,-118.440002,11.34,-24.08,1729428227815.0,0.0
-1.430908,-3.412165,-4.644469,-147.210007,-0.98,-45.779999,1729428227835.0,0.0
0.746561,-1.612763,-6.096912,-293.51001,-8.12,-73.709999,1729428227856.0,0.0
0.57667,-4.383651,-11.449656,-539.559998,-18.690001,-83.720001,1729428227884.0,0.0
-1.584049,-6.269196,-8.152347,-452.480011,-29.190001,-31.92,1729428227894.0,0.0
-2.62732,-2.404787,-5.113462,-180.180008,-16.1,-19.879999,1729428227922.0,0.0
-3.811767,-3.431308,-4.625326,-100.449997,-33.110001,4.27,1729428227934.0,0.0
-6.125626,-6.065805,-7.274181,-82.949997,-59.57,22.190001,1729428227954.0,0.0
-6.350551,-9.860823,-12.083755,-112.07,-55.93,-1.33,1729428227974.0,0.0
-3.323631,-2.251646,-11.540584,-73.360001,-50.610001,-15.12,1729428227994.0,0.0
-2.09372,-0.581456,-13.710874,22.610001,-29.26,16.379999,1729428228015.0,0.0
-2.861816,-1.347159,-13.617554,70.279999,-2.45,13.65,1729428228036.0,0.0
-3.584448,-0.519243,-8.547162,98.769997,11.48,11.2,1729428228054.0,0.0
-3.333202,-0.851845,-8.324631,43.049999,2.87,-0.91,1729428228074.0,0.0
-3.455236,-2.261217,-8.336594,9.8,-5.39,-6.58,1729428228094.0,0.0
-3.213561,-2.656033,-8.334201,8.75,-11.34,-9.8,1729428228115.0,0.0
-3.158526,-3.598805,-8.489735,9.52,-12.25,-8.33,1729428228134.0,0.0
-3.976871,-3.661019,-9.243474,9.66,-14.49,-10.5,1729428228154.0,0.0
-3.9673,-2.481357,-8.221739,35.560001,-7.84,-3.57,1729428228174.0,0.0
-1.942972,-4.362115,-8.386844,20.02,-14.98,4.97,1729428228194.0,0.0
-4.271189,-3.318845,-8.386844,21.280001,-7.84,8.19,1729428228281.0,0.0
-3.223132,-2.854637,-8.346166,21.91,-14.28,15.61,1729428228291.0,0.0
-1.911865,-6.65444,-8.039884,28.07,-25.34,17.57,1729428228301.0,0.0
-0.710668,-8.056634,-8.523234,83.160004,-36.330002,5.6,1729428228301.0,0.0
-2.182254,-7.077969,-10.100104,167.580002,-40.25,-3.57,1729428228302.0,0.0
-3.864408,-4.716253,-8.018349,176.119995,-25.129999,-12.04,1729428228314.0,0.0
-5.458029,-2.955136,-8.965906,63.420002,-17.5,-16.24,1729428228334.0,0.0
-5.326423,-2.328217,-12.552748,-2.03,-12.6,3.64,1729428228354.0,0.0
-7.305287,-4.709075,-10.951948,155.539993,0.42,38.920002,1729428228374.0,0.0
-6.932007,-4.661219,-9.810574,504.559998,11.76,95.690002,1729428228401.0,0.0
-0.519243,-5.659025,-0.507278,591.780029,50.610001,18.9,1729428228422.0,0.0
-9.154939,-2.737389,-2.998207,264.529999,48.369999,32.830002,1729428228434.0,0.0
-6.89133,-11.645866,-2.54357,28.98,-35.139999,1.33,1729428228455.0,0.0
0.705883,-11.839686,-7.999206,121.660004,-73.5,-28.84,1729428228475.0,0.0
-9.576077,2.400001,-5.553742,253.820007,42.91,-45.220001,1729428228494.0,0.0
-2.533999,-9.157332,0.784846,106.959999,-6.23,21.35,1729428228515.0,0.0
-2.689533,-3.218346,-10.590633,12.46,-104.93,-39.130001,1729428228535.0,0.0
-11.062018,-6.522834,-1.904687,271.600006,57.68,-2.59,1729428228554.0,0.0
-4.15394,-4.766503,1.002593,54.040001,-13.37,-7.98,1729428228574.0,0.0
-8.913264,-19.324436,-2.45025,-138.740005,-39.27,-17.360001,1729428228594.0,0.0
-0.866202,-13.55534,-3.809374,94.709999,-39.689999,-10.57,1729428228614.0,0.0
-5.98445,-6.943972,-1.471586,243.180008,58.029999,-31.219999,1729428228634.0,0.0
-5.309673,-9.420543,-8.051848,197.330002,29.120001,-35.84,1729428228657.0,0.0
-4.804788,-11.344372,-6.912865,75.739998,78.75,-61.599998,1729428228674.0,0.0
-3.976871,-10.339387,-8.432307,-114.379997,101.779999,-62.369999,1729428228694.0,0.0
-2.957529,-11.035697,-1.591227,-141.680008,111.370003,-50.75,1729428228714.0,0.0
-3.811767,-12.437892,2.038685,-101.010002,104.650002,-65.940002,1729428228734.0,0.0
-2.136791,-8.719445,4.022335,-99.050003,89.529999,-79.169998,1729428228754.0,0.0
-1.87358,-9.422935,3.34038,-216.020004,47.040001,-90.510002,1729428228774.0,0.0
-0.356531,-7.740781,2.742175,-292.320007,30.030001,-92.050003,1729428228793.0,0.0
-0.308674,-2.39043,1.842474,-243.949997,19.74,-70.07,1729428228815.0,0.0
0.57667,-8.693125,-2.141576,-101.709999,-17.5,-14.07,1729428228834.0,0.0
-2.54357,-8.039884,-1.150948,-80.779999,-13.58,7.7,1729428228854.0,0.0
-3.333202,-9.444471,-1.438086,-172.690002,-30.450001,-3.36,1729428228875.0,0.0
-3.117848,-7.030113,-2.605784,-243.880005,-55.720001,-23.1,1729428228894.0,0.0
-2.737389,-3.783052,-5.759524,-270.059998,-74.760002,-27.860001,1729428228916.0,0.0
-4.156333,-2.945565,-8.561519,-288.329987,-77.910004,-23.66,1729428228934.0,0.0
-3.227918,-3.792624,-8.642875,-236.949997,-79.590004,-11.06,1729428228960.0,0.0
-4.027121,-3.723232,-10.803595,-178.850006,-76.019997,-2.8,1729428229026.0,0.0
-6.068198,-7.79103,-11.272588,-119.139999,-72.730003,-16.73,1729428229026.0,0.0
-2.852244,-3.010171,-6.565905,-5.74,-43.049999,-14.63,1729428229026.0,0.0
-2.464607,-0.457029,-8.429914,-103.529999,-48.860001,-13.16,1729428229033.0,0.0
-4.441079,-5.316852,-10.664811,-152.320007,-52.220001,-1.05,1729428229054.0,0.0
-4.555934,-3.586841,-9.84168,-26.18,-33.880001,8.68,1729428229083.0,0.0
-3.706482,-3.165704,-8.166703,-10.64,-29.26,10.15,1729428229093.0,0.0
-2.928815,-4.924429,-7.862815,-64.190002,-37.099998,9.31,1729428229117.0,0.0
-3.220739,-4.677969,-6.003592,-64.610001,-41.860001,5.95,1729428229133.0,0.0
-1.607977,-2.770889,-12.318252,-108.639999,-53.34,-4.34,1729428229153.0,0.0
-3.900301,-6.252446,-13.722836,-107.309998,-38.009998,0.07,1729428229173.0,0.0
-6.319445,-3.701697,-9.683753,-15.75,-19.530001,-12.67,1729428229192.0,0.0
-2.304288,3.558127,-8.985049,23.379999,-16.66,-0.14,1729428229214.0,0.0
-1.911865,-0.859023,-7.915457,-110.949997,-23.73,8.47,1729428229241.0,0.0
-3.383451,-1.208375,-10.789237,-166.669998,-21.07,14.0,1729428229255.0,0.0
-3.936193,-5.223531,-12.55514,-116.550003,-23.870001,7.21,1729428229274.0,0.0
-5.79063,-4.613362,-5.575277,-11.13,-19.040001,-24.360001,1729428229293.0,0.0
-6.888937,-2.06022,-3.768696,-12.81,-31.57,-33.25,1729428229314.0,0.0
-3.65384,-5.905487,-12.99542,-95.129997,-34.299999,-32.48,1729428229345.0,0.0
-6.209375,-1.732404,-8.389235,-33.740002,-23.870001,-27.58,1729428229356.0,0.0
-7.128219,-2.48375,-11.688939,-47.950001,-15.82,-29.26,1729428229374.0,0.0
-2.486143,-1.672583,-11.643474,-11.9,-19.110001,-24.290001,1729428229393.0,0.0
-4.027121,-2.175076,-8.700303,31.57,-2.45,-16.1,1729428229415.0,0.0
-4.041477,-4.577469,-10.913664,27.370001,-2.73,-18.200001,1729428229434.0,0.0
-3.878766,-4.627719,-14.208582,103.040001,10.78,-29.190001,1729428229454.0,0.0
-5.24746,-1.612763,-12.732209,190.610001,44.73,-34.02,1729428229474.0,0.0
-3.282953,1.904687,-10.875379,243.110001,52.080002,-27.93,1729428229493.0,0.0
-2.971886,1.335195,-5.991628,233.240005,62.439999,-5.67,1729428229518.0,0.0
-4.742575,-0.552742,-4.773681,151.059998,56.420002,-0.21,1729428229536.0,0.0
-4.699504,-2.730211,-7.987241,86.519997,43.470001,-3.78,1729428229555.0,0.0
-3.330809,-8.41795,-7.453642,88.970001,39.549999,-13.3,1729428229574.0,0.0
-6.833901,-2.9336,-6.465407,146.300003,30.17,22.26,1729428229594.0,0.0
-4.24726,-5.218746,-5.225924,85.540001,17.15,-10.29,1729428229616.0,0.0
-1.182054,-6.051448,-11.296515,69.160004,9.94,-5.32,1729428229635.0,0.0
-1.679761,-3.895515,-6.185446,175.070007,15.33,29.4,1729428229661.0,0.0
-3.708875,-7.776673,3.960121,305.200012,29.33,59.43,1729428229677.0,0.0
-9.887143,-9.68136,-3.39063,161.279999,17.92,7.7,1729428229696.0,0.0
-7.030113,-8.867801,-9.734003,13.3,-10.29,-20.440001,1729428229718.0,0.0
-2.526821,-1.969293,-7.879565,63.630001,-15.26,12.32,1729428229736.0,0.0
-3.132205,-10.377672,-4.158726,305.690002,-0.14,47.810001,1729428229757.0,0.0
-6.271588,-9.463614,-2.455036,390.320007,33.810001,18.76,1729428229776.0,0.0
-7.013363,-6.302694,-1.655833,291.059998,25.76,47.599998,1729428229797.0,0.0
-4.405186,-5.163712,-1.012164,115.010002,21.49,3.71,1729428229818.0,0.0
-5.072784,-6.888937,-0.078963,30.24,10.64,10.43,1729428229838.0,0.0
-4.510471,-7.235896,-2.947958,7.21,7.42,14.0,1729428229856.0,0.0
-6.709475,-10.669596,-8.894121,-101.989998,35.0,-9.66,1729428229876.0,0.0
-4.498507,-14.912071,-12.971491,-146.440002,49.279999,-35.07,1729428229896.0,0.0
-2.830709,-7.501499,-6.259624,24.290001,86.660004,-27.370001,1729428229916.0,0.0
-4.055835,-3.115455,-0.40678,60.060001,90.580002,-12.18,1729428229936.0,0.0
-1.840081,-11.574083,-8.980263,-94.779999,51.52,-38.920002,1729428229960.0,0.0
-1.217947,-8.939585,-5.156533,-32.48,94.150002,-25.059999,1729428229976.0,0.0
-2.713461,-7.771888,-0.729811,5.74,103.669998,-16.799999,1729428229996.0,0.0
-2.218147,-9.456435,-1.328017,-41.09,76.019997,-29.120001,1729428230019.0,0.0
-2.134398,-9.626326,-3.326023,-101.010002,65.449997,-41.580002,1729428230037.0,0.0
-2.120041,-12.282358,-3.323631,-81.059998,45.779999,-46.060001,1729428230062.0,0.0
-1.679761,-8.530413,-2.225325,1.05,53.970001,-43.259998,1729428230082.0,0.0
-0.342174,-7.575676,-0.978664,-9.59,35.490002,-38.990002,1729428230096.0,0.0
0.464208,-7.702496,-0.894916,-57.959999,11.83,-32.34,1729428230117.0,0.0
-2.151148,-9.645468,-3.749553,-100.309998,-0.28,-37.310001,1729428230137.0,0.0
-1.658226,-7.386643,-4.259224,-87.779999,-0.77,-41.23,1729428230156.0,0.0
-2.287539,-4.697111,-4.639683,-92.050003,-2.31,-34.299999,1729428230176.0,0.0
-1.916651,-7.075576,-4.369294,-150.220001,-19.74,-35.91,1729428230196.0,0.0
-0.775275,-4.780859,-5.563312,-203.839996,-41.09,-49.77,1729428230218.0,0.0
-1.993221,-4.881358,-6.240481,-221.690002,-44.869999,-46.34,1729428230237.0,0.0
-3.582055,-5.56092,-7.178468,-270.899994,-53.41,-60.900002,1729428230258.0,0.0
-3.625126,-2.790031,-5.304887,-282.799988,-45.150002,-52.360001,1729428230276.0,0.0
-1.459622,-9.102298,-14.215759,-333.269989,-59.709999,-67.620003,1729428230295.0,0.0
-1.351945,-3.455236,-11.274981,-281.610016,-39.34,-62.09,1729428230318.0,0.0
-2.538785,0.055035,-7.853244,-103.389999,-25.549999,-20.370001,1729428230336.0,0.0
-2.550749,-2.734996,-8.382057,-78.190002,-29.33,-9.52,1729428230356.0,0.0
-3.158526,-3.268596,-8.853443,-126.770004,-36.259998,-4.83,1729428230376.0,0.0
-1.986043,-2.550749,-8.657232,-170.240005,-40.599998,-17.639999,1729428230396.0,0.0
-1.308874,-0.629312,-9.789038,-139.229996,-46.48,-20.370001,1729428230419.0,0.0
-0.957129,-0.476172,-11.404193,-75.110001,-45.990002,-15.12,1729428230437.0,0.0
-1.383051,-0.727418,-11.375479,-43.959999,-33.110001,-6.37,1729428230455.0,0.0
-1.284946,-1.416551,-11.365908,-35.139999,-25.129999,-1.75,1729428230475.0,0.0
-2.569891,-3.342773,-11.215159,1.4,-15.89,-6.23,1729428230495.0,0.0
-3.414558,-2.660819,-12.466606,33.389999,-12.88,-19.530001,1729428230517.0,0.0
-4.907679,0.090927,-10.837094,34.02,-5.53,-25.620001,1729428230536.0,0.0
-1.935793,3.239882,-10.006784,32.830002,-4.62,-25.620001,1729428230556.0,0.0
-2.426322,-3.180061,-11.062018,61.459999,3.92,24.57,1729428230575.0,0.0
-1.895115,-3.924229,-9.461221,110.739998,9.1,10.99,1729428230596.0,0.0
-2.548356,-2.778067,-7.728817,133.070007,6.93,-2.94,1729428230620.0,0.0
-3.675375,-3.61077,-9.559326,101.639999,0.7,-15.68,1729428230637.0,0.0
-3.103491,-1.502693,-9.162118,87.709999,3.78,-7.35,1729428230659.0,0.0
-1.897508,-4.278367,-9.549755,103.32,3.57,2.52,1729428230676.0,0.0
-2.268396,-5.190032,-6.69751,138.320007,6.02,6.23,1729428230695.0,0.0
-3.524628,-2.70389,-7.546963,132.649994,12.53,3.36,1729428230716.0,0.0
-2.78046,-2.45025,-9.822537,62.02,3.85,8.33,1729428230736.0,0.0
-0.832702,-7.379465,-16.113268,76.230003,-14.35,18.690001,1729428230755.0,0.0
-4.003192,-0.696311,-5.017749,140.979996,30.380001,5.81,1729428230774.0,0.0
-4.453043,-4.943572,-6.585048,44.66,0.84,11.55,1729428230794.0,0.0
-2.514857,-4.919643,-10.265208,-17.290001,-10.15,-6.72,1729428230816.0,0.0
-2.591427,-5.883951,-9.674182,20.370001,5.32,-4.62,1729428230835.0,0.0
-2.244468,-6.123233,-8.123632,51.099998,10.85,0.14,1729428230855.0,0.0
-2.608176,-5.460421,-6.886543,64.330002,12.67,3.85,1729428230875.0,0.0
-0.124427,-12.751352,-15.663417,128.449997,-30.24,9.94,1729428230895.0,0.0
-3.878766,-0.387637,-5.673382,224.770004,54.810001,20.719999,1729428230917.0,0.0
-5.47717,-4.852644,-6.094519,71.889999,19.110001,34.860001,1729428230935.0,0.0
-1.947758,-8.032705,-9.504292,-26.74,-21.98,-8.61,1729428230955.0,0.0
-2.270789,-7.087541,-9.341579,79.519997,6.16,-4.48,1729428230975.0,0.0
-3.268596,-6.111269,1.964507,178.990005,20.02,5.95,1729428230997.0,0.0
9.355937,-5.443672,-15.031711,552.159973,-112.910004,46.200001,1729428231020.0,0.0
-11.62194,-12.672389,-0.334995,549.710022,148.050003,-25.059999,1729428231039.0,0.0
-13.864014,4.173083,-2.342573,184.520004,55.93,124.389999,1729428231081.0,0.0
-2.053042,-17.197216,-12.088539,-100.449997,-60.619999,-60.200001,1729428231111.0,0.0
-2.892922,-9.085547,-2.531606,217.139999,10.57,-6.93,1729428231122.0,0.0
-4.613362,-3.388237,3.20399,314.790009,41.720001,0.14,1729428231126.0,0.0
-0.674776,-7.932207,0.468993,237.229996,-33.18,-11.97,1729428231142.0,0.0
-5.551349,-9.037691,-1.397408,265.160004,65.379997,-5.11,1729428231172.0,0.0
-5.058427,-6.585048,-0.421137,56.420002,13.86,37.170002,1729428231185.0,0.0
-7.448857,-11.801401,-0.323031,22.26,-2.1,-13.51,1729428231194.0,0.0
5.860023,0.885344,-2.196611,208.600006,-40.459999,11.97,1729428231243.0,0.0
-4.615755,-9.745967,0.935594,220.850006,60.48,-19.809999,1729428231249.0,0.0
-2.589034,-10.545169,0.79681,-15.54,-0.35,20.23,1729428231255.0,0.0
-13.593626,-19.28615,6.355337,-12.46,11.34,16.17,1729428231274.0,0.0
-3.696911,-7.685746,0.114855,63.420002,-31.08,38.43,1729428231294.0,0.0
-1.749153,-8.255238,-1.138984,41.02,0.91,-18.76,1729428231316.0,0.0
-3.017349,-6.262017,1.299303,-100.590004,36.959999,19.950001,1729428231334.0,0.0
-3.737589,-4.053442,3.294917,-372.890015,46.130001,19.18,1729428231355.0,0.0
-6.041877,-9.999605,-7.034898,-688.659973,-13.72,-7.63,1729428231374.0,0.0
-2.328217,-15.634703,-9.054441,-488.950012,-20.65,-39.900002,1729428231395.0,0.0
-3.582055,-5.883951,-6.424729,-259.559998,42.98,-33.670002,1729428231416.0,0.0
-2.507678,-7.049256,-6.12084,-329.700012,20.51,-48.369999,1729428231435.0,0.0
-3.359523,-10.234102,-3.940979,-336.769989,4.76,-49.84,1729428231457.0,0.0
-4.055835,-0.538385,-6.013163,-288.119995,8.26,-63.490002,1729428231476.0,0.0
-2.608176,-3.462414,-9.803394,-291.200012,1.05,-40.810001,1729428231494.0,0.0
-2.380858,-4.658825,-11.373087,-261.799988,14.0,-11.34,1729428231517.0,0.0
-2.285146,-5.340781,-10.51167,-192.009995,19.74,-1.75,1729428231535.0,0.0
-1.473979,-5.374279,-7.779066,-130.059998,24.15,-7.49,1729428231555.0,0.0
-1.402194,-3.476771,-4.898108,-100.940002,17.290001,-6.16,1729428231576.0,0.0
-0.131605,-3.644269,-8.142776,-96.110001,6.51,-1.05,1729428231594.0,0.0
-0.631705,-3.457629,-11.143374,-82.459999,3.71,3.36,1729428231617.0,0.0
-1.5003,-2.70389,-11.370694,-40.25,1.12,6.16,1729428231635.0,0.0
-3.244668,-0.193819,-9.363115,-6.3,5.81,10.15,1729428231659.0,0.0
-2.120041,-4.713861,-9.059227,31.219999,8.75,15.75,1729428231675.0,0.0
-0.555135,-3.95055,-7.305287,51.240002,-3.29,-5.95,1729428231695.0,0.0
-2.675175,-2.09372,-6.276374,47.670002,-14.63,-20.370001,1729428231716.0,0.0
-2.672783,-4.699504,-11.557333,13.440001,-23.52,-20.440001,1729428231735.0,0.0
-1.945365,0.519243,-12.806387,24.360001,-18.27,-12.46,1729428231766.0,0.0
-2.734996,-3.34038,-10.238889,63.279999,17.92,32.34,1729428231775.0,0.0
-2.299503,-2.900101,-8.4012,41.93,16.1,21.91,1729428231794.0,0.0
-2.706282,-1.462015,-7.439285,7.91,11.2,15.4,1729428231816.0,0.0
-2.612962,-3.448057,-6.494121,-39.48,3.57,13.09,1729428231845.0,0.0
-2.179861,-3.558127,-8.295916,-57.889999,-3.57,8.96,1729428231855.0,0.0
-2.842674,-2.95035,-11.006985,-85.190002,-5.81,1.47,1729428231874.0,0.0
-3.74716,-11.54537,-8.941978,-81.830002,3.15,-12.04,1729428231894.0,0.0
-2.29711,0.320638,-4.795217,21.559999,-6.09,-39.41,1729428231915.0,0.0
-5.752346,-0.868595,-7.391429,-58.869999,-23.24,-29.26,1729428231935.0,0.0
-1.641476,-4.45065,-8.073383,-110.809998,-33.32,-25.34,1729428231955.0,0.0
-2.876173,-2.945565,-9.75793,-50.959999,-40.670002,-18.76,1729428231975.0,0.0
-1.919044,-1.380659,-8.752945,-53.200001,-44.099998,-19.460001,1729428231995.0,0.0
-1.234696,-0.926022,-7.489535,-40.389999,-51.099998,-7.98,1729428232016.0,0.0
-0.485743,-0.693919,-12.160326,-58.52,-59.57,-3.71,1729428232035.0,0.0
-2.268396,-5.680561,-14.768501,-103.669998,-42.07,-13.440001,1729428232055.0,0.0
-5.541777,-3.814159,-11.32523,-137.970001,-17.08,-57.470001,1729428232075.0,0.0
-4.570292,-3.007778,-10.009177,-52.009998,-15.4,-36.75,1729428232094.0,0.0
-3.512664,-1.880759,-8.671589,2.03,-9.52,-32.970001,1729428232117.0,0.0
-4.479364,1.146162,-12.023933,56.279999,-1.89,-10.92,1729428232136.0,0.0
-3.696911,-1.119841,-12.47857,63.630001,13.440001,3.99,1729428232155.0,0.0
-3.010171,0.995414,-8.202596,43.049999,20.370001,1.96,1729428232175.0,0.0
-2.993421,0.141177,-6.647261,26.18,14.77,12.39,1729428232194.0,0.0
-2.677568,-1.428515,-8.583055,9.1,2.38,7.7,1729428232226.0,0.0
-2.667997,-1.792224,-9.865608,7.28,0.21,-1.05,1729428232235.0,0.0
-2.445465,-3.345166,-8.405986,-14.21,5.39,-15.05,1729428232255.0,0.0
-2.806781,-3.826123,-6.386444,-74.340004,0.42,-31.219999,1729428232274.0,0.0
-2.337788,-4.694718,-8.650054,-89.389999,-15.05,-40.599998,1729428232295.0,0.0
-3.943372,-3.07717,-10.774881,-13.16,-17.780001,-36.189999,1729428232316.0,0.0
-5.855237,-0.564706,-11.693724,120.470001,-2.59,-5.81,1729428232335.0,0.0
-4.398008,-2.854637,-12.323036,169.259995,13.02,12.39,1729428232355.0,0.0
-2.581856,-3.546163,-9.896714,175.910004,20.299999,3.57,1729428232374.0,0.0
-1.938186,-1.332802,-8.420342,196.770004,22.120001,-3.64,1729428232394.0,0.0
-2.179861,-2.79721,-9.310472,216.790009,13.09,6.65,1729428232417.0,0.0
-2.964707,-4.235296,-9.908678,260.610016,18.129999,28.35,1729428232434.0,0.0
-0.509671,-0.887737,-5.010571,391.160004,12.88,46.900002,1729428232454.0,0.0
-9.01137,1.739582,-2.916851,355.25,35.0,91.349998,1729428232475.0,0.0
-5.960521,-8.152347,-5.745167,51.59,19.32,40.740002,1729428232494.0,0.0
-2.206182,-11.966506,-8.800802,-6.51,-25.9,10.85,1729428232516.0,0.0
-4.070191,-10.581062,-7.642675,138.180008,7.28,33.25,1729428232535.0,0.0
-3.426522,-7.252645,-6.357729,345.309998,-21.77,68.879997,1729428232554.0,0.0
-3.026921,-6.022735,-3.541377,591.5,10.92,109.550003,1729428232574.0,0.0
-4.845466,-6.69751,-3.668197,701.679993,8.19,118.090004,1729428232594.0,0.0
-8.992228,-8.614161,2.974278,790.22998,55.790001,62.09,1729428232618.0,0.0
-10.207782,-13.186846,4.668397,714.349976,81.620003,-3.01,1729428232635.0,0.0
-4.948357,-11.822936,2.974278,594.580017,86.169998,-71.190002,1729428232659.0,0.0
-5.522634,-5.682954,11.133803,475.720001,98.559998,-80.57,1729428232674.0,0.0
-5.178068,-6.666404,6.226124,344.190002,47.110001,-70.0,1729428232694.0,0.0
-1.87358,-8.228917,4.192225,252.139999,41.369999,-88.620003,1729428232716.0,0.0
-2.586641,-5.709275,4.402793,210.699997,33.740002,-80.57,1729428232734.0,0.0
-3.081956,-3.15374,6.62094,224.0,39.48,-85.82,1729428232754.0,0.0
-5.496314,-4.45065,7.054041,135.029999,24.710001,-68.949997,1729428232774.0,0.0
-4.21376,-5.379066,6.9679,94.010002,16.1,-62.09,1729428232794.0,0.0
-4.158726,-3.909872,8.482556,99.190002,24.710001,-69.019997,1729428232815.0,0.0
-4.036692,-1.584049,9.243474,69.790001,19.6,-64.120003,1729428232834.0,0.0
0.07657,-2.184647,6.575477,29.610001,-0.21,-46.689999,1729428232854.0,0.0
-1.883151,-0.961915,5.108676,23.450001,4.83,-29.75,1729428232874.0,0.0
-3.912265,-0.756132,7.379465,38.080002,18.969999,0.91,1729428232895.0,0.0
-4.898108,-1.265803,9.485149,26.110001,22.469999,-2.66,1729428232915.0,0.0
-4.986642,-0.811167,8.013563,11.9,11.13,13.58,1729428232934.0,0.0
-5.175675,-3.115455,7.149754,-5.25,2.66,27.440001,1729428232955.0,0.0
-3.720839,-4.082155,7.022934,-10.5,9.1,29.610001,1729428232974.0,0.0
-3.730411,-4.697111,7.798209,-3.22,16.1,27.860001,1729428232995.0,0.0
-3.799802,-4.419543,8.772088,2.8,14.28,32.830002,1729428233016.0,0.0
-4.445865,-4.754539,8.169096,-4.2,4.97,34.02,1729428233034.0,0.0
-5.343173,-6.446264,8.037491,-25.129999,-1.19,22.049999,1729428233054.0,0.0
-6.788438,-9.095119,6.996613,-16.24,-0.91,17.99,1729428233075.0,0.0
-3.570091,0.184247,7.69771,-12.67,8.26,12.39,1729428233094.0,0.0
-4.68754,-2.268396,7.039684,-83.090004,-16.1,48.650002,1729428233115.0,0.0
-4.311867,-5.108676,8.939585,-110.599998,-2.03,68.669998,1729428233134.0,0.0
-6.565905,-11.985649,4.881358,-170.449997,-24.92,26.880001,1729428233155.0,0.0
-5.194818,-10.49492,4.95075,-172.059998,-0.07,-4.27,1729428233174.0,0.0
-3.402594,-4.723432,4.491328,-101.43,-0.63,-21.07,1729428233194.0,0.0
-5.300103,-4.443472,5.761917,-51.939999,14.91,-0.77,1729428233276.0,0.0
-4.742575,-5.869594,4.039084,-65.379997,-0.63,-8.33,1729428233277.0,0.0
-5.180461,-7.269395,5.974878,-25.27,-2.17,-6.23,1729428233277.0,0.0
-5.414958,-5.958128,7.869993,24.08,15.26,-7.7,1729428233278.0,0.0
-5.115855,-4.302295,7.499106,25.549999,11.34,-10.5,1729428233294.0,0.0
-6.45105,-5.039285,6.69751,4.97,4.13,3.15,1729428233315.0,0.0
-4.575077,-5.455636,6.343372,27.719999,6.65,10.99,1729428233334.0,0.0
-5.469993,-5.178068,7.02772,27.93,8.54,9.38,1729428233355.0,0.0
-5.711668,-7.657032,5.556134,-21.139999,-3.57,0.21,1729428233381.0,0.0
-4.223332,-6.537192,6.419943,-3.15,-3.99,-5.46,1729428233395.0,0.0
-5.307281,-8.355737,5.98445,1.33,2.73,-2.94,1729428233425.0,0.0
-4.847858,-5.819345,6.240481,-17.710001,-11.69,-5.81,1729428233435.0,0.0
-6.79083,-12.033505,4.316652,-73.290001,-15.96,-1.05,1729428233454.0,0.0
-4.534399,-7.353144,6.613762,-46.48,-18.9,-7.0,1729428233474.0,0.0
-4.723432,-5.429315,7.41775,-33.950001,-18.41,-8.47,1729428233494.0,0.0
-8.4347,11.665009,17.359928,-145.529999,18.690001,14.21,1729428233516.0,0.0
-13.634303,-6.788438,-0.98345,-622.090027,-118.020004,68.25,1729428233534.0,0.0
2.825923,-25.739592,-3.876373,-531.299988,-208.880005,-63.209999,1729428233555.0,0.0
-0.01675,4.907679,-3.900301,-182.910004,26.880001,1.82,1729428233574.0,0.0
-6.470192,-6.927221,-4.914857,-251.790009,-33.459999,10.5,1729428233594.0,0.0
-2.823531,-8.855836,-3.007778,-300.929993,-37.240002,3.01,1729428233617.0,0.0
-4.249653,-8.997013,-0.535992,-213.850006,0.07,-3.22,1729428233635.0,0.0
-4.733003,-9.245867,-1.124627,-201.180008,-7.84,-8.4,1729428233660.0,0.0
-3.010171,-10.427922,-0.650848,-166.740005,-18.129999,-10.92,1729428233677.0,0.0
-3.771089,-10.674382,1.208375,-84.419998,-6.02,-4.48,1729428233695.0,0.0
-3.639483,-8.963513,-1.229911,-50.540001,3.99,-7.0,1729428233716.0,0.0
-3.546163,-10.999805,-2.225325,-42.98,1.19,-8.61,1729428233736.0,0.0
-4.211368,-10.427922,-0.710668,10.57,10.01,-3.15,1729428233756.0,0.0
-4.362115,-10.729417,-0.198604,36.049999,8.68,-9.24,1729428233776.0,0.0
-2.880959,-9.01137,1.622334,50.959999,1.68,-15.68,1729428233796.0,0.0
-4.902894,-0.275175,-1.497907,-64.120003,24.639999,-10.08,1729428233817.0,0.0
-5.618347,-7.171289,1.947758,-339.079987,-13.23,-8.33,1729428233836.0,0.0
-0.751346,-11.676974,3.012564,-462.559998,-116.830002,-47.110001,1729428233856.0,0.0
-3.182454,-3.294917,1.68694,-412.160004,-122.010002,-46.060001,1729428233876.0,0.0
-7.255038,-4.943572,-10.533205,-486.570007,-119.07,-66.639999,1729428233896.0,0.0
-2.172683,-9.638289,-16.362122,-389.619995,-104.580002,-81.900002,1729428233918.0,0.0
-3.256632,-7.216753,-16.02952,-112.699997,-28.700001,-10.29,1729428233936.0,0.0
-3.361916,-6.118448,-14.017156,37.869999,26.389999,1.61,1729428233956.0,0.0
-4.548756,-3.196811,-13.974084,86.029999,69.650002,12.39,1729428233976.0,0.0
-5.199604,-3.871587,-15.91227,85.260002,103.389999,32.130001,1729428233995.0,0.0
-9.269794,-4.558327,4.237689,82.529999,124.599998,41.790001,1729428234017.0,0.0
-3.641876,-13.397413,-14.376079,-149.589996,75.669998,-17.85,1729428234036.0,0.0
-4.558327,-7.82453,-14.383257,34.369999,122.43,-5.88,1729428234056.0,0.0
-5.608776,-8.664411,-7.817351,121.660004,170.660004,12.32,1729428234075.0,0.0
-2.033899,-3.900301,-1.435694,113.260002,167.300003,2.38,1729428234100.0,0.0
2.261217,-6.76451,1.287339,-19.460001,118.720001,-10.71,1729428234116.0,0.0
3.596412,-9.322437,7.099504,-8.19,61.529999,-0.63,1729428234136.0,0.0
1.481157,-7.515855,2.438286,57.400002,20.58,0.91,1729428234156.0,0.0
-2.895315,-7.9346,-0.708275,-65.309998,-15.33,-19.67,1729428234175.0,0.0
2.309074,-10.770095,-1.287339,-109.129997,-75.599998,-26.18,1729428234196.0,0.0
1.395016,-6.101698,-1.354338,31.15,-95.059998,-23.799999,1729428234217.0,0.0
0.930808,-6.147161,-1.988436,120.540001,-125.650002,17.710001,1729428234236.0,0.0
-7.355537,-14.244473,-0.040678,74.760002,-145.529999,27.58,1729428234256.0,0.0
-9.468399,-10.281959,-14.682359,-109.199997,-159.180008,-18.690001,1729428234276.0,0.0
-9.236296,-5.288138,-21.597616,-161.910004,-108.639999,-14.21,1729428234296.0,0.0
-15.438492,0.385244,-19.554146,-77.769997,8.26,-17.780001,1729428234316.0,0.0
-3.981657,-1.447658,-8.197811,49.07,64.540001,17.219999,1729428234335.0,0.0
-4.48415,-2.598605,-9.509077,-109.129997,62.93,-31.360001,1729428234356.0,0.0
0.540778,-3.376273,-10.980663,-205.729996,73.639999,-60.760002,1729428234375.0,0.0
-0.004786,-1.416551,-4.022335,-179.339996,92.68,-44.59,1729428234396.0,0.0
0.193819,-9.236296,-3.615555,-208.389999,64.330002,-46.130001,1729428234417.0,0.0
1.540978,-5.754738,-4.017549,-201.880005,36.330002,-75.599998,1729428234436.0,0.0
1.354338,-3.0006,-4.618148,-274.119995,10.85,-94.150002,1729428234456.0,0.0
0.832702,-6.419943,-5.328816,-228.199997,-16.17,-72.099998,1729428234475.0,0.0
-1.823331,-0.440279,-4.106083,-143.080002,-34.369999,-72.730003,1729428234495.0,0.0
0.208176,-2.383251,-8.350951,-202.789993,-69.580002,-57.75,1729428234517.0,0.0
-0.658026,-2.117648,-13.770694,-216.580002,-74.830002,-56.209999,1729428234535.0,0.0
-0.66999,-3.964907,-16.934006,-90.510002,-49.91,-33.670002,1729428234556.0,0.0
-0.136391,-3.050849,-15.170495,36.610001,-17.780001,-18.9,1729428234576.0,0.0
-2.723032,-3.089134,-14.864214,127.260002,8.75,-16.030001,1729428234595.0,0.0
-4.371687,1.78026,-8.757731,210.839996,29.190001,-7.49,1729428234617.0,0.0
-0.976272,1.962115,-6.67119,244.930008,14.77,22.4,1729428234636.0,0.0
-2.321038,-3.168097,-9.997212,224.490005,11.62,27.51,1729428234661.0,0.0
-3.148954,-8.207381,-7.267002,283.920013,14.56,27.09,1729428234675.0,0.0
0.404387,-1.698904,-5.436492,341.25,8.19,9.17,1729428234695.0,0.0
-0.866202,-9.504292,-5.271388,353.850006,-29.960001,19.530001,1729428234716.0,0.0
-1.490728,-7.798209,-8.216952,470.330017,-32.759998,20.23,1729428234735.0,0.0
-5.115855,-7.398607,-21.451654,509.73999,46.689999,21.700001,1729428234756.0,0.0
-8.992228,-2.732604,4.496114,324.660004,99.050003,78.540001,1729428234775.0,0.0
-0.741775,-10.10489,4.567898,57.400002,-15.4,3.5,1729428234795.0,0.0
-4.474578,-14.861821,-2.443072,8.19,-34.299999,6.02,1729428234817.0,0.0
-1.277767,-4.565506,-7.293324,79.169998,-9.1,-16.17,1729428234835.0,0.0
-6.455836,-11.743973,1.217947,122.080002,41.23,37.170002,1729428234856.0,0.0
0.102891,-10.492528,3.160919,61.599998,-17.360001,-11.76,1729428234876.0,0.0
-1.753939,-6.319445,-2.605784,47.18,39.200001,24.5,1729428234895.0,0.0
1.51705,-24.670002,0.301496,-128.380005,-30.870001,-12.6,1729428234916.0,0.0
-4.826324,-5.551349,-13.062418,-57.470001,42.77,-14.35,1729428234936.0,0.0
-4.522435,-6.78126,-10.932807,58.799999,94.639999,0.7,1729428234956.0,0.0
-3.524628,-8.702696,-4.833502,55.790001,113.120003,3.15,1729428234975.0,0.0
-3.945765,-8.793623,0.495314,43.889999,100.590004,21.35,1729428234995.0,0.0
-2.991028,-7.393822,0.031107,-139.229996,59.43,0.56,1729428235017.0,0.0
1.246661,-7.972885,-0.229711,-215.740005,33.810001,-24.57,1729428235035.0,0.0
-0.72024,-11.028521,7.288538,-169.399994,36.259998,2.66,1729428235056.0,0.0
1.153341,-10.906486,3.515057,-233.100006,-17.710001,-19.67,1729428235075.0,0.0
-0.179462,-9.934999,-1.210768,-268.589996,-41.23,-47.880001,1729428235094.0,0.0
-2.916851,-6.113662,-0.004786,-320.600006,-66.010002,-50.540001,1729428235117.0,0.0
-5.261817,-5.575277,-7.334002,-421.190002,-99.470001,-78.050003,1729428235136.0,0.0
-2.744568,-0.729811,-9.044869,-395.98999,-108.919998,-84.910004,1729428235155.0,0.0
-0.105284,5.161318,-11.375479,-279.790009,-107.099998,-50.540001,1729428235175.0,0.0
-3.268596,-4.13719,-9.731609,-107.730003,-93.239998,12.67,1729428235194.0,0.0
-5.807381,0.358923,-7.161718,-175.770004,-101.779999,-25.969999,1729428235216.0,0.0
-5.541777,-1.902294,-12.600604,-172.130005,-102.690002,-13.37,1729428235236.0,0.0
-2.065006,-1.239482,-8.733803,-109.970001,-84.489998,-18.549999,1729428235256.0,0.0
-2.809174,1.624727,-8.630912,-173.25,-85.75,-4.41,1729428235274.0,0.0
-1.182054,-5.209175,-22.095322,-224.910004,-71.75,-23.17,1729428235295.0,0.0
-7.200003,-13.261024,-6.130411,-102.900002,-34.790001,-38.43,1729428235316.0,0.0
-9.162118,-4.563113,-11.861222,-52.290001,-38.639999,-93.940002,1729428235334.0,0.0
-2.155933,1.639083,-9.260223,73.150002,-17.15,-52.5,1729428235355.0,0.0
-2.423929,-4.331009,-11.822936,-0.77,-13.02,-17.15,1729428235374.0,0.0
-2.550749,-5.235496,-12.859028,74.830002,-5.95,-21.0,1729428235395.0,0.0
-2.823531,-2.088934,-14.019548,145.389999,7.98,-49.630001,1729428235423.0,0.0
-4.630112,-1.387837,-13.887943,209.720001,28.42,-37.73,1729428235435.0,0.0
-5.606383,0.181855,-7.099504,323.049988,35.420002,-17.43,1729428235457.0,0.0
-2.849852,4.991428,-4.919643,280.769989,21.07,-9.03,1729428235475.0,0.0
-2.79721,-0.868595,-7.094719,100.940002,8.33,7.63,1729428235495.0,0.0
-4.04387,-2.074577,-7.386643,-28.630001,-7.35,0.7,1729428235517.0,0.0
-0.265603,-10.738988,-4.663611,4.97,18.059999,-4.41,1729428235536.0,0.0
0.713061,-14.593824,-13.375877,105.559998,22.68,-18.059999,1729428235556.0,0.0
0.744168,3.67059,-1.222732,192.570007,43.959999,4.76,1729428235575.0,0.0
-15.05564,-5.091926,-4.421937,140.770004,347.76001,122.150002,1729428235596.0,0.0
-6.195018,1.361516,-17.692532,176.820007,-65.239998,37.52,1729428235617.0,0.0
-4.582255,-1.715654,-12.059827,36.189999,-11.97,-39.900002,1729428235636.0,0.0
-7.60439,-3.067599,-4.603791,-127.959999,-43.889999,69.160004,1729428235659.0,0.0
-3.460021,-6.199803,-13.651052,-170.800003,-110.25,-30.309999,1729428235676.0,0.0
-9.348758,-3.055635,-10.803595,-1.05,62.299999,22.120001,1729428235696.0,0.0
-7.298109,-6.01077,-12.179466,-38.920002,89.040001,-7.35,1729428235717.0,0.0
-1.545763,-5.592027,-8.915657,-8.05,96.459999,-3.85,1729428235736.0,0.0
0.150748,-3.761517,-7.436893,89.669998,93.590004,32.41,1729428235756.0,0.0
-2.751746,-6.259624,-5.546563,116.129997,116.690002,43.189999,1729428235777.0,0.0
0.827917,-9.212367,-0.708275,122.220001,92.190002,44.310001,1729428235797.0,0.0
1.622334,-8.73141,5.845665,155.119995,59.639999,34.790001,1729428235820.0,0.0
3.347559,-4.778467,-0.356531,99.330002,-10.01,3.22,1729428235837.0,0.0
-3.696911,-4.510471,-0.76331,-8.12,-36.889999,7.7,1729428235857.0,0.0
-0.624527,-7.518249,-0.552742,-89.110001,-69.790001,-1.96,1729428235877.0,0.0
-0.648455,-7.822137,-4.756931,-122.080002,-104.860001,3.22,1729428235898.0,0.0
-0.681954,-1.804188,-14.155938,-159.669998,-120.330002,-5.04,1729428235918.0,0.0
-10.365707,-7.515855,-14.77568,-212.449997,-88.760002,-4.62,1729428235938.0,0.0
-14.103296,-3.98405,-24.665218,-198.800003,-59.150002,-38.009998,1729428235958.0,0.0
-5.391029,3.713661,-10.858629,116.059998,48.16,-13.58,1729428235977.0,0.0
-4.381258,1.182054,-13.627125,-21.84,75.389999,10.08,1729428235997.0,0.0
-5.376673,-3.728018,-10.69831,-97.93,100.519997,-3.22,1729428236021.0,0.0
-3.713661,-0.083749,-9.525827,38.220001,102.550003,25.76,1729428236037.0,0.0
-2.029114,-5.79063,-7.111469,34.439999,117.599998,12.6,1729428236058.0,0.0
-0.5001,-7.259824,-2.203789,14.35,93.660004,-7.7,1729428236077.0,0.0
-0.502493,-5.601598,-4.74736,-90.370003,67.129997,-48.09,1729428236097.0,0.0
2.18704,-6.530013,-5.924629,-180.949997,43.049999,-63.420002,1729428236117.0,0.0
1.002593,-5.737988,-5.4676,-159.180008,29.120001,-63.560001,1729428236141.0,0.0
0.533599,-2.737389,-5.71406,-173.880005,13.65,-68.040001,1729428236157.0,0.0
0.401994,-0.569492,-6.582655,-214.199997,-5.95,-59.849998,1729428236176.0,0.0
-2.057827,0.997807,-7.104291,-201.949997,-23.379999,-29.469999,1729428236198.0,0.0
-0.574277,-2.85703,-9.875179,-154.139999,-36.889999,-3.85,1729428236219.0,0.0
-1.055235,0.634098,-10.691131,-99.330002,-44.73,-0.42,1729428236237.0,0.0
-2.988636,-3.069991,-10.930414,-66.290001,-41.650002,13.72,1729428236259.0,0.0
-2.160719,-3.012564,-14.471791,-88.129997,-28.210001,-15.61,1729428236277.0,0.0
-0.430708,-2.617748,-11.964113,-34.720001,-11.48,-23.1,1729428236296.0,0.0
-0.196211,-0.708275,-11.042876,83.440002,-1.19,-26.809999,1729428236319.0,0.0
-1.591227,-2.148755,-10.892128,103.25,3.22,-17.57,1729428236337.0,0.0
-2.505285,-3.005385,-10.334601,116.410004,6.79,-15.12,1729428236358.0,0.0
-2.277967,-3.333202,-11.090734,190.259995,8.47,-3.71,1729428236378.0,0.0
-3.558127,-5.012963,-12.315859,345.170013,17.15,17.92,1729428236396.0,0.0
-4.35733,-7.853244,-16.094126,581.140015,33.18,32.130001,1729428236418.0,0.0
-1.998007,3.28056,-18.240486,792.679993,58.799999,49.98,1729428236445.0,0.0
-4.280759,7.403394,-0.124427,600.25,122.150002,62.650002,1729428236554.0,0.0
-7.88435,-13.710874,6.254838,68.529999,53.060001,24.08,1729428236558.0,0.0
5.108676,-9.449257,-7.003791,120.120003,-57.959999,-43.540001,1729428236561.0,0.0
-2.871387,-5.639884,-1.837688,243.389999,61.740002,-5.95,1729428236562.0,0.0
0.758525,-4.421937,-1.007378,255.850006,-38.360001,3.36,1729428236563.0,0.0
-5.335995,-6.398407,1.942972,280.140015,40.389999,1.26,1729428236566.0,0.0
-5.996413,-13.861622,5.32403,36.049999,-24.85,46.48,1729428236667.0,0.0
-1.272982,-21.64308,-3.211168,-38.360001,-27.58,-31.08,1729428236670.0,0.0
-5.501099,-11.803794,-2.845066,118.860001,0.49,41.93,1729428236670.0,0.0
-4.553542,-8.159525,-9.114261,41.16,29.26,9.03,1729428236671.0,0.0
-2.581856,-9.279366,-9.243474,-30.1,63.91,-21.700001,1729428236673.0,0.0
-2.096112,-8.01117,-5.146961,-54.040001,95.340004,-15.4,1729428236678.0,0.0
-1.557728,-14.158331,-1.339981,-95.620003,92.050003,-6.09,1729428236802.0,0.0
-0.471386,-3.991228,-0.662812,-171.710007,57.75,-10.99,1729428236803.0,0.0
0.72024,-6.080163,-4.503292,-235.619995,62.299999,-27.02,1729428236803.0,0.0
1.57687,-9.513863,-2.349752,-287.910004,30.940001,-12.18,1729428236803.0,0.0
-0.727418,-11.078769,2.861816,-198.940002,34.93,15.68,1729428236803.0,0.0
0.167498,-10.849058,3.909872,-156.729996,37.170002,19.460001,1729428236821.0,0.0
0.277567,-12.770494,-3.550949,-255.290009,-37.799999,-31.219999,1729428236849.0,0.0
-0.605384,-4.934,-3.290131,-210.0,-44.869999,-30.59,1729428236871.0,0.0
-2.895315,-4.053442,-5.118248,-246.050003,-62.93,-33.810001,1729428237059.0,0.0
-4.079762,-3.924229,-4.362115,-312.130005,-84.559998,-49.07,1729428237059.0,0.0
-4.749753,-1.462015,-9.334401,-322.209991,-107.099998,-67.129997,1729428237061.0,0.0
-3.426522,-0.411566,-11.693724,-243.809998,-110.669998,-56.77,1729428237064.0,0.0
-2.230111,-2.167897,-9.827322,-107.169998,-91.349998,-27.790001,1729428237065.0,0.0
-1.852045,0.138784,-11.473583,-190.75,-96.809998,-42.77,1729428237074.0,0.0
-2.959922,1.337588,-13.942977,-224.630005,-80.849998,-35.98,1729428237075.0,0.0
-0.114855,-3.414558,-15.684953,-192.850006,-45.43,-38.709999,1729428237075.0,0.0
-1.423729,-3.811767,-9.432507,-64.959999,-26.389999,-21.210001,1729428237075.0,0.0
-2.366502,-4.919643,-8.889337,-10.43,-30.030001,-42.700001,1729428237075.0,0.0
-5.699703,-1.141376,-3.433701,31.57,-36.959999,-35.490002,1729428237085.0,0.0
-9.379865,-2.557927,-15.81895,-38.009998,-52.360001,-42.07,1729428237098.0,0.0
-3.649055,-1.586441,-10.073784,14.56,-31.15,-9.59,1729428237118.0,0.0
-4.67079,-0.940379,-11.487941,33.740002,-15.68,0.21,1729428237137.0,0.0
-2.268396,-5.146961,-9.772287,40.880001,-16.030001,-3.43,1729428237160.0,0.0
-0.954736,-2.493321,-12.452249,82.739998,-14.91,-28.280001,1729428237178.0,0.0
-3.330809,-4.941179,-14.849857,139.020004,12.46,-26.950001,1729428237199.0,0.0
-3.95055,-5.692525,-17.331215,196.630005,41.02,-41.650002,1729428237220.0,0.0
-2.464607,1.536192,-15.404992,364.769989,67.550003,-44.240002,1729428237238.0,0.0
-4.486543,9.678967,-6.355337,576.030029,93.029999,36.68,1729428237258.0,0.0
-4.211368,3.385844,-6.522834,341.600006,92.260002,36.049999,1729428237279.0,0.0
-1.947758,-5.82413,-3.141776,68.18,65.800003,30.870001,1729428237300.0,0.0
-1.497907,-14.857035,-2.189433,99.82,19.879999,2.94,1729428237321.0,0.0
-1.756332,-7.436893,0.837488,198.660004,-4.97,17.85,1729428237342.0,0.0
-3.469593,-13.907085,-2.230111,158.479996,-4.97,-6.3,1729428237360.0,0.0
-2.266003,-11.389835,-8.233703,120.540001,-35.209999,-17.639999,1729428237389.0,0.0
-8.453842,-5.099105,1.454836,159.320007,57.82,29.33,1729428237399.0,0.0
-9.769895,-5.522634,-8.733803,-149.309998,-9.87,-41.02,1729428237420.0,0.0
-3.728018,-6.534799,-9.343972,-163.029999,15.47,-30.450001,1729428237440.0,0.0
-5.022535,-6.991827,-10.794022,-68.739998,79.449997,-1.26,1729428237466.0,0.0
-5.99402,-7.769495,-11.880364,-65.800003,111.300003,-7.28,1729428237478.0,0.0
-2.663212,-3.507878,-9.145369,-41.509998,132.720001,19.879999,1729428237499.0,0.0
-1.543371,-5.65424,-7.506285,44.939999,136.850006,31.219999,1729428237523.0,0.0
1.725225,-8.126025,-2.416751,52.360001,133.279999,29.75,1729428237540.0,0.0
6.216553,-8.989835,12.94517,76.230003,48.93,20.370001,1729428237559.0,0.0
-0.157926,-11.160125,4.292724,-8.82,-26.110001,-7.07,1729428237580.0,0.0
2.411965,-8.312666,0.595813,-40.950001,-76.370003,-5.32,1729428237599.0,0.0
1.158126,-9.401401,0.710668,-27.93,-115.360001,-8.68,1729428237620.0,0.0
-2.244468,-5.730811,-6.06102,-17.290001,-134.820007,12.46,1729428237640.0,0.0
-10.583455,-11.499906,-8.496914,-85.050003,-136.639999,17.99,1729428237664.0,0.0
-12.382857,-7.724032,-21.004198,-163.729996,-82.459999,0.14,1729428237680.0,0.0
-11.844472,-3.007778,-24.215364,-121.169998,1.89,0.35,1729428237700.0,0.0
-2.916851,-4.541577,-10.394422,37.240002,71.610001,19.530001,1729428237722.0,0.0
-5.245068,0.684347,-12.729815,-71.470001,94.919998,-15.68,1729428237740.0,0.0
-4.582255,-2.806781,-9.767502,-127.68,110.459999,-3.08,1729428237761.0,0.0
-3.369094,-5.099105,-7.575676,-134.960007,118.160004,-2.52,1729428237780.0,0.0
-0.87338,-4.199404,-2.203789,-146.440002,116.690002,-13.72,1729428237800.0,0.0
0.940379,-8.370094,-2.0004,-200.270004,68.25,-35.209999,1729428237822.0,0.0
3.48395,-4.953143,-3.713661,-199.5,28.98,-64.540001,1729428237840.0,0.0
1.567299,-2.457429,-3.220739,-231.979996,-14.07,-74.269997,1729428237861.0,0.0
2.567499,-2.904887,-6.84108,-248.639999,-42.630001,-61.740002,1729428237881.0,0.0
-1.505085,-1.299303,-5.577669,-181.720001,-63.07,-34.23,1729428237902.0,0.0
-1.878366,-1.612763,-8.630912,-155.889999,-84.279999,-20.23,1729428237922.0,0.0
-1.222732,-3.464807,-12.801601,-169.119995,-88.620003,-11.55,1729428237941.0,0.0
-2.239682,-2.371287,-12.899707,-121.239998,-75.040001,-18.34,1729428237960.0,0.0
-1.895115,-1.387837,-13.210773,-42.0,-60.619999,-8.96,1729428237981.0,0.0
-2.0004,-1.808974,-10.966305,22.049999,-46.200001,-9.87,1729428238001.0,0.0
-1.299303,-1.756332,-10.906486,48.09,-46.27,-11.69,1729428238022.0,0.0
-1.916651,-2.294717,-12.988241,66.639999,-38.009998,-6.16,1729428238042.0,0.0
-1.847259,-2.624927,-8.740981,94.220001,-23.940001,-5.04,1729428238063.0,0.0
-1.261017,-5.481956,-6.075377,157.149994,-46.970001,10.92,1729428238083.0,0.0
-2.021935,-4.835894,-5.953342,246.119995,-67.410004,13.86,1729428238101.0,0.0
-2.809174,-5.716454,-13.363914,331.309998,-70.0,24.5,1729428238122.0,0.0
-5.209175,-7.367501,-15.574883,419.790009,-37.310001,50.049999,1729428238142.0,0.0
-6.113662,-1.914258,-13.390236,565.530029,46.970001,77.489998,1729428238162.0,0.0
-11.059627,5.230711,1.241875,318.079987,69.230003,71.050003,1729428238185.0,0.0
-5.9342,-12.713067,1.995614,-14.35,-27.93,24.08,1729428238203.0,0.0
-0.863809,-12.031113,-9.796216,40.040001,-61.040001,-38.290001,1729428238278.0,0.0
-6.405586,-9.95175,4.876573,201.949997,42.84,1.19,1729428238284.0,0.0
-0.605384,-3.290131,-1.308874,252.490005,-28.42,2.8,1729428238287.0,0.0
-9.638289,-6.79083,0.129212,154.559998,43.610001,8.75,1729428238288.0,0.0
-5.45085,-12.100503,-2.821138,-16.24,-48.23,38.009998,1729428238302.0,0.0
0.777667,-12.839886,-8.652447,-51.450001,-55.93,-48.509998,1729428238337.0,0.0
-7.015756,-16.000805,2.072184,69.720001,64.050003,50.189999,1729428238341.0,0.0
-4.141976,-12.174682,-1.871187,-46.130001,-17.15,-25.83,1729428238362.0,0.0
-3.960121,-9.145369,-7.556533,-12.6,14.63,-22.540001,1729428238381.0,0.0
-7.716853,-9.042477,-8.312666,-69.440002,65.169998,-30.59,1729428238520.0,0.0
-5.295317,-8.85105,-7.757531,-68.739998,58.310001,-42.91,1729428238522.0,0.0
-4.347759,-6.329016,-7.152147,-19.389999,84.980003,-23.17,1729428238522.0,0.0
-5.489135,-11.839686,-4.09412,-78.610001,79.940002,-28.280001,1729428238522.0,0.0
-4.118048,-3.601198,-1.227518,-184.940002,74.059998,-34.509998,1729428238523.0,0.0
-2.28036,-3.692125,-3.608376,-285.529999,48.369999,-41.650002,1729428238523.0,0.0
-1.794617,-4.766503,-2.371287,-250.389999,36.610001,-19.110001,1729428238526.0,0.0
-1.344766,-6.017949,-2.672783,-202.720001,22.960001,-8.26,1729428238543.0,0.0
-0.334995,-8.822337,-2.069792,-180.529999,-16.379999,-4.76,1729428238560.0,0.0
0.004786,-8.635696,-2.768496,-164.009995,-41.93,-23.59,1729428238644.0,0.0
-2.801995,-3.675375,-2.756532,-179.550003,-70.07,-39.549999,1729428238644.0,0.0
-4.709075,2.809174,-2.615355,-307.649994,-108.989998,-41.93,1729428238645.0,0.0
-3.34038,-3.024528,-17.680567,-416.149994,-139.369995,-39.48,1729428238645.0,0.0
-4.666004,-10.004392,-22.363321,-238.559998,-86.239998,-45.779999,1729428238664.0,0.0
-3.95055,-0.985843,-6.994221,27.09,-30.380001,-44.59,1729428238682.0,0.0
-4.704289,6.484549,-3.474378,-103.529999,-39.689999,-47.110001,1729428238713.0,0.0
-3.113062,-6.123233,-11.887544,-289.450012,-28.35,-40.810001,1729428238734.0,0.0
-2.785245,-3.026921,-12.736995,-140.770004,-45.5,-48.299999,1729428238776.0,0.0
-6.884151,-5.740381,-5.469993,-70.980003,-37.66,-45.709999,1729428238782.0,0.0
-5.946165,-3.165704,-10.518847,-83.790001,-30.1,-60.970001,1729428238799.0,0.0
-3.869194,-0.064606,-10.683953,15.75,-29.960001,-40.389999,1729428238821.0,0.0
-4.079762,-1.70369,-10.018748,26.25,-26.389999,-16.66,1729428238841.0,0.0
-4.115655,-0.040678,-11.219944,58.240002,-24.710001,-15.89,1729428238861.0,0.0
-4.625326,1.761117,-9.719646,93.590004,-16.450001,-11.27,1729428238882.0,0.0
-5.233103,0.665205,-10.04507,37.73,-10.36,-0.63,1729428238902.0,0.0
-5.249853,-1.459622,-12.839886,31.08,0.63,0.84,1729428238922.0,0.0
-5.075177,-1.938186,-10.928021,71.470001,16.030001,-7.77,1729428239015.0,0.0
-3.761517,-1.048056,-12.191431,57.82,23.379999,-21.07,1729428239017.0,0.0
-2.840281,-3.644269,-12.818351,62.09,35.490002,-23.870001,1729428239018.0,0.0
-2.675175,-3.586841,-11.356337,110.32,44.240002,-33.599998,1729428239020.0,0.0
-4.541577,-0.990629,-8.525627,230.580002,59.779999,-20.58,1729428239024.0,0.0
-3.785445,4.491328,-7.814958,316.049988,62.860001,4.62,1729428239040.0,0.0
-1.840081,6.556334,-1.581656,143.080002,52.709999,16.73,1729428239070.0,0.0
-5.187639,-5.496314,-8.626125,-93.309998,30.1,20.440001,1729428239083.0,0.0
-4.651647,-4.831109,-8.070991,-78.959999,-8.54,-7.49,1729428239105.0,0.0
-4.567898,-4.682754,-9.221939,-14.21,4.69,3.36,1729428239121.0,0.0
-2.467,-4.675575,-10.040283,-56.07,-1.68,-9.8,1729428239141.0,0.0
-1.732404,-9.944571,-18.156738,40.389999,27.790001,-1.61,1729428239160.0,0.0
3.251846,-4.555934,-8.310273,302.190002,8.33,12.25,1729428239180.0,0.0
-3.751946,-3.936193,0.646062,465.290009,38.360001,69.720001,1729428239200.0,0.0
-16.383656,2.522035,-9.430114,246.540009,4.83,64.68,1729428239221.0,0.0
-6.539584,-7.659425,-11.176874,116.690002,22.889999,-2.8,1729428239240.0,0.0
-3.696911,-1.548156,-8.659625,55.860001,-20.93,43.119999,1729428239260.0,0.0
-6.45105,-3.531806,-3.716053,90.019997,32.900002,28.139999,1729428239279.0,0.0
-6.278766,-3.586841,-7.288538,16.17,7.63,-6.93,1729428239300.0,0.0
-6.977471,-4.0008,-6.520442,-80.709999,12.11,-2.8,1729428239321.0,0.0
-7.360322,-6.759724,-13.232309,-177.029999,33.18,-47.810001,1729428239342.0,0.0
-2.845066,-9.45165,-11.133803,-69.580002,53.27,-25.34,1729428239361.0,0.0
-1.864009,-8.709875,-8.889337,98.559998,63.07,9.24,1729428239381.0,0.0
-4.311867,-4.587041,-10.947165,169.680008,97.370003,20.16,1729428239400.0,0.0
-1.464408,-7.992027,-8.226524,148.539993,101.849998,26.74,1729428239421.0,0.0
-1.438086,-8.070991,-0.995414,127.75,105.349998,21.0,1729428239443.0,0.0
0.150748,-7.250252,-3.474378,21.84,77.0,-9.94,1729428239461.0,0.0
-0.165105,-6.675975,-0.401994,-30.799999,46.759998,-25.48,1729428239481.0,0.0
-0.918844,-5.960521,-2.256432,-91.769997,3.36,-36.330002,1729428239508.0,0.0
-3.744767,-6.022735,-6.029913,-162.680008,-11.55,-41.790001,1729428239523.0,0.0
-2.962314,-6.015556,-8.587841,-170.729996,-24.43,-41.299999,1729428239541.0,0.0
-2.557927,-4.163511,-8.413164,-108.43,-13.65,-23.030001,1729428239561.0,0.0
-1.70369,-4.532006,-8.645268,-86.800003,-11.13,-7.77,1729428239581.0,0.0
-2.318645,-8.01117,-11.667403,-42.98,-4.06,1.68,1729428239601.0,0.0
-2.143969,-6.412765,-9.690931,70.279999,16.379999,6.86,1729428239626.0,0.0
-2.679961,-2.904887,-8.355737,84.209999,35.91,7.35,1729428239643.0,0.0
-2.481357,-5.584848,-7.846066,-15.96,24.08,6.58,1729428239665.0,0.0
-1.938186,-6.202196,-7.233503,-28.98,14.91,4.97,1729428239681.0,0.0
-1.854438,-4.369294,-5.405386,-9.52,9.87,3.36,1729428239701.0,0.0
-1.658226,-3.854837,-4.831109,-28.35,-6.3,3.29,1729428239724.0,0.0
-1.840081,-5.015356,-6.838687,-66.150002,-19.389999,4.69,1729428239742.0,0.0
-2.199004,-6.108876,-8.130811,-71.470001,-21.98,6.93,1729428239761.0,0.0
-2.600998,-5.723632,-8.640482,-28.07,-16.1,11.83,1729428239783.0,0.0
-2.871387,-6.558727,-9.19801,-24.01,-14.98,13.65,1729428239802.0,0.0
-2.486143,-6.618547,-9.542577,1.05,-13.09,11.9,1729428239825.0,0.0
-2.385644,-6.082555,-9.980463,16.799999,-3.78,8.54,1729428239841.0,0.0
-2.455036,-6.080163,-9.379865,6.86,7.14,3.85,1729428239862.0,0.0
-2.39043,-6.092126,-8.319844,13.09,9.38,1.68,1729428239881.0,0.0
-2.395216,-7.353144,-8.130811,58.450001,3.36,-3.71,1729428239902.0,0.0
-2.459821,-4.388437,-6.845865,92.68,8.33,-9.59,1729428239925.0,0.0
-2.277967,-3.694518,-6.087341,4.41,-3.08,-16.59,1729428239942.0,0.0
-1.021735,-3.63709,-7.73121,-101.150002,-15.96,-21.77,1729428239962.0,0.0
-0.940379,-2.756532,-7.219146,-155.75,-20.860001,-19.879999,1729428239982.0,0.0
-1.476372,-1.526621,-8.492127,-211.119995,-23.17,-23.309999,1729428240002.0,0.0
-2.134398,-3.601198,-8.484949,-234.710007,-33.529999,-12.95,1729428240023.0,0.0
-1.785046,-3.677768,-7.255038,-151.899994,-42.349998,-13.3,1729428240043.0,0.0
-3.969693,-4.778467,-7.771888,-74.760002,-49.91,-9.17,1729428240064.0,0.0
-4.510471,-7.278966,-15.031711,-121.730003,-53.41,-28.0,1729428240082.0,0.0
-4.541577,-9.568897,-12.476178,-58.869999,-25.059999,-29.889999,1729428240103.0,0.0
-2.818745,-4.098906,-8.779266,64.260002,-14.49,-32.970001,1729428240123.0,0.0
-3.565305,-3.596412,-9.221939,180.600006,-10.15,-7.84,1729428240145.0,0.0
-4.031906,-3.414558,-8.949157,227.009995,-6.44,0.14,1729428240163.0,0.0
-3.907479,-1.256232,-8.255238,201.740005,-10.29,7.14,1729428240182.0,0.0
-4.948357,0.653241,-9.41815,115.779999,-0.84,17.43,1729428240202.0,0.0
-4.402793,-1.954936,-10.310673,51.310001,5.11,32.130001,1729428240228.0,0.0
-2.227718,-6.982256,-11.487941,103.949997,9.24,31.219999,1729428240249.0,0.0
-1.339981,-7.336394,-9.542577,215.669998,22.75,16.030001,1729428240262.0,0.0
-2.895315,-3.976871,-5.596812,230.790009,37.66,-1.68,1729428240284.0,0.0
-4.287938,-3.768696,-5.651847,100.590004,14.07,-0.49,1729428240302.0,0.0
-3.847659,-5.804988,-7.659425,3.01,-5.18,-8.4,1729428240325.0,0.0
-1.789831,-9.389436,-10.621738,90.860001,-9.73,-6.37,1729428240342.0,0.0
-3.421736,-8.063812,-7.185646,199.639999,28.98,-4.41,1729428240362.0,0.0
-3.912265,-5.565705,-5.099105,217.770004,42.07,5.11,1729428240382.0,0.0
-3.696911,-16.500904,-4.130012,200.830002,-7.63,-7.35,1729428240403.0,0.0
1.603191,-15.32603,-1.148555,507.779999,19.389999,10.5,1729428240424.0,0.0
-3.148954,-4.486543,-7.441679,475.649994,16.030001,-6.93,1729428240443.0,0.0
-10.444671,-0.533599,2.490928,336.910004,65.730003,-13.09,1729428240465.0,0.0
-4.048656,-9.001799,1.981257,146.020004,-9.59,7.28,1729428240482.0,0.0
-3.431308,-16.3358,-3.105884,138.529999,-16.450001,-39.34,1729428240502.0,0.0
-4.63729,-10.243673,5.45085,330.190002,36.68,-22.049999,1729428240525.0,0.0
-4.086941,-7.99442,2.634498,237.089996,16.799999,-56.84,1729428240542.0,0.0
-2.191825,-8.88455,9.195618,198.240005,18.620001,-23.24,1729428240563.0,0.0
-1.548156,-12.59821,10.451849,191.589996,14.42,-38.080002,1729428240582.0,0.0
2.775674,3.330809,-1.713261,223.160004,14.14,-19.74,1729428240604.0,0.0
-10.057034,-14.749359,8.956335,304.920013,92.470001,-7.49,1729428240626.0,0.0
8.161918,6.151947,-0.239282,155.470001,35.0,10.01,1729428240644.0,0.0
-3.601198,-0.325424,1.916651,316.540009,69.650002,-17.639999,1729428240665.0,0.0
-3.663411,-1.177269,3.567699,300.929993,109.830002,1.26,1729428240682.0,0.0
-6.618547,-3.529413,7.396214,330.610016,137.899994,4.27,1729428240704.0,0.0
-5.096712,-2.222932,9.107083,262.079987,140.559998,28.139999,1729428240723.0,0.0
-4.491328,-10.023535,8.489735,179.619995,107.099998,54.810001,1729428240743.0,0.0
-3.952943,-10.095319,9.717253,198.240005,104.93,38.5,1729428240763.0,0.0
-5.113462,-6.750153,11.79183,167.930008,90.650002,12.95,1729428240783.0,0.0
-4.431508,-7.867601,8.496914,60.900002,32.130001,-6.65,1729428240802.0,0.0
-5.807381,-3.512664,8.130811,74.900002,9.38,-4.2,1729428240824.0,0.0
-5.642276,-2.321038,8.872586,30.870001,-11.62,-7.63,1729428240842.0,0.0
-4.821537,-2.512464,8.037491,-22.889999,-32.619999,-7.63,1729428240863.0,0.0
-2.347359,-0.691526,8.903693,-43.189999,-23.309999,10.57,1729428240883.0,0.0
-4.206582,-3.24706,7.996813,-116.059998,-15.89,12.25,1729428240903.0,0.0
-5.862415,-5.99402,10.30828,-317.730011,-29.26,-20.09,1729428240923.0,0.0
-6.362515,-5.682954,9.554541,-551.179993,-61.459999,-30.66,1729428240943.0,0.0
-4.986642,-8.087741,4.225725,-688.869995,-75.32,-37.66,1729428240962.0,0.0
-3.026921,-8.10449,1.56012,-771.820007,-59.220001,-62.93,1729428240984.0,0.0
-5.905487,-1.115055,-1.131805,-878.359985,-41.860001,-95.690002,1729428241002.0,0.0
-4.453043,-7.721639,-7.312466,-782.390015,-50.68,-108.010002,1729428241023.0,0.0
-4.165904,-5.99402,-7.259824,-437.220001,-32.060001,-99.889999,1729428241043.0,0.0
-4.931608,-6.525227,-6.218946,-157.360001,12.53,-64.470001,1729428241064.0,0.0
-5.869594,-10.018748,-8.410772,-145.389999,35.91,-61.25,1729428241083.0,0.0
-2.696711,-6.9009,-4.292724,-131.320007,50.610001,-50.259998,1729428241102.0,0.0
-0.799203,-4.431508,-2.493321,-79.800003,47.040001,-22.68,1729428241123.0,0.0
2.333002,-10.226924,-2.378466,-96.110001,37.310001,-15.4,1729428241143.0,0.0
6.85783,-9.219545,4.216154,-46.689999,19.950001,5.18,1729428241162.0,0.0
-1.253839,-12.117253,1.28016,19.879999,-9.8,0.7,1729428241184.0,0.0
-2.971886,-6.989435,-1.232304,10.64,-37.099998,-3.15,1729428241202.0,0.0
5.06082,-7.56132,-4.326223,-44.099998,-86.169998,-19.460001,1729428241223.0,0.0
-0.909273,-6.611369,-6.364908,18.83,-94.5,6.79,1729428241243.0,0.0
-6.783652,-6.262017,-3.366701,18.129999,-82.459999,33.18,1729428241263.0,0.0
-13.548162,-10.978271,-9.736395,-216.020004,-84.840004,-11.55,1729428241285.0,0.0
-17.773888,-5.032106,-18.135202,-305.970001,-27.16,-38.920002,1729428241303.0,0.0
-5.06082,-3.68734,-15.471991,-182.490005,44.029999,-32.41,1729428241333.0,0.0
-3.366701,-3.629912,-6.798009,-193.199997,74.830002,-56.630001,1729428241341.0,0.0
-2.749353,-1.859223,-4.405186,-323.329987,55.580002,-62.860001,1729428241364.0,0.0
1.473979,-3.730411,-6.226124,-275.519989,29.469999,-57.75,1729428241383.0,0.0
1.861616,-6.266802,-6.726225,-182.699997,6.37,-44.66,1729428241401.0,0.0
1.840081,-4.113262,-8.372486,-103.809998,-21.84,-41.580002,1729428241426.0,0.0
0.622134,-5.711668,-8.142776,-73.849998,-34.720001,-27.58,1729428241442.0,0.0
-1.158126,-4.95075,-8.408379,-61.670002,-43.189999,-21.84,1729428241462.0,0.0
-2.354537,-3.926622,-7.843673,-86.800003,-50.259998,-15.89,1729428241483.0,0.0
-3.036492,-5.142176,-8.800802,-85.260002,-56.0,-8.96,1729428241502.0,0.0
-3.002992,-5.024928,-9.355937,-26.110001,-57.75,-8.12,1729428241523.0,0.0
-3.029313,-4.082155,-9.516255,5.53,-55.16,-10.92,1729428241542.0,0.0
-3.158526,-2.761317,-8.803195,-4.13,-49.0,-13.79,1729428241562.0,0.0
-3.629912,-2.790031,-9.518648,-8.54,-45.360001,-11.55,1729428241581.0,0.0
-3.352344,-3.074777,-11.174481,24.57,-42.139999,-7.35,1729428241602.0,0.0
-3.366701,-3.194418,-11.538191,52.920002,-34.650002,-2.66,1729428241625.0,0.0
-3.517449,-1.842474,-11.253445,61.880001,-25.41,-4.06,1729428241641.0,0.0
-3.431308,-1.634298,-9.293723,46.200001,-16.799999,1.61,1729428241667.0,0.0
-3.352344,-3.574877,-8.652447,30.24,-13.3,8.82,1729428241682.0,0.0
-3.349952,-4.113262,-8.592626,33.32,-12.46,4.69,1729428241702.0,0.0
-3.541377,-3.218346,-8.657232,33.110001,-12.04,-0.28,1729428241726.0,0.0
-3.517449,-3.290131,-8.551948,9.38,-9.17,-1.61,1729428241744.0,0.0
-3.491128,-3.876373,-8.279166,-13.93,-6.93,1.26,1729428241762.0,0.0
-3.505485,-4.206582,-8.260024,-2.8,-7.28,1.33,1729428241782.0,0.0
-3.684947,-3.991228,-8.190632,8.68,-6.65,-1.12,1729428241801.0,0.0
-3.907479,-3.761517,-8.070991,7.35,-5.88,-4.62,1729428241824.0,0.0
-4.07737,-3.177669,-7.970492,-0.07,-9.8,-8.19,1729428241843.0,0.0
-3.402594,-2.07697,-8.647661,-12.04,-18.9,-8.96,1729428241862.0,0.0
-2.723032,-2.555535,-8.927622,-29.75,-16.309999,-5.95,1729428241882.0,0.0
-2.478964,-2.756532,-9.116654,-46.27,-10.71,-6.79,1729428241903.0,0.0
-3.18724,-2.679961,-9.485149,-35.209999,-9.59,-5.25,1729428241924.0,0.0
-4.292724,-3.168097,-9.846465,-18.83,-12.39,-0.28,1729428241942.0,0.0
-5.13739,-3.787838,-9.710074,-9.17,-16.1,3.57,1729428241962.0,0.0
-5.572884,-3.929015,-8.985049,9.52,-17.85,7.77,1729428241982.0,0.0
-5.888737,-4.13719,-8.063812,22.610001,-16.799999,5.88,1729428242002.0,0.0
-5.991628,-3.847659,-7.601997,32.830002,-21.84,1.4,1729428242024.0,0.0
-6.029913,-3.002992,-8.276773,28.280001,-23.66,-5.6,1729428242042.0,0.0
-5.706882,-2.273181,-8.13799,3.08,-19.460001,-8.05,1729428242062.0,0.0
-4.35733,-3.917051,-7.221539,-20.370001,-9.8,-11.62,1729428242083.0,0.0
-3.699304,-2.67039,-7.484749,-0.91,-3.85,-13.58,1729428242101.0,0.0
-3.591627,-1.627119,-8.051848,-3.85,-3.01,-7.07,1729428242123.0,0.0
-3.371487,-2.37368,-8.015956,-21.91,-3.92,5.74,1729428242142.0,0.0
-3.381058,-3.081956,-8.271988,-14.49,-4.48,12.25,1729428242162.0,0.0
-3.842873,-2.612962,-7.743174,2.8,-4.41,14.56,1729428242181.0,0.0
-4.082155,-2.0004,-8.77448,3.29,-9.31,17.43,1729428242202.0,0.0
-4.469792,-3.158526,-9.846465,-8.19,-7.0,24.15,1729428242233.0,0.0
-4.668397,-3.534199,-9.796216,-0.21,-0.21,23.309999,1729428242242.0,0.0
-5.788238,-2.225325,-8.458629,18.690001,3.22,19.18,1729428242262.0,0.0
-5.295317,-2.811567,-7.652246,35.0,-4.69,23.17,1729428242281.0,0.0
-5.529813,-3.565305,-7.590034,15.47,-8.05,17.08,1729428242301.0,0.0
-5.237889,-5.032106,-7.219146,-15.82,-8.75,13.65,1729428242324.0,0.0
-4.716253,-5.938986,-7.977671,18.620001,-14.42,5.18,1729428242342.0,0.0
-4.833502,-6.565905,-8.281559,64.82,-16.66,-5.46,1729428242362.0,0.0
-4.761717,-7.156933,-8.685946,57.189999,-11.13,-13.51,1729428242383.0,0.0
-3.282953,-6.003592,-12.375679,74.970001,-11.13,-11.34,1729428242402.0,0.0
-5.568098,-6.04427,-12.815958,319.130005,54.459999,15.190001,1729428242424.0,0.0
-4.831109,-1.459622,-9.06162,463.190002,80.220001,35.349998,1729428242442.0,0.0
-2.706282,-2.605784,-3.029313,348.110016,66.290001,10.99,1729428242463.0,0.0
1.119841,-12.971491,0.253639,301.980011,-11.55,-10.29,1729428242482.0,0.0
-3.45045,-7.992027,-11.059627,473.480011,-33.880001,-41.720001,1729428242503.0,0.0
-13.196418,-0.555135,-0.476172,661.359985,78.050003,47.459999,1729428242522.0,0.0
-9.75793,5.515456,-0.428315,390.179993,49.349998,-42.0,1729428242542.0,0.0
-5.123034,-10.164711,-0.882952,79.730003,-14.63,-9.24,1729428242569.0,0.0
-1.706082,-9.844072,-2.086541,64.82,-32.130001,-44.799999,1729428242581.0,0.0
-6.025128,-4.922036,2.914458,223.930008,21.77,0.28,1729428242603.0,0.0
-5.034499,-11.645866,-4.85743,122.639999,-29.889999,-13.23,1729428242626.0,0.0
-6.238089,-11.16491,-2.9336,149.729996,26.25,32.27,1729428242642.0,0.0
1.65344,-3.23031,-3.720839,103.18,-33.529999,7.28,1729428242666.0,0.0
-6.661618,-11.468799,1.01695,117.949997,-0.84,-8.82,1729428242682.0,0.0
-9.839286,-16.242479,2.385644,86.730003,-8.89,17.360001,1729428242703.0,0.0
-9.973285,-4.031906,0.098106,181.089996,46.27,44.66,1729428242723.0,0.0
-5.673382,-10.69831,7.140182,-140.910004,-63.84,-17.85,1729428242743.0,0.0
-8.382057,-22.387249,2.175076,-227.290009,-52.849998,27.860001,1729428242763.0,0.0
-5.802595,-4.905287,-6.147161,-199.149994,-4.83,14.07,1729428242782.0,0.0
-9.092726,-10.274779,-7.365108,-210.350006,4.41,-51.099998,1729428242802.0,0.0
-4.352544,-12.729815,-5.395815,-177.589996,58.380001,-68.599998,1729428242824.0,0.0
-2.756532,-9.303294,-1.036092,-106.120003,85.470001,-60.130001,1729428242843.0,0.0
0.732204,-6.89133,-4.299902,-218.960007,52.220001,-73.5,1729428242864.0,0.0
2.801995,-4.407579,2.368894,-266.48999,49.07,-33.599998,1729428242884.0,0.0
2.024328,-6.745367,8.26481,-273.350006,10.78,-28.84,1729428242903.0,0.0
0.375673,-6.123233,5.919843,-340.480011,-20.370001,-40.389999,1729428242925.0,0.0
0.641276,-11.667403,-5.041678,-365.890015,-63.77,-61.599998,1729428242943.0,0.0
-3.431308,-2.940779,-3.366701,-254.100006,-32.200001,-16.379999,1729428242964.0,0.0
-2.474179,-6.74776,-7.348359,-280.630005,-49.98,-14.77,1729428242983.0,0.0
-3.259024,-6.960721,-7.831708,-228.479996,-39.34,-6.65,1729428243003.0,0.0
-3.771089,-8.114061,-9.96132,-192.5,-39.130001,-21.07,1729428243025.0,0.0
-3.699304,-8.587841,-4.979464,-84.559998,-36.540001,-30.24,1729428243045.0,0.0
-2.189433,-2.459821,-3.352344,-36.889999,-42.139999,-19.18,1729428243064.0,0.0
-3.572484,-1.753939,-6.745367,-101.010002,-48.02,-16.870001,1729428243084.0,0.0
-4.658825,-4.240082,-10.289137,-164.430008,-64.190002,-6.79,1729428243105.0,0.0
-4.426722,-2.818745,-8.236095,-171.919998,-64.959999,-3.78,1729428243125.0,0.0
-4.826324,-3.079563,-6.589834,-128.869995,-58.099998,8.75,1729428243144.0,0.0
-4.242475,1.689333,-5.233103,-93.730003,-67.340004,22.190001,1729428243165.0,0.0
-6.745367,-3.562913,-5.453243,-116.129997,-86.099998,28.07,1729428243184.0,0.0
-5.649454,-1.402194,-5.221139,-105.279999,-119.559998,20.719999,1729428243204.0,0.0
-4.704289,-12.303895,-14.828322,-97.93,-123.550003,-3.99,1729428243280.0,0.0
-8.336594,-4.795217,-8.563912,35.700001,-75.879997,-7.84,1729428243291.0,0.0
-8.092526,1.564906,-8.360522,46.970001,-52.920002,13.23,1729428243293.0,0.0
-4.005585,-1.56012,-10.064213,-16.870001,-64.75,37.380001,1729428243296.0,0.0
-6.422336,-6.166305,-13.30888,-66.779999,-53.689999,20.370001,1729428243303.0,0.0
-5.821737,-3.026921,-10.023535,81.830002,-31.08,7.28,1729428243325.0,0.0
-7.932207,-1.916651,-10.016356,86.730003,-7.91,7.28,1729428243344.0,0.0
-7.068398,-3.103491,-12.96192,47.18,18.76,-0.98,1729428243364.0,0.0
-7.142576,-1.485943,-12.579069,72.519997,41.09,-16.24,1729428243384.0,0.0
-6.553941,0.87338,-10.121639,115.150002,48.09,-21.91,1729428243404.0,0.0
-8.389235,1.064806,3.029313,52.150002,56.209999,-17.01,1729428243426.0,0.0
-4.972286,-4.505685,-11.92822,-93.379997,39.549999,-7.77,1729428243444.0,0.0
-6.82433,-5.412565,-10.131211,-90.230003,28.630001,-22.190001,1729428243466.0,0.0
-5.35753,-3.639483,-8.733803,-58.52,23.73,-47.32,1729428243486.0,0.0
-1.007378,-9.678967,-9.322437,-56.630001,35.349998,-39.34,1729428243504.0,0.0
2.172683,-11.332408,-15.335601,82.459999,119.559998,-56.07,1729428243525.0,0.0
-6.716653,-5.45085,-16.723438,555.030029,79.660004,-8.82,1729428243544.0,0.0
-8.829515,3.031706,-11.41855,674.799988,136.570007,36.959999,1729428243564.0,0.0
-6.728617,17.278572,7.219146,177.660004,78.959999,12.39,1729428243584.0,0.0
-4.338188,-9.169296,0.933201,14.42,54.459999,0.7,1729428243604.0,0.0
-9.016156,-5.692525,-8.279166,-45.290001,4.41,22.120001,1729428243624.0,0.0
-5.017749,-4.910072,-7.252645,-70.419998,10.85,-29.889999,1729428243644.0,0.0
-5.936593,-3.945765,-6.240481,85.260002,29.4,-11.69,1729428243667.0,0.0
-5.9342,-1.550549,-11.112268,-38.290001,17.780001,-0.56,1729428243683.0,0.0
-5.166104,-5.663811,-11.523834,-76.300003,32.619999,4.06,1729428243704.0,0.0
-5.319244,-6.273981,-11.842079,-11.76,61.25,13.72,1729428243724.0,0.0
-5.56092,-7.436893,-7.609176,19.879999,78.400002,28.210001,1729428243743.0,0.0
-1.806581,-5.103891,-0.947558,66.290001,66.360001,31.57,1729428243765.0,0.0
5.175675,-10.334601,2.29711,86.940002,40.740002,16.940001,1729428243784.0,0.0
4.216154,-12.330215,2.916851,92.330002,13.16,13.79,1729428243803.0,0.0
-4.283153,-6.427122,2.533999,-30.870001,-14.21,0.91,1729428243826.0,0.0
2.785245,-8.49452,-5.132604,-85.400002,-65.519997,-15.96,1729428243844.0,0.0
-1.938186,-11.837293,-3.457629,28.559999,-77.489998,0.7,1729428243864.0,0.0
-4.295116,-6.546762,-1.72044,116.970001,-88.970001,20.93,1729428243884.0,0.0
-6.474977,-8.55434,-6.21416,-20.58,-111.370003,17.08,1729428243903.0,0.0
-9.466006,-6.618547,-15.266209,-118.300003,-85.540001,6.3,1729428243926.0,0.0
-13.765909,-5.510671,-21.523441,-101.220001,-12.11,13.3,1729428243944.0,0.0
-15.491134,-3.144169,-14.239687,37.310001,49.98,28.630001,1729428243964.0,0.0
-6.482157,-0.495314,-6.704689,112.139999,54.459999,5.95,1729428243984.0,0.0
-10.470992,-6.204589,-11.839686,-222.880005,93.940002,-32.48,1729428244003.0,0.0
-6.005985,-4.402793,-9.911072,-100.449997,124.949997,4.83,1729428244026.0,0.0
-2.467,-4.587041,-7.01097,-57.889999,126.629997,-0.42,1729428244043.0,0.0
-1.548156,-8.281559,2.337788,-71.610001,93.239998,-1.54,1729428244064.0,0.0
1.217947,-10.191031,4.383651,-163.589996,39.200001,-29.4,1729428244084.0,0.0
2.550749,-12.97867,-3.105884,-127.260002,-9.1,-40.040001,1729428244103.0,0.0
-5.733203,-7.963314,-6.04427,-105.349998,-11.69,-61.810001,1729428244124.0,0.0
0.528814,-2.096112,-8.863015,-88.129997,-32.41,-46.759998,1729428244144.0,0.0
-0.476172,-2.830709,-10.310673,-68.739998,-39.130001,-15.61,1729428244165.0,0.0
2.835495,-6.049056,-8.252845,24.639999,-51.240002,12.18,1729428244184.0,0.0
-1.26341,-4.606184,-6.343372,118.020004,-53.130001,22.190001,1729428244205.0,0.0
-8.379664,-4.888536,1.990828,114.870003,-72.519997,18.129999,1729428244225.0,0.0
-7.101898,-2.057827,-11.432907,-2.1,-108.220001,1.75,1729428244244.0,0.0
-9.298509,-5.364708,-15.397814,5.67,-81.480003,22.4,1729428244264.0,0.0
-20.269602,-7.9346,-17.156538,80.57,2.59,33.18,1729428244283.0,0.0
-9.042477,0.090927,-9.540184,76.300003,58.59,6.86,1729428244304.0,0.0
-6.972685,-1.414158,-9.980463,106.260002,43.610001,-24.219999,1729428244325.0,0.0
-6.874579,-2.383251,-11.327622,8.47,89.879997,-1.33,1729428244343.0,0.0
-3.017349,-4.448257,-10.616954,-56.560001,112.0,8.68,1729428244364.0,0.0
-0.801596,-8.080563,-2.072184,5.46,108.360001,21.35,1729428244383.0,0.0
2.194218,-8.822337,0.20339,12.32,79.449997,4.27,1729428244403.0,0.0
9.071191,-11.167303,4.311867,12.32,20.370001,-2.66,1729428244426.0,0.0
-6.089733,-10.41835,-0.806381,22.960001,-8.54,-9.17,1729428244443.0,0.0
-5.67099,-2.502892,-5.008178,-55.650002,-27.370001,-21.559999,1729428244464.0,0.0
8.520842,-5.893522,-8.757731,-77.139999,-70.279999,-19.18,1729428244483.0,0.0
-0.552742,-9.80818,-7.156933,19.18,-68.18,4.34,1729428244503.0,0.0
-6.611369,-6.151947,-2.727818,172.130005,-78.68,1.05,1729428244535.0,0.0
-10.547562,-3.081956,-7.121039,17.219999,-96.040001,0.91,1729428244544.0,0.0
-13.526627,-3.943372,-18.321842,-154.139999,-71.260002,-20.370001,1729428244564.0,0.0
-11.334801,1.395016,-20.982662,-101.220001,3.15,10.36,1729428244582.0,0.0
-1.095913,-2.476572,-0.16989,74.970001,30.73,18.83,1729428244611.0,0.0
-10.107283,-1.409373,-7.9346,-145.880005,17.85,-41.369999,1729428244627.0,0.0
-2.177469,-3.474378,-10.760524,-273.070007,18.059999,-49.279999,1729428244645.0,0.0
-2.880959,-4.548756,-9.923036,-161.770004,38.779999,-17.219999,1729428244667.0,0.0
-0.638884,-4.651647,-6.302694,-155.680008,31.219999,-11.27,1729428244683.0,0.0
-1.277767,-5.194818,-7.092326,-195.020004,15.190001,-18.969999,1729428244703.0,0.0
-0.959522,-3.318845,-10.502099,-154.559998,6.02,-20.23,1729428244727.0,0.0
-0.799203,-0.098106,-9.178867,-136.220001,4.34,-12.25,1729428244745.0,0.0
-2.608176,-2.512464,-6.9009,-51.73,-1.89,12.88,1729428244764.0,0.0
-4.919643,-1.540978,-6.24766,-16.1,-20.23,13.3,1729428244784.0,0.0
-4.532006,-1.354338,-10.157533,-71.120003,-31.92,-0.35,1729428244804.0,0.0
-3.584448,-0.748954,-11.186446,-36.259998,-30.309999,3.08,1729428244825.0,0.0
