acc_x,acc_y,acc_z,gyr_x,gyr_y,gyr_z,timestamp,label
-8.353344,-11.361122,-7.496714,7.21,17.43,-17.290001,1729417265436.0,0.0
-6.329016,-8.822337,-3.438486,44.869999,33.389999,-40.950001,1729417265436.0,0.0
-6.74776,-6.640083,-2.979064,18.83,43.610001,-47.25,1729417265436.0,0.0
-4.388437,-8.719445,-2.476572,-13.93,56.420002,-47.389999,1729417265437.0,0.0
-2.787638,-8.853443,1.892723,2.52,67.410004,-44.52,1729417265449.0,0.0
-1.251446,-7.609176,5.410172,35.139999,52.220001,-34.02,1729417265470.0,0.0
0.083749,-6.302694,7.805387,48.650002,17.710001,-14.84,1729417265490.0,0.0
-1.739582,-5.879165,4.500899,17.219999,-18.83,4.27,1729417265510.0,0.0
-3.404987,-5.448457,0.114855,-36.119999,-33.599998,24.57,1729417265530.0,0.0
-2.285146,-8.487342,-1.497907,-59.779999,-65.239998,51.170002,1729417265549.0,0.0
-6.843473,-7.613962,-2.646462,-39.200001,-68.25,56.91,1729417265573.0,0.0
-10.389636,-6.912865,-2.742175,-34.93,-67.970001,53.34,1729417265590.0,0.0
-10.320245,-10.188639,-6.738188,-63.209999,-49.560001,37.450001,1729417265610.0,0.0
-11.34198,-11.598011,-8.961121,-30.799999,-12.39,8.75,1729417265630.0,0.0
-6.180661,-11.093125,-6.427122,25.620001,22.26,-23.17,1729417265648.0,0.0
-7.829315,-9.305687,-2.237289,45.779999,47.810001,-41.790001,1729417265669.0,0.0
-7.209574,-7.695317,-2.550749,19.950001,54.32,-50.259998,1729417265690.0,0.0
-4.577469,-9.286544,-1.792224,16.940001,65.029999,-48.369999,1729417265710.0,0.0
-4.352544,-7.831708,2.486143,45.009998,69.580002,-39.759998,1729417265728.0,0.0
-4.541577,-7.405786,3.708875,43.75,56.84,-32.34,1729417265749.0,0.0
-5.694918,-7.848458,3.713661,14.7,44.099998,-31.780001,1729417265769.0,0.0
-5.871986,-9.473185,3.022135,12.67,23.870001,-33.670002,1729417265790.0,0.0
-5.443672,-9.607183,2.213361,51.380001,2.45,-33.880001,1729417265810.0,0.0
-4.113262,-8.018349,0.464208,98.209999,-21.559999,-27.370001,1729417265829.0,0.0
-4.027121,-7.850852,0.011964,104.580002,-28.77,-14.7,1729417265849.0,0.0
-5.089533,-9.980463,0.564706,64.400002,-25.41,-9.73,1729417265869.0,0.0
-4.902894,-10.24846,0.267996,50.049999,-30.52,-17.15,1729417265890.0,0.0
-4.323831,-9.769895,-0.31346,77.699997,-39.970001,-20.51,1729417265910.0,0.0
-3.151347,-8.085347,-0.363709,125.720001,-46.41,-20.23,1729417265929.0,0.0
-2.376073,-8.939585,0.26321,149.729996,-50.610001,-11.62,1729417265949.0,0.0
-2.088934,-8.717053,0.480957,155.259995,-44.869999,-6.58,1729417265970.0,0.0
-2.45025,-6.56112,0.303888,176.190002,-42.349998,10.85,1729417265994.0,0.0
-2.376073,-5.132604,0.717847,164.149994,-37.52,25.34,1729417266010.0,0.0
-2.598605,-5.850451,2.091327,121.239998,-20.93,34.439999,1729417266029.0,0.0
-3.136991,-6.63769,2.139183,97.230003,-7.91,40.25,1729417266050.0,0.0
-2.813959,-7.826923,1.725225,120.330002,7.07,47.599998,1729417266069.0,0.0
-1.696511,-9.107083,0.22014,158.270004,30.799999,65.099998,1729417266089.0,0.0
-2.981457,-11.882757,4.328616,254.240005,75.739998,83.510002,1729417266112.0,0.0
-4.721039,-4.85743,2.330609,321.299988,84.980003,92.75,1729417266132.0,0.0
-12.677175,-1.68694,26.313871,255.360001,92.68,90.440002,1729417266148.0,0.0
-6.037091,-4.943572,2.945565,14.0,5.74,89.879997,1729417266168.0,0.0
-12.507284,-6.254838,2.45025,-148.259995,49.560001,12.04,1729417266189.0,0.0
-11.315658,-8.10449,5.965307,8.05,44.450001,48.650002,1729417266211.0,0.0
-6.776474,-8.729016,5.008178,-73.290001,4.97,-58.73,1729417266229.0,0.0
-4.34058,-8.260024,3.809374,-55.510002,-4.62,-59.080002,1729417266248.0,0.0
-4.488935,-8.427521,3.481557,-37.939999,7.63,-58.66,1729417266268.0,0.0
-4.058227,-8.224132,4.393222,-23.73,16.940001,-57.540001,1729417266289.0,0.0
-4.027121,-7.439285,4.778467,-2.8,20.02,-53.549999,1729417266309.0,0.0
-4.335794,-7.259824,4.603791,16.1,24.639999,-49.279999,1729417266328.0,0.0
-4.438686,-6.223732,3.929015,34.23,29.75,-41.02,1729417266348.0,0.0
-3.862016,-5.053641,3.948158,43.959999,34.299999,-34.93,1729417266368.0,0.0
-3.443272,-5.458029,5.218746,34.16,44.450001,-26.110001,1729417266390.0,0.0
-5.285746,-6.664011,7.401,44.310001,48.299999,-13.65,1729417266409.0,0.0
-6.032306,-5.886343,7.15454,58.029999,36.82,-14.91,1729417266428.0,0.0
-5.570491,-8.571091,4.788038,65.379997,27.65,-13.440001,1729417266448.0,0.0
-6.912865,-11.272588,5.84088,106.120003,35.349998,-13.86,1729417266469.0,0.0
-10.133603,-3.943372,18.601803,153.649994,12.32,-15.68,1729417266489.0,0.0
-1.67019,-4.381258,-0.071785,26.809999,-34.580002,-38.709999,1729417266510.0,0.0
-5.261817,-1.392623,1.26341,-31.15,28.139999,-31.5,1729417266529.0,0.0
-8.592626,-7.008578,7.082755,-51.59,19.879999,-44.029999,1729417266548.0,0.0
-5.800202,-9.516255,5.879165,-84.980003,-7.63,-77.699997,1729417266568.0,0.0
-5.158926,-8.939585,5.592027,-42.490002,-13.440001,-77.910004,1729417266590.0,0.0
-5.051248,-7.51107,5.979663,-12.46,-10.78,-75.18,1729417266610.0,0.0
-4.333402,-6.774081,6.130411,-24.57,-11.9,-74.410004,1729417266628.0,0.0
-4.268795,-7.113862,5.618347,-46.619999,-10.15,-70.279999,1729417266648.0,0.0
-4.479364,-7.286145,4.957928,-53.48,-7.49,-68.389999,1729417266668.0,0.0
-4.407579,-7.166504,4.534399,-54.810001,-6.02,-67.830002,1729417266690.0,0.0
-3.921836,-7.185646,4.551149,-60.900002,-6.02,-67.620003,1729417266711.0,0.0
-3.491128,-7.568498,4.697111,-76.860001,-5.04,-64.82,1729417266729.0,0.0
-3.072384,-8.047063,4.555934,-98.07,-3.57,-62.580002,1729417266747.0,0.0
-2.859423,-8.066205,3.996014,-124.25,-1.19,-59.779999,1729417266768.0,0.0
-2.833102,-8.293523,3.156133,-146.720001,1.4,-56.77,1729417266789.0,0.0
-2.78046,-9.08794,2.208575,-160.720001,3.01,-53.900002,1729417266809.0,0.0
-2.481357,-9.934999,1.361516,-156.520004,4.62,-52.639999,1729417266828.0,0.0
-2.213361,-10.444671,0.961915,-136.639999,7.49,-50.610001,1729417266848.0,0.0
-2.146362,-10.224532,0.33021,-116.690002,11.34,-49.630001,1729417266868.0,0.0
-2.54357,-9.712467,0.066999,-92.610001,17.15,-46.200001,1729417266897.0,0.0
-2.433501,-9.542577,-0.117248,-81.690002,18.9,-44.380001,1729417266909.0,0.0
-1.9669,-9.095119,-0.12682,-77.559998,19.25,-40.880001,1729417266928.0,0.0
-2.227718,-8.709875,-0.136391,-83.93,24.360001,-35.91,1729417266949.0,0.0
-2.761317,-8.640482,-0.327817,-98.699997,29.190001,-30.870001,1729417266968.0,0.0
-2.457429,-8.566305,-0.624527,-102.760002,27.299999,-25.9,1729417266993.0,0.0
-2.225325,-8.171489,-0.715454,-93.800003,23.030001,-17.99,1729417267009.0,0.0
-2.591427,-8.087741,-0.854238,-81.410004,20.370001,-10.08,1729417267028.0,0.0
-2.940779,-7.776673,-0.844666,-68.739998,17.780001,-1.96,1729417267048.0,0.0
-3.146562,-7.692925,-1.146162,-67.830002,15.26,3.29,1729417267068.0,0.0
-3.555735,-8.109276,-1.246661,-65.800003,9.66,10.57,1729417267088.0,0.0
-3.945765,-7.520642,-1.452443,-71.050003,8.54,11.97,1729417267109.0,0.0
-4.285545,-8.001599,-1.892723,-81.340004,6.44,16.030001,1729417267128.0,0.0
-4.031906,-8.975478,-2.234896,-80.709999,2.87,15.05,1729417267148.0,0.0
-3.926622,-9.336794,-2.435893,-63.700001,1.12,12.81,1729417267168.0,0.0
-4.204189,-9.812965,-2.35693,-51.099998,3.85,8.47,1729417267189.0,0.0
-3.742374,-8.506484,-2.502892,-38.709999,3.57,0.77,1729417267209.0,0.0
-3.323631,-8.891729,-2.904887,-23.52,-2.31,-3.22,1729417267228.0,0.0
-3.273381,-9.504292,-3.127419,-10.64,-2.87,-4.2,1729417267249.0,0.0
-2.993421,-9.343972,-3.744767,-6.23,2.45,-6.72,1729417267268.0,0.0
-2.416751,-9.480364,-4.041477,-13.3,5.74,-8.54,1729417267290.0,0.0
-2.225325,-9.667004,-3.897908,-10.36,6.02,-8.47,1729417267309.0,0.0
-2.318645,-9.305687,-3.261417,-3.99,6.79,-8.96,1729417267328.0,0.0
-2.29711,-8.84148,-2.876173,-8.12,7.84,-8.4,1729417267348.0,0.0
-2.191825,-8.578269,-3.002992,-15.47,5.88,-4.2,1729417267368.0,0.0
-2.804388,-9.008978,-2.699104,-12.46,1.68,-0.49,1729417267389.0,0.0
-2.962314,-10.13839,-3.287738,13.3,-4.62,-4.83,1729417267409.0,0.0
-3.005385,-9.06162,-3.627519,28.700001,-0.14,-9.17,1729417267429.0,0.0
-2.474179,-7.927422,-3.818945,13.16,7.28,-11.76,1729417267449.0,0.0
-2.227718,-8.573483,-3.850052,-6.44,10.15,-10.15,1729417267469.0,0.0
-2.469393,-9.212367,-3.096312,-13.16,9.94,-7.7,1729417267490.0,0.0
-2.498107,-8.915657,-3.443272,-9.8,3.99,-7.49,1729417267510.0,0.0
-2.136791,-8.937192,-3.876373,-16.52,2.38,-8.26,1729417267530.0,0.0
-2.079363,-9.688539,-4.692325,-12.81,4.83,-8.05,1729417267549.0,0.0
-2.416751,-9.923036,-3.955336,-8.4,13.16,-12.6,1729417267569.0,0.0
-2.139183,-9.281759,-3.168097,2.52,14.42,-15.05,1729417267590.0,0.0
-1.849652,-8.616554,-2.823531,4.27,13.37,-17.43,1729417267626.0,0.0
-1.931008,-8.556733,-2.897708,-1.96,9.31,-12.46,1729417267631.0,0.0
-1.887937,-8.920443,-2.672783,-9.17,4.48,-8.96,1729417267649.0,0.0
-1.90708,-9.095119,-2.991028,-10.01,0.91,-7.21,1729417267669.0,0.0
-1.916651,-9.300901,-3.816552,-7.7,-1.54,-7.21,1729417267690.0,0.0
-1.988436,-9.269794,-4.005585,-4.48,-1.26,-6.65,1729417267710.0,0.0
-1.825724,-6.513263,-2.852244,-1.96,0.21,-3.43,1729417267729.0,0.0
-2.115255,-8.382057,-3.495914,-8.26,-5.53,4.69,1729417267749.0,0.0
-2.385644,-9.700503,-4.130012,-18.059999,-4.76,2.17,1729417267769.0,0.0
-1.787439,-9.667004,-3.751946,-9.24,-3.64,-3.15,1729417267790.0,0.0
-1.435694,-9.518648,-4.122833,-8.26,-1.68,-5.67,1729417267811.0,0.0
-1.562513,-9.882358,-3.981657,-16.17,3.29,-8.26,1729417267829.0,0.0
-1.411765,-8.597411,-3.555735,-1.89,1.05,-6.65,1729417267849.0,0.0
-1.89033,-8.590233,-3.275774,-3.71,0.07,-3.01,1729417267869.0,0.0
-2.050649,-8.611769,-3.838088,-22.960001,-3.08,-3.57,1729417267890.0,0.0
-2.079363,-9.41815,-4.572684,-37.73,-4.27,-5.39,1729417267911.0,0.0
-1.78026,-8.85105,-4.778467,-26.110001,-5.88,-6.37,1729417267928.0,0.0
-1.538585,-8.973085,-4.103691,-7.63,-7.98,-3.5,1729417267949.0,0.0
-1.545763,-8.779266,-4.07737,-0.42,-10.15,-1.26,1729417267969.0,0.0
-2.067399,-8.870193,-4.381258,-14.7,-6.65,-1.12,1729417267994.0,0.0
-2.309074,-9.52822,-4.826324,-25.620001,-1.96,-3.85,1729417268011.0,0.0
-2.081756,-9.265009,-4.881358,-14.35,-0.14,-5.88,1729417268029.0,0.0
-1.761117,-8.882158,-4.697111,-6.16,1.82,-3.92,1729417268048.0,0.0
-1.696511,-9.260223,-4.297509,-0.42,2.24,-0.28,1729417268068.0,0.0
-1.942972,-9.123833,-4.115655,2.66,1.47,-0.84,1729417268090.0,0.0
-1.761117,-9.202796,-4.275974,0.28,-0.7,-1.61,1729417268110.0,0.0
-1.79701,-9.547362,-4.754539,1.12,0.21,-2.03,1729417268128.0,0.0
-2.005185,-9.810574,-4.651647,5.6,6.23,-3.85,1729417268149.0,0.0
-2.897708,-10.100104,-3.74716,31.99,6.44,-5.04,1729417268168.0,0.0
-2.591427,-8.185846,-2.63689,76.650002,0.49,-9.66,1729417268190.0,0.0
-2.988636,-7.877172,-2.35693,83.370003,-5.74,-3.15,1729417268211.0,0.0
-2.656033,-8.193025,-2.62732,50.82,-8.61,-5.11,1729417268229.0,0.0
-2.553142,-8.413164,-2.900101,32.41,-10.22,-3.22,1729417268248.0,0.0
-2.411965,-8.908479,-3.010171,21.42,-10.36,-3.71,1729417268269.0,0.0
-2.665605,-9.157332,-3.046063,16.799999,-8.26,-6.72,1729417268290.0,0.0
-2.56032,-9.425328,-3.105884,16.799999,-8.68,-10.29,1729417268309.0,0.0
-2.505285,-9.147761,-3.151347,14.42,-7.63,-14.84,1729417268329.0,0.0
-2.342573,-8.886944,-3.151347,11.48,-5.81,-17.5,1729417268348.0,0.0
-1.820938,-8.898908,-2.897708,8.12,-5.25,-17.92,1729417268368.0,0.0
-1.655833,-8.939585,-2.756532,6.44,-4.41,-16.59,1729417268391.0,0.0
-1.880759,-8.882158,-2.385644,5.88,-4.55,-15.12,1729417268410.0,0.0
-1.919044,-8.985049,-2.481357,-6.65,-5.53,-16.1,1729417268429.0,0.0
-1.119841,-8.930015,-3.139383,-17.219999,-9.8,-15.33,1729417268448.0,0.0
-0.614955,-8.896514,-3.400201,-18.83,-10.78,-10.71,1729417268469.0,0.0
-0.806381,-9.095119,-3.35713,-21.49,-6.72,-7.28,1729417268489.0,0.0
-1.713261,-9.174082,-3.378666,-17.710001,-4.27,-5.11,1729417268510.0,0.0
-2.208575,-8.843873,-3.629912,-4.34,-0.63,-5.04,1729417268528.0,0.0
-2.024328,-8.595018,-4.187439,0.28,0.14,-4.06,1729417268548.0,0.0
-1.995614,-8.336594,-3.897908,-0.98,2.73,-0.98,1729417268569.0,0.0
-2.411965,-8.525627,-3.273381,-12.74,6.51,-0.56,1729417268589.0,0.0
-2.457429,-8.52802,-3.342773,-22.190001,6.09,-2.52,1729417268619.0,0.0
-2.706282,-8.41795,-3.002992,-17.92,7.56,-3.43,1729417268630.0,0.0
-2.201397,-8.702696,-3.821337,-12.18,3.85,-3.85,1729417268648.0,0.0
-1.904687,-8.724231,-4.443472,-9.8,2.52,-3.08,1729417268668.0,0.0
-2.304288,-8.025528,-3.735196,-8.47,5.32,0.42,1729417268690.0,0.0
-2.876173,-8.271988,-3.302095,-15.05,7.91,3.92,1729417268710.0,0.0
-3.084348,-9.066404,-3.364309,-12.32,10.64,4.62,1729417268728.0,0.0
-1.840081,-9.023334,-3.885944,6.44,1.4,5.74,1729417268748.0,0.0
-1.651048,-7.444071,-2.995814,15.33,-2.87,8.26,1729417268768.0,0.0
-2.18704,-6.690332,-2.0004,-1.68,-7.63,14.63,1729417268789.0,0.0
-2.79721,-8.846266,-1.600798,-30.799999,-14.7,17.15,1729417268809.0,0.0
-2.29711,-9.243474,-2.165504,-44.029999,-23.66,12.32,1729417268828.0,0.0
-1.004985,-8.52802,-3.306881,-45.290001,-34.16,16.52,1729417268848.0,0.0
-1.244268,-9.233903,-2.852244,-51.73,-41.790001,20.65,1729417268868.0,0.0
-2.191825,-10.250853,-3.381058,-53.41,-42.700001,17.290001,1729417268889.0,0.0
-1.902294,-9.894321,-2.957529,-37.170002,-46.759998,12.6,1729417268910.0,0.0
-1.040878,-8.941978,-3.658626,-34.02,-55.580002,7.77,1729417268937.0,0.0
-1.770689,-8.312666,-3.866802,-61.110001,-54.18,7.98,1729417268949.0,0.0
-2.490928,-8.855836,-3.720839,-82.25,-50.330002,8.26,1729417268969.0,0.0
-1.194018,-8.903693,-5.493921,-56.98,-54.670002,6.72,1729417268993.0,0.0
-0.378066,-8.441878,-5.302495,-38.709999,-51.380001,12.32,1729417269010.0,0.0
-1.414158,-7.707282,-2.306681,-46.619999,-50.75,20.02,1729417269029.0,0.0
-2.005185,-9.265009,-2.907279,-74.199997,-61.18,21.35,1729417269049.0,0.0
-0.993021,-9.35833,-3.938586,-84.139999,-75.809998,17.219999,1729417269068.0,0.0
-0.562313,-7.99442,-4.546363,-100.379997,-84.209999,16.24,1729417269088.0,0.0
-1.636691,-8.178668,-5.465207,-105.699997,-87.360001,17.219999,1729417269109.0,0.0
-2.215754,-7.781459,-6.872187,-77.279999,-87.639999,17.780001,1729417269129.0,0.0
-3.347559,-7.255038,-8.126025,-40.459999,-85.470001,21.0,1729417269148.0,0.0
-5.364708,-5.175675,-9.004191,-50.400002,-77.629997,19.460001,1729417269169.0,0.0
-6.982256,-6.312266,-12.229716,-100.660004,-43.889999,12.81,1729417269189.0,0.0
-4.890929,-8.178668,-11.487941,-68.040001,-21.98,4.34,1729417269210.0,0.0
-4.931608,-6.62094,-8.769694,-22.540001,-12.39,-0.42,1729417269229.0,0.0
-6.431907,-4.878965,-8.46102,-31.219999,4.34,3.01,1729417269248.0,0.0
-6.819544,-6.463014,-8.740981,-30.1,24.92,10.57,1729417269268.0,0.0
-6.783652,-6.4343,-8.193025,4.2,35.420002,11.41,1729417269289.0,0.0
-5.778666,-7.898707,-7.652246,8.68,48.23,7.07,1729417269311.0,0.0
-4.752146,-8.946764,-5.737988,10.5,49.98,-3.92,1729417269328.0,0.0
-2.801995,-9.458827,-4.204189,14.7,41.650002,-15.47,1729417269348.0,0.0
-1.4668,-9.123833,-3.663411,10.57,27.790001,-18.41,1729417269368.0,0.0
-1.160519,-9.193225,-3.847659,15.47,15.26,-21.0,1729417269389.0,0.0
-1.100698,-7.573284,-3.991228,31.92,4.41,-18.83,1729417269412.0,0.0
-1.978864,-5.443672,-4.673182,45.990002,-7.49,-10.71,1729417269428.0,0.0
-2.222932,-5.12782,-6.082555,43.119999,-17.639999,0.35,1729417269448.0,0.0
-1.770689,-5.285746,-7.771888,14.35,-25.969999,1.26,1729417269469.0,0.0
-2.148755,-5.233103,-8.001599,-16.030001,-29.049999,-0.14,1729417269489.0,0.0
-4.761717,-3.419343,-3.184847,-44.939999,-30.17,0.77,1729417269519.0,0.0
-6.766902,-5.352744,-6.04427,-54.18,-46.759998,19.6,1729417269528.0,0.0
-8.678767,-4.555934,-8.032705,-41.02,-40.459999,24.710001,1729417269548.0,0.0
-8.690732,-7.645068,-9.348758,-67.199997,-6.51,28.07,1729417269568.0,0.0
-5.663811,-10.004392,-9.446864,-44.380001,14.7,20.440001,1729417269590.0,0.0
-5.568098,-5.79063,-8.982656,19.6,20.860001,8.26,1729417269609.0,0.0
-6.573084,-5.407779,-6.948757,49.91,36.82,17.639999,1729417269629.0,0.0
-6.314659,-6.070591,-7.312466,53.130001,45.009998,24.43,1729417269653.0,0.0
-5.742774,-6.592227,-7.348359,49.0,52.779999,23.73,1729417269667.0,0.0
-5.307281,-7.881958,-5.56092,50.540001,59.639999,18.200001,1729417269689.0,0.0
-3.60359,-9.329616,-3.26381,55.93,59.849998,8.75,1729417269709.0,0.0
-1.868794,-9.293723,-2.959922,71.260002,43.119999,-0.7,1729417269728.0,0.0
-1.371087,-7.822137,-2.545963,74.480003,23.799999,-5.18,1729417269748.0,0.0
-1.655833,-6.553941,-3.084348,56.349998,6.44,-3.22,1729417269768.0,0.0
-2.105684,-5.9677,-4.421937,38.220001,-8.75,1.61,1729417269790.0,0.0
-1.811367,-6.391229,-5.632704,24.360001,-21.629999,5.39,1729417269809.0,0.0
-2.038685,-6.589834,-6.412765,3.85,-31.85,2.17,1729417269828.0,0.0
-5.371887,-3.419343,-4.788038,-34.02,-37.73,2.17,1729417269848.0,0.0
-6.293124,-6.826723,-7.32443,-64.610001,-43.610001,10.5,1729417269868.0,0.0
-7.800602,-5.74756,-7.460821,-23.379999,-39.900002,13.65,1729417269889.0,0.0
-8.331808,-5.659025,-8.362915,-30.380001,-20.719999,15.33,1729417269908.0,0.0
-7.532606,-8.638089,-8.740981,-49.279999,7.14,14.56,1729417269927.0,0.0
-6.798009,-7.817351,-8.109276,-4.48,18.059999,2.45,1729417269948.0,0.0
-6.034698,-6.76451,-7.326823,29.75,25.83,0.42,1729417269968.0,0.0
-5.687739,-7.164111,-6.474977,33.459999,35.84,5.04,1729417269991.0,0.0
-5.12782,-8.597411,-5.417351,34.720001,42.209999,6.51,1729417270009.0,0.0
-4.838287,-9.372685,-4.309474,45.779999,42.490002,-1.89,1729417270027.0,0.0
-4.228118,-9.466006,-3.524628,64.68,33.880001,-16.59,1729417270048.0,0.0
-2.921637,-9.458827,-2.847459,65.029999,21.91,-28.630001,1729417270068.0,0.0
-2.383251,-8.9348,-3.084348,39.48,12.74,-35.98,1729417270088.0,0.0
-2.167897,-8.65484,-3.242275,32.34,1.54,-40.810001,1729417270109.0,0.0
-1.801795,-5.855237,-3.634698,41.580002,-13.02,-38.5,1729417270128.0,0.0
-1.61037,-5.680561,-4.424329,27.23,-21.91,-28.139999,1729417270150.0,0.0
-1.765903,-4.778467,-4.445865,15.33,-33.25,-28.35,1729417270167.0,0.0
-2.048256,-2.545963,-6.156733,8.26,-46.689999,-15.4,1729417270188.0,0.0
-5.130211,-2.837888,-5.426922,-44.52,-46.27,8.12,1729417270208.0,0.0
-6.848258,-5.383851,-6.111269,-65.449997,-45.990002,20.370001,1729417270230.0,0.0
-7.070791,-7.034898,-7.142576,-65.099998,-38.150002,26.110001,1729417270249.0,0.0
-7.197611,-5.685347,-8.317451,-30.59,-23.17,28.07,1729417270268.0,0.0
-6.915257,-6.479764,-9.614362,-30.17,3.01,34.650002,1729417270288.0,0.0
-7.209574,-7.501499,-8.987441,-4.27,25.969999,38.43,1729417270309.0,0.0
-7.518249,-7.118648,-5.941379,28.0,37.869999,31.01,1729417270327.0,0.0
-5.996413,-8.535198,-5.398208,13.86,43.959999,19.25,1729417270347.0,0.0
-4.689932,-10.004392,-5.003392,6.51,46.060001,9.24,1729417270368.0,0.0
-4.402793,-10.554741,-3.488736,14.98,44.450001,1.75,1729417270436.0,0.0
-3.797409,-11.437693,-3.127419,25.9,39.48,-8.61,1729417270436.0,0.0
-3.160919,-10.533205,-2.301895,39.830002,26.18,-23.450001,1729417270437.0,0.0
-2.770889,-9.054441,-2.514857,46.830002,9.59,-33.810001,1729417270455.0,0.0
-2.837888,-8.590233,-2.988636,31.43,-0.14,-37.52,1729417270468.0,0.0
-2.09372,-6.503692,-3.845266,15.82,-11.27,-41.299999,1729417270488.0,0.0
-1.954936,-5.769095,-4.125226,6.44,-19.040001,-33.110001,1729417270509.0,0.0
-2.361716,-3.364309,-5.65424,-4.55,-28.280001,-30.940001,1729417270527.0,0.0
-4.608576,-2.378466,-6.398407,-13.02,-41.16,-8.26,1729417270548.0,0.0
-6.982256,-3.091527,-5.575277,-23.940001,-40.880001,12.11,1729417270568.0,0.0
-6.982256,-6.070591,-6.417551,-40.389999,-33.110001,21.139999,1729417270588.0,0.0
-6.257231,-6.242875,-7.566105,-37.240002,-23.17,24.43,1729417270608.0,0.0
-5.893522,-6.757331,-8.037491,-44.73,-5.46,27.16,1729417270638.0,0.0
-5.819345,-7.800602,-8.927622,-33.740002,10.71,32.970001,1729417270649.0,0.0
-6.405586,-9.207582,-7.523034,-7.42,21.35,26.530001,1729417270668.0,0.0
-5.788238,-9.817751,-6.089733,-0.42,29.26,14.84,1729417270688.0,0.0
-4.756931,-9.75793,-5.35753,7.91,28.77,0.14,1729417270708.0,0.0
-4.223332,-9.992428,-4.096512,20.370001,29.960001,-8.47,1729417270729.0,0.0
-4.005585,-10.210175,-3.902694,34.509998,29.049999,-15.89,1729417270747.0,0.0
-3.426522,-9.568897,-3.103491,47.810001,25.83,-25.129999,1729417270768.0,0.0
-2.770889,-8.52802,-2.813959,50.75,15.75,-32.549999,1729417270789.0,0.0
-2.366502,-7.006185,-2.859423,41.790001,4.27,-33.670002,1729417270808.0,0.0
-2.249253,-5.15414,-3.065206,32.689999,-7.98,-26.110001,1729417270827.0,0.0
-2.120041,-5.74756,-3.601198,29.469999,-23.870001,-16.940001,1729417270849.0,0.0
-2.39043,-2.837888,-5.079963,-6.3,-37.310001,-7.91,1729417270868.0,0.0
-4.237689,-3.778267,-5.726025,-46.41,-40.25,7.49,1729417270889.0,0.0
-6.575477,-4.761717,-5.706882,-48.509998,-42.77,21.559999,1729417270911.0,0.0
-6.302694,-5.795416,-6.441479,-37.099998,-40.25,28.98,1729417270927.0,0.0
-7.276574,-4.910072,-7.539784,-28.35,-29.190001,35.0,1729417270947.0,0.0
-6.369694,-5.948557,-9.41815,-67.199997,-5.53,37.450001,1729417270968.0,0.0
-7.269395,-9.250652,-8.908479,-62.720001,16.870001,37.73,1729417270991.0,0.0
-6.484549,-9.272188,-8.063812,-28.49,23.73,26.32,1729417271009.0,0.0
-5.498707,-9.611969,-7.250252,-3.64,33.32,15.75,1729417271028.0,0.0
-4.938786,-9.52822,-5.084748,12.32,41.650002,6.86,1729417271047.0,0.0
-4.862216,-9.226725,-3.345166,20.790001,42.139999,-3.29,1729417271067.0,0.0
-4.371687,-10.267602,-3.48395,28.35,34.790001,-17.360001,1729417271088.0,0.0
-3.393023,-9.073583,-2.811567,33.810001,27.93,-26.040001,1729417271282.0,0.0
-2.900101,-8.755339,-2.837888,33.459999,17.780001,-28.630001,1729417271283.0,0.0
-3.129812,-7.295716,-2.59382,28.42,7.56,-28.91,1729417271283.0,0.0
-3.199204,-7.257431,-3.34038,24.780001,-4.62,-25.129999,1729417271283.0,0.0
-2.467,-3.862016,-4.445865,24.43,-20.23,-26.809999,1729417271283.0,0.0
-2.821138,-5.536992,-4.862216,2.45,-33.18,-9.31,1729417271284.0,0.0
-3.771089,-4.007978,-5.307281,-20.860001,-37.310001,-3.22,1729417271284.0,0.0
-4.244867,-4.800002,-6.56112,-37.73,-39.619999,7.28,1729417271284.0,0.0
-5.290531,-5.910272,-7.353144,-38.220001,-35.07,13.09,1729417271285.0,0.0
-7.609176,-6.094519,-6.080163,-13.72,-29.120001,20.02,1729417271287.0,0.0
-7.65464,-6.549156,-8.094919,-21.559999,-15.75,18.129999,1729417271307.0,0.0
-6.733403,-9.140583,-8.796017,-39.549999,11.76,15.47,1729417271327.0,0.0
-5.936593,-9.035298,-8.379664,2.24,24.85,6.86,1729417271346.0,0.0
-5.826523,-7.762317,-7.688138,40.25,32.759998,4.55,1729417271366.0,0.0
-5.860023,-8.262416,-6.759724,36.75,46.619999,5.39,1729417271387.0,0.0
-5.175675,-9.509077,-4.800002,39.34,53.970001,0.77,1729417271406.0,0.0
-4.130012,-9.487542,-2.548356,55.580002,53.689999,-9.87,1729417271426.0,0.0
-3.010171,-9.178867,-1.026521,66.010002,45.920002,-17.360001,1729417271446.0,0.0
-2.323431,-8.310273,-1.335195,46.41,30.73,-21.629999,1729417271466.0,0.0
-2.488536,-8.037491,-2.112862,34.23,13.79,-24.360001,1729417271487.0,0.0
-2.514857,-5.793024,-3.60359,33.32,-2.31,-20.860001,1729417271507.0,0.0
-1.758725,-6.226124,-5.134997,36.189999,-15.26,-11.34,1729417271526.0,0.0
-2.392823,-5.343173,-4.876573,-2.66,-33.880001,-11.41,1729417271545.0,0.0
-3.68734,-2.725425,-3.826123,-48.650002,-42.630001,-4.34,1729417271566.0,0.0
-5.556134,-5.568098,-6.159126,-71.610001,-49.700001,7.28,1729417271586.0,0.0
-6.355337,-6.072984,-6.197411,-43.259998,-47.950001,14.42,1729417271607.0,0.0
-7.60439,-5.06082,-7.030113,-26.25,-35.420002,21.700001,1729417271627.0,0.0
-7.281359,-6.455836,-8.575876,-58.170002,-7.21,26.460001,1729417271646.0,0.0
-7.101898,-9.174082,-8.516055,-52.849998,16.450001,25.48,1729417271666.0,0.0
-6.084948,-7.56132,-8.566305,-5.32,21.77,19.6,1729417271687.0,0.0
-5.101498,-8.13799,-7.661818,10.57,34.790001,21.210001,1729417271706.0,0.0
-4.878965,-9.635897,-5.206782,10.01,48.23,19.32,1729417271727.0,0.0
-4.831109,-10.179067,-3.65384,20.23,45.290001,6.58,1729417271747.0,0.0
-3.622734,-10.298709,-2.660819,30.380001,36.119999,-10.01,1729417271767.0,0.0
-2.823531,-9.583255,-1.648655,34.02,26.880001,-18.620001,1729417271787.0,0.0
-2.581856,-9.257831,-1.837688,26.809999,12.39,-22.469999,1729417271807.0,0.0
-2.87378,-8.059027,-2.397608,16.24,-1.47,-24.780001,1729417271827.0,0.0
-3.069991,-8.224132,-3.09392,5.18,-14.21,-24.92,1729417271846.0,0.0
-3.046063,-5.295317,-3.316452,7.98,-31.15,-29.540001,1729417271867.0,0.0
-3.582055,-3.897908,-4.118048,-4.48,-48.860001,-17.639999,1729417271891.0,0.0
-4.457829,-4.108476,-5.642276,-24.5,-51.099998,-3.01,1729417271910.0,0.0
-5.343173,-5.218746,-7.142576,-34.580002,-50.330002,6.3,1729417271927.0,0.0
-6.26441,-5.704489,-7.73121,-19.6,-47.110001,10.36,1729417271947.0,0.0
-7.63789,-4.572684,-7.587641,-6.3,-35.91,15.33,1729417271966.0,0.0
-6.623333,-6.833901,-9.133404,-38.43,-8.82,18.83,1729417271992.0,0.0
-6.436693,-7.82453,-9.06162,-34.09,17.15,17.99,1729417272008.0,0.0
-6.087341,-6.855437,-7.52782,9.66,26.32,16.030001,1729417272026.0,0.0
-5.067998,-7.465607,-6.817152,21.84,34.790001,16.799999,1729417272047.0,0.0
-4.867002,-8.860621,-5.402994,6.02,46.41,17.08,1729417272066.0,0.0
-4.780859,-9.942179,-3.242275,0.7,47.389999,8.05,1729417272086.0,0.0
-4.266403,-10.942378,-3.488736,15.61,37.099998,-7.63,1729417272108.0,0.0
-3.486342,-10.033106,-2.682354,28.07,28.42,-20.51,1729417272127.0,0.0
-2.931208,-10.023535,-2.100898,26.040001,20.790001,-28.630001,1729417272146.0,0.0
-2.732604,-8.298308,-2.275574,27.09,7.56,-32.619999,1729417272168.0,0.0
-3.160919,-7.45125,-2.792424,21.0,-4.27,-28.91,1729417272188.0,0.0
-2.799603,-5.572884,-3.443272,17.08,-17.710001,-26.67,1729417272207.0,0.0
-2.866602,-5.249853,-4.601398,17.5,-35.630001,-14.28,1729417272227.0,0.0
-4.252046,-3.893122,-5.106283,-9.52,-38.009998,-7.56,1729417272246.0,0.0
-4.907679,-4.074977,-6.362515,-36.400002,-38.009998,6.23,1729417272266.0,0.0
-5.438886,-5.15414,-7.322037,-47.810001,-32.060001,13.3,1729417272287.0,0.0
-6.238089,-5.548956,-6.678369,-27.16,-27.16,19.74,1729417272314.0,0.0
-7.874779,-5.577669,-6.431907,-19.74,-20.02,19.950001,1729417272326.0,0.0
-6.599405,-6.63769,-8.551948,-44.66,-2.66,19.809999,1729417272346.0,0.0
-6.317052,-8.54477,-8.271988,-39.619999,17.5,18.9,1729417272366.0,0.0
-5.541777,-7.941778,-7.616355,-4.83,25.129999,17.08,1729417272387.0,0.0
-5.070391,-8.135597,-6.860222,13.65,34.16,18.620001,1729417272413.0,0.0
-5.168497,-8.592626,-5.663811,22.68,42.209999,17.290001,1729417272428.0,0.0
-4.740182,-9.023334,-4.201797,30.870001,44.869999,10.43,1729417272446.0,0.0
-4.445865,-10.179067,-3.424129,43.259998,40.529999,-2.1,1729417272466.0,0.0
-3.196811,-9.944571,-2.179861,42.139999,34.09,-14.63,1729417272487.0,0.0
-2.648855,-9.190832,-2.175076,20.860001,22.469999,-23.870001,1729417272507.0,0.0
-2.665605,-9.267403,-2.888137,16.379999,7.63,-29.68,1729417272527.0,0.0
-2.926422,-6.54437,-3.371487,27.719999,-10.01,-24.5,1729417272546.0,0.0
-3.249453,-6.522834,-3.716053,12.88,-17.360001,-20.65,1729417272566.0,0.0
-2.935993,-4.118048,-4.113262,-1.89,-29.82,-19.18,1729417272590.0,0.0
-3.354738,-4.814359,-5.759524,-22.26,-36.75,-4.9,1729417272607.0,0.0
-4.843073,-3.318845,-5.194818,-38.57,-38.360001,1.75,1729417272627.0,0.0
-5.572884,-3.900301,-6.76451,-46.619999,-40.740002,19.040001,1729417272647.0,0.0
-6.666404,-6.4343,-6.180661,-44.240002,-29.610001,26.25,1729417272666.0,0.0
-7.384251,-5.134997,-7.343572,-25.690001,-23.73,26.110001,1729417272687.0,0.0
-6.692725,-8.30788,-8.633304,-53.34,-1.54,25.83,1729417272708.0,0.0
-6.206983,-9.171689,-8.023134,-40.670002,17.290001,21.139999,1729417272726.0,0.0
-5.290531,-9.24108,-7.45125,-3.92,20.370001,16.799999,1729417272746.0,0.0
-4.85743,-10.164711,-6.190232,20.719999,27.65,10.85,1729417272766.0,0.0
-4.644469,-9.946963,-4.204189,41.299999,30.17,1.82,1729417272787.0,0.0
-4.189832,-10.396815,-3.976871,59.43,29.82,-14.0,1729417272807.0,0.0
-4.019942,-9.554541,-2.751746,52.360001,28.42,-27.65,1729417272827.0,0.0
-3.304488,-9.075976,-2.720639,36.470001,18.549999,-38.779999,1729417272846.0,0.0
-3.189633,-8.025528,-3.565305,24.92,6.37,-44.029999,1729417272866.0,0.0
-2.581856,-5.257031,-3.232704,11.41,-11.62,-39.549999,1729417272887.0,0.0
-2.419144,-4.448257,-3.797409,6.72,-25.76,-27.719999,1729417272907.0,0.0
-2.78046,-2.907279,-4.534399,-10.71,-39.970001,-17.85,1729417272927.0,0.0
-4.12044,-3.182454,-5.534599,-29.049999,-46.200001,2.8,1729417272948.0,0.0
-5.982057,-4.934,-5.45085,-47.110001,-40.389999,20.51,1729417272967.0,0.0
-6.218946,-5.233103,-5.922236,-29.610001,-36.189999,32.060001,1729417272991.0,0.0
-7.465607,-6.178268,-7.099504,-7.28,-27.860001,41.860001,1729417273009.0,0.0
-6.943972,-7.15454,-8.886944,-21.559999,-10.36,39.900002,1729417273026.0,0.0
-6.348158,-8.116454,-10.557133,-31.57,10.08,35.139999,1729417273046.0,0.0
-6.616155,-8.609376,-9.968499,1.26,31.57,28.91,1729417273066.0,0.0
-6.977471,-9.001799,-7.869993,29.68,51.380001,22.540001,1729417273088.0,0.0
-6.443871,-8.585447,-6.104091,58.59,65.029999,17.01,1729417273107.0,0.0
-4.922036,-8.949157,-3.249453,74.830002,76.440002,11.76,1729417273126.0,0.0
-4.189832,-8.65484,1.036092,75.669998,72.169998,-0.42,1729417273147.0,0.0
-2.572284,-9.351151,0.787239,39.619999,48.790001,-9.31,1729417273165.0,0.0
-2.254039,-11.129018,-0.887737,34.09,18.9,-19.879999,1729417273186.0,0.0
-1.847259,-5.737988,-0.827917,57.400002,-10.08,-24.639999,1729417273217.0,0.0
-2.201397,-4.914857,-3.306881,0.77,-36.68,-7.14,1729417273226.0,0.0
-2.715853,-6.970293,-4.65404,-26.460001,-43.470001,3.15,1729417273245.0,0.0
-4.082155,-3.479164,-4.833502,-32.619999,-53.549999,6.58,1729417273266.0,0.0
-5.996413,-2.775674,-4.776074,-36.959999,-65.519997,27.860001,1729417273286.0,0.0
-7.846066,-3.847659,-7.099504,-64.82,-60.41,43.959999,1729417273310.0,0.0
-8.784052,-5.65424,-7.283752,-68.599998,-33.740002,54.389999,1729417273325.0,0.0
-10.521241,-5.230711,-9.068797,-50.049999,-8.47,52.920002,1729417273346.0,0.0
-9.643075,-9.722038,-9.657433,-49.420002,28.700001,46.689999,1729417273367.0,0.0
-7.030113,-9.499505,-7.389036,-0.91,36.259998,21.280001,1729417273388.0,0.0
-4.74736,-9.320045,-6.98465,3.5,36.330002,1.47,1729417273407.0,0.0
-4.752146,-10.875379,-5.749953,21.629999,37.029999,-23.73,1729417273426.0,0.0
-3.354738,-10.844273,-3.28056,45.220001,39.060001,-16.17,1729417273447.0,0.0
-3.943372,-9.934999,-1.619941,39.619999,33.389999,-27.860001,1729417273467.0,0.0
-3.215954,-9.006584,-0.535992,19.389999,20.23,-37.66,1729417273488.0,0.0
-2.383251,-8.973085,-2.758924,5.18,3.29,-38.5,1729417273507.0,0.0
-2.617748,-6.465407,-3.469593,26.32,-9.31,-37.869999,1729417273525.0,0.0
-3.708875,-5.745167,-3.783052,37.52,-18.48,-23.450001,1729417273547.0,0.0
-3.586841,-3.89073,-5.47717,-8.33,-28.91,-14.49,1729417273566.0,0.0
-3.924229,-5.312066,-5.261817,-37.66,-31.08,-4.2,1729417273587.0,0.0
-5.948557,-4.146761,-5.407779,-46.130001,-37.66,-3.22,1729417273608.0,0.0
-7.235896,-6.357729,-7.240681,-43.610001,-35.420002,4.55,1729417273626.0,0.0
-7.9011,-6.723832,-6.518049,-24.85,-20.860001,4.9,1729417273646.0,0.0
-7.767102,-6.893722,-7.298109,-12.18,-6.23,1.26,1729417273666.0,0.0
-6.716653,-8.997013,-7.932207,-24.219999,17.57,-2.59,1729417273686.0,0.0
-5.60399,-8.039884,-8.070991,3.85,29.540001,-7.42,1729417273708.0,0.0
-5.391029,-7.707282,-7.60439,33.950001,38.080002,-6.37,1729417273726.0,0.0
-5.307281,-8.228917,-5.795416,42.77,50.259998,-7.14,1729417273747.0,0.0
-4.400401,-9.159724,-3.976871,47.18,53.970001,-12.88,1729417273765.0,0.0
-3.426522,-9.152546,-2.445465,61.25,46.549999,-20.790001,1729417273787.0,0.0
-2.656033,-8.288737,-1.098306,51.939999,34.580002,-25.620001,1729417273807.0,0.0
-2.713461,-9.243474,-1.473979,37.029999,17.780001,-25.83,1729417273825.0,0.0
-3.275774,-7.566105,-1.31366,54.670002,-3.99,-28.84,1729417273847.0,0.0
-3.053242,-6.068198,-2.227718,55.650002,-24.219999,-23.24,1729417273866.0,0.0
-2.715853,-4.048656,-3.550949,28.0,-35.91,-15.61,1729417273886.0,0.0
-3.54377,-6.163911,-4.089334,-32.549999,-47.18,2.1,1729417273907.0,0.0
-4.957928,-4.034299,-3.9673,-54.040001,-56.279999,7.07,1729417273926.0,0.0
-5.771489,-5.541777,-5.699703,-74.199997,-58.939999,17.01,1729417273947.0,0.0
-6.362515,-6.565905,-6.613762,-53.41,-55.650002,22.120001,1729417273967.0,0.0
-8.063812,-6.513263,-6.809973,-31.5,-45.920002,24.360001,1729417273991.0,0.0
-8.006385,-8.831908,-8.803195,-51.170002,-18.969999,18.76,1729417274007.0,0.0
-7.042077,-9.633504,-8.468199,-37.099998,11.2,3.57,1729417274026.0,0.0
-5.520242,-7.290931,-8.422735,6.79,22.68,-4.2,1729417274047.0,0.0
-5.185246,-7.216753,-7.740781,15.68,40.040001,-0.07,1729417274066.0,0.0
-5.108676,-8.317451,-6.032306,13.86,58.099998,4.34,1729417274086.0,0.0
-4.149154,-9.233903,-4.015156,24.780001,63.139999,1.47,1729417274110.0,0.0
-3.507878,-9.767502,-2.335395,42.560001,55.860001,-9.45,1729417274125.0,0.0
-2.574677,-9.037691,-1.052842,48.860001,41.09,-16.52,1729417274147.0,0.0
-2.309074,-9.092726,-0.476172,32.619999,24.710001,-20.02,1729417274166.0,0.0
-2.376073,-9.092726,-0.684347,24.710001,5.95,-21.559999,1729417274186.0,0.0
-3.122634,-7.467999,-1.842474,35.91,-13.86,-20.51,1729417274207.0,0.0
-3.821337,-5.883951,-3.716053,18.27,-30.17,-10.29,1729417274226.0,0.0
-3.505485,-7.410572,-4.644469,-22.469999,-33.459999,-3.99,1729417274247.0,0.0
-4.065405,-6.723832,-2.861816,-58.310001,-33.389999,-6.58,1729417274265.0,0.0
-5.12782,-5.716454,-3.002992,-77.349998,-45.709999,-0.84,1729417274286.0,0.0
-5.218746,-7.276574,-6.01077,-48.93,-56.420002,-2.31,1729417274307.0,0.0
-5.510671,-6.525227,-6.494121,-4.83,-55.02,0.91,1729417274326.0,0.0
-6.017949,-6.262017,-6.709475,-0.84,-43.400002,4.97,1729417274345.0,0.0
-6.69751,-6.975078,-7.192825,-16.799999,-22.469999,10.5,1729417274365.0,0.0
-6.295516,-7.9011,-7.4345,10.43,-5.67,10.99,1729417274386.0,0.0
-5.187639,-8.090133,-7.003791,42.77,6.09,11.62,1729417274408.0,0.0
-5.115855,-7.542177,-6.537192,52.709999,16.73,10.5,1729417274426.0,0.0
-5.800202,-7.688138,-4.878965,65.449997,25.9,10.01,1729417274445.0,0.0
-6.4678,-6.530013,-4.62054,76.230003,32.549999,10.22,1729417274466.0,0.0
-5.970093,-7.429714,-4.529613,88.410004,41.09,12.46,1729417274486.0,0.0
-5.644669,-8.020741,-3.720839,88.269997,51.73,13.86,1729417274507.0,0.0
-5.553742,-9.662218,-1.909473,77.559998,57.75,10.22,1729417274525.0,0.0
-4.864608,-10.392029,-1.177269,75.949997,50.119999,-0.42,1729417274545.0,0.0
-4.074977,-11.210374,0.057428,98.139999,25.129999,-18.9,1729417274565.0,0.0
-3.816552,-10.655239,0.799203,117.040001,8.12,-29.610001,1729417274586.0,0.0
-3.582055,-9.54497,0.981057,135.309998,-4.34,-31.219999,1729417274606.0,0.0
-3.314059,-8.580662,-0.485743,146.860001,-11.48,-23.379999,1729417274626.0,0.0
-2.830709,-7.245467,-0.624527,157.080002,-17.01,-7.49,1729417274645.0,0.0
-3.558127,-9.075976,0.241675,175.910004,-26.18,8.96,1729417274666.0,0.0
-3.940979,-9.707682,0.437887,204.680008,-34.02,12.53,1729417274686.0,0.0
-4.541577,-8.446664,0.674776,229.809998,-45.220001,15.12,1729417274708.0,0.0
-5.161318,-7.628319,0.61017,206.220001,-42.209999,14.35,1729417274725.0,0.0
-6.331409,-8.489735,2.428715,184.660004,-36.119999,14.14,1729417274745.0,0.0
-5.95095,-8.149954,2.344966,172.690002,-41.650002,10.64,1729417274765.0,0.0
-5.455636,-8.310273,2.088934,198.940002,-47.040001,11.27,1729417274787.0,0.0
-4.886144,-6.886543,1.789831,223.930008,-41.369999,14.98,1729417274810.0,0.0
-4.472186,-7.058826,1.87358,220.710007,-30.1,24.43,1729417274825.0,0.0
-4.773681,-8.712267,2.756532,213.080002,-20.58,20.440001,1729417274846.0,0.0
-5.666204,-10.389636,2.926422,228.970001,-15.61,14.56,1729417274867.0,0.0
-4.070191,-11.499906,2.038685,249.270004,-11.27,-0.21,1729417274887.0,0.0
-4.979464,-9.420543,3.809374,260.049988,13.440001,-27.65,1729417274907.0,0.0
-5.711668,-7.243074,6.463014,217.979996,19.530001,-55.439999,1729417274925.0,0.0
-5.565705,-8.317451,5.52742,216.580002,8.12,-68.599998,1729417274945.0,0.0
-4.790431,-5.460421,6.886543,264.73999,1.68,-78.82,1729417274966.0,0.0
-5.163712,0.078963,9.925428,269.429993,-2.94,-87.290001,1729417274989.0,0.0
-5.187639,7.276574,9.96132,236.389999,-19.18,-71.400002,1729417275006.0,0.0
-5.773881,4.625326,8.066205,183.259995,-29.889999,-19.25,1729417275025.0,0.0
-3.158526,2.045863,6.446264,39.27,-19.32,-26.67,1729417275053.0,0.0
-4.173083,1.404587,6.9009,-53.900002,-4.13,-10.64,1729417275257.0,0.0
-3.943372,-1.301696,7.046863,-114.800003,3.29,5.74,1729417275284.0,0.0
-4.17069,-2.313859,7.956135,-166.389999,9.45,18.34,1729417275288.0,0.0
-4.74736,-1.940579,8.116454,-253.330002,11.97,15.05,1729417275290.0,0.0
-3.67059,-1.658226,7.144968,-355.529999,15.96,14.28,1729417275292.0,0.0
-2.701497,-1.071985,5.893522,-471.450012,18.83,26.6,1729417275292.0,0.0
-3.550949,-1.842474,4.460221,-602.559998,19.18,32.619999,1729417275293.0,0.0
-5.534599,-6.999006,-0.150748,-697.27002,20.02,34.509998,1729417275294.0,0.0
-4.555934,-10.738988,-4.369294,-677.460022,13.23,18.549999,1729417275295.0,0.0
-4.701896,-11.030912,-6.599405,-478.23999,12.53,5.81,1729417275296.0,0.0
-5.381458,-11.952149,-8.310273,-291.130005,24.780001,8.19,1729417275297.0,0.0
-5.340781,-13.021741,-5.271388,-94.5,33.459999,4.27,1729417275298.0,0.0
-4.835894,-13.060026,-3.402594,98.559998,18.059999,-17.290001,1729417275306.0,0.0
-3.768696,-8.444271,-2.445465,301.48999,-10.22,-24.710001,1729417275333.0,0.0
-4.063013,-6.728617,-1.540978,421.329987,-23.52,-12.32,1729417275352.0,0.0
-4.400401,-7.429714,-0.696311,549.220032,-27.09,2.66,1729417275364.0,0.0
-4.074977,-4.972286,1.091127,667.169983,-15.75,12.95,1729417275414.0,0.0
-4.608576,-5.766702,6.427122,737.450012,-3.5,20.65,1729417275415.0,0.0
-5.903094,-3.259024,11.653046,629.369995,-1.19,-1.54,1729417275424.0,0.0
-4.804788,-4.101298,11.492726,433.790009,-14.28,-22.540001,1729417275460.0,0.0
-4.811966,-5.024928,6.577869,288.890015,-6.79,-32.34,1729417275470.0,0.0
-5.144568,1.811367,5.000999,181.229996,8.96,-36.330002,1729417275485.0,0.0
-3.290131,7.133004,6.319445,-0.77,19.809999,-27.02,1729417275505.0,0.0
-4.61097,1.31366,7.274181,-194.320007,30.030001,5.81,1729417275525.0,0.0
-5.17089,-3.481557,7.982457,-315.279999,33.599998,16.73,1729417275545.0,0.0
-4.460221,-2.995814,7.235896,-398.160004,30.380001,19.32,1729417275565.0,0.0
-5.472386,-2.031506,6.128019,-516.109985,15.190001,30.73,1729417275586.0,0.0
-5.979663,-3.266203,4.273581,-612.080017,11.62,32.200001,1729417275607.0,0.0
-5.785845,-6.563512,-0.459422,-723.450012,12.88,17.780001,1729417275627.0,0.0
-5.4341,-11.676974,-6.290731,-706.929993,14.21,5.39,1729417275645.0,0.0
-5.639884,-14.103296,-8.55434,-505.890015,17.08,0.84,1729417275664.0,0.0
-6.412765,-11.892329,-8.142776,-233.869995,23.52,1.96,1729417275686.0,0.0
-4.905287,-10.566705,-5.582455,-10.92,24.219999,-1.54,1729417275706.0,0.0
-3.806981,-9.96132,-3.615555,138.880005,11.48,-13.58,1729417275726.0,0.0
-3.531806,-9.669396,-2.9671,265.019989,-15.4,-16.799999,1729417275843.0,0.0
-3.787838,-7.319644,-1.536192,385.910004,-30.59,-13.02,1729417275858.0,0.0
-4.931608,-5.17089,2.148755,502.25,-33.670002,3.22,1729417275861.0,0.0
-4.991428,-7.479963,-0.004786,619.289978,-39.970001,18.9,1729417275863.0,0.0
-4.855037,-9.169296,3.802195,656.109985,-20.09,12.39,1729417275864.0,0.0
-6.975078,-7.506285,10.226924,603.400024,-2.87,-18.129999,1729417275865.0,0.0
-5.453243,-4.491328,10.798808,469.420013,-24.43,-41.580002,1729417275866.0,0.0
-4.651647,-0.849452,4.878965,366.450012,-27.370001,-31.01,1729417275885.0,0.0
-3.452843,6.142376,5.551349,176.470001,0.49,-21.98,1729417276204.0,0.0
-2.959922,5.611169,5.95095,-69.370003,19.460001,-3.78,1729417276205.0,0.0
-4.649254,-0.294317,6.245267,-246.820007,32.759998,26.67,1729417276205.0,0.0
-5.982057,-4.187439,6.745367,-328.089996,35.279999,43.400002,1729417276205.0,0.0
-6.458229,-4.352544,7.278966,-400.049988,27.719999,36.889999,1729417276205.0,0.0
-6.762117,-3.567699,4.237689,-501.549988,18.34,28.77,1729417276206.0,0.0
-6.092126,-5.364708,2.294717,-575.820007,18.83,22.469999,1729417276206.0,0.0
-5.716454,-8.370094,0.31346,-621.669983,15.4,14.42,1729417276206.0,0.0
-5.905487,-11.05484,-2.313859,-574.280029,8.4,0.14,1729417276206.0,0.0
-5.998806,-9.707682,-4.826324,-428.049988,6.3,-7.84,1729417276206.0,0.0
-5.441278,-10.719845,-6.79083,-265.369995,18.549999,-2.66,1729417276207.0,0.0
-5.072784,-11.279767,-5.036892,-115.5,26.32,-2.52,1729417276207.0,0.0
-4.65404,-10.322637,-3.053242,1.68,20.51,-6.44,1729417276207.0,0.0
-4.486543,-9.832108,-1.828116,112.209999,6.65,-13.79,1729417276207.0,0.0
-4.520042,-8.609376,-1.493121,237.720001,-15.82,-11.76,1729417276207.0,0.0
-4.969893,-7.683353,-0.976272,315.980011,-23.73,-4.97,1729417276208.0,0.0
-5.197211,-7.298109,1.174876,387.660004,-27.370001,1.82,1729417276223.0,0.0
-6.149554,-7.094719,2.579463,514.01001,-22.75,13.23,1729417276249.0,0.0
-6.62094,-7.867601,6.228518,488.809998,-12.53,-1.68,1729417276263.0,0.0
-6.594619,-6.63769,8.216952,416.079987,-11.62,-19.809999,1729417276285.0,0.0
-4.472186,-6.788438,7.724032,318.220001,-18.620001,-32.619999,1729417276306.0,0.0
-3.89073,-5.508278,6.486942,263.970001,-11.34,-27.299999,1729417276325.0,0.0
-3.991228,0.267996,6.319445,231.0,-8.33,-7.7,1729417276344.0,0.0
-3.737589,3.474378,5.970093,75.809998,6.86,-1.12,1729417276366.0,0.0
-4.716253,0.945165,6.613762,-134.960007,28.559999,11.9,1729417276385.0,0.0
-5.690133,-2.452643,7.444071,-296.799988,38.57,22.469999,1729417276405.0,0.0
-6.015556,-3.558127,6.355337,-406.700012,29.049999,27.16,1729417276425.0,0.0
-6.166305,-5.424529,3.754339,-481.809998,17.219999,33.040001,1729417276446.0,0.0
-6.477371,-6.58744,3.460021,-552.789978,17.99,17.92,1729417276464.0,0.0
-6.632904,-6.817152,-0.055035,-627.619995,13.93,2.38,1729417276487.0,0.0
-5.644669,-10.815558,-5.536992,-608.51001,18.200001,-9.31,1729417276505.0,0.0
-5.532206,-10.449455,-6.276374,-455.209991,32.41,-12.32,1729417276525.0,0.0
-5.816952,-10.274779,-6.589834,-284.76001,44.310001,-7.42,1729417276550.0,0.0
-5.17089,-10.380065,-4.704289,-123.199997,41.580002,-5.39,1729417276686.0,0.0
-4.603791,-10.846665,-2.828316,72.379997,17.639999,-13.440001,1729417276687.0,0.0
-4.517649,-10.193424,-3.424129,205.240005,-10.29,-19.530001,1729417276687.0,0.0
-4.675575,-8.683553,-3.517449,345.23999,-30.59,-17.85,1729417276687.0,0.0
-5.237889,-7.034898,-1.392623,477.679993,-39.549999,-11.34,1729417276688.0,0.0
-5.448457,-4.438686,0.27996,596.820007,-38.43,1.82,1729417276688.0,0.0
-5.453243,-8.901299,2.981457,689.429993,-35.560001,13.37,1729417276688.0,0.0
-6.020342,-6.867401,6.838687,638.049988,-16.940001,-10.64,1729417276705.0,0.0
-4.907679,-3.768696,9.394222,493.850006,-25.549999,-26.460001,1729417276785.0,0.0
-3.397808,-3.641876,7.317252,336.630005,-24.15,-25.34,1729417276786.0,0.0
-4.845466,-2.254039,4.666004,259.700012,-10.64,-10.22,1729417276788.0,0.0
-5.520242,2.313859,5.359922,134.399994,4.83,-10.85,1729417276789.0,0.0
-4.811966,2.801995,5.328816,-77.699997,24.360001,-7.77,1729417276808.0,0.0
-5.017749,-0.437887,6.898508,-252.910004,42.349998,13.16,1729417276824.0,0.0
-5.979663,-3.404987,7.506285,-394.100006,42.84,25.27,1729417276848.0,0.0
-5.848059,-3.613162,4.651647,-520.940002,29.610001,17.710001,1729417276863.0,0.0
-5.903094,-5.326423,2.17029,-582.400024,19.389999,19.74,1729417276884.0,0.0
-6.271588,-8.499306,1.191626,-615.51001,21.280001,9.1,1729417276906.0,0.0
-6.175875,-10.528419,-3.63709,-557.549988,9.59,-6.93,1729417276923.0,0.0
-6.202196,-10.164711,-5.776274,-406.0,18.690001,-8.47,1729417276944.0,0.0
-5.836094,-11.298907,-6.84108,-237.930008,30.870001,-3.5,1729417276963.0,0.0
-4.835894,-10.581062,-4.802395,-80.360001,35.84,-5.74,1729417276986.0,0.0
-4.785645,-9.846465,-1.591227,39.41,25.200001,-6.23,1729417277006.0,0.0
-4.785645,-10.128819,-1.366302,137.690002,3.71,-14.28,1729417277024.0,0.0
-4.895715,-8.685946,-2.366502,253.610001,-20.370001,-10.92,1729417277044.0,0.0
-5.374279,-7.633104,-1.636691,347.339996,-30.799999,-2.03,1729417277064.0,0.0
-6.508478,-6.204589,0.117248,430.779999,-34.16,5.74,1729417277085.0,0.0
-6.91765,-5.931807,1.51705,488.459991,-28.07,8.4,1729417277105.0,0.0
-5.331209,-9.135797,4.539185,490.980011,-23.59,-4.83,1729417277124.0,0.0
-4.39083,-9.38465,6.486942,448.630005,-20.370001,-25.27,1729417277146.0,0.0
-3.799802,-6.982256,7.389036,429.100006,-30.24,-26.530001,1729417277164.0,0.0
-3.802195,-4.677969,7.025328,422.309998,-35.139999,-15.47,1729417277186.0,0.0
-5.618347,-1.103091,5.424529,357.070007,-19.809999,-9.87,1729417277205.0,0.0
-4.809574,2.694318,4.402793,211.889999,-0.21,-11.9,1729417277224.0,0.0
-4.541577,2.208575,6.07777,0.98,29.049999,-3.29,1729417277244.0,0.0
-5.905487,-2.163112,5.905487,-244.020004,46.27,35.209999,1729417277264.0,0.0
-6.482157,-5.113462,6.525227,-328.720001,36.68,34.23,1729417277286.0,0.0
-6.905686,-5.809773,6.74776,-404.529999,21.280001,20.719999,1729417277307.0,0.0
-6.429514,-6.774081,5.82413,-468.720001,7.0,10.29,1729417277324.0,0.0
-5.570491,-7.111469,3.900301,-525.070007,-2.17,-3.71,1729417277346.0,0.0
-5.71406,-6.884151,-0.57667,-562.23999,0.84,-7.0,1729417277364.0,0.0
-5.472386,-9.343972,-2.639283,-513.169983,10.64,-6.65,1729417277386.0,0.0
-5.584848,-10.858629,-3.426522,-384.299988,18.690001,-9.24,1729417277407.0,0.0
-4.922036,-9.683753,-4.82393,-228.339996,27.440001,-4.41,1729417277424.0,0.0
-5.426922,-9.712467,-2.536392,-110.040001,31.639999,-0.63,1729417277451.0,0.0
-5.472386,-10.159925,-1.282553,-38.009998,21.91,-5.81,1729417277466.0,0.0
-5.087141,-9.980463,-1.457229,43.049999,1.4,-14.0,1729417277487.0,0.0
-5.237889,-11.062018,-2.067399,146.509995,-20.51,-16.799999,1729417277507.0,0.0
-5.197211,-10.109675,-2.213361,250.809998,-25.620001,-20.09,1729417277526.0,0.0
-5.577669,-7.085148,-0.33021,368.619995,-24.15,-13.440001,1729417277545.0,0.0
-5.218746,-7.501499,1.028914,549.289978,-27.58,1.96,1729417277566.0,0.0
-5.541777,-6.898508,4.496114,560.419983,-21.49,-9.45,1729417277587.0,0.0
-5.680561,-5.223531,7.829315,450.23999,-15.61,-23.379999,1729417277609.0,0.0
-3.905087,-6.606583,7.489535,303.660004,-15.89,-35.420002,1729417277626.0,0.0
-4.007978,-5.498707,5.795416,257.320007,-10.71,-22.469999,1729417277645.0,0.0
-4.974678,0.323031,5.469993,240.800003,-8.96,-1.26,1729417277665.0,0.0
-4.4674,2.914458,5.71406,83.230003,3.85,4.27,1729417277687.0,0.0
-4.888536,-0.129212,5.65424,-133.630005,26.67,11.13,1729417277709.0,0.0
-5.656632,-3.620341,7.13779,-258.369995,35.490002,24.290001,1729417277725.0,0.0
-6.108876,-4.728218,6.582655,-344.820007,22.33,25.690001,1729417277746.0,0.0
-6.001199,-4.721039,3.948158,-421.26001,12.67,25.76,1729417277766.0,0.0
-6.38405,-5.350351,2.603391,-495.529999,11.97,19.32,1729417277788.0,0.0
-6.149554,-6.513263,0.564706,-578.130005,11.55,6.02,1729417277808.0,0.0
-5.367101,-10.817951,-3.56052,-569.309998,13.3,-0.84,1729417277827.0,0.0
-5.673382,-10.057034,-4.48415,-412.440002,14.91,-2.87,1729417277847.0,0.0
-5.393422,-11.196017,-5.266603,-191.449997,30.73,-2.24,1729417277866.0,0.0
-5.302495,-10.652846,-3.462414,-59.639999,31.08,-5.25,1729417277888.0,0.0
-5.04407,-11.133803,-2.285146,60.200001,16.030001,-11.41,1729417277907.0,0.0
-5.288138,-10.604989,-2.199004,193.550003,-9.73,-18.129999,1729417277927.0,0.0
-4.998606,-8.578269,-2.385644,312.339996,-24.15,-20.58,1729417277947.0,0.0
-5.228317,-7.573284,-0.081356,395.640015,-21.91,-16.66,1729417277966.0,0.0
-5.182854,-7.070791,1.801795,481.040009,-24.710001,-13.72,1729417277990.0,0.0
-4.493721,-7.386643,2.469393,570.5,-29.26,-1.26,1729417278007.0,0.0
-5.386244,-5.76431,6.742974,576.23999,-19.18,-3.01,1729417278027.0,0.0
-6.111269,-4.733003,8.585447,453.529999,-18.969999,-12.46,1729417278048.0,0.0
-5.419744,-7.051648,7.439285,309.049988,-16.17,-27.370001,1729417278066.0,0.0
-4.847858,-4.034299,5.958128,240.309998,-15.190001,-25.059999,1729417278087.0,0.0
-3.972085,2.079363,5.979663,186.059998,-15.05,-8.4,1729417278108.0,0.0
-3.546163,1.95015,5.793024,28.98,-0.63,2.59,1729417278135.0,0.0
-5.091926,-2.0004,6.297909,-118.020004,17.290001,14.0,1729417278305.0,0.0
-5.575277,-3.352344,7.070791,-264.600006,24.99,21.210001,1729417278305.0,0.0
-5.74756,-2.727818,4.563113,-377.860016,24.43,15.82,1729417278306.0,0.0
-5.816952,-4.35733,3.699304,-458.98999,28.91,26.950001,1729417278306.0,0.0
-6.18784,-6.029913,3.828516,-556.98999,33.25,15.96,1729417278306.0,0.0
-6.195018,-8.779266,0.440279,-618.169983,22.540001,8.26,1729417278306.0,0.0
-5.292924,-10.284351,-2.591427,-550.76001,12.95,-0.91,1729417278306.0,0.0
-5.962914,-10.861022,-4.474578,-372.26001,9.94,-5.6,1729417278307.0,0.0
-5.860023,-11.499906,-5.249853,-188.720001,12.32,-7.14,1729417278340.0,0.0
-5.029713,-11.236694,-3.180061,-42.349998,13.440001,-7.84,1729417278340.0,0.0
-4.771288,-11.437693,-1.777867,47.599998,10.22,-12.95,1729417278353.0,0.0
-4.673182,-10.186246,-2.804388,164.570007,-2.52,-16.799999,1729417278365.0,0.0
-5.166104,-9.049655,-2.189433,296.170013,-12.04,-12.39,1729417278407.0,0.0
-5.448457,-6.343372,-0.392423,414.26001,-15.61,-6.58,1729417278407.0,0.0
-5.412565,-6.817152,1.658226,511.630005,-20.58,3.29,1729417278425.0,0.0
-5.833702,-7.999206,5.166104,518.77002,-13.58,-6.72,1729417278446.0,0.0
-5.831308,-6.630512,7.446464,455.0,-15.89,-21.559999,1729417278467.0,0.0
-4.31426,-6.159126,7.9346,355.390015,-23.73,-28.84,1729417278497.0,0.0
-4.220939,-1.832902,6.673582,273.630005,-24.57,-12.74,1729417278508.0,0.0
-4.534399,2.835495,6.281159,204.470001,-18.129999,7.63,1729417278526.0,0.0
-3.816552,0.622134,5.539384,15.61,1.54,10.22,1729417278546.0,0.0
-4.85743,-3.302095,4.960321,-181.300003,27.719999,9.45,1729417278566.0,0.0
-6.07777,-5.91745,6.04427,-290.779999,38.220001,10.85,1729417278588.0,0.0
-6.13759,-4.843073,6.21416,-386.329987,28.35,6.44,1729417278607.0,0.0
-5.108676,-3.675375,2.088934,-490.209991,20.16,9.1,1729417278626.0,0.0
-5.458029,-5.343173,0.662812,-563.640015,26.809999,11.9,1729417278646.0,0.0
-5.343173,-10.188639,-0.827917,-583.380005,33.740002,3.29,1729417278666.0,0.0
-5.587241,-11.619547,-1.29691,-488.25,28.49,-9.03,1729417278687.0,0.0
-5.632704,-9.463614,-2.878566,-306.179993,14.77,-10.71,1729417278708.0,0.0
-6.352944,-10.346564,-4.297509,-165.130005,13.440001,-0.84,1729417278726.0,0.0
-5.503492,-11.578869,-3.754339,-36.470001,9.17,-1.82,1729417278751.0,0.0
-4.993821,-10.817951,-3.421736,89.459999,-1.4,-6.44,1729417278873.0,0.0
-4.706682,-9.84168,-2.837888,200.130005,-9.31,-10.57,1729417278876.0,0.0
-4.386044,-8.846266,-2.785245,304.079987,-16.66,-9.03,1729417278876.0,0.0
-4.579862,-6.178268,0.940379,453.950012,-19.530001,-0.63,1729417278876.0,0.0
-5.072784,-4.316652,3.452843,480.130005,-19.809999,6.02,1729417278876.0,0.0
-5.87438,-5.340781,6.506085,459.410004,-19.809999,11.69,1729417278876.0,0.0
-6.228518,-6.262017,7.910671,385.839996,-21.559999,2.1,1729417278886.0,0.0
-5.414958,-6.534799,8.149954,298.970001,-23.52,-5.39,1729417278956.0,0.0
-4.563113,-5.69731,7.135397,227.5,-19.040001,-10.92,1729417278960.0,0.0
-4.259224,-3.996014,6.360123,173.809998,-12.25,-4.27,1729417278961.0,0.0
-4.517649,-1.627119,5.960521,101.43,-5.04,4.06,1729417278965.0,0.0
-4.862216,-1.909473,5.577669,-28.49,7.7,2.73,1729417278989.0,0.0
-5.333601,-2.900101,7.482357,-163.520004,21.77,2.59,1729417279012.0,0.0
-5.211568,-2.330609,6.783652,-304.290009,23.66,1.82,1729417279025.0,0.0
-4.462614,-2.019542,3.591627,-415.799988,23.1,12.46,1729417279045.0,0.0
-5.405386,-4.646862,1.51705,-485.380005,32.48,26.110001,1729417279065.0,0.0
-6.412765,-7.678568,0.863809,-523.950012,40.459999,18.27,1729417279085.0,0.0
-6.675975,-9.492328,-0.349352,-497.350006,34.16,12.32,1729417279106.0,0.0
-6.551548,-8.377272,-1.363909,-403.480011,21.139999,4.9,1729417279125.0,0.0
-5.99402,-8.578269,-5.436492,-293.51001,13.23,9.17,1729417279145.0,0.0
-5.807381,-12.564712,-4.709075,-104.580002,15.61,-2.8,1729417279168.0,0.0
-5.228317,-11.062018,-2.742175,36.889999,8.54,-11.34,1729417279188.0,0.0
-4.95075,-11.035697,-3.366701,130.270004,-0.91,-15.61,1729417279208.0,0.0
-4.558327,-10.861022,-4.646862,264.110016,-15.54,-15.61,1729417279226.0,0.0
-4.938786,-6.817152,-2.443072,441.48999,-17.15,-15.26,1729417279247.0,0.0
-5.4006,-2.402394,2.876173,584.289978,-21.35,0.49,1729417279266.0,0.0
-6.45105,-5.28096,7.939385,632.869995,-33.810001,13.72,1729417279288.0,0.0
-6.65444,-6.381658,9.554541,546.280029,-40.950001,-4.69,1729417279307.0,0.0
-4.249653,-4.991428,9.312866,378.350006,-40.25,-16.450001,1729417279325.0,0.0
-3.940979,-4.993821,8.930015,260.610016,-29.75,-11.06,1729417279346.0,0.0
-4.960321,-2.943172,7.616355,194.320007,-24.01,3.29,1729417279367.0,0.0
-4.520042,-0.320638,5.623133,92.75,-19.530001,8.4,1729417279388.0,0.0
-4.498507,-1.79701,4.462614,-47.389999,-0.84,8.4,1729417279407.0,0.0
-5.551349,-3.945765,6.12084,-161.490005,22.82,-5.25,1729417279426.0,0.0
-5.601598,-4.029513,6.874579,-256.829987,26.32,-6.44,1729417279447.0,0.0
-4.515256,-2.617748,5.259424,-343.910004,21.559999,4.69,1729417279466.0,0.0
-5.900701,-3.460021,4.017549,-434.910004,28.280001,11.06,1729417279495.0,0.0
-6.161518,-5.362316,2.557927,-548.380005,36.889999,10.36,1729417279507.0,0.0
-6.348158,-7.006185,-0.229711,-559.02002,31.710001,11.2,1729417279527.0,0.0
-6.644868,-8.913264,-3.692125,-461.929993,22.26,14.98,1729417279547.0,0.0
-6.888937,-11.365908,-5.312066,-282.589996,16.799999,22.33,1729417279565.0,0.0
-6.218946,-13.674981,-4.618148,-120.190002,17.360001,4.55,1729417279588.0,0.0
-5.075177,-11.815758,-2.648855,32.41,6.37,-11.13,1729417279607.0,0.0
-4.376472,-10.80838,-3.448057,136.080002,-6.58,-17.710001,1729417279626.0,0.0
-4.934,-11.643474,-3.76391,254.729996,-15.61,-19.460001,1729417279645.0,0.0
-5.06082,-9.147761,-2.285146,423.5,-21.210001,-26.530001,1729417279667.0,0.0
-5.347959,-5.862415,1.103091,559.789978,-24.639999,-21.77,1729417279687.0,0.0
-6.082555,-2.938386,6.556334,572.039978,-22.469999,-17.08,1729417279707.0,0.0
-5.412565,-2.242075,8.508877,474.25,-31.710001,-18.48,1729417279727.0,0.0
-4.321437,-3.445665,9.485149,335.860016,-35.560001,-11.76,1729417279747.0,0.0
-4.888536,-6.084948,9.38465,223.649994,-27.93,-10.64,1729417279767.0,0.0
-4.098906,-2.945565,6.151947,150.220001,-24.710001,-2.52,1729417279787.0,0.0
-4.012764,-0.490529,4.421937,65.800003,-9.38,7.49,1729417279806.0,0.0
-4.98425,-5.000999,4.34058,-28.630001,13.72,6.93,1729417279825.0,0.0
-6.094519,-5.278566,7.240681,-126.0,40.040001,6.23,1729417279847.0,0.0
-6.041877,-4.079762,7.946564,-244.649994,35.209999,2.1,1729417279867.0,0.0
-4.821537,-1.660619,5.623133,-392.209991,27.23,4.69,1729417279887.0,0.0
-4.469792,-2.878566,0.961915,-496.580017,28.07,16.309999,1729417279907.0,0.0
-5.680561,-6.025128,1.672583,-523.599976,36.75,26.389999,1729417279925.0,0.0
-6.84108,-6.496514,-0.282353,-543.340027,38.639999,14.0,1729417279947.0,0.0
-7.716853,-8.839087,-2.141576,-513.450012,31.710001,2.73,1729417279967.0,0.0
-6.034698,-11.169697,-6.235696,-348.459991,9.31,10.22,1729417279989.0,0.0
-6.053841,-14.67518,-7.046863,-181.369995,13.02,1.75,1729417280008.0,0.0
-5.371887,-12.679568,-4.685147,2.38,11.2,-15.89,1729417280026.0,0.0
-5.051248,-10.499706,-3.096312,129.360001,3.15,-24.08,1729417280047.0,0.0
-4.603791,-10.851451,-3.65384,239.330002,-7.49,-24.290001,1729417280065.0,0.0
-5.190032,-8.793623,-2.538785,406.070007,-19.040001,-26.530001,1729417280086.0,0.0
-5.599205,-5.326423,0.818345,562.590027,-25.9,-18.549999,1729417280106.0,0.0
-5.601598,-3.751946,4.778467,613.200012,-29.120001,-5.11,1729417280127.0,0.0
-6.211767,-4.570292,8.090133,545.929993,-28.91,-10.57,1729417280145.0,0.0
-4.23051,-4.189832,7.479963,406.980011,-33.389999,-16.1,1729417280166.0,0.0
-4.058227,-5.536992,7.625926,248.080002,-26.32,-13.79,1729417280186.0,0.0
-5.194818,-4.689932,8.228917,257.529999,-28.700001,-1.19,1729417280211.0,0.0
-4.673182,-1.488336,7.448857,214.479996,-31.780001,-2.38,1729417280225.0,0.0
-3.924229,-0.993021,5.759524,95.620003,-16.59,-2.03,1729417280246.0,0.0
-3.797409,-1.847259,5.618347,-28.210001,9.87,-0.63,1729417280266.0,0.0
-5.056034,-3.35713,7.130611,-116.550003,31.99,5.88,1729417280286.0,0.0
-5.216353,-3.371487,7.582855,-196.279999,33.110001,6.09,1729417280307.0,0.0
-5.053641,-3.194418,7.592427,-283.290009,26.110001,8.89,1729417280326.0,0.0
-5.175675,-1.665405,4.881358,-400.679993,16.870001,10.71,1729417280345.0,0.0
-5.4676,-2.531606,2.837888,-500.429993,23.030001,16.17,1729417280365.0,0.0
-6.051448,-6.458229,1.473979,-546.280029,32.41,17.92,1729417280443.0,0.0
-6.541977,-10.660025,0.01675,-511.700012,29.4,8.68,1729417280444.0,0.0
-6.250053,-9.401401,-1.682154,-375.339996,15.54,0.14,1729417280444.0,0.0
-5.635098,-9.442079,-3.122634,-213.009995,9.38,6.79,1729417280445.0,0.0
-5.469993,-11.533404,-3.23031,-92.610001,10.15,4.62,1729417280476.0,0.0
-5.283352,-11.203196,-1.37348,26.25,5.25,-7.42,1729417280486.0,0.0
-5.094319,-10.411172,-0.914058,193.339996,-11.55,-16.309999,1729417280506.0,0.0
-5.048856,-9.379865,-0.653241,313.25,-23.450001,-15.61,1729417280526.0,0.0
-5.525027,-6.049056,2.335395,427.630005,-21.700001,-13.16,1729417280545.0,0.0
-6.144768,-5.651847,5.563312,482.299988,-20.860001,-6.58,1729417280567.0,0.0
-5.852845,-6.912865,8.185846,440.929993,-25.129999,-18.200001,1729417280587.0,0.0
-5.005785,-6.266802,8.578269,377.440002,-30.799999,-24.290001,1729417280607.0,0.0
-4.053442,-4.182654,8.537591,354.549988,-40.529999,-14.42,1729417280630.0,0.0
-3.419343,-1.658226,8.953942,307.720001,-42.279999,-3.01,1729417280646.0,0.0
-3.852444,-0.748954,7.735995,177.520004,-29.540001,0.07,1729417280666.0,0.0
-3.972085,-0.631705,5.850451,20.93,-10.01,-1.05,1729417280686.0,0.0
-3.897908,-1.26341,5.422136,-89.18,13.3,10.08,1729417280706.0,0.0
-4.957928,-2.995814,7.240681,-183.820007,27.65,20.58,1729417280725.0,0.0
-5.417351,-4.0008,7.367501,-289.660004,29.82,18.549999,1729417280746.0,0.0
-4.785645,-4.09412,4.95075,-379.890015,22.190001,17.780001,1729417280765.0,0.0
-4.326223,-4.878965,1.990828,-416.149994,19.67,25.690001,1729417280794.0,0.0
-5.481956,-5.180461,1.062413,-412.299988,23.24,32.900002,1729417280811.0,0.0
-6.721439,-7.56132,-0.435494,-406.0,32.200001,27.09,1729417280828.0,0.0
-6.881758,-9.554541,-0.217747,-340.410004,39.619999,22.190001,1729417280850.0,0.0
-6.656832,-9.994821,-0.0335,-246.960007,28.77,13.23,1729417280866.0,0.0
-6.04427,-10.159925,-0.545564,-149.729996,18.059999,8.61,1729417280886.0,0.0
-5.900701,-11.145767,-1.067199,-95.760002,16.379999,-0.42,1729417280909.0,0.0
-5.907879,-10.332209,-0.550349,-21.49,11.97,-9.8,1729417280926.0,0.0
-5.998806,-9.834501,0.157926,54.880001,0.77,-13.72,1729417280944.0,0.0
-6.049056,-10.470992,-0.229711,154.699997,-18.76,-18.549999,1729417280965.0,0.0
-5.587241,-9.573684,-0.39003,287.559998,-34.369999,-22.469999,1729417280992.0,0.0
-5.335995,-7.460821,1.787439,350.559998,-31.290001,-28.07,1729417281005.0,0.0
-5.548956,-7.116255,3.462414,338.309998,-25.76,-26.389999,1729417281025.0,0.0
-5.15414,-8.583055,4.426722,332.290009,-31.710001,-35.420002,1729417281045.0,0.0
-3.852444,-6.843473,5.072784,326.829987,-28.98,-35.98,1729417281065.0,0.0
-3.929015,-5.587241,7.633104,276.220001,-21.139999,-29.120001,1729417281093.0,0.0
-4.345366,-4.697111,7.750352,173.880005,-19.530001,-29.120001,1729417281114.0,0.0
-4.039084,-4.283153,6.293124,112.0,-21.84,-19.110001,1729417281200.0,0.0
-3.45045,-2.349752,5.948557,91.349998,-22.049999,-3.08,1729417281200.0,0.0
-3.785445,-1.89033,5.491528,38.360001,-13.37,11.76,1729417281200.0,0.0
-4.589434,-4.689932,5.175675,-59.010002,7.56,28.210001,1729417281201.0,0.0
-5.412565,-6.60419,4.886144,-100.309998,15.33,32.34,1729417281210.0,0.0
-5.314459,-5.62074,5.742774,-140.630005,17.08,29.33,1729417281224.0,0.0
-5.364708,-5.036892,5.414958,-205.660004,25.969999,34.09,1729417281246.0,0.0
-4.783253,-4.735396,4.201797,-272.929993,27.860001,36.68,1729417281270.0,0.0
-5.02732,-5.534599,2.9336,-310.23999,25.620001,44.869999,1729417281285.0,0.0
-6.020342,-7.905886,0.753739,-320.179993,24.43,44.170002,1729417281307.0,0.0
-6.601797,-8.322237,-0.545564,-301.209991,28.98,29.960001,1729417281324.0,0.0
-6.762117,-10.121639,-0.914058,-251.580002,38.990002,31.360001,1729417281344.0,0.0
-6.319445,-10.262815,0.457029,-189.279999,42.209999,12.95,1729417281366.0,0.0
-6.336195,-8.846266,1.641476,-125.020004,31.99,5.46,1729417281385.0,0.0
-6.199803,-8.819944,0.691526,-106.050003,23.309999,0.98,1729417281405.0,0.0
-6.144768,-10.040283,-0.241675,-80.709999,18.34,-4.62,1729417281423.0,0.0
-5.965307,-9.937392,-1.098306,-22.120001,12.11,-9.66,1729417281443.0,0.0
-5.938986,-10.116854,-1.773082,42.560001,7.0,-14.56,1729417281464.0,0.0
-5.721239,-9.846465,-1.639083,110.669998,7.07,-22.960001,1729417281484.0,0.0
-5.517848,-8.822337,0.150748,172.339996,9.8,-29.610001,1729417281504.0,0.0
-5.632704,-7.793423,1.962115,226.240005,13.51,-32.830002,1729417281530.0,0.0
-6.13759,-6.369694,3.9338,230.020004,8.05,-30.73,1729417281544.0,0.0
-6.599405,-6.608976,4.67079,209.160004,-2.66,-29.75,1729417281563.0,0.0
-6.108876,-7.357929,4.663611,183.820007,-10.57,-33.110001,1729417281585.0,0.0
-5.726025,-7.685746,4.445865,184.729996,-15.33,-24.57,1729417281605.0,0.0
-6.388836,-6.503692,5.04407,189.910004,-12.46,-25.969999,1729417281625.0,0.0
-6.242875,-6.132804,5.369494,200.130005,-15.47,-33.18,1729417281644.0,0.0
-5.194818,-8.879765,4.855037,199.220001,-21.0,-41.02,1729417281663.0,0.0
-3.538985,-9.262616,5.034499,209.509995,-10.29,-52.779999,1729417281684.0,0.0
-2.900101,-3.826123,6.675975,221.830002,-7.21,-49.0,1729417281704.0,0.0
-3.5007,-1.607977,7.45125,168.490005,-8.47,-22.4,1729417281723.0,0.0
-2.694318,-1.928615,6.422336,94.150002,-14.63,-16.24,1729417281744.0,0.0
-2.567499,-4.412365,7.032506,67.550003,-14.42,2.03,1729417281766.0,0.0
-3.326023,-3.940979,7.23111,41.23,-9.87,12.32,1729417281786.0,0.0
-3.488736,-2.787638,6.549156,-31.5,-4.41,8.05,1729417281806.0,0.0
-3.785445,-3.414558,6.848258,-126.489998,10.29,12.11,1729417281824.0,0.0
-7.066005,-4.876573,3.689733,-188.649994,19.879999,32.34,1729417281844.0,0.0
-7.65464,-4.900501,8.097312,-186.410004,41.509998,25.27,1729417281865.0,0.0
-5.702096,-7.597212,6.692725,-218.889999,18.83,14.84,1729417281885.0,0.0
-2.976671,-7.628319,5.594419,-217.0,8.47,5.18,1729417281905.0,0.0
-2.189433,-4.125226,5.020142,-210.139999,9.38,24.290001,1729417281923.0,0.0
-3.464807,-2.801995,4.512863,-248.220001,14.7,42.209999,1729417281944.0,0.0
-6.290731,-6.594619,1.330409,-324.029999,16.52,40.110001,1729417281964.0,0.0
-6.800402,-11.408978,-2.177469,-329.209991,12.18,20.51,1729417281988.0,0.0
-7.219146,-14.445471,-2.811567,-196.070007,4.69,22.120001,1729417282012.0,0.0
-7.920243,-14.553147,-1.928615,-14.84,0.84,9.1,1729417282025.0,0.0
-7.920243,-12.378072,-1.292124,111.650002,-3.15,-17.290001,1729417282044.0,0.0
-7.099504,-9.186047,-2.141576,178.710007,-3.29,-41.720001,1729417282064.0,0.0
-6.597012,-8.425128,0.401994,234.149994,-0.63,-53.970001,1729417282086.0,0.0
-5.556134,-8.018349,3.285345,242.199997,-3.5,-53.34,1729417282105.0,0.0
-4.287938,-5.503492,2.455036,242.270004,-8.47,-49.560001,1729417282124.0,0.0
-3.517449,-6.094519,3.376273,285.670013,-15.12,-38.639999,1729417282143.0,0.0
-1.74676,-5.82413,6.896115,320.670013,-29.469999,-29.610001,1729417282164.0,0.0
-3.065206,-1.739582,8.714661,384.929993,-41.09,-2.1,1729417282185.0,0.0
-3.503092,-0.595813,8.243275,303.380005,-33.810001,-2.87,1729417282205.0,0.0
-4.479364,0.978664,8.360522,162.889999,-13.72,1.82,1729417282223.0,0.0
-6.309873,1.868794,8.391629,-14.42,9.94,10.43,1729417282248.0,0.0
-6.331409,-1.478764,7.410572,-178.570007,11.83,11.55,1729417282263.0,0.0
-5.417351,-4.878965,6.960721,-268.450012,22.610001,6.93,1729417282284.0,0.0
-4.965107,-5.575277,7.058826,-287.070007,30.799999,7.56,1729417282307.0,0.0
-3.76391,-5.422136,6.479764,-284.899994,28.07,16.030001,1729417282327.0,0.0
-0.705883,-4.613362,4.09412,-289.940002,14.98,26.389999,1729417282344.0,0.0
-0.4666,-3.778267,2.679961,-308.839996,13.23,55.09,1729417282364.0,0.0
-5.706882,-6.453443,0.863809,-358.470001,45.779999,57.189999,1729417282384.0,0.0
-9.430114,-11.107484,-1.4668,-373.660004,47.810001,19.6,1729417282405.0,0.0
-8.705089,-14.75893,-1.351945,-241.290009,2.52,12.46,1729417282425.0,0.0
-6.838687,-14.419148,-1.294517,-27.09,-29.540001,17.08,1729417282444.0,0.0
-7.355537,-12.543176,-1.596013,118.790001,-18.48,-6.79,1729417282463.0,0.0
-7.235896,-10.370493,-1.931008,158.759995,-5.46,-33.18,1729417282486.0,0.0
-6.087341,-9.509077,1.476372,187.320007,-2.45,-48.439999,1729417282508.0,0.0
-4.567898,-8.233703,3.139383,256.970001,-11.97,-49.349998,1729417282525.0,0.0
-3.773481,-6.202196,3.787838,305.970001,-16.450001,-45.43,1729417282543.0,0.0
-2.713461,-5.771489,4.17069,340.549988,-35.279999,-35.98,1729417282563.0,0.0
-1.378266,-3.787838,6.783652,356.160004,-39.900002,-30.940001,1729417282584.0,0.0
-3.069991,-0.940379,9.45165,362.110016,-38.709999,-12.95,1729417282604.0,0.0
-4.175476,-0.811167,8.879765,270.200012,-38.639999,-9.1,1729417282630.0,0.0
-3.677768,0.339781,6.477371,132.649994,-27.09,-3.78,1729417282646.0,0.0
-5.012963,0.425922,6.786045,12.04,-0.07,5.53,1729417282665.0,0.0
-5.974878,-1.868794,7.13779,-112.209999,18.34,8.19,1729417282684.0,0.0
-5.848059,-3.78066,7.898707,-196.770004,30.59,8.61,1729417282704.0,0.0
-5.474778,-4.371687,7.601997,-265.440002,36.889999,6.72,1729417282724.0,0.0
-4.158726,-4.627719,6.163911,-317.23999,36.68,4.83,1729417282746.0,0.0
-1.90708,-5.771489,4.498507,-330.329987,26.809999,17.219999,1729417282763.0,0.0
-0.09332,-5.307281,3.139383,-320.25,23.309999,36.68,1729417282786.0,0.0
-2.725425,-6.130411,2.565106,-311.290009,39.27,54.950001,1729417282804.0,0.0
-7.166504,-8.262416,0.684347,-333.059998,55.09,33.25,1729417282824.0,0.0
-8.480164,-12.160326,-0.490529,-299.950012,39.060001,20.51,1729417282845.0,0.0
-6.886543,-12.648461,-0.662812,-103.739998,-10.22,24.360001,1729417282864.0,0.0
-7.082755,-12.636496,-1.208375,4.69,-8.75,5.25,1729417282886.0,0.0
-6.884151,-12.366108,-2.225325,60.970001,-7.91,-15.89,1729417282904.0,0.0
-6.309873,-11.693724,-2.395216,125.440002,-3.29,-42.209999,1729417282924.0,0.0
-5.374279,-10.774881,0.284746,200.059998,-5.95,-57.68,1729417282943.0,0.0
-4.304688,-8.310273,2.201397,271.670013,-15.190001,-50.470001,1729417282964.0,0.0
-3.565305,-5.008178,1.952543,339.850006,-17.01,-34.650002,1729417282987.0,0.0
-2.715853,-5.249853,3.259024,358.890015,-24.57,-25.48,1729417283005.0,0.0
-1.292124,-4.843073,5.883951,350.839996,-27.440001,-25.48,1729417283023.0,0.0
-2.964707,-2.452643,7.360322,403.549988,-23.030001,-1.54,1729417283043.0,0.0
-4.996214,-1.194018,8.913264,392.910004,-31.08,8.19,1729417283064.0,0.0
-4.711468,0.677169,7.518249,246.680008,-23.379999,-0.91,1729417283085.0,0.0
-5.800202,2.103291,7.683353,92.330002,3.64,5.67,1729417283103.0,0.0
-6.613762,-0.885344,7.740781,-69.860001,17.290001,9.17,1729417283123.0,0.0
-5.716454,-4.017549,7.661818,-193.619995,26.530001,1.47,1729417283143.0,0.0
-4.656433,-4.149154,7.877172,-263.269989,36.540001,-4.9,1729417283163.0,0.0
-2.749353,-3.792624,6.096912,-317.940002,39.130001,1.82,1729417283184.0,0.0
-0.868595,-3.998406,3.864408,-384.790009,26.18,24.780001,1729417283204.0,0.0
-2.251646,-4.527221,2.395216,-401.660004,33.32,42.630001,1729417283222.0,0.0
-6.23091,-7.57089,0.311067,-397.73999,48.02,36.82,1729417283242.0,0.0
-8.425128,-10.755738,-1.256232,-331.730011,31.85,24.290001,1729417283263.0,0.0
-7.865208,-12.882957,-0.904487,-184.029999,0.14,29.68,1729417283283.0,0.0
-7.216753,-13.043276,-0.650848,-32.900002,-15.4,22.26,1729417283303.0,0.0
-7.180861,-12.174682,-0.208176,53.41,-10.01,1.82,1729417283323.0,0.0
-6.513263,-10.49492,0.435494,77.629997,-8.47,-14.98,1729417283342.0,0.0
-5.98445,-10.021141,0.007178,106.330002,-8.4,-28.0,1729417283362.0,0.0
-5.639884,-10.265208,0.887737,169.190002,-6.23,-43.400002,1729417283383.0,0.0
-5.113462,-9.446864,2.299503,247.869995,-9.45,-42.420002,1729417283402.0,0.0
-3.897908,-8.750552,2.017149,314.440002,-24.360001,-37.380001,1729417283422.0,0.0
-1.777867,-6.795617,3.754339,378.279999,-37.310001,-36.119999,1729417283444.0,0.0
-2.033899,-3.211168,7.578069,418.179993,-32.689999,-18.690001,1729417283462.0,0.0
-4.048656,-0.37328,8.130811,380.309998,-37.029999,-4.06,1729417283485.0,0.0
-3.790231,-0.514457,5.479564,240.240005,-31.639999,-5.04,1729417283505.0,0.0
-5.651847,0.09332,5.781059,118.580002,-1.47,11.06,1729417283523.0,0.0
-6.853044,-1.694118,6.829116,-23.379999,29.049999,15.61,1729417283543.0,0.0
-6.606583,-4.194618,7.915457,-105.419998,31.219999,10.15,1729417283570.0,0.0
-6.675975,-5.146961,9.38465,-170.449997,37.869999,2.45,1729417283584.0,0.0
-6.139983,-4.65404,9.29133,-256.339996,38.150002,-8.96,1729417283606.0,0.0
-4.09412,-4.797609,7.008578,-339.01001,27.370001,-8.47,1729417283626.0,0.0
-0.748954,-4.914857,4.053442,-381.920013,15.12,-2.52,1729417283643.0,0.0
-0.732204,-3.644269,1.682154,-381.920013,22.120001,29.82,1729417283664.0,0.0
-6.049056,-7.329216,0.31346,-380.589996,49.98,34.02,1729417283685.0,0.0
-9.238688,-11.971292,-1.708475,-367.5,46.27,-3.22,1729417283706.0,0.0
-7.56132,-14.170296,-2.388037,-197.960007,0.07,-7.91,1729417283723.0,0.0
-6.324231,-12.191431,-1.098306,16.030001,-14.63,-3.64,1729417283745.0,0.0
-6.941578,-11.636297,0.842274,103.949997,-2.1,-24.15,1729417283765.0,0.0
-6.704689,-11.712867,0.839881,129.149994,-4.41,-39.759998,1729417283786.0,0.0
-5.28096,-10.346564,1.119841,185.779999,-16.59,-49.490002,1729417283806.0,0.0
-3.426522,-7.202396,2.589034,230.300003,-23.799999,-51.170002,1729417283824.0,0.0
-2.443072,-8.398808,1.088734,235.199997,-29.33,-50.119999,1729417283845.0,0.0
-1.043271,-9.607183,2.067399,301.0,-27.23,-47.670002,1729417283864.0,0.0
-3.115455,-5.120641,5.175675,464.869995,-21.139999,-14.49,1729417283887.0,0.0
-4.814359,0.105284,6.757331,550.27002,-40.389999,-1.82,1729417283907.0,0.0
-4.510471,4.508078,8.063812,375.339996,-34.09,-13.16,1729417284221.0,0.0
-6.240481,-0.107677,7.049256,104.160004,0.84,3.64,1729417284222.0,0.0
-5.814559,-4.426722,6.750153,-137.199997,20.719999,19.110001,1729417284222.0,0.0
-5.314459,-5.989235,7.006185,-270.690002,24.710001,13.23,1729417284223.0,0.0
-4.9675,-5.783452,6.721439,-332.429993,31.780001,7.77,1729417284223.0,0.0
-4.158726,-5.656632,5.201996,-358.049988,30.24,7.21,1729417284223.0,0.0
-2.155933,-7.546963,1.871187,-353.5,19.74,23.309999,1729417284223.0,0.0
-0.299103,-6.972685,0.452243,-316.75,7.35,35.07,1729417284224.0,0.0
-3.562913,-7.456036,-0.050249,-279.230011,10.01,44.310001,1729417284224.0,0.0
-9.250652,-12.567105,-1.083949,-259.769989,37.240002,56.630001,1729417284224.0,0.0
-8.197811,-14.285151,0.275175,-254.520004,53.970001,21.07,1729417284224.0,0.0
-6.721439,-12.14836,1.026521,-98.840004,11.9,6.93,1729417284224.0,0.0
-6.932007,-10.274779,0.217747,55.580002,-10.36,5.25,1729417284225.0,0.0
-7.042077,-10.604989,-0.270389,119.980003,-6.3,-7.63,1729417284225.0,0.0
-5.972485,-9.970891,0.787239,124.599998,0.77,-29.049999,1729417284225.0,0.0
-4.675575,-8.559127,2.840281,223.649994,-13.3,-45.43,1729417284322.0,0.0
-3.249453,-8.063812,1.785046,286.019989,-24.57,-42.420002,1729417284324.0,0.0
-1.631905,-7.712067,3.034099,333.130005,-33.529999,-38.220001,1729417284324.0,0.0
-1.17009,-6.084948,6.309873,424.76001,-39.689999,-21.91,1729417284325.0,0.0
-3.804588,-1.29691,8.712267,477.75,-42.98,2.59,1729417284325.0,0.0
-3.54377,2.591427,6.76451,345.170013,-46.34,-7.28,1729417284357.0,0.0
-4.024727,2.222932,6.9679,129.149994,-12.04,5.32,1729417284364.0,0.0
-6.226124,-1.07677,6.872187,-44.310001,16.379999,12.88,1729417284384.0,0.0
-6.441479,-3.651447,6.893722,-127.889999,19.879999,14.56,1729417284406.0,0.0
-5.472386,-4.65404,7.424929,-186.410004,26.67,7.0,1729417284426.0,0.0
-5.067998,-5.589634,8.085347,-254.309998,36.189999,0.98,1729417284444.0,0.0
-3.304488,-5.103891,5.742774,-337.049988,28.0,5.39,1729417284465.0,0.0
-1.433301,-5.553742,2.768496,-327.670013,19.74,23.17,1729417284486.0,0.0
-0.509671,-4.76411,1.569692,-312.269989,27.09,43.189999,1729417284505.0,0.0
-4.462614,-5.144568,1.519442,-318.360016,51.450001,57.470001,1729417284525.0,0.0
-9.437292,-10.547562,-1.01695,-337.049988,56.77,24.15,1729417284544.0,0.0
-9.183653,-15.574883,-1.744368,-248.570007,19.950001,0.14,1729417284565.0,0.0
-6.776474,-14.433505,-0.145962,-57.470001,-14.7,0.14,1729417284736.0,0.0
-6.668797,-9.865608,0.789631,143.220001,-18.41,-28.139999,1729417284811.0,0.0
-5.761917,-10.193424,1.095913,163.800003,-19.389999,-39.549999,1729417284818.0,0.0
-4.898108,-9.513863,2.227718,196.770004,-18.620001,-48.16,1729417284819.0,0.0
-4.235296,-8.269595,3.256632,251.580002,-20.23,-41.790001,1729417284820.0,0.0
-2.751746,-6.819544,2.15354,298.200012,-29.889999,-33.880001,1729417284821.0,0.0
-0.751346,-6.771688,2.143969,352.450012,-43.259998,-23.940001,1729417284823.0,0.0
-1.138984,-5.630312,5.761917,411.809998,-28.84,-9.66,1729417284824.0,0.0
-4.804788,-1.11027,7.587641,437.220001,-23.799999,1.54,1729417284825.0,0.0
-4.536791,4.165904,6.455836,327.040009,-27.299999,2.59,1729417284825.0,0.0
-5.709275,1.079163,6.733403,26.74,17.710001,16.030001,1729417284827.0,0.0
-5.996413,-4.165904,6.508478,-106.82,32.34,15.89,1729417284830.0,0.0
-5.594419,-6.415157,7.575676,-155.610001,41.369999,10.78,1729417284843.0,0.0
-5.015356,-5.833702,9.767502,-203.770004,50.68,1.12,1729417284863.0,0.0
-3.694518,-3.960121,9.566505,-294.700012,44.939999,-4.83,1729417284884.0,0.0
-2.26361,-3.424129,7.054041,-351.190002,21.559999,7.56,1729417284905.0,0.0
-2.718246,-3.996014,6.065805,-378.420013,14.91,21.629999,1729417284923.0,0.0
-5.599205,-4.110869,3.017349,-401.450012,20.65,19.32,1729417284943.0,0.0
-7.539784,-7.850852,0.401994,-360.079987,14.84,13.93,1729417284964.0,0.0
-6.79083,-11.720046,-1.256232,-256.829987,-6.02,18.129999,1729417284988.0,0.0
-6.802795,-13.734802,-0.894916,-126.840004,-7.98,18.48,1729417285016.0,0.0
-7.032506,-13.172488,0.492921,-22.26,-3.99,0.35,1729417285026.0,0.0
-6.309873,-11.633904,1.545763,41.09,-14.84,-14.63,1729417285045.0,0.0
-5.271388,-9.516255,-0.002393,73.220001,-24.85,-30.52,1729417285065.0,0.0
-4.792823,-9.832108,-0.847059,113.190002,-22.33,-46.830002,1729417285086.0,0.0
-3.89073,-10.279566,0.344566,158.830002,-20.02,-51.66,1729417285107.0,0.0
-1.990828,-8.204988,-0.150748,236.809998,-17.01,-44.170002,1729417285124.0,0.0
-2.426322,-7.733603,2.199004,405.299988,-7.35,-32.619999,1729417285144.0,0.0
-2.959922,-3.471986,4.254438,470.26001,-13.86,-22.4,1729417285165.0,0.0
-4.010371,0.524028,7.161718,464.450012,-21.77,-8.4,1729417285186.0,0.0
-4.56072,3.809374,6.754939,348.880005,-15.75,-0.56,1729417285206.0,0.0
-5.024928,3.151347,7.898707,162.539993,7.0,14.77,1729417285225.0,0.0
-5.716454,-0.990629,6.850651,-35.77,28.280001,14.77,1729417285244.0,0.0
-5.850451,-6.965507,6.269196,-106.889999,31.710001,13.93,1729417285265.0,0.0
-5.718846,-7.91785,7.63789,-66.919998,34.509998,8.89,1729417285287.0,0.0
-5.534599,-4.910072,9.62154,-21.84,30.52,6.79,1729417285306.0,0.0
-4.924429,-3.292524,10.380065,-95.900002,28.98,6.79,1729417285324.0,0.0
-4.070191,-2.821138,9.963714,-221.899994,25.48,-7.0,1729417285345.0,0.0
-3.534199,-2.251646,7.817351,-321.649994,22.610001,-0.07,1729417285365.0,0.0
-2.87378,-3.720839,4.242475,-348.73999,17.710001,17.57,1729417285440.0,0.0
-2.175076,-4.220939,2.935993,-355.040009,24.219999,26.110001,1729417285449.0,0.0
-4.41715,-5.711668,1.674976,-355.320007,36.400002,30.450001,1729417285450.0,0.0
-7.398607,-9.296116,0.555135,-331.589996,42.0,21.629999,1729417285452.0,0.0
-7.226324,-12.705888,0.083749,-243.880005,16.870001,23.52,1729417285463.0,0.0
-6.888937,-12.789637,0.368495,-68.529999,-11.83,14.63,1729417285486.0,0.0
-7.453642,-11.502297,-0.193819,8.47,-5.39,-9.59,1729417285507.0,0.0
-6.908078,-10.973484,-0.600598,71.050003,-4.83,-24.639999,1729417285524.0,0.0
-6.056234,-11.612368,0.399601,130.410004,-3.99,-37.240002,1729417285544.0,0.0
-5.175675,-11.334801,1.68694,191.380005,-7.42,-42.0,1729417285564.0,0.0
-4.563113,-8.638089,2.892922,262.779999,-10.71,-41.93,1729417285585.0,0.0
-4.149154,-6.532406,3.378666,315.420013,-17.639999,-41.650002,1729417285606.0,0.0
-2.943172,-6.503692,3.347559,345.029999,-35.349998,-38.290001,1729417285624.0,0.0
-1.811367,-5.020142,6.240481,344.820007,-40.110001,-27.02,1729417285646.0,0.0
-3.67059,-2.258825,7.271788,377.160004,-36.119999,-14.77,1729417285665.0,0.0
-4.716253,1.019342,6.896115,315.910004,-37.66,-3.36,1729417285685.0,0.0
-4.898108,2.514857,7.310073,147.070007,-18.969999,-3.5,1729417285705.0,0.0
-6.570691,-0.545564,7.479963,-22.469999,4.06,6.93,1729417285724.0,0.0
-6.096912,-3.421736,6.910471,-137.339996,8.47,4.62,1729417285744.0,0.0
-5.046463,-4.546363,7.264609,-203.910004,17.5,0.63,1729417285764.0,0.0
-3.828516,-5.036892,7.456036,-262.779999,26.040001,-0.07,1729417285785.0,0.0
-2.522035,-3.787838,4.701896,-323.540009,23.799999,3.64,1729417285805.0,0.0
-1.497907,-4.780859,2.486143,-334.25,18.059999,29.33,1729417285824.0,0.0
-2.526821,-6.171089,1.785046,-319.269989,29.190001,43.75,1729417285844.0,0.0
-5.771489,-8.472985,0.579063,-301.910004,38.639999,39.549999,1729417285864.0,0.0
-8.350951,-13.684553,-0.933201,-239.820007,29.540001,20.23,1729417285884.0,0.0
-8.422735,-15.799807,-0.315853,-109.129997,7.7,0.42,1729417285906.0,0.0
-7.369894,-13.337594,0.653241,37.59,-9.52,-16.870001,1729417285925.0,0.0
-6.398407,-10.447062,0.672383,132.229996,-14.21,-29.68,1729417285946.0,0.0
-5.582455,-8.85105,0.928415,175.279999,-15.12,-38.360001,1729417285964.0,0.0
-5.194818,-8.772088,1.928615,198.240005,-15.05,-49.77,1729417285987.0,0.0
-4.503292,-8.46102,3.096312,235.199997,-20.65,-52.43,1729417286007.0,0.0
-3.409772,-7.384251,2.617748,306.25,-24.360001,-40.32,1729417286024.0,0.0
-2.175076,-5.106283,3.328416,354.619995,-24.710001,-28.0,1729417286046.0,0.0
-0.952343,-2.684747,5.76431,342.579987,-32.759998,-19.6,1729417286063.0,0.0
-1.722832,-1.89033,8.712267,304.220001,-24.99,-14.28,1729417286085.0,0.0
-4.051049,-1.964507,8.599805,271.390015,-30.59,4.62,1729417286106.0,0.0
-4.015156,-0.794417,6.965507,195.720001,-28.35,1.54,1729417286124.0,0.0
-5.649454,0.397209,6.922436,34.439999,11.83,6.79,1729417286146.0,0.0
-5.838487,-2.620141,7.109076,-44.59,19.389999,14.21,1729417286164.0,0.0
-5.230711,-5.003392,7.460821,-73.919998,23.1,13.72,1729417286186.0,0.0
-4.441079,-4.701896,8.274381,-97.650002,28.35,7.56,1729417286207.0,0.0
-3.9338,-4.017549,9.860823,-171.360001,36.330002,1.12,1729417286224.0,0.0
-3.034099,-2.892922,9.217153,-290.779999,37.029999,-2.03,1729417286245.0,0.0
-2.06022,-2.160719,6.003592,-381.98999,27.790001,13.440001,1729417286264.0,0.0
-2.165504,-4.364508,3.806981,-406.700012,25.620001,37.170002,1729417286284.0,0.0
-4.309474,-6.556334,2.117648,-415.23999,38.849998,35.630001,1729417286306.0,0.0
-7.554141,-10.037891,0.131605,-369.670013,40.599998,26.389999,1729417286332.0,0.0
-8.678767,-13.861622,-1.105484,-248.080002,23.52,6.93,1729417286345.0,0.0
-7.319644,-14.05544,-0.387637,-67.760002,-0.28,1.12,1729417286365.0,0.0
-6.333801,-12.327823,1.045663,86.379997,-7.42,-4.97,1729417286387.0,0.0
-6.096912,-11.203196,1.859223,152.180008,-6.23,-21.210001,1729417286406.0,0.0
-5.431707,-11.181661,1.39023,184.869995,-12.6,-35.98,1729417286425.0,0.0
-4.771288,-9.030513,1.069592,248.639999,-15.05,-49.0,1729417286446.0,0.0
-3.318845,-5.673382,4.584648,340.899994,-18.059999,-43.610001,1729417286464.0,0.0
-2.579463,-4.926822,5.76431,372.610016,-28.42,-32.48,1729417286486.0,0.0
-2.713461,-2.325824,7.116255,377.860016,-37.310001,-17.5,1729417286506.0,0.0
-2.706282,-0.289532,9.363115,350.420013,-40.529999,-8.82,1729417286524.0,0.0
-3.079563,-1.562513,9.193225,245.070007,-36.610001,-3.5,1729417286544.0,0.0
-3.806981,-1.088734,7.611568,99.540001,-21.0,-10.15,1729417286565.0,0.0
-5.268995,-0.662812,7.341179,1.4,-3.29,-4.41,1729417286586.0,0.0
-5.503492,-1.205983,6.362515,-56.209999,5.11,3.78,1729417286606.0,0.0
-4.649254,-2.931208,7.238289,-82.32,14.07,8.82,1729417286625.0,0.0
-4.201797,-3.491128,8.767302,-130.899994,27.65,3.78,1729417286644.0,0.0
-3.503092,-2.895315,8.975478,-216.860001,33.740002,4.41,1729417286666.0,0.0
-2.586641,-2.15354,7.02772,-303.869995,32.830002,14.84,1729417286686.0,0.0
-1.947758,-3.268596,4.431508,-361.829987,31.710001,31.219999,1729417286707.0,0.0
-1.938186,-5.206782,3.26381,-389.200012,37.450001,41.369999,1729417286727.0,0.0
-4.508078,-7.066005,1.438086,-386.540009,43.119999,47.389999,1729417286746.0,0.0
-7.735995,-10.664811,-0.442672,-317.029999,30.1,32.900002,1729417286766.0,0.0
-6.872187,-11.732009,-0.397209,-204.190002,7.0,29.26,1729417286789.0,0.0
-6.726225,-12.021541,0.528814,-87.010002,-1.05,23.799999,1729417286812.0,0.0
-7.240681,-12.081362,0.744168,-13.37,1.61,6.3,1729417286826.0,0.0
-6.60419,-12.579069,1.205983,29.68,-3.78,-9.17,1729417286845.0,0.0
-6.068198,-12.059827,0.320638,67.340004,-5.74,-27.93,1729417286866.0,0.0
-6.013163,-12.179466,0.062213,140.910004,-4.9,-49.0,1729417286885.0,0.0
-5.106283,-11.255837,0.727418,241.220001,-10.5,-56.279999,1729417286906.0,0.0
-3.223132,-9.396614,2.955136,346.429993,-23.309999,-52.639999,1729417286927.0,0.0
-2.122434,-5.699703,4.041477,421.820007,-34.09,-45.360001,1729417286946.0,0.0
-2.196611,-2.213361,5.12782,455.209991,-43.049999,-31.780001,1729417286966.0,0.0
-2.806781,0.124427,7.649854,442.679993,-48.09,-16.870001,1729417286988.0,0.0
-3.634698,-0.119641,8.587841,343.420013,-43.959999,-11.06,1729417287007.0,0.0
-3.931407,1.493121,7.345965,181.930008,-25.129999,-9.45,1729417287025.0,0.0
-4.914857,1.306481,7.104291,32.970001,-2.73,3.5,1729417287050.0,0.0
-5.333601,-2.227718,6.577869,-77.629997,9.17,12.32,1729417287064.0,0.0
-4.457829,-5.039285,6.888937,-127.260002,17.01,10.43,1729417287086.0,0.0
-4.35733,-4.589434,8.425128,-168.139999,35.700001,5.67,1729417287106.0,0.0
-4.024727,-3.366701,9.24108,-248.360001,39.48,7.7,1729417287126.0,0.0
-2.768496,-2.215754,6.549156,-348.600006,30.870001,14.28,1729417287144.0,0.0
-1.933401,-3.668197,2.455036,-393.890015,26.18,35.07,1729417287165.0,0.0
-2.739782,-7.398607,0.923629,-385.420013,38.220001,49.84,1729417287185.0,0.0
-5.860023,-11.234302,0.567099,-343.350006,51.029999,44.869999,1729417287207.0,0.0
-9.044869,-11.770294,0.382852,-275.799988,48.09,23.66,1729417287225.0,0.0
-7.594819,-11.665009,0.579063,-153.860001,14.14,6.93,1729417287246.0,0.0
-5.642276,-9.822537,1.51705,-55.439999,-2.73,6.79,1729417287265.0,0.0
-5.682954,-9.300901,1.919044,-15.12,4.41,-5.04,1729417287286.0,0.0
-5.446064,-10.652846,1.521835,-7.63,3.08,-13.16,1729417287307.0,0.0
-4.85743,-11.746366,0.366102,25.48,-2.52,-18.48,1729417287325.0,0.0
-5.005785,-12.287145,-1.794617,100.169998,-4.41,-30.73,1729417287345.0,0.0
-5.340781,-11.863614,-0.586242,219.869995,1.26,-55.23,1729417287369.0,0.0
-4.26401,-8.216952,3.046063,345.940002,-12.46,-52.920002,1729417287386.0,0.0
-3.24706,-4.278367,3.407379,456.049988,-34.509998,-31.43,1729417287409.0,0.0
-2.498107,-2.579463,5.058427,485.940002,-42.700001,-28.98,1729417287424.0,0.0
-3.907479,-1.902294,7.238289,450.309998,-35.700001,-8.33,1729417287444.0,0.0
-4.977071,1.105484,9.260223,370.160004,-23.379999,-6.23,1729417287465.0,0.0
-4.694718,2.852244,10.052249,178.080002,-11.55,-5.67,1729417287485.0,0.0
-4.591826,0.698704,8.362915,-12.25,-3.92,3.29,1729417287507.0,0.0
-4.015156,-3.098706,7.207181,-112.349998,1.19,7.84,1729417287525.0,0.0
-3.914658,-5.187639,7.135397,-117.459999,12.25,9.94,1729417287546.0,0.0
-4.254438,-4.522435,9.102298,-100.029999,23.030001,8.4,1729417287564.0,0.0
-4.082155,-3.287738,10.19821,-158.270004,28.98,5.74,1729417287586.0,0.0
-2.9671,-1.20359,8.678767,-277.059998,31.780001,4.41,1729417287617.0,0.0
-1.78026,-0.468993,4.101298,-373.660004,29.26,20.51,1729417287624.0,0.0
-2.002793,-2.500499,1.598405,-406.279999,40.529999,47.740002,1729417287644.0,0.0
-4.828716,-4.742575,1.768296,-414.119995,61.950001,57.470001,1729417287664.0,0.0
-7.319644,-8.573483,1.028914,-385.48999,49.84,40.880001,1729417287686.0,0.0
-7.429714,-11.590833,-0.090927,-290.709991,17.639999,33.459999,1729417287707.0,0.0
-6.745367,-12.366108,-0.591027,-156.729996,-0.84,36.75,1729417287724.0,0.0
-6.893722,-12.617353,-0.344566,-59.639999,-1.75,27.51,1729417287746.0,0.0
-6.683154,-13.148561,0.27996,-24.57,7.77,-6.37,1729417287765.0,0.0
-6.13759,-14.155938,0.088534,69.580002,0.84,-19.25,1729417287787.0,0.0
-5.594419,-12.746566,-1.22034,180.389999,-1.54,-36.470001,1729417287807.0,0.0
-5.218746,-10.461421,-0.035892,318.570007,-1.4,-52.709999,1729417287827.0,0.0
-4.788038,-6.12084,2.624927,434.839996,-8.47,-46.900002,1729417287844.0,0.0
-3.952943,-3.010171,4.646862,514.98999,-30.59,-29.610001,1729417287866.0,0.0
-3.139383,0.200997,7.317252,502.110016,-43.189999,-15.96,1729417287887.0,0.0
-2.897708,0.961915,8.908479,402.01001,-48.509998,-13.37,1729417288131.0,0.0
-3.471986,0.019143,8.049455,270.549988,-38.920002,-3.85,1729417288138.0,0.0
-4.218546,0.18664,6.905686,134.680008,-19.110001,-0.98,1729417288138.0,0.0
-5.773881,-0.555135,6.802795,10.64,3.5,1.61,1729417288138.0,0.0
-6.410372,-1.832902,6.345766,-54.529999,11.83,7.56,1729417288139.0,0.0
-5.816952,-2.651247,6.869793,-75.25,17.710001,9.59,1729417288139.0,0.0
-4.9675,-2.553142,8.496914,-126.559998,24.43,3.43,1729417288139.0,0.0
-4.673182,-2.383251,9.602397,-232.680008,31.780001,-2.1,1729417288140.0,0.0
-4.61097,-2.242075,9.066404,-373.029999,33.880001,-3.71,1729417288140.0,0.0
-3.677768,-3.474378,2.89053,-500.570007,26.110001,0.63,1729417288140.0,0.0
-2.816352,-6.817152,-0.289532,-490.559998,10.08,31.639999,1729417288140.0,0.0
-4.029513,-10.205389,0.272782,-379.190002,13.58,42.77,1729417288141.0,0.0
-5.881558,-9.743573,0.349352,-269.640015,20.16,29.33,1729417288148.0,0.0
-6.683154,-9.389436,-0.921237,-171.779999,8.61,26.110001,1729417288164.0,0.0
-6.135197,-11.10509,-1.799403,-117.459999,3.85,26.32,1729417288194.0,0.0
-5.623133,-12.210573,-1.598405,-82.25,9.45,16.379999,1729417288206.0,0.0
-5.611169,-11.081161,0.088534,-35.77,15.82,5.53,1729417288224.0,0.0
-5.67099,-9.669396,1.351945,7.91,11.41,-0.7,1729417288251.0,0.0
-5.673382,-8.85823,1.442872,29.610001,3.85,-8.05,1729417288264.0,0.0
-5.62074,-9.367901,1.031307,33.110001,-2.1,-11.97,1729417288287.0,0.0
-5.642276,-10.274779,0.224925,36.959999,-3.64,-18.9,1729417288308.0,0.0
-5.67099,-11.358729,-1.086342,73.989998,-5.18,-27.299999,1729417288325.0,0.0
-5.335995,-10.121639,-0.885344,139.440002,-0.28,-40.880001,1729417288347.0,0.0
-5.022535,-8.520842,2.100898,205.240005,-1.19,-44.59,1729417288366.0,0.0
-4.299902,-7.003791,4.065405,259.0,-15.47,-37.59,1729417288386.0,0.0
-3.541377,-5.898308,3.201597,284.619995,-39.689999,-25.9,1729417288406.0,0.0
-3.038885,-5.06082,3.20399,278.670013,-35.0,-23.73,1729417288425.0,0.0
-3.828516,-5.005785,4.532006,273.839996,-15.33,-15.82,1729417288448.0,0.0
-5.041678,-5.201996,5.453243,266.070007,-6.16,-6.79,1729417288466.0,0.0
-5.391029,-4.024727,5.615955,227.5,-2.45,-3.36,1729417288487.0,0.0
-4.878965,-2.423929,5.699703,172.410004,-2.17,-2.8,1729417288509.0,0.0
-4.634897,-2.811567,5.481956,92.190002,6.86,-1.96,1729417288526.0,0.0
-4.345366,-4.151547,5.812167,23.309999,13.37,2.1,1729417288548.0,0.0
-4.45065,-5.257031,6.908078,-2.87,21.210001,6.86,1729417288566.0,0.0
-4.445865,-5.173282,7.300502,-7.98,19.74,9.17,1729417288587.0,0.0
-3.998406,-4.290331,7.334002,-18.059999,15.33,11.34,1729417288608.0,0.0
-3.656233,-4.13719,6.869793,-40.110001,13.93,16.66,1729417288626.0,0.0
-4.161119,-4.955536,7.046863,-63.98,19.25,21.139999,1729417288646.0,0.0
-5.144568,-5.632704,8.169096,-64.540001,17.01,22.190001,1729417288667.0,0.0
-5.15414,-6.149554,6.558727,-52.43,8.19,23.870001,1729417288687.0,0.0
-4.45065,-6.534799,4.900501,-22.26,10.71,15.75,1729417288708.0,0.0
-5.343173,-7.075576,5.532206,35.84,22.26,9.59,1729417288728.0,0.0
-6.283553,-6.915257,6.948757,90.650002,26.040001,-1.89,1729417288746.0,0.0
-5.848059,-7.518249,6.996613,114.099998,21.0,-12.32,1729417288769.0,0.0
-5.76431,-8.645268,6.82433,122.989998,21.559999,-27.51,1729417288796.0,0.0
-6.754939,-7.159326,8.336594,149.240005,19.460001,-45.220001,1729417288810.0,0.0
-6.015556,-4.606184,9.052048,150.430008,3.01,-51.799999,1729417288826.0,0.0
-6.156733,-3.926622,9.879964,117.529999,-8.61,-59.639999,1729417288846.0,0.0
-6.139983,-3.15374,8.647661,86.800003,-21.629999,-62.720001,1729417288866.0,0.0
-5.809773,-3.163311,7.618747,71.470001,-30.309999,-62.02,1729417288887.0,0.0
-4.924429,-0.167498,4.65404,46.060001,-24.219999,-66.43,1729417288918.0,0.0
-6.015556,-1.026521,3.275774,26.809999,-7.56,-57.049999,1729417288926.0,0.0
-5.666204,-1.974079,6.333801,34.369999,8.54,-49.84,1729417288948.0,0.0
-5.575277,-1.98365,8.879765,33.389999,15.33,-45.290001,1729417288967.0,0.0
-4.491328,-0.607777,9.114261,30.59,0.84,-36.259998,1729417288990.0,0.0
-3.476771,-1.009771,9.262616,3.78,-8.26,-21.0,1729417289007.0,0.0
-2.124826,0.485743,8.128418,-5.25,-9.87,-8.54,1729417289028.0,0.0
-3.189633,-2.203789,7.066005,-33.32,-1.96,8.54,1729417289047.0,0.0
-3.696911,-3.309274,6.745367,-11.62,3.36,15.61,1729417289066.0,0.0
-2.411965,-0.648455,6.673582,20.51,7.98,23.24,1729417289087.0,0.0
-3.017349,-0.818345,7.058826,11.2,18.059999,38.150002,1729417289107.0,0.0
-2.921637,-0.272782,6.412765,-1.68,26.18,51.939999,1729417289127.0,0.0
-4.414758,-1.825724,6.087341,-5.04,33.670002,71.959999,1729417289148.0,0.0
-6.099305,-4.232903,6.530013,-5.6,42.0,80.779999,1729417289167.0,0.0
-8.489735,-6.446264,7.211967,18.83,41.93,70.699997,1729417289190.0,0.0
-9.513863,-6.199803,9.97807,44.799999,31.780001,51.52,1729417289208.0,0.0
-9.365508,-7.221539,9.454042,5.6,9.66,10.08,1729417289227.0,0.0
-6.888937,-5.367101,9.10469,7.28,-7.28,-14.28,1729417289247.0,0.0
-7.365108,-5.505885,8.391629,1.82,-14.0,-31.219999,1729417289266.0,0.0
-6.333801,-2.945565,7.362715,6.3,-20.23,-42.07,1729417289288.0,0.0
-6.051448,-3.57727,6.312266,3.22,-20.58,-43.119999,1729417289306.0,0.0
-6.238089,-4.414758,6.874579,5.25,-15.75,-54.950001,1729417289326.0,0.0
-5.053641,-2.232504,8.487342,40.459999,-14.98,-58.799999,1729417289345.0,0.0
-2.799603,0.849452,9.925428,27.58,-15.54,-49.700001,1729417289366.0,0.0
-1.275374,2.931208,8.492127,-22.68,-16.59,-30.450001,1729417289388.0,0.0
-1.998007,0.990629,5.776274,-75.389999,-13.23,-2.8,1729417289408.0,0.0
-3.383451,-1.90708,4.39083,-73.639999,-1.26,18.200001,1729417289426.0,0.0
-3.108276,-0.701097,5.508278,-11.13,11.9,34.790001,1729417289446.0,0.0
-3.464807,0.48335,6.812366,25.969999,23.52,52.009998,1729417289466.0,0.0
-4.630112,-0.062213,6.144768,0.21,31.43,63.84,1729417289486.0,0.0
-5.630312,-2.206182,7.042077,-30.380001,39.48,76.93,1729417289508.0,0.0
-10.092925,-8.532805,6.101698,-53.48,42.490002,64.470001,1729417289526.0,0.0
-8.941978,-9.753145,7.271788,-1.61,30.1,36.82,1729417289546.0,0.0
-7.283752,-7.537392,9.152546,35.209999,13.58,0.77,1729417289567.0,0.0
-7.941778,-5.833702,10.30828,32.689999,-2.03,-17.639999,1729417289588.0,0.0
-8.216952,-5.599205,10.554741,6.23,-25.549999,-39.060001,1729417289614.0,0.0
-6.111269,-2.89053,8.449057,-2.17,-42.77,-52.5,1729417289634.0,0.0
-4.520042,-0.277567,6.293124,-7.49,-39.060001,-47.040001,1729417289649.0,0.0
-5.63749,-2.514857,6.118448,-30.1,-24.01,-43.259998,1729417289666.0,0.0
-4.934,-3.18724,9.059227,-8.82,-13.02,-45.150002,1729417289687.0,0.0
-3.649055,-1.765903,10.011569,47.950001,-15.82,-38.779999,1729417289707.0,0.0
-2.017149,0.875773,10.676775,36.189999,-18.83,-30.030001,1729417289725.0,0.0
-1.39023,1.962115,7.836494,-29.82,-20.93,-12.32,1729417289747.0,0.0
-2.354537,-1.26341,5.053641,-77.559998,-13.02,6.72,1729417289766.0,0.0
-3.605984,-2.402394,4.199404,-45.990002,3.01,23.030001,1729417289787.0,0.0
-2.352145,0.885344,5.072784,16.59,19.74,42.209999,1729417289808.0,0.0
-3.605984,0.957129,5.821737,24.5,37.240002,64.050003,1729417289826.0,0.0
-6.037091,-0.815953,5.745167,-10.5,48.09,78.330002,1729417289846.0,0.0
-10.085747,-8.956335,6.333801,-35.700001,49.560001,93.169998,1729417289867.0,0.0
-11.497513,-9.810574,7.9681,-11.55,35.490002,54.670002,1729417289887.0,0.0
-9.078369,-7.757531,9.262616,38.709999,5.67,14.28,1729417289906.0,0.0
-7.503892,-5.264209,9.994821,47.389999,-10.5,-13.3,1729417289926.0,0.0
-7.06122,-4.73061,9.607183,-0.07,-21.280001,-39.34,1729417289949.0,0.0
-6.407979,-5.816952,8.987441,-23.52,-32.619999,-51.099998,1729417289971.0,0.0
-5.510671,-3.823731,7.092326,0.21,-40.040001,-56.420002,1729417289990.0,0.0
-4.211368,-1.756332,5.479564,22.960001,-34.860001,-55.650002,1729417290007.0,0.0
-5.103891,-3.457629,6.948757,5.53,-17.360001,-59.220001,1729417290027.0,0.0
-4.271189,-1.507478,9.671788,35.139999,-9.17,-55.580002,1729417290046.0,0.0
-3.067599,-1.316052,9.676575,37.029999,-17.639999,-45.220001,1729417290065.0,0.0
-2.208575,-0.490529,9.657433,18.76,-18.76,-34.299999,1729417290087.0,0.0
-1.165305,2.227718,7.233503,-21.629999,-17.290001,-17.01,1729417290107.0,0.0
-1.974079,-0.26321,5.070391,-68.879997,-6.79,7.28,1729417290125.0,0.0
-3.235096,-1.926222,4.76411,-53.48,9.66,24.57,1729417290147.0,0.0
-2.179861,0.693919,5.367101,4.48,24.01,45.709999,1729417290167.0,0.0
-4.496114,0.050249,6.056234,-3.01,39.41,66.639999,1729417290186.0,0.0
-4.981857,0.409173,6.008378,-24.85,48.93,85.260002,1729417290207.0,0.0
-11.684153,-9.346365,5.757132,-68.459999,53.689999,84.699997,1729417290225.0,0.0
-10.753345,-11.91147,7.834101,-19.389999,35.490002,41.439999,1729417290247.0,0.0
-8.051848,-6.970293,9.370294,32.34,10.36,-6.51,1729417290266.0,0.0
-7.166504,-3.960121,10.018748,28.49,-5.39,-24.43,1729417290287.0,0.0
-7.724032,-4.87418,9.753145,-16.450001,-20.93,-38.43,1729417290306.0,0.0
-6.594619,-4.969893,7.657032,-12.11,-35.98,-48.16,1729417290326.0,0.0
-4.498507,-1.909473,6.020342,16.030001,-35.77,-53.27,1729417290346.0,0.0
-5.551349,-4.565506,7.23111,10.64,-21.559999,-54.110001,1729417290367.0,0.0
-4.395615,-2.761317,10.121639,37.380001,-12.95,-60.549999,1729417290475.0,0.0
-2.632105,-0.964308,10.246067,38.080002,-21.35,-54.459999,1729417290477.0,0.0
-1.153341,-0.449851,10.303494,8.82,-25.48,-43.540001,1729417290478.0,0.0
-1.007378,0.794417,8.939585,-18.41,-25.690001,-26.950001,1729417290478.0,0.0
-1.20359,1.363909,6.30748,-47.389999,-21.559999,-3.29,1729417290482.0,0.0
-2.761317,-0.394816,4.979464,-66.220001,-7.42,24.360001,1729417290507.0,0.0
-2.924029,-0.770489,4.630112,-40.810001,7.77,46.900002,1729417290508.0,0.0
-3.993621,-0.952343,4.663611,-2.8,24.780001,70.0,1729417290526.0,0.0
-5.156533,-0.234497,4.393222,0.21,41.299999,84.980003,1729417290548.0,0.0
-9.262616,-8.092526,6.599405,-21.280001,52.990002,95.059998,1729417290565.0,0.0
-12.32543,-12.126825,7.946564,-23.52,41.650002,51.73,1729417290588.0,0.0
-8.228917,-8.903693,9.638289,23.309999,8.26,3.15,1729417290608.0,0.0
-6.814759,-5.690133,9.614362,40.950001,-10.85,-24.15,1729417290626.0,0.0
-6.850651,-4.833502,8.537591,21.98,-23.17,-39.060001,1729417290653.0,0.0
-4.67079,-2.368894,6.424729,30.030001,-27.02,-50.889999,1729417290683.0,0.0
-5.414958,-3.110669,5.924629,40.110001,-16.870001,-46.900002,1729417290702.0,0.0
-6.24766,-5.103891,7.211967,47.950001,-7.35,-59.290001,1729417290712.0,0.0
-5.740381,-3.924229,9.542577,86.800003,-5.81,-71.190002,1729417290734.0,0.0
-3.871587,-1.07677,11.263017,102.059998,-13.93,-73.639999,1729417290747.0,0.0
-1.964507,1.194018,10.872985,54.529999,-24.360001,-64.540001,1729417290767.0,0.0
-0.232104,4.055835,8.846266,-18.620001,-28.35,-34.790001,1729417290788.0,0.0
-0.026321,3.04367,5.74756,-84.980003,-22.26,3.22,1729417290810.0,0.0
-1.074377,1.435694,4.455436,-92.68,-3.99,38.43,1729417290827.0,0.0
-1.277767,0.696311,4.268795,-47.529999,15.190001,66.849998,1729417290855.0,0.0
-4.627719,-0.244068,4.508078,-25.27,40.110001,92.68,1729417290866.0,0.0
-6.008378,-5.089533,5.510671,-20.440001,57.330002,111.790001,1729417290888.0,0.0
-10.590633,-11.274981,7.396214,-32.27,69.160004,85.959999,1729417290908.0,0.0
-10.8682,-12.358929,8.595018,3.43,48.860001,48.299999,1729417290927.0,0.0
-7.984849,-7.183254,10.755738,57.260002,18.83,5.18,1729417290947.0,0.0
-7.609176,-4.398008,11.485549,41.299999,-2.94,-14.35,1729417290968.0,0.0
-7.429714,-6.405586,8.99462,-10.71,-26.389999,-38.920002,1729417290992.0,0.0
-5.314459,-2.864209,6.838687,17.360001,-40.880001,-55.860001,1729417291017.0,0.0
-5.570491,-3.926622,6.314659,22.889999,-29.610001,-59.639999,1729417291026.0,0.0
-5.596812,-5.4341,7.396214,15.89,-19.950001,-82.18,1729417291046.0,0.0
-4.165904,-1.859223,9.667004,58.73,-22.4,-84.769997,1729417291069.0,0.0
-2.787638,0.399601,9.923036,62.580002,-33.32,-75.459999,1729417291089.0,0.0
-1.383051,2.481357,9.475577,19.389999,-39.41,-57.049999,1729417291107.0,0.0
0.172283,4.59422,5.893522,-58.380001,-31.57,-26.110001,1729417291132.0,0.0
-0.495314,1.421337,3.9338,-109.690002,-12.6,16.24,1729417291203.0,0.0
-1.751546,0.502493,4.488935,-75.040001,11.2,47.670002,1729417291204.0,0.0
-2.584249,0.531207,5.331209,-18.129999,27.790001,77.209999,1729417291204.0,0.0
-5.575277,-1.28016,6.896115,-19.040001,44.66,95.129997,1729417291208.0,0.0
-5.989235,-3.285345,6.994221,-16.1,47.18,110.459999,1729417291226.0,0.0
-11.114661,-10.403993,7.57089,-33.810001,51.170002,88.480003,1729417291257.0,0.0
-10.131211,-13.653446,9.044869,5.32,31.43,47.670002,1729417291269.0,0.0
-9.169296,-10.049855,12.222539,74.480003,5.6,-0.56,1729417291287.0,0.0
-8.930015,-5.438886,12.229716,82.669998,-22.120001,-32.41,1729417291307.0,0.0
-6.092126,-3.225525,5.668597,-4.34,-46.060001,-69.790001,1729417291331.0,0.0
-4.493721,-3.495914,3.706482,-0.42,-29.33,-79.309998,1729417291351.0,0.0
-5.120641,-4.790431,5.606383,21.91,-7.98,-92.82,1729417291367.0,0.0
-3.558127,-0.863809,8.487342,79.029999,-4.27,-89.739998,1729417291387.0,0.0
-1.619941,2.935993,10.006784,79.660004,-9.8,-71.470001,1729417291407.0,0.0
-0.083749,4.23051,9.872787,8.61,-13.23,-41.720001,1729417291426.0,0.0
-0.009571,2.9336,7.245467,-72.239998,-9.24,-2.66,1729417291446.0,0.0
-2.199004,-1.380659,5.319244,-98.489998,-0.14,32.41,1729417291466.0,0.0
-2.754139,-1.514657,5.491528,-39.900002,8.89,56.07,1729417291487.0,0.0
-2.89053,-0.327817,5.76431,12.95,18.549999,74.900002,1729417291507.0,0.0
-5.166104,-1.696511,6.862615,5.32,33.599998,86.379997,1729417291526.0,0.0
-7.252645,-7.046863,6.987042,-13.16,43.330002,104.790001,1729417291546.0,0.0
-11.41137,-10.241282,7.006185,-43.189999,48.650002,66.639999,1729417291565.0,0.0
-6.915257,-8.750552,8.68116,10.71,25.200001,33.459999,1729417291586.0,0.0
-8.475377,-7.204789,10.681561,34.509998,16.73,6.3,1729417291606.0,0.0
-9.284152,-6.360123,11.531013,15.82,-6.44,-19.74,1729417291625.0,0.0
-7.049256,-3.550949,6.501299,-1.89,-35.139999,-41.299999,1729417291645.0,0.0
-4.364508,-1.028914,4.350152,-13.23,-39.130001,-60.549999,1729417291696.0,0.0
-5.575277,-3.948158,4.948357,-21.35,-15.05,-64.68,1729417291698.0,0.0
-4.912465,-4.304688,7.860423,13.79,-3.5,-72.099998,1729417291715.0,0.0
-3.117848,-0.440279,9.600004,59.150002,-6.79,-64.470001,1729417291737.0,0.0
-0.87338,1.90708,10.128819,36.049999,-12.81,-45.43,1729417291746.0,0.0
-0.756132,1.694118,9.595219,-30.66,-10.08,-21.629999,1729417291765.0,0.0
-1.304088,0.294317,7.290931,-83.300003,-5.95,2.94,1729417291787.0,0.0
-2.108077,-1.311267,6.226124,-79.239998,0.91,26.74,1729417291806.0,0.0
-2.323431,-0.514457,6.166305,-38.639999,9.03,51.450001,1729417291836.0,0.0
-3.148954,-0.497707,6.128019,-26.32,18.48,73.639999,1729417291847.0,0.0
-5.084748,0.684347,4.991428,-46.549999,29.33,90.790001,1729417291866.0,0.0
-9.676575,-9.281759,5.292924,-58.59,39.900002,107.449997,1729417291887.0,0.0
-11.172089,-11.174481,7.233503,-53.27,41.299999,56.630001,1729417291907.0,0.0
-6.4343,-7.458428,7.896315,1.47,17.219999,23.030001,1729417291926.0,0.0
-7.195218,-5.589634,9.999605,15.96,10.92,13.72,1729417291947.0,0.0
-8.973085,-6.532406,10.10489,-22.469999,-9.59,-1.05,1729417291967.0,0.0
-6.831509,-6.355337,5.642276,-28.139999,-38.220001,-19.809999,1729417291992.0,0.0
-4.713861,-4.139583,4.74736,22.540001,-35.91,-45.150002,1729417292012.0,0.0
-5.398208,-4.469792,6.183054,29.540001,-13.79,-62.02,1729417292027.0,0.0
-5.082355,-2.404787,8.556733,50.889999,-4.83,-66.290001,1729417292048.0,0.0
-3.486342,-0.564706,10.07139,46.689999,-10.22,-57.68,1729417292071.0,0.0
-1.462015,0.495314,9.399008,10.01,-16.940001,-42.84,1729417292087.0,0.0
-0.691526,1.222732,8.13799,-33.599998,-14.28,-18.83,1729417292109.0,0.0
-1.284946,0.61017,6.096912,-65.519997,-5.46,10.01,1729417292126.0,0.0
-2.818745,-1.213161,5.161318,-68.459999,8.33,35.07,1729417292146.0,0.0
-2.931208,-1.40698,5.300103,-34.23,20.440001,56.91,1729417292166.0,0.0
-4.208975,-1.155733,4.800002,-13.51,32.970001,76.090004,1729417292187.0,0.0
-5.56092,-2.766103,4.864608,-5.18,45.920002,95.550003,1729417292207.0,0.0
-14.222939,-11.212767,5.010571,-38.360001,58.029999,76.300003,1729417292227.0,0.0
-8.020741,-9.750752,6.668797,3.92,32.970001,29.889999,1729417292246.0,0.0
-6.403193,-5.350351,9.174082,78.260002,20.860001,15.75,1729417292266.0,0.0
-8.738588,-5.752346,10.593026,49.91,10.01,2.59,1729417292287.0,0.0
-8.812766,-7.334002,10.164711,18.48,-14.14,-22.68,1729417292314.0,0.0
-6.403193,-4.309474,7.341179,37.029999,-34.860001,-46.34,1729417292333.0,0.0
-6.295516,-4.819145,5.675776,22.469999,-32.060001,-66.150002,1729417292348.0,0.0
-6.290731,-5.20439,6.396015,16.309999,-21.42,-79.449997,1729417292365.0,0.0
-5.228317,-3.09392,8.874979,39.549999,-18.690001,-84.840004,1729417292387.0,0.0
-3.359523,-1.421337,8.839087,41.16,-26.809999,-80.849998,1729417292408.0,0.0
-1.737189,1.069592,8.463413,25.48,-30.24,-62.790001,1729417292427.0,0.0
-0.399601,3.096312,7.080362,-10.29,-26.25,-32.830002,1729417292452.0,0.0
-1.4668,1.318445,5.821737,-46.48,-14.0,2.66,1729417292467.0,0.0
-2.888137,0.028714,4.890929,-51.380001,0.35,29.540001,1729417292486.0,0.0
-1.880759,1.081556,4.84068,-22.120001,12.39,57.959999,1729417292508.0,0.0
-3.689733,0.346959,5.003392,-19.389999,31.57,87.010002,1729417292526.0,0.0
-5.879165,-1.684547,6.075377,-37.099998,48.02,106.540001,1729417292546.0,0.0
-6.843473,-3.981657,6.63769,-45.360001,53.970001,120.610001,1729417292566.0,0.0
-14.450255,-13.514663,6.223732,-73.150002,57.889999,98.0,1729417292587.0,0.0
-11.095518,-12.449856,7.664211,-15.68,27.719999,38.43,1729417292608.0,0.0
-7.9346,-5.862415,9.01137,55.09,2.73,-4.2,1729417292629.0,0.0
-6.798009,-4.82393,8.092526,28.07,-20.65,-41.439999,1729417292648.0,0.0
-6.015556,-4.627719,6.589834,1.89,-26.18,-55.720001,1729417292666.0,0.0
-4.9675,-4.240082,5.919843,14.91,-24.01,-56.209999,1729417292688.0,0.0
-5.98445,-5.807381,7.075576,23.59,-14.56,-64.68,1729417292710.0,0.0
-5.414958,-2.938386,9.262616,62.510002,-14.56,-73.5,1729417292727.0,0.0
-4.275974,0.538385,9.626326,61.599998,-25.34,-67.410004,1729417292747.0,0.0
-1.775474,1.514657,8.752945,12.81,-32.830002,-50.119999,1729417292766.0,0.0
-0.954736,0.827917,8.262416,-35.84,-25.620001,-23.24,1729417292790.0,0.0
-1.342373,0.538385,6.221339,-56.98,-14.42,9.73,1729417292811.0,0.0
-1.744368,0.595813,5.35753,-48.720001,-1.19,42.700001,1729417292830.0,0.0
-2.672783,0.468993,5.290531,-33.110001,13.23,71.610001,1729417292849.0,0.0
-4.680361,-0.799203,6.312266,-33.25,28.77,94.220001,1729417292871.0,0.0
-7.441679,-5.536992,6.65444,-50.330002,39.48,105.279999,1729417292892.0,0.0
-13.435699,-12.808779,5.087141,-70.699997,43.889999,76.230003,1729417292912.0,0.0
-5.62074,-5.828916,6.642475,40.110001,14.28,17.92,1729417292931.0,0.0
-6.285945,-5.192425,8.068598,39.130001,14.98,6.37,1729417292948.0,0.0
-8.10449,-7.066005,9.482756,10.85,4.06,-6.23,1729417292968.0,0.0
-8.748159,-9.310472,9.564112,1.47,-17.360001,-35.91,1729417292994.0,0.0
-7.018148,-5.431707,7.685746,37.310001,-37.52,-60.830002,1729417293016.0,0.0
-6.515656,-4.338188,5.795416,33.740002,-34.580002,-74.620003,1729417293028.0,0.0
-6.678369,-4.575077,6.52762,21.35,-21.35,-90.160004,1729417293049.0,0.0
-4.881358,-2.048256,8.49452,40.459999,-17.780001,-94.290001,1729417293068.0,0.0
-2.517249,1.505085,8.516055,44.73,-20.860001,-78.400002,1729417293095.0,0.0
0.22014,3.335595,9.020942,14.84,-23.030001,-45.709999,1729417293111.0,0.0
-0.394816,3.960121,6.496514,-41.02,-11.97,-3.99,1729417293128.0,0.0
-2.0004,1.899901,4.369294,-81.199997,3.01,36.959999,1729417293148.0,0.0
-2.478964,0.547956,4.252046,-71.260002,17.710001,66.43,1729417293173.0,0.0
-4.031906,-1.033699,5.599205,-22.889999,32.060001,96.459999,1729417293190.0,0.0
-6.592227,-2.404787,6.396015,-9.66,42.77,109.970001,1729417293211.0,0.0
-9.221939,-9.025726,6.666404,-22.26,45.43,108.989998,1729417293228.0,0.0
-11.57169,-12.727424,6.302694,-49.420002,43.959999,60.900002,1729417293248.0,0.0
-6.67119,-8.408379,8.157133,44.52,8.26,-9.17,1729417293268.0,0.0
-7.982457,-6.022735,8.798409,52.990002,1.61,-30.59,1729417293291.0,0.0
-8.015956,-6.455836,8.319844,29.889999,-18.059999,-52.150002,1729417293313.0,0.0
-6.573084,-4.517649,6.07777,26.6,-30.73,-72.800003,1729417293328.0,0.0
-5.091926,-3.871587,5.800202,46.34,-25.41,-73.43,1729417293347.0,0.0
-5.443672,-4.601398,7.142576,60.130001,-10.99,-82.459999,1729417293367.0,0.0
-5.017749,-1.430908,9.662218,92.120003,-5.39,-84.419998,1729417293388.0,0.0
-4.010371,1.095913,10.561919,69.93,-14.49,-74.199997,1729417293407.0,0.0
-3.244668,1.117448,9.463614,10.78,-26.880001,-58.939999,1729417293427.0,0.0
-2.909672,0.260818,7.377072,-35.279999,-28.700001,-38.5,1729417293447.0,0.0
-1.414158,0.117248,5.166104,-46.27,-17.43,-16.1,1729417293468.0,0.0
-1.734797,-1.002593,5.032106,-18.620001,6.65,11.62,1729417293488.0,0.0
-3.249453,0.071785,6.238089,27.860001,24.710001,37.52,1729417293507.0,0.0
-3.184847,1.526621,7.116255,44.029999,30.1,64.82,1729417293527.0,0.0
-4.87418,-0.026321,7.106683,0.28,34.439999,85.330002,1729417293548.0,0.0
-5.943772,-5.185246,6.168696,-38.779999,38.080002,103.599998,1729417293567.0,0.0
-13.124631,-12.253645,6.666404,-75.949997,44.799999,83.019997,1729417293589.0,0.0
-6.685547,-7.810174,7.599605,17.780001,3.5,19.040001,1729417293608.0,0.0
-7.049256,-4.850252,8.796017,37.310001,-0.07,-4.97,1729417293632.0,0.0
-7.879565,-5.352744,8.970692,18.27,-14.91,-19.67,1729417293648.0,0.0
-7.877172,-5.85763,7.264609,4.55,-29.610001,-42.279999,1729417293667.0,0.0
-6.932007,-4.759324,6.568298,29.75,-34.299999,-54.599998,1729417293688.0,0.0
-6.652047,-5.503492,6.932007,32.689999,-27.440001,-71.050003,1729417293709.0,0.0
-5.893522,-4.21376,8.941978,52.009998,-23.24,-89.389999,1729417293728.0,0.0
-4.706682,-0.509671,10.19821,65.169998,-30.940001,-87.779999,1729417293747.0,0.0
-2.538785,1.354338,8.973085,26.040001,-41.23,-76.230003,1729417293768.0,0.0
-1.261017,1.926222,8.243275,-27.09,-40.110001,-53.830002,1729417293788.0,0.0
-1.292124,1.239482,5.900701,-67.129997,-31.5,-25.27,1729417293809.0,0.0
-2.06022,-0.311067,4.295116,-64.470001,-15.68,5.18,1729417293827.0,0.0
-2.316252,0.445065,3.993621,-22.68,3.36,28.139999,1729417293847.0,0.0
-2.148755,2.273181,5.264209,23.870001,20.58,56.490002,1729417293868.0,0.0
-4.15394,1.344766,6.608976,18.83,36.889999,80.849998,1729417293889.0,0.0
-4.792823,1.579263,6.640083,-3.43,46.060001,106.120003,1729417293909.0,0.0
-11.397014,-9.315259,6.405586,-52.779999,54.599998,96.389999,1729417293927.0,0.0
-8.056634,-9.157332,7.563712,-56.84,42.07,63.490002,1729417293948.0,0.0
-6.379266,-6.812366,8.786445,-12.67,31.639999,49.700001,1729417293967.0,0.0
-6.293124,-4.261617,9.609575,-1.47,18.620001,35.98,1729417293994.0,0.0
-5.919843,-2.395216,9.444471,-35.700001,4.55,28.700001,1729417294008.0,0.0
-5.407779,-1.141376,8.338986,-102.620003,-3.85,28.700001,1729417294027.0,0.0
-5.649454,-0.897308,7.578069,-169.050003,-6.23,31.219999,1729417294047.0,0.0
-6.448657,-2.368894,6.912865,-238.070007,-9.59,33.740002,1729417294067.0,0.0
-7.025328,-5.259424,6.786045,-281.820007,-19.460001,31.639999,1729417294088.0,0.0
-7.025328,-4.74736,7.152147,-287.420013,-31.08,26.67,1729417294109.0,0.0
-6.577869,-3.268596,6.211767,-302.610016,-44.799999,28.49,1729417294128.0,0.0
-6.388836,-2.766103,3.854837,-345.170013,-51.029999,29.889999,1729417294148.0,0.0
-6.843473,-5.156533,1.562513,-379.679993,-51.450001,31.43,1729417294167.0,0.0
-7.283752,-9.896714,0.277567,-389.619995,-50.189999,18.549999,1729417294189.0,0.0
-6.733403,-12.153147,-0.622134,-341.040009,-52.990002,-1.05,1729417294209.0,0.0
-5.580062,-12.715459,-1.986043,-254.520004,-53.970001,-21.210001,1729417294227.0,0.0
-4.898108,-12.004791,-1.251446,-143.710007,-39.689999,-34.650002,1729417294248.0,0.0
-3.907479,-9.810574,-1.98365,-2.03,-21.77,-37.450001,1729417294267.0,0.0
-3.239882,-9.803394,-1.921437,31.08,0.07,-40.740002,1729417294360.0,0.0
-3.665804,-9.516255,-0.859023,50.959999,22.540001,-41.02,1729417294364.0,0.0
-4.118048,-9.602397,0.12682,51.310001,36.259998,-41.650002,1729417294366.0,0.0
-3.89073,-9.600004,0.306281,70.840004,35.630001,-39.549999,1729417294370.0,0.0
-3.144169,-7.460821,-0.002393,131.600006,28.630001,-21.49,1729417294373.0,0.0
-2.457429,-5.438886,0.789631,173.320007,32.34,-5.32,1729417294403.0,0.0
-3.270989,-4.524827,2.500499,179.690002,44.240002,13.72,1729417294409.0,0.0
-4.539185,-3.783052,4.479364,176.119995,43.330002,29.960001,1729417294456.0,0.0
-5.242674,-3.058028,5.211568,149.309998,29.33,42.700001,1729417294459.0,0.0
-7.23111,-4.259224,12.689137,103.809998,13.23,57.470001,1729417294467.0,0.0
-7.556533,-2.517249,7.795816,-5.81,-8.68,59.57,1729417294487.0,0.0
-5.883951,-4.876573,4.058227,-157.220001,-15.26,56.209999,1729417294507.0,0.0
-6.766902,-9.312866,2.435893,-204.399994,-7.56,50.189999,1729417294526.0,0.0
-8.154739,-11.456835,1.600798,-154.559998,-6.86,37.450001,1729417294546.0,0.0
-7.987241,-12.105289,1.067199,-85.400002,-12.88,22.610001,1729417294566.0,0.0
-7.427321,-9.320045,-0.153141,-12.25,-12.95,3.85,1729417294587.0,0.0
-7.156933,-7.946564,0.380459,52.220001,1.82,-18.27,1729417294609.0,0.0
-7.613962,-7.905886,1.344766,51.310001,13.93,-33.25,1729417294626.0,0.0
-8.492127,-9.243474,1.914258,38.990002,18.76,-49.0,1729417294646.0,0.0
-9.054441,-8.721838,1.088734,24.360001,23.870001,-70.699997,1729417294667.0,0.0
-8.999406,-8.453842,0.425922,-7.56,32.900002,-90.370003,1729417294688.0,0.0
-8.015956,-8.745767,-0.270389,-54.389999,44.240002,-110.879997,1729417294709.0,0.0
-6.099305,-10.358529,-1.301696,-59.990002,50.959999,-124.949997,1729417294727.0,0.0
-2.333002,-7.743174,-0.51685,25.969999,48.369999,-128.800003,1729417294747.0,0.0
0.789631,-6.228518,5.13739,179.270004,31.01,-80.010002,1729417294767.0,0.0
-1.497907,-2.758924,10.080962,222.110001,25.83,-61.32,1729417294788.0,0.0
-1.765903,1.105484,12.485749,166.529999,1.19,-22.120001,1729417294818.0,0.0
0.229711,0.665205,9.432507,-16.73,-27.719999,-4.41,1729417294827.0,0.0
-0.198604,-6.403193,4.352544,-162.820007,-43.610001,16.030001,1729417294848.0,0.0
-2.177469,-13.031311,1.28016,-150.220001,-33.040001,35.420002,1729417294867.0,0.0
-3.787838,-11.825329,0.808774,-32.48,-24.290001,49.420002,1729417294888.0,0.0
-2.971886,-6.817152,0.847059,74.830002,-27.58,61.32,1729417294908.0,0.0
-4.663611,-6.436693,1.931008,94.919998,-17.780001,71.120003,1729417294927.0,0.0
-6.953543,-7.769495,3.29731,61.18,-0.7,69.93,1729417294947.0,0.0
-8.853443,-8.724231,3.964907,24.5,1.96,57.119999,1729417294967.0,0.0
-10.042676,-11.169697,2.433501,-25.76,7.49,28.77,1729417294992.0,0.0
-10.375278,-12.859028,1.055235,-36.68,22.049999,-10.78,1729417295008.0,0.0
-10.109675,-13.51227,1.409373,-2.17,35.700001,-50.049999,1729417295028.0,0.0
-9.937392,-11.600404,2.490928,27.719999,42.209999,-88.129997,1729417295048.0,0.0
-7.350751,-6.896115,1.284946,27.719999,45.150002,-115.080002,1729417295067.0,0.0
-3.292524,-5.125426,-0.435494,-29.889999,46.34,-116.340004,1729417295088.0,0.0
4.520042,-7.89153,4.819145,91.419998,36.119999,-83.090004,1729417295108.0,0.0
1.0002,0.904487,12.464212,201.669998,48.439999,-53.130001,1729417295127.0,0.0
-3.294917,2.912065,13.674981,101.150002,31.99,-11.27,1729417295148.0,0.0
0.375673,-3.680161,8.171489,-75.25,-10.08,4.76,1729417295167.0,0.0
0.468993,-9.777073,3.768696,-105.419998,-26.74,28.42,1729417295188.0,0.0
-2.565106,-11.420943,2.775674,-41.790001,-17.92,56.349998,1729417295208.0,0.0
-4.924429,-9.420543,2.74696,12.04,-20.370001,65.870003,1729417295226.0,0.0
-4.09412,-5.639884,1.440479,34.860001,-30.799999,70.910004,1729417295246.0,0.0
-6.360123,-6.84108,1.921437,42.700001,-29.75,84.489998,1729417295268.0,0.0
-9.190832,-8.726624,2.782853,5.95,-8.05,71.68,1729417295288.0,0.0
-10.147961,-10.262815,2.041078,-28.42,-3.29,48.23,1729417295308.0,0.0
-10.762917,-12.344571,0.622134,-36.189999,6.09,12.74,1729417295327.0,0.0
-10.545169,-12.780065,0.177069,-3.57,17.57,-26.809999,1729417295346.0,0.0
-10.789237,-12.064612,1.100698,24.710001,30.24,-70.419998,1729417295367.0,0.0
-8.705089,-7.963314,0.820738,27.65,38.220001,-107.099998,1729417295442.0,0.0
-6.032306,-7.659425,0.729811,20.299999,43.400002,-120.68,1729417295444.0,0.0
1.184447,-5.929415,5.800202,118.790001,40.18,-100.660004,1729417295454.0,0.0
2.608176,-0.868595,12.461821,242.059998,32.689999,-68.739998,1729417295456.0,0.0
-3.35713,5.192425,16.804794,175.350006,27.370001,-25.48,1729417295466.0,0.0
-1.103091,0.926022,10.975878,-39.130001,-24.360001,-6.44,1729417295488.0,0.0
2.230111,-6.348158,5.051248,-140.699997,-49.84,11.9,1729417295509.0,0.0
-0.052642,-11.253445,3.127419,-101.639999,-26.6,40.670002,1729417295526.0,0.0
-3.921836,-9.614362,3.488736,-25.34,-11.62,57.470001,1729417295546.0,0.0
-3.668197,-5.300103,2.98385,24.360001,-22.889999,68.25,1729417295585.0,0.0
-4.62054,-5.737988,1.926222,31.710001,-28.700001,79.239998,1729417295588.0,0.0
-6.853044,-7.458428,3.223132,21.210001,-17.15,86.449997,1729417295607.0,0.0
-9.042477,-7.551748,4.065405,-4.06,-5.18,80.220001,1729417295628.0,0.0
-10.789237,-10.25803,3.613162,-43.259998,-1.75,58.450001,1729417295647.0,0.0
-11.892329,-13.028918,2.053042,-60.900002,5.67,12.6,1729417295666.0,0.0
-10.638489,-11.41137,1.304088,-24.219999,15.33,-31.290001,1729417295688.0,0.0
-10.126426,-13.361522,3.658626,27.299999,24.08,-68.599998,1729417295718.0,0.0
-9.255438,-8.997013,3.608376,25.9,29.190001,-110.040001,1729417295727.0,0.0
-5.369494,-4.744967,2.069792,3.92,25.549999,-117.389999,1729417295747.0,0.0
-2.117648,-2.701497,2.335395,-15.54,31.360001,-109.199997,1729417295767.0,0.0
4.462614,-2.969493,7.192825,95.760002,37.450001,-65.870003,1729417295788.0,0.0
1.710868,2.285146,13.46202,138.740005,41.93,-37.66,1729417295809.0,0.0
-1.864009,2.18704,14.019548,52.080002,21.210001,11.06,1729417295827.0,0.0
-0.047856,-3.629912,7.716853,-93.940002,-15.4,29.68,1729417295847.0,0.0
-0.497707,-11.708081,3.220739,-153.930008,-20.370001,52.009998,1729417295868.0,0.0
-4.878965,-11.519048,3.175276,-95.059998,-4.97,58.240002,1729417295888.0,0.0
-4.177868,-6.953543,3.409772,75.599998,-26.880001,68.18,1729417295908.0,0.0
-5.852845,-5.699703,4.079762,97.580002,-24.290001,74.269997,1729417295929.0,0.0
-7.149754,-4.115655,3.388237,84.629997,-21.139999,76.720001,1729417295948.0,0.0
-10.415956,-6.104091,3.074777,15.82,-12.18,80.360001,1729417295967.0,0.0
-14.033905,-12.181859,2.993421,-80.150002,2.17,49.209999,1729417295995.0,0.0
-11.466407,-14.555541,0.459422,-97.019997,0.98,-18.9,1729417296010.0,0.0
-9.698111,-12.421142,1.189233,-20.51,16.379999,-76.440002,1729417296030.0,0.0
-9.487542,-8.49452,2.096112,-4.9,38.360001,-111.93,1729417296050.0,0.0
-6.896115,-7.238289,2.761317,-56.490002,45.43,-122.220001,1729417296069.0,0.0
-0.636491,-0.114855,6.568298,-68.599998,41.790001,-119.209999,1729417296090.0,0.0
6.675975,-3.158526,11.57169,71.82,2.24,-67.059998,1729417296111.0,0.0
-3.165704,-0.318245,13.976478,76.510002,6.09,-20.16,1729417296130.0,0.0
-2.091327,-1.268196,9.463614,-2.66,-22.540001,-3.64,1729417296150.0,0.0
1.048056,-3.361916,6.309873,-57.540001,-27.65,20.51,1729417296170.0,0.0
-2.65364,-9.918249,3.211168,-88.550003,-14.35,45.220001,1729417296190.0,0.0
-4.835894,-11.284552,2.498107,-71.610001,-10.5,62.299999,1729417296211.0,0.0
-4.677969,-7.712067,2.421536,13.16,-31.85,70.489998,1729417296230.0,0.0
-4.723432,-5.142176,2.600998,63.630001,-44.240002,80.220001,1729417296250.0,0.0
-6.54437,-5.486742,3.644269,42.0,-36.540001,83.160004,1729417296270.0,0.0
-9.779467,-8.578269,2.830709,-20.93,-25.34,72.590004,1729417296295.0,0.0
-11.416157,-11.779866,1.105484,-52.990002,-10.85,44.939999,1729417296311.0,0.0
-10.939985,-13.435699,-0.535992,-39.41,4.27,44.939999,1729417296329.0,0.0
-9.320045,-12.107682,0.526421,2.66,23.870001,-48.790001,1729417296349.0,0.0
-8.913264,-10.485349,2.885744,31.15,34.09,-80.220001,1729417296370.0,0.0
-8.042276,-8.688338,3.175276,-13.58,36.330002,-104.510002,1729417296390.0,0.0
-4.725825,-8.592626,1.174876,-53.830002,31.92,-113.470001,1729417296411.0,0.0
-0.138784,-3.756732,2.813959,-27.790001,45.080002,-115.849998,1729417296430.0,0.0
4.936393,-3.347559,10.69831,157.5,41.23,-66.220001,1729417296449.0,0.0
-2.658426,3.823731,17.283358,182.279999,29.4,-37.380001,1729417296470.0,0.0
-2.761317,1.954936,10.222138,14.77,-22.889999,9.38,1729417296490.0,0.0
1.29691,-6.197411,2.971886,-122.290001,-45.220001,31.08,1729417296510.0,0.0
-3.285345,-11.442478,0.978664,-118.160004,-19.32,55.439999,1729417296529.0,0.0
-5.278566,-8.496914,1.277767,6.3,-4.2,68.25,1729417296549.0,0.0
-4.295116,-5.333601,1.184447,76.580002,-22.26,75.040001,1729417296569.0,0.0
-5.491528,-5.455636,3.012564,92.889999,-17.57,84.910004,1729417296590.0,0.0
-7.647461,-6.15434,4.771288,52.849998,-7.14,83.160004,1729417296610.0,0.0
-12.251251,-7.89153,9.236296,-20.02,-0.14,73.150002,1729417296632.0,0.0
-13.069597,-11.112268,1.875973,-118.020004,-21.91,31.710001,1729417296649.0,0.0
-9.812965,-13.320844,-1.194018,-134.960007,-14.07,-32.759998,1729417296669.0,0.0
-8.805587,-14.170296,0.155533,-53.130001,18.620001,-69.93,1729417296690.0,0.0
-8.542377,-9.894321,2.519642,6.65,38.290001,-92.050003,1729417296710.0,0.0
-5.513064,-5.548956,2.455036,-19.460001,35.349998,-99.610001,1729417296729.0,0.0
-2.230111,-6.163911,1.414158,-73.849998,35.0,-98.209999,1729417296750.0,0.0
5.32403,-7.566105,5.534599,28.280001,27.860001,-71.82,1729417296769.0,0.0
-0.131605,-2.37368,12.808779,128.100006,32.200001,-34.09,1729417296790.0,0.0
-4.108476,0.430708,11.492726,65.730003,15.96,-1.68,1729417296810.0,0.0
-0.911665,-2.907279,7.025328,-62.299999,-17.710001,12.25,1729417296829.0,0.0
-0.552742,-7.310073,3.795017,-95.970001,-22.889999,38.080002,1729417296849.0,0.0
-4.362115,-10.274779,2.476572,-62.09,-9.17,57.75,1729417296869.0,0.0
-4.539185,-9.152546,2.031506,27.860001,-17.780001,69.650002,1729417296890.0,0.0
-4.666004,-6.690332,3.07717,91.07,-26.32,76.650002,1729417296911.0,0.0
-6.738188,-5.486742,4.673182,91.559998,-22.75,86.519997,1729417296929.0,0.0
-10.049855,-7.197611,3.711268,14.63,-13.51,74.690002,1729417296949.0,0.0
-11.74158,-11.090734,1.404587,-55.369999,-10.71,49.560001,1729417296969.0,0.0
-11.526227,-13.682159,-1.174876,-70.769997,-0.7,-0.98,1729417296994.0,0.0
-9.466006,-12.112469,-1.138984,-29.4,18.200001,-50.470001,1729417297010.0,0.0
-8.908479,-11.442478,0.875773,4.97,35.630001,-84.559998,1729417297029.0,0.0
-7.484749,-8.415558,2.124826,-8.26,45.43,-108.220001,1729417297049.0,0.0
-4.852644,-8.370094,1.909473,-29.4,40.529999,-112.840004,1729417297071.0,0.0
1.428515,-4.84068,6.793223,8.19,35.77,-104.650002,1729417297089.0,0.0
3.493521,-2.443072,11.205588,136.149994,10.08,-59.779999,1729417297110.0,0.0
-4.271189,0.768096,14.213367,115.57,6.02,-9.66,1729417297129.0,0.0
-2.464607,-0.361316,8.736196,-34.860001,-37.170002,-2.31,1729417297150.0,0.0
0.325424,-5.123034,3.87398,-138.389999,-50.400002,18.34,1729417297169.0,0.0
-2.816352,-9.631111,1.29691,-127.190002,-31.92,46.759998,1729417297190.0,0.0
-3.866802,-8.611769,1.485943,-19.18,-22.26,83.090004,1729417297210.0,0.0
-4.378866,-8.154739,2.100898,64.470001,-29.33,96.529999,1729417297229.0,0.0
-7.058826,-6.788438,4.642076,115.779999,-26.950001,104.230003,1729417297251.0,0.0
-10.468598,-6.06102,4.606184,57.68,-20.790001,93.660004,1729417297269.0,0.0
-12.272788,-10.272388,2.512464,-72.169998,-18.059999,57.049999,1729417297290.0,0.0
-11.358729,-14.048263,-0.971486,-112.209999,-13.93,2.1,1729417297310.0,0.0
-8.68116,-13.127025,-1.146162,-49.07,2.1,-47.32,1729417297329.0,0.0
-7.975278,-11.760723,1.048056,9.17,23.66,-77.980003,1729417297349.0,0.0
-8.030313,-9.738789,2.072184,3.85,39.48,-104.090004,1729417297369.0,0.0
-6.195018,-9.138189,2.679961,-9.45,40.040001,-111.720001,1729417297390.0,0.0
-0.418744,-2.823531,3.589234,-3.78,39.34,-118.300003,1729417297410.0,0.0
5.309673,-3.407379,7.300502,128.589996,14.42,-73.5,1729417297429.0,0.0
-2.900101,0.66999,15.203994,168.279999,21.139999,-27.719999,1729417297448.0,0.0
-2.766103,1.584049,11.650653,39.689999,-17.5,-11.27,1729417297468.0,0.0
0.543171,-2.337788,5.819345,-92.68,-46.900002,15.89,1729417297490.0,0.0
-1.718047,-9.296116,1.215554,-153.160004,-38.709999,36.400002,1729417297509.0,0.0
-5.106283,-12.198609,-0.964308,-112.07,-16.799999,48.860001,1729417297528.0,0.0
-3.814159,-7.836494,-0.117248,56.209999,-28.84,64.540001,1729417297550.0,0.0
-5.589634,-5.644669,3.182454,104.440002,-19.18,79.239998,1729417297568.0,0.0
-7.534998,-4.197011,5.359922,74.830002,-17.360001,83.440002,1729417297590.0,0.0
-9.573684,-7.300502,2.87378,-38.709999,-16.73,72.590004,1729417297619.0,0.0
-10.380065,-13.57209,-0.614955,-133.279999,-7.07,35.420002,1729417297631.0,0.0
-9.997212,-16.704294,-1.730011,-98.489998,12.39,-11.83,1729417297649.0,0.0
-9.638289,-15.005391,0.289532,6.51,30.940001,-53.830002,1729417297669.0,0.0
-8.396415,-11.547763,2.29711,46.060001,42.560001,-91.840004,1729417297690.0,0.0
-6.034698,-9.461221,1.462015,17.99,42.420002,-116.410004,1729417297711.0,0.0
1.433301,-7.286145,6.896115,44.029999,40.040001,-109.620003,1729417297729.0,0.0
