acc_x,acc_y,acc_z,gyr_x,gyr_y,gyr_z,timestamp,label
-7.960921,-3.285345,1.85683,-162.610001,-12.32,2.87,1729415493574.0,0.0
-6.932007,0.045464,0.672383,-244.580002,-12.6,3.99,1729415493578.0,0.0
-7.745567,-2.490928,-1.426122,-333.549988,-7.77,1.19,1729415493578.0,0.0
-8.226524,-3.663411,-1.667797,-376.040009,-28.35,-4.62,1729415493584.0,0.0
-8.331808,-2.98385,-1.007378,-368.829987,-40.529999,8.47,1729415493599.0,0.0
-9.848858,-0.378066,-3.644269,-405.790009,-52.220001,39.970001,1729415493618.0,0.0
-7.810174,-0.61017,-8.853443,-473.059998,-29.75,42.279999,1729415493638.0,0.0
-9.346365,-6.707082,-12.550355,-555.869995,-19.6,47.529999,1729415493659.0,0.0
-9.851252,-5.962914,-8.748159,-412.579987,-14.35,23.799999,1729415493679.0,0.0
-11.330014,-3.74716,-7.664211,-336.070007,1.68,54.32,1729415493699.0,0.0
-10.621738,2.105684,-9.932607,-287.070007,19.32,75.949997,1729415493719.0,0.0
-8.374879,-4.728218,-16.264015,-393.190002,86.239998,50.610001,1729415493738.0,0.0
-7.369894,-8.831908,-6.867401,-353.01001,109.830002,25.9,1729415493759.0,0.0
-7.858029,-5.352744,-6.300302,-222.600006,91.769997,36.540001,1729415493783.0,0.0
-8.73141,-11.514263,-3.129812,-239.399994,93.800003,1.33,1729415493799.0,0.0
-7.982457,-9.233903,-9.616754,-84.209999,40.740002,-11.62,1729415493818.0,0.0
-8.238488,-9.879964,-13.189239,53.34,39.130001,-20.93,1729415493839.0,0.0
-5.529813,-8.350951,-10.564312,113.540001,64.540001,-38.639999,1729415493859.0,0.0
-2.878566,-6.06102,-5.4341,135.520004,70.209999,-33.040001,1729415493880.0,0.0
-2.021935,-2.18704,-2.9671,137.410004,47.670002,-6.23,1729415493899.0,0.0
-2.622534,-1.995614,-4.347759,125.440002,16.940001,-13.02,1729415493918.0,0.0
-3.871587,0.318245,-7.329216,85.400002,-0.49,-15.4,1729415493938.0,0.0
-4.271189,0.827917,-9.166903,43.959999,4.2,-9.8,1729415493959.0,0.0
-4.797609,-1.351945,-9.647861,8.4,18.129999,-12.25,1729415493980.0,0.0
-5.249853,-3.826123,-7.989635,12.81,18.76,-24.360001,1729415493998.0,0.0
-5.496314,-2.727818,-6.123233,57.189999,3.71,-31.780001,1729415494019.0,0.0
-5.065606,-3.900301,-7.65464,78.610001,-18.27,-48.369999,1729415494038.0,0.0
-6.463014,-3.383451,-9.62154,100.449997,-25.620001,-48.650002,1729415494058.0,0.0
-8.475377,-0.76331,-8.310273,122.849998,-30.73,-41.369999,1729415494081.0,0.0
-9.870394,-3.220739,-9.126225,134.399994,0.56,-38.779999,1729415494098.0,0.0
-11.473583,-2.952743,-7.211967,239.119995,21.49,-22.049999,1729415494118.0,0.0
-9.992428,-0.272782,-7.45125,283.640015,49.560001,-20.860001,1729415494138.0,0.0
-8.487342,-2.392823,-6.611369,295.75,67.760002,8.89,1729415494159.0,0.0
-10.186246,-4.862216,-4.26401,322.350006,86.449997,28.77,1729415494180.0,0.0
-8.001599,-3.668197,-2.725425,316.26001,82.599998,24.219999,1729415494199.0,0.0
-7.889136,-5.292924,-4.922036,342.440002,87.639999,47.110001,1729415494218.0,0.0
-6.778866,-7.479963,-3.622734,382.269989,99.050003,47.599998,1729415494238.0,0.0
-4.811966,-5.972485,1.607977,400.119995,99.120003,38.220001,1729415494259.0,0.0
-4.488935,-5.4341,8.855836,350.559998,85.540001,31.780001,1729415494279.0,0.0
-2.258825,-6.690332,11.174481,219.729996,37.450001,25.549999,1729415494298.0,0.0
-0.5001,-7.183254,8.054241,166.460007,22.469999,27.51,1729415494318.0,0.0
-1.442872,-6.254838,5.032106,172.339996,9.8,53.48,1729415494338.0,0.0
-3.917051,-7.838887,3.134598,197.119995,3.01,77.769997,1729415494358.0,0.0
-4.118048,-8.539984,2.392823,229.669998,-0.63,89.739998,1729415494381.0,0.0
-4.366901,-9.482756,1.923829,225.610001,-2.59,95.620003,1729415494398.0,0.0
-6.888937,-12.220145,1.112662,131.740005,-0.35,75.949997,1729415494418.0,0.0
-8.556733,-12.205789,0.208176,-36.889999,-7.21,15.54,1729415494440.0,0.0
-7.853244,-10.442278,-0.497707,-133.630005,-1.12,-5.67,1729415494458.0,0.0
-6.364908,-5.32403,-3.419343,-232.540009,4.27,-28.559999,1729415494480.0,0.0
-6.326623,0.464208,-5.003392,-296.170013,22.68,-7.56,1729415494498.0,0.0
-7.659425,-4.321437,-5.570491,-334.390015,20.719999,-20.440001,1729415494518.0,0.0
-9.745967,-7.058826,1.557728,-348.670013,4.48,-50.400002,1729415494537.0,0.0
-9.475577,-5.075177,0.768096,-361.200012,-13.65,-55.790001,1729415494559.0,0.0
-6.692725,-5.76431,-1.995614,-373.519989,-35.700001,-66.290001,1729415494582.0,0.0
-5.735595,-8.350951,-2.567499,-379.820007,-29.26,-59.709999,1729415494598.0,0.0
-6.482157,-9.755538,-3.455236,-358.119995,-21.98,-53.830002,1729415494618.0,0.0
-6.553941,-9.640682,-4.814359,-291.200012,-27.65,-46.970001,1729415494637.0,0.0
-5.472386,-8.566305,-4.12044,-223.160004,-40.110001,-39.060001,1729415494658.0,0.0
-4.515256,-3.641876,-3.443272,-202.440002,-52.080002,-28.42,1729415494680.0,0.0
-6.171089,-5.649454,-4.244867,-166.529999,-46.060001,-2.94,1729415494698.0,0.0
-5.979663,-2.050649,-5.041678,-216.160004,-49.91,-19.6,1729415494718.0,0.0
-7.176075,0.004786,-10.047462,-363.720001,-38.150002,5.46,1729415494738.0,0.0
-9.47797,-2.715853,-10.856236,-451.570007,2.31,-10.78,1729415494758.0,0.0
-10.011569,-1.473979,-7.858029,-249.339996,10.43,-5.95,1729415494779.0,0.0
-10.466206,-0.775275,-7.719246,-120.68,12.74,2.8,1729415494798.0,0.0
-6.89133,-3.498307,-6.84108,-116.410004,26.110001,-23.799999,1729415494818.0,0.0
-11.23191,-1.844866,-9.073583,-142.309998,43.610001,-22.610001,1729415494838.0,0.0
-6.929615,-2.433501,-7.058826,-134.820007,45.639999,-11.34,1729415494858.0,0.0
-6.470192,-3.572484,-6.750153,-115.919998,49.77,2.66,1729415494880.0,0.0
-4.706682,-6.02752,-7.06122,-32.130001,36.889999,1.54,1729415494897.0,0.0
-5.163712,-6.833901,-7.692925,78.470001,19.809999,-4.06,1729415494918.0,0.0
-3.294917,-6.21416,-10.34178,154.979996,17.219999,-6.51,1729415494938.0,0.0
-2.988636,-6.867401,-10.482956,292.040009,21.98,-7.07,1729415494958.0,0.0
-4.711468,-6.130411,-10.547562,374.850006,25.690001,-20.09,1729415494980.0,0.0
-4.926822,-7.085148,-12.665211,419.649994,53.200001,-22.82,1729415494998.0,0.0
-5.69731,-6.733403,-13.39502,518.349976,95.059998,-18.690001,1729415495019.0,0.0
-7.238289,-4.788038,-13.899906,682.98999,102.620003,4.97,1729415495039.0,0.0
-7.283752,-5.005785,-8.482556,774.76001,101.919998,5.32,1729415495058.0,0.0
-7.503892,-1.998007,-1.205983,701.75,87.989998,-16.59,1729415495079.0,0.0
-3.699304,-0.969093,1.265803,584.570007,45.5,-23.870001,1729415495098.0,0.0
-1.069592,4.386044,5.965307,313.73999,-10.64,7.35,1729415495257.0,0.0
1.837688,0.325424,0.799203,18.129999,-38.709999,11.55,1729415495257.0,0.0
2.785245,-14.175081,-1.146162,-89.669998,-10.22,5.88,1729415495259.0,0.0
3.378666,-23.612375,-2.720639,90.510002,-25.200001,32.200001,1729415495259.0,0.0
1.552942,-10.770095,-0.57667,406.630005,33.599998,82.669998,1729415495260.0,0.0
-1.103091,-1.885544,1.885544,465.220001,49.700001,94.150002,1729415495260.0,0.0
-6.563512,-2.091327,3.830909,377.51001,62.720001,103.25,1729415495260.0,0.0
-13.777873,-1.5003,8.499306,237.790009,63.98,115.709999,1729415495260.0,0.0
-15.47917,-3.314059,9.075976,61.810001,31.5,72.800003,1729415495288.0,0.0
-12.638889,-4.663611,7.075576,-82.809998,-7.91,27.58,1729415495313.0,0.0
-9.169296,-4.244867,3.926622,-186.550003,-33.110001,-10.99,1729415495325.0,0.0
-5.412565,-3.127419,1.028914,-274.399994,-32.970001,-29.68,1729415495338.0,0.0
-4.225725,-5.733203,-2.785245,-326.269989,-19.879999,-30.030001,1729415495356.0,0.0
-4.046263,-17.599211,-5.125426,-239.680008,-20.299999,-36.68,1729415495377.0,0.0
-0.351745,-17.194822,-4.692325,21.77,0.21,-7.84,1729415495417.0,0.0
-4.295116,-9.090333,1.344766,377.160004,48.860001,35.490002,1729415495417.0,0.0
-9.803394,3.598805,10.112068,459.899994,56.630001,54.32,1729415495436.0,0.0
-8.750552,-0.543171,9.669396,61.880001,15.47,-12.46,1729415495458.0,0.0
-8.513663,-9.12144,6.989435,-170.800003,3.99,-47.110001,1729415495479.0,0.0
-6.01077,-9.607183,5.276174,-231.350006,-3.22,-66.639999,1729415495498.0,0.0
-5.240282,-7.314859,4.17069,-240.100006,9.94,-62.790001,1729415495521.0,0.0
-4.553542,-7.228717,3.156133,-274.470001,2.66,-69.860001,1729415495552.0,0.0
-3.926622,-8.341379,1.418944,-308.700012,2.87,-75.32,1729415495558.0,0.0
-3.806981,-10.202995,0.055035,-339.570007,9.38,-83.93,1729415495583.0,0.0
-3.273381,-9.856036,-0.751346,-346.640015,16.52,-98.769997,1729415495598.0,0.0
-3.06042,-9.726824,-2.172683,-345.730011,30.870001,-95.620003,1729415495618.0,0.0
-2.672783,-9.734003,-3.955336,-333.200012,38.849998,-89.459999,1729415495639.0,0.0
-2.354537,-9.025726,-5.304887,-317.029999,47.880001,-81.690002,1729415495657.0,0.0
-2.318645,-8.805587,-6.360123,-294.559998,59.57,-71.959999,1729415495682.0,0.0
-2.63689,-8.999406,-6.563512,-258.019989,68.949997,-57.959999,1729415495807.0,0.0
-3.038885,-8.659625,-6.460621,-207.339996,69.860001,-43.959999,1729415495807.0,0.0
-2.617748,-7.898707,-6.85783,-163.589996,66.989998,-38.080002,1729415495808.0,0.0
-2.208575,-7.398607,-6.888937,-134.820007,68.809998,-30.1,1729415495808.0,0.0
-2.584249,-7.341179,-6.611369,-108.010002,72.940002,-14.07,1729415495808.0,0.0
-2.778067,-6.443871,-6.379266,-74.970001,65.029999,-5.74,1729415495808.0,0.0
-2.591427,-5.79063,-6.192625,-76.580002,59.080002,2.31,1729415495817.0,0.0
-2.816352,-6.017949,-6.506085,-81.550003,55.23,8.75,1729415495877.0,0.0
-3.182454,-6.573084,-6.71426,-70.699997,51.310001,12.11,1729415495885.0,0.0
-3.409772,-6.563512,-6.85783,-38.709999,43.259998,15.190001,1729415495886.0,0.0
-3.596412,-5.752346,-6.585048,-0.56,32.619999,13.86,1729415495898.0,0.0
-3.778267,-5.630312,-5.970093,22.4,29.68,15.33,1729415495917.0,0.0
-3.54377,-5.647062,-5.74756,31.01,27.299999,15.82,1729415495939.0,0.0
-3.5007,-5.692525,-5.625526,34.09,19.950001,17.43,1729415495957.0,0.0
-3.471986,-5.47717,-5.481956,16.66,10.92,15.05,1729415495980.0,0.0
-3.572484,-5.848059,-5.627919,-11.2,8.33,14.07,1729415496002.0,0.0
-3.711268,-6.008378,-5.778666,-24.99,3.78,10.64,1729415496018.0,0.0
-3.773481,-6.228518,-5.996413,-23.52,-3.22,7.49,1729415496037.0,0.0
-3.732803,-6.23091,-6.257231,-21.35,-7.63,4.34,1729415496058.0,0.0
-3.672983,-6.113662,-6.472585,-29.75,-8.54,4.06,1729415496089.0,0.0
-3.634698,-6.300302,-6.793223,-32.619999,-7.98,4.27,1729415496097.0,0.0
-3.582055,-5.862415,-7.45125,-31.15,-6.16,2.59,1729415496118.0,0.0
-3.404987,-5.9677,-8.492127,-27.719999,-3.08,2.87,1729415496138.0,0.0
-3.522235,-6.032306,-7.274181,-20.51,1.19,-1.19,1729415496159.0,0.0
-3.129812,-5.402994,-6.903293,-6.79,0.91,-4.41,1729415496180.0,0.0
-2.940779,-5.716454,-7.362715,-12.67,-0.98,-5.95,1729415496198.0,0.0
-2.778067,-5.910272,-8.327023,-29.68,1.89,-6.37,1729415496218.0,0.0
-2.457429,-5.915058,-8.327023,-28.98,4.69,-5.11,1729415496239.0,0.0
-2.608176,-5.347959,-8.02792,-11.41,6.72,-5.46,1729415496259.0,0.0
-2.120041,-6.611369,-8.707481,-10.99,9.31,-10.5,1729415496279.0,0.0
-1.706082,-5.587241,-8.338986,3.85,5.67,-8.19,1729415496299.0,0.0
-1.878366,-5.443672,-7.872386,8.33,5.32,-6.3,1729415496318.0,0.0
-1.751546,-5.438886,-7.996813,3.22,2.73,-3.92,1729415496338.0,0.0
-1.828116,-5.391029,-8.204988,-0.84,0.56,-0.63,1729415496359.0,0.0
-2.057827,-5.242674,-8.001599,-2.03,-1.96,1.26,1729415496381.0,0.0
-2.081756,-5.426922,-8.712267,-6.37,-1.68,2.87,1729415496398.0,0.0
-2.462214,-5.525027,-8.245667,-8.61,-0.35,4.2,1729415496418.0,0.0
-2.495714,-5.532206,-7.886744,-1.89,0.07,4.34,1729415496439.0,0.0
-2.502892,-5.465207,-7.84128,1.26,-1.19,4.06,1729415496458.0,0.0
-2.603391,-5.501099,-7.939385,-9.03,-0.98,2.59,1729415496480.0,0.0
-2.672783,-5.773881,-8.659625,-19.32,1.61,-0.42,1729415496498.0,0.0
-2.684747,-5.838487,-8.630912,-12.88,3.57,-4.76,1729415496518.0,0.0
-2.548356,-5.041678,-8.11167,7.84,0.77,-2.66,1729415496538.0,0.0
-2.584249,-5.345565,-8.037491,2.1,3.08,-3.5,1729415496558.0,0.0
-2.440679,-5.431707,-8.030313,-2.1,2.59,-3.08,1729415496584.0,0.0
-2.29711,-5.24746,-7.992027,-0.42,0.21,-3.5,1729415496600.0,0.0
-2.222932,-5.410172,-8.061419,-3.15,0.63,-3.29,1729415496618.0,0.0
-2.155933,-5.295317,-8.178668,-1.75,0.63,-1.61,1729415496638.0,0.0
-1.971686,-5.343173,-8.271988,-3.22,0.56,-0.49,1729415496658.0,0.0
-2.100898,-5.486742,-8.154739,-3.78,1.19,0.42,1729415496680.0,0.0
-2.172683,-5.465207,-8.114061,-1.26,0.91,-0.14,1729415496698.0,0.0
-2.29711,-5.252246,-7.999206,0.28,-0.28,-0.49,1729415496718.0,0.0
-2.474179,-5.371887,-8.097312,-2.03,-0.49,-0.35,1729415496738.0,0.0
-2.522035,-5.462814,-8.030313,-4.55,-0.7,-0.42,1729415496758.0,0.0
-2.486143,-5.261817,-8.176274,-1.54,-1.75,-1.89,1729415496781.0,0.0
-2.402394,-5.111069,-8.26481,-1.26,-1.96,-2.1,1729415496797.0,0.0
-2.342573,-5.12782,-8.233703,-2.38,-2.17,-1.54,1729415496818.0,0.0
-2.397608,-5.106283,-8.276773,-1.68,-2.73,-1.26,1729415496838.0,0.0
-2.545963,-5.036892,-8.188239,-3.15,-3.15,-1.47,1729415496858.0,0.0
-2.550749,-5.173282,-8.276773,-6.86,-3.08,-0.91,1729415496880.0,0.0
-2.684747,-5.347959,-8.193025,-8.19,-2.87,-0.7,1729415496898.0,0.0
-2.775674,-5.405386,-8.070991,-5.53,-2.66,-1.05,1729415496918.0,0.0
-3.022135,-5.237889,-8.094919,-1.75,-3.08,-1.47,1729415496938.0,0.0
-3.058028,-5.321638,-7.898707,-0.42,-4.48,-1.05,1729415496959.0,0.0
-3.407379,-5.4341,-7.992027,-3.08,-4.34,-1.61,1729415496979.0,0.0
-3.251846,-5.295317,-8.075776,-2.87,-4.2,-3.43,1729415496998.0,0.0
-3.139383,-5.099105,-7.896315,2.66,-3.57,-3.99,1729415497018.0,0.0
-3.134598,-5.235496,-8.061419,-1.75,-2.45,-7.91,1729415497038.0,0.0
-3.244668,-5.02732,-8.523234,-8.05,-1.68,-9.87,1729415497059.0,0.0
-3.321238,-5.412565,-8.456236,-14.14,-0.07,-14.91,1729415497080.0,0.0
-3.644269,-5.115855,-8.645268,-10.29,2.52,-19.530001,1729415497097.0,0.0
-4.029513,-5.125426,-8.221739,-9.59,8.19,-21.629999,1729415497118.0,0.0
-3.907479,-5.278566,-8.245667,-16.799999,10.78,-26.460001,1729415497138.0,0.0
-3.830909,-5.206782,-8.441878,-22.049999,11.83,-30.380001,1729415497158.0,0.0
-3.862016,-5.113462,-8.4012,-19.110001,14.21,-32.759998,1729415497179.0,0.0
-3.749553,-5.225924,-8.300702,-10.15,16.59,-35.91,1729415497198.0,0.0
-3.254239,-5.20439,-8.590233,6.79,14.49,-38.080002,1729415497218.0,0.0
-2.799603,-5.022535,-9.209974,22.610001,12.88,-37.52,1729415497238.0,0.0
-2.876173,-5.326423,-9.351151,31.639999,19.460001,-36.68,1729415497260.0,0.0
-2.555535,-5.807381,-9.382257,69.790001,27.440001,-37.66,1729415497281.0,0.0
-2.055435,-5.919843,-8.240881,123.270004,23.450001,-35.630001,1729415497298.0,0.0
-1.342373,-5.776274,-7.587641,114.239998,18.200001,-36.889999,1729415497318.0,0.0
-1.371087,-5.931807,-7.21436,83.230003,18.200001,-33.389999,1729415497338.0,0.0
-0.976272,-7.156933,-8.003991,97.93,20.16,-29.82,1729415497359.0,0.0
-0.344566,-7.463214,-8.118847,157.639999,15.96,-21.0,1729415497387.0,0.0
-0.107677,-6.817152,-7.630712,210.559998,9.66,-10.64,1729415497397.0,0.0
-0.806381,-7.831708,-5.737988,256.059998,13.65,9.94,1729415497418.0,0.0
-0.638884,-8.738588,-5.613562,311.149994,12.81,24.780001,1729415497438.0,0.0
-0.629312,-9.760324,-3.701697,390.390015,5.74,40.880001,1729415497457.0,0.0
-0.684347,-8.197811,-0.380459,455.070007,-14.07,48.369999,1729415497480.0,0.0
-0.344566,-6.065805,2.756532,447.790009,-17.99,63.560001,1729415497497.0,0.0
-0.547956,-8.886944,3.852444,349.019989,-23.030001,61.459999,1729415497518.0,0.0
0.29671,-9.523434,1.555335,283.360016,-31.5,60.27,1729415497537.0,0.0
-0.832702,-4.510471,5.522634,185.360001,-17.57,63.0,1729415497558.0,0.0
-2.70389,-6.233303,5.632704,-16.1,-28.91,53.549999,1729415497583.0,0.0
-2.041078,-11.20798,3.562913,-138.180008,-52.360001,30.940001,1729415497597.0,0.0
-0.42353,-9.829715,1.215554,-105.840004,-56.349998,31.639999,1729415497618.0,0.0
-0.193819,-7.463214,0.090927,-77.07,-52.009998,33.740002,1729415497638.0,0.0
-0.969093,-9.38465,-0.160319,-93.239998,-49.700001,30.73,1729415497658.0,0.0
-2.203789,-12.32543,-0.854238,-91.209999,-43.400002,20.299999,1729415497680.0,0.0
-2.95035,-11.803794,-0.102891,-88.550003,-32.689999,8.61,1729415497697.0,0.0
-2.675175,-11.152946,-0.148355,-126.279999,-36.330002,-12.53,1729415497718.0,0.0
-1.959722,-9.786645,-1.194018,-169.820007,-37.799999,-26.18,1729415497738.0,0.0
-2.132005,-10.186246,-2.213361,-225.330002,-41.860001,-41.720001,1729415497758.0,0.0
-1.696511,-9.58804,-2.316252,-207.690002,-43.68,-49.209999,1729415497780.0,0.0
-2.292324,-7.479963,-2.421536,-170.169998,-42.700001,-48.299999,1729415497798.0,0.0
-1.962115,-6.398407,-3.395415,-188.649994,-41.860001,-46.619999,1729415497818.0,0.0
-1.411765,-7.716853,-4.773681,-248.009995,-38.009998,-50.75,1729415497837.0,0.0
-1.569692,-9.640682,-5.347959,-268.23999,-33.950001,-55.02,1729415497858.0,0.0
-1.641476,-9.597611,-4.965107,-240.940002,-34.650002,-58.240002,1729415497879.0,0.0
-1.397408,-8.135597,-5.986843,-207.970001,-37.939999,-59.150002,1729415497897.0,0.0
-1.521835,-6.795617,-6.699903,-195.930008,-37.66,-53.760002,1729415497918.0,0.0
-1.261017,-6.67119,-7.271788,-208.039993,-30.59,-49.0,1729415497938.0,0.0
-0.995414,-6.927221,-8.322237,-199.639999,-23.1,-40.389999,1729415497957.0,0.0
-0.98345,-8.166703,-9.351151,-166.529999,-14.0,-35.560001,1729415497980.0,0.0
-1.074377,-7.695317,-9.470792,-97.790001,-6.79,-30.870001,1729415497998.0,0.0
-1.37348,-5.85763,-8.772088,-39.41,-1.75,-24.5,1729415498018.0,0.0
-1.607977,-5.905487,-7.915457,-25.620001,7.0,-19.25,1729415498038.0,0.0
-1.617548,-6.008378,-8.197811,-9.31,12.46,-13.58,1729415498057.0,0.0
-0.897308,-5.721239,-8.200203,-0.07,13.23,-10.15,1729415498082.0,0.0
-0.66999,-6.458229,-8.793623,-0.35,15.47,-8.61,1729415498101.0,0.0
-0.535992,-6.273981,-9.078369,17.219999,13.65,-12.11,1729415498117.0,0.0
-0.693919,-5.608776,-8.946764,30.52,15.47,-13.58,1729415498137.0,0.0
-0.660419,-6.020342,-8.403593,20.02,19.74,-16.940001,1729415498158.0,0.0
-0.514457,-6.13759,-8.683553,13.16,21.98,-16.73,1729415498179.0,0.0
-0.461815,-6.185446,-8.427521,13.72,23.73,-15.82,1729415498197.0,0.0
-0.70349,-6.762117,-8.463413,19.67,28.280001,-14.49,1729415498218.0,0.0
-0.55992,-6.290731,-8.355737,34.93,29.82,-13.440001,1729415498238.0,0.0
-0.452243,-5.771489,-7.580462,33.389999,31.92,-12.11,1729415498257.0,0.0
-0.445065,-6.283553,-6.766902,23.940001,32.060001,-9.1,1729415498282.0,0.0
-0.5001,-6.652047,-6.515656,25.48,28.0,-8.61,1729415498297.0,0.0
-0.480957,-6.719046,-6.687939,33.599998,21.210001,-8.19,1729415498318.0,0.0
-0.33021,-6.171089,-6.958328,33.459999,15.68,-8.82,1729415498337.0,0.0
-0.035892,-5.996413,-6.951149,16.870001,12.53,-7.35,1729415498357.0,0.0
-0.026321,-6.616155,-6.659225,-3.78,10.99,-5.39,1729415498380.0,0.0
0.002393,-7.23111,-7.054041,-0.56,9.24,-3.78,1729415498397.0,0.0
0.399601,-6.276374,-7.613962,17.290001,6.65,-3.15,1729415498417.0,0.0
0.361316,-6.235696,-7.092326,16.940001,7.91,1.26,1729415498437.0,0.0
0.198604,-7.164111,-6.740582,-1.33,11.27,5.18,1729415498457.0,0.0
0.112463,-7.23111,-6.723832,2.66,7.77,3.36,1729415498479.0,0.0
0.153141,-6.664011,-7.106683,11.06,4.06,2.45,1729415498496.0,0.0
0.349352,-6.513263,-7.448857,-0.77,2.59,3.29,1729415498576.0,0.0
0.260818,-6.62094,-7.039684,-18.969999,2.52,3.71,1729415498577.0,0.0
0.071785,-7.484749,-7.082755,-22.960001,0.7,2.31,1729415498577.0,0.0
-0.026321,-7.735995,-7.542177,-10.99,-1.82,-2.38,1729415498597.0,0.0
-0.102891,-7.946564,-7.432107,-1.26,-3.64,-10.5,1729415498610.0,0.0
0.179462,-7.345965,-7.164111,-1.96,-4.62,-16.1,1729415498624.0,0.0
0.241675,-6.580262,-6.951149,-10.43,-6.86,-19.879999,1729415498641.0,0.0
0.332602,-7.216753,-7.401,-25.27,-5.95,-20.299999,1729415498657.0,0.0
0.751346,-6.939186,-7.573284,-23.870001,-4.27,-20.719999,1729415498678.0,0.0
0.72024,-5.347959,-6.963113,-18.76,-4.2,-17.92,1729415498697.0,0.0
-0.078963,-5.912664,-6.623333,-34.580002,-4.55,-13.23,1729415498717.0,0.0
-0.019143,-6.91765,-7.238289,-48.02,-5.46,-16.030001,1729415498737.0,0.0
-0.002393,-6.159126,-7.84128,-38.5,-9.8,-18.969999,1729415498758.0,0.0
0.650848,-5.69731,-8.281559,-39.619999,-12.25,-20.51,1729415498781.0,0.0
0.744168,-5.618347,-8.465806,-41.16,-12.88,-19.110001,1729415498798.0,0.0
0.385244,-6.369694,-8.973085,-37.869999,-10.08,-20.16,1729415498817.0,0.0
0.0335,-5.785845,-8.300702,-18.200001,-9.87,-21.84,1729415498837.0,0.0
-0.655633,-5.900701,-8.305488,-8.75,-7.7,-22.889999,1729415498857.0,0.0
-0.464208,-5.448457,-8.748159,-6.37,-7.21,-24.99,1729415498879.0,0.0
-0.294317,-4.816752,-8.16431,-9.1,-5.6,-21.280001,1729415498897.0,0.0
-0.512064,-5.472386,-8.60459,-13.16,-3.99,-19.74,1729415498916.0,0.0
-0.284746,-5.443672,-8.683553,-10.92,-3.36,-18.059999,1729415498937.0,0.0
-0.488136,-4.766503,-8.614161,-5.04,-2.8,-12.46,1729415498957.0,0.0
-0.361316,-4.122833,-8.745767,-0.77,-1.19,-6.86,1729415498978.0,0.0
-0.658026,-4.625326,-9.305687,8.68,4.9,5.74,1729415498997.0,0.0
-0.942772,-4.98425,-8.535198,27.790001,11.06,19.879999,1729415499017.0,0.0
-0.935594,-5.091926,-8.023134,32.130001,13.65,26.67,1729415499038.0,0.0
-1.026521,-5.321638,-8.85823,17.92,14.77,30.1,1729415499057.0,0.0
-0.803988,-6.092126,-9.676575,12.6,20.23,31.5,1729415499079.0,0.0
0.756132,-5.173282,-9.245867,40.950001,28.49,34.860001,1729415499097.0,0.0
0.571885,-5.046463,-7.582855,43.400002,31.01,41.369999,1729415499117.0,0.0
0.751346,-6.532406,-7.142576,38.360001,32.689999,41.369999,1729415499137.0,0.0
0.90688,-6.558727,-6.884151,40.810001,30.940001,41.09,1729415499157.0,0.0
1.363909,-6.69751,-6.24766,32.200001,27.23,37.939999,1729415499179.0,0.0
1.600798,-6.623333,-6.26441,5.04,19.67,30.799999,1729415499196.0,0.0
2.333002,-6.793223,-7.034898,-30.450001,15.68,27.790001,1729415499217.0,0.0
1.971686,-8.860621,-6.391229,-22.610001,13.09,25.41,1729415499249.0,0.0
1.079163,-9.040084,-5.615955,12.81,3.22,15.61,1729415499257.0,0.0
1.115055,-7.590034,-5.424529,8.75,-6.79,4.2,1729415499327.0,0.0
1.667797,-6.470192,-6.707082,-32.27,-12.04,-0.63,1729415499328.0,0.0
1.37348,-6.305088,-7.616355,-74.970001,-11.27,-2.03,1729415499328.0,0.0
-0.844666,-7.465607,-7.532606,-84.0,-10.36,-3.01,1729415499336.0,0.0
-2.385644,-8.800802,-7.463214,-67.480003,-14.0,-15.82,1729415499378.0,0.0
-0.074178,-7.642675,-7.798209,-54.040001,-20.719999,-29.120001,1729415499383.0,0.0
0.722632,-5.572884,-8.671589,-49.490002,-24.43,-35.91,1729415499396.0,0.0
-0.160319,-6.932007,-9.805787,-48.790001,-20.65,-35.349998,1729415499423.0,0.0
-0.753739,-6.783652,-9.102298,-11.41,-12.46,-37.59,1729415499437.0,0.0
-2.428715,-4.481757,-6.936793,1.82,-16.940001,-39.830002,1729415499456.0,0.0
-2.165504,-5.288138,-8.796017,-21.91,-17.92,-43.400002,1729415499477.0,0.0
-1.911865,-4.898108,-9.576077,-17.92,-12.11,-39.830002,1729415499495.0,0.0
-1.722832,-4.072584,-9.71486,12.25,-12.25,-32.41,1729415499516.0,0.0
-1.270589,-4.118048,-10.466206,28.210001,-3.29,-24.780001,1729415499537.0,0.0
-0.923629,-2.79721,-10.100104,40.950001,2.59,-8.47,1729415499556.0,0.0
-0.739382,-1.89033,-9.671788,31.92,13.02,2.73,1729415499581.0,0.0
-1.050449,-3.649055,-9.463614,26.6,22.26,22.469999,1729415499597.0,0.0
-0.265603,-3.704089,-9.688539,40.950001,25.620001,22.889999,1729415499616.0,0.0
0.160319,-3.565305,-8.035098,64.120003,25.41,30.24,1729415499636.0,0.0
0.691526,-3.797409,-7.776673,68.389999,24.290001,33.389999,1729415499659.0,0.0
0.624527,-4.785645,-7.523034,42.700001,24.5,33.110001,1729415499680.0,0.0
0.859023,-5.955735,-8.006385,20.440001,24.43,36.049999,1729415499697.0,0.0
1.272982,-6.530013,-8.240881,6.3,26.389999,34.369999,1729415499716.0,0.0
1.56012,-6.659225,-7.439285,3.71,26.67,32.549999,1729415499736.0,0.0
1.490728,-9.274581,-6.477371,15.190001,27.51,31.780001,1729415499756.0,0.0
0.959522,-10.755738,-4.225725,55.16,16.73,15.26,1729415499778.0,0.0
0.346959,-9.157332,-3.251846,46.689999,-0.35,-4.9,1729415499796.0,0.0
0.509671,-6.089733,-4.161119,-30.450001,-17.360001,-16.870001,1729415499816.0,0.0
1.643869,-7.822137,-5.974878,-103.879997,-20.370001,-15.82,1729415499836.0,0.0
1.684547,-7.01097,-8.350951,-91.209999,-22.33,-15.61,1729415499859.0,0.0
0.368495,-6.386444,-7.262216,-45.360001,-24.99,-13.58,1729415499880.0,0.0
-1.741975,-6.250053,-6.534799,-60.34,-31.219999,-18.48,1729415499898.0,0.0
-0.622134,-6.728617,-7.111469,-106.120003,-32.060001,-32.759998,1729415499916.0,0.0
-0.002393,-5.972485,-10.100104,-86.099998,-37.52,-37.799999,1729415499936.0,0.0
-0.162712,-6.106483,-12.96192,-51.59,-26.110001,-44.029999,1729415499958.0,0.0
-2.938386,-2.825923,-8.963513,-4.55,-24.01,-38.779999,1729415499978.0,0.0
-1.773082,-4.187439,-10.114462,-13.16,-13.51,-31.15,1729415499996.0,0.0
-2.249253,-3.579663,-9.997212,-7.84,-7.91,-29.190001,1729415500016.0,0.0
-1.495514,-3.110669,-10.054641,-0.49,-2.03,-17.92,1729415500036.0,0.0
-0.744168,-3.507878,-10.076177,0.28,7.63,-8.19,1729415500056.0,0.0
-0.461815,-3.955336,-11.095518,28.0,13.72,0.84,1729415500079.0,0.0
-0.653241,-4.388437,-10.169496,50.470001,21.98,2.87,1729415500096.0,0.0
-0.528814,-5.438886,-10.035499,79.940002,34.09,7.98,1729415500119.0,0.0
0.586242,-6.211767,-9.269794,80.779999,46.41,4.06,1729415500141.0,0.0
0.476172,-5.032106,-8.52802,108.290001,46.200001,7.98,1729415500156.0,0.0
0.775275,-4.476971,-7.341179,95.620003,50.470001,3.64,1729415500177.0,0.0
1.160519,-3.732803,-7.456036,48.720001,50.610001,11.76,1729415500197.0,0.0
1.600798,-6.276374,-5.955735,-19.67,54.110001,10.5,1729415500216.0,0.0
1.9669,-6.302694,-5.548956,-53.41,42.700001,8.68,1729415500236.0,0.0
2.727818,-6.843473,-3.419343,-87.57,27.719999,10.29,1729415500260.0,0.0
1.531406,-6.305088,-2.328217,-66.150002,-0.42,20.09,1729415500279.0,0.0
1.067199,-5.843273,-2.354537,-67.340004,-28.0,13.09,1729415500297.0,0.0
0.181855,-6.278766,-2.519642,-84.840004,-50.470001,14.77,1729415500316.0,0.0
-1.167697,-7.221539,-3.601198,-88.900002,-75.459999,14.63,1729415500336.0,0.0
-1.830509,-9.992428,-11.763116,-99.470001,-84.489998,3.78,1729415500356.0,0.0
-1.237089,-9.824929,-16.149158,-8.61,-52.290001,4.97,1729415500378.0,0.0
1.031307,-7.65464,-13.481163,195.930008,-44.73,14.56,1729415500395.0,0.0
0.385244,-6.534799,-12.217752,381.920013,-23.450001,28.35,1729415500416.0,0.0
-0.179462,-5.867201,-10.643275,480.410004,-1.89,29.120001,1729415500439.0,0.0
-0.184247,-6.113662,-7.886744,414.049988,21.42,34.650002,1729415500456.0,0.0
-0.01675,-7.960921,-6.608976,304.570007,26.950001,28.91,1729415500477.0,0.0
-0.433101,-10.052249,-5.04407,195.720001,31.219999,18.549999,1729415500495.0,0.0
-1.304088,-10.643275,-3.955336,104.580002,30.1,1.47,1729415500515.0,0.0
-0.964308,-10.368099,-3.366701,23.1,30.799999,-30.59,1729415500536.0,0.0
-0.490529,-11.131411,-4.998606,-32.34,34.93,-45.920002,1729415500557.0,0.0
-0.504886,-11.241481,-4.204189,-14.63,38.639999,-49.209999,1729415500582.0,0.0
-1.564906,-8.623734,-1.931008,9.24,43.189999,-48.720001,1729415500599.0,0.0
-1.954936,-8.025528,-2.292324,-26.74,50.400002,-48.23,1729415500617.0,0.0
-1.150948,-8.939585,-2.376073,-93.309998,47.670002,-60.060001,1729415500638.0,0.0
-0.842274,-10.760524,-1.911865,-110.040001,43.470001,-54.599998,1729415500656.0,0.0
-0.988236,-10.181459,-1.696511,-100.169998,33.950001,-62.720001,1729415500678.0,0.0
-0.526421,-6.63769,1.430908,-101.5,9.52,-64.120003,1729415500696.0,0.0
-1.198804,-3.878766,1.990828,-102.269997,-14.84,-44.52,1729415500716.0,0.0
1.323231,-4.24726,2.447858,-156.520004,-49.98,-42.139999,1729415500736.0,0.0
5.525027,-7.460821,-1.722832,-227.850006,-81.129997,-32.830002,1729415500757.0,0.0
2.108077,-5.855237,-1.828116,-241.779999,-104.93,-30.870001,1729415500779.0,0.0
2.907279,-5.213961,-6.9344,-279.299988,-120.470001,-30.450001,1729415500796.0,0.0
1.493121,-1.799403,-8.377272,-287.350006,-116.760002,-27.16,1729415500816.0,0.0
0.787239,-2.416751,-14.184652,-296.450012,-106.050003,-9.94,1729415500835.0,0.0
-0.899701,-3.943372,-15.68256,-247.869995,-74.760002,9.59,1729415500857.0,0.0
-2.766103,-4.232903,-16.630117,-130.410004,-45.360001,23.379999,1729415500878.0,0.0
-3.756732,-0.849452,-14.842678,-4.27,-20.58,40.880001,1729415500896.0,0.0
-0.607777,-3.536592,-9.102298,27.370001,3.64,50.049999,1729415500918.0,0.0
-3.395415,-1.832902,-9.363115,-44.310001,2.73,39.759998,1729415500936.0,0.0
-0.746561,-2.569891,-12.839886,-96.949997,19.67,37.380001,1729415500956.0,0.0
-0.835095,-2.778067,-14.048263,-43.330002,32.549999,46.41,1729415500978.0,0.0
0.189033,-5.369494,-11.260624,20.370001,45.779999,53.619999,1729415500996.0,0.0
0.452243,-4.266403,-9.58804,66.080002,53.34,48.16,1729415501016.0,0.0
0.318245,-6.324231,-4.189832,85.400002,51.52,44.939999,1729415501035.0,0.0
0.270389,-8.01117,-3.031706,25.200001,29.68,28.42,1729415501055.0,0.0
0.277567,-10.023535,-5.292924,-60.130001,11.55,1.96,1729415501077.0,0.0
-0.239282,-7.578069,-9.202796,-76.019997,-3.29,-19.6,1729415501095.0,0.0
1.359123,-5.52742,-10.023535,3.99,-15.05,-25.549999,1729415501116.0,0.0
-0.765703,-2.991028,-6.675975,17.01,-21.139999,-25.969999,1729415501136.0,0.0
0.579063,-2.62732,-10.616954,-15.190001,-23.52,-32.34,1729415501156.0,0.0
-1.878366,-2.433501,-10.234102,-30.870001,-32.060001,-37.939999,1729415501178.0,0.0
-1.225125,-3.914658,-10.729417,-38.57,-11.97,-47.810001,1729415501195.0,0.0
-2.514857,-0.856631,-10.470992,23.52,-21.49,-45.920002,1729415501217.0,0.0
-1.842474,-0.210568,-11.20798,40.459999,-11.97,-32.549999,1729415501237.0,0.0
-1.485943,-0.160319,-10.387242,29.75,-4.34,-7.98,1729415501256.0,0.0
-1.572084,-1.971686,-11.619547,13.16,10.43,13.37,1729415501279.0,0.0
-0.770489,-1.330409,-11.45205,32.41,15.12,21.84,1729415501295.0,0.0
-0.236889,-0.954736,-10.971091,42.560001,18.76,32.200001,1729415501317.0,0.0
0.583849,-4.208975,-8.793623,39.130001,28.139999,36.540001,1729415501336.0,0.0
0.416351,-3.541377,-8.642875,73.150002,22.75,29.26,1729415501356.0,0.0
1.261017,-3.9673,-8.02792,60.689999,24.639999,31.360001,1729415501379.0,0.0
1.268196,-5.245068,-6.831509,22.26,26.74,30.52,1729415501396.0,0.0
1.256232,-6.958328,-7.403394,-8.33,21.629999,25.76,1729415501415.0,0.0
1.854438,-5.489135,-9.60479,-12.11,11.55,12.46,1729415501435.0,0.0
1.024128,-5.943772,-7.156933,-15.96,-3.01,8.4,1729415501465.0,0.0
-1.624727,-6.063413,-5.65424,-67.059998,-11.41,1.33,1729415501477.0,0.0
-0.971486,-8.551948,-7.204789,-94.43,-16.940001,-16.799999,1729415501497.0,0.0
-0.057428,-5.85763,-10.877771,-3.08,-33.110001,-26.25,1729415501517.0,0.0
-1.11027,-3.469593,-9.016156,27.719999,-33.32,-29.610001,1729415501535.0,0.0
-2.809174,-4.323831,-8.930015,-24.219999,-29.75,-35.77,1729415501556.0,0.0
-2.433501,-4.275974,-11.203196,-54.32,-21.559999,-46.48,1729415501583.0,0.0
-2.105684,-3.086741,-11.47837,1.05,-17.57,-45.57,1729415501597.0,0.0
-1.90708,-1.921437,-11.643474,52.150002,-8.75,-32.27,1729415501618.0,0.0
-1.478764,-2.24686,-11.684153,79.590004,2.31,-15.75,1729415501638.0,0.0
-1.07677,-2.861816,-11.296515,79.590004,18.83,-8.05,1729415501657.0,0.0
-0.327817,-2.945565,-9.626326,105.07,29.540001,8.19,1729415501678.0,0.0
0.605384,-0.150748,-9.973285,108.360001,29.68,15.47,1729415501698.0,0.0
0.370888,-2.778067,-10.619347,79.379997,42.91,28.0,1729415501716.0,0.0
0.308674,-4.579862,-9.154939,107.239998,53.689999,45.920002,1729415501737.0,0.0
0.318245,-4.677969,-7.726424,125.020004,57.959999,45.990002,1729415501757.0,0.0
0.198604,-5.649454,-3.359523,90.090004,59.290001,53.060001,1729415501780.0,0.0
0.827917,-8.29113,-3.65384,0.91,46.759998,41.93,1729415501796.0,0.0
1.105484,-11.643474,-2.397608,-36.889999,38.009998,47.110001,1729415501817.0,0.0
1.732404,-9.233903,-3.598805,-14.07,15.33,28.98,1729415501837.0,0.0
2.175076,-7.238289,-5.795416,-53.830002,3.22,20.440001,1729415501858.0,0.0
-1.100698,-8.685946,-5.833702,-71.68,-11.55,16.799999,1729415501880.0,0.0
-0.366102,-10.41835,-7.372287,-80.919998,-22.75,-3.71,1729415501896.0,0.0
-0.552742,-8.114061,-8.4012,-31.85,-35.77,-28.280001,1729415501917.0,0.0
-0.614955,-5.613562,-9.549755,-11.76,-42.98,-42.630001,1729415501939.0,0.0
-1.476372,-5.422136,-9.370294,-66.919998,-35.98,-53.689999,1729415501957.0,0.0
-2.648855,-5.773881,-9.147761,-101.639999,-32.619999,-61.880001,1729415501979.0,0.0
-3.120241,-5.388636,-12.000006,-39.970001,-25.48,-65.379997,1729415501997.0,0.0
-2.888137,-3.127419,-12.466606,63.490002,-14.0,-49.349998,1729415502017.0,0.0
-1.481157,-1.22034,-12.459428,107.660004,10.92,-24.57,1729415502036.0,0.0
0.512064,-1.940579,-10.049855,93.800003,34.509998,2.38,1729415502058.0,0.0
1.014557,-1.074377,-8.324631,60.619999,52.150002,30.1,1729415502078.0,0.0
1.574477,-2.816352,-8.714661,49.279999,55.860001,43.82,1729415502096.0,0.0
1.48355,-4.919643,-8.295916,50.049999,56.560001,46.48,1729415502118.0,0.0
1.339981,-5.553742,-5.051248,56.91,55.09,50.189999,1729415502136.0,0.0
1.179662,-7.721639,-4.034299,21.49,43.959999,43.330002,1729415502157.0,0.0
1.485943,-9.633504,-4.555934,-22.4,34.790001,34.299999,1729415502182.0,0.0
1.631905,-8.736196,-4.496114,-12.18,19.18,24.360001,1729415502196.0,0.0
1.512264,-8.908479,-4.287938,-12.67,2.45,21.91,1729415502216.0,0.0
-0.772882,-8.566305,-5.300103,-44.170002,-7.77,7.14,1729415502236.0,0.0
-0.023928,-9.894321,-6.994221,-71.68,-24.43,-12.6,1729415502257.0,0.0
0.557528,-7.152147,-9.336794,-59.010002,-32.970001,-28.49,1729415502279.0,0.0
-0.792024,-6.601797,-10.368099,-22.75,-31.710001,-42.700001,1729415502297.0,0.0
-3.60359,-6.017949,-8.068598,-19.6,-30.17,-52.849998,1729415502316.0,0.0
-3.323631,-8.073383,-11.624333,-45.57,-20.23,-67.550003,1729415502336.0,0.0
-2.189433,-4.149154,-12.208181,5.95,-10.01,-72.029999,1729415502357.0,0.0
-0.894916,-2.108077,-12.088539,64.75,5.88,-50.82,1729415502378.0,0.0
-0.052642,-2.395216,-9.064013,103.879997,29.049999,-18.620001,1729415502396.0,0.0
0.930808,-2.28036,-7.487142,105.559998,47.670002,24.360001,1729415502416.0,0.0
1.70369,-2.754139,-6.742974,24.92,50.68,30.24,1729415502436.0,0.0
2.069792,-4.443472,-8.896514,-10.71,50.470001,42.91,1729415502456.0,0.0
2.493321,-6.386444,-7.673782,17.99,53.760002,42.209999,1729415502478.0,0.0
2.325824,-7.49432,-4.41715,53.970001,47.950001,40.459999,1729415502495.0,0.0
2.912065,-7.704889,-4.072584,10.78,40.040001,28.98,1729415502517.0,0.0
2.644069,-10.569098,-2.524428,-15.33,25.34,17.92,1729415502537.0,0.0
2.426322,-10.128819,-2.352145,-18.41,3.08,14.21,1729415502556.0,0.0
0.571885,-8.961121,-3.799802,-59.010002,-13.16,-1.75,1729415502581.0,0.0
-0.57667,-10.286745,-4.345366,-101.5,-32.970001,-15.33,1729415502597.0,0.0
0.973879,-8.889337,-8.300702,-95.900002,-44.66,-28.139999,1729415502617.0,0.0
0.133998,-7.051648,-10.303494,-53.689999,-45.920002,-39.900002,1729415502635.0,0.0
-2.507678,-5.974878,-7.800602,-56.07,-42.84,-47.18,1729415502658.0,0.0
-3.598805,-8.173882,-10.107283,-93.449997,-39.27,-59.920002,1729415502678.0,0.0
-2.531606,-6.276374,-12.464212,-41.580002,-28.0,-70.910004,1729415502703.0,0.0
-1.95015,-2.330609,-10.96152,40.32,-16.66,-60.200001,1729415502716.0,0.0
-0.39003,-2.22054,-10.035499,64.610001,-0.7,-36.189999,1729415502736.0,0.0
-0.043071,-2.562713,-9.396614,34.580002,22.049999,-5.67,1729415502756.0,0.0
1.004985,-0.859023,-7.668997,67.900002,24.639999,16.73,1729415502778.0,0.0
1.916651,-2.273181,-7.948956,32.759998,24.08,25.059999,1729415502796.0,0.0
3.050849,-4.041477,-8.49452,-16.59,27.370001,28.210001,1729415502816.0,0.0
3.689733,-6.18784,-7.200003,10.22,28.98,30.73,1729415502837.0,0.0
3.919443,-7.977671,-4.130012,38.57,27.51,29.75,1729415502856.0,0.0
3.766303,-9.982857,-3.242275,20.93,14.7,17.43,1729415502877.0,0.0
3.117848,-10.413565,-3.515057,-19.040001,-5.25,-3.64,1729415502896.0,0.0
2.837888,-8.331808,-6.89133,-51.52,-24.43,-13.09,1729415502918.0,0.0
1.725225,-9.891929,-8.566305,-68.32,-26.460001,-22.120001,1729415502935.0,0.0
-0.425922,-8.437093,-6.522834,-45.920002,-35.279999,-27.440001,1729415502957.0,0.0
-1.208375,-9.267403,-8.377272,-37.59,-41.369999,-34.580002,1729415502977.0,0.0
-0.370888,-7.420143,-9.722038,-3.15,-40.740002,-49.209999,1729415502995.0,0.0
-2.304288,-6.087341,-8.063812,3.15,-38.709999,-55.16,1729415503018.0,0.0
-2.301895,-5.943772,-9.999605,-18.9,-35.209999,-62.93,1729415503036.0,0.0
-2.146362,-2.500499,-10.15514,-8.75,-29.75,-64.959999,1729415503056.0,0.0
-1.691726,-2.591427,-10.353743,-8.89,-22.960001,-50.470001,1729415503078.0,0.0
-0.949951,-2.258825,-9.915856,9.66,-8.82,-36.330002,1729415503095.0,0.0
-0.189033,-1.069592,-9.987641,31.290001,-1.68,-15.61,1729415503116.0,0.0
0.658026,-0.5001,-9.468399,44.869999,8.26,2.45,1729415503137.0,0.0
1.304088,-1.603191,-8.932407,35.139999,14.42,25.76,1729415503156.0,0.0
1.835295,-2.689533,-9.760324,7.07,23.17,32.689999,1729415503177.0,0.0
3.017349,-5.221139,-9.262616,-21.49,33.740002,38.849998,1729415503196.0,0.0
2.976671,-6.98465,-8.592626,-9.66,36.75,35.209999,1729415503216.0,0.0
2.292324,-9.674182,-6.106483,8.4,32.34,29.68,1729415503236.0,0.0
1.237089,-7.936993,-5.929415,21.98,19.460001,14.77,1729415503258.0,0.0
1.335195,-8.013563,-4.41715,-1.82,10.64,16.870001,1729415503277.0,0.0
1.115055,-10.109675,-6.541977,-34.299999,4.9,7.0,1729415503296.0,0.0
0.526421,-9.427721,-6.269196,-26.530001,-8.54,-5.32,1729415503318.0,0.0
0.055035,-7.953743,-6.80758,-23.52,-23.17,-23.799999,1729415503335.0,0.0
-0.239282,-8.099705,-8.484949,-34.509998,-30.1,-42.139999,1729415503355.0,0.0
-0.354138,-5.520242,-8.51127,-20.860001,-35.91,-58.380001,1729415503378.0,0.0
-0.935594,-4.110869,-10.013963,-25.76,-32.900002,-54.740002,1729415503395.0,0.0
-0.600598,-1.39023,-10.822738,4.2,-13.65,-25.200001,1729415503416.0,0.0
0.12682,-1.215554,-9.805787,33.18,-0.21,6.51,1729415503437.0,0.0
0.363709,-2.364109,-10.533205,19.389999,12.11,25.200001,1729415503457.0,0.0
1.067199,-2.95035,-12.05504,24.5,23.66,37.939999,1729415503477.0,0.0
0.914058,-4.713861,-11.23191,41.509998,39.900002,40.880001,1729415503497.0,0.0
2.031506,-5.106283,-7.192825,43.540001,48.650002,43.259998,1729415503583.0,0.0
2.026721,-5.91745,-6.563512,30.309999,49.77,38.57,1729415503588.0,0.0
2.048256,-8.688338,-5.161318,15.47,41.650002,34.16,1729415503590.0,0.0
2.074577,-10.820344,-4.070191,-8.26,30.24,23.24,1729415503592.0,0.0
1.952543,-11.971292,-4.388437,-15.05,12.95,4.76,1729415503596.0,0.0
1.828116,-10.770095,-5.503492,-19.67,-4.48,-18.969999,1729415503616.0,0.0
2.354537,-9.994821,-7.197611,-17.57,-14.0,-36.68,1729415503635.0,0.0
2.567499,-6.941578,-7.319644,5.6,-22.190001,-46.830002,1729415503655.0,0.0
1.880759,-6.21416,-8.398808,7.28,-28.49,-52.080002,1729415503677.0,0.0
0.485743,-5.079963,-8.580662,9.31,-30.940001,-55.369999,1729415503695.0,0.0
-2.201397,-3.017349,-8.135597,4.41,-36.75,-46.41,1729415503715.0,0.0
-2.823531,-3.199204,-10.789237,-26.950001,-24.43,-35.279999,1729415503735.0,0.0
-2.199004,0.421137,-11.523834,11.27,-9.73,-9.73,1729415503756.0,0.0
-1.435694,-1.239482,-10.923235,22.120001,11.83,17.85,1729415503777.0,0.0
-0.531207,-1.481157,-10.614561,32.41,26.18,32.41,1729415503795.0,0.0
0.435494,-1.196411,-9.750752,35.490002,36.189999,47.32,1729415503815.0,0.0
1.660619,-3.462414,-8.635696,12.04,46.48,53.27,1729415503835.0,0.0
2.586641,-5.32403,-7.523034,6.79,50.400002,60.34,1729415503856.0,0.0
2.512464,-7.099504,-5.541777,19.040001,45.360001,56.98,1729415503877.0,0.0
2.481357,-9.863215,-2.957529,6.79,35.279999,47.950001,1729415503896.0,0.0
2.646462,-9.77468,-3.716053,-29.610001,14.28,28.07,1729415503916.0,0.0
1.935793,-12.229716,-4.354938,-57.049999,-3.29,10.85,1729415503935.0,0.0
1.507478,-9.829715,-5.761917,-56.84,-21.0,-8.82,1729415503956.0,0.0
1.806581,-9.114261,-6.843473,-55.580002,-33.459999,-20.860001,1729415503978.0,0.0
0.856631,-7.80778,-7.668997,-30.52,-43.119999,-24.639999,1729415503995.0,0.0
0.258425,-6.814759,-9.013763,-5.46,-47.389999,-31.92,1729415504016.0,0.0
-2.423929,-5.596812,-9.303294,-23.24,-48.93,-33.740002,1729415504036.0,0.0
-1.184447,-4.783253,-10.616954,-44.240002,-32.900002,-39.48,1729415504056.0,0.0
-0.555135,-1.478764,-12.169895,0.14,-26.040001,-28.42,1729415504077.0,0.0
0.023928,-1.354338,-11.085947,27.51,5.18,8.26,1729415504095.0,0.0
0.023928,-2.160719,-10.645668,38.920002,23.379999,31.710001,1729415504115.0,0.0
1.208375,-1.79701,-9.810574,41.509998,35.139999,44.52,1729415504136.0,0.0
1.26341,-3.565305,-8.975478,25.620001,41.23,52.990002,1729415504156.0,0.0
1.98365,-6.625726,-7.659425,18.76,45.920002,53.760002,1729415504179.0,0.0
1.395016,-6.941578,-6.250053,64.120003,38.290001,48.09,1729415504195.0,0.0
1.471586,-7.702496,-5.012963,48.93,35.560001,41.720001,1729415504217.0,0.0
1.105484,-10.162319,-4.371687,18.690001,26.32,32.689999,1729415504235.0,0.0
1.213161,-8.999406,-4.701896,-11.13,10.29,16.52,1729415504255.0,0.0
0.289532,-8.805587,-4.364508,-26.25,-4.2,15.47,1729415504279.0,0.0
-0.119641,-9.150154,-5.359922,-46.619999,-14.0,4.27,1729415504295.0,0.0
0.090927,-8.762517,-6.85783,-19.6,-29.26,-3.01,1729415504316.0,0.0
0.641276,-6.020342,-9.090333,7.42,-35.98,-13.09,1729415504336.0,0.0
-2.572284,-5.778666,-7.513463,-18.200001,-37.52,-19.67,1729415504356.0,0.0
-1.071985,-6.149554,-10.777272,-72.800003,-28.77,-32.970001,1729415504379.0,0.0
-1.940579,-4.168297,-11.408978,-31.15,-23.17,-31.5,1729415504398.0,0.0
-0.294317,-1.751546,-10.399208,23.940001,-10.5,-13.93,1729415504416.0,0.0
0.502493,-1.962115,-9.193225,29.68,6.65,14.63,1729415504435.0,0.0
-0.193819,-4.319045,-12.119646,-26.530001,18.27,19.67,1729415504456.0,0.0
0.102891,-6.762117,-14.261222,-2.45,39.759998,18.41,1729415504479.0,0.0
0.083749,-5.991628,-9.341579,94.919998,57.68,18.27,1729415504496.0,0.0
-0.055035,-6.735795,-8.834301,136.289993,66.360001,14.49,1729415504515.0,0.0
2.09372,-7.381857,-6.872187,102.690002,72.099998,0.91,1729415504536.0,0.0
0.751346,-6.924829,-3.558127,103.599998,65.730003,3.99,1729415504556.0,0.0
1.737189,-9.793823,-4.59422,90.090004,54.459999,-0.21,1729415504582.0,0.0
2.665605,-7.446464,-2.026721,82.599998,45.360001,-8.96,1729415504595.0,0.0
0.124427,-5.682954,-0.847059,54.459999,19.879999,-4.13,1729415504615.0,0.0
-0.555135,-7.814958,0.143569,-10.08,-7.28,-3.08,1729415504637.0,0.0
3.591627,-6.752545,-2.739782,-47.040001,-41.23,-11.06,1729415504655.0,0.0
3.783052,-5.503492,-5.493921,-121.940002,-61.389999,-12.32,1729415504678.0,0.0
-1.198804,-8.475377,-4.582255,-163.309998,-72.169998,-8.96,1729415504695.0,0.0
0.327817,-5.45085,-10.959127,-78.050003,-72.099998,-9.38,1729415504716.0,0.0
-2.89053,-2.665605,-10.016356,-35.0,-61.599998,11.34,1729415504735.0,0.0
-1.002593,-7.211967,-13.028918,-126.0,-22.190001,19.879999,1729415504756.0,0.0
-0.282353,-5.623133,-12.342178,-70.629997,4.34,18.41,1729415504778.0,0.0
-0.789631,-6.017949,-12.696317,-25.76,14.49,10.5,1729415504796.0,0.0
-1.165305,-6.570691,-10.573883,-1.89,31.85,4.06,1729415504815.0,0.0
-0.861416,-6.281159,-8.063812,2.59,36.82,-9.17,1729415504835.0,0.0
0.366102,-8.946764,-10.432706,-46.619999,45.080002,-29.75,1729415504856.0,0.0
1.753939,-7.51107,-5.979663,-24.85,45.5,-46.549999,1729415504878.0,0.0
0.887737,-6.238089,-2.969493,10.5,24.15,-56.630001,1729415504895.0,0.0
1.39023,-7.185646,-5.333601,15.26,3.43,-62.23,1729415504915.0,0.0
1.545763,-3.002992,-6.592227,-22.68,-6.72,-62.369999,1729415504935.0,0.0
1.457229,-3.830909,-6.704689,-55.23,-6.86,-40.25,1729415504956.0,0.0
2.045863,-3.601198,-7.101898,-41.860001,-11.06,-23.870001,1729415504978.0,0.0
2.845066,-2.641676,-8.149954,-23.309999,-22.33,-7.42,1729415504995.0,0.0
2.364109,-1.612763,-7.238289,-52.920002,-23.1,4.48,1729415505015.0,0.0
2.105684,-2.605784,-9.870394,-8.05,-26.67,21.98,1729415505034.0,0.0
2.400001,-3.079563,-12.064612,18.76,-20.23,33.32,1729415505057.0,0.0
0.567099,-1.426122,-11.657832,15.75,-7.56,45.849998,1729415505078.0,0.0
-2.256432,-6.905686,-8.516055,-37.029999,10.92,43.610001,1729415505094.0,0.0
-0.512064,-8.061419,-9.934999,-67.690002,8.89,23.59,1729415505115.0,0.0
-1.0002,-8.865408,-9.942179,-38.360001,5.88,5.95,1729415505135.0,0.0
-0.646062,-8.73141,-8.422735,4.27,-0.35,-13.51,1729415505156.0,0.0
-0.413958,-5.690133,-8.693125,15.190001,1.19,-25.200001,1729415505177.0,0.0
0.026321,-3.795017,-7.597212,26.040001,-1.26,-27.440001,1729415505195.0,0.0
0.760918,-4.350152,-8.126025,-23.73,-0.28,-28.139999,1729415505216.0,0.0
0.897308,-4.831109,-8.992228,-38.920002,-3.01,-30.940001,1729415505236.0,0.0
0.990629,-3.45045,-9.066404,9.24,-7.35,-24.15,1729415505256.0,0.0
1.45005,-2.411965,-8.559127,30.66,-5.11,-8.4,1729415505277.0,0.0
1.29691,-2.050649,-8.23131,24.08,-3.29,4.55,1729415505295.0,0.0
2.009971,-2.409572,-9.327222,10.85,-0.28,14.77,1729415505315.0,0.0
1.37348,-3.550949,-10.348958,3.99,-0.21,17.57,1729415505336.0,0.0
1.801795,-5.206782,-10.968699,5.32,10.43,17.85,1729415505355.0,0.0
1.268196,-6.618547,-9.38465,33.25,16.799999,13.02,1729415505378.0,0.0
0.447458,-6.786045,-8.295916,52.5,17.92,1.47,1729415505394.0,0.0
0.72024,-7.546963,-8.712267,37.099998,15.96,-8.68,1729415505416.0,0.0
0.806381,-7.381857,-9.310472,35.84,16.030001,-15.89,1729415505436.0,0.0
0.799203,-7.405786,-8.786445,74.620003,18.549999,-15.190001,1729415505456.0,0.0
0.495314,-6.501299,-7.456036,135.029999,16.66,-12.46,1729415505477.0,0.0
0.562313,-5.149354,-5.883951,156.100006,7.07,-12.46,1729415505494.0,0.0
0.725025,-5.331209,-5.187639,104.790001,-0.28,-11.83,1729415505516.0,0.0
0.638884,-5.793024,-4.881358,39.689999,-9.31,-12.11,1729415505536.0,0.0
0.251246,-6.709475,-6.192625,8.47,-17.15,-11.62,1729415505555.0,0.0
0.272782,-7.262216,-7.420143,36.959999,-19.460001,-9.24,1729415505581.0,0.0
0.638884,-6.520442,-8.042276,102.830002,-19.6,-0.07,1729415505594.0,0.0
0.911665,-6.668797,-8.123632,154.490005,-10.78,12.04,1729415505616.0,0.0
1.222732,-6.982256,-8.123632,205.800003,-1.82,23.030001,1729415505635.0,0.0
1.402194,-7.448857,-7.429714,249.339996,3.92,34.650002,1729415505655.0,0.0
1.18684,-8.188239,-6.491727,286.230011,9.24,46.200001,1729415505676.0,0.0
0.878166,-9.171689,-6.084948,327.040009,14.49,53.830002,1729415505695.0,0.0
0.547956,-10.004392,-4.895715,364.630005,23.17,53.41,1729415505715.0,0.0
0.349352,-10.564312,-3.065206,390.600006,24.43,52.43,1729415505736.0,0.0
-0.007178,-8.738588,0.504886,378.630005,29.610001,45.220001,1729415505756.0,0.0
-0.244068,-8.944371,1.976472,274.049988,26.040001,31.01,1729415505777.0,0.0
-0.210568,-10.234102,2.713461,202.089996,17.15,16.309999,1729415505794.0,0.0
-0.334995,-11.363515,3.376273,180.949997,11.34,7.56,1729415505816.0,0.0
-0.105284,-9.836893,3.964907,186.619995,9.17,1.54,1729415505834.0,0.0
-0.026321,-8.530413,4.388437,186.550003,6.93,-2.8,1729415505855.0,0.0
-0.246461,-8.049455,4.59422,172.690002,8.33,-4.55,1729415505878.0,0.0
-0.244068,-8.054241,4.814359,174.789993,9.03,-4.27,1729415505894.0,0.0
-0.133998,-7.578069,5.587241,185.360001,16.030001,-4.48,1729415505915.0,0.0
0.11007,-6.448657,6.570691,186.270004,25.83,-4.2,1729415505934.0,0.0
-0.258425,-5.826523,7.104291,154.350006,28.42,-5.81,1729415505956.0,0.0
-0.543171,-6.446264,7.283752,119.699997,28.630001,-10.22,1729415505977.0,0.0
-0.440279,-6.563512,6.970293,101.919998,31.43,-16.309999,1729415505994.0,0.0
-0.031107,-6.439085,6.74776,93.099998,36.119999,-22.469999,1729415506016.0,0.0
-0.29671,-6.003592,6.999006,88.550003,41.790001,-25.129999,1729415506035.0,0.0
-0.756132,-6.013163,7.54457,83.790001,44.240002,-26.950001,1729415506055.0,0.0
-0.995414,-5.079963,8.382057,80.290001,42.77,-24.92,1729415506078.0,0.0
-0.854238,-4.515256,7.518249,58.799999,37.66,-21.35,1729415506094.0,0.0
-1.09352,-4.771288,7.166504,35.279999,33.459999,-16.66,1729415506114.0,0.0
-1.196411,-4.065405,7.721639,50.259998,36.330002,-8.61,1729415506134.0,0.0
-2.045863,-4.295116,7.609176,42.139999,36.82,0.42,1729415506156.0,0.0
-1.548156,-4.39083,7.415358,29.82,35.349998,3.01,1729415506177.0,0.0
-1.356731,-4.642076,7.987241,32.619999,36.959999,6.51,1729415506196.0,0.0
-1.119841,-3.931407,8.238488,39.970001,37.240002,8.47,1729415506216.0,0.0
-1.074377,-3.354738,7.893922,32.970001,37.939999,12.18,1729415506234.0,0.0
-1.619941,-4.584648,7.549356,24.01,36.889999,16.940001,1729415506256.0,0.0
-1.899901,-4.869394,7.401,29.68,37.869999,19.530001,1729415506277.0,0.0
-2.206182,-5.491528,8.02792,36.330002,38.43,17.08,1729415506295.0,0.0
-3.37388,-6.391229,8.702696,43.259998,36.610001,13.58,1729415506315.0,0.0
-3.278167,-6.273981,8.898908,40.110001,33.040001,3.43,1729415506334.0,0.0
-3.18724,-6.273981,8.487342,33.32,28.700001,-8.61,1729415506355.0,0.0
-2.878566,-5.627919,8.348558,32.900002,26.040001,-18.9,1729415506379.0,0.0
-3.172883,-5.350351,7.975278,35.0,23.030001,-24.290001,1729415506394.0,0.0
-2.842674,-4.498507,7.896315,38.080002,21.700001,-29.049999,1729415506414.0,0.0
-3.09392,-3.407379,9.147761,44.380001,22.75,-30.450001,1729415506435.0,0.0
-3.148954,-2.557927,9.698111,36.610001,18.41,-26.950001,1729415506456.0,0.0
-2.924029,-2.904887,8.597411,18.059999,12.25,-23.030001,1729415506475.0,0.0
-2.574677,-3.048456,8.305488,16.379999,10.92,-19.040001,1729415506494.0,0.0
-2.167897,-3.072384,8.848659,24.01,12.32,-14.98,1729415506514.0,0.0
-2.644069,-3.326023,9.533006,25.690001,11.27,-9.87,1729415506534.0,0.0
-2.67039,-4.613362,9.726824,19.389999,5.25,-9.03,1729415506556.0,0.0
-2.435893,-3.694518,9.147761,22.889999,1.33,-8.05,1729415506578.0,0.0
-2.433501,-2.435893,8.133204,14.77,3.08,-4.62,1729415506594.0,0.0
-3.448057,-3.74716,8.403593,3.85,1.96,-3.92,1729415506614.0,0.0
-4.352544,-4.900501,8.685946,18.620001,-1.33,-6.58,1729415506636.0,0.0
-3.622734,-3.493521,9.470792,24.639999,-3.71,-12.39,1729415506654.0,0.0
-2.368894,-2.711068,8.690732,5.32,-3.92,-19.950001,1729415506677.0,0.0
-1.337588,-2.790031,7.578069,-15.75,-0.07,-20.58,1729415506694.0,0.0
-2.830709,-3.034099,6.156733,-15.96,7.35,-17.710001,1729415506715.0,0.0
-2.782853,-1.56012,6.951149,8.82,12.11,-9.45,1729415506735.0,0.0
-3.089134,-0.600598,9.133404,19.110001,11.76,-1.4,1729415506754.0,0.0
-3.739982,-2.624927,10.315458,6.51,2.52,5.6,1729415506777.0,0.0
-3.24706,-2.79721,10.794022,8.05,-4.34,8.54,1729415506794.0,0.0
-2.665605,-3.76391,9.339187,-6.02,-9.94,4.76,1729415506814.0,0.0
-2.337788,-4.23051,8.154739,-10.01,-7.0,0.49,1729415506835.0,0.0
-1.497907,-2.868994,7.800602,-1.19,-0.56,-2.45,1729415506855.0,0.0
-1.531406,-1.825724,8.123632,6.16,0.84,3.08,1729415506876.0,0.0
-2.392823,-2.182254,8.114061,11.27,0.56,11.83,1729415506894.0,0.0
-2.22054,-1.459622,8.496914,16.309999,1.4,16.940001,1729415506915.0,0.0
-2.787638,-4.007978,9.059227,17.57,0.7,18.690001,1729415506935.0,0.0
-2.964707,-5.931807,9.4349,18.200001,-0.7,14.14,1729415506955.0,0.0
-2.907279,-5.45085,10.535598,23.1,-2.66,2.03,1729415506976.0,0.0
-2.462214,-2.199004,9.085547,4.48,-7.35,-7.14,1729415506995.0,0.0
-0.648455,3.426522,6.12084,-39.27,-2.24,-2.52,1729415507015.0,0.0
-3.768696,-8.975478,5.190032,-76.440002,-10.36,4.55,1729415507036.0,0.0
-2.359323,-0.217747,8.169096,60.760002,13.440001,31.360001,1729415507055.0,0.0
-3.816552,-0.050249,9.702895,27.23,9.38,18.48,1729415507075.0,0.0
-4.151547,-5.883951,9.413363,-42.91,4.9,14.63,1729415507094.0,0.0
-4.278367,-6.068198,8.597411,-11.55,0.21,8.96,1729415507114.0,0.0
-2.940779,-2.148755,8.906086,16.799999,5.67,-1.4,1729415507135.0,0.0
-3.15374,-4.709075,8.458629,-11.06,6.16,-10.64,1729415507156.0,0.0
-4.187439,-6.022735,10.229317,8.89,5.6,-15.190001,1729415507175.0,0.0
-2.63689,-3.505485,10.911271,37.799999,-0.49,-20.65,1729415507196.0,0.0
-1.959722,-2.864209,10.162319,22.469999,-8.26,-25.9,1729415507216.0,0.0
-0.066999,2.455036,8.817552,3.85,-3.43,-21.42,1729415507233.0,0.0
-3.022135,-5.484349,4.567898,-54.18,-6.16,-14.42,1729415507254.0,0.0
-3.572484,-4.924429,6.312266,18.76,6.02,-11.62,1729415507275.0,0.0
-3.031706,-2.957529,8.712267,49.279999,8.68,-19.389999,1729415507295.0,0.0
-1.009771,-0.715454,8.779266,21.07,9.73,-22.049999,1729415507315.0,0.0
-3.089134,-1.423729,7.970492,-22.889999,13.3,-14.28,1729415507335.0,0.0
-2.402394,-3.701697,7.513463,-26.74,8.89,-8.75,1729415507354.0,0.0
-3.0006,-0.90688,8.712267,13.3,11.34,0.63,1729415507375.0,0.0
-2.266003,-0.155533,9.339187,-0.98,10.71,3.71,1729415507396.0,0.0
-4.412365,-3.888337,8.961121,-17.08,6.02,9.45,1729415507415.0,0.0
-4.079762,-4.039084,8.422735,2.24,1.82,7.14,1729415507434.0,0.0
-2.081756,-2.431108,8.657232,9.17,4.97,-2.94,1729415507454.0,0.0
-1.713261,-2.239682,8.77448,-4.83,7.63,-5.46,1729415507476.0,0.0
-1.062413,-0.31346,8.740981,-0.63,8.75,2.8,1729415507494.0,0.0
-1.196411,-2.665605,7.252645,-6.65,8.4,12.32,1729415507515.0,0.0
-2.378466,-1.39023,9.396614,25.200001,10.36,23.450001,1729415507534.0,0.0
-1.801795,-0.961915,9.564112,-1.05,10.64,21.629999,1729415507554.0,0.0
-3.443272,-5.84088,8.803195,-53.900002,7.42,23.030001,1729415507582.0,0.0
-3.60359,-5.618347,6.699903,-6.51,-0.98,16.309999,1729415507594.0,0.0
-6.364908,-3.211168,8.360522,51.240002,10.29,24.85,1729415507614.0,0.0
-3.474378,-5.304887,10.033106,-8.75,6.09,-11.2,1729415507635.0,0.0
-3.098706,-4.424329,8.427521,-18.129999,5.88,-13.02,1729415507654.0,0.0
-2.098505,-2.639283,7.695317,-5.04,11.62,-14.42,1729415507676.0,0.0
-2.976671,-1.469193,8.032705,8.12,19.950001,-9.94,1729415507694.0,0.0
-4.029513,-1.820938,9.233903,8.4,19.389999,-8.68,1729415507715.0,0.0
-4.383651,-2.912065,9.84168,5.25,13.79,-7.56,1729415507733.0,0.0
-5.070391,-6.262017,12.339786,5.32,1.05,-12.32,1729415507755.0,0.0
-2.871387,-2.612962,11.997612,33.740002,-5.39,-16.870001,1729415507777.0,0.0
-3.108276,-3.024528,9.377472,-39.970001,-17.01,-27.440001,1729415507794.0,0.0
0.339781,-0.040678,6.879365,-32.619999,-19.18,-21.07,1729415507816.0,0.0
-3.957729,-4.814359,1.129412,-30.940001,-10.15,-5.25,1729415507834.0,0.0
-4.185047,-0.514457,7.051648,43.889999,13.51,0.56,1729415507856.0,0.0
-4.723432,-0.870987,9.779467,37.73,14.14,4.62,1729415507883.0,0.0
-3.907479,-3.06042,9.863215,-3.15,7.21,1.26,1729415507893.0,0.0
-2.701497,-2.581856,8.839087,-16.17,4.48,1.33,1729415507914.0,0.0
-2.529213,-2.9671,7.762317,-17.360001,4.48,3.29,1729415507934.0,0.0
-3.54377,-3.37388,7.580462,-6.02,5.95,6.3,1729415507954.0,0.0
-4.369294,-3.460021,8.769694,2.03,4.62,7.28,1729415507976.0,0.0
-4.582255,-4.941179,8.355737,-4.27,-0.7,1.4,1729415507995.0,0.0
-3.122634,-2.957529,7.855636,2.45,1.61,-7.91,1729415508014.0,0.0
-2.723032,-1.897508,7.525427,6.51,7.49,-9.87,1729415508035.0,0.0
-2.201397,-1.775474,7.898707,8.82,10.71,-4.27,1729415508056.0,0.0
-2.524428,-2.852244,9.456435,20.51,11.48,0.63,1729415508077.0,0.0
-2.464607,-1.5003,10.356135,23.1,11.13,3.36,1729415508095.0,0.0
-0.51685,1.253839,9.695717,-22.889999,14.7,6.65,1729415508114.0,0.0
-4.445865,-9.052048,8.422735,-79.309998,1.68,11.9,1729415508135.0,0.0
-3.395415,-5.551349,7.161718,16.66,3.36,16.870001,1729415508155.0,0.0
-3.457629,-1.040878,10.277173,59.220001,14.42,15.54,1729415508177.0,0.0
-4.199404,-4.182654,9.98525,-17.57,2.59,-3.85,1729415508194.0,0.0
-4.122833,-3.488736,9.298509,-37.450001,-3.36,-9.03,1729415508216.0,0.0
-4.149154,-2.916851,8.109276,-18.83,-4.06,-2.66,1729415508235.0,0.0
-2.835495,-2.002793,7.317252,-7.56,0.07,-3.29,1729415508256.0,0.0
-4.266403,-3.474378,7.642675,-6.93,3.71,0.49,1729415508278.0,0.0
-5.161318,-4.445865,8.829515,3.99,5.04,-1.68,1729415508296.0,0.0
-4.742575,-3.991228,7.783852,-1.26,4.83,-10.57,1729415508316.0,0.0
-5.864808,-6.912865,10.353743,9.24,-7.0,-23.24,1729415508337.0,0.0
-3.617948,-1.301696,10.526026,62.439999,-9.73,-25.059999,1729415508357.0,0.0
-0.693919,-1.174876,9.812965,-21.35,-29.82,-39.970001,1729415508378.0,0.0
-1.57687,-4.046263,5.158926,-35.0,-28.42,-32.759998,1729415508396.0,0.0
-4.130012,-5.099105,2.608176,-37.240002,-4.48,-22.33,1729415508417.0,0.0
-2.821138,-0.526421,7.458428,21.77,7.56,-22.120001,1729415508435.0,0.0
-3.883551,2.206182,9.164511,14.21,4.55,-5.88,1729415508456.0,0.0
-2.40718,-0.641276,7.972885,-45.779999,-8.4,2.45,1729415508478.0,0.0
-3.335595,-3.249453,7.606783,-31.43,-7.98,15.05,1729415508495.0,0.0
-3.452843,-1.490728,8.662018,7.28,1.47,18.200001,1729415508582.0,0.0
-2.610569,-1.112662,8.496914,1.33,7.77,21.280001,1729415508587.0,0.0
-2.926422,-2.378466,8.13799,-17.15,8.4,26.950001,1729415508589.0,0.0
-1.919044,-1.423729,6.424729,-12.6,8.54,28.630001,1729415508591.0,0.0
-5.190032,-4.65404,7.070791,9.8,15.47,33.040001,1729415508640.0,0.0
-1.615155,1.167697,8.834301,23.799999,30.309999,37.310001,1729415508643.0,0.0
-4.981857,-13.703696,7.290931,-31.43,9.45,18.27,1729415508645.0,0.0
-5.529813,-6.484549,10.07139,54.599998,13.65,5.46,1729415508656.0,0.0
-4.139583,-2.924029,9.432507,69.019997,21.91,-3.64,1729415508678.0,0.0
-3.385844,-4.833502,9.882358,3.71,7.84,-24.15,1729415508695.0,0.0
-3.132205,-1.045663,9.128618,6.37,5.32,-12.53,1729415508716.0,0.0
-2.328217,-1.679761,8.834301,-1.05,0.91,-7.98,1729415508735.0,0.0
-2.624927,-0.875773,9.803394,7.28,1.19,0.84,1729415508756.0,0.0
-3.232704,-1.5003,10.368099,2.73,-3.01,9.73,1729415508778.0,0.0
-3.361916,-2.615355,10.4016,-13.93,-7.35,11.62,1729415508796.0,0.0
-3.809374,-3.436093,9.573684,-21.49,-11.2,12.6,1729415508816.0,0.0
-3.964907,-3.067599,8.666803,-18.200001,-9.94,12.25,1729415508836.0,0.0
-4.158726,-2.833102,7.676175,-17.5,-6.37,9.38,1729415508855.0,0.0
-4.022335,-3.273381,6.369694,-15.4,-1.54,7.91,1729415508877.0,0.0
-4.369294,-2.689533,5.759524,-4.13,10.85,7.35,1729415508896.0,0.0
-5.986843,-5.685347,7.032506,-0.63,14.28,2.03,1729415508916.0,0.0
-4.634897,-5.106283,10.140782,41.93,3.78,-12.81,1729415508935.0,0.0
-5.970093,-3.78066,11.203196,33.459999,4.34,-15.26,1729415508956.0,0.0
-1.339981,-1.785046,10.399208,-15.47,-21.42,-35.349998,1729415508976.0,0.0
-4.106083,-5.012963,6.34098,-13.72,-18.27,-18.969999,1729415508996.0,0.0
-1.198804,-0.705883,5.302495,-27.93,2.66,-29.049999,1729415509016.0,0.0
-2.845066,-1.758725,5.855237,-29.469999,6.51,-20.65,1729415509035.0,0.0
-3.404987,0.792024,8.080563,14.49,14.0,-0.07,1729415509055.0,0.0
-2.660819,0.241675,8.879765,-1.75,8.96,8.33,1729415509077.0,0.0
-3.546163,-2.383251,8.645268,-10.43,6.16,21.77,1729415509095.0,0.0
-4.09412,-2.909672,8.982656,2.38,7.63,25.48,1729415509115.0,0.0
-2.600998,-0.200997,9.468399,6.86,14.63,25.200001,1729415509135.0,0.0
-2.957529,-1.995614,8.38445,-12.6,12.88,29.26,1729415509155.0,0.0
-2.009971,-2.380858,7.51107,-9.31,15.12,33.529999,1729415509176.0,0.0
-3.979264,-3.546163,7.238289,17.99,17.5,42.490002,1729415509196.0,0.0
-3.089134,-2.464607,8.561519,41.93,23.17,37.52,1729415509215.0,0.0
-2.031506,-5.766702,9.059227,28.700001,23.799999,21.139999,1729415509235.0,0.0
-9.19801,-13.694124,7.269395,16.24,17.360001,4.97,1729415509266.0,0.0
-5.07757,-3.254239,11.102697,53.060001,20.09,-1.68,1729415509280.0,0.0
-3.689733,-3.54377,7.051648,10.71,4.27,-23.940001,1729415509303.0,0.0
-2.624927,0.153141,6.463014,-5.46,14.0,-18.690001,1729415509411.0,0.0
-4.996214,-0.78006,6.970293,-12.39,17.43,-2.17,1729415509411.0,0.0
-5.448457,-0.480957,8.796017,3.85,21.280001,9.66,1729415509412.0,0.0
-5.915058,-1.775474,10.537991,-6.65,14.91,11.69,1729415509412.0,0.0
-5.965307,-2.952743,10.614561,-24.01,4.2,10.78,1729415509412.0,0.0
-5.76431,-2.694318,9.982857,-22.75,1.33,7.91,1729415509417.0,0.0
-4.926822,-2.78046,9.817751,-11.97,-4.55,2.03,1729415509434.0,0.0
-4.287938,-2.062613,7.317252,-14.07,-1.54,-2.24,1729415509455.0,0.0
-4.292724,-3.397808,6.774081,-20.51,3.71,-4.69,1729415509476.0,0.0
-5.931807,-6.025128,8.573483,4.83,0.28,-7.0,1729415509494.0,0.0
-5.752346,-4.704289,9.860823,38.920002,-4.34,-9.52,1729415509514.0,0.0
-4.850252,-3.237489,11.464014,28.700001,-17.08,-22.469999,1729415509534.0,0.0
-4.192225,-1.954936,10.631311,-15.75,-24.360001,-33.040001,1729415509554.0,0.0
-0.598206,-1.069592,3.201597,-64.260002,-16.17,-22.610001,1729415509577.0,0.0
-2.924029,-0.662812,1.631905,-21.42,2.52,3.85,1729415509594.0,0.0
-6.750153,-0.806381,6.963113,44.029999,17.57,16.870001,1729415509615.0,0.0
-6.302694,-1.9669,10.080962,24.99,11.27,12.32,1729415509634.0,0.0
-4.804788,-4.615755,10.667203,-7.91,-1.33,4.27,1729415509654.0,0.0
-3.07717,-3.199204,9.824929,-9.8,-0.28,-0.49,1729415509676.0,0.0
-2.991028,-2.452643,7.664211,-24.639999,2.45,-1.4,1729415509694.0,0.0
-3.936193,-3.019742,6.080163,-34.93,4.55,-2.8,1729415509714.0,0.0
-5.041678,-2.68714,6.546762,1.68,7.63,2.52,1729415509735.0,0.0
-5.314459,-3.249453,6.829116,12.53,10.71,-1.12,1729415509755.0,0.0
-3.52702,0.253639,7.889136,20.93,16.799999,-6.93,1729415509778.0,0.0
-2.48375,1.12702,8.69791,8.33,23.66,4.83,1729415509795.0,0.0
-2.084148,0.677169,7.649854,-12.18,22.889999,21.07,1729415509814.0,0.0
-5.702096,-4.232903,7.293324,5.53,21.700001,38.43,1729415509835.0,0.0
-4.768896,-3.036492,9.731609,35.560001,27.09,42.279999,1729415509855.0,0.0
-3.113062,-2.794817,10.411172,5.18,21.98,21.139999,1729415509877.0,0.0
-6.635297,-11.880364,7.932207,-64.120003,4.83,-2.59,1729415509896.0,0.0
-6.226124,-4.56072,7.259824,14.35,16.52,22.469999,1729415509922.0,0.0
-6.886543,-0.827917,10.736595,31.780001,10.71,3.57,1729415509937.0,0.0
-5.836094,-3.180061,9.798609,-40.950001,-5.46,-12.04,1729415509954.0,0.0
-5.347959,-4.443472,6.991827,-52.849998,-6.02,-15.54,1729415509978.0,0.0
-4.639683,-1.615155,6.769295,-7.56,6.16,-14.0,1729415509995.0,0.0
-5.134997,-1.442872,6.051448,8.96,17.219999,-14.7,1729415510014.0,0.0
-6.520442,-3.711268,8.329416,6.51,16.870001,-10.85,1729415510036.0,0.0
-6.886543,-5.503492,11.16491,24.57,-1.82,-17.85,1729415510056.0,0.0
-5.977271,-5.268995,11.897114,38.709999,-12.67,-26.18,1729415510078.0,0.0
-3.330809,0.945165,12.193825,27.93,-11.76,-35.420002,1729415510095.0,0.0
-5.221139,-7.398607,6.441479,-67.059998,-30.17,-45.080002,1729415510118.0,0.0
-4.567898,-2.847459,4.977071,12.53,-11.97,-34.93,1729415510138.0,0.0
-2.507678,1.208375,7.111469,44.939999,-13.51,-34.16,1729415510156.0,0.0
-4.82393,-0.488136,6.652047,-4.27,-6.58,-24.01,1729415510178.0,0.0
-3.565305,-1.990828,6.482157,-24.219999,-6.37,-16.799999,1729415510195.0,0.0
-4.144369,-0.133998,7.362715,7.14,-0.63,-2.17,1729415510217.0,0.0
-3.63709,-0.378066,7.946564,-3.78,0.14,4.13,1729415510237.0,0.0
-4.735396,-2.598605,7.920243,-8.89,-1.96,13.72,1729415510256.0,0.0
-5.785845,-3.921836,8.228917,14.28,-0.21,14.35,1729415510282.0,0.0
-3.854837,1.131805,9.497113,33.880001,5.04,7.7,1729415510300.0,0.0
-2.971886,0.177069,7.893922,-13.16,1.33,23.59,1729415510316.0,0.0
-3.95055,-2.502892,6.039484,-25.83,-4.13,32.900002,1729415510337.0,0.0
-4.673182,-4.347759,8.516055,32.34,4.55,42.77,1729415510356.0,0.0
-4.319045,-8.989835,8.815158,58.029999,4.55,19.460001,1729415510380.0,0.0
-8.769694,-7.223931,10.107283,35.700001,-1.19,-20.58,1729415510397.0,0.0
-3.507878,-2.993421,8.054241,16.73,-0.77,-46.970001,1729415510416.0,0.0
-2.935993,-2.361716,5.108676,-9.38,-3.78,-45.009998,1729415510437.0,0.0
-4.441079,1.244268,7.200003,25.76,2.38,-22.469999,1729415510458.0,0.0
-5.010571,-0.583849,7.721639,24.15,-2.59,-12.95,1729415510479.0,0.0
-5.02732,-2.794817,9.176475,17.710001,-2.73,-9.8,1729415510496.0,0.0
-4.807181,-2.440679,9.994821,8.82,-1.82,-10.64,1729415510519.0,0.0
-3.213561,-0.069392,8.786445,-16.1,-1.68,-13.79,1729415510536.0,0.0
-3.029313,-1.586441,6.953543,-49.630001,-0.21,-5.18,1729415510557.0,0.0
-1.239482,1.722832,6.623333,-34.16,13.72,14.0,1729415510583.0,0.0
-4.476971,0.650848,6.343372,-49.07,17.01,39.41,1729415510597.0,0.0
-6.321837,1.067199,8.484949,-34.299999,24.639999,54.529999,1729415510618.0,0.0
-7.032506,-5.123034,7.800602,-63.91,15.68,53.970001,1729415510642.0,0.0
-6.51087,-6.388836,8.30788,-26.950001,17.639999,40.599998,1729415510657.0,0.0
-6.173482,-6.01077,7.125826,-26.950001,28.49,19.74,1729415510677.0,0.0
-7.188039,-6.79083,7.255038,12.11,30.799999,3.92,1729415510698.0,0.0
-6.30748,-5.749953,8.738588,37.450001,20.23,-13.72,1729415510716.0,0.0
-6.293124,-5.041678,9.10469,36.610001,10.71,-24.08,1729415510736.0,0.0
-3.900301,-1.002593,10.19821,36.68,1.47,-33.389999,1729415510757.0,0.0
-3.292524,-0.62692,6.491727,-15.190001,-7.21,-34.93,1729415510781.0,0.0
-3.979264,-4.826324,3.426522,-40.950001,-3.71,-30.73,1729415510800.0,0.0
-2.455036,-0.33021,5.087141,17.290001,19.530001,-23.030001,1729415510818.0,0.0
-5.785845,-0.679562,7.089933,12.81,16.66,-12.04,1729415510836.0,0.0
-5.402994,0.320638,8.695518,0.42,13.37,-3.92,1729415510857.0,0.0
-5.233103,-0.129212,8.671589,-22.469999,4.48,7.84,1729415510880.0,0.0
-4.962714,-1.725225,8.243275,-29.049999,3.85,12.74,1729415510897.0,0.0
-5.383851,-2.644069,8.492127,-9.73,8.19,14.84,1729415510916.0,0.0
-5.986843,-2.976671,8.647661,16.799999,12.32,11.06,1729415510937.0,0.0
-4.429115,-1.361516,8.523234,18.200001,14.91,6.86,1729415510957.0,0.0
-3.086741,-1.861616,7.042077,-14.63,12.95,8.4,1729415510979.0,0.0
-5.221139,-4.713861,4.555934,-5.88,16.450001,19.110001,1729415510998.0,0.0
-4.371687,0.79681,8.288737,36.82,24.92,23.309999,1729415511016.0,0.0
-3.304488,-1.124627,9.054441,17.710001,21.84,26.460001,1729415511036.0,0.0
-5.943772,-9.075976,6.63769,-40.32,5.95,17.08,1729415511057.0,0.0
-5.125426,3.61077,6.297909,-16.59,20.16,29.120001,1729415511078.0,0.0
-6.037091,-3.034099,5.998806,-27.65,3.85,29.889999,1729415511096.0,0.0
-7.795816,-0.327817,9.375079,-17.08,16.66,34.369999,1729415511117.0,0.0
-6.735795,-2.510071,4.953143,-85.959999,8.26,26.67,1729415511136.0,0.0
-8.097312,-4.596612,5.297709,-49.91,13.79,31.639999,1729415511157.0,0.0
-9.059227,-5.613562,8.082954,19.110001,20.440001,18.9,1729415511179.0,0.0
-8.932407,-5.032106,10.169496,47.599998,12.95,-3.64,1729415511196.0,0.0
-7.168896,-5.692525,8.626125,19.74,1.75,-34.509998,1729415511216.0,0.0
-6.788438,-6.975078,7.554141,14.98,-1.82,-50.68,1729415511237.0,0.0
-6.486942,-4.551149,10.473385,55.650002,-3.36,-56.07,1729415511257.0,0.0
-4.788038,-2.330609,9.722038,58.799999,-18.969999,-59.779999,1729415511278.0,0.0
-4.520042,-1.205983,10.04507,37.66,-31.780001,-55.02,1729415511297.0,0.0
-2.761317,7.037291,2.70389,-51.240002,-33.529999,-40.810001,1729415511316.0,0.0
-1.442872,-1.533799,-4.053442,-89.739998,-20.440001,-19.18,1729415511336.0,0.0
-7.255038,0.940379,4.299902,46.900002,16.870001,26.18,1729415511357.0,0.0
-8.702696,0.677169,9.372685,61.880001,13.79,26.950001,1729415511379.0,0.0
-8.719445,-4.742575,10.502099,0.21,-1.05,14.7,1729415511396.0,0.0
-7.125826,-6.716653,10.164711,-22.120001,-10.29,-5.25,1729415511418.0,0.0
-5.146961,-5.070391,9.387043,5.81,-8.68,-24.01,1729415511438.0,0.0
-3.251846,-2.612962,6.922436,1.05,-3.43,-31.639999,1729415511458.0,0.0
-3.364309,-2.026721,5.029713,-15.33,-0.63,-29.540001,1729415511478.0,0.0
-3.998406,0.234497,5.156533,-2.94,3.85,-14.56,1729415511495.0,0.0
-5.199604,-0.476172,5.283352,-2.66,2.94,-0.91,1729415511517.0,0.0
-5.142176,-1.507478,6.539584,5.95,4.83,6.37,1729415511537.0,0.0
-4.919643,-0.375673,8.537591,24.01,11.62,10.78,1729415511556.0,0.0
-3.869194,-0.435494,8.834301,14.56,18.76,18.690001,1729415511582.0,0.0
-4.551149,-2.395216,7.379465,-5.81,16.030001,26.74,1729415511596.0,0.0
-5.498707,-2.426322,8.549555,19.530001,10.08,31.219999,1729415511616.0,0.0
-7.496714,-11.665009,9.659825,45.709999,4.55,27.790001,1729415511636.0,0.0
-9.343972,-4.575077,11.459228,15.89,-13.23,-15.75,1729415511656.0,0.0
-5.618347,-5.907879,5.84088,-21.07,-23.66,-48.790001,1729415511688.0,0.0
-4.398008,-0.997807,3.945765,-10.92,-13.440001,-44.450001,1729415511697.0,0.0
-4.362115,0.79681,4.532006,14.56,0.07,-25.27,1729415511716.0,0.0
-5.268995,-0.440279,6.419943,31.43,5.04,-11.76,1729415511737.0,0.0
-5.608776,-0.870987,7.927422,43.75,9.66,-7.98,1729415511758.0,0.0
-4.618148,0.344566,8.626125,26.530001,14.35,-4.13,1729415511778.0,0.0
-4.331009,1.325624,7.735995,-28.77,17.360001,9.24,1729415511797.0,0.0
-5.970093,-0.191426,8.496914,-42.91,11.83,25.129999,1729415511815.0,0.0
-7.848458,-1.596013,9.461221,-40.32,7.49,30.17,1729415511838.0,0.0
-7.819745,-5.525027,8.539984,-35.560001,-4.69,24.99,1729415511856.0,0.0
-6.699903,-3.031706,7.678568,4.9,2.73,11.62,1729415511878.0,0.0
-6.592227,-4.548756,5.850451,-10.71,10.29,-6.44,1729415511896.0,0.0
-7.401,-3.804588,6.862615,11.62,14.91,-9.03,1729415511916.0,0.0
-7.939385,-3.632305,9.674182,36.119999,-1.96,-15.47,1729415511936.0,0.0
-7.688138,-4.412365,10.717452,34.650002,-18.76,-21.49,1729415511965.0,0.0
-4.673182,0.622134,8.872586,7.35,-21.91,-37.240002,1729415511980.0,0.0
-1.57687,-2.739782,-1.952543,-32.830002,-26.460001,-37.869999,1729415511998.0,0.0
-4.768896,-3.273381,4.098906,10.22,-3.78,-26.389999,1729415512017.0,0.0
-6.07777,-0.473779,7.424929,36.470001,-0.84,-27.23,1729415512038.0,0.0
-5.718846,-0.193819,8.772088,3.08,-9.52,-17.780001,1729415512057.0,0.0
-4.811966,-2.196611,7.956135,-32.759998,-16.59,-19.74,1729415512079.0,0.0
-4.845466,-1.615155,7.223931,-16.799999,-11.41,-15.89,1729415512096.0,0.0
-3.182454,1.775474,7.676175,-11.83,-2.03,-3.01,1729415512117.0,0.0
-4.783253,-2.364109,5.783452,-24.15,-1.26,10.22,1729415512137.0,0.0
-4.436293,1.914258,7.925028,9.45,11.06,18.969999,1729415512157.0,0.0
-4.524827,1.004985,7.087541,-4.2,8.33,33.529999,1729415512179.0,0.0
-3.9338,0.291924,8.712267,-8.19,7.07,44.310001,1729415512197.0,0.0
-4.419543,-2.675175,8.578269,-6.09,9.73,54.459999,1729415512217.0,0.0
-7.161718,-6.252446,9.351151,4.76,8.75,51.310001,1729415512237.0,0.0
-6.821937,-14.170296,7.223931,34.369999,8.61,38.57,1729415512260.0,0.0
-8.140383,-0.760918,11.990433,55.650002,-0.28,-4.76,1729415512279.0,0.0
-5.034499,-5.395815,6.915257,3.92,-18.200001,-47.25,1729415512297.0,0.0
-5.070391,-2.529213,3.649055,-7.49,-11.69,-35.84,1729415512318.0,0.0
-4.907679,-1.328017,4.194618,17.85,0.63,-27.719999,1729415512337.0,0.0
-5.278566,0.385244,6.436693,42.279999,8.26,-16.66,1729415512358.0,0.0
-4.788038,-1.990828,7.800602,21.91,2.8,-16.030001,1729415512380.0,0.0
-2.852244,1.871187,8.750552,13.02,10.36,-4.83,1729415512397.0,0.0
-3.852444,1.277767,7.424929,-61.740002,19.32,10.92,1729415512418.0,0.0
-6.065805,-3.601198,7.362715,-72.730003,14.77,23.73,1729415512439.0,0.0
-8.269595,-2.256432,9.449257,-25.27,15.190001,29.190001,1729415512458.0,0.0
-7.422535,-5.446064,9.449257,-12.25,2.03,16.52,1729415512490.0,0.0
-6.582655,-5.063213,9.147761,0.84,5.46,-1.54,1729415512498.0,0.0
-5.972485,-5.211568,8.090133,-8.12,10.08,-21.07,1729415512518.0,0.0
-7.79103,-7.15454,10.100104,10.64,-2.87,-36.889999,1729415512539.0,0.0
-6.376873,-2.438286,10.212566,44.170002,-16.379999,-42.349998,1729415512559.0,0.0
-5.895915,0.217747,13.426127,6.16,-31.290001,-52.779999,1729415512584.0,0.0
-1.265803,0.334995,0.543171,-58.170002,-32.900002,-32.759998,1729415512598.0,0.0
-5.458029,-6.592227,1.272982,-31.92,-7.21,-9.66,1729415512618.0,0.0
-6.896115,-0.777667,8.30788,66.220001,8.19,-11.97,1729415512638.0,0.0
-6.070591,0.323031,9.65504,34.790001,-0.91,-8.26,1729415512658.0,0.0
-4.48415,-3.15374,8.10449,-39.48,-8.89,-10.57,1729415512686.0,0.0
-3.818945,-2.213361,7.726424,-22.960001,-2.73,-5.25,1729415512698.0,0.0
-4.333402,-0.847059,7.575676,0.49,3.57,2.8,1729415512718.0,0.0
-5.85763,-2.720639,6.276374,-9.66,1.47,4.06,1729415512739.0,0.0
-6.575477,-2.952743,6.324231,0.7,0.63,4.48,1729415512759.0,0.0
-4.974678,0.710668,7.573284,10.64,4.83,8.61,1729415512781.0,0.0
-3.754339,1.308874,7.381857,-4.34,7.91,17.219999,1729415512799.0,0.0
-3.105884,0.708275,6.092126,-18.34,11.06,30.380001,1729415512829.0,0.0
-6.001199,-2.909672,7.879565,-0.91,11.97,48.439999,1729415512838.0,0.0
-4.407579,-3.378666,10.210175,24.99,15.96,51.869999,1729415512859.0,0.0
-10.815558,-18.187845,5.426922,23.73,-2.66,16.799999,1729415512880.0,0.0
-5.589634,-5.728417,8.944371,67.199997,13.86,14.0,1729415512898.0,0.0
-3.18724,-1.928615,4.220939,-48.09,-12.39,-36.049999,1729415512920.0,0.0
-3.996014,1.935793,4.208975,-19.040001,1.47,-13.72,1729415512939.0,0.0
-5.47717,-0.5001,4.941179,1.19,8.68,8.96,1729415512958.0,0.0
-7.580462,-1.256232,8.819944,32.970001,15.05,14.0,1729415512980.0,0.0
-7.054041,-2.311467,9.406186,6.86,11.55,3.71,1729415512998.0,0.0
-5.740381,-4.319045,8.843873,-31.08,8.54,-6.79,1729415513018.0,0.0
-6.053841,-4.622933,9.030513,-13.93,11.62,-5.32,1729415513038.0,0.0
-5.98445,-3.562913,10.648061,18.76,6.65,-10.5,1729415513058.0,0.0
-5.04407,-1.808974,8.745767,9.03,0.7,-21.07,1729415513080.0,0.0
-4.847858,-1.598405,7.159326,-23.17,-2.73,-22.540001,1729415513099.0,0.0
-6.592227,-5.307281,7.719246,-21.700001,-9.03,-19.530001,1729415513117.0,0.0
-6.139983,-2.579463,10.049855,36.259998,-13.23,-13.58,1729415513137.0,0.0
-6.403193,-3.213561,10.317852,36.119999,-24.57,-16.73,1729415513158.0,0.0
-5.850451,-1.529014,8.638089,-15.33,-20.16,-24.99,1729415513185.0,0.0
-2.15354,-1.57687,3.962514,-60.549999,-25.48,-21.07,1729415513198.0,0.0
-3.749553,-3.493521,-1.265803,-23.379999,-3.5,-1.96,1729415513218.0,0.0
-8.953942,-0.55992,11.186446,83.93,14.49,-1.61,1729415513237.0,0.0
-6.893722,-2.888137,11.574083,14.14,-9.59,-13.3,1729415513258.0,0.0
-3.938586,-3.955336,7.62114,-44.240002,-17.5,-22.960001,1729415513280.0,0.0
-3.419343,-3.235096,6.817152,-22.469999,-8.75,-22.610001,1729415513298.0,0.0
-3.235096,-0.155533,7.530212,7.0,-0.56,-11.83,1729415513318.0,0.0
-4.366901,-1.801795,6.699903,-12.39,-2.8,-4.27,1729415513338.0,0.0
-5.254639,-1.89033,6.85783,-7.35,-4.34,-0.7,1729415513358.0,0.0
-3.931407,0.617348,8.068598,3.99,-1.82,3.78,1729415513380.0,0.0
-3.388237,0.868595,8.224132,-8.96,1.4,16.52,1729415513399.0,0.0
-3.493521,-0.48335,7.393822,-24.5,1.96,26.18,1729415513417.0,0.0
-3.629912,-2.455036,6.728617,-18.83,4.83,34.860001,1729415513438.0,0.0
-6.482157,-3.716053,8.587841,17.639999,7.21,41.720001,1729415513458.0,0.0
-4.144369,-3.012564,9.41815,26.389999,12.04,34.790001,1729415513479.0,0.0
-3.108276,-0.803988,8.140383,-6.3,15.54,27.790001,1729415513497.0,0.0
-6.142376,-6.355337,5.300103,-73.919998,-4.83,12.6,1729415513583.0,0.0
-7.915457,-1.794617,6.640083,13.37,10.78,46.900002,1729415513584.0,0.0
-6.922436,-2.9336,8.250452,12.04,6.44,15.96,1729415513584.0,0.0
-6.262017,-4.981857,6.742974,-30.24,-0.56,-2.31,1729415513585.0,0.0
-6.733403,-4.914857,8.099705,10.01,4.27,-8.61,1729415513597.0,0.0
-5.907879,-2.988636,7.848458,30.799999,10.43,-20.23,1729415513618.0,0.0
-5.642276,-3.962514,7.810174,6.72,6.65,-25.76,1729415513638.0,0.0
-7.180861,-6.104091,9.839286,10.57,-5.46,-31.57,1729415513658.0,0.0
-6.116055,-4.481757,10.236496,35.91,-12.11,-38.5,1729415513679.0,0.0
-4.929214,-3.079563,10.289137,34.369999,-22.610001,-52.360001,1729415513698.0,0.0
-5.986843,1.509871,11.715261,-16.309999,-22.960001,-50.959999,1729415513717.0,0.0
-1.320838,-3.4672,-1.124627,-85.75,-22.4,-32.34,1729415513748.0,0.0
-6.54437,-4.541577,4.962714,-7.56,-4.83,-13.86,1729415513760.0,0.0
-6.683154,1.342373,10.068997,54.810001,-4.27,-12.88,1729415513780.0,0.0
-5.187639,-2.129612,8.216952,-18.129999,-15.68,-18.41,1729415513797.0,0.0
-4.019942,-2.383251,7.479963,-40.25,-11.48,-12.25,1729415513818.0,0.0
-3.895515,-0.605384,7.633104,-10.71,-2.45,-4.34,1729415513838.0,0.0
-3.388237,0.662812,7.350751,-0.91,1.26,8.54,1729415513858.0,0.0
-4.488935,-2.120041,6.379266,-7.0,2.38,21.91,1729415513880.0,0.0
-5.520242,-2.218147,7.085148,19.950001,8.05,26.74,1729415513897.0,0.0
-4.144369,0.196211,8.693125,38.639999,23.1,25.34,1729415513917.0,0.0
-3.287738,0.416351,7.386643,-3.01,23.030001,28.700001,1729415513939.0,0.0
-5.412565,-3.165704,6.707082,-10.99,17.780001,46.900002,1729415513958.0,0.0
-3.924229,0.375673,9.186047,21.77,16.24,58.240002,1729415513979.0,0.0
-9.939785,-23.959335,5.304887,38.920002,1.19,19.110001,1729415514005.0,0.0
-9.188439,-1.59362,12.966705,121.379997,24.57,15.54,1729415514020.0,0.0
-3.285345,-6.094519,6.745367,-21.84,-0.91,-49.139999,1729415514038.0,0.0
-2.612962,-3.361916,6.278766,-39.48,1.68,-48.720001,1729415514059.0,0.0
-3.897908,1.399801,5.182854,30.73,11.83,-6.86,1729415514081.0,0.0
-5.98445,-0.787239,7.88435,37.380001,14.0,1.54,1729415514099.0,0.0
-7.046863,-1.09352,10.581062,37.869999,9.66,-2.17,1729415514118.0,0.0
-6.936793,-2.78046,10.016356,5.88,1.19,-7.7,1729415514139.0,0.0
-6.735795,-3.069991,9.954143,-12.88,-4.83,-11.34,1729415514159.0,0.0
-6.419943,-2.069792,8.865408,-2.66,-10.22,-15.190001,1729415514181.0,0.0
-6.149554,-1.761117,6.455836,-7.63,-9.52,-21.07,1729415514198.0,0.0
-7.501499,-2.85703,6.147161,-18.620001,-3.64,-24.15,1729415514218.0,0.0
-7.542177,-3.349952,9.123833,15.05,-10.99,-27.790001,1729415514238.0,0.0
-6.817152,-2.194218,10.382458,29.68,-11.62,-26.460001,1729415514260.0,0.0
-3.625126,1.485943,11.626726,-3.15,-31.92,-36.330002,1729415514280.0,0.0
-1.040878,-1.146162,0.014357,-22.26,-17.99,-18.41,1729415514299.0,0.0
-5.735595,-6.82433,3.328416,-14.91,4.62,-13.23,1729415514318.0,0.0
-5.9342,1.155733,11.406586,66.010002,12.53,-12.53,1729415514339.0,0.0
-3.962514,1.136591,9.054441,-6.86,-8.26,-6.09,1729415514360.0,0.0
-3.074777,-2.218147,7.077969,-60.200001,-12.46,2.31,1729415514381.0,0.0
-3.668197,-1.150948,7.551748,-24.360001,-2.73,12.6,1729415514399.0,0.0
-4.713861,-1.469193,7.91785,-1.47,0.98,18.27,1729415514420.0,0.0
-5.15414,-2.285146,7.819745,-5.25,-2.1,16.450001,1729415514439.0,0.0
-5.737988,-3.739982,6.91765,-3.99,-5.46,11.34,1729415514460.0,0.0
-4.09412,-1.179662,6.630512,7.77,3.99,6.02,1729415514482.0,0.0
-2.730211,2.45025,7.267002,2.38,15.05,7.84,1729415514499.0,0.0
-5.12782,0.174676,7.673782,10.22,18.620001,38.220001,1729415514519.0,0.0
-4.165904,-1.007378,9.193225,38.779999,18.27,57.119999,1729415514540.0,0.0
-7.819745,-17.740387,4.606184,51.170002,12.67,21.49,1729415514560.0,0.0
-8.831908,2.464607,14.072189,105.349998,31.85,8.96,1729415514585.0,0.0
-3.979264,-7.305287,6.123233,-49.91,-6.86,-47.670002,1729415514600.0,0.0
-3.541377,-2.502892,6.905686,-7.98,-3.15,-30.030001,1729415514619.0,0.0
-4.704289,0.756132,6.910471,35.98,5.32,-10.99,1729415514640.0,0.0
-3.878766,-0.11007,6.927221,3.01,0.84,-9.73,1729415514660.0,0.0
-5.871986,-0.732204,8.865408,14.35,1.82,2.17,1729415514681.0,0.0
-5.548956,-0.81356,9.834501,10.64,-1.4,4.06,1729415514699.0,0.0
-5.489135,-2.021935,8.685946,-16.1,-5.74,2.45,1729415514724.0,0.0
-5.156533,-2.476572,7.908278,-26.530001,-5.53,0.21,1729415514741.0,0.0
-5.907879,-2.007578,8.650054,-11.41,-3.36,3.29,1729415514761.0,0.0
-6.427122,-1.584049,8.724231,-8.4,-7.21,2.59,1729415514781.0,0.0
-6.45105,-1.696511,7.996813,-17.43,-10.64,-0.84,1729415514799.0,0.0
-7.240681,-2.024328,7.140182,-26.18,-10.64,-5.53,1729415514819.0,0.0
-7.281359,-2.242075,6.644868,-18.27,-13.58,-12.25,1729415514840.0,0.0
-6.4343,-0.832702,7.025328,2.17,-10.92,-23.59,1729415514859.0,0.0
-6.403193,-2.141576,8.197811,4.69,-10.22,-24.08,1729415514884.0,0.0
-5.481956,-1.739582,9.882358,27.02,-10.71,-20.719999,1729415514900.0,0.0
-5.577669,-2.39043,11.160125,33.740002,-18.690001,-19.040001,1729415514920.0,0.0
-4.771288,-2.423929,11.174481,19.25,-26.950001,-27.51,1729415514939.0,0.0
-3.524628,-1.320838,13.739587,8.89,-37.450001,-31.92,1729415514960.0,0.0
-2.261217,-3.495914,2.464607,-47.040001,-18.059999,-33.110001,1729415514981.0,0.0
-3.402594,-3.160919,2.945565,-10.15,-12.88,-27.23,1729415514999.0,0.0
-5.398208,-0.136391,6.60419,45.150002,3.43,-17.710001,1729415515020.0,0.0
-4.972286,0.241675,7.927422,18.690001,-1.19,-7.98,1729415515039.0,0.0
-4.412365,-1.787439,7.939385,-22.68,-5.46,-5.32,1729415515059.0,0.0
-4.524827,-2.344966,8.126025,-24.15,-3.99,-1.19,1729415515081.0,0.0
-5.268995,-2.727818,8.394022,-16.66,-5.18,-1.19,1729415515098.0,0.0
-5.814559,-2.818745,7.869993,-20.16,-12.04,-5.53,1729415515118.0,0.0
-5.563312,-2.129612,7.812566,-20.440001,-15.68,-9.94,1729415515139.0,0.0
-6.173482,-1.502693,8.815158,-24.219999,-19.809999,-9.45,1729415515160.0,0.0
-6.01077,-1.76351,10.061819,-39.41,-28.77,-5.88,1729415515181.0,0.0
-5.431707,-0.382852,11.526227,-42.700001,-36.82,4.62,1729415515199.0,0.0
-4.996214,-2.335395,9.420543,-61.040001,-49.84,6.44,1729415515218.0,0.0
-2.768496,-2.730211,8.587841,-59.849998,-49.420002,3.57,1729415515239.0,0.0
-1.789831,-3.218346,8.173882,-51.869999,-36.189999,8.19,1729415515259.0,0.0
-1.497907,-3.584448,8.709875,-43.75,-30.450001,9.66,1729415515281.0,0.0
-1.177269,-2.222932,9.939785,-18.200001,-33.040001,16.870001,1729415515298.0,0.0
-1.48355,-2.845066,10.243673,-10.92,-38.43,19.32,1729415515319.0,0.0
-0.861416,-4.565506,9.901501,-34.23,-46.900002,13.440001,1729415515338.0,0.0
0.138784,-5.17089,9.487542,-36.330002,-51.240002,11.06,1729415515359.0,0.0
0.217747,-5.264209,9.178867,-31.219999,-49.279999,8.12,1729415515381.0,0.0
0.48335,-4.945964,8.398808,-41.720001,-45.639999,-1.12,1729415515399.0,0.0
0.562313,-4.778467,7.422535,-65.099998,-40.670002,-7.63,1729415515419.0,0.0
0.696311,-4.749753,6.606583,-88.059998,-31.99,-14.49,1729415515439.0,0.0
0.535992,-4.527221,6.02752,-106.75,-19.25,-15.4,1729415515459.0,0.0
0.301496,-5.532206,5.032106,-115.360001,-12.04,-13.3,1729415515481.0,0.0
0.011964,-4.890929,5.393422,-70.910004,-12.04,0.84,1729415515498.0,0.0
-1.165305,-2.615355,5.687739,-7.07,24.360001,28.559999,1729415515518.0,0.0
-2.419144,-2.395216,5.036892,-14.7,32.830002,46.970001,1729415515539.0,0.0
-3.847659,-3.103491,5.635098,-11.2,44.52,63.209999,1729415515560.0,0.0
-5.867201,-3.416951,6.374479,3.57,44.029999,72.029999,1729415515586.0,0.0
-8.827123,-2.342573,13.959727,32.619999,47.459999,86.239998,1729415515598.0,0.0
-7.724032,-4.0008,10.526026,-18.48,11.2,64.400002,1729415515619.0,0.0
-4.694718,-2.861816,6.297909,-41.509998,6.72,64.75,1729415515638.0,0.0
-6.111269,-4.039084,5.474778,-48.509998,12.95,66.5,1729415515660.0,0.0
-5.075177,-6.252446,5.52742,-20.23,21.42,53.689999,1729415515681.0,0.0
-4.98425,-4.924429,6.305088,30.940001,35.279999,46.549999,1729415515700.0,0.0
-5.424529,-4.599005,7.68096,46.41,37.869999,37.380001,1729415515719.0,0.0
-4.536791,-4.85743,7.563712,33.810001,30.59,32.130001,1729415515739.0,0.0
-4.228118,-5.328816,7.058826,14.91,22.049999,30.940001,1729415515759.0,0.0
-4.618148,-4.206582,6.546762,4.13,19.74,31.710001,1729415515781.0,0.0
-5.728417,-4.460221,5.965307,-4.55,18.34,28.210001,1729415515799.0,0.0
-7.221539,-5.391029,5.446064,-21.280001,15.54,20.370001,1729415515820.0,0.0
-7.692925,-5.180461,5.635098,-45.43,12.11,4.9,1729415515838.0,0.0
-7.02772,-5.804988,7.384251,-38.849998,4.76,-10.01,1729415515859.0,0.0
-7.322037,-5.424529,8.685946,-32.900002,-1.47,-12.95,1729415515880.0,0.0
-6.817152,-7.133004,6.786045,-73.779999,-9.87,-23.52,1729415515898.0,0.0
-7.362715,-7.802995,6.195018,-74.129997,-1.89,-45.009998,1729415515918.0,0.0
-5.702096,-6.805188,5.032106,-71.68,4.06,-69.790001,1729415515938.0,0.0
-3.814159,-6.008378,8.853443,-26.25,-0.35,-72.940002,1729415515958.0,0.0
-5.362316,-1.823331,11.586047,-41.93,-15.33,-58.170002,1729415515980.0,0.0
-4.103691,-3.220739,7.200003,-124.18,-22.960001,-58.310001,1729415515999.0,0.0
-1.366302,-6.503692,7.250252,-121.730003,-24.92,-55.369999,1729415516018.0,0.0
-1.682154,-3.814159,9.221939,-13.72,-16.870001,-38.220001,1729415516056.0,0.0
-3.565305,-5.737988,9.643075,2.8,-18.48,-25.48,1729415516060.0,0.0
-2.579463,-4.773681,7.896315,-22.540001,-21.280001,-24.43,1729415516103.0,0.0
-0.914058,-2.866602,5.469993,-54.25,-18.969999,-20.16,1729415516103.0,0.0
0.397209,-2.667997,6.259624,-51.450001,-24.01,0.84,1729415516119.0,0.0
-1.416551,-5.422136,6.506085,-48.09,-7.84,15.12,1729415516138.0,0.0
-1.124627,-7.479963,6.881758,-23.1,3.64,21.84,1729415516164.0,0.0
-1.134198,-2.794817,8.432307,15.75,11.62,33.599998,1729415516180.0,0.0
-2.667997,-7.223931,7.123433,2.59,1.82,63.139999,1729415516197.0,0.0
-2.15354,-7.216753,2.215754,25.27,1.4,64.82,1729415516218.0,0.0
-3.938586,-9.08794,3.318845,80.709999,16.66,73.5,1729415516237.0,0.0
-5.972485,-7.372287,7.836494,126.559998,23.1,67.129997,1729415516258.0,0.0
-6.884151,-2.038685,5.32403,91.489998,18.76,70.349998,1729415516281.0,0.0
-7.396214,-9.020942,7.116255,29.190001,11.34,53.970001,1729415516299.0,0.0
-8.02792,-7.932207,4.996214,12.67,3.5,43.75,1729415516318.0,0.0
-8.338986,-7.391429,4.366901,11.13,0.7,28.07,1729415516338.0,0.0
-8.449057,-7.130611,3.996014,-0.56,-0.84,7.35,1729415516358.0,0.0
-7.867601,-7.341179,3.737589,-28.630001,-8.68,-12.6,1729415516386.0,0.0
-8.240881,-7.647461,5.563312,-9.45,-21.07,-29.4,1729415516398.0,0.0
-7.786245,-6.642475,5.577669,22.75,-24.85,-44.240002,1729415516420.0,0.0
-5.9677,-4.9675,6.668797,13.16,-27.23,-56.77,1729415516438.0,0.0
-7.846066,-5.048856,7.106683,-22.75,-24.219999,-62.650002,1729415516459.0,0.0
-5.084748,-6.982256,5.345565,-104.790001,-26.530001,-77.840004,1729415516481.0,0.0
-3.60359,-6.381658,8.54477,-105.139999,-23.73,-81.410004,1729415516497.0,0.0
-2.897708,-3.364309,5.860023,-115.5,-29.960001,-70.349998,1729415516518.0,0.0
-0.636491,-7.71446,4.431508,-127.959999,-20.790001,-61.950001,1729415516538.0,0.0
0.825524,-7.915457,8.389235,-4.83,-10.22,-53.760002,1729415516558.0,0.0
-1.794617,-5.180461,10.514063,46.689999,-13.3,-39.27,1729415516583.0,0.0
1.050449,-2.476572,7.484749,5.32,-19.460001,-34.509998,1729415516600.0,0.0
2.251646,-2.505285,7.255038,-16.799999,-15.12,-16.66,1729415516618.0,0.0
0.930808,-4.41715,7.956135,-7.91,-2.73,5.25,1729415516639.0,0.0
0.581456,-5.991628,6.518049,13.65,5.74,15.4,1729415516658.0,0.0
0.574277,-3.103491,7.123433,46.689999,18.620001,34.02,1729415516681.0,0.0
-2.368894,-5.201996,10.169496,49.07,17.57,53.900002,1729415516698.0,0.0
-2.964707,-7.338787,5.381458,43.330002,6.86,67.199997,1729415516718.0,0.0
-3.211168,-4.496114,2.885744,78.610001,12.67,85.540001,1729415516738.0,0.0
-4.323831,-9.159724,5.245068,86.519997,28.42,74.269997,1729415516760.0,0.0
-7.233503,-4.771288,4.800002,87.779999,29.610001,74.830002,1729415516790.0,0.0
-6.994221,-6.106483,4.046263,70.209999,30.17,65.379997,1729415516798.0,0.0
-8.453842,-6.78126,8.793623,13.16,16.66,52.849998,1729415516818.0,0.0
-7.630712,-8.836694,6.051448,-28.559999,-1.33,28.0,1729415516838.0,0.0
-6.987042,-8.772088,2.215754,-29.33,-5.39,20.58,1729415516858.0,0.0
-6.932007,-8.965906,3.242275,-25.200001,6.3,-3.92,1729415516881.0,0.0
-7.733603,-7.771888,5.460421,19.32,6.65,-14.35,1729415516898.0,0.0
-7.23111,-5.292924,7.539784,28.84,-2.66,-22.190001,1729415516918.0,0.0
-7.355537,-6.82433,7.951349,-8.75,-17.5,-45.009998,1729415516940.0,0.0
-7.235896,-6.759724,5.479564,-35.77,-11.34,-76.090004,1729415516958.0,0.0
-5.613562,-4.366901,6.290731,-60.48,-2.52,-87.360001,1729415516980.0,0.0
-2.567499,-6.364908,9.343972,-90.370003,-12.46,-88.480003,1729415517000.0,0.0
-2.258825,-3.371487,8.839087,-104.230003,-15.33,-66.919998,1729415517018.0,0.0
0.449851,-3.790231,6.295516,-119.559998,-21.42,-51.869999,1729415517038.0,0.0
1.241875,-6.197411,6.812366,-70.139999,-19.25,-35.560001,1729415517059.0,0.0
-0.27996,-5.271388,9.743573,5.39,-15.82,-21.49,1729415517080.0,0.0
-1.196411,-3.862016,9.205189,10.08,-20.440001,-9.52,1729415517098.0,0.0
-0.234497,-3.974478,7.070791,-17.219999,-24.639999,-2.45,1729415517118.0,0.0
-1.057628,-5.656632,6.738188,-35.98,-14.77,9.17,1729415517138.0,0.0
-1.832902,-9.762716,6.436693,-10.57,-2.87,15.61,1729415517158.0,0.0
0.069392,-5.508278,4.218546,62.580002,10.22,21.49,1729415517181.0,0.0
-1.753939,-3.474378,4.335794,119.349998,23.52,52.639999,1729415517198.0,0.0
-2.938386,-3.024528,4.972286,122.779999,29.26,75.389999,1729415517218.0,0.0
-4.577469,-9.396614,8.097312,74.269997,24.08,66.150002,1729415517240.0,0.0
-6.84108,-5.505885,4.512863,45.57,11.2,67.410004,1729415517260.0,0.0
-7.281359,-8.286345,7.073184,62.510002,12.39,70.349998,1729415517279.0,0.0
-8.846266,-6.723832,3.706482,14.28,8.82,56.490002,1729415517298.0,0.0
-9.891929,-8.525627,3.486342,-8.4,8.33,38.709999,1729415517317.0,0.0
-9.458827,-8.295916,2.792424,-34.439999,5.95,8.05,1729415517337.0,0.0
-8.855836,-11.308479,4.709075,-54.740002,-5.11,-20.51,1729415517359.0,0.0
-6.431907,-10.423136,7.200003,-5.39,-12.39,-46.48,1729415517379.0,0.0
-6.415157,-6.865008,6.573084,27.51,-16.870001,-58.450001,1729415517397.0,0.0
-7.113862,-7.156933,5.091926,-11.41,-13.16,-88.830002,1729415517418.0,0.0
-3.893122,-7.848458,5.809773,-67.129997,-10.85,-98.489998,1729415517438.0,0.0
-1.761117,-4.168297,9.128618,-81.830002,-12.46,-94.220001,1729415517458.0,0.0
-1.631905,-2.639283,5.041678,-86.940002,-15.68,-66.57,1729415517479.0,0.0
1.741975,-5.123034,6.666404,-48.580002,-7.0,-57.189999,1729415517496.0,0.0
-0.746561,-3.321238,11.389835,28.49,-0.63,-32.130001,1729415517517.0,0.0
0.61017,-0.736989,7.554141,-41.650002,-4.48,-12.25,1729415517538.0,0.0
-0.114855,-4.311867,7.776673,-58.939999,1.68,4.27,1729415517557.0,0.0
-1.215554,-7.290931,7.089933,-42.0,3.92,15.75,1729415517582.0,0.0
-0.600598,-6.211767,6.446264,2.24,9.73,18.200001,1729415517598.0,0.0
0.454636,-3.54377,7.432107,34.720001,12.81,36.959999,1729415517618.0,0.0
-1.976472,-8.126025,7.391429,39.48,8.19,58.240002,1729415517637.0,0.0
-3.098706,-4.74736,5.898308,101.43,4.69,69.510002,1729415517658.0,0.0
-2.806781,-7.958528,6.26441,91.209999,16.52,62.790001,1729415517679.0,0.0
-5.972485,-10.38485,5.606383,40.32,17.290001,60.900002,1729415517698.0,0.0
-7.042077,-6.932007,4.366901,81.269997,18.620001,64.260002,1729415517718.0,0.0
-7.058826,-8.659625,3.821337,36.259998,20.09,37.450001,1729415517739.0,0.0
-8.815158,-8.925228,4.668397,-7.14,12.88,26.74,1729415517758.0,0.0
-8.642875,-9.611969,6.058627,0.42,-2.87,8.68,1729415517781.0,0.0
-6.831509,-6.989435,4.534399,-6.79,-12.74,0.63,1729415517798.0,0.0
-6.675975,-8.724231,3.739982,-26.32,-19.110001,-17.85,1729415517818.0,0.0
-6.762117,-5.606383,5.022535,25.129999,-10.92,-21.98,1729415517839.0,0.0
-6.975078,-3.818945,8.178668,46.27,-8.61,-33.810001,1729415517859.0,0.0
-6.582655,-4.194618,7.243074,-61.18,-11.76,-61.32,1729415517880.0,0.0
-3.4672,-6.563512,8.015956,-143.5,-14.84,-75.25,1729415517898.0,0.0
-4.027121,-5.111069,8.587841,-165.759995,-16.309999,-61.880001,1729415517917.0,0.0
-1.909473,-3.069991,6.632904,-152.460007,-25.27,-52.150002,1729415517938.0,0.0
-0.449851,-7.245467,4.235296,-152.529999,-25.9,-41.439999,1729415517958.0,0.0
1.416551,-7.267002,4.07737,-63.84,-14.42,-29.82,1729415517980.0,0.0
2.261217,-3.110669,9.542577,22.33,-2.03,-11.48,1729415517997.0,0.0
0.224925,-3.799802,9.918249,2.45,3.99,4.41,1729415518017.0,0.0
0.119641,-4.876573,7.822137,-27.09,10.29,15.82,1729415518038.0,0.0
0.421137,-5.276174,4.465007,-10.71,19.32,29.610001,1729415518057.0,0.0
-1.064806,-5.173282,5.367101,75.599998,28.700001,62.23,1729415518079.0,0.0
-4.520042,-7.712067,6.702296,112.07,28.07,63.560001,1729415518097.0,0.0
-7.331609,-12.524034,8.997013,116.550003,12.39,58.59,1729415518118.0,0.0
-5.335995,-5.218746,5.989235,72.730003,-1.61,53.830002,1729415518138.0,0.0
-7.04447,-9.77468,7.920243,33.810001,-4.48,72.029999,1729415518158.0,0.0
-5.816952,-10.145569,1.586441,-30.73,-17.43,31.15,1729415518179.0,0.0
-8.248059,-10.442278,2.311467,24.5,0.56,40.110001,1729415518198.0,0.0
-7.288538,-8.810372,1.761117,13.72,5.04,7.42,1729415518218.0,0.0
-8.592626,-10.954341,5.075177,26.32,-1.19,-3.99,1729415518237.0,0.0
-7.980063,-7.465607,5.233103,70.209999,-3.36,-29.33,1729415518258.0,0.0
-8.047063,-6.364908,6.070591,60.689999,-10.22,-60.619999,1729415518280.0,0.0
-6.63769,-3.0006,3.816552,-21.139999,-11.97,-86.449997,1729415518297.0,0.0
-2.57707,-8.487342,6.594619,-79.029999,-9.73,-100.590004,1729415518318.0,0.0
-2.349752,-3.63709,8.221739,-61.040001,-7.42,-82.879997,1729415518337.0,0.0
-0.425922,-4.472186,6.003592,3.22,-6.86,-61.670002,1729415518358.0,0.0
1.533799,-0.729811,9.463614,67.690002,-5.46,-43.82,1729415518379.0,0.0
0.145962,-1.732404,11.265409,47.740002,-10.5,-19.460001,1729415518397.0,0.0
-0.875773,-2.103291,8.181061,-8.89,-11.34,-1.96,1729415518417.0,0.0
-2.007578,-4.864608,7.006185,-27.51,-3.85,7.77,1729415518440.0,0.0
-2.9336,-6.357729,6.022735,-29.049999,6.23,8.54,1729415518457.0,0.0
-2.196611,-6.30748,5.718846,-32.900002,8.26,6.58,1729415518478.0,0.0
-1.0002,-6.728617,5.723632,-34.509998,12.32,8.61,1729415518497.0,0.0
-0.069392,-4.386044,6.735795,7.56,20.299999,21.210001,1729415518573.0,0.0
-1.397408,-6.513263,8.370094,41.02,21.98,38.709999,1729415518573.0,0.0
-2.189433,-3.59402,4.914857,72.309998,16.24,67.830002,1729415518574.0,0.0
-2.754139,-7.331609,7.539784,42.98,16.379999,63.0,1729415518599.0,0.0
-6.886543,-4.699504,3.182454,7.21,5.39,62.369999,1729415518625.0,0.0
-6.618547,-7.525427,0.736989,6.93,9.59,52.150002,1729415518626.0,0.0
-8.623734,-13.251451,7.243074,22.610001,14.49,38.990002,1729415518645.0,0.0
-9.343972,-10.332209,9.181261,30.17,-2.59,16.940001,1729415518657.0,0.0
-7.853244,-8.812766,3.345166,1.26,-6.65,-6.58,1729415518681.0,0.0
-6.364908,-9.456435,3.979264,-26.110001,-7.56,-21.700001,1729415518697.0,0.0
-7.496714,-6.800402,5.91745,0.21,-7.35,-20.790001,1729415518718.0,0.0
-5.864808,-6.123233,7.489535,36.75,-13.86,-29.960001,1729415518738.0,0.0
-8.317451,-6.293124,7.702496,-6.93,-18.9,-48.439999,1729415518757.0,0.0
-6.716653,-9.29133,3.452843,-90.300003,-16.799999,-77.769997,1729415518780.0,0.0
-3.163311,-4.780859,6.630512,-128.309998,-1.61,-110.040001,1729415518798.0,0.0
1.598405,-8.920443,9.023334,-83.370003,-3.78,-65.239998,1729415518817.0,0.0
-0.150748,-0.789631,10.990234,22.75,-5.88,-44.73,1729415518837.0,0.0
0.59342,-1.392623,10.616954,30.940001,-8.82,-15.89,1729415518858.0,0.0
-0.629312,-3.15374,6.848258,-94.709999,-12.74,1.61,1729415518878.0,0.0
-3.909872,-5.623133,5.95095,-67.550003,11.48,21.84,1729415518897.0,0.0
-4.407579,-9.468399,3.440879,-75.25,18.41,14.28,1729415518918.0,0.0
-3.385844,-9.348758,3.699304,-36.68,17.780001,10.15,1729415518938.0,0.0
-1.95015,-9.054441,3.852444,15.75,20.440001,5.67,1729415518958.0,0.0
-1.184447,-6.104091,5.225924,83.93,42.0,17.290001,1729415518979.0,0.0
-1.040878,-3.306881,7.283752,115.639999,52.220001,36.610001,1729415518997.0,0.0
-1.311267,-3.072384,6.580262,109.970001,38.849998,52.709999,1729415519021.0,0.0
-2.421536,-6.068198,7.733603,90.440002,22.960001,68.739998,1729415519037.0,0.0
-5.651847,-3.684947,5.12782,61.529999,6.51,75.389999,1729415519057.0,0.0
-5.321638,-7.130611,5.613562,15.82,6.58,65.870003,1729415519078.0,0.0
-7.200003,-9.717253,7.300502,-6.51,6.09,57.470001,1729415519097.0,0.0
-9.868,-10.10489,5.266603,-7.35,6.93,53.689999,1729415519117.0,0.0
-9.257831,-9.686146,4.280759,-12.53,3.29,24.85,1729415519137.0,0.0
-8.334201,-8.638089,3.074777,-44.59,9.52,-0.98,1729415519157.0,0.0
-7.893922,-9.202796,3.943372,-19.530001,8.68,-19.74,1729415519178.0,0.0
-7.063612,-6.881758,5.558527,51.59,3.99,-28.98,1729415519198.0,0.0
-7.795816,-7.238289,3.783052,-13.440001,-7.42,-67.690002,1729415519227.0,0.0
-5.496314,-8.346166,3.428915,-58.869999,1.61,-94.919998,1729415519250.0,0.0
-3.76391,-5.352744,8.635696,-91.489998,1.4,-115.709999,1729415519257.0,0.0
-0.643669,-4.165904,7.183254,-92.82,-10.92,-72.519997,1729415519326.0,0.0
-1.380659,-3.469593,9.628718,-64.889999,-10.92,-70.419998,1729415519327.0,0.0
-0.306281,-4.733003,8.965906,-68.459999,-6.51,-33.110001,1729415519327.0,0.0
-2.397608,-7.716853,9.717253,-75.32,-11.69,-26.25,1729415519337.0,0.0
-3.806981,-4.919643,4.479364,-86.800003,4.41,-23.799999,1729415519356.0,0.0
-1.48355,-5.60399,4.852644,-68.110001,1.54,-19.6,1729415519378.0,0.0
-1.347159,-6.750153,5.520242,-23.1,7.7,-4.27,1729415519398.0,0.0
-1.11027,-7.657032,6.415157,25.83,9.38,8.61,1729415519417.0,0.0
-0.729811,-5.883951,7.389036,70.139999,19.040001,23.59,1729415519436.0,0.0
0.222532,-4.26401,8.173882,80.779999,21.629999,40.529999,1729415519457.0,0.0
-2.318645,-5.718846,8.336594,80.290001,13.86,62.369999,1729415519478.0,0.0
-4.582255,-5.804988,5.800202,83.650002,-1.54,68.110001,1729415519495.0,0.0
-4.752146,-6.099305,4.977071,94.849998,1.54,86.309998,1729415519516.0,0.0
-8.95155,-7.190433,2.385644,69.650002,6.65,71.120003,1729415519536.0,0.0
-6.943972,-7.838887,1.167697,-17.43,13.58,32.759998,1729415519556.0,0.0
-7.152147,-10.057034,2.935993,15.68,10.92,23.799999,1729415519583.0,0.0
-7.752745,-9.537791,3.189633,60.970001,2.8,15.82,1729415519597.0,0.0
-8.327023,-7.735995,3.337988,56.490002,-0.21,-2.1,1729415519621.0,0.0
-7.252645,-8.398808,4.505685,24.92,-3.78,-15.82,1729415519637.0,0.0
-5.639884,-5.651847,7.640282,39.060001,-7.21,-26.950001,1729415519660.0,0.0
-5.979663,-4.194618,9.741181,27.790001,-10.5,-26.460001,1729415519678.0,0.0
-5.998806,-8.927622,6.168696,-79.099998,-10.01,-42.07,1729415519696.0,0.0
-3.39063,-3.285345,4.596612,-107.800003,3.5,-61.18,1729415519716.0,0.0
-2.349752,-10.789237,8.65484,-75.529999,5.53,-46.689999,1729415519737.0,0.0
-2.021935,-3.783052,8.446664,35.630001,-5.04,-49.420002,1729415519759.0,0.0
-2.89053,1.433301,11.174481,80.290001,2.59,-13.3,1729415519779.0,0.0
-1.385444,-0.885344,8.738588,-1.68,-14.49,-9.1,1729415519798.0,0.0
-3.517449,-2.053042,7.453642,-0.98,-8.89,16.24,1729415519817.0,0.0
-5.111069,-3.979264,5.955735,-8.26,-0.35,22.540001,1729415519840.0,0.0
-4.924429,-5.441278,4.938786,-25.27,6.86,17.92,1729415519856.0,0.0
-3.314059,-7.712067,4.237689,-32.48,3.92,14.35,1729415519879.0,0.0
-1.596013,-6.104091,5.979663,52.849998,17.01,26.880001,1729415519896.0,0.0
-1.631905,-3.507878,8.16431,119.910004,18.620001,49.700001,1729415519916.0,0.0
-2.383251,-2.921637,7.776673,125.510002,15.68,67.059998,1729415519936.0,0.0
-5.178068,-0.531207,6.551548,85.120003,8.61,81.410004,1729415519957.0,0.0
-6.723832,-4.969893,6.860222,15.68,1.05,72.870003,1729415519978.0,0.0
-6.506085,-7.384251,4.941179,-14.91,-1.26,53.060001,1729415519997.0,0.0
-9.635897,-8.925228,5.589634,-26.809999,3.99,45.080002,1729415520017.0,0.0
-8.913264,-11.485549,5.453243,-28.91,-2.31,21.84,1729415520036.0,0.0
-8.204988,-9.513863,2.538785,-45.990002,2.94,-7.63,1729415520057.0,0.0
-6.924829,-9.363115,3.668197,-18.059999,0.35,-26.460001,1729415520081.0,0.0
-5.91745,-8.441878,6.096912,53.619999,0.35,-33.599998,1729415520096.0,0.0
-6.656832,-3.60359,6.262017,52.639999,-0.21,-42.560001,1729415520117.0,0.0
-6.226124,-5.419744,5.273781,-48.23,0.35,-59.150002,1729415520136.0,0.0
-5.151747,-6.379266,2.476572,-130.759995,1.12,-80.010002,1729415520156.0,0.0
-3.404987,-9.394222,5.879165,-52.080002,-4.55,-84.980003,1729415520180.0,0.0
-3.211168,0.629312,10.640882,-8.12,-5.67,-56.420002,1729415520196.0,0.0
-1.447658,-0.567099,10.320245,-18.969999,-12.81,-29.4,1729415520215.0,0.0
-3.850052,-1.852045,9.446864,-57.540001,-5.74,3.22,1729415520237.0,0.0
-3.723232,-5.699703,7.752745,-75.879997,-1.47,-0.07,1729415520256.0,0.0
-4.180261,-6.053841,6.013163,-60.41,-1.75,10.08,1729415520279.0,0.0
-5.618347,-6.183054,5.838487,-41.580002,-3.57,9.94,1729415520298.0,0.0
-4.565506,-6.374479,4.945964,-44.240002,-5.95,4.76,1729415520316.0,0.0
-3.821337,-6.836295,4.766503,-33.599998,2.24,0.14,1729415520336.0,0.0
-2.634498,-6.819544,5.168497,10.71,11.97,0.14,1729415520356.0,0.0
-1.749153,-5.166104,6.766902,74.340004,18.620001,19.530001,1729415520378.0,0.0
-2.115255,-4.199404,6.62094,104.019997,14.49,35.630001,1729415520397.0,0.0
-2.517249,-2.63689,7.972885,105.559998,2.31,46.900002,1729415520416.0,0.0
-5.912664,-1.861616,8.389235,71.82,-7.84,78.050003,1729415520438.0,0.0
-6.26441,-7.221539,5.412565,-17.92,-11.55,60.549999,1729415520457.0,0.0
-8.233703,-8.798409,3.625126,-63.700001,-5.46,51.799999,1729415520479.0,0.0
-9.650253,-12.720245,3.139383,-52.920002,-0.21,39.34,1729415520495.0,0.0
-10.057034,-10.29153,1.651048,-36.75,7.98,13.09,1729415520515.0,0.0
-8.456236,-10.250853,2.151148,-20.16,3.15,-16.309999,1729415520536.0,0.0
-6.350551,-11.126624,5.048856,97.860001,-4.06,-59.220001,1729415520556.0,0.0
-8.95155,-4.283153,5.867201,82.32,-4.41,-66.220001,1729415520584.0,0.0
-6.343372,-3.065206,2.699104,-30.52,-15.89,-84.769997,1729415520597.0,0.0
-3.323631,-8.322237,6.943972,-107.099998,-17.5,-105.910004,1729415520619.0,0.0
-3.122634,-3.37388,7.458428,-91.840004,-19.74,-80.779999,1729415520637.0,0.0
-0.863809,-4.773681,5.915058,-44.450001,-3.22,-75.599998,1729415520657.0,0.0
-0.976272,-5.52742,9.719646,16.52,-4.55,-52.220001,1729415520681.0,0.0
-3.95055,-1.201197,10.645668,1.75,-10.29,-36.75,1729415520700.0,0.0
-0.495314,-2.029114,6.489335,-109.620003,-21.559999,-36.610001,1729415520716.0,0.0
0.684347,-3.07717,5.587241,-91.07,-11.27,-7.7,1729415520736.0,0.0
-1.289732,-4.546363,7.422535,-4.13,-0.07,23.66,1729415520756.0,0.0
-2.976671,-3.644269,7.783852,42.07,1.75,39.619999,1729415520781.0,0.0
-2.07697,-3.129812,7.082755,44.52,3.85,53.130001,1729415520797.0,0.0
-3.431308,-5.051248,8.901299,44.799999,-0.28,62.16,1729415520816.0,0.0
-5.438886,-8.585447,7.338787,46.48,-9.03,67.550003,1729415520837.0,0.0
-5.28096,-4.536791,3.393023,60.130001,0.07,70.07,1729415520857.0,0.0
-6.331409,-11.277373,4.771288,25.200001,12.11,54.18,1729415520877.0,0.0
-6.788438,-5.132604,0.387637,39.200001,17.639999,47.18,1729415520896.0,0.0
-5.759524,-10.827522,3.696911,42.139999,13.3,27.299999,1729415520917.0,0.0
-6.185446,-9.602397,6.01077,78.82,10.85,25.9,1729415520937.0,0.0
-8.236095,-7.776673,3.888337,34.509998,6.86,6.23,1729415520959.0,0.0
-7.702496,-10.624132,5.87438,-4.27,-1.19,-16.24,1729415520977.0,0.0
-7.362715,-5.938986,8.233703,26.389999,-0.91,-34.790001,1729415520996.0,0.0
-9.030513,-6.029913,8.815158,13.86,-13.65,-53.619999,1729415521016.0,0.0
-6.745367,-7.537392,4.244867,-90.93,-21.77,-71.050003,1729415521036.0,0.0
-3.878766,-5.891129,4.625326,-129.779999,-11.69,-95.690002,1729415521056.0,0.0
-1.225125,-9.860823,9.353544,-70.349998,-8.4,-61.25,1729415521081.0,0.0
-1.607977,-4.369294,11.437693,29.469999,-16.59,-66.989998,1729415521096.0,0.0
-0.79681,-1.529014,10.492528,41.790001,-22.68,-42.07,1729415521116.0,0.0
0.07657,-1.617548,8.099705,-2.1,-24.01,-27.299999,1729415521137.0,0.0
-2.462214,-0.524028,8.219346,13.58,-13.37,8.05,1729415521156.0,0.0
-4.443472,-4.386044,6.195018,-17.780001,-5.39,19.25,1729415521179.0,0.0
-4.342973,-5.575277,4.910072,-35.0,0.91,18.76,1729415521196.0,0.0
-2.940779,-6.939186,5.709275,-42.349998,3.99,14.56,1729415521215.0,0.0
-1.557728,-5.876772,6.618547,5.32,11.2,22.120001,1729415521236.0,0.0
-0.854238,-4.37408,6.788438,49.77,6.3,35.77,1729415521256.0,0.0
-1.550549,-3.854837,6.879365,81.830002,8.26,64.889999,1729415521277.0,0.0
-4.591826,-6.419943,6.455836,43.82,3.85,71.540001,1729415521296.0,0.0
-5.668597,-2.679961,2.490928,8.96,4.06,73.220001,1729415521316.0,0.0
-7.077969,-14.376079,5.876772,-32.48,3.92,51.170002,1729415521336.0,0.0
-9.157332,-12.004791,5.101498,6.09,-0.77,38.220001,1729415521356.0,0.0
-10.339387,-10.403993,2.385644,-18.34,2.31,14.49,1729415521378.0,0.0
-7.692925,-11.552547,4.61097,-24.57,1.19,-23.1,1729415521396.0,0.0
-6.463014,-6.235696,5.833702,36.889999,-0.14,-44.099998,1729415521416.0,0.0
-6.656832,-4.831109,8.662018,49.209999,-13.86,-50.259998,1729415521436.0,0.0
-5.900701,-3.285345,1.59362,-73.779999,-19.67,-57.540001,1729415521456.0,0.0
-2.840281,-10.281959,3.742374,-95.550003,-9.66,-77.559998,1729415521478.0,0.0
-2.849852,-2.199004,4.517649,-93.590004,11.41,-63.98,1729415521497.0,0.0
0.930808,-11.784652,8.800802,-10.5,-10.01,-68.040001,1729415521516.0,0.0
-2.098505,3.127419,11.566904,113.120003,4.13,-8.26,1729415521537.0,0.0
-2.734996,-3.438486,7.726424,-1.82,-6.51,-11.48,1729415521557.0,0.0
-3.802195,-4.603791,6.386444,-48.860001,1.26,9.87,1729415521580.0,0.0
-5.003392,-7.056434,5.570491,-34.580002,7.91,9.52,1729415521597.0,0.0
-4.096512,-7.501499,5.546563,-26.530001,8.68,4.97,1729415521615.0,0.0
-3.59402,-9.257831,5.79781,-18.48,9.03,-0.49,1729415521635.0,0.0
-3.201597,-7.37468,6.135197,23.030001,15.33,-0.77,1729415521656.0,0.0
-0.782453,-1.411765,5.69731,73.080002,17.290001,16.52,1729415521679.0,0.0
-0.619741,-3.491128,8.142776,111.860001,13.86,39.27,1729415521695.0,0.0
-3.168097,-0.241675,7.211967,121.940002,9.66,70.699997,1729415521716.0,0.0
-5.094319,-5.84088,7.353144,57.68,5.25,62.860001,1729415521737.0,0.0
-6.295516,-8.513663,5.249853,-15.82,-0.42,49.279999,1729415521757.0,0.0
-7.779066,-11.380265,4.173083,-48.09,4.13,37.52,1729415521778.0,0.0
-8.982656,-14.000405,2.459821,-48.580002,5.95,17.08,1729415521796.0,0.0
-7.929814,-10.461421,3.352344,-6.09,10.29,-2.73,1729415521816.0,0.0
-6.38405,-9.662218,6.412765,39.549999,1.96,-28.49,1729415521835.0,0.0
-7.030113,-6.89133,7.006185,57.119999,-11.55,-46.759998,1729415521856.0,0.0
-7.649854,-6.099305,3.909872,-23.309999,-7.07,-57.82,1729415521876.0,0.0
-3.285345,-11.667403,4.84068,-88.970001,4.06,-89.459999,1729415521895.0,0.0
-3.215954,-3.06042,9.111869,1.82,7.49,-90.720001,1729415521915.0,0.0
0.435494,2.227718,8.530413,-13.23,-2.38,-66.010002,1729415521936.0,0.0
1.971686,-0.806381,13.768302,13.09,-7.7,-32.34,1729415521957.0,0.0
-4.405186,-4.187439,9.937392,-15.82,-11.76,0.56,1729415521978.0,0.0
-5.871986,-5.355137,5.685347,-34.720001,-12.39,5.74,1729415521995.0,0.0
-5.496314,-5.072784,4.350152,-15.26,1.4,2.52,1729415522015.0,0.0
-4.115655,-5.414958,5.367101,9.31,13.79,-0.49,1729415522037.0,0.0
-3.309274,-5.534599,6.58744,-4.48,16.52,1.33,1729415522056.0,0.0
-2.986243,-7.678568,5.740381,-44.73,8.68,2.45,1729415522077.0,0.0
-2.134398,-8.379664,5.173282,-42.700001,4.97,2.45,1729415522096.0,0.0
-2.146362,-7.712067,5.503492,-17.219999,8.96,3.78,1729415522116.0,0.0
-1.447658,-4.63729,5.496314,11.55,13.3,13.23,1729415522135.0,0.0
-1.272982,-3.127419,4.929214,27.58,9.73,25.549999,1729415522156.0,0.0
-1.993221,-4.651647,6.24766,69.300003,13.51,47.25,1729415522177.0,0.0
-3.797409,-4.859823,6.941578,83.019997,12.6,60.060001,1729415522195.0,0.0
-7.408179,-6.15434,6.869793,61.529999,7.07,54.599998,1729415522217.0,0.0
-8.394022,-12.607781,5.194818,-37.099998,1.4,23.309999,1729415522236.0,0.0
-8.930015,-10.987842,3.139383,-35.84,1.4,10.43,1729415522256.0,0.0
-8.193025,-10.533205,3.115455,-7.28,1.4,-10.78,1729415522279.0,0.0
-7.523034,-8.178668,5.694918,40.459999,-7.91,-31.57,1729415522295.0,0.0
-6.254838,-7.724032,8.035098,67.760002,-18.549999,-46.34,1729415522315.0,0.0
-6.884151,-5.101498,4.024727,-18.83,-13.72,-60.970001,1729415522337.0,0.0
-3.553342,-9.312866,5.632704,-67.760002,-6.79,-76.580002,1729415522356.0,0.0
-2.533999,-5.264209,5.302495,-86.449997,4.34,-84.559998,1729415522379.0,0.0
1.057628,-3.792624,6.955935,-16.66,-3.78,-64.190002,1729415522396.0,0.0
-0.251246,-0.739382,10.549955,62.790001,-5.67,-25.9,1729415522416.0,0.0
-0.643669,0.136391,12.256038,29.960001,-5.46,-15.12,1729415522435.0,0.0
-3.419343,-2.208575,9.236296,-29.4,-6.86,6.93,1729415522456.0,0.0
-4.694718,-4.615755,5.84088,-51.59,-0.84,16.24,1729415522476.0,0.0
-4.261617,-7.728817,4.192225,-36.68,12.95,17.15,1729415522495.0,0.0
-3.584448,-7.546963,4.141976,5.04,26.389999,19.460001,1729415522516.0,0.0
-3.122634,-6.613762,5.575277,38.009998,31.639999,26.74,1729415522536.0,0.0
-2.65364,-5.173282,5.99402,57.400002,25.34,38.150002,1729415522555.0,0.0
-3.393023,-4.565506,6.735795,106.260002,8.26,61.880001,1729415522582.0,0.0
-6.374479,-2.557927,8.410772,111.860001,2.17,88.900002,1729415522595.0,0.0
-7.104291,-2.304288,5.625526,32.41,-6.37,70.419998,1729415522615.0,0.0
-6.951149,-10.762917,5.414958,-80.080002,-9.94,34.650002,1729415522639.0,0.0
-7.401,-11.801401,3.816552,-96.599998,-12.32,27.860001,1729415522656.0,0.0
-7.652246,-13.986048,1.947758,-46.900002,-11.76,5.46,1729415522677.0,0.0
-6.238089,-11.602797,4.046263,24.710001,-7.91,-17.08,1729415522695.0,0.0
-5.335995,-7.022934,8.506484,69.790001,-6.58,-43.610001,1729415522716.0,0.0
-6.025128,-5.596812,6.211767,6.44,-9.03,-56.139999,1729415522735.0,0.0
-3.921836,-4.424329,2.739782,-98.980003,-0.49,-77.559998,1729415522756.0,0.0
-2.581856,-12.366108,6.565905,-93.940002,3.43,-83.440002,1729415522778.0,0.0
-3.601198,-6.472585,5.046463,-49.209999,3.22,-77.349998,1729415522795.0,0.0
1.079163,-6.845865,6.802795,2.17,-0.28,-65.169998,1729415522815.0,0.0
1.883151,2.256432,13.85205,148.470001,-2.66,-24.15,1729415522835.0,0.0
-5.259424,0.514457,13.299308,60.900002,-15.96,11.34,1729415522856.0,0.0
-5.74756,-5.053641,6.991827,-62.09,-22.75,8.61,1729415522878.0,0.0
-5.472386,-5.62074,4.345366,-53.549999,-9.94,1.19,1729415522895.0,0.0
-3.608376,-4.795217,4.443472,3.92,13.09,-2.87,1729415522916.0,0.0
-2.498107,-4.831109,5.304887,0.77,20.65,6.51,1729415522935.0,0.0
-1.976472,-5.225924,5.946165,-6.51,24.85,17.360001,1729415522956.0,0.0
-2.306681,-6.513263,6.065805,3.85,18.059999,26.530001,1729415522976.0,0.0
-1.605584,-3.424129,5.479564,55.510002,4.34,44.310001,1729415522995.0,0.0
-2.524428,-3.845266,6.939186,77.07,-2.03,54.950001,1729415523015.0,0.0
-5.369494,-4.070191,9.152546,72.519997,-5.18,75.669998,1729415523036.0,0.0
-6.673582,-7.582855,7.817351,6.86,-8.89,62.790001,1729415523057.0,0.0
-7.539784,-8.798409,5.903094,-61.25,-6.09,35.0,1729415523078.0,0.0
-7.625926,-11.897114,3.275774,-83.510002,-2.52,13.58,1729415523094.0,0.0
-7.293324,-12.428321,2.043471,-35.139999,6.93,-5.67,1729415523116.0,0.0
-6.166305,-10.064213,3.974478,14.0,12.32,-28.700001,1729415523137.0,0.0
-5.101498,-8.023134,7.956135,53.27,4.2,-43.82,1729415523156.0,0.0
-5.094319,-5.498707,8.047063,29.75,-8.19,-43.400002,1729415523178.0,0.0
-5.292924,-8.063812,4.62054,-76.580002,-9.59,-59.080002,1729415523195.0,0.0
-3.61077,-7.975278,1.39023,-110.32,3.29,-73.849998,1729415523215.0,0.0
-3.675375,-5.814559,8.059027,-20.02,0.35,-79.940002,1729415523235.0,0.0
-2.708675,-2.919244,4.723432,-36.119999,-0.7,-64.610001,1729415523255.0,0.0
-0.114855,-3.558127,7.9681,30.52,-4.97,-46.689999,1729415523277.0,0.0
-2.864209,-2.096112,11.533404,50.049999,4.55,-22.049999,1729415523295.0,0.0
-4.369294,-6.4343,9.650253,-14.7,-0.49,-22.68,1729415523315.0,0.0
-4.220939,-4.558327,6.78126,-21.77,1.82,-21.210001,1729415523335.0,0.0
-3.541377,-5.398208,5.312066,-33.529999,2.87,-18.76,1729415523355.0,0.0
-1.65344,-4.816752,4.850252,-12.6,8.26,-9.73,1729415523376.0,0.0
-2.289931,-5.321638,6.015556,17.57,17.85,6.44,1729415523395.0,0.0
-2.242075,-5.223531,7.161718,37.939999,21.139999,18.34,1729415523416.0,0.0
-1.256232,-1.320838,7.130611,37.799999,21.139999,29.190001,1729415523434.0,0.0
-1.658226,-2.768496,6.163911,-2.03,15.05,46.689999,1729415523455.0,0.0
-4.400401,-8.303094,6.601797,-3.85,8.47,68.110001,1729415523477.0,0.0
-4.551149,-6.996613,6.388836,42.700001,-5.32,57.189999,1729415523494.0,0.0
-3.969693,-7.123433,6.702296,30.1,-4.76,51.029999,1729415523582.0,0.0
-7.592427,-10.533205,6.192625,-11.69,-5.18,53.619999,1729415523584.0,0.0
-6.628119,-7.858029,3.792624,-1.05,-0.28,42.07,1729415523587.0,0.0
-5.943772,-10.564312,3.259024,-37.099998,3.64,11.13,1729415523589.0,0.0
-6.611369,-9.044869,3.354738,4.34,-0.77,-3.85,1729415523594.0,0.0
-6.168696,-8.145168,3.9338,26.389999,-2.1,-16.309999,1729415523614.0,0.0
-5.17089,-7.582855,7.180861,38.360001,-2.03,-30.380001,1729415523635.0,0.0
-4.845466,-5.13739,9.863215,32.830002,-3.5,-34.439999,1729415523656.0,0.0
-5.000999,-3.797409,6.9679,-66.360001,-7.07,-42.420002,1729415523676.0,0.0
-3.244668,-4.022335,3.68734,-153.160004,-3.15,-43.470001,1729415523694.0,0.0
-0.801596,-8.908479,4.37408,-84.07,-6.86,-34.93,1729415523715.0,0.0
-2.730211,-5.553742,7.683353,38.220001,5.88,-18.129999,1729415523734.0,0.0
-3.907479,-3.694518,10.200603,36.82,6.09,-6.58,1729415523755.0,0.0
-3.524628,-6.226124,8.092526,-26.809999,-5.25,-8.96,1729415523779.0,0.0
-3.524628,-5.383851,7.02772,-28.139999,-5.95,-3.57,1729415523794.0,0.0
-3.759124,-6.12084,6.135197,-30.380001,-5.18,2.73,1729415523814.0,0.0
-3.814159,-6.360123,5.979663,-25.620001,-6.65,8.96,1729415523835.0,0.0
-3.761517,-7.269395,5.843273,-24.99,-6.3,8.61,1729415523855.0,0.0
-3.677768,-7.197611,5.417351,-26.74,-5.39,6.51,1729415523876.0,0.0
-3.771089,-7.525427,4.960321,-34.369999,-4.13,2.38,1729415523894.0,0.0
-3.359523,-6.898508,4.359723,-36.68,-5.88,-3.08,1729415523914.0,0.0
-2.0004,-6.987042,3.548556,-41.16,-9.17,-4.41,1729415523934.0,0.0
-1.268196,-7.085148,3.481557,-23.1,5.04,-0.14,1729415523956.0,0.0
-1.213161,-6.362515,3.952943,1.47,19.389999,8.68,1729415523975.0,0.0
-0.433101,-4.402793,3.192025,29.26,28.77,23.030001,1729415523994.0,0.0
-2.474179,-8.413164,6.920043,73.919998,27.09,26.809999,1729415524015.0,0.0
-2.828316,-3.926622,9.322437,147.210007,17.15,42.700001,1729415524034.0,0.0
-5.996413,-5.587241,9.982857,89.32,4.41,49.07,1729415524055.0,0.0
-6.096912,-4.596612,4.445865,0.84,-2.38,48.720001,1729415524077.0,0.0
-6.965507,-11.952149,4.721039,-29.190001,-5.46,35.349998,1729415524094.0,0.0
-8.303094,-10.468598,5.199604,8.26,-8.4,33.880001,1729415524115.0,0.0
-9.310472,-11.449656,4.493721,-6.3,-9.59,11.69,1729415524135.0,0.0
-7.635497,-10.092925,2.172683,-18.690001,-5.39,-14.77,1729415524155.0,0.0
-6.632904,-9.473185,4.567898,14.28,-3.36,-36.470001,1729415524177.0,0.0
-5.632704,-7.317252,8.049455,60.41,-7.7,-50.540001,1729415524194.0,0.0
-6.125626,-4.510471,6.096912,3.5,-13.23,-56.630001,1729415524216.0,0.0
-3.565305,-5.54417,4.503292,-69.720001,-8.12,-66.150002,1729415524234.0,0.0
-2.270789,-4.59422,5.907879,-98.840004,-2.94,-63.91,1729415524256.0,0.0
-0.933201,-11.96172,5.551349,-46.27,-17.01,-53.200001,1729415524286.0,0.0
-2.323431,-5.225924,7.274181,46.830002,-2.73,-29.960001,1729415524295.0,0.0
-2.163112,-4.67079,8.867801,32.689999,-7.42,-32.060001,1729415524314.0,0.0
-0.961915,-2.127219,7.853244,10.22,-9.52,-21.35,1729415524334.0,0.0
-1.942972,-3.096312,7.334002,-17.219999,-2.94,-2.94,1729415524355.0,0.0
-2.840281,-4.709075,7.073184,-32.060001,-1.54,12.74,1729415524378.0,0.0
-2.321038,-6.228518,5.455636,-35.630001,0.14,20.370001,1729415524395.0,0.0
-2.167897,-4.09412,4.156333,-4.55,15.47,31.01,1729415524415.0,0.0
-3.426522,-6.374479,6.79083,30.940001,16.940001,49.490002,1729415524435.0,0.0
-3.409772,-3.012564,7.180861,90.300003,7.84,70.629997,1729415524455.0,0.0
-4.957928,-4.48415,7.752745,48.369999,-3.57,75.809998,1729415524475.0,0.0
-4.845466,-4.981857,3.302095,-25.620001,-7.63,67.900002,1729415524495.0,0.0
-5.850451,-8.003991,2.98385,-47.25,-9.94,69.860001,1729415524514.0,0.0
-7.487142,-7.216753,4.429115,-48.580002,-10.85,72.029999,1729415524535.0,0.0
-7.692925,-9.446864,3.266203,-114.730003,-21.280001,52.009998,1729415524556.0,0.0
-6.766902,-12.461821,1.981257,-158.550003,-29.33,30.73,1729415524578.0,0.0
-5.065606,-13.887943,1.083949,-120.68,-17.08,-13.16,1729415524594.0,0.0
-4.201797,-11.243874,2.596212,-7.7,-8.33,-31.99,1729415524614.0,0.0
-4.694718,-7.518249,6.075377,94.080002,0.77,-29.120001,1729415524635.0,0.0
-5.60399,-3.4672,6.611369,58.869999,1.19,-33.950001,1729415524654.0,0.0
-5.54417,-5.302495,4.993821,-53.619999,0.56,-43.68,1729415524676.0,0.0
-4.402793,-7.740781,3.031706,-118.300003,-1.05,-56.700001,1729415524694.0,0.0
-3.574877,-9.073583,5.070391,-66.5,-3.5,-52.920002,1729415524715.0,0.0
-4.338188,-8.10449,6.991827,1.75,-7.07,-61.040001,1729415524734.0,0.0
-5.642276,-2.639283,7.702496,9.45,-9.66,-42.91,1729415524755.0,0.0
-5.089533,0.646062,7.704889,-84.419998,-20.93,-40.950001,1729415524777.0,0.0
-5.125426,-4.529613,4.208975,-227.080002,-39.900002,-42.07,1729415524795.0,0.0
-4.867002,-12.169895,0.449851,-273.140015,-61.18,-42.279999,1729415524814.0,0.0
-2.469393,-15.378671,-0.191426,-178.990005,-68.25,-50.049999,1729415524835.0,0.0
-1.591227,-10.238889,3.570091,-23.030001,-55.860001,-25.620001,1729415524855.0,0.0
-2.574677,-6.589834,5.929415,32.900002,-61.529999,4.55,1729415524877.0,0.0
-1.923829,-6.108876,4.228118,-33.389999,-75.25,5.11,1729415524894.0,0.0
-0.380459,-10.107283,0.488136,-129.5,-74.480003,-5.11,1729415524915.0,0.0
0.014357,-11.531013,-1.239482,-181.089996,-49.700001,-23.52,1729415524935.0,0.0
0.492921,-11.157731,-2.321038,-157.850006,-28.98,-26.32,1729415524954.0,0.0
0.411566,-9.860823,-3.457629,-122.220001,-5.53,-22.33,1729415524976.0,0.0
-0.48335,-9.798609,-3.964907,-105.980003,16.1,-22.469999,1729415524994.0,0.0
-1.543371,-9.98525,-3.795017,-107.449997,35.07,-27.790001,1729415525015.0,0.0
-2.467,-11.140982,-2.734996,-93.940002,48.93,-30.309999,1729415525036.0,0.0
-2.591427,-11.239087,-2.230111,-43.119999,51.939999,-27.09,1729415525056.0,0.0
-2.122434,-9.887143,-1.447658,0.49,48.790001,-19.460001,1729415525075.0,0.0
-2.17029,-8.903693,-1.639083,-18.83,43.470001,-15.05,1729415525094.0,0.0
-3.127419,-9.49472,-0.729811,-53.900002,40.32,-16.66,1729415525115.0,0.0
-2.725425,-11.60519,-0.167498,-52.360001,29.960001,-24.01,1729415525134.0,0.0
-1.598405,-11.210374,-0.964308,-11.41,27.02,-28.98,1729415525155.0,0.0
-0.59342,-10.674382,-1.258625,8.54,32.970001,-30.24,1729415525175.0,0.0
-0.133998,-10.755738,-0.727418,-6.02,39.830002,-29.960001,1729415525194.0,0.0
-0.404387,-10.064213,-0.253639,-2.52,45.43,-24.639999,1729415525215.0,0.0
-0.526421,-9.138189,0.023928,15.68,48.23,-17.99,1729415525233.0,0.0
-0.021535,-10.195816,-1.091127,25.690001,50.540001,-15.75,1729415525254.0,0.0
-0.356531,-10.423136,0.157926,89.040001,53.619999,-4.62,1729415525276.0,0.0
-1.284946,-7.159326,1.861616,146.369995,51.799999,5.53,1729415525294.0,0.0
-2.431108,-7.750352,4.907679,124.110001,36.889999,13.3,1729415525315.0,0.0
-2.347359,-9.016156,4.721039,56.0,14.91,4.27,1729415525336.0,0.0
-1.51705,-9.454042,2.402394,1.33,-3.22,1.19,1729415525353.0,0.0
-0.758525,-10.001998,0.851845,-3.22,-14.77,1.26,1729415525379.0,0.0
-0.035892,-9.312866,-0.172283,8.89,-15.47,4.55,1729415525394.0,0.0
0.748954,-9.480364,-0.253639,2.31,-11.41,4.13,1729415525415.0,0.0
0.4666,-9.836893,0.526421,-13.72,-7.0,5.95,1729415525435.0,0.0
-0.952343,-10.478169,2.885744,-12.67,-16.24,0.49,1729415525454.0,0.0
-2.045863,-9.332008,3.675375,14.35,-33.950001,-0.28,1729415525477.0,0.0
-2.533999,-10.758131,2.656033,-9.38,-51.170002,-9.24,1729415525492.0,0.0
-1.038485,-10.561919,-0.323031,-36.959999,-56.420002,-19.530001,1729415525513.0,0.0
1.067199,-10.310673,-0.961915,-63.420002,-53.130001,-22.68,1729415525536.0,0.0
2.053042,-11.47837,-1.56012,-32.48,-51.799999,-20.93,1729415525554.0,0.0
0.648455,-11.392227,-1.636691,64.540001,-45.57,-14.42,1729415525580.0,0.0
-1.421337,-8.69791,-3.854837,48.299999,-34.720001,-26.460001,1729415525593.0,0.0
-1.033699,-9.894321,-4.443472,-44.380001,-1.4,-26.25,1729415525613.0,0.0
-2.18704,-10.729417,-3.309274,-12.04,16.379999,-17.710001,1729415525634.0,0.0
-2.907279,-9.466006,-0.457029,49.84,26.18,-14.98,1729415525653.0,0.0
-2.256432,-8.262416,0.971486,66.849998,24.219999,-13.58,1729415525677.0,0.0
-1.40698,-7.89153,0.641276,62.720001,20.65,-6.3,1729415525696.0,0.0
-1.339981,-6.999006,0.375673,42.630001,19.809999,1.75,1729415525715.0,0.0
-1.57687,-6.958328,1.792224,12.53,16.52,10.36,1729415525733.0,0.0
-1.366302,-8.480164,1.11027,-23.379999,8.05,15.4,1729415525754.0,0.0
-1.215554,-9.734003,0.528814,-32.200001,3.29,19.389999,1729415525775.0,0.0
-1.490728,-9.815358,0.31346,-29.190001,6.44,21.35,1729415525794.0,0.0
-1.902294,-10.628918,1.316052,-40.389999,14.35,21.84,1729415525815.0,0.0
-2.287539,-11.210374,1.78026,-39.759998,22.68,24.43,1729415525833.0,0.0
-2.545963,-12.332609,1.529014,-23.799999,28.84,22.540001,1729415525855.0,0.0
-2.806781,-11.406586,0.12682,-22.049999,30.59,8.96,1729415525877.0,0.0
-2.579463,-10.794022,-1.529014,-73.57,38.990002,8.96,1729415525894.0,0.0
-1.59362,-12.693924,-4.852644,-97.580002,44.869999,-14.63,1729415525914.0,0.0
0.413958,-12.198609,-3.335595,46.830002,47.389999,-3.57,1729415525934.0,0.0
0.512064,-6.13759,0.488136,39.41,74.480003,-16.030001,1729415525955.0,0.0
2.07697,-6.082555,7.939385,-9.1,22.540001,1.12,1729415525978.0,0.0
0.294317,-8.561519,3.56052,-77.489998,6.02,-1.89,1729415525995.0,0.0
-0.894916,-9.98525,1.919044,-98.209999,-0.63,-6.58,1729415526013.0,0.0
1.124627,-8.240881,3.524628,-38.709999,-11.2,10.29,1729415526035.0,0.0
1.825724,-8.484949,3.132205,-6.3,-26.18,20.370001,1729415526056.0,0.0
-2.151148,-9.229117,2.89053,-20.719999,-30.24,23.799999,1729415526077.0,0.0
-1.301696,-8.784052,1.998007,-25.690001,-45.639999,32.759998,1729415526093.0,0.0
-0.102891,-12.574283,-0.507278,0.21,-47.810001,33.25,1729415526113.0,0.0
0.224925,-11.322837,0.57667,33.389999,-49.560001,38.709999,1729415526133.0,0.0
-2.17029,-11.569297,4.122833,61.110001,-64.68,38.009998,1729415526153.0,0.0
-2.227718,-7.420143,-2.431108,15.26,-77.980003,40.950001,1729415526175.0,0.0
-5.601598,-11.07159,-5.395815,-53.130001,-68.25,29.469999,1729415526193.0,0.0
-3.196811,-7.712067,-9.233903,-70.279999,-46.41,40.25,1729415526214.0,0.0
-4.816752,-11.854043,-9.272188,-56.0,-8.33,35.139999,1729415526236.0,0.0
-7.085148,-10.96152,-3.562913,40.110001,21.42,30.1,1729415526253.0,0.0
-3.407379,-10.301102,-1.682154,35.84,11.83,7.14,1729415526277.0,0.0
-3.641876,-10.234102,-1.471586,6.16,23.799999,-14.77,1729415526293.0,0.0
-3.582055,-8.319844,-1.962115,-57.610001,46.48,-15.61,1729415526314.0,0.0
-2.199004,-10.468598,-2.581856,-87.989998,64.120003,-27.02,1729415526333.0,0.0
-0.748954,-12.799208,-4.101298,17.57,56.91,-9.66,1729415526357.0,0.0
-0.485743,-10.425529,0.648455,123.059998,75.879997,-18.41,1729415526375.0,0.0
1.036092,-7.465607,5.134997,97.440002,45.779999,-13.3,1729415526393.0,0.0
1.081556,-6.745367,5.12782,40.32,35.490002,-11.34,1729415526415.0,0.0
-2.29711,-8.798409,4.362115,-49.560001,17.5,-17.01,1729415526435.0,0.0
-1.531406,-8.88455,3.823731,-25.059999,-0.35,-9.03,1729415526453.0,0.0
-0.162712,-7.89153,1.895115,23.73,-18.969999,3.92,1729415526475.0,0.0
-3.59402,-8.913264,1.919044,25.059999,-16.309999,12.39,1729415526493.0,0.0
-4.180261,-9.607183,2.828316,34.02,-23.799999,24.15,1729415526514.0,0.0
-1.986043,-8.073383,3.081956,14.07,-40.25,21.35,1729415526533.0,0.0
-1.134198,-13.07199,-0.416351,-65.590004,-48.16,18.76,1729415526555.0,0.0
-2.988636,-7.319644,0.550349,-99.330002,-65.309998,9.1,1729415526577.0,0.0
-0.145962,-10.679168,-7.630712,-84.910004,-73.5,27.370001,1729415526593.0,0.0
-3.184847,-7.484749,-7.460821,48.650002,-32.48,34.299999,1729415526614.0,0.0
-4.118048,-10.080962,-5.161318,56.07,-9.52,25.76,1729415526633.0,0.0
-6.472585,-11.574083,-3.242275,52.43,-2.66,19.950001,1729415526655.0,0.0
-7.704889,-11.363515,-4.101298,5.32,8.19,-10.08,1729415526675.0,0.0
-4.536791,-11.126624,-2.864209,-33.18,10.08,-29.68,1729415526693.0,0.0
-3.108276,-13.036098,-2.009971,18.200001,26.530001,-31.43,1729415526715.0,0.0
