acc_x,acc_y,acc_z,gyr_x,gyr_y,gyr_z,timestamp,label
-2.699104,-8.803195,-4.661219,17.639999,-4.06,4.55,1729477115704.0,0.0
-2.646462,-8.762517,-4.431508,21.84,-1.4,4.48,1729477115712.0,0.0
-2.579463,-9.085547,-4.161119,16.870001,0.49,3.08,1729477115713.0,0.0
-2.438286,-8.961121,-4.441079,16.450001,-1.75,0.07,1729477115713.0,0.0
-2.328217,-8.740981,-4.472186,27.65,-2.45,-0.07,1729477115718.0,0.0
-2.790031,-8.896514,-4.122833,26.040001,3.85,0.07,1729477115738.0,0.0
-2.892922,-8.906086,-3.749553,24.01,11.34,-0.91,1729477115758.0,0.0
-2.562713,-8.99462,-3.778267,24.43,7.84,-1.75,1729477115778.0,0.0
-2.557927,-8.985049,-3.943372,9.45,9.66,-3.85,1729477115797.0,0.0
-2.78046,-9.403792,-3.854837,1.54,14.84,-6.09,1729477115817.0,0.0
-2.629712,-9.360723,-4.022335,7.84,13.86,-9.94,1729477115838.0,0.0
-2.18704,-9.205189,-4.378866,16.379999,11.83,-12.39,1729477115858.0,0.0
-1.923829,-8.82473,-3.498307,34.650002,15.54,-8.89,1729477115878.0,0.0
-2.122434,-8.652447,-2.804388,51.310001,16.59,-5.6,1729477115898.0,0.0
-2.411965,-8.102098,-2.40718,43.82,15.54,-4.76,1729477115917.0,0.0
-2.512464,-8.315059,-2.502892,20.09,11.9,-2.24,1729477115937.0,0.0
-2.294717,-8.762517,-2.744568,0.91,5.25,-0.98,1729477115958.0,0.0
-2.163112,-8.870193,-2.87378,0.14,3.71,-0.42,1729477115978.0,0.0
-2.17029,-8.879765,-3.019742,1.12,1.05,0.49,1729477115997.0,0.0
-2.340181,-8.831908,-2.943172,-2.24,1.89,0.14,1729477116018.0,0.0
-2.213361,-8.894121,-3.206382,-8.4,-2.17,-0.14,1729477116037.0,0.0
-2.072184,-9.004191,-3.393023,-15.05,-5.74,0.42,1729477116058.0,0.0
-2.108077,-9.444471,-3.711268,-19.460001,-2.8,-0.21,1729477116078.0,0.0
-2.196611,-9.521042,-3.474378,-15.12,-0.98,-2.94,1729477116097.0,0.0
-2.143969,-9.458827,-3.510271,-11.41,-0.42,-3.99,1729477116117.0,0.0
-2.15354,-9.363115,-3.651447,-12.46,-2.24,-4.55,1729477116138.0,0.0
-2.440679,-9.375079,-3.651447,-14.42,1.47,-5.88,1729477116158.0,0.0
-2.232504,-9.341579,-3.615555,-10.64,1.4,-6.3,1729477116178.0,0.0
-1.572084,-9.157332,-3.665804,-3.43,-4.2,-4.69,1729477116198.0,0.0
-1.59362,-9.037691,-3.562913,-3.36,-1.82,-2.87,1729477116218.0,0.0
-1.971686,-9.178867,-3.708875,-7.07,2.1,-2.24,1729477116238.0,0.0
-1.909473,-9.310472,-3.854837,-3.64,-2.38,-2.31,1729477116258.0,0.0
-1.85683,-9.097511,-3.802195,1.75,-0.21,-3.71,1729477116279.0,0.0
-1.964507,-8.860621,-3.663411,4.69,1.96,-3.78,1729477116298.0,0.0
-2.270789,-8.997013,-3.68734,2.94,2.66,-4.76,1729477116318.0,0.0
-2.756532,-9.253045,-3.960121,1.05,5.95,-8.4,1729477116338.0,0.0
-3.034099,-9.24108,-3.809374,2.1,7.35,-12.88,1729477116360.0,0.0
-3.005385,-9.056834,-3.517449,0.91,7.7,-18.41,1729477116378.0,0.0
-2.411965,-9.006584,-3.448057,-4.9,2.38,-20.58,1729477116399.0,0.0
-1.519442,-9.585647,-3.641876,-13.37,-5.32,-18.129999,1729477116419.0,0.0
-2.201397,-9.832108,-3.711268,-21.280001,5.18,-19.18,1729477116438.0,0.0
-2.667997,-10.042676,-4.24726,-12.25,6.79,-23.450001,1729477116459.0,0.0
-2.522035,-9.906286,-4.431508,4.06,2.73,-26.460001,1729477116479.0,0.0
-3.007778,-9.444471,-3.948158,20.58,10.36,-30.030001,1729477116498.0,0.0
-3.948158,-8.913264,-3.397808,24.710001,19.040001,-35.420002,1729477116519.0,0.0
-3.921836,-8.288737,-3.115455,19.040001,12.81,-38.990002,1729477116537.0,0.0
-2.9671,-7.972885,-2.98385,8.89,-6.72,-36.189999,1729477116560.0,0.0
-2.481357,-8.171489,-2.768496,-1.75,-9.03,-34.509998,1729477116577.0,0.0
-2.794817,-8.238488,-2.727818,-15.54,-2.45,-34.299999,1729477116598.0,0.0
-2.368894,-8.30788,-2.758924,-19.25,-11.41,-33.459999,1729477116619.0,0.0
-1.651048,-8.269595,-3.192025,-20.09,-25.27,-30.870001,1729477116637.0,0.0
-1.634298,-7.936993,-2.976671,-20.299999,-23.59,-28.35,1729477116659.0,0.0
-2.029114,-7.645068,-3.180061,-24.92,-20.02,-26.18,1729477116681.0,0.0
-1.744368,-7.661818,-3.67059,-41.720001,-31.08,-24.43,1729477116698.0,0.0
-1.572084,-7.68096,-3.87398,-62.09,-37.799999,-24.01,1729477116717.0,0.0
-1.464408,-7.422535,-5.20439,-72.099998,-38.43,-22.33,1729477116737.0,0.0
-1.251446,-7.106683,-5.532206,-72.029999,-42.0,-16.59,1729477116760.0,0.0
-1.51705,-7.073184,-5.881558,-61.110001,-35.490002,-9.8,1729477116777.0,0.0
-1.969293,-8.109276,-5.733203,-48.720001,-30.59,-5.25,1729477116804.0,0.0
-1.756332,-8.475377,-6.166305,-41.369999,-36.119999,-3.15,1729477116817.0,0.0
-0.634098,-8.542377,-5.900701,-42.700001,-51.869999,-2.31,1729477116839.0,0.0
-0.33021,-8.281559,-6.13759,-49.209999,-52.57,-0.49,1729477116860.0,0.0
-0.713061,-7.590034,-6.618547,-57.75,-48.580002,-0.56,1729477116877.0,0.0
-0.808774,-7.310073,-6.750153,-61.670002,-47.32,4.41,1729477116898.0,0.0
-0.038285,-7.647461,-7.331609,-71.68,-57.260002,8.89,1729477116917.0,0.0
-0.057428,-8.958728,-7.302894,-78.260002,-53.760002,9.94,1729477116940.0,0.0
-0.117248,-7.070791,-5.501099,-68.599998,-39.34,7.42,1729477116960.0,0.0
-0.981057,-7.850852,2.959922,-32.27,-53.830002,20.93,1729477116980.0,0.0
-2.507678,-6.429514,-2.328217,-104.93,-69.370003,6.44,1729477116998.0,0.0
-1.294517,-7.439285,-4.981857,-157.639999,-133.139999,-5.04,1729477117018.0,0.0
-0.679562,-6.850651,-9.413363,-201.529999,-144.899994,-15.82,1729477117039.0,0.0
-2.574677,-7.001399,-9.028119,-247.029999,-124.040001,-30.870001,1729477117061.0,0.0
-2.545963,-6.460621,-9.619147,-246.75,-117.879997,-59.43,1729477117081.0,0.0
-2.371287,-5.699703,-11.377872,-173.389999,-122.080002,-68.110001,1729477117098.0,0.0
-2.646462,-3.771089,-13.174881,-134.470001,-103.389999,-69.440002,1729477117119.0,0.0
-3.976871,-2.665605,-13.69173,-113.540001,-64.050003,-49.0,1729477117138.0,0.0
-4.768896,-4.697111,-13.103097,-38.5,-30.52,-12.88,1729477117161.0,0.0
-2.376073,-5.178068,-11.576476,40.25,-16.59,17.92,1729477117180.0,0.0
-1.914258,-4.536791,-11.353944,82.389999,10.57,35.630001,1729477117198.0,0.0
-2.665605,-5.876772,-10.839487,126.840004,40.950001,46.27,1729477117221.0,0.0
-1.684547,-7.216753,-8.846266,178.009995,37.939999,44.66,1729477117239.0,0.0
-1.265803,-5.682954,-5.587241,163.729996,29.889999,17.5,1729477117262.0,0.0
-1.481157,-5.721239,-4.338188,74.199997,17.43,-20.58,1729477117280.0,0.0
-0.605384,-4.917251,-6.034698,-38.220001,-17.01,-54.25,1729477117299.0,0.0
-1.289732,-5.13739,-5.489135,-94.5,-24.43,-68.529999,1729477117320.0,0.0
-4.055835,-3.495914,-6.745367,-109.830002,-29.469999,-77.559998,1729477117341.0,0.0
-3.52702,-2.301895,-7.015756,-94.360001,-61.670002,-75.879997,1729477117360.0,0.0
-2.849852,-1.342373,-8.530413,-127.68,-68.599998,-68.25,1729477117380.0,0.0
-4.625326,-2.239682,-11.373087,-103.18,-49.77,-32.830002,1729477117399.0,0.0
-6.647261,-3.976871,-12.313466,-18.200001,-23.52,13.93,1729477117420.0,0.0
-8.743374,-3.220739,-10.870593,24.5,16.870001,52.709999,1729477117440.0,0.0
-5.702096,-4.457829,-10.846665,-3.57,26.74,68.389999,1729477117461.0,0.0
-2.880959,-5.484349,-11.030912,47.32,27.790001,79.239998,1729477117517.0,0.0
-1.636691,-7.250252,-8.836694,105.910004,44.59,81.269997,1729477117518.0,0.0
-1.342373,-7.379465,-7.391429,126.489998,55.790001,61.810001,1729477117529.0,0.0
-1.153341,-7.482357,-6.051448,97.090004,48.09,28.98,1729477117539.0,0.0
-1.105484,-7.458428,-3.306881,43.189999,28.630001,-17.57,1729477117559.0,0.0
-0.9667,-5.63749,-3.460021,-5.95,-12.18,-61.599998,1729477117580.0,0.0
-2.311467,-3.23031,-4.297509,-47.810001,-36.400002,-87.639999,1729477117600.0,0.0
-3.883551,0.435494,-6.530013,-112.419998,-49.349998,-93.800003,1729477117619.0,0.0
-3.113062,-0.586242,-9.667004,-174.789993,-72.590004,-75.599998,1729477117641.0,0.0
-3.168097,-0.801596,-9.963714,-185.5,-54.459999,-35.98,1729477117660.0,0.0
-9.463614,-0.662812,-12.916457,-80.919998,-26.880001,32.759998,1729477117682.0,0.0
-8.800802,-2.998207,-13.24906,-93.309998,11.9,88.690002,1729477117701.0,0.0
-3.866802,-7.116255,-11.784652,-32.900002,13.86,109.620003,1729477117718.0,0.0
-2.096112,-6.477371,-9.915856,87.080002,22.049999,99.68,1729477117739.0,0.0
-2.467,-6.285945,-8.267202,144.270004,33.880001,85.470001,1729477117760.0,0.0
-2.701497,-8.02792,-8.047063,125.510002,36.959999,56.77,1729477117779.0,0.0
-2.598605,-9.209974,-3.9338,99.959999,30.940001,12.88,1729477117800.0,0.0
-2.902494,-6.403193,-3.431308,63.98,1.96,-33.18,1729477117820.0,0.0
-3.237489,-5.020142,-5.218746,18.27,-27.02,-76.019997,1729477117839.0,0.0
-4.173083,-0.909273,-7.700103,-44.66,-45.57,-91.699997,1729477117860.0,0.0
-5.395815,1.564906,-8.79123,-117.459999,-46.970001,-88.690002,1729477117881.0,0.0
-3.661019,-0.497707,-9.954143,-159.039993,-49.91,-72.099998,1729477117900.0,0.0
-3.282953,-0.921237,-10.380065,-111.860001,-43.470001,-39.41,1729477117920.0,0.0
-5.417351,1.344766,-11.75833,-39.970001,-22.889999,2.8,1729477117939.0,0.0
-8.248059,-0.014357,-9.858429,15.96,1.61,63.07,1729477117960.0,0.0
-8.714661,-5.618347,-10.786844,12.95,26.809999,88.550003,1729477117979.0,0.0
-5.32403,-6.075377,-10.171888,44.240002,29.68,99.330002,1729477118001.0,0.0
-3.421736,-7.034898,-8.374879,126.980003,35.139999,73.639999,1729477118019.0,0.0
-3.15374,-7.721639,-8.274381,122.43,46.830002,42.07,1729477118039.0,0.0
-1.9669,-9.343972,-4.074977,100.590004,35.77,-1.4,1729477118061.0,0.0
-1.624727,-7.700103,-3.651447,59.920002,9.17,-45.709999,1729477118079.0,0.0
-1.531406,-5.292924,-4.273581,26.6,-23.379999,-87.360001,1729477118099.0,0.0
-3.108276,-0.62692,-5.178068,-43.68,-47.25,-103.599998,1729477118119.0,0.0
-4.84068,2.957529,-7.74796,-155.889999,-60.619999,-101.849998,1729477118139.0,0.0
-3.641876,-0.655633,-8.930015,-174.369995,-67.480003,-74.199997,1729477118161.0,0.0
-2.902494,-1.74676,-10.375278,-136.919998,-67.129997,-44.310001,1729477118179.0,0.0
-5.166104,0.251246,-12.406786,-84.07,-32.619999,-7.35,1729477118199.0,0.0
-6.766902,-1.603191,-11.349157,-2.38,-12.18,51.099998,1729477118218.0,0.0
-9.662218,-4.579862,-9.992428,3.22,25.620001,81.199997,1729477118240.0,0.0
-5.974878,-7.216753,-9.982857,24.43,31.710001,89.599998,1729477118259.0,0.0
-2.98385,-8.056634,-9.276974,78.470001,29.540001,73.57,1729477118280.0,0.0
-2.397608,-7.121039,-9.329616,134.889999,37.380001,58.170002,1729477118299.0,0.0
-1.880759,-7.62114,-9.580862,137.130005,48.790001,32.619999,1729477118318.0,0.0
-0.880559,-5.252246,-1.258625,125.090004,43.959999,1.4,1729477118339.0,0.0
-1.227518,-4.56072,-3.589234,77.840004,-2.03,-51.170002,1729477118362.0,0.0
-1.818545,-2.794817,-4.534399,9.31,-33.529999,-74.830002,1729477118379.0,0.0
-3.732803,0.009571,-5.460421,-62.580002,-53.760002,-81.900002,1729477118399.0,0.0
-4.240082,2.782853,-8.032705,-143.779999,-74.129997,-79.169998,1729477118419.0,0.0
-2.421536,-0.698704,-13.454842,-196.210007,-81.620003,-56.209999,1729477118440.0,0.0
-4.658825,-3.507878,-13.380664,-148.470001,-40.950001,-12.39,1729477118459.0,0.0
-11.042876,-1.777867,-11.789437,-9.31,7.63,40.740002,1729477118481.0,0.0
-10.482956,-2.79721,-12.086146,26.32,25.129999,69.580002,1729477118497.0,0.0
-6.486942,-7.740781,-9.078369,43.400002,38.080002,83.510002,1729477118519.0,0.0
-3.940979,-8.889337,-8.202596,100.099998,47.32,66.919998,1729477118540.0,0.0
-2.885744,-6.494121,-8.439486,149.169998,48.09,45.57,1729477118562.0,0.0
-3.28056,-7.128219,-7.800602,124.18,57.330002,20.299999,1729477118580.0,0.0
-2.22054,-8.724231,-5.498707,83.160004,44.869999,-18.690001,1729477118598.0,0.0
-1.562513,-4.414758,-3.026921,48.02,13.16,-58.52,1729477118619.0,0.0
-1.897508,-4.019942,-4.431508,10.36,-17.57,-92.260002,1729477118641.0,0.0
-2.840281,1.730011,-5.831308,-59.5,-40.810001,-102.059998,1729477118661.0,0.0
-3.895515,4.254438,-8.571091,-152.039993,-49.209999,-76.019997,1729477118682.0,0.0
-3.29731,-3.211168,-12.335001,-162.470001,-45.849998,8.54,1729477118698.0,0.0
-5.326423,-4.776074,-14.715858,-50.189999,-21.42,46.41,1729477118718.0,0.0
-10.030712,-2.732604,-10.753345,33.040001,25.059999,70.769997,1729477118738.0,0.0
-7.441679,-5.998806,-9.556933,46.619999,31.710001,76.580002,1729477118759.0,0.0
-3.158526,-8.190632,-7.664211,80.709999,17.219999,73.989998,1729477118779.0,0.0
-2.17029,-7.02772,-9.815358,108.080002,22.889999,54.110001,1729477118798.0,0.0
-2.900101,-7.384251,-10.083356,118.230003,39.689999,37.029999,1729477118819.0,0.0
-2.821138,-8.602197,-5.199604,103.110001,40.529999,1.82,1729477118845.0,0.0
-2.476572,-7.087541,-4.603791,55.720001,17.15,-43.049999,1729477118859.0,0.0
-1.4668,-5.666204,-5.761917,10.92,-15.89,-89.879997,1729477118880.0,0.0
-2.019542,-2.258825,-3.495914,-33.18,-31.08,-109.199997,1729477118899.0,0.0
-2.790031,2.804388,-5.735595,-114.520004,-46.830002,-104.720001,1729477118919.0,0.0
-2.935993,3.464807,-9.659825,-136.009995,-62.439999,-67.340004,1729477118941.0,0.0
-4.022335,-0.023928,-11.947363,-144.059998,-51.310001,-10.22,1729477118964.0,0.0
-5.804988,-4.773681,-14.244473,-109.129997,-17.99,26.530001,1729477118979.0,0.0
-7.721639,-2.069792,-8.79123,23.59,7.28,54.529999,1729477119000.0,0.0
-7.987241,-3.996014,-9.310472,53.549999,37.450001,71.050003,1729477119019.0,0.0
-4.208975,-7.862815,-7.439285,40.040001,24.08,75.809998,1729477119041.0,0.0
-2.237289,-7.79103,-9.686146,80.010002,21.35,60.760002,1729477119061.0,0.0
-2.696711,-7.67139,-9.439686,97.370003,42.490002,43.889999,1729477119080.0,0.0
-2.163112,-8.382057,-4.649254,68.669998,36.540001,6.16,1729477119100.0,0.0
-1.581656,-8.283953,-4.443472,38.990002,11.27,-36.470001,1729477119119.0,0.0
-1.512264,-5.474778,-4.378866,17.08,-14.56,-78.959999,1729477119141.0,0.0
-3.306881,-1.39023,-4.378866,-49.98,-29.960001,-90.300003,1729477119161.0,0.0
-4.027121,-0.839881,-7.204789,-137.059998,-48.23,-95.129997,1729477119180.0,0.0
-3.4672,0.952343,-7.972885,-164.360001,-60.619999,-75.669998,1729477119201.0,0.0
-3.055635,0.461815,-12.485749,-136.220001,-62.16,-29.960001,1729477119220.0,0.0
-4.639683,-2.359323,-15.330814,-68.739998,-30.450001,20.23,1729477119240.0,0.0
-7.341179,-2.069792,-9.844072,22.120001,6.86,60.48,1729477119261.0,0.0
-8.405986,-4.24726,-9.827322,46.27,26.25,71.540001,1729477119280.0,0.0
-3.534199,-7.877172,-7.781459,61.110001,13.65,77.349998,1729477119299.0,0.0
-2.548356,-7.960921,-9.047262,110.32,20.09,59.5,1729477119320.0,0.0
-2.957529,-7.267002,-9.937392,112.980003,36.400002,37.66,1729477119342.0,0.0
-2.435893,-9.243474,-7.539784,96.459999,34.23,-2.1,1729477119361.0,0.0
-1.631905,-5.221139,-4.366901,72.239998,13.93,-47.810001,1729477119381.0,0.0
-2.196611,-3.218346,-4.405186,30.309999,-12.81,-82.389999,1729477119401.0,0.0
-3.326023,-3.026921,-4.811966,-64.470001,-25.620001,-102.550003,1729477119421.0,0.0
-3.220739,1.057628,-7.255038,-143.289993,-43.470001,-107.099998,1729477119441.0,0.0
-3.067599,3.582055,-8.056634,-151.410004,-48.650002,-76.790001,1729477119463.0,0.0
-3.871587,-1.911865,-11.8349,-100.029999,-38.920002,-19.040001,1729477119481.0,0.0
-5.548956,-2.029114,-13.158132,-14.21,-14.63,25.620001,1729477119501.0,0.0
-8.441878,-0.0335,-8.532805,38.849998,16.24,62.720001,1729477119521.0,0.0
-8.300702,-3.931407,-9.265009,25.83,33.529999,76.510002,1729477119541.0,0.0
-4.567898,-7.190433,-9.004191,40.529999,25.620001,81.830002,1729477119565.0,0.0
-2.947958,-7.310073,-8.592626,69.300003,27.860001,72.029999,1729477119581.0,0.0
-2.194218,-8.717053,-9.595219,102.830002,36.470001,54.110001,1729477119602.0,0.0
-1.792224,-8.157133,-4.65404,76.510002,34.509998,-1.54,1729477119620.0,0.0
-1.782653,-8.008778,-4.26401,32.27,14.28,-47.18,1729477119641.0,0.0
-1.641476,-5.405386,-4.618148,-2.52,-10.57,-83.790001,1729477119661.0,0.0
-2.888137,-1.007378,-5.673382,-59.5,-27.09,-95.970001,1729477119684.0,0.0
-3.507878,0.100499,-8.255238,-129.990005,-37.029999,-92.330002,1729477119700.0,0.0
-1.911865,-1.033699,-8.84148,-157.149994,-49.349998,-76.440002,1729477119721.0,0.0
-2.572284,-0.918844,-10.068997,-128.660004,-41.509998,-47.389999,1729477119741.0,0.0
-5.704489,-0.045464,-14.794822,-49.77,-16.940001,-1.75,1729477119761.0,0.0
-9.437292,-0.40678,-11.693724,8.75,15.47,46.970001,1729477119781.0,0.0
-7.877172,-3.567699,-10.267602,15.26,30.66,65.239998,1729477119801.0,0.0
-4.101298,-5.692525,-8.822337,51.52,19.530001,74.900002,1729477119820.0,0.0
-3.101098,-6.013163,-7.817351,73.150002,32.200001,71.260002,1729477119841.0,0.0
-2.457429,-5.398208,-9.29133,101.989998,29.33,64.68,1729477119872.0,0.0
-2.536392,-6.386444,-8.609376,107.940002,34.16,54.110001,1729477119881.0,0.0
-2.277967,-10.112068,-4.814359,67.690002,29.33,17.219999,1729477119900.0,0.0
-1.524228,-6.977471,-4.082155,34.580002,-0.07,-37.099998,1729477119920.0,0.0
-2.823531,-2.940779,-5.503492,-41.16,-25.620001,-87.709999,1729477119942.0,0.0
-3.366701,-3.20399,-6.80758,-104.019997,-41.93,-98.840004,1729477119962.0,0.0
-2.679961,0.990629,-8.12124,-132.440002,-55.720001,-97.720001,1729477119981.0,0.0
-3.371487,2.825923,-9.595219,-112.279999,-52.849998,-48.439999,1729477120001.0,0.0
-5.02732,-1.519442,-12.801601,-94.919998,-36.049999,6.65,1729477120020.0,0.0
-6.9009,-4.12044,-10.554741,-43.470001,-7.49,47.040001,1729477120041.0,0.0
-8.35813,-4.838287,-11.107484,30.17,9.8,72.730003,1729477120064.0,0.0
-5.201996,-4.811966,-9.403792,55.720001,14.56,81.480003,1729477120080.0,0.0
-2.584249,-6.092126,-7.948956,84.349998,12.25,80.360001,1729477120100.0,0.0
-2.158326,-7.082755,-9.370294,87.150002,17.780001,65.449997,1729477120120.0,0.0
-2.261217,-8.769694,-9.353544,96.949997,23.24,34.439999,1729477120141.0,0.0
-2.301895,-8.094919,-5.264209,77.629997,23.1,-12.32,1729477120162.0,0.0
-1.986043,-6.360123,-5.441278,41.439999,1.82,-54.32,1729477120182.0,0.0
-1.816152,-3.68734,-4.843073,-7.21,-19.25,-87.150002,1729477120200.0,0.0
-3.196811,0.184247,-5.79781,-66.709999,-32.759998,-97.230003,1729477120221.0,0.0
-3.407379,0.57667,-9.257831,-114.590004,-45.920002,-91.910004,1729477120241.0,0.0
-3.393023,-1.68694,-7.898707,-105.559998,-42.139999,-56.420002,1729477120261.0,0.0
-5.06082,-0.019143,-10.679168,-24.85,-30.24,1.61,1729477120281.0,0.0
-6.905686,-0.31346,-10.612168,-22.469999,-9.66,39.619999,1729477120300.0,0.0
-8.422735,-3.766303,-12.351749,-29.33,10.92,72.169998,1729477120321.0,0.0
-5.015356,-6.211767,-11.966506,9.38,12.32,77.139999,1729477120342.0,0.0
-2.775674,-6.216553,-9.312866,69.230003,20.16,73.989998,1729477120362.0,0.0
-2.708675,-6.817152,-9.205189,86.660004,34.650002,58.73,1729477120380.0,0.0
-2.175076,-8.255238,-9.379865,92.330002,36.119999,32.900002,1729477120401.0,0.0
-2.232504,-7.104291,-5.828916,66.290001,38.360001,-7.35,1729477120420.0,0.0
-1.868794,-7.113862,-5.606383,25.76,15.54,-49.77,1729477120440.0,0.0
-1.878366,-3.689733,-5.338387,-14.35,-2.87,-86.029999,1729477120463.0,0.0
-3.428915,-0.926022,-4.666004,-76.720001,-14.49,-96.809998,1729477120480.0,0.0
-3.180061,1.194018,-8.214561,-140.630005,-34.93,-95.760002,1729477120499.0,0.0
-2.928815,0.641276,-8.80798,-141.050003,-35.420002,-55.510002,1729477120521.0,0.0
-4.682754,-1.995614,-9.942179,-71.330002,-25.48,-3.85,1729477120541.0,0.0
-6.833901,-2.012364,-13.062418,12.6,-11.69,40.529999,1729477120561.0,0.0
-8.784052,-1.986043,-11.353944,16.1,8.89,73.010002,1729477120581.0,0.0
-5.118248,-5.474778,-9.157332,25.34,24.5,83.93,1729477120600.0,0.0
-3.854837,-5.87438,-8.52802,91.629997,29.469999,84.139999,1729477120621.0,0.0
-2.127219,-6.680761,-9.272188,106.889999,30.59,71.330002,1729477120752.0,0.0
-1.986043,-9.303294,-6.690332,111.160004,33.32,52.360001,1729477120755.0,0.0
-1.584049,-5.752346,-4.577469,77.139999,35.0,12.67,1729477120755.0,0.0
-1.85683,-3.699304,-4.934,47.32,12.6,-38.360001,1729477120756.0,0.0
-2.720639,-2.656033,-6.649654,10.15,-12.39,-77.349998,1729477120756.0,0.0
-2.900101,-0.346959,-8.295916,-66.919998,-27.02,-96.739998,1729477120760.0,0.0
-3.151347,2.421536,-11.179268,-135.240005,-36.189999,-105.769997,1729477120780.0,0.0
-3.799802,-0.976272,-10.578669,-148.050003,-34.02,-83.370003,1729477120800.0,0.0
-4.780859,-2.177469,-11.3683,-24.219999,-5.46,8.82,1729477120821.0,0.0
-5.424529,-0.725025,-9.705289,37.66,7.28,44.73,1729477120840.0,0.0
-6.752545,-3.141776,-9.769895,31.99,22.889999,65.099998,1729477120860.0,0.0
-4.960321,-7.534998,-9.315259,45.57,25.549999,77.209999,1729477120887.0,0.0
-3.168097,-6.630512,-8.606983,78.610001,24.01,68.669998,1729477120900.0,0.0
-3.249453,-6.197411,-8.475377,101.360001,38.57,56.98,1729477120920.0,0.0
-1.727618,-9.097511,-7.207181,94.080002,34.369999,24.99,1729477120943.0,0.0
-1.402194,-7.348359,-4.261617,91.489998,18.969999,-12.81,1729477120962.0,0.0
-2.136791,-5.273781,-4.701896,42.98,-2.52,-56.490002,1729477120982.0,0.0
-2.605784,-3.797409,-6.4343,-49.560001,-16.799999,-89.739998,1729477121001.0,0.0
-2.074577,-2.541178,-8.161918,-105.209999,-33.810001,-108.220001,1729477121020.0,0.0
-1.935793,1.217947,-8.166703,-111.160004,-37.170002,-102.620003,1729477121042.0,0.0
-2.605784,2.620141,-8.212167,-80.150002,-36.540001,-55.650002,1729477121062.0,0.0
-3.811767,-0.205783,-9.79143,-43.330002,-35.91,-0.49,1729477121081.0,0.0
-5.359922,-0.868595,-12.842279,-16.030001,-18.690001,38.220001,1729477121101.0,0.0
-8.068598,-2.335395,-11.526227,0.77,7.56,71.959999,1729477121126.0,0.0
-5.891129,-5.271388,-10.456635,34.23,15.89,84.699997,1729477121141.0,0.0
-3.37388,-5.931807,-10.131211,77.840004,18.200001,90.510002,1729477121162.0,0.0
-3.201597,-6.518049,-8.669197,105.699997,33.18,81.340004,1729477121182.0,0.0
-3.342773,-7.812566,-9.260223,115.290001,41.09,62.720001,1729477121202.0,0.0
-2.572284,-8.68116,-3.974478,69.510002,34.720001,7.07,1729477121221.0,0.0
-1.998007,-8.212167,-4.335794,21.559999,6.93,-42.91,1729477121242.0,0.0
-2.158326,-5.879165,-5.17089,-17.57,-17.08,-85.889999,1729477121262.0,0.0
-2.868994,-2.443072,-7.216753,-74.690002,-33.040001,-108.43,1729477121282.0,0.0
-3.055635,0.42353,-9.01137,-145.460007,-40.32,-112.489998,1729477121302.0,0.0
-2.725425,2.419144,-10.157533,-159.320007,-35.77,-80.43,1729477121321.0,0.0
-3.871587,0.78006,-9.174082,-96.529999,-23.799999,-15.68,1729477121341.0,0.0
-5.501099,-1.837688,-13.033704,-8.26,-14.35,33.880001,1729477121380.0,0.0
-7.039684,-2.294717,-13.591233,-22.889999,19.18,60.549999,1729477121514.0,0.0
-8.025528,-4.381258,-10.293922,-38.639999,45.849998,80.010002,1729477121514.0,0.0
-4.936393,-7.702496,-10.612168,16.17,43.330002,86.239998,1729477121514.0,0.0
-2.175076,-7.858029,-10.542776,91.980003,37.099998,80.919998,1729477121514.0,0.0
-1.947758,-6.003592,-9.205189,125.860001,62.02,66.57,1729477121515.0,0.0
-2.141576,-7.647461,-5.587241,126.980003,64.330002,48.299999,1729477121515.0,0.0
-1.435694,-8.279166,-4.065405,90.300003,45.220001,6.16,1729477121515.0,0.0
-1.299303,-4.529613,-3.409772,48.790001,5.95,-55.720001,1729477121521.0,0.0
-1.28016,-3.278167,-5.371887,-10.71,-21.559999,-79.379997,1729477121542.0,0.0
-1.20359,-2.579463,-8.032705,-45.779999,-44.170002,-93.029999,1729477121563.0,0.0
-2.122434,1.361516,-9.891929,-74.970001,-45.150002,-96.110001,1729477121583.0,0.0
-2.799603,2.177469,-8.877372,-116.199997,-43.400002,-72.940002,1729477121607.0,0.0
-2.584249,-0.040678,-10.327423,-83.300003,-46.759998,-32.34,1729477121622.0,0.0
-3.5007,-0.839881,-11.854043,-24.15,-36.330002,7.84,1729477121642.0,0.0
-5.709275,-1.665405,-9.281759,-38.080002,-9.45,43.610001,1729477121663.0,0.0
-6.740582,-5.606383,-10.346564,-36.400002,5.74,68.529999,1729477121685.0,0.0
-3.87398,-7.310073,-11.60519,4.2,5.18,76.370003,1729477121702.0,0.0
-2.761317,-6.853044,-9.690931,77.0,17.219999,76.580002,1729477121724.0,0.0
-3.37388,-7.76471,-9.12144,118.510002,38.990002,66.360001,1729477121742.0,0.0
-2.294717,-9.616754,-5.845665,105.699997,35.490002,34.439999,1729477121763.0,0.0
-1.940579,-8.657232,-5.216353,76.160004,17.15,-10.99,1729477121783.0,0.0
-1.864009,-7.568498,-4.488935,62.790001,-2.87,-55.650002,1729477121802.0,0.0
-1.753939,-5.429315,-5.302495,15.89,-23.030001,-88.480003,1729477121822.0,0.0
-1.45005,-2.352145,-9.171689,-49.490002,-40.670002,-109.270004,1729477121842.0,0.0
-2.203789,3.440879,-10.676775,-119.840004,-40.670002,-106.120003,1729477121863.0,0.0
-3.371487,2.335395,-9.678967,-140.699997,-17.780001,-47.040001,1729477121883.0,0.0
-3.675375,-2.409572,-9.667004,-75.529999,-15.82,8.19,1729477121902.0,0.0
-5.089533,-0.98345,-9.755538,-24.290001,-8.68,32.830002,1729477121922.0,0.0
-6.065805,-2.325824,-12.423534,-53.130001,4.55,57.68,1729477121944.0,0.0
-5.209175,-4.67079,-11.746366,-16.24,15.05,67.900002,1729477121963.0,0.0
-3.830909,-6.293124,-10.281959,57.82,26.67,76.510002,1729477121983.0,0.0
-2.18704,-7.032506,-9.102298,106.959999,30.380001,73.010002,1729477122002.0,0.0
-1.959722,-7.197611,-7.752745,128.449997,39.830002,56.630001,1729477122022.0,0.0
-2.605784,-7.628319,-5.367101,103.879997,40.32,29.889999,1729477122042.0,0.0
-1.89033,-9.382257,-6.218946,62.16,18.549999,-15.96,1729477122063.0,0.0
-1.086342,-6.597012,-5.575277,43.259998,0.35,-60.060001,1729477122083.0,0.0
-1.339981,-3.519842,-5.501099,14.07,-18.34,-87.989998,1729477122102.0,0.0
-0.954736,-1.241875,-7.726424,-49.700001,-35.07,-100.870003,1729477122122.0,0.0
-0.411566,1.847259,-8.327023,-97.370003,-36.330002,-88.900002,1729477122142.0,0.0
-1.485943,2.036292,-9.06162,-83.650002,-27.860001,-46.759998,1729477122162.0,0.0
-3.474378,-1.454836,-12.358929,-35.84,-31.85,16.24,1729477122182.0,0.0
-5.343173,-5.130211,-11.198411,-30.030001,-2.59,41.439999,1729477122202.0,0.0
-4.65404,-2.021935,-12.492928,-21.84,4.27,53.970001,1729477122222.0,0.0
-4.567898,-1.29691,-11.064411,-3.01,17.710001,74.269997,1729477122242.0,0.0
-3.713661,-5.783452,-12.382857,19.110001,28.42,90.370003,1729477122263.0,0.0
-3.723232,-8.020741,-9.678967,46.970001,49.84,90.650002,1729477122282.0,0.0
-4.034299,-9.645468,-9.162118,71.959999,57.610001,64.050003,1729477122302.0,0.0
-3.20399,-9.399008,-6.101698,100.239998,46.130001,26.460001,1729477122322.0,0.0
-2.974278,-8.427521,-4.965107,68.25,33.529999,-18.200001,1729477122342.0,0.0
-2.646462,-8.65484,-4.993821,32.689999,11.69,-62.510002,1729477122363.0,0.0
-2.904887,-5.915058,-4.979464,2.03,-5.11,-94.360001,1729477122382.0,0.0
-2.435893,-5.831308,-7.984849,-34.790001,-23.66,-116.129997,1729477122401.0,0.0
-1.665405,-3.790231,-9.21476,-7.98,-30.52,-116.620003,1729477122422.0,0.0
-1.67019,-5.386244,-10.425529,90.230003,-28.77,-87.290001,1729477122442.0,0.0
-0.98345,-7.221539,-10.786844,160.440002,-20.51,-67.410004,1729477122462.0,0.0
-1.72044,-6.405586,-10.693524,200.830002,10.64,-49.560001,1729477122483.0,0.0
-2.270789,-5.455636,-9.592826,261.309998,32.619999,-24.290001,1729477122501.0,0.0
-1.615155,-4.242475,-9.114261,359.730011,41.860001,10.15,1729477122522.0,0.0
-1.277767,-4.431508,-7.381857,386.959991,57.470001,25.549999,1729477122541.0,0.0
-1.385444,-5.582455,-5.783452,377.929993,79.940002,34.02,1729477122564.0,0.0
-1.545763,-6.778866,-4.326223,344.610016,83.580002,32.060001,1729477122582.0,0.0
-1.840081,-7.915457,-3.452843,308.910004,77.559998,27.370001,1729477122601.0,0.0
-2.158326,-8.915657,-1.179662,266.910004,78.959999,18.76,1729477122622.0,0.0
-2.383251,-9.099905,0.162712,204.539993,67.690002,10.71,1729477122642.0,0.0
-2.416751,-9.79143,0.746561,147.139999,55.23,1.26,1729477122664.0,0.0
-2.261217,-10.609775,0.705883,105.980003,44.170002,-8.89,1729477122685.0,0.0
-2.0004,-9.702895,1.667797,81.830002,38.709999,-13.37,1729477122702.0,0.0
-1.607977,-8.609376,2.742175,69.160004,35.98,-16.870001,1729477122721.0,0.0
-1.447658,-7.314859,3.452843,41.439999,28.84,-12.6,1729477122742.0,0.0
-1.160519,-5.958128,3.412165,13.02,17.219999,1.82,1729477122764.0,0.0
-2.409572,-8.496914,5.860023,6.02,-8.96,17.85,1729477122782.0,0.0
-0.964308,-10.191031,6.123233,76.510002,-40.529999,20.93,1729477122802.0,0.0
-1.962115,-7.389036,7.357929,101.5,-16.59,18.76,1729477122822.0,0.0
-0.995414,-8.092526,2.991028,84.419998,-39.060001,39.34,1729477122842.0,0.0
-0.282353,-6.850651,-0.416351,14.91,-29.75,63.07,1729477122863.0,0.0
-1.897508,-9.829715,-0.193819,-36.75,-22.120001,74.620003,1729477122882.0,0.0
-4.596612,-14.053047,-1.660619,-18.48,-9.59,63.700001,1729477122901.0,0.0
-5.656632,-15.397814,-1.825724,9.17,3.85,38.220001,1729477122929.0,0.0
-5.907879,-15.936199,-0.98345,5.18,42.630001,0.7,1729477122941.0,0.0
-3.220739,-13.222737,-1.265803,-2.59,60.48,-22.26,1729477122964.0,0.0
-3.0006,-12.799208,0.090927,45.920002,86.519997,-53.900002,1729477122983.0,0.0
-2.249253,-10.485349,0.892523,59.990002,94.43,-78.190002,1729477123002.0,0.0
-1.799403,-5.362316,4.780859,18.059999,94.010002,-73.43,1729477123022.0,0.0
-1.067199,-3.275774,7.307681,21.77,64.68,-43.470001,1729477123042.0,0.0
-2.105684,-1.61037,10.746166,17.99,24.780001,-16.52,1729477123063.0,0.0
-4.149154,-2.459821,9.722038,-14.42,-22.469999,17.219999,1729477123082.0,0.0
-3.65384,-5.948557,4.847858,-70.910004,-60.760002,17.92,1729477123102.0,0.0
-1.739582,-8.865408,-1.29691,-130.130005,-86.590004,23.59,1729477123122.0,0.0
-1.330409,-12.167502,-2.086541,-129.570007,-72.449997,35.91,1729477123142.0,0.0
-5.094319,-14.531611,0.071785,-22.33,-32.27,42.490002,1729477123164.0,0.0
-5.592027,-13.78266,-2.56032,17.780001,-7.63,17.290001,1729477123184.0,0.0
-4.991428,-14.790037,-2.435893,15.05,35.98,-9.87,1729477123202.0,0.0
-3.026921,-13.787444,-1.76351,22.960001,49.490002,-25.48,1729477123224.0,0.0
-2.835495,-12.246466,-0.961915,60.27,86.379997,-52.360001,1729477123244.0,0.0
-2.045863,-8.23131,1.978864,50.889999,84.840004,-59.849998,1729477123264.0,0.0
-0.815953,-5.142176,5.359922,75.879997,82.669998,-46.48,1729477123283.0,0.0
-0.856631,-2.682354,11.41137,107.940002,33.950001,-25.41,1729477123302.0,0.0
-1.253839,-0.131605,9.008978,67.129997,-19.25,14.77,1729477123323.0,0.0
-2.78046,-6.080163,7.721639,-19.879999,-73.989998,26.25,1729477123343.0,0.0
-1.067199,-9.566505,1.598405,-137.339996,-120.400002,15.26,1729477123364.0,0.0
-0.722632,-10.437491,-0.526421,-143.149994,-103.669998,34.720001,1729477123384.0,0.0
-2.658426,-9.671788,-1.363909,-66.5,-67.830002,48.439999,1729477123404.0,0.0
-5.536992,-12.789637,-4.036692,42.560001,-26.040001,44.73,1729477123424.0,0.0
-6.348158,-16.354942,-3.412165,21.0,18.27,-9.66,1729477123444.0,0.0
-2.392823,-14.124832,-3.144169,-26.880001,40.459999,-20.93,1729477123465.0,0.0
-0.90688,-12.433105,-2.720639,10.85,79.449997,-43.049999,1729477123484.0,0.0
-1.399801,-10.04507,-0.275175,5.11,98.910004,-69.440002,1729477123504.0,0.0
-1.495514,-6.690332,5.383851,-17.780001,80.57,-62.650002,1729477123524.0,0.0
-0.717847,-3.550949,10.616954,25.41,48.09,-38.009998,1729477123544.0,0.0
-0.050249,-0.246461,10.9017,55.510002,-19.67,-10.5,1729477123565.0,0.0
-2.328217,-1.70369,8.745767,7.28,-66.43,27.93,1729477123584.0,0.0
-3.754339,-6.518049,3.151347,-113.889999,-107.590004,18.41,1729477123604.0,0.0
-3.974478,-8.977871,-0.789631,-176.399994,-127.050003,26.18,1729477123623.0,0.0
-3.34038,-11.193624,-2.457429,-78.260002,-86.239998,66.709999,1729477123649.0,0.0
-5.536992,-13.423735,-4.852644,2.1,-20.370001,54.599998,1729477123664.0,0.0
-7.424929,-14.785251,-6.331409,-17.639999,17.360001,19.67,1729477123690.0,0.0
-5.438886,-15.182461,-3.220739,-32.41,39.41,0.21,1729477123705.0,0.0
-1.76351,-14.457435,-2.151148,28.35,66.290001,-8.05,1729477123724.0,0.0
-1.143769,-10.822738,-0.81356,82.669998,99.470001,-36.68,1729477123744.0,0.0
-0.327817,-2.553142,3.57727,71.470001,102.199997,-41.439999,1729477123765.0,0.0
0.792024,-2.294717,8.094919,93.590004,72.099998,8.68,1729477123784.0,0.0
-1.320838,-3.921836,11.32523,87.290001,5.81,36.75,1729477123803.0,0.0
-5.821737,-5.888737,8.413164,18.059999,-38.920002,48.23,1729477123824.0,0.0
-4.981857,-8.530413,0.808774,-67.830002,-80.010002,35.349998,1729477123844.0,0.0
-3.275774,-9.946963,-1.875973,-116.970001,-91.699997,50.470001,1729477123865.0,0.0
-3.218346,-12.002398,-3.981657,-106.889999,-72.449997,57.610001,1729477123884.0,0.0
-5.123034,-15.28535,-4.800002,-51.869999,-31.92,31.43,1729477123903.0,0.0
-6.350551,-17.52264,-4.742575,-33.810001,10.85,-0.98,1729477123923.0,0.0
-2.26361,-15.783059,-3.146562,10.43,31.219999,-15.68,1729477123944.0,0.0
-1.366302,-12.349358,-2.371287,65.730003,66.360001,-37.869999,1729477123964.0,0.0
-2.24686,-8.666803,-1.78026,34.509998,78.959999,-66.220001,1729477123984.0,0.0
-1.677369,-4.017549,2.196611,-20.370001,76.650002,-61.459999,1729477124004.0,0.0
-0.583849,-2.507678,4.833502,-3.01,56.209999,-26.530001,1729477124023.0,0.0
-2.493321,-6.4343,12.303895,48.509998,0.56,-7.63,1729477124043.0,0.0
-3.718446,-3.979264,9.413363,40.670002,-44.52,13.02,1729477124064.0,0.0
-4.632504,-5.316852,4.118048,-24.85,-65.029999,17.08,1729477124084.0,0.0
-3.182454,-7.984849,-1.069592,-148.050003,-102.620003,22.33,1729477124103.0,0.0
-2.852244,-9.47797,-2.383251,-154.210007,-90.720001,54.110001,1729477124124.0,0.0
-4.565506,-12.449856,-4.522435,-84.840004,-49.98,52.5,1729477124143.0,0.0
-6.60419,-14.215759,-7.499106,-61.32,-9.59,27.58,1729477124165.0,0.0
-4.881358,-15.917056,-6.506085,-21.84,17.08,14.63,1729477124184.0,0.0
-2.40718,-14.589039,-3.974478,22.75,42.700001,3.78,1729477124203.0,0.0
-2.371287,-10.454242,-3.177669,38.849998,76.440002,-23.1,1729477124223.0,0.0
-3.053242,-9.432507,-1.607977,28.559999,88.830002,-34.23,1729477124244.0,0.0
-2.325824,-7.733603,2.615355,-26.25,71.050003,-41.860001,1729477124265.0,0.0
0.098106,-5.584848,7.659425,-16.24,38.990002,-19.389999,1729477124284.0,0.0
-0.66999,-5.101498,11.145767,30.59,5.18,-1.68,1729477124304.0,0.0
-4.733003,-5.240282,7.563712,-11.2,-37.450001,0.98,1729477124323.0,0.0
-4.800002,-7.965706,0.81356,-97.790001,-85.470001,-7.21,1729477124343.0,0.0
-1.919044,-8.429914,-4.845466,-182.419998,-115.010002,5.46,1729477124364.0,0.0
-1.87358,-8.836694,-5.369494,-197.820007,-107.239998,25.48,1729477124383.0,0.0
-5.053641,-10.966305,-4.974678,-141.399994,-63.139999,18.83,1729477124403.0,0.0
-8.559127,-10.296316,-9.602397,-119.139999,-7.63,7.63,1729477124423.0,0.0
-4.086941,-11.794223,-10.281959,-93.730003,15.89,11.06,1729477124444.0,0.0
-1.45005,-11.854043,-7.41775,-31.57,41.790001,7.49,1729477124464.0,0.0
-2.500499,-8.817552,-3.268596,-11.62,89.459999,-2.87,1729477124484.0,0.0
-2.730211,-7.69771,-1.272982,-37.450001,91.419998,-10.08,1729477124502.0,0.0
-0.79681,-8.020741,2.514857,-69.090004,62.369999,-6.51,1729477124523.0,0.0
-0.129212,-9.466006,6.513263,-60.060001,12.11,-1.68,1729477124544.0,0.0
-2.656033,-8.724231,3.4672,-30.380001,-22.4,-18.27,1729477124564.0,0.0
-4.165904,-8.422735,-0.90688,-34.860001,-48.369999,-37.029999,1729477124583.0,0.0
-1.940579,-7.018148,-4.615755,-73.5,-104.440002,-36.049999,1729477124603.0,0.0
-0.124427,-7.039684,-8.652447,-101.57,-113.959999,-20.16,1729477124623.0,0.0
-3.309274,-9.226725,-10.186246,-123.620003,-61.950001,-11.55,1729477124643.0,0.0
-7.853244,-8.819944,-10.234102,-108.220001,10.01,-14.14,1729477124665.0,0.0
-7.822137,-8.042276,-9.317651,-23.940001,41.09,6.3,1729477124687.0,0.0
-3.613162,-9.913465,-7.683353,78.470001,28.280001,23.030001,1729477124703.0,0.0
-2.770889,-8.908479,-5.749953,115.010002,69.720001,20.440001,1729477124724.0,0.0
-3.125026,-8.836694,-4.199404,110.809998,86.660004,11.06,1729477124743.0,0.0
-2.823531,-10.765309,0.145962,128.660004,67.970001,5.67,1729477124764.0,0.0
-1.081556,-10.167104,0.023928,189.419998,18.76,-6.93,1729477124784.0,0.0
-1.22034,-7.953743,2.713461,191.520004,-1.4,-21.42,1729477124804.0,0.0
-1.859223,-6.101698,1.897508,180.110001,-22.049999,-16.030001,1729477124823.0,0.0
-2.517249,-6.955935,-0.674776,130.830002,-32.689999,-4.06,1729477124843.0,0.0
-1.509871,-9.590433,-3.26381,89.040001,-41.369999,-1.4,1729477124864.0,0.0
-0.734596,-11.059627,-3.926622,124.32,-31.08,9.73,1729477124883.0,0.0
-1.634298,-11.743973,-1.923829,220.149994,3.15,14.56,1729477124903.0,0.0
-3.089134,-12.181859,-1.785046,302.890015,32.34,6.02,1729477124923.0,0.0
-3.199204,-12.169895,-0.756132,359.869995,37.099998,-6.3,1729477124943.0,0.0
-2.478964,-11.179268,-0.16989,385.140015,64.400002,-14.77,1729477124965.0,0.0
-2.514857,-9.169296,1.861616,374.709991,80.779999,-27.65,1729477124983.0,0.0
-2.9671,-7.243074,4.192225,329.559998,76.580002,-38.639999,1729477125002.0,0.0
-3.282953,-6.096912,4.591826,261.940002,77.840004,-48.790001,1729477125031.0,0.0
-3.053242,-5.082355,4.517649,196.490005,71.75,-44.52,1729477125044.0,0.0
-3.180061,-1.088734,4.807181,147.979996,82.599998,-37.170002,1729477125064.0,0.0
-5.003392,-2.012364,7.317252,97.93,73.080002,-16.940001,1729477125085.0,0.0
-5.233103,-4.73061,6.465407,14.28,32.619999,0.98,1729477125104.0,0.0
-3.943372,-4.551149,7.56132,28.630001,22.75,23.1,1729477125123.0,0.0
-3.09392,-4.532006,8.047063,30.59,5.81,37.310001,1729477125144.0,0.0
-3.189633,-6.209375,7.831708,9.17,-10.85,46.549999,1729477125165.0,0.0
-3.998406,-10.241282,7.398607,-17.85,-25.48,43.330002,1729477125184.0,0.0
-4.701896,-12.595818,5.125426,-22.610001,-28.0,17.290001,1729477125204.0,0.0
-5.008178,-11.282159,4.759324,14.77,-3.43,-11.62,1729477125223.0,0.0
-3.471986,-6.606583,5.726025,56.07,29.26,-30.17,1729477125244.0,0.0
-3.598805,-5.577669,7.381857,47.670002,34.16,-45.43,1729477125265.0,0.0
-2.971886,-5.56092,8.049455,16.59,24.360001,-48.650002,1729477125284.0,0.0
-2.172683,-2.665605,8.166703,25.48,20.860001,-34.16,1729477125304.0,0.0
-2.524428,0.215354,8.252845,19.32,16.1,-11.69,1729477125324.0,0.0
-3.251846,-1.098306,7.298109,-32.34,-10.08,18.34,1729477125344.0,0.0
-4.689932,-7.319644,6.4678,-60.060001,-31.43,36.540001,1729477125366.0,0.0
-4.141976,-5.326423,5.783452,-13.51,-27.860001,37.310001,1729477125387.0,0.0
-3.503092,-2.344966,6.15434,1.75,-17.85,48.93,1729477125406.0,0.0
-3.273381,-6.965507,8.166703,-21.84,-24.08,65.449997,1729477125426.0,0.0
-7.819745,-9.97807,4.926822,-76.580002,-36.189999,47.810001,1729477125448.0,0.0
-6.927221,-16.249659,4.831109,-46.970001,-20.299999,21.77,1729477125467.0,0.0
-3.022135,-12.265609,4.63729,8.82,9.17,-30.799999,1729477125486.0,0.0
-2.830709,-7.444071,5.486742,84.910004,54.389999,-44.66,1729477125505.0,0.0
-3.586841,-4.740182,6.687939,77.629997,58.029999,-59.849998,1729477125526.0,0.0
-5.223531,-6.005985,6.793223,50.119999,49.0,-49.84,1729477125547.0,0.0
-4.520042,-5.158926,6.853044,32.830002,28.630001,-50.610001,1729477125566.0,0.0
-3.172883,-1.272982,8.181061,47.599998,33.810001,-33.529999,1729477125588.0,0.0
-3.562913,-2.517249,8.047063,7.91,6.72,-12.46,1729477125605.0,0.0
-2.380858,-2.024328,7.501499,-45.849998,-10.92,1.33,1729477125626.0,0.0
-3.342773,-4.642076,7.879565,-48.509998,-20.299999,25.549999,1729477125710.0,0.0
-4.414758,-5.149354,6.958328,-53.619999,-38.290001,28.630001,1729477125717.0,0.0
-2.179861,-2.615355,6.632904,-44.099998,-35.490002,45.360001,1729477125717.0,0.0
-2.706282,-10.492528,4.177868,-70.489998,-42.420002,49.349998,1729477125718.0,0.0
-3.912265,-16.003199,3.491128,-38.779999,-26.040001,15.89,1729477125726.0,0.0
-6.884151,-10.566705,4.922036,62.580002,36.330002,-34.23,1729477125749.0,0.0
-7.76471,-3.598805,8.135597,115.220001,75.18,-54.670002,1729477125765.0,0.0
-3.751946,-3.701697,6.606583,53.689999,62.16,-49.630001,1729477125785.0,0.0
-3.031706,-6.683154,6.553941,21.42,41.790001,-36.75,1729477125805.0,0.0
-3.055635,-3.120241,8.082954,57.540001,41.93,-30.309999,1729477125825.0,0.0
-3.689733,-0.212961,8.796017,51.099998,35.139999,-11.55,1729477125845.0,0.0
-3.292524,-2.325824,7.836494,-22.75,-4.62,13.440001,1729477125866.0,0.0
-2.682354,-5.103891,6.053841,-74.480003,-26.74,36.189999,1729477125885.0,0.0
-4.249653,-7.62114,5.046463,-73.57,-40.599998,34.860001,1729477125906.0,0.0
-2.790031,-4.019942,5.852845,-44.869999,-32.830002,37.939999,1729477125925.0,0.0
-1.655833,-5.766702,7.381857,-46.41,-30.24,47.389999,1729477125945.0,0.0
-4.850252,-11.109876,6.068198,-67.620003,-39.34,29.889999,1729477125966.0,0.0
-7.436893,-11.373087,4.125226,0.91,-17.99,4.48,1729477125986.0,0.0
-8.070991,-8.350951,6.618547,55.02,25.34,-33.389999,1729477126004.0,0.0
-4.630112,-5.816952,6.455836,43.400002,36.400002,-40.040001,1729477126025.0,0.0
-4.634897,-7.618747,6.754939,55.439999,37.240002,-41.439999,1729477126045.0,0.0
-4.232903,-3.337988,7.903493,92.470001,32.48,-39.900002,1729477126065.0,0.0
-2.629712,0.440279,8.185846,69.019997,26.530001,-20.370001,1729477126085.0,0.0
-2.522035,-1.684547,6.297909,-31.639999,-4.55,3.92,1729477126105.0,0.0
-1.998007,-4.429115,5.233103,-82.18,-24.99,25.34,1729477126125.0,0.0
-3.084348,-6.74776,4.826324,-56.77,-31.639999,35.700001,1729477126145.0,0.0
-3.24706,-6.001199,5.087141,-34.650002,-30.24,40.040001,1729477126166.0,0.0
-2.261217,-7.642675,6.783652,-49.84,-25.27,45.849998,1729477126186.0,0.0
-4.768896,-13.256237,6.065805,-65.730003,-29.120001,22.960001,1729477126205.0,0.0
-5.429315,-12.567105,4.37408,-21.42,-10.22,-12.11,1729477126225.0,0.0
-7.377072,-8.590233,4.752146,54.529999,32.48,-35.139999,1729477126245.0,0.0
-7.195218,-5.199604,8.10449,60.689999,46.27,-54.670002,1729477126266.0,0.0
-4.019942,-4.699504,7.922636,30.59,40.459999,-52.639999,1729477126287.0,0.0
-3.620341,-5.371887,7.673782,20.719999,30.66,-52.709999,1729477126305.0,0.0
-3.605984,-4.405186,7.745567,47.950001,29.540001,-42.07,1729477126324.0,0.0
-3.041277,-3.584448,8.090133,38.360001,23.59,-38.57,1729477126345.0,0.0
-1.162912,-1.741975,5.245068,-11.83,5.81,-27.02,1729477126366.0,0.0
-2.699104,-5.254639,5.592027,-34.509998,-11.97,10.92,1729477126387.0,0.0
-4.354938,-5.788238,5.615955,-31.43,-25.969999,15.26,1729477126405.0,0.0
-2.768496,-3.505485,6.482157,-11.13,-23.309999,35.349998,1729477126424.0,0.0
-2.065006,-6.262017,6.436693,-51.380001,-34.720001,47.040001,1729477126446.0,0.0
-4.728218,-12.789637,6.628119,-89.25,-46.130001,31.780001,1729477126466.0,0.0
-5.938986,-16.053448,4.173083,-50.82,-38.220001,-4.62,1729477126486.0,0.0
-6.599405,-10.523634,3.06042,45.709999,8.75,-40.529999,1729477126503.0,0.0
-5.639884,-3.68734,6.776474,127.68,55.790001,-43.119999,1729477126525.0,0.0
-3.85723,-3.711268,8.472985,94.360001,49.349998,-57.68,1729477126546.0,0.0
-3.352344,-4.37408,8.374879,36.189999,23.66,-45.920002,1729477126566.0,0.0
-3.318845,-2.921637,7.307681,46.27,22.26,-30.940001,1729477126586.0,0.0
-2.155933,-1.275374,7.068398,16.1,10.08,-11.83,1729477126604.0,0.0
-1.552942,-2.921637,6.963113,-28.07,-1.26,12.67,1729477126624.0,0.0
-4.393222,-6.479764,6.728617,-49.91,-24.780001,26.18,1729477126646.0,0.0
-4.146761,-4.345366,7.290931,-39.200001,-34.299999,31.290001,1729477126665.0,0.0
-2.581856,-3.282953,8.762517,-50.189999,-42.279999,46.970001,1729477126688.0,0.0
-3.148954,-8.489735,4.536791,-107.239998,-64.889999,54.040001,1729477126709.0,0.0
-5.072784,-13.904692,5.063213,-80.639999,-51.59,34.23,1729477126724.0,0.0
-6.85783,-14.816358,4.785645,14.63,-21.07,-12.04,1729477126744.0,0.0
-4.804788,-7.893922,6.79083,100.449997,32.970001,-42.0,1729477126766.0,0.0
-2.679961,-4.204189,6.530013,104.790001,51.029999,-60.549999,1729477126784.0,0.0
-3.936193,-5.833702,7.073184,57.049999,37.450001,-57.119999,1729477126804.0,0.0
-3.220739,-4.13719,7.738388,70.980003,35.0,-47.32,1729477126825.0,0.0
-3.084348,-2.935993,6.582655,80.150002,36.119999,-37.939999,1729477126845.0,0.0
-1.844866,-0.830309,4.675575,17.360001,24.85,-24.08,1729477126866.0,0.0
-1.85683,-2.9671,5.831308,-13.93,19.18,8.54,1729477126887.0,0.0
-4.4674,-6.233303,6.910471,-16.309999,1.75,22.469999,1729477126904.0,0.0
-4.228118,-3.972085,6.836295,-0.91,-7.07,30.52,1729477126924.0,0.0
-2.400001,-4.23051,7.482357,-18.48,-20.51,49.209999,1729477126945.0,0.0
-3.893122,-11.169697,6.290731,-61.950001,-41.09,48.580002,1729477126965.0,0.0
-4.740182,-16.795221,5.812167,-34.580002,-42.560001,10.99,1729477126984.0,0.0
-6.226124,-11.196017,5.309673,40.740002,-3.08,-31.15,1729477127005.0,0.0
-6.393622,-3.20399,6.757331,90.300003,33.670002,-42.77,1729477127024.0,0.0
-2.098505,-5.304887,8.484949,33.32,27.719999,-46.200001,1729477127044.0,0.0
-3.208775,-5.149354,8.054241,1.61,5.32,-39.34,1729477127072.0,0.0
-2.486143,-1.871187,8.051848,64.959999,18.059999,-22.33,1729477127084.0,0.0
-2.40718,-1.349552,6.209375,14.56,4.83,-10.36,1729477127104.0,0.0
-1.902294,-2.9336,5.213961,-63.209999,-12.32,8.82,1729477127125.0,0.0
-3.237489,-6.56112,6.898508,-53.830002,-15.82,26.460001,1729477127145.0,0.0
-4.31426,-5.953342,7.700103,-13.72,-21.139999,26.460001,1729477127166.0,0.0
-2.880959,-1.899901,7.846066,-8.19,-23.73,38.709999,1729477127187.0,0.0
-1.529014,-4.022335,6.470192,-46.34,-37.869999,62.790001,1729477127204.0,0.0
-2.313859,-9.159724,4.900501,-85.959999,-44.029999,58.240002,1729477127225.0,0.0
-6.740582,-17.336,7.257431,-20.790001,-36.400002,34.369999,1729477127245.0,0.0
-7.171289,-12.076575,7.080362,51.029999,-2.45,-21.700001,1729477127266.0,0.0
-4.917251,-3.986443,6.329016,74.480003,31.360001,-40.32,1729477127289.0,0.0
-2.309074,-3.448057,5.388636,16.52,25.620001,-46.900002,1729477127305.0,0.0
-4.110869,-6.580262,6.34098,3.57,21.49,-45.290001,1729477127326.0,0.0
-2.579463,-1.021735,8.441878,69.230003,29.610001,-39.48,1729477127345.0,0.0
-2.11047,-0.136391,7.073184,27.51,16.73,-8.19,1729477127368.0,0.0
-1.615155,-2.301895,5.606383,-63.279999,-8.26,18.83,1729477127387.0,0.0
-3.438486,-7.302894,5.871986,-73.080002,-19.32,37.450001,1729477127406.0,0.0
-4.319045,-7.008578,6.403193,-27.02,-19.040001,35.630001,1729477127427.0,0.0
-2.524428,-3.744767,7.099504,1.75,-8.75,42.98,1729477127449.0,0.0
-1.971686,-6.788438,6.008378,-41.790001,-14.35,43.049999,1729477127469.0,0.0
-5.410172,-14.172688,8.41795,-27.65,-15.61,27.16,1729477127487.0,0.0
-8.508877,-12.100503,7.238289,34.580002,-9.38,-22.75,1729477127507.0,0.0
-6.242875,-5.745167,7.860423,88.269997,27.02,-44.59,1729477127526.0,0.0
-2.344966,-4.575077,6.843473,39.970001,24.219999,-59.849998,1729477127547.0,0.0
-2.132005,-5.998806,7.278966,17.57,30.1,-55.299999,1729477127567.0,0.0
-3.802195,-3.306881,8.025528,48.580002,27.299999,-51.939999,1729477127588.0,0.0
-2.158326,-0.485743,8.506484,76.720001,33.880001,-31.57,1729477127608.0,0.0
-1.849652,-0.751346,6.709475,14.84,14.98,-12.46,1729477127626.0,0.0
-2.749353,-3.905087,6.266802,-60.900002,-7.84,33.389999,1729477127649.0,0.0
-5.52742,-7.987241,6.092126,-54.32,-25.48,37.73,1729477127667.0,0.0
-3.330809,-5.144568,6.271588,-7.98,-15.75,38.150002,1729477127689.0,0.0
-1.545763,-4.843073,7.015756,-1.61,-5.95,50.82,1729477127706.0,0.0
-1.957329,-9.334401,7.62114,-46.689999,-14.28,43.330002,1729477127726.0,0.0
-6.821937,-16.390835,8.394022,-24.01,-30.940001,9.38,1729477127749.0,0.0
-6.862615,-11.148161,6.577869,35.98,-3.64,-32.689999,1729477127770.0,0.0
-5.278566,-3.988836,6.192625,56.77,20.790001,-52.990002,1729477127791.0,0.0
-2.562713,-2.696711,6.393622,24.639999,20.719999,-49.209999,1729477127806.0,0.0
-3.002992,-5.491528,7.60439,7.77,18.34,-48.09,1729477127828.0,0.0
-3.113062,-3.079563,7.999206,29.960001,14.0,-46.34,1729477127847.0,0.0
-2.392823,-0.856631,7.76471,56.209999,18.129999,-18.83,1729477127867.0,0.0
-1.61037,0.047856,6.982256,-3.01,5.81,2.59,1729477127888.0,0.0
-1.574477,-2.07697,6.331409,-67.480003,-11.62,28.559999,1729477127906.0,0.0
-3.775874,-6.393622,6.79083,-69.230003,-21.0,46.060001,1729477127928.0,0.0
-4.488935,-5.627919,6.798009,-38.779999,-25.76,46.900002,1729477127947.0,0.0
-3.524628,-4.699504,7.489535,-26.110001,-20.719999,61.670002,1729477127970.0,0.0
-4.09412,-13.306486,6.338587,-81.269997,-44.52,36.75,1729477127986.0,0.0
-5.362316,-16.910078,6.833901,-17.99,-32.130001,-4.2,1729477128006.0,0.0
-6.9344,-7.992027,6.281159,64.610001,5.67,-46.830002,1729477128027.0,0.0
-5.07757,-1.569692,7.054041,72.800003,26.25,-49.91,1729477128047.0,0.0
-1.258625,-4.369294,7.039684,-9.66,13.3,-53.130001,1729477128068.0,0.0
-2.622534,-6.960721,6.63769,-14.0,8.54,-55.16,1729477128086.0,0.0
-2.254039,-1.485943,8.748159,71.610001,29.82,-44.52,1729477128108.0,0.0
-2.845066,0.693919,7.71446,59.010002,23.870001,-23.24,1729477128128.0,0.0
-1.531406,0.09332,5.082355,-38.57,-1.19,4.76,1729477128149.0,0.0
-1.813759,-4.546363,5.737988,-69.370003,-9.03,33.950001,1729477128168.0,0.0
-4.778467,-7.9346,6.74776,-35.07,-18.059999,42.209999,1729477128187.0,0.0
-3.443272,-3.881158,6.216553,-3.99,-10.08,46.689999,1729477128206.0,0.0
-1.502693,-5.60399,6.391229,-19.389999,-8.26,62.23,1729477128227.0,0.0
-3.086741,-12.323036,7.415358,-50.189999,-10.01,38.990002,1729477128246.0,0.0
-6.209375,-17.56571,8.913264,22.960001,-8.33,-4.9,1729477128268.0,0.0
-8.245667,-7.908278,5.484349,99.260002,18.27,-54.670002,1729477128286.0,0.0
-3.988836,-2.505285,7.092326,122.43,41.650002,-53.200001,1729477128307.0,0.0
-2.730211,-6.128019,7.384251,46.34,26.110001,-67.620003,1729477128328.0,0.0
-3.376273,-2.562713,9.090333,105.559998,32.060001,-54.880001,1729477128346.0,0.0
-3.294917,0.227318,9.592826,94.360001,35.700001,-32.130001,1729477128369.0,0.0
-3.326023,-3.036492,8.025528,-31.92,-3.15,-17.01,1729477128388.0,0.0
-1.165305,-5.417351,5.383851,-78.050003,-19.18,-4.76,1729477128407.0,0.0
-1.785046,-3.732803,5.812167,-11.13,-1.68,6.72,1729477128427.0,0.0
-4.237689,-2.957529,7.113862,5.46,-2.73,17.85,1729477128447.0,0.0
-3.866802,-2.270789,8.327023,-28.0,-14.91,33.529999,1729477128466.0,0.0
-1.79701,-2.529213,8.673983,-55.16,-23.52,51.52,1729477128487.0,0.0
-2.383251,-6.788438,8.705089,-74.199997,-36.610001,64.190002,1729477128508.0,0.0
-3.39063,-11.49512,6.98465,-69.510002,-44.310001,46.900002,1729477128525.0,0.0
-4.386044,-12.559926,7.190433,-11.55,-21.700001,14.42,1729477128547.0,0.0
-7.238289,-7.709675,6.226124,46.549999,3.64,-25.27,1729477128567.0,0.0
-4.981857,-3.87398,7.013363,55.650002,29.68,-34.439999,1729477128587.0,0.0
-1.98365,-5.726025,7.499106,2.31,25.059999,-50.189999,1729477128607.0,0.0
-3.010171,-7.159326,6.321837,9.94,16.940001,-54.389999,1729477128627.0,0.0
-2.979064,-2.196611,7.709675,73.43,33.110001,-44.029999,1729477128646.0,0.0
-3.136991,-1.234696,7.235896,20.370001,18.48,-28.280001,1729477128666.0,0.0
-2.074577,-1.543371,6.534799,-23.17,4.2,-5.32,1729477128689.0,0.0
-3.412165,-4.804788,6.84108,-14.56,-6.58,15.33,1729477128710.0,0.0
-3.833302,-4.106083,7.867601,2.59,-10.43,24.639999,1729477128725.0,0.0
-2.924029,-2.545963,8.662018,-1.96,-12.95,40.810001,1729477128746.0,0.0
-1.87358,-3.337988,8.123632,-35.490002,-23.17,48.650002,1729477128766.0,0.0
-3.034099,-6.398407,7.499106,-50.400002,-29.190001,48.09,1729477128788.0,0.0
-4.182654,-7.168896,8.200203,-16.870001,-16.940001,42.560001,1729477128808.0,0.0
-6.096912,-6.084948,6.843473,-4.69,-6.79,30.59,1729477128825.0,0.0
-4.931608,-6.26441,7.310073,-17.99,-1.33,22.4,1729477128846.0,0.0
-3.462414,-5.414958,8.465806,-25.9,6.09,12.81,1729477128869.0,0.0
-3.34038,-4.283153,8.822337,-42.490002,1.26,12.95,1729477128886.0,0.0
-4.175476,-5.225924,6.982256,-48.93,-13.65,24.219999,1729477128907.0,0.0
-4.84068,-5.501099,6.094519,-43.75,-24.43,28.35,1729477128925.0,0.0
-4.821537,-6.01077,7.257431,-40.599998,-26.32,34.720001,1729477128945.0,0.0
-3.735196,-7.767102,7.077969,-57.68,-36.82,27.23,1729477128968.0,0.0
-3.393023,-3.089134,9.085547,-40.880001,-37.52,28.35,1729477128987.0,0.0
-3.948158,-2.184647,10.059426,-60.27,-46.200001,45.290001,1729477129006.0,0.0
-3.584448,-5.02732,6.862615,-170.100006,-74.760002,44.869999,1729477129025.0,0.0
-2.165504,-7.846066,3.39063,-275.029999,-86.309998,31.43,1729477129047.0,0.0
-1.167697,-10.688738,1.849652,-321.790009,-74.059998,6.16,1729477129067.0,0.0
-1.268196,-12.117253,2.352145,-292.950012,-53.760002,-11.55,1729477129086.0,0.0
-1.37348,-11.81815,2.861816,-227.639999,-26.040001,-10.43,1729477129112.0,0.0
-1.423729,-10.980663,0.916451,-199.360001,2.45,-28.700001,1729477129125.0,0.0
-1.481157,-10.298709,0.844666,-180.180008,15.54,-35.07,1729477129147.0,0.0
-1.505085,-9.224331,1.411765,-133.350006,25.41,-25.83,1729477129169.0,0.0
-1.885544,-8.248059,1.667797,-68.599998,32.27,-20.370001,1729477129188.0,0.0
-2.371287,-7.877172,1.201197,-25.620001,36.75,-12.53,1729477129207.0,0.0
-2.739782,-7.04447,0.978664,-10.92,33.740002,-5.25,1729477129237.0,0.0
-3.625126,-7.460821,0.567099,14.98,34.16,11.41,1729477129248.0,0.0
-6.041877,-9.212367,2.122434,51.869999,28.77,20.51,1729477129266.0,0.0
-5.65424,-9.683753,6.331409,105.07,18.34,22.469999,1729477129287.0,0.0
-5.465207,-7.881958,3.460021,-39.200001,11.55,-0.14,1729477129306.0,0.0
-5.072784,-12.129218,1.674976,-112.07,-5.6,-13.3,1729477129328.0,0.0
-4.656433,-14.586647,-0.957129,-150.080002,2.1,-42.420002,1729477129347.0,0.0
-3.335595,-12.971491,-1.74676,-117.32,32.759998,-63.84,1729477129369.0,0.0
-1.529014,-10.518847,-0.416351,-26.040001,46.759998,-61.25,1729477129387.0,0.0
1.095913,-6.171089,4.634897,82.040001,40.18,-55.650002,1729477129407.0,0.0
1.674976,-2.70389,6.819544,134.680008,36.119999,-27.65,1729477129426.0,0.0
0.043071,-3.096312,8.336594,91.980003,9.1,-11.13,1729477129447.0,0.0
-1.426122,-5.417351,6.482157,-36.75,-32.619999,3.43,1729477129470.0,0.0
-1.275374,-7.750352,3.799802,-114.099998,-53.619999,16.66,1729477129488.0,0.0
-0.911665,-8.719445,1.131805,-104.370003,-63.700001,30.380001,1729477129506.0,0.0
-1.239482,-8.4012,-0.607777,-54.18,-57.470001,34.790001,1729477129529.0,0.0
-2.122434,-10.863414,-1.887937,1.33,-49.349998,41.299999,1729477129548.0,0.0
-5.24746,-13.85205,-0.074178,-4.55,-51.73,38.920002,1729477129570.0,0.0
-6.711867,-14.074582,-3.117848,-78.190002,-37.799999,24.219999,1729477129588.0,0.0
-5.067998,-15.287744,-4.465007,-94.010002,12.88,-12.32,1729477129609.0,0.0
-3.795017,-14.007583,-2.603391,8.26,39.060001,-37.59,1729477129629.0,0.0
-4.520042,-9.863215,1.112662,106.82,71.470001,-39.34,1729477129647.0,0.0
-3.428915,-3.505485,2.117648,79.449997,69.230003,-46.27,1729477129670.0,0.0
-0.358923,-5.479564,6.872187,100.169998,31.01,-21.84,1729477129690.0,0.0
1.198804,-4.407579,7.034898,52.920002,7.14,-22.540001,1729477129707.0,0.0
-0.26321,-4.046263,5.979663,2.17,-19.530001,10.85,1729477129726.0,0.0
-1.182054,-6.046663,1.371087,-43.75,-25.690001,21.139999,1729477129747.0,0.0
-2.517249,-9.571291,-2.335395,-66.639999,-25.76,35.420002,1729477129770.0,0.0
-2.462214,-7.881958,-4.352544,-55.23,-33.810001,39.830002,1729477129787.0,0.0
-1.459622,-8.169096,-3.584448,15.54,-25.690001,64.959999,1729477129808.0,0.0
-5.534599,-15.23271,2.615355,35.490002,-17.43,47.18,1729477129831.0,0.0
-7.898707,-15.534204,0.210568,-27.65,-27.440001,18.76,1729477129848.0,0.0
-5.173282,-13.653446,-2.074577,-46.41,6.86,3.5,1729477129870.0,0.0
-2.694318,-13.81855,-1.024128,-16.870001,13.09,-24.219999,1729477129887.0,0.0
-3.194418,-11.846866,2.199004,32.27,38.779999,-34.369999,1729477129907.0,0.0
-2.742175,-5.185246,3.400201,16.24,57.75,-53.41,1729477129929.0,0.0
0.768096,-7.140182,5.216353,32.619999,20.16,-40.110001,1729477129947.0,0.0
1.514657,-3.402594,5.568098,37.029999,13.23,-13.09,1729477129967.0,0.0
0.256032,-4.414758,5.331209,20.09,-7.0,15.96,1729477129987.0,0.0
-2.79721,-8.465806,3.309274,-61.459999,-20.51,17.360001,1729477130007.0,0.0
-3.476771,-11.069198,1.088734,-81.410004,-36.330002,17.639999,1729477130026.0,0.0
-1.677369,-8.398808,-1.569692,-35.279999,-26.110001,29.4,1729477130061.0,0.0
-0.945165,-9.042477,-1.160519,36.68,-18.9,41.369999,1729477130091.0,0.0
-3.127419,-10.590633,0.172283,49.209999,-17.08,41.790001,1729477130095.0,0.0
-6.812366,-15.031711,1.629512,20.23,-28.210001,40.459999,1729477130106.0,0.0
-7.367501,-15.25903,-2.266003,-80.709999,-22.190001,-0.35,1729477130127.0,0.0
-4.539185,-13.014563,-4.017549,-107.099998,16.870001,-21.42,1729477130251.0,0.0
-3.156133,-12.878171,-2.713461,-25.059999,40.040001,-40.950001,1729477130251.0,0.0
-4.017549,-10.064213,0.370888,40.740002,61.740002,-53.060001,1729477130251.0,0.0
-3.0006,-6.405586,1.184447,41.299999,60.689999,-48.580002,1729477130252.0,0.0
-0.545564,-7.341179,6.479764,56.0,35.420002,-38.150002,1729477130252.0,0.0
0.662812,-1.986043,6.034698,40.599998,6.02,-28.280001,1729477130256.0,0.0
-1.777867,-4.249653,4.811966,-14.49,-22.889999,18.34,1729477130266.0,0.0
-3.299703,-8.879765,0.782453,-94.779999,-38.43,21.42,1729477130286.0,0.0
-2.991028,-10.430314,-1.899901,-89.18,-39.619999,25.34,1729477130309.0,0.0
-1.708475,-9.162118,-3.448057,-12.11,-24.219999,40.740002,1729477130328.0,0.0
-2.287539,-8.915657,-2.859423,57.330002,-6.02,54.529999,1729477130347.0,0.0
-6.345766,-13.689339,-0.011964,62.93,5.95,55.439999,1729477130369.0,0.0
-8.870193,-15.787844,-0.043071,5.6,4.48,16.52,1729477130388.0,0.0
-5.481956,-13.619946,-3.132205,-73.5,23.59,-13.93,1729477130407.0,0.0
-2.524428,-14.007583,-2.959922,-36.470001,37.380001,-41.299999,1729477130428.0,0.0
-2.749353,-12.679568,0.040678,53.900002,61.040001,-50.959999,1729477130449.0,0.0
-3.213561,-7.542177,0.784846,85.82,77.980003,-59.57,1729477130468.0,0.0
-1.179662,-5.606383,6.975078,96.040001,44.380001,-43.610001,1729477130487.0,0.0
1.31366,-2.713461,7.02772,84.209999,13.37,-39.41,1729477130505.0,0.0
-0.198604,-3.019742,7.702496,41.580002,-7.56,-0.42,1729477130527.0,0.0
-2.313859,-5.907879,5.144568,-50.68,-40.670002,4.41,1729477130546.0,0.0
-2.938386,-9.944571,1.667797,-102.340004,-54.950001,14.56,1729477130570.0,0.0
-0.837488,-8.535198,-3.007778,-79.239998,-60.619999,12.32,1729477130588.0,0.0
-1.033699,-8.398808,-3.63709,48.23,-37.029999,44.450001,1729477130618.0,0.0
-4.689932,-12.095718,-1.335195,70.840004,-10.85,50.470001,1729477130627.0,0.0
-7.975278,-16.601404,1.153341,61.950001,-7.28,36.259998,1729477130705.0,0.0
-3.996014,-11.739187,-1.213161,-38.57,8.4,-8.82,1729477130770.0,0.0
-3.878766,-13.478769,-0.464208,-66.010002,18.34,-26.74,1729477130771.0,0.0
-4.646862,-9.77468,1.17009,-27.440001,42.84,-44.310001,1729477130771.0,0.0
-2.309074,-3.462414,-0.143569,1.82,65.730003,-60.41,1729477130771.0,0.0
1.866402,-5.69731,6.853044,12.46,60.130001,-40.810001,1729477130772.0,0.0
1.974079,-2.471786,7.429714,107.309998,23.940001,-27.93,1729477130787.0,0.0
-1.995614,-5.702096,7.317252,81.550003,20.58,-5.53,1729477130805.0,0.0
-3.601198,-8.336594,2.467,-101.989998,-46.130001,11.83,1729477130827.0,0.0
-1.459622,-8.819944,-0.471386,-110.18,-63.77,22.190001,1729477130847.0,0.0
-0.064606,-8.377272,-1.531406,-48.02,-53.48,34.790001,1729477130867.0,0.0
-2.139183,-9.226725,-2.469393,-11.55,-41.23,44.52,1729477130886.0,0.0
-5.867201,-13.722836,-1.464408,-16.940001,-28.42,43.889999,1729477130906.0,0.0
-7.111469,-15.261423,-4.881358,-36.68,-17.710001,19.25,1729477130926.0,0.0
-4.053442,-14.821144,-2.151148,-27.719999,23.309999,-26.809999,1729477130947.0,0.0
-4.323831,-12.361321,0.622134,38.849998,61.880001,-49.279999,1729477130967.0,0.0
-4.034299,-8.848659,1.677369,69.580002,73.57,-58.099998,1729477130986.0,0.0
-1.473979,-3.672983,2.258825,43.400002,54.529999,-43.82,1729477131006.0,0.0
1.696511,-4.699504,7.264609,88.340004,20.58,-31.92,1729477131026.0,0.0
0.988236,-2.536392,6.977471,55.16,3.92,-3.36,1729477131047.0,0.0
-0.921237,-5.182854,4.814359,0.28,-25.83,15.12,1729477131067.0,0.0
-2.598605,-9.348758,1.289732,-70.139999,-41.09,25.690001,1729477131087.0,0.0
-2.050649,-8.372486,-1.866402,-75.18,-51.099998,29.049999,1729477131106.0,0.0
-0.957129,-8.595018,-3.036492,-20.860001,-44.799999,45.779999,1729477131126.0,0.0
-3.661019,-11.473583,-2.806781,4.41,-32.759998,48.09,1729477131154.0,0.0
-7.109076,-14.567505,-0.591027,26.18,-23.870001,33.389999,1729477131168.0,0.0
-7.235896,-14.330614,-0.78006,4.06,-1.68,14.91,1729477131187.0,0.0
-5.503492,-13.062418,-1.651048,-39.900002,18.41,-19.110001,1729477131208.0,0.0
-4.45065,-13.217952,-0.552742,6.44,32.41,-40.950001,1729477131228.0,0.0
-3.704089,-9.803394,2.414358,76.650002,49.279999,-51.380001,1729477131247.0,0.0
-2.572284,-6.343372,3.278167,29.68,44.099998,-51.869999,1729477131267.0,0.0
-0.055035,-3.428915,3.254239,-13.79,28.630001,-39.130001,1729477131287.0,0.0
2.531606,-4.457829,6.130411,42.84,-7.0,-24.08,1729477131308.0,0.0
0.760918,-3.759124,6.396015,36.330002,-10.01,7.84,1729477131328.0,0.0
-1.715654,-6.345766,3.694518,-37.59,-29.4,20.299999,1729477131347.0,0.0
-3.0006,-11.641083,0.892523,-103.949997,-47.32,21.84,1729477131374.0,0.0
-2.215754,-10.703095,-2.847459,-96.040001,-55.369999,20.58,1729477131393.0,0.0
-0.646062,-9.257831,-3.948158,-12.25,-43.259998,33.880001,1729477131452.0,0.0
-3.067599,-11.47119,-3.495914,30.59,-25.76,42.420002,1729477131453.0,0.0
-7.133004,-15.907485,-1.081556,10.92,-13.440001,22.82,1729477131455.0,0.0
-6.762117,-14.517255,-2.321038,-37.380001,10.15,-7.49,1729477131466.0,0.0
-4.228118,-14.390435,-1.569692,7.28,34.369999,-41.02,1729477131486.0,0.0
-4.216154,-11.485549,0.863809,82.459999,62.299999,-54.389999,1729477131506.0,0.0
-3.783052,-7.877172,2.615355,94.919998,66.639999,-64.889999,1729477131528.0,0.0
-0.751346,-4.639683,5.828916,48.09,55.16,-54.25,1729477131549.0,0.0
1.51705,-2.364109,6.118448,24.92,18.48,-34.439999,1729477131569.0,0.0
0.078963,-4.974678,6.69751,22.4,3.43,2.45,1729477131588.0,0.0
-2.318645,-7.140182,4.776074,-22.469999,-25.969999,8.89,1729477131608.0,0.0
-2.024328,-8.901299,2.639283,-40.25,-46.830002,23.799999,1729477131630.0,0.0
-1.083949,-7.647461,0.713061,-46.200001,-46.34,31.43,1729477131649.0,0.0
-1.351945,-9.437292,-1.859223,-37.380001,-45.5,39.759998,1729477131669.0,0.0
-2.677568,-11.954542,-3.627519,-15.26,-47.670002,41.860001,1729477131691.0,0.0
-5.60399,-16.840685,-2.440679,25.27,-33.110001,40.950001,1729477131710.0,0.0
-6.477371,-19.173687,-1.531406,39.41,-4.69,-6.72,1729477131728.0,0.0
-4.733003,-13.497912,-0.679562,16.030001,46.200001,-40.389999,1729477131749.0,0.0
-3.572484,-10.693524,0.976272,16.379999,68.739998,-58.939999,1729477131769.0,0.0
-2.667997,-9.109475,1.655833,1.47,64.75,-74.129997,1729477131788.0,0.0
-1.100698,-5.723632,0.87338,-3.5,58.73,-55.510002,1729477131809.0,0.0
2.014757,-3.23031,8.482556,80.709999,23.870001,-37.66,1729477131829.0,0.0
-0.461815,-3.692125,9.707682,108.989998,13.93,-4.27,1729477131848.0,0.0
-3.318845,-6.477371,6.096912,-36.189999,-35.700001,13.09,1729477131875.0,0.0
-1.777867,-8.458629,0.914058,-126.559998,-65.800003,20.02,1729477131889.0,0.0
0.258425,-9.224331,-3.900301,-112.349998,-64.82,30.380001,1729477131909.0,0.0
-0.342174,-11.485549,-5.704489,-20.16,-43.400002,35.139999,1729477131928.0,0.0
-3.802195,-13.919049,-2.672783,52.43,-9.73,36.119999,1729477131948.0,0.0
-6.833901,-17.11586,0.918844,65.309998,7.42,15.54,1729477131970.0,0.0
-6.003592,-12.914064,1.143769,-2.1,27.51,-25.41,1729477131989.0,0.0
-3.464807,-10.741381,0.007178,-27.370001,35.490002,-43.119999,1729477132009.0,0.0
-2.907279,-10.238889,0.552742,-10.78,43.259998,-56.279999,1729477132030.0,0.0
-2.648855,-6.52762,1.138984,-1.68,51.450001,-48.369999,1729477132049.0,0.0
-0.440279,-8.056634,6.690332,65.169998,33.18,-34.02,1729477132072.0,0.0
0.447458,-3.52702,7.235896,57.75,17.08,-33.950001,1729477132089.0,0.0
-0.236889,-2.955136,6.223732,37.869999,-5.04,5.46,1729477132110.0,0.0
-1.26341,-5.919843,4.364508,-41.299999,-38.920002,15.54,1729477132128.0,0.0
-1.794617,-9.547362,1.715654,-93.379997,-51.099998,23.450001,1729477132149.0,0.0
-0.681954,-8.755339,-1.043271,-71.540001,-56.490002,31.639999,1729477132172.0,0.0
-0.411566,-8.185846,-3.87398,0.07,-43.889999,50.68,1729477132190.0,0.0
-4.003192,-14.124832,-2.366502,32.970001,-11.48,62.860001,1729477132209.0,0.0
-8.865408,-19.944178,1.433301,6.86,-13.65,13.37,1729477132228.0,0.0
-5.163712,-13.763516,0.102891,-34.720001,23.450001,1.19,1729477132248.0,0.0
-2.660819,-11.373087,0.787239,-3.92,40.040001,-41.299999,1729477132271.0,0.0
-3.376273,-10.447062,2.311467,8.61,51.029999,-45.220001,1729477132289.0,0.0
-2.565106,-6.151947,2.888137,-17.08,52.920002,-49.07,1729477132309.0,0.0
-0.074178,-7.853244,6.575477,18.129999,23.59,-25.690001,1729477132328.0,0.0
1.251446,-4.850252,6.376873,8.05,2.8,-30.73,1729477132350.0,0.0
1.249053,-2.730211,4.515256,-1.33,-19.110001,7.14,1729477132369.0,0.0
-0.442672,-7.161718,3.141776,-42.700001,-34.580002,23.940001,1729477132388.0,0.0
-2.835495,-11.263017,1.277767,-94.080002,-45.990002,18.48,1729477132410.0,0.0
-0.899701,-9.169296,-1.85683,-59.990002,-58.099998,25.620001,1729477132428.0,0.0
0.42353,-7.307681,-3.59402,4.13,-46.689999,42.279999,1729477132450.0,0.0
-1.995614,-12.643675,-3.818945,11.62,-30.030001,46.48,1729477132468.0,0.0
-6.575477,-18.419949,-3.409772,4.55,-15.4,22.82,1729477132489.0,0.0
-5.245068,-14.110476,-3.438486,0.56,0.28,6.44,1729477132507.0,0.0
-3.68734,-12.23211,0.447458,26.809999,33.040001,-40.599998,1729477132529.0,0.0
-4.024727,-11.4018,2.742175,61.810001,49.91,-54.18,1729477132549.0,0.0
-3.194418,-6.513263,3.251846,47.18,46.900002,-53.619999,1729477132571.0,0.0
-0.533599,-8.238488,6.537192,83.440002,18.41,-62.790001,1729477132590.0,0.0
0.090927,-1.895115,6.226124,28.49,11.55,-46.200001,1729477132607.0,0.0
1.641476,-1.581656,6.908078,44.380001,-5.32,-8.96,1729477132629.0,0.0
-0.567099,-4.831109,5.529813,-43.049999,-35.279999,4.27,1729477132650.0,0.0
-2.813959,-8.243275,3.364309,-119.139999,-48.93,14.35,1729477132669.0,0.0
-0.736989,-7.685746,-1.665405,-108.989998,-58.240002,34.860001,1729477132691.0,0.0
-0.299103,-8.176274,-3.783052,-50.889999,-44.310001,46.830002,1729477132711.0,0.0
-2.158326,-9.131011,-4.979464,-12.67,-20.02,60.200001,1729477132728.0,0.0
-5.647062,-16.225731,-1.981257,10.01,-0.77,51.310001,1729477132749.0,0.0
-6.580262,-16.752151,-1.165305,-25.34,0.28,13.58,1729477132770.0,0.0
-4.283153,-12.27518,-0.31346,-43.82,31.85,1.82,1729477132789.0,0.0
-2.974278,-11.028521,2.459821,-30.1,30.030001,-13.37,1729477132807.0,0.0
-3.23031,-9.454042,3.462414,-38.57,24.85,-31.780001,1729477132828.0,0.0
-2.419144,-6.647261,0.564706,-64.120003,7.84,-39.48,1729477132848.0,0.0
-1.354338,-8.327023,0.607777,-124.599998,-12.6,-36.119999,1729477132868.0,0.0
-1.70369,-8.817552,0.102891,-181.789993,-20.51,-31.43,1729477132888.0,0.0
-1.452443,-8.800802,-0.303888,-154.070007,-24.780001,-27.16,1729477132908.0,0.0
-1.17009,-9.470792,-1.540978,-104.790001,-25.969999,-17.780001,1729477132929.0,0.0
-1.081556,-8.008778,-1.29691,-64.82,-31.15,-12.18,1729477132950.0,0.0
-1.067199,-8.370094,-1.239482,-28.07,-34.439999,4.97,1729477132970.0,0.0
-1.246661,-9.054441,-1.674976,-23.24,-43.189999,9.59,1729477132988.0,0.0
-1.663012,-9.401401,-1.445265,-17.290001,-41.509998,18.059999,1729477133010.0,0.0
-1.787439,-9.408579,-3.110669,-21.700001,-30.66,17.710001,1729477133028.0,0.0
-1.648655,-9.12144,-4.053442,-47.040001,-19.18,17.92,1729477133048.0,0.0
-1.150948,-8.745767,-3.957729,-80.080002,-12.18,19.040001,1729477133069.0,0.0
-1.148555,-9.205189,-3.948158,-91.629997,-4.69,22.120001,1729477133089.0,0.0
-1.215554,-9.690931,-3.871587,-83.300003,-1.12,21.84,1729477133108.0,0.0
-1.191626,-9.963714,-4.010371,-67.970001,-3.22,17.43,1729477133129.0,0.0
-1.292124,-10.018748,-4.211368,-40.18,-8.4,14.84,1729477133149.0,0.0
-1.447658,-9.710074,-4.811966,-12.95,-11.48,11.55,1729477133168.0,0.0
-2.85703,-10.650455,-5.742774,-2.31,-8.33,9.52,1729477133190.0,0.0
-3.974478,-10.363315,-5.489135,-1.33,11.76,6.51,1729477133209.0,0.0
-3.940979,-9.573684,-5.501099,27.16,35.84,8.47,1729477133227.0,0.0
-3.948158,-7.970492,-1.938186,23.59,52.080002,11.41,1729477133249.0,0.0
-4.17069,-6.472585,3.053242,-57.049999,51.869999,11.06,1729477133268.0,0.0
-3.18724,-6.541977,-2.086541,-182.699997,24.639999,7.63,1729477133289.0,0.0
-2.06022,-8.365308,-3.665804,-219.800003,12.25,12.39,1729477133309.0,0.0
-0.380459,-15.646667,-2.62732,-36.68,-30.940001,33.18,1729477133327.0,0.0
0.141177,-12.387643,-2.778067,150.009995,-9.59,13.02,1729477133357.0,0.0
-2.127219,-6.948757,0.112463,138.669998,21.280001,4.34,1729477133368.0,0.0
-3.084348,-4.319045,-2.629712,17.43,-18.549999,-2.52,1729477133389.0,0.0
-3.299703,-6.711867,-4.68754,-129.009995,-54.18,-4.69,1729477133408.0,0.0
-1.713261,-8.652447,-9.339187,-192.570007,-87.849998,-14.07,1729477133429.0,0.0
-5.709275,-13.112667,-3.385844,-141.399994,-70.699997,-16.940001,1729477133448.0,0.0
-6.745367,-5.12782,-13.337594,-105.349998,-4.34,-29.120001,1729477133470.0,0.0
-4.790431,-7.226324,-13.280167,5.6,-12.95,11.83,1729477133489.0,0.0
-1.878366,-8.793623,-5.910272,51.450001,33.880001,18.48,1729477133507.0,0.0
-3.842873,-7.192825,-2.419144,126.770004,62.650002,29.960001,1729477133527.0,0.0
-4.201797,-4.957928,-2.471786,79.870003,71.82,13.51,1729477133548.0,0.0
-1.550549,-6.719046,1.799403,3.92,30.030001,21.35,1729477133568.0,0.0
-0.87338,-9.262616,-2.084148,-24.99,-3.29,17.360001,1729477133588.0,0.0
-0.602991,-9.4349,-2.132005,-12.81,-1.61,5.95,1729477133608.0,0.0
-1.497907,-9.729217,-3.012564,-5.39,-31.92,2.03,1729477133627.0,0.0
-3.919443,-9.365508,-4.737789,-24.43,-27.65,-18.34,1729477133647.0,0.0
-3.735196,-8.382057,-7.140182,-24.92,-46.060001,-19.460001,1729477133668.0,0.0
-1.789831,-5.52742,-10.872985,-57.959999,-66.709999,-17.08,1729477133691.0,0.0
-3.546163,-11.038091,-11.937792,-88.129997,-25.48,-6.02,1729477133707.0,0.0
-8.26481,-9.166903,-7.446464,-102.480003,60.41,-21.42,1729477133727.0,0.0
-6.262017,-8.563912,-6.218946,69.650002,57.400002,9.03,1729477133749.0,0.0
-0.825524,-8.080563,-4.632504,113.889999,23.030001,11.62,1729477133770.0,0.0
-0.165105,-6.54437,-1.124627,63.630001,54.950001,11.2,1729477133788.0,0.0
-1.9669,-8.831908,-0.847059,25.620001,49.139999,7.07,1729477133808.0,0.0
-2.931208,-8.748159,-1.749153,10.36,33.18,-5.32,1729477133827.0,0.0
-0.057428,-7.032506,-3.814159,10.36,-3.08,-6.16,1729477133849.0,0.0
-1.330409,-9.454042,-4.883751,-9.31,-27.16,-11.62,1729477133869.0,0.0
-3.905087,-9.731609,-4.498507,0.56,-10.99,-26.809999,1729477133888.0,0.0
-3.34038,-7.874779,-5.276174,34.09,-34.93,-27.23,1729477133907.0,0.0
-1.447658,-5.709275,-6.948757,18.9,-57.400002,-22.120001,1729477133927.0,0.0
-1.804188,-6.348158,-7.532606,-44.52,-49.700001,-11.76,1729477133948.0,0.0
-5.63749,-11.700903,-7.183254,-93.800003,-7.84,-16.59,1729477133968.0,0.0
-6.941578,-10.928021,-9.590433,-57.540001,36.119999,-23.73,1729477133987.0,0.0
-3.486342,-8.702696,-5.958128,38.080002,31.780001,-4.13,1729477134007.0,0.0
-1.404587,-7.896315,-2.529213,88.620003,39.34,2.8,1729477134028.0,0.0
-3.550949,-8.317451,-2.395216,56.349998,65.660004,1.26,1729477134049.0,0.0
-4.141976,-7.683353,-1.895115,10.15,58.799999,-7.84,1729477134070.0,0.0
-1.036092,-7.925028,-3.165704,8.05,20.440001,0.7,1729477134088.0,0.0
1.572084,-7.171289,-2.553142,24.43,-2.31,5.04,1729477134107.0,0.0
0.677169,-8.453842,-1.732404,46.200001,-1.33,12.53,1729477134128.0,0.0
-2.182254,-8.504091,-1.105484,27.790001,-8.05,0.77,1729477134147.0,0.0
-2.945565,-8.16431,-2.955136,-9.1,-37.52,-0.28,1729477134168.0,0.0
-1.938186,-7.805387,-6.348158,-69.790001,-70.559998,-1.05,1729477134188.0,0.0
-3.306881,-10.217353,-9.334401,-142.869995,-48.580002,-5.32,1729477134207.0,0.0
-5.228317,-12.296716,-12.768101,-80.989998,7.0,-4.2,1729477134228.0,0.0
-4.228118,-8.303094,-10.313066,46.060001,56.0,14.21,1729477134247.0,0.0
-0.847059,-6.556334,-5.936593,123.340004,65.029999,36.189999,1729477134268.0,0.0
-0.078963,-8.666803,-5.020142,101.360001,87.989998,35.77,1729477134287.0,0.0
-3.050849,-10.693524,-3.23031,50.540001,118.510002,27.790001,1729477134309.0,0.0
-3.050849,-9.377472,-2.584249,23.1,102.970001,13.16,1729477134329.0,0.0
-0.401994,-6.520442,-0.380459,1.12,52.150002,5.25,1729477134349.0,0.0
0.957129,-7.223931,0.591027,12.18,17.57,7.14,1729477134370.0,0.0
-1.521835,-8.712267,-0.803988,30.870001,-2.1,-6.09,1729477134387.0,0.0
-4.185047,-7.915457,-2.065006,33.040001,-6.23,-16.030001,1729477134407.0,0.0
-3.826123,-7.190433,-4.496114,11.97,-45.5,-17.57,1729477134428.0,0.0
-3.029313,-6.084948,-6.580262,-47.950001,-63.630001,-16.309999,1729477134449.0,0.0
-2.615355,-7.290931,-8.970692,-72.519997,-54.110001,-7.42,1729477134468.0,0.0
-4.185047,-10.669596,-9.442079,-66.290001,-25.969999,0.14,1729477134487.0,0.0
-6.458229,-12.023933,-7.79103,-16.1,22.049999,-8.54,1729477134507.0,0.0
-3.225525,-6.680761,-4.34058,36.049999,43.889999,-4.55,1729477134529.0,0.0
-0.942772,-7.109076,-5.187639,35.279999,26.110001,2.94,1729477134548.0,0.0
-2.54357,-8.738588,-3.960121,4.06,59.849998,6.44,1729477134569.0,0.0
-2.500499,-8.987441,-1.684547,1.96,62.93,5.32,1729477134587.0,0.0
-0.31346,-7.118648,-1.282553,-12.46,23.73,8.75,1729477134608.0,0.0
0.526421,-8.516055,1.07677,-24.08,-7.14,14.84,1729477134627.0,0.0
-2.091327,-10.899307,-2.005185,-44.240002,-30.52,-2.87,1729477134649.0,0.0
-4.680361,-11.722438,-2.818745,-38.080002,-36.82,-23.52,1729477134668.0,0.0
-2.924029,-8.848659,-5.781059,-13.79,-73.010002,-33.18,1729477134690.0,0.0
-1.31366,-4.673182,-6.908078,-23.940001,-84.349998,-30.52,1729477134706.0,0.0
-1.840081,-4.141976,-8.283953,-45.779999,-56.490002,-13.3,1729477134726.0,0.0
-3.18724,-6.652047,-9.466006,-85.190002,-29.33,2.59,1729477134748.0,0.0
-5.161318,-10.772489,-10.415956,-94.919998,12.81,4.48,1729477134767.0,0.0
-4.761717,-10.502099,-7.219146,-47.529999,45.57,5.67,1729477134788.0,0.0
-2.330609,-8.499306,-6.458229,48.509998,32.41,10.92,1729477134808.0,0.0
-1.741975,-6.226124,-6.101698,67.269997,53.830002,12.18,1729477134829.0,0.0
-0.794417,-6.233303,1.660619,34.299999,61.25,17.99,1729477134848.0,0.0
0.138784,-9.272188,1.90708,9.31,22.540001,23.73,1729477134868.0,0.0
-1.617548,-10.171888,-1.584049,7.28,-43.189999,-5.32,1729477134888.0,0.0
-3.787838,-8.73141,-3.720839,13.440001,-46.689999,-24.360001,1729477134908.0,0.0
-2.354537,-7.396214,-5.690133,34.509998,-83.160004,-20.370001,1729477134928.0,0.0
-0.885344,-6.106483,-6.350551,10.71,-96.599998,-17.5,1729477134946.0,0.0
-2.785245,-7.642675,-10.327423,-64.889999,-81.199997,-17.5,1729477134969.0,0.0
-7.025328,-8.023134,-8.116454,-148.050003,-20.51,-23.450001,1729477134987.0,0.0
-6.843473,-9.066404,-12.447463,-78.470001,4.2,-5.6,1729477135006.0,0.0
-2.59382,-9.946963,-8.214561,20.299999,4.2,12.04,1729477135027.0,0.0
-1.083949,-8.135597,-5.776274,88.410004,34.16,18.34,1729477135047.0,0.0
-2.455036,-6.623333,-5.20439,61.880001,63.98,14.0,1729477135069.0,0.0
-2.014757,-5.929415,-3.65384,-2.45,58.099998,13.72,1729477135088.0,0.0
-0.569492,-8.377272,-2.65364,-25.620001,27.719999,17.219999,1729477135108.0,0.0
0.658026,-9.159724,-2.117648,1.4,4.06,8.26,1729477135128.0,0.0
-1.055235,-8.985049,-2.684747,17.85,-9.03,-4.27,1729477135147.0,0.0
-3.335595,-7.99442,-4.697111,-7.42,-14.84,-27.51,1729477135170.0,0.0
-2.667997,-7.865208,-5.613562,-27.65,-45.639999,-30.309999,1729477135189.0,0.0
-0.605384,-6.728617,-5.783452,-44.450001,-69.790001,-30.870001,1729477135208.0,0.0
-2.955136,-8.140383,-10.820344,-58.450001,-51.380001,-25.129999,1729477135227.0,0.0
-7.537392,-8.25763,-9.444471,-85.120003,7.07,-22.82,1729477135248.0,0.0
-6.051448,-8.566305,-10.753345,-25.27,22.469999,-5.11,1729477135269.0,0.0
-1.086342,-9.257831,-7.336394,37.380001,8.82,12.81,1729477135289.0,0.0
-1.150948,-8.260024,-6.271588,84.910004,56.209999,15.82,1729477135308.0,0.0
-3.790231,-7.166504,-4.945964,66.43,98.279999,13.09,1729477135326.0,0.0
-2.739782,-6.647261,0.011964,17.219999,68.459999,15.12,1729477135347.0,0.0
-0.133998,-8.008778,-0.605384,1.4,12.25,10.71,1729477135368.0,0.0
0.665205,-8.35813,-0.87338,2.03,-11.76,-1.47,1729477135387.0,0.0
-2.237289,-9.4349,-4.335794,7.91,-21.210001,-16.66,1729477135406.0,0.0
-4.632504,-8.102098,-4.804788,4.76,-17.5,-32.48,1729477135426.0,0.0
-2.684747,-7.642675,-6.082555,19.530001,-59.010002,-26.880001,1729477135448.0,0.0
0.009571,-6.063413,-6.826723,0.77,-85.190002,-27.58,1729477135469.0,0.0
-1.380659,-7.786245,-9.322437,-43.049999,-65.449997,-17.5,1729477135487.0,0.0
-6.319445,-9.745967,-6.254838,-132.369995,-16.799999,-30.380001,1729477135505.0,0.0
-8.638089,-8.056634,-10.576276,-92.050003,28.35,-20.860001,1729477135526.0,0.0
-0.4666,-7.929814,-7.77428,70.699997,-0.84,17.290001,1729477135548.0,0.0
-0.433101,-7.56132,-5.091926,96.389999,53.760002,21.84,1729477135567.0,0.0
-2.811567,-6.738188,-2.756532,35.84,89.739998,16.59,1729477135587.0,0.0
-1.935793,-7.60439,1.158126,1.26,48.650002,19.809999,1729477135607.0,0.0
0.547956,-8.145168,-0.433101,4.62,-14.21,11.83,1729477135628.0,0.0
-0.057428,-9.023334,-3.538985,8.4,-35.209999,-1.4,1729477135708.0,0.0
-3.189633,-9.272188,-5.412565,4.48,-27.51,-25.059999,1729477135718.0,0.0
-3.37388,-8.595018,-6.149554,7.35,-41.580002,-25.41,1729477135726.0,0.0
-0.196211,-5.355137,-7.389036,5.39,-88.059998,-28.280001,1729477135727.0,0.0
0.007178,-3.744767,-9.279366,-12.81,-74.690002,-8.89,1729477135728.0,0.0
-5.766702,-9.425328,-6.34098,-46.130001,-19.74,1.75,1729477135746.0,0.0
-9.480364,-9.219545,-13.119846,-84.209999,46.970001,-8.75,1729477135767.0,0.0
-4.106083,-8.657232,-9.128618,-47.810001,4.2,7.07,1729477135786.0,0.0
-0.150748,-8.626125,-7.140182,39.970001,24.15,15.82,1729477135806.0,0.0
-2.423929,-7.597212,-4.34058,70.840004,99.470001,20.09,1729477135826.0,0.0
-2.651247,-7.862815,1.356731,51.310001,80.43,22.120001,1729477135846.0,0.0
0.337388,-7.762317,1.287339,25.41,29.4,13.09,1729477135867.0,0.0
0.552742,-7.956135,-0.650848,-2.17,-17.85,1.96,1729477135887.0,0.0
-2.167897,-9.449257,-5.149354,-10.43,-31.360001,-8.33,1729477135907.0,0.0
-3.421736,-9.24826,-5.481956,-3.15,-29.82,-19.040001,1729477135926.0,0.0
-1.301696,-8.46102,-7.295716,26.25,-63.490002,-17.780001,1729477135947.0,0.0
0.179462,-6.309873,-9.054441,25.690001,-66.709999,-15.82,1729477135967.0,0.0
-2.397608,-6.853044,-11.20798,-30.030001,-38.639999,-5.67,1729477135987.0,0.0
-7.235896,-8.690732,-8.317451,-93.800003,24.290001,-13.93,1729477136006.0,0.0
-7.257431,-9.695717,-9.822537,-28.630001,47.459999,2.03,1729477136026.0,0.0
-2.036292,-9.205189,-6.204589,56.349998,15.96,14.21,1729477136046.0,0.0
-0.701097,-7.745567,-4.67079,100.730003,47.950001,15.33,1729477136068.0,0.0
-2.462214,-7.408179,0.514457,53.760002,83.580002,13.58,1729477136086.0,0.0
-2.85703,-8.465806,-1.363909,11.06,41.860001,3.29,1729477136106.0,0.0
-0.722632,-7.788638,-0.050249,-6.86,1.68,-2.38,1729477136127.0,0.0
-0.002393,-7.786245,-2.155933,3.43,-38.220001,-7.07,1729477136146.0,0.0
-2.459821,-9.064013,-5.972485,-9.03,-35.84,-20.65,1729477136168.0,0.0
-3.481557,-8.882158,-6.661618,-14.35,-33.040001,-28.49,1729477136188.0,0.0
-0.083749,-5.185246,-7.89153,10.08,-73.43,-27.16,1729477136205.0,0.0
-1.414158,-5.4341,-8.056634,-20.65,-53.34,-12.95,1729477136227.0,0.0
-6.711867,-8.776874,-6.388836,-87.639999,-5.74,-11.97,1729477136247.0,0.0
-8.580662,-8.767302,-10.25803,-72.730003,30.59,-6.72,1729477136267.0,0.0
-2.632105,-9.083155,-7.331609,-16.59,-6.93,17.57,1729477136286.0,0.0
-0.172283,-7.879565,-6.18784,-10.92,23.52,10.64,1729477136309.0,0.0
-3.304488,-7.410572,-3.550949,-26.74,87.989998,17.08,1729477136327.0,0.0
-2.938386,-9.810574,-1.89033,-28.49,47.25,11.48,1729477136348.0,0.0
0.631705,-8.834301,-0.923629,-21.84,0.63,-1.89,1729477136367.0,0.0
1.926222,-8.288737,-0.959522,-5.25,-26.530001,-12.04,1729477136388.0,0.0
-0.636491,-8.015956,-4.515256,-7.63,-39.34,-27.02,1729477136407.0,0.0
-2.40718,-7.9346,-5.723632,-21.700001,-35.560001,-31.219999,1729477136426.0,0.0
-1.105484,-7.972885,-6.9679,-24.99,-71.610001,-30.450001,1729477136448.0,0.0
-1.208375,-6.695118,-7.948956,-33.389999,-61.389999,-23.24,1729477136466.0,0.0
-3.790231,-7.709675,-9.698111,-67.550003,-44.240002,-16.52,1729477136487.0,0.0
-8.133204,-5.860023,-10.068997,-84.980003,22.33,-9.1,1729477136506.0,0.0
-6.979864,-6.565905,-9.84168,6.37,41.02,25.76,1729477136527.0,0.0
-0.658026,-7.965706,-8.901299,78.540001,21.139999,43.610001,1729477136546.0,0.0
-2.605784,-6.975078,-6.12084,52.5,86.590004,40.110001,1729477136567.0,0.0
-3.505485,-6.788438,-1.988436,19.110001,85.82,38.849998,1729477136588.0,0.0
-1.196411,-8.867801,-0.748954,-1.47,29.26,30.73,1729477136607.0,0.0
1.215554,-8.271988,-0.62692,-20.09,-10.22,8.82,1729477136627.0,0.0
-0.026321,-9.24108,-4.381258,-27.65,-37.450001,-10.85,1729477136646.0,0.0
-2.804388,-9.379865,-6.508478,-22.120001,-31.92,-36.259998,1729477136669.0,0.0
-2.603391,-7.779066,-8.391629,6.93,-45.920002,-38.990002,1729477136689.0,0.0
-1.067199,-4.677969,-9.131011,-1.26,-71.889999,-33.740002,1729477136705.0,0.0
-2.813959,-8.23131,-12.074183,-37.099998,-29.75,-17.639999,1729477136727.0,0.0
-7.4345,-7.439285,-5.091926,-83.720001,36.540001,-20.65,1729477136746.0,0.0
-7.501499,-6.032306,-8.843873,-9.66,57.119999,8.12,1729477136768.0,0.0
-1.469193,-7.496714,-7.556533,16.17,-10.01,29.68,1729477136788.0,0.0
0.019143,-8.078169,-7.628319,25.200001,25.76,26.040001,1729477136806.0,0.0
-2.29711,-7.066005,-4.522435,26.110001,81.620003,27.719999,1729477136825.0,0.0
-2.507678,-6.819544,-2.455036,32.619999,48.720001,22.889999,1729477136846.0,0.0
-0.497707,-6.601797,-1.868794,25.27,15.05,16.940001,1729477136866.0,0.0
-0.145962,-7.106683,-4.599005,-0.91,-32.060001,1.26,1729477136887.0,0.0
-2.964707,-8.784052,-5.235496,-21.77,-24.99,-19.32,1729477136907.0,0.0
-3.67059,-8.169096,-5.268995,-6.23,-39.48,-31.15,1729477136925.0,0.0
-1.978864,-7.056434,-7.76471,19.040001,-83.370003,-26.18,1729477136945.0,0.0
-2.478964,-7.587641,-8.920443,8.75,-58.73,-16.73,1729477136968.0,0.0
-4.074977,-7.156933,-9.619147,-6.65,1.68,-4.69,1729477136987.0,0.0
-5.228317,-8.480164,-5.079963,-6.65,21.700001,18.200001,1729477137005.0,0.0
-4.395615,-9.257831,-4.711468,-5.25,10.29,16.17,1729477137026.0,0.0
-2.18704,-8.413164,-4.106083,13.37,-21.98,12.04,1729477137045.0,0.0
-1.330409,-6.185446,-5.209175,14.35,-20.370001,2.73,1729477137069.0,0.0
-2.347359,-7.15454,-5.613562,5.81,-14.14,5.46,1729477137088.0,0.0
-3.400201,-8.910872,-6.24766,-32.200001,-9.94,-4.97,1729477137105.0,0.0
-3.462414,-9.147761,-5.922236,-56.630001,-18.969999,-17.290001,1729477137125.0,0.0
-2.591427,-7.712067,-6.118448,-44.380001,-30.59,-20.02,1729477137148.0,0.0
-1.713261,-7.613962,-4.536791,-47.810001,-36.400002,-18.41,1729477137168.0,0.0
-1.689333,-7.877172,-5.115855,-42.630001,-27.719999,-14.28,1729477137186.0,0.0
-2.055435,-7.343572,-6.580262,-37.799999,-26.530001,-7.28,1729477137205.0,0.0
-2.734996,-8.133204,-6.508478,-26.18,-15.33,6.16,1729477137225.0,0.0
-3.479164,-7.609176,-7.164111,-9.8,-1.54,17.57,1729477137248.0,0.0
-3.103491,-6.860222,-7.9346,-12.67,2.03,25.690001,1729477137269.0,0.0
-2.54357,-6.446264,-8.389235,-10.43,6.72,32.060001,1729477137287.0,0.0
-2.943172,-6.125626,-9.432507,-5.67,26.67,41.509998,1729477137305.0,0.0
-3.141776,-5.807381,-9.934999,3.85,36.189999,46.130001,1729477137327.0,0.0
-3.718446,-6.30748,-9.932607,33.389999,50.259998,48.650002,1729477137347.0,0.0
-4.534399,-6.132804,-9.224331,49.349998,63.07,43.189999,1729477137368.0,0.0
-4.677969,-6.608976,-8.209774,38.43,68.739998,33.110001,1729477137387.0,0.0
-3.828516,-7.652246,-7.484749,44.73,55.790001,17.5,1729477137405.0,0.0
-3.716053,-7.125826,-6.85783,71.540001,52.779999,7.0,1729477137426.0,0.0
-4.122833,-6.424729,-5.871986,83.230003,54.32,-6.93,1729477137447.0,0.0
-3.275774,-6.015556,-5.60399,76.160004,34.580002,-23.309999,1729477137466.0,0.0
-2.464607,-6.025128,-4.271189,89.040001,19.460001,-31.15,1729477137486.0,0.0
-2.988636,-7.427321,-3.905087,92.75,10.78,-38.849998,1729477137504.0,0.0
-1.691726,-7.941778,-4.187439,82.739998,-9.66,-59.57,1729477137525.0,0.0
-1.06002,-4.709075,-6.417551,122.57,-27.440001,-38.779999,1729477137546.0,0.0
-1.079163,-4.354938,-4.67079,100.449997,0.56,-15.82,1729477137566.0,0.0
-1.954936,-6.580262,-4.728218,54.670002,14.7,1.54,1729477137585.0,0.0
-2.804388,-9.62154,-5.304887,27.23,22.049999,9.52,1729477137605.0,0.0
-3.969693,-10.526026,-3.773481,-26.110001,38.43,9.1,1729477137626.0,0.0
-4.354938,-9.824929,-1.847259,-50.889999,28.139999,5.88,1729477137647.0,0.0
-3.369094,-10.279566,-3.617948,0.56,1.12,7.7,1729477137666.0,0.0
-2.708675,-10.923235,-3.61077,47.599998,4.48,13.3,1729477137689.0,0.0
-3.158526,-10.109675,-2.679961,35.77,21.0,13.02,1729477137705.0,0.0
-3.249453,-8.88455,-1.895115,3.64,12.74,13.51,1729477137725.0,0.0
-2.053042,-9.707682,-3.883551,-5.11,-16.379999,15.190001,1729477137747.0,0.0
-0.464208,-7.692925,-6.041877,-2.17,-29.4,14.98,1729477137766.0,0.0
-0.57667,-5.024928,-8.863015,36.400002,-6.16,35.91,1729477137786.0,0.0
-1.892723,-6.546762,-7.599605,57.049999,32.689999,41.16,1729477137805.0,0.0
-3.572484,-7.542177,-3.404987,-1.26,44.099998,25.41,1729477137826.0,0.0
-3.981657,-9.138189,-5.431707,-30.17,18.83,9.59,1729477137845.0,0.0
-3.775874,-9.487542,-6.726225,-25.620001,5.04,-16.66,1729477137866.0,0.0
-3.596412,-8.183454,-4.058227,-47.670002,2.45,-46.34,1729477137887.0,0.0
-2.514857,-7.855636,-2.603391,-67.620003,-9.1,-53.760002,1729477137906.0,0.0
-1.124627,-6.238089,-6.886543,-84.769997,-28.139999,-49.420002,1729477137927.0,0.0
-0.531207,-9.279366,-8.68116,-11.76,-20.58,-33.25,1729477137945.0,0.0
-0.160319,-11.542977,-4.811966,46.619999,12.25,-15.05,1729477137966.0,0.0
-1.404587,-8.867801,-1.447658,42.98,35.209999,-5.04,1729477137987.0,0.0
-3.862016,-9.360723,1.079163,7.42,49.490002,-5.88,1729477138004.0,0.0
-5.536992,-9.96132,-0.138784,-53.130001,25.83,-9.31,1729477138026.0,0.0
-4.87418,-10.966305,-3.519842,-44.869999,-25.200001,-8.47,1729477138046.0,0.0
-3.692125,-9.207582,-4.177868,-44.59,-33.599998,-1.05,1729477138067.0,0.0
-2.761317,-7.65464,-4.488935,-52.080002,-21.629999,5.39,1729477138087.0,0.0
-2.301895,-5.398208,-6.948757,-92.540001,-15.12,14.84,1729477138105.0,0.0
-1.153341,-5.910272,-9.963714,-66.080002,-1.68,34.23,1729477138125.0,0.0
-0.605384,-7.865208,-8.300702,-10.71,8.33,51.66,1729477138145.0,0.0
-1.282553,-7.200003,-6.348158,24.15,26.809999,51.52,1729477138166.0,0.0
-2.660819,-7.444071,-5.525027,48.299999,48.299999,46.130001,1729477138185.0,0.0
-2.945565,-7.142576,-7.54457,30.17,34.509998,31.710001,1729477138205.0,0.0
-3.029313,-8.865408,-9.346365,-11.83,34.299999,-9.87,1729477138225.0,0.0
-2.744568,-10.880164,-4.76411,13.37,29.75,-32.689999,1729477138245.0,0.0
-1.115055,-8.403593,-3.194418,45.360001,-4.41,-48.09,1729477138266.0,0.0
0.043071,-4.027121,-6.951149,45.290001,-19.32,-48.790001,1729477138285.0,0.0
0.442672,-5.891129,-6.683154,11.62,-11.48,-40.810001,1729477138305.0,0.0
0.31346,-10.083356,-4.268795,-60.900002,-1.12,-39.41,1729477138325.0,0.0
-1.083949,-11.430513,-4.161119,-59.849998,1.54,-50.68,1729477138345.0,0.0
-2.715853,-9.865608,-4.56072,3.43,2.31,-53.41,1729477138365.0,0.0
-3.125026,-5.429315,-5.642276,37.240002,-2.8,-44.73,1729477138385.0,0.0
-3.421736,-6.319445,-2.825923,47.670002,-8.05,-18.48,1729477138405.0,0.0
-3.488736,-9.734003,-4.625326,37.66,-12.39,-2.1,1729477138425.0,0.0
-2.821138,-11.152946,-5.462814,49.139999,-18.27,1.96,1729477138444.0,0.0
-2.995814,-9.332008,-4.086941,31.15,-4.83,7.63,1729477138466.0,0.0
-3.775874,-8.133204,-2.088934,-21.35,7.21,1.4,1729477138485.0,0.0
-3.809374,-8.752945,-3.684947,-77.0,-4.48,-3.92,1729477138504.0,0.0
-2.610569,-9.406186,-5.146961,-110.25,-19.110001,-7.77,1729477138525.0,0.0
-0.421137,-6.704689,-6.506085,-84.559998,-34.509998,-7.77,1729477138544.0,0.0
-0.433101,-4.512863,-8.989835,20.09,-9.17,28.35,1729477138566.0,0.0
-1.40698,-4.845466,-8.630912,32.48,23.73,49.209999,1729477138585.0,0.0
-1.68694,-7.91785,-7.056434,56.0,24.15,53.619999,1729477138604.0,0.0
-1.897508,-7.903493,-4.797609,66.150002,14.42,49.420002,1729477138624.0,0.0
-2.531606,-6.788438,-4.960321,67.830002,18.059999,40.740002,1729477138645.0,0.0
-3.361916,-7.166504,-3.737589,38.639999,14.42,28.98,1729477138665.0,0.0
-4.089334,-7.020542,-4.733003,-10.85,7.21,12.95,1729477138689.0,0.0
-3.960121,-6.58744,-6.178268,-64.610001,13.51,-22.610001,1729477138709.0,0.0
-2.852244,-6.185446,-7.164111,-120.82,0.49,-45.5,1729477138725.0,0.0
-1.20359,-6.69751,-8.331808,-156.520004,-36.330002,-41.93,1729477138744.0,0.0
0.521635,-6.226124,-11.148161,-169.960007,-41.860001,-43.400002,1729477138766.0,0.0
1.050449,-5.816952,-10.770095,-120.610001,0.84,-25.34,1729477138786.0,0.0
-0.421137,-7.45125,-5.051248,-80.919998,42.700001,-5.04,1729477138804.0,0.0
-2.615355,-9.288938,-6.4678,-98.629997,50.610001,-13.51,1729477138825.0,0.0
-3.09392,-11.243874,-4.323831,-5.11,19.74,-12.53,1729477138845.0,0.0
-2.87378,-10.995021,-3.59402,48.369999,5.88,-15.75,1729477138865.0,0.0
-3.474378,-5.257031,-5.405386,22.4,2.1,-23.73,1729477138885.0,0.0
-4.115655,-6.989435,-5.948557,-5.32,-5.53,5.74,1729477138904.0,0.0
-2.830709,-8.60459,-6.850651,-18.27,-17.639999,16.52,1729477138925.0,0.0
-1.31366,-9.836893,-7.599605,14.84,-26.950001,30.1,1729477138946.0,0.0
-0.210568,-9.176475,-7.927422,25.48,-25.48,29.610001,1729477138965.0,0.0
0.002393,-8.362915,-8.51127,36.540001,-2.66,28.98,1729477138984.0,0.0
-0.674776,-7.322037,-6.135197,53.130001,17.01,40.880001,1729477139004.0,0.0
-1.842474,-3.876373,-6.317052,19.530001,29.26,47.459999,1729477139024.0,0.0
-3.165704,-5.647062,-5.678168,-1.96,23.870001,59.360001,1729477139044.0,0.0
-2.194218,-7.094719,-7.611568,-8.61,0.91,55.439999,1729477139066.0,0.0
-2.232504,-6.821937,-7.645068,33.670002,-3.29,64.470001,1729477139084.0,0.0
-3.292524,-7.176075,-7.781459,83.090004,17.5,51.799999,1729477139104.0,0.0
-3.555735,-6.051448,-5.82413,73.010002,7.49,33.810001,1729477139125.0,0.0
-3.196811,-5.943772,-6.082555,39.200001,-10.64,13.3,1729477139144.0,0.0
-3.242275,-6.963113,-7.795816,-10.71,-9.59,-14.98,1729477139165.0,0.0
-3.287738,-7.645068,-9.298509,-25.76,-6.16,-34.509998,1729477139185.0,0.0
-2.871387,-7.326823,-7.259824,-11.06,-11.55,-48.720001,1729477139204.0,0.0
-2.555535,-5.321638,-6.920043,-31.99,-12.67,-52.57,1729477139224.0,0.0
-2.505285,-4.429115,-8.882158,-79.099998,-3.57,-54.599998,1729477139245.0,0.0
-2.62732,-5.462814,-8.236095,-94.43,1.4,-46.689999,1729477139265.0,0.0
-2.26361,-5.350351,-6.915257,-107.800003,-1.96,-35.77,1729477139284.0,0.0
-1.536192,-6.45105,-7.802995,-95.480003,-13.09,-37.099998,1729477139304.0,0.0
-0.433101,-9.982857,-8.133204,-91.559998,-19.32,-42.560001,1729477139324.0,0.0
0.301496,-8.149954,-8.209774,-45.360001,-5.11,-46.130001,1729477139344.0,0.0
-1.792224,-7.740781,-7.678568,108.150002,26.880001,-20.23,1729477139365.0,0.0
-1.737189,-6.178268,-5.192425,142.940002,20.860001,-18.83,1729477139384.0,0.0
-1.213161,-5.649454,-3.646662,114.660004,7.49,-5.11,1729477139404.0,0.0
-1.90708,-6.922436,-3.132205,58.380001,6.72,8.4,1729477139424.0,0.0
-2.79721,-9.903893,-4.788038,52.220001,0.14,11.41,1729477139444.0,0.0
-3.462414,-11.96172,-4.268795,57.330002,-11.27,7.07,1729477139465.0,0.0
-4.065405,-9.195618,-3.682554,33.880001,-13.72,-4.34,1729477139485.0,0.0
-3.29731,-7.211967,-6.233303,23.66,-27.09,-5.32,1729477139503.0,0.0
-1.945365,-7.341179,-7.996813,-5.53,-39.27,0.42,1729477139524.0,0.0
-0.878166,-7.613962,-9.054441,-41.23,-29.68,4.76,1729477139544.0,0.0
-1.438086,-7.611568,-9.023334,-44.73,5.95,14.98,1729477139565.0,0.0
-1.533799,-6.558727,-8.609376,-7.91,18.129999,20.860001,1729477139584.0,0.0
-2.337788,-5.455636,-7.956135,44.170002,20.23,41.09,1729477139604.0,0.0
-2.751746,-6.965507,-8.484949,86.519997,36.049999,48.299999,1729477139624.0,0.0
-2.768496,-8.377272,-6.259624,95.970001,35.349998,42.700001,1729477139644.0,0.0
-2.821138,-8.980263,-4.84068,112.980003,20.370001,28.91,1729477139665.0,0.0
-3.146562,-8.84148,-5.139783,113.190002,17.15,7.98,1729477139688.0,0.0
-3.735196,-9.310472,-5.570491,103.389999,19.460001,-22.540001,1729477139703.0,0.0
-3.663411,-9.410972,-4.783253,106.260002,15.190001,-47.32,1729477139724.0,0.0
-2.699104,-8.52802,-3.620341,106.75,-3.64,-56.91,1729477139744.0,0.0
-1.519442,-6.76451,-4.685147,73.220001,-27.09,-63.98,1729477139764.0,0.0
-1.51705,-4.642076,-5.199604,41.09,-26.32,-52.43,1729477139785.0,0.0
-2.218147,-5.029713,-5.134997,25.76,7.49,-31.290001,1729477139803.0,0.0
-2.440679,-6.309873,-2.553142,-4.06,6.44,-25.27,1729477139823.0,0.0
-2.105684,-6.496514,-4.362115,-53.200001,-7.42,-15.82,1729477139844.0,0.0
-1.76351,-8.855836,-4.237689,-58.380001,-6.93,-1.61,1729477139866.0,0.0
-1.878366,-9.257831,-1.368695,-33.389999,-4.62,-1.96,1729477139884.0,0.0
-2.316252,-7.582855,-0.832702,-45.57,-6.37,4.55,1729477139904.0,0.0
-2.127219,-7.389036,-2.313859,-156.240005,-24.290001,9.17,1729477139923.0,0.0
-1.880759,-11.200804,-7.508677,-192.289993,-42.700001,12.18,1729477139944.0,0.0
-1.28016,-15.847664,-8.360522,-62.510002,-47.880001,7.07,1729477139965.0,0.0
-0.887737,-11.215159,-6.128019,-6.51,-10.29,2.66,1729477139984.0,0.0
-1.562513,-7.259824,-5.149354,7.56,7.91,1.05,1729477140003.0,0.0
-2.344966,-6.04427,-6.970293,-25.48,-1.12,4.76,1729477140024.0,0.0
-2.376073,-4.917251,-11.507084,-45.639999,3.01,12.32,1729477140043.0,0.0
-2.294717,-6.173482,-10.174281,-21.35,24.290001,24.01,1729477140065.0,0.0
-1.940579,-8.597411,-6.319445,33.599998,30.870001,25.059999,1729477140085.0,0.0
-2.019542,-6.396015,-2.088934,80.360001,31.85,38.290001,1729477140103.0,0.0
-2.352145,-4.541577,-3.620341,62.09,15.89,35.139999,1729477140123.0,0.0
-2.414358,-6.537192,-4.4339,-23.030001,9.31,26.18,1729477140144.0,0.0
-2.194218,-9.827322,-5.903094,-65.379997,-0.07,16.450001,1729477140165.0,0.0
-1.952543,-11.062018,-6.920043,-21.77,-8.05,6.65,1729477140184.0,0.0
-1.87358,-9.872787,-6.628119,25.83,-3.78,0.7,1729477140204.0,0.0
-2.624927,-8.786445,-6.089733,45.290001,0.77,-12.18,1729477140223.0,0.0
-2.624927,-9.506684,-5.4341,28.0,2.66,-28.42,1729477140244.0,0.0
-1.947758,-9.578469,-5.218746,46.200001,-13.86,-32.759998,1729477140265.0,0.0
-2.127219,-7.834101,-4.618148,54.110001,-12.18,-35.279999,1729477140284.0,0.0
-2.591427,-7.049256,-3.830909,26.530001,-6.72,-42.91,1729477140304.0,0.0
-2.921637,-5.65424,-7.125826,1.26,-4.76,-38.009998,1729477140324.0,0.0
-3.268596,-7.211967,-6.472585,2.03,19.25,-48.650002,1729477140344.0,0.0
-3.237489,-7.183254,-3.359523,-27.16,-8.33,-40.810001,1729477140364.0,0.0
-1.770689,-6.07777,-6.159126,-31.780001,-30.66,-31.219999,1729477140384.0,0.0
-1.581656,-5.285746,-8.080563,-42.560001,-15.47,-29.960001,1729477140403.0,0.0
-1.954936,-6.108876,-7.386643,-17.92,8.4,-20.51,1729477140423.0,0.0
-2.239682,-6.175875,-5.65424,-2.1,21.629999,0.91,1729477140444.0,0.0
-1.488336,-5.230711,-7.097112,-31.780001,10.57,7.98,1729477140464.0,0.0
-0.727418,-6.599405,-7.094719,-57.400002,2.66,16.1,1729477140484.0,0.0
-0.449851,-8.327023,-6.111269,-77.980003,12.46,18.549999,1729477140503.0,0.0
-0.78006,-9.564112,-4.486543,-87.849998,13.93,11.97,1729477140523.0,0.0
-2.502892,-11.526227,-3.682554,-113.889999,23.59,3.36,1729477140543.0,0.0
-3.519842,-13.055241,-3.108276,-72.660004,21.559999,-10.78,1729477140564.0,0.0
-3.299703,-13.454842,-5.9677,-11.9,-14.7,-20.790001,1729477140584.0,0.0
-2.629712,-12.208181,-3.565305,-0.91,-25.200001,-32.34,1729477140603.0,0.0
-2.500499,-11.095518,-3.869194,17.01,-8.12,-34.790001,1729477140623.0,0.0
-1.629512,-6.932007,-3.866802,-3.08,-34.650002,-33.740002,1729477140697.0,0.0
-0.27996,-3.833302,-8.063812,-12.18,-52.080002,-14.98,1729477140700.0,0.0
0.497707,-5.029713,-9.626326,-4.76,-42.420002,11.55,1729477140701.0,0.0
0.875773,-6.853044,-11.832507,10.78,-9.8,21.42,1729477140744.0,0.0
0.040678,-6.754939,-11.813366,64.400002,24.5,37.310001,1729477140745.0,0.0
-1.567299,-6.798009,-8.719445,149.869995,60.48,46.130001,1729477140745.0,0.0
-3.050849,-4.881358,-5.611169,168.279999,63.349998,49.209999,1729477140763.0,0.0
-3.385844,-4.902894,-4.883751,124.110001,39.900002,53.48,1729477140783.0,0.0
-2.9336,-6.161518,-3.742374,64.610001,21.700001,48.02,1729477140803.0,0.0
-2.720639,-7.771888,-3.326023,30.799999,10.43,39.27,1729477140823.0,0.0
-2.572284,-7.987241,-4.26401,11.55,3.36,23.66,1729477140844.0,0.0
-2.550749,-7.939385,-6.242875,-13.16,-3.64,9.87,1729477140864.0,0.0
-2.416751,-8.130811,-8.463413,-21.629999,-4.27,-8.19,1729477140884.0,0.0
-1.904687,-8.472985,-7.077969,-12.95,-3.99,-39.970001,1729477140903.0,0.0
-1.423729,-7.185646,-4.759324,-46.48,-21.280001,-45.43,1729477140924.0,0.0
-0.222532,-7.185646,-7.113862,-55.860001,-34.93,-50.049999,1729477140944.0,0.0
0.294317,-6.98465,-7.077969,-50.189999,-24.08,-45.5,1729477140964.0,0.0
0.236889,-6.147161,-5.383851,-38.849998,-13.16,-38.150002,1729477140984.0,0.0
-0.449851,-7.295716,-7.288538,-37.170002,-2.94,-27.440001,1729477141003.0,0.0
-0.679562,-11.10509,-7.025328,-40.670002,-2.24,-28.0,1729477141023.0,0.0
-1.414158,-10.238889,-3.9338,-9.45,10.57,-20.02,1729477141049.0,0.0
-2.266003,-9.602397,-3.424129,26.110001,19.460001,-24.710001,1729477141064.0,0.0
-3.048456,-7.834101,-4.646862,34.369999,0.63,-19.6,1729477141084.0,0.0
-2.991028,-8.396415,-5.087141,23.799999,-1.82,-5.81,1729477141103.0,0.0
-2.835495,-8.310273,-5.139783,-32.34,-2.73,-1.4,1729477141123.0,0.0
-2.892922,-9.119047,-3.883551,-72.940002,11.27,8.33,1729477141143.0,0.0
-3.038885,-11.394621,-1.631905,-69.580002,-1.54,13.09,1729477141165.0,0.0
-2.199004,-11.514263,-3.029313,-11.9,-26.32,8.12,1729477141186.0,0.0
-1.22034,-9.171689,-5.67099,43.75,-40.950001,3.01,1729477141204.0,0.0
-1.725225,-6.766902,-7.190433,64.889999,-33.670002,6.02,1729477141223.0,0.0
-1.823331,-4.127619,-8.638089,21.280001,8.05,26.67,1729477141243.0,0.0
-1.098306,-4.220939,-10.526026,27.370001,9.94,50.540001,1729477141265.0,0.0
-0.823131,-7.963314,-8.695518,32.48,14.21,58.380001,1729477141284.0,0.0
-1.069592,-8.405986,-7.051648,51.59,37.939999,59.849998,1729477141303.0,0.0
-1.945365,-8.587841,-6.02752,79.800003,47.040001,57.75,1729477141323.0,0.0
-2.026721,-8.999406,-5.032106,69.300003,35.84,41.16,1729477141343.0,0.0
-2.541178,-9.260223,-5.07757,63.98,29.960001,30.1,1729477141372.0,0.0
-3.103491,-8.688338,-5.252246,65.309998,27.93,6.37,1729477141459.0,0.0
-3.388237,-7.276574,-5.436492,58.939999,14.28,-18.969999,1729477141460.0,0.0
-3.438486,-6.482157,-3.996014,38.57,13.16,-48.299999,1729477141467.0,0.0
-3.091527,-5.592027,-3.680161,-13.16,-3.01,-58.59,1729477141468.0,0.0
-2.050649,-3.656233,-5.833702,-97.580002,-27.790001,-58.73,1729477141470.0,0.0
-1.074377,-4.132405,-9.908678,-157.639999,-41.509998,-53.48,1729477141484.0,0.0
-0.380459,-7.365108,-8.487342,-184.660004,-40.389999,-49.91,1729477141505.0,0.0
0.744168,-7.525427,-7.058826,-168.279999,-8.05,-31.710001,1729477141522.0,0.0
0.27996,-5.228317,-8.561519,-126.980003,12.39,-4.41,1729477141542.0,0.0
-1.308874,-5.709275,-6.262017,-161.979996,26.6,6.02,1729477141564.0,0.0
-2.342573,-10.004392,-6.314659,-240.660004,27.860001,12.81,1729477141583.0,0.0
-1.825724,-12.031113,-5.60399,-195.649994,-3.29,16.24,1729477141602.0,0.0
-2.292324,-11.933006,-4.180261,-108.220001,-7.56,10.29,1729477141622.0,0.0
-3.5007,-11.16491,-5.974878,-6.72,-12.32,8.12,1729477141643.0,0.0
-3.402594,-9.88475,-5.85763,77.840004,-31.710001,0.07,1729477141664.0,0.0
-3.046063,-6.833901,-8.317451,104.370003,-42.279999,-5.53,1729477141688.0,0.0
-2.785245,-4.773681,-9.662218,91.0,-33.950001,2.38,1729477141703.0,0.0
-2.438286,-3.462414,-9.583255,65.239998,-17.08,18.129999,1729477141722.0,0.0
-1.962115,-3.381058,-10.260423,54.950001,-11.2,34.509998,1729477141743.0,0.0
-1.359123,-5.845665,-9.674182,94.639999,-9.66,45.849998,1729477141764.0,0.0
-1.753939,-3.407379,-7.673782,92.610001,3.5,50.610001,1729477141783.0,0.0
-3.113062,-3.002992,-6.659225,89.739998,25.059999,67.970001,1729477141802.0,0.0
-2.718246,-5.501099,-6.819544,23.52,3.64,56.209999,1729477141823.0,0.0
-2.533999,-8.097312,-7.52782,-2.31,-7.42,49.209999,1729477141843.0,0.0
-3.04367,-9.047262,-6.867401,10.36,5.25,28.35,1729477141865.0,0.0
-3.393023,-6.987042,-7.173682,18.83,8.4,6.37,1729477141883.0,0.0
-3.065206,-5.436492,-8.831908,-24.92,-0.07,-23.379999,1729477141902.0,0.0
-3.017349,-6.242875,-9.06162,-42.209999,9.17,-42.349998,1729477141922.0,0.0
-2.249253,-6.415157,-6.71426,-43.470001,-5.67,-54.529999,1729477141943.0,0.0
-1.17009,-5.113462,-8.003991,-32.48,-16.450001,-54.110001,1729477141963.0,0.0
-0.993021,-4.905287,-7.858029,-45.43,-11.34,-56.84,1729477141983.0,0.0
-1.26341,-6.573084,-8.573483,-60.48,3.01,-57.959999,1729477142002.0,0.0
-0.854238,-7.750352,-9.717253,-61.950001,3.71,-59.360001,1729477142023.0,0.0
-0.129212,-6.750153,-8.271988,-59.360001,2.03,-53.760002,1729477142043.0,0.0
-1.0002,-6.281159,-7.264609,-54.810001,18.41,-37.73,1729477142063.0,0.0
-1.962115,-6.257231,-8.202596,-75.110001,19.040001,-24.639999,1729477142083.0,0.0
-1.117448,-7.45125,-9.06162,-68.949997,6.02,-2.73,1729477142102.0,0.0
-0.485743,-8.382057,-7.250252,-29.049999,11.69,22.4,1729477142123.0,0.0
-2.117648,-8.736196,-6.18784,12.46,38.009998,26.950001,1729477142143.0,0.0
-4.218546,-9.662218,-4.524827,35.0,41.509998,26.6,1729477142163.0,0.0
-4.512863,-10.526026,-3.349952,60.130001,16.24,20.790001,1729477142184.0,0.0
-4.206582,-9.865608,-3.268596,94.5,-6.09,8.96,1729477142202.0,0.0
-3.318845,-7.645068,-5.630312,113.120003,-18.690001,3.71,1729477142222.0,0.0
-1.124627,-2.079363,-8.298308,54.529999,-43.82,9.03,1729477142243.0,0.0
-1.174876,-2.880959,-10.939985,7.7,-22.75,20.16,1729477142263.0,0.0
-1.349552,-5.058427,-11.263017,-6.44,-6.51,27.299999,1729477142283.0,0.0
-1.847259,-3.663411,-9.52822,25.969999,18.76,41.720001,1729477142304.0,0.0
-2.725425,-1.988436,-7.003791,49.420002,21.84,50.610001,1729477142322.0,0.0
-3.17049,-3.89073,-5.84088,0.07,10.22,42.490002,1729477142342.0,0.0
-2.888137,-7.384251,-7.030113,-55.23,-4.48,21.07,1729477142364.0,0.0
-3.127419,-8.092526,-7.798209,-55.02,-8.68,-3.78,1729477142383.0,0.0
-3.393023,-6.539584,-8.886944,-41.509998,-3.43,-34.439999,1729477142402.0,0.0
-2.969493,-5.216353,-10.157533,-32.27,0.35,-53.619999,1729477142422.0,0.0
-2.215754,-4.539185,-9.111869,-19.040001,2.94,-56.700001,1729477142442.0,0.0
-1.249053,-4.331009,-8.767302,-11.34,3.29,-49.98,1729477142463.0,0.0
-0.119641,-4.41715,-9.183653,-10.5,1.75,-45.43,1729477142483.0,0.0
-0.064606,-5.580062,-8.260024,-20.719999,15.89,-35.91,1729477142501.0,0.0
-0.411566,-7.235896,-7.032506,28.139999,27.860001,-30.66,1729477142522.0,0.0
-1.100698,-5.546563,-5.52742,87.779999,21.210001,-15.33,1729477142543.0,0.0
-2.600998,-6.355337,-4.055835,68.529999,17.85,-9.8,1729477142563.0,0.0
-3.09392,-8.140383,-4.197011,-35.07,-1.75,-9.45,1729477142583.0,0.0
-3.146562,-9.822537,-4.766503,-21.42,-20.16,-1.75,1729477142603.0,0.0
-2.837888,-8.324631,-6.369694,-24.57,-31.01,-9.73,1729477142622.0,0.0
-2.85703,-7.755138,-7.649854,-25.200001,-21.559999,-6.02,1729477142645.0,0.0
-2.675175,-8.997013,-7.144968,-30.73,-17.43,0.98,1729477142663.0,0.0
-2.237289,-9.281759,-5.893522,-31.08,-16.24,0.07,1729477142685.0,0.0
-1.864009,-8.413164,-5.314459,-45.009998,-19.530001,-4.55,1729477142702.0,0.0
-1.318445,-7.831708,-7.508677,-57.049999,-39.759998,-7.14,1729477142722.0,0.0
-0.717847,-5.187639,-9.939785,-63.700001,-50.049999,-8.82,1729477142743.0,0.0
-1.201197,-4.74736,-12.315859,-29.26,-21.98,4.62,1729477142763.0,0.0
-1.208375,-5.276174,-13.550553,26.74,-1.05,19.460001,1729477142783.0,0.0
-1.079163,-4.003192,-11.770294,84.840004,21.280001,36.330002,1729477142802.0,0.0
-2.56032,-3.783052,-7.645068,115.150002,46.549999,41.369999,1729477142822.0,0.0
-3.799802,-5.4676,-5.003392,64.68,42.91,22.68,1729477142843.0,0.0
-2.952743,-6.398407,-6.565905,14.49,11.9,-3.01,1729477142863.0,0.0
-2.172683,-5.989235,-9.315259,27.790001,7.63,-22.610001,1729477142882.0,0.0
-1.531406,-7.278966,-9.142976,67.690002,14.35,-34.439999,1729477142902.0,0.0
-0.189033,-6.865008,-8.906086,107.099998,-8.12,-38.990002,1729477142924.0,0.0
0.784846,-5.931807,-7.41775,124.809998,-9.03,-39.34,1729477142942.0,0.0
0.679562,-4.740182,-5.197211,92.540001,10.5,-38.150002,1729477142964.0,0.0
-0.55992,-6.068198,-5.393422,69.440002,34.580002,-25.129999,1729477142982.0,0.0
-1.67019,-6.666404,-4.579862,57.119999,38.220001,-16.24,1729477143002.0,0.0
-2.493321,-6.872187,-6.013163,56.0,32.27,-2.38,1729477143022.0,0.0
-2.40718,-9.518648,-2.880959,70.629997,17.15,7.28,1729477143042.0,0.0
-2.464607,-10.427922,-3.436093,49.279999,17.85,7.28,1729477143064.0,0.0
-2.940779,-9.018548,-4.436293,8.26,13.58,-10.92,1729477143083.0,0.0
-3.369094,-10.191031,-2.689533,-4.41,11.41,-9.38,1729477143102.0,0.0
-3.113062,-10.844273,-3.388237,18.620001,-0.98,-9.73,1729477143122.0,0.0
-2.557927,-10.636096,-4.034299,42.209999,-17.5,-2.94,1729477143142.0,0.0
-2.368894,-10.296316,-2.756532,25.969999,-22.049999,-5.46,1729477143163.0,0.0
-1.971686,-9.004191,-2.605784,-25.27,-21.84,-8.96,1729477143182.0,0.0
-0.868595,-7.695317,-3.955336,-57.889999,-42.07,-5.25,1729477143202.0,0.0
0.315853,-6.072984,-5.927022,-72.239998,-63.279999,4.2,1729477143222.0,0.0
-0.375673,-6.072984,-8.688338,-61.18,-47.950001,20.16,1729477143242.0,0.0
-1.545763,-5.383851,-7.302894,-106.959999,10.36,26.950001,1729477143263.0,0.0
-1.770689,-5.536992,-10.124033,-97.160004,12.6,36.68,1729477143283.0,0.0
-1.021735,-8.252845,-11.485549,7.63,12.6,49.560001,1729477143302.0,0.0
-0.894916,-7.001399,-6.826723,78.959999,24.01,51.799999,1729477143322.0,0.0
-2.574677,-4.807181,-4.125226,68.599998,50.889999,45.709999,1729477143342.0,0.0
-3.905087,-5.235496,-5.644669,-18.620001,41.369999,26.110001,1729477143363.0,0.0
-3.330809,-8.003991,-8.149954,-84.489998,15.68,-7.07,1729477143383.0,0.0
-2.457429,-8.822337,-8.341379,-85.400002,-4.34,-25.48,1729477143401.0,0.0
-1.473979,-8.829515,-6.491727,-42.91,-13.37,-35.139999,1729477143422.0,0.0
-0.502493,-6.211767,-8.216952,-27.51,-18.27,-38.779999,1729477143442.0,0.0
-0.540778,-5.668597,-10.648061,-24.01,-14.49,-32.759998,1729477143463.0,0.0
0.693919,-5.998806,-7.755138,-34.790001,0.77,-23.309999,1729477143482.0,0.0
0.964308,-7.240681,-8.054241,6.09,30.380001,-10.99,1729477143501.0,0.0
0.303888,-7.506285,-6.597012,48.02,34.509998,0.49,1729477143521.0,0.0
-1.007378,-8.216952,-3.929015,95.620003,57.889999,4.06,1729477143542.0,0.0
-3.443272,-9.092726,-0.543171,130.339996,67.269997,3.43,1729477143563.0,0.0
-4.61097,-10.090532,-3.28056,180.25,-1.54,-0.35,1729477143582.0,0.0
-3.259024,-10.712667,-4.256832,209.860001,-36.330002,11.76,1729477143601.0,0.0
-2.59382,-8.312666,-4.716253,144.339996,-24.710001,4.2,1729477143623.0,0.0
-3.311667,-8.362915,-2.828316,45.220001,8.19,-3.92,1729477143642.0,0.0
-3.701697,-10.317852,-2.529213,-23.870001,2.1,-7.7,1729477143663.0,0.0
-2.368894,-11.954542,-3.675375,-10.5,-31.99,-8.26,1729477143686.0,0.0
-0.842274,-11.602797,-3.474378,-2.1,-42.0,-11.83,1729477143701.0,0.0
-0.394816,-7.798209,-3.862016,-63.98,-28.139999,-23.870001,1729477143722.0,0.0
-0.638884,-5.015356,-5.721239,-149.520004,-20.93,-28.700001,1729477143742.0,0.0
-0.839881,-5.223531,-6.690332,-204.889999,-26.6,-20.790001,1729477143762.0,0.0
-0.727418,-7.343572,-6.348158,-214.199997,-34.369999,-13.02,1729477143782.0,0.0
-0.619741,-7.369894,-8.518449,-150.990005,-28.280001,-6.86,1729477143802.0,0.0
-1.06002,-7.384251,-8.669197,-59.779999,-4.55,7.7,1729477143822.0,0.0
-1.40698,-5.864808,-8.003991,-47.599998,15.82,10.71,1729477143842.0,0.0
-1.753939,-5.711668,-7.936993,-41.790001,16.309999,14.77,1729477143863.0,0.0
-1.911865,-6.283553,-7.085148,-42.630001,15.54,25.549999,1729477143882.0,0.0
-2.038685,-7.551748,-6.285945,-14.35,13.65,31.5,1729477143901.0,0.0
-2.120041,-6.695118,-5.898308,12.39,9.1,35.349998,1729477143922.0,0.0
-1.883151,-6.649654,-6.613762,4.9,2.1,34.299999,1729477143942.0,0.0
-1.665405,-6.896115,-7.719246,-12.32,-0.56,30.24,1729477143962.0,0.0
-1.847259,-7.298109,-8.889337,-4.41,4.62,24.01,1729477143982.0,0.0
-2.117648,-7.209574,-8.913264,14.91,12.74,16.52,1729477144003.0,0.0
-2.158326,-6.436693,-9.631111,31.85,20.860001,3.43,1729477144022.0,0.0
-2.132005,-7.453642,-9.351151,42.84,31.639999,-10.64,1729477144042.0,0.0
-1.696511,-7.484749,-8.575876,42.91,28.210001,-19.809999,1729477144062.0,0.0
-1.024128,-6.472585,-7.097112,67.480003,23.870001,-20.51,1729477144082.0,0.0
0.0335,-4.658825,-7.300502,76.230003,6.72,-25.059999,1729477144102.0,0.0
1.550549,-4.225725,-9.671788,80.290001,-13.16,-25.76,1729477144122.0,0.0
2.069792,-9.260223,-3.309274,141.680008,-3.92,1.33,1729477144142.0,0.0
0.722632,-7.60439,-4.163511,106.540001,52.709999,-14.56,1729477144164.0,0.0
-1.95015,-8.970692,-3.871587,80.709999,74.900002,-17.780001,1729477144181.0,0.0
-3.192025,-10.980663,-1.316052,48.509998,63.91,-25.9,1729477144201.0,0.0
-3.605984,-12.658032,-1.033699,60.900002,24.639999,-38.990002,1729477144222.0,0.0
-2.476572,-9.817751,-4.168297,77.0,-28.42,-47.599998,1729477144241.0,0.0
-1.667797,-7.482357,-3.986443,29.82,-38.709999,-42.279999,1729477144262.0,0.0
-1.48355,-7.673782,-1.837688,3.92,-18.83,-30.17,1729477144283.0,0.0
-2.443072,-9.083155,-1.696511,1.82,-8.12,-20.58,1729477144301.0,0.0
-2.45025,-8.961121,-3.129812,-2.52,-22.469999,-18.200001,1729477144322.0,0.0
-1.56012,-7.051648,-3.775874,-62.510002,-38.849998,-10.29,1729477144342.0,0.0
-0.48335,-5.752346,-3.816552,-137.479996,-48.93,-1.89,1729477144362.0,0.0
0.112463,-6.022735,-5.974878,-176.960007,-53.200001,4.13,1729477144381.0,0.0
0.337388,-6.336195,-7.822137,-176.889999,-42.630001,14.98,1729477144401.0,0.0
-0.346959,-7.556533,-8.671589,-147.070007,-20.93,29.33,1729477144422.0,0.0
-0.567099,-7.130611,-10.229317,-91.769997,-7.42,27.370001,1729477144441.0,0.0
-0.897308,-6.905686,-9.824929,4.83,7.77,44.59,1729477144463.0,0.0
-1.038485,-6.099305,-8.018349,63.490002,19.18,50.82,1729477144482.0,0.0
-1.864009,-5.4341,-5.474778,50.470001,22.960001,51.66,1729477144500.0,0.0
-2.801995,-7.022934,-5.118248,10.29,19.18,39.200001,1729477144521.0,0.0
-2.598605,-8.080563,-6.948757,-30.870001,-1.54,13.440001,1729477144541.0,0.0
-1.85683,-8.212167,-10.813165,-34.369999,-13.440001,-6.93,1729477144562.0,0.0
-0.832702,-9.102298,-6.199803,1.96,-12.46,-21.07,1729477144582.0,0.0
0.251246,-7.982457,-7.666604,77.840004,-24.710001,-23.66,1729477144602.0,0.0
0.023928,-8.329416,-7.525427,164.850006,-17.639999,-19.389999,1729477144621.0,0.0
-0.29671,-9.260223,-3.742374,242.479996,5.39,-10.99,1729477144642.0,0.0
-1.624727,-7.76471,-2.395216,317.869995,12.25,8.12,1729477144672.0,0.0
-2.67039,-9.456435,-2.979064,389.970001,6.51,25.059999,1729477144685.0,0.0
-3.058028,-8.726624,-2.641676,343.630005,3.29,21.98,1729477144701.0,0.0
-3.54377,-7.776673,-0.665205,239.960007,19.67,24.780001,1729477144720.0,0.0
-4.407579,-8.437093,2.364109,133.419998,16.309999,21.77,1729477144741.0,0.0
-3.95055,-10.499706,2.196611,59.360001,-15.33,9.45,1729477144763.0,0.0
-2.600998,-11.602797,1.160519,41.860001,-43.119999,7.14,1729477144782.0,0.0
-1.29691,-11.088341,-0.253639,64.120003,-32.130001,6.44,1729477144801.0,0.0
-1.672583,-9.145369,0.555135,66.5,-20.370001,13.86,1729477144821.0,0.0
-1.928615,-8.288737,0.004786,42.139999,-20.93,13.65,1729477144841.0,0.0
-2.510071,-9.561719,0.129212,-10.78,-28.84,11.34,1729477144863.0,0.0
-1.256232,-10.607382,-1.050449,-32.27,-43.959999,10.85,1729477144881.0,0.0
-0.507278,-11.964113,-1.232304,-4.9,-31.92,8.4,1729477144901.0,0.0
-1.584049,-10.521241,-0.591027,38.150002,-10.78,-3.85,1729477144921.0,0.0
-1.871187,-9.889536,0.275175,40.32,-9.66,-5.95,1729477144943.0,0.0
-1.674976,-8.956335,0.624527,26.530001,-19.389999,-8.75,1729477144963.0,0.0
-1.375873,-9.908678,-0.325424,24.710001,-14.49,-5.74,1729477144981.0,0.0
-1.600798,-10.009177,-0.672383,-1.68,-16.17,-16.309999,1729477145001.0,0.0
-2.038685,-10.037891,-0.81356,-10.78,-15.12,-15.33,1729477145021.0,0.0
-1.775474,-10.377672,-1.299303,38.080002,0.07,-18.48,1729477145041.0,0.0
-2.270789,-9.583255,-0.681954,72.800003,10.5,-15.47,1729477145061.0,0.0
-1.969293,-10.085747,-0.811167,118.93,13.23,-21.35,1729477145081.0,0.0
-1.914258,-8.556733,-0.521635,133.910004,33.389999,-16.940001,1729477145101.0,0.0
-2.665605,-8.279166,1.079163,117.040001,40.740002,-19.809999,1729477145122.0,0.0
-2.313859,-9.525827,2.155933,92.68,23.870001,-27.719999,1729477145141.0,0.0
-1.182054,-11.34198,4.053442,130.830002,12.18,-30.52,1729477145162.0,0.0
-1.201197,-9.784252,5.443672,207.199997,29.82,-29.26,1729477145181.0,0.0
-2.167897,-7.415358,8.032705,266.700012,37.380001,-29.540001,1729477145200.0,0.0
-2.294717,-5.424529,6.135197,278.950012,25.76,-22.960001,1729477145221.0,0.0
-1.737189,-5.778666,6.455836,304.98999,24.15,-22.82,1729477145241.0,0.0
-1.414158,-4.742575,7.515855,273.769989,31.219999,-13.93,1729477145268.0,0.0
-1.330409,-4.981857,6.9009,213.850006,31.5,-12.46,1729477145281.0,0.0
-1.830509,-6.357729,6.300302,134.330002,27.790001,-11.2,1729477145301.0,0.0
-2.203789,-5.99402,6.45105,62.369999,27.51,-9.8,1729477145320.0,0.0
-1.416551,-4.639683,7.298109,-0.7,29.120001,2.24,1729477145341.0,0.0
-1.710868,-3.132205,7.532606,-108.290001,27.65,10.29,1729477145372.0,0.0
-2.340181,-4.098906,7.60439,-246.119995,14.35,21.0,1729477145382.0,0.0
-2.998207,-6.111269,5.991628,-381.779999,-4.2,17.360001,1729477145401.0,0.0
-2.754139,-8.094919,4.089334,-478.029999,-31.01,3.22,1729477145421.0,0.0
-1.464408,-8.116454,1.887937,-508.130005,-30.17,12.95,1729477145441.0,0.0
-0.952343,-9.664611,-0.746561,-459.130005,-23.73,17.780001,1729477145461.0,0.0
-1.95015,-10.834702,-0.782453,-409.429993,-16.52,5.95,1729477145482.0,0.0
-2.914458,-10.085747,-2.067399,-393.820007,-12.25,0.28,1729477145501.0,0.0
-2.794817,-9.901501,-2.400001,-352.940002,-12.6,0.49,1729477145520.0,0.0
-2.35693,-10.277173,-4.015156,-293.230011,-15.68,1.4,1729477145542.0,0.0
-2.24686,-11.866007,-6.12084,-172.830002,-5.32,0.14,1729477145562.0,0.0
-3.012564,-13.921442,-4.21376,48.580002,11.27,7.14,1729477145581.0,0.0
-3.17049,-9.726824,-0.287139,352.100006,23.799999,10.92,1729477145601.0,0.0
-3.486342,-8.568698,2.062613,470.610016,18.129999,9.87,1729477145620.0,0.0
-3.285345,-10.861022,3.184847,524.789978,-6.51,-0.98,1729477145717.0,0.0
-1.928615,-11.475977,1.751546,551.669983,-12.46,-12.81,1729477145717.0,0.0
-0.782453,-9.518648,1.074377,568.609985,17.92,-18.34,1729477145718.0,0.0
-1.473979,-6.58744,3.361916,548.450012,49.279999,-28.84,1729477145718.0,0.0
-2.600998,-4.0008,6.905686,422.730011,56.98,-42.07,1729477145721.0,0.0
-2.617748,-5.539384,7.482357,219.029999,33.740002,-42.279999,1729477145740.0,0.0
-2.108077,-5.517848,6.786045,131.880005,30.59,-36.82,1729477145761.0,0.0
-2.538785,-2.761317,7.939385,110.25,37.380001,-34.09,1729477145782.0,0.0
-2.28036,-1.847259,8.886944,41.720001,23.52,-18.129999,1729477145800.0,0.0
-1.828116,-1.543371,9.439686,-64.050003,9.31,-0.28,1729477145820.0,0.0
-2.488536,-2.22054,9.710074,-192.289993,-6.44,16.52,1729477145841.0,0.0
-3.326023,-3.117848,8.85823,-334.600006,-29.960001,25.48,1729477145861.0,0.0
-3.036492,-5.02732,5.979663,-465.360016,-56.0,14.0,1729477145881.0,0.0
-2.474179,-7.259824,3.452843,-567.419983,-74.340004,4.27,1729477145901.0,0.0
-2.096112,-8.238488,0.088534,-633.780029,-78.400002,0.21,1729477145921.0,0.0
-2.28036,-8.066205,-1.706082,-612.150024,-61.599998,-8.19,1729477145940.0,0.0
-2.048256,-8.456236,-4.929214,-538.369995,-57.400002,-9.52,1729477145962.0,0.0
-1.672583,-8.666803,-7.312466,-423.98999,-45.360001,-5.46,1729477145981.0,0.0
-2.074577,-8.597411,-9.030513,-296.799988,-18.549999,3.22,1729477146000.0,0.0
-2.533999,-9.454042,-10.279566,-157.220001,10.5,9.45,1729477146022.0,0.0
-2.206182,-14.763715,-9.365508,63.98,26.25,13.86,1729477146040.0,0.0
-1.739582,-13.103097,-5.532206,261.380005,48.509998,12.25,1729477146061.0,0.0
-2.227718,-8.539984,-0.569492,419.51001,56.630001,12.39,1729477146080.0,0.0
-2.756532,-4.151547,1.201197,485.309998,45.009998,14.7,1729477146099.0,0.0
-4.141976,-6.350551,2.790031,515.27002,31.08,26.25,1729477146120.0,0.0
-3.299703,-11.32523,2.289931,533.470032,1.75,1.33,1729477146140.0,0.0
-0.952343,-12.887742,0.892523,550.970032,0.21,-15.12,1729477146160.0,0.0
-0.619741,-9.762716,2.694318,564.619995,49.349998,-26.25,1729477146180.0,0.0
-2.132005,-5.668597,7.525427,506.309998,67.760002,-26.880001,1729477146200.0,0.0
-2.993421,-3.586841,9.693325,310.730011,41.369999,-41.299999,1729477146220.0,0.0
-1.706082,-4.826324,6.683154,112.559998,-0.7,-32.130001,1729477146240.0,0.0
-1.598405,-3.859623,6.80758,38.779999,5.74,-15.4,1729477146262.0,0.0
-2.132005,-3.007778,7.776673,-3.01,6.02,-7.56,1729477146280.0,0.0
-2.706282,-2.701497,8.812766,-112.489998,-8.89,5.95,1729477146301.0,0.0
-3.074777,-2.617748,9.437292,-238.070007,-24.710001,21.07,1729477146321.0,0.0
-2.840281,-4.070191,8.135597,-339.709991,-46.619999,22.469999,1729477146340.0,0.0
-1.995614,-6.374479,6.041877,-407.540009,-60.130001,14.7,1729477146362.0,0.0
-1.990828,-7.546963,3.67059,-475.089996,-65.239998,6.72,1729477146380.0,0.0
-2.68714,-7.243074,1.040878,-504.769989,-63.349998,3.08,1729477146401.0,0.0
-2.993421,-7.743174,-1.146162,-483.769989,-51.52,5.25,1729477146419.0,0.0
-2.608176,-9.425328,-4.656433,-435.890015,-42.139999,2.1,1729477146440.0,0.0
-2.242075,-10.822738,-5.285746,-331.170013,-26.18,4.48,1729477146462.0,0.0
-2.041078,-11.296515,-5.953342,-210.979996,-3.85,7.0,1729477146480.0,0.0
-1.777867,-14.864214,-7.951349,-15.54,17.360001,5.18,1729477146501.0,0.0
-1.189233,-15.184854,-5.096712,224.210007,39.48,4.9,1729477146520.0,0.0
-1.244268,-9.731609,0.327817,393.399994,55.860001,3.36,1729477146540.0,0.0
-2.397608,-5.783452,3.926622,455.769989,51.450001,-1.82,1729477146561.0,0.0
-3.37388,-6.252446,4.675575,451.149994,19.389999,-3.29,1729477146580.0,0.0
-1.67019,-12.41875,3.282953,466.410004,-17.08,-12.6,1729477146600.0,0.0
-0.205783,-9.79143,2.675175,498.26001,10.01,-18.690001,1729477146620.0,0.0
-1.241875,-5.338387,5.022535,558.390015,53.760002,-18.059999,1729477146641.0,0.0
-2.974278,-1.674976,8.508877,409.850006,58.52,-33.950001,1729477146660.0,0.0
-2.108077,-5.379066,8.281559,145.880005,21.84,-33.040001,1729477146682.0,0.0
-1.579263,-6.884151,8.130811,14.35,12.6,-33.040001,1729477146699.0,0.0
-2.24686,-3.622734,9.018548,26.880001,26.950001,-30.17,1729477146719.0,0.0
-1.813759,-2.069792,9.623933,7.0,16.030001,-16.17,1729477146739.0,0.0
-1.615155,-1.753939,9.150154,-68.529999,-1.89,-2.52,1729477146763.0,0.0
-2.321038,-0.945165,9.492328,-173.180008,-12.81,7.63,1729477146780.0,0.0
-3.031706,-1.115055,9.71486,-292.320007,-29.049999,24.99,1729477146799.0,0.0
-3.306881,-3.019742,7.401,-427.140015,-45.360001,24.290001,1729477146819.0,0.0
-2.481357,-4.948357,4.570292,-542.150024,-56.0,11.83,1729477146841.0,0.0
-1.816152,-5.398208,2.364109,-604.23999,-66.779999,17.219999,1729477146861.0,0.0
-2.141576,-7.683353,0.150748,-570.570007,-65.590004,29.960001,1729477146879.0,0.0
-3.294917,-8.640482,-3.553342,-534.450012,-52.5,16.66,1729477146899.0,0.0
-3.371487,-11.449656,-9.597611,-458.080017,-44.59,5.88,1729477146920.0,0.0
-2.146362,-16.369299,-11.038091,-165.970001,-29.120001,-4.48,1729477146941.0,0.0
-1.014557,-16.898113,-9.387043,115.220001,21.0,-1.61,1729477146962.0,0.0
-0.993021,-10.983055,-4.977071,332.850006,65.099998,-4.69,1729477146980.0,0.0
-1.916651,-7.513463,1.014557,440.299988,76.510002,-6.65,1729477147000.0,0.0
-2.718246,-5.582455,5.194818,473.200012,43.189999,-14.63,1729477147020.0,0.0
-3.184847,-5.505885,7.240681,479.98999,18.620001,-8.82,1729477147041.0,0.0
-2.550749,-8.60459,6.168696,476.420013,-4.34,-17.57,1729477147061.0,0.0
-1.476372,-9.01137,4.960321,452.690002,-13.65,-29.469999,1729477147080.0,0.0
-1.265803,-6.259624,4.383651,476.769989,8.05,-18.969999,1729477147100.0,0.0
-1.677369,-2.524428,7.077969,446.670013,36.259998,-12.11,1729477147119.0,0.0
-1.816152,-3.141776,8.030313,230.229996,17.43,-12.04,1729477147139.0,0.0
-1.56012,-6.685547,6.920043,55.02,-0.98,-9.8,1729477147160.0,0.0
-0.997807,-5.525027,7.245467,14.07,14.14,-15.4,1729477147180.0,0.0
-1.464408,-3.60359,9.042477,-21.49,21.559999,-7.0,1729477147200.0,0.0
-1.368695,-2.895315,8.870193,-105.489998,9.66,1.26,1729477147220.0,0.0
-1.844866,-3.35713,9.107083,-176.259995,-1.26,4.83,1729477147239.0,0.0
-2.464607,-3.144169,10.021141,-246.050003,-12.46,13.23,1729477147261.0,0.0
-2.935993,-3.98405,7.932207,-401.660004,-42.349998,23.1,1729477147280.0,0.0
-2.955136,-6.02752,4.965107,-479.98999,-63.560001,21.629999,1729477147301.0,0.0
-2.471786,-7.422535,2.249253,-501.970001,-71.050003,19.460001,1729477147321.0,0.0
-2.139183,-8.642875,-0.634098,-472.709991,-58.029999,16.379999,1729477147340.0,0.0
-2.251646,-9.499505,-2.148755,-396.410004,-40.459999,14.49,1729477147360.0,0.0
-2.256432,-10.15514,-3.058028,-326.549988,-25.200001,8.54,1729477147380.0,0.0
-2.09372,-10.186246,-3.864408,-289.380005,-15.96,3.22,1729477147401.0,0.0
-1.708475,-10.552348,-5.101498,-245.0,-8.4,3.5,1729477147420.0,0.0
-1.433301,-11.289338,-5.589634,-177.240005,3.43,7.49,1729477147440.0,0.0
-1.261017,-11.995219,-7.144968,-63.420002,19.25,8.54,1729477147460.0,0.0
-1.160519,-13.720445,-6.783652,122.57,40.599998,12.53,1729477147485.0,0.0
-0.959522,-11.088341,-4.211368,277.619995,64.470001,13.440001,1729477147500.0,0.0
-1.533799,-7.996813,-0.744168,381.220001,78.889999,11.27,1729477147520.0,0.0
-3.115455,-5.651847,4.177868,411.040009,73.709999,10.57,1729477147540.0,0.0
-4.34058,-7.439285,6.156733,420.140015,32.34,9.38,1729477147560.0,0.0
-2.902494,-11.270195,5.589634,439.600006,-6.86,-15.54,1729477147579.0,0.0
-1.107877,-9.540184,3.342773,503.440002,14.7,-26.6,1729477147600.0,0.0
-1.840081,-5.142176,4.965107,550.549988,33.389999,-19.460001,1729477147620.0,0.0
-2.67039,-1.430908,9.059227,450.23999,40.459999,-20.860001,1729477147639.0,0.0
-1.469193,-3.828516,8.719445,176.330002,4.2,-22.049999,1729477147659.0,0.0
-1.033699,-8.142776,5.553742,-20.23,-18.9,-20.16,1729477147682.0,0.0
-0.957129,-5.290531,6.367301,-44.029999,8.82,-24.639999,1729477147700.0,0.0
-1.868794,-1.864009,7.623533,-88.830002,25.620001,-17.5,1729477147719.0,0.0
-2.316252,-1.210768,8.55434,-201.949997,11.27,-4.69,1729477147739.0,0.0
-2.498107,-2.471786,8.135597,-305.059998,-11.69,11.69,1729477147762.0,0.0
-2.215754,-4.692325,6.91765,-371.559998,-33.740002,13.79,1729477147779.0,0.0
-1.667797,-7.085148,5.12782,-401.730011,-49.07,16.24,1729477147799.0,0.0
-1.852045,-7.9346,4.165904,-422.100006,-52.779999,27.51,1729477147820.0,0.0
-2.569891,-7.783852,1.40698,-464.170013,-51.310001,25.48,1729477147839.0,0.0
-2.79721,-8.865408,-0.734596,-473.830017,-52.220001,14.07,1729477147859.0,0.0
-2.572284,-10.157533,-2.612962,-438.830017,-49.630001,12.32,1729477147879.0,0.0
