acc_x,acc_y,acc_z,gyr_x,gyr_y,gyr_z,timestamp,label
-0.29671,-3.103491,-6.719046,62.790001,-117.809998,52.920002,1729425238668.0,0.0
0.241675,-3.261417,-6.719046,43.049999,-135.800003,57.330002,1729425238674.0,0.0
0.701097,-4.424329,-8.059027,43.330002,-157.990005,64.610001,1729425238675.0,0.0
0.844666,-6.498906,-10.231709,82.110001,-173.809998,61.040001,1729425238677.0,0.0
1.366302,-5.02732,-10.176675,129.850006,-168.350006,56.490002,1729425238681.0,0.0
1.39023,-3.192025,-7.424929,129.009995,-137.270004,71.120003,1729425238701.0,0.0
0.837488,-4.67079,-7.865208,39.619999,-116.620003,72.379997,1729425238721.0,0.0
-0.246461,-7.523034,-8.939585,-46.48,-105.980003,79.590004,1729425238741.0,0.0
-0.79681,-9.803394,-11.320443,-51.450001,-107.379997,80.919998,1729425238760.0,0.0
-0.835095,-9.164511,-11.327622,-40.110001,-102.900002,59.080002,1729425238781.0,0.0
-1.823331,-9.008978,-10.997414,-50.400002,-54.670002,41.580002,1729425238801.0,0.0
-3.515057,-9.95175,-9.822537,-67.760002,-9.45,30.450001,1729425238821.0,0.0
-4.59422,-10.542776,-11.672189,-49.209999,-1.61,18.48,1729425238844.0,0.0
-4.814359,-9.047262,-10.803595,-6.02,-14.84,7.35,1729425238860.0,0.0
-4.792823,-7.549356,-9.856036,16.52,-1.4,2.1,1729425238880.0,0.0
-5.020142,-7.077969,-8.152347,8.75,13.72,-5.18,1729425238901.0,0.0
-5.28096,-6.84108,-7.716853,-14.07,18.549999,-14.7,1729425238921.0,0.0
-5.338387,-6.21416,-8.422735,-21.49,15.96,-14.21,1729425238941.0,0.0
-5.099105,-5.075177,-8.078169,-27.02,8.89,-11.83,1729425238960.0,0.0
-4.814359,-4.551149,-7.513463,-48.23,8.19,-6.79,1729425238980.0,0.0
-4.819145,-5.45085,-7.738388,-52.990002,8.89,-1.47,1729425239003.0,0.0
-5.082355,-6.24766,-7.197611,-46.41,15.47,-2.59,1729425239021.0,0.0
-5.276174,-6.226124,-7.235896,-6.79,29.889999,-2.73,1729425239041.0,0.0
-5.431707,-5.814559,-7.506285,31.85,28.210001,-1.96,1729425239060.0,0.0
-5.381458,-5.252246,-7.846066,56.84,24.639999,-0.07,1729425239085.0,0.0
-5.4676,-3.893122,-6.850651,61.459999,29.049999,4.9,1729425239101.0,0.0
-6.142376,-3.742374,-5.793024,45.150002,44.52,3.22,1729425239121.0,0.0
-6.001199,-4.048656,-5.9342,19.18,30.450001,-6.23,1729425239141.0,0.0
-5.295317,-4.412365,-7.298109,17.85,-4.27,4.34,1729425239160.0,0.0
-4.098906,-4.977071,-8.906086,35.560001,-31.15,15.190001,1729425239180.0,0.0
-3.029313,-4.266403,-8.200203,39.619999,-32.34,17.15,1729425239205.0,0.0
-2.912065,-4.974678,-6.159126,21.280001,-4.62,14.35,1729425239220.0,0.0
-3.225525,-5.632704,-6.580262,-21.559999,17.15,-4.41,1729425239243.0,0.0
-3.866802,-6.005985,-7.171289,-22.26,18.41,-5.81,1729425239261.0,0.0
-4.067799,-5.74756,-7.427321,-4.83,6.3,-4.69,1729425239280.0,0.0
-3.885944,-5.438886,-7.707282,-5.46,-3.29,-4.97,1729425239303.0,0.0
-3.818945,-5.314459,-7.611568,-14.42,-3.57,-3.29,1729425239321.0,0.0
-3.885944,-6.192625,-7.958528,-12.74,2.31,-2.45,1729425239341.0,0.0
-3.728018,-5.489135,-7.812566,1.82,2.59,-0.63,1729425239360.0,0.0
-3.799802,-5.118248,-7.795816,8.4,5.74,2.03,1729425239382.0,0.0
-4.012764,-5.240282,-7.336394,-5.46,12.39,1.54,1729425239400.0,0.0
-4.510471,-5.785845,-7.283752,-15.05,20.16,3.22,1729425239420.0,0.0
-4.900501,-6.001199,-7.405786,-8.96,20.93,0.28,1729425239442.0,0.0
-5.120641,-5.924629,-7.52782,-6.16,18.34,-4.48,1729425239460.0,0.0
-5.228317,-5.814559,-7.367501,-7.7,17.85,-5.04,1729425239481.0,0.0
-5.058427,-5.809773,-7.039684,-8.82,12.04,-3.71,1729425239503.0,0.0
-4.646862,-5.4676,-6.912865,-8.26,2.1,-1.68,1729425239520.0,0.0
-4.189832,-5.391029,-7.372287,-1.54,-5.39,0.98,1729425239540.0,0.0
-3.682554,-4.912465,-7.211967,1.82,-8.68,2.87,1729425239561.0,0.0
-3.481557,-4.711468,-7.094719,-0.98,-2.73,6.72,1729425239582.0,0.0
-3.347559,-5.079963,-7.276574,-7.56,0.56,7.42,1729425239603.0,0.0
-3.254239,-5.391029,-7.063612,-10.92,1.47,10.29,1729425239621.0,0.0
-3.199204,-5.802595,-7.23111,-1.4,1.54,12.95,1729425239640.0,0.0
-3.151347,-5.915058,-7.379465,11.06,0.56,13.23,1729425239659.0,0.0
-3.223132,-5.716454,-7.381857,19.460001,4.06,11.97,1729425239680.0,0.0
-3.651447,-5.326423,-7.448857,14.91,9.59,9.45,1729425239701.0,0.0
-3.881158,-5.45085,-7.69771,7.28,8.96,8.89,1729425239721.0,0.0
-3.993621,-5.639884,-8.372486,3.64,4.13,8.4,1729425239741.0,0.0
-4.029513,-5.345565,-8.382057,3.5,7.49,8.4,1729425239761.0,0.0
-4.342973,-5.300103,-8.834301,12.88,17.43,9.66,1729425239780.0,0.0
-4.67079,-5.381458,-9.334401,32.130001,24.360001,9.8,1729425239801.0,0.0
-4.749753,-5.656632,-10.100104,60.760002,28.49,13.79,1729425239820.0,0.0
-4.661219,-6.06102,-9.446864,100.449997,32.27,21.629999,1729425239847.0,0.0
-4.381258,-5.922236,-8.683553,134.889999,36.82,22.75,1729425239860.0,0.0
-3.938586,-5.388636,-7.384251,151.550003,34.720001,20.09,1729425239880.0,0.0
-3.519842,-4.460221,-4.974678,133.0,29.68,13.02,1729425239901.0,0.0
-3.620341,-5.735595,-5.517848,89.809998,30.66,6.58,1729425239921.0,0.0
-3.768696,-8.650054,-8.190632,80.220001,24.15,1.05,1729425239942.0,0.0
-3.579663,-8.84148,-7.623533,104.93,18.129999,2.94,1729425239961.0,0.0
-3.706482,-7.661818,-6.594619,143.289993,39.900002,4.27,1729425239982.0,0.0
-4.151547,-7.613962,-2.282753,143.990005,63.77,-2.94,1729425240001.0,0.0
-5.668597,-5.716454,-0.643669,29.049999,79.239998,-11.62,1729425240020.0,0.0
-5.941379,-9.992428,-9.044869,38.849998,11.83,-7.28,1729425240042.0,0.0
-4.326223,-8.29113,-5.685347,51.099998,-29.75,9.8,1729425240061.0,0.0
-2.986243,-9.267403,-4.692325,122.360001,28.42,23.030001,1729425240081.0,0.0
-2.696711,-7.51107,-3.299703,134.470001,38.009998,18.549999,1729425240101.0,0.0
-2.416751,-6.623333,-3.079563,131.529999,37.310001,16.799999,1729425240120.0,0.0
-2.050649,-6.683154,-2.041078,85.190002,18.9,16.52,1729425240141.0,0.0
-1.481157,-7.503892,-2.490928,49.420002,-3.01,14.63,1729425240160.0,0.0
-1.012164,-7.71446,-3.701697,35.07,-27.440001,14.56,1729425240181.0,0.0
-1.06002,-7.963314,-4.673182,11.06,-32.689999,8.54,1729425240200.0,0.0
-1.813759,-8.126025,-4.455436,-76.370003,-4.55,-10.64,1729425240222.0,0.0
-3.199204,-9.243474,-4.675575,-166.669998,35.91,-21.42,1729425240240.0,0.0
-4.871787,-10.590633,-5.24746,-192.080002,45.779999,-22.889999,1729425240260.0,0.0
-5.565705,-9.745967,-5.4341,-189.839996,35.0,-31.57,1729425240282.0,0.0
-5.020142,-7.920243,-6.652047,-173.110001,10.85,-28.280001,1729425240300.0,0.0
-4.039084,-7.45125,-6.939186,-155.470001,-1.33,-17.08,1729425240320.0,0.0
-3.400201,-7.645068,-7.195218,-141.960007,22.75,-7.56,1729425240342.0,0.0
-2.694318,-7.68096,-6.56112,-116.550003,35.700001,-4.2,1729425240361.0,0.0
-1.921437,-7.226324,-5.063213,-105.349998,17.99,-10.36,1729425240381.0,0.0
-1.191626,-7.360322,-5.355137,-99.540001,0.35,-15.82,1729425240409.0,0.0
-0.435494,-6.269196,-5.649454,-125.93,-17.15,-31.5,1729425240420.0,0.0
0.246461,-3.37388,-6.513263,-183.610001,-24.15,-39.830002,1729425240442.0,0.0
-0.100499,-2.464607,-7.738388,-192.360001,-18.969999,-26.530001,1729425240461.0,0.0
-1.584049,-2.210968,-9.006584,-175.490005,14.84,-9.31,1729425240480.0,0.0
-3.986443,-4.572684,-12.107682,-85.470001,52.849998,12.53,1729425240502.0,0.0
-4.9675,-4.833502,-10.392029,-39.689999,67.900002,20.719999,1729425240521.0,0.0
-4.125226,-3.189633,-11.562119,-15.33,40.110001,50.119999,1729425240543.0,0.0
-2.364109,-3.163311,-11.562119,16.309999,15.89,54.950001,1729425240561.0,0.0
-1.811367,-4.797609,-10.013963,13.51,36.68,44.240002,1729425240581.0,0.0
-2.459821,-6.750153,-7.439285,-12.18,56.420002,24.92,1729425240603.0,0.0
-3.086741,-7.513463,-5.802595,-32.41,50.330002,-4.9,1729425240622.0,0.0
-2.380858,-6.51087,-6.142376,-28.91,13.72,-34.09,1729425240641.0,0.0
-1.37348,-4.907679,-7.001399,-4.13,-17.710001,-49.279999,1729425240660.0,0.0
-1.306481,-2.660819,-7.594819,2.8,-23.59,-73.080002,1729425240680.0,0.0
-1.476372,-0.756132,-7.913064,-19.809999,-24.57,-66.5,1729425240702.0,0.0
-1.737189,-0.148355,-7.477571,-36.049999,-26.32,-44.450001,1729425240721.0,0.0
-2.065006,-1.256232,-8.839087,-25.27,-25.34,-15.33,1729425240741.0,0.0
-2.725425,-1.387837,-10.681561,-6.02,-11.55,14.42,1729425240761.0,0.0
-3.376273,-1.002593,-13.026526,20.16,14.35,38.150002,1729425240780.0,0.0
-3.321238,-0.823131,-12.504892,23.450001,25.200001,58.029999,1729425240805.0,0.0
-2.45025,-1.892723,-11.375479,16.59,15.26,72.029999,1729425240830.0,0.0
-1.830509,-4.414758,-9.293723,17.08,13.02,72.029999,1729425240845.0,0.0
-2.105684,-6.60419,-8.161918,21.07,27.370001,59.360001,1729425240861.0,0.0
-3.07717,-6.888937,-8.157133,30.66,38.849998,37.170002,1729425240883.0,0.0
-3.641876,-6.015556,-6.783652,2.87,28.98,9.59,1729425240902.0,0.0
-2.65364,-7.334002,-7.331609,-38.43,-12.04,-14.35,1729425240922.0,0.0
-1.184447,-7.793423,-7.752745,-41.16,-40.670002,-37.59,1729425240942.0,0.0
-1.050449,-5.56092,-9.250652,-9.59,-34.299999,-52.009998,1729425240962.0,0.0
-1.435694,-4.005585,-8.726624,-3.29,-14.21,-69.019997,1729425240982.0,0.0
-1.701297,-2.266003,-7.235896,-25.620001,-14.77,-61.599998,1729425241003.0,0.0
-1.246661,-0.832702,-8.60459,-37.66,-24.780001,-47.599998,1729425241022.0,0.0
-0.799203,-0.701097,-9.339187,-18.549999,-31.92,-21.629999,1729425241042.0,0.0
-1.064806,-0.729811,-10.317852,3.08,-11.83,6.09,1729425241062.0,0.0
-1.636691,-1.261017,-11.263017,7.84,13.23,26.67,1729425241082.0,0.0
-1.993221,-2.103291,-10.861022,4.76,23.52,47.040001,1729425241105.0,0.0
-1.854438,-3.096312,-9.41815,20.93,20.51,61.18,1729425241126.0,0.0
-2.402394,-4.005585,-8.070991,45.220001,29.469999,65.309998,1729425241142.0,0.0
-3.60359,-4.711468,-7.999206,55.510002,41.16,56.490002,1729425241161.0,0.0
-4.642076,-5.089533,-8.276773,40.740002,42.279999,45.43,1729425241182.0,0.0
-4.76411,-5.895915,-8.049455,11.41,22.960001,29.469999,1729425241202.0,0.0
-3.505485,-6.924829,-8.370094,-10.78,-10.99,9.66,1729425241222.0,0.0
-2.337788,-6.709475,-8.664411,-8.05,-26.389999,-10.01,1729425241243.0,0.0
-2.081756,-5.12782,-9.236296,8.54,-17.5,-27.65,1729425241263.0,0.0
-2.603391,-3.65384,-9.516255,22.33,-5.81,-38.150002,1729425241282.0,0.0
-2.371287,-2.105684,-8.657232,10.5,-8.89,-37.799999,1729425241303.0,0.0
-1.713261,-1.172483,-8.793623,-16.66,-22.889999,-30.450001,1729425241321.0,0.0
-1.067199,-0.79681,-9.454042,-38.150002,-25.27,-27.440001,1729425241342.0,0.0
-0.744168,-1.404587,-9.753145,-46.060001,-21.98,-20.16,1729425241361.0,0.0
-0.894916,-2.11047,-10.064213,-47.110001,-8.89,-8.96,1729425241381.0,0.0
-1.442872,-3.127419,-9.908678,-44.310001,4.13,2.59,1729425241402.0,0.0
-1.655833,-3.864408,-9.274581,-26.040001,9.52,12.25,1729425241422.0,0.0
-1.976472,-4.228118,-9.437292,10.15,12.25,22.33,1729425241443.0,0.0
-2.510071,-3.481557,-9.08794,36.049999,17.710001,26.25,1729425241461.0,0.0
-3.304488,-3.622734,-9.281759,36.189999,26.25,27.16,1729425241482.0,0.0
-3.795017,-4.716253,-9.083155,3.01,24.57,19.460001,1729425241504.0,0.0
-3.400201,-6.381658,-8.673983,-21.84,8.05,6.72,1729425241522.0,0.0
-2.464607,-6.635297,-8.592626,-25.83,-9.59,-8.96,1729425241542.0,0.0
-1.969293,-4.900501,-8.726624,-7.42,-12.74,-24.219999,1729425241561.0,0.0
-2.342573,-3.596412,-9.209974,18.549999,-6.79,-34.16,1729425241581.0,0.0
-2.749353,-3.072384,-9.863215,13.09,-4.9,-39.549999,1729425241604.0,0.0
-2.254039,-2.610569,-9.152546,-13.65,-9.31,-35.630001,1729425241622.0,0.0
-1.56012,-1.643869,-8.965906,-11.76,-14.21,-22.33,1729425241641.0,0.0
-1.064806,-0.038285,-8.879765,-4.34,-14.07,-7.35,1729425241661.0,0.0
-1.138984,-0.229711,-8.975478,-11.06,-6.16,10.15,1729425241682.0,0.0
-1.61037,-2.151148,-8.963513,-27.58,5.18,26.25,1729425241702.0,0.0
-1.914258,-3.548556,-9.207582,-30.66,7.77,37.799999,1729425241721.0,0.0
-1.871187,-4.106083,-9.731609,-2.73,0.56,44.66,1729425241741.0,0.0
-2.273181,-3.818945,-9.530612,20.23,3.57,43.049999,1729425241761.0,0.0
-3.328416,-3.828516,-9.753145,16.030001,18.76,34.02,1729425241781.0,0.0
-4.235296,-5.022535,-9.430114,-7.56,21.629999,20.93,1729425241802.0,0.0
-3.627519,-5.785845,-9.35833,-25.76,4.2,3.29,1729425241822.0,0.0
-2.342573,-5.594419,-9.678967,-18.34,-16.1,-8.47,1729425241844.0,0.0
-1.737189,-4.426722,-9.698111,1.33,-17.01,-21.49,1729425241861.0,0.0
-2.22054,-3.407379,-9.796216,17.99,-0.84,-28.280001,1729425241881.0,0.0
-2.995814,-2.258825,-9.583255,15.54,11.41,-27.860001,1729425241904.0,0.0
-3.069991,-1.799403,-9.24108,7.42,7.7,-20.51,1729425241921.0,0.0
-2.512464,-1.820938,-8.51127,4.06,-3.43,-13.440001,1729425241943.0,0.0
-1.588834,-1.612763,-8.169096,-2.17,-8.96,-7.63,1729425241961.0,0.0
-1.301696,-1.328017,-8.618947,-16.59,-5.88,-0.49,1729425241980.0,0.0
-1.287339,-2.108077,-9.229117,-19.67,-4.06,8.12,1729425242004.0,0.0
-1.4668,-3.108276,-9.164511,-22.469999,2.59,16.030001,1729425242021.0,0.0
-1.974079,-3.759124,-9.286544,-10.15,9.1,22.540001,1729425242042.0,0.0
-2.617748,-3.646662,-9.403792,3.22,12.81,22.82,1729425242060.0,0.0
-3.369094,-3.802195,-9.571291,9.24,15.05,19.74,1729425242082.0,0.0
-3.931407,-4.175476,-9.753145,1.82,16.24,10.36,1729425242102.0,0.0
-3.914658,-5.139783,-10.107283,-13.79,7.56,-0.49,1729425242121.0,0.0
-3.105884,-5.548956,-9.863215,-21.210001,-4.34,-12.67,1729425242143.0,0.0
-2.440679,-5.192425,-9.561719,-10.36,-7.63,-23.379999,1729425242160.0,0.0
-2.287539,-4.110869,-9.997212,3.29,-1.96,-35.139999,1729425242182.0,0.0
-2.517249,-3.120241,-9.664611,22.4,0.63,-38.779999,1729425242203.0,0.0
-2.679961,-2.541178,-8.843873,11.9,0.21,-40.599998,1729425242221.0,0.0
-2.323431,-2.837888,-8.38445,-5.67,-7.14,-39.900002,1729425242243.0,0.0
-1.835295,-2.366502,-7.939385,-10.08,-13.86,-35.349998,1729425242261.0,0.0
-1.868794,-1.710868,-8.49452,10.92,-11.06,-27.09,1729425242281.0,0.0
-1.87358,-0.323031,-8.26481,14.49,-8.82,-20.299999,1729425242303.0,0.0
-1.59362,-1.397408,-9.341579,-2.52,-14.14,-2.45,1729425242322.0,0.0
-1.349552,-2.541178,-9.772287,-10.71,-15.26,5.88,1729425242342.0,0.0
-1.4668,-3.235096,-9.667004,-10.01,-5.18,11.06,1729425242360.0,0.0
-1.902294,-3.720839,-9.346365,-0.7,2.73,13.72,1729425242381.0,0.0
-2.39043,-4.173083,-9.521042,19.110001,5.81,15.68,1729425242401.0,0.0
-2.854637,-4.285545,-9.040084,30.17,10.64,12.95,1729425242421.0,0.0
-3.409772,-4.354938,-8.762517,25.41,14.35,9.03,1729425242448.0,0.0
-3.756732,-4.62054,-8.630912,11.06,10.08,1.68,1729425242460.0,0.0
-3.553342,-4.962714,-8.456236,1.05,-2.38,-6.51,1729425242480.0,0.0
-2.897708,-4.955536,-9.190832,0.35,-16.030001,-13.09,1729425242515.0,0.0
-2.380858,-4.424329,-9.769895,9.66,-21.35,-20.58,1729425242522.0,0.0
-2.438286,-3.672983,-9.729217,13.02,-14.14,-23.73,1729425242541.0,0.0
-2.498107,-3.275774,-9.96132,6.37,-9.94,-24.57,1729425242562.0,0.0
-2.258825,-3.180061,-10.301102,2.87,-10.57,-22.33,1729425242582.0,0.0
-1.940579,-2.354537,-9.296116,10.78,-6.23,-17.99,1729425242602.0,0.0
-1.895115,-1.375873,-8.405986,18.41,3.22,-8.4,1729425242622.0,0.0
-1.957329,-1.107877,-8.420342,5.74,2.31,-1.82,1729425242642.0,0.0
-1.90708,-1.921437,-9.044869,-6.93,-0.7,1.75,1729425242662.0,0.0
-1.940579,-2.426322,-9.379865,-9.59,3.22,7.21,1729425242682.0,0.0
-2.227718,-2.550749,-9.513863,-4.83,8.33,12.6,1729425242703.0,0.0
-2.440679,-2.935993,-9.209974,-5.11,10.99,16.450001,1729425242721.0,0.0
-2.584249,-3.644269,-8.939585,-2.87,8.61,19.950001,1729425242744.0,0.0
-2.74696,-3.996014,-8.843873,2.66,7.0,20.16,1729425242761.0,0.0
-3.069991,-4.173083,-8.9348,0.7,7.84,17.57,1729425242781.0,0.0
-3.460021,-4.601398,-9.332008,-9.8,8.26,13.51,1729425242803.0,0.0
-3.481557,-5.003392,-9.24826,-14.0,1.61,6.93,1729425242824.0,0.0
-3.105884,-4.996214,-9.499505,-10.22,-5.67,1.47,1729425242845.0,0.0
-2.770889,-4.802395,-9.370294,-5.74,-6.09,-4.2,1729425242863.0,0.0
-2.737389,-4.632504,-9.635897,-0.98,-0.98,-9.73,1729425242892.0,0.0
-2.730211,-4.252046,-9.872787,9.8,1.89,-11.97,1729425242905.0,0.0
-2.45025,-3.347559,-9.128618,18.27,5.39,-12.95,1729425242924.0,0.0
-2.388037,-2.947958,-8.599805,3.08,8.75,-13.09,1729425242943.0,0.0
-2.258825,-3.479164,-8.630912,-3.22,6.51,-13.51,1729425242963.0,0.0
-1.844866,-3.139383,-8.683553,10.57,1.33,-11.13,1729425242983.0,0.0
-1.399801,-1.629512,-8.456236,8.68,-1.82,-8.75,1729425243004.0,0.0
-1.368695,-1.852045,-9.399008,-4.97,0.91,-4.76,1729425243023.0,0.0
-1.490728,-2.675175,-9.585647,-19.67,6.37,-2.17,1729425243044.0,0.0
-1.847259,-3.218346,-9.377472,-14.35,12.11,5.46,1729425243063.0,0.0
-2.122434,-3.244668,-8.315059,-4.27,13.09,10.22,1729425243083.0,0.0
-2.67039,-3.376273,-8.090133,1.33,11.13,14.14,1729425243105.0,0.0
-3.084348,-4.098906,-9.068797,-0.84,5.25,10.22,1729425243123.0,0.0
-3.23031,-4.68754,-9.554541,-10.85,0.14,6.02,1729425243143.0,0.0
-3.06042,-5.173282,-9.824929,-16.030001,-4.34,0.49,1729425243167.0,0.0
-2.691926,-5.56092,-9.571291,-13.65,-7.07,-5.04,1729425243182.0,0.0
-2.402394,-5.111069,-9.387043,-13.65,-5.53,-12.32,1729425243203.0,0.0
-2.395216,-4.409972,-9.10469,12.18,-1.19,-20.09,1729425243224.0,0.0
-2.337788,-3.952943,-8.717053,14.77,-0.14,-21.98,1729425243244.0,0.0
-2.096112,-3.225525,-8.530413,13.93,-2.87,-21.91,1729425243262.0,0.0
-2.11047,-2.603391,-8.097312,7.98,-3.01,-20.16,1729425243283.0,0.0
-2.299503,-2.615355,-8.152347,-2.1,-1.19,-17.85,1729425243304.0,0.0
-2.285146,-2.749353,-8.324631,-2.1,-4.62,-14.21,1729425243323.0,0.0
-2.155933,-2.072184,-8.585447,10.29,-7.21,-7.56,1729425243343.0,0.0
-1.988436,-1.95015,-8.958728,0.7,-8.4,-5.18,1729425243363.0,0.0
-1.765903,-2.979064,-10.298709,-9.59,-8.05,-2.73,1729425243382.0,0.0
-1.488336,-3.254239,-10.731809,0.14,-2.87,0.7,1729425243403.0,0.0
-1.478764,-2.947958,-10.389636,18.41,6.72,7.42,1729425243423.0,0.0
-1.744368,-2.979064,-9.911072,31.360001,17.219999,12.32,1729425243443.0,0.0
-2.244468,-2.962314,-8.102098,28.98,25.969999,13.79,1729425243463.0,0.0
-3.270989,-1.820938,-5.594419,7.14,31.780001,18.200001,1729425243482.0,0.0
-4.362115,-3.974478,-8.099705,-5.25,17.360001,17.710001,1729425243506.0,0.0
-4.240082,-5.228317,-8.410772,-29.120001,-7.91,7.98,1729425243523.0,0.0
-3.668197,-5.912664,-9.042477,-18.27,-23.73,9.1,1729425243542.0,0.0
-2.445465,-5.678168,-10.114462,-8.05,-35.349998,-4.97,1729425243562.0,0.0
-2.349752,-4.912465,-9.990034,-10.22,-22.4,-12.81,1729425243583.0,0.0
-2.679961,-4.572684,-9.781858,-12.53,-12.32,-17.43,1729425243670.0,0.0
-2.471786,-4.505685,-9.547362,-10.36,-15.68,-20.02,1729425243673.0,0.0
-1.993221,-3.739982,-9.224331,-1.4,-18.969999,-17.780001,1729425243673.0,0.0
-1.844866,-2.663212,-8.453842,3.01,-13.23,-13.65,1729425243674.0,0.0
-2.112862,-2.105684,-7.956135,-4.83,-4.9,-8.61,1729425243690.0,0.0
-2.268396,-2.48375,-8.193025,5.67,-7.21,0.35,1729425243713.0,0.0
-2.177469,-1.5003,-7.724032,13.58,-13.3,8.12,1729425243722.0,0.0
-2.37368,-0.942772,-8.343772,-7.84,-12.81,13.86,1729425243743.0,0.0
-2.304288,-2.897708,-9.592826,-24.01,-14.49,12.46,1729425243763.0,0.0
-2.06022,-3.883551,-10.102496,-13.37,-11.97,19.32,1729425243783.0,0.0
-1.964507,-3.318845,-9.425328,11.9,-2.8,23.870001,1729425243803.0,0.0
-2.292324,-2.998207,-8.762517,23.17,8.26,26.110001,1729425243823.0,0.0
-2.62732,-3.457629,-8.281559,21.700001,8.26,25.059999,1729425243846.0,0.0
-2.979064,-3.54377,-8.082954,19.110001,6.09,26.74,1729425243863.0,0.0
-3.60359,-4.024727,-8.195417,6.23,4.34,22.469999,1729425243883.0,0.0
-3.883551,-4.754539,-8.30788,-28.139999,-4.62,8.54,1729425243905.0,0.0
-3.617948,-5.644669,-8.642875,-34.02,-16.309999,-1.54,1729425243923.0,0.0
-3.333202,-5.510671,-8.516055,-28.91,-25.27,-9.38,1729425243943.0,0.0
-3.172883,-4.027121,-8.161918,-15.190001,-31.780001,-16.379999,1729425243962.0,0.0
-3.567699,-3.393023,-7.817351,-9.52,-33.529999,-17.15,1729425243983.0,0.0
-3.871587,-3.761517,-8.102098,-9.03,-38.220001,-15.68,1729425244004.0,0.0
-3.818945,-3.462414,-8.992228,-0.07,-47.529999,-12.95,1729425244022.0,0.0
-3.474378,-2.550749,-9.662218,0.35,-50.959999,-10.29,1729425244043.0,0.0
-3.254239,-2.09372,-9.262616,-16.870001,-47.110001,-6.86,1729425244063.0,0.0
-3.361916,-2.213361,-8.963513,-24.85,-40.389999,-2.73,1729425244082.0,0.0
-3.646662,-1.646262,-8.678767,-5.95,-34.23,5.11,1729425244104.0,0.0
-4.331009,-0.356531,-8.726624,-5.53,-23.450001,10.71,1729425244123.0,0.0
-4.680361,-1.543371,-9.676575,-18.690001,-18.41,10.92,1729425244142.0,0.0
-4.532006,-3.471986,-10.269995,-25.48,-14.91,16.870001,1729425244163.0,0.0
-4.063013,-3.629912,-9.824929,-8.54,-8.26,18.34,1729425244183.0,0.0
-3.914658,-2.715853,-9.473185,11.06,1.05,18.549999,1729425244203.0,0.0
-4.319045,-2.550749,-8.843873,11.34,9.38,15.89,1729425244222.0,0.0
-4.742575,-3.292524,-8.472985,-1.05,14.84,14.91,1729425244244.0,0.0
-4.981857,-3.699304,-8.77448,-6.79,10.43,12.74,1729425244263.0,0.0
-5.048856,-4.022335,-8.635696,-8.75,3.78,7.98,1729425244282.0,0.0
-5.254639,-4.06062,-8.508877,-7.35,3.78,2.1,1729425244303.0,0.0
-5.517848,-3.804588,-8.508877,-2.38,2.52,-4.13,1729425244324.0,0.0
-5.534599,-3.677768,-8.949157,1.4,-3.71,-9.1,1729425244356.0,0.0
-5.216353,-3.48395,-9.300901,2.87,-8.89,-12.18,1729425244369.0,0.0
-4.87418,-2.895315,-9.559326,2.45,-7.7,-12.53,1729425244538.0,0.0
-4.790431,-2.459821,-8.839087,-5.18,-0.77,-14.0,1729425244539.0,0.0
-4.733003,-2.62732,-8.360522,-16.870001,4.41,-15.75,1729425244541.0,0.0
-4.278367,-2.658426,-8.037491,-12.88,-1.47,-14.21,1729425244543.0,0.0
-3.826123,-2.143969,-7.910671,4.34,-5.25,-10.92,1729425244544.0,0.0
-3.706482,-1.265803,-7.563712,-1.12,-4.97,-11.2,1729425244545.0,0.0
-3.613162,-1.629512,-8.338986,-15.89,-5.67,-8.12,1729425244547.0,0.0
-3.326023,-2.189433,-9.138189,-19.32,-7.91,-3.64,1729425244549.0,0.0
-3.036492,-2.608176,-9.513863,-6.79,-4.41,3.15,1729425244550.0,0.0
-3.079563,-2.524428,-9.614362,12.53,6.51,11.2,1729425244562.0,0.0
-3.457629,-2.467,-8.812766,20.299999,16.1,14.42,1729425244581.0,0.0
-3.960121,-2.596212,-7.575676,18.690001,24.360001,15.75,1729425244603.0,0.0
-4.634897,-3.208775,-8.4347,17.57,21.35,17.01,1729425244622.0,0.0
-4.76411,-3.397808,-8.317451,2.8,14.21,7.84,1729425244642.0,0.0
-5.082355,-4.244867,-8.382057,-0.91,11.27,4.41,1729425244662.0,0.0
-5.166104,-4.256832,-8.556733,-1.05,7.91,-5.32,1729425244681.0,0.0
-5.063213,-4.051049,-8.537591,-3.71,2.52,-10.29,1729425244705.0,0.0
-4.632504,-3.555735,-8.492127,-5.74,-4.27,-15.05,1729425244722.0,0.0
-4.555934,-3.172883,-8.60459,-3.01,-5.32,-17.01,1729425244744.0,0.0
-4.742575,-3.201597,-8.688338,-0.07,-3.08,-19.809999,1729425244762.0,0.0
-4.869394,-3.127419,-8.973085,5.74,-2.38,-19.67,1729425244783.0,0.0
-4.680361,-2.775674,-9.334401,3.71,-4.2,-19.67,1729425244807.0,0.0
-4.39083,-2.54357,-9.296116,-7.35,-2.73,-19.389999,1729425244823.0,0.0
-4.232903,-2.411965,-8.556733,-11.76,4.55,-16.450001,1729425244849.0,0.0
-4.130012,-2.091327,-8.645268,9.94,2.94,-9.45,1729425244864.0,0.0
-3.830909,-0.741775,-8.075776,15.33,2.59,-3.5,1729425244884.0,0.0
-3.821337,-0.861416,-8.128418,-5.74,6.02,2.8,1729425244906.0,0.0
-3.383451,-2.837888,-9.243474,-21.0,0.14,3.29,1729425244924.0,0.0
-2.536392,-3.050849,-9.233903,-20.860001,-6.02,5.46,1729425244945.0,0.0
-2.359323,-2.691926,-9.243474,-3.36,-0.35,9.03,1729425244965.0,0.0
-2.845066,-2.605784,-8.640482,-0.7,14.21,6.37,1729425244987.0,0.0
-3.775874,-2.801995,-8.061419,-0.42,21.49,8.89,1729425245005.0,0.0
-4.237689,-3.192025,-8.709875,3.99,14.91,10.71,1729425245025.0,0.0
-4.342973,-3.160919,-8.987441,6.44,8.61,10.78,1729425245045.0,0.0
-4.766503,-3.337988,-9.454042,3.08,12.25,9.24,1729425245064.0,0.0
-5.276174,-3.876373,-9.004191,-2.45,15.96,2.87,1729425245087.0,0.0
-5.321638,-3.979264,-9.257831,-4.41,13.37,-1.82,1729425245109.0,0.0
-4.811966,-3.871587,-9.047262,-4.9,4.62,-5.53,1729425245125.0,0.0
-4.144369,-3.598805,-8.650054,-1.12,-0.42,-9.45,1729425245146.0,0.0
-4.220939,-3.412165,-8.506484,1.05,3.5,-15.68,1729425245166.0,0.0
-4.335794,-3.400201,-8.530413,1.47,3.22,-18.27,1729425245183.0,0.0
-4.225725,-3.376273,-8.427521,0.91,0.42,-19.389999,1729425245211.0,0.0
-3.972085,-3.081956,-8.736196,2.17,-1.96,-19.67,1729425245226.0,0.0
-3.895515,-2.612962,-8.62134,3.43,-1.68,-19.74,1729425245244.0,0.0
-3.893122,-2.682354,-8.683553,-4.48,2.38,-20.02,1729425245264.0,0.0
-3.689733,-2.711068,-8.757731,4.41,1.68,-16.17,1729425245283.0,0.0
-3.371487,-1.572084,-7.795816,20.299999,-1.47,-9.8,1729425245307.0,0.0
-3.172883,-0.571885,-7.709675,14.98,-4.2,-2.52,1729425245325.0,0.0
-2.801995,-1.07677,-8.197811,-11.34,-8.61,0.28,1729425245345.0,0.0
-2.658426,-1.978864,-9.037691,-19.32,-7.56,6.44,1729425245364.0,0.0
-2.579463,-2.232504,-9.659825,-13.86,-3.78,9.59,1729425245384.0,0.0
-2.603391,-2.304288,-9.482756,-7.49,-1.26,15.89,1729425245407.0,0.0
-2.727818,-2.467,-9.047262,4.83,2.66,20.65,1729425245425.0,0.0
-3.254239,-2.45025,-8.169096,13.86,7.35,23.450001,1729425245446.0,0.0
-4.113262,-2.519642,-8.743374,13.58,12.11,24.15,1729425245469.0,0.0
-5.166104,-3.457629,-9.279366,-4.13,12.74,19.67,1729425245486.0,0.0
-5.312066,-4.280759,-9.619147,-9.94,4.97,14.63,1729425245507.0,0.0
-4.957928,-4.287938,-9.413363,-6.09,-0.98,6.86,1729425245524.0,0.0
-4.682754,-4.125226,-9.229117,0.56,0.28,0.07,1729425245544.0,0.0
-4.503292,-3.634698,-9.236296,4.06,0.56,-8.47,1729425245565.0,0.0
-4.354938,-3.220739,-9.018548,3.29,-0.28,-14.0,1729425245583.0,0.0
-4.194618,-3.081956,-8.946764,0.07,-0.14,-16.66,1729425245604.0,0.0
-3.988836,-2.78046,-8.80798,-0.84,0.49,-17.780001,1729425245624.0,0.0
-3.833302,-2.359323,-8.915657,1.89,2.8,-17.01,1729425245646.0,0.0
-3.859623,-2.517249,-8.712267,6.58,6.09,-13.79,1729425245666.0,0.0
-3.582055,-2.270789,-8.178668,4.48,4.9,-12.81,1729425245684.0,0.0
-3.046063,-1.832902,-7.956135,2.45,-0.7,-7.84,1729425245706.0,0.0
-2.538785,-1.06002,-7.920243,-2.24,-4.34,-3.85,1729425245723.0,0.0
-2.620141,-0.87338,-7.913064,-14.07,-0.21,1.61,1729425245745.0,0.0
-2.9336,-1.658226,-9.056834,-23.870001,6.93,5.81,1729425245763.0,0.0
-2.895315,-2.208575,-9.700503,-27.440001,6.93,10.36,1729425245783.0,0.0
-2.596212,-2.524428,-9.611969,-18.34,4.55,15.61,1729425245806.0,0.0
-3.04367,-2.270789,-8.252845,-0.49,15.47,17.43,1729425245824.0,0.0
-4.201797,-2.720639,-8.228917,-5.11,23.379999,14.56,1729425245847.0,0.0
-4.833502,-3.335595,-8.937192,-15.12,16.66,8.89,1729425245868.0,0.0
-4.922036,-3.926622,-9.690931,-18.48,6.79,5.67,1729425245883.0,0.0
-4.926822,-4.283153,-9.379865,-14.98,3.15,-1.33,1729425245905.0,0.0
-4.948357,-4.084548,-9.229117,-12.88,3.85,-8.54,1729425245925.0,0.0
-4.776074,-3.682554,-9.334401,-4.69,0.77,-16.59,1729425245944.0,0.0
-4.555934,-3.156133,-9.432507,0.35,-0.42,-21.210001,1729425245963.0,0.0
-4.287938,-2.847459,-9.401401,2.87,-3.01,-23.799999,1729425245983.0,0.0
-3.833302,-2.667997,-9.499505,-0.07,-2.94,-24.92,1729425246006.0,0.0
-3.675375,-2.409572,-9.420543,2.03,3.22,-24.08,1729425246023.0,0.0
-3.847659,-2.325824,-9.116654,6.37,11.27,-22.049999,1729425246045.0,0.0
-3.646662,-2.26361,-8.662018,4.48,11.27,-20.719999,1729425246064.0,0.0
-3.086741,-1.969293,-8.262416,5.46,4.76,-15.82,1729425246083.0,0.0
-2.376073,-1.414158,-8.4347,6.09,-2.87,-11.83,1729425246105.0,0.0
-1.861616,-0.782453,-8.255238,-0.14,-5.95,-8.33,1729425246123.0,0.0
-2.122434,-0.72024,-9.001799,-2.8,-1.61,-0.21,1729425246144.0,0.0
-2.533999,-1.318445,-9.032906,-13.86,6.16,6.93,1729425246164.0,0.0
-2.787638,-2.033899,-8.82473,-15.68,7.14,13.51,1729425246183.0,0.0
-2.888137,-2.210968,-8.748159,-3.5,3.43,18.48,1729425246204.0,0.0
-3.311667,-2.321038,-8.796017,6.3,6.51,19.74,1729425246223.0,0.0
-4.118048,-2.895315,-9.071191,5.25,10.71,18.690001,1729425246243.0,0.0
-4.802395,-3.548556,-9.657433,-3.01,9.03,15.12,1729425246263.0,0.0
-4.998606,-4.029513,-9.79143,-9.03,0.7,8.75,1729425246284.0,0.0
-4.709075,-4.445865,-9.815358,-9.03,-5.67,0.91,1729425246305.0,0.0
-4.426722,-4.074977,-9.58804,-1.05,-7.49,-8.12,1729425246323.0,0.0
-4.206582,-3.65384,-10.009177,6.93,-6.3,-16.66,1729425246346.0,0.0
-4.091727,-3.278167,-10.325029,12.74,-2.17,-22.190001,1729425246363.0,0.0
-3.897908,-2.397608,-9.946963,11.83,2.87,-23.870001,1729425246382.0,0.0
-3.682554,-2.352145,-9.614362,7.14,5.11,-23.52,1729425246404.0,0.0
-3.311667,-2.87378,-9.030513,4.27,5.81,-24.5,1729425246424.0,0.0
-3.0006,-2.313859,-8.008778,10.5,4.2,-22.82,1729425246444.0,0.0
-2.634498,-1.4668,-8.106883,9.8,-3.08,-22.120001,1729425246463.0,0.0
-2.019542,0.181855,-8.860621,-6.3,-9.66,-23.1,1729425246483.0,0.0
-2.311467,-0.098106,-9.044869,-47.25,1.47,-15.12,1729425246504.0,0.0
-2.455036,-1.217947,-10.191031,-50.959999,6.37,-6.3,1729425246523.0,0.0
-2.411965,-1.411765,-10.159925,-45.290001,13.3,4.69,1729425246543.0,0.0
-2.445465,-1.840081,-10.272388,-22.960001,19.6,17.360001,1729425246562.0,0.0
-2.706282,-1.777867,-9.540184,-1.19,28.280001,25.34,1729425246583.0,0.0
-3.376273,-1.325624,-9.243474,13.65,36.470001,29.82,1729425246605.0,0.0
-4.201797,-1.665405,-9.973285,2.24,38.990002,30.17,1729425246623.0,0.0
-4.309474,-2.974278,-10.030712,-20.299999,30.450001,21.49,1729425246644.0,0.0
-3.962514,-4.292724,-9.994821,-22.33,21.35,17.01,1729425246663.0,0.0
-3.632305,-5.012963,-9.19801,-4.97,19.530001,8.19,1729425246683.0,0.0
-3.718446,-4.855037,-8.492127,23.870001,20.02,-1.26,1729425246704.0,0.0
-3.921836,-4.632504,-7.881958,62.650002,14.14,-6.72,1729425246723.0,0.0
-3.893122,-4.309474,-8.367701,89.599998,3.71,-11.48,1729425246743.0,0.0
-3.952943,-4.211368,-8.740981,96.669998,-1.61,-16.450001,1729425246763.0,0.0
-4.187439,-4.211368,-9.870394,89.739998,0.28,-21.91,1729425246782.0,0.0
-4.474578,-2.715853,-9.10469,49.77,5.46,-31.99,1729425246803.0,0.0
-4.058227,-2.938386,-9.84168,-22.120001,2.87,-53.619999,1729425246824.0,0.0
-2.553142,-4.110869,-9.705289,-112.699997,-15.12,-63.279999,1729425246846.0,0.0
-1.141376,-3.574877,-8.843873,-97.090004,-21.07,-57.82,1729425246862.0,0.0
-0.799203,-3.522235,-10.011569,-0.07,-17.85,-44.52,1729425246883.0,0.0
-0.253639,0.349352,-9.190832,58.66,-3.08,-47.599998,1729425246905.0,0.0
-0.653241,2.727818,-8.800802,61.599998,13.3,-19.809999,1729425246922.0,0.0
-0.787239,0.918844,-9.667004,13.16,13.37,-6.65,1729425246943.0,0.0
-0.12682,-1.26341,-10.15514,-10.85,4.69,6.51,1729425246962.0,0.0
0.043071,-1.292124,-9.482756,4.83,11.69,24.360001,1729425246982.0,0.0
-0.732204,-0.696311,-8.489735,26.880001,29.960001,35.349998,1729425247004.0,0.0
-1.911865,-0.555135,-7.365108,37.170002,40.110001,49.91,1729425247023.0,0.0
-2.95035,-1.866402,-7.384251,40.32,34.23,64.400002,1729425247044.0,0.0
-3.24706,-3.665804,-9.303294,43.259998,18.549999,70.0,1729425247063.0,0.0
-3.144169,-4.802395,-9.403792,56.490002,8.26,71.470001,1729425247083.0,0.0
-3.299703,-5.982057,-8.664411,76.090004,9.8,72.940002,1729425247104.0,0.0
-3.639483,-7.582855,-7.058826,135.309998,13.65,69.160004,1729425247123.0,0.0
-4.12044,-8.370094,-6.029913,210.630005,14.35,64.050003,1729425247143.0,0.0
-3.945765,-8.870193,-5.831308,351.470001,-13.79,67.830002,1729425247163.0,0.0
-3.713661,-9.923036,-7.793423,479.570007,-35.630001,81.480003,1729425247183.0,0.0
-3.859623,-12.3685,-10.035499,635.320007,-48.09,99.959999,1729425247205.0,0.0
-3.962514,-13.832907,-9.834501,748.720032,-27.440001,103.389999,1729425247223.0,0.0
-3.981657,-9.315259,-7.580462,727.859985,12.67,98.349998,1729425247244.0,0.0
-4.706682,-5.773881,-2.912065,669.619995,46.549999,96.110001,1729425247263.0,0.0
-6.128019,-3.835695,2.002793,529.059998,44.799999,78.889999,1729425247283.0,0.0
-7.274181,-4.457829,4.948357,362.529999,29.540001,37.099998,1729425247306.0,0.0
-7.118648,-6.4343,5.139783,238.910004,0.42,7.42,1729425247323.0,0.0
-5.924629,-8.322237,4.651647,172.479996,-43.959999,3.36,1729425247343.0,0.0
-4.091727,-8.008778,5.331209,133.839996,-67.059998,-7.91,1729425247364.0,0.0
-2.794817,-7.389036,5.32403,109.830002,-57.610001,-23.799999,1729425247382.0,0.0
-2.679961,-7.989635,4.67079,98.980003,-45.779999,-23.799999,1729425247403.0,0.0
-1.57687,-7.549356,4.4674,87.57,-33.18,-17.780001,1729425247423.0,0.0
-0.904487,-5.766702,2.658426,50.540001,-3.36,-21.559999,1729425247443.0,0.0
-2.237289,-5.888737,3.249453,59.849998,27.51,-20.65,1729425247463.0,0.0
-4.118048,-5.12782,4.766503,65.660004,41.860001,-20.790001,1729425247482.0,0.0
-4.256832,-4.302295,5.809773,71.889999,46.41,-19.389999,1729425247503.0,0.0
-4.704289,-3.15374,7.020542,51.029999,44.939999,-12.67,1729425247522.0,0.0
-5.158926,-2.567499,8.9348,25.969999,31.780001,-3.85,1729425247542.0,0.0
-4.9675,-2.993421,9.638289,-2.66,13.58,3.71,1729425247562.0,0.0
-5.022535,-4.500899,9.789038,-16.799999,-0.28,14.77,1729425247583.0,0.0
-5.266603,-5.460421,7.963314,-31.639999,-2.8,21.139999,1729425247605.0,0.0
-4.802395,-5.228317,6.518049,-19.460001,-12.88,29.33,1729425247622.0,0.0
-3.919443,-4.962714,6.046663,-0.7,-22.75,35.279999,1729425247643.0,0.0
-3.620341,-3.926622,5.510671,2.87,-8.82,37.939999,1729425247663.0,0.0
-4.666004,-6.396015,5.556134,-7.63,9.52,34.299999,1729425247682.0,0.0
-6.599405,-9.513863,5.168497,-16.1,19.389999,17.5,1729425247704.0,0.0
-7.343572,-9.712467,6.254838,30.59,20.719999,2.24,1729425247723.0,0.0
-7.128219,-6.762117,7.65464,76.860001,22.540001,-11.76,1729425247743.0,0.0
-6.742974,-4.019942,7.802995,83.510002,23.940001,-18.83,1729425247762.0,0.0
-5.864808,-3.59402,7.386643,58.799999,10.85,-18.620001,1729425247782.0,0.0
-5.76431,-4.132405,6.463014,19.040001,4.55,-24.290001,1729425247805.0,0.0
-5.82413,-4.395615,5.656632,8.61,7.98,-29.049999,1729425247822.0,0.0
-4.802395,-3.629912,5.623133,7.07,-0.07,-31.85,1729425247846.0,0.0
-4.26401,-3.448057,5.773881,-9.73,4.9,-31.08,1729425247862.0,0.0
-4.326223,-2.811567,6.680761,-16.66,6.02,-16.450001,1729425247882.0,0.0
-5.216353,-3.29731,7.922636,-23.450001,7.28,2.59,1729425247905.0,0.0
-6.180661,-3.567699,5.692525,-51.450001,14.0,13.37,1729425247923.0,0.0
-5.816952,-2.545963,4.237689,-55.790001,-5.04,35.279999,1729425247943.0,0.0
-3.835695,-2.464607,4.460221,-52.290001,-36.330002,44.59,1729425247962.0,0.0
-2.885744,-3.871587,4.115655,-76.860001,-28.49,44.240002,1729425247982.0,0.0
-3.562913,-7.149754,4.103691,-92.400002,-6.72,49.560001,1729425248003.0,0.0
-5.711668,-11.815758,5.680561,-69.860001,2.66,37.450001,1729425248023.0,0.0
-7.257431,-13.002598,7.664211,-7.7,7.28,22.960001,1729425248043.0,0.0
-7.668997,-10.241282,8.805587,44.099998,10.99,13.16,1729425248062.0,0.0
-6.518049,-6.601797,8.226524,33.389999,0.14,-15.68,1729425248083.0,0.0
-4.481757,-5.06082,7.240681,1.89,-22.120001,-25.200001,1729425248105.0,0.0
-3.881158,-5.584848,7.149754,-14.35,-20.719999,-23.450001,1729425248122.0,0.0
-5.572884,-5.766702,5.936593,-16.309999,0.7,-38.5,1729425248143.0,0.0
-4.558327,-3.651447,6.597012,28.630001,-7.91,-38.150002,1729425248162.0,0.0
-2.553142,-2.476572,8.015956,44.450001,-35.349998,-33.25,1729425248182.0,0.0
-1.986043,-1.344766,6.398407,3.92,-14.98,-21.0,1729425248204.0,0.0
-2.249253,-2.021935,5.041678,-38.220001,2.1,-4.27,1729425248222.0,0.0
-3.479164,-3.706482,5.139783,-66.709999,7.28,10.29,1729425248242.0,0.0
-5.364708,-7.343572,5.65424,-45.990002,14.77,5.39,1729425248262.0,0.0
-6.606583,-7.405786,5.740381,-0.56,31.219999,3.64,1729425248281.0,0.0
-5.536992,-3.330809,5.953342,52.849998,16.309999,28.559999,1729425248303.0,0.0
-3.617948,-1.119841,6.398407,52.639999,-9.45,35.560001,1729425248322.0,0.0
-2.656033,-1.574477,4.725825,-0.56,-1.68,39.27,1729425248342.0,0.0
-4.07737,-5.690133,5.733203,-48.23,18.9,49.91,1729425248363.0,0.0
-7.499106,-10.250853,6.489335,-41.439999,33.880001,52.150002,1729425248382.0,0.0
-9.678967,-11.483156,8.118847,8.75,32.41,39.060001,1729425248403.0,0.0
-9.288938,-10.779665,8.985049,45.360001,0.63,16.1,1729425248423.0,0.0
-6.963113,-9.171689,7.288538,15.47,-24.43,-27.09,1729425248442.0,0.0
-4.108476,-7.386643,6.642475,13.02,-42.0,-30.52,1729425248461.0,0.0
-2.737389,-4.271189,6.285945,23.309999,-31.08,-26.389999,1729425248482.0,0.0
-5.572884,-5.276174,6.049056,17.219999,14.14,-40.880001,1729425248505.0,0.0
-6.668797,-5.259424,6.084948,32.130001,2.45,-36.889999,1729425248522.0,0.0
-4.383651,-3.515057,6.080163,54.529999,-32.27,-31.92,1729425248542.0,0.0
-2.63689,-2.299503,6.211767,30.52,-30.380001,-32.200001,1729425248562.0,0.0
-2.892922,-2.222932,4.996214,-14.35,-1.54,-21.42,1729425248582.0,0.0
-4.275974,-2.378466,4.376472,-44.799999,22.68,-15.26,1729425248674.0,0.0
-5.079963,-2.768496,5.283352,-28.210001,17.219999,6.3,1729425248682.0,0.0
-5.302495,-3.907479,6.367301,-7.56,10.78,8.26,1729425248683.0,0.0
-5.85763,-4.584648,6.206983,-1.68,22.33,10.85,1729425248684.0,0.0
-5.532206,-3.333202,5.905487,0.28,15.26,24.92,1729425248684.0,0.0
-4.127619,-2.304288,5.891129,-8.54,-3.5,35.560001,1729425248703.0,0.0
-3.471986,-4.084548,5.474778,-32.830002,0.35,42.0,1729425248722.0,0.0
-5.115855,-7.243074,5.218746,-54.880001,19.950001,41.16,1729425248742.0,0.0
-7.929814,-10.870593,6.362515,-20.370001,33.389999,42.630001,1729425248761.0,0.0
-8.65484,-10.375278,7.343572,21.91,23.73,24.92,1729425248781.0,0.0
-7.757531,-9.734003,8.575876,42.91,0.28,-0.28,1729425248804.0,0.0
-4.881358,-7.343572,7.326823,17.710001,-12.46,-33.740002,1729425248823.0,0.0
-3.799802,-5.501099,7.367501,19.040001,-19.67,-26.880001,1729425248845.0,0.0
-4.859823,-5.915058,7.49432,22.889999,0.7,-31.780001,1729425248862.0,0.0
-6.719046,-5.017749,5.970093,21.84,18.690001,-39.689999,1729425248881.0,0.0
-6.297909,-4.06062,6.13759,44.799999,-11.2,-30.52,1729425248903.0,0.0
-3.962514,-2.443072,5.867201,33.670002,-32.900002,-38.009998,1729425248923.0,0.0
-3.524628,-2.285146,5.072784,-0.14,-15.68,-29.75,1729425248942.0,0.0
-4.108476,-3.26381,4.924429,-40.389999,6.93,-27.93,1729425248961.0,0.0
-4.599005,-3.371487,5.28096,-43.470001,8.54,-16.450001,1729425248981.0,0.0
-4.759324,-3.799802,7.097112,1.68,5.88,6.58,1729425249003.0,0.0
-5.259424,-3.613162,7.365108,11.97,18.9,5.39,1729425249022.0,0.0
-5.938986,-3.634698,7.123433,4.06,18.969999,11.97,1729425249042.0,0.0
-5.149354,-2.541178,7.077969,-8.96,-2.59,22.68,1729425249062.0,0.0
-2.971886,-1.931008,5.833702,-24.85,-23.450001,28.84,1729425249081.0,0.0
-1.911865,-3.249453,4.237689,-43.400002,-18.41,45.009998,1729425249105.0,0.0
-2.804388,-6.020342,5.036892,-53.549999,5.46,49.349998,1729425249122.0,0.0
-5.740381,-8.580662,6.592227,-23.73,32.830002,52.849998,1729425249142.0,0.0
-15.239887,-7.700103,6.352944,11.34,41.09,48.650002,1729425249162.0,0.0
-2.524428,-7.116255,9.377472,36.049999,-73.150002,-24.780001,1729425249181.0,0.0
-3.471986,-10.19821,7.21436,-65.449997,-60.27,48.09,1729425249204.0,0.0
-3.969693,-7.573284,6.216553,-17.92,2.59,-44.029999,1729425249222.0,0.0
-6.45105,-7.704889,6.405586,27.02,34.720001,-19.950001,1729425249243.0,0.0
-8.152347,-5.656632,5.737988,41.860001,37.66,-33.25,1729425249263.0,0.0
-7.568498,-3.680161,6.412765,71.82,5.74,-28.84,1729425249282.0,0.0
-4.998606,-1.837688,6.290731,46.619999,-27.440001,-29.190001,1729425249302.0,0.0
-3.395415,-1.87358,6.302694,7.35,-25.48,-28.35,1729425249321.0,0.0
-4.067799,-2.945565,5.211568,-33.599998,1.47,-15.4,1729425249350.0,0.0
-5.271388,-3.481557,5.206782,-36.68,16.66,-7.7,1729425249363.0,0.0
-5.685347,-4.163511,7.022934,-8.33,7.07,2.1,1729425249386.0,0.0
-5.704489,-4.630112,7.463214,2.73,4.83,0.91,1729425249402.0,0.0
-5.635098,-4.517649,6.977471,9.73,6.86,7.98,1729425249422.0,0.0
-4.800002,-3.141776,6.235696,1.47,-1.54,16.17,1729425249443.0,0.0
-3.20399,-3.005385,4.728218,-20.719999,-14.42,19.809999,1729425249462.0,0.0
-2.596212,-4.407579,3.476771,-41.509998,1.12,30.24,1729425249482.0,0.0
-4.575077,-6.24766,5.525027,-10.64,29.4,41.860001,1729425249504.0,0.0
-7.063612,-8.200203,7.520642,11.9,41.439999,27.299999,1729425249523.0,0.0
-9.001799,-10.657632,8.805587,23.799999,29.4,16.24,1729425249542.0,0.0
-8.327023,-8.963513,7.647461,17.639999,2.59,-7.63,1729425249562.0,0.0
-5.472386,-5.953342,7.034898,17.15,-28.49,-18.129999,1729425249582.0,0.0
-3.89073,-5.221139,6.568298,-0.42,-28.91,-18.9,1729425249603.0,0.0
-5.611169,-6.632904,6.518049,-10.43,-0.42,-30.73,1729425249623.0,0.0
-7.762317,-6.848258,6.896115,15.4,14.56,-35.98,1729425249643.0,0.0
-6.321837,-3.665804,6.84108,49.700001,-9.17,-30.870001,1729425249662.0,0.0
-4.201797,-2.541178,8.073383,43.189999,-26.040001,-28.98,1729425249683.0,0.0
-3.546163,-2.292324,6.173482,-16.59,-9.52,-23.870001,1729425249705.0,0.0
-4.752146,-3.701697,5.345565,-56.139999,9.59,-20.440001,1729425249724.0,0.0
-5.793024,-3.95055,5.139783,-48.439999,8.05,-6.93,1729425249743.0,0.0
-5.551349,-4.809574,6.539584,-1.75,-2.24,-6.09,1729425249774.0,0.0
-5.489135,-4.768896,6.977471,12.53,0.49,-0.91,1729425249783.0,0.0
-4.694718,-3.378666,6.54437,17.290001,-5.53,8.47,1729425249804.0,0.0
-3.507878,-2.811567,6.364908,0.28,-16.17,11.2,1729425249825.0,0.0
-2.438286,-2.727818,4.603791,-31.01,-18.83,20.790001,1729425249847.0,0.0
-2.048256,-3.218346,2.943172,-38.920002,-3.78,33.810001,1729425249863.0,0.0
-2.620141,-5.529813,4.905287,-26.530001,12.11,33.18,1729425249883.0,0.0
-5.201996,-7.814958,6.185446,-10.57,33.18,30.59,1729425249905.0,0.0
-7.805387,-9.315259,7.767102,35.209999,43.610001,36.400002,1729425249923.0,0.0
-8.389235,-8.84148,9.35833,64.610001,24.639999,24.01,1729425249944.0,0.0
-7.939385,-7.424929,9.193225,41.509998,3.78,-7.56,1729425249963.0,0.0
-6.608976,-5.826523,7.678568,13.02,-15.33,-18.690001,1729425249983.0,0.0
-5.71406,-5.355137,7.200003,-4.83,-21.49,-23.940001,1729425250005.0,0.0
-6.687939,-6.506085,6.601797,-11.34,-10.85,-37.380001,1729425250023.0,0.0
-6.594619,-5.99402,5.919843,19.67,-13.58,-41.650002,1729425250044.0,0.0
-4.61097,-3.055635,6.625726,61.25,-20.58,-25.9,1729425250069.0,0.0
-4.082155,-2.550749,6.520442,49.91,-10.43,-26.110001,1729425250084.0,0.0
-5.063213,-2.184647,6.546762,-16.52,12.04,-22.33,1729425250106.0,0.0
-5.166104,-1.847259,6.156733,-35.349998,-7.07,0.35,1729425250123.0,0.0
-4.943572,-4.132405,6.812366,-30.66,-21.84,5.95,1729425250143.0,0.0
-5.453243,-5.388636,6.759724,-26.460001,-12.95,2.66,1729425250163.0,0.0
-5.221139,-4.407579,6.101698,-0.28,-10.36,15.61,1729425250184.0,0.0
-3.548556,-3.04367,6.374479,8.89,-27.790001,17.5,1729425250205.0,0.0
-1.974079,-2.395216,5.283352,-19.32,-34.650002,20.719999,1729425250223.0,0.0
-1.74676,-3.120241,3.61077,-41.860001,-15.05,34.650002,1729425250244.0,0.0
-2.790031,-5.20439,4.232903,-46.060001,4.83,34.790001,1729425250263.0,0.0
-5.546563,-7.525427,6.022735,-11.76,29.75,41.720001,1729425250283.0,0.0
-7.963314,-8.9683,7.757531,21.98,35.84,32.759998,1729425250305.0,0.0
-8.762517,-10.506885,8.896514,37.73,13.3,9.17,1729425250323.0,0.0
-7.099504,-8.535198,8.16431,24.290001,-14.77,-15.89,1729425250343.0,0.0
-5.048856,-6.362515,7.156933,12.53,-24.290001,-23.940001,1729425250364.0,0.0
-5.398208,-6.23091,6.396015,-4.83,-7.91,-35.630001,1729425250383.0,0.0
-7.008578,-6.106483,5.769095,5.18,9.17,-43.82,1729425250404.0,0.0
-5.304887,-2.476572,7.135397,45.849998,0.42,-38.290001,1729425250423.0,0.0
-4.256832,-1.818545,7.618747,42.91,-8.89,-34.790001,1729425250444.0,0.0
-4.414758,-1.749153,7.147361,4.34,4.9,-24.780001,1729425250464.0,0.0
-4.821537,-1.371087,6.728617,-20.23,4.97,-4.13,1729425250483.0,0.0
-4.570292,-2.342573,6.836295,-27.860001,-7.63,12.88,1729425250504.0,0.0
-4.716253,-4.572684,6.89133,-35.630001,-10.01,8.61,1729425250523.0,0.0
-5.417351,-5.721239,6.853044,-23.52,-2.17,13.65,1729425250544.0,0.0
-4.902894,-4.271189,6.326623,-5.74,-4.27,20.02,1729425250564.0,0.0
-3.37388,-3.424129,6.333801,-1.4,-20.65,21.629999,1729425250583.0,0.0
-1.978864,-2.840281,5.07757,-24.08,-23.17,28.139999,1729425250606.0,0.0
-1.880759,-4.508078,4.326223,-36.330002,-2.03,42.700001,1729425250623.0,0.0
-3.558127,-5.130211,4.089334,-41.09,22.889999,44.52,1729425250644.0,0.0
-6.702296,-7.003791,6.192625,4.48,60.27,64.889999,1729425250663.0,0.0
-8.324631,-8.798409,7.312466,12.74,55.02,36.259998,1729425250683.0,0.0
-7.970492,-10.616954,6.549156,-9.38,15.12,2.73,1729425250714.0,0.0
-5.639884,-8.535198,5.493921,1.47,-8.05,-8.4,1729425250724.0,0.0
-5.45085,-6.38405,5.742774,24.08,10.43,-13.93,1729425250744.0,0.0
-9.425328,-6.89133,5.986843,37.799999,43.189999,-30.940001,1729425250763.0,0.0
-8.281559,-3.917051,6.407979,72.870003,15.89,-48.790001,1729425250783.0,0.0
-5.723632,-1.538585,8.477771,69.019997,-17.5,-45.709999,1729425250806.0,0.0
-4.718646,-2.026721,7.908278,24.360001,-7.35,-41.860001,1729425250824.0,0.0
-6.156733,-2.74696,7.716853,-4.76,13.79,-28.210001,1729425250847.0,0.0
-6.259624,-2.445465,7.13779,-9.38,7.63,-19.110001,1729425250862.0,0.0
-5.053641,-3.318845,7.769495,-34.299999,-13.86,-25.76,1729425250883.0,0.0
-4.299902,-4.651647,6.367301,-52.360001,-21.0,-16.17,1729425250905.0,0.0
-5.029713,-6.096912,6.223732,-33.529999,-2.59,-2.03,1729425250923.0,0.0
-5.168497,-4.17069,5.410172,-18.549999,9.31,-11.2,1729425250943.0,0.0
-4.048656,-2.526821,5.67099,-5.67,-6.3,-2.45,1729425250963.0,0.0
-2.091327,-1.85683,5.187639,-13.79,-21.700001,2.8,1729425250982.0,0.0
-1.548156,-2.17029,5.101498,-19.74,-8.47,22.120001,1729425251004.0,0.0
-2.866602,-3.354738,5.759524,-11.48,19.530001,38.009998,1729425251023.0,0.0
-5.659025,-5.072784,7.365108,-6.65,50.400002,47.18,1729425251043.0,0.0
-7.582855,-8.317451,8.126025,-19.879999,47.110001,33.25,1729425251062.0,0.0
-8.638089,-11.370694,8.025528,-55.580002,16.59,7.56,1729425251083.0,0.0
-6.73101,-9.736395,7.877172,-51.73,-17.780001,-20.65,1729425251105.0,0.0
-5.314459,-6.618547,6.168696,-33.670002,-21.07,-26.6,1729425251123.0,0.0
-6.446264,-6.582655,5.000999,-13.58,-1.4,-26.880001,1729425251145.0,0.0
-7.479963,-6.814759,5.312066,11.06,-3.5,-43.330002,1729425251163.0,0.0
-5.898308,-4.551149,6.017949,52.709999,-24.57,-39.41,1729425251183.0,0.0
-4.802395,-4.141976,8.154739,59.010002,-30.380001,-35.98,1729425251206.0,0.0
-4.362115,-2.991028,6.695118,7.91,-15.61,-39.619999,1729425251223.0,0.0
-4.445865,-1.713261,5.864808,-11.62,-10.15,-14.0,1729425251243.0,0.0
-4.493721,-1.258625,5.252246,-20.370001,-9.24,1.96,1729425251262.0,0.0
-4.285545,-3.318845,5.888737,-29.120001,-10.36,-3.99,1729425251283.0,0.0
-4.974678,-4.496114,5.553742,-33.389999,1.33,-0.07,1729425251304.0,0.0
-5.4676,-4.634897,5.948557,-2.66,11.2,11.83,1729425251323.0,0.0
-4.962714,-3.215954,6.096912,17.290001,7.14,12.95,1729425251343.0,0.0
-3.756732,-2.952743,6.393622,8.61,-0.56,17.5,1729425251362.0,0.0
-3.024528,-4.086941,5.927022,-24.360001,-3.15,23.379999,1729425251391.0,0.0
-3.78066,-5.687739,4.06062,-52.220001,10.01,31.710001,1729425251403.0,0.0
-5.816952,-7.843673,4.73061,-48.860001,22.540001,29.469999,1729425251422.0,0.0
-6.798009,-8.420342,5.630312,12.53,19.530001,38.290001,1729425251446.0,0.0
-7.049256,-9.743573,6.491727,25.76,17.99,9.8,1729425251463.0,0.0
-6.049056,-9.111869,6.04427,15.33,-4.06,-20.16,1729425251484.0,0.0
-4.668397,-7.73121,6.329016,17.43,-18.41,-15.89,1729425251505.0,0.0
-4.589434,-6.551548,6.173482,10.43,-9.45,-19.32,1729425251523.0,0.0
-6.4343,-7.121039,5.836094,5.39,15.54,-25.620001,1729425251544.0,0.0
-8.142776,-7.329216,5.52742,10.22,23.450001,-35.84,1729425251563.0,0.0
-7.329216,-5.85763,5.314459,34.720001,0.91,-40.599998,1729425251584.0,0.0
-5.283352,-4.98425,6.553941,40.950001,-14.91,-50.189999,1729425251606.0,0.0
-4.503292,-3.333202,5.15414,12.6,1.47,-43.75,1729425251624.0,0.0
-5.539384,-3.282953,6.778866,11.69,23.450001,-32.34,1729425251644.0,0.0
-5.711668,-2.11047,6.819544,9.66,23.940001,-24.57,1729425251663.0,0.0
-4.800002,-2.134398,7.173682,3.22,8.05,-14.49,1729425251684.0,0.0
-4.146761,-3.505485,7.192825,-15.82,-2.1,-12.04,1729425251705.0,0.0
-4.465007,-5.029713,6.151947,-24.92,4.34,-3.15,1729425251724.0,0.0
-3.859623,-3.369094,5.915058,-1.75,2.59,10.43,1729425251744.0,0.0
-2.610569,-2.019542,6.049056,8.82,-10.43,21.49,1729425251764.0,0.0
-1.710868,-1.689333,5.699703,-9.03,-10.85,31.99,1729425251784.0,0.0
-1.926222,-2.938386,4.481757,-29.82,5.81,47.950001,1729425251806.0,0.0
-4.139583,-6.704689,5.472386,-39.27,28.91,60.27,1729425251826.0,0.0
-7.69771,-9.688539,5.958128,-29.33,49.560001,47.389999,1729425251849.0,0.0
-9.138189,-10.705488,5.558527,9.66,34.23,40.459999,1729425251865.0,0.0
-10.162319,-8.202596,6.84108,54.459999,-31.57,0.84,1729425251884.0,0.0
-1.859223,-8.518449,7.204789,4.76,-85.400002,45.43,1729425251915.0,0.0
-2.935993,-6.415157,6.573084,-9.38,-13.79,4.13,1729425251925.0,0.0
-5.374279,-4.376472,6.472585,9.45,32.41,-9.1,1729425251945.0,0.0
-6.204589,-3.316452,6.111269,6.79,38.009998,20.09,1729425251966.0,0.0
-7.298109,-2.268396,6.489335,13.3,39.130001,17.92,1729425251985.0,0.0
-8.221739,-1.861616,7.202396,-6.23,26.110001,21.07,1729425252006.0,0.0
-8.355737,-2.737389,8.372486,-37.240002,4.27,29.540001,1729425252024.0,0.0
-8.750552,-4.031906,8.16431,-89.389999,-16.1,24.710001,1729425252046.0,0.0
-9.092726,-5.493921,7.144968,-114.800003,-25.27,23.309999,1729425252064.0,0.0
-9.164511,-6.735795,6.644868,-156.800003,-36.540001,2.73,1729425252084.0,0.0
-8.705089,-7.159326,5.261817,-218.190002,-50.82,-21.98,1729425252111.0,0.0
-7.73121,-7.635497,3.732803,-278.950012,-71.82,-33.040001,1729425252124.0,0.0
-6.350551,-9.990034,1.395016,-304.920013,-106.68,-40.389999,1729425252145.0,0.0
-4.893322,-11.487941,1.452443,-298.410004,-137.690002,-40.599998,1729425252165.0,0.0
-3.409772,-11.633904,1.799403,-265.649994,-142.520004,-43.330002,1729425252184.0,0.0
-2.210968,-12.30868,-0.753739,-109.480003,-84.349998,-48.720001,1729425252205.0,0.0
-0.835095,-11.767902,-1.861616,22.190001,-13.65,-70.699997,1729425252226.0,0.0
-1.129412,-8.638089,0.521635,10.22,7.56,-85.68,1729425252245.0,0.0
-1.088734,-6.297909,0.078963,-28.77,13.65,-85.889999,1729425252265.0,0.0
-1.158126,-6.297909,0.306281,-35.0,38.009998,-58.799999,1729425252286.0,0.0
-1.282553,-6.412765,0.504886,-33.599998,55.23,-46.130001,1729425252306.0,0.0
-1.452443,-6.719046,0.112463,-22.82,64.190002,-41.16,1729425252326.0,0.0
-1.785046,-6.314659,0.174676,1.19,72.519997,-23.24,1729425252346.0,0.0
-2.672783,-6.874579,2.203789,33.810001,74.269997,-5.46,1729425252365.0,0.0
-2.778067,-5.644669,3.696911,49.349998,58.799999,12.11,1729425252386.0,0.0
-3.07717,-5.242674,4.579862,92.540001,36.119999,46.689999,1729425252406.0,0.0
-3.041277,-3.921836,4.898108,89.599998,20.299999,53.130001,1729425252425.0,0.0
-3.728018,-3.282953,5.113462,58.170002,21.139999,62.439999,1729425252445.0,0.0
-5.108676,-4.376472,6.032306,10.99,20.09,66.639999,1729425252465.0,0.0
-6.017949,-5.333601,3.09392,-78.190002,10.99,63.630001,1729425252485.0,0.0
-7.52782,-9.968499,-0.256032,-147.559998,14.91,62.720001,1729425252506.0,0.0
-10.473385,-15.656239,-1.028914,-138.809998,8.61,54.18,1729425252525.0,0.0
-10.040283,-16.364515,-0.698704,-17.92,34.16,50.470001,1729425252545.0,0.0
-9.408579,-11.040483,1.402194,83.440002,5.11,39.130001,1729425252565.0,0.0
-8.202596,-7.190433,2.878566,79.519997,-10.08,16.870001,1729425252585.0,0.0
-8.394022,-8.499306,3.972085,16.379999,-17.92,-12.95,1729425252606.0,0.0
-7.592427,-8.9348,3.641876,-63.630001,2.17,-38.990002,1729425252625.0,0.0
-7.018148,-11.014162,1.031307,-79.519997,0.84,-46.970001,1729425252646.0,0.0
-5.257031,-10.236496,1.574477,-68.529999,-16.450001,-57.049999,1729425252665.0,0.0
-4.17069,-9.523434,2.428715,-57.400002,-19.389999,-50.330002,1729425252684.0,0.0
-3.282953,-8.568698,1.682154,-66.43,8.54,-64.190002,1729425252707.0,0.0
-2.976671,-8.451449,1.706082,-47.32,11.62,-59.080002,1729425252725.0,0.0
-2.254039,-7.944171,2.232504,-6.23,-0.7,-43.400002,1729425252745.0,0.0
-1.651048,-6.850651,3.232704,41.650002,-14.14,-25.549999,1729425252765.0,0.0
-1.567299,-6.489335,4.350152,71.75,-21.280001,-11.69,1729425252784.0,0.0
-1.557728,-4.658825,3.601198,57.540001,-12.18,-3.22,1729425252807.0,0.0
-1.361516,-2.177469,2.730211,38.639999,-6.37,24.710001,1729425252825.0,0.0
-0.782453,-1.540978,1.519442,7.56,-24.219999,51.029999,1729425252851.0,0.0
-0.868595,-4.328616,0.148355,-47.599998,-25.690001,57.400002,1729425252864.0,0.0
-2.361716,-8.341379,0.392423,-86.590004,15.68,55.299999,1729425252885.0,0.0
-5.178068,-12.425928,0.349352,-76.019997,47.529999,53.34,1729425252906.0,0.0
-7.405786,-13.146168,-2.045863,-60.200001,60.34,49.07,1729425252925.0,0.0
-8.719445,-14.196616,-3.570091,-36.610001,56.77,48.720001,1729425252946.0,0.0
-8.834301,-15.428921,-2.804388,-7.21,42.209999,14.49,1729425252965.0,0.0
-8.831908,-15.838093,0.210568,59.360001,25.83,-11.62,1729425252984.0,0.0
-8.456236,-13.150953,2.988636,129.360001,12.04,-17.290001,1729425253006.0,0.0
-8.415558,-7.513463,2.596212,118.790001,17.15,-31.780001,1729425253025.0,0.0
-7.673782,-6.4343,1.663012,46.619999,5.53,-65.379997,1729425253046.0,0.0
-5.491528,-6.333801,0.770489,16.17,-29.26,-73.220001,1729425253065.0,0.0
-3.395415,-7.039684,2.105684,17.01,-53.830002,-62.09,1729425253084.0,0.0
-2.024328,-6.836295,3.464807,16.309999,-46.830002,-49.98,1729425253106.0,0.0
-1.730011,-5.702096,4.237689,30.870001,-21.07,-36.610001,1729425253125.0,0.0
-1.744368,-4.297509,4.457829,43.259998,-14.14,-18.76,1729425253145.0,0.0
-2.005185,-4.041477,3.787838,23.59,-16.66,-0.98,1729425253164.0,0.0
-2.215754,-4.21376,2.813959,-19.110001,-10.15,12.18,1729425253185.0,0.0
-2.019542,-3.620341,1.509871,-44.59,-4.13,28.210001,1729425253205.0,0.0
-1.715654,-3.519842,1.103091,-41.580002,-11.27,51.939999,1729425253225.0,0.0
-2.641676,-6.257231,0.988236,-30.309999,-9.52,69.510002,1729425253245.0,0.0
-4.632504,-9.212367,2.15354,-28.559999,21.07,61.740002,1729425253264.0,0.0
-7.054041,-10.925629,1.052842,-25.48,45.57,72.379997,1729425253284.0,0.0
-8.410772,-9.918249,-1.883151,-59.43,49.98,66.639999,1729425253306.0,0.0
-9.159724,-12.358929,-2.495714,-90.580002,37.59,38.779999,1729425253325.0,0.0
-8.740981,-15.345171,-3.479164,-92.75,29.4,-1.82,1729425253345.0,0.0
-7.752745,-16.855042,1.940579,-6.37,9.45,-18.27,1729425253365.0,0.0
-7.65464,-12.954741,3.59402,130.970001,7.14,-27.51,1729425253385.0,0.0
-7.946564,-8.879765,2.739782,106.400002,31.219999,-50.400002,1729425253406.0,0.0
-7.319644,-6.592227,1.768296,34.23,14.63,-74.059998,1729425253432.0,0.0
-4.910072,-6.484549,0.98345,3.64,-32.549999,-80.919998,1729425253445.0,0.0
-2.299503,-7.384251,1.945365,15.33,-64.120003,-63.84,1729425253467.0,0.0
-0.803988,-6.996613,3.15374,31.219999,-55.439999,-48.299999,1729425253485.0,0.0
-0.868595,-5.793024,4.342973,44.52,-16.030001,-41.09,1729425253506.0,0.0
-1.469193,-3.783052,4.522435,46.689999,5.46,-28.210001,1729425253524.0,0.0
-1.519442,-3.079563,4.74736,31.01,-13.37,-4.55,1729425253545.0,0.0
-1.253839,-3.871587,3.596412,-11.06,-27.93,13.58,1729425253564.0,0.0
-1.48355,-5.103891,2.309074,-49.700001,-11.97,23.17,1729425253584.0,0.0
-1.938186,-4.9675,1.567299,-51.799999,5.6,39.619999,1729425253680.0,0.0
-2.232504,-5.687739,1.378266,-26.460001,-3.78,60.970001,1729425253701.0,0.0
-3.287738,-7.623533,2.902494,-12.95,-1.61,68.32,1729425253707.0,0.0
-4.898108,-7.427321,2.160719,-27.370001,20.23,75.879997,1729425253708.0,0.0
-6.932007,-8.480164,0.066999,-22.540001,39.619999,93.099998,1729425253710.0,0.0
-8.614161,-10.121639,-2.117648,-70.419998,45.290001,64.260002,1729425253716.0,0.0
-9.135797,-13.844872,-2.840281,-84.559998,33.25,33.810001,1729425253727.0,0.0
-9.032906,-15.907485,-1.445265,-61.32,35.630001,6.09,1729425253745.0,0.0
-8.874979,-16.297516,1.622334,28.07,22.4,-8.19,1729425253765.0,0.0
-8.927622,-13.552947,2.464607,90.93,23.309999,-20.299999,1729425253785.0,0.0
-8.827123,-10.581062,1.65344,79.590004,35.700001,-45.709999,1729425253807.0,0.0
-8.094919,-8.16431,0.973879,27.09,24.710001,-71.75,1729425253826.0,0.0
-6.180661,-7.518249,0.375673,-7.63,-6.51,-84.489998,1729425253850.0,0.0
-3.988836,-7.79103,1.45005,24.5,-38.57,-74.830002,1729425253865.0,0.0
-2.24686,-6.872187,3.163311,83.790001,-54.389999,-47.880001,1729425253886.0,0.0
-1.67019,-4.661219,5.06082,114.169998,-36.330002,-30.309999,1729425253908.0,0.0
-2.117648,-3.383451,6.58744,97.790001,-14.0,-23.799999,1729425253926.0,0.0
-3.07717,-3.37388,5.132604,38.220001,-7.0,-12.53,1729425253946.0,0.0
-2.938386,-3.845266,3.369094,-20.65,-12.25,3.78,1729425253967.0,0.0
-1.380659,-4.185047,2.268396,-54.25,-41.09,28.07,1729425253986.0,0.0
-0.933201,-4.455436,1.87358,-61.880001,-31.5,47.389999,1729425254007.0,0.0
-2.22054,-7.207181,2.11047,-50.540001,-6.44,57.189999,1729425254028.0,0.0
-4.125226,-8.128418,1.469193,-41.16,25.27,51.59,1729425254046.0,0.0
-6.23091,-7.338787,0.172283,-1.54,41.369999,86.940002,1729425254066.0,0.0
-8.25763,-8.733803,0.827917,6.51,34.02,86.800003,1729425254088.0,0.0
-9.454042,-11.124231,-0.847059,-48.580002,34.860001,54.599998,1729425254107.0,0.0
-9.844072,-13.825729,-2.725425,-92.889999,38.290001,14.77,1729425254128.0,0.0
-8.657232,-13.971692,-1.852045,-74.410004,20.440001,-10.15,1729425254152.0,0.0
-7.613962,-15.141781,2.371287,14.0,-8.89,-30.380001,1729425254167.0,0.0
-7.243074,-14.103296,2.548356,51.59,4.13,-40.740002,1729425254189.0,0.0
-7.384251,-11.152946,1.708475,49.630001,28.35,-56.84,1729425254208.0,0.0
-7.283752,-8.915657,1.933401,20.02,26.32,-80.709999,1729425254227.0,0.0
-5.998806,-7.642675,0.552742,-26.389999,6.65,-90.580002,1729425254249.0,0.0
-3.495914,-7.700103,1.555335,-31.639999,-18.129999,-86.029999,1729425254268.0,0.0
-2.266003,-7.424929,3.010171,52.779999,-36.400002,-55.23,1729425254286.0,0.0
-1.787439,-5.572884,4.321437,78.260002,-23.309999,-41.439999,1729425254308.0,0.0
-2.074577,-3.491128,5.374279,76.300003,-10.5,-27.440001,1729425254335.0,0.0
-2.517249,-3.177669,5.503492,46.549999,-15.75,-7.84,1729425254350.0,0.0
-2.715853,-3.878766,3.960121,-20.02,-23.450001,5.88,1729425254457.0,0.0
-2.608176,-4.974678,1.785046,-74.900002,-20.790001,13.440001,1729425254458.0,0.0
-2.26361,-5.546563,0.488136,-79.449997,-17.57,28.77,1729425254460.0,0.0
-2.158326,-5.986843,-0.155533,-56.560001,-22.26,48.369999,1729425254462.0,0.0
-2.945565,-7.429714,-0.081356,-30.24,-10.36,58.73,1729425254463.0,0.0
-4.795217,-8.906086,0.746561,-13.86,16.030001,62.16,1729425254466.0,0.0
-6.783652,-9.891929,0.303888,8.12,33.32,70.07,1729425254487.0,0.0
-8.037491,-10.305886,-0.346959,1.05,38.920002,61.110001,1729425254512.0,0.0
-8.319844,-11.921042,-0.976272,-32.689999,32.200001,28.559999,1729425254528.0,0.0
-7.573284,-12.698709,-1.409373,-54.110001,22.26,-0.21,1729425254546.0,0.0
-6.80758,-14.378471,0.650848,-2.1,5.04,-18.059999,1729425254567.0,0.0
-6.355337,-13.981262,3.081956,66.290001,-3.85,-25.620001,1729425254586.0,0.0
-7.087541,-9.578469,2.87378,68.529999,15.61,-31.85,1729425254606.0,0.0
-7.030113,-7.788638,1.251446,-10.78,24.99,-66.220001,1729425254626.0,0.0
-5.79781,-8.470592,0.674776,-39.900002,-3.99,-75.459999,1729425254646.0,0.0
-4.015156,-9.626326,1.909473,-14.84,-34.93,-68.879997,1729425254666.0,0.0
-2.548356,-8.267202,2.806781,25.620001,-38.849998,-52.849998,1729425254686.0,0.0
-2.313859,-5.828916,4.228118,55.299999,-21.700001,-36.75,1729425254706.0,0.0
-2.282753,-3.881158,4.144369,55.09,-13.51,-23.309999,1729425254727.0,0.0
-2.333002,-4.144369,4.539185,37.170002,-23.799999,-3.99,1729425254747.0,0.0
-2.474179,-5.405386,3.598805,-3.71,-21.77,5.39,1729425254767.0,0.0
-2.404787,-5.350351,2.069792,-27.790001,-9.17,14.0,1729425254786.0,0.0
-1.938186,-4.603791,1.380659,-18.620001,-15.89,37.380001,1729425254812.0,0.0
-1.698904,-5.190032,0.801596,-2.17,-23.1,58.939999,1729425254830.0,0.0
-3.069991,-7.240681,1.4668,8.19,-0.77,68.809998,1729425254850.0,0.0
-5.455636,-8.860621,1.584049,11.83,33.459999,67.550003,1729425254867.0,0.0
-6.999006,-8.508877,-0.019143,-15.61,42.91,65.099998,1729425254887.0,0.0
-8.181061,-11.038091,0.416351,-60.549999,28.35,47.880001,1729425254913.0,0.0
-7.276574,-14.258829,-1.789831,-89.739998,16.52,11.06,1729425254928.0,0.0
-6.156733,-14.464613,-1.567299,-69.790001,11.97,-9.45,1729425254950.0,0.0
-5.465207,-14.136796,1.409373,62.439999,-4.76,-21.77,1729425254969.0,0.0
-5.960521,-12.272788,3.395415,93.800003,8.47,-28.49,1729425254988.0,0.0
-6.836295,-10.286745,2.971886,68.459999,35.560001,-45.009998,1729425255011.0,0.0
-7.109076,-8.193025,1.672583,-0.14,37.029999,-67.269997,1729425255027.0,0.0
-5.766702,-7.9011,0.387637,-51.939999,11.69,-78.82,1729425255048.0,0.0
-4.216154,-9.147761,0.959522,-48.720001,-16.799999,-78.260002,1729425255066.0,0.0
-2.866602,-9.32483,3.06042,16.030001,-28.49,-64.540001,1729425255086.0,0.0
-2.24686,-6.032306,3.9338,65.449997,-21.49,-40.740002,1729425255110.0,0.0
-2.189433,-3.424129,4.371687,78.82,-10.64,-21.629999,1729425255128.0,0.0
-2.526821,-2.770889,5.156533,46.130001,-14.14,-7.42,1729425255147.0,0.0
-3.134598,-4.335794,4.070191,-26.25,-17.639999,3.01,1729425255170.0,0.0
-3.589234,-5.625526,1.734797,-90.160004,-4.76,3.36,1729425255186.0,0.0
-3.266203,-5.924629,0.038285,-90.580002,-7.63,18.620001,1729425255208.0,0.0
-2.318645,-6.041877,-0.875773,-60.760002,-31.290001,39.34,1729425255227.0,0.0
-2.507678,-7.568498,-0.545564,-25.41,-25.059999,56.490002,1729425255247.0,0.0
-4.512863,-9.650253,0.198604,7.49,15.89,58.52,1729425255267.0,0.0
-6.924829,-9.116654,0.129212,45.43,44.939999,69.93,1729425255288.0,0.0
-6.975078,-9.250652,0.437887,-6.65,29.889999,31.92,1729425255307.0,0.0
-6.67119,-11.942577,-1.024128,-66.360001,20.370001,8.61,1729425255327.0,0.0
-5.895915,-14.117653,-0.320638,-46.200001,7.84,-10.01,1729425255347.0,0.0
-5.115855,-12.404392,3.199204,21.91,-9.45,-15.82,1729425255367.0,0.0
-5.300103,-9.320045,7.594819,61.880001,-16.030001,-16.309999,1729425255388.0,0.0
-6.149554,-8.128418,5.307281,7.98,-12.25,-23.59,1729425255410.0,0.0
-6.250053,-8.659625,0.921237,-77.559998,-7.21,-40.529999,1729425255427.0,0.0
-5.388636,-10.042676,-1.866402,-125.230003,-24.92,-49.630001,1729425255446.0,0.0
-3.806981,-12.023933,-0.722632,-97.510002,-57.119999,-55.650002,1729425255474.0,0.0
-2.141576,-11.586047,0.787239,-21.42,-63.630001,-45.290001,1729425255486.0,0.0
-1.57687,-8.690732,2.321038,50.82,-47.18,-22.33,1729425255508.0,0.0
-1.883151,-6.4343,2.11047,67.550003,-23.379999,-10.22,1729425255528.0,0.0
-2.608176,-5.594419,2.342573,45.150002,-6.86,-5.46,1729425255547.0,0.0
-3.665804,-6.929615,1.682154,12.74,-2.87,5.11,1729425255566.0,0.0
-4.321437,-8.219346,0.502493,-16.24,7.98,7.56,1729425255587.0,0.0
-4.019942,-7.379465,-1.416551,-17.15,7.98,13.23,1729425255607.0,0.0
-3.096312,-5.876772,-1.237089,21.629999,-2.87,31.290001,1729425255629.0,0.0
-2.991028,-6.831509,0.677169,73.639999,-6.51,47.110001,1729425255649.0,0.0
-4.261617,-5.843273,1.330409,111.790001,20.790001,62.299999,1729425255667.0,0.0
-5.632704,-5.221139,2.438286,154.490005,41.23,75.809998,1729425255686.0,0.0
-7.348359,-6.644868,3.223132,58.939999,43.400002,46.060001,1729425255708.0,0.0
-7.932207,-10.253245,0.555135,-68.110001,44.73,11.48,1729425255727.0,0.0
-7.123433,-12.244074,-2.885744,-120.120003,29.26,2.03,1729425255748.0,0.0
-5.613562,-15.780666,-1.232304,-44.869999,-11.9,-16.73,1729425255768.0,0.0
-4.548756,-16.376478,2.964707,48.23,-22.75,-28.77,1729425255790.0,0.0
-4.998606,-12.401999,4.070191,96.669998,14.35,-25.34,1729425255808.0,0.0
-6.161518,-8.616554,4.051049,76.300003,47.389999,-41.580002,1729425255830.0,0.0
-6.582655,-7.558927,1.521835,4.76,35.139999,-58.73,1729425255851.0,0.0
-4.472186,-9.164511,2.244468,-41.580002,-3.22,-76.580002,1729425255868.0,0.0
-2.74696,-8.62134,4.058227,28.91,-45.849998,-56.279999,1729425255888.0,0.0
-2.007578,-5.367101,5.156533,73.709999,-33.810001,-34.16,1729425255909.0,0.0
-2.282753,-3.393023,5.06082,66.360001,-17.290001,-18.27,1729425255930.0,0.0
-2.574677,-3.194418,4.859823,23.799999,-21.42,-6.16,1729425255949.0,0.0
-2.928815,-5.175675,3.735196,-39.549999,-30.1,6.79,1729425255968.0,0.0
-3.5007,-7.183254,2.165504,-87.849998,-20.58,10.15,1729425255988.0,0.0
-3.37388,-7.501499,0.902094,-78.75,-13.09,19.6,1729425256010.0,0.0
-2.646462,-6.833901,0.40678,-39.830002,-28.42,38.639999,1729425256028.0,0.0
-2.309074,-7.130611,0.660419,-7.42,-24.290001,47.670002,1729425256049.0,0.0
-4.079762,-8.695518,2.572284,3.15,5.95,53.27,1729425256068.0,0.0
-7.566105,-7.587641,1.323231,18.9,37.450001,55.09,1729425256138.0,0.0
-7.077969,-8.128418,-0.70349,4.76,48.369999,64.68,1729425256138.0,0.0
-6.233303,-11.021341,-2.35693,-54.18,28.280001,31.92,1729425256148.0,0.0
-5.489135,-13.813765,-2.024328,-86.169998,9.8,-14.42,1729425256205.0,0.0
-4.965107,-14.933606,1.730011,11.69,-0.77,-15.96,1729425256217.0,0.0
-5.314459,-11.263017,3.117848,83.090004,6.86,-15.96,1729425256217.0,0.0
-6.113662,-9.396614,1.782653,59.709999,52.779999,-29.4,1729425256228.0,0.0
-5.922236,-6.929615,-1.191626,-24.290001,43.959999,-53.830002,1729425256248.0,0.0
-5.309673,-9.195618,0.674776,-59.709999,15.4,-69.160004,1729425256268.0,0.0
-3.854837,-10.712667,1.158126,-21.559999,-14.0,-58.310001,1729425256288.0,0.0
-2.232504,-9.923036,1.87358,64.82,-18.549999,-34.16,1729425256311.0,0.0
-2.167897,-7.171289,3.615555,123.059998,6.51,-19.389999,1729425256328.0,0.0
-3.069991,-4.881358,4.331009,122.080002,34.860001,-18.76,1729425256350.0,0.0
-3.998406,-3.460021,4.692325,64.190002,41.790001,-14.0,1729425256368.0,0.0
-4.589434,-4.218546,4.431508,-3.78,18.83,0.56,1729425256387.0,0.0
-4.45065,-6.161518,3.5007,-56.91,-3.99,5.11,1729425256408.0,0.0
-3.912265,-6.84108,2.699104,-69.720001,-14.42,13.3,1729425256429.0,0.0
-2.876173,-5.663811,1.505085,-44.310001,-25.83,32.689999,1729425256450.0,0.0
-2.378466,-4.98425,0.772882,-22.889999,-28.42,51.099998,1729425256469.0,0.0
-2.979064,-5.886343,0.272782,-27.51,-8.68,59.920002,1729425256489.0,0.0
-4.905287,-7.860423,0.861416,-45.990002,15.47,58.799999,1729425256509.0,0.0
-7.298109,-12.571891,1.978864,-24.08,27.23,59.779999,1729425256530.0,0.0
-7.60439,-12.466606,0.691526,-80.639999,7.07,17.15,1729425256551.0,0.0
-6.065805,-11.296515,-1.828116,-99.190002,-0.7,7.28,1729425256569.0,0.0
-5.024928,-12.97867,-0.899701,-79.590004,-25.690001,-9.52,1729425256591.0,0.0
-4.134798,-14.737395,0.401994,-12.46,-35.98,-16.799999,1729425256612.0,0.0
-4.460221,-13.35913,1.639083,47.810001,-8.26,-12.46,1729425256628.0,0.0
-6.23091,-10.782058,1.85683,33.810001,42.07,-33.389999,1729425256650.0,0.0
-7.678568,-10.284351,-0.744168,-24.780001,66.220001,-63.84,1729425256668.0,0.0
-6.448657,-11.483156,-3.936193,-78.540001,41.509998,-90.510002,1729425256689.0,0.0
-4.211368,-11.55494,-0.715454,-69.230003,-10.43,-92.330002,1729425256709.0,0.0
-2.167897,-10.999805,1.521835,61.110001,-24.85,-54.880001,1729425256729.0,0.0
-1.605584,-6.463014,3.474378,146.720001,-0.77,-40.459999,1729425256749.0,0.0
-3.163311,-2.79721,5.335995,133.350006,34.93,-41.439999,1729425256768.0,0.0
-5.125426,-1.452443,5.45085,71.120003,34.93,-33.740002,1729425256790.0,0.0
-5.553742,-2.021935,3.134598,-17.43,-5.53,-17.780001,1729425256811.0,0.0
-4.740182,-4.481757,1.050449,-87.360001,-46.41,-5.88,1729425256828.0,0.0
-4.046263,-6.503692,-0.782453,-126.489998,-60.27,-1.26,1729425256852.0,0.0
-4.067799,-8.953942,-2.225325,-126.770004,-46.27,0.35,1729425256869.0,0.0
-3.871587,-9.482756,-2.866602,-85.959999,-32.830002,4.83,1729425256889.0,0.0
-3.495914,-9.399008,-3.249453,-57.75,-35.84,13.86,1729425256911.0,0.0
-3.067599,-9.229117,-2.488536,-40.040001,-35.420002,13.86,1729425256928.0,0.0
-2.981457,-8.743374,-1.270589,-34.16,-26.460001,16.030001,1729425256949.0,0.0
-3.237489,-8.796017,0.07657,-24.08,-16.940001,22.469999,1729425256969.0,0.0
-3.488736,-7.920243,1.440479,-36.330002,-9.1,23.1,1729425256989.0,0.0
-3.823731,-6.817152,1.627119,-74.340004,-1.12,26.32,1729425257010.0,0.0
-3.751946,-7.077969,-0.856631,-127.120003,-7.21,22.190001,1729425257029.0,0.0
-3.26381,-8.465806,-2.866602,-189.210007,-22.33,11.9,1729425257051.0,0.0
-2.828316,-10.212566,-2.89053,-214.619995,-24.43,5.74,1729425257068.0,0.0
-2.964707,-11.650653,-4.352544,-190.050003,-9.73,3.22,1729425257088.0,0.0
-3.014957,-12.581462,-4.31426,-133.839996,-3.85,-5.88,1729425257109.0,0.0
-3.419343,-13.354343,-2.072184,-73.010002,0.91,-3.5,1729425257129.0,0.0
-3.273381,-13.244273,-3.838088,-3.15,3.01,-5.25,1729425257150.0,0.0
-3.019742,-11.822936,-6.754939,47.040001,1.75,-2.59,1729425257167.0,0.0
-3.251846,-9.68136,-4.555934,52.43,30.380001,-5.32,1729425257189.0,0.0
-5.335995,-8.836694,-0.425922,32.689999,83.93,-8.68,1729425257210.0,0.0
-5.804988,-9.973285,0.902094,30.73,67.760002,-15.89,1729425257228.0,0.0
-6.058627,-9.559326,2.443072,71.75,20.09,0.07,1729425257249.0,0.0
-5.233103,-8.535198,0.957129,75.739998,-5.32,-8.96,1729425257268.0,0.0
-4.943572,-7.293324,-0.591027,23.1,-7.14,-17.15,1729425257287.0,0.0
-4.912465,-8.01117,-2.215754,-4.2,-2.59,-18.48,1729425257309.0,0.0
-4.409972,-7.960921,-2.330609,-38.849998,-15.61,-16.799999,1729425257330.0,0.0
-3.546163,-7.867601,-2.849852,-28.07,-27.719999,-3.78,1729425257349.0,0.0
-2.388037,-6.740582,-3.505485,-8.61,-45.5,8.89,1729425257368.0,0.0
-1.605584,-7.025328,-3.457629,2.87,-56.98,23.1,1729425257389.0,0.0
-1.153341,-7.956135,-5.206782,-4.06,-60.41,26.25,1729425257410.0,0.0
-1.785046,-10.803595,-6.601797,17.08,-50.189999,23.309999,1729425257427.0,0.0
-3.273381,-7.963314,-9.12144,-0.28,12.18,2.38,1729425257449.0,0.0
-4.539185,-7.65464,-7.740781,12.53,69.93,4.9,1729425257467.0,0.0
-5.661418,-8.389235,-6.635297,-26.110001,53.760002,1.47,1729425257490.0,0.0
-5.314459,-10.29153,-4.907679,-39.130001,25.969999,-10.36,1729425257509.0,0.0
-4.658825,-12.035898,0.021535,-34.23,11.55,-7.7,1729425257530.0,0.0
-5.130211,-11.198411,-3.448057,-20.440001,25.76,-23.17,1729425257550.0,0.0
-4.646862,-10.164711,-5.565705,-1.26,52.080002,-52.57,1729425257569.0,0.0
-5.429315,-7.599605,2.07697,5.53,57.400002,-30.66,1729425257588.0,0.0
-4.943572,-7.427321,-0.055035,60.970001,48.439999,-18.200001,1729425257615.0,0.0
-4.003192,-6.652047,2.340181,34.16,-15.89,-8.68,1729425257630.0,0.0
-2.632105,-5.998806,2.481357,0.7,-33.459999,-10.36,1729425257650.0,0.0
-2.821138,-8.039884,0.162712,-0.63,-32.830002,-0.98,1729425257669.0,0.0
-2.981457,-8.762517,-1.079163,-46.689999,-29.190001,-13.72,1729425257688.0,0.0
-2.988636,-8.200203,-0.612563,-53.48,-22.26,1.33,1729425257710.0,0.0
-2.359323,-8.38445,-1.916651,-9.31,-49.279999,23.030001,1729425257729.0,0.0
-1.627119,-8.166703,-2.672783,9.17,-85.82,25.27,1729425257749.0,0.0
-1.095913,-7.032506,-3.041277,12.95,-68.879997,31.85,1729425257767.0,0.0
-2.608176,-9.877571,-4.479364,37.66,-35.279999,42.349998,1729425257787.0,0.0
-4.529613,-6.745367,-4.87418,-52.990002,14.07,13.79,1729425257808.0,0.0
-6.30748,-9.918249,-8.729016,-80.849998,48.860001,16.73,1729425257827.0,0.0
-6.673582,-11.973685,-8.508877,-97.090004,17.08,6.58,1729425257851.0,0.0
-5.558527,-13.313664,-5.783452,-31.99,3.08,4.2,1729425257869.0,0.0
-4.520042,-10.636096,-5.881558,30.66,15.89,-15.54,1729425257887.0,0.0
-4.299902,-8.891729,-7.647461,22.33,51.59,-35.77,1729425257911.0,0.0
-4.091727,-7.920243,-7.276574,4.76,81.410004,-33.810001,1729425257928.0,0.0
-3.87398,-7.52782,0.550349,27.09,82.110001,-16.030001,1729425257949.0,0.0
-4.541577,-6.331409,4.656433,51.799999,69.580002,0.14,1729425257967.0,0.0
-4.677969,-5.678168,5.513064,64.959999,28.280001,-1.54,1729425257989.0,0.0
-4.579862,-5.9342,3.084348,16.379999,-16.450001,-7.42,1729425258009.0,0.0
-4.596612,-7.685746,-1.598405,-33.810001,-40.599998,-11.62,1729425258028.0,0.0
-3.790231,-7.635497,-2.699104,-86.449997,-47.810001,-8.05,1729425258048.0,0.0
-2.555535,-7.338787,-2.646462,-82.739998,-63.700001,19.74,1729425258067.0,0.0
-1.356731,-8.489735,-3.37388,-40.25,-100.379997,36.470001,1729425258089.0,0.0
-0.782453,-9.422935,-3.778267,-1.4,-101.150002,36.259998,1729425258110.0,0.0
-1.335195,-9.032906,-5.979663,35.139999,-58.450001,41.02,1729425258129.0,0.0
-3.814159,-8.580662,-4.388437,36.049999,-0.21,29.4,1729425258149.0,0.0
-5.716454,-8.157133,-7.008578,-34.299999,57.049999,-0.21,1729425258168.0,0.0
-6.91765,-10.346564,-10.861022,-73.639999,34.439999,0.91,1729425258189.0,0.0
-5.474778,-10.837094,-5.79063,-65.169998,1.68,0.84,1729425258209.0,0.0
-3.546163,-10.884951,-3.218346,34.09,-10.43,13.51,1729425258227.0,0.0
-3.215954,-9.348758,-5.190032,69.090004,18.059999,-11.76,1729425258249.0,0.0
-3.785445,-7.503892,-6.295516,51.310001,60.689999,-27.860001,1729425258267.0,0.0
-4.742575,-7.223931,-6.472585,28.280001,89.529999,-24.5,1729425258289.0,0.0
-4.63729,-6.254838,-2.921637,13.440001,83.650002,-13.86,1729425258310.0,0.0
-5.182854,-6.738188,3.665804,34.299999,66.360001,10.22,1729425258327.0,0.0
-5.020142,-7.537392,4.12044,63.209999,29.889999,11.83,1729425258348.0,0.0
-4.945964,-7.597212,3.29731,33.740002,-16.66,-0.77,1729425258367.0,0.0
-5.20439,-8.671589,-0.31346,-14.35,-32.27,-16.52,1729425258388.0,0.0
-5.036892,-8.405986,-2.452643,-64.82,-35.560001,-25.200001,1729425258410.0,0.0
-4.144369,-7.9681,-3.290131,-66.360001,-54.389999,-5.46,1729425258427.0,0.0
-2.940779,-8.463413,-4.220939,-34.439999,-92.190002,10.5,1729425258447.0,0.0
-1.911865,-8.688338,-4.4339,-15.26,-99.610001,8.54,1729425258470.0,0.0
-1.820938,-8.312666,-4.783253,-2.52,-67.410004,16.52,1729425258488.0,0.0
-3.56052,-9.236296,-4.17069,-6.02,-22.33,11.62,1729425258510.0,0.0
-5.635098,-8.408379,-6.226124,-55.650002,38.080002,-21.559999,1729425258528.0,0.0
-6.862615,-9.729217,-8.901299,-57.119999,54.599998,-14.14,1729425258549.0,0.0
-5.513064,-10.820344,-4.776074,13.440001,4.62,1.68,1729425258567.0,0.0
-4.295116,-10.499706,-4.022335,59.360001,0.98,-0.63,1729425258590.0,0.0
-3.859623,-8.779266,-6.029913,57.400002,25.41,-21.07,1729425258663.0,0.0
-3.940979,-7.125826,-6.766902,14.91,63.0,-38.360001,1729425258674.0,0.0
-4.079762,-6.111269,-5.276174,-22.4,90.019997,-30.799999,1729425258676.0,0.0
-3.749553,-6.429514,-1.208375,-18.48,79.730003,-7.77,1729425258678.0,0.0
-3.9673,-7.575676,4.704289,17.92,49.77,16.52,1729425258687.0,0.0
-3.917051,-8.714661,4.388437,60.900002,15.96,13.37,1729425258709.0,0.0
-4.177868,-8.204988,1.789831,40.040001,-14.35,-11.55,1729425258727.0,0.0
-4.65404,-7.144968,0.129212,-15.05,-23.17,-21.0,1729425258747.0,0.0
-4.275974,-6.601797,-2.019542,-50.400002,-44.869999,-4.34,1729425258767.0,0.0
-3.139383,-8.106883,-4.362115,-50.75,-102.830002,16.940001,1729425258786.0,0.0
-1.904687,-8.965906,-4.804788,-44.939999,-125.510002,16.309999,1729425258808.0,0.0
-1.569692,-8.987441,-7.243074,-24.5,-94.010002,23.309999,1729425258827.0,0.0
-3.285345,-9.650253,-5.692525,-14.35,-42.560001,16.73,1729425258850.0,0.0
-5.295317,-8.592626,-7.503892,-55.369999,46.689999,-17.01,1729425258867.0,0.0
-6.972685,-10.279566,-8.248059,-36.82,74.550003,-4.27,1729425258887.0,0.0
-5.623133,-11.028521,-4.943572,46.830002,4.34,8.89,1729425258909.0,0.0
-4.278367,-9.891929,-4.843073,55.369999,-8.68,-0.21,1729425258927.0,0.0
-3.481557,-8.501699,-7.058826,18.969999,26.950001,-21.280001,1729425258948.0,0.0
-3.701697,-7.633104,-7.645068,-13.72,65.309998,-30.73,1729425258967.0,0.0
-3.704089,-6.331409,-6.458229,-13.79,94.080002,-21.49,1729425258987.0,0.0
-4.235296,-6.494121,1.083949,31.57,84.559998,8.47,1729425259008.0,0.0
-4.692325,-7.190433,3.775874,79.449997,57.119999,21.700001,1729425259027.0,0.0
-4.73061,-7.793423,4.237689,83.790001,13.86,10.08,1729425259047.0,0.0
-5.091926,-8.066205,2.344966,33.880001,-9.03,-6.79,1729425259068.0,0.0
-5.099105,-7.77428,-0.445065,-26.460001,-22.469999,-18.969999,1729425259087.0,0.0
-4.316652,-7.403394,-2.682354,-64.190002,-56.07,-10.01,1729425259107.0,0.0
-2.811567,-8.468199,-3.905087,-43.400002,-100.029999,15.89,1729425259127.0,0.0
-1.562513,-9.516255,-5.414958,9.73,-119.699997,27.02,1729425259147.0,0.0
-1.012164,-9.602397,-5.584848,40.040001,-97.300003,23.17,1729425259167.0,0.0
-1.416551,-7.73121,-4.575077,18.620001,-38.5,19.74,1729425259187.0,0.0
-3.507878,-9.099905,-4.268795,-0.91,17.219999,17.639999,1729425259207.0,0.0
-6.726225,-11.002198,-7.838887,-41.93,53.689999,-17.43,1729425259227.0,0.0
-6.618547,-10.894521,-8.303094,-44.869999,36.75,-13.23,1729425259248.0,0.0
-4.878965,-10.628918,-5.402994,-12.25,-7.91,-8.96,1729425259267.0,0.0
-3.65384,-10.4016,-5.218746,20.51,-10.29,-10.08,1729425259287.0,0.0
-3.069991,-9.200402,-6.30748,16.030001,25.41,-30.450001,1729425259308.0,0.0
-3.555735,-7.812566,-6.680761,0.42,72.379997,-42.420002,1729425259327.0,0.0
-3.845266,-7.070791,-5.726025,0.77,99.470001,-40.810001,1729425259349.0,0.0
-4.706682,-6.07777,2.215754,21.42,91.07,-12.88,1729425259367.0,0.0
-5.429315,-6.460621,4.728218,71.190002,66.919998,2.24,1729425259388.0,0.0
-5.536992,-6.336195,6.003592,44.029999,0.77,-9.73,1729425259410.0,0.0
-5.285746,-6.82433,2.222932,-7.63,-36.470001,-21.07,1729425259427.0,0.0
-4.675575,-7.518249,-1.229911,-43.82,-54.529999,-24.01,1729425259448.0,0.0
-3.65384,-6.898508,-3.07717,-66.220001,-80.010002,-10.08,1729425259467.0,0.0
-2.40718,-7.546963,-4.76411,-51.869999,-110.599998,11.83,1729425259486.0,0.0
-1.471586,-8.551948,-4.742575,-40.459999,-124.389999,14.0,1729425259508.0,0.0
-1.828116,-11.296515,-8.128418,-4.06,-94.220001,22.049999,1729425259527.0,0.0
-3.931407,-8.587841,-6.13759,-6.16,-20.51,10.85,1729425259549.0,0.0
-6.51087,-7.817351,-8.585447,-31.08,67.760002,2.59,1729425259566.0,0.0
-6.185446,-9.559326,-9.427721,-25.129999,34.02,2.52,1729425259586.0,0.0
-4.759324,-10.195816,-4.845466,2.1,-4.83,20.93,1729425259609.0,0.0
-3.790231,-10.277173,-2.141576,30.380001,0.07,14.49,1729425259627.0,0.0
-3.462414,-9.382257,-5.230711,19.6,29.82,-17.57,1729425259647.0,0.0
-3.993621,-8.666803,-7.657032,4.55,56.0,-28.559999,1729425259668.0,0.0
-3.759124,-7.889136,-8.513663,-2.17,77.07,-26.25,1729425259686.0,0.0
-4.352544,-6.405586,0.784846,21.77,74.199997,3.15,1729425259708.0,0.0
-4.453043,-7.235896,1.569692,77.489998,65.730003,15.61,1729425259728.0,0.0
-4.192225,-7.546963,3.929015,70.279999,12.32,12.18,1729425259746.0,0.0
-3.795017,-7.128219,3.460021,37.310001,-17.43,12.18,1729425259766.0,0.0
-3.972085,-7.659425,0.270389,16.1,-32.900002,-3.64,1729425259786.0,0.0
-3.651447,-7.735995,-2.852244,-36.330002,-54.25,-7.49,1729425259808.0,0.0
-2.924029,-7.932207,-4.280759,-66.5,-76.510002,5.32,1729425259826.0,0.0
-2.024328,-9.030513,-4.524827,-70.629997,-95.410004,11.34,1729425259850.0,0.0
-1.416551,-9.200402,-4.9675,-53.970001,-87.709999,7.7,1729425259866.0,0.0
-3.476771,-8.812766,-5.9677,11.2,-52.639999,22.82,1729425259886.0,0.0
-4.814359,-7.432107,-5.469993,-4.9,46.759998,-5.67,1729425259907.0,0.0
-6.491727,-8.953942,-6.707082,-19.530001,46.759998,0.49,1729425259926.0,0.0
-5.690133,-10.518847,-7.121039,0.63,9.94,1.68,1729425259947.0,0.0
-4.366901,-10.547562,-4.364508,27.93,-21.35,15.190001,1729425259967.0,0.0
-3.9338,-9.456435,-3.20399,33.32,-2.8,-1.47,1729425259986.0,0.0
-4.682754,-8.499306,-4.699504,10.08,44.73,-28.35,1729425260007.0,0.0
-5.905487,-9.054441,-6.479764,-15.54,70.279999,-37.240002,1729425260027.0,0.0
-5.922236,-9.006584,-6.400801,-19.6,64.120003,-37.310001,1729425260047.0,0.0
-4.733003,-8.209774,-4.62054,19.32,51.240002,-17.780001,1729425260066.0,0.0
-3.78066,-7.202396,0.698704,58.59,33.18,0.77,1729425260087.0,0.0
-3.256632,-7.022934,3.510271,73.989998,22.190001,5.46,1729425260107.0,0.0
-3.105884,-6.963113,3.275774,62.02,1.61,-1.61,1729425260126.0,0.0
-3.493521,-7.283752,1.074377,29.120001,-17.92,-9.38,1729425260147.0,0.0
-3.847659,-7.056434,-0.959522,-23.59,-27.65,-14.14,1729425260166.0,0.0
-3.613162,-6.975078,-2.880959,-60.48,-42.07,-2.94,1729425260186.0,0.0
-2.845066,-7.757531,-4.539185,-75.459999,-73.989998,11.83,1729425260207.0,0.0
-1.952543,-9.669396,-5.264209,-76.93,-89.879997,11.2,1729425260226.0,0.0
-2.124826,-10.293922,-6.58744,-33.459999,-40.670002,14.0,1729425260247.0,0.0
-2.813959,-10.049855,-6.123233,18.620001,-12.95,20.790001,1729425260266.0,0.0
-4.338188,-9.695717,-5.422136,36.610001,16.450001,6.09,1729425260286.0,0.0
-5.845665,-9.633504,-7.652246,18.48,60.48,-9.8,1729425260307.0,0.0
-6.26441,-9.911072,-6.080163,-11.76,58.939999,-9.59,1729425260327.0,0.0
-5.584848,-10.289137,-3.385844,-3.36,19.110001,-10.22,1729425260347.0,0.0
-4.39083,-9.24826,-3.07717,13.51,-4.97,-13.79,1729425260366.0,0.0
-3.67059,-7.956135,-4.546363,0.14,8.19,-25.34,1729425260386.0,0.0
-3.663411,-7.599605,-6.489335,-20.299999,33.950001,-32.549999,1729425260406.0,0.0
-3.605984,-6.845865,-7.322037,-29.610001,59.709999,-27.370001,1729425260426.0,0.0
-3.464807,-6.508478,-1.887937,-24.360001,69.650002,-4.34,1729425260450.0,0.0
-3.926622,-8.939585,3.383451,18.48,50.189999,13.16,1729425260466.0,0.0
-4.297509,-10.061819,3.845266,60.549999,9.73,5.88,1729425260485.0,0.0
-4.625326,-8.171489,2.337788,66.360001,-11.06,-14.07,1729425260508.0,0.0
-4.82393,-6.063413,0.275175,20.23,-25.76,-21.35,1729425260526.0,0.0
-4.218546,-5.24746,-2.610569,-29.26,-62.299999,-9.87,1729425260546.0,0.0
-2.07697,-7.688138,-5.663811,-69.019997,-113.120003,12.18,1729425260566.0,0.0
-0.555135,-9.454042,-7.121039,-96.32,-128.940002,8.4,1729425260586.0,0.0
-0.086142,-10.456635,-7.9681,-65.379997,-97.650002,19.6,1729425260607.0,0.0
-1.615155,-9.281759,-7.042077,-14.14,-19.950001,21.139999,1729425260627.0,0.0
-4.256832,-8.920443,-7.286145,20.23,79.870003,9.38,1729425260646.0,0.0
-6.494121,-9.777073,-9.025726,6.3,110.040001,2.1,1729425260665.0,0.0
-6.80758,-11.097912,-4.31426,18.83,67.690002,6.02,1729425260686.0,0.0
-5.386244,-11.897114,-4.345366,65.730003,21.559999,15.54,1729425260706.0,0.0
-3.538985,-9.188439,-6.850651,65.870003,5.81,11.62,1729425260726.0,0.0
-2.56032,-7.779066,-8.748159,50.189999,43.049999,-7.91,1729425260747.0,0.0
-2.459821,-7.334002,-2.940779,44.73,89.110001,-11.48,1729425260766.0,0.0
-4.098906,-6.977471,2.976671,66.709999,121.940002,0.84,1729425260785.0,0.0
-5.460421,-6.252446,4.034299,84.489998,81.550003,6.09,1729425260808.0,0.0
-5.314459,-5.273781,3.457629,40.18,4.83,-2.31,1729425260826.0,0.0
-4.630112,-6.051448,0.658026,5.81,-37.450001,-7.0,1729425260850.0,0.0
-4.369294,-6.855437,-2.562713,-41.09,-51.170002,-10.5,1729425260866.0,0.0
-3.864408,-6.979864,-3.52702,-85.190002,-50.330002,-10.22,1729425260885.0,0.0
-3.244668,-8.800802,-2.816352,-66.639999,-70.699997,11.62,1729425260907.0,0.0
-2.974278,-9.415757,-4.474578,-43.330002,-77.07,9.17,1729425260926.0,0.0
-2.957529,-9.643075,-6.558727,-5.81,-62.580002,17.92,1729425260946.0,0.0
-3.696911,-9.064013,-6.125626,29.610001,-38.779999,27.58,1729425260966.0,0.0
-5.458029,-8.075776,-6.573084,17.99,11.27,15.68,1729425260987.0,0.0
-6.656832,-8.571091,-10.265208,-34.439999,59.080002,-0.42,1729425261006.0,0.0
-6.546762,-10.021141,-6.226124,-66.290001,43.189999,2.59,1729425261026.0,0.0
-5.479564,-11.373087,-4.13719,-15.82,16.799999,15.190001,1729425261046.0,0.0
-3.919443,-10.023535,-6.518049,35.349998,10.57,17.780001,1729425261066.0,0.0
-3.017349,-8.329416,-7.372287,46.900002,38.709999,8.96,1729425261085.0,0.0
-3.091527,-7.525427,-6.178268,37.380001,90.720001,-1.26,1729425261107.0,0.0
-3.15374,-7.877172,-2.347359,38.080002,113.050003,7.63,1729425261125.0,0.0
-4.235296,-7.936993,6.113662,46.830002,79.519997,23.309999,1729425261146.0,0.0
-3.893122,-6.905686,4.838287,36.889999,29.889999,12.53,1729425261165.0,0.0
-3.570091,-6.489335,2.98385,18.129999,-40.32,3.08,1729425261185.0,0.0
-3.589234,-6.441479,-0.859023,-33.32,-66.290001,-14.21,1729425261206.0,0.0
-3.684947,-7.130611,-5.498707,-76.580002,-63.0,-17.290001,1729425261226.0,0.0
-2.955136,-7.350751,-4.965107,-113.889999,-78.889999,-2.59,1729425261246.0,0.0
-2.380858,-9.171689,-6.142376,-89.32,-92.959999,3.64,1729425261266.0,0.0
-2.414358,-10.695917,-7.209574,-35.700001,-76.93,2.31,1729425261285.0,0.0
-2.589034,-8.35813,-7.771888,24.92,-35.420002,8.68,1729425261307.0,0.0
-4.67079,-8.425128,-3.818945,71.75,-1.96,20.09,1729425261325.0,0.0
-6.82433,-9.178867,-9.585647,7.28,47.040001,-22.190001,1729425261346.0,0.0
-7.534998,-10.564312,-8.85823,-51.799999,53.689999,-31.710001,1729425261365.0,0.0
-7.101898,-10.540384,-3.06042,-52.639999,29.4,-20.299999,1729425261387.0,0.0
-5.455636,-10.274779,-3.553342,17.01,-2.94,-8.12,1729425261406.0,0.0
-3.732803,-8.226524,-5.175675,57.049999,-19.110001,-7.63,1729425261425.0,0.0
-3.103491,-6.771688,-5.711668,61.599998,24.360001,-17.85,1729425261445.0,0.0
-3.931407,-7.341179,-7.611568,62.16,94.5,-16.309999,1729425261466.0,0.0
-4.426722,-6.888937,-3.292524,51.939999,115.010002,-4.62,1729425261486.0,0.0
-4.845466,-7.293324,3.074777,67.129997,89.529999,13.58,1729425261506.0,0.0
-4.589434,-7.039684,4.027121,84.840004,39.27,25.129999,1729425261526.0,0.0
-4.237689,-6.329016,2.014757,79.029999,-18.27,17.780001,1729425261545.0,0.0
-4.45065,-5.699703,-0.40678,11.27,-35.91,-8.05,1729425261565.0,0.0
-4.292724,-7.4345,-3.536592,-75.949997,-47.599998,-5.04,1729425261585.0,0.0
-3.495914,-8.798409,-4.443472,-95.410004,-104.230003,4.2,1729425261607.0,0.0
-2.48375,-9.174082,-5.742774,-81.269997,-108.639999,1.61,1729425261625.0,0.0
-2.438286,-8.980263,-8.506484,-56.560001,-78.400002,12.88,1729425261646.0,0.0
-4.199404,-7.479963,-7.109076,-54.529999,-20.65,2.8,1729425261665.0,0.0
-5.79781,-8.597411,-8.769694,-51.029999,55.720001,-14.63,1729425261685.0,0.0
-6.616155,-10.805987,-7.530212,-36.959999,47.599998,-3.01,1729425261708.0,0.0
-5.800202,-11.899508,-3.684947,30.309999,7.42,10.01,1729425261725.0,0.0
-4.517649,-9.619147,-5.123034,68.040001,-3.22,8.05,1729425261745.0,0.0
-3.972085,-7.848458,-7.075576,53.689999,18.41,-13.79,1729425261765.0,0.0
-3.991228,-7.82453,-8.542377,13.86,62.510002,-33.18,1729425261785.0,0.0
-3.658626,-7.274181,-4.977071,-2.87,89.25,-21.280001,1729425261806.0,0.0
-4.240082,-7.9011,1.823331,32.900002,77.769997,5.6,1729425261825.0,0.0
-4.273581,-7.700103,2.907279,63.420002,49.84,7.0,1729425261849.0,0.0
-4.565506,-7.06122,3.122634,62.439999,10.71,-3.64,1729425261865.0,0.0
-5.706882,-6.740582,2.380858,6.93,-6.44,-30.799999,1729425261885.0,0.0
-5.740381,-6.898508,-1.962115,-45.639999,-14.77,-42.209999,1729425261906.0,0.0
-3.76391,-7.542177,-3.948158,-71.120003,-110.809998,-6.16,1729425261926.0,0.0
-1.72044,-7.9011,-5.532206,-69.160004,-155.960007,-1.47,1729425261946.0,0.0
-0.531207,-7.465607,-7.405786,-79.169998,-125.790001,-4.27,1729425261965.0,0.0
-1.191626,-9.332008,-9.640682,-60.689999,-63.77,1.75,1729425261985.0,0.0
-2.854637,-9.109475,-9.810574,-52.639999,19.18,-11.48,1729425262006.0,0.0
-4.182654,-10.202995,-7.91785,-15.89,65.660004,-6.93,1729425262025.0,0.0
-4.618148,-10.782058,-4.883751,10.92,41.02,-0.63,1729425262046.0,0.0
-4.161119,-10.497313,-2.65364,43.889999,14.7,3.43,1729425262065.0,0.0
-3.847659,-9.288938,-5.017749,54.32,13.23,-6.37,1729425262085.0,0.0
-3.541377,-8.997013,-7.243074,46.34,30.799999,-25.34,1729425262106.0,0.0
-3.505485,-7.874779,-3.940979,38.849998,55.369999,-23.309999,1729425262125.0,0.0
-4.35733,-7.159326,-0.935594,70.559998,75.110001,-4.27,1729425262145.0,0.0
-4.876573,-7.319644,0.105284,96.879997,57.260002,6.65,1729425262165.0,0.0
-4.697111,-6.752545,2.486143,66.43,17.5,-2.52,1729425262186.0,0.0
-4.893322,-7.329216,0.839881,49.490002,-3.15,-1.05,1729425262205.0,0.0
-4.706682,-6.108876,-1.440479,1.47,-24.57,-10.01,1729425262225.0,0.0
-4.063013,-7.013363,-3.433701,-64.75,-59.360001,4.41,1729425262245.0,0.0
-3.129812,-8.078169,-4.754539,-83.019997,-86.730003,10.78,1729425262265.0,0.0
-2.340181,-8.293523,-6.431907,-64.190002,-78.82,17.99,1729425262284.0,0.0
-2.299503,-9.903893,-9.35833,0.14,-45.57,29.33,1729425262306.0,0.0
-3.510271,-10.351351,-7.810174,37.450001,2.8,23.940001,1729425262325.0,0.0
-4.634897,-10.200603,-6.592227,35.209999,69.440002,11.34,1729425262345.0,0.0
-5.486742,-9.49472,-3.426522,-5.53,63.420002,3.85,1729425262365.0,0.0
-5.24746,-10.116854,-2.285146,-9.03,28.91,0.35,1729425262385.0,0.0
-4.364508,-9.755538,-4.584648,2.52,-5.46,-1.75,1729425262406.0,0.0
-3.18724,-8.800802,-7.185646,2.38,-1.61,-16.379999,1729425262425.0,0.0
-2.758924,-6.943972,-5.690133,5.25,38.849998,-15.75,1729425262445.0,0.0
-3.237489,-6.283553,-1.897508,24.290001,73.989998,-0.21,1729425262464.0,0.0
-4.108476,-7.592427,1.368695,37.869999,59.5,11.2,1729425262486.0,0.0
-4.491328,-7.549356,2.124826,30.73,28.49,2.45,1729425262505.0,0.0
-5.278566,-8.085347,1.825724,26.67,5.46,-4.2,1729425262525.0,0.0
-5.661418,-7.039684,-0.038285,-4.27,-11.2,-14.49,1729425262545.0,0.0
-5.505885,-6.91765,-3.639483,-24.43,-36.049999,-8.33,1729425262564.0,0.0
-3.519842,-8.798409,-5.398208,-37.029999,-89.529999,9.24,1729425262584.0,0.0
-2.538785,-9.568897,-6.776474,-13.3,-88.900002,13.51,1729425262606.0,0.0
-1.871187,-9.480364,-7.984849,26.530001,-47.32,16.940001,1729425262625.0,0.0
-2.234896,-8.877372,-6.802795,42.420002,-6.44,18.9,1729425262645.0,0.0
-2.959922,-8.166703,-4.309474,26.67,27.440001,9.66,1729425262664.0,0.0
-4.34058,-9.549755,-4.412365,1.26,47.389999,8.61,1729425262684.0,0.0
-4.723432,-10.547562,-5.85763,-24.57,35.279999,-2.94,1729425262716.0,0.0
-4.591826,-10.51167,-5.211568,-24.15,20.370001,-3.78,1729425262725.0,0.0
-4.359723,-9.458827,-4.907679,-1.89,26.6,-7.7,1729425262745.0,0.0
-4.460221,-8.233703,-4.316652,7.63,36.610001,-13.09,1729425262765.0,0.0
-4.546363,-7.673782,-4.321437,-18.200001,42.91,-22.960001,1729425262785.0,0.0
-4.326223,-7.721639,-3.651447,-56.349998,42.84,-33.459999,1729425262805.0,0.0
-4.041477,-8.563912,-1.892723,-54.110001,49.700001,-23.24,1729425262824.0,0.0
-4.182654,-8.822337,1.160519,-13.09,35.98,-5.32,1729425262849.0,0.0
-3.850052,-8.386844,1.404587,33.32,9.45,-7.63,1729425262864.0,0.0
-4.141976,-7.52782,0.535992,46.759998,-14.35,-10.29,1729425262885.0,0.0
-4.551149,-6.783652,-1.014557,22.190001,-19.950001,-19.67,1729425262906.0,0.0
-4.204189,-7.13779,-1.485943,-21.559999,-48.09,-6.86,1729425262925.0,0.0
-3.136991,-8.451449,-3.495914,-28.700001,-91.980003,3.78,1729425262945.0,0.0
-2.227718,-8.642875,-3.476771,-34.650002,-108.989998,-0.21,1729425262966.0,0.0
-2.043471,-9.736395,-6.190232,-36.259998,-81.620003,1.68,1729425262985.0,0.0
-3.74716,-9.700503,-5.938986,-57.189999,-46.759998,-11.27,1729425263005.0,0.0
-4.986642,-8.867801,-7.427321,-96.32,27.370001,-26.74,1729425263025.0,0.0
-6.07777,-9.851252,-8.707481,-102.129997,35.209999,-14.07,1729425263046.0,0.0
-5.197211,-10.377672,-7.168896,-65.029999,11.2,-9.52,1729425263064.0,0.0
-4.206582,-10.188639,-5.491528,8.33,8.54,1.26,1729425263084.0,0.0
-3.739982,-8.4347,-5.548956,54.25,26.460001,-6.02,1729425263105.0,0.0
-3.888337,-6.776474,-6.226124,40.110001,52.920002,-22.960001,1729425263124.0,0.0
-4.225725,-5.826523,-5.910272,-2.66,79.309998,-25.83,1729425263146.0,0.0
-3.68734,-5.525027,-5.309673,-32.27,81.620003,-3.29,1729425263165.0,0.0
-2.878566,-6.855437,-2.794817,-19.67,41.369999,22.120001,1729425263184.0,0.0
-2.409572,-8.776874,0.291924,2.38,21.77,21.700001,1729425263205.0,0.0
-3.290131,-9.602397,1.167697,21.49,29.82,-1.05,1729425263224.0,0.0
-4.833502,-6.819544,1.122234,15.26,27.719999,-26.6,1729425263244.0,0.0
-4.496114,-5.781059,-1.629512,2.8,-40.040001,-13.09,1729425263265.0,0.0
-3.235096,-6.163911,-5.515456,-0.21,-113.400002,-1.75,1729425263284.0,0.0
-2.117648,-7.62114,-9.028119,-23.66,-133.699997,1.4,1729425263306.0,0.0
-1.409373,-8.262416,-12.028719,-69.860001,-88.970001,0.35,1729425263325.0,0.0
-1.70369,-9.293723,-11.459228,-89.739998,-18.549999,7.0,1729425263344.0,0.0
-2.974278,-10.145569,-9.202796,-71.190002,44.52,9.24,1729425263364.0,0.0
-4.074977,-10.959127,-7.826923,-26.950001,68.669998,2.66,1729425263384.0,0.0
-4.23051,-10.430314,-5.608776,-2.52,52.709999,-1.54,1729425263406.0,0.0
-3.768696,-9.492328,-4.24726,25.059999,36.189999,-4.2,1729425263425.0,0.0
-3.550949,-7.920243,-5.656632,38.639999,38.709999,-13.02,1729425263445.0,0.0
-3.273381,-4.826324,-7.202396,21.280001,53.34,-9.94,1729425263464.0,0.0
-2.935993,-4.31426,-5.556134,18.76,63.279999,13.65,1729425263486.0,0.0
-2.65364,-6.704689,-1.931008,29.190001,41.860001,28.35,1729425263506.0,0.0
-2.165504,-7.104291,-0.55992,41.580002,28.84,34.580002,1729425263524.0,0.0
-2.87378,-7.51107,-0.117248,54.040001,15.26,29.960001,1729425263544.0,0.0
-3.924229,-7.042077,-0.847059,4.9,7.42,1.89,1729425263564.0,0.0
-5.096712,-8.219346,-1.76351,-32.41,-1.19,1.89,1729425263584.0,0.0
-4.21376,-8.420342,-3.036492,-6.58,-75.739998,8.19,1729425263674.0,0.0
-3.156133,-8.082954,-5.309673,26.25,-126.910004,7.84,1729425263675.0,0.0
-2.402394,-7.200003,-8.99462,11.9,-116.199997,-2.59,1729425263677.0,0.0
-3.701697,-6.886543,-9.970891,-33.529999,-52.220001,-1.68,1729425263681.0,0.0
-4.979464,-6.305088,-9.631111,-103.949997,47.110001,-12.46,1729425263684.0,0.0
-5.84088,-9.142976,-8.283953,-95.900002,53.27,4.97,1729425263710.0,0.0
-4.735396,-11.174481,-5.539384,-31.92,12.67,9.45,1729425263724.0,0.0
-3.498307,-10.681561,-4.524827,36.75,-4.69,17.01,1729425263744.0,0.0
-3.005385,-8.293523,-5.441278,68.809998,6.44,2.45,1729425263764.0,0.0
-3.469593,-6.391229,-7.767102,44.869999,38.220001,-17.01,1729425263784.0,0.0
-3.960121,-4.216154,-6.879365,-11.06,66.919998,-10.85,1729425263812.0,0.0
-4.223332,-7.123433,-4.943572,-10.71,66.989998,13.440001,1729425263825.0,0.0
-3.345166,-8.525627,-2.428715,-5.04,27.02,13.72,1729425263851.0,0.0
-2.591427,-8.23131,0.476172,31.01,16.940001,20.23,1729425263865.0,0.0
-3.443272,-8.451449,0.39003,63.279999,10.92,8.05,1729425263885.0,0.0
-5.15414,-7.738388,-1.387837,7.56,0.84,-30.799999,1729425263906.0,0.0
-5.472386,-7.56132,-2.629712,-27.860001,-31.290001,-19.18,1729425263925.0,0.0
-4.151547,-7.625926,-4.122833,-27.16,-82.25,-6.44,1729425263945.0,0.0
-3.019742,-7.769495,-5.565705,-8.54,-111.370003,1.82,1729425263965.0,0.0
-2.584249,-8.094919,-7.51107,-4.55,-85.330002,1.75,1729425263985.0,0.0
-3.07717,-8.647661,-7.601997,-30.940001,-38.849998,-0.98,1729425264006.0,0.0
-3.996014,-9.114261,-6.130411,-47.670002,-4.69,0.56,1729425264025.0,0.0
-4.941179,-10.636096,-5.977271,-20.02,4.97,-0.07,1729425264046.0,0.0
-5.24746,-11.205588,-7.987241,32.689999,16.1,5.39,1729425264065.0,0.0
-4.792823,-11.562119,-9.004191,124.32,25.9,19.25,1729425264086.0,0.0
-4.26401,-10.375278,-7.9011,218.610001,35.349998,24.85,1729425264106.0,0.0
-4.34058,-8.470592,-5.359922,305.829987,63.91,28.35,1729425264125.0,0.0
-4.893322,-7.264609,-3.996014,374.709991,90.370003,38.080002,1729425264146.0,0.0
-5.469993,-6.276374,-1.861616,404.25,96.32,42.139999,1729425264167.0,0.0
-5.17089,-5.907879,0.16989,393.190002,73.849998,36.959999,1729425264186.0,0.0
-4.41715,-5.970093,2.208575,380.309998,46.130001,30.73,1729425264207.0,0.0
-3.895515,-6.422336,4.321437,376.25,24.01,33.529999,1729425264228.0,0.0
-3.4672,-5.69731,5.783452,350.209991,18.129999,27.719999,1729425264247.0,0.0
-3.364309,-4.4674,6.13759,307.929993,19.74,21.98,1729425264266.0,0.0
-3.84048,-4.835894,7.054041,258.089996,14.77,19.389999,1729425264287.0,0.0
-4.086941,-5.479564,6.565905,197.75,7.91,13.02,1729425264308.0,0.0
-4.709075,-6.161518,7.965706,140.559998,-1.12,10.78,1729425264327.0,0.0
-4.742575,-5.099105,7.24786,88.970001,-12.67,14.98,1729425264347.0,0.0
-4.553542,-5.099105,7.075576,44.799999,-25.690001,23.17,1729425264459.0,0.0
-4.218546,-6.582655,6.592227,-7.07,-37.799999,9.66,1729425264461.0,0.0
-4.512863,-8.865408,5.618347,-27.93,-42.279999,0.49,1729425264465.0,0.0
-4.407579,-9.492328,3.701697,-17.85,-30.380001,-3.78,1729425264467.0,0.0
-4.299902,-8.982656,3.311667,4.76,-9.59,-17.01,1729425264468.0,0.0
-4.67079,-8.886944,3.998406,43.400002,8.96,-26.6,1729425264476.0,0.0
-5.249853,-8.532805,3.742374,74.410004,33.110001,-36.82,1729425264487.0,0.0
-5.690133,-7.056434,3.192025,110.599998,54.740002,-45.57,1729425264508.0,0.0
-5.438886,-5.659025,3.960121,119.910004,67.129997,-62.16,1729425264530.0,0.0
-5.496314,-3.893122,5.733203,122.849998,76.720001,-73.5,1729425264546.0,0.0
-6.206983,-1.871187,8.327023,125.790001,80.639999,-64.610001,1729425264565.0,0.0
-6.293124,0.909273,8.870193,122.010002,63.84,-41.23,1729425264586.0,0.0
-5.601598,2.656033,8.85105,110.739998,31.99,-4.48,1729425264606.0,0.0
-4.831109,2.835495,8.530413,66.080002,2.17,33.040001,1729425264625.0,0.0
-4.476971,0.803988,7.984849,-2.38,-19.18,52.57,1729425264646.0,0.0
-5.216353,-3.041277,6.817152,-83.510002,-22.960001,56.07,1729425264665.0,0.0
-5.771489,-7.91785,4.644469,-119.489998,-21.210001,48.23,1729425264685.0,0.0
-5.505885,-10.332209,4.541577,-132.369995,-22.4,21.91,1729425264707.0,0.0
-5.577669,-7.475177,5.340781,-85.470001,-9.87,37.799999,1729425264726.0,0.0
-5.685347,-7.250252,3.790231,-26.32,12.95,34.299999,1729425264745.0,0.0
-6.884151,-9.958927,5.115855,-14.42,29.33,-17.99,1729425264767.0,0.0
-6.754939,-10.116854,4.953143,16.59,36.959999,-36.959999,1729425264785.0,0.0
-6.216553,-6.888937,5.886343,65.169998,38.150002,-29.75,1729425264807.0,0.0
-4.965107,-2.502892,7.15454,72.940002,36.959999,-31.92,1729425264828.0,0.0
-4.728218,-1.11027,8.173882,32.130001,29.190001,-33.110001,1729425264849.0,0.0
-4.912465,-0.198604,8.752945,32.34,21.210001,-13.37,1729425264867.0,0.0
-5.412565,-1.842474,8.760124,33.599998,16.450001,-6.3,1729425264890.0,0.0
-5.520242,-2.091327,7.367501,22.75,16.59,-8.82,1729425264909.0,0.0
-6.331409,-1.538585,8.353344,31.639999,8.75,26.25,1729425264926.0,0.0
-5.941379,-1.883151,7.159326,5.6,-4.41,26.950001,1729425264949.0,0.0
-5.912664,-3.881158,5.876772,-48.790001,-13.79,29.4,1729425264967.0,0.0
-5.898308,-6.762117,4.438686,-82.32,-21.84,25.34,1729425264986.0,0.0
-5.702096,-9.710074,4.436293,-87.010002,-21.42,7.21,1729425265009.0,0.0
-6.013163,-10.420743,4.859823,-71.470001,-5.88,-5.11,1729425265027.0,0.0
-6.130411,-9.473185,5.723632,-27.440001,9.87,-17.57,1729425265047.0,0.0
-6.130411,-6.702296,5.922236,28.07,21.629999,-21.210001,1729425265066.0,0.0
-6.192625,-4.436293,6.039484,68.110001,27.299999,-17.08,1729425265086.0,0.0
-5.831308,-4.218546,6.128019,65.169998,23.17,-33.32,1729425265108.0,0.0
-5.230711,-4.780859,6.321837,39.34,17.15,-47.950001,1729425265127.0,0.0
-4.862216,-5.008178,6.297909,29.68,19.18,-50.68,1729425265148.0,0.0
-5.371887,-1.708475,8.245667,44.029999,27.860001,-43.610001,1729425265165.0,0.0
-5.60399,0.050249,8.695518,86.590004,19.67,-14.63,1729425265186.0,0.0
-5.611169,2.868994,9.236296,65.029999,6.02,10.92,1729425265208.0,0.0
-5.900701,2.07697,8.047063,29.469999,-14.0,45.080002,1729425265226.0,0.0
-6.099305,-1.540978,6.675975,-40.880001,-25.549999,32.130001,1729425265247.0,0.0
-6.336195,-5.678168,4.541577,-87.709999,-30.17,34.16,1729425265265.0,0.0
-5.910272,-8.80798,3.148954,-81.269997,-34.790001,36.82,1729425265287.0,0.0
-5.266603,-6.886543,3.783052,-58.240002,-29.049999,28.07,1729425265308.0,0.0
-6.376873,-6.367301,5.826523,-0.14,0.42,49.700001,1729425265326.0,0.0
-6.936793,-8.161918,5.142176,-22.68,26.32,7.28,1729425265346.0,0.0
-7.625926,-10.626525,5.187639,-32.689999,24.08,-15.96,1729425265366.0,0.0
-6.625726,-9.164511,5.455636,2.03,9.45,-21.77,1729425265386.0,0.0
-5.599205,-5.144568,5.757132,49.77,12.18,-16.66,1729425265411.0,0.0
-5.041678,-3.488736,5.831308,56.98,22.610001,-22.540001,1729425265427.0,0.0
-4.766503,-4.778467,6.632904,20.09,21.700001,-50.889999,1729425265449.0,0.0
-5.254639,-4.182654,6.817152,8.33,18.129999,-49.700001,1729425265466.0,0.0
-4.996214,-3.491128,6.943972,50.75,23.030001,-36.610001,1729425265488.0,0.0
-6.005985,0.59342,8.023134,43.889999,24.43,-33.810001,1729425265506.0,0.0
-5.62074,2.210968,8.080563,64.120003,12.46,8.89,1729425265525.0,0.0
-6.106483,2.385644,7.781459,24.710001,5.25,27.370001,1729425265547.0,0.0
-6.424729,-1.28016,6.125626,-23.870001,-6.86,34.439999,1729425265565.0,0.0
-6.570691,-5.120641,4.436293,-78.260002,-11.69,22.120001,1729425265585.0,0.0
-6.491727,-9.176475,3.883551,-83.160004,-14.63,21.700001,1729425265606.0,0.0
-5.977271,-8.678767,5.292924,-72.309998,-14.91,15.26,1729425265628.0,0.0
-6.309873,-6.092126,6.678369,-26.809999,0.7,43.75,1729425265647.0,0.0
-5.848059,-8.939585,6.67119,-28.77,7.35,-0.21,1729425265667.0,0.0
-6.07777,-10.552348,5.402994,-43.189999,8.68,-25.83,1729425265685.0,0.0
-5.702096,-7.149754,5.831308,8.68,10.57,-17.15,1729425265706.0,0.0
-5.273781,-3.371487,6.903293,47.32,20.370001,-24.710001,1729425265726.0,0.0
-5.328816,-2.175076,7.436893,36.189999,24.5,-29.4,1729425265746.0,0.0
-5.647062,-2.364109,7.403394,19.74,13.65,-30.66,1729425265765.0,0.0
-5.673382,-1.694118,7.573284,18.9,9.52,-21.629999,1729425265786.0,0.0
-5.759524,-1.067199,7.166504,11.76,10.92,-11.55,1729425265806.0,0.0
-6.300302,-3.053242,6.21416,13.86,6.79,-3.78,1729425265828.0,0.0
-6.699903,-3.127419,5.996413,17.85,7.14,5.95,1729425265857.0,0.0
-7.092326,-2.864209,6.063413,25.690001,10.64,9.87,1729425265865.0,0.0
-7.001399,-3.35713,4.974678,26.880001,3.29,12.95,1729425265886.0,0.0
-6.128019,-4.244867,4.328616,15.96,-6.16,16.1,1729425265906.0,0.0
-6.039484,-3.98405,6.728617,-24.85,-2.03,21.559999,1729425265926.0,0.0
-7.046863,-4.862216,6.71426,-64.120003,7.07,34.509998,1729425265945.0,0.0
-6.898508,-8.559127,6.281159,-100.379997,-2.1,5.04,1729425265966.0,0.0
-7.049256,-6.85783,4.24726,-116.760002,-8.26,11.62,1729425265985.0,0.0
-6.300302,-7.496714,5.484349,-68.18,-21.210001,8.68,1729425266006.0,0.0
-5.493921,-10.236496,4.828716,-31.57,-18.620001,-34.02,1729425266026.0,0.0
-5.4341,-7.795816,5.316852,27.65,7.91,-31.85,1729425266047.0,0.0
-5.781059,-4.393222,6.312266,61.740002,18.200001,-22.82,1729425266065.0,0.0
-5.711668,-3.988836,7.183254,31.780001,7.07,-35.560001,1729425266085.0,0.0
-5.199604,-4.515256,6.69751,-22.049999,-6.37,-46.689999,1729425266107.0,0.0
-5.505885,-3.125026,7.721639,-16.73,-10.92,-35.0,1729425266126.0,0.0
-5.087141,-6.139983,5.996413,38.290001,-16.1,-32.619999,1729425266146.0,0.0
-4.666004,-2.813959,6.563512,60.970001,-4.62,-34.439999,1729425266165.0,0.0
-5.687739,2.299503,6.525227,85.050003,4.83,28.700001,1729425266185.0,0.0
-6.324231,1.268196,6.168696,15.4,1.61,25.620001,1729425266205.0,0.0
-6.76451,-3.223132,4.991428,-76.790001,-10.01,18.48,1729425266226.0,0.0
-6.065805,-7.563712,3.242275,-113.82,-18.129999,9.8,1729425266246.0,0.0
-5.876772,-7.984849,4.682754,-99.959999,-21.35,21.629999,1729425266265.0,0.0
-6.005985,-6.793223,5.522634,-39.619999,-5.88,38.290001,1729425266285.0,0.0
-5.886343,-7.814958,5.225924,-42.490002,8.19,6.23,1729425266306.0,0.0
-6.71426,-9.556933,5.005785,-45.360001,12.25,-2.87,1729425266326.0,0.0
-6.283553,-10.205389,5.379066,-6.37,6.93,-17.85,1729425266411.0,0.0
-5.510671,-7.664211,5.766702,31.360001,9.17,-26.530001,1729425266412.0,0.0
-5.582455,-5.304887,6.388836,54.880001,18.27,-21.0,1729425266414.0,0.0
-5.606383,-4.520042,6.888937,34.23,16.870001,-39.200001,1729425266415.0,0.0
-5.871986,-3.251846,7.63789,19.879999,9.03,-38.990002,1729425266425.0,0.0
-5.788238,-2.120041,7.391429,28.139999,1.96,-21.139999,1729425266446.0,0.0
-4.843073,-2.56032,6.482157,20.299999,2.17,-31.780001,1729425266465.0,0.0
-5.594419,-2.888137,6.285945,51.939999,-1.05,-0.84,1729425266485.0,0.0
-6.132804,0.803988,6.965507,58.52,10.22,13.79,1729425266506.0,0.0
-7.025328,-0.894916,6.936793,15.54,6.02,37.73,1729425266526.0,0.0
-7.664211,-4.496114,5.627919,-45.43,-6.72,20.790001,1729425266545.0,0.0
-7.109076,-8.274381,4.242475,-65.029999,-18.200001,27.02,1729425266570.0,0.0
-6.032306,-5.343173,4.161119,-80.5,-33.950001,30.59,1729425266585.0,0.0
-5.977271,-6.534799,6.448657,-36.189999,-29.049999,52.360001,1729425266606.0,0.0
-5.429315,-7.290931,5.257031,-77.209999,-12.46,-1.47,1729425266626.0,0.0
-6.702296,-8.970692,4.421937,-36.189999,-0.42,17.92,1729425266645.0,0.0
-5.9677,-10.834702,5.345565,4.2,-2.1,-20.370001,1729425266665.0,0.0
-5.144568,-8.238488,5.393422,20.860001,-4.27,-29.469999,1729425266685.0,0.0
-4.993821,-5.20439,6.778866,60.41,5.67,-17.01,1729425266707.0,0.0
-4.912465,-4.21376,6.65444,50.82,9.8,-34.299999,1729425266725.0,0.0
-4.84068,-4.977071,5.71406,29.33,9.8,-33.389999,1729425266749.0,0.0
-4.742575,-4.106083,6.532406,21.77,10.29,-45.009998,1729425266765.0,0.0
-5.584848,-2.591427,6.635297,62.369999,15.68,-14.91,1729425266785.0,0.0
-4.993821,-1.488336,7.178468,71.68,19.25,-23.450001,1729425266807.0,0.0
-6.441479,-0.284746,6.530013,75.25,13.93,17.5,1729425266825.0,0.0
-7.369894,-0.98345,6.412765,45.849998,14.98,19.460001,1729425266850.0,0.0
-7.159326,-4.900501,5.242674,-51.59,-6.3,7.91,1729425266865.0,0.0
-6.192625,-8.709875,4.850252,-85.400002,-29.610001,4.83,1729425266885.0,0.0
-4.953143,-7.91785,5.441278,-67.269997,-37.66,14.77,1729425266907.0,0.0
-5.039285,-6.080163,5.704489,-19.25,-15.82,29.540001,1729425266925.0,0.0
-5.024928,-8.4012,5.096712,-25.76,1.12,-1.12,1729425266945.0,0.0
-5.388636,-10.085747,4.618148,-32.41,-0.14,-23.17,1729425266965.0,0.0
-5.233103,-7.164111,5.436492,11.13,5.39,-15.61,1729425266986.0,0.0
-5.525027,-4.733003,6.269196,41.23,18.690001,-18.34,1729425267006.0,0.0
-5.793024,-4.036692,6.886543,19.879999,22.610001,-35.209999,1729425267025.0,0.0
-5.759524,-3.565305,7.692925,4.27,12.39,-36.82,1729425267046.0,0.0
-5.190032,-2.663212,8.195417,11.06,5.46,-32.34,1729425267066.0,0.0
-4.917251,-1.615155,8.032705,32.34,8.26,-19.040001,1729425267084.0,0.0
-5.460421,0.595813,7.970492,54.389999,9.66,6.3,1729425267106.0,0.0
-6.092126,1.217947,7.357929,57.75,11.62,23.870001,1729425267125.0,0.0
-6.999006,-1.361516,6.458229,18.549999,11.48,23.66,1729425267145.0,0.0
-7.360322,-5.4676,5.216353,-34.790001,1.96,12.95,1729425267164.0,0.0
-6.147161,-8.090133,4.706682,-57.610001,-15.47,14.56,1729425267184.0,0.0
-5.228317,-7.257431,4.618148,-39.549999,-25.690001,28.77,1729425267205.0,0.0
-4.776074,-8.556733,4.821537,-47.670002,-6.86,-3.29,1729425267225.0,0.0
-6.092126,-9.899107,4.59422,-36.82,19.389999,-13.86,1729425267245.0,0.0
-6.156733,-10.638489,5.005785,26.32,24.290001,-24.15,1729425267264.0,0.0
-5.381458,-7.444071,5.144568,61.880001,22.33,-33.389999,1729425267285.0,0.0
-5.156533,-4.795217,5.749953,74.480003,30.17,-25.129999,1729425267307.0,0.0
-4.728218,-3.294917,6.51087,32.549999,28.49,-44.380001,1729425267334.0,0.0
-5.13739,-3.783052,7.549356,-15.82,28.139999,-53.689999,1729425267346.0,0.0
-5.65424,-5.371887,7.984849,-10.22,26.6,-56.77,1729425267364.0,0.0
-4.972286,-5.307281,5.836094,44.52,22.4,-60.060001,1729425267384.0,0.0
-6.202196,-0.87338,7.518249,130.759995,27.65,-3.29,1729425267406.0,0.0
-6.293124,3.378666,7.283752,131.389999,26.950001,14.0,1729425267424.0,0.0
-7.659425,4.73061,8.10449,57.610001,11.48,33.950001,1729425267445.0,0.0
-8.106883,0.768096,6.635297,-37.59,-17.290001,46.130001,1729425267465.0,0.0
-7.499106,-4.268795,4.259224,-133.279999,-34.580002,21.559999,1729425267484.0,0.0
-6.965507,-8.595018,1.942972,-156.380005,-49.279999,33.040001,1729425267505.0,0.0
-5.005785,-7.32443,3.936193,-103.739998,-51.939999,23.309999,1729425267525.0,0.0
-5.960521,-9.083155,5.769095,-19.950001,-6.51,36.610001,1729425267545.0,0.0
-6.422336,-11.574083,4.197011,-27.02,20.860001,-23.73,1729425267564.0,0.0
-6.331409,-11.337193,4.055835,6.72,9.24,-24.57,1729425267585.0,0.0
-4.838287,-7.238289,5.508278,48.299999,3.64,-27.65,1729425267605.0,0.0
-4.666004,-3.799802,6.936793,56.420002,15.96,-26.25,1729425267624.0,0.0
-4.98425,-2.328217,7.396214,32.689999,28.559999,-29.610001,1729425267646.0,0.0
-5.304887,-2.95035,8.025528,-1.47,21.0,-37.799999,1729425267664.0,0.0
-5.228317,-5.367101,7.850852,-2.94,0.7,-36.75,1729425267684.0,0.0
-4.237689,-4.685147,5.828916,17.57,-1.33,-38.5,1729425267706.0,0.0
-5.168497,-1.663012,7.422535,94.220001,7.63,9.1,1729425267724.0,0.0
-5.601598,2.880959,8.221739,89.739998,10.92,29.190001,1729425267745.0,0.0
-6.865008,3.261417,8.487342,35.139999,-0.42,48.790001,1729425267765.0,0.0
-7.288538,-0.354138,6.606583,-53.200001,-20.719999,43.470001,1729425267785.0,0.0
-7.278966,-4.895715,4.429115,-118.020004,-34.650002,36.189999,1729425267805.0,0.0
-6.412765,-9.322437,2.74696,-123.340004,-45.080002,35.349998,1729425267826.0,0.0
-5.417351,-7.927422,3.694518,-118.300003,-53.34,34.509998,1729425267850.0,0.0
-5.596812,-8.551948,5.766702,-41.790001,-12.32,35.209999,1729425267865.0,0.0
-5.991628,-10.899307,3.785445,-53.830002,12.25,-13.72,1729425267891.0,0.0
-6.477371,-12.153147,3.629912,12.74,18.620001,-4.97,1729425267907.0,0.0
-5.003392,-9.844072,4.859823,65.800003,23.799999,-40.25,1729425267924.0,0.0
-5.125426,-5.448457,5.84088,81.410004,41.790001,-32.759998,1729425267945.0,0.0
-5.166104,-4.522435,6.833901,73.150002,45.5,-41.93,1729425267964.0,0.0
-4.218546,-5.343173,6.245267,30.66,34.299999,-69.090004,1729425267984.0,0.0
-4.85743,-5.948557,7.448857,28.700001,28.98,-63.700001,1729425268008.0,0.0
-5.257031,-1.878366,7.508677,77.769997,40.389999,-51.099998,1729425268024.0,0.0
-6.400801,1.789831,8.518449,126.489998,37.099998,-7.63,1729425268045.0,0.0
-6.709475,5.426922,7.690532,110.739998,18.129999,21.98,1729425268065.0,0.0
-7.228717,4.323831,7.221539,62.860001,-9.52,56.349998,1729425268084.0,0.0
-7.259824,-0.588634,5.943772,-46.060001,-20.860001,40.110001,1729425268105.0,0.0
-7.384251,-4.898108,4.031906,-137.899994,-21.139999,29.540001,1729425268126.0,0.0
-7.432107,-9.142976,3.658626,-146.020004,-35.209999,44.799999,1729425268145.0,0.0
-5.458029,-11.023734,4.819145,-128.029999,-62.720001,20.440001,1729425268164.0,0.0
-5.371887,-10.234102,4.828716,-73.709999,-50.400002,39.759998,1729425268185.0,0.0
-5.266603,-12.251251,4.508078,-16.24,9.17,-31.08,1729425268205.0,0.0
-6.357729,-9.882358,3.962514,21.0,22.120001,-28.98,1729425268224.0,0.0
-6.04427,-5.52742,5.072784,66.989998,25.690001,-19.6,1729425268245.0,0.0
-5.489135,-3.136991,6.252446,51.450001,17.43,-30.799999,1729425268264.0,0.0
-5.139783,-2.275574,7.058826,19.110001,14.14,-40.670002,1729425268284.0,0.0
-5.201996,-3.20399,7.343572,12.81,17.08,-38.290001,1729425268306.0,0.0
-4.795217,-3.058028,6.616155,15.89,17.85,-40.810001,1729425268324.0,0.0
-5.218746,-1.048056,7.267002,63.209999,20.299999,-6.3,1729425268344.0,0.0
-5.572884,1.61037,8.035098,77.699997,20.299999,20.93,1729425268365.0,0.0
-6.431907,2.411965,8.372486,44.939999,16.52,38.779999,1729425268384.0,0.0
-6.979864,-0.81356,7.085148,-21.84,2.59,40.32,1729425268407.0,0.0
-7.113862,-5.221139,4.912465,-87.849998,-11.76,25.969999,1729425268425.0,0.0
-6.192625,-10.124033,3.491128,-94.150002,-28.07,14.91,1729425268444.0,0.0
-5.580062,-8.817552,5.259424,-84.279999,-32.830002,20.58,1729425268465.0,0.0
-5.74756,-6.513263,5.673382,-14.49,-4.06,47.25,1729425268485.0,0.0
-5.812167,-9.659825,5.436492,-34.23,13.58,-1.26,1729425268505.0,0.0
-5.907879,-11.375479,4.541577,-43.330002,8.33,-28.700001,1729425268524.0,0.0
-5.134997,-6.345766,6.221339,64.120003,14.14,-18.969999,1729425268545.0,0.0
-5.285746,-3.632305,7.156933,75.949997,26.74,-23.73,1729425268565.0,0.0
-5.821737,-3.04367,7.281359,41.720001,29.4,-37.170002,1729425268584.0,0.0
-6.111269,-2.385644,7.779066,17.01,16.52,-39.34,1729425268678.0,0.0
-6.21416,-1.684547,7.49432,14.14,4.9,-26.530001,1729425268686.0,0.0
-5.580062,-2.294717,7.077969,37.170002,0.28,-21.98,1729425268686.0,0.0
-5.831308,0.815953,6.570691,63.209999,2.94,19.389999,1729425268687.0,0.0
-6.599405,2.299503,7.168896,65.660004,8.4,47.110001,1729425268687.0,0.0
-6.84108,-0.567099,6.386444,0.98,6.65,19.6,1729425268705.0,0.0
-7.381857,-5.254639,4.113262,-66.779999,-2.59,16.73,1729425268725.0,0.0
-6.647261,-9.47797,2.804388,-52.639999,-14.07,15.75,1729425268744.0,0.0
-5.254639,-9.600004,4.39083,-36.400002,-21.84,7.42,1729425268764.0,0.0
-5.424529,-7.113862,6.099305,-17.57,1.19,13.65,1729425268784.0,0.0
-6.128019,-7.034898,5.888737,7.63,26.110001,9.94,1729425268805.0,0.0
-6.302694,-9.267403,4.474578,3.29,18.34,-12.39,1729425268824.0,0.0
-5.65424,-10.576276,3.613162,22.75,7.63,-26.809999,1729425268848.0,0.0
-5.496314,-5.955735,5.525027,73.639999,19.67,-34.720001,1729425268864.0,0.0
-6.058627,-3.972085,6.62094,60.200001,37.939999,-44.52,1729425268884.0,0.0
-6.257231,-2.852244,7.001399,28.49,29.75,-46.200001,1729425268905.0,0.0
-5.838487,-2.287539,6.829116,20.719999,14.0,-42.630001,1729425268924.0,0.0
-5.563312,-1.40698,6.386444,48.16,7.35,-22.960001,1729425268944.0,0.0
-5.843273,1.926222,6.793223,49.91,17.780001,2.03,1729425268964.0,0.0
-7.121039,2.359323,6.84108,50.959999,22.75,39.200001,1729425268984.0,0.0
-7.633104,-0.784846,6.04427,6.51,16.870001,25.76,1729425269004.0,0.0
-7.834101,-4.728218,4.649254,-44.450001,2.66,21.700001,1729425269025.0,0.0
-7.164111,-6.477371,3.376273,-39.689999,-10.71,31.43,1729425269044.0,0.0
-5.958128,-5.563312,5.240282,-37.73,-14.56,35.349998,1729425269063.0,0.0
-5.9677,-3.823731,5.955735,-69.440002,-8.26,28.35,1729425269084.0,0.0
-6.766902,-7.379465,5.831308,-73.919998,2.94,26.950001,1729425269104.0,0.0
-6.52762,-11.684153,4.816752,-89.809998,-0.28,-25.41,1729425269125.0,0.0
-6.242875,-13.07199,4.677969,-8.68,-7.28,-17.639999,1729425269145.0,0.0
-5.4341,-6.903293,5.63749,52.43,12.32,-26.809999,1729425269164.0,0.0
-6.273981,-3.749553,7.128219,65.590004,32.060001,-30.66,1729425269183.0,0.0
-6.60419,-3.290131,7.513463,18.83,20.370001,-55.720001,1729425269206.0,0.0
-6.501299,-1.978864,7.537392,18.620001,0.14,-37.66,1729425269224.0,0.0
-5.726025,-0.153141,6.915257,37.240002,0.42,-27.790001,1729425269244.0,0.0
-6.458229,2.014757,7.427321,58.380001,6.44,5.32,1729425269264.0,0.0
-7.037291,3.862016,7.204789,54.740002,3.22,41.650002,1729425269283.0,0.0
-7.396214,0.722632,6.640083,14.14,-11.69,49.0,1729425269305.0,0.0
-7.317252,-3.804588,4.955536,-62.23,-19.74,32.689999,1729425269325.0,0.0
-7.534998,-8.245667,3.945765,-82.879997,-22.049999,36.540001,1729425269343.0,0.0
-6.407979,-7.477571,5.292924,-75.25,-33.599998,32.970001,1729425269363.0,0.0
-6.159126,-3.883551,5.481956,-38.920002,-26.32,65.940002,1729425269386.0,0.0
-6.226124,-6.336195,6.178268,-55.16,-13.58,32.48,1729425269404.0,0.0
-6.865008,-10.872985,3.766303,-74.830002,-10.43,2.73,1729425269424.0,0.0
-6.02752,-11.633904,3.876373,-16.799999,-8.75,-6.09,1729425269445.0,0.0
-4.943572,-10.861022,4.728218,39.48,6.72,-35.700001,1729425269463.0,0.0
-5.326423,-7.221539,5.486742,73.779999,33.810001,-46.41,1729425269484.0,0.0
-5.955735,-4.709075,6.711867,83.720001,45.150002,-51.52,1729425269506.0,0.0
-5.730811,-1.629512,6.319445,60.830002,30.24,-58.380001,1729425269524.0,0.0
-5.793024,-0.040678,7.783852,47.740002,8.47,-41.439999,1729425269544.0,0.0
-6.015556,0.854238,7.293324,43.259998,4.41,-21.629999,1729425269564.0,0.0
-7.192825,4.886144,8.9683,51.59,1.68,24.01,1729425269583.0,0.0
-7.800602,5.206782,8.216952,45.009998,-16.799999,75.739998,1729425269605.0,0.0
-7.752745,0.524028,6.226124,-41.650002,-30.73,50.889999,1729425269624.0,0.0
-7.939385,-5.221139,3.318845,-115.989998,-39.130001,46.200001,1729425269644.0,0.0
-7.463214,-10.181459,3.835695,-129.149994,-48.369999,38.57,1729425269663.0,0.0
-5.986843,-8.69791,4.651647,-119.910004,-62.510002,33.950001,1729425269683.0,0.0
-6.455836,-6.283553,6.025128,-57.82,-34.299999,65.029999,1729425269704.0,0.0
-6.702296,-9.186047,5.515456,-54.32,-7.77,4.48,1729425269723.0,0.0
-7.001399,-12.947563,3.180061,-29.68,-6.58,-26.950001,1729425269744.0,0.0
-5.505885,-10.224532,3.455236,46.48,-2.38,-34.369999,1729425269763.0,0.0
-5.087141,-4.587041,4.716253,85.959999,24.57,-35.84,1729425269783.0,0.0
-5.56092,-2.63689,6.168696,77.209999,40.880001,-41.23,1729425269805.0,0.0
-5.608776,-3.261417,6.666404,34.93,35.139999,-59.920002,1729425269824.0,0.0
-5.668597,-3.352344,7.283752,21.280001,20.299999,-54.880001,1729425269846.0,0.0
-5.520242,-0.275175,8.200203,41.369999,15.12,-29.75,1729425269863.0,0.0
-5.666204,1.122234,7.716853,59.290001,16.799999,-13.58,1729425269883.0,0.0
-6.745367,3.775874,8.238488,70.139999,7.28,41.860001,1729425269904.0,0.0
-6.896115,2.505285,7.987241,30.380001,-5.6,49.349998,1729425269932.0,0.0
-6.996613,-1.794617,5.4676,-67.690002,-17.360001,35.420002,1729425269943.0,0.0
-7.190433,-7.398607,3.448057,-111.510002,-29.960001,37.939999,1729425269964.0,0.0
-6.204589,-11.212767,4.424329,-110.529999,-42.0,15.4,1729425269984.0,0.0
-5.630312,-7.051648,4.448257,-91.419998,-32.41,30.1,1729425270005.0,0.0
-6.424729,-5.326423,6.752545,-30.59,-3.57,50.119999,1729425270023.0,0.0
-6.690332,-8.063812,5.91745,-53.130001,4.83,-6.44,1729425270044.0,0.0
-6.429514,-12.847065,3.553342,-35.77,-11.27,-24.08,1729425270063.0,0.0
-5.036892,-10.174281,4.206582,23.030001,-11.83,-28.35,1729425270083.0,0.0
-4.876573,-5.862415,6.360123,66.989998,17.5,-33.389999,1729425270105.0,0.0
-5.632704,-3.751946,7.506285,54.599998,37.59,-56.279999,1729425270124.0,0.0
-6.79083,-1.818545,7.929814,38.43,34.860001,-52.220001,1729425270143.0,0.0
-6.855437,-0.62692,7.79103,37.66,17.780001,-39.200001,1729425270164.0,0.0
-6.049056,1.308874,6.85783,46.41,5.6,-32.200001,1729425270183.0,0.0
-6.606583,5.084748,7.503892,80.5,-6.44,50.119999,1729425270204.0,0.0
-6.558727,1.801795,6.821937,13.72,-15.68,43.330002,1729425270223.0,0.0
-6.592227,-3.294917,4.548756,-95.269997,-21.91,31.92,1729425270245.0,0.0
-6.608976,-8.798409,3.309274,-135.940002,-30.59,27.93,1729425270263.0,0.0
-5.675776,-11.47837,4.991428,-123.340004,-46.549999,15.4,1729425270284.0,0.0
-5.134997,-6.759724,4.945964,-57.189999,-35.209999,47.880001,1729425270304.0,0.0
-5.266603,-6.302694,6.642475,-20.93,-4.34,33.529999,1729425270323.0,0.0
-6.324231,-9.997212,4.733003,-42.490002,6.93,-12.81,1729425270344.0,0.0
-6.18784,-12.830315,3.266203,4.06,3.71,-28.700001,1729425270363.0,0.0
-5.321638,-7.415358,4.37408,52.150002,16.799999,-31.219999,1729425270385.0,0.0
-5.525027,-3.400201,6.312266,79.379997,37.73,-29.82,1729425270404.0,0.0
-6.175875,-1.497907,8.02792,44.450001,43.959999,-42.07,1729425270423.0,0.0
-6.443871,-0.480957,8.819944,14.98,25.27,-37.099998,1729425270443.0,0.0
-6.029913,-0.430708,8.322237,25.48,-1.05,-14.0,1729425270463.0,0.0
-5.072784,-0.729811,7.085148,31.57,-4.76,-16.030001,1729425270483.0,0.0
-6.24766,0.775275,7.659425,52.360001,4.2,23.59,1729425270504.0,0.0
-7.144968,-0.248854,7.530212,51.380001,2.73,54.389999,1729425270523.0,0.0
-7.221539,-4.144369,4.974678,-65.169998,-20.02,30.799999,1729425270543.0,0.0
-6.783652,-8.578269,3.213561,-106.610001,-32.759998,24.92,1729425270563.0,0.0
-5.82413,-9.064013,3.866802,-103.459999,-41.16,14.42,1729425270584.0,0.0
-5.694918,-6.278766,4.986642,-41.16,-22.190001,42.279999,1729425270604.0,0.0
-5.979663,-7.458428,5.568098,-38.990002,8.89,12.95,1729425270624.0,0.0
-6.975078,-12.076575,3.869194,-37.450001,13.23,-17.15,1729425270649.0,0.0
-5.876772,-11.925828,4.07737,21.629999,6.58,-40.18,1729425270662.0,0.0
-5.178068,-5.682954,5.45085,78.540001,22.960001,-26.809999,1729425270684.0,0.0
-5.453243,-2.411965,7.111469,85.330002,37.240002,-32.060001,1729425270705.0,0.0
-6.199803,-1.617548,7.503892,33.18,36.540001,-44.939999,1729425270723.0,0.0
-6.685547,-2.488536,7.125826,2.87,17.360001,-42.420002,1729425270743.0,0.0
-6.04427,-2.112862,6.309873,13.79,2.94,-35.0,1729425270763.0,0.0
-5.503492,-0.631705,6.54437,39.970001,13.37,-18.48,1729425270783.0,0.0
-5.838487,0.926022,7.290931,73.709999,15.82,16.030001,1729425270804.0,0.0
-6.065805,1.828116,7.357929,66.919998,11.2,27.440001,1729425270823.0,0.0
-6.800402,-1.261017,6.733403,13.86,11.76,27.370001,1729425270846.0,0.0
-6.953543,-6.606583,3.723232,-58.799999,7.42,22.4,1729425270863.0,0.0
-6.570691,-8.346166,5.989235,-91.279999,-21.84,16.66,1729425270883.0,0.0
-6.630512,-6.001199,6.233303,-47.389999,-20.299999,47.459999,1729425270904.0,0.0
-6.020342,-6.898508,6.786045,-34.369999,-9.1,33.18,1729425270923.0,0.0
-6.520442,-10.920842,4.709075,-40.040001,-10.01,33.18,1729425270944.0,0.0
-5.962914,-11.624333,5.32403,6.09,-1.82,-17.290001,1729425270963.0,0.0
-5.257031,-7.068398,6.400801,43.540001,14.7,-26.040001,1729425270983.0,0.0
-5.431707,-3.962514,7.034898,65.940002,21.559999,-23.1,1729425271005.0,0.0
-5.261817,-2.608176,6.202196,32.900002,24.5,-38.990002,1729425271024.0,0.0
-5.816952,-3.397808,6.853044,-3.64,13.93,-52.5,1729425271044.0,0.0
-6.486942,-4.029513,7.489535,24.85,0.63,-39.130001,1729425271063.0,0.0
-4.989035,-2.112862,5.745167,53.41,4.06,-43.189999,1729425271082.0,0.0
-6.113662,2.943172,7.372287,105.629997,3.85,20.93,1729425271105.0,0.0
-6.611369,5.505885,6.872187,97.090004,-1.05,47.25,1729425271123.0,0.0
-7.712067,1.579263,6.707082,4.06,-6.58,36.68,1729425271143.0,0.0
-7.893922,-4.029513,4.802395,-107.029999,-23.940001,25.129999,1729425271163.0,0.0
-6.802795,-10.394422,3.912265,-127.470001,-49.91,15.75,1729425271183.0,0.0
-4.307081,-7.465607,4.4339,-106.540001,-69.160004,13.86,1729425271204.0,0.0
-4.87418,-7.750352,6.352944,20.51,-10.57,35.0,1729425271223.0,0.0
-5.781059,-9.456435,4.974678,-7.07,27.51,-19.25,1729425271244.0,0.0
-7.121039,-9.765109,5.419744,8.68,29.889999,-25.690001,1729425271263.0,0.0
-6.597012,-5.218746,6.336195,43.540001,24.85,-31.92,1729425271283.0,0.0
-6.070591,-2.945565,7.082755,50.68,23.59,-30.17,1729425271306.0,0.0
-5.568098,-1.574477,7.496714,24.639999,16.940001,-44.310001,1729425271323.0,0.0
-5.876772,-2.565106,7.664211,15.61,12.95,-40.599998,1729425271342.0,0.0
-5.749953,-1.801795,6.754939,17.08,19.6,-45.990002,1729425271363.0,0.0
-6.628119,2.665605,7.970492,71.050003,18.83,11.83,1729425271382.0,0.0
-6.518049,5.257031,8.736196,79.099998,3.71,50.82,1729425271403.0,0.0
-6.470192,2.565106,8.181061,1.82,-16.24,56.490002,1729425271423.0,0.0
-6.821937,-2.333002,5.65424,-102.900002,-29.960001,55.439999,1729425271443.0,0.0
-6.912865,-8.350951,2.419144,-132.369995,-34.439999,49.0,1729425271462.0,0.0
-6.080163,-9.102298,2.646462,-133.0,-40.25,29.68,1729425271483.0,0.0
-6.238089,-9.446864,5.60399,-61.040001,-21.98,48.509998,1729425271504.0,0.0
-7.310073,-12.14836,4.517649,-40.599998,15.54,-2.59,1729425271523.0,0.0
-7.051648,-10.837094,4.929214,22.82,32.27,-27.93,1729425271543.0,0.0
-6.276374,-5.479564,5.252246,85.75,28.77,-35.07,1729425271563.0,0.0
-5.759524,-3.108276,6.474977,83.860001,27.93,-38.920002,1729425271583.0,0.0
-4.807181,-2.620141,6.582655,34.02,20.58,-60.41,1729425271606.0,0.0
-5.020142,-2.617748,7.099504,34.02,15.89,-57.540001,1729425271623.0,0.0
-5.570491,-0.976272,7.936993,32.549999,17.290001,-30.030001,1729425271645.0,0.0
-5.534599,-0.370888,7.685746,58.869999,13.51,-19.18,1729425271663.0,0.0
-5.630312,1.347159,7.278966,80.43,4.76,2.38,1729425271683.0,0.0
-6.333801,2.706282,7.341179,81.620003,0.7,49.84,1729425271704.0,0.0
-6.661618,0.189033,7.384251,15.26,-4.69,43.959999,1729425271723.0,0.0
