acc_x,acc_y,acc_z,gyr_x,gyr_y,gyr_z,timestamp,label
-4.744967,-2.825923,-4.754539,356.440002,58.73,-5.46,1729472809257.0,0.0
-4.271189,-6.130411,-3.4672,150.710007,46.27,-22.75,1729472809260.0,0.0
-2.660819,-9.52822,-3.28056,36.189999,22.469999,-37.939999,1729472809261.0,0.0
-1.399801,-10.966305,-3.404987,31.57,11.97,-42.490002,1729472809262.0,0.0
-1.048056,-9.525827,-3.151347,54.18,16.309999,-52.360001,1729472809272.0,0.0
-1.639083,-7.704889,-1.995614,48.02,14.91,-59.43,1729472809292.0,0.0
-1.344766,-7.372287,-1.875973,-11.06,-0.77,-66.010002,1729472809313.0,0.0
-0.564706,-6.513263,-2.124826,-48.860001,-14.49,-66.220001,1729472809334.0,0.0
0.043071,-5.525027,-2.471786,-84.769997,-24.15,-56.0,1729472809352.0,0.0
0.411566,-3.378666,-2.28036,-130.690002,-30.52,-42.490002,1729472809372.0,0.0
0.775275,-1.268196,-1.162912,-182.0,-39.830002,-21.07,1729472809392.0,0.0
1.098306,0.57667,-0.914058,-244.440002,-59.920002,7.35,1729472809411.0,0.0
0.90688,-2.096112,-3.76391,-279.51001,-84.559998,43.330002,1729472809434.0,0.0
-0.052642,-8.157133,-11.188839,-260.049988,-104.720001,68.739998,1729472809452.0,0.0
-1.244268,-20.090139,-18.041883,-29.469999,-103.25,86.730003,1729472809472.0,0.0
-6.929615,-29.412575,-16.871792,497.769989,-48.93,132.580002,1729472809492.0,0.0
-9.863215,-13.179667,-18.094524,1029.069946,26.110001,157.289993,1729472809512.0,0.0
-12.485749,-4.599005,-9.856036,1165.920044,95.760002,91.489998,1729472809535.0,0.0
-13.878372,4.386044,-3.369094,1020.669983,100.730003,50.75,1729472809553.0,0.0
-12.313466,7.836494,7.695317,712.880005,82.32,23.24,1729472809572.0,0.0
-6.51087,-0.421137,8.106883,177.029999,-25.620001,-56.349998,1729472809592.0,0.0
-5.300103,-8.243275,4.522435,-119.910004,-33.740002,-98.840004,1729472809612.0,0.0
-3.285345,-8.267202,4.199404,-147.350006,-4.2,-83.510002,1729472809634.0,0.0
-4.185047,-5.201996,6.034698,-154.839996,28.42,-70.559998,1729472809652.0,0.0
-4.419543,-4.847858,5.876772,-204.539993,10.5,-53.830002,1729472809672.0,0.0
-3.708875,-4.888536,2.70389,-305.899994,-7.07,-52.290001,1729472809692.0,0.0
-2.74696,-6.970293,1.01695,-326.480011,-25.76,-40.25,1729472809712.0,0.0
-2.199004,-8.23131,-0.930808,-301.209991,-19.530001,-32.48,1729472809734.0,0.0
-2.723032,-9.363115,-1.921437,-231.699997,-0.14,-23.66,1729472809753.0,0.0
-3.515057,-9.600004,-1.713261,-144.550003,17.57,-14.35,1729472809773.0,0.0
-3.924229,-9.480364,-1.232304,-75.32,28.280001,-6.65,1729472809792.0,0.0
-4.086941,-9.47797,-0.832702,-33.040001,29.120001,-2.73,1729472809812.0,0.0
-4.182654,-9.470792,-0.777667,-9.1,28.0,-0.98,1729472809834.0,0.0
-4.259224,-9.284152,-0.744168,-0.21,27.790001,0.49,1729472809852.0,0.0
-4.256832,-8.9683,-0.66999,-8.61,26.110001,1.12,1729472809872.0,0.0
-4.309474,-9.004191,-0.55992,-32.200001,22.75,-1.82,1729472809893.0,0.0
-4.369294,-9.245867,-0.722632,-56.0,20.370001,-5.67,1729472809913.0,0.0
-4.362115,-9.525827,-0.973879,-65.309998,19.18,-7.49,1729472809937.0,0.0
-4.218546,-9.394222,-1.11027,-59.639999,17.08,-7.56,1729472809952.0,0.0
-4.005585,-8.980263,-1.347159,-43.68,13.93,-8.05,1729472809972.0,0.0
-3.945765,-8.908479,-1.258625,-36.119999,11.48,-7.07,1729472809992.0,0.0
-3.773481,-9.102298,-1.366302,-29.68,7.77,-8.26,1729472810012.0,0.0
-3.699304,-9.078369,-1.478764,-23.66,6.65,-8.96,1729472810045.0,0.0
-3.704089,-8.874979,-1.543371,-17.92,6.58,-8.33,1729472810053.0,0.0
-3.68734,-8.657232,-1.679761,-14.42,5.88,-7.84,1729472810073.0,0.0
-3.735196,-8.535198,-1.732404,-14.21,5.25,-5.95,1729472810092.0,0.0
-3.828516,-8.745767,-1.758725,-17.710001,4.2,-4.97,1729472810113.0,0.0
-3.900301,-8.889337,-1.947758,-19.32,3.5,-4.13,1729472810134.0,0.0
-3.976871,-8.913264,-2.141576,-15.54,3.01,-2.94,1729472810152.0,0.0
-4.022335,-8.958728,-2.254039,-8.47,2.73,-1.47,1729472810172.0,0.0
-4.09412,-8.817552,-2.28036,-2.66,2.45,-0.07,1729472810192.0,0.0
-4.290331,-8.740981,-2.354537,1.61,3.15,1.19,1729472810213.0,0.0
-4.328616,-8.80798,-2.35693,3.15,1.96,2.03,1729472810236.0,0.0
-4.273581,-8.819944,-2.40718,4.27,-0.7,1.89,1729472810251.0,0.0
-4.130012,-8.678767,-2.414358,3.15,-2.38,1.4,1729472810272.0,0.0
-4.039084,-8.762517,-2.402394,-0.98,-3.85,1.05,1729472810292.0,0.0
-4.065405,-8.800802,-2.488536,-7.91,-4.2,0.56,1729472810312.0,0.0
-3.969693,-8.839087,-2.490928,-9.17,-4.62,0.42,1729472810334.0,0.0
-3.914658,-8.889337,-2.622534,-9.24,-4.41,0.7,1729472810352.0,0.0
-3.809374,-8.894121,-2.667997,-9.52,-4.27,0.7,1729472810371.0,0.0
-3.835695,-8.910872,-2.629712,-11.34,-3.15,0.35,1729472810393.0,0.0
-3.826123,-9.102298,-2.574677,-12.11,-2.73,-0.21,1729472810411.0,0.0
-3.924229,-9.207582,-2.431108,-9.73,-1.96,-0.77,1729472810434.0,0.0
-3.917051,-9.001799,-2.376073,-6.02,-1.47,-2.52,1729472810452.0,0.0
-3.87398,-8.843873,-2.321038,-8.47,-0.49,-3.99,1729472810471.0,0.0
-3.885944,-8.846266,-2.423929,-17.710001,0.21,-5.39,1729472810493.0,0.0
-3.897908,-8.906086,-2.411965,-27.299999,0.84,-6.58,1729472810520.0,0.0
-3.869194,-8.903693,-2.660819,-30.73,0.63,-7.63,1729472810534.0,0.0
-3.826123,-9.016156,-2.778067,-28.49,0.42,-7.49,1729472810552.0,0.0
-3.87398,-9.205189,-2.995814,-21.559999,1.33,-7.84,1729472810572.0,0.0
-4.048656,-9.217153,-3.014957,-10.78,2.87,-7.07,1729472810592.0,0.0
-4.127619,-9.243474,-3.005385,-0.77,2.8,-7.0,1729472810612.0,0.0
-4.208975,-9.276974,-2.816352,0.7,3.01,-8.26,1729472810634.0,0.0
-4.37408,-9.389436,-2.684747,-8.26,4.48,-13.02,1729472810652.0,0.0
-4.412365,-9.406186,-2.804388,-14.28,4.97,-15.82,1729472810672.0,0.0
-4.307081,-9.327222,-2.940779,-19.74,3.99,-18.549999,1729472810692.0,0.0
-4.187439,-9.133404,-2.931208,-22.120001,4.41,-20.58,1729472810711.0,0.0
-4.039084,-9.171689,-2.9336,-21.91,4.41,-21.210001,1729472810734.0,0.0
-3.804588,-9.178867,-3.136991,-18.83,4.06,-23.52,1729472810751.0,0.0
-3.531806,-8.985049,-3.232704,-14.07,4.55,-27.299999,1729472810771.0,0.0
-3.335595,-8.578269,-3.359523,-12.95,5.32,-30.940001,1729472810793.0,0.0
-3.041277,-8.161918,-3.558127,-16.450001,4.9,-32.549999,1729472810812.0,0.0
-2.624927,-8.015956,-3.713661,-23.940001,2.8,-33.040001,1729472810833.0,0.0
-2.165504,-7.910671,-3.579663,-38.639999,1.61,-32.619999,1729472810851.0,0.0
-1.801795,-8.001599,-4.108476,-53.549999,2.03,-31.360001,1729472810871.0,0.0
-1.524228,-7.898707,-4.412365,-69.300003,3.36,-31.43,1729472810892.0,0.0
-1.469193,-7.91785,-4.376472,-78.470001,5.46,-28.84,1729472810912.0,0.0
-1.524228,-7.812566,-4.615755,-86.169998,5.25,-27.719999,1729472810933.0,0.0
-1.684547,-7.479963,-4.855037,-91.629997,4.06,-26.74,1729472810951.0,0.0
-2.251646,-7.307681,-4.498507,-100.940002,5.18,-22.889999,1729472810972.0,0.0
-2.531606,-7.367501,-4.876573,-117.599998,1.4,-21.559999,1729472810992.0,0.0
-2.806781,-7.209574,-5.376673,-121.099998,-1.82,-19.110001,1729472811012.0,0.0
-3.012564,-6.711867,-5.706882,-122.080002,-5.46,-17.85,1729472811033.0,0.0
-3.52702,-6.262017,-6.24766,-145.669998,-8.12,-20.370001,1729472811051.0,0.0
-4.402793,-5.754738,-8.142776,-185.289993,-8.47,-27.58,1729472811071.0,0.0
-7.530212,-4.862216,-3.424129,-201.460007,-11.97,-23.030001,1729472811092.0,0.0
-8.142776,-9.403792,-8.446664,-167.300003,-23.309999,-38.009998,1729472811111.0,0.0
-5.285746,-10.179067,-7.905886,-53.27,-53.549999,-27.65,1729472811133.0,0.0
-2.548356,-4.900501,-9.186047,44.450001,-40.950001,-25.76,1729472811151.0,0.0
-3.634698,-4.354938,-10.837094,43.68,3.22,15.54,1729472811172.0,0.0
-2.708675,-6.52762,-10.999805,61.670002,26.389999,31.219999,1729472811192.0,0.0
-0.569492,-5.728417,-8.822337,122.360001,34.439999,53.900002,1729472811211.0,0.0
0.79681,-7.087541,-4.914857,124.809998,46.689999,57.610001,1729472811240.0,0.0
1.299303,-6.716653,3.455236,69.019997,39.619999,40.459999,1729472811251.0,0.0
-0.392423,-9.367901,2.316252,12.81,-8.82,18.200001,1729472811271.0,0.0
-4.194618,-7.893922,1.095913,-4.55,-45.080002,3.78,1729472811291.0,0.0
-0.349352,-2.510071,-3.730411,-121.590004,-115.5,-47.950001,1729472811311.0,0.0
-1.306481,-2.459821,-7.178468,-223.580002,-174.789993,-54.950001,1729472811333.0,0.0
-5.474778,-6.683154,-12.643675,-244.580002,-147.979996,-65.660004,1729472811351.0,0.0
-9.221939,-10.152746,-19.420149,-47.32,-80.150002,-22.26,1729472811371.0,0.0
-10.676775,-6.723832,-17.44607,122.360001,-7.7,23.309999,1729472811394.0,0.0
-4.740182,-2.26361,-14.230117,95.059998,5.46,23.17,1729472811411.0,0.0
-1.926222,-4.520042,-12.576675,59.43,28.49,19.67,1729472811435.0,0.0
-3.069991,-4.161119,-9.334401,59.43,67.410004,24.57,1729472811452.0,0.0
-3.215954,-4.986642,-6.271588,79.099998,76.300003,42.139999,1729472811471.0,0.0
-1.318445,-8.171489,-1.691726,82.459999,60.060001,39.130001,1729472811491.0,0.0
0.069392,-8.920443,2.155933,62.02,37.310001,24.780001,1729472811511.0,0.0
-0.485743,-7.635497,1.328017,8.61,0.91,1.68,1729472811535.0,0.0
-5.036892,-5.297709,-1.167697,-59.709999,-22.960001,-13.58,1729472811551.0,0.0
-4.438686,-4.929214,-5.869594,-118.93,-65.449997,-35.420002,1729472811571.0,0.0
-0.497707,-1.624727,-10.332209,-161.210007,-106.540001,-48.650002,1729472811591.0,0.0
-3.098706,-3.952943,-9.353544,-162.259995,-77.699997,-34.720001,1729472811611.0,0.0
-10.79163,-6.039484,-12.074183,-97.090004,-33.950001,-19.460001,1729472811633.0,0.0
-10.179067,-3.818945,-13.964513,4.27,2.94,21.49,1729472811651.0,0.0
-4.924429,-6.553941,-13.040883,-15.54,13.93,15.54,1729472811671.0,0.0
-2.830709,-7.24786,-10.839487,6.44,34.02,14.21,1729472811691.0,0.0
-3.400201,-6.84108,-10.463813,85.120003,55.439999,18.83,1729472811716.0,0.0
-2.866602,-5.388636,-8.575876,139.229996,65.800003,27.790001,1729472811734.0,0.0
-1.641476,-6.826723,-7.032506,137.339996,70.699997,27.65,1729472811751.0,0.0
-0.42353,-8.738588,-3.294917,129.779999,71.330002,18.27,1729472811772.0,0.0
-0.07657,-6.733403,-0.196211,86.800003,59.360001,-3.01,1729472811791.0,0.0
-1.177269,-5.003392,0.413958,20.09,25.48,-18.129999,1729472811811.0,0.0
-4.326223,-3.768696,-0.76331,-24.780001,-6.16,-24.219999,1729472811833.0,0.0
-3.404987,-3.751946,-4.448257,-93.940002,-58.869999,-50.75,1729472811851.0,0.0
-2.048256,-1.710868,-6.886543,-155.119995,-88.690002,-52.360001,1729472811871.0,0.0
-5.773881,-5.534599,-9.406186,-122.919998,-67.550003,-30.1,1729472811892.0,0.0
-10.554741,-5.69731,-13.052847,-66.849998,-17.5,-3.71,1729472811912.0,0.0
-10.427922,-5.651847,-14.924035,-29.75,6.3,23.940001,1729472811934.0,0.0
-3.964907,-7.314859,-12.756138,-17.639999,9.87,17.08,1729472811951.0,0.0
-1.787439,-5.668597,-7.075576,32.759998,29.4,30.17,1729472811971.0,0.0
-2.490928,-5.352744,-7.831708,82.739998,49.91,41.439999,1729472811991.0,0.0
-1.835295,-8.233703,-7.503892,66.010002,54.110001,46.900002,1729472812012.0,0.0
-0.488136,-9.853643,-3.28056,81.830002,52.360001,39.130001,1729472812034.0,0.0
-0.612563,-7.099504,-0.741775,66.919998,42.279999,17.710001,1729472812051.0,0.0
-1.591227,-5.836094,-0.452243,4.97,14.07,-0.28,1729472812072.0,0.0
-3.936193,-4.649254,-2.794817,-23.1,-11.34,-6.86,1729472812091.0,0.0
-3.718446,-4.335794,-5.793024,-56.98,-45.849998,-26.880001,1729472812112.0,0.0
-1.811367,-2.354537,-9.415757,-129.289993,-73.290001,-46.130001,1729472812133.0,0.0
-2.864209,-3.189633,-10.279566,-153.580002,-62.580002,-48.580002,1729472812151.0,0.0
-6.60419,-4.244867,-11.100305,-54.18,-28.98,-9.59,1729472812172.0,0.0
-9.822537,-3.314059,-11.765509,-4.06,0.42,18.48,1729472812191.0,0.0
-7.566105,-4.019942,-12.318252,-44.799999,11.9,22.120001,1729472812211.0,0.0
-3.460021,-6.008378,-10.925629,-56.490002,12.46,15.190001,1729472812236.0,0.0
-3.158526,-5.431707,-8.685946,-18.9,29.190001,14.49,1729472812251.0,0.0
-3.393023,-5.927022,-6.54437,21.91,33.880001,16.450001,1729472812271.0,0.0
-3.019742,-5.965307,-5.017749,22.120001,26.25,13.72,1729472812291.0,0.0
-2.65364,-10.262815,-5.919843,-26.32,16.1,-2.38,1729472812312.0,0.0
-2.510071,-9.801002,-6.123233,-58.310001,-3.29,-44.310001,1729472812333.0,0.0
-3.852444,-6.503692,-7.025328,-28.210001,-11.2,-62.09,1729472812350.0,0.0
-3.897908,-3.821337,-6.379266,-39.830002,-19.25,-71.75,1729472812372.0,0.0
-3.486342,-4.393222,-8.350951,-90.93,-28.35,-76.300003,1729472812392.0,0.0
-3.704089,-4.788038,-10.238889,-102.340004,-23.870001,-73.220001,1729472812410.0,0.0
-3.421736,-3.18724,-9.765109,-61.599998,-18.200001,-62.09,1729472812434.0,0.0
-3.869194,-0.624527,-10.8682,18.34,-7.28,-25.690001,1729472812451.0,0.0
-3.235096,1.722832,-10.49492,76.019997,6.44,11.83,1729472812471.0,0.0
-2.833102,2.227718,-9.571291,102.059998,16.1,52.080002,1729472812699.0,0.0
-3.926622,1.201197,-10.109675,55.93,28.42,62.93,1729472812700.0,0.0
-3.364309,-2.452643,-10.861022,21.280001,30.030001,67.269997,1729472812701.0,0.0
-3.122634,-4.259224,-8.781659,32.759998,38.290001,69.230003,1729472812704.0,0.0
-3.416951,-6.424729,-7.190433,37.170002,40.25,57.959999,1729472812710.0,0.0
-3.292524,-8.039884,-2.852244,23.870001,31.92,44.310001,1729472812712.0,0.0
-4.323831,-10.286745,-2.380858,-50.82,12.88,10.64,1729472812715.0,0.0
-3.634698,-12.741781,-7.752745,-90.580002,-14.7,-28.84,1729472812717.0,0.0
-2.900101,-7.389036,-7.484749,-42.07,-31.360001,-54.810001,1729472812719.0,0.0
-4.539185,-3.759124,-6.049056,-28.630001,-29.68,-65.449997,1729472812722.0,0.0
-4.115655,-3.964907,-9.23151,-82.809998,-39.34,-71.260002,1729472812726.0,0.0
-3.414558,-4.718646,-11.483156,-71.050003,-35.630001,-55.580002,1729472812726.0,0.0
-3.962514,-3.129812,-11.60519,-9.73,-18.9,-35.91,1729472812733.0,0.0
-4.09412,-1.150948,-11.363515,59.920002,-0.84,-4.83,1729472812765.0,0.0
-2.507678,1.414158,-10.073784,89.459999,11.2,20.440001,1729472812782.0,0.0
-1.981257,1.68694,-9.516255,80.779999,22.120001,41.580002,1729472812790.0,0.0
-2.108077,-0.842274,-11.076375,56.630001,27.02,52.709999,1729472812809.0,0.0
-2.9336,-1.765903,-10.509278,66.010002,35.07,64.400002,1729472812834.0,0.0
-3.103491,-3.132205,-9.856036,62.93,45.5,62.790001,1729472812851.0,0.0
-3.311667,-7.111469,-6.580262,53.900002,47.670002,55.93,1729472812871.0,0.0
-4.429115,-8.489735,-3.35713,36.189999,46.970001,36.330002,1729472812950.0,0.0
-5.266603,-11.030912,-2.591427,-1.05,35.490002,16.870001,1729472812950.0,0.0
-4.833502,-10.516455,-6.333801,-56.420002,13.37,-9.87,1729472812951.0,0.0
-3.952943,-7.245467,-6.872187,-66.779999,-11.2,-39.34,1729472812970.0,0.0
-3.766303,-4.481757,-8.508877,-32.48,-24.639999,-48.09,1729472812990.0,0.0
-3.062813,-4.536791,-10.021141,-57.82,-27.16,-55.02,1729472813010.0,0.0
-3.239882,-3.850052,-10.8682,-12.18,-14.42,-25.48,1729472813035.0,0.0
-3.4672,-1.677369,-10.566705,37.029999,-2.73,-3.57,1729472813052.0,0.0
-2.474179,-0.351745,-9.162118,53.48,4.41,10.78,1729472813071.0,0.0
-1.935793,-0.480957,-8.965906,46.689999,8.4,20.299999,1729472813090.0,0.0
-1.895115,-1.18684,-10.145569,20.719999,13.02,25.34,1729472813110.0,0.0
-2.167897,-2.22054,-9.925428,19.110001,15.54,35.139999,1729472813134.0,0.0
-1.820938,-3.9673,-9.896714,29.68,21.98,36.959999,1729472813152.0,0.0
-2.002793,-6.058627,-7.913064,39.27,27.440001,37.869999,1729472813171.0,0.0
-2.739782,-7.085148,-6.826723,28.35,30.380001,23.379999,1729472813190.0,0.0
-3.318845,-8.169096,-5.522634,15.54,23.870001,12.67,1729472813211.0,0.0
-4.721039,-8.283953,-3.151347,-18.9,12.39,-8.47,1729472813235.0,0.0
-6.991827,-8.286345,-5.103891,-73.639999,-2.8,-32.200001,1729472813251.0,0.0
-6.106483,-9.96132,-7.211967,-80.080002,-23.73,-52.57,1729472813274.0,0.0
-4.644469,-6.45105,-8.46102,-52.849998,-27.790001,-57.82,1729472813292.0,0.0
-3.926622,-4.287938,-9.925428,-39.900002,-21.84,-52.920002,1729472813310.0,0.0
-2.931208,-3.409772,-10.461421,-39.900002,-11.48,-24.92,1729472813333.0,0.0
-2.907279,-2.318645,-10.456635,28.77,0.28,-5.18,1729472813350.0,0.0
-2.696711,-2.194218,-9.839286,43.330002,10.64,4.97,1729472813370.0,0.0
-1.665405,-3.326023,-11.330014,55.23,14.28,2.59,1729472813390.0,0.0
-0.705883,-1.765903,-10.080962,89.809998,22.610001,6.23,1729472813410.0,0.0
-1.184447,-1.323231,-9.013763,104.720001,38.920002,16.59,1729472813433.0,0.0
-1.071985,-4.235296,-8.188239,72.870003,47.950001,20.02,1729472813450.0,0.0
-1.519442,-7.635497,-7.075576,82.389999,46.48,22.049999,1729472813470.0,0.0
-2.9336,-9.064013,-6.661618,117.459999,46.759998,7.63,1729472813490.0,0.0
-4.058227,-9.363115,-6.721439,207.339996,35.77,7.7,1729472813510.0,0.0
-4.412365,-9.018548,-5.513064,345.519989,16.66,17.08,1729472813532.0,0.0
-4.979464,-7.709675,-1.299303,451.290009,-3.36,22.889999,1729472813550.0,0.0
-5.268995,-6.250053,-2.67039,394.799988,-10.99,14.0,1729472813570.0,0.0
-4.711468,-7.133004,-4.498507,252.419998,-18.34,11.62,1729472813591.0,0.0
-3.902694,-9.45165,-3.536592,155.889999,-12.04,6.09,1729472813611.0,0.0
-3.792624,-11.657832,-3.192025,125.510002,8.4,-0.91,1729472813633.0,0.0
-3.019742,-9.542577,-2.256432,153.089996,20.93,-7.77,1729472813757.0,0.0
-2.766103,-8.597411,-0.710668,190.119995,32.27,-9.8,1729472813770.0,0.0
-2.682354,-7.795816,0.842274,155.889999,27.65,-12.95,1729472813771.0,0.0
-2.964707,-8.171489,1.648655,88.900002,22.33,-13.09,1729472813773.0,0.0
-3.034099,-9.202796,1.696511,23.940001,5.6,-18.549999,1729472813774.0,0.0
-2.854637,-9.650253,1.730011,4.55,-4.2,-18.690001,1729472813776.0,0.0
-2.402394,-9.250652,1.234696,14.98,-8.89,-16.870001,1729472813777.0,0.0
-2.167897,-9.164511,0.882952,22.82,-13.51,-13.09,1729472813789.0,0.0
-1.438086,-9.47797,-0.777667,25.549999,-17.780001,-7.35,1729472813833.0,0.0
-0.902094,-9.102298,-1.617548,23.870001,-12.32,-4.13,1729472813835.0,0.0
-0.990629,-8.68116,-0.971486,6.23,-4.97,-0.77,1729472813849.0,0.0
-0.997807,-8.051848,-0.564706,-22.75,-5.11,2.03,1729472813870.0,0.0
-0.954736,-7.831708,-0.660419,-56.84,-3.57,2.45,1729472813889.0,0.0
-1.344766,-7.518249,-0.835095,-98.980003,-3.78,3.99,1729472813909.0,0.0
-1.844866,-8.169096,-1.074377,-138.25,-9.24,5.81,1729472813931.0,0.0
-2.160719,-8.690732,-1.067199,-179.130005,-20.23,4.06,1729472813948.0,0.0
-2.15354,-9.205189,-2.67039,-221.059998,-32.27,-3.01,1729472813970.0,0.0
-2.127219,-8.664411,-3.395415,-254.660004,-37.869999,-13.37,1729472813991.0,0.0
-1.892723,-9.322437,-5.486742,-275.940002,-43.400002,-25.690001,1729472814010.0,0.0
-1.301696,-10.293922,-7.319644,-231.699997,-44.310001,-28.84,1729472814032.0,0.0
-1.57687,-12.114861,-5.915058,-96.879997,-37.450001,-17.43,1729472814051.0,0.0
-2.959922,-14.201403,-4.56072,127.470001,-31.219999,11.2,1729472814070.0,0.0
-3.986443,-11.937792,-5.125426,349.720001,-23.870001,31.360001,1729472814090.0,0.0
-4.74736,-11.100305,-3.404987,475.230011,-6.02,27.790001,1729472814112.0,0.0
-5.266603,-13.100704,-2.871387,549.710022,-12.25,27.65,1729472814133.0,0.0
-4.065405,-11.705689,-1.756332,604.23999,-5.67,-2.52,1729472814150.0,0.0
-1.438086,-10.9017,-2.177469,656.179993,13.440001,-10.43,1729472814170.0,0.0
-0.332602,-5.745167,1.730011,693.48999,44.59,-19.25,1729472814268.0,0.0
-2.885744,0.014357,7.618747,584.289978,67.760002,-18.76,1729472814274.0,0.0
-4.649254,-2.550749,8.760124,279.230011,37.939999,-29.190001,1729472814276.0,0.0
-3.751946,-6.111269,6.352944,46.41,11.9,-62.369999,1729472814279.0,0.0
-2.840281,-7.278966,6.745367,27.16,14.56,-68.599998,1729472814284.0,0.0
-3.160919,-5.625526,9.387043,79.309998,20.790001,-61.740002,1729472814302.0,0.0
-2.804388,-5.649454,8.003991,89.18,4.83,-56.0,1729472814309.0,0.0
-2.165504,0.172283,4.354938,54.18,8.75,-43.68,1729472814332.0,0.0
-2.768496,0.713061,3.019742,54.18,23.309999,-10.22,1729472814350.0,0.0
-6.046663,-7.781459,7.073184,-6.51,31.15,0.84,1729472814369.0,0.0
-4.41715,-5.163712,9.140583,29.960001,36.049999,-15.05,1729472814390.0,0.0
-4.180261,-2.100898,9.781858,26.809999,35.0,-9.8,1729472814410.0,0.0
-1.794617,-2.199004,9.288938,-65.169998,16.940001,-13.58,1729472814431.0,0.0
-1.552942,-1.866402,8.872586,-68.599998,9.87,1.33,1729472814450.0,0.0
-2.919244,-1.048056,7.9346,-35.77,8.4,30.799999,1729472814471.0,0.0
-4.881358,-5.103891,6.589834,-27.719999,0.28,44.59,1729472814489.0,0.0
-4.297509,-5.108676,8.386844,2.45,3.29,47.740002,1729472814510.0,0.0
-3.397808,-5.02732,9.96132,25.9,-0.49,50.470001,1729472814531.0,0.0
-3.919443,-6.994221,7.367501,-9.45,-14.14,44.170002,1729472814551.0,0.0
-3.290131,-6.580262,4.998606,-36.470001,-10.43,25.34,1729472814570.0,0.0
-4.240082,-8.501699,1.828116,-11.27,1.4,20.58,1729472814590.0,0.0
-4.23051,-6.13759,6.21416,64.190002,31.780001,14.28,1729472814610.0,0.0
-4.735396,-8.738588,7.381857,35.0,26.110001,-6.58,1729472814631.0,0.0
-3.869194,-7.743174,7.62114,26.18,29.120001,-16.66,1729472814651.0,0.0
-2.751746,-4.835894,7.235896,-8.61,29.469999,-31.01,1729472814670.0,0.0
-4.862216,-6.716653,7.867601,-20.51,22.68,-25.969999,1729472814690.0,0.0
-3.914658,-6.321837,9.035298,-9.17,17.219999,-35.77,1729472814720.0,0.0
-3.024528,1.78026,8.989835,0.98,20.65,-22.68,1729472814732.0,0.0
-1.976472,2.737389,10.238889,-39.689999,7.28,-4.9,1729472814771.0,0.0
-3.199204,0.729811,9.367901,-63.77,-2.17,35.209999,1729472814775.0,0.0
-2.340181,-1.758725,6.374479,-103.18,-8.89,50.189999,1729472814832.0,0.0
-2.811567,-6.489335,4.146761,-94.709999,-2.73,58.869999,1729472814835.0,0.0
-5.419744,-7.848458,5.673382,-18.27,13.65,65.519997,1729472814840.0,0.0
-5.460421,-5.929415,10.351351,42.98,21.98,60.130001,1729472814876.0,0.0
-5.010571,-5.350351,9.918249,10.01,1.47,48.02,1729472814877.0,0.0
-6.250053,-9.667004,1.89033,-59.080002,-18.059999,40.110001,1729472815059.0,0.0
-6.943972,-8.044669,6.209375,45.779999,11.97,28.280001,1729472815060.0,0.0
7.712067,-7.255038,6.67119,49.0,-18.200001,-61.529999,1729472815064.0,0.0
-5.123034,-14.13201,4.656433,21.210001,-6.3,-12.18,1729472815065.0,0.0
-5.429315,-10.195816,6.21416,66.5,19.6,-6.02,1729472815079.0,0.0
-5.611169,-4.194618,7.164111,65.379997,26.950001,-66.639999,1729472815081.0,0.0
-5.142176,-6.34098,7.21436,7.77,9.24,-61.529999,1729472815081.0,0.0
-3.661019,-1.024128,7.678568,5.95,14.21,-60.200001,1729472815087.0,0.0
-3.144169,-0.57667,9.894321,8.33,11.62,-41.23,1729472815134.0,0.0
-2.402394,1.588834,9.389436,-54.32,-0.98,-24.290001,1729472815134.0,0.0
-3.268596,-1.325624,7.386643,-81.970001,-6.51,7.63,1729472815134.0,0.0
-3.864408,-4.816752,6.60419,-73.080002,-11.69,18.969999,1729472815134.0,0.0
-5.271388,-5.517848,6.762117,0.84,-9.38,32.200001,1729472815148.0,0.0
-5.503492,-4.912465,7.707282,30.309999,-8.82,31.92,1729472815168.0,0.0
-2.885744,-6.183054,8.439486,3.85,-11.97,20.58,1729472815190.0,0.0
-2.691926,-6.79083,7.207181,-9.73,-11.9,13.79,1729472815209.0,0.0
-4.204189,-6.503692,4.031906,8.96,-4.97,17.85,1729472815234.0,0.0
-6.168696,-8.760124,3.505485,31.99,5.04,14.91,1729472815250.0,0.0
-6.869793,-7.523034,5.577669,72.169998,23.940001,-1.82,1729472815271.0,0.0
-7.618747,-8.84148,6.293124,48.509998,22.049999,-28.49,1729472815289.0,0.0
-5.333601,-8.4347,6.281159,38.220001,18.969999,-46.689999,1729472815311.0,0.0
-4.584648,-2.667997,6.12084,50.889999,28.42,-46.970001,1729472815332.0,0.0
-5.599205,-4.938786,6.051448,-3.71,17.99,-40.880001,1729472815349.0,0.0
-4.486543,-4.141976,7.274181,13.440001,21.49,-31.710001,1729472815370.0,0.0
-4.122833,-2.689533,9.267403,36.540001,23.309999,-29.82,1729472815389.0,0.0
-3.273381,1.564906,9.623933,-22.190001,13.440001,-21.49,1729472815409.0,0.0
-3.275774,0.248854,8.707481,-54.040001,-1.75,11.9,1729472815433.0,0.0
-3.830909,-2.859423,8.425128,-67.340004,-10.64,31.710001,1729472815449.0,0.0
-4.646862,-4.76411,7.661818,-44.869999,-17.08,43.82,1729472815470.0,0.0
-6.206983,-6.116055,6.443871,-16.59,-21.42,47.810001,1729472815489.0,0.0
-5.491528,-5.350351,6.551548,-7.7,-16.66,32.759998,1729472815510.0,0.0
-3.711268,-4.41715,7.070791,-13.65,-7.91,19.67,1729472815531.0,0.0
-4.826324,-4.737789,6.553941,-19.809999,-8.12,25.41,1729472815550.0,0.0
-5.455636,-6.314659,4.4674,-5.18,-3.85,33.110001,1729472815569.0,0.0
-7.362715,-10.078569,4.498507,31.710001,-1.89,24.360001,1729472815590.0,0.0
-8.097312,-8.425128,5.876772,83.090004,16.59,6.86,1729472815614.0,0.0
-7.360322,-8.922836,6.147161,54.459999,15.05,-27.440001,1729472815632.0,0.0
-5.692525,-9.260223,5.977271,17.92,12.11,-51.52,1729472815650.0,0.0
-4.04387,-3.567699,6.771688,43.889999,20.860001,-55.16,1729472815670.0,0.0
-5.618347,-3.034099,6.106483,29.049999,10.64,-46.549999,1729472815690.0,0.0
-4.208975,-3.471986,8.006385,44.450001,11.06,-30.030001,1729472815710.0,0.0
-4.474578,-1.818545,9.473185,27.719999,15.12,-37.66,1729472815731.0,0.0
-2.63689,2.201397,10.310673,-42.420002,5.11,-26.950001,1729472815749.0,0.0
-3.256632,-0.418744,8.171489,-64.959999,-8.82,6.93,1729472815770.0,0.0
-3.227918,-2.349752,7.996813,-69.370003,-10.78,23.24,1729472815790.0,0.0
-3.986443,-3.378666,8.207381,-50.540001,-11.06,36.610001,1729472815809.0,0.0
-6.092126,-5.76431,6.719046,-28.07,-21.700001,49.420002,1729472815833.0,0.0
-4.795217,-5.414958,6.991827,-12.6,-15.47,40.950001,1729472815849.0,0.0
-2.976671,-5.041678,7.168896,-21.280001,-8.12,30.799999,1729472815869.0,0.0
-4.345366,-5.017749,6.975078,-34.369999,-9.73,32.619999,1729472815889.0,0.0
-4.955536,-5.62074,4.412365,-24.639999,-6.44,36.68,1729472815909.0,0.0
-7.178468,-8.932407,4.82393,8.05,-6.37,28.630001,1729472815930.0,0.0
-7.092326,-6.199803,6.096912,76.370003,13.37,23.1,1729472815949.0,0.0
-7.975278,-8.532805,6.575477,25.200001,3.08,-9.45,1729472815972.0,0.0
-6.565905,-10.425529,5.252246,10.92,-1.96,-26.32,1729472815992.0,0.0
-3.65384,-4.307081,6.185446,42.84,9.8,-46.830002,1729472816013.0,0.0
-5.82413,-5.503492,7.147361,28.49,6.93,-40.670002,1729472816031.0,0.0
-5.103891,-5.45085,7.467999,19.950001,2.8,-49.279999,1729472816049.0,0.0
-4.539185,-3.519842,8.001599,40.740002,3.71,-45.57,1729472816069.0,0.0
-3.538985,-0.581456,9.700503,28.07,6.58,-45.360001,1729472816090.0,0.0
-2.06022,2.871387,9.042477,-40.810001,-1.68,-35.209999,1729472816109.0,0.0
-2.818745,0.789631,7.558927,-53.48,-8.05,5.25,1729472816130.0,0.0
-3.914658,-3.065206,6.513263,-63.98,-9.94,23.59,1729472816151.0,0.0
-5.716454,-6.312266,6.317052,-24.780001,-10.92,31.219999,1729472816169.0,0.0
-6.26441,-4.996214,7.673782,22.4,-4.97,28.98,1729472816188.0,0.0
-4.491328,-5.079963,8.181061,5.11,-9.17,17.92,1729472816210.0,0.0
-3.931407,-5.71406,7.087541,-27.440001,-16.030001,12.95,1729472816234.0,0.0
-3.720839,-4.201797,4.677969,-29.610001,-11.34,17.57,1729472816249.0,0.0
-5.52742,-6.649654,3.457629,-19.6,-2.87,21.42,1729472816269.0,0.0
-6.503692,-6.625726,5.087141,35.91,10.01,18.129999,1729472816289.0,0.0
-6.594619,-5.572884,6.903293,49.560001,19.6,5.04,1729472816310.0,0.0
-5.915058,-8.238488,6.67119,-5.39,7.14,-9.31,1729472816330.0,0.0
-4.220939,-4.996214,7.161718,24.57,12.04,-21.77,1729472816349.0,0.0
-4.173083,-3.304488,7.109076,11.62,8.89,-18.34,1729472816368.0,0.0
-4.881358,-4.424329,7.767102,-10.71,2.94,-16.1,1729472816396.0,0.0
-5.302495,-6.539584,8.130811,-12.46,-1.75,-19.389999,1729472816408.0,0.0
-4.63729,-5.946165,7.752745,12.18,-3.57,-26.32,1729472816431.0,0.0
-3.976871,-2.175076,8.506484,40.950001,1.33,-22.4,1729472816451.0,0.0
-4.677969,-3.172883,9.071191,-17.219999,-5.11,-28.49,1729472816469.0,0.0
-3.177669,-2.309074,7.616355,-41.23,-12.39,-21.139999,1729472816489.0,0.0
-3.455236,-1.823331,6.821937,-23.309999,-9.17,-3.08,1729472816511.0,0.0
-3.668197,-2.816352,6.987042,-24.43,-5.32,5.81,1729472816531.0,0.0
-3.821337,-3.852444,8.429914,-13.37,-2.66,12.11,1729472816548.0,0.0
-5.228317,-4.26401,8.630912,-6.51,-8.26,19.040001,1729472816569.0,0.0
-5.125426,-5.388636,7.898707,-17.85,-16.799999,18.41,1729472816590.0,0.0
-4.24726,-6.309873,6.675975,-18.620001,-20.860001,14.0,1729472816609.0,0.0
-3.742374,-5.702096,6.362515,-8.12,-14.07,7.35,1729472816632.0,0.0
-3.952943,-3.424129,5.893522,-1.26,-8.82,7.49,1729472816651.0,0.0
-4.54397,-4.680361,5.228317,-10.29,-3.15,17.99,1729472816669.0,0.0
-5.587241,-7.085148,5.180461,2.38,-4.06,20.09,1729472816690.0,0.0
-5.412565,-5.910272,6.563512,47.599998,10.78,17.780001,1729472816714.0,0.0
-6.343372,-6.465407,7.121039,16.379999,9.31,5.11,1729472816733.0,0.0
-5.95095,-8.331808,6.443871,-7.98,-0.35,-5.95,1729472816750.0,0.0
-5.941379,-8.035098,6.692725,20.299999,4.55,-16.309999,1729472816770.0,0.0
-4.883751,-6.008378,7.314859,36.75,6.3,-29.75,1729472816790.0,0.0
-4.87418,-5.510671,7.585248,18.620001,3.57,-34.16,1729472816812.0,0.0
-4.919643,-6.556334,7.817351,-0.91,-3.85,-40.529999,1729472816832.0,0.0
-4.675575,-6.283553,8.599805,2.94,-5.18,-48.790001,1729472816850.0,0.0
-3.067599,-0.397209,7.88435,22.049999,-2.8,-44.170002,1729472816871.0,0.0
-2.799603,1.447658,7.798209,-9.66,-7.56,-23.309999,1729472816892.0,0.0
-2.715853,0.933201,7.259824,-38.360001,-12.04,3.43,1729472816912.0,0.0
-3.304488,-0.808774,6.759724,-36.959999,-7.84,28.559999,1729472816933.0,0.0
-5.125426,-5.426922,7.156933,-33.18,-3.92,38.080002,1729472816950.0,0.0
-4.993821,-5.156533,8.181061,5.18,4.34,36.82,1729472816971.0,0.0
-3.988836,-6.898508,7.91785,-7.84,-1.19,28.35,1729472816991.0,0.0
-3.689733,-6.415157,7.647461,-8.61,-2.17,21.91,1729472817011.0,0.0
-3.598805,-4.704289,7.68096,-8.96,-2.03,18.200001,1729472817032.0,0.0
-3.936193,-3.206382,6.190232,-13.16,-7.14,25.41,1729472817050.0,0.0
-5.448457,-5.589634,4.929214,-12.67,-8.54,33.599998,1729472817071.0,0.0
-5.618347,-6.640083,5.443672,39.830002,-0.35,33.599998,1729472817090.0,0.0
-6.647261,-5.905487,7.173682,58.450001,14.0,18.620001,1729472817114.0,0.0
-6.723832,-8.283953,6.087341,23.24,4.97,3.57,1729472817133.0,0.0
-6.496514,-8.729016,5.474778,29.190001,12.39,-16.59,1729472817150.0,0.0
-5.936593,-6.482157,6.778866,48.860001,17.780001,-31.780001,1729472817171.0,0.0
-4.431508,-5.032106,7.941778,40.32,14.84,-41.509998,1729472817191.0,0.0
-4.615755,-4.400401,7.783852,15.190001,6.86,-41.23,1729472817211.0,0.0
-5.261817,-5.393422,7.683353,4.41,6.86,-35.420002,1729472817236.0,0.0
-4.871787,-5.759524,8.102098,11.62,-0.63,-40.040001,1729472817250.0,0.0
-4.888536,-4.898108,9.116654,10.5,-5.18,-44.52,1729472817271.0,0.0
-3.871587,-1.241875,9.272188,11.13,-6.58,-33.880001,1729472817290.0,0.0
-2.079363,0.708275,7.456036,-30.73,-15.190001,-24.360001,1729472817310.0,0.0
-2.761317,0.447458,6.381658,-40.18,-11.55,2.1,1729472817332.0,0.0
-3.905087,-2.428715,6.707082,-47.32,-7.28,17.99,1729472817350.0,0.0
-4.68754,-3.613162,8.221739,-16.940001,-1.12,27.440001,1729472817371.0,0.0
-5.209175,-4.82393,8.578269,-7.98,-4.9,31.360001,1729472817390.0,0.0
-4.091727,-6.678369,7.84128,-25.27,-10.85,24.290001,1729472817410.0,0.0
-3.845266,-6.472585,7.372287,-27.860001,-10.01,15.26,1729472817432.0,0.0
-3.804588,-5.649454,6.884151,-21.98,-7.91,10.15,1729472817450.0,0.0
-3.869194,-3.905087,6.135197,-16.940001,-4.9,7.63,1729472817471.0,0.0
-4.398008,-2.273181,6.041877,-6.3,-0.7,21.84,1729472817491.0,0.0
-5.422136,-5.661418,5.630312,-9.24,-4.34,28.84,1729472817510.0,0.0
-5.615955,-6.60419,6.24766,29.190001,0.98,26.18,1729472817532.0,0.0
-5.912664,-4.548756,8.128418,44.029999,11.2,18.549999,1729472817550.0,0.0
-5.589634,-6.733403,6.910471,-11.55,-2.03,3.22,1729472817571.0,0.0
-4.673182,-6.932007,7.018148,-7.07,-0.63,-5.18,1729472817591.0,0.0
-4.680361,-5.936593,7.142576,12.32,1.12,-11.69,1729472817610.0,0.0
-3.838088,-5.678168,7.341179,14.56,0.35,-17.710001,1729472817632.0,0.0
-4.024727,-5.446064,7.262216,16.17,1.54,-21.49,1729472817650.0,0.0
-4.383651,-4.673182,6.742974,25.200001,3.92,-24.08,1729472817670.0,0.0
-5.4676,-5.804988,6.709475,26.880001,3.99,-27.09,1729472817690.0,0.0
-5.216353,-7.051648,7.616355,32.34,3.71,-38.150002,1729472817713.0,0.0
-5.431707,-5.711668,9.183653,39.41,2.1,-47.740002,1729472817736.0,0.0
-3.63709,-1.95015,7.628319,30.380001,-1.96,-46.830002,1729472817750.0,0.0
-3.739982,1.385444,7.460821,-13.09,-5.74,-30.309999,1729472817771.0,0.0
-2.318645,2.400001,5.71406,-52.220001,-3.99,-1.68,1729472817790.0,0.0
-5.15414,-1.734797,6.080163,-83.790001,-2.8,24.85,1729472817812.0,0.0
-6.252446,-3.929015,8.228917,-71.610001,0.7,39.970001,1729472817835.0,0.0
-6.707082,-4.785645,8.836694,-58.099998,-4.9,47.18,1729472817850.0,0.0
-6.314659,-6.355337,8.298308,-69.300003,-17.290001,44.380001,1729472817869.0,0.0
-5.338387,-7.927422,7.467999,-67.480003,-30.030001,34.23,1729472817889.0,0.0
-5.000999,-8.116454,7.850852,-42.349998,-32.900002,22.26,1729472817910.0,0.0
-5.254639,-5.76431,8.078169,-33.670002,-35.349998,9.59,1729472817931.0,0.0
-5.685347,-4.386044,8.374879,-51.310001,-44.170002,6.02,1729472817949.0,0.0
-4.275974,-4.589434,7.276574,-75.040001,-62.09,8.19,1729472817969.0,0.0
-3.09392,-5.831308,5.807381,-59.779999,-64.190002,12.39,1729472817989.0,0.0
-2.694318,-6.386444,5.666204,-33.670002,-51.310001,11.83,1729472818009.0,0.0
-3.814159,-6.979864,7.022934,-28.700001,-39.689999,-2.45,1729472818033.0,0.0
-2.825923,-7.238289,7.195218,-30.030001,-38.080002,-14.91,1729472818048.0,0.0
-2.203789,-9.073583,7.238289,-22.610001,-35.91,-19.879999,1729472818069.0,0.0
-0.665205,-9.348758,7.056434,-44.099998,-36.82,-44.380001,1729472818089.0,0.0
-0.894916,-9.530612,5.819345,-58.380001,-28.42,-55.369999,1729472818108.0,0.0
-0.837488,-10.016356,5.261817,-62.299999,-15.190001,-79.029999,1729472818131.0,0.0
-0.622134,-9.205189,4.587041,-43.959999,-0.14,-90.790001,1729472818152.0,0.0
-0.787239,-8.281559,3.929015,-13.65,12.25,-96.040001,1729472818259.0,0.0
-0.978664,-7.357929,3.136991,-1.82,29.26,-96.18,1729472818260.0,0.0
-1.579263,-7.692925,3.455236,-16.450001,50.400002,-93.730003,1729472818260.0,0.0
-2.538785,-8.886944,4.108476,-19.389999,59.709999,-95.480003,1729472818260.0,0.0
-2.916851,-8.346166,5.075177,7.77,63.139999,-89.669998,1729472818261.0,0.0
-3.084348,-5.996413,6.305088,38.639999,67.129997,-77.279999,1729472818270.0,0.0
-3.168097,-3.519842,5.254639,29.190001,60.689999,-60.760002,1729472818289.0,0.0
-2.892922,-5.312066,1.696511,-32.130001,36.889999,-31.710001,1729472818309.0,0.0
-1.040878,-6.221339,10.569098,47.740002,19.950001,-27.790001,1729472818386.0,0.0
-2.148755,-3.476771,11.447264,110.25,21.84,3.29,1729472818391.0,0.0
-1.701297,-2.478964,8.949157,34.23,-5.74,4.34,1729472818392.0,0.0
0.435494,-4.898108,7.288538,-52.009998,-25.83,9.94,1729472818395.0,0.0
1.239482,-6.963113,5.053641,-88.620003,-22.960001,8.61,1729472818408.0,0.0
1.361516,-6.096912,4.709075,-54.389999,-6.79,16.24,1729472818439.0,0.0
0.914058,-4.656433,5.103891,-19.530001,7.49,23.1,1729472818448.0,0.0
-0.002393,-4.122833,5.556134,-3.99,18.200001,35.84,1729472818471.0,0.0
-0.866202,-4.699504,6.297909,-1.4,24.43,49.07,1729472818489.0,0.0
-2.294717,-4.285545,6.848258,10.15,27.23,64.75,1729472818509.0,0.0
-3.105884,-4.455436,7.408179,5.11,26.67,74.550003,1729472818532.0,0.0
-5.484349,-8.492127,7.034898,-53.27,25.27,75.18,1729472818549.0,0.0
-6.015556,-10.614561,4.383651,-89.040001,24.360001,56.98,1729472818570.0,0.0
-6.26441,-10.573883,2.947958,-96.25,27.16,41.16,1729472818590.0,0.0
-7.228717,-11.497513,3.445665,-62.09,29.889999,23.870001,1729472818611.0,0.0
-8.657232,-11.873186,4.649254,-12.32,22.610001,12.81,1729472818633.0,0.0
-9.662218,-11.55494,5.462814,24.99,8.4,-3.01,1729472818651.0,0.0
-9.265009,-10.200603,5.563312,32.060001,-7.56,-32.830002,1729472818671.0,0.0
-7.661818,-9.68136,6.171089,24.710001,-23.59,-56.700001,1729472818691.0,0.0
-6.556334,-9.205189,5.362316,9.52,-26.460001,-76.860001,1729472818711.0,0.0
-5.491528,-9.540184,4.84068,-2.38,-24.57,-87.5,1729472818735.0,0.0
-3.189633,-9.109475,4.776074,-9.24,-24.780001,-98.0,1729472818751.0,0.0
0.887737,-6.762117,4.165904,9.94,-21.42,-89.040001,1729472818771.0,0.0
3.17049,-4.4674,4.122833,25.34,-10.57,-70.769997,1729472818791.0,0.0
3.37388,-2.830709,6.195018,36.189999,6.65,-51.799999,1729472818811.0,0.0
2.842674,-1.194018,7.348359,46.34,7.91,-21.84,1729472818832.0,0.0
3.218346,-1.069592,6.951149,12.81,3.36,-2.73,1729472818851.0,0.0
1.624727,-3.455236,6.608976,-16.799999,6.51,16.379999,1729472818872.0,0.0
-0.019143,-4.790431,5.888737,-13.86,6.86,33.740002,1729472818891.0,0.0
-0.363709,-4.412365,5.919843,3.92,1.82,59.290001,1729472818912.0,0.0
-1.737189,-6.104091,6.218946,-10.43,1.05,69.720001,1729472818935.0,0.0
-3.546163,-7.846066,6.331409,-10.71,-2.94,80.639999,1729472818952.0,0.0
-4.73061,-10.310673,7.350751,-18.200001,-11.13,75.25,1729472818972.0,0.0
-5.051248,-11.406586,4.67079,-52.990002,-18.41,64.75,1729472818992.0,0.0
-6.415157,-10.662418,1.792224,-84.769997,-9.59,42.84,1729472819012.0,0.0
-6.951149,-11.858829,1.155733,-68.949997,-2.31,34.02,1729472819034.0,0.0
-7.597212,-13.148561,2.333002,-25.27,4.76,8.75,1729472819052.0,0.0
-8.676375,-12.547962,4.07737,23.1,7.21,-9.03,1729472819072.0,0.0
-9.853643,-11.653046,6.522834,68.32,1.89,-31.219999,1729472819092.0,0.0
-10.925629,-11.081161,8.367701,81.199997,-12.67,-63.630001,1729472819114.0,0.0
-8.693125,-7.960921,6.367301,39.130001,-31.85,-95.760002,1729472819134.0,0.0
-4.534399,-5.448457,3.089134,-29.26,-40.18,-114.029999,1729472819157.0,0.0
-0.29671,-6.829116,1.61037,-65.309998,-32.34,-118.720001,1729472819172.0,0.0
5.45085,-5.173282,3.215954,-23.309999,-12.39,-106.190002,1729472819255.0,0.0
7.113862,-1.730011,4.807181,116.620003,18.200001,-30.940001,1729472819255.0,0.0
7.006185,1.091127,7.178468,124.32,32.48,0.14,1729472819256.0,0.0
3.696911,-1.225125,9.399008,66.57,38.639999,20.58,1729472819256.0,0.0
0.074178,-4.118048,9.585647,-10.85,34.299999,33.32,1729472819272.0,0.0
-0.198604,-4.728218,8.209774,-44.029999,16.379999,46.689999,1729472819292.0,0.0
0.11007,-5.067998,5.982057,-49.98,8.26,56.84,1729472819312.0,0.0
-1.330409,-6.269196,5.17089,-31.43,9.03,67.269997,1729472819334.0,0.0
-4.962714,-9.016156,7.286145,5.88,7.7,77.07,1729472819351.0,0.0
-4.553542,-8.140383,7.326823,28.77,-2.17,76.510002,1729472819372.0,0.0
-4.644469,-8.580662,4.986642,-28.84,-10.22,63.77,1729472819393.0,0.0
-6.034698,-10.9352,4.146761,-78.260002,-8.75,54.040001,1729472819412.0,0.0
-6.156733,-11.186446,3.452843,-64.82,-8.33,36.68,1729472819434.0,0.0
-5.69731,-9.078369,3.476771,-16.940001,-8.33,29.33,1729472819453.0,0.0
-5.517848,-7.042077,3.979264,7.14,7.28,20.93,1729472819472.0,0.0
-5.630312,-7.025328,5.130211,6.93,8.82,19.530001,1729472819492.0,0.0
-7.21436,-9.157332,6.611369,-4.55,1.26,16.309999,1729472819512.0,0.0
-7.520642,-9.908678,6.381658,-12.74,-14.63,7.49,1729472819533.0,0.0
-6.099305,-9.875179,5.101498,-24.290001,-31.92,-25.9,1729472819552.0,0.0
-5.618347,-10.858629,4.115655,-22.75,-28.280001,-44.52,1729472819572.0,0.0
-4.615755,-10.636096,3.223132,-11.41,-9.52,-67.269997,1729472819591.0,0.0
-2.859423,-9.824929,2.179861,-19.32,5.11,-80.849998,1729472819622.0,0.0
-0.442672,-8.922836,2.452643,-35.349998,16.030001,-89.809998,1729472819634.0,0.0
1.698904,-8.054241,2.955136,-4.13,31.57,-80.360001,1729472819652.0,0.0
3.364309,-5.735595,5.532206,54.670002,47.529999,-64.400002,1729472819671.0,0.0
3.014957,-1.935793,8.839087,119.489998,49.420002,-33.810001,1729472819693.0,0.0
2.54357,1.808974,11.370694,130.619995,35.420002,-9.31,1729472819712.0,0.0
1.584049,1.660619,11.150554,58.450001,14.49,17.08,1729472819916.0,0.0
0.193819,-0.832702,8.341379,-52.290001,-2.73,42.490002,1729472819918.0,0.0
0.605384,-2.830709,4.405186,-99.959999,-13.79,62.580002,1729472819919.0,0.0
0.055035,-5.326423,2.725425,-76.93,-6.44,88.550003,1729472819922.0,0.0
-2.258825,-6.290731,3.067599,-30.73,8.33,106.330002,1729472819923.0,0.0
-6.309873,-13.770694,8.688338,2.73,12.39,105.489998,1729472819924.0,0.0
-5.905487,-10.205389,4.240082,-26.389999,-0.7,70.629997,1729472819927.0,0.0
-6.441479,-10.877771,2.37368,-17.780001,0.21,55.16,1729472819928.0,0.0
-8.99462,-12.88535,2.179861,-79.449997,10.43,50.049999,1729472819929.0,0.0
-9.516255,-13.69173,1.818545,-63.209999,5.81,12.81,1729472819959.0,0.0
-9.272188,-12.985848,2.344966,-4.9,7.21,-12.11,1729472819959.0,0.0
-9.092726,-11.176874,3.555735,48.16,1.75,-42.420002,1729472819960.0,0.0
-9.355937,-9.444471,5.101498,73.849998,-8.47,-63.139999,1729472819973.0,0.0
-8.425128,-6.74776,4.529613,31.639999,-7.7,-88.620003,1729472819991.0,0.0
-6.020342,-6.465407,2.723032,-44.939999,-12.18,-106.190002,1729472820011.0,0.0
-1.911865,-7.99442,2.998207,-76.580002,-14.63,-115.639999,1729472820040.0,0.0
2.103291,-6.235696,4.627719,-1.68,-3.71,-85.540001,1729472820065.0,0.0
3.058028,-3.608376,8.319844,95.970001,10.71,-46.970001,1729472820072.0,0.0
2.09372,-1.007378,10.238889,118.090004,4.9,-25.83,1729472820093.0,0.0
1.476372,-0.734596,9.509077,47.599998,-4.2,-2.03,1729472820112.0,0.0
1.555335,-3.223132,7.513463,-42.07,-12.88,5.74,1729472820135.0,0.0
0.839881,-5.82413,5.469993,-81.480003,-7.84,17.08,1729472820153.0,0.0
0.267996,-6.51087,3.476771,-30.450001,9.73,32.200001,1729472820173.0,0.0
-0.61017,-6.15434,3.785445,16.379999,21.77,52.220001,1729472820193.0,0.0
-3.196811,-6.862615,7.046863,37.170002,26.6,59.360001,1729472820212.0,0.0
-3.744767,-7.889136,7.489535,38.920002,11.27,67.059998,1729472820240.0,0.0
-4.955536,-8.468199,5.536992,-24.780001,-4.06,62.16,1729472820253.0,0.0
-6.30748,-9.200402,3.524628,-62.93,-10.22,68.32,1729472820272.0,0.0
-6.948757,-11.430513,2.586641,-72.730003,-19.6,45.080002,1729472820293.0,0.0
-8.566305,-13.560125,2.737389,-51.450001,-17.08,31.85,1729472820313.0,0.0
-9.595219,-12.014362,2.184647,-24.360001,-15.75,7.21,1729472820426.0,0.0
-8.559127,-10.734202,3.058028,0.35,-15.12,-16.52,1729472820435.0,0.0
-6.838687,-10.774881,4.256832,8.05,-15.89,-51.099998,1729472820435.0,0.0
-7.542177,-10.128819,4.108476,23.24,-7.21,-68.669998,1729472820435.0,0.0
-6.503692,-8.95155,2.411965,17.08,0.84,-84.629997,1729472820435.0,0.0
-3.35713,-8.559127,2.400001,6.3,2.03,-94.989998,1729472820436.0,0.0
0.31346,-5.142176,5.029713,11.41,15.05,-90.090004,1729472820454.0,0.0
2.751746,-2.849852,7.886744,24.780001,22.68,-61.040001,1729472820473.0,0.0
3.723232,-2.163112,10.176675,25.549999,11.2,-30.52,1729472820541.0,0.0
2.471786,-2.337788,9.403792,13.86,11.2,-10.5,1729472820550.0,0.0
1.509871,-2.823531,7.762317,-22.049999,-9.38,8.96,1729472820551.0,0.0
1.344766,-4.443472,5.505885,-55.299999,-11.97,24.290001,1729472820556.0,0.0
0.650848,-6.893722,3.885944,-62.369999,-4.55,33.599998,1729472820580.0,0.0
-0.681954,-8.293523,4.177868,-18.41,4.2,46.27,1729472820598.0,0.0
-1.988436,-7.580462,6.321837,39.34,6.65,61.740002,1729472820613.0,0.0
-3.122634,-7.88435,7.128219,51.099998,-2.87,66.150002,1729472820636.0,0.0
-4.45065,-8.91805,5.039285,-14.0,-13.440001,57.889999,1729472820653.0,0.0
-6.013163,-10.497313,2.581856,-58.029999,-17.219999,51.799999,1729472820673.0,0.0
-6.896115,-12.550355,0.746561,-56.0,-7.21,36.189999,1729472820693.0,0.0
-8.341379,-12.141183,-0.205783,-64.120003,6.3,15.33,1729472820713.0,0.0
-8.999406,-11.028521,-0.303888,-60.830002,19.040001,0.21,1729472820737.0,0.0
-7.377072,-12.016755,1.196411,-23.940001,25.969999,-20.860001,1729472820754.0,0.0
-7.178468,-11.428121,2.823531,16.66,36.470001,-38.779999,1729472820774.0,0.0
-7.245467,-8.786445,3.227918,10.99,50.049999,-55.02,1729472820794.0,0.0
-4.187439,-8.939585,2.761317,-38.920002,32.830002,-71.260002,1729472820815.0,0.0
-1.462015,-7.549356,4.792823,-28.77,27.790001,-66.779999,1729472820836.0,0.0
0.961915,-4.275974,6.30748,20.58,27.23,-50.330002,1729472820854.0,0.0
2.708675,-3.376273,9.178867,52.360001,16.309999,-31.08,1729472820874.0,0.0
3.919443,-3.323631,10.028319,54.389999,0.35,-11.27,1729472820894.0,0.0
2.074577,-5.249853,9.824929,27.299999,-5.04,3.5,1729472820913.0,0.0
-0.129212,-6.463014,7.939385,-12.39,-10.78,12.88,1729472820936.0,0.0
0.062213,-7.245467,5.178068,-29.049999,-28.280001,23.73,1729472820954.0,0.0
-0.617348,-8.965906,3.78066,-13.02,-28.630001,32.549999,1729472820974.0,0.0
-2.634498,-8.556733,4.003192,38.849998,-20.51,42.279999,1729472820994.0,0.0
-4.031906,-8.350951,5.862415,74.269997,-21.210001,50.889999,1729472821013.0,0.0
-6.132804,-9.420543,6.522834,55.93,-31.92,47.18,1729472821036.0,0.0
-7.965706,-10.174281,4.481757,3.29,-41.720001,40.599998,1729472821053.0,0.0
-7.836494,-11.492726,1.246661,-40.740002,-47.110001,29.120001,1729472821073.0,0.0
-7.128219,-12.610175,0.004786,-44.380001,-36.259998,3.22,1729472821093.0,0.0
-7.039684,-11.490334,-0.547956,-10.01,-10.22,-18.059999,1729472821113.0,0.0
-5.501099,-9.221939,1.718047,60.619999,8.54,-36.889999,1729472821137.0,0.0
-4.273581,-8.032705,3.002992,50.75,23.17,-43.75,1729472821154.0,0.0
-3.716053,-7.302894,2.900101,-8.33,37.799999,-54.040001,1729472821173.0,0.0
-1.31366,-8.963513,1.777867,-45.639999,40.32,-60.830002,1729472821193.0,0.0
1.244268,-7.690532,1.897508,-27.719999,50.82,-53.41,1729472821213.0,0.0
1.591227,-7.999206,5.268995,56.490002,66.150002,-32.130001,1729472821239.0,0.0
1.088734,-4.924429,9.497113,153.649994,63.91,-22.33,1729472821254.0,0.0
-0.057428,-1.172483,11.703296,157.570007,57.82,-7.84,1729472821274.0,0.0
-0.952343,-1.730011,11.676974,63.98,35.700001,-1.82,1729472821293.0,0.0
-1.356731,-4.974678,9.236296,-45.57,14.14,-2.66,1729472821314.0,0.0
-1.90708,-7.118648,6.735795,-77.559998,1.33,6.51,1729472821335.0,0.0
-1.840081,-7.24786,4.744967,-53.130001,-4.41,11.06,1729472821354.0,0.0
-1.208375,-5.723632,3.474378,-22.469999,-7.84,27.09,1729472821373.0,0.0
-1.160519,-5.809773,2.512464,-14.49,-3.78,39.549999,1729472821393.0,0.0
-2.490928,-7.506285,3.072384,-2.66,4.9,55.02,1729472821412.0,0.0
-4.393222,-8.480164,7.003791,42.700001,1.33,59.920002,1729472821436.0,0.0
-4.680361,-7.116255,6.795617,30.940001,-6.02,66.989998,1729472821454.0,0.0
-6.113662,-9.042477,3.711268,-77.769997,-13.93,53.41,1729472821473.0,0.0
-6.429514,-10.951948,2.713461,-97.720001,-16.940001,38.290001,1729472821493.0,0.0
-6.853044,-11.667403,2.120041,-63.349998,-14.7,25.690001,1729472821513.0,0.0
-7.836494,-11.930614,1.978864,-21.07,-12.04,6.72,1729472821536.0,0.0
-8.738588,-11.60519,2.730211,20.719999,-12.74,-10.5,1729472821553.0,0.0
-8.609376,-10.049855,4.149154,51.029999,-19.460001,-34.509998,1729472821573.0,0.0
-7.582855,-7.932207,4.910072,45.920002,-27.790001,-57.119999,1729472821594.0,0.0
-6.754939,-8.496914,4.718646,6.09,-30.799999,-76.510002,1729472821613.0,0.0
-5.364708,-8.508877,3.531806,-44.310001,-21.91,-94.150002,1729472821635.0,0.0
-2.512464,-8.537591,2.502892,-48.299999,-15.190001,-96.459999,1729472821653.0,0.0
-0.095713,-7.195218,3.081956,-21.210001,-0.84,-83.860001,1729472821673.0,0.0
1.256232,-7.812566,4.735396,30.309999,7.0,-66.290001,1729472821693.0,0.0
1.28016,-5.197211,7.76471,112.0,7.91,-40.740002,1729472821715.0,0.0
1.258625,-1.124627,9.052048,112.770004,6.72,-20.719999,1729472821745.0,0.0
2.069792,-1.182054,8.740981,31.780001,-8.26,-3.5,1729472821753.0,0.0
1.959722,-3.505485,7.740781,-43.119999,-11.48,9.52,1729472821773.0,0.0
0.382852,-6.18784,5.814559,-62.510002,-6.79,21.07,1729472821793.0,0.0
0.323031,-5.625526,4.766503,-24.43,4.55,39.759998,1729472821813.0,0.0
-0.177069,-4.878965,5.132604,-1.61,16.66,56.0,1729472821835.0,0.0
-2.679961,-8.032705,5.587241,-11.2,22.82,69.650002,1729472821853.0,0.0
-4.034299,-8.063812,6.250053,-6.3,12.67,56.279999,1729472821873.0,0.0
-3.019742,-7.305287,5.290531,8.19,2.87,78.120003,1729472821893.0,0.0
-5.046463,-8.980263,6.541977,-36.119999,1.12,71.68,1729472821913.0,0.0
-6.611369,-10.133603,3.936193,-58.099998,-3.08,68.389999,1729472821936.0,0.0
-7.408179,-10.724631,3.524628,-55.02,-14.84,59.5,1729472821953.0,0.0
-8.60459,-12.114861,3.436093,-40.25,-22.33,45.080002,1729472821973.0,0.0
-9.554541,-12.94517,2.057827,-36.119999,-26.18,16.59,1729472821993.0,0.0
-8.798409,-13.033704,2.974278,-6.79,-24.710001,-16.799999,1729472822013.0,0.0
-8.094919,-11.542977,4.022335,27.65,-20.58,-54.740002,1729472822035.0,0.0
-7.886744,-9.95175,4.481757,37.59,-16.73,-77.489998,1729472822053.0,0.0
-5.905487,-8.181061,3.445665,10.71,-13.65,-99.610001,1729472822073.0,0.0
-2.957529,-7.331609,2.56032,-20.370001,-8.54,-106.190002,1729472822094.0,0.0
-0.167498,-6.702296,2.287539,-22.120001,0.84,-95.550003,1729472822112.0,0.0
2.734996,-5.99402,6.405586,-1.89,18.059999,-75.529999,1729472822135.0,0.0
3.005385,-3.737589,8.997013,96.32,19.32,-39.060001,1729472822153.0,0.0
2.660819,-1.591227,9.497113,91.279999,12.53,-17.15,1729472822173.0,0.0
1.902294,-1.986043,8.870193,19.6,-0.77,2.17,1729472822193.0,0.0
1.174876,-4.398008,6.716653,-66.57,-7.49,13.16,1729472822213.0,0.0
0.586242,-6.558727,4.704289,-95.129997,-10.57,25.620001,1729472822238.0,0.0
-0.153141,-6.893722,3.323631,-72.519997,-4.97,40.040001,1729472822254.0,0.0
-1.342373,-7.65464,3.335595,-23.030001,2.94,56.209999,1729472822273.0,0.0
-2.639283,-8.283953,5.283352,24.92,0.28,59.43,1729472822292.0,0.0
-3.28056,-7.219146,6.391229,56.07,-4.2,73.360001,1729472822313.0,0.0
-4.41715,-6.881758,6.180661,15.190001,-9.94,81.340004,1729472822336.0,0.0
-5.742774,-7.276574,3.828516,-78.260002,-14.07,65.309998,1729472822353.0,0.0
-6.534799,-8.585447,1.954936,-140.070007,-6.79,61.740002,1729472822373.0,0.0
-7.960921,-10.356135,0.971486,-158.690002,2.66,43.189999,1729472822393.0,0.0
-9.38465,-11.298907,1.174876,-132.649994,12.25,24.780001,1729472822412.0,0.0
-9.219545,-10.650455,1.411765,-84.629997,10.99,2.17,1729472822435.0,0.0
-8.446664,-9.080762,2.033899,-52.779999,4.48,-16.799999,1729472822453.0,0.0
-6.927221,-7.551748,2.194218,-47.670002,-7.84,-32.619999,1729472822473.0,0.0
-5.955735,-7.348359,2.033899,-113.330002,-18.620001,-45.080002,1729472822494.0,0.0
-4.666004,-8.386844,1.292124,-181.089996,-28.98,-53.830002,1729472822520.0,0.0
-2.660819,-9.927821,-0.349352,-224.630005,-39.900002,-56.77,1729472822535.0,0.0
-0.882952,-11.205588,-1.299303,-225.050003,-38.5,-51.799999,1729472822555.0,0.0
0.358923,-10.463813,-2.098505,-185.5,-27.58,-39.900002,1729472822573.0,0.0
0.634098,-10.234102,-1.734797,-157.360001,-11.55,-31.99,1729472822594.0,0.0
0.830309,-9.298509,-2.737389,-147.699997,1.26,-35.209999,1729472822613.0,0.0
0.746561,-9.844072,-3.261417,-140.070007,8.82,-27.51,1729472822635.0,0.0
0.772882,-11.076375,-2.861816,-131.110001,9.59,-28.35,1729472822654.0,0.0
0.27996,-10.983055,-2.524428,-115.290001,11.76,-30.870001,1729472822674.0,0.0
-0.70349,-11.227123,-1.651048,-85.82,10.15,-30.380001,1729472822694.0,0.0
-1.469193,-9.934999,-2.222932,-70.629997,5.81,-39.34,1729472822713.0,0.0
-3.213561,-9.32483,-0.354138,-56.630001,4.62,-32.34,1729472822735.0,0.0
-4.024727,-10.593026,-0.540778,-40.110001,-9.17,-32.970001,1729472822754.0,0.0
-0.995414,-9.056834,-3.278167,-47.950001,-25.690001,-32.060001,1729472822773.0,0.0
0.602991,-10.707881,-3.704089,-40.599998,-16.52,-23.24,1729472822794.0,0.0
0.009571,-12.366108,-1.564906,-14.35,4.27,-14.7,1729472822814.0,0.0
-0.861416,-11.129018,0.232104,40.670002,14.84,-17.5,1729472822836.0,0.0
-0.519243,-8.51127,0.323031,55.860001,8.47,-13.58,1729472822854.0,0.0
0.598206,-8.822337,-0.729811,14.14,1.26,-12.25,1729472822875.0,0.0
0.808774,-10.667203,-0.631705,14.28,-0.42,-5.88,1729472822896.0,0.0
0.040678,-9.879964,-0.928415,63.0,8.75,-0.14,1729472822915.0,0.0
-0.701097,-8.504091,-1.067199,77.07,12.11,2.66,1729472822937.0,0.0
-0.78006,-8.200203,0.174676,78.68,5.67,13.65,1729472822955.0,0.0
-1.026521,-7.566105,-0.198604,48.299999,6.44,18.969999,1729472822975.0,0.0
-2.273181,-8.355737,-1.421337,20.440001,13.23,28.210001,1729472822997.0,0.0
-3.393023,-11.569297,-3.775874,1.82,5.95,21.07,1729472823015.0,0.0
-3.589234,-12.476178,-5.517848,3.78,-13.51,6.79,1729472823037.0,0.0
-2.177469,-9.372685,-5.613562,25.690001,-19.67,-6.93,1729472823055.0,0.0
-1.768296,-8.23131,-3.414558,17.99,-26.67,-21.139999,1729472823075.0,0.0
-1.481157,-7.204789,-3.239882,-2.59,-32.689999,-23.870001,1729472823096.0,0.0
-1.354338,-7.211967,-2.766103,-2.73,-39.41,-10.08,1729472823116.0,0.0
-0.200997,-8.394022,-4.079762,-12.32,-45.150002,-13.09,1729472823137.0,0.0
0.428315,-8.413164,-5.639884,-26.950001,-32.060001,-10.78,1729472823155.0,0.0
0.452243,-8.745767,-5.98445,-45.290001,-10.64,-5.74,1729472823175.0,0.0
0.847059,-9.444471,-5.974878,-63.420002,2.73,-4.55,1729472823196.0,0.0
1.062413,-10.255639,-5.62074,-60.34,16.870001,-4.55,1729472823214.0,0.0
0.947558,-10.179067,-5.639884,-51.380001,31.219999,-2.38,1729472823244.0,0.0
0.509671,-9.937392,-5.479564,-41.23,48.439999,-5.18,1729472823256.0,0.0
-0.172283,-12.30868,-0.547956,-37.310001,49.0,-12.81,1729472823274.0,0.0
-0.478565,-9.628718,-1.009771,-10.85,40.670002,-5.6,1729472823295.0,0.0
-4.790431,-14.400006,12.997812,44.310001,10.22,-5.95,1729472823315.0,0.0
-6.649654,-8.563912,8.23131,115.919998,-15.05,-2.94,1729472823337.0,0.0
-4.242475,-7.312466,1.770689,-6.51,-44.170002,-26.950001,1729472823355.0,0.0
-0.799203,-8.82473,-2.488536,-93.870003,-69.370003,-26.389999,1729472823376.0,0.0
-0.990629,-12.339786,-3.194418,-92.610001,-38.57,-11.55,1729472823396.0,0.0
-2.270789,-11.69851,-2.849852,-4.62,-15.12,-9.1,1729472823414.0,0.0
-1.727618,-9.899107,-4.481757,51.59,-19.74,-12.18,1729472823439.0,0.0
-0.698704,-7.948956,-4.527221,61.040001,-23.379999,-9.24,1729472823456.0,0.0
-0.629312,-9.403792,-1.552942,54.880001,-26.460001,3.99,1729472823476.0,0.0
-0.442672,-10.219746,-2.325824,73.5,-44.73,3.99,1729472823495.0,0.0
-0.849452,-7.63789,-4.663611,85.330002,-26.32,8.4,1729472823514.0,0.0
-0.993021,-6.728617,-5.091926,-1.47,-7.35,2.66,1729472823538.0,0.0
-0.021535,-9.497113,-8.003991,-77.629997,-3.99,-1.47,1729472823555.0,0.0
0.401994,-10.590633,-8.599805,-61.459999,18.969999,4.97,1729472823574.0,0.0
-0.133998,-9.401401,-7.054041,-7.0,51.450001,7.28,1729472823595.0,0.0
-0.937986,-8.066205,-4.24726,13.440001,67.199997,3.15,1729472823615.0,0.0
-1.540978,-8.678767,-3.239882,1.12,60.619999,5.95,1729472823638.0,0.0
-2.316252,-11.083554,0.488136,-27.299999,38.639999,-3.64,1729472823656.0,0.0
-2.600998,-10.432706,-0.294317,-9.17,15.89,-4.06,1729472823675.0,0.0
-2.955136,-10.846665,2.900101,-7.98,5.67,-10.85,1729472823695.0,0.0
-4.465007,-11.779866,3.416951,8.75,-36.189999,-3.01,1729472823715.0,0.0
-1.923829,-9.004191,-0.445065,37.380001,-25.549999,-17.01,1729472823737.0,0.0
-0.449851,-9.611969,-1.581656,-36.470001,-40.32,-20.16,1729472823756.0,0.0
-0.397209,-9.95175,-2.421536,-23.030001,-21.139999,-4.55,1729472823774.0,0.0
-0.361316,-9.793823,-2.48375,-6.23,-15.4,-2.1,1729472823795.0,0.0
0.22014,-9.317651,-3.282953,16.030001,-16.1,0.63,1729472823814.0,0.0
0.29671,-7.846066,-2.132005,31.780001,-16.24,9.1,1729472823838.0,0.0
-0.021535,-7.195218,-2.26361,42.420002,-29.610001,20.58,1729472823854.0,0.0
-0.282353,-8.740981,-2.471786,49.209999,-41.16,28.139999,1729472823874.0,0.0
-0.351745,-9.401401,-5.20439,15.68,-30.799999,20.719999,1729472823895.0,0.0
-0.660419,-8.920443,-6.525227,-40.880001,-9.94,12.88,1729472823915.0,0.0
-1.040878,-10.224532,-7.166504,-63.77,4.9,17.99,1729472823936.0,0.0
-1.416551,-12.595818,-6.798009,-61.32,19.32,13.3,1729472823954.0,0.0
-1.615155,-13.239488,-6.075377,-17.92,37.099998,0.98,1729472823974.0,0.0
-2.086541,-12.05504,-2.74696,28.139999,49.349998,-10.92,1729472823995.0,0.0
-2.699104,-10.722239,-0.861416,52.990002,42.700001,-9.66,1729472824015.0,0.0
-1.416551,-8.958728,0.765703,65.239998,33.950001,-18.549999,1729472824037.0,0.0
-4.304688,-7.826923,6.683154,75.389999,8.26,10.08,1729472824055.0,0.0
-2.813959,-8.185846,0.748954,32.549999,-23.870001,-9.73,1729472824075.0,0.0
-1.672583,-9.482756,-1.634298,-56.560001,-26.67,-9.45,1729472824097.0,0.0
-1.550549,-11.12184,-1.844866,-41.02,-14.98,-2.03,1729472824114.0,0.0
-1.706082,-11.320443,-2.428715,5.74,-5.88,1.82,1729472824136.0,0.0
-1.337588,-9.65504,-2.251646,49.420002,-3.57,-3.64,1729472824154.0,0.0
-0.674776,-8.355737,-2.452643,59.290001,-10.08,-3.01,1729472824174.0,0.0
-0.768096,-7.030113,-1.56012,34.650002,-20.58,2.73,1729472824259.0,0.0
-0.964308,-8.145168,-1.079163,15.89,-42.98,12.95,1729472824259.0,0.0
-0.416351,-9.937392,-2.739782,17.360001,-61.529999,10.64,1729472824259.0,0.0
-0.382852,-9.360723,-4.809574,13.93,-40.880001,5.18,1729472824260.0,0.0
-1.217947,-9.205189,-6.183054,-42.139999,-16.52,0.63,1729472824281.0,0.0
-0.878166,-11.306087,-8.035098,-85.540001,0.14,-2.94,1729472824295.0,0.0
-0.12682,-12.354142,-7.499106,-51.66,23.73,-2.8,1729472824314.0,0.0
-0.368495,-10.738988,-5.24746,26.460001,59.920002,-2.03,1729472824336.0,0.0
-1.277767,-9.253045,-3.402594,56.91,80.779999,-2.66,1729472824354.0,0.0
-2.502892,-10.10489,1.478764,19.950001,73.989998,-10.99,1729472824374.0,0.0
-2.254039,-10.770095,3.684947,19.67,48.02,-11.2,1729472824398.0,0.0
-4.287938,-6.989435,7.542177,105.629997,2.87,4.9,1729472824413.0,0.0
-4.630112,-6.711867,3.996014,57.189999,-9.66,-3.85,1729472824437.0,0.0
-2.072184,-8.980263,-0.646062,-77.980003,-41.09,-28.700001,1729472824454.0,0.0
-1.098306,-10.636096,-1.976472,-98.349998,-35.77,-11.48,1729472824474.0,0.0
-1.385444,-10.265208,-1.744368,-50.540001,-16.309999,-5.39,1729472824494.0,0.0
-1.383051,-10.095319,-2.141576,-20.299999,-16.59,-0.21,1729472824514.0,0.0
-0.401994,-8.673983,-3.309274,-10.78,-29.960001,-2.45,1729472824536.0,0.0
0.602991,-7.307681,-5.168497,-8.47,-38.220001,9.17,1729472824554.0,0.0
0.964308,-8.65484,-5.740381,-37.099998,-34.23,12.67,1729472824574.0,0.0
0.344566,-10.971091,-5.666204,-63.630001,-11.69,6.79,1729472824594.0,0.0
-0.485743,-10.454242,-6.946364,-22.68,18.969999,5.67,1729472824614.0,0.0
-1.182054,-9.475577,-5.943772,11.83,46.900002,7.49,1729472824636.0,0.0
-1.677369,-9.652647,-5.558527,-10.57,61.040001,3.99,1729472824654.0,0.0
-1.899901,-10.91845,-3.663411,-21.84,70.769997,-0.77,1729472824674.0,0.0
-2.261217,-11.676974,-0.01675,-14.35,63.07,-10.5,1729472824694.0,0.0
-2.423929,-10.315458,1.344766,30.799999,50.959999,-7.91,1729472824721.0,0.0
-4.721039,-7.216753,8.585447,72.309998,29.4,-15.68,1729472824740.0,0.0
-5.053641,-7.341179,3.795017,65.169998,-14.7,4.97,1729472824754.0,0.0
-2.533999,-8.748159,-0.736989,-44.869999,-42.98,-29.469999,1729472824774.0,0.0
-1.311267,-10.686346,-1.332802,-78.050003,-44.869999,-10.36,1729472824794.0,0.0
-1.490728,-11.236694,-1.713261,-38.779999,-25.41,-2.52,1729472824814.0,0.0
-1.359123,-10.49492,-2.584249,-3.78,-25.620001,-2.94,1729472824836.0,0.0
-0.825524,-8.68116,-2.828316,11.83,-29.75,-1.82,1729472824854.0,0.0
-0.449851,-8.525627,-3.156133,14.21,-36.400002,6.23,1729472824875.0,0.0
-0.141177,-9.616754,-3.572484,0.42,-41.23,9.1,1729472824894.0,0.0
0.191426,-9.88475,-5.4341,4.97,-33.529999,9.87,1729472824915.0,0.0
-0.244068,-9.492328,-6.185446,3.22,-1.82,9.31,1729472824939.0,0.0
-0.710668,-10.121639,-6.872187,-15.82,24.01,7.14,1729472825128.0,0.0
-1.143769,-10.722239,-5.151747,1.54,40.18,8.12,1729472825128.0,0.0
-1.115055,-9.097511,-4.780859,32.619999,51.029999,6.3,1729472825128.0,0.0
-0.973879,-8.532805,-3.550949,24.08,59.360001,3.71,1729472825128.0,0.0
-1.205983,-10.15514,-1.399801,-20.65,57.330002,-5.18,1729472825129.0,0.0
-1.76351,-10.011569,-1.459622,-3.08,53.760002,0.07,1729472825129.0,0.0
-3.452843,-8.30788,8.389235,45.009998,45.920002,-0.7,1729472825129.0,0.0
-5.438886,-7.283752,7.518249,101.779999,0.84,24.92,1729472825130.0,0.0
-3.361916,-8.793623,0.291924,-35.279999,-37.380001,-21.77,1729472825130.0,0.0
-1.237089,-10.597812,-1.56012,-113.82,-58.66,-22.26,1729472825137.0,0.0
-0.658026,-11.186446,-3.17049,-79.870003,-43.259998,-9.24,1729472825154.0,0.0
-1.026521,-10.973484,-2.141576,-37.029999,-34.720001,-9.66,1729472825174.0,0.0
-1.004985,-10.124033,-2.720639,-13.3,-37.099998,-13.3,1729472825193.0,0.0
-1.234696,-8.642875,-2.385644,4.62,-36.330002,-8.61,1729472825214.0,0.0
-1.308874,-9.760324,-2.239682,4.34,-46.41,-3.92,1729472825239.0,0.0
-0.174676,-10.449455,-4.500899,14.21,-54.110001,-6.72,1729472825253.0,0.0
0.531207,-8.547162,-5.515456,35.139999,-25.41,-1.68,1729472825273.0,0.0
-0.069392,-8.267202,-6.005985,-5.88,6.79,2.87,1729472825294.0,0.0
-0.397209,-10.403993,-7.094719,-38.360001,29.26,2.8,1729472825314.0,0.0
-0.490529,-10.411172,-5.974878,-9.59,47.459999,6.02,1729472825336.0,0.0
-0.662812,-8.889337,-5.254639,25.549999,68.809998,5.53,1729472825353.0,0.0
-1.081556,-8.482556,-3.826123,17.92,77.07,5.95,1729472825373.0,0.0
-1.928615,-10.260423,-1.282553,-11.2,74.340004,0.84,1729472825393.0,0.0
-2.402394,-11.040483,0.320638,12.46,59.150002,6.93,1729472825413.0,0.0
-5.048856,-7.250252,9.090333,80.5,23.52,4.69,1729472825436.0,0.0
-5.65424,-8.161918,4.182654,44.799999,-8.26,11.34,1729472825454.0,0.0
-2.538785,-9.631111,-2.203789,-77.349998,-43.889999,-31.43,1729472825473.0,0.0
-0.875773,-10.748559,-2.500499,-94.779999,-47.599998,-14.21,1729472825493.0,0.0
-1.083949,-10.9352,-2.524428,-49.630001,-22.68,-8.05,1729472825514.0,0.0
-1.397408,-10.660025,-2.531606,-8.68,-19.32,-7.14,1729472825536.0,0.0
-0.734596,-9.006584,-2.9671,16.24,-22.049999,-9.31,1729472825553.0,0.0
-0.727418,-8.042276,-2.325824,19.6,-19.67,0.63,1729472825573.0,0.0
-1.153341,-9.008978,-1.205983,6.02,-29.049999,5.67,1729472825595.0,0.0
-0.741775,-10.121639,-3.007778,14.77,-38.849998,4.34,1729472825616.0,0.0
-0.136391,-9.013763,-4.991428,17.57,-24.219999,2.45,1729472825637.0,0.0
-0.138784,-8.748159,-5.642276,-22.049999,-6.65,4.9,1729472825653.0,0.0
-0.081356,-10.667203,-6.762117,-36.82,10.22,7.42,1729472825673.0,0.0
-0.282353,-10.715059,-5.659025,-5.25,31.92,7.77,1729472825694.0,0.0
-0.622134,-9.138189,-5.503492,23.17,52.5,5.6,1729472825715.0,0.0
-1.071985,-9.923036,-3.826123,7.14,61.670002,4.13,1729472825737.0,0.0
-1.651048,-10.052249,-1.48355,-13.440001,65.590004,1.05,1729472825754.0,0.0
-2.079363,-11.131411,-1.316052,41.650002,64.82,10.36,1729472825773.0,0.0
-4.476971,-7.49432,8.405986,81.900002,42.84,6.72,1729472825793.0,0.0
-6.142376,-8.109276,7.274181,77.279999,7.91,22.610001,1729472825813.0,0.0
-3.194418,-9.556933,1.103091,-32.27,-36.259998,-19.6,1729472825835.0,0.0
-0.818345,-9.875179,-2.624927,-83.019997,-50.119999,-20.65,1729472825853.0,0.0
-0.839881,-9.879964,-3.180061,-56.77,-29.190001,-9.24,1729472825873.0,0.0
-1.459622,-10.348958,-3.182454,-37.59,-16.17,-5.11,1729472825894.0,0.0
-1.371087,-10.758131,-2.586641,-18.27,-20.299999,-7.7,1729472825915.0,0.0
-0.729811,-10.226924,-2.955136,7.84,-27.65,-12.04,1729472825936.0,0.0
-0.933201,-8.551948,-1.959722,19.25,-27.790001,-8.82,1729472825954.0,0.0
-1.402194,-8.690732,-1.586441,19.74,-39.200001,-2.31,1729472825973.0,0.0
-0.971486,-9.32483,-3.572484,23.450001,-53.760002,-1.12,1729472825993.0,0.0
-0.31346,-9.332008,-4.890929,15.12,-41.790001,-4.41,1729472826013.0,0.0
-0.722632,-9.52822,-4.728218,-18.690001,-14.49,-0.42,1729472826035.0,0.0
-0.847059,-10.492528,-5.867201,-27.440001,0.63,-1.47,1729472826054.0,0.0
-0.339781,-9.844072,-4.852644,-10.36,15.82,-0.49,1729472826073.0,0.0
-0.574277,-8.839087,-4.441079,11.69,39.200001,-2.1,1729472826093.0,0.0
-0.78006,-8.269595,-3.680161,-0.07,43.68,-0.98,1729472826113.0,0.0
-0.758525,-9.152546,-3.914658,-13.3,45.360001,3.01,1729472826135.0,0.0
-1.012164,-10.140782,-3.54377,-11.55,51.799999,3.36,1729472826155.0,0.0
-1.605584,-9.640682,-1.172483,1.82,55.23,2.52,1729472826173.0,0.0
-2.112862,-8.985049,-1.509871,16.66,57.330002,11.9,1729472826193.0,0.0
-3.084348,-10.514063,3.529413,-1.05,45.150002,2.8,1729472826213.0,0.0
-4.945964,-10.456635,5.541777,46.900002,4.41,19.460001,1729472826239.0,0.0
-3.854837,-9.083155,2.488536,48.93,-8.4,-0.35,1729472826254.0,0.0
-1.371087,-8.977871,-1.607977,-40.32,-38.360001,-19.879999,1729472826273.0,0.0
-0.870987,-9.820145,-3.144169,-58.099998,-28.49,-5.18,1729472826294.0,0.0
-1.20359,-11.033305,-3.010171,-44.799999,-16.24,-0.77,1729472826313.0,0.0
-1.012164,-11.41855,-2.897708,-12.11,-15.47,-0.7,1729472826335.0,0.0
-0.605384,-10.344172,-3.189633,25.549999,-14.84,-6.02,1729472826353.0,0.0
-0.744168,-9.281759,-3.151347,36.889999,-12.18,-8.26,1729472826373.0,0.0
-1.344766,-8.953942,-2.426322,26.460001,-14.07,-6.16,1729472826393.0,0.0
-1.825724,-9.164511,-1.87358,11.83,-19.950001,-7.21,1729472826412.0,0.0
-1.916651,-9.707682,-1.361516,5.39,-32.41,-10.22,1729472826436.0,0.0
-2.091327,-10.497313,-1.964507,9.24,-36.400002,-12.32,1729472826453.0,0.0
-1.682154,-9.212367,-3.507878,-1.05,-30.799999,-16.66,1729472826473.0,0.0
-1.225125,-8.982656,-3.572484,-25.34,-26.950001,-14.28,1729472826493.0,0.0
-0.772882,-9.899107,-3.919443,-31.99,-20.370001,-12.74,1729472826513.0,0.0
-0.748954,-10.332209,-3.821337,-5.67,-5.53,-7.14,1729472826535.0,0.0
-0.988236,-9.805787,-3.046063,24.99,7.91,-4.76,1729472826553.0,0.0
-1.392623,-9.195618,-1.761117,41.16,14.7,-0.28,1729472826573.0,0.0
-1.691726,-9.183653,-1.062413,41.369999,13.86,2.8,1729472826593.0,0.0
-1.832902,-9.547362,-0.612563,25.969999,10.36,2.38,1729472826625.0,0.0
-1.753939,-9.870394,-0.624527,13.37,5.67,2.38,1729472826639.0,0.0
-1.775474,-9.911072,-0.624527,8.75,0.98,-1.82,1729472826654.0,0.0
-1.648655,-9.772287,-1.174876,10.08,-4.97,-1.82,1729472826673.0,0.0
-1.18684,-9.793823,-2.002793,10.71,-10.78,-0.7,1729472826692.0,0.0
-0.526421,-9.425328,-2.639283,3.15,-12.11,-3.22,1729472826713.0,0.0
-0.122034,-9.363115,-3.345166,-6.65,-7.7,-2.24,1729472826736.0,0.0
0.488136,-8.867801,-4.07737,-14.49,-2.1,-3.08,1729472826752.0,0.0
1.091127,-8.360522,-4.661219,-32.970001,2.73,-3.08,1729472826773.0,0.0
1.476372,-8.748159,-6.269196,-62.369999,8.12,-2.73,1729472826793.0,0.0
0.648455,-10.325029,-6.9344,-86.379997,28.139999,-6.93,1729472826813.0,0.0
-0.808774,-12.77528,-6.15434,-82.18,48.720001,-11.9,1729472826835.0,0.0
-1.344766,-10.389636,-5.47717,-4.06,63.84,-8.47,1729472826853.0,0.0
-3.314059,-11.227123,1.09352,66.849998,77.629997,-6.72,1729472826872.0,0.0
-4.816752,-8.573483,7.606783,161.0,33.670002,9.24,1729472826894.0,0.0
-4.768896,-5.072784,7.549356,152.25,12.88,11.48,1729472826912.0,0.0
-3.744767,-7.606783,3.069991,-27.23,-28.42,-15.47,1729472826935.0,0.0
-1.969293,-10.157533,-1.26341,-124.18,-43.540001,-19.040001,1729472826953.0,0.0
-1.294517,-11.956935,-2.935993,-94.150002,-28.559999,-6.37,1729472826973.0,0.0
-0.935594,-12.528819,-4.220939,-9.52,-8.61,-0.07,1729472826993.0,0.0
-0.729811,-11.600404,-3.962514,89.459999,9.45,6.09,1729472827013.0,0.0
-0.502493,-9.652647,-3.28056,136.360001,19.950001,9.45,1729472827035.0,0.0
-0.430708,-8.595018,-2.62732,115.43,22.049999,11.27,1729472827052.0,0.0
-0.378066,-8.982656,-2.548356,62.580002,17.710001,7.49,1729472827080.0,0.0
-0.875773,-8.970692,-0.760918,15.75,15.33,3.15,1729472827094.0,0.0
-0.926022,-8.688338,-1.557728,9.1,3.71,3.85,1729472827112.0,0.0
-0.614955,-7.578069,-1.954936,-17.360001,3.57,7.7,1729472827135.0,0.0
-1.062413,-9.150154,-0.394816,-89.110001,5.95,2.38,1729472827152.0,0.0
-1.07677,-11.593226,-0.442672,-177.729996,0.21,-11.97,1729472827172.0,0.0
-0.825524,-12.330215,-0.679562,-189.770004,-1.26,-15.61,1729472827193.0,0.0
-0.693919,-10.521241,-1.268196,-162.259995,10.5,-18.059999,1729472827212.0,0.0
-0.533599,-8.580662,-1.682154,-154.910004,19.460001,-17.99,1729472827240.0,0.0
0.265603,-8.595018,-2.15354,-163.869995,21.42,-13.23,1729472827252.0,0.0
0.677169,-9.188439,-2.871387,-165.199997,18.129999,-0.77,1729472827274.0,0.0
0.485743,-8.729016,-3.529413,-166.669998,18.9,11.76,1729472827292.0,0.0
0.20339,-7.101898,-4.04387,-166.669998,15.190001,24.360001,1729472827313.0,0.0
-0.39003,-5.816952,-6.209375,-169.680008,6.65,44.52,1729472827335.0,0.0
-1.22034,-5.709275,-7.628319,-177.100006,5.74,52.920002,1729472827353.0,0.0
-1.842474,-6.881758,-8.906086,-195.509995,21.139999,53.130001,1729472827373.0,0.0
-1.859223,-6.707082,-10.097712,-194.25,19.809999,59.290001,1729472827392.0,0.0
-1.210768,-6.915257,-11.01177,-146.509995,11.76,70.209999,1729472827412.0,0.0
-2.541178,-6.242875,-10.332209,-76.720001,26.32,71.190002,1729472827435.0,0.0
-1.811367,-7.927422,-10.250853,1.75,23.66,49.209999,1729472827453.0,0.0
-0.727418,-5.072784,-13.091133,57.540001,6.93,39.900002,1729472827472.0,0.0
-0.564706,-4.733003,-14.641682,86.800003,42.279999,0.84,1729472827493.0,0.0
-0.366102,-3.117848,-6.429514,135.589996,82.32,-5.67,1729472827512.0,0.0
0.311067,-3.850052,-1.76351,148.610001,69.370003,-7.07,1729472827535.0,0.0
-0.33021,-4.338188,-2.282753,44.029999,39.130001,-36.82,1729472827554.0,0.0
-3.65384,-10.561919,-7.623533,-30.309999,36.75,-77.349998,1729472827572.0,0.0
-3.522235,-13.356737,-7.396214,30.940001,0.63,-79.660004,1729472827594.0,0.0
-1.01695,-7.566105,-8.159525,133.770004,-23.030001,-50.889999,1729472827613.0,0.0
-1.596013,-5.508278,-3.838088,183.820007,-3.36,-30.59,1729472827636.0,0.0
-4.048656,-7.71446,-1.617548,70.209999,37.450001,-32.060001,1729472827654.0,0.0
-5.010571,-10.755738,-4.022335,-64.889999,10.71,-32.41,1729472827672.0,0.0
-3.084348,-12.971491,-6.73101,-38.779999,-29.26,-20.58,1729472827693.0,0.0
-1.251446,-10.205389,-5.328816,40.32,-29.190001,4.55,1729472827712.0,0.0
-2.033899,-8.776874,-3.74716,94.709999,11.9,21.42,1729472827734.0,0.0
-2.366502,-6.329016,-5.773881,72.309998,22.610001,27.23,1729472827752.0,0.0
-1.57687,-5.501099,-4.323831,-16.379999,-21.210001,35.700001,1729472827772.0,0.0
-0.61017,-6.78126,-6.123233,-69.090004,-19.879999,31.92,1729472827797.0,0.0
1.878366,-2.517249,-5.539384,-81.900002,-40.950001,48.790001,1729472827812.0,0.0
2.007578,-3.4672,-7.9346,-21.07,-60.48,89.18,1729472827835.0,0.0
0.454636,-0.12682,-5.74756,-104.440002,-9.66,76.019997,1729472827852.0,0.0
-2.658426,-3.314059,-7.336394,-143.5,7.07,84.209999,1729472827872.0,0.0
-1.241875,-5.663811,-9.250652,-146.720001,-36.330002,82.25,1729472827892.0,0.0
-0.234497,-6.393622,-11.119448,-112.980003,-42.98,83.860001,1729472827912.0,0.0
-1.825724,-8.116454,-10.743774,-63.0,-1.89,60.27,1729472827935.0,0.0
-2.079363,-8.338986,-11.193624,-1.89,3.5,35.91,1729472827953.0,0.0
-1.954936,-8.592626,-10.583455,50.540001,15.4,12.11,1729472827972.0,0.0
-1.639083,-8.989835,-7.448857,99.330002,21.559999,-3.71,1729472827992.0,0.0
-1.021735,-10.19821,-5.28096,145.529999,6.51,-16.309999,1729472828012.0,0.0
0.583849,-11.246266,-6.312266,164.149994,-14.0,-43.75,1729472828035.0,0.0
0.885344,-9.535398,-5.271388,107.309998,-13.51,-62.02,1729472828053.0,0.0
-0.090927,-5.534599,-6.211767,96.040001,12.6,-59.709999,1729472828072.0,0.0
-4.122833,-8.090133,-1.694118,80.5,22.469999,-36.75,1729472828093.0,0.0
-5.489135,-8.903693,-3.002992,-57.049999,-5.32,-53.060001,1729472828114.0,0.0
-4.398008,-11.609976,-5.319244,-33.389999,-43.610001,-40.18,1729472828135.0,0.0
-2.694318,-8.709875,-5.704489,6.86,-64.050003,-17.15,1729472828153.0,0.0
-3.464807,-7.869993,-5.201996,56.98,-14.14,12.04,1729472828172.0,0.0
-5.462814,-7.695317,-4.072584,-26.389999,26.389999,10.43,1729472828192.0,0.0
-6.896115,-5.998806,-2.663212,-190.960007,34.23,6.44,1729472828213.0,0.0
-6.707082,-5.87438,-2.715853,-345.23999,-6.3,9.03,1729472828239.0,0.0
-3.125026,-14.148761,-6.431907,-260.610016,-70.07,23.379999,1729472828252.0,0.0
0.741775,-11.344372,-12.12204,-45.290001,-93.519997,44.029999,1729472828273.0,0.0
-0.646062,-3.510271,-11.820543,78.540001,-24.290001,74.199997,1729472828292.0,0.0
-2.043471,-1.895115,-10.348958,84.349998,11.13,73.220001,1729472828312.0,0.0
-0.007178,-0.442672,-8.810372,128.589996,-7.0,120.610001,1729472828344.0,0.0
-1.182054,0.981057,-7.56132,99.260002,2.17,129.850006,1729472828352.0,0.0
-2.364109,-7.274181,-8.260024,-15.33,10.71,78.190002,1729472828372.0,0.0
-1.239482,-6.879365,-8.882158,-1.89,-16.379999,66.849998,1729472828392.0,0.0
-2.28036,-4.039084,-12.574283,54.670002,5.39,27.65,1729472828411.0,0.0
-2.667997,-5.580062,-5.575277,32.130001,40.040001,-8.89,1729472828434.0,0.0
-0.349352,-7.532606,-7.362715,-40.740002,21.0,-56.07,1729472828454.0,0.0
1.57687,-6.750153,-8.329416,-68.529999,6.93,-81.690002,1729472828472.0,0.0
0.07657,-9.956534,-9.29133,-39.48,31.99,-97.370003,1729472828493.0,0.0
-1.808974,-9.370294,-7.793423,1.47,34.02,-93.519997,1729472828512.0,0.0
-2.084148,-1.375873,-2.931208,61.670002,26.040001,-47.740002,1729472828535.0,0.0
-7.159326,-3.223132,-3.586841,9.45,41.439999,-30.940001,1729472828552.0,0.0
-10.112068,-11.595619,-5.852845,-95.480003,43.400002,-38.080002,1729472828572.0,0.0
-5.572884,-13.940585,-6.518049,-41.580002,-21.629999,-20.719999,1729472828592.0,0.0
-1.383051,-9.442079,-4.816752,58.52,-62.299999,11.41,1729472828612.0,0.0
-3.053242,-7.855636,-3.948158,77.0,5.32,16.66,1729472828634.0,0.0
-6.486942,-8.003991,-4.218546,23.24,42.420002,19.25,1729472828652.0,0.0
-6.4343,-9.032906,-5.778666,-35.560001,3.71,21.77,1729472828671.0,0.0
-3.821337,-8.831908,-4.811966,-87.220001,-40.18,20.370001,1729472828692.0,0.0
-2.469393,-6.977471,-8.616554,-86.590004,-36.400002,27.65,1729472828711.0,0.0
-1.045663,-5.297709,-8.997013,-26.950001,-41.439999,31.219999,1729472828733.0,0.0
-2.56032,-4.54397,-6.874579,-18.83,-19.809999,43.889999,1729472828752.0,0.0
-2.065006,-3.534199,-9.128618,-76.090004,-19.879999,34.720001,1729472828772.0,0.0
-0.76331,-4.709075,-11.320443,-54.599998,-35.630001,36.959999,1729472828792.0,0.0
-1.194018,-5.20439,-12.811172,-13.09,1.19,41.93,1729472828812.0,0.0
-2.002793,-2.9671,-9.88475,92.610001,25.9,51.66,1729472828834.0,0.0
-3.326023,-1.325624,-6.171089,82.110001,48.93,36.470001,1729472828851.0,0.0
-1.808974,-0.732204,-6.630512,10.92,34.860001,15.75,1729472828872.0,0.0
-0.4666,-3.120241,-10.473385,-15.54,16.309999,4.34,1729472828891.0,0.0
-2.086541,-9.674182,-10.423136,-52.639999,52.43,-26.460001,1729472828912.0,0.0
-3.127419,-12.734602,-6.618547,-58.73,50.540001,-64.470001,1729472828934.0,0.0
-3.565305,-10.882557,-3.85723,7.84,27.860001,-84.840004,1729472828951.0,0.0
-3.23031,-6.912865,-6.920043,76.019997,0.91,-97.510002,1729472828972.0,0.0
-3.101098,-8.977871,-7.456036,97.650002,-23.1,-95.760002,1729472828992.0,0.0
-1.287339,-4.699504,-6.853044,104.370003,-34.23,-79.590004,1729472829011.0,0.0
-2.26361,-3.778267,-3.237489,198.520004,-29.26,-28.0,1729472829034.0,0.0
-5.644669,-6.025128,-1.31366,137.759995,4.34,-5.46,1729472829051.0,0.0
-6.343372,-7.786245,-5.254639,12.25,-13.16,-3.78,1729472829071.0,0.0
-5.063213,-7.513463,-5.079963,-104.580002,-26.67,-11.62,1729472829091.0,0.0
-4.007978,-6.812366,-8.039884,-168.070007,-13.09,5.46,1729472829119.0,0.0
-4.254438,-7.238289,-8.523234,-113.260002,-15.68,40.32,1729472829134.0,0.0
-4.639683,-8.549555,-6.738188,-140.139999,-12.04,26.809999,1729472829151.0,0.0
-4.118048,-10.492528,-6.675975,-114.660004,-22.4,18.129999,1729472829173.0,0.0
-3.24706,-9.556933,-6.575477,-53.27,-29.190001,9.66,1729472829257.0,0.0
-3.60359,-5.307281,-11.076375,-5.11,-18.690001,-1.61,1729472829262.0,0.0
-2.019542,-4.969893,-10.526026,-2.03,-33.32,17.43,1729472829266.0,0.0
3.615555,-0.880559,-10.470992,-4.69,-39.970001,24.92,1729472829274.0,0.0
1.363909,-0.643669,-9.513863,112.139999,-14.49,85.959999,1729472829274.0,0.0
-2.608176,1.782653,-5.876772,9.52,49.91,51.52,1729472829292.0,0.0
-0.918844,-9.738789,-9.272188,-44.869999,5.67,25.48,1729472829312.0,0.0
1.048056,-6.750153,-10.174281,26.880001,-8.4,8.82,1729472829334.0,0.0
-1.316052,-3.366701,-10.344172,135.940002,33.599998,-22.540001,1729472829352.0,0.0
-3.160919,-1.567299,-7.52782,145.949997,57.610001,-38.290001,1729472829372.0,0.0
-1.741975,-2.78046,-8.650054,104.370003,16.73,-53.060001,1729472829392.0,0.0
-0.653241,-5.737988,-8.441878,48.23,10.92,-54.389999,1729472829411.0,0.0
-3.012564,-7.01097,-5.905487,52.360001,59.990002,-38.360001,1729472829435.0,0.0
-4.792823,-5.943772,-2.309074,56.560001,54.810001,-23.799999,1729472829453.0,0.0
-7.025328,-7.353144,-4.409972,33.25,43.330002,-17.01,1729472829473.0,0.0
-6.987042,-10.750952,-2.510071,-9.52,9.31,-16.17,1729472829494.0,0.0
-5.379066,-11.679367,-3.354738,-28.84,-17.219999,-12.53,1729472829513.0,0.0
-5.462814,-10.4016,-4.685147,-20.299999,-14.91,7.14,1729472829536.0,0.0
-6.62094,-10.145569,-4.472186,-3.29,14.49,17.780001,1729472829553.0,0.0
-6.096912,-10.315458,-4.902894,-2.38,-3.5,22.4,1729472829573.0,0.0
-3.830909,-8.181061,-7.508677,20.02,-39.34,40.389999,1729472829595.0,0.0
-1.526621,-4.522435,-4.955536,-3.99,-58.799999,49.560001,1729472829614.0,0.0
0.354138,-1.74676,-9.408579,-118.440002,-60.200001,36.82,1729472829635.0,0.0
1.062413,-4.960321,-9.281759,-199.5,-44.450001,31.360001,1729472829653.0,0.0
0.392423,-5.943772,-9.147761,-87.849998,-30.24,46.48,1729472829673.0,0.0
-0.90688,-1.416551,-9.602397,-10.22,-9.87,56.700001,1729472829694.0,0.0
-3.708875,-3.029313,-9.023334,5.81,3.57,66.150002,1729472829714.0,0.0
-3.103491,-8.489735,-10.490135,-70.139999,1.05,18.969999,1729472829737.0,0.0
-1.959722,-9.60479,-12.172288,2.31,7.56,-21.49,1729472829754.0,0.0
-1.871187,-6.419943,-11.552547,101.220001,36.75,-43.049999,1729472829773.0,0.0
-2.330609,-1.875973,-6.058627,119.629997,62.09,-47.880001,1729472829794.0,0.0
-1.268196,-6.534799,-9.016156,136.850006,10.92,-52.5,1729472829813.0,0.0
0.198604,-4.752146,-10.674382,17.780001,22.889999,-73.360001,1729472829842.0,0.0
-0.504886,-7.54457,-5.613562,4.27,64.82,-72.169998,1729472829853.0,0.0
-1.928615,-6.147161,-3.134598,16.66,71.68,-56.98,1729472829873.0,0.0
-5.76431,-10.205389,-2.828316,56.490002,57.119999,-45.779999,1729472829894.0,0.0
-6.082555,-10.107283,-4.893322,79.449997,25.83,-43.189999,1729472829913.0,0.0
-4.161119,-8.599805,-4.421937,187.180008,-35.07,-15.61,1729472829936.0,0.0
-3.905087,-5.706882,-2.569891,177.729996,-28.210001,1.05,1729472829953.0,0.0
-4.453043,-6.331409,-2.813959,58.799999,3.78,-2.31,1729472829973.0,0.0
-4.386044,-9.054441,-4.405186,-46.48,-21.42,2.24,1729472829994.0,0.0
-3.589234,-11.12184,-5.721239,-61.18,-35.139999,12.32,1729472830013.0,0.0
-3.326023,-11.026128,-3.943372,-51.939999,-25.48,13.86,1729472830035.0,0.0
-3.850052,-9.52822,-3.936193,-119.559998,-13.16,-13.16,1729472830053.0,0.0
-2.756532,-5.391029,-5.553742,-191.240005,-35.98,-24.15,1729472830073.0,0.0
-0.545564,3.998406,-6.733403,-241.919998,-87.779999,12.67,1729472830094.0,0.0
-1.012164,-5.699703,-13.079168,-198.309998,-58.73,33.880001,1729472830113.0,0.0
1.232304,-9.784252,-9.090333,23.799999,-41.439999,48.16,1729472830135.0,0.0
-2.258825,-0.387637,-10.214959,27.93,-1.61,65.870003,1729472830153.0,0.0
-3.617948,-5.469993,-10.121639,-40.670002,33.880001,24.290001,1729472830173.0,0.0
-0.827917,-7.204789,-9.846465,-45.5,-5.67,40.25,1729472830193.0,0.0
-1.325624,-6.092126,-8.781659,-1.75,19.74,17.5,1729472830213.0,0.0
-2.87378,-5.924629,-10.100104,36.049999,30.66,-5.74,1729472830238.0,0.0
-2.366502,-4.256832,-12.698709,93.800003,27.299999,-23.66,1729472830253.0,0.0
-2.143969,-5.429315,-7.903493,150.360001,50.330002,-34.299999,1729472830274.0,0.0
-0.689133,-4.460221,-7.034898,151.199997,30.309999,-42.209999,1729472830293.0,0.0
-0.172283,-3.936193,-8.106883,168.490005,7.7,-36.75,1729472830313.0,0.0
-0.100499,-6.838687,-6.223732,166.039993,10.01,-42.630001,1729472830335.0,0.0
-0.741775,-5.517848,-3.407379,97.790001,26.950001,-50.540001,1729472830352.0,0.0
-4.259224,-6.65444,-3.696911,49.139999,41.16,-32.27,1729472830373.0,0.0
-5.532206,-9.052048,-3.948158,15.12,0.98,-27.299999,1729472830393.0,0.0
-4.666004,-9.750752,-4.266403,47.880001,-36.540001,-0.49,1729472830412.0,0.0
-4.182654,-10.774881,-4.173083,70.840004,-29.190001,6.86,1729472830436.0,0.0
-4.244867,-12.445071,-2.787638,24.99,-5.95,-7.0,1729472830452.0,0.0
-4.388437,-12.756138,-3.799802,-41.299999,5.67,-19.110001,1729472830473.0,0.0
-4.118048,-11.660224,-3.168097,-63.91,-0.35,-23.66,1729472830493.0,0.0
-3.493521,-8.867801,-2.581856,-103.25,1.68,-27.51,1729472830512.0,0.0
-2.469393,-6.025128,-3.940979,-162.539993,-7.77,-22.82,1729472830535.0,0.0
-0.634098,-3.345166,-6.001199,-243.880005,-44.73,-14.77,1729472830553.0,0.0
-0.346959,-0.971486,-8.248059,-306.179993,-55.510002,6.65,1729472830572.0,0.0
-1.974079,-13.158132,-9.253045,-133.279999,-5.39,12.18,1729472830593.0,0.0
-1.885544,-3.629912,-7.24786,-43.68,-9.45,16.73,1729472830615.0,0.0
-3.215954,-2.074577,-9.38465,40.670002,-12.46,45.5,1729472830636.0,0.0
-1.086342,-2.809174,-9.064013,9.24,-30.52,27.860001,1729472830652.0,0.0
-0.629312,-5.393422,-10.028319,-8.96,-26.25,31.15,1729472830672.0,0.0
-1.07677,-5.067998,-13.653446,37.799999,-6.58,13.3,1729472830693.0,0.0
-1.514657,-4.886144,-8.52802,119.770004,17.08,5.46,1729472830712.0,0.0
-1.524228,-6.013163,-7.166504,145.600006,38.080002,-11.9,1729472830735.0,0.0
0.598206,-8.879765,-11.41137,164.360001,-6.93,-53.060001,1729472830752.0,0.0
1.806581,-4.800002,-6.994221,168.279999,16.59,-55.790001,1729472830772.0,0.0
-0.725025,-4.625326,-2.550749,165.690002,45.5,-39.970001,1729472830793.0,0.0
-4.737789,-10.743774,-3.519842,79.870003,62.790001,-66.57,1729472830812.0,0.0
-5.469993,-9.442079,-3.206382,26.110001,29.26,-42.84,1729472830836.0,0.0
-3.402594,-7.573284,-0.545564,52.639999,-23.379999,-34.93,1729472830853.0,0.0
-3.220739,-7.302894,-0.820738,-11.2,-24.99,-26.809999,1729472830873.0,0.0
-3.52702,-10.147961,-1.995614,-140.070007,-8.12,-39.830002,1729472830892.0,0.0
-3.158526,-7.465607,-1.952543,-232.820007,-15.190001,-17.43,1729472830913.0,0.0
-1.758725,-6.374479,-4.826324,-219.169998,-40.110001,11.41,1729472830934.0,0.0
-1.940579,-5.572884,-6.635297,-212.520004,-46.619999,34.23,1729472830952.0,0.0
-4.333402,-7.489535,-11.34198,-194.809998,-16.450001,35.84,1729472830973.0,0.0
-3.345166,-12.557532,-9.765109,-100.870003,-39.34,26.950001,1729472830992.0,0.0
-1.26341,-9.008978,-9.932607,47.880001,-55.02,37.66,1729472831013.0,0.0
-1.612763,-4.931608,-9.037691,95.340004,-29.26,30.030001,1729472831035.0,0.0
-2.565106,-4.819145,-7.858029,38.990002,-9.1,3.71,1729472831053.0,0.0
-1.284946,-5.577669,-8.630912,-41.439999,-29.049999,-5.32,1729472831072.0,0.0
-0.899701,-5.687739,-7.965706,-45.779999,-22.82,-9.45,1729472831093.0,0.0
-2.007578,-5.84088,-9.391829,-32.759998,-7.49,-12.6,1729472831113.0,0.0
-0.863809,-8.140383,-11.942577,-11.41,-15.82,-29.190001,1729472831135.0,0.0
-0.136391,-5.599205,-9.722038,78.540001,-17.360001,-11.9,1729472831160.0,0.0
-1.213161,-2.318645,-12.926028,150.430008,29.889999,-32.830002,1729472831172.0,0.0
-1.940579,-4.290331,-7.716853,176.960007,45.920002,-15.75,1729472831194.0,0.0
0.378066,-1.447658,-7.54457,144.410004,24.290001,-24.08,1729472831213.0,0.0
0.524028,-2.309074,-5.491528,160.649994,14.42,-11.34,1729472831239.0,0.0
-1.399801,-7.255038,-7.908278,129.149994,49.77,-29.049999,1729472831253.0,0.0
-2.656033,-8.707481,-6.89133,76.370003,51.799999,-32.200001,1729472831273.0,0.0
-3.531806,-8.415558,-1.818545,122.43,25.969999,-8.54,1729472831293.0,0.0
-3.957729,-7.310073,-1.074377,80.220001,1.47,-27.860001,1729472831313.0,0.0
-4.54397,-9.422935,-1.684547,13.02,-5.11,-20.23,1729472831335.0,0.0
-3.639483,-11.286944,-1.799403,-16.940001,-31.15,-21.07,1729472831353.0,0.0
-3.589234,-9.956534,-4.268795,-36.82,-37.66,-16.379999,1729472831373.0,0.0
-4.003192,-6.862615,-4.503292,-135.800003,16.030001,-3.57,1729472831394.0,0.0
-3.940979,-5.156533,-5.848059,-247.100006,19.25,8.61,1729472831412.0,0.0
-2.70389,-2.435893,-6.372087,-387.799988,-16.66,15.05,1729472831436.0,0.0
-2.232504,-5.010571,-9.332008,-377.369995,-26.809999,35.630001,1729472831454.0,0.0
0.023928,-14.098512,-11.74158,-178.289993,-62.09,36.259998,1729472831474.0,0.0
0.507278,-9.638289,-10.365707,29.75,-22.33,36.82,1729472831494.0,0.0
-2.251646,-2.242075,-9.956534,49.98,20.440001,17.01,1729472831514.0,0.0
-1.756332,-1.883151,-9.633504,-76.93,5.81,-1.4,1729472831538.0,0.0
0.729811,-7.152147,-9.671788,-97.650002,-20.09,-0.7,1729472831553.0,0.0
0.973879,-6.312266,-8.549555,-63.07,9.52,-11.97,1729472831574.0,0.0
-0.868595,-4.579862,-7.944171,2.38,24.01,-14.35,1729472831595.0,0.0
-1.564906,-4.13719,-7.817351,1.26,18.129999,-21.0,1729472831614.0,0.0
-0.949951,-3.979264,-8.394022,-10.85,3.43,-18.129999,1729472831637.0,0.0
-1.615155,-3.512664,-8.477771,-33.599998,10.57,-12.46,1729472831654.0,0.0
-3.151347,-6.089733,-8.492127,-30.450001,15.05,2.8,1729472831674.0,0.0
-2.665605,-4.871787,-10.614561,7.91,2.45,12.6,1729472831694.0,0.0
-3.184847,-3.440879,-10.262815,19.110001,14.07,19.110001,1729472831714.0,0.0
-2.495714,-4.618148,-9.645468,14.84,16.450001,16.24,1729472831738.0,0.0
-0.887737,-5.704489,-9.016156,16.450001,7.28,11.76,1729472831754.0,0.0
-0.514457,-4.869394,-7.958528,42.07,13.09,3.08,1729472831774.0,0.0
-1.643869,-3.199204,-8.463413,57.260002,19.25,-1.26,1729472831794.0,0.0
-2.376073,-3.943372,-8.456236,63.700001,19.389999,0.07,1729472831814.0,0.0
-2.124826,-4.35733,-8.530413,64.260002,10.71,7.28,1729472831836.0,0.0
-1.512264,-4.802395,-8.712267,95.410004,3.22,15.82,1729472831853.0,0.0
-1.861616,-5.737988,-8.901299,100.590004,10.01,15.33,1729472831878.0,0.0
-1.655833,-4.73061,-7.276574,122.290001,10.08,30.450001,1729472831894.0,0.0
-2.428715,-5.974878,-7.379465,221.830002,13.58,56.0,1729472831914.0,0.0
-2.665605,-6.218946,-4.144369,349.929993,19.67,82.18,1729472831936.0,0.0
-4.063013,-6.601797,-1.004985,453.179993,33.110001,111.720001,1729472831954.0,0.0
-5.977271,-8.413164,0.693919,456.890015,47.25,121.449997,1729472831973.0,0.0
-7.623533,-11.428121,-0.26321,363.649994,39.200001,100.099998,1729472831994.0,0.0
-6.979864,-13.986048,-2.957529,239.330002,-11.97,58.59,1729472832014.0,0.0
-4.888536,-13.356737,-3.787838,260.890015,-40.880001,41.16,1729472832037.0,0.0
-1.770689,-12.459428,-3.682554,327.529999,-60.200001,27.09,1729472832054.0,0.0
0.524028,-9.796216,-1.660619,357.070007,-49.91,16.1,1729472832074.0,0.0
0.693919,-6.570691,1.648655,307.089996,-25.83,7.7,1729472832094.0,0.0
-0.885344,-6.297909,2.907279,212.729996,-19.460001,7.21,1729472832113.0,0.0
-1.679761,-9.109475,2.342573,134.539993,-39.130001,3.01,1729472832136.0,0.0
-0.107677,-9.482756,2.493321,103.809998,-52.920002,-7.35,1729472832154.0,0.0
0.497707,-7.936993,3.67059,110.949997,-37.450001,-7.49,1729472832173.0,0.0
-0.894916,-5.32403,4.622933,87.080002,-24.99,-6.72,1729472832193.0,0.0
-2.502892,-5.321638,4.096512,70.349998,-27.16,7.42,1729472832213.0,0.0
-2.904887,-6.534799,5.481956,44.240002,-26.880001,10.08,1729472832238.0,0.0
-3.541377,-7.405786,6.616155,-19.040001,-29.540001,1.12,1729472832254.0,0.0
-3.931407,-8.506484,5.9342,-63.84,-38.709999,-0.21,1729472832273.0,0.0
-2.902494,-9.12144,5.199604,-47.32,-36.68,2.17,1729472832294.0,0.0
-2.742175,-8.082954,2.667997,-2.94,-28.91,2.73,1729472832314.0,0.0
-2.084148,-6.867401,2.502892,77.980003,-12.67,21.280001,1729472832335.0,0.0
-2.995814,-6.941578,3.739982,131.600006,28.77,28.07,1729472832353.0,0.0
-4.744967,-8.10449,5.094319,101.5,41.23,16.870001,1729472832374.0,0.0
-5.163712,-7.633104,6.199803,53.060001,47.950001,3.22,1729472832393.0,0.0
-4.814359,-6.513263,5.460421,32.970001,52.150002,2.66,1729472832413.0,0.0
-5.419744,-4.141976,7.092326,38.639999,53.900002,18.059999,1729472832438.0,0.0
-6.221339,-7.190433,7.79103,44.59,30.24,26.74,1729472832453.0,0.0
-5.036892,-9.38465,6.063413,45.290001,25.76,14.0,1729472832473.0,0.0
-4.555934,-9.461221,3.517449,74.900002,34.93,5.67,1729472832493.0,0.0
-5.587241,-7.56132,4.663611,101.989998,62.650002,-3.71,1729472832513.0,0.0
-5.900701,-7.460821,6.436693,60.48,58.380001,-22.82,1729472832537.0,0.0
-4.0008,-7.829315,6.996613,26.74,41.09,-36.400002,1729472832553.0,0.0
-2.428715,-5.891129,8.882158,69.580002,39.970001,-32.060001,1729472832573.0,0.0
-3.412165,-4.582255,9.379865,91.279999,23.450001,-17.780001,1729472832595.0,0.0
-2.206182,-4.871787,7.171289,47.810001,-5.32,-13.86,1729472832614.0,0.0
-1.225125,-4.634897,5.347959,22.4,-11.13,-4.41,1729472832635.0,0.0
-2.081756,-4.249653,5.12782,30.309999,-5.53,9.38,1729472832654.0,0.0
-3.864408,-5.486742,6.06102,25.9,-0.7,16.59,1729472832673.0,0.0
-4.232903,-5.687739,5.615955,-7.42,8.12,14.14,1729472832693.0,0.0
-4.68754,-4.541577,5.769095,-55.299999,18.549999,8.47,1729472832715.0,0.0
-5.821737,-2.840281,6.436693,-116.900002,19.389999,11.41,1729472832735.0,0.0
-6.79083,-2.342573,7.32443,-161.699997,14.42,25.76,1729472832753.0,0.0
-6.65444,-4.61097,8.312666,-225.889999,4.83,29.75,1729472832773.0,0.0
-7.01097,-8.279166,7.546963,-365.329987,-17.92,-0.7,1729472832793.0,0.0
-6.314659,-9.269794,2.22054,-499.450012,-37.73,-28.91,1729472832813.0,0.0
-5.970093,-8.714661,-3.651447,-548.309998,-15.61,-34.02,1729472832835.0,0.0
-4.663611,-10.188639,-6.656832,-495.25,-5.67,-41.02,1729472832853.0,0.0
-2.782853,-13.387842,-6.412765,-343.559998,-5.67,-29.68,1729472832883.0,0.0
-1.682154,-13.069597,-3.122634,-157.639999,32.200001,-19.950001,1729472832895.0,0.0
-2.421536,-10.191031,-0.011964,-25.690001,54.670002,-22.469999,1729472832913.0,0.0
-3.524628,-7.946564,1.562513,27.719999,43.330002,-15.47,1729472832935.0,0.0
-4.055835,-7.908278,1.339981,37.450001,18.690001,-9.87,1729472832953.0,0.0
-4.161119,-8.255238,0.794417,51.869999,-3.29,-4.13,1729472832973.0,0.0
-4.005585,-9.322437,-0.289532,101.150002,-17.219999,4.13,1729472832994.0,0.0
-3.842873,-9.308081,0.002393,160.020004,-24.01,7.7,1729472833013.0,0.0
-4.364508,-9.135797,1.428515,196.350006,-13.51,10.78,1729472833036.0,0.0
-4.41715,-8.949157,2.098505,147.559998,-17.43,4.2,1729472833053.0,0.0
-3.902694,-10.229317,1.942972,92.889999,-36.470001,-4.62,1729472833073.0,0.0
-3.019742,-10.303494,1.351945,135.029999,-42.420002,1.89,1729472833093.0,0.0
-3.098706,-7.980063,1.514657,247.309998,-18.41,21.629999,1729472833113.0,0.0
-4.302295,-6.503692,1.842474,296.869995,8.96,30.24,1729472833136.0,0.0
-5.702096,-6.711867,3.842873,228.899994,20.16,25.129999,1729472833153.0,0.0
-6.166305,-7.673782,4.441079,84.489998,19.950001,7.28,1729472833174.0,0.0
-5.123034,-8.693125,3.014957,-52.360001,13.65,-8.47,1729472833201.0,0.0
-4.04387,-9.166903,2.136791,-124.32,15.54,-16.379999,1729472833213.0,0.0
-3.682554,-9.382257,3.519842,-123.199997,18.129999,-20.16,1729472833238.0,0.0
-3.974478,-8.530413,4.402793,-93.660004,15.89,-17.43,1729472833256.0,0.0
-3.366701,-8.025528,3.828516,-51.52,3.01,-12.81,1729472833274.0,0.0
-2.615355,-7.221539,3.589234,-16.940001,-7.49,-3.99,1729472833293.0,0.0
-2.931208,-6.690332,3.84048,-9.03,-12.81,3.5,1729472833313.0,0.0
-4.551149,-7.281359,4.242475,-37.240002,-17.290001,7.28,1729472833336.0,0.0
-5.008178,-8.68116,3.663411,-81.199997,-30.799999,2.8,1729472833354.0,0.0
-4.852644,-9.293723,3.156133,-76.510002,-31.92,1.68,1729472833374.0,0.0
-4.792823,-9.49472,2.840281,-79.169998,-28.84,-5.32,1729472833394.0,0.0
-4.814359,-9.463614,2.177469,-112.349998,-26.389999,-17.290001,1729472833413.0,0.0
-4.59422,-9.128618,-0.172283,-157.710007,-21.629999,-27.790001,1729472833436.0,0.0
-4.098906,-9.633504,-1.201197,-151.619995,-20.790001,-25.549999,1729472833454.0,0.0
-3.897908,-10.856236,-2.210968,-85.540001,-9.73,-17.43,1729472833474.0,0.0
-3.792624,-10.004392,-0.342174,0.84,10.5,-8.75,1729472833495.0,0.0
-3.507878,-7.310073,1.213161,38.849998,19.950001,-6.16,1729472833514.0,0.0
-3.615555,-6.664011,0.72024,12.6,18.48,1.96,1729472833535.0,0.0
-3.189633,-8.114061,-0.468993,-34.09,9.1,-0.91,1729472833554.0,0.0
-3.069991,-10.399208,-0.404387,-26.67,7.42,1.82,1729472833575.0,0.0
-3.23031,-10.983055,-0.095713,27.93,10.43,-1.4,1729472833596.0,0.0
-3.314059,-10.253245,0.102891,83.650002,14.35,-9.94,1729472833616.0,0.0
-3.014957,-9.425328,0.765703,98.699997,11.34,-13.72,1729472833638.0,0.0
-2.87378,-8.650054,1.70369,112.489998,11.62,-13.79,1729472833656.0,0.0
-2.895315,-7.676175,2.900101,123.550003,11.83,-10.57,1729472833678.0,0.0
-3.795017,-4.34058,7.793423,82.459999,17.08,-4.2,1729472833696.0,0.0
-5.651847,-6.034698,4.144369,-26.460001,-13.37,-3.01,1729472833716.0,0.0
-3.694518,-12.009576,1.153341,13.16,-47.389999,2.1,1729472833738.0,0.0
-2.682354,-11.531013,0.614955,129.990005,-9.66,11.69,1729472833756.0,0.0
-4.469792,-7.69771,1.866402,158.830002,30.24,8.47,1729472833775.0,0.0
-5.146961,-7.015756,3.507878,72.519997,32.48,1.82,1729472833797.0,0.0
-3.76391,-8.032705,4.165904,-21.98,14.42,-6.79,1729472833815.0,0.0
-3.26381,-9.224331,4.086941,-28.630001,2.24,-4.06,1729472833839.0,0.0
-3.754339,-9.152546,3.988836,21.07,0.7,-2.94,1729472833857.0,0.0
-4.084548,-6.54437,3.749553,7.0,3.57,-2.87,1729472833876.0,0.0
-3.601198,-5.319244,2.663212,-74.760002,-13.02,-1.75,1729472833895.0,0.0
-3.385844,-7.432107,1.397408,-122.779999,-22.610001,6.37,1729472833920.0,0.0
-4.323831,-10.454242,1.024128,-102.830002,-13.51,9.1,1729472833937.0,0.0
-4.295116,-9.580862,2.658426,-52.920002,1.82,7.56,1729472833956.0,0.0
-4.421937,-9.296116,4.26401,-69.790001,-4.48,-0.49,1729472833976.0,0.0
-4.754539,-9.997212,4.721039,-112.699997,-22.540001,-12.25,1729472833995.0,0.0
-4.297509,-11.179268,3.591627,-123.199997,-40.880001,-23.59,1729472834015.0,0.0
-3.165704,-11.353944,0.454636,-99.959999,-50.68,-32.200001,1729472834039.0,0.0
-2.979064,-10.179067,-1.899901,-39.549999,-37.52,-31.43,1729472834055.0,0.0
-3.768696,-9.556933,-1.141376,20.860001,-6.79,-21.700001,1729472834075.0,0.0
-3.328416,-7.712067,1.122234,24.85,11.62,-16.17,1729472834095.0,0.0
-3.215954,-7.039684,1.808974,-2.24,13.58,-9.1,1729472834115.0,0.0
-4.067799,-8.456236,0.68674,-9.17,12.88,-1.26,1729472834140.0,0.0
-4.240082,-9.075976,0.193819,34.23,15.54,7.84,1729472834157.0,0.0
-3.68734,-7.432107,1.048056,72.660004,24.290001,16.52,1729472834176.0,0.0
-3.445665,-6.735795,0.902094,43.68,23.1,19.32,1729472834255.0,0.0
-2.912065,-8.49452,0.827917,-0.98,14.07,19.530001,1729472834263.0,0.0
-2.550749,-10.399208,-0.057428,2.24,7.63,16.66,1729472834265.0,0.0
-2.344966,-10.021141,0.430708,44.240002,12.11,15.26,1729472834267.0,0.0
-3.440879,-8.671589,1.385444,51.240002,19.389999,12.32,1729472834275.0,0.0
-4.297509,-9.571291,1.428515,8.12,12.88,2.31,1729472834298.0,0.0
-4.541577,-10.121639,2.672783,14.84,13.440001,0.35,1729472834316.0,0.0
-4.285545,-9.753145,3.146562,6.58,10.01,-7.63,1729472834338.0,0.0
-3.938586,-10.80838,2.679961,1.33,2.17,-13.440001,1729472834356.0,0.0
-3.615555,-11.475977,2.852244,23.66,-0.49,-17.43,1729472834375.0,0.0
-3.469593,-10.375278,4.156333,45.220001,-0.28,-23.17,1729472834396.0,0.0
-2.550749,-8.154739,3.404987,50.610001,-7.42,-23.52,1729472834415.0,0.0
-1.990828,-7.173682,2.62732,61.950001,-9.94,-12.11,1729472834438.0,0.0
-3.239882,-6.702296,2.239682,62.720001,-3.92,-3.22,1729472834456.0,0.0
-4.938786,-6.678369,2.132005,46.200001,1.19,5.46,1729472834474.0,0.0
-5.927022,-6.843473,2.275574,14.84,4.83,11.13,1729472834494.0,0.0
-5.974878,-7.176075,2.318645,-24.290001,5.46,12.04,1729472834515.0,0.0
-5.249853,-7.91785,3.35713,-58.939999,2.66,9.94,1729472834538.0,0.0
-4.534399,-8.714661,4.003192,-92.959999,-5.81,7.91,1729472834555.0,0.0
-4.201797,-10.171888,3.09392,-125.160004,-19.74,-0.28,1729472834576.0,0.0
-3.302095,-12.076575,1.538585,-129.850006,-34.23,-10.15,1729472834596.0,0.0
-2.428715,-11.832507,-1.158126,-49.98,-35.07,-20.93,1729472834615.0,0.0
-3.079563,-9.745967,-1.249053,25.48,0.98,-19.25,1729472834636.0,0.0
-3.218346,-7.094719,1.363909,53.34,18.969999,-8.89,1729472834654.0,0.0
-3.172883,-5.709275,3.481557,19.74,18.129999,-2.38,1729472834675.0,0.0
-3.694518,-7.508677,3.134598,-28.280001,6.02,0.63,1729472834695.0,0.0
-3.570091,-10.004392,1.658226,-26.040001,-7.14,0.84,1729472834733.0,0.0
-3.206382,-10.554741,1.124627,26.530001,-7.28,6.09,1729472834738.0,0.0
-3.290131,-9.406186,1.210768,65.029999,-1.19,6.65,1729472834756.0,0.0
-3.498307,-9.174082,1.009771,64.610001,-1.54,4.34,1729472834775.0,0.0
-3.510271,-9.126225,1.129412,62.720001,0.49,2.59,1729472834794.0,0.0
-3.672983,-8.405986,2.021935,66.57,7.14,2.31,1729472834815.0,0.0
-4.156333,-7.836494,2.612962,57.75,7.0,1.96,1729472834836.0,0.0
-4.09412,-7.860423,2.340181,55.790001,3.01,8.89,1729472834854.0,0.0
-4.010371,-8.362915,1.952543,47.950001,7.21,11.55,1729472834875.0,0.0
-4.21376,-8.982656,2.435893,12.6,11.34,6.37,1729472834894.0,0.0
-4.194618,-9.609575,2.404787,-29.190001,12.46,-1.05,1729472834922.0,0.0
-3.503092,-11.152946,2.768496,-43.82,8.68,-7.42,1729472834938.0,0.0
-3.144169,-10.621738,2.952743,-11.48,7.7,-17.15,1729472834966.0,0.0
-2.524428,-9.243474,3.402594,18.200001,5.18,-18.690001,1729472835038.0,0.0
-1.727618,-8.039884,2.206182,51.939999,-1.68,-12.25,1729472835039.0,0.0
-2.22054,-6.644868,3.299703,81.760002,-0.91,-2.8,1729472835040.0,0.0
-3.696911,-5.919843,2.438286,75.110001,4.06,6.51,1729472835041.0,0.0
-4.599005,-6.209375,2.313859,31.5,8.89,13.58,1729472835054.0,0.0
-5.118248,-7.015756,1.861616,-33.32,14.14,12.95,1729472835078.0,0.0
-5.056034,-8.331808,2.952743,-86.029999,15.89,11.62,1729472835093.0,0.0
-4.453043,-9.308081,4.06062,-113.75,10.36,7.56,1729472835114.0,0.0
-4.398008,-9.743573,4.486543,-139.509995,1.89,-1.4,1729472835137.0,0.0
-4.022335,-10.928021,3.026921,-160.229996,-16.59,-13.58,1729472835154.0,0.0
-3.275774,-11.832507,1.095913,-148.399994,-30.24,-24.99,1729472835174.0,0.0
-2.900101,-11.574083,-0.880559,-80.010002,-28.559999,-29.75,1729472835194.0,0.0
-3.426522,-10.435099,-1.136591,14.28,-8.96,-22.610001,1729472835214.0,0.0
-3.407379,-8.477771,0.904487,64.540001,7.91,-16.17,1729472835242.0,0.0
-3.050849,-5.974878,2.598605,37.310001,10.15,-11.27,1729472835254.0,0.0
-3.268596,-7.62114,1.679761,-11.62,1.4,-3.64,1729472835274.0,0.0
-3.656233,-9.635897,1.131805,-11.62,-5.39,7.07,1729472835294.0,0.0
-3.917051,-9.422935,1.5003,27.440001,-1.05,14.77,1729472835314.0,0.0
-4.232903,-8.839087,1.696511,48.09,0.63,15.61,1729472835338.0,0.0
-4.359723,-9.064013,1.89033,48.720001,-5.95,17.639999,1729472835354.0,0.0
-4.096512,-9.327222,1.631905,44.59,-10.08,14.63,1729472835374.0,0.0
-3.677768,-8.772088,2.182254,49.0,-8.19,14.63,1729472835394.0,0.0
-3.699304,-7.523034,3.172883,47.040001,-7.56,16.59,1729472835414.0,0.0
-4.481757,-7.4345,3.735196,26.460001,-12.11,20.51,1729472835436.0,0.0
-4.936393,-9.693325,2.215754,22.120001,-25.969999,22.889999,1729472835454.0,0.0
-4.297509,-11.57169,0.653241,76.440002,-27.93,26.18,1729472835475.0,0.0
-4.010371,-11.313265,0.019143,139.509995,-0.28,24.219999,1729472835494.0,0.0
-4.378866,-8.829515,1.452443,131.949997,28.700001,8.19,1729472835514.0,0.0
-4.752146,-7.546963,3.797409,50.470001,33.950001,-3.78,1729472835539.0,0.0
-4.376472,-8.408379,3.943372,-37.170002,17.92,-11.13,1729472835554.0,0.0
-3.034099,-9.894321,3.668197,-29.75,-1.19,-9.38,1729472835574.0,0.0
-2.720639,-9.267403,3.438486,61.18,-1.82,-2.94,1729472835594.0,0.0
-3.818945,-6.78126,3.072384,149.380005,-0.07,7.49,1729472835614.0,0.0
-3.68734,-6.099305,5.201996,166.740005,-3.57,15.68,1729472835637.0,0.0
-3.876373,-4.893322,6.144768,89.739998,-4.62,12.81,1729472835654.0,0.0
-4.476971,-4.895715,6.228518,-11.34,-8.4,10.15,1729472835674.0,0.0
-4.41715,-7.566105,5.273781,-83.019997,-18.690001,5.04,1729472835694.0,0.0
-4.809574,-9.561719,5.594419,-100.309998,-24.5,-0.7,1729472835715.0,0.0
-5.041678,-10.181459,4.419543,-78.260002,-28.84,-7.21,1729472835738.0,0.0
-4.572684,-9.410972,4.563113,-44.380001,-26.460001,-11.55,1729472835754.0,0.0
-4.833502,-7.977671,4.204189,-47.25,-22.960001,-17.780001,1729472835774.0,0.0
-3.869194,-7.776673,2.761317,-57.400002,-26.040001,-18.620001,1729472835794.0,0.0
-2.98385,-7.642675,2.979064,-29.120001,-22.4,-9.59,1729472835814.0,0.0
-3.816552,-7.458428,2.766103,4.06,-11.83,-1.33,1729472835839.0,0.0
-4.677969,-7.743174,2.821138,14.35,-5.46,2.38,1729472835854.0,0.0
-4.668397,-7.810174,2.773281,17.08,0.42,4.13,1729472835874.0,0.0
-4.991428,-7.750352,3.206382,16.24,6.79,3.15,1729472835894.0,0.0
-5.568098,-6.486942,3.28056,15.82,11.76,3.71,1729472835914.0,0.0
-5.871986,-7.350751,4.656433,-10.08,14.77,4.9,1729472835936.0,0.0
-4.613362,-11.270195,2.885744,-81.760002,-1.82,-5.67,1729472835954.0,0.0
-2.045863,-11.437693,3.146562,-72.029999,-10.43,-23.379999,1729472835974.0,0.0
-0.957129,-8.79123,4.029513,-16.1,-6.65,-21.0,1729472835994.0,0.0
-1.828116,-7.695317,4.015156,17.43,-11.83,-17.99,1729472836014.0,0.0
-2.701497,-7.606783,2.411965,22.120001,-15.12,-13.58,1729472836036.0,0.0
-2.143969,-7.389036,1.61037,55.580002,-11.27,-1.75,1729472836054.0,0.0
-2.467,-6.123233,1.605584,113.400002,5.39,14.63,1729472836074.0,0.0
-4.347759,-6.62094,2.277967,144.130005,23.940001,27.09,1729472836095.0,0.0
-5.596812,-8.573483,3.318845,142.380005,30.940001,26.110001,1729472836113.0,0.0
-4.448257,-7.056434,6.290731,120.68,41.23,17.639999,1729472836137.0,0.0
-4.029513,-5.125426,7.819745,25.969999,44.029999,4.83,1729472836154.0,0.0
-3.515057,-7.657032,6.702296,-96.809998,11.69,-7.49,1729472836173.0,0.0
-3.503092,-9.631111,5.319244,-133.910004,-16.1,-9.94,1729472836194.0,0.0
-4.890929,-10.119246,5.254639,-55.09,-20.16,-0.91,1729472836214.0,0.0
-5.273781,-6.675975,6.331409,-2.31,-19.879999,-2.94,1729472836238.0,0.0
-5.493921,-5.438886,6.563512,-31.5,-24.15,-0.7,1729472836255.0,0.0
-4.61097,-6.429514,5.62074,-134.610001,-35.279999,-11.69,1729472836274.0,0.0
-2.624927,-11.897114,1.241875,-196.979996,-45.5,-23.17,1729472836294.0,0.0
-2.261217,-13.631909,0.521635,-83.090004,-35.84,-25.969999,1729472836314.0,0.0
-3.199204,-10.485349,2.021935,52.220001,-0.56,-19.809999,1729472836336.0,0.0
-3.68734,-6.9009,3.883551,76.790001,9.59,-20.65,1729472836354.0,0.0
-3.809374,-7.034898,3.395415,31.92,-6.37,-21.77,1729472836374.0,0.0
-4.185047,-8.987441,2.782853,64.540001,-24.43,-12.74,1729472836394.0,0.0
-4.354938,-10.174281,2.711068,185.430008,-15.96,4.9,1729472836413.0,0.0
-4.304688,-7.233503,1.447658,248.430008,12.39,1.26,1729472836436.0,0.0
-4.649254,-3.799802,2.510071,211.399994,41.720001,-1.12,1729472836464.0,0.0
-5.355137,-3.376273,3.759124,100.870003,56.560001,-5.04,1729472836473.0,0.0
-5.075177,-5.848059,4.749753,-21.700001,54.040001,-10.71,1729472836494.0,0.0
-3.395415,-8.898908,5.56092,-74.199997,42.700001,-14.14,1729472836513.0,0.0
-2.35693,-9.38465,6.183054,-47.529999,35.84,-9.1,1729472836537.0,0.0
-2.691926,-7.826923,5.716454,-11.69,28.630001,-6.44,1729472836554.0,0.0
-2.845066,-6.577869,6.297909,-10.57,9.73,-5.04,1729472836574.0,0.0
-2.804388,-6.927221,4.725825,-6.79,-0.91,-1.47,1729472836594.0,0.0
-3.479164,-6.498906,4.917251,0.49,1.12,2.87,1729472836614.0,0.0
-4.156333,-5.821737,6.618547,-26.110001,3.71,3.78,1729472836635.0,0.0
-4.352544,-6.417551,7.879565,-66.849998,-5.11,2.66,1729472836654.0,0.0
-5.008178,-8.616554,7.712067,-109.129997,-24.360001,-0.07,1729472836673.0,0.0
-4.426722,-9.114261,5.948557,-141.119995,-37.59,-8.05,1729472836693.0,0.0
-3.756732,-9.908678,3.74716,-159.600006,-42.209999,-15.33,1729472836714.0,0.0
-3.625126,-12.119646,1.165305,-135.869995,-40.389999,-22.26,1729472836736.0,0.0
-2.270789,-12.009576,1.040878,-31.08,-26.809999,-24.57,1729472836754.0,0.0
-2.572284,-8.860621,2.316252,79.800003,3.43,-15.54,1729472836773.0,0.0
-3.225525,-6.326623,2.85703,113.889999,16.450001,-5.46,1729472836794.0,0.0
-4.206582,-6.128019,3.014957,113.400002,21.91,0.42,1729472836813.0,0.0
-5.754738,-5.986843,2.328217,119.139999,32.900002,10.99,1729472836835.0,0.0
-6.015556,-6.766902,1.957329,90.160004,49.139999,7.35,1729472836854.0,0.0
-4.462614,-8.525627,4.125226,5.81,49.07,-6.65,1729472836873.0,0.0
-2.737389,-10.664811,5.197211,-43.959999,38.43,-13.3,1729472836894.0,0.0
-1.069592,-11.078769,5.548956,-18.41,23.940001,-19.040001,1729472836913.0,0.0
-1.90708,-9.126225,5.572884,45.290001,14.42,-16.940001,1729472836937.0,0.0
-4.165904,-6.829116,4.862216,81.129997,5.18,-16.52,1729472836953.0,0.0
-3.790231,-6.273981,4.163511,32.549999,-2.94,-20.790001,1729472836973.0,0.0
-3.081956,-6.491727,3.579663,-2.94,-0.42,-19.18,1729472836993.0,0.0
-3.067599,-7.23111,3.945765,-6.02,6.58,-12.88,1729472837013.0,0.0
-3.330809,-6.991827,4.651647,12.39,11.62,-3.08,1729472837036.0,0.0
-3.893122,-6.814759,5.711668,17.780001,10.71,2.73,1729472837054.0,0.0
-4.536791,-6.575477,5.986843,2.38,3.29,6.02,1729472837073.0,0.0
-4.878965,-6.431907,6.245267,-13.58,-4.41,8.75,1729472837093.0,0.0
-5.216353,-6.465407,6.668797,-42.91,-7.42,10.92,1729472837113.0,0.0
-4.709075,-5.850451,7.779066,-121.870003,-13.23,5.81,1729472837135.0,0.0
-3.728018,-7.290931,5.721239,-230.580002,-32.34,-5.32,1729472837153.0,0.0
-4.065405,-11.274981,0.366102,-267.049988,-50.540001,-18.48,1729472837173.0,0.0
-4.027121,-14.550755,-1.361516,-165.830002,-37.029999,-23.17,1729472837193.0,0.0
-2.907279,-10.387242,0.827917,-42.700001,-0.91,-19.18,1729472837214.0,0.0
-3.172883,-6.297909,2.730211,2.52,13.58,-11.2,1729472837239.0,0.0
-3.448057,-6.379266,2.830709,-30.870001,1.89,-9.1,1729472837253.0,0.0
-3.773481,-10.126426,1.612763,-21.42,-12.88,-4.97,1729472837274.0,0.0
-3.716053,-10.581062,1.550549,71.889999,-14.28,1.12,1729472837293.0,0.0
-3.505485,-8.020741,3.156133,172.339996,-3.92,2.66,1729472837313.0,0.0
-3.572484,-6.881758,3.397808,144.970001,-7.91,-1.4,1729472837335.0,0.0
-3.529413,-8.059027,2.529213,107.870003,-13.93,-4.76,1729472837353.0,0.0
-2.74696,-8.453842,3.062813,105.489998,-2.45,-5.11,1729472837373.0,0.0
-2.457429,-6.884151,4.376472,111.860001,15.05,-1.96,1729472837394.0,0.0
-4.007978,-6.250053,5.761917,86.870003,21.35,2.31,1729472837412.0,0.0
-4.744967,-7.290931,5.283352,52.43,16.309999,2.66,1729472837435.0,0.0
-3.381058,-7.738388,4.807181,28.84,19.6,-1.26,1729472837453.0,0.0
-2.76371,-7.908278,5.099105,15.75,24.780001,-3.5,1729472837473.0,0.0
-2.902494,-7.903493,5.443672,9.31,28.42,-1.61,1729472837493.0,0.0
-3.134598,-8.487342,5.685347,-7.07,26.950001,-5.18,1729472837513.0,0.0
-2.825923,-8.449057,5.254639,-6.86,18.690001,-10.15,1729472837535.0,0.0
-2.708675,-8.003991,5.381458,17.57,18.549999,-8.33,1729472837553.0,0.0
-2.596212,-6.970293,5.601598,34.790001,15.61,-5.18,1729472837573.0,0.0
-3.146562,-6.221339,5.326423,25.690001,8.96,-1.96,1729472837594.0,0.0
-3.842873,-6.228518,5.032106,1.96,5.32,2.24,1729472837613.0,0.0
-4.74736,-6.795617,4.421937,-22.75,3.01,4.13,1729472837636.0,0.0
-4.534399,-6.896115,5.020142,-39.689999,3.64,6.44,1729472837653.0,0.0
-4.168297,-6.269196,5.833702,-71.050003,5.67,5.81,1729472837674.0,0.0
-4.369294,-5.924629,6.065805,-145.25,-1.33,3.22,1729472837693.0,0.0
-4.893322,-7.925028,5.422136,-223.229996,-21.77,-3.5,1729472837715.0,0.0
-5.405386,-10.447062,2.916851,-266.839996,-40.18,-13.72,1729472837735.0,0.0
-4.699504,-13.162917,0.492921,-216.369995,-50.259998,-20.370001,1729472837763.0,0.0
-3.988836,-12.669996,0.019143,-103.459999,-31.219999,-18.9,1729472837775.0,0.0
-4.675575,-11.306087,0.275175,-5.74,-0.84,-20.93,1729472837793.0,0.0
-4.993821,-9.765109,0.851845,32.619999,13.86,-27.09,1729472837813.0,0.0
-4.814359,-8.853443,0.428315,36.400002,20.790001,-28.559999,1729472837835.0,0.0
-3.981657,-9.549755,-0.212961,46.27,22.540001,-28.49,1729472837852.0,0.0
-3.261417,-11.076375,1.043271,89.669998,20.02,-28.559999,1729472837873.0,0.0
-1.588834,-9.609575,2.37368,171.5,28.77,-26.6,1729472837893.0,0.0
-1.962115,-8.341379,4.443472,238.630005,57.260002,-21.139999,1729472837913.0,0.0
-2.292324,-7.166504,3.905087,236.529999,52.849998,-32.830002,1729472837935.0,0.0
-1.765903,-8.408379,3.538985,236.320007,32.970001,-37.099998,1729472837953.0,0.0
0.198604,-5.04407,6.585048,270.130005,45.920002,-27.58,1729472837972.0,0.0
-0.157926,-3.328416,7.733603,244.649994,56.0,-28.42,1729472837993.0,0.0
0.291924,-2.825923,6.63769,198.029999,29.190001,-20.23,1729472838013.0,0.0
1.270589,-2.029114,5.510671,185.850006,30.59,-7.07,1729472838034.0,0.0
0.184247,-0.160319,6.695118,168.699997,43.400002,7.91,1729472838053.0,0.0
-2.392823,-0.055035,9.128618,91.980003,44.450001,23.66,1729472838072.0,0.0
-5.319244,-2.804388,12.406786,-31.710001,28.77,27.370001,1729472838093.0,0.0
-7.623533,-5.529813,12.751352,-139.789993,-13.51,21.629999,1729472838113.0,0.0
-7.082755,-7.831708,11.430513,-180.880005,-49.700001,21.559999,1729472838135.0,0.0
-5.041678,-7.030113,5.99402,-224.490005,-53.900002,5.81,1729472838152.0,0.0
-5.534599,-7.305287,1.816152,-243.040009,-38.639999,-11.9,1729472838173.0,0.0
-6.518049,-7.776673,4.197011,-239.610001,-12.74,-30.799999,1729472838193.0,0.0
-4.766503,-7.405786,4.570292,-234.360001,13.72,-23.66,1729472838212.0,0.0
-4.826324,-5.508278,5.424529,-255.639999,28.07,-38.150002,1729472838238.0,0.0
-4.551149,-5.115855,7.539784,-259.980011,24.219999,-26.460001,1729472838256.0,0.0
-3.428915,-3.797409,7.580462,-308.769989,14.98,-7.07,1729472838273.0,0.0
-0.758525,-0.880559,-3.414558,-372.26001,-22.610001,12.11,1729472838292.0,0.0
-0.756132,-9.674182,-10.073784,-392.070007,-25.83,20.02,1729472838312.0,0.0
-2.945565,-16.197016,-14.541183,-322.839996,16.870001,25.27,1729472838334.0,0.0
-4.85743,-21.190838,-13.03849,-77.279999,67.480003,13.86,1729472838352.0,0.0
-3.993621,-15.914663,-6.699903,264.040009,45.849998,36.540001,1729472838372.0,0.0
-2.892922,-6.410372,-1.404587,533.119995,46.130001,67.690002,1729472838392.0,0.0
-3.400201,-2.455036,5.319244,590.52002,43.889999,37.099998,1729472838412.0,0.0
-3.881158,0.485743,5.393422,440.860016,42.98,7.07,1729472838435.0,0.0
-5.87438,-1.947758,7.862815,243.529999,8.12,20.719999,1729472838452.0,0.0
-5.460421,-6.364908,8.063812,76.580002,-56.209999,5.39,1729472838472.0,0.0
-3.476771,-9.250652,6.69751,27.02,-90.370003,6.3,1729472838491.0,0.0
-2.227718,-10.080962,5.60399,98.980003,-64.260002,15.75,1729472838512.0,0.0
-2.976671,-9.028119,5.393422,205.309998,-36.119999,13.51,1729472838535.0,0.0
-3.26381,-6.046663,7.424929,263.970001,-21.700001,19.110001,1729472838552.0,0.0
-3.689733,-2.955136,7.896315,226.660004,-7.14,17.5,1729472838572.0,0.0
-3.455236,-3.955336,7.15454,142.309998,-13.23,16.17,1729472838594.0,0.0
-3.531806,-5.548956,6.814759,73.779999,-10.36,8.19,1729472838614.0,0.0
-4.027121,-5.15414,7.980063,44.52,3.29,1.75,1729472838635.0,0.0
-4.096512,-4.625326,8.865408,3.08,10.85,-7.91,1729472838652.0,0.0
-3.775874,-4.426722,8.41795,-66.57,2.8,-11.62,1729472838671.0,0.0
-3.168097,-4.768896,6.429514,-127.260002,0.56,-15.47,1729472838692.0,0.0
-3.505485,-5.946165,4.838287,-174.089996,3.15,-14.98,1729472838712.0,0.0
-3.98405,-7.661818,5.690133,-200.059998,17.360001,-22.540001,1729472838734.0,0.0
-5.07757,-7.733603,7.310073,-231.210007,18.48,-29.75,1729472838752.0,0.0
-5.685347,-6.826723,8.693125,-252.839996,2.45,-31.57,1729472838772.0,0.0
-4.567898,-7.458428,7.111469,-261.660004,-18.129999,-35.139999,1729472838792.0,0.0
-2.62732,-7.673782,6.295516,-245.979996,-36.189999,-28.700001,1729472838812.0,0.0
-1.071985,-5.551349,5.245068,-208.25,-28.0,-12.67,1729472838834.0,0.0
-1.270589,-2.148755,2.921637,-227.919998,-13.51,2.38,1729472838851.0,0.0
-3.022135,-3.694518,-2.787638,-284.549988,-5.46,11.69,1729472838872.0,0.0
-3.706482,-9.762716,-7.855636,-322.48999,9.87,-13.3,1729472838893.0,0.0
-3.287738,-13.799409,-10.461421,-290.640015,15.26,-13.09,1729472838912.0,0.0
-3.464807,-15.594026,-10.700702,-96.389999,43.75,10.36,1729472838934.0,0.0
-2.821138,-13.718053,-6.80758,137.970001,47.670002,21.0,1729472838952.0,0.0
-1.68694,-9.059227,-1.150948,316.959991,46.970001,40.25,1729472838982.0,0.0
-2.581856,-5.924629,2.706282,398.579987,59.150002,17.710001,1729472838992.0,0.0
-4.656433,-3.127419,6.386444,396.549988,43.049999,23.73,1729472839012.0,0.0
-5.833702,-2.163112,8.84148,333.410004,1.54,36.330002,1729472839033.0,0.0
-5.180461,-4.192225,11.219944,202.930008,-34.439999,13.79,1729472839051.0,0.0
-4.362115,-7.896315,9.262616,41.439999,-69.720001,-3.36,1729472839072.0,0.0
-3.304488,-10.277173,5.292924,-9.31,-92.330002,-10.64,1729472839092.0,0.0
-2.268396,-12.641282,4.797609,104.230003,-82.32,3.5,1729472839112.0,0.0
-0.940379,-8.161918,5.735595,269.850006,-29.610001,0.91,1729472839134.0,0.0
-2.742175,-1.555335,6.503692,336.910004,17.01,-6.44,1729472839151.0,0.0
-3.184847,1.215554,5.898308,246.610001,9.59,5.11,1729472839178.0,0.0
-2.739782,-2.043471,7.099504,132.509995,10.64,12.32,1729472839257.0,0.0
-4.194618,-5.702096,9.095119,55.510002,16.66,10.85,1729472839259.0,0.0
-4.436293,-4.709075,8.908479,12.88,23.66,-0.77,1729472839261.0,0.0
-3.314059,-3.907479,8.961121,-47.110001,19.040001,-3.64,1729472839264.0,0.0
-3.567699,-3.957729,6.565905,-127.190002,12.46,-5.46,1729472839271.0,0.0
-5.405386,-5.233103,4.795217,-196.559998,21.139999,-6.3,1729472839292.0,0.0
-5.493921,-7.800602,7.429714,-246.330002,23.52,-11.06,1729472839311.0,0.0
-5.431707,-6.960721,8.970692,-322.559998,-7.49,-23.030001,1729472839335.0,0.0
-4.890929,-6.661618,8.408379,-326.059998,-31.57,-18.76,1729472839351.0,0.0
-3.57727,-6.82433,5.245068,-301.910004,-40.32,-18.549999,1729472839371.0,0.0
-1.246661,-5.661418,2.533999,-251.020004,-38.290001,-10.15,1729472839391.0,0.0
-1.237089,-3.704089,-0.79681,-240.940002,-18.200001,17.710001,1729472839411.0,0.0
-2.895315,-7.190433,-3.742374,-254.940002,4.34,15.96,1729472839433.0,0.0
-4.476971,-11.289338,-7.219146,-286.369995,20.51,-9.17,1729472839451.0,0.0
-5.47717,-16.02952,-8.724231,-198.800003,41.720001,-10.22,1729472839471.0,0.0
-5.075177,-17.326429,-6.814759,2.1,27.93,-4.13,1729472839491.0,0.0
-1.663012,-12.495319,-4.694718,251.089996,14.63,18.48,1729472839511.0,0.0
-0.957129,-8.015956,-1.734797,422.869995,55.510002,29.049999,1729472839535.0,0.0
-2.048256,-4.575077,3.251846,489.019989,60.830002,10.36,1729472839552.0,0.0
-3.129812,-0.378066,7.692925,478.170013,31.57,12.32,1729472839571.0,0.0
-4.974678,0.777667,12.212967,413.48999,18.83,34.16,1729472839591.0,0.0
-5.675776,-2.258825,10.889735,281.679993,-21.42,32.41,1729472839612.0,0.0
-1.849652,-7.006185,7.496714,176.75,-58.170002,26.74,1729472839633.0,0.0
-2.495714,-5.096712,8.195417,131.529999,-8.12,27.51,1729472839651.0,0.0
-4.462614,-2.833102,8.997013,58.170002,2.45,16.59,1729472839672.0,0.0
-4.931608,-4.895715,9.040084,-25.620001,-9.17,9.45,1729472839691.0,0.0
-4.618148,-5.407779,8.91805,-56.209999,-10.5,2.87,1729472839711.0,0.0
-4.091727,-5.106283,9.298509,-69.860001,-7.63,-3.57,1729472839733.0,0.0
-4.04387,-5.800202,7.910671,-112.629997,-13.37,-6.51,1729472839751.0,0.0
-5.091926,-6.199803,5.079963,-176.889999,-7.77,-14.98,1729472839773.0,0.0
-5.831308,-7.733603,6.652047,-222.110001,3.5,-26.040001,1729472839792.0,0.0
-5.094319,-6.271588,8.867801,-268.100006,-17.92,-31.15,1729472839811.0,0.0
-3.617948,-5.472386,7.798209,-257.390015,-31.01,-23.030001,1729472839833.0,0.0
-1.902294,-5.568098,6.022735,-228.619995,-44.59,-15.75,1729472839851.0,0.0
0.040678,-3.976871,2.431108,-203.630005,-42.98,1.47,1729472839871.0,0.0
-1.229911,-2.134398,-0.150748,-228.899994,-23.24,26.460001,1729472839892.0,0.0
-3.644269,-3.866802,-2.134398,-275.309998,6.51,12.81,1729472839911.0,0.0
-5.355137,-7.783852,-4.386044,-327.950012,19.6,0.49,1729472839935.0,0.0
-4.802395,-12.825529,-6.738188,-300.649994,10.08,9.45,1729472839952.0,0.0
-4.48415,-16.323835,-7.853244,-173.180008,21.98,18.83,1729472839971.0,0.0
-3.790231,-15.694524,-6.448657,107.590004,35.77,2.73,1729472839992.0,0.0
-2.87378,-11.413764,-4.488935,280.279999,30.59,10.92,1729472840012.0,0.0
-2.620141,-8.279166,-1.100698,409.709991,25.76,10.85,1729472840034.0,0.0
-2.275574,-3.962514,2.65364,479.850006,23.030001,3.57,1729472840084.0,0.0
-3.428915,-1.308874,6.881758,489.369995,32.759998,13.09,1729472840096.0,0.0
-5.02732,1.428515,10.705488,408.940002,26.32,14.91,1729472840101.0,0.0
-5.735595,-0.236889,11.753544,250.389999,1.4,20.370001,1729472840111.0,0.0
-4.579862,-5.625526,9.769895,79.519997,-41.369999,-0.84,1729472840160.0,0.0
-3.091527,-9.492328,7.080362,34.439999,-65.590004,3.71,1729472840167.0,0.0
-3.0006,-9.415757,6.664011,83.650002,-31.5,14.98,1729472840170.0,0.0
-3.345166,-5.862415,8.408379,113.82,4.13,-1.12,1729472840196.0,0.0
-4.118048,-3.952943,9.439686,58.240002,8.12,-9.31,1729472840211.0,0.0
-4.055835,-3.921836,8.355737,-11.27,-7.7,-8.47,1729472840235.0,0.0
-3.964907,-4.476971,9.487542,-46.27,-7.77,-8.82,1729472840250.0,0.0
-3.905087,-4.960321,9.253045,-78.540001,-15.190001,-7.63,1729472840270.0,0.0
-4.208975,-5.608776,6.448657,-103.459999,-18.83,-6.93,1729472840291.0,0.0
-3.704089,-6.719046,6.4678,-112.840004,-3.15,-10.57,1729472840311.0,0.0
-3.512664,-4.685147,7.389036,-211.259995,8.75,-30.59,1729472840333.0,0.0
-2.962314,-5.412565,6.396015,-238.630005,-13.93,-23.799999,1729472840351.0,0.0
-2.0004,-7.45125,5.757132,-220.570007,-26.25,-12.39,1729472840371.0,0.0
-0.952343,-7.008578,4.15394,-198.520004,-16.17,-5.81,1729472840391.0,0.0
-1.572084,-4.141976,3.649055,-182.139999,-8.47,10.15,1729472840411.0,0.0
-3.208775,-3.050849,1.131805,-198.729996,0.84,19.879999,1729472840440.0,0.0
-3.818945,-5.429315,-1.639083,-251.720001,11.62,12.11,1729472840451.0,0.0
-3.969693,-10.619347,-5.285746,-288.959991,4.48,8.82,1729472840471.0,0.0
-4.905287,-15.47917,-8.279166,-238.419998,22.610001,0.84,1729472840491.0,0.0
-5.694918,-17.395821,-7.293324,-61.950001,33.040001,-5.25,1729472840511.0,0.0
-3.168097,-13.866407,-5.166104,164.570007,19.530001,11.13,1729472840534.0,0.0
-1.270589,-9.150154,-3.180061,339.640015,34.860001,26.040001,1729472840551.0,0.0
-1.17009,-6.022735,1.849652,429.940002,51.52,15.4,1729472840571.0,0.0
-1.98365,-2.402394,7.180861,463.959991,39.619999,5.81,1729472840591.0,0.0
-4.053442,0.734596,11.143374,406.070007,36.470001,16.450001,1729472840611.0,0.0
-5.766702,-1.11027,10.990234,282.170013,10.78,29.26,1729472840633.0,0.0
-2.751746,-7.228717,7.913064,162.330002,-39.130001,12.04,1729472840652.0,0.0
-2.402394,-6.218946,8.097312,131.110001,-6.72,22.68,1729472840671.0,0.0
-4.515256,-3.632305,8.961121,86.940002,10.5,13.16,1729472840691.0,0.0
-5.161318,-4.821537,9.19801,-11.69,-7.35,5.67,1729472840711.0,0.0
-4.510471,-6.07777,9.389436,-56.07,-15.68,-0.07,1729472840733.0,0.0
-4.465007,-5.498707,10.037891,-63.700001,-12.11,-5.18,1729472840750.0,0.0
-4.855037,-4.828716,7.566105,-88.970001,-17.01,-9.94,1729472840771.0,0.0
-6.180661,-6.15434,5.970093,-137.059998,-10.92,-11.69,1729472840791.0,0.0
-4.919643,-5.922236,6.850651,-202.789993,4.27,-21.559999,1729472840811.0,0.0
-4.601398,-6.116055,8.776874,-272.019989,-16.450001,-33.040001,1729472840833.0,0.0
-3.235096,-6.522834,7.345965,-283.920013,-44.029999,-27.16,1729472840851.0,0.0
-1.339981,-5.862415,4.15394,-250.880005,-36.959999,-12.46,1729472840879.0,0.0
-0.844666,-4.902894,1.289732,-212.729996,-28.139999,3.92,1729472840891.0,0.0
-2.581856,-4.673182,-0.275175,-213.570007,-10.85,14.07,1729472840912.0,0.0
-4.39083,-6.589834,-1.959722,-236.809998,12.67,-0.07,1729472840943.0,0.0
-4.804788,-8.35813,-3.756732,-245.350006,17.92,-4.34,1729472840951.0,0.0
-3.9673,-11.162518,-4.847858,-216.369995,17.08,11.97,1729472840972.0,0.0
-3.869194,-14.256437,-4.831109,-87.5,21.98,20.790001,1729472840991.0,0.0
-3.771089,-16.843079,-6.575477,16.52,-0.56,-0.28,1729472841012.0,0.0
-3.18724,-20.291138,-7.886744,247.660004,-12.32,-11.27,1729472841033.0,0.0
-0.512064,-10.820344,-4.632504,525.140015,21.139999,-9.38,1729472841052.0,0.0
-1.799403,-1.107877,1.294517,686.070007,110.949997,-14.84,1729472841072.0,0.0
-4.555934,9.032906,9.516255,586.179993,117.18,-14.49,1729472841091.0,0.0
-7.633104,6.929615,12.818351,229.389999,37.240002,11.97,1729472841112.0,0.0
-5.809773,-2.995814,10.478169,-15.47,-37.66,-38.290001,1729472841136.0,0.0
-1.572084,-7.896315,7.956135,15.4,-65.800003,9.38,1729472841152.0,0.0
-1.749153,-4.792823,8.341379,135.029999,4.9,53.130001,1729472841172.0,0.0
-3.304488,-4.192225,8.748159,162.960007,3.43,30.66,1729472841192.0,0.0
-3.629912,-5.201996,10.159925,123.270004,-6.23,41.580002,1729472841212.0,0.0
-3.122634,-5.271388,11.497513,60.970001,-7.42,35.420002,1729472841238.0,0.0
-2.689533,-5.848059,8.650054,-39.830002,-24.710001,20.65,1729472841252.0,0.0
-4.192225,-7.338787,6.415157,-156.449997,-27.790001,-1.61,1729472841272.0,0.0
-6.565905,-9.209974,5.876772,-181.440002,-8.4,-17.15,1729472841292.0,0.0
-6.814759,-7.161718,7.281359,-244.300003,-9.31,-37.310001,1729472841312.0,0.0
-5.532206,-5.484349,10.758131,-271.529999,-19.530001,-29.049999,1729472841334.0,0.0
-4.211368,-2.266003,9.109475,-300.160004,-47.18,-23.799999,1729472841353.0,0.0
-1.964507,-0.916451,3.797409,-292.390015,-69.160004,-6.44,1729472841372.0,0.0
-1.744368,-1.196411,-0.736989,-302.75,-55.299999,16.030001,1729472841392.0,0.0
-3.251846,-2.541178,-2.811567,-330.959991,-27.23,13.79,1729472841413.0,0.0
-3.766303,-5.855237,-5.505885,-372.049988,-1.68,6.93,1729472841434.0,0.0
-4.488935,-10.497313,-7.513463,-369.320007,11.83,29.4,1729472841452.0,0.0
-5.230711,-12.976277,-7.499106,-283.149994,32.060001,45.080002,1729472841472.0,0.0
-4.792823,-14.096118,-5.661418,-140.350006,28.210001,48.439999,1729472841492.0,0.0
-4.072584,-12.818351,-1.749153,-28.49,-3.57,32.41,1729472841514.0,0.0
-3.696911,-11.667403,-0.519243,7.98,-7.77,25.059999,1729472841536.0,0.0
-3.790231,-11.059627,-0.696311,-18.76,3.92,4.83,1729472841552.0,0.0
-4.505685,-10.502099,-0.739382,-32.27,-0.21,-12.95,1729472841572.0,0.0
-4.311867,-9.415757,-0.397209,-13.58,-15.68,-19.879999,1729472841596.0,0.0
-3.76391,-8.386844,-1.028914,-24.43,-38.360001,-26.18,1729472841613.0,0.0
-3.316452,-7.142576,-1.294517,-45.150002,-39.060001,-27.09,1729472841636.0,0.0
-3.562913,-6.838687,1.160519,-75.389999,-45.080002,-25.9,1729472841652.0,0.0
-3.314059,-8.606983,-4.101298,-121.169998,-51.869999,-26.880001,1729472841673.0,0.0
-2.725425,-7.518249,-2.400001,-175.279999,-47.459999,-24.92,1729472841692.0,0.0
-2.598605,-5.510671,-2.931208,-210.279999,-26.950001,-23.870001,1729472841712.0,0.0
-3.751946,-6.197411,-2.54357,-224.279999,-30.17,-1.89,1729472841734.0,0.0
-3.488736,-9.533006,-8.173882,-227.5,-36.959999,-21.77,1729472841752.0,0.0
-2.79721,-8.26481,-7.771888,-202.930008,-25.41,-22.190001,1729472841773.0,0.0
-1.976472,-5.376673,-7.183254,-183.75,-19.950001,-22.540001,1729472841792.0,0.0
-2.163112,-5.618347,-8.020741,-198.729996,-12.6,-15.82,1729472841812.0,0.0
-2.258825,-7.506285,-8.305488,-199.850006,-4.76,-16.66,1729472841834.0,0.0
-2.146362,-7.846066,-8.470592,-139.860001,-2.59,-10.99,1729472841851.0,0.0
-2.361716,-7.156933,-8.348558,-73.639999,2.1,-4.55,1729472841872.0,0.0
-2.907279,-6.45105,-7.384251,-46.48,7.42,-1.33,1729472841892.0,0.0
-3.306881,-6.757331,-6.975078,-38.43,5.46,-0.07,1729472841911.0,0.0
-3.67059,-7.13779,-7.623533,-40.389999,2.73,-4.2,1729472841934.0,0.0
-4.536791,-7.089933,-2.861816,-62.09,3.08,-12.88,1729472841952.0,0.0
-5.802595,-8.145168,-5.142176,-123.129997,-9.94,-34.93,1729472841971.0,0.0
-3.393023,-8.839087,-8.195417,-134.960007,-30.24,-48.09,1729472841992.0,0.0
