acc_x,acc_y,acc_z,gyr_x,gyr_y,gyr_z,timestamp,label
-0.808774,2.091327,-11.31805,-53.619999,-84.910004,-11.13,1729421923345.0,0.0
-1.045663,-2.09372,-13.591233,-113.82,-50.75,-3.29,1729421923354.0,0.0
-2.105684,-4.957928,-12.071791,-87.989998,20.51,-4.62,1729421923375.0,0.0
-4.23051,-2.833102,-10.179067,-3.08,65.940002,1.75,1729421923396.0,0.0
-6.163911,-1.48355,-8.891729,47.950001,65.590004,12.6,1729421923414.0,0.0
-6.817152,-2.208575,-10.001998,10.43,44.029999,20.51,1729421923434.0,0.0
-6.240481,-4.395615,-10.679168,-15.26,7.77,18.9,1729421923455.0,0.0
-4.364508,-5.139783,-9.032906,7.63,-5.53,11.97,1729421923475.0,0.0
-3.335595,-3.940979,-7.944171,83.790001,-14.49,-12.18,1729421923495.0,0.0
-2.935993,-1.658226,-6.185446,98.139999,-18.200001,-24.639999,1729421923515.0,0.0
-2.813959,-0.385244,-6.680761,59.639999,-19.6,-38.009998,1729421923534.0,0.0
-2.931208,-1.993221,-8.379664,-0.91,-24.360001,-47.25,1729421923554.0,0.0
-2.155933,-2.122434,-8.310273,-40.25,-35.560001,-58.380001,1729421923574.0,0.0
-1.395016,-0.550349,-9.839286,-31.08,-62.02,-56.279999,1729421923595.0,0.0
-0.471386,1.141376,-9.501899,-23.799999,-76.300003,-49.490002,1729421923614.0,0.0
-0.713061,1.584049,-11.13859,-32.27,-51.939999,-20.58,1729421923634.0,0.0
-2.09372,-0.689133,-11.023734,-67.340004,-8.05,-4.69,1729421923654.0,0.0
-3.596412,-2.665605,-12.617353,-106.889999,44.799999,3.92,1729421923675.0,0.0
-5.178068,-4.448257,-12.069397,-53.760002,49.490002,14.84,1729421923696.0,0.0
-5.946165,-3.68734,-10.877771,8.82,44.939999,24.85,1729421923714.0,0.0
-6.812366,-3.436093,-9.559326,39.48,37.240002,34.509998,1729421923734.0,0.0
-6.738188,-4.649254,-8.930015,25.690001,31.15,34.02,1729421923754.0,0.0
-5.462814,-6.530013,-8.767302,31.92,2.52,28.91,1729421923774.0,0.0
-3.876373,-5.309673,-7.470392,61.740002,-23.52,14.35,1729421923795.0,0.0
-2.74696,-1.67019,-6.362515,78.82,-33.25,-9.8,1729421923814.0,0.0
-2.37368,-2.751746,-8.793623,23.52,-29.610001,-38.709999,1729421923834.0,0.0
-1.878366,-2.277967,-8.126025,-12.6,-32.900002,-40.810001,1729421923855.0,0.0
-1.088734,-1.342373,-9.176475,-5.25,-54.950001,-51.450001,1729421923874.0,0.0
-0.880559,1.852045,-8.666803,1.47,-47.18,-35.91,1729421923898.0,0.0
-2.072184,2.522035,-9.12144,18.76,-21.0,-7.63,1729421923914.0,0.0
-3.498307,1.622334,-9.19801,-9.03,12.6,4.97,1729421923935.0,0.0
-4.852644,0.557528,-10.116854,-63.349998,22.26,21.77,1729421923954.0,0.0
-4.957928,-1.962115,-11.444871,-89.739998,-0.98,24.85,1729421923974.0,0.0
-4.259224,-3.833302,-13.35913,-59.360001,-28.210001,35.91,1729421923998.0,0.0
-3.795017,-3.18724,-11.8349,1.61,-4.62,56.490002,1729421924013.0,0.0
-4.989035,-2.603391,-8.422735,60.830002,44.869999,66.849998,1729421924034.0,0.0
-6.266802,-4.656433,-7.489535,41.509998,67.550003,58.59,1729421924056.0,0.0
-6.046663,-6.85783,-8.260024,1.68,36.68,34.299999,1729421924074.0,0.0
-4.634897,-7.020542,-8.592626,0.84,-17.360001,8.75,1729421924101.0,0.0
-3.125026,-5.9342,-8.750552,31.290001,-39.27,-9.94,1729421924114.0,0.0
-2.682354,-4.419543,-8.867801,52.709999,-22.469999,-25.9,1729421924134.0,0.0
-3.656233,-3.002992,-8.712267,43.400002,13.93,-42.209999,1729421924154.0,0.0
-4.197011,-1.820938,-8.080563,30.380001,16.870001,-43.959999,1729421924175.0,0.0
-3.818945,-0.830309,-7.264609,15.190001,-15.82,-51.310001,1729421924197.0,0.0
-3.034099,1.435694,-6.80758,-4.34,-37.240002,-45.360001,1729421924214.0,0.0
-3.318845,3.335595,-8.657232,-6.09,-38.779999,-17.99,1729421924242.0,0.0
-3.799802,2.232504,-8.65484,-26.110001,-23.870001,-1.68,1729421924253.0,0.0
-5.163712,-0.145962,-10.427922,-75.669998,8.68,27.51,1729421924277.0,0.0
-5.371887,-2.54357,-11.243874,-92.050003,8.4,29.82,1729421924298.0,0.0
-4.934,-3.622734,-11.298907,-37.310001,-7.21,52.220001,1729421924314.0,0.0
-4.843073,-2.897708,-8.812766,41.299999,-11.76,68.669998,1729421924335.0,0.0
-6.226124,-2.682354,-7.551748,32.130001,22.75,66.43,1729421924355.0,0.0
-6.896115,-5.592027,-8.547162,-12.11,41.02,39.130001,1729421924375.0,0.0
-5.972485,-7.149754,-9.092726,-12.88,11.48,17.780001,1729421924398.0,0.0
-4.424329,-6.592227,-8.755339,15.96,-31.639999,3.15,1729421924416.0,0.0
-3.323631,-4.462614,-8.504091,36.959999,-29.4,-18.34,1729421924434.0,0.0
-3.519842,-4.431508,-9.858429,20.370001,0.63,-36.610001,1729421924455.0,0.0
-3.323631,-3.534199,-8.432307,-8.82,15.82,-58.029999,1729421924475.0,0.0
-2.809174,-2.007578,-8.001599,3.78,-7.7,-62.860001,1729421924498.0,0.0
-2.148755,0.318245,-6.929615,0.42,-25.34,-60.830002,1729421924515.0,0.0
-1.914258,3.462414,-7.410572,-1.05,-25.690001,-40.389999,1729421924535.0,0.0
-3.081956,3.402594,-7.712067,-4.27,-17.57,-8.05,1729421924556.0,0.0
-4.304688,1.20359,-9.561719,-66.220001,5.46,2.73,1729421924577.0,0.0
-5.371887,-2.024328,-11.753544,-103.389999,17.01,12.81,1729421924599.0,0.0
-4.869394,-2.847459,-12.552748,-57.610001,-0.14,20.440001,1729421924615.0,0.0
-4.831109,-1.995614,-10.083356,33.110001,-10.43,45.080002,1729421924636.0,0.0
-5.240282,-0.772882,-8.855836,54.040001,17.57,53.619999,1729421924655.0,0.0
-6.403193,-2.880959,-8.073383,29.049999,45.57,57.189999,1729421924677.0,0.0
-6.685547,-6.003592,-8.525627,4.83,36.610001,45.5,1729421924699.0,0.0
-5.264209,-7.211967,-8.188239,4.9,0.98,23.24,1729421924717.0,0.0
-3.287738,-5.094319,-7.085148,21.35,-24.99,1.47,1729421924736.0,0.0
-3.227918,-4.292724,-8.087741,17.780001,-8.54,-29.4,1729421924757.0,0.0
-3.591627,-4.108476,-8.214561,-5.46,12.74,-42.77,1729421924777.0,0.0
-3.924229,-3.567699,-7.948956,-3.01,6.51,-46.830002,1729421924798.0,0.0
-3.347559,-1.689333,-8.542377,6.79,-21.629999,-53.200001,1729421924816.0,0.0
-2.677568,1.655833,-7.759924,8.4,-41.09,-42.98,1729421924836.0,0.0
-3.199204,3.553342,-8.719445,17.290001,-38.009998,-13.3,1729421924857.0,0.0
-4.395615,2.531606,-10.447062,5.88,-8.54,9.03,1729421924877.0,0.0
-5.584848,0.370888,-11.423335,-43.889999,19.110001,25.48,1729421924900.0,0.0
-5.510671,-1.12702,-11.155338,-52.779999,14.49,29.960001,1729421924916.0,0.0
-5.553742,-1.871187,-11.54537,5.74,-0.21,50.540001,1729421924936.0,0.0
-5.740381,-1.014557,-8.709875,37.099998,15.89,60.060001,1729421924961.0,0.0
-6.30748,-3.553342,-6.733403,6.44,32.41,52.990002,1729421924976.0,0.0
-5.87438,-6.477371,-7.709675,-28.07,24.5,23.73,1729421925000.0,0.0
-5.178068,-7.592427,-8.796017,-15.05,3.71,6.3,1729421925016.0,0.0
-3.871587,-6.092126,-8.020741,15.89,-19.389999,-11.9,1729421925038.0,0.0
-3.479164,-4.706682,-7.941778,24.5,-24.85,-26.040001,1729421925056.0,0.0
-3.531806,-4.429115,-8.602197,6.09,-2.17,-47.950001,1729421925076.0,0.0
-3.244668,-3.866802,-8.640482,-8.54,7.35,-56.77,1729421925101.0,0.0
-3.014957,-2.045863,-7.77428,9.73,-10.22,-53.27,1729421925118.0,0.0
-2.536392,0.361316,-7.939385,14.07,-27.02,-53.41,1729421925136.0,0.0
-2.916851,3.381058,-9.097511,7.0,-17.5,-22.26,1729421925159.0,0.0
-3.921836,2.084148,-9.394222,14.21,-1.47,1.19,1729421925177.0,0.0
-5.142176,0.614955,-10.116854,-5.6,18.41,21.07,1729421925198.0,0.0
-6.142376,-0.753739,-9.535398,-19.25,19.460001,31.290001,1729421925217.0,0.0
-5.843273,-1.244268,-11.01177,-21.629999,5.67,39.759998,1729421925236.0,0.0
-5.264209,-2.926422,-9.879964,17.360001,-7.0,56.560001,1729421925258.0,0.0
-4.728218,-3.199204,-8.123632,23.799999,11.41,51.939999,1729421925277.0,0.0
-5.132604,-4.350152,-8.800802,8.4,23.379999,41.16,1729421925299.0,0.0
-4.969893,-6.07777,-9.166903,1.26,24.15,14.56,1729421925318.0,0.0
-4.532006,-7.073184,-8.700303,-5.88,16.450001,-5.74,1729421925335.0,0.0
-3.562913,-6.494121,-7.936993,4.9,2.38,-29.960001,1729421925358.0,0.0
-3.395415,-4.878965,-7.377072,35.420002,-3.71,-42.07,1729421925377.0,0.0
-3.998406,-2.900101,-6.381658,42.0,14.63,-49.84,1729421925397.0,0.0
-5.010571,-3.4672,-8.425128,-4.97,14.42,-64.959999,1729421925417.0,0.0
-4.158726,-1.737189,-7.243074,-15.4,-13.3,-68.529999,1729421925438.0,0.0
-3.275774,1.78026,-7.568498,1.26,-44.66,-59.080002,1729421925458.0,0.0
-2.876173,3.85723,-8.822337,2.8,-52.779999,-32.759998,1729421925476.0,0.0
-3.598805,2.589034,-8.91805,-12.81,-20.790001,4.9,1729421925498.0,0.0
-4.847858,-0.20339,-10.459028,-50.330002,14.14,25.48,1729421925516.0,0.0
-4.917251,-0.392423,-12.452249,-52.709999,11.41,33.810001,1729421925538.0,0.0
-4.163511,-0.150748,-11.526227,0.14,-19.460001,57.189999,1729421925556.0,0.0
-3.622734,-1.579263,-10.126426,31.85,-9.73,73.43,1729421925576.0,0.0
-4.4339,-3.589234,-10.454242,-6.02,30.17,70.629997,1729421925600.0,0.0
-5.737988,-5.943772,-8.987441,-43.68,72.309998,44.59,1729421925616.0,0.0
-6.293124,-7.429714,-8.542377,-28.35,68.25,16.1,1729421925637.0,0.0
-5.163712,-7.066005,-7.908278,-7.42,18.41,-3.36,1729421925655.0,0.0
-3.304488,-6.113662,-8.147561,2.1,-16.52,-23.379999,1729421925678.0,0.0
-2.634498,-4.735396,-7.89153,28.91,-12.67,-33.880001,1729421925700.0,0.0
-3.440879,-3.919443,-7.077969,44.029999,24.43,-38.990002,1729421925716.0,0.0
-5.003392,-2.957529,-6.075377,42.0,52.5,-43.119999,1729421925736.0,0.0
-5.185246,-2.031506,-6.266802,8.33,1.96,-49.84,1729421925756.0,0.0
-3.720839,-2.488536,-7.508677,1.89,-50.400002,-40.18,1729421925776.0,0.0
-1.971686,-1.320838,-7.893922,8.75,-74.620003,-42.0,1729421925799.0,0.0
-1.708475,1.636691,-8.726624,7.56,-67.199997,-26.040001,1729421925816.0,0.0
-2.397608,3.328416,-9.513863,-26.389999,-39.759998,-11.2,1729421925838.0,0.0
-3.95055,0.248854,-9.870394,-55.93,-3.29,2.17,1729421925856.0,0.0
-5.048856,-1.892723,-11.598011,-64.190002,10.22,5.88,1729421925877.0,0.0
-5.534599,-2.122434,-11.499906,-33.25,4.62,20.51,1729421925898.0,0.0
-5.206782,-2.18704,-10.018748,18.34,-3.22,31.85,1729421925918.0,0.0
-5.15414,-2.388037,-8.721838,34.790001,4.76,39.34,1729421925936.0,0.0
-5.32403,-3.199204,-7.606783,24.57,22.4,35.77,1729421925955.0,0.0
-5.594419,-4.651647,-8.757731,12.6,26.6,27.299999,1729421925977.0,0.0
-5.13739,-4.965107,-9.052048,10.57,20.790001,16.379999,1729421926000.0,0.0
-4.201797,-5.510671,-7.573284,25.83,2.59,3.78,1729421926014.0,0.0
-3.316452,-4.500899,-7.183254,30.380001,-7.14,-12.81,1729421926036.0,0.0
-3.404987,-3.09392,-6.630512,30.17,-1.19,-24.5,1729421926058.0,0.0
-3.804588,-4.790431,-8.82473,3.57,12.6,-37.099998,1729421926077.0,0.0
-3.811767,-4.278367,-7.946564,-0.77,7.0,-43.610001,1729421926101.0,0.0
-2.9671,-2.469393,-7.133004,8.89,-13.3,-51.799999,1729421926116.0,0.0
-2.65364,0.636491,-7.499106,5.6,-31.290001,-36.959999,1729421926135.0,0.0
-2.120041,0.81356,-8.429914,-2.38,-47.529999,-38.57,1729421926156.0,0.0
-2.143969,0.789631,-9.293723,-25.200001,-39.759998,-29.26,1729421926178.0,0.0
-2.74696,1.447658,-9.755538,-47.950001,-32.27,-15.68,1729421926198.0,0.0
-3.998406,-0.229711,-10.128819,-66.080002,-6.44,4.62,1729421926216.0,0.0
-4.898108,-1.818545,-12.387643,-61.810001,2.03,14.0,1729421926236.0,0.0
-5.053641,-2.249253,-12.571891,-28.98,-4.06,27.93,1729421926256.0,0.0
-4.931608,-1.993221,-10.360922,15.75,5.74,42.209999,1729421926283.0,0.0
-5.443672,-2.349752,-11.351551,34.02,22.4,48.509998,1729421926298.0,0.0
-5.74756,-3.732803,-7.869993,28.91,43.959999,40.740002,1729421926316.0,0.0
-6.616155,-4.752146,-7.635497,7.98,49.490002,34.23,1729421926336.0,0.0
-6.350551,-6.015556,-8.518449,-1.33,33.040001,17.710001,1729421926357.0,0.0
-4.553542,-5.496314,-8.166703,3.92,8.47,1.12,1729421926378.0,0.0
-3.993621,-4.09412,-7.814958,37.799999,-9.52,-17.780001,1729421926401.0,0.0
-4.567898,-3.184847,-7.594819,29.889999,10.78,-27.719999,1729421926416.0,0.0
-4.792823,-4.268795,-9.128618,-0.07,19.389999,-45.080002,1729421926436.0,0.0
-4.656433,-3.783052,-8.252845,4.62,3.01,-44.170002,1729421926457.0,0.0
-4.091727,-2.148755,-7.745567,21.49,-20.93,-48.09,1729421926478.0,0.0
-3.74716,0.294317,-8.276773,6.09,-27.16,-36.68,1729421926500.0,0.0
-3.806981,-0.047856,-8.561519,-11.69,-29.26,-32.619999,1729421926517.0,0.0
-4.096512,-0.267996,-9.719646,-41.299999,-15.61,-25.059999,1729421926538.0,0.0
-4.328616,0.504886,-10.135997,-37.170002,-23.030001,-11.97,1729421926559.0,0.0
-4.532006,0.167498,-10.750952,-30.66,-26.18,6.72,1729421926578.0,0.0
-4.254438,-1.440479,-11.083554,-38.639999,-21.98,19.6,1729421926599.0,0.0
-3.960121,-2.507678,-10.858629,-32.130001,-14.0,28.35,1729421926618.0,0.0
-3.622734,-1.895115,-10.8682,5.53,-4.83,37.170002,1729421926639.0,0.0
-4.036692,-0.485743,-9.176475,34.650002,12.88,51.939999,1729421926659.0,0.0
-4.804788,-1.914258,-9.60479,30.309999,31.85,55.16,1729421926678.0,0.0
-5.718846,-3.548556,-8.800802,6.93,45.990002,52.639999,1729421926698.0,0.0
-5.740381,-4.725825,-7.659425,13.02,37.170002,43.68,1729421926720.0,0.0
-5.017749,-5.761917,-6.556334,8.82,27.860001,24.360001,1729421926739.0,0.0
-4.254438,-6.032306,-6.874579,0.56,-1.19,3.64,1729421926759.0,0.0
-3.529413,-5.489135,-7.65464,0.49,-13.440001,-20.860001,1729421926779.0,0.0
-3.634698,-4.256832,-7.274181,17.92,1.4,-35.139999,1729421926800.0,0.0
-4.223332,-3.833302,-7.769495,17.360001,13.3,-46.689999,1729421926820.0,0.0
-4.098906,-2.758924,-7.422535,-1.19,-0.07,-50.119999,1729421926839.0,0.0
-3.335595,-2.28036,-8.55434,-5.32,-30.940001,-52.360001,1729421926858.0,0.0
-2.620141,-0.911665,-8.501699,-20.93,-42.91,-53.970001,1729421926878.0,0.0
-2.524428,1.318445,-9.174082,-35.0,-28.700001,-45.920002,1729421926899.0,0.0
-3.586841,0.713061,-9.863215,-37.099998,-9.52,-27.860001,1729421926918.0,0.0
-4.09412,-0.308674,-10.25803,-48.09,7.56,-20.02,1729421926939.0,0.0
-4.740182,-0.600598,-9.88475,-27.58,2.1,-2.73,1729421926957.0,0.0
-4.41715,-0.476172,-9.875179,-20.51,-5.6,5.18,1729421926978.0,0.0
-4.130012,-1.036092,-11.47119,-20.09,-9.66,27.58,1729421927006.0,0.0
-4.476971,-1.954936,-9.724431,19.040001,15.75,39.41,1729421927018.0,0.0
-5.675776,-1.756332,-9.159724,32.549999,39.970001,49.420002,1729421927039.0,0.0
-6.206983,-1.524228,-8.52802,29.75,34.16,48.369999,1729421927059.0,0.0
-5.9677,-2.321038,-8.695518,21.91,18.27,50.189999,1729421927077.0,0.0
-5.290531,-4.161119,-8.872586,19.18,6.02,50.68,1729421927101.0,0.0
-4.338188,-4.943572,-7.728817,16.52,5.04,38.290001,1729421927118.0,0.0
-3.969693,-5.242674,-7.176075,17.780001,4.62,16.17,1729421927138.0,0.0
-3.876373,-4.474578,-6.788438,21.91,7.98,-10.36,1729421927157.0,0.0
-3.993621,-4.223332,-7.676175,16.940001,-0.63,-27.719999,1729421927179.0,0.0
-3.445665,-4.567898,-8.860621,-4.13,-17.08,-43.400002,1729421927201.0,0.0
-2.699104,-3.385844,-8.49452,-12.53,-26.460001,-53.060001,1729421927219.0,0.0
-2.663212,-1.76351,-8.800802,-2.31,-22.26,-54.32,1729421927238.0,0.0
-2.816352,-0.409173,-9.025726,-9.38,-17.92,-59.220001,1729421927257.0,0.0
-3.026921,1.730011,-8.762517,-36.119999,-8.33,-51.170002,1729421927278.0,0.0
-3.756732,1.131805,-10.090532,-27.790001,-8.96,-23.66,1729421927301.0,0.0
-3.828516,-0.538385,-10.24846,-33.110001,-7.63,-9.24,1729421927318.0,0.0
-4.13719,-0.562313,-11.289338,-27.440001,0.28,14.07,1729421927339.0,0.0
-4.508078,-1.141376,-10.001998,5.67,15.05,30.1,1729421927358.0,0.0
-4.926822,-0.878166,-9.219545,19.040001,24.85,39.549999,1729421927379.0,0.0
-5.546563,-1.289732,-9.169296,14.28,30.66,47.459999,1729421927399.0,0.0
-6.104091,-2.29711,-8.063812,3.43,30.799999,48.720001,1729421927418.0,0.0
-5.737988,-4.103691,-8.961121,2.17,21.42,40.459999,1729421927437.0,0.0
-4.955536,-5.130211,-8.128418,5.88,5.74,26.74,1729421927459.0,0.0
-4.280759,-4.48415,-8.233703,8.75,5.74,9.38,1729421927479.0,0.0
-3.795017,-4.386044,-7.089933,12.74,-0.56,-6.16,1729421927501.0,0.0
-3.804588,-4.601398,-7.216753,10.22,-0.14,-19.809999,1729421927517.0,0.0
-4.194618,-3.785445,-7.798209,9.1,2.94,-34.299999,1729421927537.0,0.0
-4.268795,-3.488736,-9.274581,0.91,-6.09,-46.34,1729421927559.0,0.0
-3.45045,-2.766103,-9.312866,-10.57,-23.379999,-50.610001,1729421927579.0,0.0
-2.569891,-2.112862,-9.47797,-6.72,-30.73,-53.970001,1729421927601.0,0.0
-1.993221,-0.289532,-8.705089,-0.56,-21.98,-49.420002,1729421927617.0,0.0
-2.447858,1.76351,-9.080762,12.74,-14.63,-28.49,1729421927637.0,0.0
-3.407379,0.227318,-8.944371,15.05,-6.93,-14.28,1729421927659.0,0.0
-3.799802,-0.533599,-9.403792,15.26,-0.35,9.52,1729421927679.0,0.0
-4.460221,-0.189033,-10.504492,18.129999,-15.89,21.77,1729421927700.0,0.0
-4.850252,-0.729811,-10.399208,-25.549999,-1.75,22.26,1729421927718.0,0.0
-5.489135,-2.340181,-10.91845,-38.43,26.040001,31.57,1729421927737.0,0.0
-5.749953,-3.227918,-9.226725,0.07,24.290001,34.860001,1729421927759.0,0.0
-5.848059,-3.65384,-9.516255,30.52,19.530001,39.549999,1729421927780.0,0.0
-5.687739,-4.096512,-9.798609,45.290001,23.450001,32.619999,1729421927800.0,0.0
-5.398208,-5.587241,-8.420342,62.860001,23.73,23.52,1729421927817.0,0.0
-4.704289,-5.190032,-8.02792,79.099998,23.799999,15.26,1729421927837.0,0.0
-4.029513,-5.020142,-7.257431,111.300003,10.64,13.37,1729421927858.0,0.0
-3.534199,-5.242674,-6.474977,130.970001,7.35,12.46,1729421927879.0,0.0
-3.562913,-6.156733,-8.506484,181.020004,18.059999,18.9,1729421927900.0,0.0
-3.620341,-7.865208,-9.879964,308.0,28.07,25.690001,1729421927917.0,0.0
-3.371487,-8.147561,-9.75793,467.320007,32.689999,47.810001,1729421927938.0,0.0
-2.971886,-5.407779,-7.932207,589.960022,27.370001,70.419998,1729421927958.0,0.0
-2.940779,-5.12782,-6.513263,627.900024,18.48,66.989998,1729421927980.0,0.0
-2.603391,-5.548956,-3.78066,536.409973,19.389999,46.34,1729421927998.0,0.0
-2.907279,-7.848458,-1.366302,374.149994,50.400002,40.110001,1729421928017.0,0.0
-4.756931,-10.79163,0.531207,324.589996,25.690001,17.08,1729421928039.0,0.0
-3.634698,-11.832507,-0.043071,328.579987,-19.460001,-14.42,1729421928057.0,0.0
-2.787638,-11.014162,0.5001,320.809998,-5.32,-17.5,1729421928077.0,0.0
-2.445465,-9.334401,1.249053,318.5,7.63,-26.950001,1729421928107.0,0.0
-3.455236,-8.970692,3.65384,297.149994,21.559999,-33.040001,1729421928118.0,0.0
-3.029313,-8.281559,2.493321,254.729996,19.32,-47.950001,1729421928140.0,0.0
-3.517449,-6.12084,2.89053,223.440002,32.549999,-43.82,1729421928157.0,0.0
-4.871787,-5.99402,4.632504,194.389999,34.790001,-28.559999,1729421928179.0,0.0
-4.914857,-6.388836,5.032106,147.839996,16.59,-38.57,1729421928199.0,0.0
-4.441079,-6.4678,5.419744,115.360001,19.879999,-41.439999,1729421928218.0,0.0
-4.63729,-5.412565,4.68754,91.209999,24.710001,-35.91,1729421928238.0,0.0
-5.02732,-5.501099,4.9675,85.400002,23.309999,-34.09,1729421928322.0,0.0
-5.218746,-5.85763,4.646862,75.809998,21.700001,-30.52,1729421928323.0,0.0
-4.900501,-6.352944,6.443871,72.519997,23.17,-31.780001,1729421928323.0,0.0
-3.919443,-5.407779,7.872386,74.199997,23.450001,-32.549999,1729421928324.0,0.0
-4.189832,-2.715853,7.460821,66.150002,29.82,-23.17,1729421928354.0,0.0
-4.015156,-3.471986,7.345965,15.54,6.79,-4.62,1729421928357.0,0.0
-4.0008,-4.838287,6.848258,-11.97,-2.38,0.07,1729421928378.0,0.0
-4.010371,-4.744967,5.87438,7.63,3.85,10.57,1729421928398.0,0.0
-4.177868,-4.319045,6.144768,24.290001,15.190001,22.049999,1729421928417.0,0.0
-4.421937,-5.003392,5.9342,1.82,12.39,23.030001,1729421928437.0,0.0
-3.986443,-5.599205,5.350351,-15.68,5.32,18.969999,1729421928456.0,0.0
-4.333402,-7.051648,6.642475,7.14,12.46,33.18,1729421928477.0,0.0
-5.398208,-8.927622,6.271588,13.72,7.7,15.68,1729421928499.0,0.0
-5.431707,-9.982857,6.754939,10.5,1.54,-0.14,1729421928517.0,0.0
-5.388636,-10.286745,6.742974,24.57,3.78,-20.790001,1729421928537.0,0.0
-4.347759,-8.702696,6.73101,34.790001,6.51,-38.849998,1729421928557.0,0.0
-5.230711,-8.262416,7.499106,32.759998,3.92,-39.27,1729421928577.0,0.0
-7.173682,-7.781459,8.628519,19.74,-10.64,-58.170002,1729421928600.0,0.0
-8.082954,-6.003592,5.556134,-19.110001,-28.84,-67.690002,1729421928618.0,0.0
-5.395815,-5.237889,3.948158,-26.74,-25.969999,-77.209999,1729421928636.0,0.0
-2.40718,-3.713661,7.123433,4.62,-13.58,-70.349998,1729421928657.0,0.0
-2.385644,-0.993021,7.68096,12.81,-0.91,-28.0,1729421928678.0,0.0
-1.301696,-0.265603,5.845665,-36.75,-13.72,-7.35,1729421928698.0,0.0
-0.672383,-0.811167,4.938786,-54.25,-6.09,27.02,1729421928717.0,0.0
-2.22054,-2.940779,4.900501,-34.02,5.25,47.040001,1729421928737.0,0.0
-4.063013,-5.022535,5.087141,-15.47,12.11,49.349998,1729421928757.0,0.0
-3.366701,-4.266403,6.06102,3.43,23.940001,59.290001,1729421928777.0,0.0
-4.673182,-4.941179,7.652246,27.23,32.619999,77.279999,1729421928798.0,0.0
-6.786045,-7.633104,7.700103,-2.8,12.74,61.599998,1729421928820.0,0.0
-6.21416,-7.310073,5.757132,-39.759998,2.03,48.509998,1729421928837.0,0.0
-6.111269,-10.119246,4.895715,-25.690001,8.68,45.080002,1729421928858.0,0.0
-5.678168,-12.282358,6.388836,-17.360001,-5.46,3.57,1729421928877.0,0.0
-5.754738,-12.861421,8.001599,31.780001,1.05,-10.08,1729421928898.0,0.0
-4.297509,-8.91805,8.204988,43.189999,1.12,-32.060001,1729421928917.0,0.0
-3.366701,-5.522634,6.69751,17.5,0.14,-35.07,1729421928936.0,0.0
-4.333402,-5.568098,6.752545,-3.64,-6.93,-38.849998,1729421928956.0,0.0
-4.646862,-6.876972,5.962914,-16.66,-17.639999,-46.830002,1729421928979.0,0.0
-3.57727,-6.151947,6.563512,19.879999,-6.51,-52.920002,1729421929113.0,0.0
-2.907279,-2.234896,7.657032,41.439999,2.1,-39.689999,1729421929118.0,0.0
-3.244668,-1.502693,7.702496,10.22,-1.61,-19.389999,1729421929119.0,0.0
-2.474179,-1.569692,5.938986,-38.220001,-14.63,-10.43,1729421929120.0,0.0
-1.926222,-1.696511,5.532206,-31.5,-6.3,16.030001,1729421929121.0,0.0
-3.311667,-2.273181,5.273781,5.81,9.94,37.52,1729421929123.0,0.0
-3.818945,-2.289931,4.606184,13.37,19.530001,51.52,1729421929125.0,0.0
-3.917051,-4.139583,5.953342,16.450001,30.52,72.169998,1729421929135.0,0.0
-6.037091,-8.394022,7.049256,3.85,24.08,67.970001,1729421929160.0,0.0
-6.293124,-9.054441,5.312066,-18.76,20.719999,41.720001,1729421929177.0,0.0
-6.905686,-9.489935,6.168696,12.6,37.240002,43.68,1729421929199.0,0.0
-6.702296,-8.432307,7.240681,15.54,26.389999,18.969999,1729421929217.0,0.0
-7.523034,-10.839487,7.633104,2.73,10.64,0.42,1729421929237.0,0.0
-6.04427,-11.576476,8.271988,-4.34,-14.28,-38.220001,1729421929257.0,0.0
-4.527221,-8.245667,7.209574,9.8,-9.31,-46.34,1729421929278.0,0.0
-4.634897,-5.292924,6.202196,20.719999,-7.07,-52.220001,1729421929300.0,0.0
-5.118248,-3.589234,5.84088,8.47,-7.56,-50.68,1729421929316.0,0.0
-3.871587,-6.278766,6.455836,-1.75,-13.440001,-53.760002,1729421929336.0,0.0
-3.180061,-5.458029,7.802995,23.870001,-1.75,-60.41,1729421929356.0,0.0
-2.383251,-1.926222,8.013563,34.09,9.1,-38.080002,1729421929376.0,0.0
-2.519642,-1.473979,7.960921,2.03,2.87,-22.26,1729421929398.0,0.0
-2.196611,-1.672583,6.199803,-60.27,-14.98,-10.43,1729421929415.0,0.0
-2.029114,-0.961915,5.429315,-53.48,-6.86,18.83,1729421929435.0,0.0
-3.692125,-2.486143,6.051448,-5.81,4.27,43.68,1729421929456.0,0.0
-4.716253,-3.905087,5.029713,-9.45,3.78,41.580002,1729421929476.0,0.0
-3.881158,-3.919443,5.312066,-10.01,11.9,56.560001,1729421929499.0,0.0
-4.441079,-3.9673,7.393822,13.72,22.049999,78.120003,1729421929516.0,0.0
-7.125826,-6.592227,7.534998,-4.83,4.27,74.900002,1729421929535.0,0.0
-8.106883,-11.626726,6.563512,-33.389999,-23.870001,62.860001,1729421929555.0,0.0
-7.855636,-13.77548,5.785845,-47.25,-27.58,19.25,1729421929576.0,0.0
-6.192625,-10.095319,5.340781,5.74,-10.5,-7.35,1729421929598.0,0.0
-6.025128,-9.401401,8.01117,53.689999,0.35,-21.559999,1729421929617.0,0.0
-4.242475,-8.685946,8.563912,6.51,-21.700001,-53.970001,1729421929635.0,0.0
-4.26401,-6.661618,5.395815,-16.799999,-28.91,-48.299999,1729421929654.0,0.0
-5.833702,-6.04427,5.139783,-1.54,-17.85,-40.459999,1729421929675.0,0.0
-3.254239,-4.503292,5.879165,21.35,5.53,-74.760002,1729421929697.0,0.0
-1.976472,-4.194618,7.190433,23.870001,17.57,-56.349998,1729421929714.0,0.0
-0.856631,-2.084148,7.360322,-2.31,15.75,-44.170002,1729421929734.0,0.0
-1.512264,-0.930808,6.558727,-21.700001,6.72,-13.65,1729421929755.0,0.0
-1.5003,-1.081556,5.735595,-21.700001,4.06,6.44,1729421929774.0,0.0
-2.337788,-1.423729,6.309873,-0.35,16.450001,32.060001,1729421929797.0,0.0
-4.981857,-2.880959,6.640083,0.98,17.99,50.049999,1729421929815.0,0.0
-5.197211,-4.012764,5.838487,-19.879999,15.61,55.16,1729421929834.0,0.0
-4.649254,-5.551349,6.104091,-17.639999,21.629999,64.75,1729421929854.0,0.0
-6.017949,-6.89133,6.245267,-11.83,23.73,60.760002,1729421929875.0,0.0
-7.080362,-7.458428,5.706882,-3.36,26.389999,55.299999,1729421929897.0,0.0
-7.515855,-9.01137,4.890929,-8.33,23.59,36.68,1729421929914.0,0.0
-7.345965,-12.725031,7.245467,6.86,9.73,9.03,1729421929934.0,0.0
-6.867401,-12.351749,7.310073,23.309999,11.2,-23.309999,1729421929954.0,0.0
-5.065606,-8.693125,8.178668,35.490002,5.46,-40.599998,1729421929975.0,0.0
-4.323831,-5.709275,7.52782,30.66,2.03,-39.619999,1729421929997.0,0.0
-4.883751,-4.058227,6.070591,3.57,-12.18,-40.25,1729421930014.0,0.0
-5.367101,-5.938986,6.80758,13.37,-16.799999,-43.400002,1729421930034.0,0.0
-4.9675,-7.058826,7.307681,20.16,-14.28,-58.029999,1729421930054.0,0.0
-3.787838,-6.235696,7.386643,9.1,-8.19,-57.889999,1729421930076.0,0.0
-2.431108,-3.175276,7.066005,-7.49,-8.19,-49.630001,1729421930098.0,0.0
-3.139383,-1.842474,7.073184,-8.89,-5.04,-25.059999,1729421930115.0,0.0
-2.924029,-0.227318,5.735595,-33.529999,-17.360001,-15.4,1729421930135.0,0.0
-2.586641,-0.538385,4.881358,-31.639999,-15.47,21.0,1729421930155.0,0.0
-3.476771,-2.749353,5.180461,-18.549999,-11.55,34.580002,1729421930183.0,0.0
-3.74716,-4.735396,5.592027,-3.64,-1.82,37.170002,1729421930200.0,0.0
-3.235096,-3.818945,6.142376,5.95,15.75,54.810001,1729421930216.0,0.0
-3.87398,-4.548756,7.575676,-11.83,20.93,75.739998,1729421930238.0,0.0
-5.187639,-5.752346,5.98445,-57.540001,1.12,70.139999,1729421930257.0,0.0
-6.783652,-10.624132,4.819145,-61.670002,-8.26,70.419998,1729421930275.0,0.0
-7.178468,-11.81815,4.457829,-57.400002,-10.22,30.799999,1729421930300.0,0.0
-7.197611,-11.674582,5.773881,23.1,7.98,12.6,1729421930316.0,0.0
-7.477571,-9.363115,8.609376,55.299999,4.34,-18.34,1729421930337.0,0.0
-5.058427,-6.223732,6.549156,-5.46,-13.65,-46.27,1729421930357.0,0.0
-5.010571,-4.618148,5.4676,-10.57,-17.15,-40.459999,1729421930376.0,0.0
-5.9677,-4.82393,6.056234,3.85,-16.799999,-47.040001,1729421930397.0,0.0
-5.675776,-5.773881,8.556733,13.93,-18.9,-51.450001,1729421930416.0,0.0
-6.013163,-8.9348,7.427321,-24.5,-29.889999,-65.940002,1729421930436.0,0.0
-3.393023,-8.25763,5.230711,-85.889999,-35.07,-93.800003,1729421930457.0,0.0
-1.253839,-4.039084,6.963113,-51.869999,-12.04,-61.389999,1729421930477.0,0.0
-1.359123,-0.162712,7.310073,-27.09,-1.05,-38.5,1729421930499.0,0.0
-0.205783,0.148355,4.532006,-64.82,-14.91,-22.120001,1729421930518.0,0.0
0.990629,-0.382852,2.548356,-78.889999,-20.65,20.23,1729421930537.0,0.0
-0.904487,-4.795217,4.577469,-21.210001,-2.59,45.639999,1729421930557.0,0.0
-3.254239,-6.089733,5.168497,26.809999,7.84,49.209999,1729421930577.0,0.0
-3.725625,-6.664011,6.893722,57.959999,26.6,66.709999,1729421930600.0,0.0
-4.472186,-6.525227,7.314859,36.049999,25.129999,69.370003,1729421930616.0,0.0
-6.168696,-7.573284,4.108476,-17.43,7.56,60.27,1729421930636.0,0.0
-7.228717,-10.229317,4.862216,3.99,12.39,54.529999,1729421930657.0,0.0
-8.910872,-12.705888,6.21416,28.35,6.79,15.12,1729421930677.0,0.0
-7.645068,-12.610175,6.123233,44.029999,-0.49,-18.41,1729421930698.0,0.0
-5.407779,-9.066404,6.372087,70.629997,13.3,-34.93,1729421930718.0,0.0
-4.445865,-6.407979,7.343572,77.209999,17.43,-43.889999,1729421930736.0,0.0
-5.4006,-5.941379,7.405786,56.630001,3.08,-48.580002,1729421930758.0,0.0
-4.632504,-6.041877,6.67119,34.02,-2.73,-52.150002,1729421930780.0,0.0
-4.098906,-6.838687,6.513263,12.04,-4.76,-61.740002,1729421930803.0,0.0
-2.167897,-5.505885,6.534799,11.34,-5.11,-67.199997,1729421930818.0,0.0
-1.689333,-2.48375,7.534998,28.84,12.88,-37.099998,1729421930837.0,0.0
-2.184647,-0.547956,7.245467,28.84,1.05,-18.48,1729421930857.0,0.0
-2.199004,-0.387637,7.192825,-49.0,-12.6,2.31,1729421930877.0,0.0
-2.945565,-2.244468,4.845466,-69.370003,-17.57,24.01,1729421930905.0,0.0
-4.201797,-3.814159,3.60359,-56.630001,-10.85,32.48,1729421930916.0,0.0
-4.271189,-4.500899,4.476971,-30.309999,14.49,47.18,1729421930938.0,0.0
-3.883551,-3.160919,5.814559,-21.91,25.34,62.299999,1729421930957.0,0.0
-5.706882,-4.371687,5.54417,-26.880001,29.469999,83.790001,1729421930976.0,0.0
-6.783652,-11.653046,3.974478,-47.25,10.29,76.370003,1729421931001.0,0.0
-6.288338,-14.242079,6.053841,-48.02,-9.59,18.690001,1729421931017.0,0.0
-7.171289,-12.354142,6.305088,42.139999,22.82,29.4,1729421931036.0,0.0
-7.403394,-9.958927,7.582855,70.629997,13.09,-5.74,1729421931059.0,0.0
-5.108676,-7.896315,7.812566,30.380001,-0.77,-32.970001,1729421931078.0,0.0
-5.211568,-7.142576,6.709475,20.370001,-10.92,-34.650002,1729421931105.0,0.0
-5.752346,-6.608976,6.106483,41.439999,-14.49,-46.27,1729421931118.0,0.0
-5.111069,-6.02752,5.278566,57.610001,-11.97,-55.650002,1729421931136.0,0.0
-4.685147,-6.948757,7.235896,88.550003,1.82,-58.869999,1729421931156.0,0.0
-3.778267,-5.063213,7.700103,70.209999,5.95,-71.330002,1729421931178.0,0.0
-2.749353,-2.914458,7.02772,21.77,-2.17,-51.170002,1729421931198.0,0.0
-2.07697,-2.830709,7.379465,-13.79,-7.56,-33.32,1729421931216.0,0.0
-1.902294,-2.385644,5.924629,-28.630001,-16.450001,-28.07,1729421931236.0,0.0
-2.646462,-1.184447,5.391029,-5.95,-3.01,-2.1,1729421931256.0,0.0
-4.041477,-0.698704,4.398008,0.56,4.13,25.27,1729421931277.0,0.0
-3.457629,-4.962714,4.005585,-32.759998,1.82,37.029999,1729421931301.0,0.0
-2.316252,-5.048856,4.955536,-42.98,12.11,44.59,1729421931317.0,0.0
-4.570292,-3.955336,5.534599,4.13,34.650002,75.949997,1729421931336.0,0.0
-7.300502,-6.568298,6.668797,-4.41,27.719999,80.709999,1729421931357.0,0.0
-8.683553,-12.452249,6.826723,-46.060001,6.72,52.5,1729421931377.0,0.0
-6.183054,-12.160326,7.255038,-14.21,-10.78,3.08,1729421931398.0,0.0
-7.398607,-10.164711,8.324631,62.790001,12.32,6.44,1729421931416.0,0.0
-5.788238,-7.099504,7.99442,44.799999,0.21,-35.349998,1729421931437.0,0.0
-4.455436,-6.398407,7.810174,9.52,-9.94,-36.610001,1729421931456.0,0.0
-4.816752,-5.498707,6.486942,6.23,-13.37,-41.23,1729421931475.0,0.0
-5.828916,-5.405386,5.4341,26.040001,-6.93,-42.91,1729421931497.0,0.0
-5.395815,-4.969893,6.003592,42.77,7.0,-51.310001,1729421931515.0,0.0
-4.61097,-4.948357,8.489735,59.220001,10.92,-56.420002,1729421931535.0,0.0
-3.424129,-4.412365,9.059227,38.080002,11.06,-51.029999,1729421931555.0,0.0
-1.751546,-3.160919,6.4678,-20.09,-5.32,-37.939999,1729421931575.0,0.0
-1.512264,-3.18724,5.345565,-49.84,-9.87,-12.67,1729421931596.0,0.0
-1.954936,-1.76351,5.000999,-42.139999,-10.29,5.39,1729421931615.0,0.0
-4.517649,-2.017149,5.020142,-1.68,-1.89,32.759998,1729421931635.0,0.0
-4.520042,-3.125026,5.534599,-9.03,4.9,44.170002,1729421931656.0,0.0
-4.48415,-4.929214,5.883951,-25.969999,3.78,57.189999,1729421931676.0,0.0
-6.04427,-7.166504,6.606583,-17.639999,8.26,64.120003,1729421931697.0,0.0
-7.819745,-9.422935,5.656632,-21.280001,1.96,48.02,1729421931715.0,0.0
-7.56132,-12.270394,6.439085,-12.25,-4.97,10.29,1729421931735.0,0.0
-5.769095,-9.899107,6.503692,-1.12,-1.33,-17.219999,1729421931755.0,0.0
-5.199604,-7.111469,6.814759,33.25,12.95,-14.35,1729421931775.0,0.0
-5.443672,-3.713661,6.71426,30.24,9.03,-19.530001,1729421931799.0,0.0
-5.977271,-2.54357,6.221339,7.14,-0.14,-6.79,1729421931815.0,0.0
-5.501099,-3.050849,6.520442,-24.99,-9.59,-5.46,1729421931835.0,0.0
-5.608776,-4.902894,7.135397,-39.130001,-18.34,-2.31,1729421931855.0,0.0
-5.821737,-5.735595,7.338787,-33.110001,-19.18,-0.56,1729421931875.0,0.0
-5.79781,-5.493921,7.542177,-26.6,-18.620001,1.05,1729421931897.0,0.0
-5.711668,-5.072784,6.951149,-46.830002,-22.120001,6.3,1729421931915.0,0.0
-5.000999,-4.740182,6.556334,-80.919998,-36.119999,7.91,1729421931935.0,0.0
-4.783253,-5.331209,6.496514,-95.269997,-39.27,20.51,1729421931955.0,0.0
-4.991428,-6.853044,6.465407,-105.980003,-45.360001,14.49,1729421931975.0,0.0
-4.15394,-7.944171,4.498507,-138.110001,-58.450001,16.450001,1729421931997.0,0.0
-2.912065,-9.308081,3.828516,-122.290001,-64.540001,14.63,1729421932015.0,0.0
-2.11047,-9.128618,4.333402,-87.57,-63.630001,11.55,1729421932035.0,0.0
-2.323431,-7.802995,4.673182,-70.769997,-49.77,11.27,1729421932056.0,0.0
-2.37368,-7.592427,3.663411,-102.480003,-41.09,-0.28,1729421932075.0,0.0
-1.682154,-8.437093,1.057628,-142.169998,-44.170002,-17.219999,1729421932100.0,0.0
-1.40698,-8.772088,1.18684,-125.580002,-28.07,-21.0,1729421932115.0,0.0
-1.194018,-8.898908,4.400401,-61.25,2.45,-13.93,1729421932135.0,0.0
-1.842474,-8.212167,5.723632,-41.860001,39.970001,-9.38,1729421932155.0,0.0
-1.868794,-7.013363,4.701896,-57.119999,41.369999,-14.21,1729421932175.0,0.0
-2.500499,-6.836295,3.337988,-83.650002,35.0,-5.74,1729421932197.0,0.0
-3.515057,-7.817351,1.957329,-109.340004,28.77,-2.8,1729421932223.0,0.0
-4.055835,-9.296116,1.603191,-82.599998,21.629999,0.63,1729421932235.0,0.0
-4.141976,-9.595219,1.741975,-5.6,17.15,0.35,1729421932258.0,0.0
-4.443472,-8.903693,3.711268,67.410004,32.060001,8.96,1729421932277.0,0.0
-4.850252,-7.635497,4.651647,65.800003,27.719999,1.96,1729421932299.0,0.0
-4.742575,-7.783852,5.132604,-15.33,7.7,-5.11,1729421932316.0,0.0
-3.785445,-8.255238,3.235096,-68.040001,-9.59,-2.31,1729421932336.0,0.0
-4.23051,-9.712467,2.54357,-66.639999,-8.12,-2.38,1729421932357.0,0.0
-4.443472,-10.707881,1.990828,-52.43,-1.19,-16.379999,1729421932378.0,0.0
-4.089334,-8.812766,1.39023,-59.360001,7.91,-22.889999,1729421932400.0,0.0
-3.926622,-8.886944,1.09352,-47.25,16.66,-20.440001,1729421932416.0,0.0
-4.761717,-9.832108,3.661019,-20.65,9.24,-9.31,1729421932438.0,0.0
-2.658426,-7.867601,4.04387,17.639999,-1.68,-4.69,1729421932457.0,0.0
-2.464607,-6.23091,3.371487,18.34,23.17,5.11,1729421932476.0,0.0
-3.78066,-7.202396,1.430908,-41.369999,28.35,-3.22,1729421932498.0,0.0
-5.836094,-10.743774,-0.078963,-91.07,22.82,-6.93,1729421932518.0,0.0
-6.580262,-13.536198,0.311067,-73.709999,14.98,-7.98,1729421932539.0,0.0
-5.876772,-10.829915,-0.009571,-62.369999,27.719999,-19.25,1729421932559.0,0.0
-4.161119,-8.075776,0.27996,-43.470001,35.349998,-35.560001,1729421932579.0,0.0
-3.98405,-7.032506,2.837888,-22.960001,5.6,-32.34,1729421932599.0,0.0
-3.24706,-5.608776,4.309474,-4.9,-4.83,-14.14,1729421932617.0,0.0
-2.715853,-4.398008,4.065405,-25.059999,-1.33,-6.16,1729421932637.0,0.0
-2.098505,-5.690133,3.464807,-54.810001,-20.719999,4.76,1729421932660.0,0.0
-1.816152,-9.657433,2.06022,-61.599998,-34.860001,16.66,1729421932679.0,0.0
-2.055435,-11.729616,0.947558,-41.09,-26.6,13.23,1729421932700.0,0.0
-1.433301,-9.305687,0.607777,2.03,-22.120001,20.93,1729421932717.0,0.0
-1.208375,-7.467999,1.562513,39.970001,-22.33,34.439999,1729421932737.0,0.0
-2.045863,-7.771888,1.141376,34.369999,-15.4,39.060001,1729421932758.0,0.0
-3.826123,-10.121639,2.115255,38.779999,-20.370001,46.689999,1729421932779.0,0.0
-4.917251,-10.564312,1.342373,41.580002,-23.73,44.869999,1729421932802.0,0.0
-5.98445,-11.133803,-0.574277,23.1,-10.71,33.880001,1729421932818.0,0.0
-7.209574,-12.916457,-2.28036,-5.53,1.96,9.59,1729421932838.0,0.0
-8.106883,-13.959727,-1.531406,-18.9,12.46,-14.56,1729421932859.0,0.0
-7.343572,-11.765509,-0.772882,-18.48,24.15,-31.92,1729421932878.0,0.0
-6.211767,-10.442278,-0.957129,-1.82,34.720001,-53.41,1729421932900.0,0.0
-5.072784,-7.458428,0.557528,-0.91,49.07,-65.870003,1729421932918.0,0.0
-4.055835,-5.089533,1.538585,-26.040001,49.630001,-50.68,1729421932941.0,0.0
-2.758924,-5.242674,1.773082,-49.0,24.360001,-38.009998,1729421932958.0,0.0
-0.978664,-5.833702,4.386044,-28.91,-19.040001,-20.93,1729421932979.0,0.0
0.086142,-4.244867,5.321638,12.6,-25.83,13.3,1729421932999.0,0.0
-0.138784,-5.869594,5.194818,9.45,-17.15,31.92,1729421933018.0,0.0
-1.957329,-9.901501,2.701497,-70.769997,-29.82,30.66,1729421933037.0,0.0
-2.557927,-11.954542,0.40678,-67.480003,-36.82,25.83,1729421933058.0,0.0
-2.088934,-10.607382,-0.540778,7.77,-34.09,43.889999,1729421933077.0,0.0
-2.825923,-9.276974,0.29671,78.330002,-22.610001,50.259998,1729421933101.0,0.0
-4.563113,-8.585447,0.514457,108.220001,-7.28,56.98,1729421933117.0,0.0
-6.826723,-10.968699,1.064806,68.949997,6.37,43.400002,1729421933137.0,0.0
-8.171489,-11.13859,-1.081556,-10.15,5.32,12.11,1729421933157.0,0.0
-8.224132,-12.095718,-2.581856,-43.889999,15.33,0.07,1729421933179.0,0.0
-7.80778,-12.717852,-3.139383,-40.599998,14.07,-26.110001,1729421933201.0,0.0
-6.809973,-12.823137,-1.210768,8.82,18.969999,-41.860001,1729421933217.0,0.0
-6.015556,-9.856036,0.411566,35.139999,43.889999,-58.170002,1729421933239.0,0.0
-5.249853,-5.417351,0.756132,-22.960001,60.48,-67.620003,1729421933332.0,0.0
-3.629912,-4.587041,1.117448,-57.959999,20.23,-53.060001,1729421933338.0,0.0
-1.069592,-4.838287,3.17049,-51.799999,-15.33,-32.48,1729421933338.0,0.0
0.157926,-5.4676,6.407979,-15.33,-34.860001,0.84,1729421933339.0,0.0
0.504886,-5.35753,6.080163,14.63,-25.27,25.549999,1729421933339.0,0.0
-1.148555,-7.384251,4.76411,-17.15,-14.84,41.09,1729421933358.0,0.0
-3.017349,-9.664611,1.782653,-84.699997,-27.51,40.880001,1729421933377.0,0.0
-3.318845,-11.198411,-0.90688,-60.34,-38.290001,46.970001,1729421933399.0,0.0
-3.677768,-10.872985,-0.851845,13.72,-42.490002,59.57,1729421933417.0,0.0
-4.438686,-9.303294,-0.22014,86.940002,-24.85,62.23,1729421933437.0,0.0
-6.51087,-11.404193,1.342373,97.370003,-1.33,48.720001,1729421933457.0,0.0
-7.757531,-10.796415,-0.574277,22.26,-6.23,19.389999,1729421933478.0,0.0
-7.881958,-11.913863,-2.770889,-13.23,-4.06,5.32,1729421933498.0,0.0
-7.030113,-12.734602,-4.704289,-14.42,6.3,-28.139999,1729421933528.0,0.0
-6.692725,-12.03829,-2.995814,19.809999,24.85,-41.860001,1729421933538.0,0.0
-5.525027,-9.913465,-0.038285,68.25,35.07,-51.310001,1729421933557.0,0.0
-4.776074,-7.623533,0.090927,54.389999,51.099998,-55.650002,1729421933577.0,0.0
-4.419543,-7.003791,0.311067,-33.110001,40.25,-64.260002,1729421933599.0,0.0
-3.804588,-5.955735,2.136791,-63.07,15.89,-54.950001,1729421933617.0,0.0
-1.196411,-7.092326,4.345366,-4.97,-30.309999,-36.959999,1729421933637.0,0.0
0.562313,-5.977271,5.905487,33.18,-50.400002,-17.780001,1729421933658.0,0.0
-1.11027,-4.658825,5.458029,31.85,-11.55,5.74,1729421933678.0,0.0
-3.24706,-4.802395,3.328416,-18.83,6.93,12.04,1729421933698.0,0.0
-3.775874,-7.513463,1.117448,-63.420002,-18.969999,22.4,1729421933718.0,0.0
-3.400201,-10.817951,-0.272782,-61.25,-42.279999,33.950001,1729421933737.0,0.0
-2.895315,-11.806188,-0.437887,-19.110001,-38.990002,38.360001,1729421933757.0,0.0
-2.74696,-9.812965,1.196411,59.010002,-26.950001,47.040001,1729421933778.0,0.0
-3.814159,-7.60439,1.90708,97.720001,-12.11,56.420002,1729421933800.0,0.0
-5.568098,-8.606983,2.696711,63.98,-7.07,50.540001,1729421933819.0,0.0
-6.812366,-9.695717,0.923629,-18.27,-24.710001,38.150002,1729421933837.0,0.0
-6.309873,-11.832507,-1.957329,-54.18,-20.23,25.27,1729421933857.0,0.0
-5.891129,-13.208381,-3.141776,-53.689999,0.77,2.1,1729421933879.0,0.0
-6.269196,-12.466606,-1.758725,-21.559999,24.99,-11.06,1729421933899.0,0.0
-6.388836,-10.916058,0.009571,14.63,41.720001,-26.32,1729421933917.0,0.0
-6.453443,-10.353743,-1.131805,-7.14,53.48,-59.080002,1729421933938.0,0.0
-5.814559,-8.752945,0.157926,-16.450001,45.57,-66.150002,1729421933958.0,0.0
-4.807181,-7.396214,1.184447,-29.33,29.120001,-66.290001,1729421933978.0,0.0
-2.490928,-7.286145,1.136591,9.31,-2.03,-61.25,1729421934000.0,0.0
-0.339781,-5.534599,6.910471,86.660004,-27.370001,-36.119999,1729421934017.0,0.0
-0.01675,-2.09372,7.228717,109.690002,-7.63,1.68,1729421934038.0,0.0
-1.162912,-2.282753,4.510471,56.84,16.799999,12.74,1729421934058.0,0.0
-4.134798,-5.749953,3.026921,-60.689999,0.56,38.920002,1729421934078.0,0.0
-5.051248,-10.583455,1.524228,-108.220001,-32.900002,34.23,1729421934101.0,0.0
-3.364309,-12.270394,-0.59342,-78.959999,-57.049999,26.18,1729421934117.0,0.0
-2.301895,-10.789237,0.162712,18.129999,-43.189999,47.25,1729421934137.0,0.0
-3.010171,-7.886744,0.636491,85.68,-13.37,49.77,1729421934158.0,0.0
-5.371887,-8.650054,0.842274,74.269997,1.96,51.450001,1729421934178.0,0.0
-7.484749,-11.767902,-0.181855,-8.05,-5.39,25.549999,1729421934199.0,0.0
-7.190433,-14.02194,-3.160919,-58.240002,-13.09,3.57,1729421934217.0,0.0
-5.431707,-13.289737,-2.98385,-21.139999,6.93,-15.89,1729421934238.0,0.0
-5.06082,-9.856036,1.265803,61.110001,30.66,-18.48,1729421934265.0,0.0
-7.264609,-8.77448,1.801795,18.969999,65.800003,-46.34,1729421934278.0,0.0
-6.876972,-8.903693,-0.007178,-42.420002,40.529999,-63.700001,1729421934299.0,0.0
-4.517649,-8.551948,-0.37328,-70.699997,13.02,-64.82,1729421934319.0,0.0
-2.22054,-7.355537,0.021535,-33.040001,3.29,-50.470001,1729421934338.0,0.0
-0.605384,-6.965507,4.290331,54.459999,0.84,-38.990002,1729421934358.0,0.0
-1.009771,-4.539185,7.238289,101.43,18.48,-12.81,1729421934378.0,0.0
-1.820938,-2.213361,5.898308,77.489998,29.610001,4.34,1729421934399.0,0.0
-3.299703,-4.151547,3.869194,-10.22,10.5,29.120001,1729421934418.0,0.0
-4.893322,-7.501499,1.95015,-104.510002,-15.54,33.529999,1729421934440.0,0.0
-4.283153,-10.030712,-0.267996,-95.970001,-38.080002,32.689999,1729421934458.0,0.0
-3.699304,-12.760924,1.596013,-16.1,-48.16,39.759998,1729421934478.0,0.0
-3.306881,-9.317651,1.131805,34.16,-35.84,39.970001,1729421934512.0,0.0
-4.615755,-8.673983,1.036092,50.889999,-7.77,45.5,1729421934517.0,0.0
-6.300302,-10.621738,0.047856,-10.08,-15.75,29.889999,1729421934539.0,0.0
-6.45105,-13.313664,-3.072384,-62.580002,-18.200001,-2.87,1729421934558.0,0.0
-6.190232,-12.703495,-2.225325,-23.66,6.23,-9.17,1729421934578.0,0.0
-5.79063,-11.660224,-0.256032,32.549999,20.16,-23.52,1729421934600.0,0.0
-6.338587,-10.210175,0.294317,27.440001,36.610001,-44.939999,1729421934618.0,0.0
-5.881558,-8.95155,-0.256032,-2.52,41.09,-60.34,1729421934640.0,0.0
-4.441079,-7.965706,-0.014357,-26.32,24.99,-66.709999,1729421934659.0,0.0
-2.289931,-7.853244,0.739382,10.92,-4.13,-57.119999,1729421934680.0,0.0
-0.538385,-6.695118,5.886343,86.940002,-14.98,-32.619999,1729421934700.0,0.0
0.524028,-3.383451,6.396015,126.910004,-0.28,-1.47,1729421934719.0,0.0
0.437887,-2.055435,4.929214,114.449997,18.200001,17.360001,1729421934739.0,0.0
-2.306681,-3.474378,3.948158,30.940001,25.76,51.170002,1729421934760.0,0.0
-4.941179,-6.702296,3.067599,-48.09,27.860001,59.290001,1729421934779.0,0.0
-5.618347,-9.399008,2.234896,-68.040001,-1.4,53.900002,1729421934804.0,0.0
-4.709075,-10.573883,1.150948,-60.689999,-19.530001,55.510002,1729421934820.0,0.0
-5.103891,-13.323236,2.227718,-30.1,-31.219999,48.650002,1729421934841.0,0.0
-4.972286,-10.095319,1.811367,33.25,-30.940001,37.029999,1729421934860.0,0.0
-5.661418,-8.99462,1.481157,47.18,-6.79,24.780001,1729421934880.0,0.0
-6.975078,-10.143176,0.457029,-5.67,-13.37,-0.35,1729421934901.0,0.0
-7.204789,-11.983256,-1.344766,-39.970001,-18.34,-6.16,1729421934920.0,0.0
-6.046663,-11.456835,-1.497907,-29.26,-5.81,-25.76,1729421934939.0,0.0
-5.580062,-11.547763,0.253639,11.13,5.67,-29.960001,1729421934960.0,0.0
-6.058627,-11.377872,0.614955,18.48,30.380001,-54.810001,1729421934984.0,0.0
-6.271588,-9.463614,0.18664,13.16,58.029999,-72.099998,1729421935001.0,0.0
-6.151947,-6.673582,1.055235,-13.16,65.029999,-75.669998,1729421935020.0,0.0
-5.362316,-4.962714,-0.332602,-46.130001,39.900002,-70.840004,1729421935040.0,0.0
-1.986043,-8.226524,3.4672,8.19,-11.76,-65.029999,1729421935060.0,0.0
0.0335,-5.828916,6.032306,52.43,-22.889999,-22.960001,1729421935079.0,0.0
0.392423,-3.177669,5.687739,97.860001,17.639999,-5.74,1729421935105.0,0.0
-1.820938,-2.490928,4.350152,58.59,38.920002,15.26,1729421935121.0,0.0
-4.063013,-4.110869,3.976871,-21.84,26.18,41.09,1729421935140.0,0.0
-4.132405,-6.273981,2.500499,-70.0,-7.35,54.599998,1729421935159.0,0.0
-4.54397,-14.081761,2.723032,-70.209999,-34.16,63.98,1729421935180.0,0.0
-3.704089,-11.746366,0.727418,-14.35,-55.580002,45.220001,1729421935204.0,0.0
-4.510471,-9.49472,1.727618,65.029999,-13.3,73.150002,1729421935219.0,0.0
-6.793223,-10.025927,1.344766,24.219999,-2.8,35.91,1729421935239.0,0.0
-8.255238,-11.361122,-1.533799,-54.810001,-14.77,16.59,1729421935260.0,0.0
-6.872187,-13.093525,-1.820938,-58.170002,-21.0,-1.89,1729421935279.0,0.0
-5.402994,-12.873385,-0.753739,-25.059999,-9.73,-19.67,1729421935302.0,0.0
-5.513064,-11.662617,0.083749,16.309999,22.469999,-41.299999,1729421935319.0,0.0
-6.18784,-9.652647,0.083749,29.049999,52.290001,-60.689999,1729421935340.0,0.0
-6.051448,-8.149954,-0.368495,8.89,53.830002,-70.489998,1729421935359.0,0.0
-4.953143,-7.460821,-0.038285,-28.280001,41.369999,-73.080002,1729421935379.0,0.0
-3.802195,-6.726225,1.404587,-46.41,13.93,-67.129997,1729421935402.0,0.0
-1.12702,-7.79103,4.673182,14.07,-18.9,-56.349998,1729421935419.0,0.0
-0.323031,-5.486742,6.991827,60.830002,-10.5,-29.120001,1729421935439.0,0.0
-0.701097,-2.651247,6.039484,75.599998,11.48,-12.53,1729421935460.0,0.0
-1.87358,-2.562713,4.48415,32.549999,9.52,19.389999,1729421935479.0,0.0
-3.838088,-4.98425,3.177669,-59.709999,-6.93,43.400002,1729421935500.0,0.0
-4.141976,-9.212367,0.244068,-106.889999,-27.02,45.080002,1729421935519.0,0.0
-4.158726,-13.442878,1.706082,-39.830002,-52.43,51.310001,1729421935540.0,0.0
-4.261617,-11.152946,0.894916,-2.03,-49.349998,52.920002,1729421935559.0,0.0
-5.553742,-10.191031,1.385444,35.209999,-20.02,61.25,1729421935581.0,0.0
-6.692725,-11.014162,-0.301496,-8.05,-14.7,28.49,1729421935611.0,0.0
-6.912865,-12.595818,-2.801995,-50.470001,-19.950001,8.05,1729421935619.0,0.0
-5.855237,-13.840086,-3.316452,-23.940001,-12.67,-14.21,1729421935639.0,0.0
-5.386244,-12.342178,-2.292324,25.41,16.940001,-28.98,1729421935659.0,0.0
-5.173282,-10.547562,0.545564,66.919998,31.99,-36.540001,1729421935680.0,0.0
-4.87418,-9.671788,0.057428,40.529999,45.150002,-53.549999,1729421935701.0,0.0
-4.431508,-8.719445,-0.9667,-15.75,55.510002,-70.840004,1729421935720.0,0.0
-3.586841,-7.752745,0.064606,-43.540001,53.619999,-63.420002,1729421935740.0,0.0
-3.292524,-6.266802,2.124826,-63.139999,39.619999,-53.130001,1729421935760.0,0.0
-1.481157,-7.913064,3.756732,-12.81,-0.49,-45.990002,1729421935781.0,0.0
-0.98345,-5.534599,6.324231,46.48,-4.41,-21.280001,1729421935800.0,0.0
-0.899701,-1.179662,6.417551,109.900002,14.35,11.76,1729421935820.0,0.0
-1.761117,-1.071985,5.300103,92.540001,25.059999,43.049999,1729421935839.0,0.0
-6.76451,-7.267002,1.785046,-41.650002,21.49,57.189999,1729421935859.0,0.0
-7.642675,-12.143576,-1.775474,-150.430008,-21.280001,31.5,1729421935880.0,0.0
-5.345565,-13.536198,-1.39023,-64.120003,-76.580002,42.84,1729421935901.0,0.0
-3.945765,-9.822537,0.507278,34.860001,-42.84,50.68,1729421935919.0,0.0
-5.503492,-7.116255,1.634298,74.199997,-8.82,41.93,1729421935940.0,0.0
-8.171489,-5.699703,2.143969,23.940001,-10.99,32.549999,1729421935959.0,0.0
-8.427521,-6.020342,1.710868,-54.18,-50.049999,22.049999,1729421935979.0,0.0
-7.049256,-8.269595,0.150748,-134.75,-78.470001,10.43,1729421936001.0,0.0
-4.936393,-10.298709,-0.5001,-175.210007,-91.489998,-5.53,1729421936019.0,0.0
-4.666004,-10.250853,-0.035892,-202.440002,-71.540001,2.66,1729421936040.0,0.0
-4.522435,-8.736196,-0.143569,-226.589996,-50.049999,-7.0,1729421936060.0,0.0
-4.216154,-8.16431,-2.644069,-256.339996,-39.27,-12.81,1729421936079.0,0.0
-3.565305,-8.587841,-4.682754,-265.160004,-49.139999,-12.18,1729421936106.0,0.0
-2.665605,-8.750552,-5.905487,-230.509995,-44.66,-4.34,1729421936121.0,0.0
-2.347359,-9.743573,-5.446064,-173.320007,-16.940001,-2.59,1729421936138.0,0.0
-2.85703,-10.317852,-6.460621,-126.629997,9.52,-1.26,1729421936159.0,0.0
-3.400201,-9.597611,-5.912664,-74.760002,25.41,3.22,1729421936179.0,0.0
-3.493521,-9.157332,-6.506085,-25.27,37.240002,-1.47,1729421936201.0,0.0
-3.799802,-9.116654,-4.273581,-15.05,39.970001,-8.89,1729421936219.0,0.0
-3.826123,-8.867801,-4.575077,-28.49,33.740002,-17.219999,1729421936239.0,0.0
-3.751946,-7.721639,-5.103891,-26.950001,30.870001,-21.77,1729421936259.0,0.0
-3.850052,-7.707282,-5.525027,-2.31,27.02,-7.7,1729421936280.0,0.0
-3.991228,-7.389036,-5.051248,7.14,36.68,-7.28,1729421936309.0,0.0
-4.922036,-7.410572,-4.553542,-14.35,50.82,-2.8,1729421936318.0,0.0
-5.553742,-8.25763,-4.45065,-41.369999,44.66,-10.36,1729421936341.0,0.0
-4.266403,-9.030513,-6.082555,-21.559999,14.63,-9.24,1729421936360.0,0.0
-1.5003,-6.585048,-4.656433,24.290001,19.950001,7.14,1729421936379.0,0.0
-4.201797,-9.394222,3.998406,7.56,2.24,10.5,1729421936401.0,0.0
-3.536592,-10.188639,-0.246461,-18.059999,-16.59,-25.48,1729421936419.0,0.0
-4.185047,-7.925028,-1.986043,-22.889999,-5.74,-8.68,1729421936440.0,0.0
-3.113062,-7.104291,-2.885744,2.87,-18.129999,-9.94,1729421936460.0,0.0
-3.290131,-7.62114,-4.4339,15.33,-16.379999,9.94,1729421936481.0,0.0
-3.739982,-7.738388,-4.67079,21.629999,-11.41,14.42,1729421936503.0,0.0
-4.091727,-7.623533,-4.508078,25.620001,-12.32,21.35,1729421936520.0,0.0
-4.194618,-7.616355,-5.503492,8.47,-18.83,17.5,1729421936540.0,0.0
-4.180261,-7.9681,-5.474778,-2.66,-28.559999,14.7,1729421936560.0,0.0
-4.338188,-7.948956,-5.345565,-12.46,-32.970001,12.04,1729421936581.0,0.0
-5.426922,-7.724032,-5.163712,-26.18,-22.4,3.92,1729421936602.0,0.0
-5.869594,-8.894121,-6.817152,-11.06,-15.33,-0.35,1729421936620.0,0.0
-5.534599,-8.018349,-7.877172,8.96,-4.55,-1.26,1729421936640.0,0.0
-5.108676,-7.846066,-7.951349,26.530001,30.52,2.31,1729421936661.0,0.0
-5.237889,-8.025528,-5.388636,16.940001,33.670002,-2.87,1729421936681.0,0.0
-4.488935,-7.688138,-6.539584,30.17,26.110001,1.12,1729421936702.0,0.0
-3.95055,-6.601797,-6.02752,41.509998,49.0,6.93,1729421936721.0,0.0
-4.522435,-5.56092,-3.907479,10.64,65.239998,8.47,1729421936740.0,0.0
-5.642276,-7.180861,1.667797,-24.43,53.830002,7.56,1729421936761.0,0.0
-3.76391,-11.045268,0.342174,-42.209999,-40.950001,-14.42,1729421936781.0,0.0
-2.050649,-8.88455,-1.56012,-14.56,-31.360001,-13.02,1729421936803.0,0.0
-2.050649,-7.262216,-2.35693,-7.21,-5.18,-11.06,1729421936821.0,0.0
-3.460021,-7.905886,-4.424329,-13.86,-3.08,-3.64,1729421936842.0,0.0
-4.744967,-8.863015,-4.701896,-6.23,-3.01,2.66,1729421936861.0,0.0
-3.869194,-8.090133,-4.115655,11.34,-20.719999,5.39,1729421936881.0,0.0
-2.945565,-7.329216,-3.711268,4.62,-36.259998,8.54,1729421936903.0,0.0
-3.335595,-7.238289,-4.943572,-19.809999,-34.299999,6.93,1729421936921.0,0.0
-4.864608,-9.01137,-5.218746,-36.959999,-21.559999,-3.64,1729421936941.0,0.0
-5.84088,-8.834301,-6.24766,-29.610001,-16.17,-8.26,1729421936962.0,0.0
-6.080163,-8.245667,-7.755138,18.200001,0.84,1.75,1729421936982.0,0.0
-5.525027,-8.181061,-7.348359,44.59,21.280001,-5.32,1729421937003.0,0.0
-5.558527,-8.195417,-4.378866,36.400002,20.65,4.9,1729421937026.0,0.0
-5.012963,-8.02792,-5.252246,24.5,7.49,-1.89,1729421937042.0,0.0
-4.627719,-7.470392,-6.106483,32.970001,18.690001,-5.46,1729421937061.0,0.0
-4.426722,-6.525227,-6.752545,47.740002,46.970001,-1.68,1729421937082.0,0.0
-4.795217,-5.046463,-2.443072,42.209999,64.470001,8.47,1729421937106.0,0.0
-5.431707,-7.367501,0.007178,-37.939999,16.450001,1.54,1729421937121.0,0.0
-4.084548,-9.521042,-1.002593,-62.02,-42.77,-9.31,1729421937141.0,0.0
-2.440679,-8.965906,-2.938386,-31.43,-40.040001,-4.9,1729421937161.0,0.0
-2.842674,-8.169096,-3.795017,-3.15,-0.77,-5.67,1729421937181.0,0.0
-4.381258,-8.020741,-2.861816,1.26,18.48,-2.03,1729421937204.0,0.0
-4.383651,-7.386643,-3.168097,2.52,-7.0,5.67,1729421937221.0,0.0
-3.361916,-7.51107,-4.496114,-1.61,-31.639999,11.48,1729421937241.0,0.0
-3.249453,-8.075776,-5.271388,-16.309999,-31.5,7.84,1729421937261.0,0.0
-3.912265,-8.286345,-4.206582,-18.34,-24.639999,7.84,1729421937281.0,0.0
-4.26401,-7.728817,-4.156333,-27.370001,-26.389999,5.39,1729421937304.0,0.0
-5.058427,-7.465607,-5.039285,-57.049999,-26.530001,-1.68,1729421937321.0,0.0
-6.735795,-7.88435,-5.864808,-54.389999,-19.25,-7.7,1729421937341.0,0.0
-6.84108,-9.688539,-9.339187,-10.22,2.8,-5.25,1729421937361.0,0.0
-5.54417,-8.353344,-7.877172,29.540001,2.94,-6.23,1729421937381.0,0.0
-4.587041,-7.278966,-5.268995,52.920002,18.690001,6.09,1729421937405.0,0.0
-4.910072,-7.030113,-5.553742,23.24,27.09,-5.67,1729421937421.0,0.0
-4.689932,-5.395815,-5.91745,14.84,41.02,-8.96,1729421937441.0,0.0
-5.158926,-4.663611,-1.756332,-2.94,55.369999,11.13,1729421937461.0,0.0
-5.493921,-8.444271,-1.347159,-57.75,13.93,-8.05,1729421937481.0,0.0
-4.436293,-9.915856,-1.916651,-45.57,-43.259998,-12.6,1729421937503.0,0.0
-3.034099,-8.944371,-3.261417,7.77,-13.65,-2.66,1729421937521.0,0.0
-3.038885,-8.090133,-3.440879,20.790001,13.51,-13.72,1729421937541.0,0.0
-3.876373,-8.003991,-2.672783,3.08,8.54,-5.39,1729421937561.0,0.0
-3.498307,-7.843673,-3.696911,-5.25,-20.860001,-2.17,1729421937581.0,0.0
-3.342773,-7.274181,-5.070391,-3.57,-22.960001,2.94,1729421937602.0,0.0
-3.656233,-7.77428,-5.103891,-3.85,-14.07,1.19,1729421937621.0,0.0
-3.725625,-7.554141,-4.668397,-13.58,-21.42,-0.07,1729421937641.0,0.0
-3.897908,-6.769295,-4.914857,-21.280001,-22.82,3.71,1729421937660.0,0.0
-4.110869,-6.623333,-6.403193,-38.779999,-19.040001,0.77,1729421937681.0,0.0
-5.472386,-7.441679,-6.489335,-46.130001,-15.33,-6.65,1729421937702.0,0.0
-6.869793,-7.88435,-8.800802,-14.77,17.85,-1.4,1729421937720.0,0.0
-6.367301,-7.980063,-7.82453,29.120001,16.940001,-2.66,1729421937741.0,0.0
-5.307281,-6.771688,-5.580062,19.67,7.77,8.19,1729421937761.0,0.0
-4.768896,-8.10449,-4.34058,-2.31,-8.68,4.41,1729421937781.0,0.0
-5.051248,-7.015756,-4.558327,-1.33,15.89,-2.45,1729421937802.0,0.0
-5.74756,-6.022735,-5.369494,-10.29,46.34,-8.26,1729421937820.0,0.0
-5.639884,-6.98465,-6.728617,-24.290001,33.32,-7.84,1729421937840.0,0.0
-4.362115,-7.709675,-2.06022,-17.99,-0.21,2.73,1729421937861.0,0.0
-2.809174,-8.810372,-2.474179,-3.85,-19.25,-0.35,1729421937882.0,0.0
-3.199204,-8.678767,-2.189433,4.62,7.14,-6.23,1729421937903.0,0.0
-3.292524,-7.250252,-2.620141,6.44,9.94,-14.42,1729421937920.0,0.0
-3.479164,-7.080362,-3.156133,-4.55,-8.82,-5.95,1729421937940.0,0.0
-3.809374,-8.11167,-4.395615,-9.24,-15.33,1.05,1729421937961.0,0.0
-3.586841,-8.901299,-4.488935,1.26,-17.360001,2.87,1729421937981.0,0.0
-2.993421,-8.317451,-4.656433,7.49,-24.360001,0.28,1729421938005.0,0.0
-3.668197,-7.190433,-4.615755,4.41,-18.549999,-0.07,1729421938020.0,0.0
-4.797609,-7.300502,-4.398008,-3.15,-8.96,-4.06,1729421938105.0,0.0
-6.400801,-6.738188,-4.886144,-27.23,-9.24,-10.5,1729421938106.0,0.0
-7.144968,-7.771888,-7.563712,-5.18,2.52,-1.61,1729421938107.0,0.0
-6.058627,-8.566305,-7.410572,14.49,-14.63,-5.6,1729421938110.0,0.0
-5.407779,-7.405786,-7.130611,29.889999,-8.68,4.55,1729421938119.0,0.0
-5.249853,-7.403394,-5.458029,35.349998,16.52,-5.32,1729421938140.0,0.0
-5.407779,-7.724032,-4.646862,40.740002,11.69,-0.56,1729421938172.0,0.0
-5.017749,-7.786245,-7.168896,57.959999,29.82,-3.43,1729421938179.0,0.0
-5.261817,-5.051248,-4.878965,62.720001,57.330002,4.41,1729421938201.0,0.0
-5.943772,-4.481757,-2.888137,14.98,54.880001,7.42,1729421938237.0,0.0
-5.587241,-7.140182,-0.806381,-52.220001,2.24,-9.45,1729421938240.0,0.0
-3.931407,-10.236496,-2.54357,-71.470001,-51.73,-14.35,1729421938302.0,0.0
-2.206182,-9.956534,-3.546163,-27.860001,-41.650002,-12.67,1729421938303.0,0.0
-2.658426,-8.171489,-3.629912,14.42,8.33,-7.42,1729421938304.0,0.0
-4.055835,-7.879565,-2.708675,23.379999,27.370001,-8.4,1729421938327.0,0.0
-4.115655,-7.317252,-2.347359,2.66,-1.05,-6.37,1729421938339.0,0.0
-3.309274,-7.288538,-3.182454,-17.57,-34.93,-2.94,1729421938359.0,0.0
-3.014957,-8.118847,-5.218746,-13.23,-38.709999,-0.49,1729421938381.0,0.0
-3.493521,-8.336594,-5.903094,7.7,-22.610001,-0.49,1729421938402.0,0.0
-4.192225,-7.599605,-5.580062,15.82,-9.87,0.91,1729421938420.0,0.0
-4.156333,-6.759724,-4.725825,-5.18,-25.969999,1.54,1729421938440.0,0.0
-4.476971,-6.034698,-4.335794,-64.260002,-43.75,-1.4,1729421938460.0,0.0
-6.266802,-7.317252,-6.908078,-77.349998,-21.139999,-5.6,1729421938480.0,0.0
-6.075377,-8.228917,-10.021141,-42.0,-12.32,-14.77,1729421938502.0,0.0
-6.400801,-8.228917,-8.839087,12.74,2.17,10.64,1729421938522.0,0.0
-5.623133,-8.008778,-7.456036,69.860001,13.72,7.07,1729421938540.0,0.0
-5.479564,-7.243074,-5.474778,84.0,31.219999,6.44,1729421938560.0,0.0
-5.915058,-6.910471,-5.266603,70.139999,40.110001,-0.35,1729421938581.0,0.0
-5.496314,-6.592227,-6.381658,49.0,56.420002,-1.82,1729421938602.0,0.0
-5.551349,-6.946364,-6.721439,27.719999,50.470001,2.1,1729421938620.0,0.0
-3.854837,-4.979464,-3.503092,39.27,49.279999,10.08,1729421938641.0,0.0
-4.811966,-6.190232,3.388237,-11.62,19.18,14.91,1729421938660.0,0.0
-3.622734,-9.054441,0.385244,-64.540001,-38.150002,-22.610001,1729421938680.0,0.0
-3.378666,-8.695518,-3.378666,-51.66,-28.0,-5.11,1729421938702.0,0.0
-3.625126,-8.037491,-2.962314,-17.99,1.19,-5.04,1729421938721.0,0.0
-4.733003,-8.784052,-1.974079,-12.81,5.53,3.71,1729421938740.0,0.0
-3.912265,-7.980063,-2.62732,-9.24,-20.440001,4.76,1729421938761.0,0.0
-3.5007,-7.805387,-4.737789,-8.4,-23.17,7.98,1729421938780.0,0.0
-4.187439,-8.513663,-5.649454,-34.650002,-16.870001,-2.24,1729421938801.0,0.0
-4.488935,-8.726624,-5.910272,-35.0,-22.33,-3.08,1729421938820.0,0.0
-4.326223,-7.398607,-5.197211,-20.02,-28.77,2.73,1729421938841.0,0.0
-4.06062,-6.91765,-5.07757,-18.34,-23.450001,7.0,1729421938861.0,0.0
-4.766503,-5.766702,-5.180461,-40.25,-22.120001,1.12,1729421938881.0,0.0
-7.049256,-7.226324,-5.338387,-39.759998,-1.26,3.92,1729421938901.0,0.0
-6.611369,-8.456236,-9.200402,-22.120001,-9.17,-16.52,1729421938921.0,0.0
-6.281159,-7.601997,-9.934999,1.05,3.29,-5.25,1729421938942.0,0.0
-5.886343,-7.202396,-7.568498,42.139999,23.66,-1.05,1729421938960.0,0.0
-5.761917,-7.465607,-5.199604,66.709999,33.880001,-0.21,1729421939072.0,0.0
-5.601598,-6.884151,-6.494121,69.93,46.619999,-7.98,1729421939076.0,0.0
-5.615955,-5.757132,-6.532406,62.860001,65.590004,-4.41,1729421939082.0,0.0
-5.592027,-3.976871,-4.936393,25.129999,69.160004,0.14,1729421939083.0,0.0
-6.053841,-5.570491,2.550749,-31.5,53.619999,3.22,1729421939084.0,0.0
-4.333402,-9.171689,-1.088734,-99.400002,-43.75,-20.860001,1729421939085.0,0.0
-2.512464,-10.861022,-2.330609,-57.889999,-62.16,-19.25,1729421939107.0,0.0
-2.720639,-7.829315,-3.242275,-9.73,-3.29,-14.14,1729421939120.0,0.0
-4.13719,-7.599605,-2.495714,-4.69,19.530001,-13.72,1729421939139.0,0.0
-4.261617,-7.63789,-3.428915,-15.26,-16.940001,-3.85,1729421939159.0,0.0
-3.773481,-7.896315,-4.601398,-14.98,-33.389999,-1.96,1729421939179.0,0.0
-3.713661,-7.563712,-5.505885,-8.89,-26.18,-3.15,1729421939201.0,0.0
-4.072584,-7.300502,-5.838487,-4.9,-14.21,-4.62,1729421939219.0,0.0
-4.524827,-6.608976,-5.008178,-14.28,-19.32,-1.12,1729421939239.0,0.0
-4.625326,-6.374479,-5.149354,-31.290001,-32.48,4.13,1729421939259.0,0.0
-4.61097,-7.881958,-5.276174,-38.290001,-46.48,2.94,1729421939279.0,0.0
-5.895915,-7.338787,-5.125426,-27.65,-27.93,-3.15,1729421939302.0,0.0
-6.474977,-8.044669,-9.353544,23.030001,12.04,-0.84,1729421939319.0,0.0
-6.549156,-6.774081,-7.781459,38.080002,13.79,-6.09,1729421939338.0,0.0
-6.285945,-7.496714,-7.283752,34.439999,17.99,7.63,1729421939359.0,0.0
-5.113462,-7.412964,-5.367101,34.790001,3.43,2.66,1729421939379.0,0.0
-4.388437,-7.422535,-6.233303,44.869999,7.14,3.99,1729421939402.0,0.0
-4.345366,-7.259824,-8.042276,57.330002,41.09,-0.49,1729421939420.0,0.0
-5.022535,-5.742774,-7.173682,51.240002,71.190002,2.17,1729421939439.0,0.0
-5.563312,-5.249853,2.065006,33.389999,73.150002,11.55,1729421939459.0,0.0
-4.244867,-8.956335,0.074178,-78.260002,-30.030001,-17.08,1729421939479.0,0.0
-2.639283,-10.207782,-2.809174,-69.300003,-66.639999,-16.870001,1729421939500.0,0.0
-2.148755,-7.999206,-3.668197,-15.47,-19.25,-6.02,1729421939519.0,0.0
-3.684947,-7.872386,-3.826123,14.77,24.710001,-7.35,1729421939539.0,0.0
-5.52742,-8.147561,-3.605984,12.11,28.77,-2.03,1729421939558.0,0.0
-5.125426,-8.030313,-4.599005,22.889999,-9.1,6.37,1729421939579.0,0.0
-3.859623,-7.551748,-5.192425,21.07,-27.299999,7.14,1729421939600.0,0.0
-3.838088,-7.728817,-5.211568,8.89,-23.52,4.83,1729421939618.0,0.0
-4.371687,-6.838687,-4.697111,-9.45,-16.030001,1.89,1729421939638.0,0.0
-4.685147,-6.403193,-4.867002,-17.290001,-18.76,4.97,1729421939659.0,0.0
-6.477371,-6.175875,-4.302295,-22.960001,-7.07,5.67,1729421939679.0,0.0
-6.707082,-8.930015,-8.475377,2.31,0.28,1.47,1729421939700.0,0.0
-6.498906,-7.848458,-7.56132,22.960001,-8.12,-0.07,1729421939719.0,0.0
-5.69731,-7.817351,-7.970492,64.889999,22.190001,16.450001,1729421939738.0,0.0
-4.979464,-7.262216,-5.692525,67.970001,31.08,3.08,1729421939758.0,0.0
-4.807181,-7.109076,-7.264609,54.810001,43.75,-0.21,1729421939779.0,0.0
-4.82393,-4.737789,-4.74736,44.869999,64.75,3.01,1729421939799.0,0.0
-5.611169,-5.79063,3.079563,5.6,50.540001,9.59,1729421939818.0,0.0
-4.058227,-9.073583,-1.036092,-68.739998,-23.1,-20.23,1729421939838.0,0.0
-2.964707,-10.169496,-2.287539,-67.129997,-44.869999,-22.190001,1729421939858.0,0.0
-2.306681,-7.829315,-3.397808,-34.720001,-15.96,-17.43,1729421939878.0,0.0
-3.211168,-7.396214,-3.974478,-24.01,16.799999,-17.710001,1729421939901.0,0.0
-4.56072,-7.566105,-4.426722,-36.82,11.48,-13.440001,1729421939918.0,0.0
-4.788038,-7.267002,-5.412565,-29.4,-6.23,-5.53,1729421939938.0,0.0
-4.666004,-6.616155,-5.032106,-28.49,-13.23,-2.03,1729421939959.0,0.0
-4.917251,-6.60419,-4.508078,-39.830002,-25.27,-3.36,1729421939979.0,0.0
-4.888536,-6.441479,-5.326423,-40.880001,-30.17,3.08,1729421939999.0,0.0
-5.194818,-6.69751,-5.99402,-36.189999,-19.530001,6.93,1729421940019.0,0.0
-6.448657,-7.700103,-6.494121,-26.110001,-1.68,5.6,1729421940039.0,0.0
-7.45125,-8.085347,-7.623533,4.9,16.940001,2.52,1729421940059.0,0.0
-6.374479,-7.874779,-8.013563,42.77,23.52,0.49,1729421940081.0,0.0
-5.192425,-6.206983,-6.104091,23.799999,18.83,0.91,1729421940107.0,0.0
-4.378866,-6.85783,-6.037091,6.02,8.33,-4.55,1729421940119.0,0.0
-4.019942,-7.551748,-7.551748,-3.36,28.77,-6.02,1729421940139.0,0.0
-4.132405,-6.123233,-6.355337,-2.45,45.849998,-2.87,1729421940160.0,0.0
-4.395615,-6.025128,-3.328416,-7.77,48.369999,2.31,1729421940179.0,0.0
-4.149154,-8.300702,-3.273381,-45.009998,16.66,-9.94,1729421940201.0,0.0
-2.761317,-11.131411,-2.069792,-60.549999,-25.76,-28.0,1729421940219.0,0.0
-0.976272,-8.721838,-1.356731,-38.639999,-55.369999,-23.379999,1729421940240.0,0.0
-0.954736,-6.441479,-2.660819,1.19,-21.0,-18.9,1729421940259.0,0.0
-3.108276,-6.271588,-4.189832,-11.48,13.16,-17.5,1729421940279.0,0.0
-5.656632,-7.302894,-4.278367,-26.32,17.5,-9.45,1729421940302.0,0.0
-5.702096,-7.628319,-5.754738,-18.059999,-19.18,-3.5,1729421940322.0,0.0
-4.194618,-6.520442,-5.659025,-9.24,-51.799999,8.75,1729421940339.0,0.0
-4.005585,-6.51087,-5.742774,-14.98,-49.77,13.65,1729421940359.0,0.0
-4.704289,-7.353144,-8.817552,-5.18,-27.58,8.96,1729421940379.0,0.0
-7.99442,-7.735995,-6.407979,35.91,19.950001,11.97,1729421940402.0,0.0
-8.090133,-8.425128,-11.332408,96.32,58.450001,5.04,1729421940419.0,0.0
-6.58744,-5.515456,-6.656832,101.57,38.150002,13.440001,1729421940439.0,0.0
-4.596612,-6.161518,-5.886343,55.650002,19.67,13.3,1729421940460.0,0.0
-3.816552,-6.032306,-7.262216,14.84,22.120001,0.35,1729421940481.0,0.0
-4.007978,-5.656632,-2.079363,4.76,44.799999,11.97,1729421940500.0,0.0
-4.156333,-7.436893,1.864009,-53.760002,6.51,-4.06,1729421940519.0,0.0
-2.754139,-10.815558,-4.108476,-73.43,-76.090004,-26.950001,1729421940539.0,0.0
-2.062613,-8.669197,-5.13739,-41.09,-46.41,-14.84,1729421940559.0,0.0
-2.804388,-7.101898,-5.345565,6.09,1.82,-8.47,1729421940579.0,0.0
-4.323831,-7.21436,-5.17089,4.34,18.969999,-7.77,1729421940601.0,0.0
-5.06082,-7.444071,-4.969893,-6.86,1.61,-1.75,1729421940619.0,0.0
-4.185047,-6.805188,-5.766702,-1.19,-27.93,0.77,1729421940639.0,0.0
-3.909872,-6.443871,-5.970093,-0.63,-33.18,2.1,1729421940660.0,0.0
-4.668397,-6.02752,-6.056234,-7.84,-16.59,3.01,1729421940679.0,0.0
-5.462814,-6.192625,-5.867201,-8.75,-9.94,4.48,1729421940701.0,0.0
-5.331209,-6.144768,-5.47717,-20.93,-23.870001,5.67,1729421940720.0,0.0
-5.235496,-6.762117,-5.216353,-40.389999,-38.5,4.76,1729421940739.0,0.0
-6.484549,-7.173682,-4.797609,-27.93,-25.549999,5.95,1729421940759.0,0.0
-6.319445,-8.312666,-10.131211,10.01,5.67,-7.28,1729421940779.0,0.0
-6.18784,-7.02772,-7.15454,30.1,23.52,-1.47,1729421940802.0,0.0
-5.465207,-7.444071,-6.422336,26.110001,23.030001,-5.25,1729421940820.0,0.0
-4.558327,-8.003991,-7.463214,24.92,9.94,-7.35,1729421940838.0,0.0
-4.13719,-6.98465,-7.958528,37.73,32.830002,-8.33,1729421940859.0,0.0
-4.292724,-5.632704,-7.360322,43.330002,71.82,-7.7,1729421940878.0,0.0
-4.508078,-5.084748,-2.359323,34.860001,77.279999,3.5,1729421940902.0,0.0
-4.577469,-6.881758,1.938186,-30.870001,26.950001,-6.23,1729421940920.0,0.0
-3.24706,-10.492528,-1.842474,-62.650002,-47.670002,-30.1,1729421940939.0,0.0
-2.165504,-9.023334,-3.632305,-46.48,-32.759998,-24.219999,1729421940958.0,0.0
-1.95015,-7.307681,-3.905087,-19.32,-6.44,-21.210001,1729421940979.0,0.0
-3.136991,-7.243074,-5.166104,-13.51,3.78,-11.34,1729421941000.0,0.0
-4.510471,-7.508677,-5.469993,3.43,7.35,-2.73,1729421941019.0,0.0
-4.941179,-7.379465,-5.594419,28.35,-1.4,3.57,1729421941040.0,0.0
-4.9675,-6.233303,-5.072784,28.42,-10.22,5.67,1729421941060.0,0.0
-4.900501,-5.869594,-5.479564,14.91,-17.15,9.66,1729421941081.0,0.0
-4.905287,-6.396015,-5.958128,-11.55,-25.549999,9.31,1729421941109.0,0.0
-5.144568,-7.676175,-6.721439,-44.450001,-32.130001,0.49,1729421941120.0,0.0
-6.594619,-7.886744,-6.546762,-39.34,-20.51,-6.16,1729421941138.0,0.0
-6.204589,-8.051848,-9.521042,52.43,32.27,-3.99,1729421941158.0,0.0
-5.584848,-6.9679,-6.833901,69.370003,34.369999,1.33,1729421941179.0,0.0
-5.161318,-6.970293,-5.635098,41.16,29.33,-2.87,1729421941201.0,0.0
-4.551149,-6.994221,-7.649854,28.559999,26.25,-9.24,1729421941218.0,0.0
-3.795017,-5.321638,-6.85783,36.82,43.540001,-1.05,1729421941238.0,0.0
-3.495914,-4.814359,-3.388237,24.219999,61.810001,7.7,1729421941260.0,0.0
-4.445865,-6.62094,1.057628,-49.0,29.75,-0.7,1729421941280.0,0.0
-3.512664,-10.911271,-2.766103,-81.129997,-38.290001,-28.139999,1729421941300.0,0.0
-1.852045,-9.52822,-3.438486,-56.84,-56.490002,-20.09,1729421941318.0,0.0
-0.971486,-6.939186,-4.335794,-15.26,-29.4,-13.440001,1729421941338.0,0.0
-2.591427,-6.675975,-4.955536,-17.99,6.58,-5.53,1729421941357.0,0.0
-4.551149,-7.475177,-5.723632,-34.509998,19.809999,-7.56,1729421941378.0,0.0
-5.302495,-7.381857,-6.398407,-20.860001,-3.5,-3.15,1729421941404.0,0.0
-4.706682,-6.343372,-6.151947,-0.91,-24.57,3.36,1729421941418.0,0.0
-4.244867,-5.070391,-5.520242,-17.5,-28.98,7.49,1729421941439.0,0.0
-4.661219,-5.833702,-5.130211,-41.860001,-28.210001,6.86,1729421941458.0,0.0
-5.458029,-7.575676,-6.350551,-60.830002,-25.969999,0.35,1729421941478.0,0.0
-6.216553,-7.41775,-7.341179,-25.549999,-15.89,3.71,1729421941500.0,0.0
-7.252645,-7.640282,-9.164511,38.920002,17.85,9.52,1729421941518.0,0.0
-6.912865,-7.913064,-8.013563,86.449997,41.02,12.11,1729421941537.0,0.0
-5.62074,-6.357729,-5.489135,46.130001,29.82,8.89,1729421941557.0,0.0
-4.086941,-7.077969,-7.118648,28.49,-1.47,-0.56,1729421941578.0,0.0
-2.806781,-5.972485,-9.250652,43.470001,20.58,-0.98,1729421941599.0,0.0
-2.883351,-4.443472,-5.032106,52.779999,68.949997,12.81,1729421941617.0,0.0
-4.479364,-4.972286,1.438086,-22.68,59.639999,6.93,1729421941638.0,0.0
-4.31426,-10.767702,-2.397608,-83.019997,-41.439999,-28.07,1729421941657.0,0.0
-2.598605,-9.183653,-4.589434,-62.16,-57.260002,-15.190001,1729421941678.0,0.0
-1.698904,-8.037491,-5.113462,11.41,-21.280001,-9.66,1729421941700.0,0.0
-2.835495,-7.599605,-5.429315,23.450001,2.8,-7.0,1729421941717.0,0.0
-4.132405,-8.295916,-5.149354,24.57,8.96,6.23,1729421941737.0,0.0
-3.830909,-7.506285,-5.089533,39.830002,-16.1,7.21,1729421941758.0,0.0
-3.57727,-6.4678,-5.424529,38.57,-17.99,9.87,1729421941777.0,0.0
-4.187439,-6.087341,-5.895915,25.41,-9.52,6.65,1729421941799.0,0.0
-5.242674,-5.912664,-5.769095,7.77,-13.440001,12.25,1729421941818.0,0.0
-5.161318,-5.855237,-6.12084,-6.3,-30.24,16.799999,1729421941837.0,0.0
-5.221139,-7.463214,-6.970293,-25.34,-31.01,12.46,1729421941857.0,0.0
-5.814559,-8.410772,-8.240881,-33.110001,-19.74,-0.84,1729421941878.0,0.0
-6.965507,-7.45125,-8.109276,24.5,16.030001,-0.7,1729421941900.0,0.0
-6.723832,-7.317252,-8.590233,60.760002,46.200001,-9.03,1729421941917.0,0.0
-6.683154,-6.766902,-5.453243,18.34,40.740002,-8.26,1729421941938.0,0.0
-5.79063,-7.740781,-5.757132,1.19,7.56,-12.95,1729421941960.0,0.0
-4.331009,-6.403193,-7.738388,33.110001,18.690001,-6.65,1729421941978.0,0.0
-4.699504,-3.833302,-2.768496,39.34,65.169998,6.02,1729421942002.0,0.0
-5.395815,-7.551748,-1.028914,-37.240002,54.18,-16.799999,1729421942019.0,0.0
-4.010371,-10.147961,-2.514857,-71.400002,-45.849998,-32.130001,1729421942039.0,0.0
-1.789831,-8.283953,-3.156133,-25.620001,-44.59,-9.31,1729421942059.0,0.0
-1.191626,-7.458428,-3.400201,24.5,-6.65,-17.15,1729421942078.0,0.0
-2.962314,-7.24786,-3.285345,11.9,28.0,-12.25,1729421942104.0,0.0
-4.749753,-7.238289,-4.055835,-6.16,15.82,-6.58,1729421942118.0,0.0
-4.419543,-7.573284,-5.383851,-6.93,-15.61,-1.82,1729421942138.0,0.0
-3.517449,-7.757531,-5.034499,-21.35,-46.200001,-4.34,1729421942158.0,0.0
-3.680161,-6.905686,-4.948357,-25.059999,-38.849998,-1.47,1729421942180.0,0.0
-4.409972,-7.003791,-5.4341,-12.67,-22.26,1.26,1729421942201.0,0.0
-5.541777,-6.190232,-7.685746,-7.49,-12.46,2.8,1729421942218.0,0.0
-8.439486,-7.695317,-8.343772,37.939999,26.950001,19.879999,1729421942240.0,0.0
-8.4347,-8.894121,-8.54477,86.870003,32.060001,6.09,1729421942258.0,0.0
-6.436693,-6.345766,-5.446064,81.620003,25.41,16.309999,1729421942279.0,0.0
-4.599005,-6.331409,-5.099105,42.279999,1.19,9.17,1729421942300.0,0.0
-4.371687,-7.759924,-7.269395,9.38,15.61,-5.11,1729421942319.0,0.0
-4.948357,-6.850651,-5.402994,8.61,54.32,-5.81,1729421942340.0,0.0
-4.62054,-7.209574,-1.629512,11.76,42.84,-2.31,1729421942359.0,0.0
-3.163311,-8.193025,-1.835295,-21.77,-14.42,-8.4,1729421942378.0,0.0
-1.698904,-8.458629,-2.696711,-14.98,-35.77,-13.86,1729421942400.0,0.0
-1.545763,-8.353344,-3.661019,0.14,-11.62,-12.81,1729421942418.0,0.0
-2.249253,-8.042276,-3.381058,3.43,-2.17,-14.63,1729421942438.0,0.0
-3.117848,-7.886744,-3.95055,8.68,-7.77,-4.34,1729421942459.0,0.0
-3.78066,-7.810174,-4.704289,8.61,-8.26,-3.99,1729421942480.0,0.0
-4.127619,-7.707282,-4.692325,-10.71,-20.860001,-3.36,1729421942499.0,0.0
-4.26401,-6.975078,-5.345565,-27.51,-29.75,0.21,1729421942519.0,0.0
-4.828716,-7.767102,-6.845865,-37.939999,-25.129999,3.99,1729421942538.0,0.0
-7.625926,-7.889136,-5.630312,-29.540001,7.49,-2.66,1729421942558.0,0.0
-8.149954,-9.413363,-10.147961,28.98,45.849998,1.05,1729421942579.0,0.0
-6.948757,-7.642675,-6.556334,39.689999,33.599998,-8.12,1729421942600.0,0.0
-5.304887,-6.278766,-3.9673,38.639999,6.37,3.22,1729421942618.0,0.0
-3.790231,-5.85763,-4.98425,31.85,15.26,-3.22,1729421942638.0,0.0
-4.189832,-5.453243,-3.034099,-3.15,46.060001,-9.8,1729421942660.0,0.0
-5.371887,-7.166504,-1.134198,-46.549999,29.82,-15.82,1729421942678.0,0.0
-4.697111,-8.250452,-2.98385,-73.639999,-19.950001,-27.51,1729421942702.0,0.0
-3.550949,-7.645068,-5.292924,-69.230003,-24.57,-26.460001,1729421942719.0,0.0
-3.608376,-7.68096,-5.876772,-66.150002,-1.54,-28.280001,1729421942738.0,0.0
-4.015156,-7.446464,-7.161718,-88.059998,6.37,-33.950001,1729421942759.0,0.0
-4.132405,-6.862615,-6.532406,-93.730003,6.44,-30.450001,1729421942779.0,0.0
-3.716053,-7.04447,-6.455836,-116.830002,-4.2,-32.619999,1729421942799.0,0.0
-2.902494,-6.185446,-4.699504,-144.830002,-18.41,-28.84,1729421942819.0,0.0
-2.256432,-7.140182,-6.601797,-160.440002,-37.59,-24.99,1729421942838.0,0.0
-2.203789,-7.439285,-7.858029,-153.580002,-38.57,-21.35,1729421942859.0,0.0
-2.478964,-7.161718,-6.939186,-109.410004,-19.040001,-13.93,1729421942878.0,0.0
-2.792424,-5.685347,-6.585048,-41.369999,-1.68,-5.18,1729421942900.0,0.0
-3.541377,-4.476971,-6.616155,18.41,-2.17,9.1,1729421942918.0,0.0
-4.098906,-3.826123,-7.688138,16.379999,16.940001,11.97,1729421942939.0,0.0
-4.443472,-5.472386,-7.592427,-8.19,15.89,8.82,1729421942959.0,0.0
-4.61097,-5.486742,-8.920443,-49.91,15.190001,6.23,1729421942978.0,0.0
-4.125226,-5.13739,-9.870394,-65.730003,0.91,4.27,1729421943001.0,0.0
-3.378666,-5.292924,-9.339187,-45.080002,-2.8,11.9,1729421943018.0,0.0
-3.019742,-5.158926,-8.523234,10.92,8.47,25.9,1729421943039.0,0.0
-3.488736,-4.165904,-7.71446,63.490002,29.120001,36.540001,1729421943058.0,0.0
-4.192225,-2.679961,-6.769295,23.799999,44.240002,35.490002,1729421943078.0,0.0
-4.666004,-5.139783,-7.9681,-25.76,45.779999,33.040001,1729421943101.0,0.0
-4.079762,-6.843473,-8.865408,-37.170002,13.09,26.18,1729421943119.0,0.0
-3.215954,-6.317052,-8.915657,2.87,-6.02,31.5,1729421943139.0,0.0
-3.548556,-4.072584,-5.69731,37.52,2.1,32.27,1729421943159.0,0.0
-4.663611,-3.661019,-5.02732,12.18,49.420002,10.99,1729421943179.0,0.0
-6.075377,-4.759324,-7.60439,-18.620001,38.220001,-8.75,1729421943200.0,0.0
-5.924629,-5.565705,-10.167104,-35.349998,-1.26,-26.74,1729421943218.0,0.0
-4.876573,-4.953143,-11.332408,-20.790001,-27.93,-30.940001,1729421943239.0,0.0
-3.921836,-4.287938,-12.363714,4.48,-24.710001,-40.25,1729421943316.0,0.0
-3.632305,-5.28096,-11.468799,29.469999,8.68,-59.360001,1729421943319.0,0.0
-3.65384,-5.848059,-7.9681,49.77,62.93,-66.360001,1729421943321.0,0.0
-3.546163,-6.458229,-7.255038,123.690002,69.650002,-60.689999,1729421943325.0,0.0
-3.180061,-4.589434,-4.563113,174.860001,46.759998,-35.0,1729421943337.0,0.0
-2.79721,-3.364309,-4.438686,174.509995,27.16,-18.549999,1729421943357.0,0.0
-2.871387,-5.371887,-4.311867,157.360001,1.61,-7.42,1729421943378.0,0.0
-3.079563,-7.097112,-2.050649,117.389999,14.7,11.27,1729421943400.0,0.0
-3.426522,-8.353344,-3.345166,116.340004,26.389999,29.33,1729421943417.0,0.0
-3.921836,-9.217153,-4.508078,170.940002,4.69,47.18,1729421943438.0,0.0
-3.696911,-6.881758,-4.699504,181.160004,-4.34,52.849998,1729421943458.0,0.0
-3.393023,-6.865008,-3.579663,109.480003,14.56,49.279999,1729421943478.0,0.0
-3.220739,-7.111469,-4.287938,-104.370003,-9.52,24.5,1729421943499.0,0.0
-2.864209,-7.740781,-4.912465,-155.680008,-31.360001,14.49,1729421943517.0,0.0
-2.222932,-6.113662,-5.864808,-160.789993,-58.170002,17.85,1729421943537.0,0.0
-2.28036,-5.010571,-6.644868,-145.809998,-63.84,40.18,1729421943558.0,0.0
-2.574677,-3.498307,-6.139983,-177.800003,-46.619999,37.939999,1729421943578.0,0.0
-3.852444,-4.766503,-8.051848,-196.419998,-1.61,41.790001,1729421943599.0,0.0
-4.476971,-7.853244,-8.008778,-143.850006,2.45,25.129999,1729421943618.0,0.0
-5.115855,-7.087541,-10.162319,-75.32,-18.969999,30.380001,1729421943637.0,0.0
-5.316852,-6.396015,-9.466006,-26.74,-33.599998,27.93,1729421943657.0,0.0
-4.945964,-6.329016,-12.03829,-54.670002,-36.189999,-6.23,1729421943678.0,0.0
-4.383651,-7.982457,-10.059426,-75.040001,-21.629999,-34.439999,1729421943699.0,0.0
-3.847659,-8.501699,-10.107283,-64.959999,-0.42,-61.740002,1729421943717.0,0.0
-3.773481,-7.716853,-8.65484,10.78,30.030001,-66.150002,1729421943738.0,0.0
-4.180261,-4.735396,-7.290931,109.970001,68.949997,-50.889999,1729421943757.0,0.0
-5.032106,-4.309474,-7.219146,171.850006,83.860001,-40.740002,1729421943778.0,0.0
-5.419744,-5.216353,-6.065805,174.440002,81.199997,-27.93,1729421943801.0,0.0
-4.596612,-6.017949,-6.238089,195.229996,65.940002,-3.22,1729421943819.0,0.0
-3.766303,-6.898508,-4.393222,278.670013,-20.440001,28.280001,1729421943837.0,0.0
-3.034099,-4.869394,-3.84048,257.529999,-16.309999,32.759998,1729421943858.0,0.0
-3.299703,-5.891129,-3.448057,209.509995,23.309999,30.309999,1729421943880.0,0.0
-3.385844,-7.152147,-3.936193,116.690002,37.52,8.4,1729421943901.0,0.0
-3.854837,-6.908078,-3.61077,29.190001,33.32,13.65,1729421943919.0,0.0
-4.130012,-7.13779,-1.880759,-44.799999,30.450001,13.58,1729421943937.0,0.0
-3.672983,-6.405586,-1.911865,-144.479996,7.98,-10.01,1729421943957.0,0.0
-4.063013,-6.91765,-3.553342,-223.369995,-35.630001,-14.84,1729421943979.0,0.0
-3.814159,-6.06102,-4.338188,-253.960007,-47.740002,-11.2,1729421944000.0,0.0
-3.797409,-4.563113,-4.766503,-253.540009,-46.970001,-0.14,1729421944019.0,0.0
-4.110869,-3.823731,-6.678369,-261.869995,-58.66,7.84,1729421944038.0,0.0
-4.383651,-6.836295,-10.13839,-258.089996,-68.529999,10.36,1729421944057.0,0.0
-3.790231,-8.69791,-11.918649,-186.130005,-83.790001,11.13,1729421944077.0,0.0
-3.261417,-8.602197,-10.681561,-85.190002,-80.639999,15.05,1729421944105.0,0.0
-3.129812,-7.360322,-9.755538,-32.27,-35.07,-7.98,1729421944117.0,0.0
-3.773481,-6.675975,-8.487342,-12.25,9.1,-36.540001,1729421944137.0,0.0
-5.338387,-4.871787,-9.178867,1.26,58.240002,-44.73,1729421944159.0,0.0
-5.56092,-3.211168,-10.959127,45.150002,40.459999,-39.619999,1729421944179.0,0.0
-4.709075,-2.995814,-8.910872,62.860001,11.27,-25.549999,1729421944199.0,0.0
-3.778267,-5.410172,-6.300302,75.040001,5.39,-26.18,1729421944219.0,0.0
-3.574877,-7.180861,-7.353144,97.93,20.09,-29.4,1729421944237.0,0.0
-3.244668,-7.262216,-3.943372,139.649994,14.84,-32.060001,1729421944257.0,0.0
-4.522435,-5.4676,-3.582055,159.25,55.23,-0.35,1729421944280.0,0.0
-5.335995,-4.773681,-6.204589,189.350006,73.080002,3.85,1729421944299.0,0.0
-5.931807,-5.156533,-5.728417,173.880005,37.029999,36.75,1729421944317.0,0.0
-5.539384,-5.680561,-4.407579,73.709999,16.59,46.41,1729421944339.0,0.0
-4.206582,-6.673582,-4.587041,-40.32,1.4,30.17,1729421944357.0,0.0
-3.282953,-6.67119,-5.749953,-90.860001,-42.420002,34.02,1729421944378.0,0.0
-2.467,-5.414958,-6.128019,-93.029999,-67.059998,44.939999,1729421944401.0,0.0
-2.002793,-6.388836,-5.481956,-119.279999,-58.73,44.170002,1729421944417.0,0.0
-2.366502,-6.726225,-7.702496,-156.940002,-42.630001,42.700001,1729421944439.0,0.0
-3.110669,-7.022934,-9.095119,-105.980003,0.98,37.240002,1729421944457.0,0.0
-4.354938,-5.98445,-6.293124,-54.740002,47.040001,34.509998,1729421944478.0,0.0
-5.962914,-6.314659,-6.546762,-66.919998,53.619999,15.61,1729421944500.0,0.0
-5.577669,-7.190433,-7.877172,-102.199997,-36.82,-7.98,1729421944517.0,0.0
-4.721039,-7.156933,-10.686346,-84.629997,-81.550003,-19.6,1729421944538.0,0.0
-4.130012,-6.599405,-10.750952,-56.84,-56.349998,-38.779999,1729421944559.0,0.0
-3.912265,-6.166305,-12.641282,-2.31,2.1,-59.360001,1729421944578.0,0.0
-3.993621,-5.692525,-12.021541,90.510002,42.91,-57.959999,1729421944600.0,0.0
-3.428915,-3.57727,-6.862615,167.089996,71.400002,-49.560001,1729421944617.0,0.0
-4.216154,-1.70369,-2.799603,151.759995,86.660004,-37.240002,1729421944637.0,0.0
-4.867002,-1.859223,-7.161718,88.410004,87.010002,-41.02,1729421944660.0,0.0
-4.895715,-7.846066,-4.735396,73.779999,21.629999,-34.23,1729421944679.0,0.0
-4.780859,-9.016156,-0.909273,95.269997,19.6,6.02,1729421944700.0,0.0
-4.307081,-7.838887,-5.359922,199.919998,0.91,20.65,1729421944717.0,0.0
-4.354938,-7.123433,-5.706882,300.230011,-29.4,43.75,1729421944738.0,0.0
-4.41715,-5.960521,-5.900701,235.830002,-2.17,48.650002,1729421944757.0,0.0
-4.752146,-4.345366,-4.24726,57.470001,41.580002,25.76,1729421944777.0,0.0
-4.87418,-6.78126,-4.453043,-87.150002,64.400002,8.12,1729421944798.0,0.0
-4.110869,-8.410772,-3.113062,-172.830002,20.93,-10.36,1729421944819.0,0.0
-3.701697,-5.862415,-4.058227,-173.039993,-8.33,18.200001,1729421944838.0,0.0
-3.617948,-4.577469,-6.489335,-137.830002,-44.099998,33.110001,1729421944858.0,0.0
-4.096512,-5.254639,-5.125426,-162.119995,-75.599998,38.5,1729421944877.0,0.0
-3.701697,-5.290531,-9.657433,-225.889999,-45.709999,35.139999,1729421944898.0,0.0
-3.52702,-7.628319,-7.121039,-176.330002,-66.5,19.32,1729421944916.0,0.0
-3.572484,-7.661818,-7.432107,-135.100006,-46.689999,19.110001,1729421944937.0,0.0
-4.323831,-8.889337,-10.157533,-83.230003,-42.07,-14.77,1729421944957.0,0.0
-4.491328,-7.23111,-11.578869,-72.800003,-22.889999,-49.490002,1729421944977.0,0.0
-4.366901,-5.13739,-8.583055,-48.650002,19.32,-61.740002,1729421944999.0,0.0
-4.855037,-4.35733,-8.985049,-38.57,35.139999,-70.980003,1729421945019.0,0.0
-5.022535,-4.366901,-9.253045,-29.68,33.599998,-72.379997,1729421945036.0,0.0
-5.065606,-3.584448,-7.869993,-5.88,25.34,-61.32,1729421945057.0,0.0
-4.785645,-1.933401,-7.168896,-3.85,28.98,-52.009998,1729421945077.0,0.0
-5.012963,-1.72044,-6.216553,2.24,26.530001,-32.759998,1729421945101.0,0.0
-4.666004,-4.4339,-6.108876,-4.34,5.95,-34.790001,1729421945118.0,0.0
-4.45065,-5.161318,-7.223931,-17.01,-7.49,-25.83,1729421945137.0,0.0
-4.515256,-4.890929,-7.046863,12.04,-3.22,-8.4,1729421945157.0,0.0
-4.204189,-3.84048,-7.52782,23.59,12.18,-3.29,1729421945178.0,0.0
-5.175675,-3.629912,-7.822137,25.83,20.860001,23.17,1729421945199.0,0.0
-5.254639,-4.091727,-7.161718,8.47,25.690001,30.52,1729421945219.0,0.0
-5.039285,-5.682954,-8.116454,-20.299999,3.01,40.950001,1729421945237.0,0.0
-4.699504,-7.01097,-9.611969,-31.43,-25.83,53.48,1729421945256.0,0.0
-3.84048,-9.119047,-7.79103,-18.059999,-31.710001,43.75,1729421945277.0,0.0
-2.947958,-7.211967,-8.178668,21.49,-16.24,44.170002,1729421945298.0,0.0
-2.794817,-4.438686,-9.317651,76.440002,-2.52,50.470001,1729421945317.0,0.0
-3.182454,-4.819145,-7.922636,79.590004,22.26,45.220001,1729421945336.0,0.0
-2.825923,-5.948557,-7.805387,-4.27,4.06,9.73,1729421945357.0,0.0
-3.474378,-8.305488,-8.023134,-10.29,-7.56,-0.84,1729421945378.0,0.0
-3.495914,-8.147561,-9.875179,39.27,10.64,-17.85,1729421945400.0,0.0
-3.632305,-6.951149,-12.028719,118.790001,19.25,-21.91,1729421945417.0,0.0
-3.318845,-4.618148,-10.083356,199.080002,21.84,-34.02,1729421945437.0,0.0
-3.031706,-2.031506,-6.479764,230.160004,51.099998,-31.99,1729421945457.0,0.0
-4.091727,-1.945365,-3.287738,189.979996,74.199997,-26.809999,1729421945479.0,0.0
-5.850451,-4.491328,-7.652246,94.010002,99.260002,-30.030001,1729421945500.0,0.0
-5.252246,-9.509077,-5.173282,65.379997,12.25,-31.15,1729421945518.0,0.0
-4.752146,-9.181261,-3.37388,100.099998,-20.719999,20.299999,1729421945536.0,0.0
-3.998406,-8.693125,-4.295116,176.75,-23.73,31.360001,1729421945556.0,0.0
-3.26381,-7.118648,-5.498707,194.529999,-31.290001,15.05,1729421945579.0,0.0
-3.742374,-4.902894,-4.268795,96.669998,18.969999,35.700001,1729421945601.0,0.0
-3.802195,-5.553742,-1.59362,-10.15,79.449997,23.17,1729421945617.0,0.0
-4.481757,-4.876573,-3.04367,-122.010002,60.619999,10.64,1729421945636.0,0.0
-4.65404,-6.159126,-2.184647,-205.449997,-10.08,2.17,1729421945658.0,0.0
-3.802195,-6.072984,-4.488935,-280.700012,-59.990002,-11.83,1729421945678.0,0.0
-4.472186,-6.453443,-9.695717,-275.100006,-96.809998,5.67,1729421945700.0,0.0
-4.625326,-6.977471,-9.872787,-196.210007,-73.639999,25.690001,1729421945719.0,0.0
-3.711268,-6.836295,-7.802995,-183.330002,-44.799999,9.94,1729421945736.0,0.0
-3.541377,-6.709475,-9.317651,-165.270004,-50.189999,3.15,1729421945758.0,0.0
-3.294917,-6.412765,-10.365707,-114.029999,-52.290001,-1.54,1729421945777.0,0.0
-3.139383,-7.030113,-8.930015,-78.889999,-29.68,-19.74,1729421945798.0,0.0
-3.294917,-5.704489,-7.554141,-63.07,14.28,-35.349998,1729421945816.0,0.0
-4.06062,-4.816752,-9.025726,-15.54,32.549999,-45.150002,1729421945839.0,0.0
-4.73061,-4.015156,-10.985448,69.720001,32.549999,-31.15,1729421945857.0,0.0
-5.051248,-3.014957,-8.288737,96.389999,41.02,-24.57,1729421945878.0,0.0
-5.539384,-4.347759,-5.958128,84.419998,63.139999,-30.66,1729421945901.0,0.0
-5.788238,-6.465407,-5.608776,104.790001,60.48,-23.799999,1729421945916.0,0.0
-6.106483,-4.496114,-6.029913,138.320007,40.110001,7.07,1729421945936.0,0.0
-5.374279,-4.254438,-6.197411,183.75,7.28,18.690001,1729421945956.0,0.0
-4.204189,-4.599005,-7.168896,164.009995,-47.950001,40.599998,1729421945976.0,0.0
-3.326023,-5.649454,-6.85783,97.650002,-53.619999,56.07,1729421945999.0,0.0
-2.87378,-7.618747,-6.431907,17.43,-12.53,37.799999,1729421946017.0,0.0
-3.266203,-8.238488,-4.919643,-58.939999,17.360001,15.26,1729421946037.0,0.0
-3.795017,-7.872386,-4.130012,-108.919998,34.580002,1.12,1729421946055.0,0.0
-4.338188,-7.092326,-4.986642,-152.039993,21.35,-13.79,1729421946076.0,0.0
-5.316852,-6.73101,-8.288737,-137.130005,-4.97,-6.3,1729421946103.0,0.0
-4.656433,-7.410572,-6.999006,-160.440002,-46.619999,-13.86,1729421946117.0,0.0
-2.830709,-8.599805,-8.829515,-168.419998,-87.709999,-22.469999,1729421946139.0,0.0
-1.914258,-7.927422,-7.99442,-62.02,-97.580002,-4.06,1729421946158.0,0.0
-2.289931,-4.76411,-6.874579,7.98,-37.240002,-7.77,1729421946178.0,0.0
-3.785445,-4.850252,-8.324631,42.07,73.290001,-27.370001,1729421946198.0,0.0
-5.651847,-5.871986,-11.715261,81.900002,88.550003,-21.700001,1729421946216.0,0.0
-6.080163,-5.508278,-11.31805,152.320007,61.25,-3.22,1729421946236.0,0.0
-5.321638,-3.732803,-7.84128,232.820007,47.389999,9.59,1729421946257.0,0.0
-4.850252,-2.806781,-5.474778,265.089996,50.610001,10.99,1729421946278.0,0.0
-4.386044,-3.024528,-5.178068,227.570007,54.32,3.08,1729421946298.0,0.0
-4.771288,-8.123632,-6.058627,196.770004,17.5,5.67,1729421946317.0,0.0
-4.146761,-7.558927,-3.883551,168.070007,-7.63,0.07,1729421946338.0,0.0
-4.158726,-7.712067,-3.172883,221.130005,30.1,33.18,1729421946357.0,0.0
-3.682554,-6.664011,-3.294917,213.289993,13.02,21.559999,1729421946376.0,0.0
-3.871587,-6.147161,-3.23031,109.199997,17.15,17.08,1729421946399.0,0.0
-4.797609,-7.235896,-2.715853,-35.07,47.740002,7.49,1729421946416.0,0.0
-5.91745,-6.757331,-0.378066,-190.610001,53.130001,-23.940001,1729421946437.0,0.0
-4.905287,-5.161318,-2.62732,-289.799988,-10.85,-29.26,1729421946457.0,0.0
-3.802195,-3.926622,-3.948158,-333.410004,-52.779999,-23.870001,1729421946476.0,0.0
-3.864408,-5.474778,-8.386844,-325.98999,-102.059998,-12.88,1729421946499.0,0.0
-3.385844,-8.752945,-8.51127,-281.329987,-134.470001,5.53,1729421946517.0,0.0
-2.715853,-8.961121,-8.657232,-229.880005,-60.830002,9.1,1729421946538.0,0.0
-2.775674,-7.836494,-10.135997,-129.430008,-58.939999,1.82,1729421946558.0,0.0
-3.15374,-5.051248,-10.033106,-66.709999,-10.64,3.15,1729421946576.0,0.0
-3.888337,-4.900501,-10.356135,-46.970001,26.6,-20.23,1729421946597.0,0.0
-4.567898,-5.391029,-8.336594,-45.639999,45.57,-36.470001,1729421946616.0,0.0
-4.63729,-5.455636,-9.260223,-0.42,43.189999,-28.49,1729421946635.0,0.0
-4.197011,-4.285545,-9.064013,50.400002,7.49,-17.43,1729421946656.0,0.0
-3.78066,-3.321238,-4.957928,79.519997,8.19,-19.460001,1729421946677.0,0.0
-4.027121,-2.555535,-5.319244,57.959999,32.900002,-24.43,1729421946699.0,0.0
-5.398208,-3.046063,-6.9344,4.41,37.939999,-24.92,1729421946717.0,0.0
-6.218946,-5.032106,-7.63789,-48.23,35.84,-36.68,1729421946737.0,0.0
-6.338587,-5.106283,-7.178468,-33.670002,19.25,-32.970001,1729421946755.0,0.0
-5.754738,-3.668197,-7.446464,8.4,1.26,-10.01,1729421946777.0,0.0
-4.529613,-2.464607,-8.315059,9.38,-44.52,5.04,1729421946798.0,0.0
-3.538985,-4.498507,-7.62114,-47.740002,-62.369999,14.0,1729421946815.0,0.0
-2.591427,-6.02752,-6.728617,-118.580002,-53.830002,7.28,1729421946836.0,0.0
-2.782853,-7.298109,-9.671788,-77.0,-51.170002,9.52,1729421946856.0,0.0
-3.261417,-7.135397,-10.985448,-14.7,2.87,8.89,1729421946878.0,0.0
-3.665804,-5.328816,-9.755538,-1.12,29.82,-4.48,1729421946897.0,0.0
-4.242475,-4.07737,-11.274981,-13.02,41.439999,-10.57,1729421946916.0,0.0
-4.555934,-4.424329,-9.463614,-17.57,31.219999,-17.92,1729421946936.0,0.0
-3.988836,-4.493721,-9.580862,-22.68,30.799999,-28.210001,1729421946956.0,0.0
-3.718446,-4.481757,-8.271988,14.77,25.76,-25.690001,1729421946976.0,0.0
-3.321238,-3.723232,-6.020342,40.740002,40.950001,-24.290001,1729421947000.0,0.0
-3.60359,-3.15374,-5.623133,42.07,49.98,-17.85,1729421947028.0,0.0
-4.103691,-3.838088,-5.668597,28.98,45.360001,-20.440001,1729421947036.0,0.0
-4.405186,-4.919643,-6.82433,7.42,28.77,-23.24,1729421947055.0,0.0
-4.297509,-5.146961,-8.535198,20.440001,1.89,-17.43,1729421947075.0,0.0
-3.661019,-4.292724,-8.73141,57.610001,-18.27,-7.63,1729421947100.0,0.0
-3.165704,-3.316452,-8.389235,64.330002,-14.77,-4.27,1729421947115.0,0.0
-3.141776,-3.381058,-7.73121,41.299999,4.48,-6.44,1729421947135.0,0.0
-3.625126,-3.641876,-6.939186,11.34,22.540001,-5.81,1729421947157.0,0.0
-4.400401,-4.472186,-7.499106,-17.43,21.0,-8.75,1729421947177.0,0.0
-4.187439,-3.462414,-8.238488,-55.650002,-4.55,-5.95,1729421947200.0,0.0
-3.718446,-3.213561,-5.912664,-84.279999,-39.759998,3.43,1729421947216.0,0.0
-2.859423,-4.04387,-7.056434,-136.430008,-64.75,4.76,1729421947235.0,0.0
-2.828316,-5.867201,-11.406586,-141.330002,-94.290001,8.75,1729421947257.0,0.0
-2.397608,-7.264609,-10.549955,-72.590004,-61.740002,1.96,1729421947277.0,0.0
-3.24706,-6.71426,-11.018949,0.28,-3.99,10.01,1729421947298.0,0.0
-3.57727,-4.68754,-8.02792,55.16,30.940001,1.61,1729421947316.0,0.0
-4.644469,-2.768496,-10.4016,38.709999,45.220001,14.98,1729421947337.0,0.0
-4.795217,-4.005585,-9.128618,25.620001,24.780001,6.3,1729421947356.0,0.0
-4.158726,-6.21416,-9.454042,27.23,8.47,8.4,1729421947376.0,0.0
-3.24706,-7.587641,-10.8682,76.300003,-30.59,5.46,1729421947398.0,0.0
-2.242075,-7.944171,-8.937192,146.369995,-28.630001,-3.01,1729421947415.0,0.0
-1.68694,-5.02732,-8.094919,195.720001,18.27,-7.98,1729421947435.0,0.0
-1.926222,-2.964707,-6.628119,229.110001,56.279999,-12.18,1729421947457.0,0.0
-3.156133,-2.335395,-5.776274,192.850006,88.760002,-7.63,1729421947475.0,0.0
-4.369294,-4.723432,-6.530013,164.149994,92.190002,1.75,1729421947499.0,0.0
-5.426922,-6.190232,-5.266603,146.930008,58.66,6.72,1729421947515.0,0.0
-5.4341,-6.977471,-5.371887,80.360001,30.24,-1.89,1729421947537.0,0.0
-5.338387,-6.372087,-5.98445,43.400002,20.719999,2.73,1729421947557.0,0.0
-4.785645,-5.91745,-6.216553,56.0,26.530001,15.82,1729421947576.0,0.0
-3.905087,-4.689932,-7.757531,53.27,-18.34,28.98,1729421947598.0,0.0
-2.737389,-3.424129,-7.733603,11.97,-67.550003,39.549999,1729421947616.0,0.0
-2.031506,-3.672983,-5.429315,-57.68,-75.599998,44.52,1729421947637.0,0.0
-1.911865,-6.111269,-4.529613,-114.239998,-41.299999,27.02,1729421947655.0,0.0
-2.665605,-7.757531,-6.673582,-162.259995,-13.86,3.36,1729421947678.0,0.0
-3.268596,-7.298109,-6.884151,-199.080002,-6.02,-14.49,1729421947697.0,0.0
-3.878766,-9.207582,-7.508677,-200.550003,-20.860001,-32.689999,1729421947716.0,0.0
-3.818945,-9.482756,-7.688138,-154.699997,-27.790001,-39.130001,1729421947736.0,0.0
-3.515057,-8.023134,-7.992027,-56.77,-31.43,-28.98,1729421947758.0,0.0
-3.756732,-5.63749,-7.460821,19.32,-21.210001,-14.56,1729421947777.0,0.0
-4.476971,-4.613362,-6.582655,39.130001,20.370001,-7.35,1729421947796.0,0.0
-5.374279,-4.453043,-7.389036,31.92,50.400002,-4.27,1729421947817.0,0.0
-6.003592,-5.438886,-8.705089,54.599998,39.830002,15.61,1729421947835.0,0.0
-5.266603,-6.171089,-7.546963,116.059998,8.19,36.330002,1729421947857.0,0.0
-4.689932,-6.407979,-7.960921,215.320007,-29.120001,44.73,1729421947875.0,0.0
-4.199404,-5.613562,-7.755138,216.229996,-36.889999,27.790001,1729421947907.0,0.0
-3.838088,-4.867002,-6.046663,145.949997,-9.87,13.37,1729421947917.0,0.0
-3.957729,-5.056034,-4.709075,51.380001,20.860001,7.21,1729421947937.0,0.0
-4.259224,-6.812366,-6.18784,2.31,27.860001,2.59,1729421947955.0,0.0
-4.448257,-7.819745,-5.556134,5.46,15.75,4.76,1729421947975.0,0.0
-3.665804,-7.640282,-4.84068,26.74,3.01,-0.91,1729421947999.0,0.0
-3.335595,-8.176274,-5.000999,33.18,-15.61,1.82,1729421948015.0,0.0
-2.634498,-8.465806,-7.178468,23.309999,-22.33,-2.45,1729421948036.0,0.0
-2.311467,-7.391429,-7.037291,4.13,-21.35,4.55,1729421948058.0,0.0
-2.127219,-7.161718,-6.06102,-12.74,15.54,4.2,1729421948075.0,0.0
-2.529213,-8.176274,-6.905686,-28.91,44.170002,-9.1,1729421948102.0,0.0
-3.053242,-9.090333,-6.601797,-34.16,57.68,-10.92,1729421948117.0,0.0
-3.330809,-7.015756,-5.546563,-24.85,59.639999,-11.13,1729421948136.0,0.0
-4.424329,-7.420143,-4.783253,43.259998,65.940002,8.68,1729421948157.0,0.0
-5.453243,-6.716653,-2.244468,84.910004,40.32,9.31,1729421948176.0,0.0
-4.699504,-6.943972,-4.438686,94.709999,7.35,13.16,1729421948198.0,0.0
-4.09412,-9.487542,-5.773881,76.860001,-20.440001,7.35,1729421948216.0,0.0
-3.84048,-12.090932,-3.036492,114.590004,-23.799999,4.69,1729421948235.0,0.0
-3.158526,-8.882158,-2.457429,138.25,-14.91,8.61,1729421948316.0,0.0
-3.876373,-9.288938,-3.608376,170.449997,3.08,10.5,1729421948319.0,0.0
-5.63749,-10.600205,-3.76391,233.309998,-22.960001,-1.68,1729421948321.0,0.0
-5.347959,-10.202995,-3.759124,396.829987,-47.599998,20.719999,1729421948332.0,0.0
-3.754339,-8.532805,-1.804188,511.0,1.61,23.799999,1729421948347.0,0.0
-3.45045,-7.180861,-1.100698,475.160004,28.559999,-1.19,1729421948355.0,0.0
-5.190032,-7.164111,0.179462,362.670013,19.040001,-13.16,1729421948374.0,0.0
-3.766303,-8.764909,1.177269,307.160004,-22.960001,-21.84,1729421948396.0,0.0
-2.514857,-7.420143,4.12044,255.360001,3.57,-15.89,1729421948415.0,0.0
-4.065405,-4.991428,5.606383,188.440002,31.639999,-10.43,1729421948434.0,0.0
-4.4339,-1.732404,4.421937,65.800003,40.32,4.9,1729421948455.0,0.0
-4.419543,-0.911665,5.053641,-89.32,35.349998,36.189999,1729421948475.0,0.0
-4.895715,-1.78026,4.965107,-277.970001,-1.33,45.220001,1729421948496.0,0.0
-5.860023,-5.656632,1.9669,-437.98999,-23.940001,35.700001,1729421948515.0,0.0
-5.266603,-9.131011,-4.144369,-653.099976,-50.119999,-13.86,1729421948535.0,0.0
-3.48395,-10.731809,-10.724631,-653.52002,-39.27,-46.689999,1729421948555.0,0.0
-3.364309,-12.167502,-9.24108,-496.019989,-40.880001,-34.23,1729421948575.0,0.0
-3.371487,-8.805587,-8.370094,-413.700012,11.13,-40.32,1729421948596.0,0.0
-4.632504,-8.348558,-7.391429,-351.75,51.240002,-49.490002,1729421948614.0,0.0
-5.522634,-9.19801,-4.206582,-346.5,37.310001,-50.189999,1729421948635.0,0.0
-3.45045,-7.250252,-5.395815,-325.220001,-39.689999,-47.459999,1729421948655.0,0.0
-1.787439,-7.336394,-6.740582,-216.160004,-51.52,-19.18,1729421948675.0,0.0
-2.663212,-8.4012,-10.995021,-55.23,-18.48,8.12,1729421948696.0,0.0
-5.307281,-10.614561,-6.161518,198.660004,37.029999,29.26,1729421948715.0,0.0
-5.852845,-8.188239,-4.838287,378.48999,46.900002,33.389999,1729421948734.0,0.0
-4.031906,-6.197411,-5.201996,394.869995,-7.21,37.52,1729421948754.0,0.0
-2.809174,-6.297909,-4.139583,363.860016,-44.029999,35.279999,1729421948775.0,0.0
-3.783052,-9.777073,-5.922236,388.640015,-17.290001,33.040001,1729421948797.0,0.0
-5.391029,-10.8682,-6.338587,438.339996,15.26,19.6,1729421948816.0,0.0
-5.575277,-9.334401,-2.912065,478.869995,25.48,15.26,1729421948835.0,0.0
-3.878766,-5.046463,2.005185,423.920013,24.85,4.97,1729421948855.0,0.0
-3.421736,-3.876373,2.024328,217.139999,26.25,-23.17,1729421948875.0,0.0
-4.177868,-3.680161,0.674776,87.010002,21.42,-21.49,1729421948896.0,0.0
-5.144568,-5.570491,1.454836,2.52,13.3,10.85,1729421948915.0,0.0
-5.06082,-8.324631,3.215954,-158.410004,-17.08,6.44,1729421948935.0,0.0
-3.519842,-6.324231,0.562313,-383.670013,-37.52,-13.3,1729421948959.0,0.0
-4.742575,-5.804988,-3.488736,-555.23999,-5.04,-24.08,1729421949078.0,0.0
-5.412565,-11.389835,-10.645668,-541.72998,-39.060001,-63.209999,1729421949081.0,0.0
-4.194618,-14.883357,-10.454242,-342.720001,-75.25,-37.450001,1729421949083.0,0.0
-2.160719,-12.765708,-6.288338,-153.020004,-12.39,-14.63,1729421949084.0,0.0
-2.675175,-7.601997,-3.711268,-48.860001,52.639999,-5.11,1729421949086.0,0.0
-4.31426,-4.795217,-2.376073,-25.620001,79.169998,-8.33,1729421949088.0,0.0
-5.290531,-4.644469,-4.438686,-80.290001,44.029999,-5.25,1729421949100.0,0.0
-4.627719,-6.723832,-6.661618,-169.889999,-9.24,-8.89,1729421949113.0,0.0
-3.182454,-9.501899,-9.769895,-174.930008,-24.780001,-4.76,1729421949137.0,0.0
-2.888137,-9.662218,-2.656033,-38.779999,-11.06,17.08,1729421949154.0,0.0
-2.500499,-7.963314,-2.210968,92.260002,19.74,10.85,1729421949174.0,0.0
-3.474378,-6.228518,-4.259224,73.360001,33.950001,-5.67,1729421949196.0,0.0
-3.424129,-7.403394,-5.800202,-43.400002,-6.3,-14.63,1729421949214.0,0.0
-2.916851,-8.193025,-6.293124,-55.720001,-24.92,-14.35,1729421949234.0,0.0
-2.754139,-7.56132,-6.104091,-34.02,-15.96,-14.35,1729421949254.0,0.0
-3.144169,-6.683154,-6.869793,-4.76,-2.94,-12.04,1729421949274.0,0.0
-4.465007,-8.805587,-6.245267,43.68,2.66,-6.16,1729421949297.0,0.0
-7.822137,-14.94557,0.495314,185.080002,-32.200001,-17.639999,1729421949314.0,0.0
-5.615955,-11.511869,-4.651647,379.119995,-46.759998,-5.18,1729421949333.0,0.0
-4.237689,-7.262216,-6.814759,532.97998,32.759998,47.950001,1729421949353.0,0.0
-4.733003,-8.183454,-5.666204,617.119995,3.85,30.309999,1729421949374.0,0.0
-4.290331,-13.045669,-6.726225,652.119995,-12.32,-0.98,1729421949396.0,0.0
-2.041078,-12.179466,-0.775275,616.140015,16.73,-45.5,1729421949413.0,0.0
-1.292124,-6.946364,4.079762,514.080017,71.400002,-66.57,1729421949433.0,0.0
-4.290331,-3.802195,5.144568,339.360016,82.739998,-38.360001,1729421949453.0,0.0
-3.993621,0.643669,5.257031,144.970001,48.860001,-9.52,1729421949475.0,0.0
-5.778666,0.579063,5.398208,-41.650002,40.110001,27.299999,1729421949495.0,0.0
-4.816752,-1.909473,4.632504,-189.279999,0.42,21.84,1729421949513.0,0.0
-3.354738,-6.242875,3.938586,-270.410004,-20.16,35.630001,1729421949533.0,0.0
-5.398208,-7.252645,3.108276,-411.320007,29.049999,32.48,1729421949554.0,0.0
-6.486942,-8.128418,1.371087,-500.779999,17.290001,0.77,1729421949573.0,0.0
-5.627919,-8.157133,-2.835495,-581.77002,-3.71,-21.77,1729421949595.0,0.0
-4.278367,-8.159525,-6.740582,-598.710022,-24.01,-42.98,1729421949614.0,0.0
-3.919443,-7.173682,-8.877372,-570.570007,-22.610001,-42.77,1729421949633.0,0.0
-4.051049,-6.927221,-9.820145,-514.919983,-1.89,-49.490002,1729421949653.0,0.0
-4.448257,-7.281359,-8.989835,-442.75,3.57,-41.580002,1729421949674.0,0.0
-4.130012,-7.951349,-7.932207,-348.110016,-2.8,-33.110001,1729421949695.0,0.0
-3.091527,-7.063612,-8.338986,-263.480011,-21.629999,-27.440001,1729421949714.0,0.0
-2.120041,-7.805387,-8.243275,-157.080002,-32.619999,-13.58,1729421949734.0,0.0
-1.739582,-9.12144,-9.19801,-39.970001,-21.700001,-4.9,1729421949753.0,0.0
-2.234896,-10.078569,-9.377472,112.840004,16.1,-1.19,1729421949773.0,0.0
-3.388237,-8.618947,-8.77448,282.799988,50.540001,3.64,1729421949795.0,0.0
-4.563113,-7.039684,-5.639884,403.130005,58.170002,22.26,1729421949813.0,0.0
-5.151747,-6.166305,-3.254239,463.119995,24.290001,29.540001,1729421949833.0,0.0
-4.838287,-7.403394,-6.415157,518.48999,-5.46,45.290001,1729421949854.0,0.0
-4.845466,-8.38445,-7.795816,515.690002,14.7,45.849998,1729421949873.0,0.0
-5.443672,-9.341579,-3.20399,518.840027,23.030001,35.279999,1729421949896.0,0.0
-4.364508,-7.975278,-0.631705,492.799988,27.719999,4.2,1729421949913.0,0.0
-3.211168,-5.228317,2.804388,395.779999,43.470001,-15.89,1729421949933.0,0.0
-3.17049,-3.629912,4.790431,230.440002,52.080002,-24.710001,1729421949953.0,0.0
-4.534399,-3.716053,4.180261,58.450001,43.889999,-11.55,1729421949974.0,0.0
-5.223531,-5.237889,3.254239,-70.279999,23.52,11.48,1729421949995.0,0.0
-4.881358,-5.905487,2.701497,-198.660004,15.47,6.3,1729421950015.0,0.0
-4.804788,-6.79083,1.849652,-335.019989,13.440001,-0.28,1729421950033.0,0.0
-4.790431,-7.542177,1.229911,-459.549988,-0.7,-13.09,1729421950053.0,0.0
-4.917251,-7.348359,-0.997807,-571.27002,-26.460001,-35.84,1729421950075.0,0.0
-4.579862,-6.783652,-5.948557,-665.700012,-50.119999,-73.150002,1729421950101.0,0.0
-3.359523,-7.030113,-11.117055,-672.0,-84.279999,-96.529999,1729421950114.0,0.0
-2.569891,-7.171289,-12.112469,-547.679993,-63.560001,-67.340004,1729421950134.0,0.0
-3.005385,-6.460621,-11.866007,-379.190002,-12.18,-49.490002,1729421950154.0,0.0
-4.319045,-6.893722,-10.530812,-235.339996,28.280001,-35.420002,1729421950174.0,0.0
-4.589434,-6.963113,-9.671788,-120.75,28.49,-22.33,1729421950196.0,0.0
-2.392823,-8.334201,-7.666604,58.799999,-14.56,5.88,1729421950214.0,0.0
-1.875973,-8.310273,-7.475177,185.360001,0.84,14.21,1729421950234.0,0.0
-2.732604,-7.147361,-6.695118,329.140015,33.25,17.92,1729421950254.0,0.0
-4.335794,-4.788038,-4.852644,386.399994,73.290001,36.75,1729421950274.0,0.0
-4.603791,-5.804988,-4.027121,395.709991,36.119999,44.52,1729421950296.0,0.0
-4.608576,-7.176075,-2.608176,419.860016,-28.630001,65.239998,1729421950314.0,0.0
-3.917051,-8.633304,-4.61097,485.450012,-50.959999,66.220001,1729421950334.0,0.0
-4.106083,-8.224132,-3.957729,535.080017,-7.49,64.540001,1729421950355.0,0.0
-5.285746,-7.52782,-0.579063,515.409973,32.41,49.0,1729421950374.0,0.0
-5.503492,-8.190632,1.024128,399.839996,35.630001,16.1,1729421950398.0,0.0
-4.792823,-9.65504,1.194018,267.820007,-3.92,-13.09,1729421950414.0,0.0
-3.065206,-7.965706,2.411965,199.080002,-6.09,-17.360001,1729421950433.0,0.0
-2.854637,-6.025128,3.615555,167.649994,31.639999,-10.5,1729421950454.0,0.0
-4.366901,-5.288138,4.091727,86.169998,35.700001,4.27,1729421950474.0,0.0
-4.864608,-4.84068,3.622734,-31.99,35.91,16.17,1729421950497.0,0.0
-4.603791,-4.474578,3.220739,-155.190002,25.48,29.26,1729421950516.0,0.0
-4.819145,-6.070591,2.414358,-276.429993,21.559999,34.299999,1729421950534.0,0.0
-6.254838,-8.023134,0.79681,-492.23999,11.69,-1.05,1729421950555.0,0.0
-6.563512,-8.602197,-3.615555,-613.970032,-19.809999,-46.060001,1729421950576.0,0.0
-5.852845,-7.534998,-8.185846,-662.830017,-45.220001,-73.43,1729421950594.0,0.0
-4.596612,-6.262017,-9.817751,-621.880005,-59.849998,-81.269997,1729421950614.0,0.0
-4.144369,-6.094519,-10.25803,-530.460022,-39.619999,-63.98,1729421950636.0,0.0
-4.331009,-7.322037,-11.112268,-400.470001,-4.48,-48.02,1729421950655.0,0.0
-4.182654,-8.343772,-8.25763,-271.25,10.71,-42.84,1729421950674.0,0.0
-3.503092,-8.669197,-7.898707,-131.320007,-1.05,-27.65,1729421950697.0,0.0
-2.500499,-10.650455,-6.216553,71.260002,-25.129999,-7.28,1729421950714.0,0.0
-2.230111,-8.250452,-5.584848,213.570007,-10.22,-7.14,1729421950735.0,0.0
-3.534199,-6.664011,-6.836295,279.019989,20.02,1.54,1729421950754.0,0.0
-4.756931,-6.558727,-6.041877,276.779999,28.42,16.799999,1729421950774.0,0.0
-5.391029,-6.678369,-4.697111,301.140015,14.98,29.68,1729421950800.0,0.0
-5.230711,-8.664411,-5.584848,399.48999,-15.54,55.650002,1729421950816.0,0.0
-4.931608,-6.431907,-5.879165,435.610016,-11.76,58.799999,1729421950834.0,0.0
-5.644669,-6.9679,-4.68754,458.01001,21.559999,63.84,1729421950853.0,0.0
-5.704489,-9.62154,-1.569692,399.839996,21.35,38.220001,1729421950875.0,0.0
-4.953143,-9.475577,-0.691526,275.940002,-18.9,-7.7,1729421950897.0,0.0
-3.728018,-8.882158,0.078963,255.779999,-16.799999,-18.48,1729421950914.0,0.0
-3.259024,-6.597012,1.708475,221.899994,10.01,-13.09,1729421950934.0,0.0
-4.388437,-4.922036,2.818745,135.800003,32.549999,0.49,1729421950954.0,0.0
-5.91745,-5.089533,2.26361,15.33,25.059999,9.31,1729421950975.0,0.0
-5.345565,-6.321837,2.510071,-97.790001,12.04,16.450001,1729421950997.0,0.0
-4.098906,-6.233303,2.694318,-228.339996,5.39,10.92,1729421951016.0,0.0
-4.23051,-6.278766,3.002992,-359.730011,4.9,5.6,1729421951034.0,0.0
-5.326423,-6.393622,2.57707,-483.980011,1.61,-10.08,1729421951061.0,0.0
-6.197411,-5.886343,-1.931008,-590.099976,-12.81,-42.490002,1729421951077.0,0.0
-5.996413,-5.498707,-9.288938,-621.25,-36.330002,-62.369999,1729421951101.0,0.0
-5.089533,-6.709475,-11.77508,-534.030029,-47.389999,-50.889999,1729421951113.0,0.0
-4.426722,-7.278966,-11.313265,-399.279999,-24.639999,-23.66,1729421951133.0,0.0
-4.969893,-7.831708,-8.391629,-274.049988,7.7,-20.790001,1729421951154.0,0.0
-5.388636,-6.690332,-7.676175,-188.720001,12.74,-25.969999,1729421951173.0,0.0
-4.273581,-7.996813,-8.496914,-84.349998,-18.9,-21.49,1729421951194.0,0.0
-3.381058,-7.463214,-6.364908,12.11,-24.219999,-6.16,1729421951213.0,0.0
-3.739982,-5.893522,-8.472985,147.910004,6.58,-1.05,1729421951233.0,0.0
-4.924429,-6.089733,-9.178867,228.059998,32.27,15.4,1729421951254.0,0.0
-5.47717,-6.597012,-6.250053,289.589996,42.0,21.700001,1729421951273.0,0.0
-5.663811,-8.154739,-0.971486,345.519989,10.64,21.139999,1729421951296.0,0.0
-4.41715,-6.537192,-2.215754,398.230011,-37.450001,24.710001,1729421951313.0,0.0
-6.348158,-5.647062,-3.641876,431.059998,-10.5,51.310001,1729421951332.0,0.0
-8.441878,-9.186047,-4.086941,472.429993,-0.7,49.630001,1729421951353.0,0.0
-6.656832,-11.753544,-3.414558,519.119995,-25.41,35.560001,1729421951373.0,0.0
-3.146562,-8.645268,-0.758525,471.450012,-5.88,6.23,1729421951393.0,0.0
-2.514857,-7.233503,-0.583849,385.980011,14.56,-14.98,1729421951413.0,0.0
-4.807181,-8.178668,2.804388,272.860016,25.059999,-24.43,1729421951433.0,0.0
-5.493921,-8.82473,2.988636,162.399994,-8.82,-31.780001,1729421951453.0,0.0
-3.991228,-7.391429,3.787838,105.769997,-9.8,-28.42,1729421951480.0,0.0
-3.974478,-5.9677,4.173083,64.540001,-1.89,-14.84,1729421951497.0,0.0
-4.237689,-3.87398,3.65384,2.87,16.799999,0.91,1729421951513.0,0.0
-4.364508,-3.929015,2.699104,-156.029999,33.950001,14.63,1729421951533.0,0.0
-5.347959,-6.092126,3.249453,-307.51001,38.5,20.23,1729421951553.0,0.0
-6.034698,-6.130411,2.565106,-494.269989,37.66,0.77,1729421951573.0,0.0
-6.551548,-6.915257,-1.038485,-643.22998,-7.14,-33.389999,1729421951596.0,0.0
-5.125426,-7.692925,-7.635497,-688.940002,-48.09,-68.18,1729421951613.0,0.0
-4.223332,-7.889136,-9.035298,-594.440002,-60.619999,-55.16,1729421951633.0,0.0
-4.333402,-7.396214,-9.930215,-480.130005,-12.74,-37.450001,1729421951654.0,0.0
-5.563312,-6.975078,-8.118847,-349.860016,24.219999,-27.51,1729421951673.0,0.0
-6.592227,-7.085148,-6.144768,-228.830002,33.040001,-13.65,1729421951694.0,0.0
-6.113662,-6.285945,-4.376472,-148.399994,-5.74,-15.26,1729421951714.0,0.0
-4.194618,-8.585447,-5.522634,-62.650002,-32.48,-10.92,1729421951734.0,0.0
-3.086741,-9.743573,-7.288538,26.950001,-33.110001,-9.52,1729421951754.0,0.0
-3.534199,-8.202596,-9.348758,160.789993,-0.98,4.2,1729421951774.0,0.0
-5.300103,-6.819544,-7.056434,282.309998,44.869999,19.389999,1729421951796.0,0.0
-7.080362,-7.499106,-3.862016,373.730011,53.48,28.84,1729421951813.0,0.0
-5.752346,-9.537791,-8.219346,489.299988,-12.46,39.48,1729421951834.0,0.0
-4.61097,-7.393822,-10.38485,532.630005,11.55,46.34,1729421951854.0,0.0
-5.268995,-8.140383,-5.300103,531.299988,60.41,18.41,1729421951873.0,0.0
-6.821937,-10.600205,-0.023928,438.549988,44.450001,-39.200001,1729421951895.0,0.0
-5.706882,-11.636297,3.684947,361.76001,-13.65,-72.029999,1729421951914.0,0.0
-2.768496,-5.572884,5.228317,280.980011,-7.28,-75.879997,1729421951934.0,0.0
-2.476572,0.935594,4.835894,194.25,25.83,-28.0,1729421951956.0,0.0
-3.486342,1.234696,4.235296,61.740002,23.17,-4.13,1729421952183.0,0.0
-2.988636,-1.088734,3.754339,-110.739998,-18.48,13.440001,1729421952185.0,0.0
-2.550749,-5.032106,3.572484,-226.240005,-37.029999,29.33,1729421952187.0,0.0
-3.369094,-8.197811,2.337788,-292.809998,-19.32,47.529999,1729421952220.0,0.0
-5.592027,-8.439486,-2.447858,-372.890015,16.59,40.110001,1729421952280.0,0.0
-5.953342,-7.269395,-6.06102,-475.299988,15.82,-3.01,1729421952297.0,0.0
-5.039285,-5.900701,-9.846465,-535.570007,-18.9,-26.809999,1729421952297.0,0.0
-4.828716,-6.920043,-11.796617,-526.119995,-50.400002,-39.48,1729421952297.0,0.0
-4.826324,-7.932207,-10.396815,-420.910004,-37.099998,-31.99,1729421952297.0,0.0
-5.541777,-8.84148,-7.805387,-295.190002,-11.76,-18.129999,1729421952298.0,0.0
-5.292924,-9.633504,-8.726624,-181.860001,18.41,-15.75,1729421952298.0,0.0
-4.926822,-9.265009,-5.807381,-65.870003,13.37,-22.889999,1729421952298.0,0.0
-3.184847,-8.79123,-7.223931,104.580002,-16.940001,12.53,1729421952298.0,0.0
-3.826123,-5.13739,-4.354938,300.299988,-13.86,20.790001,1729421952299.0,0.0
-6.661618,-5.91745,-4.376472,354.130005,49.84,21.42,1729421952299.0,0.0
-7.460821,-8.819944,-4.441079,312.269989,82.459999,21.77,1729421952299.0,0.0
-5.833702,-9.635897,-6.982256,307.299988,17.360001,10.57,1729421952315.0,0.0
-4.309474,-9.209974,-3.976871,376.73999,-33.529999,26.74,1729421952334.0,0.0
-3.091527,-8.870193,0.009571,528.640015,-21.07,-8.12,1729421952358.0,0.0
-3.381058,-8.154739,2.723032,495.670013,-5.39,-30.52,1729421952407.0,0.0
-3.924229,-8.915657,1.928615,420.910004,7.35,-65.449997,1729421952413.0,0.0
-3.026921,-5.051248,2.189433,321.299988,11.06,-43.400002,1729421952415.0,0.0
-3.196811,-1.385444,4.76411,238.490005,29.540001,-12.81,1729421952435.0,0.0
-3.996014,-1.722832,5.386244,111.160004,39.549999,14.77,1729421952525.0,0.0
-3.54377,-3.156133,4.335794,-133.699997,19.32,36.259998,1729421952535.0,0.0
-3.912265,-4.955536,4.005585,-270.200012,13.93,43.68,1729421952536.0,0.0
-5.099105,-5.608776,3.462414,-388.570007,24.710001,43.470001,1729421952538.0,0.0
-7.305287,-7.460821,2.416751,-516.25,40.810001,22.540001,1729421952539.0,0.0
-7.743174,-7.999206,-3.388237,-668.570007,27.370001,-47.389999,1729421952554.0,0.0
-7.446464,-9.674182,-7.271788,-745.5,-46.549999,-97.300003,1729421952587.0,0.0
-4.486543,-8.946764,-10.406385,-673.960022,-122.779999,-86.660004,1729421952596.0,0.0
-2.09372,-7.915457,-10.817951,-466.410004,-90.230003,-32.41,1729421952616.0,0.0
-2.500499,-7.441679,-9.355937,-258.299988,-5.67,-2.94,1729421952634.0,0.0
-4.204189,-6.879365,-8.980263,-137.550003,64.190002,-16.24,1729421952654.0,0.0
-5.977271,-5.4676,-7.099504,-72.519997,65.379997,-19.040001,1729421952676.0,0.0
-5.76431,-5.644669,-7.281359,-26.18,18.129999,-7.35,1729421952697.0,0.0
-4.508078,-8.760124,-7.479963,22.68,-32.970001,5.25,1729421952717.0,0.0
-3.833302,-10.705488,-5.022535,99.82,-18.9,6.37,1729421952736.0,0.0
-3.689733,-8.070991,-6.068198,206.990005,24.85,-1.68,1729421952755.0,0.0
-4.890929,-6.845865,-4.098906,274.890015,65.870003,11.83,1729421952776.0,0.0
-6.532406,-9.145369,-2.447858,297.779999,40.110001,10.71,1729421952798.0,0.0
-5.288138,-7.331609,-4.551149,436.029999,-30.870001,33.040001,1729421952816.0,0.0
-4.749753,-5.381458,-4.572684,505.75,-3.08,40.459999,1729421952835.0,0.0
-5.32403,-5.005785,-4.216154,528.98999,12.32,32.48,1729421952856.0,0.0
-3.878766,-6.735795,-1.057628,483.559998,0.28,12.95,1729421952877.0,0.0
-1.636691,-8.195417,2.835495,347.549988,-16.1,-3.85,1729421952898.0,0.0
-1.820938,-9.805787,3.046063,184.029999,11.48,-17.5,1729421952915.0,0.0
-5.178068,-6.876972,2.189433,41.93,35.279999,5.32,1729421952935.0,0.0
-5.568098,-3.962514,4.902894,-29.469999,18.83,45.080002,1729421952955.0,0.0
-4.139583,-4.821537,4.572684,-141.960007,-18.200001,23.030001,1729421952975.0,0.0
-4.299902,-7.300502,2.962314,-241.990005,-36.259998,9.1,1729421952996.0,0.0
-4.627719,-10.887343,1.031307,-213.639999,-46.130001,14.21,1729421953017.0,0.0
-4.321437,-9.77468,1.770689,-137.410004,-18.969999,26.389999,1729421953035.0,0.0
-5.211568,-7.905886,2.112862,-135.169998,35.98,31.360001,1729421953057.0,0.0
-6.79083,-8.707481,-0.535992,-251.930008,54.25,-11.9,1729421953075.0,0.0
-7.403394,-10.243673,-3.28056,-380.869995,6.93,-46.830002,1729421953101.0,0.0
-6.209375,-9.62154,-5.168497,-440.580017,-15.05,-59.990002,1729421953116.0,0.0
-4.201797,-5.539384,-5.568098,-440.929993,-6.86,-54.32,1729421953136.0,0.0
-3.407379,-5.716454,-6.795617,-365.820007,-6.79,-37.450001,1729421953155.0,0.0
-3.35713,-6.147161,-7.582855,-314.720001,-13.37,-40.670002,1729421953176.0,0.0
-4.847858,-8.394022,-6.98465,-194.460007,-16.17,-25.969999,1729421953197.0,0.0
-5.474778,-11.313265,-7.355537,12.53,-15.54,-3.22,1729421953215.0,0.0
-4.103691,-9.734003,-6.699903,216.369995,-14.63,8.68,1729421953238.0,0.0
-3.651447,-5.228317,-5.979663,306.320007,33.880001,28.98,1729421953350.0,0.0
-6.656832,-4.931608,-4.479364,282.380005,54.599998,36.68,1729421953350.0,0.0
-6.84108,-6.716653,-5.728417,215.110001,37.939999,3.43,1729421953351.0,0.0
-6.21416,-8.236095,-7.058826,214.830002,14.0,23.870001,1729421953351.0,0.0
-5.056034,-9.370294,-4.338188,293.019989,-12.46,22.68,1729421953352.0,0.0
-4.61097,-9.080762,-3.529413,361.339996,7.98,9.1,1729421953378.0,0.0
-4.888536,-8.315059,-0.887737,417.059998,27.65,-5.32,1729421953378.0,0.0
-4.883751,-7.288538,1.105484,415.380005,23.309999,-12.74,1729421953398.0,0.0
-4.957928,-6.52762,2.416751,337.610016,22.610001,-19.879999,1729421953415.0,0.0
-6.017949,-7.343572,3.701697,206.919998,18.34,-28.49,1729421953435.0,0.0
-6.848258,-7.56132,3.883551,68.389999,-0.98,-38.150002,1729421953455.0,0.0
-6.135197,-8.190632,2.768496,-40.670002,-21.84,-40.529999,1729421953475.0,0.0
-4.876573,-8.444271,3.019742,-71.400002,-22.75,-40.040001,1729421953498.0,0.0
-4.055835,-8.724231,2.22054,-87.709999,-38.849998,-37.099998,1729421953527.0,0.0
-2.892922,-10.124033,1.842474,-63.490002,-48.720001,-36.959999,1729421953537.0,0.0
-1.753939,-10.061819,1.160519,-31.15,-33.18,-37.029999,1729421953556.0,0.0
-0.713061,-9.796216,0.705883,20.93,-10.22,-31.639999,1729421953576.0,0.0
0.181855,-9.269794,0.409173,48.790001,22.26,-29.33,1729421953629.0,0.0
-0.504886,-8.836694,-0.122034,19.25,56.560001,-39.48,1729421953643.0,0.0
-1.555335,-10.131211,-0.81356,6.23,49.98,-45.009998,1729421953645.0,0.0
-1.210768,-11.722438,-0.215354,40.810001,33.459999,-40.32,1729421953663.0,0.0
0.217747,-10.676775,0.344566,91.489998,37.73,-35.279999,1729421953675.0,0.0
-0.088534,-9.875179,0.79681,146.300003,68.459999,-30.450001,1729421953698.0,0.0
-1.756332,-7.601997,1.387837,173.669998,87.290001,-31.57,1729421953715.0,0.0
-2.931208,-4.804788,2.182254,184.660004,83.860001,-2.52,1729421953735.0,0.0
-4.194618,-1.574477,5.510671,180.460007,73.779999,31.5,1729421953756.0,0.0
-5.407779,-2.490928,7.379465,92.050003,67.059998,65.590004,1729421953776.0,0.0
-3.9673,-2.682354,6.491727,-38.290001,53.34,38.43,1729421953797.0,0.0
-5.807381,-4.656433,8.422735,-148.75,24.5,53.549999,1729421953816.0,0.0
-6.063413,-6.860222,3.591627,-224.0,5.53,41.02,1729421953837.0,0.0
-5.115855,-8.271988,3.314059,-207.059998,34.299999,22.33,1729421953857.0,0.0
-4.843073,-8.305488,2.605784,-181.160004,20.51,52.639999,1729421953877.0,0.0
-4.151547,-7.089933,1.033699,-175.910004,36.68,55.650002,1729421953897.0,0.0
-4.388437,-6.903293,-0.535992,-202.789993,62.580002,51.170002,1729421953916.0,0.0
-6.094519,-9.253045,-2.895315,-238.699997,50.610001,49.0,1729421953937.0,0.0
-8.267202,-13.227524,-6.087341,-244.440002,9.87,23.52,1729421953955.0,0.0
-8.575876,-16.230515,-9.710074,-145.529999,-28.630001,-14.35,1729421954110.0,0.0
-7.130611,-15.359529,-8.729016,57.610001,-14.77,-19.950001,1729421954126.0,0.0
-6.723832,-10.827522,-5.242674,244.509995,32.34,0.49,1729421954130.0,0.0
-7.62114,-7.367501,-1.971686,353.429993,55.439999,4.41,1729421954131.0,0.0
-7.963314,-4.957928,-0.177069,385.630005,25.969999,9.66,1729421954131.0,0.0
-7.185646,-4.527221,4.742575,363.790009,-41.860001,14.28,1729421954140.0,0.0
-4.398008,-6.575477,7.066005,293.369995,-102.970001,-16.17,1729421954140.0,0.0
-1.129412,-8.035098,7.74796,173.25,-144.130005,-58.450001,1729421954140.0,0.0
-0.294317,-7.745567,6.209375,209.089996,-48.93,-40.950001,1729421954141.0,0.0
-1.691726,-5.06082,5.71406,300.720001,25.969999,-47.25,1729421954326.0,0.0
-1.993221,0.803988,6.025128,277.410004,58.380001,-17.780001,1729421954328.0,0.0
-4.948357,2.29711,6.477371,180.389999,67.550003,39.48,1729421954352.0,0.0
-6.683154,0.595813,6.776474,20.370001,43.049999,27.719999,1729421954354.0,0.0
-7.235896,-2.313859,6.594619,-135.100006,6.93,21.07,1729421954358.0,0.0
-6.360123,-6.613762,7.712067,-225.889999,-23.870001,11.41,1729421954359.0,0.0
-4.754539,-8.827123,7.109076,-309.190002,-14.0,-4.48,1729421954360.0,0.0
-4.347759,-7.896315,4.453043,-370.440002,23.030001,6.44,1729421954444.0,0.0
-2.938386,-7.865208,2.041078,-325.290009,36.119999,1.68,1729421954446.0,0.0
-3.019742,-6.74776,2.969493,-276.149994,55.93,18.059999,1729421954447.0,0.0
-5.350351,-5.15414,2.790031,-263.410004,57.470001,48.860001,1729421954451.0,0.0
-6.125626,-5.711668,-1.033699,-272.579987,43.189999,16.309999,1729421954455.0,0.0
-7.049256,-8.760124,-5.012963,-287.980011,41.369999,-22.540001,1729421954457.0,0.0
-7.726424,-12.270394,-5.379066,-210.419998,-14.0,-30.870001,1729421954493.0,0.0
-6.056234,-13.552947,-6.285945,-20.51,-35.700001,-38.639999,1729421954493.0,0.0
-5.855237,-12.021541,-6.336195,119.629997,-20.23,-32.549999,1729421954494.0,0.0
-5.221139,-10.406385,-3.431308,266.350006,-14.84,-22.469999,1729421954505.0,0.0
-4.376472,-7.200003,-0.760918,372.26001,-18.48,1.54,1729421954506.0,0.0
-5.003392,-4.12044,4.400401,416.220001,-5.74,42.209999,1729421954514.0,0.0
-5.343173,-5.113462,6.087341,356.019989,-32.27,29.889999,1729421954534.0,0.0
-4.613362,-7.015756,7.190433,256.410004,-99.540001,-44.52,1729421954555.0,0.0
-0.224925,-8.092526,11.100305,231.699997,-133.630005,-49.490002,1729421954575.0,0.0
1.004985,-3.718446,7.501499,221.059998,2.45,-16.870001,1729421954595.0,0.0
-1.823331,-1.978864,5.436492,194.600006,60.200001,-8.54,1729421954614.0,0.0
-6.23091,-1.177269,4.587041,86.800003,22.4,16.379999,1729421954634.0,0.0
-7.441679,-2.455036,5.958128,42.490002,4.27,14.49,1729421954654.0,0.0
-6.123233,-2.969493,7.300502,-11.2,31.360001,17.01,1729421954682.0,0.0
-6.163911,-4.663611,7.999206,-107.800003,19.809999,21.07,1729421954696.0,0.0
-4.536791,-7.77428,6.242875,-189.770004,-7.98,2.45,1729421954796.0,0.0
-4.302295,-6.800402,5.455636,-227.990005,15.89,-2.52,1729421954797.0,0.0
-2.837888,-5.69731,2.940779,-271.670013,35.630001,3.5,1729421954797.0,0.0
-3.215954,-7.066005,0.492921,-261.450012,54.040001,19.110001,1729421954797.0,0.0
-5.778666,-6.912865,0.308674,-249.899994,74.900002,20.719999,1729421954814.0,0.0
-7.401,-7.183254,-0.995414,-248.5,66.220001,20.860001,1729421954834.0,0.0
-8.039884,-8.130811,-1.158126,-237.020004,35.98,27.860001,1729421954854.0,0.0
-7.24786,-9.257831,-3.163311,-213.570007,-10.64,-23.309999,1729421954959.0,0.0
-6.65444,-12.356536,-6.197411,-145.25,-24.43,-34.509998,1729421954959.0,0.0
-7.111469,-15.562919,-7.51107,-24.08,-41.580002,-65.169998,1729421954960.0,0.0
-5.309673,-13.033704,-6.953543,136.990005,-48.580002,-55.790001,1729421954960.0,0.0
-4.070191,-9.08794,-1.921437,317.869995,-5.74,-0.35,1729421954960.0,0.0
-4.285545,-6.24766,4.055835,394.029999,27.23,25.059999,1729421954976.0,0.0
-5.484349,-6.477371,6.094519,340.200012,-5.46,3.99,1729421954996.0,0.0
-6.872187,-8.664411,6.259624,212.869995,-80.150002,-53.200001,1729421955014.0,0.0
-3.553342,-10.174281,6.78126,213.990005,-155.259995,-83.790001,1729421955124.0,0.0
2.591427,-6.171089,8.26481,323.049988,-75.389999,-61.880001,1729421955125.0,0.0
-0.179462,-0.205783,7.372287,335.160004,92.120003,-41.439999,1729421955125.0,0.0
-7.173682,1.12702,5.82413,216.020004,77.769997,11.76,1729421955125.0,0.0
-7.245467,-1.540978,5.388636,-21.280001,-13.16,12.81,1729421955126.0,0.0
-4.608576,-3.172883,6.058627,-84.840004,-47.529999,1.75,1729421955156.0,0.0
-3.881158,-4.541577,6.233303,-84.0,-12.67,34.790001,1729421955160.0,0.0
-5.426922,-4.948357,5.359922,-100.519997,45.990002,43.330002,1729421955175.0,0.0
-6.439085,-6.872187,6.051448,-154.350006,57.540001,35.420002,1729421955196.0,0.0
-4.833502,-7.903493,4.548756,-249.830002,35.07,3.57,1729421955224.0,0.0
-3.125026,-8.788837,1.533799,-307.160004,31.780001,-5.32,1729421955235.0,0.0
-4.371687,-6.690332,0.052642,-296.23999,44.939999,21.139999,1729421955283.0,0.0
-5.699703,-5.182854,2.395216,-227.430008,48.509998,56.700001,1729421955299.0,0.0
-6.809973,-5.91745,1.402194,-138.669998,46.549999,68.879997,1729421955318.0,0.0
-8.288737,-8.941978,-1.306481,-191.520004,22.889999,-11.48,1729421955340.0,0.0
-8.245667,-11.595619,-2.98385,-175.139999,-21.98,-32.619999,1729421955358.0,0.0
-6.874579,-12.423534,-3.381058,-98.209999,-40.599998,-42.0,1729421955375.0,0.0
-6.24766,-12.626925,-4.110869,9.24,-36.68,-51.170002,1729421955396.0,0.0
-5.778666,-13.808979,-4.225725,147.559998,-40.950001,-47.740002,1729421955415.0,0.0
-4.067799,-7.879565,3.737589,279.860016,-45.150002,-24.5,1729421955436.0,0.0
-5.833702,-5.941379,8.508877,297.709991,-2.1,21.210001,1729421955454.0,0.0
-5.548956,-5.74756,3.854837,159.180008,-38.639999,-31.01,1729421955474.0,0.0
-5.010571,-12.705888,2.232504,100.099998,-107.730003,-93.029999,1729421955498.0,0.0
0.181855,-12.430713,9.320045,184.309998,-182.070007,-105.980003,1729421955514.0,0.0
2.443072,-2.378466,6.752545,310.029999,-1.26,-45.220001,1729421955534.0,0.0
-1.768296,1.435694,4.82393,338.380005,124.389999,-3.99,1729421955562.0,0.0
-8.458629,-0.42353,5.690133,186.270004,38.5,24.639999,1729421955574.0,0.0
-6.396015,-1.179662,6.592227,63.349998,-47.18,-27.23,1729421955599.0,0.0
-2.108077,-1.31366,7.812566,-16.24,-8.68,0.91,1729421955615.0,0.0
-4.675575,-2.924029,6.04427,-105.629997,31.219999,37.799999,1729421955635.0,0.0
-5.333601,-4.85743,5.556134,-130.899994,5.25,14.21,1729421955655.0,0.0
-4.948357,-6.314659,6.180661,-143.430008,27.16,27.370001,1729421955676.0,0.0
-3.388237,-6.458229,5.319244,-204.399994,51.59,26.67,1729421955696.0,0.0
-1.646262,-5.838487,2.904887,-281.399994,70.980003,19.809999,1729421955715.0,0.0
-2.713461,-5.345565,0.239282,-338.450012,86.169998,40.599998,1729421955736.0,0.0
-7.128219,-8.776874,-1.191626,-310.799988,52.990002,39.41,1729421955755.0,0.0
-8.803195,-12.880564,-1.617548,-264.73999,17.219999,5.39,1729421955775.0,0.0
-8.212167,-13.098311,-2.323431,-198.869995,-19.389999,-29.889999,1729421955797.0,0.0
-6.568298,-12.421142,-3.981657,-69.090004,-28.77,-32.130001,1729421955815.0,0.0
-6.575477,-12.040684,-2.100898,59.290001,-20.440001,-27.09,1729421955839.0,0.0
-6.616155,-11.844472,-0.232104,126.419998,-34.580002,-42.630001,1729421955856.0,0.0
-5.871986,-10.320245,-1.911865,169.330002,-54.529999,-59.150002,1729421955878.0,0.0
