acc_x,acc_y,acc_z,gyr_x,gyr_y,gyr_z,timestamp,label
-3.802195,-7.944171,-6.85783,4.13,28.42,-14.63,1729420083539.0,0.0
-3.5007,-8.003991,-6.778866,2.31,31.57,-18.41,1729420083539.0,0.0
-3.385844,-7.9681,-6.419943,4.9,34.720001,-19.25,1729420083540.0,0.0
-3.326023,-7.980063,-6.128019,16.1,35.91,-19.040001,1729420083540.0,0.0
-3.227918,-7.970492,-6.173482,28.280001,37.799999,-21.139999,1729420083547.0,0.0
-3.218346,-7.700103,-6.171089,30.450001,39.41,-24.99,1729420083571.0,0.0
-3.165704,-7.554141,-6.015556,22.4,39.48,-27.65,1729420083588.0,0.0
-3.139383,-7.853244,-5.682954,20.93,37.029999,-29.540001,1729420083608.0,0.0
-3.022135,-7.628319,-5.491528,29.960001,31.01,-31.15,1729420083627.0,0.0
-2.603391,-6.970293,-5.501099,39.200001,28.280001,-31.15,1729420083648.0,0.0
-2.567499,-6.860222,-5.613562,19.110001,19.460001,-35.07,1729420083674.0,0.0
-2.720639,-7.176075,-5.237889,-3.78,13.09,-37.240002,1729420083687.0,0.0
-2.916851,-7.872386,-4.785645,-10.43,6.65,-37.73,1729420083708.0,0.0
-3.017349,-8.078169,-4.323831,-6.02,-1.33,-41.369999,1729420083727.0,0.0
-3.306881,-8.288737,-4.905287,7.84,-6.37,-39.759998,1729420083748.0,0.0
-3.641876,-7.635497,-4.742575,18.549999,-13.02,-37.450001,1729420083769.0,0.0
-3.806981,-6.838687,-4.285545,17.92,-24.15,-32.900002,1729420083787.0,0.0
-3.570091,-6.443871,-4.895715,11.41,-29.68,-27.860001,1729420083808.0,0.0
-2.660819,-5.067998,-8.133204,20.719999,-30.940001,-14.7,1729420083828.0,0.0
-3.823731,-2.411965,-9.190832,46.900002,-26.460001,19.389999,1729420083848.0,0.0
-6.38405,-6.597012,-5.448457,113.470001,-1.82,53.27,1729420083869.0,0.0
-8.365308,-12.784851,1.598405,130.339996,15.4,41.860001,1729420083888.0,0.0
-7.357929,-9.590433,-4.41715,13.23,6.02,13.02,1729420083907.0,0.0
-3.574877,-7.692925,-9.394222,-58.099998,1.05,-0.91,1729420083927.0,0.0
-1.196411,-8.676375,-4.725825,11.06,-5.88,20.370001,1729420083948.0,0.0
-1.210768,-9.396614,-1.277767,78.050003,42.98,28.07,1729420083969.0,0.0
-2.270789,-4.883751,4.027121,55.720001,65.519997,13.23,1729420083987.0,0.0
-3.771089,-5.237889,1.385444,-56.91,-39.549999,-1.33,1729420084008.0,0.0
-4.68754,-7.314859,-5.221139,-152.949997,-25.34,-44.66,1729420084029.0,0.0
-2.227718,-11.157731,-6.613762,-115.989998,-134.960007,-59.920002,1729420084048.0,0.0
0.318245,-7.446464,-3.74716,-98.349998,-230.369995,-59.639999,1729420084070.0,0.0
-1.964507,-1.749153,-9.312866,-182.279999,-162.399994,-75.25,1729420084088.0,0.0
-4.878965,-7.79103,-19.642681,-126.559998,75.389999,-48.23,1729420084108.0,0.0
-7.188039,-16.070196,-8.80798,-59.990002,57.119999,0.07,1729420084128.0,0.0
-4.175476,-10.073784,-8.695518,-12.6,18.690001,31.5,1729420084148.0,0.0
-1.0002,-4.393222,-11.956935,52.290001,15.68,26.74,1729420084169.0,0.0
-0.861416,-8.85823,-7.91785,77.07,86.800003,13.51,1729420084196.0,0.0
-1.282553,-7.283752,-0.748954,11.97,107.309998,-5.74,1729420084208.0,0.0
-0.581456,-6.252446,2.852244,-48.16,46.619999,-21.42,1729420084230.0,0.0
0.899701,-7.149754,-0.447458,-27.719999,-23.309999,-28.559999,1729420084248.0,0.0
0.062213,-4.386044,0.564706,-33.110001,-29.33,-48.09,1729420084269.0,0.0
-0.425922,-4.421937,-2.038685,-74.059998,-70.980003,-86.099998,1729420084288.0,0.0
-0.739382,-1.339981,-9.164511,-101.150002,-111.440002,-74.550003,1729420084308.0,0.0
-4.754539,-7.936993,-14.00519,-63.91,-40.18,9.17,1729420084328.0,0.0
-7.673782,-8.901299,-17.70928,-178.639999,85.959999,1.47,1729420084348.0,0.0
-6.070591,-14.287544,-13.507483,-145.460007,45.360001,31.01,1729420084372.0,0.0
-0.40678,-10.837094,-11.91147,45.849998,-6.37,65.309998,1729420084387.0,0.0
0.995414,-7.197611,-10.090532,138.460007,53.760002,62.23,1729420084408.0,0.0
-1.607977,-8.367701,-6.252446,112.699997,149.660004,45.080002,1729420084428.0,0.0
-3.878766,-7.551748,0.839881,43.75,135.169998,10.29,1729420084448.0,0.0
-2.045863,-7.15454,-1.677369,9.8,39.549999,-25.83,1729420084470.0,0.0
-0.480957,-3.976871,-0.514457,29.960001,-33.32,-33.25,1729420084488.0,0.0
-2.09372,-1.117448,-0.346959,-0.98,-23.24,-45.43,1729420084508.0,0.0
-2.723032,-0.057428,-6.687939,-102.129997,-38.360001,-75.040001,1729420084528.0,0.0
-0.875773,-0.81356,-10.602598,-133.0,-115.709999,-52.150002,1729420084548.0,0.0
-3.012564,-6.312266,-12.387643,-66.57,-86.730003,16.030001,1729420084570.0,0.0
-8.836694,-11.203196,-17.749958,-166.320007,95.410004,13.16,1729420084590.0,0.0
-3.48395,-12.765708,-12.263215,-24.15,33.25,52.150002,1729420084609.0,0.0
1.150948,-9.707682,-10.243673,148.119995,9.94,79.870003,1729420084629.0,0.0
0.842274,-7.326823,-4.534399,153.580002,92.82,51.73,1729420084649.0,0.0
-0.646062,-8.537591,-6.075377,89.040001,131.460007,15.96,1729420084678.0,0.0
0.260818,-6.06102,-3.069991,60.970001,50.610001,-9.31,1729420084689.0,0.0
1.004985,-4.953143,0.641276,17.85,-14.14,-34.790001,1729420084709.0,0.0
0.272782,-2.301895,-3.555735,-27.65,-17.360001,-52.150002,1729420084730.0,0.0
-1.234696,0.497707,-2.35693,-25.620001,-35.420002,-56.77,1729420084749.0,0.0
-1.87358,2.227718,-4.558327,-62.580002,-81.410004,-31.360001,1729420084772.0,0.0
-2.742175,-2.708675,-12.435498,-113.82,-80.919998,-7.42,1729420084789.0,0.0
-6.73101,-7.898707,-15.371492,-157.570007,-29.960001,24.92,1729420084809.0,0.0
-7.106683,-11.263017,-18.616161,-190.539993,45.009998,7.35,1729420084830.0,0.0
-3.010171,-12.021541,-12.457035,-27.23,8.33,49.77,1729420084850.0,0.0
1.055235,-8.745767,-9.217153,135.589996,-1.96,64.959999,1729420084872.0,0.0
0.33021,-6.563512,-6.563512,108.57,56.349998,40.18,1729420084889.0,0.0
-1.083949,-9.901501,-10.657632,67.830002,77.489998,4.69,1729420084914.0,0.0
0.339781,-5.613562,-3.78066,56.209999,25.48,-28.42,1729420084929.0,0.0
0.083749,-4.759324,-1.083949,38.43,-27.299999,-52.080002,1729420084949.0,0.0
-0.66999,0.39003,-1.509871,14.0,-34.299999,-49.700001,1729420084971.0,0.0
-0.583849,2.22054,-5.271388,-23.450001,-74.970001,-48.439999,1729420084989.0,0.0
-0.332602,1.433301,-9.016156,-64.120003,-102.129997,-22.960001,1729420085010.0,0.0
-3.053242,-3.548556,-13.643874,-101.779999,-49.0,12.32,1729420085029.0,0.0
-7.393822,-10.487741,-14.912071,-96.949997,19.25,50.400002,1729420085049.0,0.0
-6.9344,-10.966305,-14.175081,-110.389999,48.509998,30.66,1729420085072.0,0.0
-1.928615,-11.837293,-9.08794,41.720001,-12.81,55.299999,1729420085089.0,0.0
1.765903,-8.425128,-7.783852,141.610001,-6.3,61.810001,1729420085108.0,0.0
1.344766,-7.013363,-8.188239,103.18,51.380001,36.540001,1729420085129.0,0.0
0.29671,-6.809973,-4.960321,60.760002,47.810001,12.11,1729420085149.0,0.0
0.87338,-6.343372,-1.37348,47.25,-4.62,-5.11,1729420085171.0,0.0
2.09372,-2.184647,-3.237489,64.540001,-34.790001,-7.84,1729420085190.0,0.0
-0.189033,-0.904487,-1.39023,54.32,-32.27,8.47,1729420085209.0,0.0
-2.333002,-2.22054,-2.275574,-13.93,-44.380001,-7.49,1729420085229.0,0.0
-2.770889,-3.053242,-8.355737,-72.590004,-90.790001,-4.83,1729420085249.0,0.0
-3.311667,-4.419543,-14.658432,-99.470001,-113.050003,13.72,1729420085272.0,0.0
-6.350551,-9.111869,-15.8692,-55.09,-31.57,34.439999,1729420085290.0,0.0
-7.649854,-10.839487,-15.8357,-24.08,56.0,19.530001,1729420085308.0,0.0
-4.651647,-8.087741,-7.13779,118.020004,19.25,47.670002,1729420085330.0,0.0
-1.404587,-3.385844,-6.472585,191.729996,12.95,60.970001,1729420085350.0,0.0
-2.311467,-4.398008,-6.068198,132.860001,53.900002,44.170002,1729420085372.0,0.0
-3.254239,-7.980063,-4.711468,64.959999,79.449997,6.86,1729420085389.0,0.0
-1.813759,-5.723632,-0.693919,74.550003,14.63,2.38,1729420085408.0,0.0
0.978664,-1.442872,1.392623,115.010002,-53.34,3.64,1729420085428.0,0.0
0.332602,0.98345,-0.26321,69.300003,-63.560001,18.27,1729420085449.0,0.0
-3.986443,-2.878566,-2.998207,-91.699997,-48.439999,-6.02,1729420085470.0,0.0
-7.491928,-9.10469,-10.887343,-213.149994,-74.199997,-22.889999,1729420085489.0,0.0
-7.9011,-11.760723,-14.170296,-113.610001,-96.040001,-2.24,1729420085509.0,0.0
-7.889136,-7.491928,-19.518253,-2.73,-5.88,31.290001,1729420085528.0,0.0
-7.252645,-9.138189,-17.637495,-60.060001,54.110001,5.53,1729420085548.0,0.0
-6.482157,-14.586647,-11.629118,38.990002,67.269997,24.360001,1729420085571.0,0.0
-5.249853,-7.939385,-6.211767,158.130005,87.010002,14.84,1729420085588.0,0.0
-2.481357,-4.046263,-5.47717,153.229996,88.199997,-4.41,1729420085609.0,0.0
0.315853,-3.751946,3.400201,69.860001,31.92,-11.13,1729420085629.0,0.0
2.15354,-4.304688,4.972286,65.870003,-37.099998,-15.96,1729420085648.0,0.0
0.567099,-3.912265,3.069991,47.32,-47.459999,-2.8,1729420085674.0,0.0
-2.981457,-2.56032,-0.40678,-85.050003,-41.23,-36.330002,1729420085689.0,0.0
-6.975078,-5.833702,-6.903293,-206.919998,-96.25,-38.150002,1729420085708.0,0.0
-6.374479,-10.140782,-17.295322,-208.320007,-124.669998,-41.720001,1729420085728.0,0.0
-6.580262,-10.502099,-16.634903,-104.93,-52.009998,-1.89,1729420085749.0,0.0
-7.018148,-6.850651,-16.139589,-70.489998,63.630001,26.530001,1729420085770.0,0.0
-5.364708,-8.547162,-10.437491,-40.529999,56.98,21.629999,1729420085788.0,0.0
-3.326023,-10.135997,-6.60419,37.240002,32.27,32.27,1729420085809.0,0.0
-1.911865,-7.240681,-9.188439,60.34,44.029999,21.559999,1729420085828.0,0.0
-1.842474,-6.709475,-8.140383,94.150002,73.57,0.98,1729420085850.0,0.0
-1.694118,-7.240681,-3.244668,81.550003,70.209999,-21.98,1729420085872.0,0.0
-1.351945,-4.922036,0.698704,54.040001,27.860001,-31.92,1729420085888.0,0.0
-0.937986,-1.012164,1.581656,18.059999,-13.86,-48.299999,1729420085908.0,0.0
-0.949951,1.598405,-2.711068,-11.48,-43.470001,-29.33,1729420085929.0,0.0
-1.59362,-1.646262,-10.983055,-145.460007,-105.980003,-30.52,1729420085948.0,0.0
-3.684947,-9.300901,-16.778471,-179.970001,-53.760002,-14.84,1729420085970.0,0.0
-7.84128,-13.816156,-18.204596,-114.800003,43.400002,14.07,1729420085989.0,0.0
-8.597411,-10.925629,-15.079568,-51.380001,118.510002,11.55,1729420086008.0,0.0
-3.15374,-10.188639,-9.040084,79.519997,28.559999,15.54,1729420086028.0,0.0
0.614955,-6.039484,-4.283153,94.779999,-6.3,24.15,1729420086049.0,0.0
1.198804,-7.889136,-10.832308,86.099998,39.830002,-6.51,1729420086069.0,0.0
-0.567099,-7.173682,-7.207181,133.0,104.510002,-12.04,1729420086088.0,0.0
-2.07697,-6.252446,-3.682554,202.369995,87.360001,-4.69,1729420086109.0,0.0
-2.306681,-1.679761,0.729811,207.479996,35.630001,-1.26,1729420086129.0,0.0
-1.165305,-4.706682,-1.445265,224.559998,-19.6,-9.8,1729420086149.0,0.0
-0.504886,-6.273981,-4.096512,158.199997,-54.880001,8.12,1729420086170.0,0.0
-0.538385,-4.175476,-5.312066,34.02,-56.490002,-3.71,1729420086188.0,0.0
-1.919044,-8.044669,-9.138189,2.38,5.74,-0.7,1729420086208.0,0.0
-4.309474,-14.684752,-7.467999,73.989998,59.290001,27.93,1729420086236.0,0.0
-5.099105,-11.746366,-5.685347,87.57,74.620003,40.459999,1729420086248.0,0.0
-2.816352,-8.386844,-4.632504,133.210007,31.5,44.099998,1729420086272.0,0.0
-2.033899,-10.033106,-3.615555,113.889999,-5.18,18.200001,1729420086291.0,0.0
-2.40718,-11.062018,-1.26341,98.0,-0.77,8.68,1729420086308.0,0.0
-2.26361,-9.628718,-0.72024,77.419998,0.21,10.01,1729420086328.0,0.0
-2.828316,-6.690332,0.404387,-16.309999,-21.77,3.92,1729420086350.0,0.0
-2.761317,-3.792624,-3.117848,-172.550003,-24.08,-25.9,1729420086371.0,0.0
-3.646662,-4.086941,-5.235496,-269.360016,-47.670002,-50.330002,1729420086389.0,0.0
-3.854837,-7.56132,-7.946564,-311.920013,-50.959999,-72.660004,1729420086410.0,0.0
-4.125226,-11.222338,-7.367501,-282.519989,-64.050003,-72.519997,1729420086429.0,0.0
-3.448057,-8.173882,-8.329416,-248.639999,-73.709999,-64.610001,1729420086449.0,0.0
-3.117848,-6.305088,-7.006185,-190.820007,-70.139999,-69.019997,1729420086472.0,0.0
-2.85703,-5.4676,-6.960721,-157.220001,-56.77,-65.449997,1729420086491.0,0.0
-2.079363,-6.754939,-6.52762,-123.129997,-39.970001,-56.91,1729420086512.0,0.0
-1.284946,-6.508478,-8.123632,-131.180008,-47.389999,-59.920002,1729420086530.0,0.0
-1.765903,-5.163712,-8.169096,-132.580002,-41.720001,-60.060001,1729420086550.0,0.0
-1.962115,-5.726025,-8.788837,-127.82,-27.719999,-52.080002,1729420086572.0,0.0
-2.230111,-5.338387,-8.602197,-121.730003,-34.02,-43.889999,1729420086590.0,0.0
-1.883151,-3.139383,-9.262616,-158.130005,-28.559999,-42.77,1729420086611.0,0.0
-2.67039,-3.862016,-9.044869,-158.059998,-12.81,-23.17,1729420086631.0,0.0
-2.536392,-2.754139,-11.806188,-172.339996,-2.38,-29.540001,1729420086652.0,0.0
-4.414758,-4.639683,-10.841879,-143.220001,14.42,-10.15,1729420086675.0,0.0
-2.349752,-3.584448,-8.152347,-34.02,-20.23,-1.33,1729420086691.0,0.0
-2.311467,0.332602,-5.862415,-40.459999,4.2,6.51,1729420086711.0,0.0
-4.103691,-2.928815,-7.051648,-65.449997,31.639999,-5.81,1729420086730.0,0.0
-3.261417,-0.370888,-9.542577,-111.650002,-3.36,0.63,1729420086751.0,0.0
-0.988236,-1.931008,-13.500306,-103.32,-11.55,10.78,1729420086772.0,0.0
-0.382852,-5.694918,-12.710674,-39.619999,-11.13,2.8,1729420086792.0,0.0
-1.605584,-3.273381,-10.9017,1.68,13.72,18.200001,1729420086813.0,0.0
-2.89053,-2.507678,-8.781659,3.78,14.14,10.85,1729420086832.0,0.0
-2.782853,-3.706482,-8.520842,12.11,1.05,9.66,1729420086851.0,0.0
-3.04367,-4.398008,-10.171888,60.200001,-7.84,19.110001,1729420086872.0,0.0
-3.0006,-1.887937,-10.813165,103.879997,-0.49,40.810001,1729420086892.0,0.0
-2.088934,-2.079363,-11.667403,122.010002,12.32,43.959999,1729420086911.0,0.0
-2.282753,-2.117648,-9.602397,140.279999,15.26,52.779999,1729420086930.0,0.0
-2.672783,-2.799603,-7.156933,126.770004,19.6,38.990002,1729420086955.0,0.0
-3.65384,-5.759524,-6.723832,122.290001,15.82,37.310001,1729420086971.0,0.0
-2.323431,-6.733403,-10.904092,199.289993,19.67,36.610001,1729420086991.0,0.0
-2.548356,-6.417551,-9.71486,322.140015,-2.31,65.660004,1729420087010.0,0.0
-2.199004,-4.431508,-7.499106,367.920013,-5.04,65.519997,1729420087030.0,0.0
-1.18684,-1.361516,-5.082355,248.080002,-58.939999,47.32,1729420087050.0,0.0
0.698704,-2.371287,-8.123632,37.939999,-100.379997,15.190001,1729420087073.0,0.0
1.895115,-5.089533,-9.736395,-104.93,-71.470001,-14.84,1729420087090.0,0.0
1.258625,-7.13779,-8.903693,-119.07,-19.74,-11.06,1729420087110.0,0.0
-0.351745,-7.197611,-8.817552,-85.330002,34.790001,-0.35,1729420087130.0,0.0
-1.423729,-5.895915,-9.193225,-22.120001,65.309998,2.17,1729420087150.0,0.0
-2.486143,-3.335595,-8.322237,-30.380001,64.050003,13.51,1729420087171.0,0.0
-2.871387,-3.29731,-4.73061,-72.800003,54.18,2.17,1729420087190.0,0.0
-8.578269,-4.010371,1.397408,-231.979996,2.66,-13.51,1729420087210.0,0.0
-6.443871,-10.817951,-10.992627,-233.869995,3.71,-97.650002,1729420087230.0,0.0
-4.551149,-10.399208,-16.622938,-170.940002,-63.07,-73.5,1729420087250.0,0.0
-2.105684,-6.300302,-13.519447,5.88,-51.869999,-1.05,1729420087271.0,0.0
-1.923829,-5.158926,-7.958528,93.099998,-0.7,1.47,1729420087290.0,0.0
-3.912265,-1.828116,-6.252446,56.279999,58.59,9.52,1729420087310.0,0.0
-5.680561,-1.598405,-5.938986,18.48,43.049999,-5.81,1729420087330.0,0.0
-4.386044,-2.498107,-8.819944,-52.43,8.33,-36.189999,1729420087351.0,0.0
-2.179861,-4.529613,-10.174281,-91.980003,-43.259998,-52.360001,1729420087372.0,0.0
0.088534,-8.023134,-12.753745,-101.150002,-63.209999,-74.410004,1729420087390.0,0.0
0.327817,-6.429514,-8.645268,-59.360001,-31.219999,-57.400002,1729420087410.0,0.0
-0.531207,-2.864209,-10.604989,-1.54,13.86,-49.630001,1729420087430.0,0.0
-2.785245,-1.811367,-8.599805,14.42,43.889999,-51.029999,1729420087450.0,0.0
-3.270989,-3.689733,-9.762716,-1.19,14.21,-65.940002,1729420087472.0,0.0
-3.907479,0.837488,-8.312666,6.65,-10.29,-19.809999,1729420087491.0,0.0
-4.532006,1.885544,-8.063812,39.27,-6.09,5.04,1729420087511.0,0.0
-4.828716,-2.239682,-7.707282,-0.91,-9.03,-17.01,1729420087530.0,0.0
-3.34038,-3.48395,-9.200402,-30.66,-67.760002,12.25,1729420087550.0,0.0
-1.552942,-2.995814,-10.133603,13.440001,-49.420002,19.74,1729420087572.0,0.0
-1.897508,-2.995814,-9.183653,18.059999,1.19,39.060001,1729420087590.0,0.0
-3.330809,-4.022335,-11.705689,-44.099998,48.23,42.490002,1729420087610.0,0.0
-3.737589,-5.793024,-11.270195,-33.950001,50.68,59.57,1729420087631.0,0.0
-1.198804,-3.151347,-12.926028,38.360001,37.66,81.690002,1729420087650.0,0.0
-1.301696,-0.445065,-7.970492,101.849998,64.260002,123.199997,1729420087677.0,0.0
-1.959722,-5.551349,-4.37408,14.63,63.139999,65.029999,1729420087690.0,0.0
-1.782653,-13.028918,-2.624927,-81.550003,17.08,15.47,1729420087710.0,0.0
-0.583849,-16.326229,-6.757331,-39.130001,-38.150002,-23.870001,1729420087730.0,0.0
-0.693919,-8.953942,-12.14836,99.68,-8.89,-32.060001,1729420087750.0,0.0
-3.053242,1.29691,-13.11506,202.509995,90.790001,11.69,1729420087772.0,0.0
-5.869594,2.378466,-9.226725,160.649994,77.910004,23.73,1729420087790.0,0.0
-4.297509,-4.508078,-7.192825,0.91,-1.96,-23.24,1729420087810.0,0.0
-1.883151,-9.860823,-6.104091,-80.919998,-77.769997,-53.27,1729420087830.0,0.0
0.368495,-6.285945,-7.566105,-58.029999,-107.099998,-75.389999,1729420087850.0,0.0
-2.09372,2.017149,-7.750352,102.690002,-60.27,-48.16,1729420087872.0,0.0
-4.919643,4.163511,-9.41815,126.699997,20.16,-6.16,1729420087890.0,0.0
-4.488935,-3.900301,-12.59821,158.059998,8.75,9.8,1729420087911.0,0.0
-4.658825,-8.472985,-10.394422,158.690002,-16.59,22.4,1729420087930.0,0.0
-3.17049,-9.018548,-8.587841,192.289993,-58.59,21.700001,1729420087950.0,0.0
-0.842274,-7.944171,-9.509077,255.080002,-57.400002,15.82,1729420087973.0,0.0
-1.818545,-8.195417,-8.157133,341.040009,-31.01,27.51,1729420087989.0,0.0
-3.646662,-7.896315,-6.072984,459.899994,-14.14,35.560001,1729420088010.0,0.0
-3.37388,-6.482157,-5.773881,539.0,17.92,39.970001,1729420088030.0,0.0
-2.29711,-6.771688,-4.639683,512.820007,53.200001,32.200001,1729420088050.0,0.0
-4.122833,-8.54477,0.129212,514.150024,108.57,64.190002,1729420088071.0,0.0
-5.383851,-3.505485,8.592626,397.670013,60.34,26.809999,1729420088090.0,0.0
-3.034099,-3.833302,5.871986,190.75,48.790001,33.880001,1729420088110.0,0.0
-1.9669,-9.35833,-1.332802,67.269997,88.199997,2.59,1729420088130.0,0.0
-3.036492,-15.012569,-5.087141,85.400002,132.509995,-5.53,1729420088150.0,0.0
-5.130211,-14.828322,-1.07677,113.540001,137.619995,-53.060001,1729420088171.0,0.0
-7.034898,-10.272388,5.895915,102.550003,104.300003,-48.369999,1729420088190.0,0.0
-4.036692,-3.35713,4.216154,-29.469999,18.83,-38.080002,1729420088210.0,0.0
-1.627119,-6.62094,0.212961,-97.160004,2.24,-49.420002,1729420088229.0,0.0
-1.837688,-8.578269,3.17049,-57.470001,2.52,-36.119999,1729420088250.0,0.0
-3.87398,-5.927022,5.261817,31.780001,35.420002,-4.2,1729420088291.0,0.0
-5.915058,-4.902894,5.752346,26.32,39.689999,2.03,1729420088292.0,0.0
-5.402994,-9.233903,2.943172,-31.08,-13.16,-15.68,1729420088311.0,0.0
-4.036692,-10.164711,0.885344,-156.940002,-54.740002,-49.560001,1729420088331.0,0.0
-4.165904,-10.112068,1.138984,-227.639999,-48.23,-35.07,1729420088350.0,0.0
-2.67039,-9.633504,1.361516,-232.330002,-43.400002,-44.380001,1729420088372.0,0.0
-2.012364,-7.276574,1.864009,-280.209991,-65.590004,-40.25,1729420088390.0,0.0
-1.85683,-5.175675,-0.70349,-360.920013,-90.720001,-44.380001,1729420088410.0,0.0
-2.069792,-7.013363,-4.4339,-400.820007,-57.82,-63.209999,1729420088430.0,0.0
-3.457629,-9.769895,-4.73061,-394.450012,-10.22,-78.889999,1729420088451.0,0.0
-3.596412,-9.616754,-6.309873,-325.290009,-16.52,-85.889999,1729420088536.0,0.0
-2.885744,-8.872586,-5.666204,-224.210007,-44.310001,-67.830002,1729420088553.0,0.0
-2.213361,-5.843273,-5.199604,-196.910004,-54.880001,-52.920002,1729420088553.0,0.0
-1.969293,-5.711668,-7.611568,-210.139999,-32.549999,-60.619999,1729420088554.0,0.0
-2.801995,-9.056834,-6.943972,-182.559998,-20.719999,-46.549999,1729420088554.0,0.0
-2.586641,-7.999206,-6.872187,-145.809998,-24.08,-37.73,1729420088576.0,0.0
-1.619941,-4.26401,-8.587841,-168.139999,-46.830002,-45.080002,1729420088593.0,0.0
-1.612763,-4.108476,-8.925228,-205.800003,-30.940001,-31.15,1729420088611.0,0.0
-1.495514,-6.60419,-9.530612,-184.449997,-9.59,-16.450001,1729420088636.0,0.0
-0.583849,0.5001,-12.94517,-220.220001,-0.98,-47.18,1729420088652.0,0.0
-5.237889,-4.883751,-10.171888,-155.399994,15.190001,-0.84,1729420088676.0,0.0
-2.514857,-6.178268,-10.076177,-54.18,-22.190001,-13.3,1729420088691.0,0.0
-1.062413,-1.897508,-6.953543,-37.939999,-16.73,-3.22,1729420088711.0,0.0
-2.691926,-3.148954,-8.767302,-60.48,28.559999,-3.64,1729420088732.0,0.0
-3.361916,-0.868595,-7.872386,-68.32,26.67,1.82,1729420088755.0,0.0
-2.514857,-0.361316,-10.41835,-86.449997,2.17,11.34,1729420088773.0,0.0
-0.521635,-5.699703,-10.210175,-111.230003,-39.48,-10.01,1729420088792.0,0.0
-0.868595,-4.87418,-10.360922,-58.310001,-15.4,-6.79,1729420088813.0,0.0
-2.306681,-2.694318,-9.200402,-13.16,13.51,-0.77,1729420088832.0,0.0
-2.323431,0.023928,-9.734003,-32.900002,0.14,0.07,1729420088853.0,0.0
-2.222932,-1.993221,-11.01177,-57.260002,-7.98,-4.41,1729420088876.0,0.0
-2.48375,-3.493521,-10.604989,-42.209999,-4.76,-0.77,1729420088892.0,0.0
-2.270789,-3.608376,-10.030712,7.07,0.7,10.01,1729420088912.0,0.0
-2.225325,-3.282953,-9.288938,37.099998,0.98,16.030001,1729420088933.0,0.0
-1.866402,0.20339,-7.357929,50.189999,-8.75,18.620001,1729420088953.0,0.0
-2.081756,-1.261017,-10.281959,56.560001,0.35,22.960001,1729420088975.0,0.0
-3.182454,-5.778666,-11.109876,76.650002,6.79,21.0,1729420088996.0,0.0
-1.225125,-3.567699,-10.9017,151.830002,6.65,34.369999,1729420089012.0,0.0
-0.689133,-1.820938,-9.781858,159.880005,5.32,41.509998,1729420089033.0,0.0
-1.397408,-3.311667,-9.475577,133.279999,13.65,36.330002,1729420089053.0,0.0
-0.861416,-6.580262,-10.576276,190.470001,11.13,32.619999,1729420089074.0,0.0
-0.803988,-8.927622,-9.530612,281.820007,10.43,48.650002,1729420089092.0,0.0
-0.614955,-8.803195,-9.229117,355.040009,25.76,43.82,1729420089112.0,0.0
-1.196411,-8.123632,-10.839487,504.700012,53.549999,69.019997,1729420089132.0,0.0
-2.026721,-4.852644,-9.533006,544.669983,61.110001,77.349998,1729420089153.0,0.0
-3.050849,-3.931407,-6.276374,539.0,49.349998,91.980003,1729420089183.0,0.0
-2.18704,-2.335395,-2.155933,494.130005,27.370001,69.090004,1729420089220.0,0.0
-0.210568,-8.650054,-4.197011,403.480011,20.440001,20.65,1729420089225.0,0.0
-2.100898,0.275175,16.474585,394.029999,60.34,94.5,1729420089578.0,0.0
-8.958728,-3.23031,8.082954,74.480003,12.88,44.099998,1729420089580.0,0.0
-8.015956,-14.653646,-5.481956,-144.970001,149.449997,-21.35,1729420089581.0,0.0
-4.814359,-12.485749,-4.725825,-77.209999,-77.559998,7.7,1729420089582.0,0.0
-0.557528,-6.888937,-1.201197,9.03,-89.529999,21.0,1729420089583.0,0.0
-1.129412,-8.262416,-1.849652,-53.41,-24.780001,5.67,1729420089584.0,0.0
-3.017349,-11.028521,-2.959922,-158.130005,53.619999,-22.960001,1729420089585.0,0.0
-4.618148,-10.497313,-1.366302,-203.419998,53.200001,-38.849998,1729420089586.0,0.0
-4.907679,-10.327423,-0.265603,-209.089996,0.49,-45.849998,1729420089587.0,0.0
-4.567898,-9.777073,0.246461,-218.960007,-62.369999,-42.139999,1729420089588.0,0.0
-2.476572,-9.303294,-2.124826,-186.899994,-76.580002,-37.869999,1729420089588.0,0.0
-1.916651,-6.774081,-4.833502,-220.080002,-39.900002,-76.860001,1729420089589.0,0.0
-3.086741,-5.362316,-3.110669,-294.700012,-35.279999,-96.949997,1729420089590.0,0.0
-4.254438,-8.432307,-4.204189,-318.850006,-26.880001,-85.610001,1729420089593.0,0.0
-2.40718,-9.846465,-8.556733,-291.76001,-42.700001,-97.090004,1729420089594.0,0.0
-1.622334,-9.152546,-6.742974,-207.479996,-63.91,-63.0,1729420089595.0,0.0
-1.009771,-6.329016,-4.584648,-166.320007,-53.760002,-62.510002,1729420089599.0,0.0
-1.942972,-4.398008,-5.084748,-180.669998,-21.210001,-52.920002,1729420089600.0,0.0
-2.761317,-4.15394,-8.372486,-200.759995,8.4,-51.310001,1729420089601.0,0.0
-3.448057,-6.647261,-9.710074,-181.509995,-3.36,-46.41,1729420089611.0,0.0
-2.622534,-5.809773,-8.91805,-164.360001,-34.09,-35.420002,1729420089633.0,0.0
-1.57687,-2.701497,-8.147561,-178.220001,-45.080002,-29.469999,1729420089666.0,0.0
-2.132005,-5.201996,-7.829315,-143.430008,-21.700001,0.98,1729420089677.0,0.0
-2.148755,-4.989035,-11.315658,-115.639999,2.03,-5.46,1729420089692.0,0.0
-2.57707,-3.718446,-11.765509,-69.090004,-8.54,0.63,1729420089712.0,0.0
-2.050649,-2.048256,-9.336794,-14.56,-28.42,17.639999,1729420089732.0,0.0
-1.165305,-2.423929,-9.812965,34.09,-7.28,5.74,1729420089752.0,0.0
-2.486143,-1.249053,-10.191031,39.549999,19.809999,29.610001,1729420089775.0,0.0
-2.397608,-0.990629,-11.129018,74.269997,29.4,41.16,1729420089792.0,0.0
-2.591427,-3.304488,-10.973484,132.020004,20.299999,51.59,1729420089811.0,0.0
-2.837888,-11.353944,-11.028521,230.160004,38.779999,59.080002,1729420089832.0,0.0
-2.486143,-12.440285,-9.595219,325.360016,38.779999,67.480003,1729420089853.0,0.0
-1.368695,-6.558727,-11.734402,433.51001,57.400002,103.529999,1729420089875.0,0.0
-0.22014,-2.562713,-9.932607,468.929993,50.82,103.32,1729420089894.0,0.0
0.631705,0.380459,-4.445865,427.140015,76.93,99.050003,1729420089913.0,0.0
-1.184447,-3.955336,5.508278,312.130005,74.550003,73.010002,1729420089933.0,0.0
-6.075377,-9.738789,15.366707,126.139999,86.660004,27.93,1729420089954.0,0.0
-7.515855,-9.23151,5.469993,-69.860001,33.18,-11.27,1729420089975.0,0.0
-5.489135,-7.716853,-3.254239,-148.190002,-60.689999,-13.09,1729420089993.0,0.0
-1.852045,-6.690332,-9.351151,-160.789993,-149.240005,-34.439999,1729420090013.0,0.0
-2.699104,-13.28495,-14.220546,-83.790001,-122.639999,-5.81,1729420090033.0,0.0
-6.599405,-12.873385,-12.641282,15.4,59.150002,-8.26,1729420090053.0,0.0
-7.630712,-6.979864,-12.799208,43.049999,93.870003,-2.73,1729420090075.0,0.0
-3.103491,-6.096912,-7.673782,32.970001,19.74,-14.63,1729420090093.0,0.0
0.569492,-6.173482,-8.315059,-19.110001,42.560001,-8.12,1729420090113.0,0.0
1.445265,-5.627919,-3.553342,3.57,103.669998,-0.28,1729420090137.0,0.0
-0.586242,-5.410172,7.649854,65.800003,104.93,37.869999,1729420090155.0,0.0
-2.026721,-6.18784,10.937593,86.870003,23.59,50.82,1729420090174.0,0.0
-2.715853,-7.001399,6.168696,-2.03,-15.47,9.24,1729420090194.0,0.0
-4.48415,-6.953543,-1.225125,-124.809998,-23.799999,-8.26,1729420090214.0,0.0
-5.912664,-6.73101,-13.816156,-174.580002,-112.559998,-27.16,1729420090233.0,0.0
-6.147161,-13.866407,-19.800606,-69.370003,-91.419998,-25.549999,1729420090254.0,0.0
-8.114061,-14.490934,-18.838692,0.98,26.74,-13.16,1729420090277.0,0.0
-4.04387,-7.788638,-8.709875,118.720001,61.529999,-2.87,1729420090295.0,0.0
0.351745,-6.013163,-6.419943,107.730003,-23.73,4.9,1729420090315.0,0.0
2.553142,-6.156733,-6.259624,15.96,44.029999,-0.49,1729420090336.0,0.0
2.316252,-5.642276,-3.326023,10.08,111.510002,0.07,1729420090355.0,0.0
-4.022335,-4.718646,14.210974,37.66,118.370003,37.799999,1729420090388.0,0.0
-6.104091,-10.765309,3.9673,-23.66,14.49,11.06,1729420090394.0,0.0
-6.087341,-11.212767,-6.446264,-86.239998,59.990002,-45.990002,1729420090414.0,0.0
-3.639483,-7.216753,-5.864808,-31.710001,-121.870003,-8.89,1729420090438.0,0.0
0.124427,-6.125626,-17.163717,-16.52,-196.0,-22.469999,1729420090458.0,0.0
-1.90708,-5.297709,-17.745173,-111.510002,-84.0,-29.75,1729420090477.0,0.0
-7.642675,-12.99542,-10.980663,-35.630001,161.0,-30.24,1729420090494.0,0.0
-7.781459,-13.502698,-6.463014,87.849998,99.540001,2.59,1729420090516.0,0.0
-1.904687,-6.635297,-7.118648,119.139999,14.07,8.61,1729420090535.0,0.0
2.194218,-2.663212,-7.60439,76.160004,21.77,22.75,1729420090555.0,0.0
3.519842,-2.840281,1.368695,26.389999,36.82,37.450001,1729420090576.0,0.0
0.291924,-6.699903,11.901899,23.309999,40.810001,55.790001,1729420090593.0,0.0
-4.527221,-11.253445,6.290731,0.56,69.790001,13.93,1729420090613.0,0.0
-8.10449,-9.382257,-1.847259,-75.389999,124.110001,-29.469999,1729420090632.0,0.0
-5.816952,-7.338787,-4.998606,-47.32,-61.110001,-15.82,1729420090653.0,0.0
-0.394816,-4.479364,-6.716653,-15.12,-232.820007,6.02,1729420090678.0,0.0
0.457029,-5.867201,-21.3703,-48.16,-222.110001,-15.89,1729420090692.0,0.0
-8.913264,-16.898113,-15.218351,-152.110001,26.18,-26.809999,1729420090713.0,0.0
-10.13839,-15.460027,-9.439686,58.52,101.360001,-26.809999,1729420090733.0,0.0
-2.057827,-6.585048,-5.56092,153.020004,-31.99,2.87,1729420090754.0,0.0
1.787439,-2.971886,-8.317451,108.57,-16.59,17.639999,1729420090777.0,0.0
3.050849,-3.290131,-6.147161,5.95,46.27,10.22,1729420090795.0,0.0
0.229711,-5.740381,6.257231,-17.57,106.120003,28.42,1729420090813.0,0.0
-4.797609,-11.179268,11.090734,43.470001,47.740002,39.130001,1729420090836.0,0.0
-6.625726,-8.236095,5.532206,3.99,49.84,-21.77,1729420090856.0,0.0
-4.957928,-5.948557,-2.447858,-35.630001,9.59,-12.18,1729420090877.0,0.0
-1.447658,-4.034299,-4.381258,-63.700001,-172.270004,-8.12,1729420090893.0,0.0
0.334995,-9.97807,-19.188044,-93.029999,-234.990005,-2.8,1729420090914.0,0.0
-2.986243,-9.305687,-17.678173,-224.559998,-83.860001,-49.700001,1729420090933.0,0.0
-9.193225,-12.409179,-15.615561,-84.629997,148.680008,-33.880001,1729420090954.0,0.0
-7.195218,-11.330014,-8.130811,169.119995,56.77,36.400002,1729420090977.0,0.0
-1.830509,-5.056034,-5.046463,130.410004,-15.96,21.700001,1729420090994.0,0.0
0.586242,-4.019942,-8.846266,39.549999,18.34,34.369999,1729420091013.0,0.0
1.581656,-4.831109,-7.281359,-8.68,66.5,23.450001,1729420091035.0,0.0
-3.940979,-7.9346,11.91147,29.120001,76.160004,52.080002,1729420091054.0,0.0
-6.003592,-10.987842,6.317052,22.610001,16.870001,14.28,1729420091074.0,0.0
-5.85763,-7.750352,-0.37328,-68.459999,43.470001,-34.369999,1729420091094.0,0.0
-3.160919,-6.314659,-4.893322,-69.93,-88.059998,-28.77,1729420091115.0,0.0
-0.244068,-5.929415,-8.68116,-59.150002,-200.619995,-13.72,1729420091133.0,0.0
0.248854,-8.025528,-19.075583,-90.510002,-177.100006,-37.939999,1729420091155.0,0.0
-5.723632,-13.165311,-16.53919,-128.100006,29.4,-33.880001,1729420091180.0,0.0
-11.014162,-11.583653,-12.145968,-21.139999,152.320007,-34.650002,1729420091193.0,0.0
-5.316852,-8.901299,-7.503892,170.169998,7.63,19.67,1729420091213.0,0.0
0.09332,-4.697111,-6.608976,117.459999,-16.799999,10.5,1729420091235.0,0.0
1.959722,-3.266203,-8.669197,35.0,23.940001,17.360001,1729420091254.0,0.0
1.710868,-4.579862,-1.122234,12.18,99.190002,24.57,1729420091275.0,0.0
-3.079563,-6.472585,12.002398,54.389999,84.910004,53.200001,1729420091293.0,0.0
-5.675776,-9.779467,6.786045,49.07,31.780001,26.67,1729420091313.0,0.0
-5.95095,-7.159326,0.923629,-50.540001,58.59,-20.719999,1729420091334.0,0.0
-3.524628,-6.537192,-4.331009,-62.510002,-71.470001,-15.75,1729420091354.0,0.0
-0.825524,-8.109276,-20.882162,-56.209999,-206.639999,-5.18,1729420091376.0,0.0
-3.014957,-9.717253,-14.167902,-170.449997,-76.300003,-49.490002,1729420091395.0,0.0
-9.367901,-12.067005,-16.053448,-43.82,160.300003,-32.060001,1729420091414.0,0.0
-8.02792,-9.84168,-9.260223,176.75,75.669998,27.370001,1729420091433.0,0.0
-2.050649,-4.192225,-5.235496,129.639999,-20.790001,13.440001,1729420091455.0,0.0
1.194018,-3.773481,-7.970492,59.920002,-0.7,23.450001,1729420091477.0,0.0
1.641476,-3.304488,-5.340781,9.38,60.970001,22.049999,1729420091493.0,0.0
-1.928615,-4.481757,8.331808,21.91,109.410004,41.509998,1729420091514.0,0.0
-6.21416,-9.750752,9.54497,40.18,38.849998,48.790001,1729420091534.0,0.0
-6.034698,-8.279166,1.29691,-62.93,50.82,-24.99,1729420091552.0,0.0
-3.739982,-7.197611,-4.503292,-56.279999,-31.57,-11.41,1729420091576.0,0.0
-0.555135,-8.209774,-7.812566,-23.1,-204.820007,9.8,1729420091592.0,0.0
-0.095713,-10.595419,-17.278572,-100.379997,-185.570007,-34.23,1729420091612.0,0.0
-5.972485,-12.624532,-19.197617,-158.550003,68.459999,-43.470001,1729420091635.0,0.0
-10.487741,-12.016755,-11.892329,40.599998,147.139999,-8.47,1729420091653.0,0.0
-5.592027,-7.63789,-6.317052,182.770004,25.27,28.559999,1729420091677.0,0.0
-0.569492,-3.680161,-6.393622,93.730003,8.89,24.57,1729420091692.0,0.0
2.282753,-3.096312,-2.921637,7.77,26.460001,17.5,1729420091712.0,0.0
-1.871187,-4.23051,13.22513,5.95,65.309998,51.59,1729420091732.0,0.0
-5.82413,-10.332209,7.508677,11.2,25.76,28.84,1729420091753.0,0.0
-6.01077,-8.480164,-2.086541,-88.620003,87.150002,-43.049999,1729420091774.0,0.0
-4.228118,-7.307681,-4.194618,-76.720001,-105.139999,-23.73,1729420091792.0,0.0
0.062213,-9.863215,-20.724236,-67.129997,-241.990005,-25.76,1729420091812.0,0.0
-1.392623,-9.406186,-15.634703,-139.020004,-124.879997,-49.420002,1729420091832.0,0.0
-8.02792,-12.299109,-16.244873,-55.510002,161.699997,-38.5,1729420091852.0,0.0
-10.487741,-12.25843,-10.358529,167.369995,125.090004,13.65,1729420091875.0,0.0
-3.895515,-4.031906,-6.386444,152.740005,6.79,7.0,1729420091892.0,0.0
1.478764,-0.665205,-8.946764,69.93,-15.82,8.54,1729420091912.0,0.0
3.826123,-0.526421,-0.452243,9.73,11.76,26.67,1729420091932.0,0.0
-0.124427,-3.778267,15.357137,25.620001,27.370001,59.709999,1729420091952.0,0.0
-4.780859,-10.461421,7.200003,-18.200001,45.290001,1.26,1729420091974.0,0.0
-6.661618,-9.882358,-3.943372,-115.919998,120.400002,-58.240002,1729420091993.0,0.0
-5.690133,-7.767102,-3.534199,-71.330002,-113.540001,-24.43,1729420092012.0,0.0
-0.059821,-9.585647,-16.094126,-29.68,-257.040009,-22.4,1729420092032.0,0.0
-4.199404,-11.196017,-21.717258,-130.899994,-150.919998,-47.32,1729420092052.0,0.0
-11.320443,-12.758532,-12.617353,4.55,184.309998,-17.92,1729420092074.0,0.0
-7.365108,-8.422735,-6.570691,166.110001,38.849998,15.96,1729420092092.0,0.0
-1.031307,-3.213561,-8.925228,120.68,3.15,15.75,1729420092112.0,0.0
2.790031,-1.495514,-8.212167,34.860001,1.75,10.43,1729420092132.0,0.0
2.301895,-3.754339,5.455636,31.85,47.18,38.5,1729420092154.0,0.0
-3.462414,-8.226524,14.586647,52.709999,38.360001,51.799999,1729420092180.0,0.0
-5.694918,-7.855636,5.838487,-36.75,73.150002,-30.309999,1729420092194.0,0.0
-4.558327,-7.599605,-5.12782,-87.080002,37.59,-28.98,1729420092213.0,0.0
-2.423929,-7.752745,-3.883551,-65.870003,-195.860001,-5.6,1729420092236.0,0.0
-0.928415,-11.050055,-22.9041,-113.470001,-217.910004,-26.74,1729420092255.0,0.0
-4.158726,-12.464212,-22.777277,-175.630005,-1.4,-53.060001,1729420092277.0,0.0
-10.478169,-13.548162,-13.931013,46.549999,166.600006,-6.37,1729420092294.0,0.0
-7.034898,-8.451449,-8.13799,225.820007,55.369999,19.25,1729420092315.0,0.0
-1.009771,-2.533999,-10.210175,140.559998,21.42,11.69,1729420092334.0,0.0
3.826123,-2.943172,-3.079563,35.700001,16.73,2.87,1729420092354.0,0.0
-1.682154,-4.558327,14.677574,79.099998,58.939999,58.450001,1729420092378.0,0.0
-4.536791,-8.812766,8.664411,102.830002,69.510002,17.85,1729420092395.0,0.0
-6.204589,-5.996413,3.61077,-45.360001,73.290001,-28.700001,1729420092415.0,0.0
-3.723232,-7.228717,-3.239882,-95.129997,-80.5,-15.96,1729420092434.0,0.0
-0.306281,-7.49432,-4.438686,-94.010002,-222.25,-17.15,1729420092456.0,0.0
0.117248,-9.913465,-11.330014,-114.239998,-199.570007,-18.620001,1729420092477.0,0.0
-4.271189,-12.224932,-17.661423,-168.839996,-22.049999,-59.639999,1729420092494.0,0.0
-11.143374,-13.856836,-18.285952,-65.519997,133.699997,-44.240002,1729420092516.0,0.0
-6.884151,-9.449257,-12.660425,124.599998,22.540001,13.02,1729420092536.0,0.0
-0.849452,-3.268596,-8.035098,112.279999,-48.02,-2.45,1729420092554.0,0.0
0.787239,-2.734996,-8.585447,22.120001,-9.66,2.38,1729420092576.0,0.0
0.557528,-7.211967,-11.085947,-45.009998,111.160004,-30.73,1729420092595.0,0.0
-4.381258,-9.059227,1.490728,5.6,165.479996,-10.43,1729420092614.0,0.0
-5.45085,-8.54477,9.095119,128.589996,67.690002,20.09,1729420092634.0,0.0
-1.751546,-3.321238,10.863414,79.870003,-46.970001,11.48,1729420092656.0,0.0
-0.112463,-5.807381,1.129412,-8.61,-93.169998,-4.69,1729420092682.0,0.0
0.851845,-7.587641,-10.322637,-100.099998,-31.639999,-26.950001,1729420092696.0,0.0
-3.852444,-8.626125,-14.081761,-46.549999,-50.470001,41.580002,1729420092717.0,0.0
-6.733403,-10.109675,-15.610775,-9.03,26.809999,43.400002,1729420092737.0,0.0
-7.9011,-11.296515,-14.782858,11.27,68.32,30.940001,1729420092756.0,0.0
-4.082155,-11.377872,-8.441878,98.419998,23.73,36.610001,1729420092780.0,0.0
-0.899701,-7.860423,-6.659225,151.339996,-9.52,33.18,1729420092796.0,0.0
-0.39003,-6.01077,-8.446664,181.860001,62.439999,35.490002,1729420092816.0,0.0
-0.89013,-6.85783,-6.38405,209.930008,104.090004,27.65,1729420092836.0,0.0
-2.548356,-7.23111,0.586242,216.020004,107.239998,33.880001,1729420092856.0,0.0
-4.4339,-6.250053,4.570292,201.529999,71.75,35.700001,1729420092878.0,0.0
-4.955536,-7.360322,6.831509,163.729996,0.49,19.67,1729420092900.0,0.0
-3.266203,-8.717053,3.883551,70.840004,-62.650002,-17.639999,1729420092916.0,0.0
-2.799603,-10.435099,-1.356731,26.530001,-58.380001,-6.72,1729420092935.0,0.0
-2.730211,-8.750552,-5.087141,19.530001,-20.16,-6.72,1729420092956.0,0.0
-2.888137,-8.425128,-2.935993,-38.009998,0.49,5.67,1729420092977.0,0.0
-3.208775,-8.788837,-2.033899,-139.160004,-6.51,5.32,1729420092997.0,0.0
-3.943372,-9.523434,-1.536192,-191.869995,-16.73,-2.03,1729420093016.0,0.0
-3.952943,-9.102298,-4.711468,-198.309998,-22.049999,-17.85,1729420093035.0,0.0
-4.07737,-7.848458,-5.113462,-202.509995,-23.450001,-45.639999,1729420093055.0,0.0
-4.742575,-9.102298,-4.737789,-222.880005,-38.150002,-60.200001,1729420093077.0,0.0
-4.192225,-11.12184,-7.142576,-224.139999,-49.349998,-75.879997,1729420093095.0,0.0
-3.61077,-8.941978,-5.022535,-212.309998,-60.200001,-78.889999,1729420093116.0,0.0
-2.414358,-6.190232,-7.819745,-220.149994,-69.860001,-88.410004,1729420093136.0,0.0
-2.287539,-7.348359,-5.103891,-171.5,-57.610001,-78.400002,1729420093155.0,0.0
-2.057827,-7.640282,-6.317052,-135.380005,-47.810001,-71.120003,1729420093177.0,0.0
-1.95015,-6.125626,-7.365108,-138.389999,-21.42,-78.959999,1729420093196.0,0.0
-3.139383,-6.053841,-7.922636,-156.940002,-10.71,-61.950001,1729420093217.0,0.0
-2.988636,-6.522834,-8.444271,-138.949997,-10.71,-62.790001,1729420093237.0,0.0
-2.383251,-5.644669,-6.738188,-137.619995,-30.59,-57.82,1729420093256.0,0.0
-1.335195,-5.422136,-9.221939,-154.979996,-38.009998,-56.07,1729420093278.0,0.0
-3.287738,-4.986642,-9.987641,-199.149994,-4.13,-61.810001,1729420093295.0,0.0
-2.876173,-5.47717,-6.845865,-134.610001,-12.39,-21.35,1729420093318.0,0.0
-0.461815,0.122034,-9.332008,-165.690002,-6.16,-30.030001,1729420093335.0,0.0
-2.321038,-1.612763,-10.29153,-140.910004,22.469999,-2.24,1729420093356.0,0.0
-2.876173,-2.852244,-12.052648,-86.099998,17.85,-9.17,1729420093377.0,0.0
-3.235096,-3.120241,-9.521042,-77.910004,-28.91,-6.86,1729420093396.0,0.0
-2.074577,-4.448257,-7.204789,-53.830002,-14.42,-7.21,1729420093417.0,0.0
-1.359123,-0.734596,-4.754539,-52.360001,-16.309999,-17.360001,1729420093435.0,0.0
-1.765903,-2.201397,-6.702296,-16.1,10.29,-6.37,1729420093457.0,0.0
-2.624927,0.76331,-10.49492,-77.840004,11.76,-0.07,1729420093536.0,0.0
-1.081556,-1.718047,-12.729815,-116.900002,-13.02,-16.66,1729420093536.0,0.0
-0.449851,-4.197011,-10.820344,-47.459999,-32.34,19.460001,1729420093537.0,0.0
-1.01695,-3.888337,-10.076177,5.53,2.8,11.41,1729420093540.0,0.0
-3.395415,-2.37368,-8.997013,20.370001,20.299999,21.35,1729420093555.0,0.0
-2.907279,-2.663212,-9.473185,17.780001,-8.61,20.58,1729420093576.0,0.0
-2.416751,-4.788038,-11.126624,11.2,-21.210001,14.84,1729420093595.0,0.0
-1.749153,-2.806781,-11.705689,45.57,-23.52,21.77,1729420093615.0,0.0
-2.541178,-1.325624,-10.798808,93.169998,7.84,35.279999,1729420093634.0,0.0
-3.342773,-0.940379,-8.635696,106.75,29.960001,30.73,1729420093655.0,0.0
-2.392823,-2.179861,-8.13799,71.610001,4.55,22.26,1729420093681.0,0.0
-1.421337,-4.536791,-8.403593,59.43,-13.09,15.75,1729420093695.0,0.0
-1.009771,-3.993621,-8.836694,73.709999,-2.38,10.71,1729420093717.0,0.0
-1.811367,-5.438886,-10.504492,119.559998,13.72,14.49,1729420093735.0,0.0
-2.63689,-6.855437,-9.293723,165.830002,28.84,4.9,1729420093755.0,0.0
-3.165704,-7.771888,-8.997013,276.570007,29.82,44.52,1729420093776.0,0.0
-2.45025,-4.965107,-9.47797,338.519989,3.5,54.459999,1729420093795.0,0.0
-2.667997,-3.416951,-7.63789,328.649994,-3.22,62.93,1729420093815.0,0.0
-3.314059,-2.660819,-2.775674,225.259995,-38.150002,49.209999,1729420093835.0,0.0
-1.232304,-5.17089,-5.692525,110.879997,-79.519997,22.120001,1729420093855.0,0.0
0.342174,-6.185446,-6.446264,39.970001,-87.010002,12.25,1729420093886.0,0.0
0.684347,-4.338188,-7.525427,-22.33,-49.84,3.43,1729420093895.0,0.0
-0.031107,-4.24726,-8.726624,-110.529999,11.27,-12.25,1729420093915.0,0.0
-0.935594,-5.749953,-10.628918,-176.190002,49.139999,-22.049999,1729420093935.0,0.0
-1.880759,-6.183054,-10.112068,-174.720001,46.48,-13.09,1729420093955.0,0.0
-2.079363,-6.204589,-9.272188,-109.970001,36.959999,-6.51,1729420093977.0,0.0
-2.677568,-5.548956,-8.496914,-133.699997,49.77,-27.719999,1729420093995.0,0.0
-3.546163,-6.312266,-9.891929,-187.949997,52.709999,-41.369999,1729420094017.0,0.0
-5.163712,-4.347759,-4.599005,-201.600006,21.49,-39.130001,1729420094035.0,0.0
-6.293124,-8.025528,-5.402994,-181.509995,-23.799999,-27.58,1729420094057.0,0.0
-5.525027,-8.77448,-7.152147,-149.309998,-27.370001,-71.190002,1729420094078.0,0.0
-4.453043,-6.539584,-11.930614,-86.730003,-14.07,-58.73,1729420094095.0,0.0
-2.18704,-3.06042,-12.186646,0.49,-25.059999,-17.219999,1729420094116.0,0.0
-0.713061,-1.564906,-9.513863,22.469999,-15.12,-1.96,1729420094136.0,0.0
-2.498107,-4.271189,-7.546963,7.63,20.51,-6.72,1729420094157.0,0.0
-3.534199,-4.61097,-7.987241,-11.41,34.23,-36.470001,1729420094176.0,0.0
-3.019742,-2.488536,-9.717253,2.66,-5.32,-21.35,1729420094195.0,0.0
-1.095913,-3.081956,-10.140782,-5.32,-25.969999,-29.75,1729420094223.0,0.0
-0.646062,-4.113262,-9.403792,-15.54,-11.55,-34.299999,1729420094234.0,0.0
-1.241875,-2.976671,-9.229117,0.07,10.85,-33.389999,1729420094256.0,0.0
-2.254039,-2.127219,-9.753145,7.63,18.83,-29.889999,1729420094276.0,0.0
-2.804388,-2.89053,-9.719646,-13.16,10.5,-38.5,1729420094296.0,0.0
-2.67039,-3.261417,-9.06162,-13.65,-4.69,-44.450001,1729420094316.0,0.0
-2.411965,-2.758924,-8.16431,-14.42,-17.85,-47.599998,1729420094337.0,0.0
-2.115255,-2.737389,-8.240881,-16.030001,-24.780001,-42.420002,1729420094357.0,0.0
-1.911865,-2.210968,-9.35833,-10.71,-21.91,-32.759998,1729420094377.0,0.0
-2.227718,-1.895115,-10.162319,7.07,-13.86,-17.219999,1729420094396.0,0.0
-2.129612,-1.799403,-8.906086,20.93,-12.04,-3.36,1729420094415.0,0.0
-2.019542,-0.770489,-9.504292,29.469999,-10.99,14.49,1729420094435.0,0.0
-2.667997,-1.476372,-9.786645,45.150002,2.87,21.98,1729420094456.0,0.0
-3.397808,-4.455436,-10.13839,34.650002,8.82,23.799999,1729420094476.0,0.0
-3.144169,-4.627719,-5.989235,12.39,-23.66,20.65,1729420094496.0,0.0
-1.919044,-1.59362,-6.065805,41.09,-37.52,32.830002,1729420094516.0,0.0
-1.629512,-1.940579,-8.836694,42.91,-7.21,46.759998,1729420094536.0,0.0
-3.127419,-4.54397,-11.889936,-59.57,27.719999,43.119999,1729420094555.0,0.0
-3.115455,-7.515855,-12.349358,-33.880001,22.68,43.049999,1729420094579.0,0.0
-1.651048,-1.134198,-11.143374,65.449997,21.84,83.510002,1729420094596.0,0.0
-2.792424,-2.031506,-5.4006,48.860001,53.41,92.120003,1729420094616.0,0.0
-2.833102,-7.831708,-5.405386,-15.96,28.98,36.540001,1729420094636.0,0.0
-1.940579,-9.652647,-7.142576,-19.74,9.03,27.02,1729420094656.0,0.0
-0.72024,-7.788638,-9.391829,12.88,-16.1,23.379999,1729420094683.0,0.0
-1.251446,-7.420143,-9.322437,42.279999,-4.13,-2.1,1729420094696.0,0.0
-2.773281,-6.147161,-9.085547,44.310001,27.860001,-16.309999,1729420094717.0,0.0
-3.443272,-4.063013,-10.140782,55.23,30.1,-18.34,1729420094737.0,0.0
-3.007778,-3.744767,-10.770095,42.279999,5.39,-21.559999,1729420094758.0,0.0
-1.674976,-4.658825,-9.84168,16.73,-9.24,-33.529999,1729420094779.0,0.0
-1.182054,-4.938786,-9.123833,18.969999,-4.06,-34.720001,1729420094798.0,0.0
-1.916651,-2.581856,-7.936993,33.459999,21.700001,-25.34,1729420094817.0,0.0
-2.651247,-2.088934,-7.286145,33.740002,31.219999,-22.26,1729420094837.0,0.0
-2.419144,-4.804788,-8.413164,14.91,15.4,-24.290001,1729420094857.0,0.0
-1.70369,-6.431907,-8.200203,-24.08,-18.620001,-42.84,1729420094878.0,0.0
-1.184447,-5.113462,-8.595018,-27.51,-29.75,-53.549999,1729420094897.0,0.0
-1.631905,-5.223531,-8.638089,11.55,-2.52,-48.16,1729420094917.0,0.0
-2.014757,-5.694918,-9.315259,4.06,-1.82,-45.43,1729420094941.0,0.0
-1.952543,-4.295116,-10.212566,-4.41,-12.95,-34.650002,1729420094957.0,0.0
-2.210968,-3.220739,-6.821937,51.029999,-14.35,-10.5,1729420094979.0,0.0
-1.849652,-3.290131,-7.159326,74.340004,-24.780001,-5.18,1729420094997.0,0.0
-2.120041,-1.820938,-9.602397,98.209999,-0.56,23.59,1729420095016.0,0.0
-2.213361,-3.893122,-8.700303,112.559998,15.47,21.700001,1729420095036.0,0.0
-2.682354,-6.673582,-7.776673,95.550003,6.3,35.630001,1729420095058.0,0.0
-2.222932,-7.489535,-7.345965,122.360001,-6.51,32.41,1729420095079.0,0.0
-1.861616,-7.865208,-7.834101,174.860001,-0.35,32.759998,1729420095096.0,0.0
-2.342573,-8.52802,-6.568298,231.490005,15.05,41.16,1729420095117.0,0.0
-2.938386,-9.205189,-6.692725,281.75,22.82,40.880001,1729420095137.0,0.0
-3.598805,-7.786245,-7.037291,311.570007,30.799999,45.290001,1729420095157.0,0.0
-4.211368,-7.54457,-3.615555,307.51001,20.58,49.98,1729420095183.0,0.0
-3.711268,-10.966305,-4.61097,354.76001,-21.210001,62.580002,1729420095196.0,0.0
-2.254039,-10.758131,-4.419543,385.980011,18.34,39.41,1729420095288.0,0.0
-4.194618,-8.705089,-3.378666,357.279999,3.29,42.84,1729420095291.0,0.0
-2.809174,-9.157332,-2.275574,364.700012,-8.47,35.0,1729420095292.0,0.0
-1.923829,-9.195618,-0.658026,402.850006,8.12,27.58,1729420095293.0,0.0
-2.622534,-7.726424,0.196211,436.799988,56.139999,-3.71,1729420095300.0,0.0
-3.936193,-7.223931,2.617748,414.119995,123.340004,-37.939999,1729420095322.0,0.0
-4.34058,-2.634498,5.888737,288.75,125.580002,-29.610001,1729420095343.0,0.0
-3.270989,-2.713461,5.611169,149.520004,99.190002,-16.1,1729420095356.0,0.0
-3.15374,-4.41715,2.825923,88.340004,102.550003,-3.57,1729420095406.0,0.0
-3.52702,-7.664211,2.696711,62.299999,90.230003,-22.540001,1729420095409.0,0.0
-5.534599,-9.047262,13.387842,2.66,71.540001,-50.959999,1729420095416.0,0.0
-6.290731,-6.288338,7.477571,-110.18,20.93,-19.460001,1729420095436.0,0.0
-3.902694,-7.554141,6.721439,-148.470001,-17.290001,-24.219999,1729420095456.0,0.0
-2.608176,-10.758131,3.294917,-90.93,-54.810001,-2.03,1729420095479.0,0.0
-2.500499,-8.889337,3.943372,-14.98,-21.49,-5.53,1729420095495.0,0.0
-4.118048,-5.563312,4.37408,-26.040001,17.360001,-16.1,1729420095515.0,0.0
-5.374279,-6.352944,4.527221,-126.770004,19.879999,-54.670002,1729420095535.0,0.0
-4.338188,-12.004791,2.866602,-189.630005,-12.46,-61.459999,1729420095556.0,0.0
-3.369094,-10.432706,5.761917,-86.590004,-62.439999,-23.870001,1729420095578.0,0.0
-2.778067,-7.846066,5.611169,-48.16,-56.490002,-4.2,1729420095596.0,0.0
-2.462214,-7.066005,3.134598,-65.309998,-25.76,-10.36,1729420095616.0,0.0
-2.562713,-8.671589,1.660619,-111.370003,-11.9,-32.689999,1729420095636.0,0.0
-3.529413,-10.30828,1.476372,-155.399994,-22.469999,-42.279999,1729420095657.0,0.0
-3.371487,-10.805987,2.134398,-167.860001,-40.110001,-48.860001,1729420095681.0,0.0
-2.359323,-10.51167,2.340181,-187.600006,-61.459999,-47.670002,1729420095697.0,0.0
-1.722832,-8.224132,1.277767,-235.899994,-61.599998,-50.049999,1729420095717.0,0.0
-1.854438,-8.91805,-0.229711,-232.190002,-42.98,-45.009998,1729420095736.0,0.0
-2.158326,-9.970891,-1.064806,-199.990005,-22.33,-50.889999,1729420095756.0,0.0
-3.081956,-9.492328,-1.019342,-199.149994,-21.98,-51.869999,1729420095778.0,0.0
-2.600998,-9.499505,-1.986043,-232.540009,-42.139999,-55.369999,1729420095797.0,0.0
-2.112862,-9.556933,-2.215754,-268.309998,-58.240002,-59.360001,1729420095816.0,0.0
-1.57687,-7.243074,-3.897908,-313.179993,-54.670002,-66.150002,1729420095837.0,0.0
-2.292324,-6.855437,-2.313859,-311.079987,-45.290001,-61.670002,1729420095856.0,0.0
-2.782853,-8.729016,-3.050849,-254.589996,-22.82,-54.389999,1729420095880.0,0.0
-1.569692,-7.295716,-6.628119,-189.350006,-3.78,-52.360001,1729420095898.0,0.0
-1.11027,-5.936593,-5.974878,-166.389999,-22.68,-41.439999,1729420095917.0,0.0
-1.359123,-4.622933,-5.053641,-220.779999,-28.210001,-35.349998,1729420095937.0,0.0
-1.100698,-3.321238,-7.190433,-242.759995,-6.16,-28.35,1729420095957.0,0.0
-1.162912,-2.991028,-8.695518,-229.389999,-4.41,-21.77,1729420095978.0,0.0
-0.911665,-2.397608,-10.540384,-223.509995,-31.639999,-13.09,1729420095996.0,0.0
-0.320638,-3.677768,-12.03829,-192.5,-36.82,-2.1,1729420096017.0,0.0
-0.208176,-4.460221,-12.547962,-144.130005,-15.75,0.63,1729420096037.0,0.0
-0.916451,-4.249653,-10.710274,-87.5,-3.29,10.99,1729420096057.0,0.0
-0.990629,-4.922036,-9.332008,-67.550003,-4.69,6.65,1729420096080.0,0.0
-0.892523,-3.979264,-8.547162,-53.41,-12.6,4.48,1729420096096.0,0.0
-2.268396,-3.620341,-9.487542,-42.77,3.22,2.38,1729420096117.0,0.0
-3.199204,-4.201797,-9.942179,-32.060001,3.08,6.72,1729420096136.0,0.0
-2.462214,-4.024727,-9.468399,-22.469999,-17.08,9.94,1729420096156.0,0.0
-2.388037,-3.716053,-8.16431,-3.85,-21.77,15.54,1729420096177.0,0.0
-2.727818,-4.079762,-8.161918,32.130001,-18.83,22.889999,1729420096196.0,0.0
-2.400001,-3.199204,-8.839087,60.060001,-14.28,32.060001,1729420096216.0,0.0
-1.445265,-2.895315,-10.540384,76.370003,-10.01,42.700001,1729420096236.0,0.0
-1.335195,-2.28036,-9.765109,43.610001,-3.71,32.41,1729420096266.0,0.0
-1.253839,-5.04407,-9.083155,23.52,-17.639999,22.120001,1729420096280.0,0.0
-0.550349,-6.410372,-10.19821,37.59,-20.440001,16.73,1729420096297.0,0.0
-0.868595,-6.266802,-9.58804,73.5,-10.29,9.8,1729420096318.0,0.0
-1.837688,-6.348158,-8.635696,136.080002,13.02,12.53,1729420096336.0,0.0
-2.313859,-5.024928,-10.018748,201.460007,21.49,32.34,1729420096357.0,0.0
-2.282753,-4.34058,-10.499706,213.360001,10.43,39.759998,1729420096381.0,0.0
-1.663012,-6.446264,-9.415757,218.399994,-2.59,39.619999,1729420096397.0,0.0
-0.693919,-8.551948,-9.990034,240.729996,-7.28,44.52,1729420096417.0,0.0
0.021535,-11.523834,-10.171888,361.970001,-18.76,68.669998,1729420096437.0,0.0
-0.528814,-15.096318,-8.12124,615.859985,-5.53,126.209999,1729420096458.0,0.0
-0.299103,-10.073784,-7.49432,816.76001,55.09,130.830002,1729420096479.0,0.0
-0.622134,-3.859623,-6.319445,813.190002,80.779999,96.529999,1729420096497.0,0.0
-3.749553,-4.520042,5.718846,700.700012,75.669998,93.870003,1729420096517.0,0.0
-3.632305,-8.855836,6.374479,448.420013,53.619999,25.200001,1729420096538.0,0.0
-4.338188,-9.437292,6.774081,375.899994,62.93,18.34,1729420096559.0,0.0
-5.333601,-6.18784,7.240681,317.589996,44.380001,14.91,1729420096580.0,0.0
-4.725825,-5.438886,5.982057,221.199997,14.91,-14.28,1729420096598.0,0.0
-4.438686,-6.836295,5.991628,161.350006,-10.85,-27.58,1729420096617.0,0.0
-4.536791,-4.694718,6.063413,155.050003,0.7,-34.23,1729420096637.0,0.0
-5.424529,-3.096312,6.798009,92.540001,24.360001,-43.75,1729420096657.0,0.0
-7.264609,-7.219146,5.362316,39.759998,50.119999,-38.080002,1729420096683.0,0.0
-7.113862,-7.551748,2.486143,65.870003,52.360001,-25.690001,1729420096698.0,0.0
-4.587041,-4.187439,1.579263,128.520004,-17.290001,-11.41,1729420096718.0,0.0
-2.909672,-5.302495,4.790431,128.520004,-20.09,-27.09,1729420096739.0,0.0
-4.618148,-7.197611,7.286145,94.220001,28.84,-42.0,1729420096758.0,0.0
-7.049256,-5.321638,7.582855,104.860001,55.720001,-37.310001,1729420096781.0,0.0
-6.297909,-0.617348,7.326823,95.970001,17.99,-33.810001,1729420096798.0,0.0
-3.495914,1.122234,8.070991,13.440001,-5.81,-48.720001,1729420096818.0,0.0
-3.132205,-3.069991,5.632704,-42.349998,19.110001,-57.189999,1729420096840.0,0.0
-4.113262,-4.37408,5.886343,-30.799999,27.719999,-44.799999,1729420096860.0,0.0
-4.424329,-3.376273,7.56132,-3.71,11.62,-39.830002,1729420096880.0,0.0
-4.4674,-2.524428,9.454042,9.8,2.1,-28.84,1729420096898.0,0.0
-4.175476,-1.526621,8.444271,-12.53,-2.45,-25.34,1729420096920.0,0.0
-3.790231,-2.833102,7.01097,-31.99,-6.02,-27.299999,1729420096938.0,0.0
-4.429115,-5.630312,5.742774,-59.849998,1.19,-26.389999,1729420096958.0,0.0
-5.374279,-5.084748,6.58744,-26.389999,-5.81,-19.67,1729420096985.0,0.0
-5.709275,-3.613162,8.949157,32.970001,-37.939999,-13.3,1729420096999.0,0.0
-4.096512,-2.524428,11.736795,27.23,-88.129997,-17.08,1729420097021.0,0.0
-2.581856,-0.418744,11.825329,-26.25,-122.709999,9.73,1729420097039.0,0.0
-0.031107,-2.517249,5.422136,-108.150002,-134.539993,1.33,1729420097058.0,0.0
1.031307,-10.516455,0.31346,-153.300003,-87.080002,-7.35,1729420097080.0,0.0
-1.892723,-10.664811,2.294717,-72.870003,-21.629999,5.81,1729420097098.0,0.0
-5.345565,-6.276374,5.79781,-14.35,34.09,5.18,1729420097118.0,0.0
-6.001199,-3.055635,6.599405,-8.68,-8.05,28.77,1729420097138.0,0.0
-3.132205,-2.352145,6.053841,-48.369999,-89.529999,58.450001,1729420097159.0,0.0
-1.442872,-4.364508,4.23051,-107.520004,-95.199997,78.260002,1729420097180.0,0.0
-0.861416,-8.317451,6.206983,-115.43,-68.389999,111.790001,1729420097198.0,0.0
-2.495714,-9.162118,10.04507,-124.739998,-39.48,109.900002,1729420097218.0,0.0
-5.690133,-9.573684,8.063812,-103.599998,29.049999,100.590004,1729420097238.0,0.0
-6.118448,-11.669796,6.611369,-61.529999,17.290001,79.379997,1729420097258.0,0.0
-3.622734,-12.607781,7.025328,-60.48,-12.32,39.27,1729420097280.0,0.0
-4.955536,-7.77428,9.288938,-10.57,23.66,28.559999,1729420097299.0,0.0
-4.448257,-6.419943,8.429914,-18.34,9.38,9.45,1729420097318.0,0.0
-3.299703,-6.379266,6.862615,-22.26,10.64,2.38,1729420097338.0,0.0
-2.139183,-4.493721,5.503492,-28.42,-12.46,7.28,1729420097358.0,0.0
-1.234696,-4.785645,6.573084,-50.259998,-30.59,-4.76,1729420097379.0,0.0
-1.150948,-5.051248,5.419744,-59.5,2.52,-1.82,1729420097399.0,0.0
-1.158126,-4.768896,5.029713,-98.07,36.540001,-23.59,1729420097418.0,0.0
-2.991028,-4.472186,9.207582,-258.790009,56.07,-50.889999,1729420097438.0,0.0
-5.589634,-5.740381,3.878766,-389.130005,74.410004,-11.13,1729420097459.0,0.0
-2.584249,-8.834301,1.569692,-292.73999,9.87,-17.57,1729420097480.0,0.0
-1.624727,-8.188239,-1.07677,-188.789993,-64.120003,7.28,1729420097498.0,0.0
-2.072184,-11.956935,-0.267996,-202.860001,-25.48,-35.490002,1729420097518.0,0.0
-3.661019,-12.457035,0.514457,-233.940002,55.580002,-47.040001,1729420097539.0,0.0
-5.034499,-10.908878,1.89033,-242.410004,43.889999,-36.259998,1729420097557.0,0.0
-3.754339,-9.765109,-0.011964,-224.770004,-37.799999,-29.120001,1729420097584.0,0.0
-2.742175,-7.757531,-0.26321,-219.100006,-60.830002,-23.1,1729420097598.0,0.0
-2.364109,-6.9679,-0.145962,-219.309998,-45.849998,-35.77,1729420097618.0,0.0
-2.419144,-6.862615,-2.569891,-280.0,-14.21,-59.709999,1729420097638.0,0.0
-2.823531,-8.126025,-5.326423,-325.5,12.81,-80.639999,1729420097658.0,0.0
-3.917051,-9.683753,-5.525027,-337.820007,-11.69,-80.220001,1729420097684.0,0.0
-3.515057,-11.227123,-6.56112,-259.630005,-34.650002,-65.519997,1729420097698.0,0.0
-2.395216,-9.140583,-4.680361,-142.729996,-52.080002,-54.950001,1729420097718.0,0.0
-1.859223,-5.52742,-4.838287,-138.529999,-52.43,-59.290001,1729420097738.0,0.0
-1.605584,-4.804788,-7.077969,-189.139999,-34.580002,-67.410004,1729420097758.0,0.0
-2.103291,-9.238688,-7.886744,-192.009995,-26.530001,-59.639999,1729420097779.0,0.0
-1.895115,-8.370094,-7.920243,-174.160004,-28.210001,-61.599998,1729420097798.0,0.0
-1.033699,-2.471786,-10.107283,-179.130005,-45.150002,-61.25,1729420097818.0,0.0
-1.634298,-7.04447,-8.49452,-202.440002,-20.860001,-38.920002,1729420097837.0,0.0
-0.945165,-4.084548,-6.4343,-216.229996,-10.78,-37.029999,1729420097858.0,0.0
-1.564906,-0.598206,-7.587641,-224.559998,-2.38,-30.940001,1729420097879.0,0.0
-3.235096,-5.979663,-12.504892,-161.770004,26.25,-5.18,1729420097898.0,0.0
-1.490728,-4.26401,-13.03849,-79.940002,-5.25,-16.450001,1729420097918.0,0.0
-1.014557,-1.584049,-7.412964,-36.540001,-13.16,22.33,1729420097938.0,0.0
-2.847459,-2.435893,-6.635297,-66.150002,15.47,17.57,1729420097958.0,0.0
-1.739582,-2.591427,-8.970692,-75.949997,16.870001,-10.85,1729420097979.0,0.0
-1.931008,-0.550349,-11.624333,-71.68,4.41,22.120001,1729420097998.0,0.0
-0.751346,-2.663212,-12.433105,-85.610001,-2.1,-11.55,1729420098017.0,0.0
-0.42353,-3.562913,-11.614761,-24.57,-20.370001,8.89,1729420098038.0,0.0
-1.146162,-2.95035,-9.32483,-3.71,-10.57,-0.63,1729420098058.0,0.0
-1.70369,-1.311267,-7.846066,-2.03,-6.72,6.16,1729420098089.0,0.0
-2.124826,-0.722632,-8.956335,-23.030001,-5.53,1.89,1729420098097.0,0.0
-1.964507,-0.818345,-10.786844,-37.380001,-8.68,3.29,1729420098118.0,0.0
-1.885544,-2.660819,-11.74158,-38.639999,-10.43,-3.99,1729420098137.0,0.0
-2.127219,-2.447858,-9.973285,-30.799999,-8.26,-4.41,1729420098159.0,0.0
-2.115255,-0.787239,-8.082954,4.48,-6.37,-0.7,1729420098180.0,0.0
-1.591227,-1.756332,-8.413164,-0.98,-13.79,-2.66,1729420098198.0,0.0
-1.866402,-2.589034,-9.65504,-7.84,-11.55,-5.88,1729420098217.0,0.0
-2.132005,-2.778067,-10.29153,0.98,-9.1,-5.6,1729420098238.0,0.0
-1.414158,-2.445465,-10.671989,15.12,-15.190001,-2.24,1729420098258.0,0.0
-1.189233,-1.732404,-10.463813,29.049999,-7.91,0.63,1729420098279.0,0.0
-1.682154,-2.165504,-9.858429,35.77,3.78,-1.12,1729420098305.0,0.0
-2.431108,-2.517249,-9.233903,37.099998,6.02,0.98,1729420098317.0,0.0
-2.981457,-2.701497,-9.193225,36.68,4.9,2.94,1729420098339.0,0.0
-2.900101,-2.490928,-10.451849,57.540001,2.52,10.57,1729420098358.0,0.0
-2.986243,-2.876173,-10.829915,87.709999,5.6,16.24,1729420098382.0,0.0
-3.440879,-3.60359,-10.224532,103.669998,12.88,15.54,1729420098399.0,0.0
-3.084348,-2.718246,-9.272188,123.480003,10.43,16.450001,1729420098418.0,0.0
-2.416751,-1.72044,-8.843873,121.169998,1.12,21.139999,1729420098438.0,0.0
-1.741975,-4.675575,-11.676974,92.260002,-4.27,13.37,1729420098458.0,0.0
-1.055235,-6.912865,-11.846866,142.029999,-9.8,18.200001,1729420098534.0,0.0
-0.275175,-6.161518,-10.614561,219.380005,-3.57,33.389999,1729420098571.0,0.0
0.141177,-4.381258,-9.997212,252.279999,5.81,37.66,1729420098571.0,0.0
0.404387,-4.816752,-9.506684,227.009995,18.200001,36.189999,1729420098573.0,0.0
0.51685,-7.348359,-7.623533,199.779999,22.469999,33.18,1729420098573.0,0.0
0.751346,-9.487542,-6.927221,237.300003,29.889999,32.27,1729420098585.0,0.0
0.985843,-9.729217,-6.501299,288.75,31.01,26.950001,1729420098600.0,0.0
0.476172,-7.860423,-3.127419,327.459991,36.119999,21.07,1729420098620.0,0.0
0.521635,-2.423929,-5.240282,274.26001,44.240002,11.69,1729420098642.0,0.0
-1.698904,-4.902894,0.354138,169.610001,41.16,9.24,1729420098668.0,0.0
-5.47717,-8.614161,5.139783,96.739998,41.23,20.16,1729420098688.0,0.0
-9.056834,-7.219146,3.177669,62.16,15.75,17.43,1729420098699.0,0.0
-6.343372,-4.773681,-5.723632,-16.030001,-23.309999,5.32,1729420098720.0,0.0
-3.395415,-5.694918,-7.963314,-67.970001,-90.160004,13.72,1729420098740.0,0.0
-2.15354,-11.126624,-8.51127,-84.349998,-64.260002,12.74,1729420098759.0,0.0
-4.845466,-10.648061,-7.317252,-51.380001,42.98,24.710001,1729420098782.0,0.0
-5.292924,-9.949356,-7.066005,-1.12,55.720001,13.09,1729420098799.0,0.0
-3.378666,-11.399406,-6.979864,27.440001,27.440001,11.13,1729420098819.0,0.0
-1.387837,-11.133803,-5.63749,25.83,27.299999,1.05,1729420098840.0,0.0
-0.794417,-9.990034,-4.395615,34.09,58.799999,-3.15,1729420098864.0,0.0
-0.677169,-6.405586,-1.799403,55.510002,75.25,-7.21,1729420098883.0,0.0
-1.631905,-3.452843,3.199204,37.52,42.77,11.48,1729420098904.0,0.0
-2.70389,-6.412765,5.379066,-36.330002,-6.58,21.91,1729420098919.0,0.0
-2.620141,-11.665009,0.662812,-80.779999,6.3,-15.61,1729420098939.0,0.0
-3.52702,-9.29133,-0.887737,-38.150002,-2.17,-6.93,1729420098960.0,0.0
-3.352344,-6.190232,-2.282753,-13.93,-69.230003,14.28,1729420098981.0,0.0
-2.634498,-6.108876,-7.41775,-84.139999,-80.639999,-4.76,1729420099000.0,0.0
-3.692125,-11.523834,-13.124631,-133.910004,-36.82,-31.01,1729420099024.0,0.0
-6.025128,-13.03849,-14.711074,-61.110001,25.969999,-9.17,1729420099039.0,0.0
-4.890929,-10.176675,-8.659625,38.080002,26.530001,3.5,1729420099060.0,0.0
-3.048456,-9.801002,-5.666204,43.82,18.76,-12.74,1729420099081.0,0.0
-0.985843,-7.984849,-5.953342,-2.8,54.25,-30.17,1729420099104.0,0.0
-0.081356,-6.226124,-2.416751,24.08,32.549999,-7.7,1729420099119.0,0.0
0.509671,-5.132604,1.081556,26.18,30.73,5.18,1729420099139.0,0.0
0.184247,-7.257431,5.661418,24.710001,8.19,12.18,1729420099160.0,0.0
-2.766103,-10.514063,4.615755,-17.780001,14.49,-0.49,1729420099190.0,0.0
-5.525027,-9.719646,-1.799403,-81.269997,76.790001,-33.18,1729420099204.0,0.0
-5.572884,-8.874979,-5.769095,-57.260002,-2.59,-29.4,1729420099312.0,0.0
-2.273181,-7.037291,-6.130411,-39.549999,-126.349998,-14.35,1729420099313.0,0.0
0.26321,-8.130811,-9.245867,-49.91,-158.270004,-27.860001,1729420099314.0,0.0
-0.433101,-6.501299,-16.05584,-99.68,-81.830002,-34.439999,1729420099315.0,0.0
-3.668197,-8.518449,-16.934006,-75.18,34.09,-20.440001,1729420099320.0,0.0
-5.448457,-10.762917,-9.181261,35.91,70.629997,-8.75,1729420099321.0,0.0
-4.685147,-11.614761,-1.397408,143.850006,-5.74,10.85,1729420099339.0,0.0
-2.550749,-6.927221,-2.885744,47.040001,-5.04,-19.879999,1729420099364.0,0.0
-0.291924,-4.991428,-7.058826,-60.34,38.990002,-41.299999,1729420099379.0,0.0
0.430708,-6.965507,-5.862415,-52.360001,23.030001,-19.18,1729420099398.0,0.0
1.29691,-9.310472,2.526821,0.56,28.35,3.71,1729420099418.0,0.0
-0.301496,-8.248059,4.486543,94.43,11.69,27.16,1729420099438.0,0.0
-4.618148,-6.101698,5.211568,35.07,60.130001,6.23,1729420099458.0,0.0
-6.592227,-5.99402,-1.557728,-73.57,60.060001,-15.47,1729420099479.0,0.0
-3.976871,-8.087741,-7.810174,-109.480003,-44.310001,-30.870001,1729420099498.0,0.0
-0.792024,-8.336594,-7.724032,-82.599998,-156.800003,-8.75,1729420099518.0,0.0
1.399801,-8.46102,-15.809379,-30.1,-155.330002,-2.73,1729420099538.0,0.0
-1.155733,-5.125426,-14.299508,-75.389999,-57.049999,-6.02,1729420099558.0,0.0
-5.288138,-12.576675,-15.117853,-28.77,119.980003,-8.19,1729420099579.0,0.0
-7.424929,-13.500306,-3.184847,80.080002,90.230003,2.52,1729420099598.0,0.0
-3.680161,-8.482556,-2.555535,96.669998,-14.7,9.45,1729420099618.0,0.0
-0.488136,-3.862016,-6.23091,12.6,-1.89,-10.22,1729420099638.0,0.0
0.957129,-2.809174,-6.132804,-41.439999,17.85,1.05,1729420099658.0,0.0
1.107877,-6.898508,-2.962314,-24.290001,38.57,14.42,1729420099682.0,0.0
-0.442672,-10.966305,3.969693,38.009998,20.860001,31.360001,1729420099698.0,0.0
-3.019742,-8.568698,3.562913,57.470001,8.82,23.870001,1729420099718.0,0.0
-5.369494,-5.685347,-0.27996,-18.48,50.259998,-7.28,1729420099738.0,0.0
-4.084548,-7.874779,-5.706882,-89.739998,-18.9,-26.25,1729420099758.0,0.0
-0.540778,-8.678767,-11.983256,-89.389999,-172.130005,-18.83,1729420099779.0,0.0
-0.636491,-7.898707,-16.11566,-89.18,-142.309998,-13.65,1729420099798.0,0.0
-3.627519,-11.021341,-13.280167,-31.710001,37.380001,-19.18,1729420099817.0,0.0
-6.4678,-10.758131,-9.903893,59.080002,122.989998,-3.5,1729420099838.0,0.0
-4.632504,-7.357929,-4.098906,115.989998,9.52,18.34,1729420099858.0,0.0
-1.150948,-4.539185,-4.015156,38.220001,-33.810001,7.56,1729420099878.0,0.0
0.964308,-5.862415,-5.71406,-44.66,-22.75,-5.81,1729420099897.0,0.0
1.205983,-7.585248,-4.046263,-73.779999,17.219999,-5.39,1729420099918.0,0.0
-0.078963,-9.530612,-1.706082,-15.54,38.290001,8.4,1729420099937.0,0.0
-2.395216,-8.269595,0.394816,26.110001,37.240002,-0.28,1729420099958.0,0.0
-4.407579,-6.518049,-1.940579,-22.4,43.049999,-23.24,1729420099979.0,0.0
-4.713861,-5.539384,-6.771688,-86.309998,18.129999,-32.060001,1729420099998.0,0.0
-2.979064,-5.680561,-6.343372,-109.129997,-61.25,-21.98,1729420100017.0,0.0
-1.004985,-5.402994,-6.82433,-134.539993,-89.459999,-13.37,1729420100038.0,0.0
-0.579063,-4.244867,-9.346365,-221.059998,-78.959999,-24.08,1729420100058.0,0.0
-1.634298,-5.307281,-11.380265,-265.579987,-39.900002,-36.75,1729420100079.0,0.0
-3.15374,-10.712667,-12.739388,-189.350006,4.48,-44.240002,1729420100099.0,0.0
-2.433501,-8.537591,-10.971091,38.639999,14.56,5.39,1729420100118.0,0.0
-1.222732,-4.721039,-6.965507,94.220001,-9.94,19.67,1729420100138.0,0.0
-1.411765,-4.596612,-5.656632,38.220001,-3.43,6.65,1729420100159.0,0.0
-2.069792,-5.883951,-7.798209,-28.0,26.110001,-19.950001,1729420100181.0,0.0
-3.074777,-5.711668,-6.754939,-36.82,25.059999,-25.27,1729420100199.0,0.0
-3.273381,-5.369494,-7.872386,-39.830002,11.13,-18.620001,1729420100219.0,0.0
-2.737389,-4.962714,-8.740981,-48.09,-7.07,-26.25,1729420100241.0,0.0
-2.378466,-4.589434,-8.930015,-58.59,-18.969999,-20.370001,1729420100258.0,0.0
-1.741975,-4.979464,-9.614362,-69.93,-25.9,-30.1,1729420100281.0,0.0
-1.569692,-5.218746,-8.499306,-78.75,-24.99,-38.779999,1729420100298.0,0.0
-1.548156,-5.364708,-8.805587,-75.669998,-24.360001,-40.459999,1729420100318.0,0.0
-1.574477,-4.843073,-7.066005,-71.610001,-31.57,-43.610001,1729420100347.0,0.0
-1.239482,-5.974878,-6.821937,-56.98,-41.580002,-41.439999,1729420100358.0,0.0
-0.172283,-6.54437,-8.965906,-15.96,-45.709999,-54.950001,1729420100385.0,0.0
-1.694118,-4.807181,-9.437292,61.529999,-24.710001,-36.540001,1729420100400.0,0.0
-3.883551,-0.07657,-12.205789,101.849998,19.879999,-6.44,1729420100420.0,0.0
-4.816752,-4.785645,-14.007583,219.309998,49.560001,72.519997,1729420100439.0,0.0
-3.629912,-6.982256,-10.545169,212.589996,57.470001,94.360001,1729420100459.0,0.0
-2.304288,-5.781059,-9.083155,166.949997,66.639999,91.209999,1729420100481.0,0.0
-2.239682,-4.862216,-7.489535,170.169998,93.169998,94.43,1729420100498.0,0.0
-1.782653,-6.336195,-4.321437,152.320007,91.139999,77.910004,1729420100519.0,0.0
-1.363909,-7.377072,-0.945165,80.639999,69.440002,56.07,1729420100539.0,0.0
-0.923629,-11.346765,-2.608176,35.07,61.110001,41.299999,1729420100559.0,0.0
0.416351,-12.27518,-3.146562,82.739998,29.120001,20.790001,1729420100583.0,0.0
-1.249053,-8.267202,-0.825524,129.850006,-9.73,28.0,1729420100600.0,0.0
-4.426722,-4.780859,-2.500499,52.150002,43.610001,-15.68,1729420100619.0,0.0
-5.639884,-6.802795,-7.156933,-48.720001,50.540001,-46.619999,1729420100641.0,0.0
-2.464607,-7.013363,-10.80838,-48.860001,-101.779999,-43.400002,1729420100658.0,0.0
0.641276,-1.100698,-12.265609,19.809999,-169.470001,-7.84,1729420100685.0,0.0
-2.330609,-3.108276,-8.312666,64.260002,-52.5,25.27,1729420100702.0,0.0
-4.838287,-9.568897,-11.363515,-49.84,164.080002,-27.860001,1729420100718.0,0.0
-6.429514,-16.230515,-8.238488,-79.730003,83.510002,-1.68,1729420100740.0,0.0
0.653241,-8.305488,-8.432307,36.889999,6.86,19.389999,1729420100758.0,0.0
2.902494,-4.175476,-6.056234,130.690002,25.690001,33.599998,1729420100782.0,0.0
1.469193,-3.598805,3.866802,73.080002,54.740002,44.59,1729420100800.0,0.0
-0.267996,-6.668797,8.525627,-21.49,26.6,20.719999,1729420100818.0,0.0
-3.649055,-12.349358,1.177269,-85.050003,55.790001,-16.59,1729420100839.0,0.0
-6.556334,-12.488142,-4.084548,-71.889999,99.470001,-58.66,1729420100859.0,0.0
-5.615955,-8.195417,-5.63749,10.22,-72.519997,-17.92,1729420100880.0,0.0
-1.052842,-4.015156,-12.634104,33.110001,-178.850006,-32.48,1729420100900.0,0.0
0.756132,-1.639083,-15.558132,-29.610001,-185.919998,-28.35,1729420100918.0,0.0
-3.759124,-11.870793,-11.294124,-81.480003,19.040001,-16.799999,1729420100938.0,0.0
-7.657032,-14.684752,-10.837094,-59.360001,195.020004,-33.599998,1729420100959.0,0.0
-4.965107,-10.997414,-7.293324,100.660004,12.46,28.77,1729420100980.0,0.0
0.662812,-5.230711,-6.860222,133.0,-42.0,14.91,1729420100998.0,0.0
2.651247,-2.208575,-7.783852,80.080002,-18.129999,25.969999,1729420101018.0,0.0
2.512464,-3.136991,-4.383651,-7.14,65.519997,16.799999,1729420101039.0,0.0
-0.595813,-7.23111,4.414758,-35.07,113.330002,18.969999,1729420101060.0,0.0
-4.850252,-12.780065,6.199803,-9.66,65.029999,14.49,1729420101080.0,0.0
-5.903094,-7.905886,-2.251646,-15.47,40.040001,-30.17,1729420101098.0,0.0
-3.292524,-6.139983,-5.47717,-11.2,-103.879997,-17.360001,1729420101125.0,0.0
-0.526421,-5.639884,-9.671788,-52.360001,-181.789993,-28.210001,1729420101140.0,0.0
0.839881,-5.094319,-20.224136,-104.720001,-134.259995,-28.91,1729420101158.0,0.0
-3.448057,-11.41137,-11.992826,-30.799999,41.439999,-5.46,1729420101184.0,0.0
-6.936793,-12.203396,-7.491928,48.93,157.5,18.690001,1729420101201.0,0.0
-3.481557,-8.803195,-6.845865,99.050003,16.24,33.110001,1729420101219.0,0.0
1.349552,-4.780859,-8.626125,48.509998,-18.48,28.77,1729420101240.0,0.0
3.074777,-5.089533,-8.726624,8.26,20.299999,32.200001,1729420101259.0,0.0
1.756332,-6.477371,-0.184247,-7.77,90.090004,30.450001,1729420101285.0,0.0
-3.046063,-10.523634,9.092726,24.08,92.050003,33.25,1729420101300.0,0.0
-5.245068,-11.727223,2.629712,16.66,48.09,-7.14,1729420101319.0,0.0
-6.376873,-7.965706,-2.368894,-47.110001,41.299999,-40.880001,1729420101342.0,0.0
-3.802195,-6.020342,-5.974878,-46.900002,-82.949997,-31.360001,1729420101365.0,0.0
-0.20339,-4.934,-8.997013,-29.190001,-175.419998,-34.790001,1729420101384.0,0.0
0.918844,-3.548556,-16.441084,-43.259998,-159.180008,-28.49,1729420101401.0,0.0
-4.819145,-13.380664,-9.719646,-53.200001,60.060001,2.66,1729420101420.0,0.0
-8.185846,-15.110674,-9.387043,-35.560001,154.070007,-0.77,1729420101439.0,0.0
-3.158526,-9.925428,-8.499306,100.379997,-3.57,36.610001,1729420101461.0,0.0
1.74676,-4.488935,-9.387043,113.120003,-24.5,29.469999,1729420101482.0,0.0
3.115455,-3.127419,-5.903094,38.5,21.629999,26.950001,1729420101501.0,0.0
0.823131,-6.783652,-0.026321,8.82,88.550003,28.98,1729420101520.0,0.0
-3.45045,-10.241282,7.913064,19.74,99.190002,8.82,1729420101541.0,0.0
-6.436693,-10.937593,2.225325,2.52,62.369999,-8.33,1729420101560.0,0.0
-5.998806,-7.042077,-1.433301,-37.170002,19.110001,-30.73,1729420101582.0,0.0
-2.553142,-5.381458,-6.142376,-41.369999,-110.739998,-13.79,1729420101601.0,0.0
-0.232104,-6.702296,-8.736196,-54.810001,-163.100006,-21.98,1729420101619.0,0.0
-0.492921,-6.424729,-17.630316,-73.080002,-96.879997,-32.830002,1729420101640.0,0.0
-4.754539,-10.540384,-17.082361,-56.91,37.59,-22.33,1729420101661.0,0.0
-8.379664,-13.706088,-9.430114,2.73,117.040001,-12.95,1729420101684.0,0.0
0.038285,-7.67139,-9.75793,76.790001,-14.49,-3.29,1729420101701.0,0.0
3.424129,-3.359523,-7.094719,47.459999,-8.12,8.68,1729420101720.0,0.0
2.988636,-3.814159,-1.605584,35.490002,35.560001,22.889999,1729420101740.0,0.0
0.538385,-7.458428,3.404987,56.84,96.599998,12.74,1729420101760.0,0.0
-2.74696,-7.556533,6.379266,54.18,86.449997,4.06,1729420101782.0,0.0
-4.905287,-8.154739,3.443272,6.79,29.889999,-3.29,1729420101801.0,0.0
-3.98405,-6.197411,-0.133998,-55.860001,-18.34,-15.68,1729420101819.0,0.0
-0.861416,-5.618347,-4.907679,-44.170002,-121.099998,-11.62,1729420101844.0,0.0
0.320638,-5.113462,-8.501699,-35.07,-158.899994,-6.93,1729420101860.0,0.0
-1.177269,-5.632704,-14.347364,-75.529999,-98.699997,-14.91,1729420101880.0,0.0
-5.158926,-10.753345,-16.807186,-106.82,18.129999,-3.71,1729420101900.0,0.0
-8.262416,-13.720445,-12.557532,-49.0,65.800003,3.64,1729420101919.0,0.0
-4.220939,-10.571491,-10.267602,42.700001,2.1,19.530001,1729420101939.0,0.0
-0.378066,-8.173882,-9.300901,66.989998,-38.990002,12.46,1729420101960.0,0.0
1.048056,-6.022735,-9.609575,23.940001,40.25,4.83,1729420101980.0,0.0
0.323031,-5.099105,-5.572884,-4.34,101.360001,4.97,1729420101999.0,0.0
-3.017349,-8.228917,6.886543,29.82,92.260002,26.32,1729420102020.0,0.0
-3.531806,-10.025927,4.728218,23.940001,-4.41,8.4,1729420102039.0,0.0
-3.510271,-6.979864,0.751346,-50.470001,7.42,-20.51,1729420102059.0,0.0
-1.59362,-6.336195,-5.228317,-41.02,-53.760002,-22.75,1729420102083.0,0.0
-0.674776,-5.000999,-6.754939,-47.32,-125.160004,-15.190001,1729420102100.0,0.0
-0.122034,-4.558327,-18.695124,-79.590004,-112.419998,-10.99,1729420102120.0,0.0
-3.694518,-11.617154,-21.042482,-67.480003,6.65,-7.42,1729420102140.0,0.0
-9.183653,-14.636896,-12.315859,-19.18,144.410004,-12.74,1729420102160.0,0.0
-5.168497,-12.655639,-10.628918,95.550003,36.959999,6.3,1729420102181.0,0.0
0.497707,-5.891129,-8.394022,98.559998,-21.49,-6.23,1729420102200.0,0.0
2.56032,-1.741975,-5.606383,70.139999,2.52,6.44,1729420102220.0,0.0
2.912065,-4.453043,-3.249453,52.990002,73.290001,-6.79,1729420102240.0,0.0
-2.830709,-6.920043,11.234302,26.809999,114.449997,14.21,1729420102260.0,0.0
-4.024727,-8.571091,8.051848,9.8,35.91,-8.19,1729420102281.0,0.0
-2.880959,-6.142376,-0.602991,-19.67,8.4,-21.629999,1729420102300.0,0.0
-1.507478,-3.639483,-4.900501,-22.120001,-31.360001,-7.84,1729420102320.0,0.0
-0.756132,-5.56092,-5.245068,-16.1,-91.699997,10.15,1729420102340.0,0.0
-0.937986,-8.91805,-14.964713,-41.439999,-108.150002,-0.7,1729420102360.0,0.0
-3.352344,-7.147361,-20.006388,-96.25,-32.48,-10.99,1729420102383.0,0.0
-6.661618,-10.703095,-14.110476,9.87,62.720001,24.639999,1729420102400.0,0.0
-6.458229,-12.102897,-6.195018,96.949997,52.920002,37.099998,1729420102420.0,0.0
-2.282753,-9.77468,-8.760124,68.040001,11.76,16.73,1729420102440.0,0.0
0.315853,-6.518049,-9.79143,18.690001,25.129999,8.54,1729420102460.0,0.0
1.284946,-4.132405,-8.128418,4.2,57.260002,15.75,1729420102483.0,0.0
-0.811167,-5.350351,3.471986,10.01,65.870003,17.15,1729420102500.0,0.0
-2.352145,-10.411172,6.07777,4.13,40.110001,8.19,1729420102520.0,0.0
-3.206382,-9.099905,4.646862,0.14,5.32,-16.309999,1729420102541.0,0.0
-2.837888,-4.295116,2.474179,-11.34,-18.549999,-18.9,1729420102559.0,0.0
-0.961915,-4.017549,-3.457629,-36.610001,-81.620003,-17.15,1729420102581.0,0.0
-0.404387,-7.300502,-7.920243,-81.830002,-126.699997,-28.77,1729420102600.0,0.0
0.385244,-6.994221,-22.939989,-130.550003,-118.440002,-38.57,1729420102620.0,0.0
-3.598805,-13.263416,-14.677574,-31.08,-32.970001,-5.39,1729420102640.0,0.0
-8.628519,-13.986048,-11.327622,44.170002,123.620003,4.2,1729420102660.0,0.0
-5.692525,-9.394222,-8.334201,146.020004,48.02,28.91,1729420102685.0,0.0
-0.047856,-6.644868,-5.469993,187.180008,-34.790001,27.440001,1729420102700.0,0.0
-0.308674,-5.149354,-5.185246,123.550003,49.91,23.24,1729420102720.0,0.0
-2.031506,-5.903094,-3.799802,62.23,121.590004,17.57,1729420102740.0,0.0
-3.156133,-8.812766,-3.031706,51.59,118.020004,22.82,1729420102760.0,0.0
-3.76391,-18.089739,0.457029,233.309998,14.42,48.509998,1729420102781.0,0.0
-2.184647,-13.483556,-0.253639,407.190002,7.98,53.060001,1729420102800.0,0.0
-1.399801,-7.728817,-1.672583,555.659973,20.16,83.160004,1729420102819.0,0.0
-0.074178,-7.826923,-1.76351,628.109985,3.29,70.07,1729420102840.0,0.0
0.514457,-8.097312,-0.289532,638.609985,-2.38,67.900002,1729420102860.0,0.0
-0.409173,-10.872985,3.558127,671.22998,10.15,65.800003,1729420102884.0,0.0
-1.299303,-8.312666,4.67079,665.559998,52.709999,52.779999,1729420102900.0,0.0
-2.964707,-4.826324,6.759724,552.720032,70.139999,53.619999,1729420102920.0,0.0
-3.680161,-1.179662,7.377072,350.420013,62.16,1.47,1729420102940.0,0.0
-4.469792,-1.134198,6.056234,136.360001,80.150002,-43.610001,1729420102960.0,0.0
-4.532006,-6.396015,3.424129,50.959999,71.400002,-86.239998,1729420102983.0,0.0
-5.414958,-8.80798,4.275974,97.720001,86.029999,-72.940002,1729420103000.0,0.0
-5.534599,-5.350351,6.032306,149.100006,83.090004,-73.709999,1729420103020.0,0.0
-7.046863,3.491128,9.47797,132.369995,77.0,-38.009998,1729420103040.0,0.0
-6.585048,4.079762,9.719646,67.620003,40.459999,-29.190001,1729420103060.0,0.0
-5.611169,-0.332602,7.719246,-3.85,14.91,-17.639999,1729420103081.0,0.0
-5.362316,-3.531806,7.539784,-1.19,29.75,-6.09,1729420103100.0,0.0
-5.659025,-5.766702,9.801002,19.879999,34.02,-15.61,1729420103119.0,0.0
-8.116454,-7.640282,10.676775,48.02,54.389999,-8.33,1729420103139.0,0.0
-7.67139,-7.427321,8.4012,65.309998,30.799999,-27.790001,1729420103168.0,0.0
-4.158726,-6.216553,6.326623,58.52,-20.58,-44.170002,1729420103182.0,0.0
-3.168097,-1.598405,6.324231,75.040001,-9.24,-54.040001,1729420103199.0,0.0
-6.853044,1.818545,6.041877,71.120003,30.17,-53.130001,1729420103222.0,0.0
-5.469993,3.87398,4.965107,32.830002,-1.89,-62.860001,1729420103239.0,0.0
-3.335595,5.096712,4.275974,-7.28,-26.460001,-22.75,1729420103260.0,0.0
-2.931208,4.553542,4.017549,-36.540001,-11.06,7.35,1729420103282.0,0.0
-3.98405,1.794617,5.479564,-39.549999,11.55,16.17,1729420103299.0,0.0
-4.972286,-1.316052,6.252446,-44.240002,40.25,26.18,1729420103319.0,0.0
-5.326423,-7.073184,8.590233,-32.41,45.849998,27.370001,1729420103341.0,0.0
-10.841879,-15.625132,15.527027,36.330002,77.209999,-7.7,1729420103360.0,0.0
-13.009777,-4.919643,12.988241,79.309998,29.049999,-9.38,1729420103382.0,0.0
-4.692325,-0.11007,9.135797,31.710001,-93.029999,-43.189999,1729420103401.0,0.0
-1.79701,0.148355,6.372087,-9.03,-65.590004,-64.330002,1729420103420.0,0.0
-5.886343,3.220739,3.644269,-12.46,5.6,-44.66,1729420103441.0,0.0
-1.119841,5.462814,1.95015,-9.8,-54.110001,-20.02,1729420103461.0,0.0
-0.095713,4.709075,3.180061,-12.74,-40.389999,7.49,1729420103532.0,0.0
-3.852444,0.222532,4.883751,-37.939999,31.43,22.540001,1729420103539.0,0.0
-6.802795,-2.287539,5.386244,-32.689999,61.599998,40.880001,1729420103541.0,0.0
-7.030113,-2.615355,5.383851,-3.99,34.09,49.420002,1729420103543.0,0.0
-5.62074,-3.756732,5.639884,14.0,8.26,42.07,1729420103560.0,0.0
-4.957928,-4.524827,8.13799,30.870001,-12.67,21.07,1729420103583.0,0.0
-6.436693,-5.381458,11.408978,68.809998,5.74,27.09,1729420103601.0,0.0
-8.530413,-3.835695,12.894921,82.879997,19.950001,22.33,1729420103621.0,0.0
-8.836694,-3.079563,11.722438,60.130001,-8.89,5.53,1729420103641.0,0.0
-4.938786,0.437887,6.683154,26.74,-53.130001,-11.2,1729420103661.0,0.0
-4.395615,2.287539,8.030313,35.700001,-62.580002,0.42,1729420103686.0,0.0
-4.548756,0.562313,10.303494,19.25,-48.02,-3.71,1729420103702.0,0.0
-4.551149,-2.54357,9.822537,-7.0,-48.860001,-2.03,1729420103722.0,0.0
-4.402793,-2.306681,7.477571,-7.63,-31.639999,-3.85,1729420103742.0,0.0
-5.067998,1.112662,7.082755,10.5,-23.24,6.02,1729420103762.0,0.0
-4.682754,1.718047,7.422535,-1.54,-33.670002,2.1,1729420103785.0,0.0
-3.78066,-0.684347,7.551748,-19.25,-39.900002,-3.92,1729420103802.0,0.0
-3.388237,-1.426122,8.190632,-19.110001,-30.73,4.34,1729420103822.0,0.0
-3.041277,-0.969093,8.154739,-19.389999,-10.85,12.53,1729420103842.0,0.0
-3.570091,-3.270989,11.353944,-25.9,2.8,14.49,1729420103862.0,0.0
-3.120241,-2.435893,8.477771,-63.0,53.130001,5.67,1729420103887.0,0.0
-4.036692,-3.029313,7.838887,-48.439999,55.580002,17.43,1729420103902.0,0.0
-6.592227,-2.493321,9.049655,-19.389999,45.150002,24.290001,1729420103921.0,0.0
-6.597012,-1.392623,8.949157,-7.56,31.219999,6.3,1729420103942.0,0.0
-3.778267,-2.912065,6.489335,-36.400002,-0.07,-8.75,1729420103962.0,0.0
-4.345366,-1.911865,9.334401,-18.969999,14.28,-8.75,1729420103983.0,0.0
-6.802795,-1.557728,10.956735,-11.2,42.349998,-5.95,1729420104002.0,0.0
-7.116255,-0.736989,8.606983,-6.65,23.52,-10.92,1729420104021.0,0.0
-4.895715,-0.449851,6.388836,-2.73,-36.610001,-20.440001,1729420104042.0,0.0
-3.433701,-0.397209,5.668597,-0.77,-47.110001,-21.91,1729420104063.0,0.0
-4.130012,-0.880559,5.584848,6.02,-14.07,-4.97,1729420104085.0,0.0
-4.965107,-1.284946,4.26401,2.1,3.29,1.54,1729420104103.0,0.0
-5.412565,-3.096312,5.635098,-6.58,-4.13,15.12,1729420104122.0,0.0
-4.955536,-0.911665,6.910471,-5.95,-10.5,21.98,1729420104144.0,0.0
-4.795217,-0.047856,9.202796,8.75,-20.58,23.17,1729420104162.0,0.0
-4.677969,-2.230111,9.834501,-28.559999,-18.83,25.9,1729420104184.0,0.0
-5.091926,-3.905087,8.903693,-50.049999,-25.059999,35.0,1729420104203.0,0.0
-5.108676,-1.143769,9.475577,-42.77,-38.709999,35.279999,1729420104221.0,0.0
-5.056034,-0.366102,9.164511,-82.879997,-52.150002,39.549999,1729420104243.0,0.0
-5.733203,-0.863809,11.083554,-141.399994,-49.490002,44.52,1729420104262.0,0.0
-3.962514,-2.26361,8.501699,-237.720001,-51.099998,38.220001,1729420104296.0,0.0
-2.29711,-7.893922,5.24746,-213.779999,-39.200001,35.77,1729420104303.0,0.0
-2.57707,-6.9679,5.776274,-160.789993,-23.66,52.639999,1729420104321.0,0.0
-2.847459,-5.111069,6.352944,-179.339996,-33.740002,52.709999,1729420104342.0,0.0
-4.130012,-4.852644,8.331808,-276.01001,-44.73,44.099998,1729420104363.0,0.0
-3.584448,-7.066005,7.594819,-421.190002,-71.540001,13.72,1729420104384.0,0.0
-1.868794,-9.75793,5.312066,-534.169983,-93.169998,-6.79,1729420104402.0,0.0
-0.521635,-10.904092,1.698904,-496.580017,-96.040001,-6.44,1729420104423.0,0.0
-0.026321,-13.095919,-2.318645,-335.790009,-66.849998,-3.71,1729420104441.0,0.0
-0.957129,-13.354343,-5.572884,-187.809998,30.870001,-11.69,1729420104463.0,0.0
-3.23031,-16.503298,-7.523034,-34.16,108.779999,-32.41,1729420104485.0,0.0
-6.197411,-9.635897,-0.26321,73.779999,173.669998,-23.17,1729420104501.0,0.0
-9.35833,1.536192,12.935599,-89.25,139.369995,-72.449997,1729420104522.0,0.0
-8.492127,-4.481757,10.363315,-121.730003,-0.21,-15.54,1729420104545.0,0.0
-0.741775,-4.515256,6.446264,-56.560001,-41.16,-13.3,1729420104562.0,0.0
1.241875,-3.314059,6.814759,-64.470001,-89.389999,-0.77,1729420104585.0,0.0
-1.689333,-5.692525,4.577469,-124.669998,-41.93,40.32,1729420104603.0,0.0
-6.022735,-7.585248,5.718846,-161.279999,1.54,7.21,1729420104628.0,0.0
-5.919843,-13.366307,2.813959,-192.289993,-141.470001,24.92,1729420104642.0,0.0
-2.335395,-11.420943,-13.170096,-303.589996,-94.639999,-31.290001,1729420104662.0,0.0
-3.565305,-17.017754,-15.730415,-218.119995,-49.630001,-16.870001,1729420104686.0,0.0
-5.584848,-15.172889,-7.695317,-35.700001,40.389999,-25.129999,1729420104701.0,0.0
-4.73061,-10.892128,-6.549156,115.849998,56.91,-0.84,1729420104722.0,0.0
-2.54357,-5.587241,-2.979064,48.369999,40.040001,-33.040001,1729420104741.0,0.0
-1.270589,-3.84048,1.488336,-8.05,45.290001,-24.57,1729420104763.0,0.0
-1.509871,-2.852244,9.327222,20.790001,4.55,10.64,1729420104783.0,0.0
-3.103491,-5.718846,9.927821,20.440001,-30.030001,32.830002,1729420104811.0,0.0
-5.268995,-7.666604,5.230711,-115.5,26.25,-6.79,1729420104823.0,0.0
-4.323831,-9.162118,-2.871387,-165.690002,7.49,-22.4,1729420104843.0,0.0
-3.455236,-10.595419,-6.65444,-140.979996,-117.949997,11.69,1729420104863.0,0.0
-3.515057,-13.768302,-16.122839,-161.910004,-87.709999,-18.129999,1729420104883.0,0.0
-5.79063,-14.153545,-10.576276,-117.529999,9.52,-41.16,1729420104904.0,0.0
-5.084748,-8.169096,-7.058826,-5.67,33.389999,-24.85,1729420104922.0,0.0
-2.830709,-6.245267,-2.720639,49.07,-14.63,-12.18,1729420104941.0,0.0
-2.268396,-7.147361,-5.529813,-67.550003,-2.31,-26.460001,1729420104961.0,0.0
-2.57707,-10.758131,-7.508677,-171.289993,49.420002,-57.119999,1729420104982.0,0.0
-1.655833,-11.119448,-5.85763,-113.190002,26.460001,-41.23,1729420105001.0,0.0
-0.521635,-7.118648,-1.344766,-44.66,-2.87,-28.91,1729420105021.0,0.0
-0.825524,-6.288338,-1.607977,-27.51,-11.48,-25.549999,1729420105042.0,0.0
-1.29691,-8.405986,-5.534599,11.83,4.34,-30.870001,1729420105061.0,0.0
-2.009971,-12.878171,-6.594619,189.979996,11.83,19.18,1729420105086.0,0.0
-0.648455,-9.485149,-4.634897,326.269989,-4.2,40.810001,1729420105101.0,0.0
-0.234497,-6.410372,-3.632305,370.369995,14.14,57.189999,1729420105122.0,0.0
-0.978664,-5.075177,0.646062,322.420013,18.549999,59.150002,1729420105141.0,0.0
-1.840081,-9.760324,-0.619741,291.410004,19.18,57.260002,1729420105162.0,0.0
-2.467,-12.390036,3.589234,304.429993,62.860001,41.23,1729420105184.0,0.0
-6.075377,-6.733403,9.346365,230.440002,28.210001,46.200001,1729420105208.0,0.0
-4.922036,-4.127619,7.034898,68.879997,-1.54,23.24,1729420105221.0,0.0
-1.696511,-7.688138,0.509671,-100.169998,8.89,-14.56,1729420105242.0,0.0
-0.993021,-10.24846,0.165105,-168.210007,-9.31,-18.690001,1729420105264.0,0.0
-1.579263,-11.026128,0.162712,-130.619995,-23.59,10.08,1729420105286.0,0.0
-1.808974,-10.772489,-3.725625,15.68,-2.94,24.43,1729420105301.0,0.0
-3.072384,-12.873385,-4.558327,71.120003,20.370001,34.580002,1729420105321.0,0.0
-5.491528,-14.689538,-4.309474,78.959999,61.389999,26.389999,1729420105341.0,0.0
-7.343572,-11.375479,-3.476771,92.889999,92.120003,11.13,1729420105361.0,0.0
-6.908078,-8.334201,-2.096112,95.970001,63.630001,-6.37,1729420105395.0,0.0
-4.575077,-9.01137,-0.277567,76.160004,38.709999,-29.190001,1729420105404.0,0.0
-2.519642,-8.429914,2.85703,43.82,58.240002,-53.689999,1729420105422.0,0.0
-2.70389,0.691526,6.123233,37.73,72.309998,-19.389999,1729420105443.0,0.0
-2.06022,3.409772,7.630712,58.799999,10.36,29.26,1729420105462.0,0.0
-0.775275,-1.129412,4.859823,18.83,-6.79,51.939999,1729420105483.0,0.0
-2.378466,-7.63789,2.541178,21.139999,45.990002,62.02,1729420105502.0,0.0
-5.405386,-12.985848,-0.086142,48.860001,78.120003,72.239998,1729420105521.0,0.0
-8.767302,-18.96312,-3.656233,76.650002,67.900002,73.919998,1729420105542.0,0.0
-8.633304,-20.298315,-6.369694,102.550003,74.199997,5.25,1729420105561.0,0.0
-6.046663,-15.393027,-3.773481,128.660004,55.510002,-43.68,1729420105586.0,0.0
-3.04367,-7.910671,2.136791,108.290001,22.68,-77.489998,1729420105603.0,0.0
-1.478764,-1.29691,5.541777,101.290001,27.370001,-63.139999,1729420105625.0,0.0
-0.739382,6.73101,7.649854,148.050003,6.93,-6.23,1729420105642.0,0.0
-2.342573,5.039285,13.540984,90.790001,-22.4,41.439999,1729420105664.0,0.0
-5.065606,-3.168097,9.030513,-52.360001,26.74,72.940002,1729420105687.0,0.0
-6.84108,-8.712267,2.440679,-67.620003,53.900002,93.449997,1729420105704.0,0.0
-8.609376,-13.306486,-1.366302,-48.369999,-14.7,116.129997,1729420105723.0,0.0
-10.028319,-22.758137,-4.766503,-19.809999,-7.35,71.959999,1729420105745.0,0.0
-8.4347,-26.455048,-3.103491,19.389999,-9.1,-30.380001,1729420105765.0,0.0
-4.821537,-13.64866,2.333002,63.630001,-8.75,-65.870003,1729420105785.0,0.0
-1.282553,-2.725425,4.376472,101.010002,-19.040001,-58.380001,1729420105803.0,0.0
1.301696,4.486543,9.918249,108.989998,-57.119999,-25.76,1729420105825.0,0.0
-0.378066,5.029713,8.286345,45.150002,-47.670002,34.790001,1729420105843.0,0.0
-4.139583,-2.840281,5.673382,-54.25,68.529999,35.84,1729420105863.0,0.0
-6.443871,-9.138189,2.239682,-163.449997,143.710007,-19.6,1729420105886.0,0.0
-8.279166,-10.329816,3.783052,-123.199997,49.490002,27.93,1729420105903.0,0.0
-6.252446,-6.709475,4.522435,7.49,-41.860001,53.27,1729420105928.0,0.0
-5.424529,-6.54437,2.947958,17.92,-45.920002,62.510002,1729420105944.0,0.0
-5.094319,-8.930015,2.318645,-31.92,-17.219999,33.32,1729420105963.0,0.0
-6.848258,-11.531013,2.337788,-56.84,8.26,40.040001,1729420105987.0,0.0
-6.788438,-13.708481,-1.079163,-62.790001,-1.54,0.14,1729420106003.0,0.0
-5.441278,-12.973885,-1.914258,-63.420002,-19.389999,-8.26,1729420106023.0,0.0
-3.795017,-13.208381,-0.76331,-42.139999,-46.060001,-10.29,1729420106044.0,0.0
-3.704089,-12.220145,2.900101,11.34,-30.24,-4.83,1729420106063.0,0.0
-4.584648,-9.396614,2.055435,66.080002,14.07,-20.440001,1729420106084.0,0.0
-4.862216,-11.64826,-0.0335,39.34,38.360001,-80.290001,1729420106103.0,0.0
-5.898308,-8.578269,0.385244,-78.889999,25.200001,-87.220001,1729420106124.0,0.0
-3.464807,-12.641282,1.849652,-105.139999,-28.630001,-149.660004,1729420106143.0,0.0
-3.017349,-9.812965,4.421937,-25.690001,-16.799999,-94.080002,1729420106166.0,0.0
-3.259024,3.268596,3.285345,135.449997,50.119999,-30.59,1729420106185.0,0.0
-3.768696,9.994821,8.41795,221.690002,27.02,-18.83,1729420106204.0,0.0
-4.61097,5.539384,7.963314,42.279999,2.45,18.969999,1729420106224.0,0.0
-4.780859,-7.551748,2.18704,-229.740005,51.450001,24.219999,1729420106245.0,0.0
-6.139983,-12.830315,1.787439,-122.849998,9.52,50.470001,1729420106264.0,0.0
-6.943972,-7.415358,0.658026,17.5,16.24,117.040001,1729420106284.0,0.0
-8.327023,-9.908678,-0.662812,85.330002,18.969999,119.07,1729420106303.0,0.0
-9.997212,-17.893528,-0.870987,-18.27,-8.4,59.920002,1729420106325.0,0.0
-7.640282,-26.627329,-2.344966,-45.290001,-30.1,-13.3,1729420106345.0,0.0
-2.976671,-15.795023,-0.155533,-44.52,-87.43,-46.689999,1729420106365.0,0.0
-2.758924,-5.682954,3.04367,109.550003,-40.040001,18.48,1729420106385.0,0.0
-3.519842,0.4666,3.54377,152.600006,5.39,-5.11,1729420106403.0,0.0
-5.412565,0.636491,4.589434,89.040001,35.91,-19.25,1729420106424.0,0.0
-5.886343,0.162712,3.488736,-62.510002,42.07,-26.880001,1729420106442.0,0.0
-4.766503,-2.368894,2.467,-146.440002,-14.63,-19.110001,1729420106463.0,0.0
-2.993421,-8.219346,2.342573,-191.029999,-70.209999,-15.05,1729420106484.0,0.0
-1.804188,-14.77568,0.856631,-180.180008,-47.810001,29.120001,1729420106503.0,0.0
-1.574477,-13.660624,1.426122,-87.57,-11.13,45.080002,1729420106524.0,0.0
-3.488736,-10.849058,1.9669,24.92,25.76,34.509998,1729420106545.0,0.0
-7.578069,-11.361122,-0.581456,-15.190001,68.25,2.59,1729420106562.0,0.0
-9.217153,-13.627125,0.318245,-67.340004,27.790001,-13.93,1729420106587.0,0.0
-6.898508,-9.159724,1.596013,30.940001,-50.82,-8.68,1729420106605.0,0.0
-6.089733,-6.022735,1.51705,78.050003,-51.52,5.53,1729420106623.0,0.0
-4.84068,-5.922236,0.401994,28.559999,-43.189999,-28.07,1729420106642.0,0.0
-4.204189,-8.29113,0.205783,-44.869999,-29.26,-27.23,1729420106664.0,0.0
-3.211168,-9.554541,-0.212961,-34.299999,-25.620001,-24.639999,1729420106688.0,0.0
-3.225525,-6.987042,0.930808,4.97,-5.46,-11.27,1729420106703.0,0.0
-4.208975,-6.675975,1.308874,19.67,27.09,-11.41,1729420106722.0,0.0
-5.371887,-6.795617,2.021935,-17.360001,39.34,-21.84,1729420106744.0,0.0
-5.867201,-8.216952,1.902294,-31.780001,17.43,-19.950001,1729420106762.0,0.0
-5.379066,-9.623933,1.739582,-27.790001,-11.83,-18.83,1729420106784.0,0.0
-4.503292,-9.305687,1.588834,-6.58,-24.219999,-13.440001,1729420106803.0,0.0
-4.371687,-7.956135,2.550749,14.63,-17.08,-7.91,1729420106823.0,0.0
-4.922036,-7.211967,2.292324,4.76,3.08,-14.35,1729420106841.0,0.0
-5.9677,-6.223732,4.819145,-40.880001,21.98,-22.190001,1729420106864.0,0.0
-6.594619,-6.297909,3.814159,-96.599998,12.46,-23.17,1729420106887.0,0.0
-4.910072,-8.855836,-0.811167,-140.699997,6.79,-42.91,1729420106904.0,0.0
-4.24726,-8.77448,-0.179462,-172.270004,-28.98,-34.439999,1729420106922.0,0.0
-3.608376,-7.850852,-2.136791,-157.919998,-27.02,-28.630001,1729420106943.0,0.0
-3.818945,-7.726424,-3.897908,-138.600006,4.9,-33.459999,1729420106963.0,0.0
-4.275974,-6.549156,-5.625526,-167.440002,23.73,-35.420002,1729420106985.0,0.0
-4.618148,-8.482556,-5.99402,-202.720001,7.0,-34.299999,1729420107003.0,0.0
-4.785645,-11.002198,-1.78026,-261.940002,-22.75,-41.439999,1729420107022.0,0.0
-3.883551,-15.828522,-2.349752,-235.970001,-59.150002,-39.34,1729420107044.0,0.0
-0.502493,-15.716059,-8.956335,-124.529999,-78.75,-36.400002,1729420107065.0,0.0
0.66999,-9.281759,-7.037291,-29.75,-38.990002,-24.15,1729420107085.0,0.0
-0.947558,-5.180461,-2.098505,-36.959999,34.720001,-28.700001,1729420107102.0,0.0
-4.005585,-6.597012,-2.124826,-84.349998,88.199997,-55.02,1729420107123.0,0.0
-5.800202,-8.394022,-4.141976,-119.910004,70.419998,-66.43,1729420107142.0,0.0
-4.936393,-8.255238,-6.367301,-94.779999,-0.56,-33.740002,1729420107163.0,0.0
-2.675175,-5.534599,-6.513263,-104.300003,-35.07,-33.25,1729420107184.0,0.0
-1.502693,-4.627719,-6.585048,-160.720001,-16.450001,-42.560001,1729420107203.0,0.0
-1.495514,-6.266802,-6.683154,-216.930008,-8.82,-54.040001,1729420107222.0,0.0
-1.588834,-6.63769,-8.563912,-223.440002,-2.24,-64.82,1729420107252.0,0.0
-2.931208,-7.546963,-6.312266,-215.600006,11.9,-65.940002,1729420107264.0,0.0
-2.993421,-9.693325,-8.707481,-170.869995,-2.52,-78.610001,1729420107283.0,0.0
-2.057827,-7.566105,-8.982656,-91.559998,-14.07,-60.689999,1729420107305.0,0.0
-2.266003,-5.084748,-6.924829,-33.950001,0.14,-45.150002,1729420107324.0,0.0
-2.617748,-4.800002,-8.25763,-4.2,20.23,-39.900002,1729420107342.0,0.0
-2.261217,-4.134798,-9.640682,8.19,4.06,-34.16,1729420107365.0,0.0
-1.878366,-5.111069,-8.68116,-11.55,-7.7,-27.370001,1729420107386.0,0.0
-1.665405,-5.426922,-8.013563,-0.07,-5.32,-23.379999,1729420107403.0,0.0
-1.282553,-5.615955,-6.577869,59.849998,9.45,-18.129999,1729420107425.0,0.0
-0.736989,-4.295116,-5.113462,68.949997,5.74,-11.9,1729420107444.0,0.0
-0.37328,-2.696711,-6.034698,47.18,-10.22,-7.28,1729420107463.0,0.0
-0.988236,-4.606184,-8.642875,19.6,-2.52,-12.74,1729420107485.0,0.0
-1.904687,-6.795617,-9.377472,29.469999,5.88,-7.0,1729420107503.0,0.0
-2.651247,-6.644868,-8.628519,75.949997,6.93,7.7,1729420107523.0,0.0
-3.85723,-5.986843,-5.694918,23.030001,15.68,-2.38,1729420107545.0,0.0
-3.046063,-6.69751,-7.250252,-3.85,-13.86,-4.13,1729420107565.0,0.0
-0.880559,-7.992027,-9.530612,45.150002,-45.080002,-1.19,1729420107586.0,0.0
0.70349,-8.453842,-9.492328,123.690002,-36.119999,8.33,1729420107603.0,0.0
-0.409173,-6.285945,-4.388437,139.789993,-2.45,12.32,1729420107625.0,0.0
-1.835295,-7.853244,-3.68734,124.529999,15.54,13.79,1729420107644.0,0.0
-1.65344,-9.879964,-2.742175,181.229996,-11.06,23.309999,1729420107666.0,0.0
-0.818345,-7.855636,-5.685347,239.330002,-33.040001,34.509998,1729420107688.0,0.0
-2.74696,-5.249853,-5.242674,207.619995,24.43,50.259998,1729420107706.0,0.0
-5.058427,-5.271388,-5.802595,170.800003,42.700001,57.540001,1729420107725.0,0.0
-5.608776,-6.788438,-7.118648,132.160004,28.49,59.779999,1729420107745.0,0.0
-4.864608,-9.676575,-7.278966,125.650002,3.71,54.810001,1729420107764.0,0.0
-3.65384,-12.559926,-3.352344,128.380005,-0.77,34.439999,1729420107787.0,0.0
-1.9669,-8.489735,-2.739782,42.560001,-11.41,7.91,1729420107804.0,0.0
-1.603191,-12.095718,-1.861616,-26.040001,-43.049999,-25.969999,1729420107824.0,0.0
-1.837688,-14.246865,-1.885544,4.69,-19.879999,-18.129999,1729420107846.0,0.0
-2.397608,-11.076375,-2.529213,86.519997,-19.950001,-20.51,1729420107866.0,0.0
-2.486143,-9.12144,-2.380858,98.139999,-14.84,-22.68,1729420107886.0,0.0
-2.591427,-7.300502,-0.043071,5.6,-27.65,-30.799999,1729420107904.0,0.0
-3.062813,-7.51107,0.342174,-84.349998,-36.610001,-20.23,1729420107925.0,0.0
-2.95035,-8.719445,-0.923629,-147.839996,-69.510002,-38.290001,1729420107946.0,0.0
-2.273181,-8.992228,-2.261217,-194.600006,-43.82,-34.790001,1729420107968.0,0.0
-2.35693,-8.630912,-5.35753,-223.860001,-33.32,-53.130001,1729420107985.0,0.0
-3.017349,-8.642875,-5.558527,-206.430008,-22.469999,-56.0,1729420108003.0,0.0
-2.979064,-9.169296,-5.726025,-197.539993,-38.290001,-56.630001,1729420108026.0,0.0
-2.409572,-9.119047,-6.293124,-220.290009,-45.920002,-65.449997,1729420108044.0,0.0
-2.277967,-7.369894,-4.87418,-241.080002,-45.360001,-63.84,1729420108064.0,0.0
-1.131805,-5.893522,-8.02792,-235.619995,-53.760002,-68.599998,1729420108087.0,0.0
-1.40698,-6.939186,-6.867401,-152.039993,-25.549999,-53.549999,1729420108104.0,0.0
-2.081756,-6.742974,-6.183054,-102.480003,-14.21,-46.200001,1729420108123.0,0.0
-2.024328,-5.65424,-7.776673,-113.540001,-3.36,-49.84,1729420108146.0,0.0
-2.277967,-6.111269,-9.801002,-132.300003,-5.67,-41.650002,1729420108164.0,0.0
-2.500499,-5.905487,-7.872386,-75.599998,-11.13,-32.619999,1729420108187.0,0.0
-1.820938,-5.278566,-8.106883,-77.840004,-21.280001,-28.139999,1729420108204.0,0.0
-1.68694,-3.29731,-8.482556,-117.18,-15.12,-27.860001,1729420108226.0,0.0
-2.330609,-4.651647,-7.523034,-138.880005,-10.08,-8.82,1729420108244.0,0.0
-0.684347,-5.036892,-9.554541,-114.870003,-5.11,-7.56,1729420108265.0,0.0
-1.428515,-0.672383,-9.812965,-117.599998,20.719999,-14.0,1729420108287.0,0.0
-2.919244,-3.448057,-10.100104,-67.410004,22.120001,11.83,1729420108304.0,0.0
-1.868794,-4.338188,-9.822537,-29.33,-5.6,5.32,1729420108325.0,0.0
-1.052842,-2.758924,-6.56112,-29.049999,-23.940001,6.58,1729420108344.0,0.0
-2.309074,-0.631705,-5.407779,-58.59,-6.44,8.68,1729420108365.0,0.0
-2.455036,-2.529213,-8.159525,-5.81,18.690001,6.79,1729420108388.0,0.0
-3.096312,-1.462015,-8.810372,-51.59,5.39,22.540001,1729420108404.0,0.0
-0.911665,-4.797609,-11.361122,-72.309998,-14.56,-2.87,1729420108426.0,0.0
-0.514457,-3.787838,-10.710274,-51.310001,-35.84,14.56,1729420108444.0,0.0
-1.895115,-2.641676,-9.923036,-18.48,3.85,8.68,1729420108465.0,0.0
-3.371487,-2.880959,-9.683753,-15.82,12.32,9.66,1729420108543.0,0.0
-2.744568,-4.510471,-10.789237,-19.460001,-5.6,7.21,1729420108546.0,0.0
-2.175076,-4.773681,-11.736795,40.25,-13.65,21.0,1729420108547.0,0.0
-1.931008,-1.710868,-9.789038,78.959999,-7.07,26.25,1729420108567.0,0.0
-1.471586,0.12682,-9.01137,96.809998,-0.21,40.599998,1729420108568.0,0.0
-3.180061,-3.036492,-8.889337,45.220001,11.97,19.6,1729420108589.0,0.0
-2.09372,-5.053641,-11.351551,44.73,5.18,12.11,1729420108605.0,0.0
-0.433101,-4.603791,-11.686546,105.0,-23.450001,33.389999,1729420108624.0,0.0
0.021535,-3.330809,-10.260423,132.160004,0.56,24.85,1729420108643.0,0.0
-1.222732,-3.972085,-9.887143,145.180008,36.68,24.08,1729420108664.0,0.0
-2.141576,-5.352744,-8.561519,141.75,42.07,13.58,1729420108688.0,0.0
-2.524428,-7.422535,-8.260024,193.130005,39.130001,26.809999,1729420108704.0,0.0
-1.706082,-7.329216,-9.760324,286.860016,31.85,48.02,1729420108724.0,0.0
-1.26341,-5.113462,-9.035298,314.019989,25.9,50.610001,1729420108744.0,0.0
-1.385444,-4.881358,-6.838687,301.980011,39.619999,56.700001,1729420108764.0,0.0
-1.064806,-4.776074,-5.364708,226.100006,29.68,43.259998,1729420108785.0,0.0
-0.502493,-6.941578,-4.943572,131.320007,16.799999,19.32,1729420108804.0,0.0
-0.803988,-9.243474,-2.940779,82.949997,9.45,13.3,1729420108824.0,0.0
-0.380459,-11.052447,-4.541577,138.740005,13.440001,13.02,1729420108844.0,0.0
0.234497,-7.52782,-3.589234,157.710007,16.52,10.5,1729420108864.0,0.0
-0.653241,-5.278566,-1.931008,113.82,14.84,12.18,1729420108885.0,0.0
-5.613562,-5.182854,9.351151,-14.42,-2.94,-9.59,1729420108903.0,0.0
-7.403394,-9.458827,-1.864009,-76.790001,-10.99,-7.28,1729420108924.0,0.0
-6.106483,-9.894321,-5.412565,-74.900002,-79.519997,-27.719999,1729420108943.0,0.0
-3.869194,-9.820145,-7.381857,-40.529999,-147.559998,4.83,1729420108964.0,0.0
-1.679761,-9.267403,-9.693325,-62.580002,-108.57,-5.88,1729420108985.0,0.0
-3.498307,-10.317852,-11.41855,-11.62,-3.78,11.55,1729420109004.0,0.0
-5.668597,-10.128819,-10.920842,35.139999,92.260002,1.96,1729420109024.0,0.0
-4.520042,-9.686146,-7.484749,43.68,57.470001,15.89,1729420109045.0,0.0
-0.875773,-6.939186,-6.946364,28.630001,16.309999,8.68,1729420109064.0,0.0
1.122234,-6.664011,-8.879765,13.16,49.0,5.88,1729420109085.0,0.0
1.265803,-6.288338,-3.014957,5.53,104.510002,6.93,1729420109110.0,0.0
-1.217947,-5.182854,8.130811,49.630001,92.68,40.110001,1729420109123.0,0.0
-3.818945,-7.76471,9.260223,81.059998,32.549999,50.889999,1729420109144.0,0.0
-4.926822,-9.530612,-1.160519,-34.580002,43.470001,-12.53,1729420109164.0,0.0
-3.854837,-9.339187,-3.672983,-79.099998,-106.959999,-2.73,1729420109184.0,0.0
-1.134198,-9.535398,-16.386049,-70.699997,-155.470001,-7.84,1729420109265.0,0.0
-3.775874,-12.512069,-15.979269,-80.779999,-48.720001,-8.82,1729420109265.0,0.0
-6.994221,-13.11506,-13.655839,18.620001,135.100006,-24.92,1729420109265.0,0.0
-6.003592,-9.592826,-7.446464,133.419998,77.699997,7.14,1729420109266.0,0.0
-0.98345,-5.905487,-6.329016,70.349998,22.469999,-10.99,1729420109375.0,0.0
2.254039,-4.055835,-6.798009,17.360001,39.689999,-4.9,1729420109376.0,0.0
2.055435,-2.931208,1.957329,42.98,63.91,23.030001,1729420109376.0,0.0
-2.376073,-4.024727,10.504492,65.660004,67.129997,50.75,1729420109376.0,0.0
-5.132604,-9.533006,5.35753,34.09,69.93,16.52,1729420109376.0,0.0
-7.003791,-9.468399,-0.01675,-65.730003,85.190002,-21.07,1729420109383.0,0.0
-5.627919,-6.522834,-4.12044,-48.790001,-96.25,19.460001,1729420109403.0,0.0
-1.842474,-5.517848,-13.899906,-61.810001,-166.389999,7.91,1729420109422.0,0.0
-2.9671,-9.719646,-13.540984,-81.760002,-76.650002,18.83,1729420109442.0,0.0
-6.776474,-14.467006,-11.796617,-38.220001,85.260002,-4.48,1729420109463.0,0.0
-5.912664,-11.490334,-6.458229,33.810001,50.049999,8.61,1729420109485.0,0.0
0.911665,-9.796216,-7.066005,17.360001,-49.490002,-0.84,1729420109503.0,0.0
1.828116,-9.542577,-7.649854,-0.28,25.9,-10.01,1729420109522.0,0.0
-0.064606,-7.267002,-2.993421,54.599998,92.610001,-2.24,1729420109542.0,0.0
-2.591427,-4.237689,5.4006,82.389999,90.230003,15.05,1729420109561.0,0.0
-4.371687,-5.326423,9.370294,77.139999,-1.47,40.599998,1729420109583.0,0.0
-4.223332,-7.846066,6.096912,-28.210001,-37.66,3.43,1729420109602.0,0.0
-3.180061,-8.54477,-0.930808,-98.139999,-23.450001,-15.54,1729420109622.0,0.0
-2.275574,-8.592626,-7.633104,-65.239998,-101.080002,-2.03,1729420109642.0,0.0
-2.354537,-10.624132,-16.443478,-66.010002,-116.199997,5.74,1729420109662.0,0.0
-6.912865,-15.560526,-16.326229,-90.650002,0.49,-16.940001,1729420109685.0,0.0
-8.573483,-13.368701,-13.196418,11.48,106.889999,-36.68,1729420109702.0,0.0
-3.084348,-9.466006,-8.949157,152.949997,-1.33,-9.73,1729420109722.0,0.0
1.320838,-5.809773,-6.666404,85.400002,-8.05,-24.5,1729420109742.0,0.0
3.089134,-3.132205,-6.245267,33.110001,41.509998,-19.460001,1729420109763.0,0.0
2.014757,-2.938386,2.622534,54.810001,68.879997,4.2,1729420109783.0,0.0
-4.089334,-3.792624,14.409578,35.91,57.82,38.009998,1729420109802.0,0.0
-6.415157,-8.82473,5.580062,8.33,36.400002,11.06,1729420109822.0,0.0
-4.510471,-8.066205,-2.172683,-68.669998,29.82,-34.23,1729420109842.0,0.0
-1.265803,-7.936993,-8.695518,-40.389999,-158.899994,3.92,1729420109862.0,0.0
0.851845,-8.946764,-20.195423,-49.279999,-134.75,-11.76,1729420109883.0,0.0
-5.084748,-12.181859,-7.243074,-54.18,-23.379999,6.3,1729420109902.0,0.0
-9.083155,-14.517255,-12.631711,-11.34,130.619995,-31.01,1729420109922.0,0.0
-4.869394,-9.937392,-8.877372,58.099998,27.09,2.03,1729420109942.0,0.0
0.583849,-8.133204,-4.864608,41.369999,-48.650002,-3.5,1729420109962.0,0.0
2.234896,-8.77448,-5.812167,20.370001,4.2,2.1,1729420109984.0,0.0
1.344766,-6.319445,-2.95035,19.74,78.470001,-16.870001,1729420110003.0,0.0
-1.849652,-4.261617,4.445865,18.620001,95.760002,-3.43,1729420110022.0,0.0
-5.089533,-6.491727,8.609376,0.49,25.41,18.690001,1729420110042.0,0.0
-4.627719,-9.628718,2.455036,-31.710001,-10.15,-12.04,1729420110063.0,0.0
-3.349952,-9.116654,-1.20359,-56.279999,-37.240002,-21.07,1729420110085.0,0.0
-2.100898,-7.9011,-5.084748,-66.639999,-118.230003,-8.05,1729420110103.0,0.0
-2.019542,-9.109475,-17.63271,-119.980003,-103.18,-20.370001,1729420110123.0,0.0
-6.063413,-11.77508,-14.237295,-115.360001,1.4,-25.83,1729420110143.0,0.0
-4.35733,-10.188639,-10.004392,9.1,71.75,-8.82,1729420110163.0,0.0
-0.98345,-6.616155,-6.156733,90.160004,16.24,10.08,1729420110185.0,0.0
0.614955,-5.522634,-4.900501,29.049999,39.130001,11.13,1729420110203.0,0.0
0.722632,-5.611169,-1.129412,44.240002,60.060001,16.24,1729420110222.0,0.0
-2.921637,-5.742774,8.504091,59.220001,43.049999,37.240002,1729420110245.0,0.0
-5.340781,-9.178867,3.069991,13.65,21.629999,15.61,1729420110263.0,0.0
-4.938786,-10.234102,-2.239682,-47.110001,31.360001,-16.799999,1729420110286.0,0.0
-2.337788,-7.523034,-2.943172,-24.5,-84.349998,6.72,1729420110303.0,0.0
-0.07657,-5.151747,-8.30788,-24.780001,-147.279999,18.549999,1729420110324.0,0.0
-2.916851,-7.580462,-13.143774,-74.340004,-62.02,5.11,1729420110343.0,0.0
-8.396415,-14.354543,-15.771093,-108.43,109.059998,-30.940001,1729420110364.0,0.0
-6.886543,-15.921842,-11.74158,6.58,64.330002,-7.28,1729420110386.0,0.0
-0.528814,-9.54497,-8.015956,84.349998,7.42,-1.68,1729420110403.0,0.0
1.993221,-6.321837,-6.594619,71.400002,15.61,-9.24,1729420110424.0,0.0
2.316252,-6.357729,-4.244867,31.15,78.889999,-22.469999,1729420110446.0,0.0
-0.851845,-5.316852,6.549156,29.68,84.279999,-2.17,1729420110465.0,0.0
-3.586841,-5.398208,9.195618,57.470001,18.969999,16.030001,1729420110486.0,0.0
-4.941179,-4.838287,5.864808,7.35,1.12,-9.03,1729420110503.0,0.0
-1.988436,-6.333801,-4.539185,-78.260002,-32.27,-16.59,1729420110522.0,0.0
-1.134198,-9.265009,-9.755538,-76.93,-112.279999,3.36,1729420110543.0,0.0
-1.213161,-12.399607,-21.377476,-101.220001,-99.400002,-22.120001,1729420110562.0,0.0
-5.977271,-13.438091,-15.706488,-59.220001,37.869999,-7.42,1729420110587.0,0.0
-7.645068,-9.466006,-8.427521,34.720001,81.830002,-13.09,1729420110604.0,0.0
-3.352344,-8.796017,-7.185646,111.650002,-0.28,-3.01,1729420110624.0,0.0
0.141177,-7.240681,-6.367301,56.98,-9.45,-10.08,1729420110643.0,0.0
1.98365,-6.752545,-5.111069,13.02,30.940001,-10.85,1729420110665.0,0.0
1.538585,-5.663811,-0.234497,7.56,47.670002,2.1,1729420110688.0,0.0
-2.380858,-4.587041,12.208181,7.56,32.200001,20.440001,1729420110702.0,0.0
-4.369294,-8.939585,4.496114,25.9,3.5,8.12,1729420110724.0,0.0
-4.821537,-7.520642,-1.574477,-37.099998,34.09,-26.809999,1729420110742.0,0.0
-3.330809,-6.369694,-4.455436,-30.59,-40.880001,-2.1,1729420110763.0,0.0
-0.897308,-6.221339,-5.379066,-24.08,-157.149994,24.92,1729420110788.0,0.0
0.62692,-9.202796,-19.491934,-81.199997,-151.410004,-6.3,1729420110803.0,0.0
-4.575077,-14.22533,-18.675982,-113.68,37.450001,-7.0,1729420110823.0,0.0
-10.183852,-14.249258,-10.786844,-45.290001,125.860001,-14.28,1729420110844.0,0.0
-2.100898,-7.288538,-6.144768,138.460007,-14.77,2.87,1729420110863.0,0.0
1.129412,-4.811966,-6.888937,79.099998,-6.44,7.35,1729420110884.0,0.0
2.524428,-3.651447,-3.737589,-10.43,56.77,-13.37,1729420110902.0,0.0
-1.148555,-3.828516,12.105289,-13.93,67.059998,21.139999,1729420110923.0,0.0
-3.811767,-9.509077,8.319844,21.139999,-0.42,18.200001,1729420110942.0,0.0
-4.742575,-7.956135,3.034099,-32.689999,20.51,-34.650002,1729420110963.0,0.0
-3.251846,-6.391229,-4.898108,-45.709999,-21.210001,-15.68,1729420110983.0,0.0
-0.916451,-6.209375,-7.144968,-37.099998,-144.690002,4.2,1729420111004.0,0.0
0.066999,-9.406186,-21.690939,-91.07,-151.130005,-12.39,1729420111023.0,0.0
-5.568098,-14.974284,-16.802401,-128.029999,55.510002,-19.25,1729420111042.0,0.0
-8.901299,-12.748959,-12.220145,-36.889999,105.419998,-12.04,1729420111063.0,0.0
-2.648855,-9.075976,-8.456236,146.160004,-14.63,11.55,1729420111084.0,0.0
0.595813,-5.156533,-6.692725,107.940002,-24.5,10.78,1729420111103.0,0.0
1.658226,-4.567898,-6.553941,23.870001,39.900002,-6.23,1729420111122.0,0.0
0.497707,-5.95095,0.524028,-13.3,98.419998,-8.89,1729420111142.0,0.0
-4.13719,-5.302495,11.521441,2.45,26.950001,25.200001,1729420111166.0,0.0
-3.778267,-7.149754,2.488536,10.99,-18.620001,-7.49,1729420111183.0,0.0
-1.875973,-5.599205,-5.192425,-51.52,-23.73,-18.76,1729420111202.0,0.0
-0.117248,-5.65424,-6.084948,-39.619999,-135.240005,-2.45,1729420111222.0,0.0
-0.224925,-10.033106,-19.329222,-87.709999,-130.059998,-12.81,1729420111242.0,0.0
-6.163911,-16.003199,-17.221144,-123.410004,56.560001,-32.619999,1729420111262.0,0.0
-9.671788,-12.335001,-12.294323,-36.400002,99.82,-6.58,1729420111283.0,0.0
-2.481357,-7.276574,-8.836694,129.990005,-14.21,8.89,1729420111304.0,0.0
0.473779,-4.888536,-7.944171,88.970001,-14.63,19.32,1729420111325.0,0.0
2.026721,-4.163511,-7.743174,-8.26,65.029999,-6.37,1729420111346.0,0.0
0.461815,-4.362115,1.284946,-11.13,93.379997,17.15,1729420111363.0,0.0
-2.227718,-6.819544,10.205389,64.610001,16.379999,48.509998,1729420111386.0,0.0
-3.486342,-9.119047,7.32443,36.470001,0.56,-5.11,1729420111402.0,0.0
-4.036692,-7.429714,-1.038485,-64.82,20.93,-27.299999,1729420111422.0,0.0
-1.45005,-6.56112,-7.537392,-75.389999,-63.139999,-29.190001,1729420111442.0,0.0
-1.287339,-5.99402,-10.114462,-58.029999,-151.130005,5.39,1729420111462.0,0.0
-1.490728,-9.334401,-24.026331,-103.809998,-98.769997,-34.509998,1729420111484.0,0.0
-7.326823,-14.452648,-17.603996,-125.370003,40.459999,-28.84,1729420111503.0,0.0
-5.276174,-10.083356,-10.231709,16.379999,54.040001,-19.32,1729420111522.0,0.0
-1.61037,-4.716253,-8.439486,115.150002,23.450001,-9.8,1729420111542.0,0.0
1.081556,-1.990828,-3.314059,36.189999,43.259998,-13.23,1729420111569.0,0.0
1.002593,-3.007778,8.62134,33.670002,0.84,24.43,1729420111587.0,0.0
1.229911,-5.438886,7.702496,74.900002,-40.32,32.34,1729420111604.0,0.0
-2.031506,-5.474778,4.007978,-3.78,15.33,-5.46,1729420111623.0,0.0
-3.852444,-6.530013,-3.799802,-81.059998,15.89,3.92,1729420111642.0,0.0
-3.29731,-8.623734,-5.67099,-98.419998,-56.349998,-10.36,1729420111663.0,0.0
-2.163112,-12.320643,-16.622938,-112.0,-124.459999,-3.99,1729420111688.0,0.0
-4.280759,-14.598611,-18.850657,-124.599998,-43.400002,-31.360001,1729420111703.0,0.0
-7.843673,-11.52862,-13.89512,-27.370001,83.720001,-20.51,1729420111722.0,0.0
-3.546163,-7.927422,-10.167104,158.550003,40.599998,6.51,1729420111743.0,0.0
-0.138784,-4.35733,-6.570691,109.059998,-18.76,6.51,1729420111763.0,0.0
1.799403,-4.498507,-6.953543,1.68,28.630001,-12.25,1729420111784.0,0.0
0.837488,-5.292924,-1.665405,-18.549999,76.160004,-6.72,1729420111803.0,0.0
-2.962314,-5.237889,9.19801,102.410004,-0.21,38.360001,1729420111824.0,0.0
-3.601198,-3.177669,4.426722,13.58,-14.21,8.82,1729420111844.0,0.0
-2.737389,-4.211368,-4.926822,-82.459999,-4.48,4.06,1729420111865.0,0.0
-1.445265,-7.338787,-9.288938,-88.550003,-74.690002,-3.64,1729420111886.0,0.0
-2.309074,-14.175081,-19.898712,-96.669998,-84.910004,-7.14,1729420111903.0,0.0
-7.99442,-15.024533,-17.764317,-131.600006,25.9,-23.030001,1729420111925.0,0.0
-6.788438,-8.547162,-12.772887,35.07,55.299999,-1.68,1729420111943.0,0.0
-1.227518,-5.347959,-8.422735,174.440002,-17.57,12.6,1729420111964.0,0.0
0.787239,-4.680361,-8.047063,54.740002,17.08,8.47,1729420111986.0,0.0
1.691726,-4.438686,-6.209375,-37.939999,88.480003,-5.81,1729420112003.0,0.0
-1.201197,-4.508078,5.618347,18.129999,71.540001,37.099998,1729420112023.0,0.0
-2.928815,-8.063812,9.126225,98.910004,-4.48,49.279999,1729420112044.0,0.0
-4.39083,-6.245267,4.328616,-23.17,15.75,-7.56,1729420112063.0,0.0
-2.952743,-6.345766,-6.424729,-101.010002,-0.49,-16.379999,1729420112085.0,0.0
-0.614955,-6.707082,-7.283752,-68.25,-116.620003,-13.16,1729420112104.0,0.0
-1.473979,-12.217752,-17.943777,-44.450001,-148.610001,-6.37,1729420112125.0,0.0
-10.183852,-15.661024,-14.572289,-136.430008,100.800003,-34.439999,1729420112146.0,0.0
-7.140182,-11.12184,-13.753943,71.610001,71.75,-7.98,1729420112166.0,0.0
-0.897308,-3.818945,-7.630712,184.449997,-24.5,2.17,1729420112185.0,0.0
1.646262,-2.421536,-7.336394,81.480003,1.82,3.5,1729420112204.0,0.0
2.584249,-2.471786,-2.68714,-34.580002,71.190002,-8.68,1729420112226.0,0.0
-0.660419,-4.086941,9.585647,23.379999,53.41,41.02,1729420112245.0,0.0
-3.208775,-7.795816,7.142576,69.93,-3.43,30.030001,1729420112266.0,0.0
-5.307281,-5.003392,1.153341,-63.77,22.82,-12.95,1729420112290.0,0.0
-3.538985,-5.996413,-7.690532,-88.269997,-17.43,-8.82,1729420112304.0,0.0
-1.330409,-9.018548,-14.400006,-68.18,-146.649994,-2.8,1729420112324.0,0.0
-2.333002,-14.158331,-18.781265,-105.209999,-104.720001,-19.040001,1729420112344.0,0.0
-8.839087,-15.333207,-17.053648,-93.379997,86.169998,-39.619999,1729420112365.0,0.0
-6.774081,-10.269995,-13.232309,129.639999,74.830002,3.15,1729420112387.0,0.0
-0.756132,-3.129812,-8.037491,197.539993,-18.129999,-3.78,1729420112404.0,0.0
1.87358,-2.132005,-6.388836,81.900002,-5.95,3.29,1729420112425.0,0.0
3.062813,-1.981257,-0.859023,-27.860001,61.740002,-3.92,1729420112444.0,0.0
-2.208575,-6.065805,11.322837,15.82,55.09,36.75,1729420112466.0,0.0
-5.089533,-7.111469,4.316652,-10.71,3.99,-9.03,1729420112485.0,0.0
-4.333402,-5.848059,-5.522634,-89.739998,13.65,-12.04,1729420112505.0,0.0
-1.682154,-7.034898,-7.738388,-56.490002,-111.790001,-6.44,1729420112524.0,0.0
-0.641276,-11.703296,-21.817757,-83.230003,-157.779999,-6.93,1729420112544.0,0.0
-5.513064,-16.407585,-17.656639,-120.120003,7.07,-34.790001,1729420112563.0,0.0
-9.332008,-10.932807,-15.146567,-14.28,114.590004,-13.58,1729420112587.0,0.0
-3.270989,-5.833702,-11.155338,169.399994,22.540001,8.75,1729420112605.0,0.0
0.232104,-3.285345,-7.006185,117.809998,-12.25,19.809999,1729420112623.0,0.0
3.081956,-2.124826,-5.47717,-1.89,32.900002,1.96,1729420112644.0,0.0
1.684547,-3.337988,5.910272,-10.29,58.310001,32.689999,1729420112663.0,0.0
-2.292324,-7.441679,10.985448,58.450001,19.67,47.32,1729420112689.0,0.0
-5.630312,-6.65444,4.393222,-21.280001,17.780001,-9.66,1729420112704.0,0.0
-4.237689,-5.331209,-6.932007,-87.5,22.190001,-10.43,1729420112725.0,0.0
-2.007578,-7.65464,-10.267602,-67.690002,-125.510002,-10.15,1729420112745.0,0.0
-1.115055,-13.060026,-21.202803,-110.949997,-144.550003,-23.17,1729420112764.0,0.0
-6.498906,-16.486549,-17.8696,-112.770004,37.029999,-38.990002,1729420112785.0,0.0
-5.276174,-6.874579,-12.55514,62.860001,114.029999,-2.59,1729420112804.0,0.0
-0.650848,-2.304288,-6.453443,157.430008,-11.2,13.65,1729420112824.0,0.0
2.148755,-3.158526,-7.391429,16.799999,11.97,5.32,1729420112844.0,0.0
2.548356,-4.457829,1.976472,-25.27,57.75,7.49,1729420112866.0,0.0
-1.301696,-6.788438,10.875379,57.959999,28.77,48.439999,1729420112887.0,0.0
-4.297509,-7.058826,6.943972,45.779999,14.63,-0.7,1729420112905.0,0.0
-5.036892,-4.558327,-1.871187,-67.550003,17.85,-5.46,1729420112925.0,0.0
-0.815953,-3.859623,-6.613762,-81.269997,-67.199997,-11.06,1729420112944.0,0.0
0.684347,-11.062018,-19.070797,-46.619999,-202.720001,28.35,1729420112964.0,0.0
-2.823531,-15.32603,-12.550355,-137.690002,-88.690002,-18.690001,1729420112986.0,0.0
-8.539984,-9.872787,-17.984455,-153.580002,97.090004,-40.599998,1729420113004.0,0.0
-7.523034,-6.498906,-14.108082,100.730003,32.830002,34.02,1729420113025.0,0.0
-3.735196,-3.342773,-6.970293,169.119995,-0.63,32.830002,1729420113043.0,0.0
-2.136791,-3.864408,-4.41715,97.370003,53.130001,25.059999,1729420113066.0,0.0
-2.208575,-3.706482,0.421137,1.26,58.380001,13.72,1729420113097.0,0.0
-2.500499,-3.546163,6.250053,-11.97,7.0,28.77,1729420113104.0,0.0
-2.15354,-5.479564,2.088934,-21.280001,-38.150002,23.450001,1729420113123.0,0.0
-1.684547,-8.334201,-8.901299,-68.599998,-18.34,-0.98,1729420113143.0,0.0
-3.598805,-13.684553,-11.949757,-86.660004,-88.970001,-8.89,1729420113163.0,0.0
-6.458229,-15.751952,-18.001205,-120.75,-10.57,-44.170002,1729420113186.0,0.0
-7.066005,-7.913064,-17.13261,-15.82,48.09,-33.670002,1729420113205.0,0.0
-3.531806,-6.76451,-9.712467,212.240005,8.05,8.54,1729420113223.0,0.0
-1.892723,-2.605784,-6.853044,141.960007,39.970001,6.86,1729420113245.0,0.0
-1.45005,-2.100898,-7.022934,11.48,75.809998,0.21,1729420113265.0,0.0
-0.052642,-3.675375,-1.292124,-4.41,77.279999,5.95,1729420113284.0,0.0
-2.287539,-4.376472,9.279366,73.290001,-5.39,61.740002,1729420113305.0,0.0
-2.885744,-7.245467,5.594419,54.18,-19.18,24.85,1729420113323.0,0.0
-3.67059,-5.737988,-1.725225,-87.290001,43.889999,-14.28,1729420113344.0,0.0
-2.579463,-7.776673,-9.509077,-121.169998,-19.32,-26.809999,1729420113366.0,0.0
-2.277967,-11.509477,-11.277373,-120.959999,-122.150002,-9.24,1729420113386.0,0.0
-2.493321,-13.052847,-13.445271,-133.350006,-97.790001,-38.360001,1729420113403.0,0.0
-6.290731,-9.152546,-11.447264,-79.590004,12.81,-47.040001,1729420113425.0,0.0
-6.144768,-3.141776,-10.516455,61.389999,44.799999,-4.69,1729420113444.0,0.0
-2.177469,-5.515456,-6.02752,85.330002,-36.259998,3.29,1729420113463.0,0.0
-2.117648,-7.855636,-6.924829,-129.639999,24.15,-25.34,1729420113535.0,0.0
-3.835695,-7.216753,-6.941578,-148.050003,52.150002,-36.330002,1729420113536.0,0.0
-4.606184,-6.709475,-8.516055,-87.57,41.860001,-30.52,1729420113536.0,0.0
-3.663411,-8.618947,-8.547162,5.81,26.040001,-26.32,1729420113544.0,0.0
-2.435893,-8.295916,-7.015756,72.519997,20.09,-16.73,1729420113563.0,0.0
-1.514657,-5.721239,-5.63749,117.459999,12.74,-8.19,1729420113585.0,0.0
-0.957129,-6.582655,-6.348158,123.410004,-0.07,-8.33,1729420113610.0,0.0
0.071785,-7.980063,-8.161918,128.309998,-5.67,-13.86,1729420113624.0,0.0
0.736989,-8.29113,-7.233503,180.949997,-5.88,6.93,1729420113643.0,0.0
1.002593,-6.613762,-7.771888,277.410004,1.05,40.529999,1729420113664.0,0.0
1.366302,-5.647062,-7.331609,398.440002,26.809999,64.82,1729420113688.0,0.0
0.892523,-7.171289,-5.678168,447.160004,54.670002,67.620003,1729420113704.0,0.0
-1.457229,-6.498906,-0.33021,343.0,100.169998,63.07,1729420113725.0,0.0
-7.202396,-8.054241,5.539384,235.199997,106.190002,70.349998,1729420113744.0,0.0
-7.992027,-9.01137,5.692525,196.279999,56.420002,37.240002,1729420113764.0,0.0
-1.51705,-5.804988,1.605584,51.52,-12.74,16.940001,1729420113786.0,0.0
-0.725025,-7.460821,-2.567499,-115.220001,-24.85,31.710001,1729420113803.0,0.0
-1.895115,-11.437693,-5.666204,-80.43,24.710001,34.02,1729420113824.0,0.0
-5.60399,-16.067802,-5.718846,49.0,67.970001,34.09,1729420113845.0,0.0
-9.047262,-13.337594,-5.513064,105.0,92.120003,53.970001,1729420113865.0,0.0
-7.960921,-10.621738,-4.338188,52.57,73.150002,0.77,1729420113888.0,0.0
-5.194818,-10.124033,-1.868794,33.389999,20.299999,-7.07,1729420113906.0,0.0
-3.37388,-8.764909,-2.249253,53.34,27.790001,-16.030001,1729420113925.0,0.0
-2.852244,-8.204988,-2.737389,74.340004,54.18,-30.66,1729420113945.0,0.0
-2.538785,-4.838287,0.741775,68.389999,51.170002,-26.18,1729420113965.0,0.0
-1.459622,-0.002393,9.583255,37.240002,-19.530001,-3.64,1729420113987.0,0.0
0.019143,-1.26341,11.990433,-28.98,-102.480003,50.400002,1729420114004.0,0.0
0.064606,-3.677768,2.385644,-108.360001,-48.02,61.670002,1729420114027.0,0.0
-1.916651,-7.76471,-6.130411,-149.169998,42.490002,35.91,1729420114045.0,0.0
-12.033505,-29.285755,-12.732209,-141.75,44.099998,50.400002,1729420114065.0,0.0
-8.449057,-20.729021,-9.793823,-1.61,-2.87,4.34,1729420114089.0,0.0
-5.206782,-8.788837,-1.926222,43.259998,-24.5,-2.03,1729420114104.0,0.0
-3.902694,-8.738588,-0.880559,42.07,17.639999,-66.5,1729420114126.0,0.0
-3.273381,-7.9346,-2.845066,42.349998,64.540001,-79.449997,1729420114146.0,0.0
-0.535992,3.48395,1.852045,117.040001,-13.37,-13.72,1729420114165.0,0.0
1.854438,7.125826,8.963513,117.949997,-91.980003,27.65,1729420114188.0,0.0
1.337588,-3.105884,11.557333,-50.68,-50.119999,24.639999,1729420114205.0,0.0
-2.667997,-9.485149,1.768296,-211.050003,91.349998,13.72,1729420114226.0,0.0
-5.759524,-12.059827,-7.008578,-107.870003,77.629997,21.35,1729420114246.0,0.0
-7.652246,-14.187045,-12.27518,-31.92,-31.639999,76.720001,1729420114265.0,0.0
-10.569098,-23.435307,-7.82453,9.17,18.34,7.49,1729420114288.0,0.0
-8.513663,-16.228123,-5.410172,15.75,33.529999,-23.379999,1729420114305.0,0.0
-5.295317,-10.001998,-1.167697,62.790001,-24.92,-37.939999,1729420114328.0,0.0
-4.345366,-10.485349,-2.526821,50.68,31.15,-89.879997,1729420114344.0,0.0
-2.718246,-3.462414,-0.155533,75.18,12.67,-62.580002,1729420114366.0,0.0
1.684547,7.798209,4.146761,80.709999,-72.730003,-12.39,1729420114386.0,0.0
4.613362,3.663411,10.334601,34.16,-92.540001,12.39,1729420114405.0,0.0
-2.9336,-10.607382,2.45025,-187.039993,104.510002,9.03,1729420114424.0,0.0
-5.910272,-10.9017,-6.71426,-102.900002,89.879997,25.27,1729420114445.0,0.0
-6.508478,-14.333008,-9.274581,-30.66,-58.450001,92.75,1729420114465.0,0.0
-8.941978,-19.214367,-12.143576,1.82,33.670002,28.210001,1729420114496.0,0.0
-9.585647,-16.153946,-9.092726,35.420002,43.119999,-8.47,1729420114505.0,0.0
-5.252246,-9.647861,1.462015,77.840004,-57.540001,-14.28,1729420114525.0,0.0
-3.07717,-9.894321,2.414358,38.639999,-35.700001,-61.529999,1729420114544.0,0.0
-2.773281,-7.06122,-1.103091,-5.74,21.49,-79.940002,1729420114566.0,0.0
0.026321,0.624527,-0.138784,19.67,-19.389999,-39.48,1729420114587.0,0.0
2.895315,2.289931,4.957928,32.48,-78.889999,10.29,1729420114605.0,0.0
1.033699,-4.460221,6.453443,-44.029999,-29.82,25.969999,1729420114629.0,0.0
-2.730211,-8.688338,0.038285,-112.139999,77.419998,21.139999,1729420114648.0,0.0
-5.534599,-11.148161,-6.348158,-78.470001,48.580002,48.02,1729420114665.0,0.0
-8.219346,-17.771494,-11.073983,-41.16,11.2,47.389999,1729420114689.0,0.0
-10.236496,-20.745771,-11.62194,-0.63,39.830002,0.28,1729420114706.0,0.0
-7.195218,-12.832708,-6.089733,70.139999,9.17,-20.65,1729420114724.0,0.0
-4.304688,-8.525627,4.192225,119.139999,-55.16,-30.030001,1729420114745.0,0.0
-2.067399,-6.89133,1.067199,-3.71,-17.85,-86.660004,1729420114766.0,0.0
-0.404387,-0.153141,0.37328,-18.76,-10.5,-66.57,1729420114786.0,0.0
2.428715,3.177669,4.220939,-4.62,-68.389999,-12.88,1729420114806.0,0.0
2.529213,-3.443272,6.032306,-40.880001,-73.57,21.139999,1729420114825.0,0.0
-1.98365,-8.496914,2.143969,-127.330002,39.130001,20.93,1729420114846.0,0.0
-4.177868,-9.915856,-3.847659,-84.419998,52.150002,41.09,1729420114865.0,0.0
-5.489135,-14.048263,-9.657433,-54.670002,-18.059999,59.220001,1729420114885.0,0.0
-8.015956,-20.130817,-14.251652,-14.14,13.86,34.720001,1729420114904.0,0.0
-9.470792,-21.131016,-11.236694,40.25,39.130001,-20.02,1729420114925.0,0.0
-5.809773,-10.214959,-6.269196,108.919998,-0.91,-14.07,1729420114946.0,0.0
-4.441079,-8.645268,4.163511,154.139999,-37.170002,-36.330002,1729420114965.0,0.0
-3.182454,-7.668997,4.718646,36.189999,-30.24,-69.580002,1729420114987.0,0.0
-1.447658,-5.089533,0.866202,-26.950001,8.75,-74.830002,1729420115005.0,0.0
0.217747,1.629512,0.42353,-24.99,-11.06,-42.209999,1729420115024.0,0.0
1.727618,0.914058,3.972085,12.81,-60.970001,10.78,1729420115045.0,0.0
0.485743,-5.733203,2.665605,-27.860001,-28.210001,22.75,1729420115097.0,0.0
-3.069991,-9.064013,-1.330409,-39.900002,34.720001,31.57,1729420115100.0,0.0
-4.733003,-12.289536,-6.357729,-17.780001,-1.19,60.830002,1729420115104.0,0.0
-7.525427,-17.493927,-9.023334,2.52,26.110001,50.68,1729420115124.0,0.0
-10.269995,-21.365515,-9.549755,5.95,43.959999,-0.07,1729420115157.0,0.0
-7.537392,-14.512468,-5.929415,62.23,0.21,-9.1,1729420115166.0,0.0
-5.264209,-10.439885,1.12702,121.239998,-45.080002,-27.860001,1729420115199.0,0.0
-2.988636,-8.260024,1.162912,45.57,-21.91,-78.610001,1729420115204.0,0.0
-1.768296,-5.012963,1.581656,3.15,5.39,-80.360001,1729420115240.0,0.0
0.380459,1.804188,2.9671,-3.85,-29.889999,-36.470001,1729420115250.0,0.0
