acc_x,acc_y,acc_z,gyr_x,gyr_y,gyr_z,timestamp,label
-0.289532,-7.532606,-2.380858,-109.129997,37.66,-135.309998,1729430067973.0,0.0
-0.835095,-6.702296,-2.287539,-118.650002,43.68,-129.289993,1729430067974.0,0.0
-0.801596,-6.573084,-2.849852,-116.410004,33.389999,-113.889999,1729430067974.0,0.0
0.234497,-7.049256,-3.081956,-86.730003,17.290001,-96.669998,1729430067977.0,0.0
0.468993,-7.322037,-4.364508,-52.360001,5.95,-77.769997,1729430067984.0,0.0
-0.098106,-6.876972,-2.158326,-6.44,5.88,-63.560001,1729430068004.0,0.0
-1.655833,-5.718846,-1.526621,11.62,7.07,-49.77,1729430068024.0,0.0
-2.457429,-6.221339,-2.074577,-41.650002,-14.7,-35.630001,1729430068045.0,0.0
-2.675175,-7.566105,-3.266203,-71.400002,-21.629999,-26.25,1729430068065.0,0.0
-2.548356,-7.611568,-4.074977,-81.900002,-24.5,-17.85,1729430068084.0,0.0
-2.955136,-6.814759,-4.388437,-105.559998,-19.18,-15.82,1729430068104.0,0.0
-2.974278,-7.728817,-4.926822,-131.110001,-22.75,-11.97,1729430068124.0,0.0
-2.464607,-7.393822,-7.123433,-137.619995,-30.24,-13.51,1729430068143.0,0.0
-1.835295,-7.429714,-9.195618,-115.919998,-28.07,-15.96,1729430068164.0,0.0
-1.820938,-8.212167,-7.750352,-75.110001,-19.530001,-15.26,1729430068184.0,0.0
-2.098505,-7.649854,-6.391229,-16.52,-12.81,-15.82,1729430068204.0,0.0
-2.531606,-6.503692,-6.54437,17.15,-7.98,-17.99,1729430068224.0,0.0
-2.541178,-5.795416,-7.087541,-27.370001,-6.44,-19.67,1729430068244.0,0.0
-1.246661,-6.939186,-7.783852,-72.309998,-11.9,-14.0,1729430068263.0,0.0
-0.492921,-7.786245,-7.647461,-63.279999,-8.26,-8.61,1729430068285.0,0.0
-0.62692,-7.195218,-6.848258,-26.530001,3.08,-5.81,1729430068304.0,0.0
0.019143,-6.812366,-6.831509,-18.48,0.07,-2.73,1729430068327.0,0.0
0.334995,-7.446464,-6.915257,-23.940001,-3.5,1.89,1729430068344.0,0.0
-0.940379,-9.41815,-5.931807,6.65,-5.88,-0.56,1729430068363.0,0.0
-0.665205,-8.501699,-6.082555,6.79,-11.13,-10.99,1729430068384.0,0.0
-0.490529,-6.805188,-7.259824,-2.59,-17.92,-11.76,1729430068404.0,0.0
-0.607777,-6.690332,-7.692925,-17.710001,-12.11,-9.87,1729430068424.0,0.0
0.057428,-6.867401,-6.951149,-13.09,-13.16,-4.76,1729430068443.0,0.0
0.105284,-6.65444,-7.365108,-1.12,-10.99,-1.47,1729430068465.0,0.0
-0.81356,-7.219146,-8.116454,2.66,-5.95,-2.8,1729430068485.0,0.0
-0.028714,-6.84108,-7.365108,-3.29,-11.48,-9.17,1729430068504.0,0.0
0.708275,-6.963113,-6.573084,-16.66,-21.0,-14.0,1729430068524.0,0.0
0.435494,-7.664211,-7.389036,-16.52,-22.190001,-19.530001,1729430068545.0,0.0
0.086142,-6.18784,-7.546963,-33.040001,-21.700001,-24.57,1729430068565.0,0.0
-0.098106,-6.943972,-8.372486,-76.370003,-23.73,-26.18,1729430068585.0,0.0
-0.612563,-7.161718,-8.047063,-82.459999,-18.9,-25.690001,1729430068604.0,0.0
-1.514657,-6.403193,-7.65464,-72.940002,-14.84,-24.710001,1729430068624.0,0.0
-1.899901,-5.996413,-7.853244,-95.550003,-15.75,-21.280001,1729430068645.0,0.0
-1.495514,-6.116055,-8.224132,-100.800003,-21.35,-13.93,1729430068664.0,0.0
-1.284946,-5.726025,-8.248059,-66.080002,-21.35,-6.72,1729430068684.0,0.0
-1.804188,-5.426922,-7.89153,-48.369999,-19.040001,-4.2,1729430068708.0,0.0
-1.842474,-5.733203,-7.752745,-57.889999,-22.82,-6.16,1729430068724.0,0.0
-0.957129,-5.513064,-8.786445,-67.970001,-28.42,-11.69,1729430068744.0,0.0
-0.799203,-5.912664,-10.076177,-64.050003,-28.280001,-12.04,1729430068763.0,0.0
-1.378266,-5.35753,-10.052249,-28.280001,-22.120001,-12.18,1729430068784.0,0.0
-2.179861,-4.4674,-9.84168,2.59,-16.52,-7.14,1729430068803.0,0.0
-1.9669,-4.34058,-10.224532,7.0,-11.97,-0.7,1729430068831.0,0.0
-1.76351,-4.555934,-10.604989,8.12,-2.03,1.4,1729430068843.0,0.0
-1.844866,-4.742575,-10.353743,21.77,8.96,-1.05,1729430068864.0,0.0
-1.916651,-4.565506,-10.018748,26.110001,16.940001,-5.53,1729430068884.0,0.0
-1.694118,-3.809374,-9.595219,16.799999,22.4,-7.56,1729430068904.0,0.0
-1.430908,-4.398008,-9.657433,12.39,24.710001,-7.56,1729430068924.0,0.0
-1.071985,-4.453043,-9.159724,14.0,27.299999,-8.19,1729430068944.0,0.0
-0.727418,-3.969693,-8.831908,10.01,29.75,-12.67,1729430068963.0,0.0
-0.409173,-3.663411,-8.729016,7.35,31.43,-11.13,1729430068984.0,0.0
0.555135,-4.706682,-9.355937,6.02,29.4,-5.04,1729430069005.0,0.0
0.811167,-4.285545,-9.422935,14.98,31.639999,-2.8,1729430069024.0,0.0
0.746561,-3.584448,-9.592826,34.439999,38.920002,-2.38,1729430069044.0,0.0
0.758525,-3.510271,-10.348958,44.799999,43.049999,6.02,1729430069064.0,0.0
0.346959,-4.299902,-12.004791,50.470001,54.18,16.940001,1729430069085.0,0.0
-6.522834,-13.643874,12.744174,71.330002,54.810001,18.27,1729430069108.0,0.0
-3.629912,-6.159126,-5.003392,169.050003,-7.98,-5.32,1729430069125.0,0.0
0.521635,-2.718246,-10.597812,111.090004,-30.870001,-5.11,1729430069144.0,0.0
0.928415,-6.742974,-11.131411,-14.7,-16.309999,29.049999,1729430069164.0,0.0
0.557528,-6.484549,-8.334201,106.120003,12.18,34.860001,1729430069187.0,0.0
1.864009,-3.988836,-5.611169,131.039993,-1.96,39.759998,1729430069206.0,0.0
2.761317,-7.489535,-5.702096,46.060001,-14.07,32.900002,1729430069226.0,0.0
3.065206,-10.255639,-5.788238,101.709999,-26.460001,24.219999,1729430069244.0,0.0
2.660819,-9.315259,-6.321837,193.970001,-34.16,20.370001,1729430069264.0,0.0
2.562713,-10.028319,-6.4343,262.5,-36.259998,21.629999,1729430069286.0,0.0
1.622334,-6.606583,1.691726,280.48999,-30.380001,27.93,1729430069305.0,0.0
-0.598206,-11.160125,0.894916,134.75,-48.16,31.15,1729430069328.0,0.0
-0.256032,-11.119448,-1.495514,118.370003,-73.010002,43.119999,1729430069346.0,0.0
-0.301496,-12.464212,-2.273181,224.770004,-74.970001,56.84,1729430069368.0,0.0
-1.435694,-10.24846,-4.228118,265.160004,-54.740002,54.880001,1729430069387.0,0.0
-0.540778,-8.035098,-2.907279,215.180008,-46.549999,57.400002,1729430069406.0,0.0
-2.574677,-8.910872,-1.59362,136.779999,-37.59,58.099998,1729430069426.0,0.0
-4.101298,-10.880164,-0.210568,61.810001,-33.529999,37.869999,1729430069445.0,0.0
-2.57707,-10.514063,-1.256232,-38.57,-37.66,3.01,1729430069466.0,0.0
-4.285545,-8.559127,-2.76371,-172.830002,-37.73,4.27,1729430069489.0,0.0
-1.631905,-10.246067,-5.673382,-174.369995,-44.869999,-2.66,1729430069506.0,0.0
-0.646062,-12.100503,-6.417551,-109.900002,-22.26,0.7,1729430069526.0,0.0
-2.957529,-12.217752,-6.372087,-150.990005,22.75,-33.950001,1729430069550.0,0.0
-2.694318,-8.652447,-8.480164,-274.26001,44.799999,-60.549999,1729430069565.0,0.0
0.066999,-7.226324,-7.104291,-255.570007,36.959999,-32.689999,1729430069587.0,0.0
-3.012564,-8.128418,-0.90688,-195.440002,57.260002,-20.93,1729430069606.0,0.0
-1.751546,-9.736395,-6.039484,-156.869995,40.599998,-15.12,1729430069626.0,0.0
-1.619941,-9.320045,-7.161718,-99.120003,43.259998,-1.19,1729430069645.0,0.0
-0.914058,-9.32483,-7.975278,-26.25,49.07,9.24,1729430069666.0,0.0
0.464208,-9.020942,-5.704489,16.24,54.740002,21.49,1729430069688.0,0.0
0.138784,-10.219746,-3.48395,9.73,56.700001,20.719999,1729430069706.0,0.0
1.473979,-12.067005,-4.510471,37.59,40.110001,15.4,1729430069726.0,0.0
2.435893,-10.102496,-4.261617,105.349998,32.759998,9.31,1729430069746.0,0.0
2.18704,-7.609176,-4.938786,181.020004,19.25,16.24,1729430069765.0,0.0
0.914058,-6.448657,-4.819145,230.930008,-0.21,33.389999,1729430069787.0,0.0
-1.028914,-9.265009,-3.412165,329.070007,-38.779999,45.779999,1729430069805.0,0.0
-0.473779,-9.887143,-1.928615,436.309998,-48.860001,27.58,1729430069825.0,0.0
-1.308874,-9.006584,-1.739582,361.269989,-26.25,-5.81,1729430069845.0,0.0
-1.90708,-9.894321,-3.136991,209.509995,-37.380001,-19.460001,1729430069865.0,0.0
-0.76331,-12.172288,-3.529413,207.690002,-53.34,-15.12,1729430069886.0,0.0
0.052642,-9.611969,-1.564906,279.230011,-2.38,-28.42,1729430069906.0,0.0
-0.100499,-6.295516,0.253639,190.610001,35.560001,-25.129999,1729430069926.0,0.0
-1.727618,0.078963,0.399601,-56.209999,39.41,-55.299999,1729430069945.0,0.0
-1.289732,-8.068598,-1.947758,-360.5,16.379999,-48.16,1729430069965.0,0.0
1.497907,-5.912664,-5.812167,-447.089996,2.03,-55.510002,1729430069986.0,0.0
2.301895,-3.469593,-5.498707,-368.059998,-7.49,-8.4,1729430070005.0,0.0
0.239282,-7.338787,-4.622933,-272.440002,-28.210001,34.16,1729430070027.0,0.0
-2.007578,-13.146168,-5.766702,-188.160004,-8.19,31.01,1729430070046.0,0.0
0.794417,-13.560125,-6.372087,-60.41,47.459999,8.47,1729430070065.0,0.0
-3.237489,-18.984655,0.299103,133.699997,22.68,73.919998,1729430070086.0,0.0
-2.435893,-9.894321,-4.45065,334.390015,24.290001,75.739998,1729430070106.0,0.0
-1.294517,-5.788238,-4.539185,476.839996,24.5,114.379997,1729430070125.0,0.0
-6.101698,-8.051848,3.175276,555.23999,22.049999,150.570007,1729430070145.0,0.0
-9.052048,-4.383651,5.893522,539.840027,-24.92,166.25,1729430070165.0,0.0
-6.163911,-3.61077,8.279166,416.640015,-9.52,58.66,1729430070186.0,0.0
-6.915257,-11.387443,7.860423,295.540009,-0.21,20.93,1729430070205.0,0.0
-7.659425,-11.79183,7.886744,179.550003,-0.91,8.96,1729430070226.0,0.0
-3.079563,-8.987441,7.503892,132.930008,2.1,-12.81,1729430070245.0,0.0
-0.497707,-6.874579,7.953743,28.210001,-7.28,-22.610001,1729430070265.0,0.0
-1.138984,-8.030313,4.68754,-91.629997,-3.92,-3.92,1729430070286.0,0.0
-3.299703,-11.760723,4.165904,-277.480011,-33.18,-17.01,1729430070306.0,0.0
-4.388437,-10.889735,3.792624,-340.480011,-42.07,-27.16,1729430070331.0,0.0
-2.730211,-9.640682,2.612962,-315.209991,-40.529999,-58.59,1729430070344.0,0.0
-1.986043,-5.831308,1.416551,-283.640015,-19.74,-50.540001,1729430070365.0,0.0
-1.995614,-5.022535,-1.158126,-300.929993,-0.7,-51.869999,1729430070386.0,0.0
-3.062813,-4.010371,-3.534199,-402.709991,10.57,-64.68,1729430070405.0,0.0
-4.780859,-2.438286,-2.194218,-527.23999,-16.73,-61.880001,1729430070425.0,0.0
-5.046463,-7.724032,-7.23111,-631.119995,-54.32,-77.139999,1729430070445.0,0.0
0.354138,-13.253844,-16.316658,-516.809998,-53.689999,-64.540001,1729430070466.0,0.0
2.897708,-12.674782,-11.892329,-151.899994,-58.869999,-15.26,1729430070486.0,0.0
3.062813,-1.493121,-4.728218,52.009998,25.549999,-5.25,1729430070505.0,0.0
-2.785245,-1.428515,-1.22034,-51.380001,37.240002,-23.17,1729430070525.0,0.0
-1.658226,-6.297909,-7.135397,-276.570007,-41.439999,-16.450001,1729430070544.0,0.0
2.11047,-10.648061,-11.54537,-238.070007,-46.970001,-0.35,1729430070565.0,0.0
1.655833,-10.159925,-12.184253,-130.619995,-6.65,5.04,1729430070587.0,0.0
-2.63689,-6.848258,-6.403193,4.34,35.700001,15.89,1729430070606.0,0.0
-2.945565,-8.635696,-7.520642,-52.709999,40.950001,8.54,1729430070626.0,0.0
-4.086941,-12.610175,-7.070791,-8.26,43.119999,12.18,1729430070645.0,0.0
-3.031706,-13.30888,-10.923235,138.320007,52.080002,4.76,1729430070665.0,0.0
-0.835095,-9.329616,-3.409772,201.880005,52.709999,-8.26,1729430070687.0,0.0
-0.334995,-4.139583,-1.536192,160.720001,29.26,-9.94,1729430070706.0,0.0
-1.091127,-9.444471,-5.833702,100.800003,5.04,-12.04,1729430070725.0,0.0
0.519243,-11.629118,-9.013763,133.070007,-12.67,-11.69,1729430070745.0,0.0
1.17009,-7.152147,-7.345965,227.779999,-4.62,-1.96,1729430070764.0,0.0
0.078963,-5.498707,-5.252246,248.639999,10.57,-8.96,1729430070786.0,0.0
-1.131805,-8.408379,-4.917251,198.940002,2.31,-10.78,1729430070806.0,0.0
-1.926222,-7.149754,-2.969493,243.740005,-16.799999,-2.52,1729430070825.0,0.0
-2.304288,-12.543176,-4.847858,345.23999,-12.04,6.79,1729430070844.0,0.0
-0.098106,-12.859028,-5.228317,341.110016,0.56,-25.059999,1729430070864.0,0.0
0.495314,-10.179067,-4.756931,361.200012,-15.12,8.33,1729430070887.0,0.0
-0.614955,-5.651847,-3.510271,380.100006,2.8,17.92,1729430070905.0,0.0
-3.101098,-1.629512,4.046263,269.709991,17.99,-23.309999,1729430070925.0,0.0
-2.244468,-2.440679,-0.215354,-19.110001,3.64,-47.25,1729430070944.0,0.0
-0.696311,-5.376673,-2.397608,-357.350006,-19.67,-47.529999,1729430070964.0,0.0
-0.277567,-9.190832,-0.837488,-363.160004,-37.66,-28.210001,1729430070986.0,0.0
1.031307,-7.240681,-3.148954,-348.459991,-55.580002,-51.170002,1729430071005.0,0.0
1.371087,-11.219944,-7.963314,-329.630005,-11.69,-54.32,1729430071025.0,0.0
1.837688,-11.904292,-12.047862,-305.970001,-2.31,-54.529999,1729430071044.0,0.0
2.514857,-11.586047,-9.142976,-220.990005,-42.700001,-19.110001,1729430071064.0,0.0
3.63709,-9.52822,-6.867401,-172.130005,-48.509998,-18.620001,1729430071085.0,0.0
3.964907,-9.164511,-5.508278,-160.789993,-8.61,-28.700001,1729430071107.0,0.0
2.132005,-8.530413,-4.366901,-152.460007,60.060001,-45.779999,1729430071125.0,0.0
-0.040678,-12.222539,-1.311267,-4.9,66.150002,-33.950001,1729430071144.0,0.0
-1.275374,-6.163911,-4.273581,143.289993,68.040001,-30.52,1729430071165.0,0.0
-1.792224,-6.829116,-5.84088,308.420013,80.989998,40.389999,1729430071187.0,0.0
-0.806381,-10.631311,-5.319244,346.01001,38.5,62.09,1729430071206.0,0.0
1.028914,-9.710074,-3.89073,302.540009,-6.3,57.68,1729430071225.0,0.0
2.120041,-9.032906,0.378066,365.329987,-32.900002,94.220001,1729430071245.0,0.0
1.998007,-6.565905,-3.4672,512.26001,-60.970001,91.910004,1729430071264.0,0.0
-2.026721,-6.941578,5.422136,636.159973,-14.0,97.090004,1729430071286.0,0.0
-9.056834,-5.601598,9.769895,343.980011,182.070007,38.920002,1729430071306.0,0.0
-6.111269,-5.929415,6.539584,212.380005,-38.290001,74.340004,1729430071328.0,0.0
1.777867,-7.953743,5.795416,197.75,-122.5,54.18,1729430071344.0,0.0
-1.828116,-9.480364,5.020142,300.579987,49.139999,-21.700001,1729430071364.0,0.0
-5.970093,-9.102298,6.163911,397.459991,46.619999,21.210001,1729430071386.0,0.0
-3.022135,-6.367301,8.901299,290.220001,33.599998,-14.42,1729430071405.0,0.0
-2.165504,-4.228118,11.234302,94.849998,5.39,-13.65,1729430071425.0,0.0
-0.442672,-5.288138,8.614161,-60.48,-19.6,-29.75,1729430071444.0,0.0
0.210568,-7.188039,9.970891,-147.979996,-45.779999,-28.0,1729430071464.0,0.0
0.064606,-5.517848,7.458428,-164.080002,-33.18,-19.32,1729430071485.0,0.0
0.200997,-6.108876,7.386643,-161.699997,-26.67,-17.5,1729430071504.0,0.0
0.679562,-7.140182,5.850451,-179.199997,-32.970001,-17.92,1729430071526.0,0.0
-0.667598,-8.365308,6.329016,-211.75,-22.75,-11.27,1729430071544.0,0.0
-1.663012,-9.420543,6.008378,-257.040009,-21.35,-17.92,1729430071564.0,0.0
-1.485943,-6.778866,6.525227,-321.720001,-12.46,-35.07,1729430071586.0,0.0
0.851845,-4.692325,2.002793,-380.23999,-18.690001,-31.290001,1729430071604.0,0.0
0.339781,-4.362115,-1.387837,-425.179993,-19.950001,-44.029999,1729430071627.0,0.0
-2.361716,-8.054241,3.062813,-532.280029,1.12,-44.939999,1729430071644.0,0.0
-3.957729,-5.458029,-6.221339,-610.75,-49.139999,-61.670002,1729430071664.0,0.0
0.562313,-11.995219,-10.028319,-444.920013,-76.720001,-18.41,1729430071686.0,0.0
4.493721,-8.154739,-10.097712,-269.429993,-86.660004,0.84,1729430071706.0,0.0
3.428915,-8.685946,-8.688338,-88.269997,-25.9,25.129999,1729430071725.0,0.0
1.122234,-0.636491,-6.558727,-137.619995,59.220001,-13.440001,1729430071744.0,0.0
-0.380459,-4.498507,-6.821937,-210.279999,19.879999,23.66,1729430071764.0,0.0
1.493121,-9.006584,-8.147561,-291.269989,-19.74,38.639999,1729430071786.0,0.0
1.820938,-12.452249,-10.9352,-187.320007,-2.1,35.209999,1729430071804.0,0.0
0.949951,-9.059227,-7.905886,17.43,9.03,24.219999,1729430071825.0,0.0
-1.986043,-4.278367,-3.345166,82.809998,30.1,18.9,1729430071844.0,0.0
-4.407579,-7.209574,-2.993421,-36.400002,3.15,28.559999,1729430071864.0,0.0
-2.524428,-11.38505,-7.762317,-80.849998,-16.309999,31.219999,1729430071888.0,0.0
-0.973879,-12.078968,-9.427721,23.17,-20.370001,27.299999,1729430071905.0,0.0
-1.081556,-10.006784,-8.391629,70.279999,3.99,9.17,1729430071925.0,0.0
-1.4668,-10.415956,-7.578069,82.879997,12.18,9.52,1729430071944.0,0.0
-0.055035,-11.370694,-9.276974,145.600006,10.22,4.83,1729430071964.0,0.0
0.277567,-9.549755,-8.977871,210.0,23.73,-1.05,1729430071995.0,0.0
0.579063,-5.706882,-6.759724,201.949997,35.139999,3.29,1729430072005.0,0.0
0.732204,-8.219346,-5.426922,184.589996,27.58,24.99,1729430072024.0,0.0
-1.761117,-8.154739,3.479164,173.600006,19.32,26.530001,1729430072046.0,0.0
-2.371287,-5.369494,-3.079563,115.639999,-0.28,-2.38,1729430072064.0,0.0
-1.258625,-8.566305,-4.072584,9.17,-35.349998,8.68,1729430072087.0,0.0
0.088534,-13.208381,-5.120641,49.279999,-51.170002,22.960001,1729430072107.0,0.0
0.241675,-14.366508,-8.468199,218.540009,-32.130001,17.57,1729430072124.0,0.0
-1.87358,-9.920642,-7.657032,383.670013,9.1,15.68,1729430072143.0,0.0
-3.04367,-9.260223,-5.54417,498.679993,33.599998,25.34,1729430072164.0,0.0
-1.864009,-11.825329,-2.388037,569.590027,30.309999,37.59,1729430072186.0,0.0
-0.392423,-10.334601,1.095913,573.22998,23.17,16.66,1729430072204.0,0.0
0.009571,-8.276773,2.962314,539.630005,23.940001,-9.8,1729430072224.0,0.0
-0.411566,-5.283352,5.630312,419.579987,37.029999,-40.32,1729430072244.0,0.0
-0.899701,-4.948357,6.329016,343.48999,-4.34,-46.970001,1729430072264.0,0.0
-0.33021,-3.661019,6.486942,323.679993,-22.68,-62.510002,1729430072285.0,0.0
-1.768296,-1.323231,7.750352,237.720001,19.879999,-32.549999,1729430072311.0,0.0
-3.146562,-1.792224,6.991827,104.510002,14.42,-39.619999,1729430072327.0,0.0
-2.469393,-4.412365,6.668797,29.469999,-19.67,-47.740002,1729430072343.0,0.0
-1.194018,-5.843273,7.573284,43.049999,-32.48,-57.540001,1729430072366.0,0.0
-0.071785,-4.926822,8.69791,61.18,-23.24,-56.98,1729430072386.0,0.0
-0.648455,-3.572484,10.425529,60.060001,-7.21,-45.920002,1729430072404.0,0.0
-1.002593,-2.17029,9.487542,22.82,-9.8,-46.830002,1729430072425.0,0.0
-0.61017,-2.395216,7.125826,-4.27,-7.42,-37.66,1729430072444.0,0.0
0.047856,-2.533999,7.391429,-2.73,3.5,-34.860001,1729430072465.0,0.0
0.27996,-3.065206,9.901501,0.28,-18.27,-36.330002,1729430072486.0,0.0
-0.088534,-2.151148,8.171489,-30.73,-2.59,-20.790001,1729430072505.0,0.0
-1.258625,-3.754339,7.118648,-56.349998,7.42,-18.48,1729430072525.0,0.0
-0.988236,-6.281159,5.998806,-71.470001,-7.42,-27.719999,1729430072545.0,0.0
-0.928415,-5.702096,9.600004,-17.08,-14.91,-25.48,1729430072566.0,0.0
0.535992,-4.225725,9.413363,35.77,-21.35,-18.83,1729430072588.0,0.0
2.311467,-0.933201,8.865408,44.240002,-31.43,-13.65,1729430072606.0,0.0
1.347159,-0.071785,6.101698,55.510002,-10.99,18.27,1729430072626.0,0.0
2.09372,-2.706282,10.205389,27.93,-9.38,23.1,1729430072645.0,0.0
1.87358,-5.407779,9.090333,-84.489998,-35.700001,38.150002,1729430072665.0,0.0
0.387637,-7.264609,5.52742,-150.360001,-37.66,36.049999,1729430072688.0,0.0
1.067199,-6.936793,1.993221,-77.699997,-34.580002,28.559999,1729430072706.0,0.0
0.528814,-5.510671,3.268596,39.060001,24.639999,35.209999,1729430072726.0,0.0
0.708275,-2.416751,10.006784,64.68,49.84,33.18,1729430072746.0,0.0
-1.550549,-5.163712,10.676775,41.720001,32.200001,52.849998,1729430072766.0,0.0
-0.150748,-5.91745,9.571291,-45.290001,15.75,13.72,1729430072788.0,0.0
0.772882,-3.206382,9.497113,-116.059998,2.73,25.83,1729430072808.0,0.0
-0.830309,-6.017949,9.973285,-142.380005,-3.22,28.49,1729430072827.0,0.0
-0.689133,-7.113862,9.312866,-196.210007,-29.33,20.299999,1729430072848.0,0.0
-0.102891,-8.530413,7.477571,-221.619995,-38.57,15.68,1729430072867.0,0.0
-0.37328,-10.042676,8.836694,-150.570007,-21.629999,-3.64,1729430072888.0,0.0
-0.540778,-9.432507,7.867601,-160.300003,-4.27,-7.42,1729430072907.0,0.0
0.349352,-7.702496,5.900701,-229.529999,-15.12,-32.060001,1729430072972.0,0.0
-0.51685,-8.070991,8.300702,-282.100006,-23.24,-22.540001,1729430072973.0,0.0
-0.057428,-9.083155,7.834101,-301.630005,-25.9,-33.599998,1729430072973.0,0.0
-0.212961,-7.759924,7.709675,-316.959991,-36.259998,-29.68,1729430073009.0,0.0
-0.270389,-7.410572,1.698904,-353.079987,-39.27,-42.630001,1729430073010.0,0.0
-1.940579,-8.29113,3.795017,-366.100006,-44.099998,-22.469999,1729430073031.0,0.0
-1.751546,-8.484949,1.37348,-308.350006,-49.209999,-1.12,1729430073046.0,0.0
0.820738,-5.71406,-0.837488,-294.140015,-32.27,-38.639999,1729430073066.0,0.0
1.471586,-5.879165,-4.113262,-303.380005,-36.68,-6.86,1729430073088.0,0.0
2.799603,-5.271388,-9.734003,-313.179993,-54.810001,7.0,1729430073115.0,0.0
3.388237,-11.918649,-12.143576,-252.210007,-62.510002,32.34,1729430073127.0,0.0
4.565506,-10.028319,-6.355337,-102.480003,-19.18,20.299999,1729430073146.0,0.0
0.662812,-7.329216,-0.052642,-20.370001,57.889999,-14.21,1729430073166.0,0.0
-1.179662,-4.09412,-3.541377,-87.220001,-7.28,-12.67,1729430073188.0,0.0
2.218147,-4.706682,-9.442079,-242.410004,-47.18,20.58,1729430073208.0,0.0
1.648655,-9.365508,-8.642875,-257.390015,-28.700001,34.860001,1729430073228.0,0.0
-0.193819,-8.815158,-7.683353,-163.869995,-9.59,24.92,1729430073246.0,0.0
-0.705883,-7.01097,-6.879365,-58.029999,-5.18,16.66,1729430073266.0,0.0
0.086142,-6.508478,-8.563912,-44.59,-10.29,25.41,1729430073287.0,0.0
-0.052642,-7.046863,-8.396415,-33.880001,-1.19,35.490002,1729430073307.0,0.0
-1.804188,-8.140383,-6.290731,-30.940001,9.03,41.16,1729430073332.0,0.0
-2.713461,-11.361122,-5.651847,13.86,5.67,38.5,1729430073348.0,0.0
0.210568,-12.260822,-9.013763,55.93,-1.61,20.58,1729430073366.0,0.0
1.794617,-10.892128,-8.456236,104.790001,0.14,20.23,1729430073387.0,0.0
1.691726,-9.171689,-5.898308,165.619995,21.280001,19.32,1729430073406.0,0.0
1.01695,-5.190032,-2.194218,165.970001,25.76,26.25,1729430073426.0,0.0
-0.449851,-4.694718,-0.854238,104.860001,11.69,34.580002,1729430073446.0,0.0
-0.928415,-7.783852,-2.794817,72.099998,-27.09,47.110001,1729430073466.0,0.0
-1.088734,-8.480164,-5.869594,122.57,-51.869999,49.139999,1729430073487.0,0.0
-1.301696,-6.881758,-5.886343,173.600006,-35.700001,41.93,1729430073506.0,0.0
-0.926022,-6.070591,-4.855037,164.080002,-29.610001,55.860001,1729430073527.0,0.0
-1.277767,-9.073583,-5.852845,183.119995,-21.139999,66.709999,1729430073546.0,0.0
-2.127219,-9.84168,-4.285545,250.040009,-19.67,64.400002,1729430073566.0,0.0
-1.761117,-9.860823,-3.668197,305.200012,-24.92,58.099998,1729430073587.0,0.0
-1.478764,-10.15514,-2.368894,366.23999,-21.559999,56.77,1729430073606.0,0.0
-1.715654,-10.238889,-0.145962,422.589996,-9.38,46.34,1729430073627.0,0.0
-2.325824,-8.154739,2.227718,447.369995,4.2,24.710001,1729430073701.0,0.0
-2.938386,-5.379066,6.929615,360.779999,21.35,33.670002,1729430073701.0,0.0
-2.701497,-2.935993,5.991628,118.860001,7.7,10.85,1729430073702.0,0.0
-3.022135,-3.993621,2.660819,-138.669998,-18.200001,-0.84,1729430073747.0,0.0
-2.191825,-7.946564,-0.808774,-333.690002,-36.540001,-19.110001,1729430073748.0,0.0
-1.136591,-6.549156,-3.438486,-400.679993,-42.98,-6.58,1729430073748.0,0.0
-0.234497,-7.054041,-4.926822,-319.619995,-15.26,16.309999,1729430073765.0,0.0
-2.009971,-8.556733,-1.79701,-296.170013,7.63,0.28,1729430073788.0,0.0
-3.404987,-6.211767,-7.649854,-410.549988,-19.6,-25.969999,1729430073807.0,0.0
-4.189832,-6.005985,-10.100104,-457.309998,-3.5,-12.18,1729430073831.0,0.0
-4.469792,-11.913863,-7.869993,-382.130005,-26.809999,10.64,1729430073845.0,0.0
-1.959722,-17.292929,-9.513863,-233.940002,-57.400002,0.84,1729430073866.0,0.0
-2.299503,-16.560726,-4.23051,76.440002,-20.860001,85.889999,1729430073887.0,0.0
-4.261617,-10.750952,0.985843,292.040009,13.58,109.129997,1729430073905.0,0.0
-3.87398,-6.503692,-0.976272,444.98999,6.93,95.900002,1729430073926.0,0.0
-3.914658,-10.715059,-2.007578,516.179993,21.139999,113.260002,1729430073945.0,0.0
-6.369694,-6.553941,3.299703,496.160004,16.24,107.590004,1729430073964.0,0.0
-7.106683,-8.154739,7.745567,456.820007,-29.82,134.889999,1729430073986.0,0.0
-5.833702,-7.79103,3.574877,242.550003,10.15,37.66,1729430074005.0,0.0
-8.276773,-9.276974,6.656832,21.84,4.13,32.130001,1729430074025.0,0.0
-5.402994,-12.722638,2.050649,-58.52,-45.360001,4.2,1729430074045.0,0.0
-5.338387,-11.511869,2.89053,-74.480003,-9.1,-17.290001,1729430074064.0,0.0
-4.953143,-9.899107,2.254039,-28.98,-8.89,-20.65,1729430074085.0,0.0
-3.644269,-6.065805,4.228118,-43.959999,0.42,-21.77,1729430074105.0,0.0
-3.972085,-4.847858,2.313859,-93.730003,1.26,-2.24,1729430074125.0,0.0
-3.979264,-7.657032,-0.696311,-131.25,-24.639999,-4.9,1729430074144.0,0.0
-4.510471,-9.556933,0.445065,-130.410004,-28.84,12.04,1729430074165.0,0.0
-4.285545,-9.521042,1.062413,-90.300003,-19.6,-1.12,1729430074185.0,0.0
-5.436492,-8.169096,0.267996,-102.199997,0.14,-5.74,1729430074205.0,0.0
-5.587241,-7.271788,-0.736989,-208.600006,1.47,-26.32,1729430074225.0,0.0
-4.981857,-7.020542,-2.254039,-286.230011,-9.94,-38.290001,1729430074245.0,0.0
-4.31426,-5.328816,-5.532206,-364.070007,-12.46,-39.970001,1729430074265.0,0.0
-5.469993,-6.206983,-2.830709,-428.959991,-11.27,-44.450001,1729430074289.0,0.0
-7.176075,-5.056034,-5.314459,-541.030029,-55.860001,-59.43,1729430074317.0,0.0
-4.106083,-11.526227,-8.853443,-423.98999,-60.830002,-47.950001,1729430074330.0,0.0
-1.182054,-6.809973,-9.332008,-231.0,-45.57,-34.23,1729430074355.0,0.0
-2.579463,-4.910072,-9.954143,-124.25,-19.950001,-7.28,1729430074366.0,0.0
-2.459821,-1.868794,-12.344571,-136.009995,24.639999,-22.120001,1729430074391.0,0.0
-2.376073,-6.398407,-8.999406,-173.039993,20.860001,6.72,1729430074408.0,0.0
-3.108276,-7.853244,-5.98445,-186.270004,14.42,-5.18,1729430074427.0,0.0
-1.868794,-10.317852,-8.073383,-102.410004,7.14,-10.64,1729430074446.0,0.0
-1.639083,-7.405786,-8.066205,27.93,12.95,-5.25,1729430074467.0,0.0
-4.216154,-4.524827,-8.705089,91.699997,33.32,1.75,1729430074489.0,0.0
-5.123034,-6.379266,-8.496914,49.91,38.009998,5.6,1729430074507.0,0.0
-4.642076,-7.951349,-6.618547,37.939999,35.139999,9.17,1729430074527.0,0.0
-4.019942,-8.910872,-7.185646,133.210007,34.439999,18.690001,1729430074546.0,0.0
-4.742575,-9.107083,-6.67119,229.320007,36.119999,20.65,1729430074566.0,0.0
-5.4676,-7.585248,-1.67019,203.910004,31.219999,-3.22,1729430074587.0,0.0
-4.539185,-7.195218,-7.056434,166.669998,4.69,10.22,1729430074609.0,0.0
-3.917051,-11.155338,-8.480164,193.830002,4.9,-1.4,1729430074630.0,0.0
-4.486543,-11.562119,-6.553941,317.940002,0.7,10.92,1729430074648.0,0.0
-4.869394,-9.643075,-4.383651,457.23999,-2.24,10.85,1729430074667.0,0.0
-2.964707,-8.937192,-4.565506,511.0,0.91,7.35,1729430074688.0,0.0
-3.18724,-8.429914,-2.900101,468.369995,-12.18,17.08,1729430074708.0,0.0
-3.54377,-7.532606,-0.756132,393.190002,-17.08,-1.54,1729430074728.0,0.0
-2.366502,-6.393622,1.091127,295.610016,0.49,-31.15,1729430074747.0,0.0
-3.656233,-4.402793,2.646462,105.629997,-3.99,-34.720001,1729430074767.0,0.0
-2.39043,-4.048656,-0.899701,-128.029999,-34.02,-51.66,1729430074789.0,0.0
-2.364109,-5.108676,-2.991028,-239.470001,-21.98,-21.84,1729430074808.0,0.0
-0.844666,-2.945565,-3.012564,-245.630005,-19.950001,-37.799999,1729430074828.0,0.0
-2.021935,-7.135397,-2.938386,-240.869995,-44.799999,12.95,1729430074848.0,0.0
-0.337388,-5.120641,-8.4347,-286.019989,2.66,-18.27,1729430074868.0,0.0
-1.600798,-5.759524,-10.454242,-316.329987,20.58,5.32,1729430074889.0,0.0
-1.172483,-11.767902,-13.952549,-302.820007,-26.950001,-7.63,1729430074908.0,0.0
-0.835095,-16.302301,-8.29113,-214.759995,-54.599998,21.629999,1729430074928.0,0.0
-0.48335,-14.249258,-5.948557,-82.32,32.060001,44.380001,1729430074948.0,0.0
-2.215754,-10.616954,-3.156133,199.710007,62.720001,42.98,1729430074968.0,0.0
-6.965507,-8.324631,-0.057428,479.429993,38.150002,91.910004,1729430074990.0,0.0
-6.376873,-3.725625,-0.672383,631.679993,5.95,100.870003,1729430075008.0,0.0
-7.168896,0.023928,15.629916,649.950012,-5.18,122.989998,1729430075028.0,0.0
-7.910671,-2.964707,4.141976,465.429993,22.190001,73.360001,1729430075047.0,0.0
-9.310472,-9.339187,3.024528,184.800003,21.77,36.959999,1729430075071.0,0.0
-8.693125,-11.64826,6.238089,3.5,-28.42,29.4,1729430075090.0,0.0
-5.948557,-12.253645,3.321238,-7.91,-7.14,-20.02,1729430075108.0,0.0
-3.919443,-9.578469,4.412365,-7.7,-3.22,-34.93,1729430075128.0,0.0
-4.579862,-6.960721,6.668797,-57.75,-0.63,-14.28,1729430075147.0,0.0
-3.249453,-7.204789,2.59382,-115.360001,-19.460001,-13.51,1729430075167.0,0.0
-3.639483,-8.669197,1.4668,-161.630005,-22.190001,-19.809999,1729430075191.0,0.0
-4.41715,-9.229117,0.667598,-151.339996,-17.92,-12.53,1729430075209.0,0.0
-4.663611,-8.956335,0.18664,-101.57,-8.4,-10.15,1729430075227.0,0.0
-5.201996,-9.29133,0.086142,-49.07,-3.36,-1.05,1729430075247.0,0.0
-5.022535,-10.38485,0.189033,-17.57,5.74,-22.190001,1729430075267.0,0.0
-4.831109,-10.444671,-0.107677,-21.84,24.43,-27.23,1729430075288.0,0.0
-4.500899,-9.298509,0.787239,-62.299999,39.549999,-27.51,1729430075307.0,0.0
-4.548756,-8.116454,1.986043,-145.600006,26.389999,-23.309999,1729430075332.0,0.0
-3.125026,-7.444071,-0.138784,-253.119995,-0.91,-36.75,1729430075347.0,0.0
-3.029313,-6.135197,-0.4666,-389.549988,-15.33,-48.720001,1729430075369.0,0.0
-1.643869,-7.233503,-4.046263,-469.910004,-36.82,-64.120003,1729430075390.0,0.0
-1.318445,-6.821937,-8.128418,-498.679993,-35.349998,-55.93,1729430075407.0,0.0
-2.402394,-5.62074,-8.729016,-512.119995,-18.41,-56.0,1729430075429.0,0.0
-3.440879,-8.583055,-6.135197,-399.350006,-21.91,-35.77,1729430075447.0,0.0
-0.806381,-3.828516,-12.689137,-211.889999,-8.19,-17.99,1729430075466.0,0.0
-3.347559,-5.907879,-8.4012,-171.289993,27.09,5.04,1729430075488.0,0.0
-4.072584,-8.525627,-4.816752,-167.229996,29.120001,-16.24,1729430075507.0,0.0
-1.902294,-6.692725,-7.039684,-87.709999,4.9,-13.79,1729430075528.0,0.0
-2.182254,-4.689932,-6.709475,-21.700001,16.870001,-6.3,1729430075547.0,0.0
-3.684947,-3.440879,-8.13799,-3.57,15.4,10.92,1729430075566.0,0.0
-3.589234,-5.721239,-10.573883,-4.34,11.9,19.25,1729430075587.0,0.0
-3.613162,-6.946364,-10.4016,27.23,22.610001,20.440001,1729430075606.0,0.0
-4.453043,-8.063812,-8.26481,76.93,36.82,20.58,1729430075626.0,0.0
-4.575077,-8.370094,-8.106883,108.43,40.040001,19.460001,1729430075646.0,0.0
-4.065405,-9.432507,-7.759924,157.639999,37.939999,21.49,1729430075666.0,0.0
-3.534199,-7.640282,-4.345366,190.330002,37.240002,16.030001,1729430075687.0,0.0
-4.039084,-5.661418,-5.194818,165.830002,29.610001,18.129999,1729430075706.0,0.0
-3.160919,-10.114462,-7.757531,154.279999,19.389999,16.450001,1729430075726.0,0.0
-2.06022,-10.839487,-7.314859,208.320007,5.11,16.52,1729430075746.0,0.0
-1.76351,-10.387242,-7.250252,302.610016,-1.96,14.77,1729430075765.0,0.0
-1.741975,-5.9342,-6.13759,359.380005,-2.31,7.91,1729430075786.0,0.0
-3.256632,-8.652447,-4.682754,393.890015,-8.75,26.25,1729430075806.0,0.0
-1.947758,-5.85763,-5.118248,428.049988,-12.25,6.51,1729430075826.0,0.0
-3.562913,-10.348958,-2.952743,418.040009,5.04,31.219999,1729430075846.0,0.0
-2.476572,-7.066005,-3.218346,311.570007,7.49,-25.48,1729430075866.0,0.0
-3.488736,-7.9681,-0.646062,194.529999,13.440001,-19.530001,1729430075888.0,0.0
-3.847659,-7.37468,1.349552,51.170002,-4.69,-37.310001,1729430075909.0,0.0
-3.65384,-6.424729,2.124826,-33.529999,-29.889999,-25.76,1729430075928.0,0.0
-2.806781,-7.255038,2.919244,-37.869999,-38.920002,-23.450001,1729430075946.0,0.0
-1.447658,-8.817552,2.787638,-49.07,-27.23,-36.259998,1729430075968.0,0.0
-2.254039,-7.956135,2.900101,-69.230003,-21.77,-32.34,1729430075989.0,0.0
-2.462214,-8.226524,2.165504,-75.110001,-26.460001,-16.870001,1729430076007.0,0.0
-1.497907,-8.930015,0.973879,-107.870003,-22.469999,-22.120001,1729430076028.0,0.0
-1.160519,-8.659625,-1.837688,-180.949997,-26.32,-23.450001,1729430076048.0,0.0
-1.545763,-9.394222,-3.192025,-213.009995,-19.950001,-13.51,1729430076066.0,0.0
-1.409373,-6.632904,-4.07737,-208.529999,-18.41,-13.23,1729430076088.0,0.0
-2.261217,-7.188039,-3.548556,-185.009995,-9.66,7.91,1729430076107.0,0.0
-1.019342,-9.293723,-7.336394,-209.649994,-2.8,-10.99,1729430076127.0,0.0
-2.100898,-12.160326,-9.276974,-203.350006,-2.1,-12.53,1729430076147.0,0.0
-1.871187,-14.672788,-9.844072,-74.550003,1.05,-28.280001,1729430076167.0,0.0
-1.265803,-11.566904,-12.47857,56.490002,40.389999,-2.66,1729430076189.0,0.0
-1.818545,-9.286544,-5.759524,275.940002,55.439999,45.639999,1729430076208.0,0.0
-3.101098,-6.886543,0.023928,367.290009,37.869999,56.630001,1729430076227.0,0.0
-6.489335,-6.156733,8.930015,323.75,15.26,60.830002,1729430076246.0,0.0
-8.834301,-8.595018,17.022539,246.259995,-50.68,84.0,1729430076268.0,0.0
-4.974678,-5.316852,3.701697,104.860001,-28.84,31.780001,1729430076288.0,0.0
-3.639483,-8.109276,-1.679761,-27.440001,31.710001,-24.639999,1729430076308.0,0.0
-5.347959,-10.743774,-0.921237,-123.480003,9.24,16.030001,1729430076331.0,0.0
-4.505685,-13.198811,-1.706082,-51.170002,49.91,1.05,1729430076346.0,0.0
-3.9673,-9.966106,1.4668,43.959999,71.470001,-8.47,1729430076367.0,0.0
-1.411765,-7.958528,1.289732,29.610001,62.16,-24.08,1729430076395.0,0.0
-1.471586,-7.077969,1.813759,-98.769997,55.93,-29.540001,1729430076410.0,0.0
-0.691526,-10.04507,2.502892,-152.529999,4.62,-26.110001,1729430076429.0,0.0
0.035892,-10.423136,2.347359,-117.739998,-7.84,-12.04,1729430076449.0,0.0
-1.852045,-11.763116,0.768096,-49.77,-8.54,-28.0,1729430076468.0,0.0
-1.471586,-9.501899,1.325624,-7.49,-17.85,-27.16,1729430076488.0,0.0
-0.794417,-8.008778,1.512264,-22.82,-16.66,-24.710001,1729430076508.0,0.0
-1.383051,-6.898508,1.868794,-70.07,-20.58,-19.040001,1729430076528.0,0.0
-1.442872,-5.663811,1.801795,-99.400002,-48.369999,-14.49,1729430076547.0,0.0
-1.356731,-6.905686,0.059821,-95.900002,-62.16,-4.34,1729430076569.0,0.0
-0.401994,-7.302894,-3.122634,-57.260002,-80.779999,18.41,1729430076588.0,0.0
-3.034099,-9.181261,-2.514857,-46.200001,-62.02,21.98,1729430076608.0,0.0
-5.668597,-8.559127,-5.410172,-121.520004,-50.75,13.440001,1729430076630.0,0.0
-6.04427,-6.017949,-12.533605,-210.139999,-53.200001,3.71,1729430076649.0,0.0
-6.553941,-6.168696,-12.926028,-215.949997,-15.190001,4.27,1729430076667.0,0.0
-7.788638,-7.269395,-8.882158,-173.110001,9.45,14.7,1729430076691.0,0.0
-5.807381,-10.884951,-10.765309,-110.739998,16.309999,9.66,1729430076710.0,0.0
-5.515456,-9.844072,-10.080962,-60.970001,60.619999,-2.94,1729430076730.0,0.0
-4.309474,-7.312466,-1.339981,26.950001,94.43,13.09,1729430076750.0,0.0
-1.112662,-7.477571,-4.783253,-6.09,91.419998,10.01,1729430076769.0,0.0
1.536192,-10.540384,-7.558927,-100.099998,95.550003,3.43,1729430076791.0,0.0
2.665605,-11.327622,3.625126,-52.150002,87.779999,30.17,1729430076811.0,0.0
2.562713,-12.303895,5.831308,63.560001,57.049999,16.73,1729430076831.0,0.0
-0.581456,-9.580862,3.852444,76.160004,11.55,-2.66,1729430076850.0,0.0
-2.376073,-7.838887,3.404987,5.74,-34.650002,-14.07,1729430076869.0,0.0
0.20339,-9.193225,-0.090927,-36.330002,-94.290001,-0.35,1729430076892.0,0.0
-1.493121,-8.944371,-2.333002,-18.129999,-123.270004,-1.96,1729430076910.0,0.0
-2.277967,-6.774081,-8.051848,41.439999,-140.419998,11.83,1729430076929.0,0.0
-6.472585,-8.79123,-12.586248,43.610001,-112.910004,36.259998,1729430076949.0,0.0
-10.872985,-5.587241,-15.249458,-115.360001,-34.16,1.54,1729430076971.0,0.0
-9.442079,-8.338986,-14.536398,-67.690002,-34.509998,21.91,1729430076993.0,0.0
-7.922636,-3.562913,-10.872985,-17.360001,10.29,8.26,1729430077011.0,0.0
-5.087141,-6.498906,-6.455836,31.780001,30.450001,11.41,1729430077029.0,0.0
-4.302295,-8.901299,-5.053641,4.69,40.040001,2.59,1729430077049.0,0.0
-2.151148,-5.209175,-4.500899,44.099998,51.52,6.02,1729430077070.0,0.0
-3.223132,-5.225924,-6.38405,-54.529999,72.800003,2.38,1729430077093.0,0.0
-1.318445,-12.162716,-5.800202,-140.979996,62.790001,2.8,1729430077113.0,0.0
-0.023928,-11.23191,0.122034,-75.529999,41.720001,12.95,1729430077130.0,0.0
-1.251446,-10.526026,-2.416751,46.48,36.400002,-8.54,1729430077148.0,0.0
-2.029114,-10.447062,-5.938986,107.449997,27.440001,-17.85,1729430077172.0,0.0
-1.225125,-11.140982,-7.45125,167.020004,19.950001,-8.33,1729430077202.0,0.0
-0.378066,-10.849058,-7.566105,267.470001,20.299999,-7.63,1729430077210.0,0.0
-0.270389,-7.970492,-5.644669,406.070007,22.4,5.74,1729430077229.0,0.0
-1.706082,-5.529813,-1.409373,510.440002,19.110001,20.790001,1729430077250.0,0.0
-3.055635,-5.146961,1.947758,497.700012,28.42,5.67,1729430077271.0,0.0
-3.34038,-6.168696,2.251646,358.959991,27.440001,6.51,1729430077292.0,0.0
-2.160719,-7.496714,2.07697,138.600006,1.33,5.46,1729430077310.0,0.0
-2.342573,-8.482556,1.268196,-86.029999,-9.45,8.61,1729430077332.0,0.0
-2.70389,-8.336594,-0.241675,-238.910004,-4.48,-1.05,1729430077349.0,0.0
-3.022135,-8.039884,-1.227518,-306.670013,6.58,-0.49,1729430077368.0,0.0
-2.806781,-9.339187,-4.45065,-329.209991,9.66,-1.19,1729430077392.0,0.0
-6.809973,-13.875979,2.555535,-288.959991,12.6,-4.41,1729430077410.0,0.0
-2.660819,-11.904292,1.071985,-45.43,-56.630001,26.74,1729430077429.0,0.0
0.260818,-4.831109,0.79681,-15.190001,-38.290001,2.66,1729430077450.0,0.0
-2.203789,-4.412365,-0.09332,-136.779999,-10.5,1.82,1729430077469.0,0.0
-2.89053,-6.843473,-6.259624,-276.779999,-31.43,-4.69,1729430077489.0,0.0
0.129212,-5.87438,-8.207381,-215.389999,-19.67,32.48,1729430077509.0,0.0
-1.591227,-11.203196,-10.782058,-22.26,-51.240002,70.559998,1729430077529.0,0.0
-3.17049,-14.165509,-11.609976,175.699997,-36.470001,68.32,1729430077551.0,0.0
-2.423929,-7.9011,-6.4678,326.339996,81.129997,76.790001,1729430077570.0,0.0
-3.069991,-7.71446,-0.653241,459.899994,90.720001,61.25,1729430077591.0,0.0
-4.481757,-6.740582,-2.189433,463.610016,42.0,79.029999,1729430077609.0,0.0
-6.599405,-5.570491,3.034099,424.829987,17.290001,80.779999,1729430077630.0,0.0
-7.365108,-5.271388,3.900301,377.440002,-34.02,83.370003,1729430077650.0,0.0
-7.322037,-4.962714,6.26441,287.910004,-23.030001,51.66,1729430077668.0,0.0
-8.386844,-6.242875,8.662018,184.800003,-21.0,39.200001,1729430077690.0,0.0
-9.645468,-7.183254,7.982457,131.740005,-31.99,32.900002,1729430077709.0,0.0
-9.767502,-7.590034,6.726225,77.699997,-21.49,18.129999,1729430077730.0,0.0
-8.097312,-6.250053,4.443472,-22.68,-20.02,6.65,1729430077750.0,0.0
-5.996413,-6.331409,4.957928,-54.880001,-48.439999,8.54,1729430077770.0,0.0
-5.17089,-7.597212,4.070191,-104.300003,-43.75,5.95,1729430077790.0,0.0
-4.608576,-9.640682,1.832902,-156.309998,-49.0,7.0,1729430077809.0,0.0
-3.369094,-7.953743,1.026521,-210.770004,-45.849998,2.94,1729430077829.0,0.0
-2.98385,-7.482357,-1.674976,-258.579987,-26.6,-2.59,1729430077849.0,0.0
-3.474378,-8.310273,-2.471786,-293.720001,-13.16,-30.450001,1729430077867.0,0.0
-4.589434,-7.853244,-2.09372,-304.290009,-6.72,-21.700001,1729430077890.0,0.0
-5.17089,-4.09412,2.562713,-319.200012,-10.22,-33.389999,1729430077974.0,0.0
-4.651647,-2.902494,-5.486742,-431.549988,-13.09,-56.630001,1729430077974.0,0.0
-5.304887,-4.309474,-9.619147,-564.200012,-10.57,-66.290001,1729430077975.0,0.0
-4.383651,-5.582455,-12.181859,-592.900024,-25.41,-45.57,1729430077975.0,0.0
-3.37388,-8.456236,-8.489735,-496.089996,-23.799999,-28.49,1729430077993.0,0.0
-3.345166,-13.122239,-10.260423,-317.100006,-26.110001,-14.07,1729430078009.0,0.0
-2.0004,-8.219346,-8.635696,-115.57,28.84,-33.32,1729430078028.0,0.0
-0.136391,-8.312666,-6.89133,-39.27,9.1,-12.11,1729430078048.0,0.0
1.395016,-4.457829,-6.987042,-49.98,26.67,-14.21,1729430078068.0,0.0
-1.136591,-4.089334,-7.54457,-13.02,39.27,6.23,1729430078089.0,0.0
-2.854637,-6.331409,-8.666803,-34.509998,52.360001,5.67,1729430078109.0,0.0
-3.400201,-7.67139,-9.903893,-59.43,49.279999,6.93,1729430078129.0,0.0
-3.486342,-6.321837,-10.272388,-29.120001,58.170002,8.05,1729430078148.0,0.0
-5.036892,-8.114061,-11.133803,25.690001,68.879997,19.040001,1729430078168.0,0.0
-6.254838,-8.293523,0.430708,101.57,68.459999,16.870001,1729430078189.0,0.0
-4.354938,-3.940979,-4.479364,76.440002,37.73,5.88,1729430078208.0,0.0
-2.95035,-7.439285,-7.776673,14.42,32.34,8.89,1729430078229.0,0.0
-2.957529,-10.346564,-6.343372,73.150002,30.59,18.969999,1729430078248.0,0.0
-2.641676,-7.487142,-4.161119,171.919998,24.219999,19.040001,1729430078268.0,0.0
-3.237489,-6.245267,-3.912265,196.770004,10.92,14.77,1729430078289.0,0.0
-4.192225,-7.15454,-3.811767,133.070007,-6.3,3.78,1729430078309.0,0.0
-3.663411,-9.365508,-4.603791,118.160004,-24.57,15.61,1729430078332.0,0.0
-3.574877,-9.236296,-4.945964,175.699997,-29.26,21.98,1729430078348.0,0.0
-5.28096,-6.668797,-5.548956,252.770004,-21.07,24.710001,1729430078368.0,0.0
-5.919843,-9.975677,-6.695118,345.029999,-19.18,31.219999,1729430078389.0,0.0
-3.218346,-12.282358,-8.523234,474.25,-15.47,42.420002,1729430078408.0,0.0
-3.385844,-6.953543,-4.072584,547.26001,7.35,56.349998,1729430078435.0,0.0
-5.003392,-6.585048,-1.007378,483.420013,35.84,30.73,1729430078448.0,0.0
-6.750153,-8.456236,3.586841,349.51001,43.330002,-5.18,1729430078470.0,0.0
-4.733003,-8.597411,2.964707,274.890015,-30.799999,-19.389999,1729430078492.0,0.0
-4.54397,-10.954341,5.726025,307.369995,-58.939999,-17.219999,1729430078508.0,0.0
-1.246661,-8.85823,2.529213,397.809998,-65.519997,-81.830002,1729430078531.0,0.0
-0.87338,-4.969893,2.208575,497.070007,29.120001,-63.420002,1729430078549.0,0.0
-3.866802,-0.531207,6.683154,461.929993,85.75,-12.53,1729430078570.0,0.0
-6.405586,1.538585,10.334601,277.619995,45.150002,13.79,1729430078591.0,0.0
-5.678168,0.308674,10.585848,24.360001,-21.77,-8.89,1729430078611.0,0.0
-3.311667,-3.969693,8.571091,-146.020004,-61.950001,-27.790001,1729430078631.0,0.0
-2.28036,-8.255238,6.905686,-174.089996,-62.650002,-39.34,1729430078648.0,0.0
-2.160719,-10.951948,6.393622,-98.349998,-59.709999,-45.080002,1729430078671.0,0.0
-2.538785,-8.748159,5.606383,6.51,-43.82,-32.689999,1729430078690.0,0.0
-3.708875,-5.812167,6.317052,81.760002,-22.469999,-35.279999,1729430078709.0,0.0
-2.54357,-2.464607,8.73141,159.389999,-43.610001,-27.440001,1729430078732.0,0.0
0.007178,0.61017,10.920842,122.779999,-36.049999,-28.210001,1729430078749.0,0.0
-2.06022,-1.095913,6.108876,-9.45,-0.98,-14.21,1729430078770.0,0.0
-1.328017,-4.366901,5.261817,-88.690002,-28.630001,-10.15,1729430078792.0,0.0
-1.677369,-5.91745,5.742774,-106.050003,-25.83,-9.87,1729430078809.0,0.0
-2.677568,-5.517848,6.159126,-63.77,-1.26,9.8,1729430078829.0,0.0
-3.436093,-4.027121,7.944171,-49.630001,23.17,23.309999,1729430078851.0,0.0
-3.627519,-3.711268,6.766902,-110.669998,8.96,24.780001,1729430078871.0,0.0
-4.347759,-6.15434,7.817351,-141.820007,-28.42,35.490002,1729430078891.0,0.0
-4.527221,-7.9346,8.116454,-108.639999,-47.599998,37.380001,1729430078911.0,0.0
-3.955336,-6.649654,7.692925,-57.189999,-21.559999,24.5,1729430078929.0,0.0
-4.955536,-6.12084,8.906086,-47.529999,-17.710001,26.32,1729430078951.0,0.0
-2.900101,-5.766702,8.573483,-81.480003,-43.400002,21.139999,1729430078971.0,0.0
-1.318445,-6.85783,3.900301,-124.110001,-30.24,25.200001,1729430078992.0,0.0
1.088734,-9.611969,1.225125,-158.759995,-35.07,16.73,1729430079011.0,0.0
2.435893,-12.452249,0.552742,-123.199997,-33.670002,25.76,1729430079031.0,0.0
1.545763,-11.514263,3.924229,-39.970001,9.73,24.290001,1729430079051.0,0.0
-0.069392,-8.666803,6.300302,51.170002,42.490002,26.389999,1729430079070.0,0.0
-1.119841,-7.941778,4.003192,41.299999,70.699997,-22.190001,1729430079092.0,0.0
-0.574277,-7.855636,3.725625,-50.119999,63.630001,-22.68,1729430079111.0,0.0
-0.476172,-8.073383,3.208775,-120.260002,53.34,-9.59,1729430079131.0,0.0
-0.409173,-7.269395,2.825923,-125.160004,64.68,1.68,1729430079154.0,0.0
-1.404587,-5.752346,-5.096712,-102.830002,77.279999,23.52,1729430079170.0,0.0
-0.87338,-7.405786,11.557333,74.480003,-72.940002,-10.64,1729430079202.0,0.0
-2.330609,3.596412,12.658032,209.649994,34.369999,141.050003,1729430079212.0,0.0
-2.835495,4.469792,9.06162,77.139999,113.190002,5.25,1729430079232.0,0.0
-6.149554,-1.864009,4.242475,-171.149994,-41.369999,97.580002,1729430079252.0,0.0
-5.228317,-9.336794,3.744767,-277.970001,-59.010002,111.93,1729430079270.0,0.0
-8.085347,-12.385249,3.448057,-214.270004,-42.84,113.400002,1729430079292.0,0.0
-9.32483,-9.382257,1.672583,-134.889999,-13.16,86.449997,1729430079311.0,0.0
-9.360723,-12.878171,-5.548956,-134.399994,15.61,60.689999,1729430079333.0,0.0
-9.370294,-14.957534,-4.9675,-107.870003,41.790001,-10.57,1729430079352.0,0.0
-8.707481,-13.897513,0.155533,-10.29,36.330002,-35.560001,1729430079370.0,0.0
-6.13759,-11.059627,3.055635,93.449997,26.67,-47.389999,1729430079391.0,0.0
-4.792823,-8.025528,4.615755,118.93,52.990002,-81.199997,1729430079410.0,0.0
-3.661019,-6.606583,-2.050649,7.63,61.599998,-102.269997,1729430079431.0,0.0
-2.813959,-5.216353,1.631905,-81.410004,54.32,-82.949997,1729430079452.0,0.0
0.267996,-2.395216,11.251052,-62.02,13.37,-35.700001,1729430079470.0,0.0
2.443072,-0.995414,10.951948,-12.88,3.85,1.96,1729430079492.0,0.0
-0.770489,-3.907479,8.114061,-36.189999,-18.76,11.97,1729430079511.0,0.0
-2.323431,-7.15454,3.213561,-103.599998,-47.459999,39.830002,1729430079531.0,0.0
-1.801795,-8.740981,0.705883,-121.099998,-44.799999,53.060001,1729430079552.0,0.0
-3.208775,-10.289137,-1.26341,-99.050003,-48.23,63.490002,1729430079572.0,0.0
-5.922236,-11.866007,-2.510071,-71.959999,-32.689999,54.880001,1729430079591.0,0.0
-8.054241,-12.473784,-6.108876,-67.199997,-20.370001,40.670002,1729430079611.0,0.0
-9.296116,-14.857035,-7.776673,-64.75,16.799999,3.5,1729430079630.0,0.0
-9.375079,-15.491134,-5.393422,-42.349998,34.09,-33.599998,1729430079651.0,0.0
-5.197211,-10.372886,3.352344,80.57,27.299999,-45.43,1729430079670.0,0.0
-4.383651,-5.587241,3.952943,119.840004,66.43,-80.989998,1729430079691.0,0.0
-4.73061,-4.759324,0.524028,-14.98,66.010002,-90.580002,1729430079710.0,0.0
-3.45045,-6.89133,1.567299,-109.480003,15.96,-65.519997,1729430079732.0,0.0
-1.0002,-7.817351,4.31426,-51.240002,2.38,-24.710001,1729430079752.0,0.0
-0.287139,-5.749953,4.515256,23.309999,20.93,-42.209999,1729430079769.0,0.0
-0.868595,-3.866802,5.558527,18.620001,1.4,-11.34,1729430079802.0,0.0
-1.208375,-5.510671,3.89073,-19.040001,-24.5,29.4,1729430079811.0,0.0
-2.426322,-8.391629,2.151148,-15.190001,-30.380001,47.740002,1729430079831.0,0.0
-2.419144,-7.91785,0.677169,-13.37,-24.85,43.75,1729430079849.0,0.0
-3.419343,-8.666803,-1.366302,-11.13,-33.32,53.970001,1729430079870.0,0.0
-3.940979,-9.489935,-1.627119,-2.87,-35.420002,47.110001,1729430079892.0,0.0
-4.496114,-6.860222,-3.986443,-3.43,-39.549999,47.389999,1729430079909.0,0.0
-3.065206,-8.130811,-2.349752,36.540001,-18.41,60.900002,1729430079932.0,0.0
-5.65424,-9.920642,8.003991,34.23,-14.07,58.73,1729430079950.0,0.0
-6.874579,-5.821737,2.502892,-52.639999,-16.379999,25.620001,1729430079969.0,0.0
-5.931807,-6.45105,2.167897,-99.540001,-20.23,39.970001,1729430079992.0,0.0
-5.647062,-6.9679,-1.897508,-132.930008,-35.560001,46.759998,1729430080010.0,0.0
-7.362715,-11.607583,-1.318445,-72.029999,0.7,47.670002,1729430080031.0,0.0
-6.843473,-12.612568,-5.704489,5.25,26.880001,30.17,1729430080049.0,0.0
-7.034898,-15.524633,-3.89073,101.5,16.030001,41.23,1729430080072.0,0.0
-4.419543,-11.801401,-3.878766,150.710007,-7.35,28.42,1729430080091.0,0.0
-3.735196,-10.487741,-0.914058,219.520004,6.65,33.880001,1729430080109.0,0.0
-4.606184,-10.645668,-0.430708,278.179993,29.120001,29.889999,1729430080130.0,0.0
-5.24746,-10.112068,1.612763,305.690002,41.16,7.77,1729430080149.0,0.0
-5.989235,-9.980463,3.672983,289.940002,22.540001,-12.53,1729430080170.0,0.0
-6.496514,-10.951948,4.953143,244.580002,-4.9,-37.310001,1729430080190.0,0.0
-5.910272,-11.406586,4.9675,225.399994,-24.01,-61.880001,1729430080209.0,0.0
-5.793024,-10.389636,6.479764,244.089996,-24.639999,-78.330002,1729430080230.0,0.0
-6.855437,-11.172089,6.087341,285.880005,-29.33,-101.010002,1729430080249.0,0.0
-6.072984,-10.861022,3.620341,363.860016,-46.689999,-138.460007,1729430080271.0,0.0
-6.886543,-8.30788,3.022135,478.029999,-16.59,-141.889999,1729430080293.0,0.0
-5.285746,-0.916451,3.388237,589.190002,-14.91,-146.020004,1729430080309.0,0.0
-7.034898,4.955536,1.083949,569.52002,31.710001,-87.709999,1729430080333.0,0.0
-9.47797,5.737988,6.13759,140.070007,-16.870001,17.710001,1729430080351.0,0.0
-3.491128,2.043471,5.35753,-40.529999,-92.82,-59.990002,1729430080370.0,0.0
-0.358923,2.742175,5.704489,-5.25,-27.790001,-27.51,1729430080391.0,0.0
-0.681954,3.550949,8.365308,57.82,25.27,-12.11,1729430080410.0,0.0
-1.526621,0.930808,8.269595,-14.0,15.96,-7.56,1729430080429.0,0.0
-1.777867,-0.512064,8.315059,-49.98,21.42,11.2,1729430080451.0,0.0
-3.584448,-2.995814,7.834101,-34.09,29.4,19.950001,1729430080470.0,0.0
-4.474578,-3.120241,9.585647,12.81,6.44,27.370001,1729430080492.0,0.0
-6.357729,-3.84048,11.992826,72.099998,11.62,12.88,1729430080510.0,0.0
-7.905886,-7.590034,12.191431,68.459999,-19.32,-17.15,1729430080530.0,0.0
-4.993821,-4.35733,12.543176,104.790001,-30.030001,-41.860001,1729430080549.0,0.0
-5.522634,0.148355,12.626925,141.680008,-21.0,-51.59,1729430080569.0,0.0
-6.826723,0.602991,9.616754,69.090004,-53.830002,-63.77,1729430080597.0,0.0
-2.522035,2.426322,6.886543,26.74,-55.09,-55.299999,1729430080610.0,0.0
-1.12702,5.010571,8.303094,12.53,-30.450001,-42.91,1729430080632.0,0.0
-1.409373,3.069991,5.702096,-39.27,-44.939999,-30.450001,1729430080651.0,0.0
0.117248,3.349952,3.658626,-26.74,-4.97,4.69,1729430080670.0,0.0
-2.294717,0.409173,4.723432,-7.7,18.41,8.54,1729430080694.0,0.0
-3.28056,0.277567,5.458029,10.01,41.580002,12.6,1729430080712.0,0.0
-3.584448,2.029114,7.913064,29.4,66.220001,32.48,1729430080729.0,0.0
-6.903293,-1.820938,9.973285,18.76,53.549999,29.889999,1729430080751.0,0.0
-8.937192,-6.927221,13.196418,17.43,19.110001,17.290001,1729430080772.0,0.0
-8.13799,-5.886343,14.024333,42.700001,3.36,-24.639999,1729430080791.0,0.0
-5.472386,-0.677169,13.095919,45.709999,-2.17,-30.52,1729430080810.0,0.0
-3.95055,-0.985843,12.416357,7.14,-28.42,-56.279999,1729430080833.0,0.0
-3.54377,-0.083749,10.102496,-24.780001,-47.18,-60.34,1729430080852.0,0.0
-3.737589,1.055235,9.279366,-26.6,-42.91,-48.16,1729430080871.0,0.0
-2.244468,1.859223,7.250252,-49.84,-56.84,-45.43,1729430080892.0,0.0
0.265603,4.266403,5.529813,-40.950001,-45.920002,-32.900002,1729430080910.0,0.0
0.528814,5.860023,3.84048,-28.0,-14.42,1.19,1729430080933.0,0.0
-1.804188,4.197011,5.893522,-31.5,8.26,20.93,1729430080952.0,0.0
-3.117848,1.495514,6.149554,-34.650002,21.210001,21.07,1729430080972.0,0.0
-4.311867,-0.050249,10.133603,-6.3,43.470001,46.970001,1729430080991.0,0.0
-7.372287,-4.728218,12.636496,23.52,18.48,28.91,1729430081012.0,0.0
-7.580462,-4.752146,9.79143,34.369999,6.16,8.33,1729430081032.0,0.0
-4.596612,-2.947958,11.176874,38.290001,12.11,-15.89,1729430081051.0,0.0
-3.292524,-0.351745,12.385249,24.360001,10.29,-20.719999,1729430081071.0,0.0
-4.460221,0.433101,11.952149,-15.61,-4.97,-25.969999,1729430081094.0,0.0
-4.151547,-0.100499,8.094919,-70.0,-32.41,-19.6,1729430081111.0,0.0
-2.658426,2.416751,6.597012,-76.720001,-28.49,-3.64,1729430081132.0,0.0
-2.443072,3.414558,7.317252,-72.940002,-7.0,11.83,1729430081151.0,0.0
-2.67039,3.739982,8.094919,-132.160004,0.42,23.940001,1729430081172.0,0.0
-3.845266,1.086342,8.26481,-214.270004,1.61,40.459999,1729430081193.0,0.0
-4.134798,-1.555335,6.76451,-275.309998,-11.69,43.959999,1729430081213.0,0.0
-3.866802,-2.323431,5.474778,-277.619995,-15.61,53.34,1729430081232.0,0.0
-4.144369,-2.938386,6.996613,-243.949997,2.45,66.290001,1729430081253.0,0.0
-3.378666,-5.015356,9.513863,-228.059998,-19.040001,67.340004,1729430081273.0,0.0
-2.904887,-5.350351,8.693125,-247.029999,-33.110001,69.019997,1729430081292.0,0.0
-3.036492,-7.161718,7.386643,-289.519989,-32.41,51.170002,1729430081316.0,0.0
-2.481357,-7.877172,5.039285,-356.929993,-38.009998,38.5,1729430081334.0,0.0
-2.074577,-9.245867,5.151747,-424.480011,-41.09,25.059999,1729430081351.0,0.0
-2.988636,-10.530812,3.237489,-473.619995,-50.610001,2.66,1729430081372.0,0.0
-2.548356,-9.946963,-1.804188,-453.320007,-56.420002,-18.41,1729430081394.0,0.0
-1.51705,-7.410572,-2.098505,-402.920013,-31.360001,-34.09,1729430081413.0,0.0
-1.990828,-9.243474,-1.57687,-373.799988,3.22,-47.25,1729430081432.0,0.0
-3.022135,-7.386643,-2.679961,-398.579987,9.31,-52.639999,1729430081452.0,0.0
-2.675175,-7.793423,-5.388636,-374.5,-14.56,-55.93,1729430081471.0,0.0
-3.196811,-7.202396,-1.287339,-408.940002,-27.790001,-52.779999,1729430081494.0,0.0
-1.835295,-9.482756,-6.113662,-444.98999,-55.23,-51.310001,1729430081512.0,0.0
-2.160719,-9.51147,-6.376873,-361.619995,-61.529999,-25.620001,1729430081533.0,0.0
-2.081756,-8.042276,-7.281359,-249.270004,-38.57,-46.830002,1729430081552.0,0.0
-2.400001,-5.601598,-8.580662,-128.520004,-36.82,-17.92,1729430081572.0,0.0
-3.869194,-1.847259,-8.16431,-136.360001,-14.49,-14.49,1729430081595.0,0.0
-3.189633,-6.041877,-9.425328,-235.970001,-14.98,4.27,1729430081612.0,0.0
-2.438286,-7.49432,-10.758131,-202.440002,-3.78,3.57,1729430081632.0,0.0
-0.981057,-7.597212,-8.750552,-123.480003,9.17,3.08,1729430081651.0,0.0
-1.586441,-5.663811,-8.796017,-23.1,20.860001,8.4,1729430081671.0,0.0
-2.828316,-2.699104,-9.004191,22.610001,30.52,21.559999,1729430081692.0,0.0
-3.220739,-3.471986,-8.721838,-3.5,31.15,38.779999,1729430081711.0,0.0
-4.61097,-8.482556,-6.326623,-10.57,34.93,47.670002,1729430081733.0,0.0
-5.553742,-9.662218,-6.087341,19.460001,26.25,37.59,1729430081751.0,0.0
-2.974278,-12.239288,-10.51167,117.389999,23.66,31.780001,1729430081773.0,0.0
-1.667797,-8.91805,-6.376873,179.479996,24.92,31.290001,1729430081793.0,0.0
-1.024128,-5.405386,-4.386044,161.839996,17.99,18.9,1729430081811.0,0.0
-1.26341,-7.329216,-5.704489,151.410004,-3.43,27.23,1729430081832.0,0.0
-1.5003,-8.379664,-6.525227,258.230011,-22.120001,42.07,1729430081851.0,0.0
-2.794817,-8.092526,-6.192625,353.709991,-16.1,32.48,1729430081873.0,0.0
-5.402994,-7.554141,-2.773281,307.089996,-11.48,17.780001,1729430081894.0,0.0
-4.76411,-10.624132,-4.795217,264.110016,-48.509998,20.299999,1729430081911.0,0.0
-2.644069,-13.49552,-7.195218,306.390015,-61.670002,19.74,1729430081931.0,0.0
-3.304488,-13.421343,-5.802595,357.700012,-9.1,-9.31,1729430081952.0,0.0
-3.768696,-6.76451,-6.989435,326.549988,7.07,1.61,1729430081971.0,0.0
-3.785445,-8.539984,-0.129212,301.559998,15.190001,-9.31,1729430081993.0,0.0
-3.572484,-2.859423,2.309074,152.949997,-30.73,-16.450001,1729430082012.0,0.0
-1.947758,-2.476572,1.28016,-36.330002,-20.16,-34.860001,1729430082032.0,0.0
-2.414358,-6.386444,-0.693919,-192.5,-7.35,-36.049999,1729430082052.0,0.0
-1.454836,-9.049655,-2.017149,-238.910004,-22.82,-36.470001,1729430082071.0,0.0
-1.825724,-6.484549,-2.136791,-197.399994,-41.650002,-14.49,1729430082093.0,0.0
-1.098306,-7.467999,-1.954936,-132.509995,-55.299999,-0.49,1729430082111.0,0.0
0.366102,-7.73121,-9.60479,-187.110001,-24.780001,-24.780001,1729430082131.0,0.0
-0.930808,-3.046063,-13.785051,-236.460007,23.450001,-6.37,1729430082152.0,0.0
-1.988436,-7.685746,-10.392029,-247.029999,-6.23,16.59,1729430082170.0,0.0
-0.440279,-4.548756,-13.502698,-306.809998,-14.7,2.24,1729430082191.0,0.0
-1.146162,-19.190437,-4.82393,-320.529999,-32.48,14.07,1729430082213.0,0.0
0.394816,-17.764317,-1.892723,-331.940002,-26.880001,-35.91,1729430082231.0,0.0
-0.002393,-13.160524,-5.015356,-5.95,6.16,34.23,1729430082252.0,0.0
-2.148755,-7.578069,-6.644868,302.820007,32.060001,33.950001,1729430082272.0,0.0
-6.293124,-5.233103,-1.18684,406.839996,124.949997,22.26,1729430082292.0,0.0
-8.329416,-5.977271,-1.349552,306.390015,71.260002,69.790001,1729430082311.0,0.0
-4.989035,-7.223931,-0.607777,210.770004,-56.420002,62.720001,1729430082336.0,0.0
-4.122833,-6.63769,1.194018,249.970001,-89.040001,86.940002,1729430082352.0,0.0
-2.895315,-6.656832,1.268196,420.0,-74.690002,91.0,1729430082372.0,0.0
-6.130411,-10.839487,-0.339781,493.570007,51.52,26.32,1729430082394.0,0.0
-10.731809,-10.583455,2.947958,315.980011,94.639999,-3.64,1729430082411.0,0.0
-9.535398,-10.365707,5.089533,108.779999,5.25,-11.34,1729430082431.0,0.0
-5.012963,-10.683953,2.294717,-46.619999,-30.73,-41.720001,1729430082451.0,0.0
-2.251646,-8.683553,1.11027,-76.720001,-17.290001,-48.580002,1729430082472.0,0.0
-2.435893,-7.599605,2.557927,-18.76,7.7,-40.459999,1729430082492.0,0.0
-3.835695,-9.135797,2.962314,16.309999,17.710001,-39.060001,1729430082511.0,0.0
-3.787838,-9.425328,2.782853,11.76,1.89,-34.580002,1729430082533.0,0.0
-3.091527,-9.066404,1.942972,-7.7,2.1,-39.759998,1729430082552.0,0.0
-2.931208,-9.657433,3.366701,-53.760002,3.22,-35.279999,1729430082571.0,0.0
-2.041078,-10.277173,3.4672,-91.769997,-15.61,-34.509998,1729430082592.0,0.0
-1.304088,-11.55494,3.802195,-145.039993,-21.629999,-44.52,1729430082611.0,0.0
-0.667598,-9.932607,1.299303,-219.169998,-22.540001,-55.650002,1729430082639.0,0.0
-0.413958,-9.851252,0.01675,-277.829987,-27.790001,-58.66,1729430082650.0,0.0
-0.215354,-8.647661,-1.024128,-289.869995,-29.75,-56.209999,1729430082670.0,0.0
-1.282553,-8.13799,-2.127219,-228.970001,-15.47,-41.860001,1729430082694.0,0.0
-2.038685,-7.429714,-1.050449,-119.349998,1.61,-29.610001,1729430082713.0,0.0
-4.022335,-7.159326,4.051049,-49.139999,14.0,-19.879999,1729430082733.0,0.0
-5.623133,-5.393422,0.531207,-94.43,0.35,-28.07,1729430082751.0,0.0
-3.56052,-4.125226,-3.361916,-157.220001,-43.259998,-3.99,1729430082773.0,0.0
-2.715853,-7.539784,-5.668597,-132.160004,-65.169998,36.119999,1729430082802.0,0.0
-3.215954,-9.073583,-6.742974,-50.400002,-45.57,32.41,1729430082813.0,0.0
-3.495914,-7.67139,-6.139983,17.85,-24.15,27.51,1729430082832.0,0.0
-3.273381,-6.312266,-4.457829,-7.63,-39.970001,26.18,1729430082852.0,0.0
-3.445665,-7.666604,-5.089533,-108.43,-58.939999,22.190001,1729430082871.0,0.0
-3.335595,-6.850651,-6.197411,-196.490005,-44.66,-4.97,1729430082896.0,0.0
-2.368894,-5.783452,-6.159126,-244.649994,-47.25,1.68,1729430082964.0,0.0
-1.311267,-7.092326,-9.329616,-240.660004,-41.16,8.12,1729430082964.0,0.0
-1.028914,-7.168896,-10.121639,-230.089996,-28.07,7.21,1729430082965.0,0.0
-1.782653,-9.133404,-9.138189,-182.419998,-28.700001,17.08,1729430082974.0,0.0
-1.65344,-7.037291,-7.633104,-54.25,-18.549999,15.47,1729430082999.0,0.0
-2.761317,-3.60359,-9.054441,-12.6,-0.63,16.450001,1729430083016.0,0.0
-3.914658,-2.85703,-8.721838,-87.080002,3.92,21.0,1729430083032.0,0.0
-3.663411,-5.314459,-7.664211,-176.75,-4.62,16.1,1729430083059.0,0.0
-2.443072,-8.721838,-10.454242,-200.270004,-11.9,6.72,1729430083077.0,0.0
-1.990828,-9.12144,-10.813165,-112.840004,-5.95,-0.56,1729430083091.0,0.0
-2.78046,-4.431508,-10.760524,17.01,10.5,3.64,1729430083118.0,0.0
-4.206582,-3.996014,-10.849058,59.360001,31.85,8.12,1729430083190.0,0.0
-3.974478,-3.998406,-9.308081,32.970001,37.52,4.97,1729430083191.0,0.0
-4.496114,-4.031906,-6.058627,6.3,44.310001,6.09,1729430083192.0,0.0
-6.65444,-8.977871,-3.89073,-48.439999,36.470001,-7.0,1729430083197.0,0.0
-4.790431,-10.971091,-6.419943,-5.25,22.120001,-8.47,1729430083213.0,0.0
-2.682354,-10.253245,-8.693125,94.080002,24.710001,-5.88,1729430083233.0,0.0
-2.622534,-6.463014,-6.951149,185.710007,39.549999,-3.15,1729430083252.0,0.0
-1.954936,-3.823731,-4.091727,161.419998,23.450001,2.45,1729430083273.0,0.0
-1.847259,-2.347359,-5.627919,-16.870001,0.28,1.26,1729430083297.0,0.0
-2.146362,-6.659225,-7.793423,-134.610001,-7.77,0.56,1729430083313.0,0.0
-2.567499,-7.709675,-7.575676,-71.260002,-7.49,-3.22,1729430083336.0,0.0
-2.667997,-5.649454,-8.255238,10.5,-12.88,-6.16,1729430083358.0,0.0
-2.591427,-5.783452,-7.171289,4.97,-16.799999,-12.04,1729430083373.0,0.0
-3.168097,-6.489335,-7.288538,3.29,-16.1,-13.79,1729430083394.0,0.0
-3.328416,-6.388836,-8.786445,38.43,-13.16,-14.14,1729430083413.0,0.0
-3.103491,-5.216353,-8.472985,68.529999,-6.79,-8.4,1729430083433.0,0.0
-3.04367,-3.754339,-6.312266,48.299999,1.12,-7.28,1729430083452.0,0.0
-3.180061,-3.586841,-7.546963,2.59,1.61,7.7,1729430083477.0,0.0
-2.017149,-4.453043,-9.980463,16.24,-2.24,10.99,1729430083495.0,0.0
-2.955136,-4.965107,-8.650054,94.220001,7.07,23.52,1729430083513.0,0.0
-3.218346,-7.233503,-7.743174,188.930008,17.01,27.790001,1729430083534.0,0.0
-2.062613,-10.301102,-7.441679,220.990005,13.02,14.0,1729430083553.0,0.0
-1.462015,-8.745767,-6.640083,273.140015,12.95,8.05,1729430083573.0,0.0
-2.533999,-6.836295,-4.520042,358.190002,10.01,21.629999,1729430083594.0,0.0
-1.672583,-10.329816,-6.996613,452.76001,0.35,41.02,1729430083643.0,0.0
-2.289931,-4.905287,-2.486143,485.029999,35.98,41.580002,1729430083715.0,0.0
-2.469393,-5.974878,0.27996,293.089996,43.470001,31.360001,1729430083716.0,0.0
-3.400201,-8.819944,2.964707,82.669998,24.290001,5.81,1729430083717.0,0.0
-3.625126,-12.100503,3.704089,-2.03,-33.25,-0.35,1729430083720.0,0.0
-3.730411,-10.195816,1.258625,-14.77,-25.620001,-13.09,1729430083732.0,0.0
-3.917051,-8.958728,-0.885344,23.450001,16.870001,-11.9,1729430083752.0,0.0
-3.349952,-7.276574,1.103091,45.360001,17.85,-8.54,1729430083772.0,0.0
-2.469393,-5.15414,2.641676,-46.970001,20.93,-10.71,1729430083795.0,0.0
-2.579463,-1.129412,3.881158,-298.200012,54.670002,-49.630001,1729430083814.0,0.0
-3.816552,-9.753145,-5.393422,-531.299988,-2.66,-57.189999,1729430083833.0,0.0
-1.533799,-10.301102,-12.550355,-626.150024,-41.580002,-69.440002,1729430083852.0,0.0
-2.129612,-14.986248,-2.115255,-223.860001,-48.580002,21.07,1729430083872.0,0.0
-1.741975,-10.068997,-3.019742,30.52,-24.08,26.6,1729430083893.0,0.0
-2.316252,-6.422336,-5.211568,247.729996,28.91,39.27,1729430083913.0,0.0
-4.058227,-6.783652,-4.630112,297.360016,48.299999,45.849998,1729430083932.0,0.0
-8.425128,-6.60419,-1.545763,186.759995,52.360001,59.779999,1729430083952.0,0.0
-8.446664,-7.769495,4.307081,100.519997,-8.26,55.93,1729430083972.0,0.0
-4.596612,-10.789237,0.87338,107.870003,-64.190002,51.450001,1729430083994.0,0.0
-4.304688,-11.150554,-0.468993,151.619995,-7.98,8.96,1729430084012.0,0.0
-6.302694,-7.197611,1.57687,191.169998,-9.8,47.110001,1729430084032.0,0.0
-5.35753,-8.573483,4.218546,207.970001,-38.009998,47.599998,1729430084051.0,0.0
-4.689932,-9.439686,2.285146,175.279999,-45.849998,42.0,1729430084072.0,0.0
-5.338387,-7.573284,3.761517,135.869995,-24.639999,49.490002,1729430084093.0,0.0
-6.309873,-10.69831,2.07697,60.689999,-21.700001,47.670002,1729430084114.0,0.0
-6.924829,-8.805587,0.425922,-107.800003,-17.43,17.780001,1729430084132.0,0.0
-5.489135,-7.898707,-3.816552,-201.460007,-40.599998,-0.84,1729430084151.0,0.0
-4.859823,-7.996813,-5.292924,-211.75,-23.1,3.78,1729430084171.0,0.0
-5.192425,-8.9683,-2.053042,-127.75,4.55,-5.53,1729430084192.0,0.0
-5.056034,-8.403593,-2.569891,-115.5,11.48,-23.73,1729430084211.0,0.0
-4.431508,-7.566105,-4.524827,-172.130005,9.45,-34.02,1729430084231.0,0.0
-3.634698,-7.68096,-5.912664,-242.970001,3.01,-30.59,1729430084252.0,0.0
-3.302095,-7.630712,-6.702296,-300.369995,3.01,-28.98,1729430084273.0,0.0
-3.354738,-6.372087,-6.908078,-363.649994,8.89,-39.48,1729430084292.0,0.0
-4.23051,-5.460421,-1.488336,-443.519989,2.17,-43.68,1729430084312.0,0.0
-4.254438,-10.193424,-7.623533,-455.279999,-28.139999,-25.41,1729430084344.0,0.0
-1.59362,-16.675581,-11.397014,-183.399994,-25.969999,-31.710001,1729430084352.0,0.0
-2.409572,-2.888137,-7.197611,20.16,38.009998,-26.6,1729430084372.0,0.0
-4.319045,-0.930808,-5.855237,51.310001,27.23,8.05,1729430084393.0,0.0
-3.54377,-4.658825,-5.99402,-105.840004,14.77,-7.42,1729430084412.0,0.0
-2.711068,-6.4678,-7.594819,-162.680008,-0.42,2.73,1729430084432.0,0.0
-2.878566,-7.159326,-9.556933,-67.059998,9.1,3.15,1729430084452.0,0.0
-3.9338,-4.630112,-10.092925,13.02,24.85,6.51,1729430084471.0,0.0
-4.218546,-4.742575,-10.224532,-25.76,35.490002,6.37,1729430084493.0,0.0
-4.438686,-7.300502,-4.220939,-53.970001,43.959999,5.04,1729430084512.0,0.0
-5.611169,-9.925428,-7.633104,40.529999,35.420002,1.75,1729430084532.0,0.0
-5.257031,-7.197611,-7.881958,109.550003,49.490002,-13.16,1729430084552.0,0.0
-4.65404,-3.522235,-6.989435,34.860001,37.170002,-5.53,1729430084573.0,0.0
-2.888137,-6.173482,-7.233503,-50.049999,34.23,-1.82,1729430084594.0,0.0
-2.311467,-7.984849,-6.680761,-7.14,26.809999,8.05,1729430084613.0,0.0
-3.215954,-7.776673,-7.800602,89.739998,27.790001,8.96,1729430084633.0,0.0
-4.323831,-8.106883,-6.357729,152.039993,34.580002,4.69,1729430084653.0,0.0
-3.9673,-6.312266,-5.828916,190.610001,28.98,6.79,1729430084680.0,0.0
-2.696711,-7.649854,-6.400801,212.100006,17.57,14.84,1729430084693.0,0.0
-1.557728,-8.429914,-7.606783,273.700012,13.23,25.34,1729430084714.0,0.0
-2.26361,-7.946564,-5.814559,392.420013,4.06,43.889999,1729430084733.0,0.0
-3.019742,-10.884951,-5.54417,556.5,-20.299999,56.700001,1729430084752.0,0.0
-3.232704,-8.85105,-7.293324,630.77002,-16.52,41.650002,1729430084772.0,0.0
-3.964907,-9.537791,-3.739982,639.799988,2.8,49.490002,1729430084794.0,0.0
-3.227918,-10.387242,-0.301496,604.030029,2.38,39.060001,1729430084813.0,0.0
-3.412165,-5.017749,9.250652,563.01001,22.610001,-2.38,1729430084833.0,0.0
-4.907679,-2.464607,13.679767,345.170013,12.46,-18.9,1729430084853.0,0.0
-3.292524,-13.356737,6.683154,182.559998,-74.129997,-82.809998,1729430084872.0,0.0
2.388037,-13.892728,0.732204,127.889999,-107.169998,-138.740005,1729430084895.0,0.0
0.440279,-7.338787,-0.337388,289.660004,24.92,-102.900002,1729430084914.0,0.0
-5.213961,-1.129412,2.596212,483.070007,97.860001,-57.68,1729430084933.0,0.0
-7.097112,3.87398,4.926822,487.619995,100.169998,-14.91,1729430084953.0,0.0
-9.456435,3.869194,7.936993,322.839996,68.949997,-6.3,1729430084974.0,0.0
-5.752346,1.143769,10.219746,139.720001,-23.379999,-65.379997,1729430084995.0,0.0
-3.239882,-2.057827,9.760324,29.469999,-41.790001,-55.02,1729430085013.0,0.0
-3.814159,-5.867201,7.814958,22.68,-16.379999,-54.740002,1729430085034.0,0.0
-3.835695,-6.15434,5.436492,62.09,-4.69,-52.220001,1729430085054.0,0.0
-1.854438,-1.631905,8.130811,128.589996,11.76,-36.259998,1729430085072.0,0.0
-2.06022,1.143769,9.329616,167.089996,30.940001,-31.360001,1729430085220.0,0.0
-2.998207,-0.811167,7.992027,136.919998,12.88,-34.369999,1729430085229.0,0.0
-2.677568,-1.014557,5.816952,120.75,11.83,-19.950001,1729430085230.0,0.0
-2.806781,3.52702,7.795816,176.330002,43.959999,-11.97,1729430085230.0,0.0
-5.233103,4.003192,12.019149,165.970001,57.75,-2.03,1729430085291.0,0.0
-3.708875,-0.014357,9.123833,24.57,29.4,6.23,1729430085291.0,0.0
-2.038685,0.866202,8.561519,-79.660004,-26.530001,8.75,1729430085292.0,0.0
-3.615555,0.588634,9.343972,-38.990002,-3.01,11.69,1729430085292.0,0.0
-3.259024,-0.157926,10.255639,-28.98,18.690001,26.18,1729430085292.0,0.0
-3.376273,-1.758725,10.272388,-102.690002,1.61,18.27,1729430085303.0,0.0
-3.294917,-2.557927,8.73141,-195.229996,-23.73,11.48,1729430085324.0,0.0
-3.129812,-2.830709,7.523034,-205.100006,-27.440001,10.36,1729430085338.0,0.0
-3.639483,-1.835295,8.516055,-199.919998,-25.41,14.91,1729430085354.0,0.0
-4.012764,-0.612563,8.609376,-182.210007,-28.0,23.940001,1729430085374.0,0.0
-4.151547,-1.268196,7.085148,-161.419998,-25.34,23.940001,1729430085407.0,0.0
-3.945765,-2.689533,8.336594,-171.990005,-22.82,18.129999,1729430085420.0,0.0
-3.108276,-3.433701,10.143176,-215.600006,-32.759998,24.15,1729430085434.0,0.0
-2.304288,-6.206983,9.710074,-270.76001,-53.34,28.77,1729430085456.0,0.0
-1.607977,-5.74756,7.389036,-303.170013,-51.450001,33.740002,1729430085475.0,0.0
-1.942972,-4.268795,7.862815,-353.429993,-43.049999,31.92,1729430085495.0,0.0
-2.842674,-3.749553,6.680761,-410.410004,-51.240002,44.310001,1729430085516.0,0.0
-3.905087,-6.068198,2.895315,-443.309998,-70.699997,32.060001,1729430085537.0,0.0
-3.672983,-8.827123,0.614955,-410.619995,-78.470001,40.18,1729430085554.0,0.0
-3.644269,-11.858829,1.117448,-360.01001,-65.590004,-4.83,1729430085585.0,0.0
-5.364708,-12.413965,0.598206,-277.76001,-42.209999,8.54,1729430085594.0,0.0
-4.326223,-11.349157,0.327817,-193.270004,-38.5,-17.99,1729430085615.0,0.0
-2.462214,-9.195618,-0.124427,-206.220001,-26.25,-36.470001,1729430085636.0,0.0
-1.737189,-4.400401,-0.504886,-239.75,-11.13,-15.61,1729430085703.0,0.0
-1.024128,-5.905487,-2.031506,-228.130005,-3.01,1.26,1729430085708.0,0.0
-2.376073,-7.195218,-3.78066,-217.0,-0.91,8.12,1729430085724.0,0.0
-5.888737,-10.351351,0.569492,-273.0,-4.06,16.1,1729430085733.0,0.0
-3.948158,-2.210968,-9.870394,-368.76001,-20.16,-10.43,1729430085753.0,0.0
-0.37328,-11.227123,-13.30888,-475.860016,-64.120003,-29.120001,1729430085773.0,0.0
-2.617748,-11.813366,-8.214561,-329.350006,-67.199997,21.91,1729430085793.0,0.0
-3.18724,-3.625126,-4.259224,-4.55,0.63,-10.15,1729430085823.0,0.0
-2.478964,-2.086541,-4.493721,-106.610001,-23.59,7.21,1729430085833.0,0.0
-1.150948,-4.661219,-7.278966,-190.610001,-27.299999,2.31,1729430085853.0,0.0
-2.383251,-6.415157,-9.205189,-196.910004,-23.870001,18.129999,1729430085873.0,0.0
-3.945765,-4.742575,-10.413565,-187.880005,-10.29,13.16,1729430085896.0,0.0
-4.240082,-7.874779,-9.537791,-168.630005,-4.76,10.43,1729430085929.0,0.0
-2.924029,-9.80818,-8.271988,-104.370003,-8.68,3.92,1729430085933.0,0.0
-2.682354,-6.087341,-8.848659,-42.139999,-3.5,-7.7,1729430085974.0,0.0
-4.342973,-5.682954,-8.260024,-24.219999,5.04,-1.68,1729430085976.0,0.0
-4.323831,-5.082355,-6.776474,0.07,3.29,5.39,1729430085997.0,0.0
-4.321437,-3.885944,-7.204789,-1.33,-0.84,17.780001,1729430086014.0,0.0
-4.113262,-8.181061,-10.049855,-20.09,1.4,15.12,1729430086033.0,0.0
-3.962514,-8.382057,-8.736196,81.059998,0.7,17.99,1729430086053.0,0.0
-4.189832,-7.82453,-7.360322,188.089996,3.78,4.69,1729430086073.0,0.0
-2.665605,-8.015956,-9.064013,203.419998,2.87,-1.4,1729430086093.0,0.0
-2.237289,0.399601,-7.927422,194.669998,8.75,-11.69,1729430086113.0,0.0
-2.321038,-10.214959,-9.284152,-3.01,-7.98,-4.2,1729430086133.0,0.0
-1.306481,-6.69751,-11.813366,64.260002,14.56,-14.84,1729430086153.0,0.0
-2.266003,-5.82413,-9.24826,249.619995,17.08,19.6,1729430086175.0,0.0
-5.970093,6.173482,1.351945,161.210007,31.85,25.549999,1729430086194.0,0.0
-4.115655,-5.288138,-7.499106,-32.27,-13.72,17.01,1729430086214.0,0.0
-3.058028,-10.183852,-11.081161,-92.540001,-10.43,29.190001,1729430086234.0,0.0
-3.661019,-11.277373,-7.068398,24.360001,12.39,15.75,1729430086254.0,0.0
-3.608376,-8.903693,-8.508877,94.150002,30.940001,-2.87,1729430086274.0,0.0
-2.462214,-7.685746,-7.32443,121.169998,22.120001,-0.84,1729430086295.0,0.0
-0.502493,-9.157332,-8.504091,151.899994,18.83,6.16,1729430086314.0,0.0
-0.526421,-5.680561,-3.572484,260.26001,20.58,31.43,1729430086338.0,0.0
-2.565106,-3.163311,-1.777867,290.01001,39.549999,31.639999,1729430086354.0,0.0
-3.799802,-6.661618,-2.656033,194.669998,29.82,44.029999,1729430086374.0,0.0
-4.448257,-7.056434,-2.167897,38.990002,9.38,36.470001,1729430086395.0,0.0
-4.321437,-9.157332,-2.182254,-23.799999,-13.51,38.5,1729430086414.0,0.0
-4.072584,-9.671788,-3.883551,32.759998,-32.34,38.709999,1729430086434.0,0.0
-4.393222,-8.147561,-2.787638,91.629997,-28.210001,16.52,1729430086453.0,0.0
-4.232903,-8.090133,3.046063,12.39,-44.66,31.290001,1729430086474.0,0.0
-4.252046,-10.195816,0.894916,-42.0,-55.09,7.0,1729430086494.0,0.0
-6.04427,-8.341379,0.308674,-63.349998,-62.16,-4.34,1729430086514.0,0.0
-6.192625,-8.764909,-3.026921,-74.480003,-73.220001,-8.19,1729430086534.0,0.0
-7.15454,-9.219545,-4.177868,-64.82,-58.799999,-13.58,1729430086556.0,0.0
-7.982457,-8.46102,-3.57727,-44.52,-31.92,-22.75,1729430086574.0,0.0
-7.532606,-7.630712,-3.993621,-52.709999,-27.58,-27.719999,1729430086594.0,0.0
-6.314659,-7.164111,-4.644469,-49.84,-24.01,-29.33,1729430086614.0,0.0
-5.290531,-6.606583,-4.725825,-35.630001,-12.39,-25.690001,1729430086634.0,0.0
-4.441079,-6.680761,-5.838487,-40.599998,-9.24,-29.540001,1729430086654.0,0.0
-4.067799,-8.55434,-6.319445,-43.189999,-19.809999,-19.25,1729430086673.0,0.0
-3.165704,-5.680561,-5.245068,-54.25,-32.34,-22.049999,1729430086695.0,0.0
-3.443272,-5.359922,-5.233103,-79.940002,-31.290001,-6.65,1729430086721.0,0.0
-2.397608,-5.438886,-5.845665,-74.900002,-21.0,-11.06,1729430086736.0,0.0
-3.07717,-3.225525,-4.953143,-91.980003,-13.51,-2.1,1729430086754.0,0.0
-2.644069,-6.317052,-10.80838,-277.410004,-27.02,-9.03,1729430086774.0,0.0
-2.041078,-8.898908,-9.004191,-279.230011,-32.549999,-19.32,1729430086797.0,0.0
-1.777867,-7.80778,-10.083356,-152.110001,-21.700001,-4.76,1729430086814.0,0.0
-3.431308,-6.238089,-8.159525,-114.730003,10.36,-27.02,1729430086835.0,0.0
-3.661019,-6.611369,-6.874579,-144.130005,-6.93,-23.66,1729430086854.0,0.0
-2.727818,-7.111469,-8.853443,-122.220001,-2.31,-27.790001,1729430086874.0,0.0
-3.503092,-8.126025,-9.626326,-103.739998,20.719999,-30.380001,1729430086895.0,0.0
-4.079762,-8.054241,-7.226324,-83.300003,34.299999,-27.719999,1729430086914.0,0.0
-4.127619,-6.91765,-4.443472,-62.510002,29.4,-19.110001,1729430086936.0,0.0
-4.139583,-5.453243,-3.952943,-34.23,10.22,-6.58,1729430086955.0,0.0
-5.158926,-5.661418,-5.910272,-15.4,1.12,6.16,1729430086975.0,0.0
-5.577669,-5.905487,-8.126025,13.02,-1.12,16.73,1729430086996.0,0.0
-5.745167,-5.709275,-6.355337,42.77,-0.56,26.460001,1729430087016.0,0.0
-4.022335,-5.910272,-7.125826,38.709999,-8.89,15.190001,1729430087035.0,0.0
-3.426522,-7.37468,-8.946764,22.049999,-10.29,5.67,1729430087054.0,0.0
-3.5007,-8.446664,-7.482357,93.660004,0.98,-6.86,1729430087075.0,0.0
-3.546163,-7.499106,-8.008778,105.489998,5.32,-12.32,1729430087096.0,0.0
-2.663212,-7.051648,-10.339387,122.220001,8.96,-7.28,1729430087116.0,0.0
-3.022135,-5.132604,-7.673782,151.619995,25.549999,-4.76,1729430087136.0,0.0
-3.59402,-5.118248,-5.510671,100.870003,31.01,-5.88,1729430087156.0,0.0
-4.249653,-6.132804,-4.792823,26.110001,23.59,-3.85,1729430087176.0,0.0
-3.596412,-8.4347,-7.022934,63.209999,13.02,7.28,1729430087197.0,0.0
-3.352344,-8.60459,-6.752545,173.180008,18.34,14.07,1729430087217.0,0.0
-3.608376,-8.085347,-6.946364,235.270004,27.440001,8.75,1729430087236.0,0.0
-3.589234,-7.91785,-4.577469,199.990005,24.01,8.75,1729430087256.0,0.0
-3.031706,-8.853443,-3.816552,151.339996,7.14,-4.9,1729430087276.0,0.0
-2.526821,-9.370294,-4.197011,147.770004,-3.08,-12.04,1729430087297.0,0.0
-3.900301,-6.350551,-2.632105,167.300003,-5.18,-5.11,1729430087318.0,0.0
-4.838287,-6.135197,-2.366502,166.110001,-8.89,8.61,1729430087340.0,0.0
-3.031706,-10.765309,-3.330809,162.050003,-25.34,18.41,1729430087356.0,0.0
-3.61077,-10.473385,-2.507678,219.869995,3.15,20.58,1729430087376.0,0.0
-4.95075,-9.19801,-1.418944,188.300003,30.1,9.94,1729430087397.0,0.0
-4.079762,-9.018548,-0.244068,121.590004,10.15,2.66,1729430087416.0,0.0
-3.134598,-8.126025,0.212961,72.449997,-4.55,-2.17,1729430087441.0,0.0
-3.39063,-8.65484,-0.062213,63.490002,0.63,-10.99,1729430087456.0,0.0
-4.019942,-8.602197,-0.509671,39.759998,3.43,-25.200001,1729430087475.0,0.0
-4.189832,-8.628519,-0.507278,31.15,-2.94,-28.280001,1729430087498.0,0.0
-4.402793,-7.989635,-0.095713,41.02,4.41,-27.16,1729430087516.0,0.0
-4.290331,-7.640282,0.947558,37.869999,2.1,-30.17,1729430087536.0,0.0
-3.538985,-7.776673,0.756132,13.3,-3.57,-28.210001,1729430087556.0,0.0
-3.479164,-8.154739,1.495514,-14.84,-1.68,-21.280001,1729430087576.0,0.0
-3.498307,-8.415558,1.385444,-53.549999,-1.68,-20.860001,1729430087596.0,0.0
-2.801995,-8.99462,0.332602,-85.889999,-4.76,-20.790001,1729430087616.0,0.0
-2.409572,-9.296116,-0.72024,-112.629997,-0.84,-24.290001,1729430087636.0,0.0
-3.031706,-9.008978,-1.404587,-131.600006,9.03,-28.139999,1729430087657.0,0.0
-2.852244,-8.116454,-2.024328,-143.779999,6.93,-25.76,1729430087677.0,0.0
-2.849852,-7.625926,-2.955136,-149.520004,12.32,-18.41,1729430087696.0,0.0
-2.823531,-7.453642,-3.139383,-137.479996,26.67,-9.03,1729430087716.0,0.0
-2.859423,-6.750153,-2.835495,-154.699997,21.07,-10.78,1729430087737.0,0.0
-2.510071,-7.164111,-4.419543,-185.149994,22.889999,-11.06,1729430087755.0,0.0
-1.878366,-6.754939,-6.549156,-213.570007,19.389999,-17.85,1729430087776.0,0.0
-1.433301,-8.69791,-8.106883,-181.160004,14.98,-8.89,1729430087798.0,0.0
-0.918844,-9.903893,-6.30748,-124.949997,8.47,-9.31,1729430087817.0,0.0
-1.730011,-10.358529,-4.299902,-67.059998,7.42,-1.68,1729430087836.0,0.0
-1.639083,-10.459028,-6.699903,-11.9,20.370001,-13.58,1729430087856.0,0.0
-2.457429,-11.05484,-6.386444,117.529999,31.15,22.610001,1729430087876.0,0.0
-5.091926,-10.317852,-3.680161,299.600006,58.939999,56.349998,1729430087896.0,0.0
-5.472386,-7.52782,-3.943372,419.929993,69.090004,47.880001,1729430087983.0,0.0
-3.998406,-4.814359,-5.199604,485.309998,42.630001,83.720001,1729430087984.0,0.0
-5.448457,-6.71426,1.830509,497.559998,26.6,116.620003,1729430087984.0,0.0
-6.482157,-7.678568,5.687739,418.25,31.780001,90.370003,1729430087984.0,0.0
-7.74796,-7.049256,6.242875,288.610016,46.759998,42.700001,1729430087998.0,0.0
-6.656832,-9.415757,3.708875,185.149994,32.549999,30.52,1729430088017.0,0.0
-4.589434,-7.563712,4.350152,114.520004,-1.68,3.78,1729430088037.0,0.0
-4.979464,-7.097112,3.445665,80.220001,13.72,8.4,1729430088055.0,0.0
-5.362316,-9.008978,3.771089,85.470001,22.82,-3.57,1729430088075.0,0.0
-5.053641,-9.217153,5.974878,96.949997,7.77,-9.8,1729430088101.0,0.0
-3.113062,-7.908278,6.783652,110.669998,-11.97,-6.44,1729430088116.0,0.0
-2.124826,-6.302694,5.972485,73.5,3.78,-18.27,1729430088136.0,0.0
-2.325824,-4.677969,6.613762,-22.26,11.83,-20.58,1729430088157.0,0.0
-2.651247,-7.676175,3.445665,-126.419998,-10.01,-30.59,1729430088177.0,0.0
-2.943172,-9.341579,1.026521,-207.339996,-26.460001,-35.209999,1729430088197.0,0.0
-2.794817,-10.415956,-0.131605,-215.040009,-18.9,-30.17,1729430088216.0,0.0
-2.744568,-9.413363,0.435494,-213.009995,7.7,-28.84,1729430088236.0,0.0
-2.900101,-8.147561,1.40698,-256.059998,25.76,-20.719999,1729430088255.0,0.0
-2.251646,-7.200003,-0.184247,-333.690002,23.24,-30.17,1729430088275.0,0.0
-1.655833,-7.192825,-3.122634,-377.230011,19.950001,-32.060001,1729430088296.0,0.0
-2.215754,-7.788638,-5.472386,-383.25,27.790001,-32.759998,1729430088316.0,0.0
-5.02732,-8.391629,-3.182454,-414.470001,15.61,-56.420002,1729430088339.0,0.0
-4.072584,-6.958328,-9.265009,-454.230011,-17.710001,-67.620003,1729430088355.0,0.0
-2.266003,-11.684153,-8.688338,-297.850006,-50.959999,-28.84,1729430088375.0,0.0
-1.359123,-7.37468,-5.589634,-93.730003,-23.66,-26.530001,1729430088399.0,0.0
-3.098706,-1.914258,-4.615755,-49.700001,3.29,-14.84,1729430088415.0,0.0
-3.17049,-2.818745,-5.218746,-139.020004,-15.190001,-5.32,1729430088436.0,0.0
-1.627119,-6.766902,-7.269395,-220.360001,-22.4,-4.2,1729430088455.0,0.0
-1.213161,-7.056434,-7.355537,-207.970001,-22.049999,-4.62,1729430088475.0,0.0
-2.395216,-5.962914,-8.4347,-147.070007,-13.16,-8.54,1729430088496.0,0.0
-2.65364,-6.345766,-9.32483,-109.550003,-15.47,-9.66,1729430088516.0,0.0
-2.112862,-7.075576,-9.688539,-84.840004,-18.76,-7.77,1729430088537.0,0.0
-2.615355,-6.34098,-9.585647,-47.110001,-8.47,-14.56,1729430088555.0,0.0
-3.058028,-4.453043,-8.886944,-4.9,-3.92,-10.5,1729430088575.0,0.0
-3.388237,-4.740182,-8.767302,2.31,-1.19,-4.27,1729430088596.0,0.0
-3.378666,-6.087341,-9.152546,-7.14,4.48,-4.83,1729430088615.0,0.0
-3.644269,-7.326823,-9.990034,2.66,14.28,-8.61,1729430088637.0,0.0
-3.218346,-7.149754,-9.530612,40.389999,21.77,-9.66,1729430088655.0,0.0
-2.684747,-6.053841,-8.767302,75.389999,24.219999,-8.96,1729430088675.0,0.0
-2.675175,-5.242674,-8.800802,73.290001,25.9,-9.94,1729430088696.0,0.0
-2.469393,-6.73101,-4.244867,90.440002,20.23,0.28,1729430088718.0,0.0
-4.012764,-4.280759,-2.143969,71.75,7.21,-0.07,1729430088736.0,0.0
-3.259024,-8.38445,-8.377272,43.540001,-16.450001,-0.84,1729430088756.0,0.0
-2.148755,-10.253245,-9.274581,99.400002,-16.870001,9.1,1729430088775.0,0.0
-3.04367,-5.532206,-5.522634,178.009995,0.28,13.02,1729430088796.0,0.0
-4.232903,-4.07737,-4.527221,136.430008,1.47,11.97,1729430088817.0,0.0
-3.321238,-7.776673,-6.699903,93.940002,-23.66,20.65,1729430088836.0,0.0
-2.612962,-10.765309,-7.826923,214.270004,-27.440001,36.049999,1729430088855.0,0.0
-2.816352,-8.018349,-8.69791,342.019989,-0.49,32.830002,1729430088875.0,0.0
-3.59402,-5.606383,-5.642276,308.700012,20.65,28.210001,1729430088895.0,0.0
-3.538985,-7.805387,-5.379066,178.919998,13.02,29.4,1729430088916.0,0.0
-2.392823,-11.657832,-4.943572,148.190002,15.96,25.83,1729430088936.0,0.0
-2.330609,-13.801801,-3.68734,192.220001,29.120001,6.93,1729430088955.0,0.0
-2.562713,-11.507084,-4.359723,243.669998,41.580002,-13.02,1729430088975.0,0.0
-3.708875,-6.905686,-1.636691,282.309998,35.349998,-13.3,1729430088997.0,0.0
-4.206582,-6.149554,1.849652,267.470001,6.58,-1.82,1729430089016.0,0.0
-3.519842,-6.501299,1.622334,202.930008,-1.75,-15.05,1729430089035.0,0.0
-4.053442,-6.386444,2.459821,76.300003,5.67,-27.790001,1729430089055.0,0.0
-3.976871,-6.98465,1.880759,-5.88,-5.25,-23.1,1729430089075.0,0.0
-3.56052,-8.429914,0.679562,-33.32,-3.22,-22.960001,1729430089107.0,0.0
-3.900301,-11.133803,1.043271,5.81,-8.68,-24.360001,1729430089116.0,0.0
-3.084348,-12.282358,0.961915,54.810001,-25.200001,-31.08,1729430089136.0,0.0
-2.691926,-10.968699,1.237089,83.160004,-23.24,-23.379999,1729430089155.0,0.0
-3.342773,-8.685946,1.213161,110.040001,-14.63,-7.28,1729430089175.0,0.0
-3.579663,-8.889337,1.68694,143.710007,-5.81,-7.0,1729430089198.0,0.0
-2.861816,-8.102098,2.694318,151.970001,-2.1,-15.4,1729430089220.0,0.0
-2.165504,-7.259824,3.854837,119.559998,-3.85,-5.11,1729430089236.0,0.0
-1.911865,-7.578069,3.385844,55.16,-5.25,-6.37,1729430089254.0,0.0
-1.641476,-8.669197,2.617748,20.65,-4.34,-4.41,1729430089274.0,0.0
-1.663012,-8.827123,2.517249,16.73,-3.92,1.05,1729430089296.0,0.0
-2.177469,-8.147561,3.589234,14.49,-2.38,7.84,1729430089315.0,0.0
-2.811567,-8.310273,4.752146,1.33,-7.91,10.71,1729430089337.0,0.0
-2.667997,-9.530612,2.251646,-30.030001,-2.31,4.06,1729430089354.0,0.0
-2.739782,-9.987641,2.471786,-12.74,-12.04,4.48,1729430089375.0,0.0
-2.644069,-8.800802,2.57707,11.76,-8.33,10.78,1729430089396.0,0.0
-2.986243,-8.965906,4.101298,13.09,-3.15,6.16,1729430089416.0,0.0
-3.141776,-9.260223,3.378666,-3.92,-3.71,-1.68,1729430089435.0,0.0
-3.285345,-9.054441,2.952743,-8.89,2.8,-1.05,1729430089463.0,0.0
-3.07717,-6.903293,3.428915,-7.07,5.81,2.24,1729430089508.0,0.0
-3.002992,-7.415358,3.9338,-13.3,7.98,8.33,1729430089516.0,0.0
-3.302095,-8.879765,2.68714,-35.139999,-0.98,5.11,1729430089535.0,0.0
-2.651247,-10.760524,1.866402,-59.290001,1.05,5.67,1729430089554.0,0.0
-1.552942,-9.822537,2.065006,-65.519997,-7.49,-3.22,1729430089575.0,0.0
-1.813759,-7.996813,2.316252,-24.92,-16.73,6.09,1729430089596.0,0.0
-3.017349,-7.910671,3.615555,23.309999,2.38,20.16,1729430089615.0,0.0
-2.282753,-7.302894,3.988836,-29.469999,-14.84,21.700001,1729430089637.0,0.0
-2.586641,-8.487342,2.426322,-73.43,-2.87,20.58,1729430089656.0,0.0
-3.086741,-10.320245,0.894916,-80.360001,1.12,17.08,1729430089676.0,0.0
-3.428915,-10.250853,1.028914,-51.029999,1.54,15.190001,1729430089695.0,0.0
-3.227918,-9.698111,1.859223,-28.630001,5.32,6.65,1729430089715.0,0.0
-3.330809,-9.949356,1.753939,-34.720001,9.66,-1.82,1729430089735.0,0.0
-3.519842,-10.135997,1.438086,-31.15,12.46,-6.72,1729430089754.0,0.0
-3.632305,-9.339187,2.354537,-21.35,7.7,-6.79,1729430089775.0,0.0
-3.534199,-8.396415,2.907279,-30.940001,-1.05,-4.76,1729430089796.0,0.0
-3.180061,-8.652447,2.134398,-58.59,-4.27,-5.81,1729430089815.0,0.0
-3.352344,-9.351151,0.947558,-75.32,-1.61,-7.28,1729430089836.0,0.0
-3.907479,-9.633504,1.18684,-61.25,-2.24,-1.75,1729430089854.0,0.0
-3.98405,-8.922836,1.902294,-44.59,-14.28,3.15,1729430089874.0,0.0
-3.716053,-8.688338,1.48355,-45.290001,-16.1,2.45,1729430089896.0,0.0
-4.113262,-9.152546,1.287339,-49.91,-7.98,-0.91,1729430089915.0,0.0
-4.180261,-9.157332,1.811367,-49.84,-16.450001,2.52,1729430089935.0,0.0
-4.09412,-8.365308,1.978864,-59.080002,-23.1,9.66,1729430089956.0,0.0
-4.455436,-8.171489,1.545763,-84.139999,-26.040001,16.52,1729430089974.0,0.0
-3.656233,-9.623933,0.069392,-121.870003,-36.400002,8.33,1729430089997.0,0.0
-3.395415,-11.679367,-2.940779,-141.050003,-31.5,5.88,1729430090015.0,0.0
-2.632105,-13.177275,-5.369494,-125.230003,-15.47,-10.71,1729430090035.0,0.0
-3.067599,-11.933006,-3.634698,-12.67,-2.66,-7.49,1729430090054.0,0.0
-3.069991,-9.595219,-1.09352,72.660004,2.94,-11.2,1729430090075.0,0.0
-2.45025,-7.283752,-0.014357,90.300003,-8.12,-8.61,1729430090095.0,0.0
-2.244468,-6.326623,0.311067,60.27,-11.76,1.26,1729430090116.0,0.0
-2.596212,-7.343572,0.401994,13.02,-4.76,-2.17,1729430090142.0,0.0
-3.292524,-8.432307,-1.040878,-32.549999,3.78,-3.78,1729430090155.0,0.0
-3.795017,-9.123833,-1.57687,-40.740002,1.19,-0.35,1729430090175.0,0.0
-4.041477,-8.513663,-1.225125,-23.450001,-9.1,6.3,1729430090198.0,0.0
-4.287938,-7.879565,-0.684347,-7.14,-13.37,15.190001,1729430090215.0,0.0
-4.09412,-7.470392,-1.079163,-27.02,-2.17,5.18,1729430090235.0,0.0
-3.912265,-8.559127,-1.229911,-66.5,3.85,5.39,1729430090255.0,0.0
-3.175276,-9.674182,-2.452643,-100.029999,3.22,1.82,1729430090275.0,0.0
-3.026921,-10.794022,-2.842674,-98.769997,14.35,-2.66,1729430090295.0,0.0
-2.952743,-10.858629,-2.713461,-75.809998,12.53,-4.06,1729430090317.0,0.0
-2.696711,-10.30828,-2.239682,-46.900002,7.14,-1.96,1729430090342.0,0.0
-2.545963,-9.568897,-1.938186,-23.24,5.53,-5.46,1729430090356.0,0.0
-2.828316,-9.784252,-2.239682,-20.440001,4.27,-6.72,1729430090375.0,0.0
-3.022135,-9.777073,-2.782853,-18.9,1.4,-9.03,1729430090396.0,0.0
-3.26381,-9.58804,-2.677568,-11.48,-1.05,-10.5,1729430090416.0,0.0
-3.048456,-9.257831,-3.208775,-12.53,-4.69,-12.6,1729430090436.0,0.0
-2.837888,-8.01117,-4.278367,-26.460001,-6.51,-11.69,1729430090455.0,0.0
-2.885744,-7.642675,-4.663611,-35.279999,-8.54,-2.52,1729430090476.0,0.0
-2.758924,-7.542177,-5.778666,-38.990002,-7.77,5.04,1729430090498.0,0.0
-3.211168,-7.975278,-3.744767,-51.66,10.64,5.74,1729430090516.0,0.0
-3.991228,-8.848659,-4.06062,-91.279999,17.710001,4.9,1729430090536.0,0.0
-3.211168,-10.013963,-4.864608,-75.669998,35.07,-9.87,1729430090558.0,0.0
-3.256632,-9.700503,-3.5007,-36.470001,36.610001,-2.59,1729430090576.0,0.0
-3.199204,-8.997013,-2.414358,-52.220001,37.099998,-15.82,1729430090599.0,0.0
-2.991028,-8.41795,-2.656033,-75.32,38.009998,-18.9,1729430090618.0,0.0
-2.813959,-7.982457,-3.639483,-104.720001,35.84,-21.84,1729430090637.0,0.0
-3.086741,-7.101898,-5.639884,-138.740005,39.41,-21.42,1729430090656.0,0.0
-2.9336,-10.660025,-6.197411,-111.230003,34.860001,-4.06,1729430090676.0,0.0
-2.062613,-10.073784,-3.347559,-25.549999,32.34,-0.84,1729430090697.0,0.0
-1.423729,-8.353344,-1.65344,40.740002,30.52,-7.56,1729430090717.0,0.0
-1.921437,-6.58744,-2.129612,-24.01,16.309999,-12.67,1729430090738.0,0.0
-2.352145,-9.949356,-2.943172,-103.949997,-7.84,-10.5,1729430090756.0,0.0
-1.603191,-9.485149,-3.072384,-61.110001,-22.960001,-7.35,1729430090776.0,0.0
-1.631905,-7.094719,-3.996014,18.620001,-23.52,-6.44,1729430090799.0,0.0
-2.773281,-6.829116,-4.565506,4.2,-27.719999,-0.14,1729430090818.0,0.0
-3.5007,-8.920443,-4.936393,-10.78,-32.48,5.11,1729430090838.0,0.0
-4.555934,-8.504091,-3.883551,-0.91,-31.639999,-2.38,1729430090861.0,0.0
-3.672983,-6.429514,-5.702096,5.39,-36.610001,-3.08,1729430090877.0,0.0
-2.845066,-6.759724,-7.771888,-15.54,-35.630001,2.52,1729430090897.0,0.0
-2.665605,-8.444271,-8.662018,3.36,-26.18,12.67,1729430090918.0,0.0
-3.058028,-7.058826,-6.204589,61.18,-13.72,16.450001,1729430090938.0,0.0
-4.634897,-7.712067,-3.816552,63.420002,-10.92,12.46,1729430090956.0,0.0
-3.905087,-8.173882,-4.878965,-6.72,-29.960001,4.83,1729430090976.0,0.0
-3.223132,-8.271988,-6.594619,-15.96,-27.790001,0.14,1729430090998.0,0.0
-3.639483,-8.197811,-6.922436,0.42,-15.190001,-0.98,1729430091017.0,0.0
-3.823731,-7.534998,-6.570691,15.12,-4.34,-1.82,1729430091037.0,0.0
-3.541377,-7.465607,-6.537192,6.09,1.82,-0.14,1729430091057.0,0.0
-3.117848,-7.977671,-7.652246,-14.28,7.49,0.07,1729430091077.0,0.0
-3.058028,-8.606983,-8.4012,-11.9,21.35,1.68,1729430091098.0,0.0
-3.613162,-9.085547,-7.788638,-16.24,39.689999,-3.43,1729430091116.0,0.0
-3.919443,-8.166703,-5.972485,-27.299999,52.779999,-9.03,1729430091136.0,0.0
-3.326023,-7.135397,-5.996413,-26.880001,49.98,-4.41,1729430091156.0,0.0
-3.20399,-8.556733,-6.754939,-12.81,50.119999,-1.61,1729430091176.0,0.0
-3.5007,-8.11167,-5.402994,8.05,54.389999,-2.94,1729430091199.0,0.0
-3.081956,-6.924829,-5.032106,28.35,53.41,-4.76,1729430091217.0,0.0
-2.964707,-6.15434,-1.775474,30.799999,47.110001,-3.29,1729430091236.0,0.0
-2.0004,-6.317052,-3.337988,3.71,32.759998,-4.34,1729430091256.0,0.0
-1.770689,-7.472785,-5.422136,-27.719999,25.200001,-4.41,1729430091277.0,0.0
-1.868794,-7.668997,-5.867201,-28.700001,24.15,-5.25,1729430091297.0,0.0
-1.421337,-7.611568,-5.362316,0.56,12.18,1.61,1729430091316.0,0.0
-2.574677,-8.142776,-5.039285,-11.9,8.89,0.7,1729430091340.0,0.0
-3.486342,-8.449057,-5.47717,-34.650002,4.27,-5.32,1729430091357.0,0.0
-3.328416,-7.702496,-6.111269,-57.119999,-2.52,-7.35,1729430091376.0,0.0
-3.058028,-7.566105,-6.78126,-72.870003,-3.85,-6.79,1729430091397.0,0.0
-3.074777,-8.279166,-6.723832,-56.0,3.29,-6.65,1729430091416.0,0.0
-2.938386,-7.738388,-6.460621,-19.809999,9.73,-7.14,1729430091436.0,0.0
-2.40718,-7.810174,-6.412765,14.14,13.09,-3.71,1729430091456.0,0.0
-1.85683,-8.415558,-6.912865,51.73,15.75,2.52,1729430091476.0,0.0
-1.347159,-8.214561,-6.075377,88.900002,22.190001,4.97,1729430091498.0,0.0
-1.182054,-7.410572,-4.165904,98.349998,24.08,7.14,1729430091516.0,0.0
-1.282553,-8.142776,-3.905087,108.43,20.02,13.440001,1729430091537.0,0.0
-1.536192,-8.044669,-2.600998,140.490005,11.2,18.83,1729430091556.0,0.0
-1.76351,-8.219346,-1.916651,145.25,-1.68,17.08,1729430091586.0,0.0
-1.765903,-8.666803,-2.017149,105.769997,-17.43,12.32,1729430091597.0,0.0
-1.713261,-8.855836,-2.766103,62.580002,-31.360001,9.24,1729430091616.0,0.0
-1.868794,-9.243474,-3.964907,44.66,-36.82,7.49,1729430091636.0,0.0
-1.741975,-9.320045,-5.113462,55.790001,-35.91,6.86,1729430091656.0,0.0
-1.835295,-9.379865,-5.132604,56.98,-28.559999,8.61,1729430091676.0,0.0
-2.325824,-9.073583,-4.555934,35.420002,-10.99,2.31,1729430091697.0,0.0
-3.038885,-9.047262,-4.369294,3.71,0.14,1.47,1729430091716.0,0.0
-2.790031,-9.001799,-4.283153,-14.63,-3.08,-2.94,1729430091736.0,0.0
-2.562713,-7.889136,-5.946165,-47.670002,-6.93,-6.79,1729430091756.0,0.0
-4.709075,-11.112268,-2.447858,-81.690002,-3.71,-19.879999,1729430091776.0,0.0
-5.946165,-6.259624,-0.827917,-112.910004,13.86,-9.38,1729430091797.0,0.0
-2.828316,-5.091926,-2.720639,-93.660004,-44.799999,-27.370001,1729430091817.0,0.0
-2.385644,-4.149154,-5.974878,-158.130005,-50.610001,5.88,1729430091836.0,0.0
-2.179861,-6.056234,-9.226725,-229.25,-27.93,-7.7,1729430091856.0,0.0
-2.48375,-9.982857,-8.312666,-220.430008,-16.52,1.26,1729430091876.0,0.0
-2.591427,-10.25803,-5.702096,-81.900002,-4.13,8.19,1729430091898.0,0.0
-2.885744,-9.549755,-6.025128,78.050003,6.16,25.690001,1729430091917.0,0.0
-2.493321,-8.855836,-9.980463,154.210007,11.34,34.580002,1729430091937.0,0.0
-2.505285,-8.4012,-9.458827,174.160004,6.51,49.490002,1729430091955.0,0.0
-1.488336,-7.800602,-2.510071,159.529999,24.85,49.700001,1729430091976.0,0.0
-2.191825,-8.863015,-3.101098,118.370003,62.439999,31.08,1729430091998.0,0.0
-3.383451,-10.968699,-4.400401,118.93,66.709999,21.49,1729430092016.0,0.0
-3.766303,-10.179067,-3.34038,172.479996,38.360001,30.799999,1729430092036.0,0.0
-2.9671,-9.643075,-2.837888,277.130005,-16.52,60.200001,1729430092056.0,0.0
-3.014957,-6.656832,0.122034,317.100006,-27.860001,44.380001,1729430092075.0,0.0
-5.309673,-6.508478,1.658226,287.0,-12.39,54.040001,1729430092097.0,0.0
-6.427122,-6.113662,1.598405,165.970001,-5.39,25.27,1729430092116.0,0.0
-7.913064,-6.582655,-0.057428,165.970001,-0.14,13.16,1729430092136.0,0.0
-8.250452,-9.47797,-0.471386,-117.669998,-18.76,-15.26,1729430092155.0,0.0
-6.180661,-10.738988,-3.460021,-124.739998,-54.670002,-15.47,1729430092183.0,0.0
-4.579862,-11.01177,-0.454636,8.47,-57.330002,-10.92,1729430092196.0,0.0
-3.833302,-9.925428,-1.643869,83.160004,-21.280001,-19.110001,1729430092218.0,0.0
-5.017749,-8.542377,0.492921,48.650002,10.64,-23.379999,1729430092236.0,0.0
-4.539185,-7.740781,0.368495,-17.99,-11.06,-11.76,1729430092256.0,0.0
-2.694318,-8.82473,-0.437887,-76.440002,-23.66,-22.889999,1729430092276.0,0.0
-2.184647,-10.916058,-1.339981,-100.169998,-20.02,-26.32,1729430092298.0,0.0
-1.825724,-9.848858,0.028714,-66.779999,-2.45,-28.630001,1729430092316.0,0.0
-1.691726,-8.082954,0.066999,-52.360001,-7.14,-24.15,1729430092342.0,0.0
-1.854438,-8.685946,-2.088934,-67.410004,-12.6,-17.639999,1729430092356.0,0.0
-2.081756,-8.652447,-2.634498,-91.489998,-12.25,-21.139999,1729430092377.0,0.0
-2.971886,-8.389235,-2.9671,-104.580002,-3.43,-20.23,1729430092398.0,0.0
-3.89073,-8.279166,-0.232104,-130.759995,5.18,-24.219999,1729430092418.0,0.0
-3.804588,-6.427122,-2.799603,-231.210007,-8.68,-44.73,1729430092437.0,0.0
-3.134598,-5.955735,-5.345565,-308.910004,-27.93,-40.18,1729430092457.0,0.0
-2.380858,-5.185246,-8.525627,-336.070007,-27.440001,-25.200001,1729430092478.0,0.0
-3.048456,-7.927422,-8.760124,-287.839996,-8.33,-14.77,1729430092499.0,0.0
-4.331009,-6.211767,-8.066205,-260.959991,-3.92,-21.84,1729430092518.0,0.0
-5.273781,-8.827123,-5.474778,-265.579987,-21.77,-12.46,1729430092539.0,0.0
-2.565106,-9.154939,-8.822337,-177.589996,-35.560001,-14.28,1729430092557.0,0.0
-1.883151,-4.096512,-8.630912,-17.710001,-11.69,4.41,1729430092580.0,0.0
-2.172683,-3.773481,-10.157533,-96.809998,-2.94,0.91,1729430092601.0,0.0
-1.514657,-4.895715,-7.982457,-135.589996,-9.45,-2.45,1729430092621.0,0.0
-2.316252,-6.474977,-3.558127,-125.580002,-13.09,0.98,1729430092649.0,0.0
-2.723032,-7.022934,-6.73101,-99.540001,-15.26,-13.440001,1729430092660.0,0.0
-3.120241,-5.812167,-10.135997,-47.25,-19.110001,-10.64,1729430092678.0,0.0
-3.486342,-5.132604,-10.38485,-24.780001,-5.46,-9.1,1729430092700.0,0.0
-3.048456,-4.855037,-8.982656,-10.85,3.85,0.14,1729430092720.0,0.0
-3.096312,-4.369294,-8.616554,11.62,7.7,11.83,1729430092738.0,0.0
-3.596412,-4.756931,-9.044869,17.08,10.36,14.98,1729430092759.0,0.0
-3.821337,-5.546563,-9.523434,15.190001,13.02,16.379999,1729430092780.0,0.0
-3.381058,-6.223732,-9.238688,25.9,15.68,8.33,1729430092801.0,0.0
-3.062813,-6.556334,-9.611969,42.07,20.02,0.84,1729430092819.0,0.0
-2.775674,-6.18784,-9.042477,50.330002,29.33,-6.23,1729430092839.0,0.0
-2.830709,-5.414958,-8.496914,72.449997,41.16,-6.58,1729430092859.0,0.0
-3.127419,-4.804788,-8.465806,89.949997,47.389999,-6.58,1729430092880.0,0.0
-2.330609,-6.556334,-6.707082,109.410004,45.990002,8.68,1729430092902.0,0.0
-4.072584,-3.919443,4.256832,107.520004,28.280001,14.14,1729430092966.0,0.0
-4.299902,-3.151347,-4.304688,-49.07,-10.64,-2.73,1729430092967.0,0.0
-3.352344,-9.769895,-7.733603,-145.039993,-31.43,-7.91,1729430092967.0,0.0
-3.416951,-8.346166,-5.855237,-60.689999,-33.110001,5.25,1729430092980.0,0.0
-6.130411,-1.442872,-5.259424,30.030001,-18.059999,13.51,1729430093004.0,0.0
-5.175675,-8.695518,-9.303294,35.0,-17.710001,10.22,1729430093020.0,0.0
-2.909672,-9.099905,-8.800802,63.420002,-30.030001,11.34,1729430093039.0,0.0
-0.971486,-10.253245,-9.406186,179.410004,-40.670002,14.63,1729430093059.0,0.0
-0.29671,-10.856236,-12.268002,335.440002,-23.030001,-5.25,1729430093079.0,0.0
-2.055435,-10.683953,-11.322837,462.769989,18.41,10.78,1729430093114.0,0.0
-2.045863,-10.179067,-8.975478,506.029999,29.960001,3.71,1729430093118.0,0.0
-1.524228,-9.513863,-6.254838,484.470001,11.13,15.82,1729430093138.0,0.0
-0.959522,-9.731609,-5.601598,408.730011,3.01,0.35,1729430093158.0,0.0
-1.885544,-10.344172,-3.52702,312.480011,17.85,-28.700001,1729430093177.0,0.0
-2.962314,-9.702895,-2.691926,267.470001,24.15,-42.209999,1729430093200.0,0.0
-3.318845,-10.805987,-1.971686,304.360016,34.860001,-63.700001,1729430093219.0,0.0
-5.862415,-8.23131,-1.871187,316.329987,40.32,-50.330002,1729430093238.0,0.0
-6.711867,-4.453043,1.37348,334.880005,47.459999,-54.740002,1729430093258.0,0.0
-4.41715,-0.31346,6.041877,295.75,8.26,-39.34,1729430093277.0,0.0
-2.59382,1.057628,8.930015,181.440002,-11.76,-26.74,1729430093308.0,0.0
-1.282553,-5.816952,6.252446,3.85,-11.27,-26.67,1729430093481.0,0.0
-0.674776,-8.240881,5.412565,-132.229996,-8.19,-26.74,1729430093481.0,0.0
-1.708475,-8.123632,4.395615,-152.180008,-26.32,-18.059999,1729430093481.0,0.0
-3.103491,-9.286544,2.600998,-160.789993,-8.4,-9.03,1729430093481.0,0.0
-2.833102,-9.523434,2.924029,-206.990005,-40.529999,-12.53,1729430093508.0,0.0
-1.667797,-9.980463,0.70349,-176.050003,-48.650002,-11.83,1729430093509.0,0.0
-3.180061,-11.095518,0.899701,-143.5,-46.200001,-20.719999,1729430093511.0,0.0
-3.799802,-10.815558,2.254039,-93.449997,-72.940002,-22.960001,1729430093513.0,0.0
-2.232504,-5.912664,0.492921,14.7,-98.209999,9.24,1729430093514.0,0.0
-1.617548,-5.455636,2.079363,100.309998,-81.690002,27.65,1729430093517.0,0.0
-2.818745,-8.513663,2.440679,47.740002,-70.419998,23.66,1729430093537.0,0.0
-2.785245,-8.676375,-1.368695,-56.349998,-67.900002,18.549999,1729430093558.0,0.0
-1.648655,-9.573684,-2.98385,-97.93,-68.599998,33.459999,1729430093578.0,0.0
-1.136591,-9.611969,-3.562913,-107.029999,-52.220001,36.959999,1729430093622.0,0.0
-0.911665,-10.037891,-3.919443,-117.529999,-33.18,43.259998,1729430093623.0,0.0
-0.519243,-9.578469,-3.206382,-147.699997,-18.690001,35.98,1729430093731.0,0.0
-2.395216,-9.592826,3.854837,-145.460007,-29.120001,92.260002,1729430093732.0,0.0
-0.552742,-11.397014,-0.081356,-130.130005,5.39,24.01,1729430093733.0,0.0
-2.510071,-7.903493,-1.995614,-177.940002,60.130001,24.360001,1729430093734.0,0.0
-2.691926,-5.754738,-4.500899,-229.949997,49.209999,20.51,1729430093752.0,0.0
-3.536592,-7.659425,-4.149154,-299.040009,61.529999,30.799999,1729430093855.0,0.0
-4.139583,-7.295716,-5.905487,-432.809998,46.060001,9.8,1729430093856.0,0.0
-2.471786,-5.501099,-18.029919,-502.880005,18.690001,10.22,1729430093856.0,0.0
-5.242674,-16.934006,2.165504,-400.470001,-126.419998,-2.59,1729430093856.0,0.0
-0.684347,-12.507284,-2.567499,-273.700012,-79.800003,-39.549999,1729430093856.0,0.0
-0.098106,0.507278,-11.236694,-142.029999,-40.810001,-52.990002,1729430093857.0,0.0
-3.117848,-2.289931,-10.195816,-45.43,-25.129999,6.02,1729430093858.0,0.0
-3.883551,-4.074977,-8.91805,-143.850006,-5.39,18.969999,1729430093929.0,0.0
-3.629912,-6.618547,-7.692925,-198.100006,-31.08,42.139999,1729430093937.0,0.0
-4.122833,-6.537192,-9.174082,-93.169998,-12.95,39.619999,1729430093938.0,0.0
-4.773681,-5.496314,-11.3683,-19.530001,-0.21,39.619999,1729430093951.0,0.0
-4.689932,-7.085148,-10.892128,-9.31,15.75,33.599998,1729430093956.0,0.0
-3.512664,-7.76471,-8.41795,7.98,20.16,19.25,1729430093976.0,0.0
-3.369094,-8.437093,-7.585248,52.709999,24.710001,3.15,1729430093996.0,0.0
-3.414558,-8.353344,-9.150154,100.940002,27.16,-2.1,1729430094017.0,0.0
-2.998207,-8.537591,-9.772287,176.889999,28.700001,-1.12,1729430094037.0,0.0
-3.029313,-8.087741,-6.250053,209.020004,34.860001,-6.23,1729430094057.0,0.0
-3.421736,-7.226324,-3.371487,203.419998,29.68,-8.05,1729430094076.0,0.0
-3.347559,-5.996413,-3.266203,141.330002,10.29,-15.12,1729430094097.0,0.0
-3.120241,-7.814958,-5.395815,26.950001,-14.28,-20.23,1729430094116.0,0.0
-3.177669,-7.819745,-7.532606,-45.220001,-19.110001,-25.200001,1729430094136.0,0.0
-2.87378,-6.216553,-10.090532,-30.940001,-8.54,-28.210001,1729430094160.0,0.0
-3.302095,-1.761117,-6.503692,28.49,1.75,-17.92,1729430094176.0,0.0
-5.352744,-1.040878,-6.242875,24.5,20.299999,17.99,1729430094196.0,0.0
-3.881158,-5.690133,-6.056234,2.52,-2.45,13.440001,1729430094223.0,0.0
-3.469593,-6.501299,-6.932007,-2.59,0.21,12.53,1729430094236.0,0.0
-4.395615,-8.963513,-5.647062,21.42,-2.03,1.4,1729430094256.0,0.0
-2.715853,-5.412565,-7.525427,-67.690002,-6.93,-28.49,1729430094277.0,0.0
-0.650848,-6.924829,-8.539984,-104.510002,-30.24,-15.4,1729430094297.0,0.0
-0.595813,-7.216753,-9.674182,-80.57,-15.4,-20.58,1729430094316.0,0.0
-1.579263,-5.335995,-11.428121,-10.78,4.06,-18.27,1729430094340.0,0.0
-2.928815,-5.60399,-11.38505,8.75,20.58,-3.29,1729430094356.0,0.0
-2.380858,-8.355737,-9.784252,9.45,33.599998,4.34,1729430094376.0,0.0
-1.270589,-9.265009,-5.139783,63.77,42.700001,8.05,1729430094397.0,0.0
-2.538785,-7.987241,1.395016,119.279999,41.720001,5.11,1729430094418.0,0.0
-3.208775,-4.644469,0.476172,134.399994,10.15,2.66,1729430094437.0,0.0
-3.725625,-2.880959,-4.503292,94.779999,-21.49,19.879999,1729430094458.0,0.0
-5.101498,-4.692325,-7.240681,28.280001,-23.73,30.309999,1729430094479.0,0.0
-5.290531,-7.690532,-6.632904,9.52,-17.15,27.58,1729430094499.0,0.0
-4.517649,-8.726624,-5.522634,33.740002,-27.09,32.759998,1729430094518.0,0.0
-3.627519,-8.133204,-5.417351,76.510002,-28.91,22.889999,1729430094541.0,0.0
-3.720839,-7.79103,-6.556334,110.879997,-20.370001,11.13,1729430094556.0,0.0
-4.61097,-8.432307,-5.843273,76.019997,-16.309999,-5.04,1729430094578.0,0.0
-4.453043,-9.796216,-4.252046,62.299999,-31.5,-13.72,1729430094599.0,0.0
-3.220739,-10.729417,-3.787838,96.949997,-39.970001,-22.120001,1729430094617.0,0.0
-2.225325,-11.387443,-4.651647,161.559998,-36.400002,-18.27,1729430094638.0,0.0
-2.452643,-10.990234,-4.448257,209.930008,-33.32,-21.35,1729430094656.0,0.0
-1.85683,-9.310472,-6.443871,244.790009,-29.68,-13.37,1729430094677.0,0.0
-1.840081,-8.212167,-6.888937,269.570007,-10.71,-2.1,1729430094699.0,0.0
-2.490928,-8.037491,-5.807381,262.290009,2.24,-11.13,1729430094717.0,0.0
-3.105884,-7.415358,-3.711268,239.259995,3.78,-8.75,1729430094737.0,0.0
-3.546163,-6.76451,-1.787439,189.070007,4.48,-4.06,1729430094757.0,0.0
-4.237689,-6.326623,0.547956,123.690002,18.620001,-2.1,1729430094779.0,0.0
-5.376673,-5.745167,2.519642,34.23,29.540001,-1.05,1729430094798.0,0.0
-4.558327,-6.520442,2.622534,-97.370003,6.65,-15.54,1729430094818.0,0.0
-3.208775,-8.839087,0.693919,-258.230011,-2.24,-41.650002,1729430094838.0,0.0
-3.067599,-9.80818,-2.443072,-316.959991,6.23,-28.139999,1729430094856.0,0.0
-2.031506,-8.568698,-4.383651,-241.009995,21.210001,-30.1,1729430094878.0,0.0
-1.392623,-7.817351,-3.168097,-111.580002,19.18,-3.43,1729430094897.0,0.0
-1.371087,-6.826723,-2.74696,-33.459999,17.01,14.56,1729430094917.0,0.0
-1.598405,-7.755138,-6.608976,-30.24,36.75,29.82,1729430094941.0,0.0
-2.304288,-9.018548,-10.96152,47.32,53.41,52.150002,1729430094956.0,0.0
-5.577669,-11.985649,-2.723032,242.199997,70.0,98.910004,1729430094977.0,0.0
-6.927221,-7.678568,2.0004,348.390015,58.029999,95.900002,1729430095000.0,0.0
-8.039884,-5.611169,5.197211,336.839996,30.870001,96.879997,1729430095018.0,0.0
-6.9009,-7.630712,3.811767,240.729996,3.5,53.549999,1729430095037.0,0.0
-8.030313,-8.714661,3.988836,146.160004,-11.62,55.510002,1729430095056.0,0.0
-6.151947,-9.238688,1.325624,126.209999,-24.219999,27.440001,1729430095076.0,0.0
-7.666604,-9.504292,3.778267,130.270004,3.92,13.37,1729430095102.0,0.0
-7.223931,-10.590633,3.414558,154.699997,9.03,0.28,1729430095119.0,0.0
-4.603791,-10.193424,3.517449,164.430008,-3.71,-10.64,1729430095139.0,0.0
-3.352344,-7.673782,6.599405,132.789993,11.34,-17.290001,1729430095157.0,0.0
-3.330809,-6.84108,5.845665,56.139999,12.18,-7.98,1729430095176.0,0.0
-3.227918,-8.889337,2.878566,-30.309999,0.42,-13.93,1729430095199.0,0.0
-2.467,-9.365508,1.476372,-74.410004,-8.61,-8.96,1729430095217.0,0.0
-4.058227,-8.336594,3.333202,-92.68,2.73,-11.55,1729430095237.0,0.0
-4.54397,-9.255438,2.794817,-145.110001,-16.799999,-19.879999,1729430095256.0,0.0
-4.208975,-9.413363,1.792224,-154.630005,-26.25,-27.02,1729430095276.0,0.0
-4.347759,-9.367901,0.098106,-156.800003,0.07,-34.790001,1729430095297.0,0.0
-4.864608,-7.798209,-1.914258,-207.270004,32.619999,-57.610001,1729430095318.0,0.0
-5.312066,-6.455836,-0.153141,-275.799988,40.040001,-45.43,1729430095340.0,0.0
-7.171289,-6.585048,1.402194,-341.809998,-56.209999,-7.98,1729430095357.0,0.0
-2.244468,-9.815358,-1.679761,-318.98999,-97.860001,-56.279999,1729430095376.0,0.0
-2.402394,-9.932607,-1.478764,-254.940002,-30.73,-44.869999,1729430095397.0,0.0
-2.256432,-6.159126,-3.215954,-224.070007,-11.97,-60.34,1729430095417.0,0.0
-3.936193,-1.674976,-3.84048,-290.920013,-31.57,-25.549999,1729430095437.0,0.0
-3.952943,-4.065405,-5.678168,-320.390015,-56.420002,-11.34,1729430095456.0,0.0
-3.146562,-4.144369,-8.645268,-343.140015,-46.27,-17.360001,1729430095477.0,0.0
-3.311667,-2.648855,-11.337193,-341.320007,-36.610001,0.14,1729430095499.0,0.0
-3.244668,-4.086941,-14.230117,-309.399994,-18.34,10.92,1729430095516.0,0.0
-4.699504,-8.587841,-8.468199,-226.800003,1.96,10.08,1729430095537.0,0.0
-3.584448,-8.389235,-7.759924,-113.75,13.3,-1.75,1729430095556.0,0.0
-2.775674,-4.31426,-7.02772,-26.74,13.3,-7.07,1729430095577.0,0.0
-3.275774,-3.259024,-9.24108,-48.09,15.75,-0.07,1729430095599.0,0.0
-3.818945,-5.436492,-10.284351,-41.93,15.190001,17.01,1729430095617.0,0.0
-4.089334,-5.510671,-8.152347,9.45,22.190001,20.790001,1729430095638.0,0.0
-5.02732,-6.680761,-7.463214,15.05,24.639999,17.219999,1729430095660.0,0.0
-4.548756,-8.647661,-9.262616,47.32,21.49,13.16,1729430095676.0,0.0
-3.692125,-8.736196,-9.509077,124.739998,24.92,10.36,1729430095697.0,0.0
-3.101098,-7.436893,-9.169296,210.699997,31.639999,11.62,1729430095717.0,0.0
-3.431308,-5.278566,-4.275974,240.729996,32.34,15.89,1729430095736.0,0.0
-3.481557,-4.134798,-2.230111,129.570007,16.870001,6.79,1729430095755.0,0.0
-3.897908,-7.331609,-4.127619,-18.27,4.55,5.04,1729430095776.0,0.0
-4.268795,-10.037891,-5.072784,-57.119999,-7.63,-4.2,1729430095797.0,0.0
-3.771089,-6.776474,-7.228717,18.34,-16.24,-5.46,1729430095816.0,0.0
-3.156133,-6.297909,-7.484749,89.599998,-20.09,-6.65,1729430095837.0,0.0
-3.328416,-6.625726,-7.243074,74.269997,-18.200001,1.26,1729430095857.0,0.0
-4.682754,-6.262017,-6.675975,79.099998,-14.0,-4.13,1729430095876.0,0.0
-5.596812,-1.399801,-9.631111,101.080002,-9.24,14.7,1729430095899.0,0.0
-1.198804,-7.80778,-9.49472,202.509995,1.68,35.630001,1729430095915.0,0.0
-2.175076,-11.143374,-6.300302,264.73999,16.1,28.07,1729430095936.0,0.0
-1.974079,-11.937792,-6.376873,323.820007,27.860001,0.14,1729430095956.0,0.0
-1.426122,-10.336994,-7.704889,360.779999,24.57,-8.54,1729430095976.0,0.0
-3.0006,-7.058826,-6.300302,371.209991,26.460001,-0.91,1729430095997.0,0.0
-4.701896,-6.269196,-1.021735,336.980011,21.84,-16.379999,1729430096016.0,0.0
-4.768896,-5.79063,1.725225,240.869995,-1.05,-15.75,1729430096036.0,0.0
-3.294917,-6.63769,2.378466,113.400002,-19.6,-27.02,1729430096055.0,0.0
-3.436093,-8.645268,0.772882,21.210001,-7.28,-37.170002,1729430096076.0,0.0
-4.13719,-9.265009,-1.06002,-0.98,25.129999,-35.84,1729430096099.0,0.0
-4.455436,-7.956135,-1.282553,-14.0,28.280001,-32.900002,1729430096115.0,0.0
-3.620341,-7.006185,-0.200997,-57.68,-1.4,-25.549999,1729430096136.0,0.0
-2.76371,-7.109076,-0.272782,-131.110001,-3.85,-32.549999,1729430096155.0,0.0
-1.861616,-10.4016,-2.447858,-197.259995,3.78,-53.830002,1729430096176.0,0.0
-2.069792,-8.286345,-5.302495,-116.059998,35.84,-28.84,1729430096197.0,0.0
-1.368695,-3.704089,-2.122434,44.869999,14.98,25.969999,1729430096216.0,0.0
0.351745,-2.359323,-0.964308,78.959999,-14.0,44.799999,1729430096236.0,0.0
-4.465007,-9.016156,-0.5001,-55.93,41.720001,30.870001,1729430096264.0,0.0
-5.008178,-12.035898,-5.051248,3.01,73.639999,62.02,1729430096276.0,0.0
-3.515057,-10.593026,-3.369094,86.379997,-16.799999,72.379997,1729430096300.0,0.0
-5.936593,-8.762517,-0.988236,158.479996,-37.380001,100.940002,1729430096316.0,0.0
-9.707682,-4.704289,9.690931,313.459991,-51.450001,138.389999,1729430096341.0,0.0
-6.02752,-7.432107,4.065405,480.690002,-50.259998,101.779999,1729430096356.0,0.0
-8.020741,-14.653646,2.931208,422.170013,73.220001,-35.209999,1729430096376.0,0.0
-11.696117,-11.56451,7.104291,235.339996,25.549999,18.83,1729430096399.0,0.0
-6.642475,-8.042276,5.4006,92.610001,1.82,-15.75,1729430096417.0,0.0
-3.160919,-7.661818,2.895315,-1.82,-14.21,-48.23,1729430096439.0,0.0
-4.546363,-9.226725,6.24766,-4.55,-8.33,-47.810001,1729430096456.0,0.0
-2.112862,-6.541977,5.424529,16.73,-9.17,-40.740002,1729430096476.0,0.0
-2.962314,-6.91765,7.226324,-16.17,-10.22,-24.360001,1729430096497.0,0.0
-2.665605,-7.271788,6.005985,-97.300003,-29.26,-14.21,1729430096516.0,0.0
-2.24686,-6.821937,4.871787,-184.100006,-33.459999,-17.219999,1729430096536.0,0.0
-2.902494,-8.214561,3.608376,-226.940002,-40.529999,-9.24,1729430096556.0,0.0
-3.069991,-8.032705,0.861416,-242.690002,-34.299999,-23.1,1729430096576.0,0.0
-3.488736,-7.597212,0.744168,-259.910004,-7.77,-26.460001,1729430096598.0,0.0
-3.749553,-5.075177,0.138784,-287.420013,-0.7,-19.460001,1729430096617.0,0.0
-4.04387,-5.656632,-1.722832,-337.610016,9.45,-18.549999,1729430096638.0,0.0
-5.807381,-10.403993,-0.306281,-423.220001,5.18,-51.099998,1729430096655.0,0.0
-7.783852,-9.623933,-4.457829,-528.780029,-92.959999,-46.27,1729430096676.0,0.0
-2.816352,-9.506684,-7.405786,-423.920013,-97.090004,-54.529999,1729430096696.0,0.0
-3.213561,-7.685746,-4.041477,-293.440002,-67.550003,-32.689999,1729430096716.0,0.0
-3.20399,-2.59382,-11.940186,-278.950012,-34.860001,-40.740002,1729430096738.0,0.0
-3.816552,-4.402793,-7.501499,-201.529999,-35.560001,-4.9,1729430096755.0,0.0
-2.854637,-0.741775,-9.064013,-210.350006,-36.400002,1.33,1729430096776.0,0.0
-2.658426,-1.160519,-15.74238,-237.790009,-2.94,15.89,1729430096797.0,0.0
-5.347959,-7.668997,-5.453243,-282.100006,4.13,3.57,1729430096816.0,0.0
-4.177868,-9.860823,-7.965706,-249.550003,-8.19,-13.86,1729430096836.0,0.0
-1.215554,-8.520842,-9.745967,-101.639999,-7.98,-25.76,1729430096856.0,0.0
-2.488536,-4.259224,-8.815158,24.92,14.0,-14.14,1729430096875.0,0.0
-3.988836,-1.804188,-7.750352,-0.21,24.08,-4.41,1729430096896.0,0.0
-2.517249,-5.178068,-9.389436,-26.040001,13.58,13.02,1729430096916.0,0.0
-2.938386,-5.022535,-10.652846,53.48,29.75,22.82,1729430096936.0,0.0
-3.804588,-5.240282,-8.319844,109.830002,41.93,30.030001,1729430096955.0,0.0
-3.4672,-7.341179,-7.264609,129.990005,40.040001,29.610001,1729430096980.0,0.0
-3.235096,-7.996813,-7.76471,182.699997,42.630001,27.65,1729430096997.0,0.0
-3.04367,-8.061419,-6.955935,272.579987,43.119999,28.35,1729430097016.0,0.0
-3.586841,-5.962914,-3.28056,328.860016,41.509998,33.740002,1729430097036.0,0.0
-3.974478,-6.178268,-3.476771,322.630005,26.18,43.119999,1729430097055.0,0.0
-3.634698,-8.650054,-5.144568,325.5,8.33,47.740002,1729430097075.0,0.0
-4.223332,-11.126624,-4.474578,417.690002,-3.5,63.07,1729430097097.0,0.0
-4.816752,-12.210573,-6.022735,518.559998,-13.37,63.209999,1729430097116.0,0.0
-5.63749,-10.717452,-1.306481,544.73999,2.52,43.119999,1729430097135.0,0.0
-4.788038,-9.059227,-1.172483,486.709991,-6.37,37.029999,1729430097155.0,0.0
-4.476971,-9.516255,-5.563312,427.350006,-9.73,59.010002,1729430097176.0,0.0
-2.062613,-7.135397,-0.519243,372.470001,11.69,-13.09,1729430097196.0,0.0
-4.352544,-8.499306,1.038485,344.26001,13.93,8.54,1729430097217.0,0.0
-4.232903,-13.406984,2.282753,372.26001,-20.790001,-46.130001,1729430097235.0,0.0
-1.129412,-8.628519,3.433701,412.579987,0.07,-93.519997,1729430097255.0,0.0
-1.945365,-3.007778,5.022535,472.570007,51.869999,-81.480003,1729430097276.0,0.0
-4.438686,0.258425,6.855437,414.540009,63.139999,-66.639999,1729430097296.0,0.0
-6.293124,3.081956,7.88435,254.940002,40.25,-18.48,1729430097315.0,0.0
-6.486942,1.024128,6.905686,97.510002,-14.63,-27.58,1729430097339.0,0.0
-3.696911,-0.117248,6.288338,33.389999,-37.240002,-39.970001,1729430097355.0,0.0
-4.156333,-0.899701,8.054241,47.040001,-1.33,-16.17,1729430097375.0,0.0
-5.036892,-0.976272,8.784052,50.889999,18.969999,-8.96,1729430097396.0,0.0
-4.852644,-0.366102,9.930215,11.2,22.68,5.46,1729430097417.0,0.0
-5.067998,-1.959722,10.001998,-86.309998,16.24,7.21,1729430097436.0,0.0
-4.905287,-5.048856,8.898908,-198.380005,-14.7,-6.58,1729430097456.0,0.0
-4.005585,-6.151947,7.152147,-236.949997,-27.370001,-1.82,1729430097475.0,0.0
-4.015156,-6.271588,6.489335,-204.470001,-10.64,-0.21,1729430097499.0,0.0
-3.524628,-9.274581,5.816952,-140.699997,-9.59,-20.790001,1729430097516.0,0.0
-2.78046,-10.734202,3.335595,-67.970001,6.09,-46.34,1729430097535.0,0.0
-3.534199,-9.626326,6.903293,37.380001,8.96,-54.950001,1729430097555.0,0.0
-4.237689,-5.776274,9.576077,154.210007,-8.19,-35.84,1729430097575.0,0.0
-2.667997,-4.323831,5.302495,262.429993,11.34,-49.349998,1729430097596.0,0.0
-3.842873,-6.668797,4.09412,273.0,-6.37,-77.419998,1729430097616.0,0.0
-0.863809,2.522035,8.566305,298.899994,2.73,-53.48,1729430097636.0,0.0
-4.881358,2.801995,13.012171,237.790009,55.650002,-35.77,1729430097655.0,0.0
-3.684947,0.811167,11.4018,99.889999,-47.040001,-25.200001,1729430097675.0,0.0
-1.490728,-1.663012,8.595018,81.690002,-45.220001,-7.84,1729430097700.0,0.0
-0.933201,2.62732,5.486742,106.610001,23.1,5.46,1729430097716.0,0.0
-4.063013,0.349352,5.469993,13.93,41.16,3.71,1729430097735.0,0.0
-5.611169,-4.905287,8.372486,-99.959999,0.14,-0.49,1729430097755.0,0.0
-4.208975,-6.613762,9.535398,-74.690002,4.83,-3.64,1729430097775.0,0.0
-3.014957,-3.26381,10.183852,8.05,37.73,-8.82,1729430097796.0,0.0
-2.562713,-0.787239,8.458629,-15.47,24.85,-2.94,1729430097816.0,0.0
-1.603191,-1.543371,8.449057,-51.73,-5.18,-6.72,1729430097836.0,0.0
-1.074377,-0.009571,10.274779,-45.779999,10.29,3.57,1729430097855.0,0.0
-2.120041,-2.699104,7.910671,-39.970001,-3.43,5.11,1729430097875.0,0.0
-1.5003,-1.627119,8.145168,-19.32,11.9,-0.7,1729430097980.0,0.0
-6.020342,-6.084948,7.707282,-18.969999,23.940001,14.77,1729430097982.0,0.0
-4.790431,-6.855437,9.49472,-1.26,-11.48,-32.41,1729430097983.0,0.0
-5.125426,-3.103491,9.896714,60.900002,13.58,-12.88,1729430097983.0,0.0
-4.867002,-0.138784,11.413764,32.900002,17.780001,-28.98,1729430097983.0,0.0
-4.488935,-2.07697,10.614561,-80.639999,-32.41,-33.810001,1729430097996.0,0.0
-3.287738,-5.486742,4.436293,-106.82,-74.830002,-44.59,1729430098015.0,0.0
-1.885544,-5.455636,4.309474,67.480003,-30.52,-53.900002,1729430098035.0,0.0
-2.682354,1.100698,8.953942,250.110001,49.209999,-39.619999,1729430098055.0,0.0
-5.096712,4.398008,9.21476,199.710007,60.689999,-13.37,1729430098074.0,0.0
-5.089533,2.069792,9.054441,36.610001,3.78,-5.67,1729430098102.0,0.0
-2.974278,-2.29711,7.879565,-56.91,-47.389999,-14.91,1729430098120.0,0.0
-4.041477,4.369294,11.956935,19.460001,-20.23,-0.7,1729430098227.0,0.0
-6.013163,4.721039,10.112068,100.169998,31.01,40.599998,1729430098228.0,0.0
-4.130012,1.770689,7.704889,-6.86,15.61,75.809998,1729430098228.0,0.0
-1.794617,-2.739782,6.793223,-158.550003,-38.5,83.019997,1729430098228.0,0.0
-2.29711,-3.787838,8.075776,-270.76001,-41.790001,71.959999,1729430098251.0,0.0
-2.493321,-3.814159,7.448857,-305.480011,-33.950001,94.5,1729430098256.0,0.0
-1.993221,-4.888536,6.238089,-436.869995,-27.58,72.099998,1729430098274.0,0.0
-2.251646,-7.738388,2.421536,-569.450012,-37.029999,38.009998,1729430098299.0,0.0
-1.61037,-10.411172,1.418944,-624.679993,-64.610001,26.25,1729430098362.0,0.0
-1.036092,-11.023734,2.600998,-609.97998,-50.330002,11.62,1729430098363.0,0.0
-1.942972,-10.631311,4.13719,-522.340027,-26.67,-1.19,1729430098363.0,0.0
-2.395216,-8.262416,0.844666,-440.440002,-15.190001,-23.450001,1729430098374.0,0.0
-1.067199,-5.704489,-2.478964,-410.970001,-26.67,-46.830002,1729430098397.0,0.0
-1.194018,-3.842873,-4.962714,-406.070007,-29.33,-23.309999,1729430098415.0,0.0
-3.136991,-5.046463,-7.60439,-422.519989,-11.06,-3.57,1729430098443.0,0.0
-5.572884,-7.568498,-3.29731,-499.380005,-10.15,-17.5,1729430098457.0,0.0
-8.449057,-15.754344,-0.153141,-508.970001,-72.029999,-8.19,1729430098482.0,0.0
-2.105684,-9.140583,-13.205987,-283.850006,-80.919998,-34.509998,1729430098499.0,0.0
-1.160519,-3.125026,-12.476178,-198.520004,-37.450001,-28.0,1729430098515.0,0.0
-1.947758,-5.079963,-7.958528,-211.889999,-23.59,13.16,1729430098535.0,0.0
-3.735196,-5.206782,-6.376873,-152.809998,2.73,8.82,1729430098555.0,0.0
-3.488736,-7.465607,-9.913465,-169.330002,-18.059999,10.71,1729430098585.0,0.0
-2.517249,-5.221139,-9.784252,-84.559998,-1.61,24.710001,1729430098597.0,0.0
-3.589234,-4.118048,-8.831908,-42.77,22.120001,28.630001,1729430098616.0,0.0
-2.912065,-4.735396,-9.432507,-38.290001,18.059999,28.559999,1729430098635.0,0.0
-2.225325,-5.699703,-10.552348,6.72,18.83,28.210001,1729430098655.0,0.0
-2.493321,-5.558527,-10.444671,41.720001,32.060001,27.02,1729430098675.0,0.0
-3.069991,-6.766902,-8.738588,26.880001,42.84,20.790001,1729430098696.0,0.0
-2.868994,-8.159525,-8.664411,28.0,42.209999,19.6,1729430098715.0,0.0
-2.416751,-6.862615,-5.168497,76.510002,33.459999,22.68,1729430098735.0,0.0
-3.012564,-3.352344,-3.014957,77.07,17.85,24.01,1729430098754.0,0.0
-2.569891,-5.845665,-7.125826,13.72,1.54,28.700001,1729430098783.0,0.0
-2.167897,-7.975278,-9.602397,4.9,-4.13,36.189999,1729430098797.0,0.0
-2.361716,-6.501299,-8.35813,68.879997,-1.82,36.259998,1729430098815.0,0.0
-3.046063,-7.130611,-6.829116,111.020004,-2.1,30.380001,1729430098835.0,0.0
-3.223132,-6.63769,-6.34098,139.440002,-17.92,21.700001,1729430098854.0,0.0
-4.405186,-0.244068,-9.212367,150.919998,-26.67,23.17,1729430098875.0,0.0
-4.362115,-2.301895,-15.601204,124.739998,-26.950001,42.139999,1729430098895.0,0.0
-2.488536,-9.846465,-9.128618,216.020004,-5.88,28.700001,1729430098915.0,0.0
-2.311467,-9.049655,-8.51127,442.959991,11.06,47.810001,1729430098935.0,0.0
-2.512464,-8.439486,-8.267202,560.700012,37.380001,34.860001,1729430098956.0,0.0
-3.330809,-9.779467,-4.680361,572.669983,59.920002,42.139999,1729430098976.0,0.0
-2.993421,-7.9011,-2.804388,529.409973,54.459999,20.58,1729430098997.0,0.0
-3.76391,-9.501899,0.37328,513.030029,42.139999,17.85,1729430099017.0,0.0
-2.938386,-9.98525,1.799403,498.75,7.07,-7.49,1729430099036.0,0.0
-2.100898,-9.142976,-0.071785,477.820007,-15.05,-52.5,1729430099056.0,0.0
-3.184847,-6.994221,-0.909273,432.179993,49.630001,-63.560001,1729430099076.0,0.0
-5.608776,-4.697111,2.632105,347.130005,84.209999,-47.459999,1729430099097.0,0.0
-6.058627,-4.838287,5.194818,273.980011,13.3,-51.380001,1729430099116.0,0.0
-4.010371,-6.288338,5.436492,266.559998,-23.52,-76.160004,1729430099137.0,0.0
-2.897708,-3.026921,6.549156,293.579987,4.06,-70.0,1729430099158.0,0.0
-3.421736,-3.026921,7.896315,295.190002,32.549999,-48.02,1729430099176.0,0.0
-3.859623,0.787239,9.207582,230.020004,28.42,-42.0,1729430099197.0,0.0
-3.333202,-0.926022,9.102298,71.889999,-9.24,-38.920002,1729430099216.0,0.0
-2.821138,-3.328416,8.394022,13.51,-31.15,-29.75,1729430099236.0,0.0
-2.426322,-3.936193,8.822337,17.5,-38.150002,-13.65,1729430099256.0,0.0
-3.510271,-3.952943,7.922636,66.080002,-17.5,-1.75,1729430099276.0,0.0
-0.583849,1.395016,12.954741,139.300003,-3.36,16.17,1729430099297.0,0.0
-4.211368,1.177269,12.167502,-11.13,38.150002,18.48,1729430099316.0,0.0
-4.929214,-4.910072,8.606983,-232.680008,-62.510002,31.01,1729430099342.0,0.0
-2.998207,-5.072784,3.337988,-289.940002,-123.199997,23.66,1729430099356.0,0.0
-0.808774,-4.345366,4.63729,-144.899994,-53.27,73.010002,1729430099376.0,0.0
-1.988436,-2.510071,9.150154,-96.459999,6.3,48.299999,1729430099397.0,0.0
-2.194218,-2.751746,9.530612,-226.309998,-4.48,50.540001,1729430099416.0,0.0
-0.949951,-4.867002,4.622933,-411.25,-48.16,23.870001,1729430099438.0,0.0
-1.627119,-8.82473,2.005185,-463.820007,-98.980003,37.170002,1729430099456.0,0.0
-0.70349,-12.294323,3.029313,-345.029999,-108.080002,45.849998,1729430099476.0,0.0
-0.196211,-11.717653,3.385844,-233.660004,-34.860001,30.24,1729430099500.0,0.0
-1.799403,-9.075976,3.550949,-269.149994,12.11,1.96,1729430099516.0,0.0
-3.538985,-8.506484,2.734996,-363.230011,-26.18,6.23,1729430099536.0,0.0
-2.761317,-9.717253,-0.184247,-467.390015,-72.169998,-20.370001,1729430099556.0,0.0
-2.565106,-10.566705,-0.713061,-407.119995,-65.099998,-41.23,1729430099575.0,0.0
-3.409772,-12.332609,-0.303888,-244.509995,-55.790001,-37.799999,1729430099596.0,0.0
-4.98425,-10.344172,0.870987,-102.970001,-49.98,-23.309999,1729430099616.0,0.0
-2.48375,-7.551748,-0.622134,-63.07,-40.529999,-34.720001,1729430099636.0,0.0
-1.103091,-4.771288,-2.665605,-159.180008,-43.330002,-18.9,1729430099655.0,0.0
-2.447858,-4.187439,-2.813959,-309.959991,-50.75,6.58,1729430099676.0,0.0
-2.861816,-7.379465,-8.556733,-380.450012,-53.760002,9.73,1729430099697.0,0.0
-1.222732,-5.532206,-10.822738,-333.690002,-36.889999,13.02,1729430099717.0,0.0
-0.667598,-5.453243,-12.033505,-254.449997,-20.16,40.25,1729430099736.0,0.0
-1.545763,-9.329616,-2.615355,-232.960007,-3.99,46.060001,1729430099755.0,0.0
-2.201397,-10.403993,-7.73121,-276.360016,-7.98,2.1,1729430099775.0,0.0
-1.481157,-8.221739,-10.669596,-253.050003,-22.82,-6.02,1729430099798.0,0.0
-1.885544,-6.625726,-9.028119,-75.949997,-7.56,-1.33,1729430099816.0,0.0
-4.067799,-1.993221,-6.752545,-30.799999,10.92,6.58,1729430099836.0,0.0
-4.589434,-2.474179,-9.243474,-107.099998,7.14,19.040001,1729430099856.0,0.0
-2.785245,-5.726025,-11.672189,-107.520004,11.34,24.710001,1729430099876.0,0.0
-3.294917,-5.587241,-10.205389,11.83,22.049999,32.27,1729430099896.0,0.0
-3.400201,-7.377072,-8.726624,12.46,27.02,24.99,1729430099916.0,0.0
-2.56032,-7.972885,-7.188039,60.34,24.710001,17.639999,1729430099937.0,0.0
-2.002793,-7.310073,-6.522834,129.080002,23.17,18.059999,1729430099955.0,0.0
-1.050449,-8.535198,-8.492127,196.630005,17.92,17.92,1729430099976.0,0.0
-3.002992,-6.429514,-1.153341,235.690002,25.129999,18.9,1729430099997.0,0.0
-4.426722,-3.158526,-1.007378,94.150002,-0.7,-12.32,1729430100016.0,0.0
-2.376073,-8.248059,-8.094919,-62.720001,-32.830002,4.62,1729430100036.0,0.0
-0.949951,-10.442278,-8.023134,-36.400002,-46.060001,-7.07,1729430100055.0,0.0
-2.553142,-7.039684,-8.492127,-0.91,-26.67,-19.6,1729430100076.0,0.0
-3.084348,-4.601398,-9.267403,-25.9,-17.780001,-30.870001,1729430100099.0,0.0
