acc_x,acc_y,acc_z,gyr_x,gyr_y,gyr_z,timestamp,label
-4.005585,-9.382257,0.72024,-292.950012,-229.529999,61.25,1729420183843.0,0.0
-1.95015,-7.326823,-6.74776,-259.559998,-202.930008,29.610001,1729420183846.0,0.0
-4.223332,-8.798409,-12.253645,-291.899994,-124.529999,16.17,1729420183848.0,0.0
-5.328816,-15.3021,-17.024933,-219.029999,23.59,-11.27,1729420183849.0,0.0
-6.415157,-19.865213,-4.546363,23.309999,41.580002,-0.49,1729420183856.0,0.0
-3.323631,-12.691531,-5.771489,98.139999,42.420002,-23.940001,1729420183877.0,0.0
-1.143769,-9.020942,-5.800202,66.57,48.509998,-54.810001,1729420183908.0,0.0
-0.155533,-4.110869,1.543371,5.67,59.360001,-45.709999,1729420183917.0,0.0
-0.62692,1.141376,11.949757,-28.91,43.049999,-3.08,1729420183937.0,0.0
-2.347359,-7.460821,10.626525,-34.02,-22.469999,25.9,1729420183956.0,0.0
-4.280759,-7.073184,4.59422,-174.580002,17.710001,-31.85,1729420183978.0,0.0
-4.187439,-11.227123,-1.316052,-167.649994,-24.57,-43.959999,1729420183999.0,0.0
-2.811567,-10.920842,-1.775474,-160.020004,-189.139999,-1.12,1729420184017.0,0.0
-1.849652,-7.752745,-6.872187,-160.789993,-196.839996,0.14,1729420184036.0,0.0
-3.589234,-9.135797,-21.987646,-221.130005,-60.970001,-16.66,1729420184057.0,0.0
-6.142376,-15.488741,-17.36232,-173.460007,95.410004,-23.73,1729420184077.0,0.0
-5.881558,-18.266808,-9.68136,0.56,105.0,-5.81,1729420184097.0,0.0
-2.495714,-11.143374,-5.625526,131.460007,95.760002,-6.02,1729420184117.0,0.0
0.038285,-3.835695,0.191426,78.68,77.0,-30.52,1729420184136.0,0.0
0.155533,-2.711068,4.548756,48.439999,71.82,-5.67,1729420184157.0,0.0
-0.614955,-1.945365,9.071191,-11.76,63.630001,-7.49,1729420184180.0,0.0
-2.251646,-3.912265,7.489535,-74.410004,20.23,15.26,1729420184197.0,0.0
-2.689533,-6.34098,-0.727418,-178.430008,15.190001,-18.620001,1729420184216.0,0.0
-2.069792,-9.549755,-5.20439,-232.889999,-47.950001,-42.0,1729420184237.0,0.0
0.344566,-10.999805,-9.138189,-249.550003,-201.320007,-13.3,1729420184256.0,0.0
-2.172683,-9.047262,-19.456039,-341.670013,-82.389999,-50.68,1729420184278.0,0.0
-4.85743,-10.205389,-19.204794,-107.870003,115.849998,-43.189999,1729420184298.0,0.0
-6.02752,-10.444671,-9.420543,72.029999,102.480003,23.73,1729420184317.0,0.0
-3.122634,-5.685347,-9.030513,25.620001,45.639999,25.27,1729420184336.0,0.0
-0.811167,-4.955536,-7.257431,31.01,10.99,26.32,1729420184358.0,0.0
0.105284,-9.028119,-7.970492,87.57,47.459999,21.700001,1729420184377.0,0.0
0.009571,-6.577869,-2.574677,59.5,83.510002,8.19,1729420184401.0,0.0
-0.454636,-2.380858,1.734797,11.48,53.200001,8.4,1729420184417.0,0.0
-1.639083,-2.792424,1.514657,3.43,-2.31,10.85,1729420184436.0,0.0
-2.998207,-5.647062,-0.433101,-26.74,-12.81,-3.71,1729420184457.0,0.0
-1.773082,-4.68754,-3.89073,-90.230003,-86.239998,-22.540001,1729420184478.0,0.0
-0.265603,-4.259224,-6.465407,-91.840004,-148.610001,11.55,1729420184497.0,0.0
-2.344966,-7.255038,-11.018949,-113.470001,-117.389999,14.14,1729420184516.0,0.0
-6.56112,-12.440285,-21.717258,-132.020004,66.57,-22.190001,1729420184537.0,0.0
-8.171489,-14.266008,-12.732209,-10.43,104.090004,-12.53,1729420184556.0,0.0
-3.306881,-7.06122,-9.743573,205.800003,-5.18,51.170002,1729420184576.0,0.0
-0.155533,-0.40678,-9.379865,245.979996,-13.86,54.670002,1729420184600.0,0.0
0.70349,-3.917051,-6.278766,81.480003,94.989998,8.82,1729420184617.0,0.0
-0.902094,-10.454242,1.557728,87.220001,118.020004,8.61,1729420184636.0,0.0
-0.823131,-13.713267,3.302095,240.940002,52.080002,29.540001,1729420184656.0,0.0
0.318245,-2.065006,3.019742,255.710007,-12.81,18.27,1729420184678.0,0.0
0.299103,-2.778067,-0.425922,259.209991,-45.220001,-0.42,1729420184698.0,0.0
-1.122234,-6.178268,-3.885944,160.089996,5.11,25.059999,1729420184716.0,0.0
-3.086741,-10.430314,-5.505885,157.850006,8.96,41.299999,1729420184737.0,0.0
-4.438686,-11.789437,-5.000999,141.960007,40.529999,50.400002,1729420184756.0,0.0
-5.194818,-9.923036,-5.960521,76.090004,70.0,50.540001,1729420184777.0,0.0
-5.036892,-10.200603,-5.558527,44.939999,52.220001,43.82,1729420184797.0,0.0
-4.04387,-11.947363,-2.242075,59.080002,19.389999,28.280001,1729420184816.0,0.0
-2.431108,-11.083554,-0.842274,31.85,0.91,5.04,1729420184837.0,0.0
-3.314059,-10.315458,0.229711,16.52,-3.5,12.88,1729420184857.0,0.0
-4.106083,-10.195816,0.181855,14.56,19.389999,-5.39,1729420184878.0,0.0
-4.780859,-9.221939,0.368495,-22.049999,13.09,-30.17,1729420184897.0,0.0
-4.146761,-7.728817,-0.717847,-109.620003,-26.950001,-43.68,1729420184916.0,0.0
-2.696711,-7.439285,-2.196611,-237.440002,-66.080002,-66.57,1729420184936.0,0.0
-2.069792,-10.990234,-4.656433,-308.839996,-79.660004,-69.720001,1729420184956.0,0.0
-1.768296,-10.193424,-8.439486,-328.790009,-44.099998,-78.050003,1729420184977.0,0.0
-3.062813,-8.329416,-5.773881,-317.799988,-44.52,-96.739998,1729420184997.0,0.0
-4.084548,-8.154739,-7.439285,-339.920013,-35.98,-104.019997,1729420185016.0,0.0
-3.081956,-10.490135,-5.486742,-254.309998,-48.720001,-100.169998,1729420185036.0,0.0
-1.210768,-6.888937,-4.584648,-191.589996,-73.989998,-77.349998,1729420185056.0,0.0
0.275175,-4.962714,-7.982457,-165.550003,-49.98,-87.57,1729420185077.0,0.0
-1.402194,-5.716454,-10.578669,-185.850006,25.34,-80.989998,1729420185097.0,0.0
-3.113062,-3.428915,-10.760524,-222.320007,48.16,-80.919998,1729420185116.0,0.0
-3.074777,-5.584848,-6.673582,-180.320007,-20.65,-40.32,1729420185137.0,0.0
0.196211,0.22014,-11.904292,-262.429993,-35.98,-56.209999,1729420185156.0,0.0
-2.545963,-6.563512,-12.177074,-189.139999,16.52,-24.290001,1729420185180.0,0.0
-1.323231,-7.690532,-10.758131,-39.34,16.030001,-41.23,1729420185199.0,0.0
-1.976472,1.337588,-6.101698,-6.58,21.98,9.8,1729420185217.0,0.0
-2.720639,2.304288,-5.563312,-25.549999,48.509998,-12.11,1729420185237.0,0.0
-2.773281,-0.191426,-8.382057,-130.970001,42.209999,-11.97,1729420185257.0,0.0
1.713261,-5.79781,-15.311671,-154.910004,-24.290001,-9.17,1729420185277.0,0.0
2.199004,-3.68734,-12.332609,-69.019997,-56.77,17.01,1729420185297.0,0.0
-1.646262,-2.462214,-9.987641,-39.970001,13.51,7.7,1729420185317.0,0.0
-4.311867,-1.337588,-8.784052,-20.860001,10.71,22.889999,1729420185337.0,0.0
-1.808974,-1.804188,-8.91805,-28.0,-61.880001,13.440001,1729420185356.0,0.0
-0.775275,-3.366701,-10.600205,-50.959999,-87.639999,11.97,1729420185377.0,0.0
-1.366302,-2.210968,-11.569297,-22.610001,-60.34,13.58,1729420185398.0,0.0
-2.287539,-1.095913,-11.246266,19.879999,-38.57,15.47,1729420185416.0,0.0
-3.0006,-0.741775,-10.459028,31.360001,-22.190001,18.41,1729420185436.0,0.0
-2.493321,-1.617548,-9.889536,34.860001,-27.370001,18.83,1729420185456.0,0.0
-1.672583,-2.40718,-9.765109,26.6,-26.950001,11.97,1729420185477.0,0.0
-2.423929,-2.507678,-10.727024,53.060001,2.24,26.040001,1729420185499.0,0.0
-0.973879,-3.144169,-12.672389,142.940002,9.03,28.84,1729420185516.0,0.0
-2.086541,-1.753939,-7.267002,109.059998,3.5,19.460001,1729420185537.0,0.0
-2.663212,-1.990828,-7.410572,92.610001,30.17,14.28,1729420185556.0,0.0
-2.928815,-1.730011,-6.869793,84.279999,5.95,14.84,1729420185576.0,0.0
-2.529213,-3.165704,-7.779066,94.57,-3.57,23.450001,1729420185597.0,0.0
-2.428715,-3.369094,-10.267602,133.630005,3.15,29.68,1729420185618.0,0.0
-3.072384,-3.184847,-8.745767,223.440002,25.27,40.810001,1729420185635.0,0.0
-3.397808,-4.398008,-7.097112,246.119995,15.47,53.060001,1729420185656.0,0.0
-2.883351,-6.022735,-8.348558,237.930008,-22.82,51.869999,1729420185677.0,0.0
-1.562513,-7.601997,-9.88475,232.470001,-55.650002,47.529999,1729420185697.0,0.0
-0.832702,-7.164111,-7.487142,185.990005,-55.09,43.610001,1729420185717.0,0.0
-0.064606,-5.611169,-5.572884,129.080002,-31.219999,43.75,1729420185737.0,0.0
0.684347,-6.276374,-5.402994,125.160004,-0.56,30.1,1729420185756.0,0.0
-1.629512,-2.871387,-0.583849,87.080002,0.49,40.25,1729420185777.0,0.0
-2.971886,2.416751,-3.795017,-136.360001,13.09,16.450001,1729420185799.0,0.0
-1.531406,-4.651647,-10.339387,-321.720001,54.740002,-60.130001,1729420185816.0,0.0
-1.603191,-9.499505,-12.96192,-350.910004,32.830002,-85.050003,1729420185835.0,0.0
-2.991028,-10.655239,-7.982457,-261.589996,-3.08,-49.279999,1729420185857.0,0.0
-4.139583,-7.386643,-10.193424,-204.820007,20.719999,-72.379997,1729420185877.0,0.0
-7.37468,-12.815958,-13.430914,-115.5,49.630001,-83.230003,1729420185898.0,0.0
-4.122833,-5.314459,-11.688939,26.6,5.39,-38.080002,1729420185923.0,0.0
-2.699104,-1.20359,-7.125826,98.139999,-28.42,30.1,1729420185936.0,0.0
-2.545963,-3.570091,-8.128418,30.52,33.040001,-8.19,1729420185956.0,0.0
-3.87398,-5.814559,-6.58744,-11.41,36.049999,-35.77,1729420185977.0,0.0
-3.617948,-7.01097,-10.387242,-24.639999,-3.08,-47.110001,1729420185996.0,0.0
-2.096112,-5.259424,-9.647861,-3.78,-43.049999,-54.18,1729420186016.0,0.0
-1.660619,-3.866802,-7.810174,28.07,-51.240002,-28.84,1729420186037.0,0.0
-0.098106,-5.350351,-10.91845,31.08,-54.950001,-58.450001,1729420186057.0,0.0
-1.304088,-3.495914,-8.425128,68.809998,-22.540001,-29.960001,1729420186077.0,0.0
-3.28056,-2.361716,-8.372486,157.990005,11.97,-2.17,1729420186099.0,0.0
-3.448057,-1.85683,-9.734003,203.559998,55.16,20.790001,1729420186116.0,0.0
-2.254039,-5.032106,-11.449656,160.649994,28.0,10.08,1729420186136.0,0.0
-2.553142,-10.013963,-9.119047,175.279999,-12.74,32.900002,1729420186157.0,0.0
-1.785046,-10.750952,-4.326223,300.089996,-46.970001,43.259998,1729420186180.0,0.0
-0.861416,-7.594819,-4.21376,449.890015,-41.23,49.349998,1729420186200.0,0.0
-1.677369,-4.977071,-2.770889,525.0,-1.4,31.01,1729420186218.0,0.0
-4.953143,-8.449057,-2.330609,451.850006,27.58,32.549999,1729420186237.0,0.0
-3.002992,-11.57169,-2.514857,450.660004,0.63,22.610001,1729420186257.0,0.0
-2.421536,-10.889735,-1.962115,505.75,22.540001,36.540001,1729420186278.0,0.0
-2.524428,-5.417351,-0.801596,383.529999,121.660004,4.06,1729420186300.0,0.0
-4.895715,-7.353144,0.107677,215.529999,123.270004,3.99,1729420186317.0,0.0
-4.266403,-12.203396,1.782653,108.57,117.32,-32.34,1729420186337.0,0.0
-4.551149,-13.615161,4.957928,119.840004,105.769997,-18.76,1729420186357.0,0.0
-3.440879,-10.037891,1.344766,117.879997,99.889999,-36.400002,1729420186378.0,0.0
-3.842873,-6.372087,5.919843,56.91,80.57,-51.099998,1729420186398.0,0.0
-5.393422,-2.330609,9.243474,-89.18,59.43,-47.529999,1729420186416.0,0.0
-4.555934,-3.457629,3.493521,-272.440002,14.77,-106.260002,1729420186439.0,0.0
-3.940979,-12.220145,7.441679,-192.009995,8.4,-52.360001,1729420186460.0,0.0
-3.227918,-7.817351,9.561719,-55.439999,-53.970001,-21.0,1729420186480.0,0.0
-3.828516,-6.431907,5.886343,15.05,-23.940001,-0.91,1729420186498.0,0.0
-3.596412,-8.152347,-1.222732,-84.840004,-1.4,-59.290001,1729420186518.0,0.0
-3.074777,-10.100104,-5.099105,-185.360001,-9.31,-59.990002,1729420186538.0,0.0
-2.069792,-10.882557,-5.773881,-128.240005,-49.279999,-34.16,1729420186558.0,0.0
-2.354537,-10.82513,-2.244468,-95.129997,-27.790001,-27.719999,1729420186578.0,0.0
-2.328217,-10.202995,1.61037,-71.68,-19.879999,-15.68,1729420186600.0,0.0
-0.818345,-8.49452,3.378666,-77.07,-54.670002,-9.24,1729420186617.0,0.0
-0.473779,-5.352744,1.198804,-176.119995,-73.57,-10.5,1729420186643.0,0.0
-1.11027,-3.775874,-0.586242,-285.73999,-60.760002,-42.209999,1729420186657.0,0.0
-1.935793,-7.520642,-2.309074,-362.809998,-30.24,-66.919998,1729420186678.0,0.0
-2.261217,-11.62194,-7.121039,-369.110016,-9.66,-71.68,1729420186699.0,0.0
-2.639283,-10.487741,-5.178068,-316.329987,-40.18,-73.849998,1729420186717.0,0.0
-2.065006,-9.492328,-5.69731,-268.309998,-75.529999,-64.889999,1729420186737.0,0.0
-1.490728,-9.315259,-5.254639,-190.470001,-64.330002,-43.959999,1729420186758.0,0.0
-0.878166,-5.974878,-7.817351,-190.119995,-33.040001,-63.0,1729420186778.0,0.0
-2.007578,-6.477371,-7.319644,-181.160004,7.07,-62.16,1729420186800.0,0.0
-2.309074,-7.647461,-7.992027,-209.300003,14.63,-59.57,1729420186818.0,0.0
-1.59362,-4.323831,-10.514063,-261.589996,-29.610001,-50.189999,1729420186838.0,0.0
-0.366102,-6.360123,-7.956135,-224.630005,-48.509998,-22.68,1729420186857.0,0.0
-1.574477,-2.254039,-11.050055,-240.869995,-4.69,-19.040001,1729420186878.0,0.0
-3.010171,-7.06122,-11.873186,-112.699997,13.09,6.09,1729420186899.0,0.0
-0.538385,-3.974478,-7.826923,-41.509998,-33.599998,-10.57,1729420186917.0,0.0
-1.462015,0.366102,-3.498307,-74.970001,-19.040001,3.01,1729420186938.0,0.0
-2.598605,-2.35693,-4.086941,-81.900002,28.210001,-9.87,1729420186958.0,0.0
-2.155933,-1.634298,-11.990433,-132.580002,9.1,-7.56,1729420186978.0,0.0
-0.981057,-3.895515,-14.964713,-117.669998,-37.59,-8.54,1729420187000.0,0.0
-0.196211,-2.842674,-13.368701,-67.550003,-50.119999,9.38,1729420187017.0,0.0
-1.39023,-3.596412,-9.023334,-42.139999,-15.89,5.18,1729420187038.0,0.0
-3.213561,-3.797409,-5.276174,-54.880001,-15.89,10.92,1729420187058.0,0.0
-2.522035,-2.366502,-6.305088,-17.5,-41.16,14.28,1729420187078.0,0.0
-1.562513,-0.59342,-12.401999,55.369999,-37.029999,30.870001,1729420187098.0,0.0
-1.476372,-1.347159,-13.517055,94.779999,-16.799999,31.360001,1729420187118.0,0.0
-2.117648,-5.053641,-11.085947,91.07,13.440001,24.15,1729420187137.0,0.0
-1.557728,-2.672783,-9.812965,113.190002,8.89,36.82,1729420187157.0,0.0
-0.658026,-1.732404,-8.714661,110.809998,-17.219999,33.599998,1729420187181.0,0.0
-0.583849,-4.381258,-11.186446,119.139999,-3.22,29.049999,1729420187199.0,0.0
-1.887937,-7.984849,-11.169697,248.5,31.710001,42.07,1729420187217.0,0.0
-2.615355,-6.893722,-10.612168,397.459991,24.290001,74.340004,1729420187238.0,0.0
-1.878366,-3.148954,-6.381658,489.089996,19.389999,81.620003,1729420187257.0,0.0
-0.425922,-4.046263,-1.871187,414.610016,-37.029999,50.119999,1729420187278.0,0.0
1.366302,-4.773681,-3.885944,141.75,-57.330002,21.629999,1729420187300.0,0.0
1.823331,-6.458229,-4.811966,-41.16,-28.91,13.93,1729420187317.0,0.0
2.210968,-7.357929,-9.422935,-112.980003,8.54,-12.67,1729420187337.0,0.0
1.507478,-7.02772,-7.927422,-130.270004,36.68,-8.05,1729420187357.0,0.0
-1.617548,-9.059227,2.419144,-165.059998,69.090004,-11.97,1729420187378.0,0.0
-12.969098,-11.887544,-0.588634,-206.009995,49.630001,-6.44,1729420187398.0,0.0
-8.044669,-14.572289,-13.177275,69.300003,22.120001,-57.959999,1729420187417.0,0.0
-3.148954,-8.353344,-20.236101,119.139999,-157.080002,1.4,1729420187437.0,0.0
-2.158326,-5.726025,-7.24786,127.400002,-80.709999,6.23,1729420187457.0,0.0
-3.036492,-5.388636,-14.572289,65.800003,144.410004,-13.3,1729420187478.0,0.0
-4.053442,-5.938986,-8.078169,72.940002,97.860001,26.110001,1729420187498.0,0.0
-0.892523,-6.312266,-8.171489,67.129997,61.810001,33.880001,1729420187517.0,0.0
0.926022,-3.957729,0.655633,49.349998,64.610001,35.0,1729420187537.0,0.0
-1.098306,-5.936593,9.827322,43.119999,53.34,41.860001,1729420187559.0,0.0
-2.371287,-9.607183,4.101298,-12.88,15.89,8.96,1729420187577.0,0.0
-3.101098,-11.191232,-2.799603,-63.490002,31.290001,-28.98,1729420187609.0,0.0
-2.512464,-7.24786,-9.446864,-35.700001,-90.790001,-38.709999,1729420187617.0,0.0
-1.658226,-4.905287,-18.080168,12.6,-164.009995,-25.41,1729420187637.0,0.0
-5.831308,-11.523834,-16.603796,13.16,-26.110001,-18.200001,1729420187657.0,0.0
-8.800802,-13.596018,-16.551155,49.77,180.110001,-32.759998,1729420187678.0,0.0
-4.491328,-6.898508,-6.446264,135.729996,45.920002,12.67,1729420187699.0,0.0
1.232304,-1.172483,-6.979864,101.43,-13.86,4.55,1729420187717.0,0.0
3.349952,-0.366102,-6.594619,38.5,25.690001,28.139999,1729420187737.0,0.0
2.471786,-4.007978,4.443472,17.360001,90.230003,47.18,1729420187757.0,0.0
-3.239882,-9.422935,10.882557,-21.91,101.779999,68.879997,1729420187778.0,0.0
-4.704289,-12.782458,1.969293,-59.709999,85.190002,-9.1,1729420187798.0,0.0
-4.725825,-11.193624,-3.421736,-60.549999,12.04,-34.23,1729420187817.0,0.0
-1.371087,-4.689932,-8.611769,-13.02,-161.699997,-23.24,1729420187837.0,0.0
-0.945165,-5.352744,-19.104296,-0.28,-202.300003,-14.98,1729420187857.0,0.0
-7.927422,-15.428921,-18.553947,-40.670002,29.540001,-34.299999,1729420187878.0,0.0
-6.82433,-11.124231,-9.542577,70.0,80.779999,-6.02,1729420187899.0,0.0
0.648455,-5.95095,-9.212367,148.680008,-34.369999,4.62,1729420187917.0,0.0
4.211368,-0.392423,-7.161718,87.290001,-23.1,16.940001,1729420187937.0,0.0
5.704489,-0.643669,6.829116,71.82,4.55,39.619999,1729420187965.0,0.0
0.519243,-5.144568,11.569297,47.459999,77.910004,56.700001,1729420187978.0,0.0
-5.276174,-8.817552,6.113662,-23.24,73.57,5.74,1729420188000.0,0.0
-6.912865,-10.715059,1.409373,-52.639999,51.029999,-21.139999,1729420188017.0,0.0
-5.309673,-8.171489,-6.13759,-38.920002,-96.949997,-30.24,1729420188038.0,0.0
-2.447858,-5.60399,-21.355942,-73.5,-210.839996,-10.43,1729420188058.0,0.0
-2.782853,-9.336794,-15.77588,-49.139999,-109.270004,-7.42,1729420188078.0,0.0
-5.192425,-12.464212,-13.328021,37.099998,123.690002,6.3,1729420188098.0,0.0
-5.577669,-13.411771,-8.585447,160.300003,86.449997,41.299999,1729420188117.0,0.0
-1.550549,-6.63769,-7.956135,186.899994,24.43,27.16,1729420188138.0,0.0
1.411765,-2.488536,-7.740781,141.75,8.68,25.969999,1729420188157.0,0.0
1.12702,-7.953743,7.202396,126.419998,12.18,24.08,1729420188183.0,0.0
-4.512863,-8.721838,8.839087,102.410004,57.959999,46.200001,1729420188199.0,0.0
-5.120641,-6.647261,2.165504,79.379997,98.07,-20.860001,1729420188218.0,0.0
-4.737789,-8.702696,-4.24726,43.049999,28.98,-10.29,1729420188239.0,0.0
-2.033899,-8.482556,-2.524428,14.77,-143.919998,23.030001,1729420188258.0,0.0
-0.591027,-8.894121,-9.906286,-48.439999,-142.309998,17.57,1729420188279.0,0.0
-1.59362,-13.971692,-16.371693,-83.650002,-32.48,9.73,1729420188299.0,0.0
-4.273581,-17.091932,-5.290531,-27.370001,89.110001,0.21,1729420188318.0,0.0
-4.517649,-13.344771,-4.06062,115.57,94.220001,-0.21,1729420188338.0,0.0
-3.388237,-7.159326,-4.23051,191.240005,61.529999,6.02,1729420188358.0,0.0
-1.631905,-1.588834,2.136791,131.669998,49.139999,-6.86,1729420188379.0,0.0
-2.146362,2.208575,11.550155,75.529999,7.35,23.66,1729420188400.0,0.0
-4.292724,-5.441278,7.479963,5.32,-44.59,47.599998,1729420188418.0,0.0
-3.620341,-11.397014,-2.672783,-163.100006,51.310001,-36.68,1729420188438.0,0.0
-3.914658,-10.167104,2.22054,-67.970001,-9.59,26.389999,1729420188459.0,0.0
-0.0335,-7.317252,-9.23151,18.76,-131.25,56.630001,1729420188480.0,0.0
-1.615155,-8.147561,-12.691531,-127.400002,-108.709999,35.349998,1729420188501.0,0.0
-6.108876,-20.884556,-16.699509,-155.610001,81.620003,-29.82,1729420188519.0,0.0
-10.736595,-19.470398,-8.176274,-24.85,141.539993,-74.620003,1729420188539.0,0.0
-4.072584,-8.55434,-9.870394,138.880005,72.239998,-41.580002,1729420188559.0,0.0
1.045663,-3.113062,-2.024328,184.520004,-20.790001,-29.68,1729420188579.0,0.0
3.692125,12.076575,25.229921,112.699997,-54.599998,2.52,1729420188601.0,0.0
-0.086142,-0.519243,10.124033,46.619999,-53.27,72.449997,1729420188620.0,0.0
-2.63689,-8.106883,4.663611,-153.020004,73.43,-57.75,1729420188640.0,0.0
-3.835695,-14.921642,-9.834501,-173.880005,101.709999,-31.290001,1729420188659.0,0.0
-6.515656,-15.644274,-7.164111,-104.300003,-92.75,11.27,1729420188685.0,0.0
-3.242275,-12.981063,-13.785051,-44.310001,-122.290001,4.13,1729420188700.0,0.0
-1.677369,-8.568698,-9.209974,-19.879999,-58.029999,-13.16,1729420188719.0,0.0
-1.40698,-9.473185,-3.57727,59.849998,29.960001,-13.72,1729420188741.0,0.0
-2.95035,-9.576077,-4.161119,62.650002,48.369999,-10.92,1729420188759.0,0.0
-3.510271,-11.267801,-6.319445,55.09,76.93,-17.92,1729420188834.0,0.0
-2.806781,-9.509077,-0.971486,75.809998,39.27,-21.280001,1729420188835.0,0.0
-2.397608,-6.915257,2.615355,76.090004,-2.03,-21.77,1729420188835.0,0.0
-3.223132,-6.735795,4.953143,60.27,-33.110001,-20.65,1729420188852.0,0.0
-2.947958,-7.984849,-0.430708,15.05,-26.809999,-40.880001,1729420188861.0,0.0
-3.036492,-5.98445,2.230111,-14.0,-36.119999,-34.439999,1729420188883.0,0.0
-2.821138,-4.87418,1.347159,-49.84,-72.379997,-18.200001,1729420188899.0,0.0
-2.452643,-6.608976,-4.9675,-134.399994,-39.900002,-24.5,1729420188919.0,0.0
-1.938186,-14.435899,-1.85683,0.84,-47.880001,12.88,1729420188938.0,0.0
-0.014357,-9.119047,-0.598206,203.699997,-84.699997,48.860001,1729420188959.0,0.0
0.007178,-4.773681,-6.565905,230.930008,-30.450001,73.57,1729420188980.0,0.0
-3.002992,-7.91785,-6.62094,8.33,60.48,61.529999,1729420189000.0,0.0
-4.981857,-14.744574,-5.13739,-143.990005,110.739998,6.23,1729420189019.0,0.0
-6.494121,-20.066212,-3.701697,-67.340004,53.200001,21.559999,1729420189039.0,0.0
-3.26381,-11.691331,-3.565305,78.68,12.11,15.82,1729420189058.0,0.0
-1.241875,-7.532606,-3.696911,103.879997,22.889999,-6.37,1729420189079.0,0.0
-0.914058,-0.356531,4.407579,-15.190001,52.849998,-16.309999,1729420189101.0,0.0
-4.345366,-4.945964,14.754145,-74.340004,22.049999,22.540001,1729420189118.0,0.0
-3.158526,-16.022341,-1.440479,-170.169998,2.66,-5.18,1729420189138.0,0.0
-3.589234,-10.844273,-2.778067,-88.480003,-87.080002,31.57,1729420189160.0,0.0
-3.28056,-12.095718,-12.526425,-58.869999,-78.610001,6.23,1729420189183.0,0.0
-6.589834,-18.312271,-16.498512,-94.010002,54.459999,-46.970001,1729420189199.0,0.0
-6.13759,-15.357137,-6.216553,36.049999,68.739998,-71.82,1729420189219.0,0.0
-0.839881,-5.972485,-5.472386,100.730003,-3.92,-50.049999,1729420189239.0,0.0
3.936193,0.098106,-2.979064,84.139999,-41.580002,-36.189999,1729420189259.0,0.0
5.505885,3.60359,4.034299,54.670002,-32.970001,15.4,1729420189281.0,0.0
1.866402,-0.775275,9.401401,-13.79,40.599998,51.310001,1729420189300.0,0.0
-4.414758,-8.126025,6.745367,-117.25,109.340004,26.6,1729420189318.0,0.0
-8.425128,-13.978869,-1.4668,-205.660004,119.770004,-34.509998,1729420189339.0,0.0
-9.205189,-15.761523,-4.680361,-192.919998,-95.760002,-34.16,1729420189358.0,0.0
-2.603391,-15.13221,-12.935599,-113.75,-188.930008,-19.110001,1729420189379.0,0.0
-1.768296,-11.609976,-15.452848,-57.540001,-107.730003,-64.050003,1729420189400.0,0.0
-3.376273,-6.927221,-12.859028,-16.799999,66.080002,-52.009998,1729420189419.0,0.0
-4.058227,-7.910671,-5.192425,48.09,59.43,-25.83,1729420189438.0,0.0
-2.163112,-8.547162,-8.949157,-9.87,44.66,-33.110001,1729420189458.0,0.0
-0.40678,-10.681561,-9.049655,-12.32,60.830002,-37.73,1729420189495.0,0.0
1.048056,-6.915257,-2.067399,16.17,88.129997,-43.75,1729420189505.0,0.0
-1.421337,-2.299503,11.837293,52.009998,37.939999,5.04,1729420189584.0,0.0
-0.892523,-2.105684,8.38445,80.43,-41.369999,14.14,1729420189585.0,0.0
-0.930808,-1.658226,4.957928,-35.77,-13.58,-4.34,1729420189588.0,0.0
-2.596212,-6.446264,2.706282,-126.629997,-33.670002,5.04,1729420189589.0,0.0
-2.383251,-10.320245,-6.436693,-191.660004,-80.709999,-29.120001,1729420189604.0,0.0
-2.105684,-9.253045,-16.3358,-175.279999,-145.180008,-18.41,1729420189617.0,0.0
-3.881158,-14.971891,-14.282759,-56.420002,-96.110001,15.54,1729420189640.0,0.0
-6.108876,-17.630316,-17.063217,-48.509998,91.840004,-30.17,1729420189659.0,0.0
-4.711468,-14.072189,-9.432507,15.61,58.029999,-24.710001,1729420189679.0,0.0
0.052642,-9.042477,-8.372486,106.190002,-15.05,-21.84,1729420189700.0,0.0
1.832902,-5.505885,-8.597411,83.580002,-1.05,-32.41,1729420189717.0,0.0
2.160719,-4.776074,-6.463014,38.990002,71.120003,-39.130001,1729420189738.0,0.0
-0.995414,-3.613162,3.716053,5.11,101.639999,-18.83,1729420189758.0,0.0
-3.962514,-1.115055,7.819745,34.02,62.23,10.64,1729420189780.0,0.0
-2.055435,-2.522035,6.159126,69.790001,-19.74,15.33,1729420189801.0,0.0
-2.644069,-3.744767,1.45005,-88.059998,-91.699997,42.209999,1729420189818.0,0.0
0.588634,-5.65424,-13.170096,-188.509995,-83.93,-5.39,1729420189837.0,0.0
-1.416551,-12.117253,-19.350756,-155.820007,-116.900002,36.049999,1729420189857.0,0.0
-6.632904,-20.889341,-16.141981,-81.340004,28.700001,28.630001,1729420189879.0,0.0
-7.999206,-17.8361,-14.579469,-30.52,136.289993,-32.27,1729420189899.0,0.0
-1.641476,-12.016755,-7.881958,107.449997,-25.41,-15.96,1729420189918.0,0.0
2.366502,-6.817152,-5.556134,121.800003,-60.060001,-28.0,1729420189937.0,0.0
2.603391,-2.782853,-6.69751,56.98,12.39,-31.57,1729420189957.0,0.0
2.072184,-3.969693,-5.541777,38.080002,106.120003,-35.420002,1729420189978.0,0.0
-2.510071,-3.314059,6.982256,7.63,121.870003,-4.97,1729420190004.0,0.0
-5.745167,-2.400001,6.953543,13.72,42.139999,25.059999,1729420190018.0,0.0
-3.579663,-4.668397,1.828116,-1.47,-22.540001,6.93,1729420190037.0,0.0
-1.861616,-6.649654,-2.54357,-96.25,-75.529999,1.05,1729420190058.0,0.0
-1.12702,-9.269794,-7.939385,-132.789993,-131.180008,13.23,1729420190078.0,0.0
-0.26321,-9.071191,-17.190037,-131.110001,-119.980003,3.57,1729420190098.0,0.0
-3.342773,-13.3352,-15.438492,-20.16,-24.290001,24.85,1729420190118.0,0.0
-5.718846,-13.634303,-11.050055,-0.56,96.529999,-2.45,1729420190137.0,0.0
-1.794617,-11.552547,-7.549356,70.699997,-12.88,-1.19,1729420190157.0,0.0
1.282553,-7.812566,-9.111869,106.050003,-3.71,-16.73,1729420190182.0,0.0
1.928615,-4.462614,-10.727024,53.130001,57.330002,-25.200001,1729420190201.0,0.0
2.270789,-2.158326,-3.259024,19.67,108.43,-16.940001,1729420190217.0,0.0
-2.840281,-1.292124,12.861421,50.82,64.68,45.709999,1729420190238.0,0.0
-2.864209,-6.553941,5.898308,79.660004,1.4,39.130001,1729420190257.0,0.0
-3.227918,-6.020342,5.565705,-26.74,17.290001,1.47,1729420190280.0,0.0
-3.065206,-7.84128,-0.33021,-58.029999,-63.560001,12.18,1729420190301.0,0.0
-1.033699,-6.180661,-8.23131,-76.370003,-124.669998,-3.43,1729420190318.0,0.0
-1.380659,-7.597212,-20.51606,-75.809998,-156.309998,33.110001,1729420190338.0,0.0
-5.264209,-12.832708,-17.48914,-101.639999,-24.710001,15.4,1729420190360.0,0.0
-8.319844,-17.07279,-16.977077,-101.779999,131.389999,-33.529999,1729420190380.0,0.0
-4.376472,-13.043276,-8.250452,67.550003,11.83,5.6,1729420190400.0,0.0
1.107877,-2.916851,-8.135597,153.509995,-19.950001,4.2,1729420190421.0,0.0
1.442872,-1.751546,-7.458428,48.16,62.860001,1.75,1729420190440.0,0.0
-0.550349,-4.125226,2.986243,14.0,111.93,7.84,1729420190460.0,0.0
-5.350351,-3.854837,11.74158,1.54,47.110001,45.920002,1729420190482.0,0.0
-3.957729,-6.23091,3.299703,-18.34,-11.55,21.07,1729420190502.0,0.0
-1.868794,-7.829315,-3.63709,-104.370003,-8.96,-3.29,1729420190520.0,0.0
-0.713061,-7.817351,-4.395615,-98.910004,-117.32,9.52,1729420190540.0,0.0
-0.385244,-7.310073,-15.900306,-82.18,-141.539993,34.23,1729420190561.0,0.0
-3.768696,-12.27518,-15.574883,-129.779999,-33.389999,-3.71,1729420190580.0,0.0
-10.205389,-19.51586,-18.518055,-110.459999,152.669998,-28.700001,1729420190601.0,0.0
-5.960521,-15.864414,-12.957134,104.510002,35.77,-21.629999,1729420190619.0,0.0
0.636491,-6.302694,-8.819944,215.949997,-44.799999,-6.3,1729420190644.0,0.0
2.646462,-1.758725,-11.586047,138.809998,-12.6,-20.440001,1729420190661.0,0.0
3.359523,-0.210568,-1.789831,43.959999,72.169998,-31.57,1729420190682.0,0.0
-1.004985,-0.978664,9.762716,36.330002,66.220001,6.44,1729420190709.0,0.0
-0.66999,-4.106083,4.505685,49.84,33.599998,-8.82,1729420190727.0,0.0
-2.526821,-4.381258,6.850651,23.799999,-10.43,25.200001,1729420190739.0,0.0
-0.842274,-7.91785,-5.862415,-29.4,-74.760002,21.49,1729420190759.0,0.0
-2.852244,-9.176475,-13.406984,-141.960007,-62.09,15.33,1729420190781.0,0.0
-5.915058,-13.832907,-17.812172,-57.75,-8.68,26.32,1729420190800.0,0.0
-8.066205,-13.351951,-15.223137,22.610001,68.879997,13.37,1729420190819.0,0.0
-4.285545,-11.205588,-10.272388,114.029999,13.86,16.030001,1729420190840.0,0.0
-0.447458,-6.692725,-8.669197,123.410004,-35.700001,4.62,1729420190860.0,0.0
0.756132,-5.864808,-10.798808,97.090004,25.200001,-2.03,1729420190880.0,0.0
0.61017,-6.955935,-6.190232,86.169998,86.029999,-12.39,1729420190902.0,0.0
-1.476372,-6.597012,3.964907,133.699997,96.809998,11.55,1729420190919.0,0.0
-4.218546,-5.749953,7.515855,205.729996,51.380001,34.93,1729420190939.0,0.0
-4.304688,-2.512464,5.627919,143.639999,2.52,13.3,1729420190959.0,0.0
-3.002992,-3.95055,-0.902094,33.459999,-17.43,18.27,1729420190980.0,0.0
-1.344766,-8.872586,-7.819745,18.9,-40.040001,20.860001,1729420191001.0,0.0
-2.600998,-15.158531,-4.441079,121.379997,-62.790001,69.580002,1729420191022.0,0.0
-2.445465,-14.648861,-6.553941,129.639999,12.6,35.07,1729420191038.0,0.0
-2.9671,-11.430513,-5.000999,117.739998,36.119999,26.389999,1729420191059.0,0.0
-2.37368,-8.102098,-2.124826,99.120003,15.33,17.219999,1729420191080.0,0.0
-2.426322,-9.013763,0.59342,52.779999,-5.11,7.42,1729420191102.0,0.0
-2.955136,-9.609575,2.605784,-26.389999,-11.06,1.4,1729420191119.0,0.0
-3.74716,-10.758131,-0.665205,-45.290001,-10.36,1.05,1729420191140.0,0.0
-3.282953,-11.251052,-3.029313,-43.470001,25.549999,-32.830002,1729420191159.0,0.0
-3.749553,-10.995021,-3.337988,-56.84,7.98,-28.77,1729420191183.0,0.0
-3.629912,-10.581062,-2.347359,-96.879997,-29.190001,-32.41,1729420191202.0,0.0
-2.847459,-8.262416,-2.177469,-188.649994,-68.879997,-51.380001,1729420191219.0,0.0
-2.699104,-7.477571,-1.435694,-245.490005,-95.970001,-61.25,1729420191240.0,0.0
-2.275574,-8.499306,-3.969693,-269.290009,-73.43,-67.830002,1729420191263.0,0.0
-1.433301,-9.860823,-7.487142,-241.779999,-32.41,-88.620003,1729420191280.0,0.0
-1.607977,-7.367501,-6.54437,-258.089996,-27.02,-111.020004,1729420191300.0,0.0
-2.947958,-7.312466,-4.134798,-272.51001,-23.17,-91.840004,1729420191323.0,0.0
-1.605584,-7.001399,-7.728817,-244.790009,-44.799999,-98.629997,1729420191340.0,0.0
-0.947558,-7.317252,-6.91765,-134.75,-40.459999,-66.220001,1729420191359.0,0.0
-0.512064,-5.694918,-6.805188,-103.809998,-29.190001,-70.559998,1729420191380.0,0.0
-1.488336,-4.307081,-7.456036,-125.790001,-0.56,-61.950001,1729420191402.0,0.0
-2.70389,-6.130411,-6.750153,-107.169998,1.05,-46.48,1729420191420.0,0.0
-0.859023,-6.252446,-8.980263,-87.5,-25.41,-35.0,1729420191440.0,0.0
-0.122034,-2.026721,-9.815358,-126.559998,-19.460001,-33.32,1729420191458.0,0.0
-2.364109,-3.517449,-7.573284,-147.210007,5.32,-0.14,1729420191479.0,0.0
-1.521835,-4.046263,-9.312866,-155.399994,-11.97,-14.63,1729420191500.0,0.0
-1.320838,-2.65364,-11.810973,-164.990005,-18.9,-18.76,1729420191519.0,0.0
-2.452643,-5.56092,-8.745767,-86.660004,-13.16,6.02,1729420191538.0,0.0
-1.050449,-5.156533,-7.338787,-39.41,-20.719999,-11.9,1729420191559.0,0.0
-2.603391,1.064806,-5.955735,-65.730003,-4.48,-3.22,1729420191578.0,0.0
-3.199204,0.514457,-6.309873,-60.48,20.16,-3.92,1729420191600.0,0.0
-2.469393,-2.452643,-12.780065,-112.840004,3.92,-3.99,1729420191621.0,0.0
-0.473779,-4.658825,-13.598411,-106.540001,-44.59,-2.03,1729420191638.0,0.0
0.179462,-3.371487,-9.296116,-42.98,-47.32,12.88,1729420191658.0,0.0
-0.897308,-1.952543,-8.324631,-55.439999,-9.87,5.32,1729420191679.0,0.0
-2.416751,-3.775874,-8.65484,-52.709999,-4.62,1.26,1729420191699.0,0.0
-2.333002,-3.555735,-10.683953,-16.24,-15.190001,6.65,1729420191718.0,0.0
-2.182254,-4.216154,-12.830315,6.65,-16.870001,11.2,1729420191738.0,0.0
-2.019542,-0.851845,-9.226725,29.33,-8.61,14.56,1729420191758.0,0.0
-1.931008,-0.378066,-8.12124,52.709999,-5.53,34.299999,1729420191789.0,0.0
-2.072184,-2.828316,-8.874979,38.639999,16.59,10.15,1729420191801.0,0.0
-2.117648,-3.778267,-9.332008,40.32,4.41,29.120001,1729420191818.0,0.0
-1.043271,-4.055835,-10.636096,39.34,-13.72,26.32,1729420191837.0,0.0
-0.746561,-3.723232,-10.435099,56.490002,-6.02,25.549999,1729420191858.0,0.0
-0.918844,-3.084348,-10.985448,90.019997,15.12,22.049999,1729420191878.0,0.0
-2.158326,-4.565506,-8.147561,130.550003,31.360001,20.65,1729420191898.0,0.0
-3.196811,-4.936393,-8.370094,196.839996,41.93,35.07,1729420191918.0,0.0
-3.072384,-5.178068,-10.715059,269.850006,12.46,49.349998,1729420191937.0,0.0
-2.656033,-3.488736,-8.602197,279.579987,-12.95,60.689999,1729420191957.0,0.0
-1.782653,-3.323631,-5.489135,228.339996,-43.82,56.209999,1729420191979.0,0.0
0.698704,-5.721239,-7.233503,137.690002,-74.129997,18.969999,1729420191999.0,0.0
1.435694,-4.07737,-7.563712,22.049999,-69.370003,25.48,1729420192018.0,0.0
1.146162,-2.431108,-7.302894,-55.510002,-30.940001,12.95,1729420192045.0,0.0
1.115055,-3.806981,-10.509278,-156.729996,37.380001,-15.190001,1729420192058.0,0.0
-0.557528,-7.410572,-9.559326,-191.660004,67.269997,-19.18,1729420192081.0,0.0
-1.229911,-6.687939,-8.539984,-151.270004,56.77,-18.41,1729420192103.0,0.0
-2.859423,-4.845466,-1.11027,-122.150002,30.24,-29.610001,1729420192120.0,0.0
-6.005985,-7.123433,-7.32443,-140.910004,6.23,-25.27,1729420192138.0,0.0
-5.240282,-8.915657,-11.351551,-95.900002,0.91,-80.989998,1729420192159.0,0.0
-5.290531,-9.154939,-11.176874,-86.870003,6.51,-56.0,1729420192182.0,0.0
-3.156133,-4.141976,-12.157932,29.33,-11.69,-12.95,1729420192199.0,0.0
-1.59362,-0.287139,-9.556933,76.370003,-2.8,4.62,1729420192220.0,0.0
-2.134398,-1.65344,-7.54457,27.02,1.33,-8.75,1729420192239.0,0.0
-2.464607,-3.651447,-9.573684,-43.400002,27.51,-33.810001,1729420192259.0,0.0
-2.285146,-4.31426,-10.731809,-5.74,21.49,-19.110001,1729420192281.0,0.0
-1.304088,-3.515057,-9.84168,33.880001,-14.35,-18.690001,1729420192300.0,0.0
-1.134198,-4.146761,-7.118648,20.16,-26.040001,-29.68,1729420192320.0,0.0
-0.911665,-4.09412,-10.396815,-33.110001,-28.77,-61.459999,1729420192340.0,0.0
-1.964507,-3.290131,-9.157332,-20.02,-7.63,-56.630001,1729420192359.0,0.0
-3.294917,-1.323231,-8.018349,19.460001,-1.12,-37.170002,1729420192380.0,0.0
-3.912265,-0.485743,-9.341579,18.690001,-15.61,-24.01,1729420192403.0,0.0
-4.65404,-1.926222,-8.147561,10.85,-29.960001,7.49,1729420192422.0,0.0
-3.096312,-3.668197,-8.901299,7.91,-42.139999,19.74,1729420192441.0,0.0
-1.861616,-3.61077,-8.865408,-12.6,-37.240002,31.92,1729420192463.0,0.0
-1.318445,-3.909872,-7.101898,5.88,-2.87,53.34,1729420192483.0,0.0
-1.196411,-0.744168,-11.880364,-28.630001,14.28,53.549999,1729420192502.0,0.0
-1.409373,-3.785445,-11.779866,-24.08,44.170002,71.190002,1729420192523.0,0.0
-1.11027,-4.780859,-8.939585,0.49,44.869999,94.639999,1729420192541.0,0.0
-1.304088,-10.451849,-4.488935,-32.27,25.129999,68.879997,1729420192561.0,0.0
-0.095713,-15.158531,-6.278766,-51.380001,-27.790001,-2.31,1729420192583.0,0.0
0.248854,-13.323236,-11.392227,-1.4,-31.15,-13.02,1729420192602.0,0.0
-0.492921,-7.063612,-12.758532,131.809998,31.639999,-31.99,1729420192623.0,0.0
-2.507678,-1.409373,-10.966305,185.919998,123.760002,-3.99,1729420192642.0,0.0
-4.261617,-1.306481,-7.582855,126.629997,60.760002,-18.620001,1729420192660.0,0.0
-2.476572,-5.694918,-11.023734,41.02,-10.85,-38.43,1729420192682.0,0.0
-1.29691,-5.491528,-8.645268,39.549999,-45.57,-67.340004,1729420192711.0,0.0
-2.24686,-1.07677,-8.207381,4.62,-35.420002,-74.199997,1729420192721.0,0.0
-4.448257,1.954936,-5.745167,35.349998,-13.37,-50.470001,1729420192744.0,0.0
-4.713861,2.868994,-7.01097,8.68,-27.09,-50.75,1729420192765.0,0.0
-5.194818,0.732204,-4.096512,-95.900002,-68.25,-30.73,1729420192782.0,0.0
-1.804188,-2.179861,-8.714661,-127.82,-74.059998,-17.639999,1729420192802.0,0.0
-0.490529,-4.381258,-11.133803,-100.870003,-54.740002,-5.25,1729420192821.0,0.0
-1.816152,-9.049655,-14.328221,-152.320007,0.98,28.559999,1729420192840.0,0.0
-1.117448,-8.638089,-13.672589,-129.430008,26.25,32.900002,1729420192860.0,0.0
-0.047856,-2.792424,-12.378072,74.620003,36.119999,97.160004,1729420192882.0,0.0
-0.267996,0.332602,-6.391229,131.880005,85.260002,126.770004,1729420192901.0,0.0
-0.935594,-8.817552,-2.541178,-17.08,44.73,54.950001,1729420192920.0,0.0
-0.22014,-14.081761,-7.623533,-103.32,2.52,1.26,1729420192942.0,0.0
0.143569,-14.682359,-14.18226,60.200001,-31.01,-1.12,1729420192961.0,0.0
-0.748954,-5.766702,-7.73121,220.080002,50.119999,15.47,1729420192983.0,0.0
-2.792424,-2.007578,-6.439085,260.329987,86.730003,10.92,1729420193003.0,0.0
-3.385844,-0.624527,-15.096318,147.279999,49.279999,-51.59,1729420193020.0,0.0
-4.07737,-0.978664,-9.107083,-70.0,-42.98,-72.099998,1729420193041.0,0.0
-3.730411,-1.007378,-6.15434,-10.5,-74.129997,-28.42,1729420193061.0,0.0
-1.883151,-1.473979,-5.826523,31.85,-54.599998,-30.66,1729420193081.0,0.0
-2.715853,-1.289732,-5.659025,-63.0,-48.23,-37.240002,1729420193101.0,0.0
-2.684747,-1.935793,-9.253045,-135.309998,-44.450001,-62.860001,1729420193121.0,0.0
-2.756532,-3.089134,-10.214959,-141.190002,-33.459999,-45.360001,1729420193140.0,0.0
-2.184647,-6.305088,-9.667004,-85.959999,-46.130001,0.35,1729420193160.0,0.0
-1.545763,-9.066404,-14.120047,-85.75,-28.0,13.16,1729420193185.0,0.0
-0.820738,-6.979864,-13.727623,-103.040001,-3.57,24.43,1729420193201.0,0.0
-0.047856,-3.213561,-12.30868,63.77,18.129999,62.02,1729420193220.0,0.0
0.954736,0.574277,-9.817751,144.339996,67.340004,101.010002,1729420193240.0,0.0
-1.61037,0.232104,-3.299703,70.559998,80.5,116.410004,1729420193260.0,0.0
-2.242075,-7.860423,-7.176075,-85.610001,78.68,30.030001,1729420193282.0,0.0
-1.739582,-16.567905,-4.275974,-87.220001,0.91,-0.98,1729420193303.0,0.0
-0.167498,-16.278372,-9.45165,-25.690001,-96.739998,-5.25,1729420193322.0,0.0
-0.239282,-6.757331,-7.609176,138.809998,-4.62,-8.68,1729420193340.0,0.0
-2.428715,-0.775275,-10.152746,205.449997,116.690002,-0.98,1729420193361.0,0.0
-4.577469,-4.591826,-9.49472,15.75,6.23,-57.330002,1729420193381.0,0.0
-3.443272,-9.52822,-10.616954,-60.130001,-32.41,-83.580002,1729420193404.0,0.0
-2.268396,-3.0006,-9.84168,-62.09,-78.75,-84.769997,1729420193421.0,0.0
-2.715853,0.868595,-7.927422,87.43,-59.920002,-46.759998,1729420193441.0,0.0
-3.620341,6.829116,-8.305488,60.27,-12.81,-34.509998,1729420193460.0,0.0
-5.694918,0.378066,-2.079363,-66.5,-47.040001,-20.02,1729420193481.0,0.0
-2.124826,-3.964907,-8.11167,-183.820007,-61.810001,-38.5,1729420193501.0,0.0
-0.535992,-5.187639,-10.628918,-126.629997,-56.349998,-21.700001,1729420193520.0,0.0
-0.729811,-7.666604,-12.009576,-59.709999,-14.56,36.540001,1729420193540.0,0.0
-1.902294,-6.656832,-15.582061,-101.779999,30.799999,42.84,1729420193560.0,0.0
-1.682154,-5.398208,-11.373087,11.41,59.5,81.620003,1729420193580.0,0.0
-0.232104,-0.981057,-9.839286,132.930008,48.650002,102.970001,1729420193603.0,0.0
-0.916451,-1.921437,-5.9677,48.369999,55.580002,86.730003,1729420193620.0,0.0
-1.533799,-8.764909,-4.63729,-71.75,34.720001,25.9,1729420193640.0,0.0
-0.727418,-11.265409,-7.223931,-68.669998,0.28,4.06,1729420193660.0,0.0
-0.102891,-7.415358,-7.487142,28.210001,-5.46,33.25,1729420193681.0,0.0
-0.70349,-5.836094,-10.236496,76.720001,7.7,18.83,1729420193701.0,0.0
-2.553142,-6.757331,-9.073583,89.879997,53.760002,-14.07,1729420193721.0,0.0
-3.194418,-4.957928,-8.059027,98.769997,49.98,-3.92,1729420193740.0,0.0
-2.007578,-6.431907,-8.949157,100.590004,-5.67,0.63,1729420193760.0,0.0
-0.916451,-3.318845,-12.246466,107.449997,-52.080002,-8.96,1729420193841.0,0.0
-1.730011,-5.063213,-7.867601,163.380005,29.610001,22.33,1729420193844.0,0.0
-1.79701,-6.836295,-9.255438,114.309998,34.860001,-7.91,1729420193847.0,0.0
-2.404787,-6.139983,-10.157533,109.690002,20.860001,-2.31,1729420193849.0,0.0
-2.435893,-4.692325,-8.482556,161.139999,31.01,7.63,1729420193861.0,0.0
-2.012364,-4.338188,-7.276574,155.330002,13.440001,6.09,1729420193880.0,0.0
-1.40698,-7.001399,-7.9346,157.289993,-3.99,12.95,1729420193901.0,0.0
-1.158126,-10.475778,-6.211767,216.020004,-0.28,20.09,1729420193920.0,0.0
-1.301696,-10.315458,-6.333801,259.279999,11.13,27.719999,1729420193940.0,0.0
-2.029114,-9.399008,-3.680161,342.579987,16.66,27.860001,1729420193960.0,0.0
-2.720639,-7.149754,-1.718047,364.350006,1.54,33.25,1729420193981.0,0.0
-2.739782,-6.216553,1.777867,305.829987,-30.030001,33.880001,1729420194001.0,0.0
-1.74676,-7.412964,-0.244068,258.440002,-66.919998,39.41,1729420194020.0,0.0
-1.607977,-10.774881,-1.978864,357.070007,-21.84,30.450001,1729420194040.0,0.0
-3.862016,-8.133204,-0.937986,376.040009,56.07,21.98,1729420194060.0,0.0
-4.680361,-9.102298,0.70349,313.390015,35.420002,13.16,1729420194081.0,0.0
-2.744568,-9.609575,3.031706,262.779999,-15.82,12.67,1729420194100.0,0.0
-1.378266,-8.487342,1.536192,272.369995,1.61,16.799999,1729420194120.0,0.0
-2.007578,-8.044669,0.311067,284.200012,81.690002,3.99,1729420194140.0,0.0
-3.09392,-8.128418,2.610569,214.970001,107.940002,-23.1,1729420194160.0,0.0
-4.383651,-4.218546,8.84148,87.150002,71.120003,-50.540001,1729420194184.0,0.0
-4.369294,-10.408779,6.862615,-58.029999,45.080002,-82.32,1729420194201.0,0.0
-2.916851,-12.751352,3.541377,-78.540001,63.349998,-69.580002,1729420194220.0,0.0
-2.519642,-6.106483,5.962914,6.65,11.06,-30.940001,1729420194240.0,0.0
-2.103291,-0.784846,10.535598,-97.370003,2.66,-38.43,1729420194260.0,0.0
-3.620341,-1.349552,11.344372,-253.960007,-10.15,-15.68,1729420194281.0,0.0
-2.550749,-8.69791,4.912465,-226.589996,-39.549999,0.49,1729420194301.0,0.0
-0.658026,-13.048061,2.378466,-9.17,-77.419998,-3.43,1729420194320.0,0.0
-2.091327,-11.41137,-0.035892,-8.26,-44.310001,14.49,1729420194339.0,0.0
-3.144169,-8.039884,1.038485,-106.540001,5.11,-18.690001,1729420194360.0,0.0
-2.993421,-7.647461,5.166104,-210.559998,-13.37,-33.389999,1729420194382.0,0.0
-1.071985,-8.532805,4.0008,-231.630005,-81.620003,-20.51,1729420194402.0,0.0
-0.272782,-7.865208,2.024328,-237.160004,-53.760002,-20.299999,1729420194419.0,0.0
-0.538385,-6.793223,0.399601,-252.839996,-7.0,-39.759998,1729420194440.0,0.0
-1.65344,-8.41795,-0.622134,-277.899994,16.870001,-47.25,1729420194460.0,0.0
-2.531606,-10.913664,-1.476372,-287.839996,19.879999,-52.290001,1729420194480.0,0.0
-3.163311,-10.377672,-2.160719,-309.399994,-13.93,-60.900002,1729420194501.0,0.0
-2.132005,-8.492127,-5.108676,-323.610016,-49.91,-68.389999,1729420194519.0,0.0
-1.79701,-9.343972,-4.125226,-275.730011,-45.779999,-56.07,1729420194539.0,0.0
-1.380659,-9.801002,-2.632105,-210.630005,-42.420002,-56.84,1729420194560.0,0.0
-1.715654,-6.800402,-2.770889,-228.759995,-30.030001,-55.02,1729420194580.0,0.0
-1.952543,-6.563512,-6.618547,-239.75,-32.970001,-59.010002,1729420194602.0,0.0
-2.072184,-6.745367,-8.303094,-242.199997,-31.15,-58.029999,1729420194625.0,0.0
-1.225125,-7.092326,-7.444071,-233.380005,-71.050003,-44.170002,1729420194640.0,0.0
-0.643669,-5.347959,-5.304887,-242.690002,-80.849998,-25.549999,1729420194659.0,0.0
-0.150748,-0.995414,-10.679168,-272.649994,-53.200001,-30.380001,1729420194681.0,0.0
-0.717847,-2.289931,-14.878571,-247.240005,15.26,-32.759998,1729420194700.0,0.0
-1.282553,-8.587841,-7.910671,-123.690002,-35.630001,-13.23,1729420194719.0,0.0
-1.071985,0.380459,-5.977271,-131.880005,-23.24,5.25,1729420194740.0,0.0
-2.445465,2.888137,-7.034898,-119.279999,-4.55,7.56,1729420194759.0,0.0
-0.736989,-2.239682,-15.888342,-141.539993,-2.66,-17.780001,1729420194780.0,0.0
0.569492,-5.331209,-16.197016,-182.839996,-73.43,-27.440001,1729420194801.0,0.0
1.148555,-6.295516,-9.597611,-113.68,-60.060001,-7.84,1729420194833.0,0.0
-1.261017,-4.780859,-8.82473,-41.23,-4.13,-5.53,1729420194840.0,0.0
-2.572284,0.370888,-8.020741,11.13,20.860001,3.22,1729420194860.0,0.0
-2.584249,0.289532,-11.155338,-38.990002,-7.98,-3.92,1729420194880.0,0.0
-1.758725,-2.811567,-12.220145,-81.760002,-28.210001,-7.63,1729420194902.0,0.0
-1.706082,-1.895115,-11.284552,-44.450001,-16.73,1.75,1729420194921.0,0.0
-3.287738,-1.493121,-8.472985,-16.799999,10.15,4.13,1729420194939.0,0.0
-2.672783,-3.084348,-8.032705,8.82,-3.64,7.7,1729420194959.0,0.0
-0.681954,-1.954936,-9.856036,57.959999,-18.059999,15.12,1729420194980.0,0.0
-1.897508,-2.868994,-9.628718,78.82,0.84,18.27,1729420195000.0,0.0
-2.15354,-2.711068,-10.638489,87.080002,8.68,29.469999,1729420195020.0,0.0
0.538385,-2.45025,-10.188639,108.639999,-1.12,24.5,1729420195040.0,0.0
1.134198,-1.430908,-10.016356,109.830002,-10.99,28.91,1729420195059.0,0.0
-0.138784,-3.694518,-9.154939,66.220001,13.3,13.79,1729420195080.0,0.0
-1.550549,-6.092126,-9.200402,35.560001,27.16,6.86,1729420195101.0,0.0
-1.552942,-5.297709,-9.678967,57.400002,12.32,3.15,1729420195119.0,0.0
-1.165305,-3.5007,-9.676575,128.169998,3.92,10.71,1729420195139.0,0.0
-1.878366,-3.125026,-9.353544,140.279999,15.33,0.63,1729420195166.0,0.0
-4.177868,-2.151148,-6.573084,50.400002,37.59,-9.45,1729420195185.0,0.0
-4.177868,-1.923829,-7.348359,-21.84,22.610001,-15.61,1729420195201.0,0.0
-1.29691,-0.648455,-7.685746,-79.449997,-60.48,-15.61,1729420195220.0,0.0
1.308874,-2.9671,-10.738988,-113.120003,-83.580002,-35.0,1729420195240.0,0.0
0.619741,-2.868994,-11.650653,-121.449997,-31.360001,-37.52,1729420195260.0,0.0
-2.340181,-4.871787,-9.260223,-84.279999,10.15,-42.84,1729420195282.0,0.0
-4.275974,-3.129812,-11.566904,-73.360001,8.47,-45.220001,1729420195300.0,0.0
-4.711468,0.239282,-10.332209,-47.040001,-5.18,-26.67,1729420195320.0,0.0
-3.754339,1.526621,-9.882358,-65.800003,-28.139999,-12.95,1729420195340.0,0.0
-2.452643,-3.091527,-9.698111,-52.57,-20.299999,-0.28,1729420195360.0,0.0
-1.237089,-3.122634,-9.745967,-29.889999,-12.18,3.43,1729420195382.0,0.0
-0.579063,-1.612763,-11.05484,-26.880001,11.27,1.96,1729420195402.0,0.0
-2.344966,-3.048456,-11.535798,-36.470001,31.92,13.3,1729420195420.0,0.0
-1.74676,-4.61097,-10.320245,-29.960001,8.75,6.79,1729420195441.0,0.0
-1.088734,-2.435893,-7.676175,-7.28,-2.31,10.57,1729420195461.0,0.0
-3.220739,-3.471986,-6.374479,-1.82,17.57,10.78,1729420195482.0,0.0
-2.644069,-3.194418,-6.977471,24.57,-5.04,17.639999,1729420195505.0,0.0
-0.832702,-1.727618,-10.451849,37.240002,-15.96,22.960001,1729420195523.0,0.0
0.835095,-1.87358,-11.598011,57.68,-23.450001,23.379999,1729420195543.0,0.0
1.043271,-2.48375,-10.212566,70.209999,-17.5,25.34,1729420195561.0,0.0
0.586242,-5.094319,-10.600205,65.379997,-9.24,17.219999,1729420195584.0,0.0
-1.275374,-6.178268,-10.358529,50.889999,15.75,17.219999,1729420195605.0,0.0
-2.916851,-3.828516,-9.712467,65.169998,36.470001,7.49,1729420195626.0,0.0
-3.663411,-1.167697,-8.91805,71.540001,18.48,-2.94,1729420195642.0,0.0
-3.23031,1.205983,-9.389436,20.58,18.620001,-3.78,1729420195661.0,0.0
-1.488336,-1.344766,-10.497313,-57.959999,-26.460001,-26.460001,1729420195683.0,0.0
-0.378066,-5.472386,-12.220145,-81.690002,-23.66,-31.219999,1729420195710.0,0.0
-0.354138,-5.264209,-8.30788,-24.85,-17.99,-28.84,1729420195722.0,0.0
-2.596212,-4.910072,-7.724032,3.36,14.91,-39.27,1729420195741.0,0.0
-4.072584,-1.325624,-9.851252,37.66,36.889999,-24.01,1729420195762.0,0.0
-4.644469,1.344766,-8.10449,42.420002,9.73,-3.99,1729420195785.0,0.0
-4.06062,-0.696311,-8.116454,7.84,-4.13,4.13,1729420195806.0,0.0
-3.014957,-2.981457,-8.963513,-16.870001,-8.33,12.67,1729420195823.0,0.0
-1.208375,-2.868994,-9.815358,-2.1,-11.69,17.43,1729420195842.0,0.0
-0.705883,-3.378666,-10.963913,3.99,3.92,9.8,1729420195861.0,0.0
-1.335195,-2.914458,-10.597812,2.03,21.210001,32.830002,1729420195887.0,0.0
-0.782453,-2.603391,-9.164511,6.23,10.99,27.860001,1729420195903.0,0.0
-1.383051,-3.806981,-8.767302,-7.56,12.32,29.75,1729420195923.0,0.0
-2.165504,-4.905287,-9.408579,-5.74,20.51,23.17,1729420195941.0,0.0
-3.428915,-5.15414,-8.496914,5.67,16.24,23.799999,1729420195961.0,0.0
-1.246661,-4.115655,-8.243275,38.360001,-17.01,29.190001,1729420195984.0,0.0
1.622334,-2.962314,-9.803394,56.700001,-29.33,25.690001,1729420196003.0,0.0
1.715654,-4.481757,-11.198411,66.57,-27.51,19.389999,1729420196021.0,0.0
-0.964308,-7.037291,-10.356135,65.730003,32.900002,7.42,1729420196043.0,0.0
-3.799802,-6.489335,-8.987441,80.919998,63.279999,-7.07,1729420196062.0,0.0
-5.206782,-3.716053,-8.46102,83.370003,52.290001,-5.04,1729420196082.0,0.0
-3.242275,-2.120041,-9.571291,68.599998,-11.13,-8.33,1729420196103.0,0.0
-0.320638,-2.596212,-10.585848,21.42,-56.700001,-18.059999,1729420196121.0,0.0
1.864009,-3.806981,-11.449656,-22.540001,-51.450001,-30.73,1729420196141.0,0.0
1.942972,-5.424529,-10.339387,-9.73,-6.3,-35.630001,1729420196164.0,0.0
-0.926022,-9.958927,-6.032306,64.260002,44.240002,-31.92,1729420196186.0,0.0
-3.852444,-7.599605,-6.405586,95.830002,59.080002,-51.869999,1729420196202.0,0.0
-6.429514,-0.327817,-8.927622,26.040001,60.619999,-47.25,1729420196222.0,0.0
-6.352944,0.909273,-10.15514,-23.379999,7.07,-8.89,1729420196242.0,0.0
-2.74696,-1.06002,-10.449455,-58.380001,-37.450001,-1.54,1729420196261.0,0.0
0.057428,-4.900501,-9.040084,-54.950001,-48.369999,10.22,1729420196283.0,0.0
0.617348,-6.123233,-8.602197,-49.630001,-21.49,8.4,1729420196304.0,0.0
-1.380659,-4.151547,-7.762317,-35.98,65.309998,3.43,1729420196322.0,0.0
-3.165704,-2.924029,-7.757531,-55.09,54.32,-3.15,1729420196341.0,0.0
-2.691926,-2.900101,-9.23151,-82.879997,11.76,-14.28,1729420196364.0,0.0
-0.940379,-3.78066,-9.98525,-86.870003,-29.82,-14.35,1729420196383.0,0.0
0.607777,-5.178068,-9.600004,-39.900002,-27.16,-13.3,1729420196404.0,0.0
0.210568,-4.682754,-8.645268,17.360001,4.34,-5.32,1729420196424.0,0.0
-1.490728,-3.584448,-8.382057,50.330002,36.470001,-2.24,1729420196442.0,0.0
-3.024528,-2.964707,-8.30788,32.48,37.450001,0.98,1729420196462.0,0.0
-2.845066,-2.431108,-8.980263,10.99,6.23,9.73,1729420196482.0,0.0
-1.672583,-2.452643,-9.365508,8.05,-25.200001,19.6,1729420196502.0,0.0
-1.227518,-4.393222,-8.939585,-3.71,-16.309999,15.190001,1729420196522.0,0.0
-1.823331,-5.491528,-9.379865,-16.1,5.53,18.620001,1729420196541.0,0.0
-2.239682,-4.409972,-9.233903,-11.48,1.47,20.58,1729420196562.0,0.0
-2.072184,-3.503092,-9.966106,-22.960001,-6.65,16.1,1729420196583.0,0.0
-1.954936,-4.63729,-9.413363,-37.73,-4.55,10.36,1729420196603.0,0.0
-2.117648,-4.682754,-8.882158,-37.310001,-1.26,9.31,1729420196622.0,0.0
-2.017149,-4.843073,-8.91805,-18.200001,-7.21,11.06,1729420196642.0,0.0
-1.4668,-4.307081,-10.281959,42.209999,-10.5,14.28,1729420196662.0,0.0
-1.191626,-4.041477,-9.379865,104.090004,-22.469999,26.110001,1729420196682.0,0.0
-0.22014,-3.194418,-9.504292,137.619995,-44.450001,24.360001,1729420196704.0,0.0
0.411566,-3.041277,-10.444671,138.669998,-61.32,29.960001,1729420196724.0,0.0
0.818345,-3.352344,-7.82453,110.739998,-59.639999,29.75,1729420196741.0,0.0
0.722632,-3.783052,-6.786045,72.029999,-40.25,25.129999,1729420196761.0,0.0
-0.820738,-4.890929,-5.199604,42.98,3.29,26.18,1729420196782.0,0.0
-0.722632,-4.31426,-10.195816,-19.110001,47.25,4.62,1729420196803.0,0.0
-0.827917,-4.582255,-11.842079,-67.129997,35.349998,3.29,1729420196822.0,0.0
-0.378066,-4.553542,-10.628918,-68.459999,16.66,9.94,1729420196841.0,0.0
-0.320638,-4.051049,-9.489935,-48.16,28.700001,9.38,1729420196862.0,0.0
-0.823131,-3.830909,-9.312866,-67.480003,52.220001,-4.48,1729420196882.0,0.0
-5.199604,-5.173282,-0.81356,-128.100006,52.779999,-19.110001,1729420196902.0,0.0
-9.054441,-11.306087,-11.511869,-162.259995,82.18,-87.639999,1729420196922.0,0.0
-5.54417,-10.82513,-13.203594,17.43,-0.07,-49.0,1729420196941.0,0.0
-0.440279,-0.832702,-14.321043,92.330002,-113.260002,10.57,1729420196962.0,0.0
-0.399601,-0.844666,-5.304887,73.290001,-54.670002,11.9,1729420196983.0,0.0
-1.820938,-4.924429,-10.188639,-16.450001,75.32,-32.549999,1729420197001.0,0.0
-3.359523,-4.733003,-9.233903,-42.490002,33.25,-35.349998,1729420197021.0,0.0
-1.895115,-4.893322,-10.506885,-11.9,-17.92,-24.57,1729420197040.0,0.0
0.124427,-4.649254,-11.751152,1.61,-45.009998,-34.16,1729420197060.0,0.0
0.600598,-4.242475,-8.449057,9.94,-22.049999,-35.209999,1729420197082.0,0.0
-0.334995,-4.376472,-6.204589,6.44,11.55,-42.560001,1729420197102.0,0.0
-0.677169,-5.692525,-11.866007,-28.07,12.6,-76.93,1729420197121.0,0.0
-2.330609,-2.845066,-9.425328,-25.34,14.21,-61.529999,1729420197141.0,0.0
-3.790231,-0.210568,-7.51107,31.92,14.42,-40.32,1729420197161.0,0.0
-3.943372,2.701497,-11.133803,31.43,0.63,-29.120001,1729420197184.0,0.0
-4.498507,0.713061,-6.869793,-4.41,-23.940001,-7.35,1729420197208.0,0.0
-2.892922,-3.002992,-6.477371,-62.650002,-70.139999,6.02,1729420197220.0,0.0
-0.437887,-5.776274,-10.090532,-42.490002,-71.540001,7.14,1729420197241.0,0.0
-0.471386,-4.331009,-10.700702,-6.3,-32.689999,11.27,1729420197262.0,0.0
-1.76351,-4.182654,-8.987441,25.129999,33.32,31.43,1729420197282.0,0.0
-1.4668,-2.376073,-11.114661,-15.190001,24.290001,31.85,1729420197302.0,0.0
-0.375673,-1.823331,-11.562119,33.110001,12.6,69.790001,1729420197323.0,0.0
-0.495314,-0.33021,-9.262616,78.330002,51.450001,115.779999,1729420197341.0,0.0
-1.847259,-6.520442,-4.534399,-5.81,48.93,88.340004,1729420197361.0,0.0
-1.17009,-14.103296,-5.12782,-99.260002,9.73,17.92,1729420197384.0,0.0
-0.29671,-15.457633,-9.21476,-62.369999,-57.470001,-0.21,1729420197402.0,0.0
0.22014,-11.361122,-13.301701,103.809998,-22.68,-21.91,1729420197421.0,0.0
-1.22034,-1.880759,-10.095319,179.199997,86.940002,4.41,1729420197441.0,0.0
-3.455236,-2.031506,-6.946364,154.139999,94.290001,7.84,1729420197462.0,0.0
-2.897708,-3.586841,-13.34238,59.639999,7.28,-27.65,1729420197484.0,0.0
-2.388037,-6.580262,-10.181459,73.150002,-3.71,-21.35,1729420197503.0,0.0
-1.433301,-3.708875,-9.504292,20.02,-22.049999,-54.32,1729420197525.0,0.0
-2.287539,-0.12682,-8.831908,-6.65,-23.870001,-63.0,1729420197542.0,0.0
-3.522235,1.330409,-7.357929,20.370001,-3.08,-50.75,1729420197563.0,0.0
-4.448257,0.454636,-5.388636,-17.219999,-20.370001,-48.93,1729420197582.0,0.0
-2.792424,-2.935993,-7.594819,-138.180008,-84.559998,-45.360001,1729420197606.0,0.0
-1.538585,-3.074777,-7.903493,-137.830002,-88.620003,-20.860001,1729420197628.0,0.0
-0.428315,-4.414758,-12.361321,-47.810001,-41.16,1.89,1729420197642.0,0.0
-1.643869,-6.431907,-12.976277,-105.699997,-7.63,24.85,1729420197663.0,0.0
-1.20359,-7.427321,-13.600803,-86.800003,16.52,40.880001,1729420197685.0,0.0
0.210568,-3.098706,-12.540783,78.610001,20.02,79.870003,1729420197703.0,0.0
0.605384,0.914058,-8.970692,171.149994,65.169998,122.360001,1729420197722.0,0.0
-1.272982,-3.404987,-0.181855,43.259998,59.360001,98.910004,1729420197744.0,0.0
-1.095913,-13.502698,-3.632305,-116.129997,22.33,-3.64,1729420197763.0,0.0
-0.361316,-18.407984,-9.410972,-113.68,-65.730003,-45.290001,1729420197786.0,0.0
-0.634098,-12.344571,-10.597812,56.91,-56.279999,-19.879999,1729420197805.0,0.0
-1.572084,-3.180061,-11.447264,213.220001,78.540001,-26.040001,1729420197823.0,0.0
-4.151547,-0.4666,-8.683553,194.460007,139.930008,-24.710001,1729420197844.0,0.0
-5.199604,-3.969693,-9.925428,57.400002,7.14,-63.139999,1729420197864.0,0.0
-2.859423,-8.834301,-12.394822,-4.97,-55.16,-80.010002,1729420197884.0,0.0
-0.452243,-3.955336,-10.04507,-32.060001,-93.029999,-85.050003,1729420197903.0,0.0
-2.615355,1.794617,-6.570691,45.220001,-54.18,-41.299999,1729420197926.0,0.0
-3.663411,2.799603,-6.592227,19.32,9.59,-45.849998,1729420197942.0,0.0
-4.412365,-1.847259,-4.855037,-89.040001,-38.779999,-24.57,1729420197963.0,0.0
-1.509871,-4.627719,-7.771888,-133.559998,-79.940002,-33.18,1729420197985.0,0.0
-0.59342,-4.027121,-9.726824,-79.660004,-66.43,-10.99,1729420198014.0,0.0
-1.007378,-5.481956,-12.000006,-21.629999,-14.42,3.85,1729420198023.0,0.0
-2.658426,-7.226324,-12.205789,-61.529999,24.219999,24.99,1729420198044.0,0.0
-2.088934,-5.091926,-11.389835,-44.52,7.56,35.139999,1729420198063.0,0.0
-0.011964,-2.749353,-11.617154,54.599998,5.32,50.400002,1729420198083.0,0.0
0.504886,-1.083949,-9.444471,89.459999,30.66,75.949997,1729420198103.0,0.0
-0.497707,-1.225125,-6.742974,35.84,79.379997,92.400002,1729420198122.0,0.0
-1.646262,-5.498707,-5.419744,-66.43,57.540001,64.75,1729420198144.0,0.0
-2.203789,-12.710674,-1.902294,-81.830002,20.51,35.279999,1729420198162.0,0.0
0.066999,-13.931013,-12.016755,-60.48,-55.369999,-3.36,1729420198186.0,0.0
-0.394816,-13.356737,-10.320245,63.77,-54.810001,-2.24,1729420198204.0,0.0
-2.036292,-7.62114,-8.070991,130.550003,63.630001,-19.530001,1729420198223.0,0.0
-3.797409,-5.551349,-7.829315,157.639999,94.709999,-36.049999,1729420198242.0,0.0
-3.596412,-6.070591,-8.580662,149.869995,16.450001,-31.57,1729420198261.0,0.0
-1.524228,-4.383651,-8.705089,32.060001,-58.380001,-58.939999,1729420198283.0,0.0
-1.409373,-4.280759,-8.597411,-48.299999,-77.139999,-70.629997,1729420198303.0,0.0
-2.136791,-1.210768,-10.712667,5.88,-22.68,-53.900002,1729420198322.0,0.0
-4.13719,3.218346,-6.309873,42.139999,6.02,-31.710001,1729420198344.0,0.0
-3.225525,-3.235096,-4.809574,-6.02,-46.549999,-2.24,1729420198362.0,0.0
-0.540778,-7.209574,-7.238289,-71.190002,-62.720001,-29.540001,1729420198383.0,0.0
-0.153141,-8.860621,-12.076575,-7.42,-39.970001,-23.379999,1729420198405.0,0.0
-1.01695,-7.123433,-11.727223,111.440002,-14.7,-6.23,1729420198424.0,0.0
-2.232504,-6.570691,-9.552148,220.779999,-4.2,21.49,1729420198443.0,0.0
-2.998207,-7.62114,-5.28096,249.270004,12.74,38.220001,1729420198464.0,0.0
-2.227718,-5.625526,-5.570491,162.190002,11.83,35.420002,1729420198485.0,0.0
-0.918844,-6.163911,-6.271588,102.269997,20.299999,28.559999,1729420198503.0,0.0
-1.048056,-6.52762,-6.642475,64.470001,29.33,32.130001,1729420198523.0,0.0
-1.622334,-7.336394,-6.79083,66.43,55.16,30.1,1729420198543.0,0.0
-3.266203,-6.01077,-4.223332,2.03,63.0,25.41,1729420198562.0,0.0
-3.519842,-2.232504,-4.354938,-150.430008,39.130001,3.85,1729420198582.0,0.0
-2.646462,-8.573483,-7.539784,-269.850006,17.43,-16.799999,1729420198606.0,0.0
-1.179662,-10.8682,-5.414958,-232.610001,-15.190001,-40.25,1729420198626.0,0.0
-0.892523,-8.432307,-4.718646,-212.520004,-37.029999,-18.41,1729420198641.0,0.0
-0.327817,-9.62154,-10.461421,-175.350006,-8.68,-28.280001,1729420198662.0,0.0
-0.055035,-9.236296,-14.916857,-67.900002,9.31,-24.15,1729420198683.0,0.0
-0.607777,-7.271788,-11.538191,54.389999,28.77,6.51,1729420198703.0,0.0
-1.596013,-5.065606,-6.738188,119.419998,43.049999,1.05,1729420198721.0,0.0
-2.553142,-3.096312,-4.61097,93.870003,57.400002,4.48,1729420198743.0,0.0
-1.768296,-5.199604,-11.813366,40.880001,29.889999,-6.65,1729420198762.0,0.0
-1.31366,-8.379664,-7.965706,46.619999,0.21,-3.85,1729420198842.0,0.0
-1.184447,-9.018548,-8.243275,55.02,3.43,13.3,1729420198842.0,0.0
-0.918844,-7.386643,-9.614362,130.759995,24.85,5.81,1729420198843.0,0.0
-0.89013,-7.645068,-8.748159,221.759995,35.560001,13.3,1729420198843.0,0.0
-1.414158,-2.713461,-10.162319,243.460007,31.5,18.34,1729420198877.0,0.0
-2.617748,-3.639483,-7.159326,284.76001,53.900002,46.200001,1729420198882.0,0.0
-2.902494,-7.915457,-3.725625,302.540009,25.27,43.049999,1729420198903.0,0.0
-2.727818,-10.463813,-3.828516,331.23999,-21.139999,48.580002,1729420198921.0,0.0
-0.66999,-6.678369,-1.663012,365.329987,-38.849998,42.279999,1729420198942.0,0.0
-1.447658,-6.644868,-1.567299,349.929993,-34.02,47.25,1729420198962.0,0.0
-2.380858,-11.066804,-0.949951,360.01001,-27.790001,44.170002,1729420198982.0,0.0
-2.368894,-12.794422,-0.835095,415.869995,-1.33,31.710001,1729420199002.0,0.0
-2.756532,-8.286345,0.387637,449.959991,59.290001,21.91,1729420199021.0,0.0
-2.177469,-7.467999,-0.641276,424.339996,84.489998,19.18,1729420199041.0,0.0
-3.23031,-5.898308,5.649454,292.670013,94.639999,-5.25,1729420199062.0,0.0
-3.613162,-6.80758,5.972485,154.699997,70.840004,-18.41,1729420199082.0,0.0
-3.381058,-6.197411,7.21436,84.489998,95.830002,-11.55,1729420199103.0,0.0
-3.065206,-7.066005,4.192225,-8.54,61.599998,-25.059999,1729420199122.0,0.0
-3.680161,-8.305488,2.617748,8.89,63.98,-8.47,1729420199141.0,0.0
-3.007778,-8.394022,4.299902,10.64,41.790001,-45.290001,1729420199165.0,0.0
-3.816552,-8.267202,5.563312,-46.549999,38.009998,-44.73,1729420199185.0,0.0
-3.87398,-6.417551,6.898508,-101.150002,38.5,-54.529999,1729420199202.0,0.0
-3.493521,-7.889136,5.972485,-143.779999,8.89,-53.970001,1729420199222.0,0.0
-2.938386,-7.925028,6.07777,-104.580002,-23.799999,-38.43,1729420199248.0,0.0
-2.787638,-5.891129,6.616155,-97.510002,-42.98,-18.549999,1729420199262.0,0.0
-2.739782,-6.594619,4.462614,-194.039993,-58.66,-16.66,1729420199283.0,0.0
-1.837688,-8.350951,2.612962,-265.440002,-61.25,-40.880001,1729420199303.0,0.0
-1.79701,-9.442079,2.522035,-311.360016,-65.519997,-33.950001,1729420199322.0,0.0
-1.842474,-10.140782,0.863809,-315.559998,-58.450001,-25.969999,1729420199343.0,0.0
-1.641476,-10.298709,-0.131605,-288.190002,-24.57,-37.59,1729420199368.0,0.0
-1.864009,-9.717253,-1.031307,-262.709991,-7.98,-39.900002,1729420199383.0,0.0
-1.744368,-9.209974,-2.139183,-256.76001,-6.23,-46.619999,1729420199402.0,0.0
-1.612763,-7.49432,-3.26381,-291.970001,-13.58,-60.060001,1729420199423.0,0.0
-1.787439,-7.668997,-5.182854,-315.140015,-16.799999,-66.57,1729420199442.0,0.0
-2.502892,-9.84168,-4.649254,-299.110016,0.7,-55.02,1729420199462.0,0.0
-1.696511,-9.767502,-6.376873,-217.0,-20.370001,-56.07,1729420199485.0,0.0
-2.277967,-9.391829,-3.981657,-148.190002,-22.610001,-35.630001,1729420199509.0,0.0
-1.308874,-6.257231,-4.613362,-144.830002,-33.810001,-54.740002,1729420199674.0,0.0
-0.882952,-3.926622,-6.9344,-207.479996,-33.810001,-64.260002,1729420199675.0,0.0
-1.770689,-5.230711,-5.233103,-259.350006,-48.02,-47.599998,1729420199676.0,0.0
-0.854238,-0.916451,-9.698111,-310.170013,-32.549999,-49.84,1729420199677.0,0.0
-2.117648,-6.740582,-15.675381,-240.169998,-11.97,-37.240002,1729420199678.0,0.0
-0.90688,-8.061419,-10.229317,-154.839996,-55.580002,-38.849998,1729420199681.0,0.0
-1.205983,-0.921237,-6.178268,-115.220001,-50.400002,23.379999,1729420199682.0,0.0
-0.339781,1.464408,-8.803195,-96.669998,-4.55,-14.49,1729420199684.0,0.0
-1.72044,1.65344,-13.416556,-162.75,16.66,1.19,1729420199685.0,0.0
-0.746561,-5.115855,-13.373486,-176.75,-38.5,-24.780001,1729420199703.0,0.0
0.598206,-4.981857,-11.882757,-134.960007,-72.379997,-2.66,1729420199723.0,0.0
0.583849,-3.424129,-9.449257,-67.340004,-42.07,-9.45,1729420199742.0,0.0
-1.801795,-4.089334,-10.08814,-32.619999,5.39,-10.57,1729420199762.0,0.0
-2.376073,-1.679761,-8.913264,-30.870001,3.71,-9.31,1729420199784.0,0.0
-1.598405,-1.100698,-9.186047,-55.650002,-25.129999,-8.89,1729420199802.0,0.0
-1.612763,-3.017349,-10.236496,-70.0,-15.82,-8.61,1729420199822.0,0.0
-1.682154,-2.35693,-11.140982,-41.16,-4.48,1.75,1729420199842.0,0.0
-1.438086,-0.33021,-9.432507,-18.34,-1.47,11.2,1729420199862.0,0.0
-2.364109,-1.45005,-9.58804,-6.16,1.05,7.98,1729420199883.0,0.0
-3.270989,-2.471786,-8.327023,5.04,4.27,12.46,1729420199913.0,0.0
-2.277967,-3.589234,-8.094919,56.0,-9.38,20.02,1729420199923.0,0.0
-1.933401,-3.572484,-9.382257,87.360001,-10.08,22.75,1729420199942.0,0.0
-1.574477,0.459422,-10.944772,80.360001,3.08,22.26,1729420199966.0,0.0
-2.273181,-0.878166,-10.387242,46.830002,-0.28,20.02,1729420199983.0,0.0
-1.564906,-1.316052,-11.3683,24.710001,11.13,9.52,1729420200005.0,0.0
-1.567299,-3.316452,-9.229117,25.83,-10.78,4.69,1729420200160.0,0.0
-0.835095,-2.490928,-10.485349,48.93,-0.91,5.53,1729420200163.0,0.0
-0.473779,-2.136791,-11.526227,74.410004,-2.8,5.53,1729420200164.0,0.0
-0.835095,-2.141576,-10.937593,101.220001,12.18,7.63,1729420200164.0,0.0
-1.634298,-2.715853,-9.987641,128.100006,28.35,8.4,1729420200165.0,0.0
-2.007578,-4.37408,-10.432706,153.229996,29.68,7.7,1729420200176.0,0.0
-1.974079,-6.039484,-10.432706,207.339996,14.77,19.110001,1729420200177.0,0.0
-1.538585,-6.977471,-11.854043,274.610016,13.02,27.58,1729420200178.0,0.0
-0.614955,-6.151947,-10.817951,347.130005,19.74,40.670002,1729420200185.0,0.0
0.636491,-4.366901,-8.085347,404.390015,15.54,47.18,1729420200210.0,0.0
1.627119,-5.185246,-6.357729,396.410004,28.49,48.93,1729420200222.0,0.0
2.127219,-4.331009,-2.411965,318.570007,34.509998,35.349998,1729420200242.0,0.0
0.882952,0.327817,2.935993,95.830002,47.459999,3.85,1729420200288.0,0.0
-7.913064,-6.549156,14.378471,-66.43,41.369999,31.85,1729420200381.0,0.0
-6.927221,-10.222138,-1.308874,-117.879997,63.279999,-10.43,1729420200386.0,0.0
-5.575277,-6.45105,-5.99402,-109.340004,-6.51,-49.349998,1729420200386.0,0.0
-2.902494,-2.45025,-16.230515,-132.509995,-146.300003,-0.07,1729420200386.0,0.0
-0.351745,-8.700303,-18.606588,-24.5,-141.470001,6.58,1729420200386.0,0.0
-5.28096,-19.36272,-7.750352,70.980003,-0.91,40.950001,1729420200388.0,0.0
-8.999406,-15.92902,-14.033905,-5.04,174.020004,-37.380001,1729420200419.0,0.0
-5.333601,-8.721838,-11.837293,89.040001,42.630001,-8.82,1729420200433.0,0.0
1.294517,-5.431707,-10.272388,116.620003,-14.56,-21.35,1729420200443.0,0.0
3.388237,-4.232903,-4.716253,81.970001,22.120001,3.43,1729420200463.0,0.0
0.595813,-2.562713,12.169895,91.209999,58.029999,23.450001,1729420200484.0,0.0
-0.059821,-3.871587,9.126225,27.23,65.449997,0.77,1729420200504.0,0.0
-2.050649,-6.429514,5.142176,-65.940002,18.620001,8.68,1729420200523.0,0.0
-1.85683,-7.68096,-0.598206,-90.580002,-1.96,14.49,1729420200543.0,0.0
-1.423729,-7.628319,-2.385644,-91.980003,-70.699997,-4.41,1729420200571.0,0.0
-3.720839,-10.205389,-18.020348,-124.949997,-103.110001,8.68,1729420200586.0,0.0
-4.838287,-12.543176,-22.925634,-112.629997,-5.81,-26.18,1729420200607.0,0.0
-7.496714,-15.266209,-14.438292,5.81,51.170002,-2.87,1729420200628.0,0.0
-4.067799,-8.705089,-8.68116,130.619995,35.490002,3.78,1729420200647.0,0.0
-0.433101,-5.893522,-7.298109,127.75,-34.650002,-5.81,1729420200670.0,0.0
1.631905,-4.675575,-7.889136,19.25,19.809999,-12.88,1729420200738.0,0.0
2.024328,-5.879165,-3.510271,-8.47,74.199997,-8.89,1729420200740.0,0.0
-1.019342,-7.283752,7.499106,35.77,81.410004,24.92,1729420200742.0,0.0
-3.110669,-7.69771,8.910872,69.93,36.75,25.76,1729420200744.0,0.0
-4.208975,-6.116055,5.371887,-4.55,14.14,-4.83,1729420200768.0,0.0
-1.526621,-6.333801,-4.630112,-72.519997,-10.57,-10.99,1729420200787.0,0.0
-0.928415,-6.69751,-14.85225,-104.160004,-148.330002,-9.94,1729420200805.0,0.0
-1.878366,-11.20798,-17.077576,-95.550003,-112.349998,-1.82,1729420200837.0,0.0
-7.534998,-19.173687,-15.256638,-38.849998,68.110001,-14.84,1729420200844.0,0.0
-7.080362,-11.913863,-11.734402,88.199997,113.540001,-10.01,1729420200865.0,0.0
-1.014557,-6.58744,-6.656832,163.380005,-25.620001,-2.59,1729420200885.0,0.0
2.127219,-4.24726,-8.338986,60.619999,-4.83,-6.86,1729420200904.0,0.0
3.596412,-3.04367,-4.220939,0.84,43.82,-5.88,1729420200928.0,0.0
1.131805,-4.448257,6.417551,36.400002,53.27,32.830002,1729420200944.0,0.0
-2.467,-6.175875,10.997414,42.630001,58.380001,33.529999,1729420200964.0,0.0
-4.431508,-8.425128,4.529613,-28.98,58.029999,3.43,1729420200986.0,0.0
-3.845266,-8.901299,-2.191825,-75.739998,53.619999,-11.76,1729420201006.0,0.0
-2.328217,-6.845865,-4.333402,-53.34,-100.519997,-3.01,1729420201024.0,0.0
-0.66999,-3.919443,-13.51227,-69.160004,-186.550003,18.41,1729420201045.0,0.0
-1.916651,-10.492528,-16.467405,-83.720001,-88.480003,8.4,1729420201069.0,0.0
-7.551748,-18.800407,-16.146767,-95.340004,132.860001,-17.290001,1729420201085.0,0.0
-7.226324,-15.471991,-11.940186,40.389999,90.300003,-10.22,1729420201109.0,0.0
1.064806,-5.919843,-7.984849,144.970001,-47.529999,-3.78,1729420201126.0,0.0
2.916851,-3.474378,-7.176075,60.34,-8.75,-14.07,1729420201145.0,0.0
2.548356,-5.369494,-2.069792,31.15,53.970001,-6.65,1729420201166.0,0.0
-1.088734,-7.465607,8.350951,23.17,96.529999,5.67,1729420201188.0,0.0
-3.945765,-8.035098,6.422336,23.379999,60.900002,3.92,1729420201208.0,0.0
-4.587041,-5.800202,4.589434,-6.44,16.379999,-7.0,1729420201226.0,0.0
-2.261217,-5.115855,-1.153341,-30.17,-48.439999,8.75,1729420201245.0,0.0
-0.445065,-6.924829,-4.079762,-60.970001,-113.120003,6.37,1729420201266.0,0.0
0.363709,-7.867601,-17.254644,-144.479996,-105.139999,-9.87,1729420201293.0,0.0
-2.684747,-12.847065,-16.003199,-126.559998,-12.88,4.27,1729420201307.0,0.0
-7.472785,-16.280766,-11.629118,-38.990002,100.660004,-12.88,1729420201328.0,0.0
-5.852845,-10.652846,-9.88475,79.239998,65.870003,4.9,1729420201346.0,0.0
-0.70349,-6.719046,-7.951349,118.860001,-44.310001,1.47,1729420201365.0,0.0
1.457229,-4.907679,-7.369894,39.759998,-18.690001,4.34,1729420201387.0,0.0
2.282753,-5.635098,-5.71406,-5.81,47.32,-2.87,1729420201409.0,0.0
-0.870987,-6.941578,2.502892,15.33,89.809998,14.14,1729420201424.0,0.0
-3.964907,-7.180861,7.094719,48.439999,59.709999,16.17,1729420201445.0,0.0
-3.572484,-7.180861,2.22054,14.14,14.84,-18.48,1729420201465.0,0.0
-1.191626,-6.549156,-3.60359,-53.200001,-39.200001,-9.52,1729420201489.0,0.0
0.18664,-6.173482,-4.326223,-46.34,-110.040001,-5.53,1729420201507.0,0.0
-0.346959,-6.817152,-11.631511,-78.75,-123.690002,1.19,1729420201526.0,0.0
-2.158326,-10.774881,-17.8361,-114.730003,-34.439999,-22.26,1729420201545.0,0.0
-8.288737,-16.354942,-12.777672,-77.699997,89.110001,-16.66,1729420201565.0,0.0
-6.656832,-12.607781,-10.018748,53.619999,60.549999,-7.49,1729420201585.0,0.0
-0.631705,-7.613962,-7.269395,135.660004,-48.650002,-3.29,1729420201606.0,0.0
1.158126,-4.398008,-6.149554,72.519997,-30.380001,-1.33,1729420201626.0,0.0
1.940579,-3.931407,-6.072984,-2.24,34.860001,-15.82,1729420201645.0,0.0
0.454636,-5.28096,-0.789631,-4.83,72.870003,3.08,1729420201666.0,0.0
-2.172683,-7.063612,7.515855,54.810001,41.790001,27.58,1729420201686.0,0.0
-3.639483,-8.236095,4.768896,33.599998,3.99,14.98,1729420201708.0,0.0
-3.620341,-5.869594,-0.648455,-65.590004,44.450001,-3.92,1729420201726.0,0.0
-0.37328,-6.783652,-5.678168,-40.32,-88.830002,13.86,1729420201746.0,0.0
-0.332602,-10.707881,-11.126624,-69.370003,-139.089996,22.610001,1729420201770.0,0.0
-1.330409,-13.883157,-19.453648,-148.539993,-36.540001,-29.469999,1729420201787.0,0.0
-6.89133,-13.296914,-13.301701,-82.32,102.059998,-18.200001,1729420201808.0,0.0
-5.709275,-9.422935,-8.690732,149.100006,71.330002,9.94,1729420201827.0,0.0
-1.438086,-5.47717,-6.484549,154.559998,-37.170002,5.81,1729420201846.0,0.0
0.899701,-4.309474,-7.130611,6.3,-22.889999,-1.68,1729420201870.0,0.0
1.866402,-5.548956,-7.326823,-55.369999,41.23,-7.7,1729420201888.0,0.0
0.598206,-7.470392,-1.194018,-8.75,77.699997,8.47,1729420201909.0,0.0
-2.691926,-8.367701,6.486942,56.630001,51.59,28.84,1729420201927.0,0.0
-3.850052,-8.487342,4.199404,56.91,5.11,13.440001,1729420201949.0,0.0
-3.948158,-6.108876,-0.55992,-47.529999,19.950001,-17.92,1729420201970.0,0.0
-1.981257,-6.853044,-5.505885,-57.049999,-19.809999,-8.82,1729420201989.0,0.0
-0.045464,-7.092326,-5.379066,-37.029999,-104.230003,-0.91,1729420202016.0,0.0
-0.122034,-8.913264,-16.524832,-62.299999,-120.470001,2.17,1729420202027.0,0.0
-4.273581,-13.469198,-13.514663,-81.760002,37.170002,-14.77,1729420202047.0,0.0
-8.042276,-11.844472,-10.975878,-4.48,109.690002,-9.52,1729420202068.0,0.0
-3.345166,-7.946564,-7.879565,117.040001,-0.84,12.46,1729420202088.0,0.0
0.550349,-6.269196,-7.049256,89.739998,-61.459999,9.38,1729420202108.0,0.0
1.332802,-5.151747,-7.489535,-2.73,6.23,2.66,1729420202128.0,0.0
0.911665,-6.417551,-6.06102,-20.02,86.519997,-8.89,1729420202147.0,0.0
-2.435893,-7.554141,2.428715,17.57,84.07,14.42,1729420202167.0,0.0
-4.185047,-8.898908,5.218746,61.25,5.25,23.940001,1729420202191.0,0.0
-3.522235,-7.704889,0.794417,5.53,-12.04,-11.27,1729420202207.0,0.0
-2.467,-6.348158,-3.570091,-40.599998,-3.43,-13.23,1729420202227.0,0.0
-0.20339,-6.029913,-6.309873,-36.610001,-56.420002,-16.379999,1729420202247.0,0.0
0.476172,-5.910272,-5.599205,-22.610001,-100.029999,0.77,1729420202266.0,0.0
0.083749,-6.553941,-11.13859,-30.52,-90.510002,-2.31,1729420202287.0,0.0
-3.259024,-12.3685,-14.718252,-51.240002,6.3,-9.1,1729420202307.0,0.0
-8.860621,-15.062819,-11.308479,-66.360001,95.129997,-23.66,1729420202326.0,0.0
-4.326223,-11.710474,-9.310472,57.260002,13.3,3.64,1729420202346.0,0.0
1.004985,-5.225924,-6.778866,126.279999,-52.360001,3.85,1729420202367.0,0.0
1.232304,-3.864408,-6.551548,34.369999,32.549999,-9.59,1729420202387.0,0.0
0.007178,-6.843473,-3.596412,-10.22,76.230003,-13.09,1729420202407.0,0.0
-2.737389,-8.561519,2.163112,9.03,64.120003,3.29,1729420202427.0,0.0
-3.426522,-8.087741,3.215954,66.919998,5.39,13.09,1729420202447.0,0.0
-3.098706,-5.888737,0.133998,16.73,-7.84,-6.16,1729420202466.0,0.0
-1.962115,-6.455836,-4.005585,-29.889999,-8.4,-5.46,1729420202487.0,0.0
-0.591027,-6.515656,-4.031906,-29.469999,-54.740002,-1.33,1729420202507.0,0.0
-0.344566,-6.24766,-6.312266,-21.700001,-81.480003,12.74,1729420202526.0,0.0
-1.808974,-10.4016,-13.761123,-58.099998,-45.5,-4.55,1729420202547.0,0.0
-6.448657,-14.536398,-12.339786,-97.019997,41.580002,-16.66,1729420202566.0,0.0
-5.541777,-11.176874,-9.346365,-18.27,35.84,-10.99,1729420202620.0,0.0
0.921237,-6.178268,-6.546762,101.080002,-46.619999,13.37,1729420202660.0,0.0
0.315853,-6.508478,-7.094719,55.510002,-16.17,4.62,1729420202660.0,0.0
-1.342373,-7.843673,-4.941179,-11.76,58.799999,-7.14,1729420202667.0,0.0
-2.641676,-6.412765,3.830909,-10.71,82.110001,-2.1,1729420202687.0,0.0
-3.096312,-7.865208,2.328217,51.869999,-19.530001,17.43,1729420202718.0,0.0
-2.835495,-8.877372,-1.9669,-21.139999,20.790001,-18.48,1729420202738.0,0.0
-1.588834,-7.865208,-4.479364,-22.960001,-37.029999,-15.47,1729420202751.0,0.0
-0.375673,-5.76431,-7.271788,-11.69,-86.029999,-5.39,1729420202774.0,0.0
-1.184447,-8.882158,-13.507483,-36.610001,-50.610001,-10.57,1729420202792.0,0.0
-5.814559,-14.869,-12.143576,-75.459999,44.66,-22.75,1729420202809.0,0.0
-4.979464,-13.069597,-10.100104,-10.5,46.41,-15.96,1729420202832.0,0.0
-0.490529,-7.65464,-7.420143,94.080002,-25.549999,0.21,1729420202865.0,0.0
1.244268,-3.981657,-6.664011,70.629997,5.39,-0.07,1729420202868.0,0.0
1.007378,-4.185047,-3.804588,17.710001,49.560001,-0.42,1729420202888.0,0.0
-1.002593,-5.833702,2.557927,-3.36,59.920002,13.37,1729420202908.0,0.0
-3.067599,-8.38445,5.111069,27.370001,11.97,27.860001,1729420202927.0,0.0
-3.828516,-8.30788,2.155933,-21.35,2.03,-1.33,1729420202947.0,0.0
-2.68714,-8.068598,-3.658626,-50.540001,-7.0,-6.86,1729420202967.0,0.0
-1.071985,-8.020741,-7.664211,-32.060001,-70.209999,-5.6,1729420202988.0,0.0
-1.490728,-10.643275,-16.338192,-60.130001,-59.220001,-7.7,1729420203010.0,0.0
-5.776274,-17.09911,-11.133803,-55.510002,28.91,-29.540001,1729420203027.0,0.0
-1.854438,-10.344172,-8.836694,166.460007,24.85,2.73,1729420203048.0,0.0
1.878366,-3.57727,-6.003592,190.610001,-18.620001,3.08,1729420203071.0,0.0
2.318645,-1.064806,-3.940979,108.919998,24.99,19.74,1729420203091.0,0.0
1.160519,-2.287539,-0.447458,39.619999,73.290001,17.01,1729420203107.0,0.0
-2.203789,-6.427122,3.620341,38.5,94.220001,32.130001,1729420203127.0,0.0
-4.546363,-12.502499,3.165704,40.040001,59.920002,13.3,1729420203148.0,0.0
-5.74756,-11.566904,2.476572,-6.16,0.7,0.7,1729420203167.0,0.0
-1.9669,-8.295916,-2.502892,46.830002,-73.150002,9.52,1729420203190.0,0.0
0.4666,-5.91745,-4.85743,75.879997,-104.93,11.62,1729420203208.0,0.0
-0.540778,-8.913264,-6.470192,24.219999,-80.779999,27.51,1729420203228.0,0.0
-2.493321,-12.926028,-9.836893,-53.27,21.629999,12.39,1729420203247.0,0.0
-5.32403,-14.565112,-9.834501,1.47,66.779999,12.11,1729420203268.0,0.0
-4.06062,-10.114462,-4.244867,114.590004,37.59,24.01,1729420203287.0,0.0
-1.572084,-7.812566,-3.488736,169.680008,-20.02,32.689999,1729420203308.0,0.0
-0.904487,-7.501499,-3.268596,135.309998,-0.77,21.98,1729420203327.0,0.0
-1.545763,-9.339187,-2.947958,99.330002,45.360001,7.42,1729420203347.0,0.0
-3.23031,-11.516656,-1.85683,90.019997,64.889999,1.54,1729420203367.0,0.0
-2.794817,-10.549955,-0.70349,135.380005,28.630001,6.86,1729420203388.0,0.0
-1.567299,-9.037691,-0.050249,155.960007,5.11,6.86,1729420203410.0,0.0
-1.564906,-8.863015,1.497907,155.330002,-6.3,12.11,1729420203429.0,0.0
-1.277767,-8.152347,1.098306,125.160004,0.56,-2.87,1729420203448.0,0.0
-1.777867,-7.999206,1.737189,84.0,1.75,-5.18,1729420203467.0,0.0
-2.629712,-9.45165,2.39043,40.740002,-11.41,-3.57,1729420203488.0,0.0
-2.323431,-11.085947,-0.413958,17.01,-11.76,-15.26,1729420203509.0,0.0
-2.656033,-10.229317,-0.368495,-25.129999,-0.35,-18.620001,1729420203527.0,0.0
-3.251846,-9.394222,0.437887,-40.810001,-8.05,-5.39,1729420203547.0,0.0
-2.325824,-8.547162,0.418744,-49.77,-27.58,-14.7,1729420203567.0,0.0
-2.337788,-9.334401,0.729811,-63.349998,-33.18,-17.15,1729420203587.0,0.0
-2.550749,-10.444671,0.878166,-77.559998,-18.690001,-28.77,1729420203609.0,0.0
-2.486143,-10.368099,0.87338,-97.230003,-18.9,-33.670002,1729420203629.0,0.0
-2.550749,-9.583255,1.095913,-117.110001,-36.889999,-27.58,1729420203646.0,0.0
-2.120041,-7.635497,-0.722632,-171.149994,-42.349998,-41.790001,1729420203667.0,0.0
-2.127219,-8.690732,-2.744568,-198.240005,-36.610001,-49.91,1729420203688.0,0.0
-1.883151,-10.564312,-2.9671,-198.940002,-31.57,-52.5,1729420203709.0,0.0
-1.579263,-9.102298,-2.29711,-166.320007,-37.869999,-50.610001,1729420203728.0,0.0
-1.048056,-6.74776,-2.962314,-187.600006,-49.07,-58.66,1729420203747.0,0.0
-1.201197,-6.946364,-3.718446,-212.449997,-31.57,-54.529999,1729420203842.0,0.0
-1.304088,-8.970692,-5.079963,-203.770004,-6.09,-54.459999,1729420203842.0,0.0
-1.775474,-7.647461,-5.163712,-195.369995,-2.38,-49.420002,1729420203843.0,0.0
-1.885544,-7.113862,-7.020542,-191.449997,-14.42,-37.029999,1729420203843.0,0.0
-1.239482,-8.183454,-6.568298,-172.339996,-26.809999,-28.49,1729420203847.0,0.0
-0.701097,-6.065805,-4.855037,-188.649994,-48.509998,-18.83,1729420203866.0,0.0
-0.583849,-4.331009,-8.26481,-216.440002,-46.200001,-14.63,1729420203889.0,0.0
-0.928415,-4.534399,-11.643474,-241.779999,-3.43,-20.02,1729420203908.0,0.0
-2.720639,-5.194818,-10.317852,-252.839996,-9.45,-21.139999,1729420203928.0,0.0
-2.457429,-8.901299,-7.692925,-180.809998,-25.34,-23.66,1729420203947.0,0.0
-0.753739,-3.115455,-5.178068,-132.020004,-40.810001,-14.42,1729420203966.0,0.0
-1.146162,-0.40678,-6.455836,-101.5,-11.9,5.95,1729420203988.0,0.0
-1.98365,-0.799203,-10.382458,-138.949997,17.99,-16.799999,1729420204008.0,0.0
-1.883151,-3.330809,-13.086348,-143.220001,-13.37,-12.18,1729420204027.0,0.0
-0.311067,-5.855237,-12.196217,-127.959999,-57.119999,-5.88,1729420204047.0,0.0
-0.083749,-4.15394,-10.439885,-47.110001,-33.040001,0.49,1729420204066.0,0.0
-1.253839,-2.091327,-9.437292,-15.61,-6.72,-1.19,1729420204088.0,0.0
-2.65364,-3.237489,-10.159925,-45.360001,-1.82,-3.99,1729420204110.0,0.0
-2.163112,-5.106283,-11.787045,-51.029999,-22.26,-0.56,1729420204126.0,0.0
-1.555335,-4.649254,-10.870593,-3.15,-31.290001,11.9,1729420204147.0,0.0
-1.59362,-2.706282,-9.312866,51.939999,-21.139999,16.24,1729420204167.0,0.0
-2.352145,-1.22034,-8.130811,82.809998,0.84,15.82,1729420204190.0,0.0
-2.598605,-3.773481,-10.882557,114.660004,23.309999,15.26,1729420204218.0,0.0
-1.70369,-2.959922,-11.4353,123.059998,19.74,14.07,1729420204227.0,0.0
-0.945165,-3.285345,-10.506885,119.770004,-7.28,28.700001,1729420204246.0,0.0
-0.167498,-4.819145,-10.023535,128.240005,-11.27,17.15,1729420204267.0,0.0
-0.988236,-7.688138,-9.260223,195.229996,8.19,20.299999,1729420204287.0,0.0
-1.785046,-9.059227,-9.779467,315.209991,31.290001,38.709999,1729420204307.0,0.0
-1.631905,-5.644669,-10.664811,417.200012,41.16,58.170002,1729420204326.0,0.0
-1.572084,-4.95075,-8.147561,484.330017,10.78,65.660004,1729420204347.0,0.0
-0.488136,-6.520442,-5.398208,444.570007,-52.290001,42.77,1729420204368.0,0.0
0.638884,-7.724032,-3.156133,371.209991,-67.830002,40.040001,1729420204387.0,0.0
0.535992,-8.539984,-2.294717,335.440002,-34.509998,17.57,1729420204410.0,0.0
0.232104,-8.874979,-2.550749,295.049988,19.25,-9.45,1729420204426.0,0.0
-0.648455,-9.760324,-3.61077,241.919998,51.73,-19.950001,1729420204446.0,0.0
-1.696511,-10.939985,-1.651048,215.529999,69.019997,-13.02,1729420204468.0,0.0
-1.777867,-10.253245,-1.129412,226.869995,72.800003,-8.89,1729420204487.0,0.0
-1.440479,-7.013363,0.949951,243.740005,73.5,-9.66,1729420204507.0,0.0
-1.481157,-4.500899,2.354537,241.639999,82.949997,3.29,1729420204527.0,0.0
-1.445265,-5.462814,1.48355,221.550003,94.919998,14.77,1729420204547.0,0.0
-5.850451,-7.611568,14.701502,179.899994,98.419998,23.24,1729420204566.0,0.0
-8.262416,-6.424729,9.812965,108.290001,77.07,11.55,1729420204588.0,0.0
-5.895915,-5.931807,5.962914,38.639999,48.16,7.98,1729420204618.0,0.0
-3.268596,-7.439285,2.78046,42.560001,-41.439999,35.560001,1729420204626.0,0.0
-1.385444,-7.45125,2.734996,38.779999,-34.720001,28.07,1729420204647.0,0.0
-2.976671,-8.678767,4.012764,13.51,14.77,46.619999,1729420204667.0,0.0
-4.505685,-11.320443,1.131805,3.78,66.779999,30.24,1729420204688.0,0.0
-5.460421,-13.42852,-0.837488,30.030001,63.07,26.880001,1729420204709.0,0.0
-4.867002,-14.940784,0.119641,56.209999,42.209999,-8.75,1729420204726.0,0.0
-4.165904,-10.485349,2.739782,62.299999,46.34,-25.48,1729420204748.0,0.0
-4.144369,-6.943972,5.541777,87.639999,27.51,-17.01,1729420204768.0,0.0
-3.37388,-7.530212,4.59422,47.670002,21.98,-42.700001,1729420204787.0,0.0
-3.402594,-7.487142,5.271388,30.1,22.540001,-38.080002,1729420204810.0,0.0
-3.335595,-6.223732,6.197411,59.990002,3.71,-18.83,1729420204826.0,0.0
-2.998207,-5.498707,5.718846,63.700001,-9.03,-6.51,1729420204846.0,0.0
-3.282953,-4.517649,4.996214,26.74,0.98,-2.73,1729420204867.0,0.0
-3.881158,-5.419744,3.534199,-10.57,23.030001,-14.84,1729420204888.0,0.0
-4.362115,-6.022735,4.304688,-26.74,34.299999,-19.809999,1729420204908.0,0.0
-4.345366,-6.616155,4.68754,-24.08,17.85,-8.33,1729420204926.0,0.0
-4.393222,-7.02772,4.668397,-36.189999,26.460001,-11.06,1729420204948.0,0.0
-4.862216,-5.848059,5.548956,-47.810001,24.99,-4.69,1729420204967.0,0.0
-4.520042,-3.907479,7.69771,-45.920002,2.31,7.0,1729420204988.0,0.0
-4.345366,-5.268995,4.546363,-93.309998,-3.15,17.290001,1729420205008.0,0.0
-4.453043,-8.714661,4.400401,-169.399994,15.4,-11.76,1729420205026.0,0.0
-3.407379,-11.60519,1.088734,-197.610001,-18.41,-15.12,1729420205048.0,0.0
-3.134598,-9.994821,0.72024,-121.660004,-10.64,4.34,1729420205067.0,0.0
-3.826123,-8.126025,1.971686,-101.779999,3.43,6.3,1729420205087.0,0.0
-3.876373,-8.202596,1.734797,-116.199997,-4.62,3.78,1729420205111.0,0.0
-3.457629,-8.611769,0.421137,-128.729996,-17.639999,4.48,1729420205128.0,0.0
-3.400201,-9.169296,-0.323031,-129.220001,-18.34,9.17,1729420205147.0,0.0
-3.625126,-9.442079,-0.452243,-115.779999,-12.53,12.88,1729420205166.0,0.0
-3.828516,-9.911072,-1.012164,-111.580002,-5.88,13.65,1729420205190.0,0.0
-4.07737,-10.746166,-2.68714,-104.650002,3.22,17.639999,1729420205206.0,0.0
-4.252046,-13.531413,-4.036692,-43.68,17.219999,14.84,1729420205226.0,0.0
-3.972085,-14.845071,-4.110869,65.660004,23.73,13.02,1729420205248.0,0.0
-4.110869,-11.69851,-3.249453,178.220001,14.63,24.15,1729420205267.0,0.0
-4.232903,-11.74158,-2.158326,249.619995,2.17,14.42,1729420205287.0,0.0
-4.252046,-9.930215,-0.277567,290.220001,-7.98,9.52,1729420205309.0,0.0
-3.292524,-6.692725,4.74736,326.76001,-28.91,-6.44,1729420205326.0,0.0
-3.06042,-5.125426,5.391029,247.660004,-21.07,-21.98,1729420205347.0,0.0
-3.448057,-6.072984,4.225725,123.270004,23.379999,-57.049999,1729420205373.0,0.0
-2.787638,-5.79781,4.969893,-56.91,36.889999,-88.760002,1729420205389.0,0.0
-2.337788,-5.845665,9.521042,-29.120001,-18.200001,-46.689999,1729420205411.0,0.0
-1.832902,-2.656033,9.343972,17.710001,-4.27,-13.37,1729420205428.0,0.0
-3.196811,-3.424129,5.376673,-11.83,33.110001,3.85,1729420205448.0,0.0
-4.790431,-4.95075,4.096512,-40.810001,56.84,12.39,1729420205467.0,0.0
-5.175675,-6.872187,3.426522,-97.370003,32.619999,10.85,1729420205488.0,0.0
-4.555934,-8.946764,3.282953,-103.879997,-3.64,13.93,1729420205510.0,0.0
-3.519842,-9.348758,3.266203,-91.559998,-22.960001,13.51,1729420205527.0,0.0
-3.512664,-7.855636,3.811767,-66.43,-10.99,25.83,1729420205547.0,0.0
-5.089533,-6.958328,2.935993,-64.610001,15.26,37.52,1729420205567.0,0.0
-5.84088,-9.131011,1.660619,-137.759995,16.17,11.76,1729420205588.0,0.0
-5.178068,-11.691331,-1.447658,-170.660004,-9.03,2.94,1729420205611.0,0.0
-5.111069,-11.397014,-0.066999,-108.709999,-8.96,12.46,1729420205627.0,0.0
-5.017749,-8.341379,0.667598,-57.189999,-2.45,14.0,1729420205647.0,0.0
-5.115855,-8.839087,2.167897,-76.019997,-5.95,5.53,1729420205668.0,0.0
-3.960121,-10.767702,0.684347,-115.709999,-31.639999,-6.44,1729420205688.0,0.0
-3.629912,-10.425529,-0.275175,-77.699997,-24.57,0.63,1729420205708.0,0.0
-4.165904,-8.255238,-0.72024,-59.639999,-4.76,1.47,1729420205728.0,0.0
-4.31426,-7.724032,-0.602991,-60.760002,-4.83,0.42,1729420205747.0,0.0
-4.070191,-8.516055,-1.304088,-72.800003,-10.78,5.53,1729420205767.0,0.0
-3.699304,-9.997212,-2.723032,-64.400002,-9.59,4.55,1729420205788.0,0.0
-4.024727,-12.282358,-3.299703,-27.16,10.64,2.8,1729420205812.0,0.0
-4.376472,-11.62194,-3.299703,29.4,20.719999,2.66,1729420205829.0,0.0
-4.398008,-10.829915,-3.122634,119.07,8.75,10.22,1729420205849.0,0.0
-3.940979,-12.330215,-1.732404,201.389999,-19.040001,7.28,1729420205868.0,0.0
-2.54357,-11.291731,-0.461815,231.699997,-34.16,-7.07,1729420205889.0,0.0
-2.275574,-9.573684,0.368495,242.830002,-20.860001,1.75,1729420205913.0,0.0
-2.500499,-8.197811,0.452243,239.259995,-3.5,-6.58,1729420205929.0,0.0
-3.019742,-7.980063,1.679761,214.339996,23.030001,-17.780001,1729420205948.0,0.0
-3.404987,-5.355137,7.757531,141.539993,20.370001,-28.280001,1729420205969.0,0.0
-3.639483,-6.06102,5.513064,13.02,-3.15,-44.450001,1729420205989.0,0.0
-4.070191,-7.051648,2.287539,-35.91,44.450001,-67.129997,1729420206011.0,0.0
-5.79063,-7.836494,3.144169,-62.23,39.27,-67.900002,1729420206029.0,0.0
-5.503492,-7.52782,5.776274,-48.580002,23.17,-60.760002,1729420206048.0,0.0
-3.716053,-3.847659,6.991827,9.8,-18.27,-12.95,1729420206068.0,0.0
-2.579463,-1.246661,5.864808,35.700001,-24.780001,19.040001,1729420206095.0,0.0
-3.294917,-3.192025,4.280759,-26.6,14.14,20.299999,1729420206109.0,0.0
-4.587041,-6.929615,3.651447,-112.910004,36.330002,8.89,1729420206128.0,0.0
-4.204189,-10.021141,1.59362,-116.900002,17.01,8.26,1729420206149.0,0.0
-3.086741,-9.889536,2.09372,-92.120003,-13.86,15.05,1729420206169.0,0.0
-4.268795,-7.542177,3.5007,-66.849998,0.21,42.700001,1729420206193.0,0.0
-5.757132,-6.601797,3.270989,-91.489998,28.700001,45.150002,1729420206209.0,0.0
-6.766902,-8.023134,0.421137,-165.899994,11.76,23.940001,1729420206228.0,0.0
-6.953543,-10.954341,-1.040878,-197.539993,-10.43,7.91,1729420206249.0,0.0
-5.429315,-11.799009,-2.055435,-175.279999,-32.48,-4.2,1729420206268.0,0.0
-4.407579,-8.295916,-1.777867,-134.330002,-37.52,7.56,1729420206289.0,0.0
-4.419543,-7.668997,-1.897508,-115.779999,-5.6,2.8,1729420206309.0,0.0
-4.486543,-9.083155,-2.919244,-137.970001,0.28,2.1,1729420206329.0,0.0
-4.130012,-10.829915,-2.986243,-138.600006,-10.85,1.33,1729420206348.0,0.0
-2.909672,-13.062418,-4.331009,-92.400002,-5.25,-0.77,1729420206368.0,0.0
-2.057827,-13.270595,-5.015356,-37.170002,-7.14,0.7,1729420206389.0,0.0
-1.844866,-12.129218,-4.895715,34.720001,-5.18,1.05,1729420206410.0,0.0
-2.679961,-12.734602,-3.144169,154.419998,11.9,2.73,1729420206429.0,0.0
-4.108476,-9.506684,0.234497,259.630005,17.43,12.46,1729420206448.0,0.0
-4.04387,-6.850651,1.765903,301.630005,4.41,17.92,1729420206468.0,0.0
-3.601198,-5.632704,1.282553,234.5,-4.69,5.81,1729420206489.0,0.0
-4.319045,-5.776274,1.088734,111.790001,-4.13,3.01,1729420206510.0,0.0
-4.295116,-8.484949,0.464208,46.900002,-17.290001,-15.96,1729420206528.0,0.0
-3.993621,-10.047462,0.81356,35.349998,-26.74,-26.67,1729420206548.0,0.0
-2.136791,-11.028521,-0.040678,55.510002,-18.690001,-33.110001,1729420206568.0,0.0
-1.629512,-11.595619,3.783052,75.040001,-32.759998,-19.74,1729420206588.0,0.0
-2.06022,-10.705488,1.579263,96.389999,2.1,-16.870001,1729420206609.0,0.0
-3.412165,-7.939385,0.138784,96.25,53.48,-22.960001,1729420206629.0,0.0
-5.469993,-8.350951,1.442872,50.049999,59.010002,-50.119999,1729420206647.0,0.0
-4.82393,-7.472785,5.285746,13.65,31.780001,-52.990002,1729420206668.0,0.0
-4.218546,-7.092326,6.410372,-10.01,-8.96,-37.029999,1729420206689.0,0.0
-4.577469,-5.56092,4.319045,17.219999,16.379999,-29.960001,1729420206709.0,0.0
-6.740582,-2.751746,4.67079,32.060001,50.889999,-7.35,1729420206727.0,0.0
-6.74776,-2.158326,5.163712,19.67,13.37,5.11,1729420206748.0,0.0
-4.642076,-4.682754,3.850052,-59.709999,-38.709999,3.43,1729420206768.0,0.0
-3.079563,-7.393822,1.914258,-138.669998,-45.57,-7.35,1729420206789.0,0.0
-2.859423,-8.602197,1.56012,-139.649994,-11.48,1.96,1729420206810.0,0.0
-3.572484,-10.08814,1.847259,-126.419998,9.45,6.65,1729420206828.0,0.0
-4.402793,-10.939985,1.150948,-124.18,9.59,15.68,1729420206848.0,0.0
-5.065606,-9.372685,1.629512,-110.459999,4.83,25.620001,1729420206868.0,0.0
-4.962714,-7.575676,1.292124,-96.25,-4.69,28.280001,1729420206889.0,0.0
-4.871787,-7.135397,-0.232104,-133.490005,-10.99,14.91,1729420206909.0,0.0
-5.144568,-8.542377,-1.311267,-182.350006,-12.53,3.36,1729420206928.0,0.0
-4.608576,-10.004392,-4.031906,-205.380005,-13.58,-12.81,1729420206948.0,0.0
-4.465007,-13.014563,-7.580462,-200.270004,-4.69,-10.5,1729420206968.0,0.0
-2.612962,-12.492928,-5.9342,-204.050003,-18.620001,-53.970001,1729420206989.0,0.0
-1.615155,-12.454641,-2.526821,-143.990005,-55.299999,-39.759998,1729420207010.0,0.0
-0.550349,-10.681561,-3.050849,-102.760002,-37.52,-41.650002,1729420207028.0,0.0
-1.167697,-8.573483,-2.909672,-57.470001,2.73,-44.73,1729420207048.0,0.0
-2.612962,-6.494121,-3.275774,-42.91,30.450001,-39.060001,1729420207068.0,0.0
-3.237489,-6.345766,-2.818745,-45.360001,25.129999,-42.209999,1729420207089.0,0.0
-3.206382,-6.352944,-2.847459,-91.209999,-0.91,-30.940001,1729420207109.0,0.0
-2.045863,-7.190433,-4.716253,-121.239998,-31.08,-34.439999,1729420207128.0,0.0
-1.849652,-9.370294,-5.448457,-120.470001,-17.92,-40.459999,1729420207148.0,0.0
-2.89053,-9.729217,-5.503492,-106.540001,2.66,-38.990002,1729420207168.0,0.0
-3.663411,-8.997013,-5.907879,-86.940002,7.49,-35.700001,1729420207192.0,0.0
-3.330809,-8.724231,-5.699703,-76.160004,-13.3,-39.830002,1729420207208.0,0.0
-2.488536,-8.078169,-6.314659,-73.639999,-33.18,-36.889999,1729420207228.0,0.0
-1.993221,-7.04447,-6.429514,-76.300003,-31.5,-41.790001,1729420207248.0,0.0
-2.376073,-6.520442,-5.788238,-93.309998,-23.030001,-44.799999,1729420207268.0,0.0
-2.65364,-6.592227,-6.494121,-116.199997,-30.17,-43.889999,1729420207288.0,0.0
-1.143769,-8.226524,-7.463214,-116.340004,-35.07,-39.619999,1729420207322.0,0.0
-1.37348,-8.190632,-6.551548,-62.439999,-31.08,-32.41,1729420207327.0,0.0
-2.419144,-6.735795,-6.142376,-58.59,-18.620001,-34.09,1729420207348.0,0.0
-2.773281,-6.049056,-7.001399,-76.510002,-17.5,-38.849998,1729420207368.0,0.0
-2.294717,-5.74756,-8.008778,-85.75,-31.5,-36.259998,1729420207388.0,0.0
-0.909273,-6.879365,-8.133204,-52.080002,-49.84,-29.469999,1729420207417.0,0.0
-0.512064,-7.312466,-7.32443,9.52,-51.170002,-16.799999,1729420207428.0,0.0
-1.473979,-5.970093,-7.707282,35.91,-33.18,-20.16,1729420207447.0,0.0
-3.491128,-5.185246,-7.652246,29.75,-1.68,-18.83,1729420207470.0,0.0
-4.706682,-9.29133,-5.661418,88.830002,12.74,-6.09,1729420207488.0,0.0
-3.907479,-11.277373,-2.847459,190.539993,-16.940001,-4.48,1729420207510.0,0.0
-2.404787,-6.795617,-4.350152,150.779999,-11.41,-25.200001,1729420207528.0,0.0
-2.385644,-6.82433,-4.441079,82.599998,-3.64,-27.02,1729420207548.0,0.0
-2.024328,-10.564312,-4.503292,105.629997,-20.09,-9.52,1729420207568.0,0.0
-0.366102,-8.207381,-3.54377,186.130005,1.26,-4.9,1729420207590.0,0.0
0.198604,-9.207582,-5.802595,218.470001,21.210001,-9.24,1729420207611.0,0.0
-4.407579,-7.889136,-3.723232,126.699997,78.610001,17.15,1729420207629.0,0.0
-5.962914,-9.19801,-3.806981,92.82,74.830002,34.02,1729420207648.0,0.0
-4.350152,-9.166903,-6.252446,150.220001,34.720001,37.310001,1729420207668.0,0.0
-2.701497,-9.296116,-4.914857,222.320007,6.65,38.920002,1729420207689.0,0.0
-1.804188,-8.329416,-1.70369,233.940002,27.02,34.509998,1729420207709.0,0.0
-2.167897,-8.427521,2.569891,147.419998,41.02,13.93,1729420207729.0,0.0
-1.718047,-8.662018,2.459821,-5.88,-0.56,-13.3,1729420207751.0,0.0
-1.773082,-10.561919,0.308674,-90.300003,-32.27,10.64,1729420207769.0,0.0
-1.462015,-11.239087,-2.799603,-74.760002,-28.98,-3.29,1729420207790.0,0.0
-2.431108,-10.214959,-4.232903,-26.460001,-0.49,-12.32,1729420207810.0,0.0
-3.998406,-10.537991,-0.552742,-40.670002,16.450001,-33.459999,1729420207830.0,0.0
-4.735396,-10.851451,1.923829,-138.669998,-28.07,-39.689999,1729420207850.0,0.0
-2.505285,-9.312866,-1.660619,-211.259995,-86.239998,-37.240002,1729420207869.0,0.0
-1.194018,-7.200003,-5.216353,-227.919998,-81.620003,-46.200001,1729420207891.0,0.0
-0.614955,-7.200003,-5.685347,-194.880005,-40.529999,-70.699997,1729420207911.0,0.0
-2.730211,-10.34178,-5.041678,-226.940002,-3.57,-72.940002,1729420207929.0,0.0
-2.699104,-9.123833,-5.711668,-228.410004,-16.379999,-76.300003,1729420207949.0,0.0
-1.59362,-6.075377,-7.04447,-214.830002,-45.360001,-76.790001,1729420207969.0,0.0
-1.342373,-7.429714,-5.630312,-148.330002,-39.830002,-54.110001,1729420207990.0,0.0
-0.729811,-7.556533,-6.130411,-96.879997,-21.49,-56.0,1729420208010.0,0.0
-0.940379,-5.726025,-7.886744,-105.209999,10.5,-59.360001,1729420208029.0,0.0
-1.842474,-6.556334,-7.683353,-95.129997,19.530001,-47.32,1729420208049.0,0.0
-1.775474,-7.314859,-7.420143,-81.970001,2.17,-35.630001,1729420208069.0,0.0
-0.885344,-5.649454,-6.695118,-83.580002,-14.77,-33.950001,1729420208090.0,0.0
-0.61017,-4.199404,-7.133004,-120.68,-22.120001,-29.4,1729420208110.0,0.0
-0.868595,-4.438686,-7.843673,-151.550003,-11.27,-17.99,1729420208135.0,0.0
-1.26341,-6.190232,-7.412964,-147.279999,-30.1,-10.29,1729420208148.0,0.0
-0.887737,-5.218746,-8.712267,-135.449997,-31.639999,-5.32,1729420208169.0,0.0
-1.024128,-3.211168,-7.71446,-107.239998,-30.66,0.07,1729420208193.0,0.0
-1.138984,-5.422136,-8.281559,-85.260002,-17.99,1.47,1729420208210.0,0.0
-1.734797,-3.89073,-6.924829,-65.940002,-6.09,4.83,1729420208230.0,0.0
-1.612763,-3.675375,-6.9009,-55.860001,12.6,-0.07,1729420208250.0,0.0
-2.304288,-0.09332,-11.806188,-90.090004,-1.96,23.870001,1729420208268.0,0.0
-1.519442,-4.273581,-12.832708,-71.68,-28.84,9.66,1729420208289.0,0.0
-0.464208,-5.979663,-12.387643,-58.170002,-43.540001,12.46,1729420208310.0,0.0
-1.65344,-4.302295,-10.466206,-28.07,-16.1,13.23,1729420208328.0,0.0
-3.034099,-2.005185,-8.623734,-21.98,5.18,6.3,1729420208349.0,0.0
-3.24706,-1.402194,-8.633304,-56.490002,-5.53,3.29,1729420208369.0,0.0
-2.340181,-3.455236,-11.286944,-79.029999,-18.059999,-1.96,1729420208389.0,0.0
-2.227718,-4.012764,-11.306087,-32.060001,-7.91,8.47,1729420208411.0,0.0
-2.014757,-2.955136,-10.329816,26.74,-7.56,21.35,1729420208429.0,0.0
-1.847259,-0.416351,-8.207381,32.34,-8.33,21.07,1729420208448.0,0.0
-2.086541,-0.181855,-6.953543,14.07,-7.42,19.6,1729420208468.0,0.0
-2.237289,-4.599005,-10.052249,-4.34,-2.52,10.99,1729420208490.0,0.0
-0.476172,-5.070391,-11.918649,12.25,-10.78,1.68,1729420208511.0,0.0
-0.09332,-3.314059,-11.191232,39.900002,-15.190001,16.1,1729420208528.0,0.0
-0.909273,-2.392823,-9.98525,31.780001,18.41,7.0,1729420208549.0,0.0
-2.206182,-3.259024,-9.305687,33.810001,36.889999,3.15,1729420208568.0,0.0
-2.213361,-2.878566,-9.399008,53.970001,25.41,12.6,1729420208589.0,0.0
-1.72044,-3.665804,-9.609575,52.990002,3.64,4.41,1729420208611.0,0.0
-1.651048,-4.331009,-9.80818,58.450001,10.29,5.6,1729420208631.0,0.0
-1.651048,-3.9338,-9.736395,99.959999,14.91,12.18,1729420208648.0,0.0
-2.0004,-3.515057,-9.74836,136.430008,17.360001,18.690001,1729420208669.0,0.0
-2.512464,-4.04387,-9.166903,153.440002,15.54,22.960001,1729420208689.0,0.0
-2.720639,-5.417351,-8.226524,179.199997,1.54,37.66,1729420208709.0,0.0
-1.706082,-5.288138,-8.958728,207.759995,-21.07,38.639999,1729420208729.0,0.0
-1.272982,-3.558127,-6.738188,209.440002,-33.810001,44.59,1729420208748.0,0.0
-1.040878,-3.565305,-4.321437,173.740005,-46.900002,41.790001,1729420208838.0,0.0
-0.538385,-5.728417,-5.414958,100.169998,-38.920002,21.91,1729420208850.0,0.0
-0.591027,-6.015556,-6.171089,20.51,-10.36,15.96,1729420208853.0,0.0
-1.433301,-5.046463,-6.716653,-45.990002,6.16,20.440001,1729420208860.0,0.0
-1.935793,-5.412565,-7.156933,-108.639999,24.57,2.52,1729420208862.0,0.0
-2.720639,-4.761717,-6.147161,-181.509995,26.460001,-16.66,1729420208871.0,0.0
-3.072384,-5.556134,-8.070991,-206.779999,24.01,-19.25,1729420208889.0,0.0
-4.161119,-5.314459,-4.649254,-204.190002,4.69,-41.860001,1729420208910.0,0.0
-2.316252,-6.836295,-14.038691,-172.619995,3.99,-45.990002,1729420208928.0,0.0
-1.636691,-5.067998,-15.517454,-91.349998,-32.060001,-21.629999,1729420208948.0,0.0
-2.754139,-5.826523,-8.757731,-43.470001,-3.78,4.97,1729420208968.0,0.0
-3.270989,-7.049256,-7.267002,-4.27,29.469999,-25.129999,1729420208989.0,0.0
-3.531806,-4.223332,-8.173882,18.129999,25.34,-11.2,1729420209009.0,0.0
-2.376073,-2.438286,-9.755538,16.030001,-2.31,-8.12,1729420209029.0,0.0
-1.605584,-3.156133,-9.322437,-15.89,-20.16,-10.92,1729420209048.0,0.0
-1.275374,-4.41715,-9.078369,-22.68,-4.97,-11.83,1729420209068.0,0.0
-1.713261,-4.048656,-8.599805,-7.56,8.75,-15.4,1729420209090.0,0.0
-2.321038,-3.067599,-9.152546,-27.719999,14.56,-23.66,1729420209109.0,0.0
-1.866402,-4.41715,-11.578869,-34.23,5.74,-34.23,1729420209128.0,0.0
-1.414158,-4.941179,-11.607583,-17.290001,-6.44,-31.219999,1729420209149.0,0.0
-1.421337,-4.448257,-9.221939,28.49,12.95,-11.9,1729420209169.0,0.0
-1.837688,-3.326023,-7.752745,49.91,21.84,-3.78,1729420209192.0,0.0
-1.875973,-5.094319,-9.193225,35.139999,11.83,-18.9,1729420209210.0,0.0
-1.90708,-7.652246,-9.315259,5.53,-13.58,-31.5,1729420209228.0,0.0
-1.368695,-8.693125,-9.738789,27.440001,-38.57,-36.049999,1729420209248.0,0.0
-1.737189,-2.85703,-5.65424,121.940002,-43.400002,-21.84,1729420209268.0,0.0
-3.936193,2.847459,-7.008578,209.229996,-18.27,-5.81,1729420209289.0,0.0
-5.161318,3.634698,-9.001799,118.230003,28.42,1.33,1729420209309.0,0.0
-6.195018,-4.338188,-7.23111,-19.32,-8.26,1.54,1729420209330.0,0.0
-2.26361,-7.869993,-8.504091,-73.779999,-73.849998,-5.88,1729420209348.0,0.0
-0.081356,-6.618547,-7.728817,-21.559999,-76.230003,16.73,1729420209368.0,0.0
-0.162712,-3.814159,-8.274381,39.130001,-3.5,8.12,1729420209390.0,0.0
-2.723032,-2.234896,-9.004191,-26.32,66.989998,-2.66,1729420209410.0,0.0
-5.252246,-6.525227,-8.635696,-118.300003,55.439999,13.37,1729420209429.0,0.0
-2.522035,-7.408179,-10.399208,-135.869995,-1.61,-5.11,1729420209457.0,0.0
-0.827917,-4.249653,-11.643474,-56.630001,-0.84,18.76,1729420209468.0,0.0
-0.856631,-2.160719,-9.085547,6.58,35.279999,36.189999,1729420209501.0,0.0
-2.40718,-2.651247,-8.99462,2.17,68.459999,43.400002,1729420209509.0,0.0
-3.471986,-3.105884,-7.549356,-13.09,78.540001,57.68,1729420209562.0,0.0
-2.553142,-6.991827,-5.125426,-55.650002,23.66,42.209999,1729420209564.0,0.0
-1.086342,-10.949556,-4.957928,-103.25,-34.790001,30.17,1729420209662.0,0.0
0.344566,-13.328021,-12.952348,-54.459999,-85.330002,-20.02,1729420209663.0,0.0
-1.160519,-4.486543,-10.516455,154.699997,45.5,-0.28,1729420209663.0,0.0
-2.54357,0.157926,-7.396214,170.940002,116.690002,-4.41,1729420209663.0,0.0
-4.804788,-1.572084,-6.364908,62.02,54.18,-8.12,1729420209663.0,0.0
-3.37388,-7.403394,-11.246266,0.35,4.13,-18.76,1729420209669.0,0.0
-1.4668,-8.346166,-8.62134,-28.35,-68.949997,-45.639999,1729420209690.0,0.0
-0.581456,-4.426722,-9.499505,-18.9,-77.769997,-51.240002,1729420209710.0,0.0
-1.634298,-1.524228,-6.539584,49.700001,-21.91,-50.119999,1729420209729.0,0.0
-3.991228,1.835295,-8.729016,30.52,13.51,-38.639999,1729420209750.0,0.0
-5.228317,0.902094,-7.475177,-20.09,20.860001,-22.4,1729420209768.0,0.0
-4.163511,-4.795217,-8.513663,-91.629997,-36.330002,-16.450001,1729420209789.0,0.0
-2.184647,-5.012963,-9.552148,-101.989998,-64.68,-19.530001,1729420209809.0,0.0
-1.11027,-4.371687,-10.497313,-9.73,-36.119999,-2.1,1729420209838.0,0.0
-1.844866,-4.744967,-10.351351,-21.139999,-0.14,-9.38,1729420209850.0,0.0
-2.033899,-5.730811,-12.189038,-95.620003,21.42,5.88,1729420209870.0,0.0
-0.892523,-4.835894,-10.468598,-9.1,-1.96,25.129999,1729420209892.0,0.0
0.083749,-3.684947,-10.305886,67.340004,26.18,51.240002,1729420209913.0,0.0
-0.820738,-1.844866,-9.233903,95.199997,80.43,84.559998,1729420209930.0,0.0
-2.414358,-3.742374,-3.61077,0.77,89.739998,72.239998,1729420209949.0,0.0
-2.031506,-12.358929,-2.993421,-95.900002,19.809999,18.969999,1729420209970.0,0.0
0.416351,-16.125233,-8.640482,-75.18,-73.080002,-17.15,1729420209991.0,0.0
-0.189033,-12.119646,-10.399208,83.790001,-60.34,-10.22,1729420210011.0,0.0
-0.349352,-4.084548,-10.569098,185.919998,65.379997,-27.58,1729420210030.0,0.0
-2.646462,0.136391,-8.77448,186.690002,107.379997,-14.63,1729420210050.0,0.0
-5.149354,-2.09372,-6.735795,82.599998,58.66,-18.059999,1729420210070.0,0.0
-3.60359,-5.364708,-9.975677,-59.779999,-30.940001,-55.369999,1729420210090.0,0.0
-1.866402,-6.096912,-10.128819,-79.590004,-79.239998,-56.700001,1729420210111.0,0.0
-0.856631,-5.374279,-6.9679,17.5,-61.950001,-46.41,1729420210130.0,0.0
-2.06022,0.327817,-8.678767,45.779999,-35.279999,-43.119999,1729420210150.0,0.0
-4.752146,3.069991,-5.182854,19.950001,12.74,-29.68,1729420210173.0,0.0
-3.988836,-4.216154,-8.394022,-75.18,-7.21,-9.59,1729420210193.0,0.0
-1.5003,-5.486742,-11.387443,-107.169998,-74.690002,-21.49,1729420210211.0,0.0
-0.447458,-4.658825,-10.834702,-53.060001,-47.670002,2.94,1729420210230.0,0.0
-1.244268,-4.328616,-10.179067,-49.209999,18.549999,29.26,1729420210250.0,0.0
-1.473979,-4.902894,-11.416157,-41.860001,45.009998,36.82,1729420210269.0,0.0
-1.134198,-4.972286,-9.686146,-11.48,27.719999,60.060001,1729420210290.0,0.0
-0.564706,-4.197011,-9.74836,27.58,34.650002,80.57,1729420210311.0,0.0
-1.019342,-5.766702,-4.299902,-3.36,35.349998,69.790001,1729420210330.0,0.0
-1.174876,-10.939985,-7.384251,-73.639999,9.17,28.77,1729420210349.0,0.0
-0.090927,-14.340185,-9.970891,-28.139999,-42.98,-12.39,1729420210370.0,0.0
-0.5001,-9.272188,-9.255438,94.290001,-27.02,3.01,1729420210391.0,0.0
-0.861416,-2.620141,-9.643075,169.960007,60.830002,-12.67,1729420210411.0,0.0
-3.464807,-0.715454,-8.01117,135.660004,92.82,-13.86,1729420210430.0,0.0
-4.752146,-5.402994,-8.472985,33.459999,33.740002,-42.209999,1729420210451.0,0.0
-3.014957,-6.675975,-10.650455,-78.050003,-53.689999,-71.889999,1729420210471.0,0.0
-1.531406,-4.515256,-8.843873,-18.200001,-64.400002,-50.400002,1729420210491.0,0.0
-1.227518,-0.909273,-7.740781,48.299999,-53.41,-57.119999,1729420210512.0,0.0
-4.599005,2.445465,-4.910072,29.120001,-3.22,-24.08,1729420210531.0,0.0
-4.735396,-2.694318,-6.084948,-86.169998,-19.040001,-16.66,1729420210550.0,0.0
-2.522035,-4.859823,-9.363115,-120.540001,-58.799999,-22.68,1729420210570.0,0.0
-1.146162,-3.761517,-10.884951,-74.059998,-56.07,4.34,1729420210591.0,0.0
-1.438086,-4.677969,-10.96152,-38.849998,3.08,31.360001,1729420210615.0,0.0
-1.775474,-4.240082,-12.452249,-44.939999,34.860001,48.93,1729420210633.0,0.0
-0.567099,-4.572684,-10.269995,-5.95,25.690001,64.400002,1729420210654.0,0.0
-0.658026,-3.270989,-7.805387,19.32,28.98,92.330002,1729420210671.0,0.0
-1.816152,-6.056234,-7.183254,-77.910004,46.34,53.130001,1729420210691.0,0.0
-1.51705,-13.186846,-9.123833,-96.32,9.66,13.09,1729420210712.0,0.0
-0.088534,-14.519648,-10.006784,1.26,-54.670002,4.27,1729420210731.0,0.0
0.299103,-8.595018,-8.815158,128.169998,-26.18,0.42,1729420210750.0,0.0
-0.81356,-1.818545,-7.183254,173.389999,54.459999,-17.08,1729420210771.0,0.0
-3.720839,0.380459,-7.877172,112.559998,85.540001,-22.540001,1729420210791.0,0.0
-5.4006,-4.962714,-7.630712,50.049999,28.35,-32.060001,1729420210812.0,0.0
-3.213561,-8.898908,-9.178867,-14.56,-46.900002,-55.650002,1729420210831.0,0.0
-0.729811,-6.489335,-10.348958,-16.17,-92.889999,-64.260002,1729420210850.0,0.0
-1.18684,-0.605384,-7.305287,38.57,-52.150002,-68.040001,1729420210870.0,0.0
-4.23051,0.957129,-8.52802,14.42,3.29,-37.59,1729420210892.0,0.0
-5.410172,-0.232104,-8.118847,-10.36,19.67,-27.93,1729420210911.0,0.0
-4.103691,-3.828516,-7.276574,-51.52,-35.0,-4.06,1729420210929.0,0.0
-1.457229,-4.472186,-9.262616,-80.43,-64.470001,-17.5,1729420210950.0,0.0
-1.100698,-3.917051,-10.521241,-60.200001,-34.580002,-4.9,1729420210969.0,0.0
-2.17029,-5.965307,-10.080962,-33.529999,29.190001,19.32,1729420210991.0,0.0
-2.586641,-5.895915,-9.712467,-39.34,36.189999,27.65,1729420211011.0,0.0
-1.768296,-6.106483,-9.142976,-2.24,4.41,40.880001,1729420211030.0,0.0
-0.459422,-5.309673,-9.399008,31.710001,0.77,42.279999,1729420211050.0,0.0
-0.90688,-4.295116,-9.683753,71.190002,38.150002,63.279999,1729420211070.0,0.0
-2.134398,-3.414558,-9.253045,89.110001,78.120003,67.410004,1729420211091.0,0.0
-3.046063,-3.795017,-9.109475,24.5,70.910004,59.5,1729420211114.0,0.0
-2.354537,-6.948757,-5.592027,-26.25,19.32,37.450001,1729420211130.0,0.0
-1.036092,-10.370493,-4.409972,-31.639999,-35.349998,2.87,1729420211151.0,0.0
-0.284746,-9.585647,-9.303294,12.6,-50.82,-23.52,1729420211169.0,0.0
-1.371087,-3.101098,-10.336994,109.900002,14.42,-22.610001,1729420211193.0,0.0
-3.225525,-3.675375,-5.881558,58.310001,50.889999,-25.83,1729420211210.0,0.0
-3.014957,-6.513263,-7.04447,-15.75,-6.02,-43.330002,1729420211231.0,0.0
-1.85683,-6.692725,-10.191031,-45.080002,-44.799999,-40.389999,1729420211250.0,0.0
-1.222732,-5.91745,-9.415757,4.62,-39.34,-24.85,1729420211269.0,0.0
-1.01695,-4.876573,-9.71486,25.41,-7.21,-23.940001,1729420211290.0,0.0
-1.67019,-5.257031,-8.367701,47.740002,7.0,-6.23,1729420211310.0,0.0
-2.11047,-4.900501,-7.709675,94.709999,16.309999,14.98,1729420211331.0,0.0
-1.768296,-4.795217,-8.549555,121.660004,18.059999,19.879999,1729420211359.0,0.0
-1.445265,-6.843473,-8.999406,125.720001,8.61,26.110001,1729420211370.0,0.0
-2.062613,-7.283752,-6.805188,131.949997,13.86,35.77,1729420211391.0,0.0
-1.928615,-8.068598,-6.144768,160.020004,28.280001,20.440001,1729420211414.0,0.0
-1.971686,-9.056834,-6.915257,193.410004,23.450001,24.43,1729420211430.0,0.0
-1.756332,-10.645668,-5.972485,265.929993,10.99,26.67,1729420211450.0,0.0
-2.256432,-11.633904,-4.943572,372.049988,13.79,41.09,1729420211470.0,0.0
-2.364109,-9.099905,-4.036692,445.200012,31.85,42.98,1729420211497.0,0.0
-3.634698,-8.444271,-3.134598,521.080017,-1.33,63.209999,1729420211511.0,0.0
-2.667997,-7.881958,-1.552942,555.590027,3.57,60.689999,1729420211529.0,0.0
-3.165704,-7.156933,-0.78006,398.579987,37.450001,28.77,1729420211550.0,0.0
-4.378866,-9.487542,0.311067,323.049988,23.450001,22.120001,1729420211571.0,0.0
-2.947958,-7.819745,0.088534,310.309998,37.939999,18.059999,1729420211590.0,0.0
-3.328416,-5.558527,1.201197,261.450012,50.470001,8.96,1729420211610.0,0.0
-4.302295,-7.587641,3.909872,217.0,65.449997,5.32,1729420211630.0,0.0
-4.127619,-5.4341,8.173882,126.139999,76.860001,-11.69,1729420211650.0,0.0
-3.182454,-3.158526,6.376873,11.76,73.360001,-19.389999,1729420211670.0,0.0
-3.424129,-6.872187,5.986843,-78.540001,68.389999,-39.619999,1729420211690.0,0.0
-4.103691,-10.128819,3.192025,-97.860001,55.299999,-42.0,1729420211710.0,0.0
-4.881358,-10.387242,5.735595,-90.370003,33.32,-31.780001,1729420211730.0,0.0
-3.816552,-6.54437,7.649854,-121.940002,8.61,-35.139999,1729420211750.0,0.0
-3.125026,-6.888937,8.252845,-142.800003,-25.059999,-20.58,1729420211770.0,0.0
-2.866602,-8.532805,6.501299,-134.190002,-36.540001,-14.84,1729420211793.0,0.0
-2.464607,-9.750752,3.215954,-83.510002,-29.469999,-5.18,1729420211810.0,0.0
-2.488536,-8.142776,1.366302,-118.720001,-15.82,-22.889999,1729420211830.0,0.0
-2.658426,-7.57089,-0.045464,-162.75,0.42,-27.93,1729420211850.0,0.0
-2.65364,-8.23131,0.413958,-169.610001,-4.83,-33.670002,1729420211870.0,0.0
-3.223132,-10.923235,5.288138,-145.880005,-24.219999,-27.09,1729420211891.0,0.0
-3.419343,-10.827522,2.828316,-155.190002,-31.99,-17.85,1729420211911.0,0.0
-2.761317,-8.532805,0.837488,-205.869995,-12.39,-44.869999,1729420211930.0,0.0
-2.801995,-9.028119,-0.492921,-249.410004,-18.969999,-49.139999,1729420211950.0,0.0
-2.476572,-11.406586,-1.828116,-239.190002,-38.290001,-50.400002,1729420211971.0,0.0
-2.139183,-11.483156,-2.098505,-214.550003,-44.450001,-59.709999,1729420211991.0,0.0
-2.182254,-8.293523,-1.208375,-266.559998,-52.709999,-75.879997,1729420212010.0,0.0
-2.395216,-7.80778,-1.854438,-317.799988,-66.709999,-68.879997,1729420212030.0,0.0
-1.421337,-8.267202,-5.369494,-295.329987,-63.84,-74.900002,1729420212050.0,0.0
-2.053042,-7.862815,-3.78066,-253.050003,-28.559999,-74.269997,1729420212072.0,0.0
-2.309074,-7.046863,-4.113262,-206.570007,-39.759998,-72.449997,1729420212094.0,0.0
-2.072184,-5.9342,-5.895915,-226.100006,-30.940001,-58.66,1729420212116.0,0.0
-2.758924,-6.98465,-5.084748,-214.130005,-48.369999,-43.119999,1729420212134.0,0.0
-1.584049,-6.611369,-7.305287,-194.949997,-40.040001,-28.91,1729420212154.0,0.0
-0.624527,-5.04407,-10.480563,-175.070007,-10.43,-29.26,1729420212173.0,0.0
-1.639083,-3.828516,-8.772088,-181.720001,-3.57,-27.440001,1729420212197.0,0.0
-1.832902,-3.95055,-11.251052,-211.960007,1.61,-34.23,1729420212219.0,0.0
-1.301696,-4.754539,-9.389436,-167.580002,-17.08,-30.030001,1729420212233.0,0.0
-0.794417,-3.199204,-8.142776,-107.169998,-27.51,-5.53,1729420212252.0,0.0
-0.772882,-3.56052,-8.748159,-89.040001,-8.33,-11.2,1729420212273.0,0.0
-1.569692,-4.235296,-9.267403,-108.989998,-5.46,-4.13,1729420212295.0,0.0
-1.596013,-4.185047,-9.351151,-111.720001,-19.25,-4.55,1729420212316.0,0.0
-0.969093,-3.567699,-10.34178,-78.68,-27.58,-3.08,1729420212334.0,0.0
-0.404387,-3.273381,-11.705689,-41.93,-19.950001,-4.55,1729420212352.0,0.0
-0.667598,-3.615555,-10.882557,-27.299999,-6.65,-5.39,1729420212373.0,0.0
-1.198804,-3.259024,-9.628718,-20.09,2.73,-3.01,1729420212395.0,0.0
-1.320838,-2.574677,-9.300901,-3.85,7.49,-0.28,1729420212416.0,0.0
-1.741975,-2.005185,-8.810372,-3.29,8.75,1.47,1729420212433.0,0.0
-1.875973,-3.35713,-10.315458,-27.370001,6.51,0.42,1729420212452.0,0.0
-1.234696,-3.438486,-10.9017,-17.99,-0.91,3.57,1729420212473.0,0.0
-0.976272,-2.378466,-9.693325,11.55,2.45,4.41,1729420212495.0,0.0
-1.818545,-1.990828,-8.161918,26.18,14.77,5.04,1729420212514.0,0.0
-2.112862,-2.70389,-8.678767,16.17,5.67,3.85,1729420212533.0,0.0
-1.339981,-3.424129,-9.628718,13.93,-7.21,3.36,1729420212552.0,0.0
-1.40698,-3.146562,-10.523634,27.860001,0.42,7.56,1729420212574.0,0.0
-1.868794,-2.347359,-10.262815,39.34,9.66,8.19,1729420212593.0,0.0
-1.792224,-2.548356,-9.174082,34.09,3.22,6.72,1729420212614.0,0.0
-1.287339,-3.407379,-8.85823,25.9,-6.72,4.06,1729420212637.0,0.0
-1.141376,-3.52702,-9.332008,25.34,-4.9,2.73,1729420212652.0,0.0
-1.366302,-3.180061,-9.578469,27.93,1.47,3.01,1729420212672.0,0.0
-1.57687,-2.866602,-9.509077,17.08,1.89,-0.21,1729420212696.0,0.0
-1.538585,-4.06062,-9.059227,2.94,-2.73,-2.73,1729420212713.0,0.0
-1.28016,-4.436293,-8.805587,4.2,-6.58,-4.34,1729420212732.0,0.0
-1.672583,-4.814359,-8.413164,2.59,-2.87,-10.01,1729420212752.0,0.0
-1.887937,-4.713861,-9.611969,-4.27,0.35,-22.190001,1729420212774.0,0.0
-1.435694,-3.751946,-10.339387,3.15,-12.04,-24.43,1729420212793.0,0.0
-1.167697,-3.108276,-9.946963,9.1,-8.54,-22.4,1729420212816.0,0.0
-1.402194,-2.833102,-9.064013,8.75,-0.21,-19.530001,1729420212833.0,0.0
-1.488336,-3.081956,-8.310273,4.13,-4.9,-19.110001,1729420212854.0,0.0
-1.395016,-3.113062,-8.245667,2.31,-12.46,-16.73,1729420212875.0,0.0
-1.210768,-3.144169,-8.037491,-4.27,-22.889999,-22.889999,1729420212895.0,0.0
-1.205983,-3.541377,-8.578269,-23.1,-27.370001,-30.380001,1729420212913.0,0.0
-1.421337,-3.141776,-9.71486,-25.129999,-24.15,-30.66,1729420212932.0,0.0
-1.708475,-2.490928,-10.339387,-20.58,-24.290001,-29.33,1729420212954.0,0.0
-1.801795,-2.304288,-10.514063,-19.74,-20.51,-25.83,1729420212973.0,0.0
-1.964507,-2.39043,-10.006784,-15.4,-16.450001,-21.84,1729420212995.0,0.0
-2.031506,-2.684747,-10.164711,-10.99,-10.57,-18.27,1729420213013.0,0.0
-2.067399,-2.603391,-10.456635,-16.52,-5.74,-17.290001,1729420213033.0,0.0
-2.086541,-3.115455,-9.406186,-17.710001,-6.09,-15.75,1729420213054.0,0.0
-1.782653,-2.713461,-9.49472,7.56,-4.55,-11.62,1729420213072.0,0.0
-2.258825,-3.06042,-9.547362,1.89,3.64,-11.9,1729420213093.0,0.0
-2.172683,-3.682554,-9.01137,2.1,1.05,-11.69,1729420213113.0,0.0
-1.813759,-2.833102,-9.06162,13.02,-4.27,-8.68,1729420213132.0,0.0
-2.088934,-3.227918,-9.585647,11.69,1.05,-5.88,1729420213154.0,0.0
-2.055435,-3.294917,-9.377472,18.690001,0.42,-0.84,1729420213172.0,0.0
-1.734797,-3.275774,-9.406186,30.030001,-3.78,-0.63,1729420213197.0,0.0
-1.629512,-3.182454,-9.60479,35.98,-1.68,-0.14,1729420213213.0,0.0
-1.629512,-2.947958,-9.243474,42.91,-2.8,-1.4,1729420213232.0,0.0
-1.57687,-3.625126,-8.906086,39.970001,-5.81,-3.15,1729420213252.0,0.0
-1.404587,-4.161119,-9.042477,45.220001,-6.93,-2.45,1729420213272.0,0.0
-1.5003,-4.027121,-8.599805,71.540001,-4.41,3.15,1729420213293.0,0.0
-1.911865,-3.65384,-9.461221,85.050003,4.69,8.26,1729420213313.0,0.0
-2.208575,-3.486342,-9.939785,72.309998,12.04,16.379999,1729420213332.0,0.0
-2.244468,-2.612962,-9.174082,67.199997,6.37,24.08,1729420213352.0,0.0
-1.928615,-2.919244,-9.992428,69.300003,5.04,30.1,1729420213372.0,0.0
-1.564906,-4.424329,-10.928021,77.489998,19.389999,36.75,1729420213392.0,0.0
-1.39023,-4.981857,-11.763116,98.910004,30.73,50.400002,1729420213416.0,0.0
-1.414158,-4.21376,-9.616754,120.260002,41.23,65.169998,1729420213432.0,0.0
-0.827917,-3.361916,-9.875179,137.759995,66.150002,73.57,1729420213452.0,0.0
-0.648455,-5.084748,-9.083155,115.57,79.239998,75.25,1729420213472.0,0.0
-0.614955,-7.173682,-8.066205,88.129997,85.889999,72.590004,1729420213492.0,0.0
-1.155733,-8.221739,-4.596612,81.480003,92.190002,67.340004,1729420213513.0,0.0
-10.657632,-8.063812,24.708284,70.139999,48.860001,46.41,1729420213533.0,0.0
-8.283953,-6.463014,-8.920443,-120.610001,-29.610001,-37.450001,1729420213552.0,0.0
-2.512464,-8.671589,-27.311678,-25.41,-55.369999,-18.549999,1729420213572.0,0.0
-1.600798,-9.822537,-11.906685,74.550003,-93.449997,32.549999,1729420213593.0,0.0
-4.945964,-10.040283,-6.707082,50.82,91.559998,15.26,1729420213613.0,0.0
-4.833502,-7.465607,-12.538391,92.330002,126.419998,15.96,1729420213632.0,0.0
-0.727418,-6.38405,-9.221939,160.440002,34.720001,29.68,1729420213654.0,0.0
1.899901,-7.365108,-0.878166,130.970001,4.27,15.05,1729420213671.0,0.0
1.684547,-5.513064,4.460221,40.040001,18.059999,-2.8,1729420213694.0,0.0
0.531207,-4.457829,3.189633,-23.59,24.360001,-14.77,1729420213721.0,0.0
-0.923629,-4.168297,1.485943,-30.52,11.83,-9.73,1729420213733.0,0.0
-1.682154,-6.704689,-1.667797,-23.309999,-22.120001,-6.65,1729420213755.0,0.0
-2.644069,-6.250053,-13.502698,-135.520004,-92.889999,-14.49,1729420213840.0,0.0
-4.862216,-14.809179,-21.674189,-81.900002,-39.060001,-5.46,1729420213845.0,0.0
-7.915457,-17.525034,-15.146567,50.189999,104.580002,-10.08,1729420213847.0,0.0
-3.546163,-10.035499,-11.696117,215.110001,51.939999,13.440001,1729420213852.0,0.0
1.636691,-2.931208,-9.535398,204.259995,-22.120001,-9.66,1729420213852.0,0.0
3.352344,0.052642,-5.319244,53.060001,10.99,-10.29,1729420213872.0,0.0
2.249253,-3.079563,0.385244,27.299999,66.989998,0.77,1729420213893.0,0.0
-1.189233,-5.556134,5.218746,40.740002,93.169998,12.81,1729420213914.0,0.0
-2.464607,-6.053841,2.981457,6.09,69.440002,-9.38,1729420213932.0,0.0
-4.685147,-9.262616,2.600998,-26.809999,17.15,4.06,1729420213953.0,0.0
-2.567499,-10.028319,-3.438486,-63.91,-76.650002,-25.620001,1729420213973.0,0.0
-0.488136,-6.443871,-6.058627,-66.5,-153.160004,-12.32,1729420213994.0,0.0
0.325424,-1.878366,-14.170296,-19.879999,-122.010002,3.71,1729420214014.0,0.0
-3.110669,-5.268995,-16.058231,1.33,-3.78,35.279999,1729420214032.0,0.0
-7.305287,-10.827522,-12.753745,-96.599998,104.160004,19.389999,1729420214053.0,0.0
-3.924229,-12.169895,-8.614161,-108.220001,46.27,23.309999,1729420214073.0,0.0
0.021535,-7.659425,-8.750552,57.260002,-14.35,24.43,1729420214094.0,0.0
0.59342,-5.283352,-9.080762,84.559998,38.639999,24.57,1729420214114.0,0.0
-0.524028,-7.018148,-7.515855,60.760002,104.019997,19.809999,1729420214133.0,0.0
-2.667997,-8.563912,-1.988436,61.25,118.090004,28.98,1729420214153.0,0.0
-3.735196,-5.029713,6.58744,84.769997,66.010002,39.619999,1729420214174.0,0.0
-2.785245,0.253639,6.869793,66.150002,-42.139999,53.27,1729420214197.0,0.0
-1.828116,-2.323431,1.249053,-32.830002,-90.019997,36.119999,1729420214215.0,0.0
-0.162712,-8.12124,-9.408579,-174.649994,-30.1,-6.72,1729420214234.0,0.0
-2.445465,-13.615161,-9.879964,-185.850006,-124.529999,-7.42,1729420214254.0,0.0
-2.196611,-10.109675,-16.965113,-135.240005,-85.330002,-8.26,1729420214274.0,0.0
-5.489135,-10.777272,-16.170694,13.16,20.299999,16.940001,1729420214295.0,0.0
-6.999006,-12.571891,-11.286944,49.560001,95.410004,9.73,1729420214315.0,0.0
-3.378666,-11.382657,-9.970891,102.129997,33.040001,13.65,1729420214334.0,0.0
-0.150748,-6.13759,-9.848858,115.709999,13.72,5.04,1729420214354.0,0.0
0.612563,-3.814159,-5.493921,67.970001,69.650002,-9.31,1729420214375.0,0.0
-1.574477,-2.553142,4.934,49.209999,76.93,8.82,1729420214397.0,0.0
-4.649254,-4.900501,9.408579,47.599998,6.3,28.84,1729420214425.0,0.0
-3.929015,-6.704689,1.964507,-47.25,4.9,-13.02,1729420214438.0,0.0
-3.495914,-8.664411,-3.9338,-102.480003,-30.030001,-32.34,1729420214455.0,0.0
-1.588834,-6.338587,-9.702895,-87.360001,-121.940002,-25.690001,1729420214475.0,0.0
-0.332602,-5.79063,-12.629318,-23.379999,-152.529999,0.21,1729420214497.0,0.0
-3.620341,-10.461421,-13.194024,-73.360001,-51.66,8.61,1729420214516.0,0.0
-7.941778,-16.567905,-16.646868,-60.34,118.160004,-29.75,1729420214534.0,0.0
-6.465407,-16.211372,-10.633704,65.730003,46.830002,-10.92,1729420214556.0,0.0
-0.344566,-8.29113,-9.090333,187.460007,-26.950001,-16.73,1729420214575.0,0.0
1.816152,-2.62732,-8.997013,146.509995,-5.88,-20.02,1729420214594.0,0.0
1.926222,-2.651247,-7.84128,59.360001,64.610001,-25.969999,1729420214615.0,0.0
-0.447458,-3.61077,0.648455,37.099998,113.540001,-11.62,1729420214633.0,0.0
-3.579663,-3.54377,5.938986,97.230003,66.150002,29.960001,1729420214655.0,0.0
-2.876173,-6.472585,2.287539,144.199997,25.9,26.880001,1729420214675.0,0.0
-3.548556,-8.204988,0.215354,87.010002,17.290001,18.620001,1729420214696.0,0.0
-1.581656,-8.989835,-4.553542,59.080002,-43.610001,18.48,1729420214714.0,0.0
-0.638884,-9.858429,-6.515656,89.809998,-79.169998,35.700001,1729420214735.0,0.0
-0.952343,-10.774881,-8.372486,74.830002,-54.110001,36.82,1729420214753.0,0.0
-2.07697,-10.655239,-8.688338,19.18,16.450001,14.77,1729420214774.0,0.0
-3.716053,-10.691131,-6.534799,21.84,48.509998,16.379999,1729420214795.0,0.0
-4.015156,-9.793823,-3.756732,52.43,34.299999,12.81,1729420214814.0,0.0
-3.869194,-9.827322,-3.476771,82.599998,6.09,9.73,1729420214836.0,0.0
-3.5007,-10.325029,-3.244668,94.43,-1.54,-2.24,1729420214856.0,0.0
-3.548556,-11.483156,-2.277967,107.870003,-7.49,-12.67,1729420214876.0,0.0
-2.840281,-9.817751,-2.050649,75.529999,-10.85,-33.599998,1729420214894.0,0.0
-2.359323,-9.245867,0.265603,20.09,-36.68,-37.59,1729420214916.0,0.0
-2.012364,-9.990034,-1.256232,-26.110001,-51.59,-25.41,1729420214936.0,0.0
-1.782653,-9.207582,-2.519642,-46.060001,-33.740002,-32.830002,1729420214955.0,0.0
-2.455036,-8.236095,-1.90708,-72.099998,-21.35,-38.5,1729420214976.0,0.0
-2.148755,-9.267403,-2.766103,-83.440002,-20.58,-35.0,1729420214994.0,0.0
-1.76351,-8.889337,-1.490728,-111.370003,-32.130001,-35.349998,1729420215016.0,0.0
-1.942972,-8.413164,-2.012364,-151.830002,-37.59,-29.540001,1729420215034.0,0.0
-1.672583,-8.350951,-4.024727,-166.600006,-7.63,-39.060001,1729420215054.0,0.0
-2.237289,-7.034898,-3.608376,-170.520004,3.29,-44.73,1729420215075.0,0.0
-2.569891,-6.778866,-4.168297,-189.770004,-7.84,-49.560001,1729420215095.0,0.0
-2.751746,-8.240881,-4.244867,-192.149994,-14.35,-42.420002,1729420215114.0,0.0
-2.06022,-7.54457,-5.802595,-201.460007,-25.48,-46.27,1729420215135.0,0.0
-1.840081,-6.362515,-8.044669,-193.550003,-28.49,-30.59,1729420215155.0,0.0
-1.847259,-7.735995,-7.946564,-147.279999,-16.799999,-21.84,1729420215174.0,0.0
-2.007578,-5.79781,-6.101698,-147.630005,-13.93,-13.93,1729420215197.0,0.0
-1.875973,-3.773481,-7.65464,-183.820007,-16.73,-10.99,1729420215218.0,0.0
-1.646262,-3.400201,-8.061419,-211.680008,-10.29,-11.62,1729420215233.0,0.0
-1.978864,-1.794617,-6.905686,-248.990005,-9.94,-13.58,1729420215255.0,0.0
-2.902494,-4.534399,-9.994821,-277.549988,4.41,-28.280001,1729420215274.0,0.0
-1.864009,-6.608976,-11.169697,-259.209991,-15.54,-59.010002,1729420215295.0,0.0
-0.969093,-3.196811,-13.339987,-160.509995,-44.240002,-12.74,1729420215316.0,0.0
-0.368495,0.09332,-12.708281,-54.950001,-31.57,-2.03,1729420215334.0,0.0
-1.339981,-2.256432,-10.679168,-16.450001,-4.2,-2.1,1729420215354.0,0.0
-1.866402,-4.546363,-9.073583,-71.889999,7.91,-14.28,1729420215373.0,0.0
-0.815953,-3.617948,-9.332008,-76.300003,-17.780001,-10.92,1729420215394.0,0.0
-0.741775,-2.888137,-9.973285,-45.709999,-3.22,-5.46,1729420215414.0,0.0
-1.818545,-1.174876,-10.207782,-0.28,11.97,4.83,1729420215435.0,0.0
-2.684747,-0.808774,-9.731609,-17.780001,11.27,4.27,1729420215455.0,0.0
-2.045863,-1.844866,-9.336794,-37.310001,-10.78,4.41,1729420215473.0,0.0
-1.57687,-2.232504,-9.396614,-47.040001,-16.73,1.19,1729420215495.0,0.0
-2.115255,-1.48355,-9.157332,-36.68,-6.65,6.51,1729420215516.0,0.0
-2.287539,-2.002793,-9.647861,-12.95,-1.12,7.0,1729420215532.0,0.0
-2.68714,-2.143969,-8.939585,-2.03,-4.27,12.32,1729420215553.0,0.0
-2.321038,-2.68714,-9.355937,5.18,-9.24,11.97,1729420215574.0,0.0
-2.172683,-1.959722,-9.600004,13.86,-13.58,19.530001,1729420215594.0,0.0
-1.828116,0.952343,-8.635696,21.559999,-13.58,23.59,1729420215614.0,0.0
-1.643869,-0.29671,-10.765309,16.450001,-2.94,22.540001,1729420215633.0,0.0
-1.734797,-2.811567,-10.875379,16.17,-2.1,20.16,1729420215653.0,0.0
-1.117448,-2.54357,-10.951948,25.9,-3.92,23.940001,1729420215674.0,0.0
