acc_x,acc_y,acc_z,gyr_x,gyr_y,gyr_z,timestamp,label
-2.215754,-2.600998,-9.901501,-28.77,6.3,26.880001,1729425940366.0,0.0
-2.316252,-2.141576,-9.253045,-20.93,3.22,21.139999,1729425940370.0,0.0
-3.141776,-1.584049,-9.456435,-4.83,11.2,21.700001,1729425940370.0,0.0
-3.926622,-1.366302,-9.590433,-6.72,21.0,14.21,1729425940374.0,0.0
-4.539185,-1.684547,-9.315259,-14.77,22.610001,12.18,1729425940397.0,0.0
-4.297509,-1.844866,-9.755538,-18.620001,8.4,4.27,1729425940419.0,0.0
-3.936193,-1.708475,-9.724431,-15.4,3.01,3.78,1729425940434.0,0.0
-3.60359,-1.375873,-10.037891,-14.49,1.61,1.75,1729425940454.0,0.0
-3.242275,-1.37348,-9.789038,-10.99,-1.47,3.29,1729425940475.0,0.0
-3.062813,-1.253839,-9.722038,-0.77,-1.05,8.68,1729425940496.0,0.0
-3.098706,-0.921237,-9.827322,12.18,-1.05,14.0,1729425940516.0,0.0
-3.156133,-0.770489,-9.772287,22.4,-1.4,19.110001,1729425940536.0,0.0
-3.074777,-0.988236,-9.949356,22.26,-3.43,21.42,1729425940554.0,0.0
-2.878566,-1.392623,-9.638289,18.34,-2.45,22.33,1729425940574.0,0.0
-2.699104,-1.09352,-9.415757,24.15,-3.71,21.77,1729425940596.0,0.0
-2.660819,-0.598206,-9.164511,32.689999,-4.13,22.190001,1729425940615.0,0.0
-2.998207,-0.375673,-8.925228,32.900002,-0.28,22.4,1729425940634.0,0.0
-3.39063,-0.538385,-8.776874,29.540001,1.96,21.77,1729425940655.0,0.0
-3.708875,-0.521635,-8.9348,31.15,-0.49,23.030001,1729425940674.0,0.0
-3.952943,-0.196211,-9.08794,34.93,-3.29,25.48,1729425940699.0,0.0
-4.278367,-0.0335,-9.786645,33.950001,-3.78,27.370001,1729425940716.0,0.0
-4.783253,0.045464,-11.660224,28.139999,2.31,28.210001,1729425940734.0,0.0
-5.903094,0.725025,-12.552748,22.889999,24.57,32.830002,1729425940754.0,0.0
-6.288338,0.818345,-13.040883,24.780001,36.959999,34.790001,1729425940775.0,0.0
-6.01077,0.200997,-13.703696,40.32,39.759998,35.84,1729425940796.0,0.0
-5.338387,-0.878166,-12.318252,64.050003,48.09,33.110001,1729425940815.0,0.0
-4.299902,-1.861616,-9.422935,74.340004,54.599998,25.690001,1729425940835.0,0.0
-3.326023,-2.754139,-8.003991,79.870003,52.5,19.460001,1729425940864.0,0.0
-2.426322,-2.208575,-7.496714,63.0,45.990002,12.6,1729425940874.0,0.0
-1.787439,-2.474179,-7.379465,24.85,41.650002,5.81,1729425940897.0,0.0
-1.115055,-3.61077,-6.376873,-34.23,38.080002,-2.38,1729425940914.0,0.0
-0.521635,-5.103891,-6.532406,-56.98,30.309999,-0.63,1729425940934.0,0.0
0.681954,-4.646862,-7.869993,-42.209999,7.35,-4.34,1729425940954.0,0.0
1.804188,-3.273381,-8.173882,-25.059999,-6.86,-6.51,1729425940975.0,0.0
1.701297,-1.954936,-7.508677,-25.27,-1.4,-1.75,1729425940996.0,0.0
0.693919,-1.892723,-8.114061,-44.59,1.96,5.74,1729425941015.0,0.0
-0.174676,-2.421536,-8.855836,-60.900002,1.47,10.22,1729425941035.0,0.0
-0.435494,-2.514857,-10.073784,-51.939999,-4.27,12.32,1729425941055.0,0.0
-1.20359,-3.694518,-9.911072,-28.77,-4.48,15.47,1729425941075.0,0.0
-2.48375,-4.015156,-9.466006,6.16,10.08,14.49,1729425941096.0,0.0
-3.452843,-2.574677,-9.84168,12.74,7.14,8.33,1729425941114.0,0.0
-3.268596,-3.127419,-10.817951,-0.56,-5.67,0.77,1729425941134.0,0.0
-2.189433,-4.091727,-11.806188,10.99,-14.98,-7.49,1729425941155.0,0.0
-1.579263,-2.885744,-10.942378,40.110001,-13.09,-12.88,1729425941174.0,0.0
-2.081756,-1.820938,-9.288938,46.48,-0.84,-21.280001,1729425941199.0,0.0
-2.727818,-1.98365,-8.298308,17.08,1.4,-34.790001,1729425941215.0,0.0
-2.26361,-0.847059,-8.228917,2.03,-12.04,-40.599998,1729425941234.0,0.0
-1.438086,2.555535,-8.796017,10.92,-24.43,-27.65,1729425941255.0,0.0
-1.715654,2.622534,-10.609775,24.43,-17.92,2.8,1729425941274.0,0.0
-2.26361,0.038285,-10.827522,11.41,0.98,30.1,1729425941296.0,0.0
-2.103291,-0.729811,-10.408779,5.18,15.89,49.77,1729425941315.0,0.0
-1.995614,-0.095713,-9.95175,26.040001,18.129999,68.809998,1729425941334.0,0.0
-2.656033,-1.215554,-9.801002,55.09,29.190001,76.230003,1729425941354.0,0.0
-3.409772,-2.569891,-9.382257,51.869999,35.700001,68.809998,1729425941375.0,0.0
-3.479164,-4.091727,-8.068598,11.9,27.02,47.950001,1729425941395.0,0.0
-3.67059,-5.852845,-8.202596,-35.560001,16.17,15.75,1729425941414.0,0.0
-3.881158,-5.218746,-8.13799,-34.16,5.18,-29.120001,1729425941435.0,0.0
-3.383451,-3.895515,-8.877372,-1.54,-13.16,-46.970001,1729425941454.0,0.0
-2.344966,-3.038885,-9.212367,-2.24,-30.66,-63.98,1729425941474.0,0.0
-1.689333,-2.892922,-9.145369,-39.130001,-29.75,-75.879997,1729425941497.0,0.0
-1.136591,-0.947558,-8.946764,-36.119999,-30.870001,-72.870003,1729425941514.0,0.0
-1.112662,1.055235,-8.099705,-5.04,-34.02,-47.810001,1729425941534.0,0.0
-1.227518,1.682154,-8.865408,7.14,-31.780001,-13.37,1729425941554.0,0.0
-1.945365,1.081556,-10.408779,9.38,-16.799999,25.620001,1729425941574.0,0.0
-1.584049,0.468993,-12.770494,-14.21,-9.45,44.939999,1729425941597.0,0.0
-0.385244,0.026321,-13.34238,-28.98,-7.84,62.16,1729425941616.0,0.0
-0.435494,-1.682154,-11.286944,9.31,6.02,72.239998,1729425941634.0,0.0
-2.337788,-4.005585,-8.953942,42.84,33.18,69.510002,1729425941654.0,0.0
-4.204189,-3.85723,-10.573883,42.209999,42.490002,54.25,1729425941674.0,0.0
-4.448257,-4.132405,-10.320245,-6.79,34.09,22.68,1729425941698.0,0.0
-3.998406,-6.254838,-9.707682,-30.73,20.860001,-3.43,1729425941713.0,0.0
-3.708875,-6.116055,-8.126025,-8.26,14.56,-31.43,1729425941742.0,0.0
-4.386044,-1.926222,-7.523034,29.120001,10.08,-46.830002,1729425941755.0,0.0
-3.948158,-1.641476,-8.197811,-5.11,-3.22,-53.619999,1729425941774.0,0.0
-2.366502,-3.476771,-9.561719,-19.530001,-20.790001,-59.150002,1729425941797.0,0.0
-0.40678,-1.548156,-9.992428,-3.36,-32.41,-55.650002,1729425941815.0,0.0
0.320638,1.256232,-11.24866,29.26,-26.530001,-32.060001,1729425941834.0,0.0
-0.057428,2.112862,-10.667203,40.110001,-7.63,-2.38,1729425941854.0,0.0
-1.581656,2.160719,-8.568698,45.43,13.16,39.48,1729425941873.0,0.0
-2.545963,0.792024,-8.578269,14.35,17.85,61.110001,1729425941895.0,0.0
-1.634298,-1.837688,-9.631111,-22.26,5.67,65.029999,1729425941914.0,0.0
-0.87338,-2.773281,-10.49492,3.99,-2.17,67.129997,1729425941934.0,0.0
-2.328217,-3.014957,-10.329816,33.32,19.530001,64.68,1729425941953.0,0.0
-4.845466,-3.84048,-10.91845,21.42,46.060001,52.57,1729425941974.0,0.0
-5.991628,-5.441278,-9.990034,-13.16,47.32,33.389999,1729425941995.0,0.0
-5.493921,-6.336195,-8.941978,-9.45,21.91,9.31,1729425942015.0,0.0
-4.273581,-5.201996,-7.881958,15.05,-0.63,-15.26,1729425942034.0,0.0
-3.366701,-4.414758,-7.573284,20.23,-9.17,-38.639999,1729425942053.0,0.0
-2.830709,-4.0008,-7.06122,9.73,-10.99,-57.959999,1729425942074.0,0.0
-1.550549,-1.174876,-7.812566,9.17,-33.18,-62.720001,1729425942096.0,0.0
-0.294317,0.189033,-8.580662,4.55,-47.389999,-57.119999,1729425942114.0,0.0
0.612563,1.237089,-10.286745,-27.58,-49.630001,-39.41,1729425942133.0,0.0
0.595813,1.550549,-10.30828,-24.219999,-36.049999,-12.18,1729425942154.0,0.0
-0.856631,1.414158,-10.470992,18.9,-15.61,20.790001,1729425942173.0,0.0
-1.840081,1.306481,-10.059426,23.1,-5.81,44.310001,1729425942196.0,0.0
-2.053042,0.538385,-12.401999,-10.71,7.63,56.07,1729425942214.0,0.0
-1.758725,-1.840081,-11.873186,-24.360001,8.96,59.849998,1729425942233.0,0.0
-2.244468,-4.13719,-9.226725,-0.84,17.99,60.619999,1729425942254.0,0.0
-3.917051,-4.800002,-9.695717,43.68,28.559999,52.990002,1729425942274.0,0.0
-5.606383,-3.85723,-10.298709,24.43,35.07,31.85,1729425942295.0,0.0
-5.292924,-5.661418,-10.229317,-38.360001,23.030001,6.3,1729425942314.0,0.0
-4.180261,-7.049256,-8.207381,-38.220001,9.73,-20.16,1729425942334.0,0.0
-4.161119,-5.130211,-6.865008,-9.59,6.09,-38.220001,1729425942353.0,0.0
-4.539185,-3.022135,-7.013363,16.52,0.21,-49.209999,1729425942374.0,0.0
-4.369294,-2.175076,-8.075776,6.02,-9.24,-54.18,1729425942395.0,0.0
-2.352145,-2.624927,-9.516255,-24.85,-19.110001,-59.220001,1729425942414.0,0.0
-1.031307,-1.275374,-9.24108,-20.23,-30.59,-59.779999,1729425942434.0,0.0
-0.167498,0.241675,-9.896714,-5.53,-32.759998,-51.310001,1729425942458.0,0.0
0.038285,2.112862,-9.08794,4.34,-27.440001,-31.219999,1729425942474.0,0.0
-1.643869,3.550949,-9.674182,-7.28,-7.21,6.09,1729425942496.0,0.0
-2.177469,1.177269,-12.210573,-32.130001,3.15,20.790001,1729425942514.0,0.0
-1.651048,-0.172283,-12.433105,-40.389999,2.38,40.25,1729425942533.0,0.0
-1.143769,-1.306481,-11.499906,-26.18,9.17,52.43,1729425942553.0,0.0
-2.053042,-3.208775,-9.554541,14.56,23.66,59.290001,1729425942575.0,0.0
-3.792624,-3.826123,-9.238688,58.799999,33.529999,57.540001,1729425942596.0,0.0
-5.123034,-3.744767,-9.879964,43.68,33.529999,42.630001,1729425942614.0,0.0
-4.701896,-5.07757,-9.736395,-24.290001,22.120001,17.57,1729425942634.0,0.0
-3.675375,-6.912865,-8.171489,-25.9,8.82,-6.3,1729425942654.0,0.0
-3.876373,-5.345565,-6.809973,-2.59,7.63,-26.880001,1729425942673.0,0.0
-4.398008,-3.416951,-6.972685,19.6,0.63,-40.040001,1729425942699.0,0.0
-3.979264,-2.277967,-8.458629,7.14,-11.83,-48.439999,1729425942714.0,0.0
-2.507678,-3.146562,-9.58804,-26.6,-22.610001,-57.889999,1729425942733.0,0.0
-0.380459,-2.120041,-10.566705,-31.710001,-28.77,-63.07,1729425942754.0,0.0
0.227318,0.294317,-9.932607,9.17,-21.84,-50.959999,1729425942773.0,0.0
0.09332,2.021935,-8.547162,19.32,-15.61,-27.16,1729425942796.0,0.0
-1.055235,3.553342,-7.109076,16.799999,-5.39,12.39,1729425942814.0,0.0
-2.411965,2.361716,-11.219944,-7.49,4.83,42.91,1729425942833.0,0.0
-2.196611,0.16989,-12.071791,-50.049999,3.57,55.790001,1729425942853.0,0.0
-1.837688,-1.926222,-12.880564,-26.040001,2.45,73.360001,1729425942874.0,0.0
-2.785245,-3.945765,-10.815558,27.299999,21.35,73.43,1729425942895.0,0.0
-4.754539,-4.606184,-9.375079,57.889999,38.5,61.18,1729425942913.0,0.0
-5.62074,-3.881158,-10.191031,37.939999,31.85,34.369999,1729425942934.0,0.0
-5.029713,-4.986642,-10.164711,-13.23,19.040001,-0.98,1729425942953.0,0.0
-4.034299,-6.037091,-9.41815,-14.0,10.99,-26.880001,1729425942973.0,0.0
-3.646662,-4.498507,-7.786245,-1.61,10.29,-49.209999,1729425942995.0,0.0
-3.993621,-3.103491,-6.943972,4.69,7.77,-61.599998,1729425943013.0,0.0
-3.730411,-1.710868,-7.616355,-0.56,-1.89,-66.080002,1729425943033.0,0.0
-2.634498,-0.299103,-8.717053,-6.44,-15.61,-60.689999,1729425943053.0,0.0
-1.493121,-0.940379,-9.530612,-13.72,-24.780001,-54.459999,1729425943073.0,0.0
-0.528814,0.476172,-9.887143,-15.26,-24.99,-38.990002,1729425943095.0,0.0
-0.880559,0.952343,-11.078769,13.72,-5.11,-18.34,1729425943114.0,0.0
-0.684347,1.433301,-10.016356,30.870001,-4.48,-0.35,1729425943133.0,0.0
-1.476372,2.641676,-9.353544,23.1,6.3,29.889999,1729425943153.0,0.0
-2.672783,1.526621,-9.300901,-11.76,14.28,46.200001,1729425943174.0,0.0
-3.48395,-0.564706,-10.006784,-38.43,15.54,50.959999,1729425943197.0,0.0
-3.177669,-2.402394,-11.4353,-45.5,8.12,51.73,1729425943215.0,0.0
-2.330609,-3.912265,-10.205389,-18.76,0.14,47.599998,1729425943234.0,0.0
-2.833102,-4.618148,-9.623933,17.639999,12.81,41.720001,1729425943253.0,0.0
-3.909872,-3.850052,-10.234102,21.700001,24.710001,26.67,1729425943273.0,0.0
-4.115655,-3.98405,-9.702895,6.72,22.33,9.59,1729425943295.0,0.0
-3.570091,-5.149354,-8.449057,-13.440001,13.09,-6.09,1729425943313.0,0.0
-2.876173,-4.869394,-8.035098,-8.68,2.38,-24.92,1729425943334.0,0.0
-2.821138,-3.428915,-7.996813,4.06,2.38,-40.040001,1729425943354.0,0.0
-2.713461,-2.620141,-8.946764,-5.67,-4.2,-51.240002,1729425943373.0,0.0
-2.009971,-2.679961,-10.095319,-18.41,-11.62,-61.25,1729425943395.0,0.0
-1.036092,-1.725225,-10.033106,-23.24,-9.45,-66.150002,1729425943414.0,0.0
-0.358923,-0.428315,-9.327222,-23.17,-12.81,-58.73,1729425943433.0,0.0
0.301496,-0.078963,-10.327423,-12.67,-15.89,-47.110001,1729425943453.0,0.0
-0.433101,2.239682,-8.961121,-1.96,1.26,-20.370001,1729425943473.0,0.0
-2.749353,3.105884,-8.894121,-12.11,24.15,15.89,1729425943496.0,0.0
-3.28056,0.040678,-12.380465,-22.469999,15.96,28.630001,1729425943513.0,0.0
-1.818545,-1.287339,-13.150953,-27.370001,7.49,37.310001,1729425943534.0,0.0
-1.162912,-2.562713,-11.286944,9.59,12.95,48.509998,1729425943553.0,0.0
-2.28036,-3.024528,-9.032906,37.170002,32.970001,39.970001,1729425943573.0,0.0
-3.850052,-3.579663,-9.793823,35.98,40.670002,26.25,1729425943595.0,0.0
-3.936193,-4.335794,-9.410972,26.809999,31.15,3.5,1729425943614.0,0.0
-3.469593,-4.704289,-8.353344,0.28,18.969999,-14.84,1729425943633.0,0.0
-2.971886,-4.608576,-7.410572,-4.27,7.7,-39.27,1729425943654.0,0.0
-3.055635,-3.306881,-6.953543,-1.19,1.82,-56.630001,1729425943674.0,0.0
-3.235096,-2.098505,-7.846066,-1.12,-4.55,-67.550003,1729425943698.0,0.0
-2.892922,-1.895115,-8.999406,-14.63,-12.88,-74.199997,1729425943713.0,0.0
-1.808974,-2.242075,-10.13839,-22.469999,-23.66,-77.769997,1729425943733.0,0.0
-1.4668,-0.887737,-8.523234,-18.83,-22.469999,-70.910004,1729425943753.0,0.0
-0.354138,0.277567,-9.982857,20.09,-38.220001,-57.119999,1729425943781.0,0.0
0.258425,4.524827,-7.726424,2.52,-35.77,-28.630001,1729425943795.0,0.0
-1.586441,4.871787,-9.339187,-23.450001,-17.639999,15.12,1729425943813.0,0.0
-2.395216,0.782453,-11.222338,-28.0,-15.89,32.549999,1729425943834.0,0.0
-2.053042,-0.066999,-12.138789,-30.66,-18.200001,50.75,1729425943853.0,0.0
-1.378266,-2.275574,-12.586248,-28.139999,-18.059999,57.049999,1729425943873.0,0.0
-1.150948,-3.081956,-11.705689,-6.58,-6.65,46.900002,1729425943895.0,0.0
-1.98365,-4.24726,-10.346564,32.41,11.48,38.080002,1729425943913.0,0.0
-2.723032,-3.737589,-9.073583,33.459999,17.639999,21.139999,1729425943933.0,0.0
-3.144169,-3.711268,-10.406385,29.960001,15.4,7.28,1729425943953.0,0.0
-3.213561,-4.424329,-9.303294,5.53,14.7,-9.31,1729425943973.0,0.0
-2.909672,-4.460221,-8.327023,-12.46,6.16,-23.59,1729425943995.0,0.0
-3.024528,-3.57727,-7.862815,-4.9,-0.35,-33.810001,1729425944013.0,0.0
-3.378666,-2.648855,-8.018349,2.59,-1.33,-40.950001,1729425944033.0,0.0
-3.347559,-2.086541,-8.906086,-1.4,-6.3,-43.330002,1729425944053.0,0.0
-2.538785,-2.354537,-9.932607,-7.7,-16.66,-46.549999,1729425944074.0,0.0
-0.870987,-2.232504,-11.243874,-10.85,-22.610001,-49.630001,1729425944095.0,0.0
-0.325424,-0.557528,-9.726824,1.82,-12.88,-43.189999,1729425944113.0,0.0
-1.038485,2.28036,-7.817351,7.91,-2.17,-21.84,1729425944133.0,0.0
-1.165305,2.952743,-10.461421,-3.5,-6.58,-2.8,1729425944153.0,0.0
-0.715454,2.009971,-11.066804,-16.59,-12.88,14.42,1729425944173.0,0.0
-0.988236,1.083949,-11.918649,-17.639999,3.78,37.240002,1729425944197.0,0.0
-1.753939,0.837488,-11.136196,-5.88,15.05,54.529999,1729425944213.0,0.0
-2.555535,-0.028714,-10.037891,13.79,15.82,67.970001,1729425944233.0,0.0
-3.074777,-1.426122,-9.162118,30.1,17.01,73.709999,1729425944253.0,0.0
-3.943372,-3.579663,-9.135797,33.32,21.91,67.900002,1729425944273.0,0.0
-4.776074,-4.259224,-9.860823,45.43,22.68,52.080002,1729425944294.0,0.0
-5.125426,-4.37408,-8.776874,11.2,18.83,24.290001,1729425944313.0,0.0
-4.362115,-5.632704,-8.056634,-11.41,1.33,-0.35,1729425944333.0,0.0
-3.663411,-5.156533,-7.386643,-14.28,-8.26,-27.440001,1729425944353.0,0.0
-3.661019,-3.48395,-6.955935,-6.65,-15.4,-43.259998,1729425944373.0,0.0
-3.488736,-1.799403,-7.989635,-12.25,-24.639999,-49.560001,1729425944394.0,0.0
-2.017149,-2.270789,-9.049655,-24.639999,-38.709999,-49.139999,1729425944413.0,0.0
-1.048056,-1.5003,-9.865608,-24.01,-47.810001,-49.209999,1729425944433.0,0.0
-0.710668,-0.181855,-10.140782,6.58,-46.619999,-31.639999,1729425944452.0,0.0
-0.480957,0.4666,-9.62154,7.28,-40.810001,-18.620001,1729425944473.0,0.0
-1.261017,2.557927,-7.700103,4.9,-30.380001,8.61,1729425944500.0,0.0
-1.935793,1.921437,-10.892128,-7.49,-21.0,29.469999,1729425944513.0,0.0
-1.569692,0.61017,-10.035499,-14.07,-29.540001,42.490002,1729425944533.0,0.0
-1.911865,-0.155533,-10.882557,-3.08,-21.139999,59.920002,1729425944555.0,0.0
-2.48375,-2.311467,-10.827522,-6.3,-13.37,58.869999,1729425944573.0,0.0
-2.919244,-3.771089,-9.284152,15.47,-11.83,53.619999,1729425944594.0,0.0
-3.67059,-3.85723,-8.633304,39.130001,-8.26,41.23,1729425944614.0,0.0
-4.948357,-3.074777,-8.209774,35.349998,-2.73,21.280001,1729425944633.0,0.0
-6.089733,-3.292524,-7.575676,11.27,-2.03,3.01,1729425944653.0,0.0
-5.927022,-4.206582,-7.73121,-14.21,-21.91,-16.17,1729425944673.0,0.0
-5.008178,-3.850052,-8.154739,-14.0,-44.240002,-31.01,1729425944698.0,0.0
-4.752146,-2.569891,-9.980463,-13.51,-45.080002,-40.32,1729425944713.0,0.0
-4.979464,-2.352145,-9.997212,-26.809999,-38.779999,-47.880001,1729425944732.0,0.0
-4.558327,-2.548356,-10.738988,-37.66,-37.380001,-50.119999,1729425944753.0,0.0
-3.718446,-1.131805,-10.454242,-6.72,-33.529999,-37.66,1729425944773.0,0.0
-3.495914,0.346959,-8.889337,6.72,-20.860001,-25.129999,1729425944795.0,0.0
-4.584648,2.457429,-7.520642,6.3,-7.28,1.89,1729425944813.0,0.0
-4.118048,0.212961,-9.899107,2.8,-15.12,10.57,1729425944832.0,0.0
-2.878566,-0.535992,-10.932807,6.3,-23.59,20.370001,1729425944853.0,0.0
-3.026921,-0.167498,-10.987842,12.25,-7.84,28.91,1729425944873.0,0.0
-3.897908,-0.90688,-10.444671,5.67,9.45,29.82,1729425944894.0,0.0
-4.431508,-1.179662,-9.296116,11.41,12.88,30.309999,1729425944914.0,0.0
-4.850252,-1.954936,-8.772088,12.11,12.67,29.049999,1729425944933.0,0.0
-5.381458,-2.825923,-8.829515,3.85,16.17,20.02,1729425944952.0,0.0
-6.07777,-3.572484,-9.726824,9.38,18.9,11.9,1729425944973.0,0.0
-6.02752,-3.759124,-9.06162,5.95,16.799999,-2.31,1729425944995.0,0.0
-5.225924,-3.850052,-8.214561,-5.81,8.61,-14.07,1729425945012.0,0.0
-4.634897,-2.790031,-7.190433,-6.16,3.85,-26.460001,1729425945034.0,0.0
-4.4674,-1.739582,-6.534799,-12.53,-0.07,-33.740002,1729425945052.0,0.0
-3.921836,-1.852045,-7.79103,-22.190001,-11.76,-39.689999,1729425945072.0,0.0
-3.488736,-1.684547,-8.925228,-24.5,-16.940001,-38.639999,1729425945094.0,0.0
-2.907279,-1.722832,-9.949356,1.12,-15.61,-35.07,1729425945112.0,0.0
-2.792424,0.995414,-7.482357,12.46,-14.07,-23.379999,1729425945133.0,0.0
-3.706482,2.313859,-8.118847,-10.57,-8.4,-4.27,1729425945154.0,0.0
-3.5007,0.344566,-9.487542,-10.22,-16.799999,6.72,1729425945172.0,0.0
-3.694518,-0.457029,-10.054641,-1.68,-13.37,24.08,1729425945195.0,0.0
-4.046263,-0.148355,-11.10509,8.96,-3.22,32.41,1729425945213.0,0.0
-4.189832,-0.299103,-10.018748,3.85,-0.7,38.080002,1729425945233.0,0.0
-3.98405,-0.988236,-10.147961,-1.19,-2.52,37.170002,1729425945252.0,0.0
-4.048656,-1.383051,-10.009177,2.87,5.81,35.420002,1729425945272.0,0.0
-5.056034,-2.268396,-8.793623,7.77,20.370001,34.509998,1729425945294.0,0.0
-5.907879,-2.895315,-8.250452,12.74,24.15,28.139999,1729425945367.0,0.0
-6.147161,-3.165704,-9.755538,19.18,18.76,17.01,1729425945367.0,0.0
-5.836094,-2.909672,-9.329616,-2.8,16.66,-1.33,1729425945370.0,0.0
-5.28096,-3.684947,-8.764909,-26.530001,14.14,-14.42,1729425945430.0,0.0
-4.699504,-3.029313,-7.427321,-25.34,6.72,-25.83,1729425945433.0,0.0
-4.48415,-2.086541,-7.585248,-10.92,0.7,-28.139999,1729425945433.0,0.0
-4.189832,-1.811367,-8.465806,-8.54,-6.51,-32.48,1729425945434.0,0.0
-3.960121,-2.155933,-9.018548,-16.450001,-2.73,-34.369999,1729425945452.0,0.0
-3.699304,-1.713261,-8.80798,4.27,-4.27,-29.82,1729425945472.0,0.0
-3.326023,-0.090927,-8.657232,14.35,-8.47,-26.040001,1729425945494.0,0.0
-3.067599,1.883151,-7.99442,-2.87,-8.33,-16.450001,1729425945513.0,0.0
-4.402793,2.210968,-8.489735,-29.540001,1.4,3.57,1729425945532.0,0.0
-4.063013,-0.167498,-11.294124,-28.77,-4.55,8.82,1729425945553.0,0.0
-3.596412,-0.167498,-10.415956,-2.03,-6.79,24.639999,1729425945573.0,0.0
-4.225725,0.4666,-9.815358,15.12,7.35,39.830002,1729425945593.0,0.0
-4.496114,-0.232104,-9.932607,12.39,10.43,42.420002,1729425945612.0,0.0
-4.532006,-1.12702,-9.190832,23.24,12.95,40.880001,1729425945632.0,0.0
-5.233103,-1.694118,-9.183653,24.99,22.049999,39.48,1729425945652.0,0.0
-5.91745,-2.347359,-9.600004,13.37,28.49,28.280001,1729425945672.0,0.0
-5.833702,-2.861816,-9.24826,-9.1,25.620001,11.83,1729425945698.0,0.0
-4.816752,-3.854837,-8.583055,-18.76,14.42,-1.33,1729425945711.0,0.0
-4.048656,-3.586841,-7.611568,-16.379999,9.8,-18.620001,1729425945732.0,0.0
-4.06062,-2.840281,-6.429514,-11.27,8.82,-28.49,1729425945752.0,0.0
-3.601198,-1.76351,-7.633104,-9.66,-0.7,-36.75,1729425945772.0,0.0
-3.062813,-2.09372,-8.41795,-13.86,-16.1,-43.330002,1729425945793.0,0.0
-2.754139,-1.861616,-9.016156,-14.21,-16.52,-45.57,1729425945812.0,0.0
-2.794817,-0.942772,-8.798409,-1.96,-15.26,-38.290001,1729425945832.0,0.0
-2.684747,0.380459,-9.250652,-4.06,-17.15,-34.299999,1729425945852.0,0.0
-2.727818,1.957329,-8.585447,-18.76,-17.360001,-20.440001,1729425945875.0,0.0
-3.998406,1.631905,-10.557133,-32.830002,-3.78,0.42,1729425945893.0,0.0
-3.838088,-0.22014,-12.502499,-24.01,-5.81,7.07,1729425945912.0,0.0
-3.572484,0.344566,-11.904292,9.87,1.4,27.23,1729425945932.0,0.0
-4.584648,0.165105,-9.882358,20.65,21.77,42.139999,1729425945951.0,0.0
-4.453043,-1.081556,-9.083155,25.969999,9.1,34.299999,1729425945971.0,0.0
-4.934,-2.165504,-7.898707,24.290001,19.879999,31.780001,1729425945993.0,0.0
-5.546563,-3.046063,-8.925228,26.25,22.82,24.639999,1729425946012.0,0.0
-5.809773,-2.658426,-9.446864,15.61,20.16,9.8,1729425946032.0,0.0
-5.498707,-3.445665,-9.379865,-13.37,18.200001,-8.05,1729425946070.0,0.0
-4.536791,-4.122833,-8.793623,-17.710001,8.61,-22.68,1729425946074.0,0.0
-4.07737,-2.749353,-7.587641,-7.63,3.92,-33.950001,1729425946162.0,0.0
-4.237689,-1.074377,-7.094719,1.96,0.21,-39.900002,1729425946165.0,0.0
-3.708875,-0.191426,-8.171489,3.5,-18.41,-37.799999,1729425946166.0,0.0
-3.337988,-0.490529,-8.432307,-14.7,-19.530001,-37.66,1729425946168.0,0.0
-3.52702,-0.488136,-9.698111,-16.59,-13.58,-29.889999,1729425946171.0,0.0
-3.78066,-0.119641,-8.769694,8.47,-12.18,-20.860001,1729425946193.0,0.0
-3.804588,1.359123,-7.812566,23.1,-15.190001,-9.17,1729425946212.0,0.0
-4.457829,3.756732,-7.001399,13.16,-17.92,10.85,1729425946231.0,0.0
-4.405186,2.79721,-9.755538,1.96,-24.639999,24.15,1729425946254.0,0.0
-4.182654,1.67019,-10.695917,0.21,-27.58,42.84,1729425946271.0,0.0
-4.780859,0.650848,-11.382657,2.66,-13.51,60.48,1729425946293.0,0.0
-4.934,-0.689133,-11.413764,-4.9,-2.38,64.75,1729425946311.0,0.0
-4.651647,-1.430908,-10.906486,14.77,3.71,65.590004,1729425946331.0,0.0
-4.680361,-1.428515,-10.15514,20.719999,19.18,57.470001,1729425946351.0,0.0
-5.379066,-1.952543,-10.439885,3.22,36.540001,47.18,1729425946374.0,0.0
-5.711668,-3.579663,-9.939785,-2.52,45.360001,30.870001,1729425946391.0,0.0
-5.907879,-3.732803,-7.814958,-11.06,46.689999,16.940001,1729425946411.0,0.0
-5.125426,-3.893122,-7.829315,-23.309999,31.710001,-2.24,1729425946430.0,0.0
-3.797409,-4.275974,-8.018349,-29.469999,20.440001,-32.41,1729425946450.0,0.0
-3.522235,-3.184847,-7.76471,-22.540001,17.15,-45.220001,1729425946471.0,0.0
-3.333202,-2.208575,-7.74796,-14.91,10.08,-52.990002,1729425946493.0,0.0
-2.723032,-1.557728,-8.733803,-17.85,-2.87,-59.150002,1729425946512.0,0.0
-1.974079,-0.758525,-9.875179,-18.200001,-13.51,-59.849998,1729425946530.0,0.0
-1.775474,1.091127,-9.968499,-15.68,-9.73,-49.349998,1729425946551.0,0.0
-2.545963,2.723032,-9.327222,-19.879999,3.15,-29.26,1729425946571.0,0.0
-3.208775,3.053242,-9.827322,-6.44,7.98,0.49,1729425946594.0,0.0
-3.948158,2.608176,-11.152946,12.32,11.13,34.650002,1729425946611.0,0.0
-3.749553,0.325424,-12.263215,19.110001,17.219999,51.380001,1729425946631.0,0.0
-3.424129,-0.641276,-10.49492,36.400002,21.700001,61.599998,1729425946652.0,0.0
-3.795017,-1.20359,-8.88455,58.73,27.16,60.34,1729425946670.0,0.0
-4.4674,-1.866402,-8.750552,48.439999,34.790001,40.670002,1729425946697.0,0.0
-4.819145,-2.811567,-9.044869,17.43,34.720001,20.02,1729425946715.0,0.0
-4.185047,-3.881158,-9.272188,-3.78,24.01,-0.49,1729425946731.0,0.0
-3.713661,-4.689932,-8.664411,11.69,18.76,-17.219999,1729425946752.0,0.0
-3.957729,-3.400201,-7.149754,34.509998,16.870001,-29.75,1729425946771.0,0.0
-4.022335,-1.95015,-7.539784,34.299999,3.22,-46.549999,1729425946795.0,0.0
-4.118048,-1.28016,-7.302894,-7.21,-3.78,-56.490002,1729425946811.0,0.0
-4.125226,-1.435694,-8.425128,-39.900002,-8.96,-58.939999,1729425946833.0,0.0
-3.960121,-1.438086,-8.894121,-34.16,-15.26,-59.709999,1729425946851.0,0.0
-3.859623,-0.727418,-9.298509,-0.7,-15.96,-49.490002,1729425946871.0,0.0
-3.503092,0.299103,-10.083356,25.83,-20.299999,-37.170002,1729425946897.0,0.0
-2.885744,1.194018,-10.463813,26.67,-20.09,-25.690001,1729425946911.0,0.0
-2.596212,1.122234,-10.219746,19.6,-11.55,-15.47,1729425946930.0,0.0
-2.622534,0.564706,-10.413565,13.93,-0.7,-5.39,1729425946950.0,0.0
-2.825923,0.064606,-10.329816,16.940001,6.79,3.71,1729425946971.0,0.0
-3.364309,0.002393,-7.740781,18.83,13.3,10.64,1729425946992.0,0.0
-3.952943,-1.160519,-8.484949,4.34,15.54,9.17,1729425947012.0,0.0
-3.675375,-1.942972,-9.090333,-13.79,-0.07,1.75,1729425947030.0,0.0
-3.330809,-2.694318,-9.389436,3.08,-6.51,-2.17,1729425947051.0,0.0
-3.912265,-2.85703,-8.865408,17.290001,-2.24,-4.62,1729425947072.0,0.0
-4.371687,-2.306681,-8.685946,15.33,-4.69,-9.03,1729425947091.0,0.0
-3.943372,-1.990828,-8.762517,-1.33,-17.08,-14.21,1729425947110.0,0.0
-3.617948,-2.426322,-9.492328,-10.64,-27.65,-21.559999,1729425947131.0,0.0
-3.462414,-2.445465,-10.021141,-3.29,-23.309999,-27.02,1729425947151.0,0.0
-3.218346,-1.674976,-9.923036,-1.75,-23.73,-28.42,1729425947170.0,0.0
-3.074777,-0.734596,-8.123632,-8.82,-18.9,-25.549999,1729425947193.0,0.0
-3.845266,-0.825524,-8.659625,-6.86,-10.08,-14.77,1729425947210.0,0.0
-3.60359,-0.722632,-9.080762,8.68,-14.77,-12.53,1729425947231.0,0.0
-3.347559,-0.346959,-9.183653,25.200001,-14.91,0.35,1729425947251.0,0.0
-3.67059,-0.430708,-8.999406,11.41,-7.0,6.16,1729425947271.0,0.0
-3.957729,-1.919044,-9.946963,-19.25,-3.29,4.9,1729425947291.0,0.0
-3.59402,-2.65364,-10.24846,-15.96,-8.75,0.84,1729425947311.0,0.0
-3.783052,-2.986243,-9.786645,11.48,-5.32,-0.56,1729425947330.0,0.0
-4.548756,-2.756532,-9.128618,17.85,2.31,-4.76,1729425947351.0,0.0
-5.15414,-2.524428,-8.13799,0.14,0.21,-10.15,1729425947371.0,0.0
-5.065606,-2.871387,-7.855636,-20.02,-12.53,-14.14,1729425947396.0,0.0
-4.694718,-3.062813,-7.728817,-13.02,-27.58,-17.710001,1729425947411.0,0.0
-4.752146,-3.424129,-8.38445,10.22,-26.040001,-20.790001,1729425947432.0,0.0
-4.788038,-2.194218,-9.047262,16.66,-18.969999,-23.450001,1729425947449.0,0.0
-4.141976,-1.359123,-8.9683,3.57,-20.02,-14.14,1729425947470.0,0.0
-3.579663,-1.383051,-9.856036,11.83,-16.940001,-2.73,1729425947491.0,0.0
-3.342773,-0.90688,-9.29133,30.450001,-6.3,6.65,1729425947512.0,0.0
-3.555735,-0.768096,-9.355937,39.759998,6.86,17.43,1729425947530.0,0.0
-3.45045,-0.849452,-10.176675,23.1,7.7,23.379999,1729425947552.0,0.0
-3.20399,-1.421337,-10.523634,-6.02,7.28,25.27,1729425947572.0,0.0
-3.287738,-2.478964,-10.614561,-27.370001,13.440001,20.65,1729425947596.0,0.0
-3.948158,-3.249453,-10.147961,-27.09,23.52,10.71,1729425947610.0,0.0
-4.843073,-3.462414,-9.162118,-18.690001,29.540001,3.85,1729425947633.0,0.0
-5.312066,-3.122634,-7.877172,-18.9,24.710001,-2.94,1729425947649.0,0.0
-5.063213,-2.632105,-8.025528,-19.530001,7.63,-8.05,1729425947670.0,0.0
-4.608576,-2.646462,-9.245867,-16.870001,-8.75,-10.92,1729425947699.0,0.0
-4.582255,-2.904887,-8.886944,-7.35,-5.25,-12.95,1729425947710.0,0.0
-5.056034,-2.239682,-7.221539,-7.07,4.48,-12.25,1729425947730.0,0.0
-4.721039,-1.591227,-7.788638,-5.81,-5.18,-11.48,1729425947749.0,0.0
-3.783052,-1.227518,-7.929814,4.13,-16.59,-5.95,1729425947771.0,0.0
-3.706482,-1.239482,-8.635696,49.84,-7.98,9.38,1729425947792.0,0.0
-3.675375,-1.074377,-9.279366,59.57,-5.11,14.98,1729425947810.0,0.0
-3.345166,-1.457229,-9.444471,38.709999,-7.35,18.129999,1729425947829.0,0.0
-3.046063,-2.323431,-9.96132,-3.36,-6.65,14.35,1729425947850.0,0.0
-3.227918,-3.227918,-10.41835,-26.6,-2.66,7.35,1729425947869.0,0.0
-3.627519,-3.644269,-10.719845,-20.65,2.94,-0.7,1729425947890.0,0.0
-4.07737,-3.811767,-10.212566,6.16,6.37,-4.97,1729425947909.0,0.0
-4.591826,-3.821337,-8.80798,28.42,11.13,-7.56,1729425947929.0,0.0
-5.161318,-3.493521,-7.073184,36.049999,9.24,-11.2,1729425947948.0,0.0
-5.422136,-3.349952,-6.235696,35.139999,-1.54,-15.190001,1729425947969.0,0.0
-5.441278,-3.34038,-6.67119,47.32,-14.49,-16.309999,1729425947990.0,0.0
-5.316852,-3.649055,-8.195417,61.880001,-23.52,-21.0,1729425948009.0,0.0
-5.125426,-2.907279,-9.238688,35.91,-21.280001,-23.73,1729425948031.0,0.0
-5.005785,-2.400001,-9.576077,2.24,-10.22,-18.27,1729425948051.0,0.0
-4.656433,-2.474179,-9.908678,-5.39,0.35,-9.24,1729425948070.0,0.0
-4.254438,-1.732404,-9.454042,3.85,10.01,0.42,1729425948092.0,0.0
-3.481557,-1.940579,-8.958728,10.08,19.530001,7.42,1729425948112.0,0.0
-2.778067,-2.648855,-9.372685,-13.79,19.809999,10.36,1729425948131.0,0.0
-2.359323,-2.95035,-9.619147,-12.04,14.0,11.27,1729425948150.0,0.0
-2.452643,-2.639283,-9.341579,2.24,15.47,11.55,1729425948170.0,0.0
-2.957529,-2.847459,-8.226524,15.190001,21.35,10.64,1729425948193.0,0.0
-3.845266,-3.158526,-6.78126,18.969999,20.93,9.94,1729425948210.0,0.0
-4.599005,-3.493521,-6.374479,12.46,9.38,3.08,1729425948230.0,0.0
-4.962714,-3.641876,-6.4678,5.81,-6.3,-3.57,1729425948251.0,0.0
-5.24746,-3.54377,-7.460821,19.25,-19.25,-5.88,1729425948270.0,0.0
-5.347959,-3.885944,-8.200203,19.74,-20.65,-11.97,1729425948293.0,0.0
-4.843073,-3.65384,-8.652447,8.89,-22.68,-13.3,1729425948312.0,0.0
-4.445865,-2.720639,-8.338986,12.53,-23.24,-7.7,1729425948331.0,0.0
-4.496114,-2.304288,-8.377272,24.08,-13.79,-0.14,1729425948350.0,0.0
-4.24726,-2.37368,-8.535198,24.290001,-7.21,8.89,1729425948371.0,0.0
-3.488736,-2.756532,-9.008978,26.110001,-7.98,15.96,1729425948393.0,0.0
-3.019742,-2.720639,-9.559326,19.74,-2.38,18.27,1729425948410.0,0.0
-2.89053,-2.926422,-9.439686,8.61,2.24,19.32,1729425948429.0,0.0
-3.474378,-3.113062,-8.987441,-1.89,3.99,19.389999,1729425948450.0,0.0
-4.019942,-3.39063,-9.375079,7.91,8.33,19.879999,1729425948471.0,0.0
-4.326223,-4.031906,-9.284152,25.690001,12.6,21.98,1729425948493.0,0.0
-4.82393,-4.139583,-7.716853,31.219999,17.01,20.51,1729425948511.0,0.0
-5.56092,-3.914658,-6.948757,21.91,13.93,15.4,1729425948531.0,0.0
-5.580062,-3.940979,-7.329216,4.27,1.61,4.27,1729425948550.0,0.0
-5.386244,-4.098906,-7.554141,-0.21,-6.37,-2.24,1729425948571.0,0.0
-5.213961,-4.21376,-7.286145,1.19,-6.65,-8.75,1729425948591.0,0.0
-4.838287,-4.235296,-7.68096,11.41,-10.29,-9.87,1729425948611.0,0.0
-4.409972,-3.232704,-7.460821,24.85,-17.290001,-8.75,1729425948629.0,0.0
-4.338188,-2.68714,-8.501699,29.469999,-14.84,-6.37,1729425948649.0,0.0
-4.103691,-2.522035,-9.164511,7.14,-11.55,-3.08,1729425948671.0,0.0
-3.677768,-2.866602,-9.580862,-9.03,-5.6,4.41,1729425948696.0,0.0
-3.436093,-3.189633,-9.437292,-11.97,3.08,10.5,1729425948710.0,0.0
-3.445665,-3.895515,-8.975478,-7.49,8.89,12.39,1729425948730.0,0.0
-3.531806,-4.15394,-8.525627,-11.69,9.87,9.17,1729425948750.0,0.0
-3.900301,-4.048656,-7.953743,-14.7,7.91,5.46,1729425948771.0,0.0
-4.826324,-3.56052,-8.044669,-15.4,5.39,2.66,1729425948793.0,0.0
-5.151747,-3.811767,-8.070991,-8.33,1.75,-1.68,1729425948810.0,0.0
-5.592027,-4.055835,-8.193025,4.9,1.47,2.31,1729425948830.0,0.0
-6.125626,-3.333202,-7.202396,9.03,0.98,4.48,1729425948851.0,0.0
-6.254838,-3.744767,-7.575676,-4.2,-3.01,2.38,1729425948871.0,0.0
-5.742774,-3.914658,-7.642675,-8.75,-12.53,2.31,1729425948892.0,0.0
-5.216353,-3.67059,-7.920243,9.38,-14.84,2.59,1729425948910.0,0.0
-5.046463,-3.570091,-8.178668,18.34,-10.29,1.82,1729425948929.0,0.0
-4.802395,-3.519842,-8.437093,12.74,-5.04,-0.63,1729425948952.0,0.0
-4.749753,-2.957529,-8.310273,14.07,-0.7,0.98,1729425948971.0,0.0
-4.67079,-2.656033,-8.334201,20.299999,4.13,2.52,1729425948993.0,0.0
-4.223332,-2.615355,-8.764909,14.56,3.29,3.99,1729425949011.0,0.0
-3.646662,-2.89053,-9.159724,1.82,2.87,5.53,1729425949029.0,0.0
-3.412165,-2.976671,-9.119047,-14.63,6.3,7.07,1729425949049.0,0.0
-3.536592,-3.235096,-9.375079,-23.1,10.29,8.75,1729425949070.0,0.0
-3.692125,-3.730411,-9.097511,-12.18,12.6,10.92,1729425949091.0,0.0
-4.381258,-4.445865,-7.652246,6.58,16.450001,10.99,1729425949110.0,0.0
-5.087141,-4.386044,-6.979864,7.28,19.74,2.59,1729425949131.0,0.0
-5.455636,-4.115655,-6.652047,-10.22,6.86,-6.51,1729425949149.0,0.0
-5.692525,-4.168297,-6.568298,-24.01,-3.71,-12.46,1729425949171.0,0.0
-5.737988,-3.869194,-6.439085,-26.809999,-11.55,-17.92,1729425949191.0,0.0
-5.819345,-4.297509,-7.056434,-10.15,-19.809999,-16.52,1729425949210.0,0.0
-5.304887,-4.37408,-8.169096,-0.7,-24.780001,-19.950001,1729425949230.0,0.0
-4.697111,-3.737589,-7.838887,5.46,-26.809999,-18.83,1729425949250.0,0.0
-4.500899,-2.713461,-7.477571,6.23,-22.26,-13.79,1729425949271.0,0.0
-4.725825,-2.414358,-8.317451,5.04,-16.940001,-8.33,1729425949291.0,0.0
-4.596612,-2.340181,-9.24826,-3.85,-12.95,-5.95,1729425949309.0,0.0
-4.173083,-2.514857,-9.856036,-12.25,-10.85,-0.28,1729425949331.0,0.0
-4.019942,-2.713461,-10.114462,-15.61,-1.96,3.64,1729425949350.0,0.0
-4.027121,-3.129812,-9.731609,-17.5,5.67,4.34,1729425949370.0,0.0
-4.266403,-3.232704,-9.410972,-13.72,9.66,4.69,1729425949393.0,0.0
-4.680361,-3.175276,-9.336794,0.49,15.47,4.9,1729425949410.0,0.0
-5.312066,-3.495914,-8.659625,12.74,23.030001,6.23,1729425949429.0,0.0
-5.800202,-3.601198,-7.250252,8.96,25.620001,4.83,1729425949450.0,0.0
-5.883951,-3.663411,-6.673582,-13.16,9.8,-3.01,1729425949471.0,0.0
-5.668597,-3.921836,-6.396015,-24.290001,1.75,-8.26,1729425949491.0,0.0
-5.572884,-3.866802,-7.159326,-15.47,-5.32,-10.5,1729425949510.0,0.0
-5.240282,-3.986443,-7.558927,-0.42,-9.1,-14.35,1729425949530.0,0.0
-4.651647,-4.113262,-7.623533,8.75,-11.69,-16.799999,1729425949549.0,0.0
-4.232903,-3.022135,-7.135397,18.27,-16.030001,-14.84,1729425949569.0,0.0
-4.359723,-1.954936,-7.04447,21.280001,-13.51,-6.3,1729425949591.0,0.0
-4.608576,-1.878366,-8.319844,11.55,-9.17,1.47,1729425949610.0,0.0
-4.496114,-2.165504,-9.454042,-3.5,-8.12,6.86,1729425949631.0,0.0
-4.156333,-2.495714,-9.870394,-13.51,-5.46,14.35,1729425949651.0,0.0
-3.981657,-2.952743,-9.286544,-22.26,0.07,17.639999,1729425949669.0,0.0
-4.027121,-3.218346,-8.609376,-39.549999,4.97,15.61,1729425949694.0,0.0
-4.402793,-3.572484,-9.38465,-35.91,9.1,11.76,1729425949709.0,0.0
-4.811966,-4.015156,-9.437292,-13.16,15.61,8.61,1729425949730.0,0.0
-5.257031,-4.292724,-9.221939,17.5,20.16,9.73,1729425949749.0,0.0
-5.536992,-3.749553,-7.838887,38.57,17.219999,7.21,1729425949769.0,0.0
-5.900701,-2.916851,-6.63769,30.799999,11.83,3.64,1729425949793.0,0.0
-5.903094,-3.337988,-7.889136,-8.4,0.63,-6.3,1729425949809.0,0.0
-5.599205,-4.345366,-8.372486,-18.48,0.7,-12.18,1729425949831.0,0.0
-4.924429,-4.197011,-8.575876,-16.66,-3.92,-16.73,1729425949849.0,0.0
-4.256832,-3.172883,-8.216952,-12.46,-10.78,-19.460001,1729425949871.0,0.0
-4.436293,-2.29711,-8.941978,-29.26,1.26,-19.950001,1729425949893.0,0.0
-4.575077,-2.234896,-9.736395,-52.43,12.25,-21.210001,1729425949910.0,0.0
-3.986443,-2.67039,-10.064213,-50.68,7.98,-14.77,1729425949931.0,0.0
-3.232704,-2.624927,-10.124033,-24.639999,6.93,-7.49,1729425949950.0,0.0
-3.225525,-2.438286,-9.564112,-7.7,18.200001,-3.71,1729425949969.0,0.0
-3.773481,-2.402394,-9.035298,-9.1,30.17,-2.38,1729425949993.0,0.0
-4.376472,-2.629712,-8.262416,-14.07,32.200001,-3.01,1729425950010.0,0.0
-4.895715,-2.813959,-8.023134,-11.34,26.880001,-3.57,1729425950032.0,0.0
-5.321638,-3.158526,-7.573284,-1.05,23.1,-5.11,1729425950049.0,0.0
-5.754738,-3.18724,-7.367501,1.26,17.99,-7.77,1729425950070.0,0.0
-5.711668,-3.536592,-8.078169,-4.69,6.79,-13.51,1729425950092.0,0.0
-5.103891,-3.438486,-7.913064,-8.54,-2.59,-16.940001,1729425950112.0,0.0
-5.065606,-2.919244,-6.994221,3.01,-2.94,-13.86,1729425950130.0,0.0
-5.041678,-2.667997,-7.125826,10.64,-0.35,-12.11,1729425950149.0,0.0
-4.639683,-2.388037,-7.235896,11.9,-6.51,-7.63,1729425950172.0,0.0
-4.163511,-2.041078,-7.664211,17.15,-11.34,-2.66,1729425950191.0,0.0
-3.988836,-1.689333,-8.451449,16.52,-9.59,2.94,1729425950210.0,0.0
-3.680161,-1.5003,-8.762517,7.49,-9.17,6.65,1729425950229.0,0.0
-3.242275,-1.584049,-9.166903,-5.81,-10.92,10.29,1729425950251.0,0.0
-3.151347,-2.182254,-9.466006,-16.450001,-7.21,12.67,1729425950270.0,0.0
-3.361916,-2.665605,-9.343972,-24.08,-1.19,12.6,1729425950292.0,0.0
-3.751946,-2.87378,-9.437292,-17.01,1.96,12.6,1729425950371.0,0.0
-4.182654,-2.924029,-9.008978,2.94,1.82,13.51,1729425950383.0,0.0
-4.862216,-3.101098,-8.702696,16.030001,4.34,13.37,1729425950385.0,0.0
-5.345565,-3.26381,-8.262416,9.38,4.62,8.19,1729425950385.0,0.0
-5.493921,-3.428915,-8.556733,-0.63,-4.41,2.1,1729425950391.0,0.0
-5.304887,-3.4672,-8.214561,-11.97,-9.94,-3.78,1729425950409.0,0.0
-5.242674,-3.445665,-8.26481,-9.87,-12.6,-7.21,1729425950429.0,0.0
-5.151747,-3.160919,-8.188239,3.43,-13.37,-9.59,1729425950449.0,0.0
-4.847858,-2.529213,-8.078169,8.96,-11.62,-10.36,1729425950469.0,0.0
-4.555934,-2.182254,-8.283953,16.309999,-12.11,-5.18,1729425950491.0,0.0
-4.26401,-1.789831,-8.769694,20.790001,-11.27,-1.12,1729425950509.0,0.0
-3.95055,-1.672583,-9.47797,10.99,-7.91,1.47,1729425950529.0,0.0
-3.718446,-1.933401,-9.963714,-4.62,-2.1,3.43,1729425950550.0,0.0
-3.859623,-2.117648,-10.090532,-12.95,7.98,6.93,1729425950570.0,0.0
-4.110869,-2.414358,-10.124033,-9.59,16.59,8.68,1729425950591.0,0.0
-4.31426,-2.778067,-9.882358,0.42,21.210001,10.64,1729425950610.0,0.0
-4.651647,-3.125026,-9.044869,6.86,26.6,9.52,1729425950629.0,0.0
-5.235496,-3.321238,-8.049455,-7.14,30.52,3.99,1729425950649.0,0.0
-5.47717,-3.493521,-7.312466,-22.469999,22.889999,-3.92,1729425950670.0,0.0
-5.417351,-3.424129,-6.915257,-27.370001,11.41,-9.94,1729425950696.0,0.0
-5.314459,-3.546163,-7.015756,-21.77,0.56,-15.4,1729425950709.0,0.0
-5.288138,-3.294917,-7.441679,-11.9,-6.09,-17.639999,1729425950730.0,0.0
-5.355137,-3.156133,-8.248059,1.75,-8.61,-16.799999,1729425950750.0,0.0
-5.139783,-2.639283,-8.176274,1.68,-9.17,-16.24,1729425950769.0,0.0
-4.845466,-2.227718,-8.073383,1.89,-7.98,-10.78,1729425950792.0,0.0
-4.266403,-1.804188,-8.673983,17.99,-8.89,-2.03,1729425950809.0,0.0
-3.785445,-1.622334,-8.714661,21.91,-7.21,1.4,1729425950828.0,0.0
-3.455236,-1.581656,-9.341579,17.01,-4.69,3.99,1729425950849.0,0.0
-3.218346,-1.715654,-9.678967,2.94,-1.33,4.34,1729425950870.0,0.0
-3.309274,-2.108077,-9.846465,-12.25,5.39,3.71,1729425950893.0,0.0
-3.601198,-2.388037,-9.38465,-25.690001,11.27,1.33,1729425950910.0,0.0
-3.917051,-2.488536,-9.631111,-30.17,13.58,-0.77,1729425950930.0,0.0
-4.232903,-2.70389,-9.58804,-19.879999,16.030001,-1.12,1729425950950.0,0.0
-4.766503,-3.199204,-8.846266,-5.25,21.84,0.98,1729425950971.0,0.0
-5.441278,-3.208775,-8.281559,-5.32,23.52,-1.96,1729425950992.0,0.0
-5.601598,-3.089134,-7.752745,-11.69,13.58,-7.84,1729425951009.0,0.0
-5.350351,-2.962314,-7.463214,-13.440001,3.22,-11.41,1729425951030.0,0.0
-5.13739,-2.907279,-7.793423,-5.53,-2.59,-11.69,1729425951049.0,0.0
-5.12782,-2.897708,-8.360522,8.19,-2.52,-10.57,1729425951070.0,0.0
-4.900501,-2.758924,-7.982457,10.01,-1.33,-9.66,1729425951091.0,0.0
-4.316652,-2.340181,-7.965706,8.68,-7.07,-7.42,1729425951109.0,0.0
-3.893122,-1.751546,-8.204988,13.09,-10.22,-3.57,1729425951130.0,0.0
-3.574877,-1.531406,-8.91805,10.78,-6.86,-0.77,1729425951150.0,0.0
-3.249453,-1.698904,-9.68136,4.62,-8.96,1.61,1729425951169.0,0.0
-3.019742,-1.816152,-9.638289,-6.37,-5.95,1.54,1729425951192.0,0.0
-3.416951,-2.210968,-9.178867,-25.83,3.85,-0.7,1729425951210.0,0.0
-3.799802,-2.589034,-9.631111,-41.720001,5.67,-5.25,1729425951230.0,0.0
-4.017549,-2.404787,-10.059426,-32.970001,4.13,-6.58,1729425951249.0,0.0
-4.292724,-2.641676,-9.805787,-12.32,8.75,-3.92,1729425951269.0,0.0
-4.95075,-2.794817,-8.839087,-4.34,16.940001,-3.36,1729425951292.0,0.0
-5.79781,-2.694318,-7.611568,-18.48,17.290001,-6.02,1729425951311.0,0.0
-6.151947,-2.06022,-6.754939,-54.529999,6.23,-12.74,1729425951330.0,0.0
-6.020342,-2.421536,-7.601997,-73.5,-7.35,-16.17,1729425951351.0,0.0
-5.651847,-2.981457,-8.372486,-57.959999,-11.27,-18.549999,1729425951369.0,0.0
-5.235496,-3.282953,-8.456236,-24.360001,-9.31,-17.219999,1729425951395.0,0.0
-4.376472,-2.129612,-8.355737,-0.91,-15.4,-17.639999,1729425951410.0,0.0
-3.67059,-0.705883,-8.30788,3.15,-20.16,-16.030001,1729425951428.0,0.0
-3.256632,-0.181855,-8.970692,-6.79,-19.389999,-15.12,1729425951449.0,0.0
-2.940779,-0.521635,-10.334601,-17.01,-15.54,-12.53,1729425951470.0,0.0
-2.849852,-0.713061,-10.688738,-10.08,-5.25,-6.72,1729425951492.0,0.0
-3.036492,-1.205983,-10.329816,-0.63,4.48,-3.78,1729425951510.0,0.0
-3.421736,-1.232304,-10.193424,-0.77,12.6,-2.38,1729425951531.0,0.0
-3.850052,-0.861416,-10.360922,1.19,16.17,-1.75,1729425951549.0,0.0
-4.268795,-0.926022,-10.408779,-0.98,21.91,0.56,1729425951569.0,0.0
-4.567898,-1.849652,-9.487542,-0.56,26.32,3.29,1729425951590.0,0.0
-5.178068,-2.507678,-8.652447,-4.13,31.57,1.89,1729425951609.0,0.0
-5.556134,-2.682354,-7.74796,-10.71,25.27,-3.29,1729425951629.0,0.0
-5.541777,-2.59382,-7.075576,-17.85,13.37,-8.26,1729425951649.0,0.0
-5.197211,-2.167897,-7.975278,-15.33,1.89,-12.39,1729425951669.0,0.0
-5.182854,-2.883351,-9.028119,3.57,3.36,-12.6,1729425951694.0,0.0
-4.622933,-3.213561,-8.472985,11.55,4.41,-15.47,1729425951709.0,0.0
-4.103691,-1.921437,-7.456036,12.39,-0.42,-14.91,1729425951728.0,0.0
-3.893122,-0.662812,-7.724032,3.29,-2.03,-13.93,1729425951750.0,0.0
-3.684947,-0.258425,-8.618947,-4.48,-7.98,-12.53,1729425951770.0,0.0
-3.103491,-0.447458,-9.810574,-5.46,-12.81,-10.08,1729425951791.0,0.0
-2.969493,-0.562313,-10.339387,-5.53,-7.84,-3.99,1729425951809.0,0.0
-3.29731,-1.012164,-10.121639,-14.49,7.84,-0.49,1729425951827.0,0.0
-3.275774,-1.122234,-10.526026,-24.08,8.12,-2.24,1729425951850.0,0.0
-3.503092,-1.205983,-10.339387,-6.79,11.13,-1.75,1729425951870.0,0.0
-4.275974,-1.643869,-9.77468,6.93,21.559999,-1.19,1729425951890.0,0.0
-4.82393,-2.194218,-9.346365,14.14,23.309999,-1.4,1729425951910.0,0.0
-4.84068,-2.531606,-8.798409,17.92,16.52,-3.5,1729425951929.0,0.0
-4.965107,-2.285146,-7.869993,14.35,12.04,-7.91,1729425951948.0,0.0
-4.797609,-2.586641,-8.35813,8.19,6.58,-13.440001,1729425951971.0,0.0
-4.409972,-2.833102,-8.855836,15.96,2.1,-15.4,1729425951993.0,0.0
-4.177868,-3.072384,-8.245667,27.93,2.94,-17.99,1729425952009.0,0.0
-3.878766,-2.435893,-7.006185,26.67,-0.42,-17.92,1729425952028.0,0.0
-3.708875,-1.497907,-7.377072,25.76,-6.65,-14.07,1729425952051.0,0.0
-3.256632,-0.854238,-8.209774,23.24,-16.24,-11.41,1729425952068.0,0.0
-2.995814,-0.736989,-9.456435,14.84,-18.059999,-7.21,1729425952091.0,0.0
-2.847459,-1.148555,-10.310673,1.54,-10.29,-4.2,1729425952111.0,0.0
-2.976671,-1.990828,-10.502099,-4.41,-2.8,-1.4,1729425952130.0,0.0
-2.900101,-2.538785,-10.356135,-3.57,1.12,-3.22,1729425952150.0,0.0
-3.110669,-2.277967,-10.51167,14.42,3.78,-2.87,1729425952169.0,0.0
-3.754339,-2.533999,-10.234102,33.32,13.86,-2.17,1729425952191.0,0.0
-4.383651,-3.074777,-9.372685,44.170002,19.040001,-2.38,1729425952209.0,0.0
-4.634897,-3.431308,-9.068797,39.549999,15.12,-3.64,1729425952231.0,0.0
-4.520042,-3.605984,-8.482556,26.389999,10.92,-7.28,1729425952249.0,0.0
-4.453043,-3.582055,-8.126025,17.15,7.49,-9.66,1729425952269.0,0.0
-4.24726,-3.663411,-7.525427,14.56,3.78,-12.6,1729425952290.0,0.0
-4.13719,-3.895515,-7.357929,17.639999,2.94,-14.28,1729425952310.0,0.0
-4.063013,-3.232704,-6.625726,28.42,-0.14,-14.49,1729425952328.0,0.0
-4.335794,-2.347359,-6.683154,40.880001,-5.74,-11.76,1729425952351.0,0.0
-4.101298,-1.734797,-7.625926,29.120001,-16.24,-10.71,1729425952369.0,0.0
-3.639483,-1.612763,-9.140583,5.81,-21.07,-10.01,1729425952390.0,0.0
-3.416951,-1.289732,-10.207782,-20.860001,-16.309999,-8.75,1729425952409.0,0.0
-3.306881,-1.464408,-10.604989,-38.009998,-7.14,-5.25,1729425952428.0,0.0
-3.235096,-2.26361,-10.794022,-34.299999,-0.77,-3.15,1729425952450.0,0.0
-3.086741,-2.622534,-10.382458,-25.200001,3.5,-1.75,1729425952471.0,0.0
-3.35713,-2.48375,-9.927821,-8.61,12.6,-2.94,1729425952490.0,0.0
-3.809374,-2.651247,-9.865608,-1.61,17.639999,-1.75,1729425952510.0,0.0
-4.130012,-3.182454,-8.800802,2.59,19.25,-2.73,1729425952531.0,0.0
-4.386044,-3.546163,-8.489735,-1.33,17.08,-1.61,1729425952550.0,0.0
-4.352544,-3.716053,-7.929814,-6.65,11.34,-4.69,1729425952568.0,0.0
-4.208975,-3.739982,-8.02792,-6.58,6.02,-5.81,1729425952592.0,0.0
-4.161119,-3.814159,-7.898707,0.98,4.9,-7.0,1729425952608.0,0.0
-4.218546,-3.684947,-7.192825,7.21,4.97,-4.76,1729425952628.0,0.0
-3.732803,-3.28056,-7.393822,16.799999,-4.27,-3.29,1729425952651.0,0.0
-3.328416,-2.529213,-7.721639,19.67,-14.49,-0.84,1729425952668.0,0.0
-3.132205,-2.038685,-8.719445,13.16,-15.75,0.91,1729425952693.0,0.0
-2.9336,-2.045863,-9.597611,0.35,-16.1,2.31,1729425952709.0,0.0
-2.770889,-2.103291,-10.569098,-8.19,-12.11,5.25,1729425952728.0,0.0
-2.818745,-2.557927,-10.813165,-7.14,-2.45,8.26,1729425952748.0,0.0
-2.711068,-2.928815,-11.152946,-6.86,2.66,12.88,1729425952768.0,0.0
-2.739782,-2.744568,-11.60519,10.01,9.94,16.379999,1729425952792.0,0.0
-3.541377,-3.091527,-11.954542,44.240002,23.799999,24.290001,1729425952810.0,0.0
-4.163511,-4.058227,-10.978271,105.769997,48.369999,35.279999,1729425952829.0,0.0
-4.548756,-4.926822,-9.777073,135.240005,54.389999,41.860001,1729425952850.0,0.0
-4.577469,-5.015356,-8.54477,144.479996,52.57,37.939999,1729425952868.0,0.0
-4.445865,-4.646862,-7.67139,138.320007,45.5,32.200001,1729425952891.0,0.0
-4.352544,-4.366901,-6.661618,127.050003,38.990002,29.4,1729425952909.0,0.0
-4.35733,-4.527221,-5.888737,114.800003,33.880001,28.0,1729425952929.0,0.0
-4.268795,-4.311867,-6.295516,100.590004,28.49,29.68,1729425952948.0,0.0
-3.878766,-3.148954,-5.352744,87.290001,15.05,33.599998,1729425952970.0,0.0
-3.816552,-3.376273,-5.9342,89.32,14.07,39.970001,1729425952990.0,0.0
-3.783052,-4.297509,-7.133004,101.010002,29.26,44.939999,1729425953010.0,0.0
-3.529413,-6.068198,-8.585447,129.639999,41.509998,46.34,1729425953028.0,0.0
-3.058028,-6.541977,-9.229117,143.710007,46.619999,46.200001,1729425953048.0,0.0
-2.316252,-5.146961,-10.80838,130.690002,44.450001,47.459999,1729425953069.0,0.0
-1.768296,-3.565305,-9.994821,90.090004,44.450001,48.580002,1729425953090.0,0.0
-2.213361,-3.945765,-7.51107,-2.31,57.119999,44.310001,1729425953109.0,0.0
-3.132205,-8.221739,-4.742575,-71.610001,58.59,33.950001,1729425953130.0,0.0
-3.416951,-10.439885,-2.708675,-113.190002,23.309999,26.6,1729425953148.0,0.0
-3.144169,-9.265009,-3.601198,-46.970001,-19.74,7.28,1729425953169.0,0.0
-2.902494,-7.207181,-5.166104,21.35,-35.560001,-2.87,1729425953191.0,0.0
-3.689733,-5.594419,-5.812167,67.620003,-29.469999,1.4,1729425953208.0,0.0
-4.785645,-4.07737,-5.907879,80.709999,-18.200001,9.59,1729425953228.0,0.0
-4.699504,-5.113462,-5.022535,80.150002,-14.14,14.49,1729425953248.0,0.0
-3.816552,-6.943972,-4.438686,68.18,-23.17,16.17,1729425953269.0,0.0
-3.433701,-7.984849,-4.481757,66.290001,-27.23,17.57,1729425953291.0,0.0
-3.756732,-8.255238,-6.180661,42.0,-20.58,12.25,1729425953309.0,0.0
-4.816752,-7.475177,-7.073184,-19.110001,-7.56,4.83,1729425953328.0,0.0
-5.067998,-7.101898,-8.810372,-75.879997,2.31,-0.84,1729425953349.0,0.0
-5.211568,-7.757531,-9.822537,-91.489998,7.42,-4.13,1729425953370.0,0.0
-5.082355,-9.62154,-8.073383,-76.510002,21.42,-21.280001,1729425953388.0,0.0
-3.842873,-10.545169,-6.556334,-46.48,21.42,-20.02,1729425953409.0,0.0
-2.969493,-7.88435,-7.066005,-16.17,-3.22,-12.04,1729425953428.0,0.0
-3.227918,-4.771288,-7.226324,33.599998,7.35,-10.22,1729425953450.0,0.0
-3.996014,-4.472186,-7.460821,56.209999,29.610001,-1.05,1729425953470.0,0.0
-3.524628,-5.584848,-4.275974,31.08,18.549999,0.84,1729425953491.0,0.0
-2.904887,-5.65424,-5.374279,22.33,-10.92,8.89,1729425953508.0,0.0
-3.108276,-4.76411,-6.573084,32.48,6.02,11.13,1729425953527.0,0.0
-3.349952,-4.436293,-7.240681,39.759998,1.89,14.35,1729425953548.0,0.0
-3.416951,-5.070391,-7.235896,40.110001,-4.76,14.91,1729425953567.0,0.0
-3.436093,-6.245267,-5.639884,30.73,-3.71,10.64,1729425953590.0,0.0
-3.146562,-7.568498,-6.82433,7.28,-16.59,-0.91,1729425953608.0,0.0
-3.864408,-7.420143,-7.800602,-16.870001,-14.28,-14.49,1729425953629.0,0.0
-5.536992,-6.240481,-8.733803,-50.75,8.4,-24.290001,1729425953650.0,0.0
-5.9342,-6.611369,-10.207782,-84.419998,19.879999,-36.540001,1729425953668.0,0.0
-4.912465,-8.142776,-9.111869,-94.919998,17.92,-45.5,1729425953698.0,0.0
-3.136991,-10.085747,-6.494121,-65.379997,15.68,-49.700001,1729425953707.0,0.0
-2.021935,-9.975677,-5.793024,-17.08,2.1,-46.130001,1729425953729.0,0.0
-2.634498,-6.479764,-4.419543,25.48,7.7,-43.75,1729425953748.0,0.0
-3.830909,-3.388237,-4.139583,8.82,18.9,-34.299999,1729425953769.0,0.0
-2.9336,-4.441079,-4.910072,-30.940001,-0.63,-26.389999,1729425953791.0,0.0
-1.277767,-6.652047,-6.874579,-49.84,-14.84,-24.360001,1729425953808.0,0.0
-1.519442,-6.364908,-7.441679,-3.22,2.1,-12.18,1729425953827.0,0.0
-1.911865,-4.969893,-6.740582,24.85,0.56,-6.02,1729425953849.0,0.0
-2.900101,-3.95055,-5.594419,25.83,-1.61,0.14,1729425953870.0,0.0
-3.570091,-5.065606,-4.898108,6.09,2.59,-3.36,1729425953889.0,0.0
-3.113062,-6.687939,-5.673382,-1.82,-19.110001,-7.21,1729425953908.0,0.0
-2.866602,-6.405586,-8.243275,9.59,-33.389999,-7.21,1729425953929.0,0.0
-4.177868,-4.9675,-8.422735,-6.79,-17.710001,-5.11,1729425953950.0,0.0
-5.436492,-4.465007,-9.504292,-46.830002,-6.23,-0.35,1729425953969.0,0.0
-5.321638,-6.843473,-10.693524,-74.550003,-0.84,-7.0,1729425953989.0,0.0
-4.369294,-9.702895,-10.645668,-61.950001,-0.63,-16.52,1729425954009.0,0.0
-3.141776,-10.569098,-9.147761,-31.15,4.06,-20.23,1729425954030.0,0.0
-1.923829,-9.796216,-7.695317,9.52,-2.03,-24.15,1729425954047.0,0.0
-1.732404,-8.118847,-6.573084,64.75,0.21,-26.18,1729425954069.0,0.0
-2.380858,-6.754939,-6.379266,113.120003,13.3,-24.85,1729425954089.0,0.0
-2.734996,-6.362515,-7.13779,128.240005,20.02,-21.0,1729425954109.0,0.0
-2.151148,-5.441278,-6.460621,100.660004,16.030001,-14.84,1729425954127.0,0.0
-1.660619,-3.864408,-5.501099,65.309998,11.9,-1.12,1729425954148.0,0.0
-2.268396,-4.144369,-4.986642,55.09,32.34,13.440001,1729425954168.0,0.0
-3.122634,-5.065606,-5.063213,76.090004,32.689999,24.639999,1729425954190.0,0.0
-3.976871,-5.881558,-4.945964,97.160004,26.530001,33.880001,1729425954208.0,0.0
-3.962514,-6.699903,-5.15414,89.389999,19.74,31.92,1729425954229.0,0.0
-3.309274,-7.369894,-5.879165,82.949997,-0.63,32.549999,1729425954247.0,0.0
-2.677568,-7.190433,-5.690133,69.510002,-16.450001,32.130001,1729425954268.0,0.0
-2.581856,-7.240681,-5.924629,44.869999,-12.53,32.619999,1729425954291.0,0.0
-3.168097,-8.874979,-6.18784,-2.38,-2.38,23.450001,1729425954309.0,0.0
-3.323631,-9.71486,-6.427122,-77.489998,6.16,7.98,1729425954330.0,0.0
-2.849852,-10.636096,-6.860222,-106.610001,0.14,-1.82,1729425954348.0,0.0
-2.285146,-10.894521,-5.831308,-88.269997,-6.65,-12.88,1729425954368.0,0.0
-2.428715,-10.25803,-5.345565,-51.73,2.94,-23.17,1729425954392.0,0.0
-3.180061,-8.599805,-5.553742,-5.53,12.95,-26.67,1729425954410.0,0.0
-3.550949,-7.245467,-6.173482,23.73,14.21,-22.960001,1729425954429.0,0.0
-2.837888,-6.606583,-7.393822,24.219999,5.88,-16.799999,1729425954448.0,0.0
-1.773082,-6.118448,-6.037091,11.06,3.08,-13.23,1729425954466.0,0.0
-2.129612,-5.809773,-4.67079,6.16,7.35,-2.73,1729425954491.0,0.0
-3.165704,-6.331409,-3.902694,20.58,17.780001,-5.18,1729425954509.0,0.0
-3.888337,-6.422336,-3.919443,30.24,9.94,-5.18,1729425954527.0,0.0
-3.328416,-6.068198,-4.912465,29.120001,-11.69,5.46,1729425954546.0,0.0
-2.852244,-6.494121,-5.362316,24.5,-22.33,11.9,1729425954569.0,0.0
-2.998207,-7.642675,-5.460421,6.86,-12.74,13.65,1729425954589.0,0.0
-3.651447,-9.518648,-5.515456,-12.88,-0.98,10.22,1729425954610.0,0.0
-3.847659,-10.870593,-5.079963,-45.5,-3.36,0.63,1729425954627.0,0.0
-3.211168,-11.174481,-5.371887,-78.959999,-12.6,-11.76,1729425954647.0,0.0
-2.428715,-10.466206,-6.558727,-63.07,-26.18,-16.870001,1729425954668.0,0.0
-2.57707,-8.958728,-6.017949,1.33,-18.620001,-14.42,1729425954695.0,0.0
-3.457629,-7.578069,-5.254639,55.299999,8.89,-7.91,1729425954708.0,0.0
-3.981657,-7.082755,-5.795416,67.900002,14.0,-0.42,1729425954728.0,0.0
-3.591627,-6.958328,-6.049056,63.420002,4.69,6.16,1729425954749.0,0.0
-2.964707,-6.405586,-5.891129,51.59,7.35,12.6,1729425954768.0,0.0
-2.622534,-6.199803,-5.76431,44.099998,12.95,17.780001,1729425954790.0,0.0
-2.665605,-6.680761,-4.125226,52.009998,10.85,23.870001,1729425954810.0,0.0
-3.938586,-6.573084,-3.694518,67.059998,7.0,30.17,1729425954826.0,0.0
-3.622734,-5.929415,-4.034299,41.09,-6.58,24.92,1729425954847.0,0.0
-2.892922,-6.266802,-4.508078,8.54,-38.57,24.5,1729425954868.0,0.0
-2.624927,-6.355337,-5.333601,-57.189999,-42.209999,15.89,1729425954890.0,0.0
-4.304688,-7.965706,-4.278367,-131.529999,-17.57,7.35,1729425954907.0,0.0
-5.864808,-9.513863,-7.051648,-203.210007,-5.74,-19.18,1729425954928.0,0.0
-5.405386,-10.444671,-9.195618,-205.029999,-19.809999,-36.889999,1729425954947.0,0.0
-3.787838,-10.557133,-10.114462,-157.779999,-31.08,-39.619999,1729425954967.0,0.0
-2.435893,-9.853643,-8.310273,-66.43,-29.120001,-34.02,1729425954992.0,0.0
-2.502892,-8.047063,-5.99402,5.11,-7.77,-23.870001,1729425955007.0,0.0
-3.321238,-6.549156,-5.862415,34.16,16.24,-15.61,1729425955027.0,0.0
-3.68734,-4.814359,-3.309274,20.790001,17.710001,-3.57,1729425955049.0,0.0
-3.35713,-4.132405,-2.469393,-10.36,-6.79,16.24,1729425955067.0,0.0
-2.433501,-4.972286,-5.079963,-21.139999,-21.77,19.6,1729425955089.0,0.0
-2.471786,-5.85763,-6.74776,-11.62,-4.2,23.799999,1729425955107.0,0.0
-3.15374,-5.929415,-6.664011,-15.12,7.35,27.440001,1729425955127.0,0.0
-3.620341,-5.709275,-6.752545,-33.599998,2.17,25.620001,1729425955147.0,0.0
-3.242275,-6.161518,-6.446264,-42.630001,-3.29,16.799999,1729425955168.0,0.0
-2.644069,-6.364908,-7.460821,-29.4,-31.43,11.55,1729425955190.0,0.0
-3.940979,-6.276374,-6.704689,-29.469999,-16.309999,1.54,1729425955207.0,0.0
-5.723632,-6.821937,-8.463413,-55.439999,12.74,-10.43,1729425955227.0,0.0
-5.915058,-6.642475,-10.468598,-81.900002,14.56,-18.34,1729425955247.0,0.0
-4.900501,-7.240681,-9.595219,-73.709999,4.69,-21.84,1729425955267.0,0.0
-3.412165,-8.094919,-7.946564,-34.509998,-3.71,-21.629999,1729425955290.0,0.0
-2.959922,-6.565905,-8.006385,-0.63,-2.66,-11.69,1729425955370.0,0.0
-3.972085,-4.500899,-7.393822,19.530001,29.540001,-4.13,1729425955371.0,0.0
-4.843073,-4.601398,-5.455636,-3.5,36.049999,-1.82,1729425955371.0,0.0
-4.082155,-6.616155,-5.142176,-33.950001,4.34,-6.86,1729425955384.0,0.0
-3.062813,-7.367501,-6.881758,-31.01,-7.98,-9.17,1729425955399.0,0.0
-3.055635,-6.13759,-8.047063,6.51,6.23,-6.09,1729425955432.0,0.0
-3.54377,-4.546363,-7.463214,25.41,12.25,0.42,1729425955432.0,0.0
-3.689733,-3.948158,-7.23111,16.379999,6.86,5.39,1729425955447.0,0.0
-3.830909,-4.895715,-6.202196,0.63,6.58,3.71,1729425955467.0,0.0
-3.378666,-6.001199,-6.211767,-21.210001,-1.96,-4.27,1729425955488.0,0.0
-2.289931,-5.802595,-6.683154,-17.01,-23.24,-8.96,1729425955507.0,0.0
-2.414358,-5.120641,-8.329416,-18.690001,-21.629999,-9.24,1729425955527.0,0.0
-3.76391,-4.977071,-8.193025,-36.610001,-2.94,-7.98,1729425955546.0,0.0
-4.570292,-6.601797,-10.133603,-55.860001,13.440001,-7.77,1729425955566.0,0.0
-4.019942,-7.475177,-10.908878,-53.41,7.14,-8.75,1729425955589.0,0.0
-3.553342,-8.487342,-9.470792,-18.48,9.8,-8.96,1729425955607.0,0.0
-3.211168,-8.480164,-7.738388,2.31,16.1,-13.79,1729425955626.0,0.0
-3.318845,-7.369894,-8.248059,33.110001,21.0,-11.69,1729425955647.0,0.0
-4.295116,-4.548756,-6.226124,61.670002,31.360001,-1.05,1729425955668.0,0.0
-4.912465,-2.938386,-3.148954,51.029999,22.960001,12.25,1729425955691.0,0.0
-4.096512,-4.496114,-4.17069,13.86,-7.21,7.35,1729425955708.0,0.0
-3.299703,-6.269196,-8.102098,0.42,3.01,0.07,1729425955726.0,0.0
-3.24706,-6.132804,-9.97807,21.280001,17.57,5.11,1729425955746.0,0.0
-2.720639,-5.123034,-9.071191,51.52,3.71,9.1,1729425955766.0,0.0
-2.455036,-4.252046,-7.587641,65.870003,-2.1,12.25,1729425955788.0,0.0
-3.072384,-3.759124,-5.649454,49.420002,10.99,5.25,1729425955807.0,0.0
-2.68714,-5.142176,-5.795416,3.92,5.67,-7.28,1729425955826.0,0.0
-2.009971,-5.529813,-7.171289,-15.54,-24.290001,-11.48,1729425955846.0,0.0
-2.352145,-4.986642,-7.618747,-31.01,-21.700001,-14.56,1729425955866.0,0.0
-4.632504,-4.175476,-7.616355,-76.93,-2.1,-13.23,1729425955890.0,0.0
-5.702096,-5.101498,-9.650253,-131.460007,11.76,-25.620001,1729425955907.0,0.0
-4.661219,-7.089933,-10.442278,-156.309998,2.1,-30.59,1729425955928.0,0.0
-3.156133,-8.212167,-9.284152,-123.760002,-4.48,-30.799999,1729425955946.0,0.0
-2.845066,-7.089933,-8.169096,-52.080002,-6.23,-23.450001,1729425955967.0,0.0
-4.041477,-3.828516,-8.020741,-0.91,20.02,-12.67,1729425955988.0,0.0
-4.539185,-2.136791,-5.17089,-14.56,15.89,-3.92,1729425956009.0,0.0
-3.522235,-3.562913,-5.702096,-46.34,-13.93,-3.5,1729425956026.0,0.0
-2.624927,-4.706682,-8.815158,-69.510002,-7.84,-9.94,1729425956051.0,0.0
-2.519642,-4.797609,-9.918249,-51.66,-1.47,-3.57,1729425956121.0,0.0
-2.105684,-4.642076,-10.774881,-32.830002,-4.69,-2.24,1729425956123.0,0.0
-2.002793,-4.376472,-9.145369,-21.139999,-4.55,-0.14,1729425956125.0,0.0
-2.940779,-4.065405,-7.427321,-2.24,10.92,2.59,1729425956338.0,0.0
-3.85723,-3.400201,-6.273981,-10.64,12.04,-4.06,1729425956338.0,0.0
-2.754139,-3.625126,-7.910671,-23.73,-8.61,-6.86,1729425956338.0,0.0
-2.143969,-3.517449,-8.676375,-29.82,-27.370001,-10.36,1729425956338.0,0.0
-3.225525,-3.658626,-9.939785,-27.860001,-8.96,-6.02,1729425956338.0,0.0
-5.106283,-3.409772,-10.059426,-38.080002,14.21,-8.47,1729425956339.0,0.0
-4.859823,-4.268795,-11.107484,-39.060001,8.33,-3.01,1729425956339.0,0.0
-2.907279,-5.194818,-10.260423,-37.099998,-11.48,-7.07,1729425956339.0,0.0
-1.543371,-5.199604,-9.659825,-22.469999,-16.59,-7.77,1729425956339.0,0.0
-2.115255,-3.562913,-9.164511,15.54,3.85,4.41,1729425956340.0,0.0
-3.716053,-2.160719,-7.207181,21.280001,29.4,11.48,1729425956340.0,0.0
-4.079762,-3.151347,-5.989235,-1.54,7.35,11.48,1729425956345.0,0.0
-3.117848,-4.350152,-7.101898,-21.49,-18.690001,5.11,1729425956365.0,0.0
-2.861816,-4.211368,-9.449257,-20.370001,-15.82,0.84,1729425956386.0,0.0
-3.345166,-3.189633,-9.686146,-12.74,-2.94,-2.03,1729425956405.0,0.0
-3.259024,-3.146562,-9.920642,-16.59,-4.9,-5.88,1729425956425.0,0.0
-2.880959,-3.294917,-9.111869,-7.21,-13.16,-5.67,1729425956445.0,0.0
-3.15374,-2.880959,-8.008778,-0.98,-8.12,-4.83,1729425956465.0,0.0
-3.519842,-2.854637,-8.001599,-14.7,-6.09,-11.76,1729425956503.0,0.0
-2.596212,-3.194418,-9.549755,-31.639999,-15.05,-20.790001,1729425956505.0,0.0
-3.038885,-2.486143,-9.066404,-20.93,-12.95,-17.780001,1729425956525.0,0.0
-5.230711,-2.065006,-9.779467,13.02,23.1,1.54,1729425956545.0,0.0
-5.273781,-2.074577,-11.4018,41.02,21.629999,10.57,1729425956565.0,0.0
-4.816752,-2.880959,-9.74836,27.16,7.98,19.950001,1729425956586.0,0.0
-4.039084,-3.414558,-10.334601,-32.689999,24.57,6.93,1729425956606.0,0.0
-3.180061,-4.108476,-8.470592,-65.029999,14.63,-3.15,1729425956625.0,0.0
-2.536392,-4.472186,-8.65484,-44.869999,-0.07,-3.01,1729425956646.0,0.0
-2.663212,-2.902494,-9.958927,4.48,17.99,6.09,1729425956665.0,0.0
-3.665804,-1.043271,-6.465407,24.5,27.09,18.200001,1729425956689.0,0.0
-4.003192,-2.476572,-6.144768,10.92,4.48,15.96,1729425956708.0,0.0
-3.239882,-4.201797,-8.635696,-13.79,-13.86,2.03,1729425956727.0,0.0
-2.68714,-4.051049,-10.030712,-15.82,-14.91,-5.74,1729425956745.0,0.0
-2.505285,-3.510271,-11.392227,-15.33,-4.69,-13.93,1729425956769.0,0.0
-2.68714,-3.328416,-10.478169,-11.13,-0.35,-18.549999,1729425956788.0,0.0
-2.792424,-2.818745,-9.537791,0.7,0.91,-17.99,1729425956806.0,0.0
-3.105884,-2.15354,-8.310273,6.23,4.83,-15.54,1729425956825.0,0.0
-2.940779,-2.361716,-9.042477,-7.84,3.64,-18.969999,1729425956846.0,0.0
-2.318645,-2.416751,-8.458629,-14.14,-4.76,-16.59,1729425956865.0,0.0
-2.574677,-1.962115,-8.360522,-18.200001,-4.34,-12.32,1729425956887.0,0.0
-3.988836,-1.789831,-8.477771,-2.52,18.620001,-1.4,1729425956906.0,0.0
-4.565506,-2.455036,-10.372886,13.93,14.56,5.46,1729425956928.0,0.0
-3.792624,-2.751746,-10.738988,11.06,1.96,7.28,1729425956946.0,0.0
-2.974278,-3.26381,-10.990234,-22.120001,4.13,5.32,1729425956966.0,0.0
-2.476572,-3.622734,-11.140982,-37.310001,11.27,3.85,1729425956987.0,0.0
-2.782853,-3.156133,-9.662218,6.3,21.280001,18.27,1729425957007.0,0.0
-3.826123,-2.050649,-6.455836,34.860001,28.35,29.540001,1729425957026.0,0.0
-4.275974,-3.572484,-5.235496,11.13,10.78,22.190001,1729425957045.0,0.0
-3.443272,-5.379066,-7.310073,-7.21,-10.15,6.65,1729425957066.0,0.0
-2.682354,-4.63729,-9.480364,10.57,-10.22,-0.63,1729425957090.0,0.0
-2.514857,-3.282953,-10.171888,32.549999,-6.02,-3.22,1729425957107.0,0.0
-2.45025,-2.845066,-9.736395,42.700001,-3.15,-6.3,1729425957126.0,0.0
-2.548356,-2.646462,-9.035298,58.869999,-2.17,-2.38,1729425957146.0,0.0
-3.113062,-2.998207,-8.003991,80.57,3.29,2.59,1729425957165.0,0.0
-2.639283,-5.089533,-8.396415,95.340004,-13.93,-8.19,1729425957187.0,0.0
-2.251646,-6.058627,-8.228917,144.830002,-32.549999,-6.16,1729425957207.0,0.0
-3.117848,-5.192425,-7.178468,211.259995,-41.09,5.46,1729425957225.0,0.0
-4.232903,-4.462614,-7.929814,253.399994,-29.120001,-0.7,1729425957245.0,0.0
-5.06082,-5.094319,-8.049455,216.790009,-28.280001,-1.4,1729425957265.0,0.0
-4.902894,-5.668597,-7.594819,136.430008,-36.330002,-3.92,1729425957287.0,0.0
-4.295116,-6.960721,-7.499106,111.090004,-31.57,-3.71,1729425957306.0,0.0
-3.838088,-7.99442,-7.831708,140.630005,-19.809999,3.78,1729425957326.0,0.0
-4.039084,-9.521042,-7.15454,211.470001,-2.73,18.83,1729425957345.0,0.0
-3.438486,-7.958528,-6.453443,235.130005,1.75,17.43,1729425957365.0,0.0
-3.268596,-8.200203,-4.737789,266.140015,3.08,33.110001,1729425957388.0,0.0
-2.701497,-7.57089,-4.010371,243.669998,5.32,24.15,1729425957405.0,0.0
-2.378466,-8.279166,-3.649055,218.820007,9.45,20.790001,1729425957425.0,0.0
-2.512464,-8.941978,-2.902494,219.449997,16.24,19.18,1729425957450.0,0.0
-2.928815,-8.987441,-2.500499,226.940002,24.43,18.76,1729425957466.0,0.0
-3.407379,-9.891929,-2.368894,221.550003,27.790001,12.32,1729425957489.0,0.0
-4.185047,-10.516455,-1.306481,192.080002,25.059999,-0.84,1729425957506.0,0.0
-4.307081,-9.717253,-0.129212,155.889999,25.620001,-11.34,1729425957526.0,0.0
-4.666004,-9.020942,0.143569,119.07,25.27,-16.1,1729425957545.0,0.0
-4.601398,-8.085347,0.416351,90.090004,14.0,-16.66,1729425957567.0,0.0
-4.007978,-7.51107,1.751546,62.299999,-5.6,-17.01,1729425957588.0,0.0
-3.395415,-6.041877,2.974278,48.439999,-21.42,-12.81,1729425957606.0,0.0
-4.424329,-3.914658,2.847459,51.029999,-15.33,8.75,1729425957626.0,0.0
-6.183054,-3.811767,0.543171,75.18,9.59,39.41,1729425957646.0,0.0
-6.484549,-3.292524,1.033699,16.940001,5.88,39.27,1729425957667.0,0.0
-5.793024,-3.292524,2.201397,-82.110001,-19.74,41.860001,1729425957692.0,0.0
-5.213961,-5.486742,2.469393,-205.169998,-30.1,41.720001,1729425957705.0,0.0
-5.723632,-8.664411,3.002992,-339.360016,-31.43,23.17,1729425957725.0,0.0
-6.357729,-10.298709,-3.498307,-465.570007,-34.93,-13.440001,1729425957746.0,0.0
-5.692525,-13.122239,-12.461821,-483.630005,-46.48,-50.889999,1729425957766.0,0.0
-3.751946,-13.411771,-13.060026,-348.459991,-37.66,-62.02,1729425957788.0,0.0
-3.311667,-10.937593,-9.157332,-118.860001,6.93,-10.22,1729425957808.0,0.0
-3.0006,-7.716853,-5.405386,0.91,19.040001,-0.91,1729425957824.0,0.0
-3.54377,-6.056234,0.007178,12.11,15.4,7.7,1729425957845.0,0.0
-4.283153,-6.742974,-0.751346,2.24,3.29,2.94,1729425957866.0,0.0
-5.185246,-7.630712,-1.471586,21.42,-4.2,0.77,1729425957887.0,0.0
-5.472386,-8.250452,-3.024528,92.75,-16.73,14.56,1729425957905.0,0.0
-5.134997,-7.958528,-6.226124,174.440002,-17.710001,33.040001,1729425957927.0,0.0
-5.067998,-8.784052,-7.054041,211.75,11.62,35.279999,1729425957945.0,0.0
-4.965107,-8.54477,-6.206983,161.699997,44.59,23.309999,1729425957966.0,0.0
-4.677969,-9.743573,-4.926822,87.360001,52.779999,5.18,1729425957987.0,0.0
-3.986443,-11.930614,-2.773281,28.0,35.91,-18.129999,1729425958005.0,0.0
-3.452843,-13.344771,-0.564706,35.349998,13.72,-31.08,1729425958025.0,0.0
-2.474179,-11.377872,-0.413958,108.5,-7.63,-33.459999,1729425958045.0,0.0
-1.524228,-7.185646,-0.535992,200.899994,-22.610001,-17.92,1729425958064.0,0.0
-2.019542,-1.878366,0.002393,251.440002,-11.9,11.48,1729425958085.0,0.0
-3.656233,2.562713,2.801995,224.979996,5.95,51.170002,1729425958105.0,0.0
-5.481956,2.641676,8.547162,41.299999,0.77,69.790001,1729425958124.0,0.0
-6.80758,-0.509671,9.657433,-308.630005,-32.619999,40.529999,1729425958144.0,0.0
-6.539584,-5.589634,-6.446264,-611.23999,-44.310001,-28.07,1729425958164.0,0.0
-9.332008,-24.717857,-17.09911,-456.820007,-23.17,-55.650002,1729425958186.0,0.0
-3.878766,-16.709082,-14.007583,-10.85,-17.57,-5.53,1729425958204.0,0.0
-2.514857,-7.185646,-5.685347,265.790009,-13.09,54.810001,1729425958224.0,0.0
-2.340181,-3.804588,0.567099,277.899994,24.710001,42.07,1729425958245.0,0.0
-4.122833,-1.957329,1.344766,204.470001,39.619999,45.57,1729425958265.0,0.0
-6.656832,-2.885744,0.732204,102.480003,34.720001,34.580002,1729425958289.0,0.0
-7.872386,-5.663811,-1.347159,1.75,25.41,16.1,1729425958305.0,0.0
-7.51107,-9.463614,-6.238089,-6.23,11.55,14.21,1729425958325.0,0.0
-6.601797,-12.705888,-8.061419,25.969999,23.379999,0.77,1729425958345.0,0.0
-4.845466,-12.983455,-4.508078,-23.1,16.799999,-31.360001,1729425958365.0,0.0
-3.103491,-12.25843,-3.086741,-49.98,5.95,-32.619999,1729425958387.0,0.0
-2.143969,-11.79183,-1.052842,-0.42,-4.27,-36.049999,1729425958405.0,0.0
-1.859223,-9.138189,-0.291924,88.340004,-1.33,-34.439999,1729425958425.0,0.0
-2.557927,-3.424129,0.045464,167.020004,10.5,-9.94,1729425958445.0,0.0
-3.783052,0.368495,3.649055,178.289993,11.27,34.16,1729425958465.0,0.0
-4.948357,1.804188,9.068797,2.94,-18.34,48.509998,1729425958486.0,0.0
-8.10449,-4.299902,0.363709,-312.619995,-43.470001,21.07,1729425958505.0,0.0
-8.166703,-10.200603,-17.838493,-643.02002,-3.99,-93.660004,1729425958525.0,0.0
-9.10469,-19.307686,-21.812971,-442.890015,-0.56,-67.830002,1729425958546.0,0.0
-2.809174,-13.304093,-10.798808,73.709999,-37.310001,7.91,1729425958564.0,0.0
-1.189233,-6.118448,-4.491328,276.360016,-15.96,67.620003,1729425958587.0,0.0
-1.57687,-4.673182,1.287339,273.700012,30.73,50.400002,1729425958606.0,0.0
-4.527221,-1.584049,0.198604,189.770004,48.509998,32.689999,1729425958624.0,0.0
-7.982457,-4.890929,-0.751346,165.970001,35.84,34.720001,1729425958645.0,0.0
-8.468199,-6.845865,-4.366901,102.620003,12.18,28.98,1729425958665.0,0.0
-7.582855,-9.96132,-6.991827,137.059998,16.73,32.130001,1729425958690.0,0.0
-6.345766,-11.160125,-5.06082,110.879997,35.0,0.42,1729425958705.0,0.0
-4.630112,-10.722239,-2.56032,8.47,27.51,-34.790001,1729425958725.0,0.0
-3.692125,-12.780065,-1.727618,-31.08,4.27,-42.98,1729425958744.0,0.0
-3.333202,-15.292529,-0.679562,8.19,-21.559999,-55.02,1729425958765.0,0.0
-2.06022,-11.722438,-1.567299,115.220001,-30.73,-51.240002,1729425958787.0,0.0
-1.308874,-5.017749,-2.069792,262.98999,-28.0,-10.99,1729425958805.0,0.0
-1.464408,2.876173,-1.445265,292.040009,14.49,22.33,1729425958824.0,0.0
-4.048656,5.288138,10.408779,217.210007,34.369999,69.300003,1729425958844.0,0.0
-9.154939,-0.165105,11.227123,-253.889999,7.42,57.82,1729425958864.0,0.0
-10.061819,-8.812766,-7.762317,-562.099976,6.16,-53.830002,1729425958887.0,0.0
-11.92822,-18.549162,-14.691931,-607.809998,-34.720001,-99.540001,1729425958905.0,0.0
-5.505885,-20.8367,-17.46282,-211.610001,-100.029999,-20.370001,1729425958924.0,0.0
-0.002393,-11.016556,-10.238889,128.729996,-72.730003,7.91,1729425958945.0,0.0
0.098106,-6.326623,-1.933401,193.199997,15.75,24.43,1729425958964.0,0.0
-3.570091,-3.562913,3.062813,166.25,109.550003,17.08,1729425958987.0,0.0
-8.650054,-2.816352,1.677369,121.590004,107.730003,15.75,1729425959005.0,0.0
-9.889536,-4.65404,-2.143969,77.279999,10.01,20.58,1729425959025.0,0.0
-7.563712,-7.989635,-6.04427,81.059998,-31.639999,23.24,1729425959044.0,0.0
-5.307281,-10.389636,-7.293324,69.860001,-25.690001,1.05,1729425959065.0,0.0
-4.352544,-11.624333,-5.462814,10.22,14.98,-25.76,1729425959087.0,0.0
-5.087141,-13.129417,-2.411965,-29.75,40.389999,-44.310001,1729425959106.0,0.0
-5.589634,-13.490734,-0.789631,-6.79,16.1,-56.91,1729425959124.0,0.0
-4.438686,-11.997612,-0.148355,57.119999,-17.01,-55.299999,1729425959144.0,0.0
-2.603391,-8.267202,-0.507278,88.760002,-32.48,-54.25,1729425959165.0,0.0
-1.067199,-2.067399,-1.462015,76.440002,-16.450001,-43.68,1729425959186.0,0.0
-1.639083,0.782453,-1.115055,66.080002,23.17,12.81,1729425959205.0,0.0
-3.505485,1.232304,2.378466,51.939999,36.75,59.43,1729425959224.0,0.0
-6.855437,-2.045863,10.298709,-83.090004,26.74,66.290001,1729425959245.0,0.0
-10.853845,-5.300103,5.024928,-375.76001,-11.13,17.710001,1729425959265.0,0.0
-10.676775,-13.064812,-13.476377,-551.179993,-22.469999,-55.790001,1729425959286.0,0.0
-8.317451,-20.171494,-19.683359,-447.720001,-52.920002,-74.480003,1729425959305.0,0.0
-1.234696,-14.577076,-15.443277,35.07,-49.209999,-5.04,1729425959324.0,0.0
-0.150748,-8.458629,-4.618148,317.309998,-27.09,39.689999,1729425959344.0,0.0
-1.122234,-4.76411,0.918844,261.799988,37.170002,17.360001,1729425959365.0,0.0
-3.917051,-1.806581,0.765703,157.5,57.470001,5.95,1729425959387.0,0.0
-6.618547,-2.947958,1.359123,61.110001,19.25,14.35,1729425959404.0,0.0
-6.460621,-5.888737,-1.636691,-10.64,-15.26,4.41,1729425959425.0,0.0
-6.463014,-9.760324,-6.585048,40.810001,-15.26,17.08,1729425959445.0,0.0
-7.367501,-13.3352,-8.95155,109.690002,39.200001,10.64,1729425959464.0,0.0
-6.862615,-12.648461,-3.969693,36.68,47.389999,-48.02,1729425959486.0,0.0
-4.106083,-9.937392,0.062213,-5.04,1.05,-49.77,1729425959505.0,0.0
-1.624727,-9.623933,-0.354138,42.490002,-54.740002,-33.389999,1729425959524.0,0.0
0.227318,-7.365108,-1.732404,140.0,-55.860001,-22.68,1729425959546.0,0.0
-0.165105,-3.024528,-0.736989,172.619995,-13.51,-1.96,1729425959564.0,0.0
-2.565106,-0.131605,3.328416,155.330002,28.139999,38.080002,1729425959586.0,0.0
-5.905487,-1.586441,9.810574,-0.56,24.85,53.060001,1729425959605.0,0.0
-9.60479,-2.605784,8.642875,-343.420013,-19.879999,14.7,1729425959624.0,0.0
-9.265009,-6.518049,-13.119846,-612.849976,-23.450001,-49.0,1729425959645.0,0.0
-8.240881,-14.117653,-19.42972,-568.539978,-14.49,-91.910004,1729425959665.0,0.0
-4.235296,-17.053648,-13.390236,-182.630005,-24.710001,-38.990002,1729425959690.0,0.0
-1.959722,-10.167104,-4.871787,134.610001,-16.940001,11.97,1729425959705.0,0.0
-3.07717,-6.585048,-0.114855,139.089996,38.009998,7.28,1729425959724.0,0.0
-5.613562,-2.806781,0.39003,18.83,48.650002,-7.49,1729425959744.0,0.0
-6.283553,-0.275175,-3.558127,-109.129997,9.03,4.97,1729425959764.0,0.0
-5.438886,-3.330809,-4.194618,-191.169998,-2.59,-8.96,1729425959787.0,0.0
-4.290331,-7.685746,-4.991428,-187.180008,-8.4,-23.17,1729425959805.0,0.0
-4.13719,-10.277173,-7.520642,-70.980003,-11.9,2.38,1729425959824.0,0.0
-4.419543,-10.387242,-11.538191,86.870003,7.7,34.720001,1729425959844.0,0.0
-5.4006,-8.810372,-8.906086,133.350006,57.82,14.63,1729425959864.0,0.0
-4.627719,-8.391629,-7.06122,63.630001,52.849998,-13.23,1729425959886.0,0.0
-2.471786,-9.549755,-5.359922,31.710001,-0.49,-31.290001,1729425959905.0,0.0
-0.715454,-10.669596,-4.331009,91.769997,-28.0,-29.33,1729425959925.0,0.0
-0.062213,-9.399008,-3.909872,222.110001,-14.07,-14.98,1729425959944.0,0.0
-0.892523,-5.211568,-2.761317,319.549988,12.67,4.2,1729425959964.0,0.0
-2.959922,0.334995,0.612563,321.440002,35.279999,40.880001,1729425959986.0,0.0
-5.644669,3.493521,5.472386,230.649994,22.26,85.68,1729425960004.0,0.0
-6.991827,2.17029,9.690931,-52.57,-33.040001,73.779999,1729425960024.0,0.0
-8.642875,-4.127619,3.400201,-450.730011,-49.279999,9.31,1729425960044.0,0.0
-9.772287,-10.08814,-14.866607,-700.419983,-9.1,-76.860001,1729425960064.0,0.0
-9.207582,-17.230717,-25.129423,-562.799988,12.95,-89.18,1729425960086.0,0.0
-1.677369,-13.067204,-16.969898,-54.32,-26.389999,-21.210001,1729425960105.0,0.0
-0.267996,-8.140383,-5.711668,276.850006,-50.049999,52.849998,1729425960125.0,0.0
-0.72024,-4.929214,0.332602,288.119995,5.04,50.470001,1729425960144.0,0.0
-3.273381,-2.179861,-0.098106,241.149994,33.529999,35.07,1729425960164.0,0.0
-5.974878,-2.787638,-2.330609,172.479996,24.360001,38.849998,1729425960185.0,0.0
-7.310073,-6.73101,-5.867201,79.169998,6.58,42.209999,1729425960206.0,0.0
-7.951349,-10.461421,-6.798009,114.940002,30.66,33.529999,1729425960224.0,0.0
-7.460821,-10.607382,-5.17089,90.019997,37.170002,-3.01,1729425960245.0,0.0
-5.216353,-9.84168,-3.957729,18.059999,4.76,-29.960001,1729425960264.0,0.0
-3.079563,-11.004591,-4.867002,-12.95,-15.96,-30.799999,1729425960285.0,0.0
-1.787439,-11.863614,-4.68754,36.259998,-21.210001,-24.219999,1729425960377.0,0.0
-1.615155,-9.425328,-2.507678,163.309998,-3.85,-0.14,1729425960378.0,0.0
-2.455036,-4.26401,-0.942772,262.98999,18.48,22.540001,1729425960378.0,0.0
-3.921836,1.555335,1.095913,260.679993,30.24,54.950001,1729425960379.0,0.0
-6.056234,1.397408,7.32443,146.020004,13.23,85.260002,1729425960388.0,0.0
-9.10469,0.323031,13.110275,-216.720001,-29.33,43.68,1729425960404.0,0.0
-9.968499,-1.844866,-7.941778,-661.289978,-28.280001,-34.23,1729425960423.0,0.0
-8.772088,-10.425529,-27.845276,-738.220032,49.700001,-125.93,1729425960454.0,0.0
-7.566105,-21.937397,-15.684953,-392.630005,16.73,-89.809998,1729425960464.0,0.0
-1.59362,-12.461821,-4.962714,9.31,-47.810001,-18.620001,1729425960486.0,0.0
-0.918844,-4.06062,-0.334995,68.669998,-5.04,42.490002,1729425960505.0,0.0
-6.692725,-0.31346,-1.320838,61.529999,39.130001,28.559999,1729425960524.0,0.0
-8.712267,-4.039084,-5.596812,-24.08,24.290001,1.4,1729425960544.0,0.0
-7.032506,-8.535198,-9.762716,-33.740002,9.24,-1.89,1729425960564.0,0.0
-5.481956,-11.631511,-11.686546,43.889999,0.21,9.8,1729425960585.0,0.0
-4.768896,-10.609775,-8.394022,63.91,28.35,-4.69,1729425960604.0,0.0
-4.328616,-8.16431,-6.175875,17.15,43.610001,-25.34,1729425960624.0,0.0
-3.062813,-7.977671,-5.120641,-13.51,26.950001,-45.779999,1729425960644.0,0.0
-1.557728,-8.965906,-5.190032,12.25,0.28,-48.650002,1729425960664.0,0.0
-0.638884,-8.391629,-5.005785,97.860001,-7.91,-32.970001,1729425960689.0,0.0
-0.818345,-5.075177,-3.881158,194.529999,4.34,-3.64,1729425960704.0,0.0
-2.268396,-1.150948,-1.806581,227.360001,17.5,29.190001,1729425960724.0,0.0
-5.201996,1.940579,2.514857,158.199997,12.53,63.07,1729425960750.0,0.0
-8.755339,0.009571,6.585048,-43.049999,-17.780001,64.82,1729425960763.0,0.0
-10.021141,-3.596412,2.663212,-370.579987,-44.029999,-14.7,1729425960787.0,0.0
-8.362915,-6.565905,-14.208582,-641.970032,-38.849998,-103.18,1729425960804.0,0.0
-5.821737,-10.356135,-27.67778,-632.799988,-23.1,-142.800003,1729425960823.0,0.0
-3.261417,-11.92822,-13.277774,-293.019989,43.400002,-76.370003,1729425960844.0,0.0
-2.299503,-6.833901,-5.580062,265.440002,-10.22,36.189999,1729425960864.0,0.0
-1.615155,-3.495914,-0.543171,339.149994,-8.4,44.73,1729425960887.0,0.0
-3.086741,0.102891,-0.172283,272.579987,9.8,20.93,1729425960905.0,0.0
-5.656632,0.351745,-3.37388,147.770004,18.9,26.389999,1729425960924.0,0.0
-6.147161,-2.931208,-5.539384,13.79,4.62,12.46,1729425960944.0,0.0
-5.355137,-6.166305,-6.498906,-35.630001,-17.5,-0.14,1729425960963.0,0.0
-5.4006,-7.314859,-7.82453,-18.549999,-13.79,11.34,1729425960986.0,0.0
-5.938986,-6.927221,-9.530612,21.629999,10.01,19.110001,1729425961004.0,0.0
-6.139983,-6.989435,-10.143176,62.02,27.93,25.059999,1729425961024.0,0.0
-5.63749,-8.441878,-9.01137,90.090004,36.119999,11.34,1729425961046.0,0.0
-4.668397,-9.492328,-7.575676,93.660004,35.349998,-8.12,1729425961065.0,0.0
-3.48395,-10.973484,-5.67099,95.550003,22.75,-19.530001,1729425961088.0,0.0
-2.40718,-10.396815,-5.584848,87.5,10.01,-32.27,1729425961106.0,0.0
-1.765903,-9.580862,-4.429115,124.389999,3.92,-31.01,1729425961125.0,0.0
-1.464408,-5.690133,-3.988836,238.490005,3.92,-0.56,1729425961145.0,0.0
-2.096112,-4.460221,-1.804188,303.170013,7.0,18.129999,1729425961166.0,0.0
-3.608376,-2.813959,0.823131,265.860016,16.940001,38.779999,1729425961186.0,0.0
-6.802795,-3.620341,3.586841,159.809998,16.450001,63.490002,1729425961206.0,0.0
-8.092526,-3.74716,7.226324,-134.889999,-19.32,18.620001,1729425961226.0,0.0
-7.599605,-3.227918,-1.947758,-555.869995,-39.34,-45.009998,1729425961245.0,0.0
-5.819345,-8.003991,-16.998611,-681.799988,8.96,-110.739998,1729425961265.0,0.0
-3.859623,-11.586047,-19.144974,-449.190002,-1.82,-66.010002,1729425961287.0,0.0
-2.490928,-13.414164,-11.815758,25.41,9.52,23.309999,1729425961306.0,0.0
-4.259224,-10.269995,-6.331409,328.929993,41.16,37.52,1729425961326.0,0.0
-5.539384,-7.312466,-3.04367,341.320007,65.029999,23.799999,1729425961345.0,0.0
-5.340781,-3.766303,-1.739582,246.050003,49.420002,21.700001,1729425961365.0,0.0
-4.749753,-2.641676,-1.057628,146.509995,-13.23,0.91,1729425961386.0,0.0
-4.307081,-5.575277,-2.912065,77.629997,-19.879999,-10.92,1729425961406.0,0.0
-4.855037,-9.753145,-4.419543,97.650002,2.17,-15.33,1729425961426.0,0.0
-5.199604,-9.903893,-3.354738,150.570007,10.01,-12.39,1729425961445.0,0.0
-5.046463,-8.020741,-1.87358,193.690002,5.53,6.51,1729425961470.0,0.0
-3.926622,-6.412765,-2.112862,184.029999,1.82,5.6,1729425961487.0,0.0
-3.845266,-8.039884,-1.65344,164.220001,12.67,0.7,1729425961505.0,0.0
-4.108476,-9.432507,0.555135,135.100006,16.309999,-12.6,1729425961525.0,0.0
-4.35733,-10.523634,0.437887,120.68,12.11,-16.17,1729425961544.0,0.0
-4.012764,-10.188639,-1.095913,83.580002,10.36,-15.82,1729425961565.0,0.0
-3.531806,-10.363315,-0.540778,52.709999,-1.96,-18.34,1729425961588.0,0.0
-2.859423,-10.047462,-1.603191,31.43,-22.540001,-14.42,1729425961608.0,0.0
-1.629512,-11.081161,-3.062813,50.470001,-19.6,-14.0,1729425961625.0,0.0
-1.100698,-11.310873,-2.017149,105.910004,5.18,-9.73,1729425961645.0,0.0
-2.129612,-8.429914,0.696311,149.100006,15.96,1.4,1729425961665.0,0.0
-2.98385,-6.616155,3.385844,152.880005,12.74,8.47,1729425961690.0,0.0
-3.378666,-6.185446,3.790231,105.0,-1.75,13.37,1729425961706.0,0.0
-3.412165,-7.424929,2.95035,50.610001,-19.74,17.219999,1729425961724.0,0.0
-3.651447,-10.090532,1.840081,51.73,-38.57,28.98,1729425961745.0,0.0
-3.26381,-11.377872,1.555335,111.860001,-43.049999,37.73,1729425961765.0,0.0
-2.675175,-7.566105,1.050449,168.979996,-2.87,38.849998,1729425961786.0,0.0
-6.38405,-3.598805,4.898108,179.339996,58.59,45.150002,1729425961805.0,0.0
-8.798409,-4.737789,6.520442,31.92,97.580002,2.45,1729425961825.0,0.0
-9.233903,-5.915058,3.864408,-102.340004,83.370003,-24.92,1729425961845.0,0.0
-7.977671,-8.73141,0.378066,-119.629997,41.02,-15.47,1729425961865.0,0.0
-5.082355,-8.872586,-0.957129,-93.309998,5.46,-15.61,1729425961886.0,0.0
-3.634698,-8.504091,1.993221,-76.860001,8.05,-11.55,1729425961905.0,0.0
-3.548556,-9.145369,3.285345,-78.050003,21.559999,-17.710001,1729425961925.0,0.0
-4.235296,-11.088341,3.074777,-72.449997,49.420002,-16.52,1729425961945.0,0.0
-5.036892,-11.200804,2.98385,-54.32,49.279999,-5.95,1729425961964.0,0.0
-5.111069,-7.738388,2.924029,-34.509998,19.879999,4.76,1729425961987.0,0.0
-5.087141,-4.362115,1.57687,-31.08,12.53,21.84,1729425962005.0,0.0
-4.728218,-3.85723,-1.232304,-24.639999,13.58,25.41,1729425962024.0,0.0
-4.685147,-6.924829,-1.710868,-18.34,-2.1,10.22,1729425962044.0,0.0
-5.443672,-9.257831,0.148355,8.12,-19.530001,10.78,1729425962065.0,0.0
-6.262017,-10.303494,3.098706,52.009998,-22.469999,15.33,1729425962086.0,0.0
-6.422336,-11.296515,3.421736,44.029999,-32.619999,7.77,1729425962105.0,0.0
-5.039285,-12.23211,1.18684,33.25,-66.150002,-5.53,1729425962125.0,0.0
-2.397608,-12.138789,1.883151,92.75,-101.989998,0.56,1729425962144.0,0.0
-1.622334,-9.482756,1.770689,185.990005,-72.449997,1.05,1729425962164.0,0.0
-2.902494,-7.006185,2.294717,209.160004,-8.75,-1.33,1729425962186.0,0.0
-5.47717,-5.359922,3.804588,184.240005,41.580002,-2.24,1729425962205.0,0.0
-7.436893,-4.151547,3.309274,127.959999,57.330002,3.15,1729425962224.0,0.0
-8.283953,-3.661019,4.089334,89.809998,50.959999,10.64,1729425962245.0,0.0
-6.927221,-2.591427,4.972286,15.33,29.540001,5.04,1729425962265.0,0.0
-4.625326,-2.768496,3.9673,-70.559998,5.95,-2.94,1729425962286.0,0.0
-2.878566,-4.479364,1.100698,-137.410004,9.73,0.63,1729425962305.0,0.0
-2.699104,-8.078169,-0.29671,-174.509995,40.040001,0.98,1729425962324.0,0.0
-4.290331,-11.789437,1.895115,-182.350006,44.799999,-12.46,1729425962344.0,0.0
-5.692525,-12.457035,4.831109,-122.360001,38.43,-14.07,1729425962365.0,0.0
-6.601797,-10.193424,5.056034,-48.439999,45.360001,5.39,1729425962387.0,0.0
-6.991827,-7.618747,3.960121,-17.08,39.830002,8.47,1729425962405.0,0.0
-7.487142,-7.161718,3.462414,6.09,14.14,4.2,1729425962424.0,0.0
-7.690532,-7.161718,3.924229,7.49,-15.82,0.21,1729425962444.0,0.0
-7.286145,-8.829515,4.680361,5.39,-44.380001,-1.33,1729425962464.0,0.0
-5.680561,-13.186846,7.116255,-14.7,-77.699997,-14.91,1729425962486.0,0.0
-2.70389,-13.256237,1.004985,-34.93,-124.669998,-38.639999,1729425962505.0,0.0
-0.100499,-12.27518,-1.674976,114.099998,-104.650002,-7.0,1729425962525.0,0.0
-0.985843,-8.142776,-0.624527,217.910004,-21.210001,-4.97,1729425962544.0,0.0
-4.098906,-3.244668,-0.591027,227.220001,56.77,-18.34,1729425962564.0,0.0
-8.355737,-2.148755,2.0004,238.070007,104.580002,18.549999,1729425962586.0,0.0
-10.506885,-1.411765,3.964907,153.649994,100.660004,9.87,1729425962605.0,0.0
-9.573684,-1.90708,4.692325,28.35,45.709999,-10.43,1729425962624.0,0.0
-6.080163,-4.302295,3.416951,-78.540001,-22.33,-3.43,1729425962644.0,0.0
-2.589034,-6.233303,1.488336,-148.259995,-41.02,1.96,1729425962665.0,0.0
-0.665205,-8.346166,1.830509,-176.539993,-11.06,10.57,1729425962690.0,0.0
-1.701297,-9.487542,3.428915,-200.059998,30.940001,9.73,1729425962704.0,0.0
-4.24726,-10.942378,2.715853,-188.720001,67.760002,0.28,1729425962724.0,0.0
-6.80758,-10.738988,3.079563,-133.699997,80.220001,2.1,1729425962744.0,0.0
-8.197811,-8.575876,3.244668,-50.400002,48.23,18.620001,1729425962765.0,0.0
-8.341379,-6.197411,2.014757,14.35,15.05,26.530001,1729425962796.0,0.0
-8.11167,-5.711668,2.89053,27.299999,-8.89,15.96,1729425962805.0,0.0
-7.999206,-8.298308,4.582255,-22.190001,-57.75,-4.2,1729425962824.0,0.0
-7.046863,-11.490334,4.419543,-73.150002,-87.639999,-26.18,1729425962847.0,0.0
-5.345565,-14.924035,4.998606,-82.32,-130.410004,-44.73,1729425962865.0,0.0
-0.811167,-13.947763,0.095713,-1.96,-156.800003,-38.080002,1729425962886.0,0.0
0.598206,-9.35833,-1.509871,150.779999,-78.470001,-0.91,1729425962906.0,0.0
-2.254039,-4.465007,1.440479,220.290009,26.18,-11.76,1729425962925.0,0.0
-6.422336,-1.277767,2.574677,201.600006,79.800003,-12.81,1729425962945.0,0.0
-9.47797,-1.229911,3.742374,170.309998,87.43,20.719999,1729425962965.0,0.0
-10.147961,-2.117648,4.651647,68.32,64.75,7.49,1729425962987.0,0.0
-7.76471,-3.113062,3.680161,-74.970001,17.360001,-19.6,1729425963005.0,0.0
-5.048856,-5.455636,1.363909,-165.970001,-17.780001,-0.07,1729425963026.0,0.0
-3.177669,-9.205189,-1.172483,-179.619995,-7.84,12.74,1729425963046.0,0.0
-2.426322,-12.849458,0.189033,-144.830002,22.120001,9.73,1729425963066.0,0.0
-2.912065,-11.815758,2.813959,-128.520004,39.619999,5.25,1729425963089.0,0.0
-5.54417,-10.813165,3.553342,-93.590004,59.779999,0.14,1729425963106.0,0.0
-7.06122,-9.152546,3.254239,-6.16,62.23,14.91,1729425963125.0,0.0
-7.63789,-5.391029,3.211168,51.310001,33.670002,32.130001,1729425963146.0,0.0
-7.819745,-3.141776,2.579463,57.330002,15.61,35.07,1729425963166.0,0.0
-7.563712,-4.955536,2.141576,-2.59,2.87,5.81,1729425963188.0,0.0
-7.750352,-9.956534,2.723032,-82.669998,-37.240002,-20.719999,1729425963207.0,0.0
-7.02772,-14.376079,4.843073,-107.660004,-102.620003,-34.509998,1729425963226.0,0.0
-3.649055,-14.974284,2.79721,-57.540001,-137.970001,-37.52,1729425963246.0,0.0
-0.289532,-11.942577,-1.552942,74.760002,-103.739998,-6.93,1729425963267.0,0.0
-1.397408,-7.475177,-1.081556,202.930008,-14.49,8.82,1729425963289.0,0.0
-4.881358,-2.818745,1.651048,226.240005,51.939999,-9.8,1729425963307.0,0.0
-8.539984,-1.964507,3.139383,210.210007,79.449997,6.02,1729425963327.0,0.0
-10.363315,-3.141776,4.627719,144.339996,63.700001,13.16,1729425963348.0,0.0
-8.707481,-3.905087,4.328616,22.540001,14.56,-11.06,1729425963367.0,0.0
-5.580062,-6.427122,1.820938,-90.370003,-37.310001,-13.93,1729425963388.0,0.0
-2.481357,-9.032906,0.009571,-134.050003,-31.43,5.81,1729425963407.0,0.0
-1.801795,-11.334801,0.531207,-83.370003,1.4,6.44,1729425963428.0,0.0
-2.854637,-11.91147,3.050849,-32.27,31.290001,-2.24,1729425963447.0,0.0
-4.993821,-11.222338,4.302295,-11.27,58.240002,-12.11,1729425963467.0,0.0
-6.625726,-8.556733,4.792823,27.440001,60.689999,-1.54,1729425963491.0,0.0
-7.630712,-4.931608,4.993821,70.279999,42.98,24.57,1729425963512.0,0.0
-8.420342,-1.899901,3.929015,62.720001,32.689999,32.41,1729425963527.0,0.0
-8.243275,-2.364109,2.277967,14.91,24.360001,17.290001,1729425963547.0,0.0
-7.587641,-5.534599,2.098505,-68.110001,-7.56,-10.99,1729425963566.0,0.0
-7.123433,-10.51167,3.5007,-126.770004,-60.900002,-31.219999,1729425963590.0,0.0
-5.785845,-14.498112,5.441278,-143.919998,-106.330002,-42.349998,1729425963607.0,0.0
-2.108077,-14.285151,1.85683,-69.230003,-120.050003,-34.439999,1729425963628.0,0.0
-0.236889,-10.616954,-0.267996,94.919998,-61.810001,5.53,1729425963646.0,0.0
-2.524428,-5.465207,1.581656,181.440002,24.5,-0.91,1729425963667.0,0.0
-6.317052,-2.079363,2.62732,180.949997,70.769997,-6.44,1729425963696.0,0.0
-9.147761,-2.440679,3.072384,164.710007,81.129997,17.5,1729425963708.0,0.0
-8.963513,-3.5007,4.165904,87.989998,51.52,6.79,1729425963726.0,0.0
-6.551548,-4.864608,3.28056,-66.779999,-23.59,-13.02,1729425963747.0,0.0
-4.424329,-7.726424,0.875773,-110.32,-30.1,-0.77,1729425963767.0,0.0
-2.557927,-9.824929,0.301496,-104.860001,-11.13,1.19,1729425963790.0,0.0
-1.789831,-10.540384,2.230111,-86.800003,-0.14,1.61,1729425963809.0,0.0
-3.184847,-12.000006,3.448057,-67.760002,19.879999,-6.51,1729425963825.0,0.0
-5.599205,-11.437693,4.031906,-7.42,55.16,-7.84,1729425963847.0,0.0
-7.221539,-6.541977,4.931608,85.470001,59.779999,16.940001,1729425963868.0,0.0
-8.348558,-1.730011,4.45065,123.830002,44.310001,42.0,1729425963888.0,0.0
-8.721838,-0.818345,3.555735,86.800003,39.060001,40.25,1729425963908.0,0.0
-8.219346,-3.864408,3.397808,-21.629999,23.59,4.83,1729425963927.0,0.0
-7.872386,-7.846066,3.28056,-143.5,-23.66,-25.48,1729425963947.0,0.0
-7.118648,-13.304093,5.745167,-186.130005,-78.68,-39.200001,1729425963966.0,0.0
-4.352544,-14.67518,2.65364,-165.970001,-109.690002,-40.670002,1729425963990.0,0.0
-1.354338,-12.799208,-0.217747,15.68,-81.410004,-3.01,1729425964007.0,0.0
-1.861616,-6.63769,0.818345,161.0,-1.12,5.53,1729425964027.0,0.0
-4.709075,-2.385644,2.785245,164.990005,56.630001,-10.78,1729425964047.0,0.0
-9.013763,-3.290131,3.433701,135.449997,81.620003,5.46,1729425964067.0,0.0
-9.262616,-4.9675,3.412165,34.509998,40.880001,-0.77,1729425964088.0,0.0
-7.250252,-6.132804,2.725425,-44.66,-8.54,-12.53,1729425964109.0,0.0
-5.029713,-7.307681,1.442872,-93.519997,-24.5,-5.39,1729425964126.0,0.0
-3.65384,-9.073583,1.256232,-101.43,-9.17,-0.42,1729425964146.0,0.0
-3.337988,-10.447062,2.737389,-90.790001,1.82,-5.81,1729425964167.0,0.0
-4.010371,-11.490334,3.567699,-52.080002,10.99,-9.59,1729425964190.0,0.0
-4.828716,-9.911072,3.732803,19.809999,34.650002,-1.75,1729425964207.0,0.0
-5.893522,-5.938986,4.180261,84.139999,42.560001,20.09,1729425964227.0,0.0
-7.13779,-2.54357,3.371487,96.879997,45.220001,30.73,1729425964246.0,0.0
-7.700103,-1.469193,1.574477,62.299999,54.32,30.940001,1729425964266.0,0.0
-7.999206,-3.239882,1.758725,-17.360001,48.720001,15.47,1729425964290.0,0.0
-8.449057,-6.319445,1.957329,-116.480003,15.68,-8.05,1729425964306.0,0.0
-8.915657,-11.109876,3.436093,-158.759995,-26.460001,-21.77,1729425964326.0,0.0
-7.695317,-14.359328,3.457629,-146.300003,-76.650002,-38.009998,1729425964346.0,0.0
-4.216154,-13.804193,1.387837,-44.029999,-117.040001,-28.35,1729425964366.0,0.0
-1.787439,-10.480563,0.988236,80.150002,-90.720001,1.89,1729425964391.0,0.0
-4.067799,-3.917051,2.057827,143.5,-21.280001,-7.84,1729425964407.0,0.0
-7.300502,-2.596212,2.727818,132.789993,65.379997,-2.52,1729425964426.0,0.0
-9.164511,-3.163311,3.495914,65.239998,52.43,-0.14,1729425964447.0,0.0
-7.537392,-4.704289,3.481557,-33.950001,-10.36,-12.04,1729425964467.0,0.0
-4.776074,-6.398407,2.854637,-120.330002,-46.970001,-7.98,1729425964488.0,0.0
-3.019742,-8.288737,1.641476,-159.600006,-30.309999,-1.68,1729425964506.0,0.0
-3.089134,-9.97807,2.79721,-152.809998,-3.22,-5.88,1729425964526.0,0.0
-4.41715,-11.724831,3.328416,-111.580002,12.95,-12.53,1729425964546.0,0.0
-5.716454,-11.930614,2.833102,-23.450001,22.68,-5.74,1729425964566.0,0.0
-6.570691,-7.984849,3.65384,87.080002,23.1,16.66,1729425964588.0,0.0
-7.554141,-3.802195,3.125026,142.100006,32.549999,32.34,1729425964607.0,0.0
-7.956135,-2.146362,1.718047,116.059998,56.279999,33.459999,1729425964626.0,0.0
-7.834101,-2.273181,1.150948,17.01,52.5,15.05,1729425964647.0,0.0
-7.867601,-5.85763,1.07677,-85.75,7.28,-2.73,1729425964666.0,0.0
-7.858029,-11.107484,2.584249,-157.850006,-42.98,-26.460001,1729425964690.0,0.0
-6.766902,-15.677773,2.723032,-185.639999,-91.699997,-56.349998,1729425964708.0,0.0
-3.634698,-16.01277,1.337588,-66.849998,-126.699997,-37.310001,1729425964726.0,0.0
-1.172483,-7.910671,1.308874,141.470001,-47.880001,-5.18,1729425964746.0,0.0
-3.730411,-3.598805,2.201397,168.699997,26.809999,-10.99,1729425964766.0,0.0
-7.307681,-2.139183,2.234896,159.529999,66.57,2.03,1729425964787.0,0.0
-9.221939,-3.565305,2.842674,105.489998,56.139999,3.92,1729425964806.0,0.0
-8.099705,-4.742575,2.555535,9.38,0.28,-11.06,1729425964832.0,0.0
-5.290531,-5.795416,1.421337,-57.119999,-46.200001,-5.25,1729425964845.0,0.0
-3.259024,-7.147361,0.478565,-87.220001,-30.799999,-0.42,1729425964868.0,0.0
-3.113062,-9.370294,1.617548,-92.889999,0.84,-4.34,1729425964889.0,0.0
-4.409972,-11.157731,3.582055,-79.169998,14.7,-10.64,1729425964906.0,0.0
-5.778666,-11.904292,4.019942,-25.969999,24.290001,-11.2,1729425964927.0,0.0
-6.573084,-9.533006,4.005585,53.689999,30.380001,1.68,1729425964946.0,0.0
-6.819544,-5.869594,3.505485,105.139999,26.389999,11.2,1729425964966.0,0.0
-6.872187,-3.254239,2.833102,98.980003,30.73,15.33,1729425964990.0,0.0
-6.695118,-2.591427,3.058028,48.16,27.790001,12.74,1729425965008.0,0.0
-6.281159,-3.696911,2.684747,-18.9,11.83,3.64,1729425965026.0,0.0
-6.350551,-6.295516,3.026921,-75.599998,0.63,-3.36,1729425965046.0,0.0
-6.958328,-9.856036,2.603391,-106.120003,0.91,-10.85,1729425965066.0,0.0
-6.202196,-11.906685,2.115255,-99.260002,-22.889999,-27.370001,1729425965090.0,0.0
-4.733003,-12.713067,1.682154,-51.66,-51.380001,-26.25,1729425965109.0,0.0
-3.440879,-11.96172,3.062813,39.34,-56.700001,-16.52,1729425965129.0,0.0
-3.460021,-9.250652,2.596212,93.379997,-22.049999,-14.98,1729425965147.0,0.0
-5.075177,-6.407979,2.665605,141.470001,23.66,-9.8,1729425965169.0,0.0
-6.754939,-4.254438,1.854438,148.119995,46.200001,3.08,1729425965191.0,0.0
-7.001399,-3.613162,2.26361,88.760002,37.869999,-4.76,1729425965208.0,0.0
-5.785845,-4.278367,3.400201,-4.69,1.75,-19.6,1729425965228.0,0.0
-4.591826,-5.020142,3.98405,-81.550003,-26.950001,-13.37,1729425965248.0,0.0
-4.4674,-6.585048,3.038885,-98.07,-10.99,3.22,1729425965267.0,0.0
-5.015356,-8.662018,1.215554,-75.32,23.940001,6.37,1729425965291.0,0.0
-5.383851,-9.667004,0.452243,-41.790001,34.439999,4.83,1729425965361.0,0.0
-5.328816,-8.925228,2.622534,-20.02,17.639999,4.06,1729425965363.0,0.0
-6.211767,-8.695518,4.24726,-12.88,8.89,0.42,1729425965370.0,0.0
-7.338787,-8.063812,3.591627,11.97,24.92,7.14,1729425965373.0,0.0
-7.700103,-6.087341,2.337788,34.16,25.9,10.78,1729425965403.0,0.0
-7.128219,-5.101498,2.0004,16.59,17.08,7.56,1729425965417.0,0.0
-6.513263,-5.340781,2.366502,-30.030001,0.14,0.49,1729425965428.0,0.0
-6.431907,-7.551748,2.715853,-64.120003,-9.31,-8.4,1729425965447.0,0.0
-6.896115,-10.695917,4.074977,-86.169998,-20.02,-24.01,1729425965467.0,0.0
-6.429514,-13.835299,3.862016,-82.459999,-56.98,-40.880001,1729425965490.0,0.0
-4.063013,-14.230117,2.63689,-22.190001,-100.590004,-39.48,1729425965508.0,0.0
-1.155733,-11.286944,1.241875,72.730003,-105.209999,-21.91,1729425965527.0,0.0
-1.265803,-7.920243,1.426122,166.25,-47.040001,-10.57,1729425965551.0,0.0
-4.287938,-4.141976,1.823331,208.460007,36.540001,-16.450001,1729425965567.0,0.0
-7.582855,-2.256432,1.0002,217.139999,97.860001,5.32,1729425965589.0,0.0
-9.616754,-1.794617,3.256632,129.430008,92.889999,6.65,1729425965611.0,0.0
-8.075776,-2.811567,4.297509,-15.05,15.190001,-27.02,1729425965627.0,0.0
-5.012963,-5.359922,2.799603,-110.459999,-61.459999,-20.93,1729425965655.0,0.0
-2.768496,-7.135397,1.249053,-134.610001,-60.900002,2.73,1729425965668.0,0.0
-1.990828,-9.561719,-0.064606,-101.849998,-14.0,14.07,1729425965692.0,0.0
-3.644269,-10.403993,1.555335,-48.580002,52.639999,6.37,1729425965707.0,0.0
-5.9342,-9.671788,3.905087,-17.43,70.139999,3.43,1729425965727.0,0.0
-7.707282,-8.303094,4.878965,5.39,71.260002,6.44,1729425965747.0,0.0
-8.516055,-6.175875,4.254438,17.92,53.130001,13.65,1729425965767.0,0.0
-8.106883,-4.424329,3.110669,5.67,26.389999,13.58,1729425965789.0,0.0
-7.233503,-4.436293,2.316252,-36.119999,5.67,8.54,1729425965808.0,0.0
-6.673582,-6.594619,1.952543,-90.440002,-8.4,-3.08,1729425965826.0,0.0
-6.920043,-9.956534,4.297509,-124.949997,-13.51,-17.780001,1729425965848.0,0.0
-7.415358,-14.124832,5.673382,-134.75,-35.560001,-37.869999,1729425965868.0,0.0
-5.398208,-16.713865,4.21376,-86.309998,-81.550003,-52.920002,1729425965889.0,0.0
-1.306481,-14.347364,1.87358,38.009998,-112.980003,-33.950001,1729425965908.0,0.0
1.277767,-9.463614,-1.237089,162.470001,-66.010002,-8.82,1729425965926.0,0.0
-1.552942,-4.919643,0.830309,259.0,37.450001,-12.67,1729425965947.0,0.0
-6.422336,-2.349752,3.601198,276.079987,124.739998,-8.61,1729425965969.0,0.0
-9.918249,-0.70349,0.521635,177.800003,173.460007,3.36,1729425965989.0,0.0
-9.408579,-4.31426,4.256832,61.18,86.449997,-4.13,1729425966008.0,0.0
-4.716253,-5.627919,2.167897,-85.330002,-69.019997,-35.77,1729425966027.0,0.0
-2.033899,-7.71446,1.514657,-107.870003,-54.389999,-8.68,1729425966100.0,0.0
-1.806581,-7.092326,1.624727,-65.099998,-15.05,25.200001,1729425966101.0,0.0
-2.464607,-6.955935,1.055235,-1.12,36.259998,30.24,1729425966103.0,0.0
-4.826324,-9.066404,2.299503,-18.059999,92.050003,7.42,1729425966108.0,0.0
-7.482357,-10.380065,2.581856,-63.0,98.910004,-7.42,1729425966201.0,0.0
-8.633304,-9.377472,2.739782,-60.27,68.389999,-5.74,1729425966201.0,0.0
-8.283953,-7.585248,3.18724,-13.23,26.040001,6.16,1729425966201.0,0.0
-7.133004,-5.309673,3.038885,6.02,-10.08,7.35,1729425966203.0,0.0
-6.331409,-4.17069,2.620141,-14.21,-10.85,7.21,1729425966208.0,0.0
-6.314659,-4.828716,2.598605,-59.43,-1.82,-0.07,1729425966226.0,0.0
-6.879365,-6.896115,2.488536,-118.020004,-5.67,-10.36,1729425966246.0,0.0
-7.022934,-9.793823,2.081756,-157.220001,-30.24,-22.4,1729425966266.0,0.0
-6.4343,-13.004992,2.684747,-165.550003,-69.230003,-38.849998,1729425966288.0,0.0
-4.608576,-15.048461,1.887937,-129.220001,-117.25,-47.459999,1729425966306.0,0.0
-1.725225,-14.474185,2.222932,-25.200001,-142.309998,-33.110001,1729425966326.0,0.0
-0.078963,-9.23151,0.229711,71.610001,-99.050003,-9.94,1729425966346.0,0.0
-2.883351,-3.749553,0.973879,153.580002,35.349998,-9.38,1729425966366.0,0.0
-6.738188,-1.753939,2.445465,123.900002,101.989998,-1.89,1729425966387.0,0.0
-10.164711,-2.428715,2.100898,24.99,109.059998,-1.12,1729425966406.0,0.0
-9.628718,-4.965107,0.997807,-132.930008,33.25,-47.599998,1729425966425.0,0.0
-6.415157,-8.157133,0.141177,-259.420013,-73.360001,-68.110001,1729425966446.0,0.0
-3.285345,-9.987641,-1.258625,-297.920013,-115.919998,-42.98,1729425966466.0,0.0
-1.938186,-9.236296,-1.454836,-288.119995,-69.370003,-17.92,1729425966495.0,0.0
-3.002992,-9.08794,-1.356731,-277.619995,2.66,-20.51,1729425966507.0,0.0
-5.388636,-9.535398,0.356531,-330.75,37.73,-40.25,1729425966526.0,0.0
-6.845865,-8.530413,-1.119841,-419.019989,22.68,-58.939999,1729425966546.0,0.0
-5.711668,-7.025328,-4.252046,-465.920013,-18.34,-71.260002,1729425966567.0,0.0
-3.859623,-5.766702,-6.908078,-444.98999,-43.330002,-63.77,1729425966588.0,0.0
-2.684747,-5.931807,-9.726824,-370.649994,-34.16,-52.779999,1729425966607.0,0.0
-2.742175,-7.200003,-10.370493,-328.929993,-1.82,-57.330002,1729425966628.0,0.0
-2.947958,-5.91745,-8.9683,-318.779999,30.52,-60.48,1729425966647.0,0.0
-3.76391,-5.012963,-9.370294,-272.720001,35.209999,-35.630001,1729425966666.0,0.0
-2.916851,-4.993821,-11.05484,-220.360001,12.25,-25.129999,1729425966691.0,0.0
-1.998007,-4.74736,-10.607382,-140.910004,17.710001,-10.01,1729425966707.0,0.0
-1.871187,-3.732803,-10.509278,-91.209999,33.389999,-1.12,1729425966727.0,0.0
-2.304288,-3.304488,-10.727024,-63.07,46.27,4.76,1729425966747.0,0.0
-2.744568,-3.376273,-10.097712,-56.700001,56.98,4.69,1729425966768.0,0.0
-4.500899,-5.04407,-0.538385,-55.23,55.16,6.02,1729425966791.0,0.0
-5.405386,-7.594819,-7.496714,32.34,35.0,9.45,1729425966807.0,0.0
-4.173083,-1.136591,-6.951149,31.43,-14.98,1.05,1729425966826.0,0.0
-3.345166,-1.74676,-9.176475,19.110001,-13.37,13.3,1729425966847.0,0.0
-2.660819,-3.177669,-9.913465,-38.639999,-7.77,-10.01,1729425966876.0,0.0
-3.117848,-3.522235,-9.186047,-26.32,-2.1,0.28,1729425966892.0,0.0
-3.448057,-2.56032,-7.795816,-2.38,-6.02,-1.4,1729425966906.0,0.0
-3.460021,-2.172683,-7.664211,-8.33,-12.88,-6.86,1729425966928.0,0.0
-2.902494,-2.088934,-8.10449,-15.33,-22.469999,-10.57,1729425966948.0,0.0
-2.043471,-1.079163,-9.159724,-15.190001,-31.5,-8.33,1729425966967.0,0.0
-1.864009,-0.392423,-9.52822,-5.95,-31.08,2.94,1729425966991.0,0.0
-3.5007,-0.136391,-10.348958,-10.71,-4.2,28.210001,1729425967009.0,0.0
-3.960121,-0.973879,-11.107484,-26.74,4.97,42.91,1729425967027.0,0.0
-3.426522,-2.505285,-10.805987,-20.23,2.94,49.490002,1729425967047.0,0.0
-3.129812,-2.928815,-9.523434,-2.8,5.18,47.599998,1729425967067.0,0.0
-3.285345,-3.270989,-10.650455,14.07,12.6,37.939999,1729425967091.0,0.0
-3.639483,-3.531806,-10.593026,10.64,21.139999,21.559999,1729425967108.0,0.0
-3.919443,-3.414558,-9.523434,-11.06,26.110001,7.28,1729425967128.0,0.0
-3.878766,-3.900301,-8.693125,-30.309999,22.120001,-7.21,1729425967148.0,0.0
-3.797409,-3.677768,-7.963314,-29.540001,13.93,-19.67,1729425967168.0,0.0
-3.806981,-2.924029,-8.173882,-27.719999,7.56,-27.790001,1729425967189.0,0.0
-3.512664,-2.811567,-9.322437,-32.200001,2.73,-36.470001,1729425967209.0,0.0
-3.108276,-2.598605,-9.262616,-40.25,1.82,-42.420002,1729425967229.0,0.0
-2.514857,-2.37368,-9.169296,-28.139999,-3.43,-41.16,1729425967249.0,0.0
-1.612763,-1.052842,-9.147761,-8.05,-9.52,-36.75,1729425967269.0,0.0
-1.229911,1.026521,-8.961121,-5.6,-6.93,-19.530001,1729425967293.0,0.0
-1.421337,0.70349,-9.664611,-3.71,-8.89,-0.91,1729425967310.0,0.0
-2.208575,0.124427,-9.042477,11.34,-3.78,21.139999,1729425967329.0,0.0
-3.48395,-0.270389,-8.927622,13.440001,10.43,35.91,1729425967350.0,0.0
-4.204189,-1.246661,-9.635897,0.56,14.63,39.41,1729425967368.0,0.0
-3.663411,-2.007578,-10.222138,-3.64,2.31,38.220001,1729425967398.0,0.0
-3.251846,-2.306681,-10.250853,4.41,0.7,34.09,1729425967410.0,0.0
-3.701697,-2.041078,-10.758131,2.03,11.06,26.25,1729425967430.0,0.0
-4.366901,-2.510071,-10.578669,-6.23,19.18,16.309999,1729425967449.0,0.0
-4.613362,-3.366701,-9.781858,-11.9,18.48,7.56,1729425967468.0,0.0
-4.575077,-3.641876,-8.458629,-10.92,15.190001,-4.97,1729425967489.0,0.0
-4.388437,-2.962314,-7.987241,-9.59,10.36,-17.85,1729425967508.0,0.0
-3.909872,-2.431108,-8.666803,-8.26,1.61,-30.17,1729425967529.0,0.0
-3.522235,-2.206182,-9.188439,-17.290001,-0.42,-39.41,1729425967548.0,0.0
-2.943172,-2.218147,-9.52822,-26.040001,-2.87,-47.110001,1729425967571.0,0.0
-2.081756,-1.524228,-9.607183,-23.309999,-9.03,-50.470001,1729425967597.0,0.0
-0.815953,0.344566,-9.688539,-13.440001,-12.18,-47.670002,1729425967609.0,0.0
-0.401994,0.945165,-10.080962,-6.3,-17.01,-36.400002,1729425967629.0,0.0
-1.158126,1.012164,-9.099905,8.26,-7.0,-14.77,1729425967650.0,0.0
-2.964707,1.057628,-8.360522,27.51,11.97,10.22,1729425967668.0,0.0
-4.165904,1.495514,-9.135797,18.690001,13.79,28.0,1729425967697.0,0.0
-4.309474,0.421137,-10.009177,-1.96,4.62,39.130001,1729425967711.0,0.0
-3.536592,-1.51705,-10.19821,-8.61,-7.14,46.060001,1729425967736.0,0.0
-3.57727,-2.632105,-9.379865,15.12,-2.52,49.700001,1729425967751.0,0.0
-4.297509,-2.100898,-10.076177,25.76,12.04,43.049999,1729425967769.0,0.0
-4.68754,-2.416751,-10.894521,14.63,12.81,30.380001,1729425967790.0,0.0
-4.04387,-3.383451,-10.415956,1.05,4.41,16.309999,1729425967810.0,0.0
-3.584448,-3.694518,-8.839087,-5.25,5.88,2.38,1729425967828.0,0.0
-3.711268,-3.249453,-7.745567,-0.56,8.47,-11.83,1729425967848.0,0.0
-3.742374,-2.541178,-7.9346,2.52,2.45,-23.030001,1729425967868.0,0.0
-3.419343,-2.467,-8.676375,-6.79,-5.6,-32.41,1729425967890.0,0.0
-2.971886,-2.605784,-9.23151,-18.34,-9.24,-40.459999,1729425967908.0,0.0
-2.773281,-2.24686,-9.446864,-13.65,-7.91,-39.689999,1729425967927.0,0.0
-2.696711,-1.605584,-8.863015,4.06,-6.23,-36.889999,1729425967949.0,0.0
-2.282753,-0.026321,-8.549555,28.0,-13.37,-25.059999,1729425967968.0,0.0
-2.148755,0.959522,-8.693125,18.620001,-17.290001,-15.33,1729425967989.0,0.0
-2.151148,0.672383,-9.664611,6.72,-19.110001,-2.66,1729425968009.0,0.0
-2.48375,0.167498,-10.023535,11.2,-15.89,14.14,1729425968027.0,0.0
-3.062813,-0.055035,-10.695917,26.25,-9.94,31.639999,1729425968048.0,0.0
-3.68734,-0.653241,-9.722038,22.190001,-1.12,38.920002,1729425968068.0,0.0
-3.804588,-1.179662,-10.08814,4.27,2.8,41.509998,1729425968089.0,0.0
-3.739982,-2.40718,-9.518648,2.8,0.77,39.619999,1729425968107.0,0.0
-3.957729,-2.868994,-9.420543,0.35,6.23,31.92,1729425968128.0,0.0
-4.185047,-2.48375,-10.435099,6.16,8.89,24.08,1729425968149.0,0.0
-4.254438,-2.699104,-10.719845,11.55,10.29,16.1,1729425968168.0,0.0
-3.952943,-3.388237,-10.016356,3.36,11.27,4.41,1729425968192.0,0.0
-3.850052,-3.732803,-8.9348,-4.48,13.3,-7.63,1729425968210.0,0.0
-3.787838,-3.201597,-8.267202,-7.56,13.3,-21.35,1729425968228.0,0.0
-3.553342,-2.778067,-8.362915,-11.55,7.84,-33.740002,1729425968248.0,0.0
-3.196811,-2.744568,-8.992228,-17.290001,2.8,-44.66,1729425968269.0,0.0
-2.842674,-2.404787,-9.116654,-21.139999,1.61,-52.150002,1729425968291.0,0.0
-2.648855,-1.892723,-8.961121,-5.46,-0.35,-50.610001,1729425968310.0,0.0
-2.469393,-1.021735,-8.583055,5.74,-3.5,-45.5,1729425968330.0,0.0
-2.311467,0.287139,-8.492127,7.0,-7.56,-35.560001,1729425968348.0,0.0
-2.196611,1.004985,-9.489935,-0.49,-11.34,-20.370001,1729425968370.0,0.0
-2.426322,0.897308,-9.731609,-3.78,-9.03,-1.19,1729425968389.0,0.0
-2.976671,0.26321,-9.88475,5.67,-3.92,20.860001,1729425968409.0,0.0
-3.282953,-0.658026,-9.712467,11.34,-1.12,34.509998,1729425968430.0,0.0
-3.151347,-1.031307,-10.34178,0.91,3.08,42.98,1729425968448.0,0.0
-3.565305,-2.328217,-9.288938,0.49,8.33,44.939999,1729425968468.0,0.0
-4.06062,-2.785245,-8.504091,-1.54,13.02,39.48,1729425968490.0,0.0
-4.204189,-2.720639,-9.568897,20.299999,7.42,34.650002,1729425968509.0,0.0
-3.919443,-2.210968,-10.023535,26.530001,2.8,24.710001,1729425968528.0,0.0
-3.541377,-2.416751,-10.377672,8.89,3.01,14.35,1729425968549.0,0.0
-3.227918,-2.70389,-9.798609,-13.37,5.46,1.05,1729425968569.0,0.0
-3.148954,-2.885744,-9.262616,-18.200001,8.75,-7.07,1729425968592.0,0.0
-2.940779,-2.538785,-8.803195,-8.75,4.62,-14.28,1729425968611.0,0.0
-2.912065,-2.079363,-9.152546,-2.94,3.01,-19.110001,1729425968628.0,0.0
-3.022135,-2.09372,-9.279366,-6.02,4.83,-25.48,1729425968649.0,0.0
-3.034099,-1.868794,-9.083155,-1.89,4.69,-26.040001,1729425968670.0,0.0
-2.945565,-1.37348,-8.688338,14.84,1.54,-19.950001,1729425968693.0,0.0
-2.749353,-0.251246,-8.566305,19.809999,-3.43,-14.7,1729425968711.0,0.0
-2.74696,0.172283,-8.652447,-0.28,-4.27,-9.31,1729425968728.0,0.0
-2.897708,-0.112463,-9.645468,-18.41,-3.64,-2.66,1729425968750.0,0.0
-3.139383,-0.394816,-10.092925,-29.33,-0.98,5.04,1729425968768.0,0.0
-3.347559,-1.268196,-10.140782,-27.09,1.47,14.0,1729425968792.0,0.0
-3.113062,-1.598405,-10.004392,-15.33,1.4,18.620001,1729425968809.0,0.0
-2.878566,-1.497907,-9.949356,-5.11,1.05,23.030001,1729425968828.0,0.0
-3.141776,-1.770689,-9.796216,-3.5,7.21,21.91,1729425968849.0,0.0
-3.696911,-2.124826,-10.07139,7.28,12.95,22.33,1729425968869.0,0.0
-4.065405,-1.923829,-9.96132,7.7,15.47,20.23,1729425968891.0,0.0
-4.034299,-2.37368,-9.568897,-9.59,13.37,12.81,1729425968909.0,0.0
-3.622734,-3.237489,-9.408579,-21.280001,8.4,2.73,1729425968929.0,0.0
-3.323631,-3.632305,-8.956335,-9.31,3.92,-5.95,1729425968950.0,0.0
-3.261417,-2.608176,-8.645268,7.98,5.11,-19.32,1729425968969.0,0.0
-3.108276,-2.124826,-9.178867,5.74,1.96,-28.77,1729425968991.0,0.0
-2.665605,-1.909473,-9.509077,-3.08,-2.24,-36.049999,1729425969008.0,0.0
-2.184647,-1.529014,-9.844072,-7.7,-3.64,-39.48,1729425969030.0,0.0
-2.09372,-0.710668,-9.114261,-6.72,-1.89,-36.470001,1729425969048.0,0.0
-2.400001,-0.023928,-8.317451,1.05,-1.19,-26.32,1729425969068.0,0.0
-2.419144,0.538385,-8.922836,0.91,-6.02,-17.57,1729425969090.0,0.0
-2.342573,0.882952,-9.444471,-1.68,-9.45,-4.9,1729425969108.0,0.0
-2.65364,0.715454,-9.987641,-4.48,-4.69,10.57,1729425969129.0,0.0
-3.26381,-0.050249,-10.358529,-12.04,3.99,20.719999,1729425969149.0,0.0
-3.536592,-1.414158,-10.19821,-16.24,7.14,25.27,1729425969169.0,0.0
-3.364309,-2.151148,-9.769895,-4.41,4.41,28.98,1729425969189.0,0.0
-3.366701,-2.335395,-9.207582,16.030001,4.41,30.66,1729425969208.0,0.0
-3.806981,-1.806581,-9.052048,26.460001,9.8,28.559999,1729425969227.0,0.0
-4.173083,-1.45005,-9.592826,18.129999,10.01,24.43,1729425969248.0,0.0
-3.888337,-2.184647,-9.932607,-5.11,2.8,14.56,1729425969268.0,0.0
-3.213561,-3.007778,-9.918249,-17.710001,-2.17,4.62,1729425969289.0,0.0
-3.034099,-2.677568,-9.202796,-6.09,3.5,-9.45,1729425969310.0,0.0
-3.259024,-2.069792,-8.882158,7.49,4.27,-17.01,1729425969330.0,0.0
-3.019742,-1.79701,-9.047262,9.45,-2.73,-24.360001,1729425969349.0,0.0
-2.476572,-1.572084,-9.564112,0.07,-9.8,-31.639999,1729425969368.0,0.0
-2.309074,-1.399801,-10.121639,-2.59,-5.11,-31.360001,1729425969389.0,0.0
-2.426322,-0.684347,-9.722038,2.38,1.4,-28.77,1729425969410.0,0.0
-2.589034,0.138784,-9.190832,0.77,4.06,-22.68,1729425969430.0,0.0
-2.163112,0.452243,-9.181261,2.24,-3.92,-14.63,1729425969450.0,0.0
-1.85683,0.768096,-9.207582,3.57,-6.44,-3.43,1729425969468.0,0.0
-2.163112,0.70349,-9.346365,-0.35,-0.63,8.75,1729425969490.0,0.0
-2.902494,0.267996,-9.980463,-12.81,6.23,17.43,1729425969510.0,0.0
-3.0006,-0.555135,-10.229317,-23.52,6.23,21.139999,1729425969528.0,0.0
-2.935993,-1.330409,-10.013963,-20.65,2.73,25.129999,1729425969548.0,0.0
-3.117848,-2.033899,-9.399008,2.52,3.71,28.280001,1729425969568.0,0.0
-3.931407,-2.108077,-9.111869,23.309999,10.43,31.290001,1729425969591.0,0.0
-4.472186,-2.041078,-9.781858,23.1,13.440001,27.65,1729425969609.0,0.0
-4.208975,-2.813959,-9.908678,4.48,8.89,18.41,1729425969627.0,0.0
-3.783052,-3.464807,-10.018748,-13.79,4.48,1.82,1729425969649.0,0.0
-3.785445,-3.488736,-9.449257,-4.69,8.61,-7.77,1729425969667.0,0.0
-4.132405,-3.103491,-8.475377,10.64,9.87,-15.05,1729425969693.0,0.0
-4.261617,-2.177469,-7.850852,25.76,5.46,-19.32,1729425969709.0,0.0
-4.17069,-1.895115,-7.71446,23.450001,-2.52,-23.379999,1729425969728.0,0.0
-3.251846,-1.911865,-8.894121,8.68,-15.96,-30.52,1729425969748.0,0.0
-2.266003,-1.727618,-10.028319,9.59,-25.41,-30.1,1729425969767.0,0.0
-1.74676,-0.923629,-10.710274,10.15,-19.110001,-29.82,1729425969790.0,0.0
-1.782653,-0.557528,-9.966106,8.75,-10.22,-24.710001,1729425969808.0,0.0
-1.631905,0.119641,-9.394222,14.14,-8.82,-15.75,1729425969826.0,0.0
-1.512264,0.691526,-9.269794,20.23,-11.34,-3.01,1729425969848.0,0.0
-1.287339,0.600598,-9.846465,14.84,-11.41,6.72,1729425969869.0,0.0
-1.45005,0.277567,-9.839286,8.26,-3.99,17.360001,1729425969890.0,0.0
-2.426322,-0.098106,-9.461221,3.08,7.63,27.440001,1729425969909.0,0.0
-2.957529,-0.878166,-9.461221,-9.24,11.06,32.200001,1729425969929.0,0.0
-3.404987,-2.048256,-8.927622,-12.81,7.56,33.950001,1729425969947.0,0.0
-4.031906,-2.76371,-10.028319,-17.57,11.55,29.120001,1729425969968.0,0.0
-4.350152,-3.091527,-10.200603,-2.38,9.45,18.969999,1729425969990.0,0.0
-4.376472,-2.909672,-10.325029,7.91,9.52,11.27,1729425970010.0,0.0
-4.086941,-2.823531,-10.040283,-7.56,9.1,-1.4,1729425970027.0,0.0
-3.60359,-3.208775,-9.667004,-15.54,7.56,-12.32,1729425970050.0,0.0
-3.412165,-2.907279,-9.152546,-7.84,7.21,-21.07,1729425970068.0,0.0
-3.189633,-2.825923,-9.375079,7.42,6.16,-26.110001,1729425970090.0,0.0
-2.924029,-2.423929,-9.343972,16.17,6.09,-30.309999,1729425970108.0,0.0
-2.665605,-1.820938,-9.288938,14.35,7.91,-33.389999,1729425970127.0,0.0
-2.328217,-1.368695,-8.891729,5.53,6.09,-36.82,1729425970149.0,0.0
-1.923829,-0.820738,-8.482556,-2.94,-0.21,-37.450001,1729425970169.0,0.0
-1.459622,-0.33021,-8.898908,-4.83,-9.17,-34.09,1729425970188.0,0.0
-1.20359,0.150748,-8.901299,-5.39,-15.4,-27.51,1729425970208.0,0.0
-1.672583,0.253639,-9.150154,-7.91,-8.33,-14.98,1729425970227.0,0.0
-2.380858,0.433101,-9.879964,-9.73,-2.94,-1.89,1729425970247.0,0.0
-3.012564,0.200997,-10.595419,-20.370001,0.35,11.34,1729425970268.0,0.0
-3.847659,-1.251446,-10.435099,-36.470001,10.29,18.549999,1729425970291.0,0.0
-4.106083,-2.400001,-10.246067,-26.110001,10.92,22.049999,1729425970377.0,0.0
-4.082155,-1.586441,-10.956735,26.74,11.69,31.5,1729425970377.0,0.0
-4.144369,-1.543371,-10.779665,20.16,19.74,29.68,1729425970377.0,0.0
-4.007978,-2.459821,-10.145569,7.07,24.15,25.969999,1729425970378.0,0.0
-3.534199,-3.515057,-9.099905,4.13,20.719999,17.43,1729425970395.0,0.0
-2.888137,-3.596412,-8.46102,8.12,12.46,7.0,1729425970407.0,0.0
-2.505285,-3.259024,-8.65484,16.309999,10.85,-3.71,1729425970427.0,0.0
-2.347359,-3.098706,-8.757731,18.41,9.94,-15.12,1729425970447.0,0.0
-2.179861,-2.940779,-8.865408,19.6,6.02,-22.82,1729425970467.0,0.0
-1.945365,-2.562713,-8.482556,21.49,2.73,-27.58,1729425970488.0,0.0
-1.655833,-1.935793,-8.427521,21.210001,-1.89,-29.75,1729425970507.0,0.0
-1.205983,-1.033699,-8.896514,18.41,-11.41,-29.68,1729425970527.0,0.0
-1.189233,-0.574277,-8.152347,12.04,-16.52,-23.870001,1729425970546.0,0.0
-1.986043,-1.038485,-9.422935,6.93,-8.33,-12.74,1729425970567.0,0.0
-2.40718,-0.538385,-10.595419,-11.83,-4.2,-6.44,1729425970589.0,0.0
-2.811567,-0.007178,-10.801201,-30.940001,2.03,7.07,1729425970607.0,0.0
-3.522235,-1.112662,-10.001998,-45.920002,14.35,17.710001,1729425970626.0,0.0
-3.754339,-3.426522,-10.657632,-3.85,9.8,34.23,1729425970647.0,0.0
-3.345166,-2.112862,-11.301301,45.639999,6.86,45.5,1729425970667.0,0.0
-3.538985,-1.304088,-10.80838,46.970001,18.34,45.080002,1729425970692.0,0.0
-3.739982,-2.459821,-10.334601,9.52,28.91,31.639999,1729425970708.0,0.0
-3.273381,-3.931407,-9.406186,-2.8,22.889999,17.57,1729425970727.0,0.0
-2.718246,-4.101298,-8.752945,11.69,17.290001,5.81,1729425970747.0,0.0
-2.471786,-3.68734,-8.843873,31.360001,19.32,-7.28,1729425970767.0,0.0
-2.273181,-2.9671,-8.776874,34.509998,18.34,-20.860001,1729425970788.0,0.0
-1.986043,-2.78046,-8.480164,25.34,12.74,-32.48,1729425970807.0,0.0
-1.801795,-2.431108,-8.432307,14.0,8.75,-41.790001,1729425970826.0,0.0
-1.473979,-1.476372,-8.530413,9.8,0.63,-45.009998,1729425970847.0,0.0
-1.026521,-0.739382,-9.047262,-4.83,-5.6,-44.310001,1729425970868.0,0.0
-1.129412,0.0335,-9.372685,-21.98,-2.87,-36.82,1729425970889.0,0.0
-2.057827,0.339781,-9.51147,-29.889999,7.42,-22.469999,1729425970906.0,0.0
-2.548356,0.413958,-10.468598,-47.459999,13.79,-10.78,1729425970926.0,0.0
-2.438286,-0.823131,-10.616954,-56.98,9.24,3.08,1729425970948.0,0.0
-2.196611,-2.0004,-10.432706,-47.880001,5.32,14.7,1729425970966.0,0.0
-2.285146,-1.526621,-10.683953,-5.95,12.67,27.02,1729425970989.0,0.0
-2.199004,-1.354338,-11.047661,11.55,16.940001,30.450001,1729425971009.0,0.0
-2.067399,-1.275374,-10.131211,23.66,18.969999,35.77,1729425971027.0,0.0
-2.325824,-2.122434,-8.245667,24.639999,20.719999,38.360001,1729425971047.0,0.0
-2.610569,-3.376273,-7.999206,23.66,18.200001,34.93,1729425971067.0,0.0
-2.342573,-4.182654,-8.587841,28.210001,9.24,26.110001,1729425971088.0,0.0
-1.820938,-5.158926,-9.698111,62.23,1.47,21.139999,1729425971106.0,0.0
-1.351945,-6.283553,-9.19801,125.160004,-0.07,17.290001,1729425971128.0,0.0
-1.335195,-6.659225,-7.367501,187.809998,2.8,14.7,1729425971147.0,0.0
-1.765903,-6.142376,-5.735595,237.860001,-2.66,10.29,1729425971166.0,0.0
-2.218147,-5.656632,-6.293124,269.290009,-18.129999,4.9,1729425971190.0,0.0
-2.59382,-5.539384,-6.515656,277.130005,-37.380001,4.13,1729425971209.0,0.0
-2.811567,-6.786045,-8.082954,282.519989,-49.209999,14.7,1729425971227.0,0.0
-2.720639,-8.078169,-9.375079,299.040009,-63.490002,27.09,1729425971247.0,0.0
-2.376073,-9.420543,-10.552348,387.730011,-73.639999,52.150002,1729425971268.0,0.0
-2.014757,-10.820344,-9.805787,536.549988,-78.400002,87.080002,1729425971289.0,0.0
-2.117648,-8.992228,-6.233303,623.909973,-58.380001,105.629997,1729425971307.0,0.0
-3.749553,-9.343972,-2.404787,610.609985,-14.77,97.440002,1729425971326.0,0.0
-4.886144,-9.389436,-0.184247,548.450012,-21.280001,81.129997,1729425971346.0,0.0
-4.304688,-7.996813,1.134198,484.890015,-40.670002,63.349998,1729425971367.0,0.0
-3.168097,-5.680561,3.292524,403.549988,-36.610001,38.150002,1729425971388.0,0.0
-4.065405,-5.084748,5.520242,298.059998,-2.52,17.5,1729425971407.0,0.0
-5.644669,-6.211767,6.18784,191.449997,11.48,-5.04,1729425971428.0,0.0
-5.096712,-6.606583,6.257231,116.059998,-4.69,-23.940001,1729425971446.0,0.0
-4.280759,-6.642475,6.991827,67.269997,-15.4,-33.32,1729425971466.0,0.0
-3.847659,-7.365108,6.58744,47.880001,-13.3,-42.77,1729425971489.0,0.0
-3.783052,-6.762117,6.573084,53.970001,-2.1,-43.610001,1729425971507.0,0.0
-4.134798,-5.362316,6.319445,70.559998,3.78,-32.549999,1729425971526.0,0.0
-4.225725,-4.622933,6.580262,80.709999,4.2,-39.130001,1729425971547.0,0.0
-3.68734,-2.912065,7.020542,74.760002,3.08,-36.189999,1729425971566.0,0.0
-3.402594,-1.90708,6.582655,52.709999,0.21,-21.49,1729425971588.0,0.0
-2.701497,-1.308874,6.9679,17.92,-0.07,-12.46,1729425971607.0,0.0
-2.591427,-1.488336,7.707282,-22.4,3.85,3.78,1729425971626.0,0.0
-4.12044,-5.259424,8.037491,-49.490002,6.58,12.25,1729425971646.0,0.0
-4.414758,-6.585048,7.006185,-47.25,2.87,17.710001,1729425971667.0,0.0
-3.127419,-5.812167,6.34098,-10.01,-10.92,19.67,1729425971692.0,0.0
-2.828316,-4.335794,6.070591,15.05,-9.8,29.68,1729425971706.0,0.0
-3.120241,-4.15394,5.522634,23.379999,3.5,35.84,1729425971727.0,0.0
-4.445865,-5.678168,5.766702,17.92,12.81,36.959999,1729425971746.0,0.0
-6.252446,-8.135597,6.410372,20.719999,23.870001,34.580002,1729425971766.0,0.0
-7.692925,-10.212566,7.300502,19.6,23.450001,7.98,1729425971790.0,0.0
-7.865208,-8.922836,6.91765,23.309999,15.190001,-19.18,1729425971808.0,0.0
-5.721239,-5.393422,7.520642,30.17,-2.1,-27.370001,1729425971825.0,0.0
-5.879165,-5.252246,6.84108,16.59,9.52,-30.870001,1729425971846.0,0.0
-7.142576,-5.364708,5.65424,18.9,25.620001,-46.830002,1729425971867.0,0.0
-5.606383,-3.409772,5.893522,43.400002,8.12,-47.110001,1729425971889.0,0.0
-4.304688,-2.277967,7.142576,42.91,1.4,-38.779999,1729425971907.0,0.0
-3.754339,-2.754139,8.169096,7.84,11.55,-37.099998,1729425971926.0,0.0
-3.665804,-3.897908,8.123632,-40.740002,6.72,-35.630001,1729425971946.0,0.0
-3.139383,-3.388237,6.496514,-45.009998,-2.31,-5.39,1729425971968.0,0.0
-4.046263,-4.926822,6.647261,-12.04,-5.95,9.31,1729425971989.0,0.0
-5.053641,-3.436093,5.233103,-18.83,20.370001,14.07,1729425972006.0,0.0
-3.330809,-1.318445,7.068398,-1.05,-20.16,34.650002,1729425972027.0,0.0
-2.658426,-2.998207,7.74796,-30.030001,-31.92,35.91,1729425972046.0,0.0
-5.197211,-8.336594,7.432107,-50.959999,-18.969999,39.900002,1729425972066.0,0.0
-5.848059,-11.073983,6.195018,-22.540001,-16.870001,38.709999,1729425972089.0,0.0
-5.716454,-11.320443,6.348158,3.01,-11.2,9.38,1729425972106.0,0.0
-5.723632,-8.52802,6.520442,12.74,-3.08,-16.1,1729425972125.0,0.0
-3.811767,-5.441278,7.477571,25.34,-12.18,-22.610001,1729425972147.0,0.0
-3.783052,-5.034499,6.709475,2.31,-1.68,-32.060001,1729425972166.0,0.0
-4.888536,-5.419744,6.257231,-4.06,11.06,-30.380001,1729425972188.0,0.0
-4.302295,-4.127619,6.448657,7.35,6.65,-29.68,1729425972207.0,0.0
-3.354738,-2.651247,6.869793,7.21,2.31,-22.75,1729425972226.0,0.0
-2.938386,-2.26361,7.329216,-12.6,1.89,-9.66,1729425972246.0,0.0
-2.87378,-2.368894,7.097112,-31.08,1.47,1.82,1729425972267.0,0.0
-3.627519,-4.223332,8.056634,-25.27,-0.49,16.309999,1729425972288.0,0.0
-5.472386,-5.558527,6.388836,-24.710001,9.38,16.309999,1729425972306.0,0.0
-3.321238,-2.261217,7.56132,6.44,-21.629999,30.24,1729425972326.0,0.0
-1.706082,-1.643869,8.750552,-3.01,-34.02,37.240002,1729425972345.0,0.0
-3.117848,-4.407579,7.77428,-38.43,-15.47,47.880001,1729425972366.0,0.0
-4.948357,-8.173882,6.118448,-39.130001,-11.83,62.790001,1729425972389.0,0.0
-4.756931,-10.502099,5.501099,-17.01,-11.41,47.740002,1729425972407.0,0.0
-5.680561,-11.586047,5.479564,0.63,-5.95,23.17,1729425972425.0,0.0
-5.474778,-8.913264,6.501299,45.150002,-0.49,9.38,1729425972447.0,0.0
-4.17069,-5.048856,7.020542,49.139999,3.78,-8.96,1729425972465.0,0.0
-4.835894,-5.084748,6.099305,8.54,12.32,-11.83,1729425972489.0,0.0
-5.254639,-5.510671,4.740182,-14.0,15.05,-18.620001,1729425972508.0,0.0
-4.0008,-4.24726,5.257031,14.91,5.18,-15.4,1729425972525.0,0.0
-3.871587,-3.017349,6.257231,29.540001,18.27,-11.2,1729425972546.0,0.0
-4.541577,-2.995814,6.84108,13.23,28.559999,-1.96,1729425972566.0,0.0
-3.900301,-2.87378,7.259824,-7.07,24.01,3.22,1729425972587.0,0.0
-3.567699,-2.651247,6.975078,-31.08,20.93,15.05,1729425972606.0,0.0
-4.141976,-4.163511,6.798009,-38.009998,19.18,29.469999,1729425972626.0,0.0
-5.601598,-4.993821,6.611369,-33.599998,26.18,36.75,1729425972646.0,0.0
-4.87418,-5.733203,8.618947,-12.39,1.68,40.740002,1729425972666.0,0.0
-5.486742,-7.377072,7.601997,-39.759998,0.49,31.780001,1729425972692.0,0.0
-5.955735,-7.233503,5.185246,-35.0,-3.22,38.290001,1729425972706.0,0.0
-8.525627,-8.252845,3.570091,-23.940001,9.17,23.52,1729425972726.0,0.0
-8.030313,-10.298709,6.233303,-1.89,-5.74,-6.02,1729425972746.0,0.0
-5.407779,-9.934999,9.099905,1.26,-15.33,-33.040001,1729425972765.0,0.0
-4.529613,-8.382057,8.908479,-25.969999,-2.31,-40.950001,1729425972787.0,0.0
-6.139983,-9.343972,6.625726,-50.470001,2.38,-36.82,1729425972807.0,0.0
-5.60399,-7.60439,5.271388,-34.580002,-3.92,-72.940002,1729425972825.0,0.0
-3.07717,-3.905087,6.733403,36.959999,-30.309999,-53.970001,1729425972845.0,0.0
-3.318845,-1.911865,4.819145,37.939999,-3.78,-64.190002,1729425972866.0,0.0
-3.495914,-0.461815,5.47717,12.53,-2.03,-53.34,1729425972887.0,0.0
-3.481557,-2.117648,6.12084,-16.309999,-10.29,-33.950001,1729425972905.0,0.0
-4.084548,-4.979464,6.855437,-47.950001,-3.22,-33.110001,1729425972927.0,0.0
-3.486342,-4.35733,4.900501,-44.099998,-9.87,-30.1,1729425972946.0,0.0
-3.768696,-5.063213,6.908078,-14.56,-1.82,-12.18,1729425972965.0,0.0
-4.208975,-2.28036,5.182854,-8.82,8.54,17.780001,1729425972988.0,0.0
-3.129812,-1.028914,5.465207,12.32,-4.41,19.530001,1729425973006.0,0.0
-3.328416,-1.689333,5.075177,1.47,0.91,46.130001,1729425973025.0,0.0
-4.895715,-3.909872,5.649454,-18.27,20.299999,55.02,1729425973046.0,0.0
-6.54437,-6.06102,5.912664,-25.129999,16.17,68.529999,1729425973066.0,0.0
-7.300502,-8.898908,7.302894,-8.4,4.9,65.169998,1729425973089.0,0.0
-8.355737,-11.349157,7.613962,-2.66,4.83,48.720001,1729425973106.0,0.0
-8.274381,-13.686946,6.355337,-3.64,-1.61,12.25,1729425973125.0,0.0
-5.185246,-10.470992,5.223531,18.969999,-11.83,-11.06,1729425973145.0,0.0
-4.261617,-7.872386,6.204589,38.57,1.61,-16.17,1729425973165.0,0.0
-6.350551,-8.508877,6.058627,7.42,18.620001,-43.470001,1729425973187.0,0.0
-4.744967,-8.109276,5.809773,-5.04,-4.34,-61.459999,1729425973205.0,0.0
-2.775674,-5.931807,6.393622,14.35,-15.05,-54.110001,1729425973226.0,0.0
-2.859423,-3.345166,6.800402,29.26,0.21,-39.27,1729425973245.0,0.0
-3.215954,-2.041078,6.941578,28.630001,10.99,-27.299999,1729425973265.0,0.0
-3.081956,-1.493121,6.728617,-0.49,9.87,-18.690001,1729425973292.0,0.0
-4.101298,-3.976871,6.386444,-26.880001,2.17,-2.31,1729425973306.0,0.0
-5.003392,-4.84068,5.623133,-37.310001,7.07,4.9,1729425973325.0,0.0
-3.512664,-2.78046,6.613762,0.84,-8.96,28.0,1729425973345.0,0.0
-2.371287,-1.706082,6.221339,-11.34,-17.219999,36.889999,1729425973366.0,0.0
-3.871587,-4.723432,6.498906,-30.17,-7.49,55.650002,1729425973388.0,0.0
-6.920043,-10.329816,6.687939,-24.99,-3.85,57.68,1729425973406.0,0.0
-8.513663,-14.445471,6.664011,20.790001,3.43,41.02,1729425973426.0,0.0
-9.018548,-11.839686,7.305287,39.619999,2.94,8.12,1729425973446.0,0.0
-6.266802,-6.98465,5.704489,36.959999,-25.059999,-26.530001,1729425973473.0,0.0
-3.101098,-5.120641,5.565705,22.68,-30.59,-36.400002,1729425973488.0,0.0
-4.931608,-6.723832,5.659025,6.3,-0.84,-48.720001,1729425973505.0,0.0
-4.326223,-5.223531,5.71406,22.960001,-3.5,-45.080002,1729425973527.0,0.0
