acc_x,acc_y,acc_z,gyr_x,gyr_y,gyr_z,timestamp,label
-2.89053,-13.89512,-2.598605,-20.299999,13.65,-85.68,1729429673317.0,0.0
-1.880759,-12.397215,-2.809174,-4.97,18.41,-88.410004,1729429673320.0,0.0
-2.909672,-11.100305,-3.132205,29.68,31.01,-110.040001,1729429673321.0,0.0
-3.213561,-9.877571,-3.814159,67.830002,35.77,-122.57,1729429673322.0,0.0
-2.225325,-9.083155,-3.629912,102.340004,31.85,-122.919998,1729429673335.0,0.0
-1.447658,-8.537591,-3.132205,126.489998,30.52,-123.199997,1729429673355.0,0.0
-1.29691,-7.144968,-2.419144,139.509995,30.799999,-118.790001,1729429673375.0,0.0
-1.024128,-6.427122,-1.150948,143.639999,26.6,-104.090004,1729429673396.0,0.0
-0.078963,-4.266403,-1.548156,116.199997,22.610001,-93.099998,1729429673416.0,0.0
0.361316,-3.285345,-0.921237,97.370003,25.41,-60.200001,1729429673435.0,0.0
0.739382,2.478964,1.866402,92.470001,14.7,-13.3,1729429673455.0,0.0
3.314059,5.125426,3.783052,89.32,14.49,49.209999,1729429673475.0,0.0
-0.698704,-5.900701,2.98385,-161.699997,47.670002,110.32,1729429673498.0,0.0
-3.795017,-12.354142,2.218147,-268.029999,31.01,166.320007,1729429673516.0,0.0
-3.548556,-2.581856,4.912465,-223.720001,-18.9,227.430008,1729429673535.0,0.0
-11.370694,-8.611769,-4.642076,-301.350006,-28.559999,203.910004,1729429673556.0,0.0
-18.185452,-16.208981,-15.603597,-274.75,-47.389999,144.199997,1729429673576.0,0.0
-15.168103,-13.380664,-13.940585,-139.649994,-12.39,57.470001,1729429673597.0,0.0
-7.65464,-18.163916,-7.140182,-14.14,28.77,20.51,1729429673616.0,0.0
-1.864009,-15.763916,-4.192225,55.16,16.940001,-37.099998,1729429673634.0,0.0
1.275374,-14.00519,-3.404987,117.949997,20.02,-61.529999,1729429673656.0,0.0
0.777667,-11.96172,-2.108077,76.300003,29.26,-77.559998,1729429673676.0,0.0
-0.256032,-11.985649,-1.603191,-0.42,43.540001,-85.540001,1729429673696.0,0.0
0.172283,-11.97847,-1.861616,-40.25,35.07,-82.110001,1729429673716.0,0.0
-0.392423,-10.092925,-3.309274,-64.82,42.420002,-91.629997,1729429673735.0,0.0
-0.684347,-8.578269,-4.570292,-103.32,47.599998,-102.059998,1729429673755.0,0.0
-0.782453,-8.504091,-4.919643,-123.900002,46.830002,-99.120003,1729429673775.0,0.0
-0.710668,-7.996813,-4.833502,-127.68,46.27,-100.029999,1729429673797.0,0.0
0.289532,-8.063812,-5.508278,-106.610001,43.540001,-96.949997,1729429673815.0,0.0
0.528814,-7.389036,-5.589634,-38.43,37.73,-89.529999,1729429673835.0,0.0
0.413958,-5.970093,-5.577669,-24.57,31.85,-91.07,1729429673856.0,0.0
0.354138,-6.017949,-5.158926,-36.82,24.5,-86.379997,1729429673874.0,0.0
0.806381,-6.675975,-4.194618,-43.75,12.11,-82.529999,1729429673901.0,0.0
0.794417,-5.627919,-3.802195,-52.150002,1.68,-80.779999,1729429673916.0,0.0
-0.20339,-4.625326,-4.204189,-54.950001,-8.54,-70.629997,1729429673935.0,0.0
-1.629512,-5.426922,-5.551349,-62.580002,-17.639999,-58.66,1729429673956.0,0.0
-2.203789,-6.905686,-5.836094,-103.040001,-11.97,-48.369999,1729429673975.0,0.0
-2.488536,-7.101898,-5.680561,-107.940002,-9.24,-38.009998,1729429673997.0,0.0
-3.37388,-6.34098,-6.348158,-78.68,-9.17,-29.190001,1729429674015.0,0.0
-3.074777,-6.357729,-6.374479,-58.380001,-10.29,-15.4,1729429674035.0,0.0
-3.37388,-7.41775,-6.776474,-33.389999,-11.06,-2.52,1729429674055.0,0.0
-4.165904,-7.499106,-6.788438,-25.34,-7.28,-0.07,1729429674075.0,0.0
-3.199204,-7.769495,-7.082755,-51.380001,-4.48,-1.33,1729429674101.0,0.0
-2.017149,-8.362915,-7.783852,-47.040001,-0.07,0.91,1729429674117.0,0.0
-2.096112,-7.618747,-7.676175,-10.43,8.12,-0.77,1729429674137.0,0.0
-0.327817,-7.953743,-7.733603,17.99,4.69,0.07,1729429674156.0,0.0
-0.212961,-7.865208,-7.042077,29.75,7.07,1.54,1729429674174.0,0.0
-1.095913,-7.829315,-6.597012,13.23,12.11,0.21,1729429674201.0,0.0
-1.363909,-8.047063,-7.477571,-9.52,11.62,-6.65,1729429674216.0,0.0
-0.524028,-7.757531,-7.439285,-27.16,8.68,-14.77,1729429674236.0,0.0
-0.327817,-7.788638,-7.200003,-25.969999,5.18,-18.9,1729429674255.0,0.0
-0.363709,-7.092326,-7.178468,-18.34,4.41,-22.120001,1729429674275.0,0.0
0.258425,-6.989435,-7.125826,-23.73,3.29,-22.469999,1729429674297.0,0.0
0.710668,-5.807381,-7.539784,-16.73,0.91,-19.460001,1729429674315.0,0.0
1.009771,-7.025328,-7.618747,-7.98,-0.77,-13.37,1729429674336.0,0.0
0.605384,-6.833901,-7.020542,1.33,3.92,-11.06,1729429674355.0,0.0
-0.102891,-7.379465,-6.680761,7.0,4.97,-9.38,1729429674374.0,0.0
-0.155533,-7.458428,-6.867401,-1.96,4.83,-12.11,1729429674396.0,0.0
0.124427,-7.281359,-7.317252,-4.27,3.43,-13.65,1729429674415.0,0.0
0.167498,-7.317252,-6.537192,13.02,1.19,-11.34,1729429674434.0,0.0
-0.267996,-6.362515,-6.039484,28.700001,-2.87,-10.08,1729429674456.0,0.0
-0.282353,-6.130411,-6.532406,13.93,-5.81,-5.67,1729429674475.0,0.0
0.387637,-6.563512,-7.51107,-7.14,-7.56,-0.49,1729429674498.0,0.0
0.27996,-6.989435,-7.401,-20.440001,-7.98,0.14,1729429674524.0,0.0
0.543171,-6.888937,-7.408179,-31.43,-10.29,-4.48,1729429674534.0,0.0
0.705883,-6.754939,-7.592427,-35.139999,-12.11,-5.39,1729429674554.0,0.0
0.215354,-7.176075,-7.843673,-35.98,-10.01,-5.25,1729429674578.0,0.0
-0.047856,-7.063612,-7.834101,-27.719999,-7.63,-5.18,1729429674596.0,0.0
-0.538385,-6.946364,-7.491928,-25.41,-4.55,-5.04,1729429674616.0,0.0
-0.435494,-6.908078,-7.546963,-23.66,-5.81,-3.85,1729429674635.0,0.0
-0.464208,-6.831509,-8.049455,-18.41,-9.03,-2.45,1729429674655.0,0.0
-0.959522,-6.709475,-8.140383,-31.08,-6.93,-4.13,1729429674675.0,0.0
-0.914058,-6.888937,-8.255238,-39.689999,-4.62,-6.51,1729429674698.0,0.0
-0.581456,-6.905686,-8.051848,-24.15,-4.55,-7.98,1729429674715.0,0.0
-0.777667,-6.4678,-8.317451,-6.93,-3.92,-10.29,1729429674735.0,0.0
-1.071985,-6.266802,-8.647661,-16.52,-2.8,-13.3,1729429674756.0,0.0
-0.557528,-6.285945,-8.370094,-29.190001,-1.47,-15.12,1729429674776.0,0.0
-0.339781,-6.276374,-8.671589,-12.67,1.68,-14.77,1729429674799.0,0.0
-0.736989,-5.302495,-8.662018,-10.92,6.79,-15.12,1729429674816.0,0.0
-0.732204,-5.584848,-8.501699,-22.610001,10.85,-13.440001,1729429674836.0,0.0
-0.404387,-5.795416,-9.719646,3.36,10.78,-12.39,1729429674856.0,0.0
0.102891,-4.721039,-9.932607,23.17,12.6,-14.77,1729429674876.0,0.0
0.464208,-3.952943,-9.001799,8.75,16.870001,-11.83,1729429674898.0,0.0
0.20339,-5.582455,-9.111869,-10.01,22.33,-8.61,1729429674917.0,0.0
-0.0335,-5.268995,-8.848659,0.28,25.34,-9.31,1729429674936.0,0.0
-0.107677,-5.206782,-8.752945,6.51,24.92,-8.89,1729429674956.0,0.0
0.39003,-5.398208,-9.631111,9.52,19.530001,-8.54,1729429674975.0,0.0
0.772882,-4.811966,-11.095518,14.0,21.77,-5.11,1729429675001.0,0.0
-1.777867,-9.322437,6.946364,22.4,25.200001,7.91,1729429675019.0,0.0
-2.931208,-7.530212,-3.706482,36.049999,-28.49,-6.09,1729429675037.0,0.0
-1.67019,-5.525027,-11.344372,64.959999,-47.459999,-20.860001,1729429675058.0,0.0
0.768096,-5.553742,-10.643275,20.440001,-29.049999,0.28,1729429675077.0,0.0
1.438086,-5.187639,-7.097112,64.75,-11.2,13.37,1729429675100.0,0.0
2.167897,-5.496314,-7.092326,82.529999,-16.940001,21.35,1729429675118.0,0.0
3.359523,-6.659225,-9.059227,50.470001,-17.08,20.790001,1729429675139.0,0.0
4.139583,-9.446864,-10.090532,85.050003,-12.88,20.719999,1729429675157.0,0.0
4.658825,-10.057034,-7.41775,193.059998,-3.99,21.84,1729429675179.0,0.0
4.096512,-8.348558,-4.199404,287.070007,-0.42,22.889999,1729429675202.0,0.0
3.553342,-6.965507,-2.419144,378.769989,-10.57,33.880001,1729429675218.0,0.0
2.935993,-6.427122,-0.437887,473.549988,-21.280001,59.43,1729429675241.0,0.0
2.139183,-5.312066,2.215754,522.76001,-18.549999,84.139999,1729429675258.0,0.0
-0.088534,-5.096712,3.656233,474.459991,-13.93,97.790001,1729429675277.0,0.0
-3.438486,-8.740981,6.07777,411.880005,-22.049999,110.389999,1729429675300.0,0.0
-4.488935,-9.999605,5.4676,370.019989,-23.24,88.480003,1729429675318.0,0.0
-3.570091,-9.030513,5.32403,326.829987,-18.27,74.900002,1729429675337.0,0.0
-1.586441,-9.693325,4.096512,293.160004,-8.96,73.779999,1729429675357.0,0.0
-0.758525,-9.025726,4.09412,241.990005,10.85,66.919998,1729429675378.0,0.0
-1.29691,-10.346564,4.632504,139.089996,16.1,60.130001,1729429675400.0,0.0
-0.799203,-11.454442,5.862415,-7.84,7.0,41.299999,1729429675419.0,0.0
-1.339981,-12.433105,4.424329,-80.989998,-6.93,25.9,1729429675437.0,0.0
-3.567699,-14.325829,6.285945,-162.960007,-21.49,-3.92,1729429675456.0,0.0
-3.239882,-12.622139,3.404987,-246.680008,-31.92,-45.43,1729429675479.0,0.0
-0.165105,-9.408579,0.602991,-320.880005,-31.43,-76.160004,1729429675502.0,0.0
0.131605,-9.224331,1.457229,-404.25,-14.63,-102.129997,1729429675519.0,0.0
-3.053242,-9.882358,2.158326,-479.779999,-8.33,-101.639999,1729429675537.0,0.0
-1.76351,-8.207381,1.847259,-431.410004,2.03,-110.599998,1729429675557.0,0.0
-0.311067,-3.945765,-0.265603,-416.570007,7.07,-96.949997,1729429675577.0,0.0
-1.61037,-3.84048,0.236889,-462.700012,6.65,-60.970001,1729429675601.0,0.0
-1.562513,-9.52822,-6.049056,-425.73999,7.56,-24.15,1729429675617.0,0.0
-1.852045,-9.722038,-7.429714,-216.509995,23.17,0.07,1729429675636.0,0.0
-2.005185,-9.049655,-6.534799,-77.139999,18.620001,10.08,1729429675657.0,0.0
0.4666,-9.054441,-6.312266,-42.349998,15.26,10.29,1729429675678.0,0.0
1.751546,-9.305687,-5.757132,-4.69,13.65,7.77,1729429675701.0,0.0
1.478764,-6.726225,-5.067998,8.47,16.1,2.52,1729429675718.0,0.0
0.653241,-9.489935,-4.744967,43.259998,6.93,1.82,1729429675736.0,0.0
0.746561,-11.619547,-4.785645,264.110016,-23.940001,8.82,1729429675767.0,0.0
1.59362,-11.124231,-6.884151,408.869995,-46.41,3.08,1729429675778.0,0.0
1.674976,-9.116654,-6.147161,456.679993,-43.610001,2.24,1729429675802.0,0.0
1.057628,-6.963113,-1.65344,420.910004,-29.120001,2.73,1729429675817.0,0.0
-0.411566,-6.4678,0.208176,353.570007,-25.48,5.74,1729429675838.0,0.0
-2.605784,-8.382057,1.249053,270.480011,-9.31,-8.61,1729429675856.0,0.0
-0.01675,-4.558327,3.481557,92.330002,-0.28,-28.700001,1729429675876.0,0.0
0.677169,-3.95055,2.273181,-145.880005,-7.84,1.54,1729429675900.0,0.0
0.457029,-7.635497,-1.624727,-366.029999,-8.54,-27.51,1729429675917.0,0.0
1.158126,-9.638289,-5.501099,-431.690002,-15.190001,-33.880001,1729429675937.0,0.0
2.478964,-7.587641,-6.996613,-379.049988,4.48,-28.210001,1729429675958.0,0.0
1.392623,-2.916851,-4.07737,-355.459991,14.63,-15.05,1729429675976.0,0.0
2.478964,-3.699304,-9.12144,-425.73999,7.49,-1.47,1729429675998.0,0.0
2.95035,-14.983855,-15.735202,-472.290009,-6.79,-21.700001,1729429676018.0,0.0
0.454636,-18.99901,-12.399607,-299.73999,15.05,-30.450001,1729429676036.0,0.0
-0.598206,-8.882158,-8.061419,32.34,38.009998,-19.950001,1729429676068.0,0.0
-0.784846,-5.257031,-6.314659,271.390015,-1.68,27.440001,1729429676078.0,0.0
-1.945365,-7.467999,-1.586441,205.309998,34.02,37.59,1729429676104.0,0.0
-3.555735,-10.411172,-3.101098,191.169998,39.200001,33.25,1729429676117.0,0.0
-1.74676,-12.378072,-7.082755,279.230011,37.240002,42.139999,1729429676137.0,0.0
0.854238,-8.465806,-2.055435,466.690002,6.23,61.459999,1729429676156.0,0.0
2.78046,-7.152147,0.325424,745.919983,-32.970001,82.040001,1729429676177.0,0.0
1.270589,-3.562913,3.096312,799.330017,48.09,74.199997,1729429676202.0,0.0
-6.305088,-3.692125,6.474977,446.25,109.129997,47.810001,1729429676216.0,0.0
-3.749553,-6.403193,2.646462,130.619995,-41.580002,92.400002,1729429676236.0,0.0
0.937986,-8.705089,4.577469,133.979996,-50.330002,66.43,1729429676257.0,0.0
-0.729811,-9.71486,2.050649,295.540009,6.16,48.369999,1729429676278.0,0.0
-3.869194,-8.429914,4.929214,405.929993,29.469999,44.310001,1729429676298.0,0.0
-6.960721,-6.312266,9.473185,310.23999,36.330002,51.310001,1729429676319.0,0.0
-4.685147,-7.022934,9.439686,148.050003,-3.92,22.120001,1729429676336.0,0.0
-3.330809,-6.326623,8.274381,11.48,-11.9,-9.52,1729429676356.0,0.0
-3.491128,-1.354338,10.657632,-26.880001,-15.26,15.190001,1729429676377.0,0.0
-1.136591,-4.850252,6.388836,-56.139999,-6.3,17.57,1729429676398.0,0.0
-2.163112,-8.135597,6.850651,-147.839996,-16.030001,-16.59,1729429676417.0,0.0
-1.993221,-10.499706,6.080163,-270.829987,-0.49,-25.76,1729429676437.0,0.0
-1.806581,-11.095518,5.462814,-316.890015,-12.18,-31.710001,1729429676456.0,0.0
0.095713,-8.226524,4.811966,-319.339996,1.47,-23.73,1729429676476.0,0.0
0.552742,-4.15394,2.979064,-395.98999,30.24,-48.16,1729429676500.0,0.0
-1.033699,-4.163511,-2.134398,-498.959991,25.549999,-44.380001,1729429676516.0,0.0
-1.045663,-8.60459,-3.582055,-541.940002,6.72,-24.219999,1729429676536.0,0.0
-3.318845,-10.671989,0.70349,-520.450012,-16.450001,-18.48,1729429676563.0,0.0
-1.95015,-10.889735,-3.759124,-457.029999,-24.43,-38.290001,1729429676576.0,0.0
0.602991,-7.338787,-5.709275,-397.390015,-40.25,-26.110001,1729429676602.0,0.0
0.923629,-7.37468,-10.013963,-383.529999,-27.790001,-16.870001,1729429676619.0,0.0
0.37328,-6.491727,-9.408579,-254.940002,-11.48,6.86,1729429676638.0,0.0
-0.143569,1.12702,-10.109675,-213.360001,18.48,29.33,1729429676657.0,0.0
-4.811966,-5.139783,-5.706882,-343.700012,12.11,39.34,1729429676677.0,0.0
-0.346959,-12.01197,-14.395222,-379.959991,-8.75,16.52,1729429676700.0,0.0
-0.019143,-7.802995,-11.600404,-196.630005,1.96,19.18,1729429676717.0,0.0
-2.124826,-6.333801,-7.645068,-8.05,31.85,10.29,1729429676739.0,0.0
-0.256032,-7.645068,-7.618747,-42.630001,30.52,4.13,1729429676757.0,0.0
-0.425922,-3.809374,-10.296316,18.549999,25.690001,3.36,1729429676777.0,0.0
-0.89013,-5.422136,-10.068997,55.510002,35.91,16.940001,1729429676801.0,0.0
-1.177269,-6.970293,-9.23151,83.860001,43.540001,25.620001,1729429676820.0,0.0
-1.72044,-6.297909,-6.144768,91.559998,44.799999,23.799999,1729429676838.0,0.0
-1.847259,-8.039884,-5.845665,105.840004,34.650002,28.700001,1729429676859.0,0.0
-1.713261,-8.779266,-4.572684,214.339996,10.08,36.049999,1729429676877.0,0.0
-2.316252,-7.082755,-4.737789,230.229996,-3.01,24.360001,1729429676902.0,0.0
-2.414358,-7.104291,-7.558927,170.940002,-13.37,13.79,1729429676920.0,0.0
-2.043471,-9.102298,-7.750352,151.899994,-16.66,10.01,1729429676937.0,0.0
-1.808974,-9.174082,-6.319445,147.630005,-19.040001,2.94,1729429676957.0,0.0
-1.878366,-7.690532,-5.123034,139.720001,-26.040001,-3.01,1729429676979.0,0.0
-1.184447,-5.996413,-6.647261,156.449997,-43.470001,3.01,1729429677000.0,0.0
-1.007378,-12.758532,-8.403593,358.470001,-46.060001,24.99,1729429677019.0,0.0
-1.567299,-8.295916,-7.312466,439.390015,-24.5,32.619999,1729429677039.0,0.0
-1.940579,-7.085148,-3.328416,388.98999,-2.24,15.68,1729429677060.0,0.0
-1.490728,-8.659625,-2.28036,229.389999,0.49,-11.2,1729429677080.0,0.0
-0.107677,-12.287145,-0.902094,152.600006,-19.040001,-23.309999,1729429677105.0,0.0
-1.115055,-7.735995,-0.81356,166.529999,-14.28,-18.76,1729429677119.0,0.0
-2.287539,-3.943372,2.416751,145.949997,10.78,-33.950001,1729429677141.0,0.0
-2.95035,-4.831109,3.852444,-7.0,-9.8,-21.210001,1729429677160.0,0.0
-1.241875,-8.645268,1.4668,-167.020004,-28.559999,-31.710001,1729429677179.0,0.0
0.059821,-11.940186,-0.928415,-227.220001,-36.259998,-42.07,1729429677206.0,0.0
0.665205,-11.394621,-3.270989,-199.289993,-31.780001,-42.139999,1729429677220.0,0.0
0.662812,-7.941778,-4.852644,-133.070007,-19.530001,-36.400002,1729429677240.0,0.0
0.526421,-8.673983,-4.328616,-93.660004,-1.19,-25.76,1729429677260.0,0.0
-0.212961,-8.472985,-4.572684,-124.459999,4.06,-22.049999,1729429677284.0,0.0
-0.200997,-11.952149,-3.701697,-125.650002,19.74,-21.210001,1729429677301.0,0.0
0.411566,-10.047462,-2.493321,-88.900002,13.440001,-9.73,1729429677319.0,0.0
-0.20339,-9.020942,-2.105684,-28.139999,17.85,2.45,1729429677339.0,0.0
-0.995414,-9.052048,-3.524628,-34.790001,21.42,-0.35,1729429677360.0,0.0
-1.464408,-11.023734,-4.539185,10.01,16.799999,13.51,1729429677380.0,0.0
-1.51705,-10.470992,-3.287738,99.959999,26.32,22.75,1729429677402.0,0.0
-1.526621,-8.855836,-0.507278,169.960007,26.25,29.049999,1729429677421.0,0.0
-1.928615,-8.539984,0.89013,159.320007,25.27,22.049999,1729429677440.0,0.0
-1.679761,-9.667004,-1.09352,118.650002,16.24,13.79,1729429677459.0,0.0
-0.765703,-10.152746,-1.387837,105.840004,2.03,22.540001,1729429677480.0,0.0
-0.89013,-10.092925,-1.493121,123.410004,4.62,22.26,1729429677500.0,0.0
-2.301895,-9.992428,0.232104,134.889999,21.98,16.52,1729429677521.0,0.0
-2.294717,-10.217353,0.27996,131.320007,16.870001,9.1,1729429677540.0,0.0
-1.464408,-9.915856,1.337588,121.800003,7.63,10.08,1729429677559.0,0.0
-1.318445,-9.583255,1.61037,109.480003,8.33,9.73,1729429677579.0,0.0
-1.919044,-9.485149,2.0004,100.660004,9.59,6.72,1729429677600.0,0.0
-2.287539,-9.958927,2.361716,108.639999,5.46,10.01,1729429677618.0,0.0
-1.864009,-10.140782,2.672783,124.529999,3.29,6.37,1729429677640.0,0.0
-0.969093,-9.238688,2.964707,125.510002,5.88,2.03,1729429677660.0,0.0
-2.053042,-9.008978,4.335794,97.160004,8.68,3.71,1729429677678.0,0.0
-2.084148,-9.578469,3.460021,52.709999,-0.28,0.84,1729429677702.0,0.0
-1.359123,-9.032906,3.438486,61.25,-3.64,0.63,1729429677720.0,0.0
-1.464408,-8.800802,4.046263,71.470001,4.13,-1.75,1729429677738.0,0.0
-1.871187,-8.908479,3.964907,56.139999,3.78,-3.43,1729429677759.0,0.0
-2.148755,-9.178867,3.943372,42.84,1.05,-1.4,1729429677778.0,0.0
-1.78026,-9.245867,3.818945,39.619999,-0.21,-5.25,1729429677801.0,0.0
-1.428515,-8.906086,4.130012,42.209999,1.33,-6.37,1729429677819.0,0.0
-1.227518,-8.748159,3.792624,39.200001,1.89,-8.12,1729429677840.0,0.0
-1.270589,-8.860621,3.78066,40.040001,1.96,-6.16,1729429677859.0,0.0
-1.17009,-8.676375,3.617948,51.52,4.76,-7.56,1729429677878.0,0.0
-1.579263,-9.090333,4.063013,72.239998,7.35,-7.42,1729429677901.0,0.0
-1.201197,-8.970692,3.78066,94.010002,11.13,-11.97,1729429677919.0,0.0
-1.213161,-7.326823,5.958128,95.269997,22.190001,-13.93,1729429677938.0,0.0
-1.962115,-6.85783,6.661618,53.970001,20.860001,-9.45,1729429677958.0,0.0
-1.643869,-7.999206,5.852845,10.71,8.54,-12.6,1729429677980.0,0.0
-1.323231,-8.647661,5.221139,7.07,6.72,-12.25,1729429678001.0,0.0
-1.40698,-7.566105,6.266802,-3.43,11.48,-11.34,1729429678021.0,0.0
-1.636691,-7.972885,5.752346,-30.030001,5.25,-14.21,1729429678038.0,0.0
-1.337588,-8.367701,5.592027,-48.580002,-0.35,-15.68,1729429678058.0,0.0
-0.961915,-8.039884,5.721239,-63.279999,-1.12,-15.54,1729429678078.0,0.0
-0.9667,-8.171489,5.383851,-89.529999,-0.91,-17.5,1729429678107.0,0.0
-1.091127,-8.338986,5.06082,-115.360001,-2.94,-17.99,1729429678119.0,0.0
-1.091127,-8.520842,4.567898,-134.259995,-4.97,-18.690001,1729429678140.0,0.0
-0.861416,-8.516055,4.235296,-143.360001,-9.1,-18.059999,1729429678158.0,0.0
-0.926022,-8.25763,3.751946,-140.490005,-7.28,-16.17,1729429678180.0,0.0
-0.880559,-8.336594,2.880959,-139.089996,-6.16,-15.12,1729429678202.0,0.0
-0.528814,-9.62154,1.476372,-140.0,-8.05,-16.17,1729429678218.0,0.0
-0.622134,-11.126624,0.732204,-125.230003,-5.74,-15.82,1729429678238.0,0.0
-0.612563,-10.229317,1.299303,-95.970001,0.35,-12.74,1729429678324.0,0.0
-0.557528,-9.226725,0.916451,-80.779999,0.28,-12.11,1729429678324.0,0.0
-0.856631,-9.147761,0.413958,-86.519997,1.12,-14.49,1729429678324.0,0.0
-0.801596,-9.834501,0.327817,-80.010002,-3.36,-11.27,1729429678326.0,0.0
-0.851845,-10.274779,1.048056,-55.860001,-2.38,-9.1,1729429678344.0,0.0
-0.861416,-9.659825,0.459422,-40.950001,-4.2,-9.31,1729429678360.0,0.0
-0.583849,-9.722038,-0.026321,-38.779999,-9.1,-7.7,1729429678377.0,0.0
-0.526421,-9.24826,-0.239282,-20.09,-5.39,-2.1,1729429678399.0,0.0
-0.911665,-9.755538,-0.339781,5.95,-0.77,3.08,1729429678419.0,0.0
-1.105484,-10.870593,0.241675,24.5,1.47,3.43,1729429678437.0,0.0
-0.935594,-10.396815,0.555135,38.43,2.52,3.71,1729429678459.0,0.0
-0.777667,-9.482756,0.62692,38.150002,3.29,4.06,1729429678478.0,0.0
-0.739382,-9.571291,0.672383,21.210001,2.94,0.56,1729429678499.0,0.0
-0.562313,-9.901501,0.866202,19.530001,0.21,4.41,1729429678521.0,0.0
-0.811167,-9.920642,1.552942,33.040001,2.94,3.85,1729429678538.0,0.0
-1.107877,-9.966106,1.462015,26.950001,0.21,2.24,1729429678557.0,0.0
-0.334995,-10.037891,0.394816,5.95,-8.47,-0.21,1729429678578.0,0.0
-0.038285,-9.822537,0.571885,7.49,-6.44,2.24,1729429678607.0,0.0
-0.684347,-9.932607,0.894916,23.450001,0.28,2.45,1729429678619.0,0.0
-0.961915,-9.65504,1.134198,27.299999,1.89,1.68,1729429678638.0,0.0
-0.787239,-10.394422,0.993021,-2.45,-1.33,-0.98,1729429678659.0,0.0
-0.57667,-10.159925,1.182054,-1.75,-1.54,-2.1,1729429678679.0,0.0
-0.825524,-9.834501,1.397408,5.46,2.59,-3.92,1729429678700.0,0.0
-0.899701,-9.851252,1.194018,-7.63,0.35,-6.51,1729429678719.0,0.0
-0.473779,-9.872787,0.835095,-23.309999,-1.68,-7.91,1729429678739.0,0.0
-0.543171,-9.925428,0.717847,-38.57,1.26,-10.92,1729429678759.0,0.0
-0.744168,-9.80818,0.837488,-38.709999,1.82,-8.96,1729429678779.0,0.0
-0.815953,-10.042676,1.18684,-29.75,0.14,-9.17,1729429678800.0,0.0
-0.849452,-10.049855,0.964308,-34.16,0.35,-13.3,1729429678820.0,0.0
-0.701097,-9.923036,0.356531,-58.66,-2.66,-16.940001,1729429678840.0,0.0
-0.258425,-10.119246,0.086142,-64.330002,-5.67,-15.61,1729429678859.0,0.0
-0.282353,-9.987641,0.246461,-62.650002,0.14,-17.360001,1729429678879.0,0.0
-0.51685,-9.616754,-0.366102,-77.07,-0.21,-19.460001,1729429678901.0,0.0
-0.251246,-9.75793,-0.734596,-79.379997,-4.34,-15.68,1729429678920.0,0.0
-0.356531,-9.633504,-0.658026,-70.840004,-1.33,-13.3,1729429678939.0,0.0
-0.51685,-9.633504,-1.112662,-66.220001,0.28,-13.93,1729429678960.0,0.0
-0.145962,-9.547362,-1.320838,-62.860001,-3.22,-11.83,1729429678981.0,0.0
-0.332602,-9.542577,-1.531406,-65.800003,-1.75,-11.48,1729429679058.0,0.0
-0.325424,-9.889536,-1.459622,-57.540001,-4.06,-8.54,1729429679058.0,0.0
-0.265603,-9.96132,-1.591227,-46.48,-4.13,-8.61,1729429679059.0,0.0
-0.346959,-9.690931,-2.165504,-44.66,-4.76,-9.38,1729429679169.0,0.0
0.100499,-9.844072,-2.452643,-35.0,-7.91,-6.44,1729429679169.0,0.0
0.193819,-9.726824,-2.132005,-27.65,-4.76,-5.88,1729429679171.0,0.0
-0.071785,-9.688539,-1.885544,-29.68,-4.13,-5.39,1729429679173.0,0.0
0.011964,-9.798609,-2.196611,-30.450001,-9.73,-4.27,1729429679174.0,0.0
0.066999,-9.667004,-2.620141,-25.129999,-11.2,-5.39,1729429679175.0,0.0
0.055035,-9.370294,-2.87378,-17.43,-10.71,-4.97,1729429679180.0,0.0
-0.208176,-9.47797,-2.89053,-13.09,-8.89,-2.87,1729429679204.0,0.0
-0.418744,-9.396614,-2.790031,-12.04,-6.93,-1.96,1729429679220.0,0.0
-0.232104,-9.750752,-2.959922,-14.14,-9.24,-2.52,1729429679239.0,0.0
0.083749,-9.628718,-3.098706,-8.12,-9.73,-2.66,1729429679260.0,0.0
-0.425922,-9.470792,-2.426322,-0.14,-5.39,-1.68,1729429679280.0,0.0
-0.634098,-9.583255,-2.632105,-7.35,-6.37,-1.82,1729429679302.0,0.0
-0.18664,-9.779467,-3.302095,-6.16,-9.1,-0.91,1729429679323.0,0.0
-0.078963,-9.396614,-3.115455,7.91,-5.25,0.42,1729429679339.0,0.0
-0.282353,-9.107083,-2.615355,10.71,-0.63,2.31,1729429679359.0,0.0
-0.22014,-9.576077,-2.404787,-1.19,-3.78,2.8,1729429679379.0,0.0
-0.11007,-10.076177,-3.242275,0.98,-6.16,2.59,1729429679401.0,0.0
-0.4666,-9.552148,-2.756532,15.61,-1.75,1.82,1729429679419.0,0.0
-0.904487,-8.243275,0.339781,11.62,-2.03,4.48,1729429679439.0,0.0
0.028714,-10.676775,-0.162712,-44.099998,-22.26,0.42,1729429679459.0,0.0
0.760918,-11.337193,-2.550749,-72.800003,-40.25,-8.4,1729429679479.0,0.0
-0.334995,-9.044869,-2.706282,-57.470001,-28.35,-12.11,1729429679502.0,0.0
-0.543171,-8.932407,-4.761717,-85.610001,-29.540001,-11.06,1729429679520.0,0.0
-0.794417,-9.21476,-4.366901,-81.550003,-28.280001,-12.53,1729429679542.0,0.0
-0.981057,-8.178668,-3.328416,-14.28,-27.23,-8.12,1729429679561.0,0.0
0.117248,-9.834501,-6.161518,15.96,-31.290001,-9.17,1729429679581.0,0.0
-0.401994,-9.506684,-4.905287,33.740002,-15.12,-10.22,1729429679603.0,0.0
-0.973879,-7.992027,-3.962514,8.96,-7.07,-9.03,1729429679622.0,0.0
-0.619741,-8.350951,-3.792624,-18.27,-12.39,-3.43,1729429679640.0,0.0
-0.591027,-8.329416,-3.783052,-9.59,-12.18,0.84,1729429679661.0,0.0
-0.710668,-8.726624,-4.661219,5.67,-7.98,3.71,1729429679680.0,0.0
-0.543171,-9.399008,-5.283352,12.95,-2.87,5.88,1729429679705.0,0.0
-0.478565,-9.212367,-4.704289,19.389999,3.57,5.95,1729429679721.0,0.0
-0.4666,-9.131011,-3.955336,24.85,6.58,6.86,1729429679740.0,0.0
-0.4666,-9.310472,-3.723232,24.43,8.33,4.83,1729429679762.0,0.0
-0.334995,-9.420543,-3.682554,24.85,9.8,5.6,1729429679780.0,0.0
-0.251246,-9.288938,-4.388437,28.98,13.16,7.07,1729429679805.0,0.0
-0.294317,-8.958728,-3.996014,33.810001,20.58,10.78,1729429679820.0,0.0
-0.794417,-9.245867,-3.014957,34.790001,23.870001,12.46,1729429679840.0,0.0
-0.859023,-10.339387,-4.09412,24.639999,24.5,7.63,1729429679860.0,0.0
-0.461815,-10.451849,-4.534399,29.75,28.559999,3.36,1729429679880.0,0.0
-1.782653,-10.15514,-1.349552,58.450001,31.92,7.91,1729429679905.0,0.0
-1.277767,-10.164711,0.215354,111.510002,25.969999,3.22,1729429679920.0,0.0
-1.009771,-11.040483,-1.021735,58.799999,12.39,-10.43,1729429679941.0,0.0
-0.227318,-10.758131,-1.981257,42.700001,6.93,-10.64,1729429679959.0,0.0
0.547956,-8.95155,-1.579263,42.560001,13.58,-10.71,1729429679981.0,0.0
0.325424,-8.592626,-0.949951,21.91,20.65,-6.23,1729429680001.0,0.0
-0.452243,-9.463614,-0.693919,-17.639999,19.950001,-5.46,1729429680020.0,0.0
-0.653241,-9.939785,-1.775474,-27.02,14.0,-7.21,1729429680040.0,0.0
-0.308674,-9.597611,-2.828316,-26.18,11.41,-11.41,1729429680059.0,0.0
-0.646062,-9.731609,-2.400001,-25.34,10.99,-11.76,1729429680082.0,0.0
-0.782453,-9.592826,-1.641476,-17.92,8.33,-11.34,1729429680106.0,0.0
-0.488136,-9.365508,-1.627119,-8.54,1.75,-12.32,1729429680122.0,0.0
-0.385244,-9.312866,-1.854438,-6.65,-2.24,-11.69,1729429680139.0,0.0
-0.141177,-9.442079,-2.476572,-8.96,-1.61,-10.29,1729429680160.0,0.0
-0.22014,-9.516255,-2.203789,-18.48,2.66,-8.61,1729429680181.0,0.0
-0.385244,-9.449257,-2.333002,-29.960001,5.11,-7.77,1729429680208.0,0.0
-0.148355,-9.236296,-2.756532,-38.5,7.14,-7.0,1729429680221.0,0.0
0.045464,-9.24108,-3.443272,-41.790001,11.13,-4.76,1729429680241.0,0.0
-0.287139,-9.896714,-3.620341,-45.290001,16.870001,-3.15,1729429680262.0,0.0
-0.251246,-10.018748,-3.988836,-34.509998,20.02,-2.8,1729429680281.0,0.0
0.42353,-8.714661,-3.287738,-23.030001,23.379999,-1.82,1729429680304.0,0.0
0.349352,-8.757731,-2.09372,-18.620001,23.450001,4.48,1729429680321.0,0.0
-0.370888,-9.454042,-1.959722,-15.4,19.32,4.41,1729429680340.0,0.0
-0.519243,-10.090532,-2.261217,-18.9,11.9,2.31,1729429680360.0,0.0
0.007178,-9.767502,-2.505285,-28.42,8.54,-1.47,1729429680379.0,0.0
0.129212,-9.41815,-2.541178,-38.290001,7.56,-2.03,1729429680402.0,0.0
0.256032,-9.406186,-3.146562,-35.490002,6.37,-0.28,1729429680424.0,0.0
0.363709,-9.779467,-4.022335,-24.92,7.07,1.61,1729429680439.0,0.0
0.287139,-10.090532,-3.87398,-12.6,10.78,3.22,1729429680459.0,0.0
-0.011964,-9.958927,-2.981457,0.84,13.16,5.11,1729429680481.0,0.0
-0.150748,-9.822537,-2.124826,12.11,10.99,4.76,1729429680508.0,0.0
-0.239282,-10.353743,-2.498107,26.18,3.85,3.71,1729429680521.0,0.0
0.382852,-10.652846,-3.206382,55.650002,-0.77,0.98,1729429680540.0,0.0
0.820738,-10.109675,-2.98385,94.57,1.54,0.98,1729429680561.0,0.0
0.784846,-9.846465,-1.45005,117.18,2.1,2.73,1729429680579.0,0.0
0.854238,-9.334401,0.4666,154.559998,-6.3,7.21,1729429680600.0,0.0
0.715454,-8.798409,0.70349,149.589996,-18.34,7.84,1729429680620.0,0.0
0.526421,-9.571291,0.349352,90.510002,-25.549999,2.52,1729429680646.0,0.0
0.457029,-9.19801,0.880559,36.68,-30.24,0.07,1729429680659.0,0.0
0.189033,-9.667004,-0.325424,-2.66,-34.580002,-0.35,1729429680680.0,0.0
0.76331,-8.793623,-1.01695,-41.299999,-35.560001,-2.8,1729429680703.0,0.0
0.086142,-8.403593,-1.184447,-71.190002,-31.57,3.15,1729429680720.0,0.0
-1.741975,-10.423136,-4.113262,-106.82,-24.15,0.84,1729429680740.0,0.0
-2.871387,-9.980463,-3.342773,-117.25,-18.9,-5.67,1729429680760.0,0.0
-0.27996,-8.374879,-3.086741,-98.910004,-31.15,4.97,1729429680780.0,0.0
-0.514457,-7.793423,-2.490928,-159.25,-23.450001,-3.85,1729429680803.0,0.0
0.112463,-7.427321,-5.252246,-221.059998,-27.58,3.92,1729429680820.0,0.0
0.241675,-9.195618,-5.848059,-267.399994,-25.41,-8.47,1729429680865.0,0.0
0.18664,-9.142976,-5.374279,-279.160004,-20.65,-5.25,1729429680867.0,0.0
0.784846,-9.209974,-6.396015,-217.559998,-20.440001,-1.96,1729429680879.0,0.0
-2.632105,-10.360922,-5.091926,-185.009995,-12.74,-8.12,1729429680902.0,0.0
-1.478764,-5.142176,-5.017749,-24.43,-28.700001,0.63,1729429680920.0,0.0
0.208176,-3.988836,-8.882158,30.66,-39.34,26.530001,1729429680940.0,0.0
0.311067,-8.319844,-13.942977,59.220001,-14.63,43.259998,1729429680960.0,0.0
-0.145962,-12.014362,-8.472985,190.680008,16.59,59.990002,1729429680979.0,0.0
-0.591027,-8.295916,-2.328217,361.269989,34.02,68.739998,1729429681002.0,0.0
-0.710668,-6.321837,-0.811167,440.649994,20.02,60.41,1729429681020.0,0.0
-1.385444,-9.32483,-3.795017,349.299988,23.379999,56.98,1729429681039.0,0.0
-0.758525,-10.930414,-5.350351,315.630005,27.93,53.900002,1729429681061.0,0.0
-1.445265,-11.308479,-2.261217,453.390015,-1.96,94.43,1729429681080.0,0.0
-2.926422,-8.226524,4.962714,488.600006,19.530001,66.290001,1729429681102.0,0.0
-5.166104,-1.919044,7.130611,294.140015,62.09,49.98,1729429681121.0,0.0
-6.192625,-6.501299,4.354938,165.059998,-25.9,82.669998,1729429681142.0,0.0
-4.012764,-9.872787,4.086941,113.190002,-24.639999,13.86,1729429681161.0,0.0
-3.481557,-12.277573,2.409572,185.009995,-28.700001,51.73,1729429681183.0,0.0
-4.87418,-7.307681,7.929814,196.699997,25.83,28.07,1729429681209.0,0.0
-5.04407,-8.157133,8.099705,18.620001,-2.59,10.22,1729429681222.0,0.0
-2.179861,-8.805587,2.976671,-95.480003,-24.219999,13.37,1729429681243.0,0.0
-0.758525,-8.834301,3.830909,-145.600006,-13.3,-12.04,1729429681261.0,0.0
-1.87358,-8.032705,3.854837,-156.520004,7.91,8.19,1729429681282.0,0.0
-3.378666,-8.224132,4.065405,-185.990005,4.06,-6.58,1729429681305.0,0.0
-3.474378,-9.023334,3.677768,-207.130005,-10.85,-7.91,1729429681322.0,0.0
-2.289931,-9.707682,2.206182,-223.860001,-14.56,-23.59,1729429681342.0,0.0
-1.672583,-8.059027,0.835095,-262.98999,-3.85,-30.030001,1729429681367.0,0.0
-2.488536,-5.594419,-0.885344,-341.950012,9.59,-35.139999,1729429681383.0,0.0
-3.371487,-7.204789,-3.95055,-414.959991,0.21,-29.26,1729429681413.0,0.0
-4.709075,-10.191031,-2.086541,-447.369995,-14.07,-28.280001,1729429681422.0,0.0
-3.881158,-11.167303,-5.221139,-360.98999,-32.34,-25.200001,1729429681441.0,0.0
-1.552942,-10.454242,-4.232903,-182.350006,-30.940001,-23.52,1729429681461.0,0.0
-1.574477,-4.0008,-3.433701,-187.389999,-18.27,-27.51,1729429681483.0,0.0
-1.677369,-4.529613,-8.006385,-279.649994,-12.11,-11.34,1729429681503.0,0.0
-1.18684,-10.08814,-6.51087,-273.980011,-26.25,4.83,1729429681523.0,0.0
-2.39043,-3.943372,-5.563312,-52.5,-5.04,2.38,1729429681541.0,0.0
-3.419343,-1.758725,-8.855836,-141.820007,-0.07,13.86,1729429681561.0,0.0
-0.988236,-4.455436,-15.074783,-232.330002,4.69,26.74,1729429681582.0,0.0
-0.713061,-7.4345,-12.282358,-203.279999,22.68,32.060001,1729429681606.0,0.0
-3.448057,-8.925228,-3.790231,-144.130005,29.75,14.7,1729429681622.0,0.0
-2.440679,-10.305886,-8.250452,-118.440002,13.09,-14.84,1729429681641.0,0.0
-0.607777,-5.386244,-10.782058,-34.02,5.88,-14.35,1729429681663.0,0.0
-2.428715,-3.259024,-9.255438,-12.46,22.33,3.29,1729429681681.0,0.0
-2.443072,-5.376673,-9.820145,-48.16,32.48,14.49,1729429681704.0,0.0
-1.871187,-3.359523,-9.97807,11.62,32.759998,28.0,1729429681723.0,0.0
-3.311667,-4.316652,-9.640682,53.760002,41.09,42.91,1729429681742.0,0.0
-3.15374,-8.4347,-6.869793,54.389999,51.450001,44.73,1729429681761.0,0.0
-3.184847,-6.463014,-5.335995,94.5,43.889999,38.990002,1729429681782.0,0.0
-2.222932,-7.977671,-3.608376,85.470001,31.639999,32.830002,1729429681805.0,0.0
-2.589034,-8.68116,-3.665804,32.970001,15.82,11.9,1729429681821.0,0.0
-2.940779,-9.968499,-6.812366,-7.07,0.21,-1.26,1729429681843.0,0.0
-1.938186,-5.919843,-7.597212,63.700001,-6.79,-7.28,1729429681862.0,0.0
-1.978864,-6.281159,-6.759724,119.910004,-17.85,6.93,1729429681880.0,0.0
-2.177469,-7.948956,-6.915257,92.889999,-23.870001,2.94,1729429681903.0,0.0
-2.495714,-9.592826,-8.432307,106.82,-31.290001,-1.82,1729429681921.0,0.0
-2.321038,-9.38465,-8.295916,149.100006,-30.940001,-15.12,1729429681941.0,0.0
-1.940579,-6.838687,-6.786045,176.259995,-30.450001,-18.549999,1729429681963.0,0.0
-2.349752,-5.355137,-5.410172,164.710007,-32.130001,-8.89,1729429681981.0,0.0
-3.644269,-2.852244,-5.771489,157.919998,-37.170002,4.06,1729429682003.0,0.0
-3.244668,-11.54537,-8.465806,252.770004,-43.400002,30.309999,1729429682022.0,0.0
-1.502693,-16.046268,-7.068398,426.51001,-39.689999,25.27,1729429682041.0,0.0
-1.18684,-8.499306,-3.728018,500.220001,-17.219999,-0.49,1729429682062.0,0.0
-3.282953,0.784846,-0.557528,340.619995,25.83,-3.71,1729429682081.0,0.0
-3.012564,-3.39063,-0.701097,26.880001,2.94,-5.81,1729429682102.0,0.0
-1.988436,-9.437292,-1.198804,-141.75,-7.56,0.84,1729429682121.0,0.0
-2.845066,-10.028319,-2.021935,-149.729996,-0.14,-12.88,1729429682141.0,0.0
-2.979064,-7.951349,-2.213361,-144.759995,2.17,-21.07,1729429682162.0,0.0
-2.411965,-8.855836,-2.294717,-198.589996,-13.58,-18.690001,1729429682183.0,0.0
-0.916451,-8.248059,-5.98445,-240.869995,-12.6,-21.35,1729429682208.0,0.0
-0.677169,-5.345565,-6.458229,-271.880005,3.78,-43.049999,1729429682221.0,0.0
-0.770489,-5.812167,-10.975878,-363.649994,2.17,-35.490002,1729429682241.0,0.0
1.667797,-11.956935,-13.069597,-430.850006,0.56,-43.959999,1729429682262.0,0.0
1.476372,-13.959727,-10.683953,-270.619995,22.120001,-19.530001,1729429682281.0,0.0
-0.634098,-10.681561,-5.737988,-23.73,19.040001,-30.52,1729429682303.0,0.0
-3.778267,-3.182454,-1.696511,136.990005,34.93,-34.650002,1729429682322.0,0.0
-3.996014,-4.517649,-4.864608,193.130005,-7.56,9.59,1729429682342.0,0.0
-3.694518,-6.9679,-5.108676,156.100006,-3.36,21.49,1729429682361.0,0.0
-4.524827,-8.580662,-5.053641,185.080002,16.59,37.380001,1729429682382.0,0.0
-3.404987,-8.836694,-4.900501,276.850006,18.059999,51.869999,1729429682403.0,0.0
-2.325824,-9.001799,-2.964707,403.619995,-0.98,68.599998,1729429682421.0,0.0
-1.861616,-9.88475,-0.808774,513.23999,-7.49,70.209999,1729429682442.0,0.0
-3.998406,-8.02792,0.205783,470.119995,4.48,48.509998,1729429682462.0,0.0
-6.075377,-7.305287,0.334995,351.399994,6.93,77.559998,1729429682481.0,0.0
-5.278566,-10.430314,1.177269,200.130005,7.42,34.369999,1729429682505.0,0.0
-4.694718,-9.695717,2.868994,63.91,-0.28,34.720001,1729429682522.0,0.0
-3.821337,-10.712667,1.868794,202.789993,-17.85,36.540001,1729429682541.0,0.0
-4.218546,-9.937392,2.266003,312.970001,9.59,20.370001,1729429682561.0,0.0
-5.218746,-5.745167,4.685147,289.380005,31.290001,6.58,1729429682582.0,0.0
-4.981857,-6.185446,5.773881,159.110001,22.049999,10.22,1729429682605.0,0.0
-3.809374,-5.266603,7.223931,21.07,-2.03,3.64,1729429682622.0,0.0
-2.500499,-5.912664,5.821737,-66.010002,-2.03,-7.07,1729429682642.0,0.0
-3.084348,-7.21436,3.871587,-179.410004,-0.42,-17.219999,1729429682661.0,0.0
-3.345166,-9.382257,2.579463,-240.100006,-19.18,-4.27,1729429682681.0,0.0
-2.76371,-10.616954,1.942972,-216.720001,-25.76,-5.95,1729429682703.0,0.0
-2.512464,-8.760124,1.718047,-170.240005,-17.290001,-7.7,1729429682721.0,0.0
-2.617748,-7.743174,0.579063,-187.180008,-5.46,-16.52,1729429682743.0,0.0
-3.098706,-7.508677,-1.438086,-266.279999,-6.51,-19.6,1729429682761.0,0.0
-3.136991,-8.539984,-3.400201,-329.559998,-7.07,-21.700001,1729429682781.0,0.0
-3.818945,-7.645068,0.050249,-370.089996,-9.45,-23.940001,1729429682802.0,0.0
-3.680161,-10.277173,-3.828516,-423.640015,-22.540001,-28.98,1729429682821.0,0.0
-2.57707,-10.116854,-6.180661,-402.079987,-21.700001,-39.34,1729429682840.0,0.0
-3.038885,-11.62194,-8.482556,-327.040009,-16.309999,-31.99,1729429682861.0,0.0
-1.430908,0.047856,-4.429115,-139.580002,-2.87,-10.78,1729429682880.0,0.0
-3.165704,-1.572084,-8.396415,-222.949997,6.58,20.790001,1729429682914.0,0.0
-2.433501,-6.833901,-10.82513,-315.279999,10.64,30.24,1729429682921.0,0.0
-2.646462,-9.619147,-10.79163,-219.660004,21.49,30.66,1729429682940.0,0.0
-4.106083,-8.145168,-6.331409,-128.520004,16.17,1.47,1729429682961.0,0.0
-2.962314,-9.571291,-7.975278,-97.300003,12.39,-18.83,1729429682981.0,0.0
-1.801795,-5.850451,-8.295916,-79.660004,8.75,-25.620001,1729429683004.0,0.0
-2.208575,-5.838487,-8.853443,-47.670002,11.83,-17.92,1729429683022.0,0.0
-2.218147,-5.120641,-8.044669,-29.049999,17.219999,-3.43,1729429683041.0,0.0
-2.423929,-6.393622,-8.523234,-36.68,21.84,5.67,1729429683063.0,0.0
-2.639283,-5.063213,-9.202796,-9.45,24.5,7.21,1729429683083.0,0.0
-3.330809,-4.826324,-9.10469,42.490002,26.389999,20.93,1729429683105.0,0.0
-2.907279,-4.754539,-8.317451,48.02,32.619999,26.530001,1729429683121.0,0.0
-3.629912,-8.410772,-7.348359,33.880001,37.52,27.51,1729429683141.0,0.0
-3.359523,-8.518449,-6.819544,52.009998,36.119999,11.69,1729429683163.0,0.0
-2.979064,-8.477771,-7.685746,83.510002,31.57,3.85,1729429683182.0,0.0
-2.031506,-6.881758,-4.905287,125.860001,22.610001,0.77,1729429683216.0,0.0
-2.400001,-4.350152,-4.082155,118.93,0.98,2.38,1729429683221.0,0.0
-2.352145,-4.826324,-7.235896,80.080002,-13.51,10.85,1729429683241.0,0.0
-2.715853,-5.943772,-7.948956,68.879997,-13.23,18.41,1729429683329.0,0.0
-2.964707,-7.537392,-6.793223,60.200001,-10.99,14.84,1729429683329.0,0.0
-2.770889,-7.956135,-6.742974,54.670002,-15.82,1.4,1729429683329.0,0.0
-2.691926,-8.183454,-7.73121,67.340004,-19.67,-5.95,1729429683330.0,0.0
-2.969493,-8.506484,-7.499106,89.599998,-14.84,-9.8,1729429683342.0,0.0
-3.282953,-6.680761,-5.429315,112.0,-11.34,-8.68,1729429683360.0,0.0
-3.445665,-5.182854,-5.639884,125.020004,-19.460001,2.38,1729429683381.0,0.0
-2.632105,-10.262815,-7.233503,167.020004,-21.77,9.24,1729429683402.0,0.0
-2.598605,-11.75833,-6.295516,245.210007,-18.83,8.82,1729429683421.0,0.0
-2.445465,-9.566505,-6.029913,342.440002,-16.73,8.61,1729429683440.0,0.0
-3.005385,-6.936793,-3.306881,377.299988,-16.73,14.7,1729429683461.0,0.0
-3.388237,-5.974878,-0.600598,265.929993,0.56,4.62,1729429683480.0,0.0
-2.991028,-7.877172,-0.581456,106.610001,4.62,-6.44,1729429683502.0,0.0
-3.182454,-10.135997,-1.225125,15.96,-1.33,-9.66,1729429683521.0,0.0
-2.414358,-9.750752,-1.940579,5.32,-5.32,-22.26,1729429683540.0,0.0
-2.959922,-7.278966,-2.366502,38.360001,-2.94,-22.960001,1729429683560.0,0.0
-3.201597,-8.212167,-1.004985,26.809999,-1.68,-23.17,1729429683587.0,0.0
-2.730211,-9.355937,-0.358923,3.01,-11.27,-21.700001,1729429683601.0,0.0
-2.397608,-8.822337,-0.356531,-5.32,-13.09,-23.870001,1729429683622.0,0.0
-2.665605,-8.446664,-0.124427,-28.210001,-13.58,-26.460001,1729429683641.0,0.0
-2.586641,-8.4012,0.090927,-72.379997,-21.42,-25.27,1729429683661.0,0.0
-1.938186,-9.956534,-1.184447,-95.690002,-26.460001,-28.49,1729429683681.0,0.0
-1.325624,-8.937192,-2.689533,-80.290001,-27.51,-24.15,1729429683702.0,0.0
-1.674976,-8.154739,-2.342573,-44.52,-18.48,-16.1,1729429683720.0,0.0
-1.725225,-7.62114,-2.734996,-71.330002,-18.129999,-16.17,1729429683741.0,0.0
-1.552942,-7.855636,-4.541577,-119.0,-6.93,-8.75,1729429683761.0,0.0
-0.746561,-9.140583,-5.95095,-143.5,1.75,-7.0,1729429683781.0,0.0
-0.70349,-9.853643,-7.503892,-124.389999,12.11,1.19,1729429683803.0,0.0
-1.014557,-8.989835,-6.862615,-66.150002,26.67,5.81,1729429683822.0,0.0
-1.667797,-8.678767,-7.424929,-17.85,30.870001,17.08,1729429683842.0,0.0
-1.799403,-13.282558,-6.477371,-1.75,46.48,4.41,1729429683861.0,0.0
-1.895115,-11.96172,-5.190032,103.110001,60.689999,7.98,1729429683881.0,0.0
-3.213561,-8.616554,-3.294917,272.929993,75.32,25.549999,1729429683903.0,0.0
-3.795017,-4.362115,0.485743,338.799988,68.879997,33.810001,1729429683921.0,0.0
-4.785645,-5.166104,2.639283,277.059998,57.68,48.580002,1729429683943.0,0.0
-4.541577,-7.82453,2.907279,220.779999,50.470001,47.529999,1729429683961.0,0.0
-3.909872,-8.865408,2.115255,231.839996,31.43,44.939999,1729429683982.0,0.0
-3.605984,-7.79103,2.050649,247.589996,26.74,46.34,1729429684004.0,0.0
-3.979264,-7.475177,6.058627,234.639999,30.52,47.389999,1729429684023.0,0.0
-5.118248,-8.441878,6.91765,165.270004,20.51,36.259998,1729429684043.0,0.0
-4.811966,-10.325029,5.35753,96.459999,-2.73,19.809999,1729429684064.0,0.0
-4.06062,-11.200804,3.60359,58.099998,-9.1,5.25,1729429684082.0,0.0
-4.828716,-8.958728,4.070191,45.360001,-3.36,1.61,1729429684103.0,0.0
-4.558327,-9.116654,4.216154,61.740002,-5.88,-7.42,1729429684123.0,0.0
-5.474778,-7.936993,9.638289,-85.540001,-16.799999,-34.439999,1729429684142.0,0.0
-1.40698,-10.837094,2.840281,-149.449997,-44.170002,-28.700001,1729429684163.0,0.0
-2.68714,-8.606983,3.893122,-200.059998,-37.799999,-47.25,1729429684183.0,0.0
-1.744368,-8.616554,2.012364,-155.680008,-39.689999,-34.16,1729429684208.0,0.0
-2.555535,-10.557133,0.399601,-104.090004,-44.450001,-28.630001,1729429684224.0,0.0
-3.041277,-9.899107,1.225125,-38.5,-27.65,-25.83,1729429684243.0,0.0
-2.768496,-7.738388,3.285345,-32.970001,-27.860001,-14.21,1729429684263.0,0.0
-2.132005,-8.405986,1.141376,-81.410004,-25.059999,-20.65,1729429684282.0,0.0
-2.065006,-9.501899,-0.224925,-130.899994,-20.299999,-24.639999,1729429684311.0,0.0
-0.878166,-9.449257,-0.825524,-121.449997,-15.33,-19.809999,1729429684324.0,0.0
-1.256232,-9.300901,-1.088734,-95.059998,0.42,-16.66,1729429684342.0,0.0
-1.878366,-9.274581,-0.727418,-91.559998,8.26,-18.27,1729429684363.0,0.0
-1.964507,-10.313066,-1.600798,-96.669998,4.13,-19.530001,1729429684383.0,0.0
-1.430908,-9.339187,-0.526421,-92.120003,-0.42,-23.59,1729429684404.0,0.0
-0.301496,-8.001599,-1.710868,-49.279999,-2.17,-3.78,1729429684424.0,0.0
-1.722832,-8.784052,-1.435694,-87.919998,6.37,-15.89,1729429684442.0,0.0
-2.328217,-9.96132,-1.978864,-83.230003,-2.03,-3.85,1729429684463.0,0.0
-2.574677,-9.032906,-0.875773,-53.41,-0.77,-3.29,1729429684483.0,0.0
-2.701497,-8.269595,-0.009571,-98.559998,-3.15,-9.03,1729429684515.0,0.0
-2.232504,-7.580462,-1.115055,-177.589996,-11.48,-13.58,1729429684523.0,0.0
-2.282753,-9.006584,-1.911865,-249.339996,-19.110001,-14.63,1729429684542.0,0.0
-2.251646,-9.085547,-4.797609,-287.700012,-23.030001,-18.41,1729429684562.0,0.0
-0.806381,-6.632904,-6.415157,-273.980011,-23.1,-19.389999,1729429684583.0,0.0
-0.361316,-5.74756,-8.114061,-254.100006,-21.0,-1.4,1729429684606.0,0.0
-1.741975,-9.10469,-9.10469,-184.940002,-12.32,15.05,1729429684622.0,0.0
-2.68714,-7.135397,-8.745767,-139.789993,1.19,3.08,1729429684642.0,0.0
-2.452643,-2.435893,-6.838687,-174.160004,-8.68,0.63,1729429684662.0,0.0
-0.667598,-5.446064,-10.212566,-185.990005,-8.12,16.24,1729429684682.0,0.0
-1.804188,-7.537392,-7.60439,-151.130005,1.82,11.41,1729429684704.0,0.0
-3.26381,-7.472785,-9.74836,-155.539993,8.12,-3.92,1729429684723.0,0.0
-1.198804,-7.322037,-11.404193,-144.410004,11.41,-11.69,1729429684742.0,0.0
-1.182054,-5.448457,-9.375079,-56.98,17.780001,-3.57,1729429684763.0,0.0
-1.579263,-5.350351,-7.513463,-41.720001,22.120001,1.12,1729429684783.0,0.0
-1.481157,-5.4676,-7.518249,-63.07,16.379999,6.23,1729429684805.0,0.0
-2.151148,-5.867201,-7.65464,-38.920002,11.34,7.91,1729429684823.0,0.0
-2.371287,-5.249853,-8.508877,-5.53,7.63,8.96,1729429684842.0,0.0
-1.844866,-3.644269,-8.652447,31.5,5.04,11.97,1729429684862.0,0.0
-1.730011,-3.641876,-9.329616,32.900002,8.89,21.07,1729429684882.0,0.0
-1.959722,-5.989235,-8.425128,47.389999,16.870001,32.060001,1729429684905.0,0.0
-2.811567,-7.164111,-7.446464,47.25,19.530001,28.42,1729429684922.0,0.0
-3.333202,-8.676375,-7.094719,19.18,15.47,14.91,1729429684943.0,0.0
-2.964707,-10.399208,-7.082755,42.07,9.24,3.85,1729429684963.0,0.0
-2.754139,-8.738588,-5.979663,158.339996,-0.77,4.97,1729429684983.0,0.0
-3.163311,-5.666204,-3.235096,232.820007,-16.73,18.48,1729429685004.0,0.0
-3.086741,-4.220939,-3.720839,177.240005,-31.43,19.25,1729429685023.0,0.0
-2.744568,-5.582455,-7.568498,57.82,-36.75,19.950001,1729429685043.0,0.0
-1.887937,-9.710074,-9.257831,26.040001,-41.16,22.469999,1729429685062.0,0.0
-2.318645,-10.169496,-7.659425,102.690002,-39.759998,12.81,1729429685085.0,0.0
-2.888137,-8.992228,-7.362715,153.789993,-43.68,-0.49,1729429685107.0,0.0
-2.06022,-2.790031,-7.252645,148.259995,-48.650002,-5.04,1729429685122.0,0.0
-3.261417,-10.140782,-10.217353,214.199997,-47.040001,45.360001,1729429685142.0,0.0
-1.612763,-14.177474,-9.853643,371.630005,-25.27,22.960001,1729429685163.0,0.0
-2.928815,-8.740981,-8.212167,509.809998,-7.7,46.689999,1729429685183.0,0.0
-4.206582,-7.896315,-4.910072,451.220001,12.39,17.57,1729429685208.0,0.0
-2.895315,-10.743774,-2.519642,344.049988,17.43,0.98,1729429685222.0,0.0
-2.478964,-11.700903,-2.062613,344.26001,11.2,-12.81,1729429685242.0,0.0
-3.536592,-10.092925,0.768096,464.23999,0.35,-42.349998,1729429685262.0,0.0
-1.629512,-13.354343,-0.476172,623.48999,-14.84,-61.459999,1729429685282.0,0.0
-0.078963,-5.472386,-2.033899,697.830017,8.26,-87.989998,1729429685306.0,0.0
-5.395815,1.229911,1.933401,654.849976,72.940002,-17.5,1729429685323.0,0.0
-6.474977,4.412365,8.671589,496.230011,18.48,-27.440001,1729429685343.0,0.0
-2.536392,4.869394,12.466606,276.149994,-40.040001,-22.960001,1729429685362.0,0.0
-0.880559,1.89033,11.191232,78.260002,-40.740002,-28.700001,1729429685403.0,0.0
-1.892723,-1.864009,11.665009,-46.900002,-38.009998,-34.299999,1729429685530.0,0.0
-2.462214,-3.639483,9.717253,-105.0,-36.889999,-24.5,1729429685534.0,0.0
-2.464607,-5.264209,7.611568,-115.080002,-32.619999,-15.75,1729429685537.0,0.0
-2.172683,-4.924429,9.427721,-83.160004,-39.130001,-11.76,1729429685539.0,0.0
-2.151148,-5.15414,10.832308,-44.799999,-36.82,-7.98,1729429685542.0,0.0
-1.426122,-6.754939,9.178867,-31.92,-51.099998,-17.08,1729429685543.0,0.0
-1.904687,-7.625926,5.886343,47.599998,-57.400002,-21.42,1729429685546.0,0.0
-1.933401,-4.718646,5.082355,167.160004,-39.759998,-15.190001,1729429685549.0,0.0
-2.234896,0.277567,7.65464,221.059998,-20.58,9.03,1729429685569.0,0.0
-1.476372,2.684747,8.867801,125.300003,-0.98,7.49,1729429685587.0,0.0
-1.01695,1.292124,8.422735,-50.259998,-12.46,10.36,1729429685606.0,0.0
-1.440479,-2.821138,6.539584,-158.270004,-16.17,18.83,1729429685623.0,0.0
-1.993221,-5.682954,7.334002,-151.339996,-9.73,20.65,1729429685644.0,0.0
-2.282753,-5.895915,7.04447,-98.769997,-1.54,28.91,1729429685666.0,0.0
-2.801995,-6.013163,5.448457,-65.029999,4.69,26.040001,1729429685682.0,0.0
-2.821138,-5.852845,6.020342,-46.900002,5.39,21.77,1729429685703.0,0.0
-2.292324,-5.793024,9.006584,-22.889999,10.99,21.42,1729429685723.0,0.0
-1.679761,-4.395615,8.992228,29.26,2.8,34.23,1729429685744.0,0.0
-0.334995,-1.117448,10.894521,32.689999,10.5,35.490002,1729429685763.0,0.0
-0.512064,-5.414958,7.956135,-103.739998,6.44,18.41,1729429685829.0,0.0
-1.397408,-6.769295,9.686146,-226.240005,3.99,21.91,1729429685832.0,0.0
-0.997807,-8.568698,8.819944,-301.700012,-1.26,12.11,1729429685844.0,0.0
-0.253639,-6.76451,6.331409,-325.850006,-1.05,8.89,1729429685864.0,0.0
-0.232104,-6.345766,3.754339,-346.149994,7.98,-7.98,1729429685883.0,0.0
-0.914058,-5.953342,3.388237,-461.019989,0.98,-21.559999,1729429685906.0,0.0
-1.462015,-5.489135,1.098306,-481.320007,-1.89,-20.02,1729429685924.0,0.0
-1.418944,-6.300302,-3.058028,-484.26001,1.19,-21.77,1729429685945.0,0.0
-2.505285,-7.207181,-0.433101,-491.330017,2.38,-16.59,1729429685964.0,0.0
-5.702096,-8.769694,-4.766503,-550.690002,-12.53,-4.83,1729429685983.0,0.0
-4.333402,-12.210573,-8.898908,-546.840027,-25.34,-22.68,1729429686116.0,0.0
1.28016,-10.442278,-9.016156,-320.25,-63.279999,10.57,1729429686117.0,0.0
3.225525,-5.259424,-7.257431,-22.120001,-31.5,26.6,1729429686117.0,0.0
-3.651447,-3.739982,-3.053242,-36.470001,4.41,51.240002,1729429686117.0,0.0
-4.766503,-2.18704,-6.388836,-329.839996,-15.54,53.27,1729429686117.0,0.0
-1.464408,-11.334801,-14.151153,-425.110016,-7.0,50.049999,1729429686117.0,0.0
-1.777867,-10.695917,-12.574283,-244.229996,8.54,45.849998,1729429686124.0,0.0
-3.907479,-7.965706,-7.9681,-59.5,6.44,28.700001,1729429686143.0,0.0
-2.825923,-9.025726,-7.594819,-57.400002,0.42,6.09,1729429686197.0,0.0
-2.103291,-6.594619,-8.99462,-43.189999,-4.06,-12.18,1729429686200.0,0.0
-2.050649,-4.979464,-11.150554,-15.190001,2.52,-8.05,1729429686210.0,0.0
-1.962115,-4.347759,-12.110075,9.03,15.61,1.47,1729429686228.0,0.0
-2.108077,-5.79781,-10.973484,22.82,32.130001,11.55,1729429686244.0,0.0
-2.816352,-6.766902,-8.535198,21.07,37.450001,14.63,1729429686263.0,0.0
-3.261417,-9.552148,-7.657032,21.35,42.0,8.75,1729429686284.0,0.0
-1.820938,-9.040084,-6.850651,82.669998,40.459999,-2.66,1729429686306.0,0.0
-0.993021,-6.159126,-4.601398,162.610001,27.93,-1.61,1729429686323.0,0.0
-1.940579,-5.347959,-5.020142,124.669998,19.879999,-0.14,1729429686344.0,0.0
-2.761317,-5.807381,-5.352744,53.27,-1.61,8.47,1729429686363.0,0.0
-3.259024,-6.491727,-7.582855,-17.01,-24.780001,5.6,1729429686384.0,0.0
-2.368894,-8.908479,-10.097712,4.27,-29.540001,4.62,1729429686405.0,0.0
-2.15354,-7.04447,-9.274581,79.730003,-21.559999,3.99,1729429686423.0,0.0
-3.050849,-5.962914,-8.219346,127.68,-17.5,6.79,1729429686444.0,0.0
-5.099105,0.119641,-6.69751,102.970001,-15.47,17.99,1729429686464.0,0.0
-2.651247,-9.79143,-9.635897,106.959999,-20.65,29.82,1729429686484.0,0.0
-1.021735,-8.949157,-10.004392,198.940002,-19.67,31.08,1729429686509.0,0.0
-1.935793,-12.30868,-8.690732,364.559998,-16.030001,40.670002,1729429686525.0,0.0
-1.98365,-9.765109,-9.664611,563.01001,-22.4,31.85,1729429686545.0,0.0
-2.749353,-8.872586,-6.67119,635.320007,14.63,23.450001,1729429686564.0,0.0
-1.677369,-8.386844,-3.062813,573.22998,27.790001,-12.6,1729429686584.0,0.0
-0.835095,-4.309474,-1.641476,463.540009,20.719999,-17.57,1729429686609.0,0.0
-2.112862,-5.883951,2.143969,382.690002,22.049999,-23.24,1729429686625.0,0.0
-2.404787,-8.250452,4.926822,400.049988,-24.290001,-24.219999,1729429686644.0,0.0
-1.622334,-11.392227,-0.050249,461.230011,-25.200001,-56.98,1729429686664.0,0.0
-2.151148,-6.374479,2.634498,484.959991,22.889999,-94.220001,1729429686684.0,0.0
-5.034499,-0.002393,5.302495,420.209991,50.540001,-28.139999,1729429686706.0,0.0
-3.282953,-0.715454,8.513663,288.119995,-5.81,-23.450001,1729429686724.0,0.0
-1.677369,-1.445265,11.10509,216.790009,-24.710001,-41.369999,1729429686744.0,0.0
-1.770689,-1.12702,8.740981,156.169998,-6.02,-25.690001,1729429686764.0,0.0
-2.337788,-3.531806,9.592826,92.959999,2.8,-24.15,1729429686784.0,0.0
-2.266003,-4.055835,12.753745,14.91,-25.48,-29.120001,1729429686807.0,0.0
-0.875773,-2.15354,11.901899,-5.95,-40.950001,-4.27,1729429686824.0,0.0
-0.646062,-1.359123,11.313265,10.99,-29.75,-0.63,1729429686844.0,0.0
-0.959522,-0.404387,8.214561,-40.950001,-30.66,-1.54,1729429686864.0,0.0
-1.519442,-3.244668,4.211368,-91.699997,-28.07,-0.7,1729429686884.0,0.0
-1.454836,-4.398008,4.639683,-77.769997,-17.710001,4.41,1729429686906.0,0.0
-1.885544,-5.4676,7.049256,-3.43,-1.47,19.18,1729429686924.0,0.0
-1.765903,-3.87398,7.025328,66.709999,11.9,23.59,1729429686944.0,0.0
-2.397608,-1.954936,6.482157,74.059998,37.380001,36.889999,1729429686964.0,0.0
-2.474179,-2.029114,7.850852,-17.08,30.870001,32.27,1729429686984.0,0.0
-2.957529,-5.546563,8.092526,-111.090004,2.94,23.940001,1729429687006.0,0.0
-3.323631,-6.149554,11.626726,-92.75,-2.73,23.59,1729429687035.0,0.0
-3.364309,-2.538785,12.940384,-18.969999,10.5,33.110001,1729429687044.0,0.0
-2.435893,-0.765703,11.461621,-94.290001,-10.5,27.719999,1729429687064.0,0.0
-2.086541,-4.134798,9.659825,-217.210007,-29.120001,17.290001,1729429687084.0,0.0
-1.095913,-6.74776,9.865608,-295.820007,-55.860001,3.29,1729429687106.0,0.0
0.267996,-6.73101,8.389235,-311.709991,-45.709999,11.06,1729429687124.0,0.0
-0.433101,-5.556134,7.365108,-354.200012,-27.65,2.17,1729429687143.0,0.0
-1.679761,-5.659025,5.850451,-443.309998,-29.469999,-3.57,1729429687164.0,0.0
-2.392823,-5.82413,4.424329,-509.25,-37.869999,-13.37,1729429687185.0,0.0
-2.033899,-5.711668,2.105684,-504.630005,-47.529999,-16.940001,1729429687209.0,0.0
-1.76351,-6.972685,-0.107677,-437.570007,-39.970001,-20.65,1729429687224.0,0.0
-2.232504,-6.405586,0.303888,-408.660004,-25.27,-20.719999,1729429687244.0,0.0
-5.376673,-4.589434,-3.661019,-494.899994,-35.700001,-16.870001,1729429687264.0,0.0
-1.265803,-2.624927,-11.74158,-524.650024,-44.869999,-8.4,1729429687284.0,0.0
0.614955,-7.860423,-15.103497,-456.679993,-34.860001,46.970001,1729429687306.0,0.0
-0.641276,-14.526826,-11.954542,-260.890015,-11.2,47.810001,1729429687324.0,0.0
-1.718047,-6.446264,-6.994221,15.68,3.43,37.099998,1729429687344.0,0.0
-2.167897,1.902294,-8.630912,-16.59,16.17,48.650002,1729429687364.0,0.0
-4.476971,-3.998406,-7.135397,-383.809998,4.62,49.490002,1729429687384.0,0.0
-1.179662,-10.222138,-16.278372,-418.809998,3.22,35.91,1729429687405.0,0.0
-0.303888,-13.933406,-12.519248,-267.540009,17.360001,20.02,1729429687424.0,0.0
-3.282953,-11.988041,-6.168696,-65.099998,23.309999,-9.66,1729429687444.0,0.0
-2.589034,-6.460621,-6.166305,-12.25,10.22,-38.220001,1729429687463.0,0.0
-1.318445,-5.845665,-6.606583,-37.799999,1.89,-35.490002,1729429687484.0,0.0
-2.055435,-5.221139,-10.143176,-32.060001,5.04,-28.49,1729429687505.0,0.0
-0.899701,-3.85723,-9.772287,28.77,8.33,-6.65,1729429687524.0,0.0
-1.462015,-3.546163,-8.46102,42.490002,14.56,15.190001,1729429687544.0,0.0
-2.065006,-6.532406,-9.006584,22.4,20.58,22.540001,1729429687563.0,0.0
-2.234896,-8.886944,-9.915856,28.84,22.610001,18.200001,1729429687583.0,0.0
-2.239682,-8.391629,-8.767302,58.099998,27.16,6.02,1729429687606.0,0.0
-2.397608,-7.506285,-7.628319,115.220001,22.049999,1.89,1729429687624.0,0.0
-2.572284,-4.460221,-3.78066,185.149994,6.86,5.39,1729429687643.0,0.0
-3.20399,-3.235096,-4.613362,111.510002,-12.81,10.01,1729429687671.0,0.0
-2.519642,-9.178867,-9.126225,6.09,-15.33,5.18,1729429687684.0,0.0
-2.268396,-6.020342,-7.032506,73.639999,-12.74,1.19,1729429687707.0,0.0
-3.275774,-4.558327,-5.960521,62.02,-14.98,2.66,1729429687726.0,0.0
-2.718246,-0.789631,-8.877372,44.799999,-28.210001,18.83,1729429687744.0,0.0
-0.153141,-7.479963,-13.703696,127.470001,-25.34,41.439999,1729429687764.0,0.0
-1.323231,-7.441679,-9.597611,229.529999,-3.01,54.950001,1729429687784.0,0.0
-3.175276,-8.207381,-6.276374,287.559998,4.69,38.849998,1729429687806.0,0.0
-2.897708,-10.930414,-5.659025,334.179993,-11.76,33.110001,1729429687825.0,0.0
-2.629712,-11.559726,-5.816952,460.600006,-31.92,31.99,1729429687845.0,0.0
-2.955136,-11.837293,-6.293124,578.059998,-11.69,11.62,1729429687864.0,0.0
-2.919244,-9.499505,-3.881158,552.720032,20.58,-20.860001,1729429687885.0,0.0
-0.641276,-5.383851,1.854438,416.850006,7.0,-34.790001,1729429687907.0,0.0
-2.098505,-2.768496,3.06042,237.369995,1.19,9.8,1729429687926.0,0.0
-3.960121,-7.085148,5.20439,153.509995,-5.11,-18.690001,1729429687945.0,0.0
-2.656033,-10.454242,5.288138,144.059998,-48.23,-34.509998,1729429687965.0,0.0
-2.435893,-10.08814,2.95035,170.589996,-28.84,-28.77,1729429687984.0,0.0
-1.586441,-5.520242,3.139383,161.0,-9.03,-31.5,1729429688006.0,0.0
-0.308674,-6.259624,2.055435,34.299999,-19.389999,-10.5,1729429688028.0,0.0
-0.753739,-8.260024,1.768296,-18.549999,5.67,-12.04,1729429688046.0,0.0
-1.741975,-9.265009,4.776074,-35.139999,3.85,-10.01,1729429688066.0,0.0
-1.201197,-9.425328,5.816952,-15.96,-20.51,-3.57,1729429688086.0,0.0
-0.430708,-8.68116,3.773481,31.290001,-12.18,-15.26,1729429688107.0,0.0
-2.610569,-7.054041,4.055835,38.639999,6.09,-4.48,1729429688126.0,0.0
-2.792424,-6.13759,4.886144,-9.17,-14.21,9.17,1729429688146.0,0.0
-2.143969,-8.054241,3.735196,-101.43,-19.879999,-9.8,1729429688166.0,0.0
-1.574477,-10.207782,1.287339,-167.229996,-13.440001,-0.42,1729429688186.0,0.0
-0.311067,-7.467999,1.844866,-207.130005,-17.92,8.68,1729429688211.0,0.0
-0.122034,-8.702696,0.650848,-224.559998,-22.68,21.77,1729429688228.0,0.0
-0.531207,-10.521241,-1.088734,-251.020004,4.76,14.49,1729429688246.0,0.0
-1.51705,-12.03829,-1.603191,-233.729996,12.11,22.82,1729429688318.0,0.0
-1.5003,-12.847065,3.412165,-184.240005,17.710001,11.2,1729429688322.0,0.0
-1.904687,-10.028319,-1.095913,-109.760002,1.89,22.469999,1729429688333.0,0.0
-2.167897,-11.042876,-1.359123,-70.699997,12.67,-13.02,1729429688334.0,0.0
-6.058627,-11.727223,5.06082,-142.520004,28.77,-19.25,1729429688359.0,0.0
-4.352544,-11.246266,1.607977,-267.679993,-17.43,-59.779999,1729429688367.0,0.0
-0.289532,-10.073784,-2.335395,-271.110016,-46.130001,-53.27,1729429688391.0,0.0
-0.270389,-5.912664,-3.098706,-199.639999,-19.67,-43.049999,1729429688408.0,0.0
-3.223132,-7.240681,-2.981457,-168.839996,-18.059999,-31.08,1729429688426.0,0.0
-3.457629,-9.166903,-5.020142,-111.580002,-20.860001,-13.02,1729429688446.0,0.0
-2.490928,-7.881958,-5.331209,-28.42,-18.059999,-5.53,1729429688466.0,0.0
-2.038685,-6.221339,-5.998806,-1.19,-8.68,2.38,1729429688486.0,0.0
-1.543371,-10.164711,0.971486,-4.06,-5.53,11.62,1729429688509.0,0.0
-3.201597,-8.209774,-1.849652,-3.43,-9.52,15.96,1729429688526.0,0.0
-5.848059,-6.9344,-4.113262,-73.43,-18.620001,4.9,1729429688546.0,0.0
-1.820938,-7.326823,-8.982656,-109.129997,-32.34,9.8,1729429688566.0,0.0
-0.784846,-9.870394,-10.439885,-55.02,-11.41,25.48,1729429688585.0,0.0
-3.730411,-10.296316,-9.745967,-5.11,30.17,20.16,1729429688607.0,0.0
-2.366502,-9.585647,-7.32443,17.92,43.959999,16.66,1729429688626.0,0.0
-1.698904,-9.394222,-6.881758,96.040001,61.950001,13.79,1729429688645.0,0.0
-3.28056,-11.059627,-1.335195,87.220001,71.330002,2.24,1729429688666.0,0.0
-0.926022,-9.154939,-3.644269,64.470001,52.57,-8.33,1729429688685.0,0.0
1.210768,-8.468199,-4.187439,30.450001,57.470001,-12.88,1729429688707.0,0.0
1.344766,-7.642675,-1.739582,-3.71,66.080002,-7.7,1729429688726.0,0.0
-0.086142,-8.29113,0.847059,13.65,53.689999,2.31,1729429688746.0,0.0
-1.09352,-9.781858,1.184447,8.05,27.790001,-5.46,1729429688766.0,0.0
-2.667997,-8.82473,-0.052642,10.5,3.92,-13.51,1729429688787.0,0.0
-2.378466,-7.690532,0.323031,9.03,-19.460001,-13.58,1729429688807.0,0.0
-0.189033,-8.671589,-1.256232,-14.28,-49.84,-5.32,1729429688826.0,0.0
-0.512064,-10.712667,-2.792424,-17.15,-61.950001,-5.88,1729429688845.0,0.0
-0.691526,-6.812366,-2.545963,-3.36,-72.029999,-6.58,1729429688865.0,0.0
0.734596,-5.079963,-6.173482,-22.469999,-82.18,12.53,1729429688885.0,0.0
-3.938586,-9.300901,-9.631111,-29.68,-56.84,20.02,1729429688908.0,0.0
-7.185646,-9.688539,-11.755937,-75.949997,-15.61,7.21,1729429688927.0,0.0
-4.701896,-8.437093,-11.866007,-85.330002,-1.68,4.48,1729429688946.0,0.0
-2.639283,-8.240881,-4.811966,18.76,15.26,11.97,1729429688967.0,0.0
-3.955336,-9.669396,-4.481757,16.309999,27.23,-10.43,1729429688989.0,0.0
-2.112862,-9.123833,-5.465207,-38.990002,21.0,-22.049999,1729429689024.0,0.0
-1.155733,-6.903293,-7.826923,-49.84,30.309999,-26.950001,1729429689074.0,0.0
-0.859023,-6.183054,-8.662018,-74.059998,51.029999,-17.01,1729429689075.0,0.0
-0.40678,-8.501699,-4.922036,-96.949997,58.869999,-0.56,1729429689075.0,0.0
-2.493321,-9.164511,-0.433101,-44.450001,59.5,0.21,1729429689087.0,0.0
-1.529014,-7.508677,-1.268196,-10.57,36.889999,-6.16,1729429689107.0,0.0
-0.914058,-9.181261,-3.371487,-37.240002,21.210001,-8.61,1729429689132.0,0.0
-0.028714,-9.903893,-4.031906,-43.540001,12.74,-6.58,1729429689145.0,0.0
0.045464,-10.810772,-4.603791,-46.34,6.37,-12.25,1729429689164.0,0.0
1.26341,-9.734003,-5.675776,-32.759998,-5.18,-18.549999,1729429689185.0,0.0
0.87338,-7.508677,-5.338387,1.12,1.19,-17.43,1729429689210.0,0.0
-1.232304,-8.585447,-5.290531,8.54,2.52,-14.63,1729429689225.0,0.0
-2.105684,-8.516055,-2.883351,-4.13,-7.84,-12.18,1729429689244.0,0.0
-1.383051,-8.453842,-3.184847,-5.32,-24.99,-13.51,1729429689266.0,0.0
-1.385444,-7.611568,-2.586641,-16.030001,-37.66,-16.1,1729429689285.0,0.0
-0.605384,-3.732803,-6.726225,-74.059998,-52.080002,-14.77,1729429689307.0,0.0
-1.672583,-4.835894,-7.987241,-48.16,-57.610001,13.16,1729429689326.0,0.0
-3.541377,-5.175675,-7.810174,-91.349998,-51.869999,24.15,1729429689344.0,0.0
-3.206382,-3.378666,-10.006784,-195.369995,-46.689999,14.77,1729429689364.0,0.0
-1.182054,-1.51705,-12.363714,-247.589996,-41.790001,22.4,1729429689384.0,0.0
-3.249453,-10.389636,-12.880564,-259.209991,-26.110001,14.14,1729429689407.0,0.0
-1.067199,-15.560526,-14.737395,-163.520004,-19.25,-7.84,1729429689429.0,0.0
-0.09332,-5.895915,-7.874779,84.769997,-10.64,-27.58,1729429689445.0,0.0
-2.849852,1.521835,-4.096512,98.699997,-9.8,-13.51,1729429689464.0,0.0
-2.758924,-4.156333,-7.534998,-74.900002,-7.98,6.02,1729429689484.0,0.0
-2.679961,-5.525027,-10.293922,-75.25,-7.21,20.09,1729429689506.0,0.0
-3.431308,-4.268795,-9.107083,-11.76,1.96,26.389999,1729429689524.0,0.0
-2.395216,-5.302495,-8.085347,-6.72,3.15,27.790001,1729429689544.0,0.0
-2.012364,-6.558727,-8.219346,-1.19,6.72,24.01,1729429689564.0,0.0
-1.375873,-7.319644,-6.374479,8.96,4.83,14.77,1729429689584.0,0.0
-1.629512,-6.735795,-6.321837,13.02,-2.8,2.38,1729429689606.0,0.0
-2.35693,-5.486742,-7.652246,16.52,-5.67,-6.86,1729429689626.0,0.0
-2.447858,-4.804788,-8.506484,16.52,-9.45,-0.77,1729429689645.0,0.0
-2.445465,-5.572884,-9.437292,-7.91,-5.11,4.34,1729429689664.0,0.0
-2.646462,-5.635098,-10.454242,4.34,-1.47,5.53,1729429689686.0,0.0
-2.330609,-5.589634,-10.504492,45.5,7.14,6.51,1729429689713.0,0.0
-1.543371,-4.393222,-8.243275,61.25,14.35,10.5,1729429689727.0,0.0
-2.222932,-5.501099,-6.970293,44.380001,16.66,14.42,1729429689745.0,0.0
-3.134598,-5.785845,-7.030113,49.84,10.29,16.030001,1729429689766.0,0.0
-2.87378,-7.070791,-8.752945,44.73,6.93,12.25,1729429689786.0,0.0
-1.909473,-5.910272,-8.977871,57.75,9.38,8.89,1729429689810.0,0.0
-1.842474,-5.627919,-7.972885,72.660004,14.21,12.6,1729429689828.0,0.0
-2.22054,-7.331609,-6.135197,51.310001,19.040001,14.98,1729429689846.0,0.0
-3.495914,-6.76451,-4.910072,38.290001,12.32,6.09,1729429689866.0,0.0
-3.15374,-5.24746,-6.082555,39.900002,-1.05,1.26,1729429689889.0,0.0
-3.098706,-5.685347,-6.518049,30.66,-8.4,10.64,1729429689910.0,0.0
-3.115455,-7.410572,-5.761917,-1.19,-11.69,7.91,1729429689928.0,0.0
-3.692125,-9.035298,-6.745367,-31.780001,-17.360001,-9.94,1729429689948.0,0.0
-3.232704,-9.547362,-8.563912,-11.06,-22.26,-25.34,1729429689966.0,0.0
-2.088934,-8.087741,-9.066404,20.23,-19.32,-36.119999,1729429689987.0,0.0
-1.689333,-5.82413,-7.288538,15.54,-12.81,-36.889999,1729429690013.0,0.0
-2.06022,-5.563312,-7.865208,-16.870001,-6.86,-27.51,1729429690028.0,0.0
-1.416551,-6.783652,-7.77428,20.860001,-1.96,-20.440001,1729429690047.0,0.0
-1.531406,-7.042077,-9.327222,134.539993,-5.74,-1.54,1729429690066.0,0.0
-3.347559,-5.371887,-6.929615,203.910004,0.98,9.94,1729429690087.0,0.0
-2.292324,-7.37468,-7.178468,239.820007,-3.85,9.94,1729429690113.0,0.0
-1.627119,-9.052048,-8.219346,289.869995,-16.030001,9.59,1729429690129.0,0.0
-1.646262,-11.133803,-8.678767,375.339996,-21.98,0.28,1729429690148.0,0.0
-0.978664,-10.727024,-7.826923,461.720001,-8.96,-9.17,1729429690167.0,0.0
-1.294517,-6.855437,-2.581856,475.580017,-3.15,-8.33,1729429690189.0,0.0
-2.225325,-6.939186,0.021535,382.899994,1.33,-12.53,1729429690211.0,0.0
-2.002793,-8.530413,1.770689,260.679993,-7.07,-13.93,1729429690228.0,0.0
-1.189233,-8.886944,1.337588,244.580002,-6.37,-19.040001,1729429690247.0,0.0
-2.629712,-6.704689,4.187439,235.479996,24.57,-25.549999,1729429690267.0,0.0
-3.35713,-4.362115,7.76471,133.419998,21.98,-29.469999,1729429690288.0,0.0
-2.758924,-4.003192,7.970492,-63.560001,-3.99,-28.84,1729429690309.0,0.0
-1.741975,-8.331808,4.113262,-264.320007,-23.24,-40.670002,1729429690328.0,0.0
-1.251446,-8.630912,0.023928,-372.890015,-31.780001,-51.869999,1729429690349.0,0.0
-0.586242,-8.26481,-0.696311,-372.049988,-8.89,-41.860001,1729429690368.0,0.0
1.423729,-0.349352,-1.268196,-422.450012,4.62,-47.529999,1729429690388.0,0.0
0.461815,-3.735196,-8.439486,-501.269989,-0.63,-11.62,1729429690411.0,0.0
-1.725225,-13.938192,-9.265009,-493.570007,12.46,-26.6,1729429690432.0,0.0
-0.368495,-11.172089,-11.351551,-316.470001,11.69,-15.47,1729429690448.0,0.0
-1.196411,-14.093725,-8.628519,10.43,0.07,34.650002,1729429690467.0,0.0
-2.124826,-11.181661,-6.953543,203.210007,33.110001,14.98,1729429690488.0,0.0
-2.689533,-8.298308,-4.711468,339.220001,52.009998,42.84,1729429690512.0,0.0
-3.574877,-7.080362,2.215754,381.850006,45.080002,61.32,1729429690530.0,0.0
-4.309474,-8.54477,0.07657,317.380005,47.040001,55.299999,1729429690548.0,0.0
-3.644269,-9.568897,-1.864009,325.98999,13.440001,62.369999,1729429690567.0,0.0
-3.010171,-7.085148,-0.172283,404.320007,32.060001,68.18,1729429690588.0,0.0
-4.091727,-7.015756,2.959922,503.089996,61.810001,65.870003,1729429690609.0,0.0
-6.628119,-4.587041,12.351749,519.679993,53.130001,72.800003,1729429690627.0,0.0
-6.190232,-4.304688,7.587641,366.660004,34.09,30.030001,1729429690647.0,0.0
-5.752346,-6.259624,7.953743,134.119995,-7.42,32.200001,1729429690667.0,0.0
-3.285345,-7.77428,7.192825,69.510002,-32.27,31.92,1729429690687.0,0.0
-2.723032,-7.702496,7.594819,90.090004,-11.48,17.780001,1729429690709.0,0.0
-2.512464,-7.003791,7.341179,83.790001,-6.09,11.55,1729429690728.0,0.0
-2.510071,-6.216553,6.733403,27.02,0.28,18.27,1729429690747.0,0.0
-2.952743,-7.343572,7.424929,-59.779999,-11.41,7.84,1729429690767.0,0.0
-2.813959,-6.664011,7.238289,-130.899994,-6.16,11.76,1729429690788.0,0.0
-2.964707,-7.295716,5.436492,-193.619995,-11.55,-7.84,1729429690809.0,0.0
-3.323631,-7.264609,4.742575,-236.600006,-11.34,-3.85,1729429690827.0,0.0
-3.378666,-7.79103,3.431308,-269.360016,-17.639999,-18.200001,1729429690848.0,0.0
-2.833102,-9.482756,2.706282,-260.820007,-24.219999,-19.530001,1729429690867.0,0.0
-2.036292,-7.448857,1.217947,-219.169998,-7.21,-13.72,1729429690886.0,0.0
-3.180061,-8.063812,0.009571,-224.279999,7.35,-20.09,1729429690908.0,0.0
-3.474378,-8.733803,-1.366302,-256.619995,3.29,-15.190001,1729429690927.0,0.0
-3.519842,-9.568897,-1.562513,-273.630005,-0.14,-11.06,1729429690946.0,0.0
-3.78066,-8.008778,-0.267996,-336.839996,-1.4,-26.32,1729429690967.0,0.0
-3.517449,-9.329616,-3.225525,-421.890015,-11.13,-35.630001,1729429690986.0,0.0
-2.493321,-11.006985,-4.771288,-452.059998,-16.59,-35.91,1729429691007.0,0.0
-1.043271,-7.499106,-6.996613,-437.149994,-11.55,-45.43,1729429691027.0,0.0
-1.607977,-10.69831,-8.470592,-340.410004,-4.97,-32.34,1729429691046.0,0.0
-0.710668,-7.542177,-6.920043,-140.979996,4.76,-24.290001,1729429691066.0,0.0
-1.600798,-5.869594,-5.259424,-53.970001,9.8,-15.75,1729429691090.0,0.0
-2.947958,-6.592227,-4.704289,-80.919998,5.67,-6.65,1729429691107.0,0.0
-2.069792,-6.276374,-6.025128,-131.529999,-2.52,-10.08,1729429691129.0,0.0
-1.043271,-6.096912,-7.255038,-118.230003,-8.33,-0.91,1729429691149.0,0.0
-1.622334,-6.541977,-8.049455,-96.599998,-7.84,3.5,1729429691167.0,0.0
-2.09372,-8.051848,-7.616355,-105.769997,-4.06,3.5,1729429691187.0,0.0
-1.969293,-6.60419,-7.274181,-81.269997,-5.67,-2.59,1729429691213.0,0.0
-2.0004,-5.685347,-7.573284,-24.08,-6.58,-3.64,1729429691229.0,0.0
-2.464607,-4.625326,-8.520842,-21.98,-8.54,2.03,1729429691248.0,0.0
-3.072384,-5.082355,-9.406186,-53.200001,-3.36,3.43,1729429691268.0,0.0
-2.567499,-5.563312,-9.221939,-59.57,3.15,0.7,1729429691287.0,0.0
-2.490928,-5.836094,-9.628718,-28.98,5.32,-1.61,1729429691309.0,0.0
-2.474179,-6.470192,-9.102298,-27.93,10.36,-9.87,1729429691329.0,0.0
-2.232504,-6.092126,-8.700303,-37.029999,15.82,-17.08,1729429691348.0,0.0
-2.337788,-5.783452,-8.145168,-9.1,17.92,-16.17,1729429691367.0,0.0
-2.545963,-5.493921,-7.685746,12.53,16.59,-10.92,1729429691387.0,0.0
-2.866602,-6.970293,-7.683353,18.41,16.030001,-4.97,1729429691411.0,0.0
-2.68714,-8.166703,-8.023134,42.490002,18.129999,-4.2,1729429691429.0,0.0
-2.172683,-7.613962,-7.728817,56.700001,24.15,-6.09,1729429691448.0,0.0
-1.335195,-6.013163,-7.398607,69.650002,23.52,-1.89,1729429691467.0,0.0
-1.01695,-4.87418,-6.582655,98.699997,11.55,12.32,1729429691487.0,0.0
-1.665405,-4.486543,-5.661418,120.190002,-1.4,26.950001,1729429691510.0,0.0
-2.569891,-5.563312,-5.965307,108.57,-13.09,33.110001,1729429691529.0,0.0
-2.59382,-7.805387,-8.379664,85.260002,-20.16,30.66,1729429691548.0,0.0
-2.770889,-6.994221,-7.219146,118.860001,-16.59,24.08,1729429691568.0,0.0
-2.926422,-5.982057,-6.623333,135.940002,-15.75,20.93,1729429691588.0,0.0
-3.151347,-6.336195,-6.735795,105.209999,-15.82,13.51,1729429691609.0,0.0
-3.665804,-7.551748,-6.396015,81.480003,-14.07,10.85,1729429691628.0,0.0
-3.35713,-7.702496,-5.953342,94.290001,-15.75,9.87,1729429691647.0,0.0
-2.447858,-7.80778,-5.809773,129.289993,-20.719999,14.28,1729429691667.0,0.0
-2.612962,-8.439486,-5.245068,142.729996,-21.07,14.63,1729429691688.0,0.0
-3.046063,-10.363315,-4.788038,173.669998,-23.73,17.15,1729429691710.0,0.0
-3.002992,-11.674582,-4.208975,241.290009,-26.040001,17.15,1729429691728.0,0.0
-2.790031,-8.01117,-5.292924,307.230011,-19.879999,29.82,1729429691747.0,0.0
-3.735196,-8.114061,-3.361916,309.119995,-1.75,21.139999,1729429691767.0,0.0
-3.259024,-11.12184,-2.505285,261.730011,3.71,12.39,1729429691787.0,0.0
-1.72044,-12.882957,-1.383051,259.350006,-5.39,2.1,1729429691810.0,0.0
-1.737189,-10.535598,-0.607777,313.880005,1.54,-1.82,1729429691827.0,0.0
-2.512464,-6.728617,0.162712,335.440002,17.08,-6.09,1729429691847.0,0.0
-3.125026,-5.283352,2.330609,260.399994,20.16,-10.43,1729429691869.0,0.0
-3.833302,-8.606983,5.245068,156.100006,16.17,-14.56,1729429691887.0,0.0
-2.912065,-10.559525,5.221139,139.860001,-16.379999,-28.630001,1729429691909.0,0.0
-2.478964,-10.640882,2.825923,191.380005,-3.43,-39.689999,1729429691930.0,0.0
-4.146761,-8.432307,3.005385,220.570007,22.75,-35.630001,1729429691947.0,0.0
-3.771089,-7.039684,4.807181,221.059998,6.72,-27.58,1729429691966.0,0.0
-2.103291,-5.642276,5.860023,216.860001,-4.27,-25.690001,1729429691987.0,0.0
-2.938386,-5.304887,7.073184,211.610001,4.48,-23.52,1729429692010.0,0.0
-3.213561,-5.168497,8.322237,175.490005,-2.17,-29.610001,1729429692027.0,0.0
-2.438286,-4.338188,8.542377,127.959999,-9.52,-27.790001,1729429692047.0,0.0
-2.742175,-4.630112,8.343772,86.519997,-8.12,-28.139999,1729429692067.0,0.0
-3.067599,-6.04427,7.305287,54.529999,-15.26,-31.360001,1729429692087.0,0.0
-2.435893,-5.742774,7.781459,56.420002,-24.290001,-34.02,1729429692111.0,0.0
-1.191626,-2.725425,10.741381,67.059998,-38.57,-14.91,1729429692127.0,0.0
-2.026721,-1.282553,10.392029,23.450001,-36.540001,2.38,1729429692147.0,0.0
-1.909473,-2.612962,5.726025,-40.32,-57.610001,13.23,1729429692167.0,0.0
-1.22034,-3.055635,3.519842,-76.93,-28.91,17.01,1729429692196.0,0.0
-2.182254,-4.010371,6.333801,-90.370003,-24.5,24.219999,1729429692212.0,0.0
-2.782853,-6.087341,8.38445,-141.820007,-23.030001,24.92,1729429692227.0,0.0
-2.660819,-8.070991,6.175875,-178.570007,-34.02,19.879999,1729429692247.0,0.0
-2.182254,-8.843873,4.766503,-179.059998,-40.25,15.82,1729429692266.0,0.0
-2.218147,-10.078569,5.190032,-136.220001,-40.32,16.24,1729429692288.0,0.0
-1.998007,-9.738789,7.018148,-77.279999,-45.5,18.549999,1729429692308.0,0.0
-0.851845,-7.156933,7.116255,-41.23,-36.540001,16.52,1729429692327.0,0.0
-1.105484,-6.465407,5.443672,-34.299999,-26.460001,15.33,1729429692357.0,0.0
-2.285146,-6.281159,4.919643,-79.379997,-18.9,16.030001,1729429692368.0,0.0
-2.54357,-7.869993,4.886144,-137.690002,-26.809999,22.120001,1729429692386.0,0.0
-2.036292,-8.819944,4.007978,-183.539993,-35.630001,19.040001,1729429692410.0,0.0
-1.28016,-9.229117,3.397808,-184.100006,-27.23,18.34,1729429692427.0,0.0
-1.014557,-8.944371,2.897708,-196.0,-5.81,1.4,1729429692447.0,0.0
-2.321038,-9.88475,3.414558,-203.770004,-7.84,12.67,1729429692468.0,0.0
-1.325624,-10.107283,3.04367,-183.259995,-20.65,15.96,1729429692486.0,0.0
-0.327817,-7.60439,0.370888,-243.320007,3.43,-14.42,1729429692508.0,0.0
0.045464,-6.798009,-1.564906,-352.589996,-0.28,-17.92,1729429692527.0,0.0
0.040678,-7.305287,-4.845466,-369.809998,17.219999,-1.12,1729429692575.0,0.0
-1.744368,-7.673782,-5.694918,-333.410004,37.450001,15.68,1729429692576.0,0.0
-1.964507,-9.79143,-7.446464,-336.839996,40.040001,17.99,1729429692602.0,0.0
-3.127419,-8.243275,-3.608376,-364.350006,39.759998,10.78,1729429692611.0,0.0
-5.484349,-8.408379,-3.582055,-317.100006,-35.98,26.389999,1729429692628.0,0.0
-1.545763,-5.529813,-10.061819,-222.809998,-15.12,-26.67,1729429692648.0,0.0
-0.234497,-8.260024,-9.722038,-328.019989,-32.200001,8.89,1729429692666.0,0.0
-0.569492,-8.274381,-7.281359,-269.850006,-0.98,10.92,1729429692687.0,0.0
-2.739782,-6.9009,-8.106883,-161.350006,3.71,19.460001,1729429692709.0,0.0
-2.974278,-7.092326,-9.303294,-112.910004,0.35,25.83,1729429692727.0,0.0
-2.744568,-6.711867,-9.530612,-67.269997,8.19,26.18,1729429692748.0,0.0
-2.24686,-5.632704,-7.740781,-36.049999,17.219999,26.25,1729429692770.0,0.0
-1.887937,-5.687739,-9.466006,-28.700001,16.030001,27.02,1729429692788.0,0.0
-1.940579,-6.568298,-9.997212,-18.969999,21.280001,20.09,1729429692820.0,0.0
-1.569692,-5.613562,-8.987441,18.27,24.360001,18.48,1729429692828.0,0.0
-2.124826,-6.183054,-7.951349,20.23,29.469999,12.74,1729429692847.0,0.0
-2.244468,-7.049256,-6.094519,28.139999,24.290001,8.05,1729429692869.0,0.0
-2.529213,-7.190433,-6.60419,73.360001,13.3,7.49,1729429692887.0,0.0
-2.072184,-8.623734,-7.530212,80.709999,8.75,2.66,1729429692920.0,0.0
-2.129612,-7.362715,-5.113462,98.629997,5.32,3.01,1729429692928.0,0.0
-2.828316,-4.756931,-5.249853,86.800003,-6.37,3.85,1729429692949.0,0.0
-3.046063,-6.903293,-7.905886,18.9,-10.85,6.16,1729429692968.0,0.0
-2.043471,-9.090333,-8.504091,15.54,-10.57,6.72,1729429692987.0,0.0
-1.919044,-7.482357,-6.209375,57.119999,-10.36,2.8,1729429693023.0,0.0
-2.993421,-6.774081,-5.06082,65.239998,-17.08,-2.52,1729429693029.0,0.0
-2.821138,-8.616554,-7.685746,43.75,-25.76,-6.72,1729429693051.0,0.0
-2.574677,-3.909872,-7.716853,47.25,-23.870001,-10.78,1729429693069.0,0.0
-3.907479,-1.198804,-10.004392,62.650002,-22.68,26.25,1729429693091.0,0.0
-1.136591,-7.843673,-9.52822,84.699997,-13.86,31.780001,1729429693110.0,0.0
-2.163112,-9.303294,-5.862415,140.419998,-10.15,44.240002,1729429693128.0,0.0
-2.816352,-10.8682,-7.001399,220.009995,-14.63,23.59,1729429693151.0,0.0
-1.842474,-9.958927,-5.821737,312.200012,-16.66,15.89,1729429693168.0,0.0
-2.191825,-9.523434,-4.534399,333.899994,-15.26,16.59,1729429693190.0,0.0
-2.656033,-10.992627,-5.319244,364.630005,-1.68,13.09,1729429693215.0,0.0
-2.813959,-10.305886,-4.4674,381.5,12.88,-2.38,1729429693229.0,0.0
-2.196611,-13.78266,-1.78026,426.579987,5.53,-12.81,1729429693320.0,0.0
0.162712,-7.645068,-2.720639,409.920013,1.12,-28.139999,1729429693320.0,0.0
-2.294717,-5.254639,0.952343,420.700012,23.1,-6.3,1729429693324.0,0.0
-4.089334,-4.723432,3.469593,368.829987,17.57,-22.610001,1729429693325.0,0.0
-3.960121,-6.965507,4.457829,336.0,-8.75,-22.469999,1729429693329.0,0.0
-2.435893,-8.001599,3.917051,339.079987,-13.37,-49.07,1729429693348.0,0.0
-3.596412,-4.85743,5.249853,321.160004,14.21,-39.34,1729429693369.0,0.0
-4.388437,-3.723232,7.025328,285.459991,10.22,-18.27,1729429693388.0,0.0
-3.407379,-3.254239,8.860621,225.889999,-9.1,-24.43,1729429693410.0,0.0
-2.050649,-3.048456,9.470792,165.550003,-15.54,-28.35,1729429693429.0,0.0
-1.696511,-2.89053,9.509077,104.019997,-13.72,-26.040001,1729429693448.0,0.0
-1.765903,-3.316452,8.161918,56.84,-19.25,-22.75,1729429693468.0,0.0
-1.292124,-5.012963,10.205389,45.009998,-21.35,-24.219999,1729429693489.0,0.0
-0.567099,-4.493721,11.837293,16.66,-37.66,-9.38,1729429693510.0,0.0
0.256032,-2.639283,10.923235,-1.96,-52.009998,-1.75,1729429693528.0,0.0
-1.454836,-4.728218,3.938586,-3.5,-35.0,-8.68,1729429693549.0,0.0
-0.765703,-3.622734,3.215954,35.77,-20.16,-2.03,1729429693568.0,0.0
-1.804188,-2.608176,7.300502,37.240002,10.85,-0.07,1729429693588.0,0.0
-1.931008,-1.079163,10.633704,-10.15,6.37,4.83,1729429693610.0,0.0
-2.553142,-4.165904,7.286145,-19.67,2.45,12.81,1729429693628.0,0.0
-2.347359,-5.316852,7.121039,-11.69,10.71,-4.41,1729429693648.0,0.0
-1.861616,-5.070391,7.255038,-6.37,14.42,16.870001,1729429693668.0,0.0
-2.105684,-5.881558,8.183454,5.25,17.639999,8.4,1729429693688.0,0.0
-2.199004,-5.355137,8.001599,23.379999,19.74,11.9,1729429693710.0,0.0
-2.038685,-5.003392,7.121039,33.880001,23.59,9.66,1729429693729.0,0.0
-2.062613,-4.788038,8.152347,42.98,24.780001,9.59,1729429693748.0,0.0
-2.17029,-2.766103,11.557333,33.599998,31.99,14.98,1729429693768.0,0.0
-3.261417,-0.880559,10.851451,-53.830002,29.469999,13.16,1729429693788.0,0.0
-4.201797,-3.160919,8.671589,-164.289993,7.07,7.42,1729429693811.0,0.0
-2.490928,-7.15454,7.685746,-181.509995,-17.08,-2.17,1729429693828.0,0.0
-2.007578,-6.180661,11.511869,-53.27,-8.33,-3.22,1729429693849.0,0.0
-0.739382,-5.146961,11.667403,-55.720001,-20.23,-9.24,1729429693868.0,0.0
-0.942772,-2.742175,10.387242,-148.680008,-19.530001,-9.38,1729429693889.0,0.0
-2.26361,-4.819145,8.408379,-208.529999,-34.93,-3.71,1729429693911.0,0.0
-1.777867,-7.147361,5.520242,-213.639999,-47.880001,-8.4,1729429693928.0,0.0
-1.251446,-7.525427,4.307081,-127.260002,-35.77,-4.62,1729429693950.0,0.0
-1.837688,-7.635497,4.905287,-31.710001,-12.67,-7.49,1729429693970.0,0.0
-2.813959,-7.640282,7.159326,-10.71,2.66,-19.879999,1729429693989.0,0.0
-4.704289,-7.855636,8.616554,-58.73,-4.34,-27.93,1729429694010.0,0.0
-2.727818,-8.788837,5.331209,-19.460001,-50.470001,-3.57,1729429694030.0,0.0
0.040678,-8.171489,3.598805,94.57,-6.79,-16.24,1729429694049.0,0.0
-0.507278,-6.118448,6.709475,172.199997,0.14,-21.280001,1729429694070.0,0.0
-2.299503,-4.663611,9.516255,155.470001,-6.09,-4.48,1729429694090.0,0.0
-0.933201,-7.518249,6.84108,105.0,-29.960001,-13.65,1729429694110.0,0.0
0.557528,-6.276374,4.23051,76.440002,-8.82,-34.299999,1729429694128.0,0.0
-0.827917,-4.785645,6.668797,81.690002,5.81,-29.049999,1729429694148.0,0.0
-1.462015,-4.527221,8.848659,28.0,6.23,-31.43,1729429694167.0,0.0
-1.507478,-3.507878,9.327222,-6.02,-4.62,-20.860001,1729429694189.0,0.0
-1.548156,-1.361516,8.595018,-49.84,14.84,-14.0,1729429694213.0,0.0
-1.462015,-2.926422,8.403593,-110.529999,-6.44,2.66,1729429694229.0,0.0
-0.605384,-3.378666,7.142576,-140.139999,-5.04,18.34,1729429694250.0,0.0
-0.976272,-3.893122,6.070591,-169.539993,-0.77,31.85,1729429694269.0,0.0
-1.395016,-4.338188,5.79781,-222.949997,-5.32,40.25,1729429694287.0,0.0
-2.009971,-6.178268,4.208975,-282.23999,-11.27,41.93,1729429694311.0,0.0
-2.579463,-6.719046,2.57707,-328.579987,-13.16,39.549999,1729429694329.0,0.0
-3.52702,-6.632904,0.727418,-366.100006,-6.44,35.349998,1729429694349.0,0.0
-3.897908,-8.015956,-1.696511,-394.799988,-17.219999,32.830002,1729429694370.0,0.0
-3.299703,-10.368099,-2.409572,-389.970001,-22.26,36.400002,1729429694388.0,0.0
-2.009971,-9.999605,-3.189633,-332.920013,-20.370001,41.23,1729429694412.0,0.0
-2.079363,-8.29113,-4.09412,-291.130005,-12.95,34.650002,1729429694428.0,0.0
-1.844866,-8.855836,-5.690133,-288.540009,-7.0,39.759998,1729429694449.0,0.0
-1.294517,-8.961121,-6.702296,-289.170013,-2.94,40.670002,1729429694469.0,0.0
-1.088734,-10.992627,-7.970492,-268.23999,7.63,38.220001,1729429694488.0,0.0
-0.459422,-11.447264,-8.197811,-244.649994,13.72,17.780001,1729429694510.0,0.0
-0.0335,-10.15514,-7.226324,-221.970001,19.879999,-0.84,1729429694529.0,0.0
-0.272782,-8.013563,-5.041678,-211.539993,24.290001,-9.38,1729429694549.0,0.0
-1.536192,-8.405986,-5.74756,-248.290009,20.65,-19.110001,1729429694568.0,0.0
-1.694118,-10.736595,-8.018349,-251.790009,14.56,-27.51,1729429694590.0,0.0
-2.014757,-10.423136,-6.936793,-178.5,7.84,-35.139999,1729429694611.0,0.0
-1.57687,-8.075776,-7.62114,-85.889999,5.74,-38.360001,1729429694636.0,0.0
-2.06022,-5.54417,-8.288737,-33.740002,8.33,-25.969999,1729429694648.0,0.0
-2.464607,-5.367101,-8.216952,-43.959999,14.14,-9.17,1729429694669.0,0.0
-2.292324,-5.118248,-8.312666,-44.240002,15.89,2.1,1729429694689.0,0.0
-2.400001,-5.218746,-10.028319,-47.740002,20.370001,8.33,1729429694712.0,0.0
-2.088934,-4.809574,-10.08814,-34.860001,31.15,12.32,1729429694729.0,0.0
-1.447658,-3.641876,-6.276374,-12.53,35.98,20.719999,1729429694750.0,0.0
-2.914458,-5.422136,-8.398808,-16.1,31.710001,28.139999,1729429694767.0,0.0
-2.943172,-8.664411,-10.786844,-28.49,33.599998,21.49,1729429694789.0,0.0
-1.74676,-5.307281,-6.874579,33.32,34.93,11.69,1729429694812.0,0.0
-1.72044,-5.821737,-4.986642,35.279999,32.130001,17.639999,1729429694829.0,0.0
-1.447658,-8.724231,-6.738188,34.369999,23.59,21.77,1729429694848.0,0.0
-1.06002,-9.690931,-6.568298,26.040001,16.030001,14.49,1729429694870.0,0.0
-1.172483,-9.059227,-6.695118,31.01,11.62,-0.98,1729429694887.0,0.0
-1.112662,-6.752545,-7.01097,63.490002,4.9,-2.87,1729429694913.0,0.0
-1.51705,-6.116055,-7.41775,96.949997,0.49,6.93,1729429694930.0,0.0
-1.648655,-7.281359,-7.262216,105.419998,-4.13,15.54,1729429694950.0,0.0
-2.026721,-5.431707,-4.955536,99.330002,-10.08,16.59,1729429694968.0,0.0
-2.158326,-5.594419,-7.207181,104.580002,-18.620001,20.65,1729429694989.0,0.0
-2.325824,-6.67119,-8.090133,75.25,-16.66,19.389999,1729429695011.0,0.0
-2.825923,-8.13799,-7.085148,54.25,-13.58,14.07,1729429695031.0,0.0
-2.868994,-8.305488,-6.204589,75.040001,-17.639999,4.41,1729429695049.0,0.0
-2.218147,-6.317052,-7.209574,102.199997,-25.41,-2.66,1729429695072.0,0.0
-2.299503,-4.790431,-8.260024,81.410004,-24.219999,3.36,1729429695092.0,0.0
-1.485943,-10.004392,-9.114261,67.760002,-16.1,22.120001,1729429695111.0,0.0
-1.225125,-11.126624,-6.549156,167.789993,-12.11,22.960001,1729429695129.0,0.0
-1.847259,-10.561919,-4.878965,278.880005,-12.18,17.639999,1729429695151.0,0.0
-2.316252,-9.509077,-5.175675,301.070007,-13.02,7.14,1729429695170.0,0.0
-1.68694,-9.339187,-4.366901,338.380005,-15.12,21.84,1729429695191.0,0.0
-2.251646,-8.370094,-3.005385,336.279999,-4.9,25.620001,1729429695224.0,0.0
-2.533999,-9.367901,-3.512664,291.269989,11.76,2.73,1729429695229.0,0.0
-2.033899,-9.95175,-2.74696,244.089996,20.790001,-10.85,1729429695250.0,0.0
-1.770689,-10.068997,0.038285,233.309998,15.190001,0.91,1729429695271.0,0.0
-1.100698,-10.004392,1.007378,230.160004,20.51,-15.54,1729429695291.0,0.0
-1.258625,-8.800802,2.251646,188.300003,27.719999,-34.93,1729429695312.0,0.0
-1.672583,-8.597411,4.039084,143.850006,15.96,-33.950001,1729429695330.0,0.0
-2.182254,-10.07139,5.642276,162.820007,-15.26,-42.84,1729429695354.0,0.0
-0.770489,-10.846665,4.173083,248.430008,-42.349998,-56.349998,1729429695370.0,0.0
-1.552942,-8.389235,3.682554,314.579987,-2.87,-66.709999,1729429695389.0,0.0
-2.500499,-5.52742,5.376673,325.98999,4.97,-51.73,1729429695413.0,0.0
-2.801995,-4.893322,6.226124,245.419998,-2.66,-34.580002,1729429695430.0,0.0
-2.423929,-6.522834,6.262017,110.110001,-13.37,-45.57,1729429695450.0,0.0
-1.586441,-6.996613,7.21436,108.709999,-17.639999,-43.119999,1729429695471.0,0.0
-0.131605,-4.572684,7.869993,135.309998,-15.61,-38.080002,1729429695491.0,0.0
-0.861416,-2.991028,7.338787,130.619995,-3.64,-21.91,1729429695511.0,0.0
-1.112662,-3.18724,7.357929,60.48,-7.0,-17.92,1729429695532.0,0.0
-1.356731,-4.819145,7.094719,-19.530001,-19.040001,-19.950001,1729429695551.0,0.0
-1.552942,-5.438886,7.721639,-22.889999,-19.32,-17.710001,1729429695571.0,0.0
-0.643669,-2.48375,8.154739,13.58,-21.139999,-3.43,1729429695591.0,0.0
-0.981057,-2.251646,7.089933,12.88,-20.51,14.91,1729429695611.0,0.0
1.074377,-3.546163,8.29113,-13.51,-46.41,20.65,1729429695630.0,0.0
2.54357,-3.471986,6.958328,-73.290001,-49.77,28.280001,1729429695651.0,0.0
-1.588834,-6.080163,4.61097,-164.710007,-9.94,51.52,1729429695669.0,0.0
0.411566,-6.135197,1.801795,-190.75,-31.99,58.869999,1729429695689.0,0.0
1.29691,-9.303294,2.708675,-151.619995,4.9,38.639999,1729429695711.0,0.0
-0.993021,-10.729417,5.726025,-109.900002,28.210001,40.880001,1729429695730.0,0.0
-1.241875,-9.803394,5.85763,-68.110001,31.43,33.32,1729429695751.0,0.0
-2.146362,-8.879765,5.005785,-48.369999,37.029999,21.700001,1729429695771.0,0.0
-2.988636,-9.712467,6.381658,-45.920002,19.18,19.879999,1729429695789.0,0.0
-2.878566,-9.391829,7.903493,-64.400002,5.25,9.38,1729429695811.0,0.0
-2.526821,-8.568698,6.147161,-93.099998,2.73,-2.8,1729429695830.0,0.0
-2.215754,-9.166903,6.448657,-92.75,-9.31,-5.04,1729429695850.0,0.0
-1.478764,-8.556733,6.62094,-87.290001,-19.879999,-1.89,1729429695871.0,0.0
-1.103091,-9.052048,5.991628,-96.110001,-19.950001,-11.41,1729429695889.0,0.0
-1.342373,-10.171888,5.335995,-123.340004,-22.889999,-20.09,1729429695912.0,0.0
-1.694118,-10.13839,4.962714,-139.369995,-28.77,-14.21,1729429695931.0,0.0
-0.658026,-9.530612,3.304488,-126.139999,-23.940001,-20.299999,1729429695949.0,0.0
-0.452243,-9.542577,2.641676,-114.099998,-14.63,-28.0,1729429695970.0,0.0
-1.083949,-8.365308,4.460221,-121.590004,-11.27,-26.110001,1729429695989.0,0.0
-0.229711,-6.381658,5.032106,-143.990005,-13.37,-16.24,1729429696012.0,0.0
0.299103,-7.726424,2.081756,-223.720001,-10.01,-29.540001,1729429696030.0,0.0
-0.806381,-9.078369,2.634498,-256.829987,-23.52,-3.99,1729429696051.0,0.0
-3.237489,-12.059827,3.905087,-223.300003,-39.689999,4.41,1729429696069.0,0.0
-1.117448,-5.472386,-0.057428,-262.01001,-28.91,-30.030001,1729429696090.0,0.0
0.303888,-4.800002,-5.149354,-400.049988,-39.689999,3.92,1729429696110.0,0.0
-0.538385,-7.869993,-6.675975,-398.299988,-29.68,17.780001,1729429696130.0,0.0
-0.270389,-9.138189,-9.956534,-199.430008,-24.219999,45.639999,1729429696149.0,0.0
-0.744168,-5.228317,-6.216553,-118.090004,0.91,26.6,1729429696170.0,0.0
-4.409972,-5.757132,-5.103891,-286.51001,1.75,27.860001,1729429696189.0,0.0
-1.749153,-9.45165,-10.557133,-463.049988,-25.9,1.54,1729429696215.0,0.0
2.512464,-10.839487,-11.954542,-344.26001,-28.139999,7.21,1729429696230.0,0.0
0.160319,-8.202596,-9.499505,-128.169998,1.47,-6.16,1729429696251.0,0.0
-1.962115,-2.234896,-6.759724,-47.599998,12.95,-4.27,1729429696269.0,0.0
-1.555335,-4.039084,-9.133404,-76.510002,5.32,17.710001,1729429696290.0,0.0
-0.569492,-5.759524,-9.190832,-80.5,7.7,21.629999,1729429696314.0,0.0
-1.052842,-3.615555,-8.922836,-41.790001,8.96,25.27,1729429696330.0,0.0
-1.342373,-5.333601,-10.454242,-50.75,17.01,30.24,1729429696350.0,0.0
0.026321,-4.240082,-9.255438,7.77,16.1,37.799999,1729429696369.0,0.0
-1.847259,-3.672983,-6.039484,37.450001,20.370001,48.580002,1729429696392.0,0.0
-3.52702,-8.714661,-5.453243,-34.580002,14.35,47.740002,1729429696411.0,0.0
-1.634298,-10.205389,-7.458428,-7.35,3.29,32.200001,1729429696431.0,0.0
-1.804188,-8.025528,-6.71426,77.629997,-7.98,8.54,1729429696448.0,0.0
-1.897508,-7.176075,-7.913064,66.150002,-5.67,5.6,1729429696470.0,0.0
-1.926222,-7.391429,-6.568298,71.610001,-7.0,11.83,1729429696489.0,0.0
-2.225325,-6.932007,-6.412765,90.440002,-13.93,13.3,1729429696511.0,0.0
-1.323231,-5.374279,-8.362915,96.669998,-27.58,15.68,1729429696532.0,0.0
-2.318645,-8.114061,-9.049655,83.580002,-20.860001,16.450001,1729429696549.0,0.0
-2.282753,-9.008978,-7.802995,125.370003,-18.27,14.35,1729429696570.0,0.0
-2.677568,-7.482357,-6.819544,174.369995,-23.309999,11.83,1729429696590.0,0.0
-3.85723,-0.952343,-7.910671,162.889999,-24.99,9.59,1729429696611.0,0.0
-3.634698,-2.866602,-12.026326,131.039993,-27.370001,35.91,1729429696629.0,0.0
-1.325624,-10.51167,-10.719845,173.110001,-15.12,32.900002,1729429696649.0,0.0
-1.634298,-13.660624,-8.327023,302.610016,-14.84,48.299999,1729429696676.0,0.0
-2.598605,-10.746166,-6.037091,428.329987,-8.26,20.23,1729429696689.0,0.0
-2.251646,-7.970492,-3.541377,490.910004,1.33,21.280001,1729429696711.0,0.0
-2.117648,-7.429714,-0.885344,446.880005,2.1,17.92,1729429696731.0,0.0
-1.885544,-9.135797,-1.72044,368.200012,13.09,-1.75,1729429696750.0,0.0
-3.436093,-9.296116,1.90708,234.710007,21.280001,-29.82,1729429696770.0,0.0
-2.892922,-9.025726,4.249653,185.009995,4.06,-29.889999,1729429696790.0,0.0
-1.722832,-9.755538,6.721439,215.949997,-32.619999,-44.099998,1729429696812.0,0.0
-0.789631,-10.604989,5.668597,278.73999,-45.709999,-53.34,1729429696829.0,0.0
-0.914058,-6.996613,4.275974,286.649994,-20.16,-67.620003,1729429696851.0,0.0
-2.629712,-4.685147,5.563312,199.5,-17.15,-36.889999,1729429696871.0,0.0
-2.443072,-4.797609,5.005785,37.310001,-30.450001,-40.599998,1729429696891.0,0.0
-1.213161,-7.372287,4.359723,-45.849998,-40.529999,-35.349998,1729429696913.0,0.0
-0.514457,-7.745567,4.87418,-7.0,-31.92,-35.0,1729429696930.0,0.0
-0.114855,-7.41775,5.845665,48.299999,-35.0,-32.27,1729429696953.0,0.0
1.85683,-4.177868,5.455636,88.900002,-41.790001,-16.799999,1729429696970.0,0.0
0.382852,-2.861816,4.256832,51.66,-5.32,3.64,1729429696991.0,0.0
-2.562713,-4.039084,4.68754,-80.5,11.9,21.35,1729429697011.0,0.0
-2.39043,-8.492127,1.947758,-194.180008,4.48,13.65,1729429697030.0,0.0
-1.935793,-9.568897,1.782653,-179.970001,11.55,6.44,1729429697051.0,0.0
-2.184647,-10.827522,2.414358,-77.489998,-2.87,23.379999,1729429697071.0,0.0
-1.639083,-9.006584,2.538785,-31.290001,9.38,25.41,1729429697092.0,0.0
-1.198804,-7.563712,1.564906,-25.059999,10.5,35.630001,1729429697111.0,0.0
0.014357,-7.109076,0.547956,-58.52,28.35,42.07,1729429697131.0,0.0
1.634298,-8.690732,0.361316,-135.449997,29.33,30.52,1729429697152.0,0.0
0.887737,-11.705689,0.351745,-211.259995,45.709999,31.01,1729429697172.0,0.0
-1.428515,-14.689538,2.89053,-227.360001,54.389999,20.02,1729429697192.0,0.0
-3.125026,-16.185053,4.321437,-183.050003,48.23,-2.52,1729429697217.0,0.0
-4.055835,-13.399807,5.517848,-126.279999,33.25,-16.24,1729429697231.0,0.0
-3.189633,-10.059426,4.089334,-112.980003,3.43,-39.619999,1729429697251.0,0.0
-3.321238,-7.465607,4.23051,-138.740005,-11.27,-46.130001,1729429697273.0,0.0
-3.055635,-9.789038,4.041477,-144.130005,-26.530001,-45.779999,1729429697291.0,0.0
-0.165105,-11.332408,1.337588,-105.07,-45.57,-59.290001,1729429697312.0,0.0
-3.586841,-12.500106,3.909872,-69.510002,-17.15,-46.130001,1729429697333.0,0.0
-5.15414,-8.355737,3.452843,-58.59,-37.310001,-38.639999,1729429697351.0,0.0
0.650848,-4.65404,-0.734596,-139.860001,-48.509998,-45.849998,1729429697372.0,0.0
-0.918844,-6.501299,-2.818745,-226.240005,-46.970001,-18.27,1729429697394.0,0.0
-1.782653,-7.209574,-3.570091,-205.449997,-43.540001,5.32,1729429697412.0,0.0
-0.933201,-3.98405,-7.575676,-132.649994,-32.48,19.879999,1729429697431.0,0.0
-3.871587,-6.025128,-9.463614,-159.949997,-11.2,25.129999,1729429697452.0,0.0
-5.927022,-14.323436,-5.125426,-133.0,-8.68,29.120001,1729429697472.0,0.0
-4.582255,-13.617554,-8.961121,-47.599998,-16.73,24.08,1729429697491.0,0.0
-0.031107,-8.078169,-9.559326,115.360001,4.2,21.210001,1729429697515.0,0.0
-0.990629,-9.226725,-6.769295,173.460007,40.810001,33.740002,1729429697532.0,0.0
-1.864009,-10.777272,-3.486342,114.870003,58.380001,27.440001,1729429697552.0,0.0
-1.509871,-8.386844,-2.179861,16.59,60.41,15.190001,1729429697570.0,0.0
-1.332802,-7.006185,-1.378266,-20.440001,56.91,23.17,1729429697592.0,0.0
-0.399601,-6.21416,-4.31426,-39.27,59.849998,23.52,1729429697614.0,0.0
-0.327817,-10.25803,-2.940779,-75.040001,63.700001,33.18,1729429697631.0,0.0
-0.68674,-12.921242,-0.229711,-50.959999,57.189999,24.5,1729429697651.0,0.0
-0.557528,-11.653046,0.112463,1.12,41.720001,3.22,1729429697670.0,0.0
-0.792024,-9.174082,0.162712,13.93,23.309999,-10.99,1729429697691.0,0.0
-3.053242,-9.698111,-0.729811,-33.950001,5.53,-23.379999,1729429697715.0,0.0
-2.414358,-9.102298,-0.545564,-48.16,-12.74,-26.25,1729429697731.0,0.0
-0.538385,-8.989835,-1.830509,-42.560001,-37.939999,-24.5,1729429697752.0,0.0
-1.304088,-9.863215,-2.251646,-30.380001,-47.32,-25.9,1729429697770.0,0.0
-2.072184,-8.405986,-2.562713,-16.309999,-54.529999,-27.299999,1729429697791.0,0.0
-1.284946,-5.802595,-2.361716,-19.040001,-66.43,-13.93,1729429697813.0,0.0
-0.358923,-5.47717,-4.024727,-19.32,-75.18,7.21,1729429697831.0,0.0
-4.4674,-9.743573,-6.496514,-29.82,-59.220001,16.52,1729429697850.0,0.0
-5.307281,-5.850451,-8.518449,-106.190002,-37.380001,4.2,1729429697872.0,0.0
-3.424129,-7.267002,-10.475778,-139.369995,-38.849998,22.68,1729429697891.0,0.0
-3.321238,-9.449257,-11.038091,-58.73,-15.47,24.219999,1729429697912.0,0.0
-3.936193,-9.296116,-8.362915,29.889999,4.06,21.0,1729429697933.0,0.0
-3.517449,-8.62134,-5.501099,20.58,14.28,10.22,1729429697950.0,0.0
-2.096112,-10.222138,-4.113262,6.37,12.67,5.81,1729429697971.0,0.0
-2.15354,-8.695518,-4.292724,44.170002,14.84,-3.43,1729429697992.0,0.0
-1.830509,-8.372486,-4.740182,66.150002,16.870001,1.12,1729429698011.0,0.0
-1.646262,-10.590633,-5.977271,33.599998,21.35,1.61,1729429698032.0,0.0
-0.629312,-11.712867,-5.577669,68.25,36.540001,-1.05,1729429698051.0,0.0
-0.160319,-12.928421,-3.084348,192.850006,28.84,3.5,1729429698072.0,0.0
-1.974079,-9.171689,-1.007378,265.160004,36.610001,-13.3,1729429698090.0,0.0
-1.921437,-8.331808,-1.308874,204.470001,14.35,-14.28,1729429698113.0,0.0
-1.189233,-11.983256,-1.158126,193.479996,-19.040001,-14.56,1729429698130.0,0.0
-1.818545,-11.160125,-0.564706,311.779999,-24.360001,-14.42,1729429698150.0,0.0
-2.428715,-7.554141,0.447458,400.959991,-17.710001,-20.299999,1729429698170.0,0.0
-2.651247,-8.006385,1.543371,401.23999,-33.25,-15.190001,1729429698190.0,0.0
-1.268196,-8.623734,2.505285,373.869995,-44.170002,-13.16,1729429698217.0,0.0
-0.535992,-7.580462,3.689733,338.380005,-35.84,-14.63,1729429698232.0,0.0
-0.746561,-6.326623,4.333402,265.720001,-18.34,-12.81,1729429698327.0,0.0
-1.028914,-6.685547,4.354938,134.470001,-15.68,-13.79,1729429698329.0,0.0
-0.653241,-7.566105,4.165904,48.580002,-19.32,-11.62,1729429698331.0,0.0
-0.442672,-6.180661,5.599205,13.16,3.5,-5.39,1729429698337.0,0.0
-0.914058,-5.405386,4.500899,-74.970001,31.43,-0.91,1729429698346.0,0.0
-2.54357,-9.320045,6.175875,-204.399994,3.5,-9.87,1729429698380.0,0.0
-0.957129,-8.55434,4.074977,-292.040009,-8.19,-9.66,1729429698382.0,0.0
-1.605584,-9.272188,2.804388,-409.290009,4.9,-42.209999,1729429698390.0,0.0
-1.615155,-9.032906,1.201197,-450.450012,-17.85,-38.639999,1729429698413.0,0.0
-0.342174,-7.992027,0.337388,-445.410004,-25.200001,-50.75,1729429698430.0,0.0
-0.251246,-7.04447,-0.949951,-414.679993,-16.24,-41.23,1729429698450.0,0.0
-0.681954,-3.062813,-6.80758,-457.589996,-10.64,-38.150002,1729429698479.0,0.0
-2.072184,-9.674182,-7.503892,-476.839996,-14.7,-30.030001,1729429698490.0,0.0
-1.014557,-13.191631,-7.534998,-341.459991,-14.77,-9.24,1729429698512.0,0.0
0.844666,-8.147561,-6.946364,-70.980003,-22.469999,3.85,1729429698531.0,0.0
-0.040678,-4.957928,-8.200203,65.870003,-7.0,23.24,1729429698550.0,0.0
-1.253839,-7.312466,-8.949157,48.580002,9.17,34.790001,1729429698570.0,0.0
-1.160519,-10.69831,-9.901501,79.029999,17.99,45.150002,1729429698591.0,0.0
-1.014557,-10.872985,-6.652047,246.330002,27.440001,51.59,1729429698611.0,0.0
-1.830509,-9.131011,-2.945565,427.839996,33.810001,47.110001,1729429698630.0,0.0
-1.359123,-8.62134,-1.768296,531.720032,21.0,47.880001,1729429698650.0,0.0
-0.930808,-10.327423,-2.215754,567.630005,8.82,63.349998,1729429698671.0,0.0
-1.775474,-7.006185,1.01695,484.610016,24.5,53.48,1729429698690.0,0.0
-3.814159,-5.855237,4.814359,308.839996,12.95,66.57,1729429698718.0,0.0
-4.924429,-6.98465,5.469993,196.839996,-16.1,55.09,1729429698730.0,0.0
-3.522235,-10.260423,4.591826,192.710007,-25.129999,27.719999,1729429698756.0,0.0
-4.900501,-11.365908,5.903094,218.680008,-15.75,30.870001,1729429698771.0,0.0
-3.842873,-9.413363,7.262216,205.729996,-8.68,2.52,1729429698791.0,0.0
-2.368894,-6.910471,7.587641,130.970001,-17.780001,19.25,1729429698813.0,0.0
-1.253839,-2.888137,10.097712,11.9,-2.1,3.99,1729429698832.0,0.0
-0.09332,-6.812366,5.288138,-104.510002,-8.33,10.71,1729429698851.0,0.0
-0.897308,-9.58804,3.172883,-191.169998,-15.47,-9.52,1729429698871.0,0.0
-0.777667,-9.966106,3.323631,-204.399994,4.55,-3.36,1729429698892.0,0.0
-1.954936,-9.911072,3.608376,-197.050003,9.45,-6.51,1729429698913.0,0.0
-2.648855,-10.210175,3.445665,-195.720001,10.29,-18.76,1729429698932.0,0.0
-2.541178,-8.721838,3.869194,-224.559998,9.8,-27.440001,1729429698952.0,0.0
-2.761317,-7.281359,1.268196,-299.25,9.31,-31.01,1729429698972.0,0.0
-2.045863,-7.499106,-2.56032,-472.290009,-2.31,-46.689999,1729429698992.0,0.0
-2.56032,-3.534199,-2.038685,-575.609985,-14.28,-38.150002,1729429699049.0,0.0
-2.505285,-6.805188,-3.893122,-547.539978,-24.219999,-24.710001,1729429699050.0,0.0
-2.244468,-13.253844,-5.730811,-391.929993,-48.299999,-12.74,1729429699169.0,0.0
-0.519243,-10.638489,-6.01077,-101.779999,-44.240002,-6.02,1729429699173.0,0.0
-0.772882,-5.606383,-6.178268,-26.460001,-28.210001,-9.87,1729429699174.0,0.0
-2.770889,-6.352944,-4.761717,-181.020004,-12.32,2.66,1729429699175.0,0.0
-0.792024,-6.635297,-5.412565,-181.440002,-37.869999,9.59,1729429699177.0,0.0
-1.409373,-2.596212,-7.9346,-152.460007,-34.720001,10.78,1729429699178.0,0.0
-2.531606,-2.318645,-13.325629,-220.710007,-25.059999,21.139999,1729429699179.0,0.0
-2.878566,-6.537192,-10.765309,-249.759995,-6.79,32.689999,1729429699193.0,0.0
-3.433701,-9.281759,-8.334201,-168.419998,-2.31,23.73,1729429699215.0,0.0
-2.885744,-8.99462,-9.219545,-104.160004,-5.11,-5.95,1729429699232.0,0.0
-2.313859,-6.412765,-9.262616,-57.049999,-5.67,-20.790001,1729429699252.0,0.0
-3.113062,-4.87418,-8.243275,-45.709999,3.99,-20.51,1729429699271.0,0.0
-2.711068,-5.958128,-8.650054,-59.709999,7.7,-12.39,1729429699292.0,0.0
-2.325824,-5.424529,-9.020942,-44.66,9.31,-11.62,1729429699313.0,0.0
-2.299503,-5.804988,-9.853643,-12.18,12.53,-6.51,1729429699332.0,0.0
-2.340181,-5.235496,-10.243673,40.459999,16.799999,0.7,1729429699351.0,0.0
-2.957529,-6.60419,-8.398808,70.629997,23.59,7.28,1729429699372.0,0.0
-3.175276,-7.534998,-8.056634,87.220001,24.85,4.9,1729429699391.0,0.0
-1.945365,-8.075776,-8.338986,100.239998,26.32,-2.03,1729429699413.0,0.0
-1.476372,-7.951349,-6.999006,127.470001,23.73,-2.59,1729429699436.0,0.0
-1.770689,-5.778666,-4.409972,144.199997,12.81,-5.6,1729429699451.0,0.0
-1.923829,-6.419943,-6.149554,104.790001,0.84,-7.63,1729429699473.0,0.0
-1.411765,-6.89133,-7.702496,86.309998,-6.79,-6.09,1729429699495.0,0.0
-1.871187,-6.326623,-7.257431,110.25,-8.75,-1.26,1729429699512.0,0.0
-2.165504,-7.391429,-6.058627,115.080002,-14.91,-4.13,1729429699532.0,0.0
-1.964507,-7.786245,-6.381658,102.129997,-28.0,-10.08,1729429699552.0,0.0
-1.931008,-4.345366,-7.223931,105.07,-33.740002,-14.7,1729429699572.0,0.0
-3.692125,-3.352344,-8.439486,117.389999,-27.65,13.79,1729429699592.0,0.0
-1.995614,-10.774881,-7.800602,128.940002,-16.030001,13.79,1729429699615.0,0.0
-1.569692,-11.636297,-7.259824,220.360001,-23.73,14.77,1729429699633.0,0.0
-1.442872,-10.272388,-7.853244,326.269989,-4.76,9.94,1729429699652.0,0.0
-2.490928,-7.762317,-5.185246,344.959991,12.32,13.3,1729429699673.0,0.0
-2.031506,-9.355937,-4.955536,332.640015,17.99,7.7,1729429699693.0,0.0
-1.572084,-10.346564,-2.773281,309.959991,31.99,-11.34,1729429699713.0,0.0
-1.507478,-9.389436,-0.820738,281.959991,22.889999,-22.120001,1729429699732.0,0.0
-2.474179,-8.181061,1.521835,279.579987,26.040001,-16.309999,1729429699752.0,0.0
-2.481357,-7.831708,4.165904,258.51001,12.46,-31.780001,1729429699772.0,0.0
-2.132005,-10.413565,5.955735,262.779999,-28.630001,-45.150002,1729429699793.0,0.0
-0.646062,-9.260223,3.175276,256.76001,-33.950001,-64.050003,1729429699815.0,0.0
-2.222932,-7.666604,3.24706,250.669998,-2.73,-53.760002,1729429699833.0,0.0
-2.821138,-6.802795,5.596812,186.899994,-7.21,-45.920002,1729429699853.0,0.0
-1.115055,-6.9344,6.312266,79.309998,-21.91,-48.369999,1729429699872.0,0.0
-0.179462,-7.733603,4.721039,2.52,-14.77,-44.310001,1729429699891.0,0.0
-1.12702,-9.078369,4.13719,-15.75,-8.05,-39.27,1729429699914.0,0.0
-0.78006,-8.173882,4.843073,17.219999,-17.99,-40.389999,1729429699934.0,0.0
-1.730011,-5.74756,4.716253,102.550003,-3.99,-29.960001,1729429699956.0,0.0
-1.569692,-4.371687,4.788038,125.090004,-18.620001,-9.73,1729429699975.0,0.0
1.57687,0.471386,7.192825,65.660004,-44.66,-0.56,1729429699993.0,0.0
1.251446,-1.67019,4.622933,-53.970001,-16.17,48.09,1729429700014.0,0.0
-1.971686,-6.539584,1.718047,-227.639999,20.299999,7.91,1729429700032.0,0.0
-1.59362,-10.363315,-0.37328,-285.880005,-1.68,31.360001,1729429700052.0,0.0
-1.76351,-12.519248,1.48355,-224.770004,-1.54,31.5,1729429700072.0,0.0
-1.31366,-13.07199,1.990828,-121.169998,-10.01,48.580002,1729429700092.0,0.0
-0.131605,-10.705488,2.562713,-20.51,-5.6,45.639999,1729429700113.0,0.0
-0.179462,-6.269196,1.722832,18.969999,17.780001,57.889999,1729429700136.0,0.0
0.031107,-8.441878,2.443072,-75.040001,51.869999,32.200001,1729429700153.0,0.0
-2.976671,-13.009777,0.636491,-199.149994,11.97,26.040001,1729429700172.0,0.0
-3.002992,-15.8692,0.567099,-171.570007,2.45,22.26,1729429700192.0,0.0
-2.584249,-14.730216,3.184847,-63.07,17.43,5.46,1729429700218.0,0.0
-3.505485,-10.566705,5.936593,39.48,34.23,-3.01,1729429700232.0,0.0
-4.67079,-8.903693,4.601398,39.549999,31.57,-22.190001,1729429700251.0,0.0
-1.332802,-8.867801,1.292124,5.53,-15.82,-32.060001,1729429700273.0,0.0
-2.500499,-8.571091,4.843073,1.68,6.58,-17.57,1729429700293.0,0.0
-3.261417,-9.638289,4.146761,-46.619999,7.56,-29.33,1729429700317.0,0.0
-0.949951,-9.403792,1.533799,-101.150002,-13.93,-32.41,1729429700333.0,0.0
0.014357,-8.985049,0.612563,-104.790001,-9.1,-24.5,1729429700353.0,0.0
-1.268196,-10.774881,2.596212,-116.129997,4.97,-23.309999,1729429700374.0,0.0
-2.505285,-10.928021,2.715853,-129.289993,-0.35,-24.85,1729429700392.0,0.0
-0.18664,-9.652647,1.098306,-151.130005,-10.71,-45.639999,1729429700415.0,0.0
-0.129212,-9.556933,0.634098,-182.699997,-13.37,-31.219999,1729429700432.0,0.0
-0.440279,-6.240481,-0.789631,-215.110001,-2.1,-27.09,1729429700453.0,0.0
-0.945165,-5.218746,-1.538585,-275.519989,-7.91,-28.98,1729429700473.0,0.0
-1.45005,-8.140383,-4.457829,-309.329987,-13.440001,-4.9,1729429700493.0,0.0
-1.679761,-8.405986,-6.118448,-272.019989,-11.27,5.6,1729429700529.0,0.0
-2.167897,-7.575676,-7.683353,-183.399994,-2.59,12.6,1729429700532.0,0.0
-2.007578,-7.903493,-7.831708,-91.629997,3.92,25.549999,1729429700552.0,0.0
-1.935793,-8.980263,-7.743174,-31.219999,9.31,29.190001,1729429700572.0,0.0
-2.277967,-9.879964,-8.475377,-3.99,22.120001,24.08,1729429700591.0,0.0
-2.136791,-8.216952,-2.122434,-0.77,33.18,17.360001,1729429700613.0,0.0
-1.452443,-8.394022,-2.397608,36.68,13.440001,20.299999,1729429700632.0,0.0
-1.29691,-9.51147,-3.409772,53.130001,-1.96,19.25,1729429700652.0,0.0
-1.258625,-9.638289,-5.577669,55.720001,-4.2,15.82,1729429700672.0,0.0
-2.62732,-9.868,-6.635297,-10.78,13.79,6.23,1729429700693.0,0.0
-2.124826,-10.377672,-4.113262,-9.73,18.200001,10.01,1729429700713.0,0.0
-0.430708,-10.334601,-4.546363,55.16,13.93,11.83,1729429700733.0,0.0
0.509671,-10.537991,-4.26401,87.57,11.9,10.22,1729429700752.0,0.0
0.09332,-9.375079,-2.768496,90.510002,17.92,3.92,1729429700772.0,0.0
-0.507278,-9.296116,-2.057827,40.810001,12.88,-8.12,1729429700791.0,0.0
0.715454,-8.827123,-2.833102,9.66,-0.21,-12.25,1729429700819.0,0.0
0.524028,-8.659625,-3.706482,24.85,-2.8,-9.59,1729429700832.0,0.0
-1.265803,-7.099504,-1.318445,40.599998,4.69,-7.56,1729429700852.0,0.0
-0.940379,-7.951349,-1.569692,-25.620001,-11.06,-5.88,1729429700872.0,0.0
0.069392,-9.870394,-1.952543,-80.43,-27.51,-8.75,1729429700890.0,0.0
-0.210568,-11.145767,-1.971686,-70.559998,-37.66,-16.030001,1729429700912.0,0.0
-1.134198,-6.836295,-3.306881,-56.700001,-52.920002,-26.18,1729429700932.0,0.0
-0.708275,-10.566705,-10.150353,-25.76,-78.470001,-17.85,1729429700951.0,0.0
-1.95015,-9.219545,-9.487542,67.340004,-40.599998,-6.3,1729429700971.0,0.0
-5.151747,-7.896315,-8.973085,37.170002,0.14,-7.63,1729429700991.0,0.0
-2.007578,-6.666404,-7.688138,9.66,6.93,-2.94,1729429701012.0,0.0
-0.985843,-6.723832,-5.245068,8.89,12.81,6.09,1729429701031.0,0.0
-2.423929,-8.374879,-4.639683,31.57,17.639999,1.82,1729429701051.0,0.0
-1.892723,-8.382057,-4.630112,21.280001,11.41,-0.28,1729429701070.0,0.0
-2.091327,-7.819745,-4.524827,-17.85,14.35,-4.69,1729429701093.0,0.0
-2.091327,-8.54477,-5.682954,-37.66,18.059999,-4.34,1729429701113.0,0.0
-1.241875,-8.84148,-6.943972,-42.139999,28.280001,-2.1,1729429701132.0,0.0
0.375673,-10.004392,-4.278367,-13.51,39.200001,4.13,1729429701152.0,0.0
-1.435694,-11.770294,-0.533599,27.09,43.400002,8.05,1729429701173.0,0.0
-1.28016,-9.836893,0.212961,35.07,29.75,-6.65,1729429701192.0,0.0
-0.89013,-11.889936,-1.079163,19.809999,4.97,-9.03,1729429701217.0,0.0
-0.430708,-12.777672,-2.790031,95.760002,-8.33,-12.18,1729429701233.0,0.0
-0.488136,-12.504892,-2.854637,223.089996,-12.18,-7.98,1729429701252.0,0.0
-0.677169,-12.126825,-2.524428,332.850006,-20.719999,-3.92,1729429701273.0,0.0
-0.241675,-9.221939,-0.459422,491.679993,-31.43,6.86,1729429701292.0,0.0
-0.392423,-6.001199,0.899701,482.720001,-17.01,10.78,1729429701314.0,0.0
-0.638884,-3.436093,2.447858,349.720001,2.1,8.26,1729429701332.0,0.0
0.009571,-3.74716,3.333202,168.559998,1.82,17.780001,1729429701352.0,0.0
0.177069,-3.938586,5.977271,-7.91,9.52,15.75,1729429701372.0,0.0
-0.916451,-3.562913,4.252046,-248.850006,25.76,17.15,1729429701393.0,0.0
-0.928415,-4.816752,-3.172883,-488.950012,0.14,-4.97,1729429701415.0,0.0
-4.163511,-8.999406,-4.721039,-557.549988,-14.63,7.49,1729429701432.0,0.0
-1.899901,-8.317451,-4.792823,-479.290009,-39.130001,15.89,1729429701452.0,0.0
-0.691526,-9.489935,-6.704689,-378.209991,-37.380001,36.68,1729429701472.0,0.0
-2.18704,-9.504292,-5.587241,-357.769989,-18.76,19.32,1729429701491.0,0.0
-3.785445,-9.487542,-10.353743,-380.380005,-6.86,10.99,1729429701513.0,0.0
-2.074577,-15.349957,-9.997212,-246.75,-12.67,16.1,1729429701532.0,0.0
0.29671,-12.552748,-10.382458,-12.6,-19.530001,22.26,1729429701552.0,0.0
0.031107,-9.671788,-6.369694,244.580002,-2.38,32.130001,1729429701572.0,0.0
-2.677568,-7.300502,-2.553142,309.26001,15.54,33.529999,1729429701592.0,0.0
-4.070191,-4.034299,-2.213361,223.440002,40.389999,28.280001,1729429701613.0,0.0
-1.837688,-10.461421,-3.37388,168.279999,12.04,62.720001,1729429701632.0,0.0
-2.837888,-12.856635,-1.753939,319.549988,11.34,61.880001,1729429701652.0,0.0
-3.759124,-11.382657,-2.574677,564.200012,-14.56,69.510002,1729429701671.0,0.0
-4.785645,-9.276974,1.347159,679.349976,14.98,59.709999,1729429701692.0,0.0
-5.953342,-5.395815,3.120241,476.700012,68.599998,56.91,1729429701714.0,0.0
-4.596612,-1.90708,4.941179,191.660004,-22.049999,63.139999,1729429701732.0,0.0
-4.718646,-8.025528,4.524827,134.75,-51.52,50.75,1729429701753.0,0.0
-4.558327,-11.47837,1.028914,262.850006,-11.13,24.43,1729429701773.0,0.0
-3.565305,-9.4349,4.697111,385.839996,13.16,-11.48,1729429701791.0,0.0
-5.563312,-3.134598,13.737194,353.5,43.889999,61.32,1729429701816.0,0.0
-4.883751,-2.273181,11.32523,125.790001,-2.87,13.09,1729429701838.0,0.0
-5.469993,-1.655833,9.466006,-114.449997,-23.59,10.08,1729429701852.0,0.0
-2.928815,-6.477371,3.507878,-249.690002,-54.040001,-17.57,1729429701872.0,0.0
-2.672783,-11.277373,2.512464,-296.029999,-31.639999,-25.200001,1729429701891.0,0.0
-2.876173,-11.600404,3.507878,-228.410004,-20.23,-14.84,1729429701914.0,0.0
-2.775674,-9.580862,5.168497,-146.509995,1.82,-17.85,1729429701932.0,0.0
-2.323431,-7.515855,5.288138,-198.449997,1.19,-44.939999,1729429701952.0,0.0
-2.079363,-4.85743,3.495914,-309.820007,0.91,-51.799999,1729429701972.0,0.0
-3.031706,-4.548756,-0.179462,-432.670013,-1.4,-49.420002,1729429701992.0,0.0
-3.895515,-5.788238,-2.335395,-528.98999,-7.14,-59.010002,1729429702015.0,0.0
-3.144169,-8.171489,-4.496114,-553.630005,-14.77,-57.959999,1729429702033.0,0.0
-1.404587,-10.231709,-5.668597,-470.190002,-24.92,-45.150002,1729429702053.0,0.0
-1.476372,-12.468999,-6.862615,-250.880005,-30.66,-19.950001,1729429702073.0,0.0
-0.725025,-6.915257,-3.627519,-57.470001,-3.08,-16.940001,1729429702093.0,0.0
-1.732404,-5.402994,-0.641276,-75.809998,-4.41,-4.69,1729429702114.0,0.0
-1.887937,-6.132804,-2.706282,-158.339996,-19.389999,8.54,1729429702136.0,0.0
-1.787439,-5.795416,-4.130012,-173.809998,-26.74,21.49,1729429702152.0,0.0
-2.902494,-3.893122,-7.422535,-168.0,-23.73,26.460001,1729429702172.0,0.0
-3.634698,-3.326023,-11.397014,-224.139999,-15.05,33.529999,1729429702193.0,0.0
-4.646862,-7.652246,-8.140383,-285.950012,-5.11,33.950001,1729429702217.0,0.0
-2.718246,-11.083554,-10.844273,-276.640015,-4.76,8.54,1729429702233.0,0.0
-2.201397,-7.788638,-9.066404,-154.979996,-4.76,-3.36,1729429702253.0,0.0
-2.545963,-4.859823,-8.977871,-61.599998,11.48,-10.36,1729429702273.0,0.0
-2.277967,-4.716253,-8.750552,-78.75,12.67,-1.12,1729429702294.0,0.0
-2.22054,-6.252446,-9.066404,-54.040001,14.63,4.97,1729429702316.0,0.0
-2.311467,-4.974678,-7.549356,-23.24,14.84,7.7,1729429702334.0,0.0
-2.854637,-5.54417,-8.11167,-22.960001,12.32,11.41,1729429702353.0,0.0
-3.397808,-5.338387,-8.547162,-6.65,10.71,11.48,1729429702373.0,0.0
-3.823731,-4.256832,-9.382257,0.07,13.3,11.13,1729429702394.0,0.0
-3.661019,-5.529813,-9.406186,15.54,19.460001,11.62,1729429702416.0,0.0
-3.412165,-5.443672,-8.633304,37.310001,21.98,12.39,1729429702434.0,0.0
-3.354738,-6.228518,-7.453642,35.490002,22.610001,10.22,1729429702453.0,0.0
-3.493521,-6.845865,-7.470392,22.75,18.129999,6.65,1729429702475.0,0.0
-3.227918,-8.219346,-8.283953,41.299999,15.68,-1.19,1729429702494.0,0.0
-2.701497,-7.180861,-7.67139,68.110001,13.3,-5.39,1729429702517.0,0.0
-2.29711,-6.73101,-7.838887,69.300003,15.61,-8.82,1729429702534.0,0.0
-2.464607,-6.867401,-8.078169,78.470001,15.68,-11.2,1729429702558.0,0.0
-3.031706,-5.024928,-8.23131,84.629997,11.9,-13.16,1729429702573.0,0.0
-3.507878,-4.366901,-8.02792,86.239998,7.21,-9.17,1729429702594.0,0.0
-3.127419,-5.462814,-8.901299,82.459999,3.85,-9.73,1729429702617.0,0.0
-2.804388,-5.888737,-9.145369,75.32,6.23,-11.48,1729429702634.0,0.0
-1.342373,-5.429315,-9.370294,63.98,7.49,-15.68,1729429702653.0,0.0
0.002393,-3.625126,-10.466206,75.599998,15.05,-11.27,1729429702674.0,0.0
-0.136391,-5.706882,-10.925629,113.260002,30.73,0.98,1729429702693.0,0.0
-0.547956,-4.400401,-5.312066,182.979996,51.380001,11.97,1729429702716.0,0.0
-2.646462,-0.040678,-0.746561,111.720001,59.150002,10.57,1729429702734.0,0.0
-2.962314,-6.79083,-7.013363,-76.160004,30.940001,7.77,1729429702753.0,0.0
-1.177269,-11.703296,-9.68136,-2.1,22.68,19.32,1729429702774.0,0.0
-1.854438,-11.408978,-7.587641,202.440002,37.799999,25.41,1729429702794.0,0.0
-2.117648,-8.705089,-5.419744,290.290009,47.810001,16.379999,1729429702816.0,0.0
-1.261017,-7.058826,-0.478565,305.690002,40.529999,34.23,1729429702834.0,0.0
-0.777667,-7.389036,0.459422,243.180008,33.810001,30.24,1729429702854.0,0.0
-3.089134,-8.975478,4.266403,152.460007,18.690001,27.02,1729429702873.0,0.0
-3.366701,-10.798808,-0.124427,-110.809998,-17.08,-13.3,1729429702893.0,0.0
-2.057827,-11.093125,-3.287738,-170.869995,-38.290001,-20.790001,1729429702915.0,0.0
-1.65344,-8.590233,-5.173282,-142.240005,-36.540001,-25.620001,1729429702933.0,0.0
-1.825724,-7.908278,-3.986443,-88.059998,-32.34,-8.26,1729429702953.0,0.0
-3.09392,-9.583255,-3.761517,-35.349998,-34.02,2.52,1729429702974.0,0.0
-3.201597,-9.054441,-4.993821,22.26,-35.91,6.86,1729429702993.0,0.0
-3.086741,-8.396415,-3.924229,39.689999,-31.290001,8.26,1729429703015.0,0.0
-2.993421,-9.013763,-3.309274,21.42,-36.540001,13.23,1729429703034.0,0.0
-2.964707,-10.468598,-2.940779,51.799999,-39.34,13.93,1729429703053.0,0.0
-2.876173,-10.092925,-5.309673,81.269997,-42.279999,6.86,1729429703074.0,0.0
-3.897908,-10.865808,-5.168497,104.93,-35.630001,2.45,1729429703094.0,0.0
-3.345166,-11.062018,-2.086541,146.440002,-41.650002,3.92,1729429703114.0,0.0
-2.37368,-8.752945,-1.643869,165.759995,-43.049999,-0.84,1729429703134.0,0.0
-2.105684,-6.053841,-1.311267,61.25,-32.130001,-16.73,1729429703153.0,0.0
-2.354537,-5.761917,-2.218147,-86.660004,-42.84,-16.24,1729429703174.0,0.0
-2.852244,-9.253045,-3.931407,-116.129997,-38.080002,-16.940001,1729429703193.0,0.0
-1.028914,-8.207381,-6.553941,-124.25,-31.08,-34.369999,1729429703217.0,0.0
-0.799203,-8.465806,-6.558727,-201.600006,-18.690001,-30.66,1729429703233.0,0.0
-0.150748,-6.161518,-8.090133,-238.279999,-3.08,-40.32,1729429703323.0,0.0
0.294317,-4.409972,-11.033305,-195.440002,13.440001,-14.98,1729429703327.0,0.0
-1.0002,-6.786045,-13.813765,-141.399994,43.400002,0.21,1729429703331.0,0.0
-4.850252,-8.54477,-0.981057,-103.040001,53.34,2.31,1729429703334.0,0.0
-2.586641,-8.190632,-1.445265,-60.130001,14.35,-9.59,1729429703335.0,0.0
-1.397408,-4.352544,-4.680361,-73.080002,-2.24,-7.98,1729429703353.0,0.0
-2.65364,-7.951349,-8.750552,-117.669998,3.57,1.47,1729429703373.0,0.0
-3.885944,-12.691531,-9.19801,-94.849998,23.73,7.28,1729429703393.0,0.0
-2.507678,-10.774881,-9.901501,35.279999,29.4,2.59,1729429703425.0,0.0
-0.921237,-7.245467,-5.879165,251.300003,27.51,23.450001,1729429703433.0,0.0
-1.536192,-8.298308,-2.648855,314.019989,23.66,25.620001,1729429703453.0,0.0
-2.962314,-9.738789,-2.28036,247.660004,42.490002,8.12,1729429703473.0,0.0
-1.79701,-9.923036,-3.85723,269.850006,28.210001,12.46,1729429703493.0,0.0
-0.246461,-8.657232,-4.709075,412.929993,8.82,30.309999,1729429703517.0,0.0
-1.502693,-8.300702,1.935793,547.679993,8.75,44.799999,1729429703533.0,0.0
-4.668397,-7.003791,2.926422,443.660004,28.280001,21.84,1729429703553.0,0.0
-6.190232,-7.049256,4.847858,288.540009,-3.08,66.220001,1729429703573.0,0.0
-2.612962,-8.575876,2.505285,273.559998,-68.809998,45.009998,1729429703593.0,0.0
-2.203789,-10.444671,5.06082,346.709991,-24.290001,28.84,1729429703614.0,0.0
-5.56092,-7.946564,5.888737,376.73999,17.01,-3.78,1729429703633.0,0.0
-6.553941,-7.458428,6.556334,365.049988,-3.85,14.63,1729429703653.0,0.0
-4.63729,-6.833901,7.142576,332.920013,-17.57,1.4,1729429703673.0,0.0
-2.806781,-1.85683,9.353544,283.640015,-3.01,-22.33,1729429703694.0,0.0
-4.969893,-4.412365,9.846465,197.889999,-17.360001,-21.98,1729429703714.0,0.0
-4.07737,-9.377472,7.362715,185.149994,-62.510002,-22.469999,1729429703733.0,0.0
-0.698704,-8.221739,5.647062,269.640015,-26.950001,-45.220001,1729429703753.0,0.0
-1.378266,1.237089,9.482756,261.589996,21.35,-38.920002,1729429703778.0,0.0
-2.414358,-2.739782,6.161518,27.23,-26.040001,-41.23,1729429703985.0,0.0
-0.552742,-2.586641,8.166703,111.790001,-25.059999,-45.150002,1729429703987.0,0.0
-1.545763,3.632305,10.325029,172.759995,21.700001,-41.23,1729429703989.0,0.0
-3.991228,5.029713,9.162118,43.189999,6.02,0.56,1729429703991.0,0.0
-2.230111,-0.976272,8.750552,-90.019997,-32.759998,1.19,1729429703994.0,0.0
-0.801596,-1.442872,8.212167,-88.480003,-12.18,2.94,1729429703996.0,0.0
-3.089134,-2.098505,7.819745,-131.600006,7.77,11.13,1729429703997.0,0.0
-3.481557,-5.556134,9.432507,-224.979996,-7.0,-10.43,1729429703997.0,0.0
-1.318445,-7.786245,11.018949,-301.070007,-24.01,-29.26,1729429704003.0,0.0
1.119841,-5.599205,7.733603,-315.769989,-18.27,-28.07,1729429704008.0,0.0
0.167498,-4.811966,6.606583,-260.540009,-2.73,-9.45,1729429704014.0,0.0
-0.808774,-5.79781,7.826923,-244.089996,-6.16,-19.74,1729429704032.0,0.0
-0.902094,-4.709075,7.264609,-287.839996,-14.91,-29.75,1729429704053.0,0.0
-1.244268,-4.500899,8.228917,-319.829987,-20.23,-20.51,1729429704072.0,0.0
-1.639083,-4.242475,6.565905,-413.140015,-16.379999,-29.75,1729429704093.0,0.0
-1.806581,-8.855836,2.749353,-504.630005,-47.18,-40.810001,1729429704119.0,0.0
-0.272782,-9.987641,0.624527,-481.529999,-46.759998,-51.66,1729429704135.0,0.0
-0.5001,-8.922836,1.45005,-379.679993,-31.290001,-36.889999,1729429704153.0,0.0
-1.981257,-10.435099,-2.036292,-337.820007,-39.549999,-35.560001,1729429704174.0,0.0
-1.359123,-8.800802,-2.658426,-318.079987,-38.57,-29.889999,1729429704194.0,0.0
-0.739382,-5.556134,-2.871387,-282.730011,-35.560001,-15.47,1729429704223.0,0.0
-1.684547,-4.558327,-3.962514,-307.299988,-30.450001,-3.15,1729429704331.0,0.0
-0.856631,-7.401,-4.608576,-324.309998,-31.780001,6.3,1729429704332.0,0.0
0.031107,-4.362115,-6.762117,-305.76001,-41.369999,16.870001,1729429704332.0,0.0
-1.533799,-5.142176,-8.796017,-298.619995,-29.889999,40.32,1729429704333.0,0.0
-1.993221,-15.254245,-11.064411,-240.800003,-34.299999,29.610001,1729429704335.0,0.0
-0.799203,-12.655639,-9.257831,-75.669998,-26.67,14.21,1729429704335.0,0.0
0.37328,-5.74756,-7.357929,126.489998,-31.43,14.0,1729429704353.0,0.0
-0.722632,-5.036892,-8.317451,131.389999,-17.780001,32.41,1729429704373.0,0.0
-1.289732,-9.939785,-10.482956,123.270004,10.43,46.759998,1729429704450.0,0.0
-0.189033,-10.844273,-8.188239,192.149994,7.84,48.439999,1729429704459.0,0.0
-0.349352,-5.108676,-5.781059,222.110001,14.35,47.529999,1729429704462.0,0.0
-1.959722,-7.82453,-6.771688,186.270004,10.29,58.310001,1729429704466.0,0.0
-1.287339,-11.251052,-8.161918,199.850006,11.76,50.610001,1729429704475.0,0.0
-2.012364,-11.023734,-9.138189,371.910004,-9.38,68.599998,1729429704494.0,0.0
-2.773281,-7.645068,-2.639283,379.26001,18.48,68.25,1729429704521.0,0.0
-4.09412,-7.24786,-0.095713,280.769989,17.08,70.349998,1729429704535.0,0.0
-4.12044,-8.700303,-2.029114,239.680008,11.48,62.580002,1729429704554.0,0.0
-2.15354,-9.690931,-1.646262,330.540009,11.27,73.43,1729429704574.0,0.0
-1.72044,-4.074977,10.346564,412.720001,43.259998,77.279999,1729429704598.0,0.0
-7.307681,-1.629512,12.098111,274.959991,69.580002,30.799999,1729429704617.0,0.0
-8.109276,-3.115455,5.927022,121.520004,-22.33,62.02,1729429704635.0,0.0
-3.196811,-10.382458,2.632105,92.75,-32.689999,27.299999,1729429704654.0,0.0
-4.630112,-8.370094,4.065405,130.199997,-19.460001,41.02,1729429704675.0,0.0
-5.869594,-10.411172,6.963113,182.910004,14.49,19.950001,1729429704694.0,0.0
-7.152147,-9.970891,7.728817,45.220001,-7.14,1.61,1729429704718.0,0.0
-4.54397,-8.91805,6.427122,-41.369999,-17.99,-29.469999,1729429704736.0,0.0
-3.926622,-5.111069,7.032506,-112.699997,-20.23,-37.59,1729429704754.0,0.0
-1.526621,-4.144369,5.405386,-137.759995,-38.779999,-14.49,1729429704775.0,0.0
-0.631705,-6.89133,2.385644,-112.489998,-38.57,-19.950001,1729429704794.0,0.0
-3.749553,-9.346365,2.806781,-53.830002,-31.01,1.82,1729429704817.0,0.0
-5.034499,-8.903693,3.797409,4.48,-11.69,3.15,1729429704835.0,0.0
-5.264209,-8.477771,4.991428,-78.610001,-8.75,-11.97,1729429704854.0,0.0
-5.726025,-10.186246,2.471786,-213.080002,-21.0,-37.310001,1729429704874.0,0.0
-3.998406,-10.837094,-0.275175,-273.980011,-25.200001,-54.950001,1729429704894.0,0.0
-2.400001,-10.061819,-1.088734,-220.430008,-11.83,-49.630001,1729429704916.0,0.0
-1.665405,-8.642875,1.002593,-129.779999,14.63,-54.670002,1729429704935.0,0.0
-1.725225,-7.15454,0.990629,-120.68,20.790001,-41.09,1729429704955.0,0.0
-1.079163,-8.958728,-1.272982,-166.389999,16.66,-38.150002,1729429704974.0,0.0
-1.261017,-9.501899,1.383051,-141.75,11.55,-23.17,1729429704995.0,0.0
-2.134398,-9.35833,2.294717,-57.119999,2.31,-18.969999,1729429705016.0,0.0
-3.287738,-7.582855,1.552942,-35.209999,-5.39,-21.49,1729429705035.0,0.0
-2.840281,-7.121039,1.622334,-62.510002,-23.24,-9.8,1729429705055.0,0.0
-2.313859,-8.879765,1.416551,-73.010002,-38.43,-0.77,1729429705075.0,0.0
-3.002992,-8.793623,2.469393,-34.860001,-45.639999,5.46,1729429705101.0,0.0
-4.802395,-9.975677,1.026521,-39.759998,-63.07,4.97,1729429705116.0,0.0
-0.452243,-9.102298,-1.933401,-50.400002,-82.459999,5.39,1729429705135.0,0.0
-1.426122,-9.542577,-5.374279,-34.299999,-70.910004,19.110001,1729429705155.0,0.0
-3.644269,-6.396015,-7.362715,-48.860001,-29.82,14.84,1729429705174.0,0.0
-3.617948,-7.405786,-4.828716,-26.040001,-21.0,48.790001,1729429705196.0,0.0
-3.376273,-9.152546,-2.517249,42.91,-14.07,57.82,1729429705220.0,0.0
-4.395615,-9.169296,-2.084148,135.169998,-9.59,57.959999,1729429705234.0,0.0
-4.644469,-9.056834,-2.311467,145.880005,-9.73,57.260002,1729429705255.0,0.0
-4.278367,-9.734003,-2.311467,80.43,-10.36,48.93,1729429705275.0,0.0
-4.108476,-8.956335,-1.813759,42.420002,-4.9,38.43,1729429705295.0,0.0
-4.888536,-9.145369,-0.418744,45.080002,1.47,37.099998,1729429705316.0,0.0
-4.704289,-9.822537,0.212961,54.599998,-0.84,34.439999,1729429705335.0,0.0
-4.096512,-10.403993,0.39003,81.129997,-1.33,33.670002,1729429705354.0,0.0
-4.555934,-10.267602,1.567299,90.580002,9.17,22.960001,1729429705374.0,0.0
-5.297709,-9.932607,2.696711,71.400002,6.86,13.02,1729429705394.0,0.0
-5.197211,-9.688539,3.495914,46.27,6.86,4.13,1729429705418.0,0.0
-4.666004,-9.724431,3.675375,14.91,-10.64,-1.05,1729429705435.0,0.0
-4.527221,-9.822537,2.232504,-17.57,-17.08,-10.29,1729429705454.0,0.0
-4.287938,-9.911072,0.837488,-61.810001,-10.22,-30.1,1729429705474.0,0.0
-3.273381,-8.602197,-0.196211,-121.379997,-12.04,-29.120001,1729429705494.0,0.0
-2.969493,-6.723832,-1.048056,-153.649994,-3.71,-31.85,1729429705517.0,0.0
-3.251846,-5.943772,-3.639483,-192.5,2.66,-25.48,1729429705534.0,0.0
-3.95055,-6.374479,-3.48395,-226.729996,12.39,-15.68,1729429705554.0,0.0
-4.811966,-7.331609,-3.869194,-278.110016,17.01,-18.549999,1729429705574.0,0.0
-7.369894,-7.735995,1.471586,-351.820007,1.89,-24.710001,1729429705594.0,0.0
-5.618347,-11.916256,-2.768496,-355.880005,-27.719999,-34.369999,1729429705616.0,0.0
-1.442872,-10.406385,-5.381458,-175.279999,-40.950001,-19.879999,1729429705634.0,0.0
-3.091527,-5.343173,-5.393422,-97.440002,-12.74,-22.190001,1729429705654.0,0.0
-4.223332,-4.721039,-5.79781,-166.180008,-6.51,-5.74,1729429705674.0,0.0
-2.256432,-5.895915,-7.200003,-198.029999,-4.69,10.92,1729429705694.0,0.0
-3.725625,-8.762517,-7.41775,-168.770004,2.17,14.98,1729429705716.0,0.0
-3.68734,-9.927821,-7.499106,-153.789993,8.4,-4.9,1729429705734.0,0.0
-3.184847,-9.001799,-5.178068,-85.610001,1.19,-12.67,1729429705755.0,0.0
