acc_x,acc_y,acc_z,gyr_x,gyr_y,gyr_z,timestamp,label
-2.924029,-8.157133,-1.251446,-88.690002,-58.310001,49.279999,1729421443682.0,0.0
-3.309274,-9.410972,-2.292324,-48.439999,-63.139999,58.099998,1729421443683.0,0.0
-7.23111,-8.989835,-2.299503,26.18,-65.029999,64.610001,1729421443684.0,0.0
-10.722239,-9.487542,-3.213561,9.8,-63.0,48.580002,1729421443686.0,0.0
-12.863814,-10.774881,-6.135197,-45.009998,-36.540001,31.639999,1729421443691.0,0.0
-10.365707,-11.361122,-9.049655,-43.330002,-1.26,-6.72,1729421443711.0,0.0
-5.510671,-9.994821,-3.651447,6.51,32.200001,-35.77,1729421443732.0,0.0
-7.601997,-7.211967,-2.191825,28.139999,57.68,-50.049999,1729421443754.0,0.0
-9.138189,-8.719445,-1.552942,25.059999,59.010002,-47.25,1729421443773.0,0.0
-5.192425,-9.702895,-0.677169,12.39,47.459999,-52.43,1729421443791.0,0.0
-3.562913,-8.240881,2.22054,32.689999,51.939999,-51.310001,1729421443811.0,0.0
-3.337988,-5.156533,3.065206,38.5,46.200001,-43.470001,1729421443833.0,0.0
-4.596612,-4.953143,3.625126,-5.95,41.439999,-37.099998,1729421443852.0,0.0
-4.024727,-9.052048,2.318645,-30.870001,11.83,-20.02,1729421443871.0,0.0
-3.629912,-10.147961,0.409173,49.77,-22.75,-3.29,1729421443892.0,0.0
-3.06042,-9.480364,-0.942772,120.68,-38.920002,3.78,1729421443911.0,0.0
-2.62732,-8.403593,-0.449851,164.360001,-42.91,19.25,1729421443932.0,0.0
-2.57707,-7.80778,1.002593,189.139999,-40.880001,36.68,1729421443953.0,0.0
-3.136991,-8.695518,1.12702,191.869995,-35.279999,44.170002,1729421443971.0,0.0
-3.192025,-7.592427,1.806581,176.259995,-26.74,44.869999,1729421443992.0,0.0
-3.692125,-8.568698,2.854637,198.660004,-16.17,58.799999,1729421444012.0,0.0
-3.393023,-7.262216,2.378466,192.430008,-2.73,58.380001,1729421444032.0,0.0
-3.354738,-6.575477,2.538785,188.089996,14.0,65.800003,1729421444053.0,0.0
-4.342973,-10.159925,1.883151,186.410004,39.689999,71.68,1729421444073.0,0.0
-6.448657,-12.672389,0.990629,209.580002,58.170002,67.480003,1729421444091.0,0.0
-9.329616,-10.064213,6.216553,281.610016,73.360001,50.68,1729421444111.0,0.0
-12.198609,-1.328017,13.55534,233.520004,44.59,23.030001,1729421444132.0,0.0
-4.524827,-2.868994,1.476372,56.420002,-36.259998,21.559999,1729421444152.0,0.0
-7.164111,-8.169096,-1.215554,-93.590004,19.389999,-13.3,1729421444172.0,0.0
-11.095518,-4.632504,3.785445,46.759998,35.209999,11.9,1729421444191.0,0.0
-6.398407,-7.085148,5.417351,-62.09,-10.43,-68.32,1729421444210.0,0.0
-4.886144,-6.02752,4.352544,-86.800003,-20.860001,-55.369999,1729421444232.0,0.0
-4.792823,-6.788438,2.959922,-105.07,-15.47,-50.889999,1729421444253.0,0.0
-4.010371,-8.133204,3.089134,-92.400002,-6.23,-45.990002,1729421444271.0,0.0
-3.795017,-7.814958,2.67039,-29.469999,3.22,-32.900002,1729421444291.0,0.0
-3.979264,-5.953342,2.172683,32.130001,13.02,-23.73,1729421444312.0,0.0
-4.192225,-6.130411,4.321437,72.309998,25.48,-15.89,1729421444331.0,0.0
-5.130211,-5.900701,6.659225,94.639999,30.59,-6.72,1729421444356.0,0.0
-6.075377,-5.355137,6.149554,81.410004,18.76,-4.06,1729421444371.0,0.0
-5.108676,-4.656433,5.4676,61.25,1.12,-3.64,1729421444391.0,0.0
-4.185047,-7.123433,2.727818,63.98,4.27,7.49,1729421444412.0,0.0
-5.455636,-9.891929,5.666204,54.529999,37.869999,13.51,1729421444439.0,0.0
-10.143176,-5.144568,8.95155,107.239998,42.84,14.63,1729421444452.0,0.0
-8.255238,-2.033899,2.813959,53.900002,6.79,-12.74,1729421444473.0,0.0
-1.129412,-0.624527,-0.665205,7.56,-18.34,1.4,1729421444492.0,0.0
-11.490334,-5.343173,6.675975,-28.280001,55.439999,11.41,1729421444512.0,0.0
-8.932407,-11.327622,4.661219,-143.360001,-10.36,-37.099998,1729421444532.0,0.0
-5.498707,-10.344172,3.735196,-64.610001,-22.540001,-47.110001,1729421444553.0,0.0
-4.795217,-7.9346,4.125226,-16.66,-8.82,-57.330002,1729421444573.0,0.0
-4.321437,-7.176075,4.721039,-35.77,-2.24,-63.139999,1729421444592.0,0.0
-4.192225,-7.759924,4.859823,-63.349998,-1.19,-62.16,1729421444612.0,0.0
-4.316652,-8.202596,4.668397,-81.760002,-2.66,-62.439999,1729421444632.0,0.0
-4.271189,-8.659625,4.546363,-104.510002,-5.25,-67.129997,1729421444653.0,0.0
-4.074977,-8.726624,3.95055,-134.050003,-7.28,-73.150002,1729421444673.0,0.0
-3.771089,-9.075976,3.282953,-165.619995,-5.74,-76.019997,1729421444693.0,0.0
-3.457629,-9.710074,2.474179,-181.580002,-1.33,-77.980003,1729421444713.0,0.0
-3.081956,-10.293922,1.631905,-178.710007,5.25,-79.590004,1729421444733.0,0.0
-2.778067,-10.396815,1.064806,-168.979996,13.58,-81.550003,1729421444753.0,0.0
-2.679961,-10.736595,0.078963,-147.699997,21.07,-81.690002,1729421444772.0,0.0
-2.072184,-11.63869,-0.205783,-107.660004,27.860001,-79.169998,1729421444793.0,0.0
-1.481157,-12.15554,-0.267996,-56.700001,35.77,-76.790001,1729421444813.0,0.0
-1.741975,-10.552348,-0.294317,5.32,48.16,-77.419998,1729421444833.0,0.0
-1.868794,-9.365508,0.138784,15.61,52.779999,-76.370003,1729421444854.0,0.0
-1.737189,-9.095119,0.385244,0.77,48.299999,-70.07,1729421444874.0,0.0
-1.447658,-9.090333,0.507278,-27.93,39.34,-63.420002,1729421444894.0,0.0
-1.667797,-8.575876,0.512064,-64.260002,37.380001,-55.510002,1729421444914.0,0.0
-2.079363,-8.288737,0.334995,-99.610001,34.790001,-45.220001,1729421444934.0,0.0
-2.486143,-8.295916,-0.382852,-120.470001,27.23,-35.0,1729421444954.0,0.0
-2.711068,-9.420543,-1.351945,-120.610001,22.190001,-28.35,1729421444974.0,0.0
-2.945565,-10.059426,-1.605584,-107.940002,22.33,-25.549999,1729421444993.0,0.0
-3.208775,-9.583255,-1.306481,-65.029999,22.960001,-21.700001,1729421445015.0,0.0
-3.285345,-8.516055,-1.002593,-24.5,19.74,-18.83,1729421445035.0,0.0
-3.220739,-7.800602,-0.794417,-11.34,17.99,-13.93,1729421445056.0,0.0
-3.400201,-7.879565,-0.430708,-18.969999,17.219999,-6.37,1729421445074.0,0.0
-3.835695,-7.989635,-0.588634,-38.779999,16.73,-1.89,1729421445093.0,0.0
-3.282953,-8.018349,-1.794617,-55.369999,8.33,0.49,1729421445114.0,0.0
-3.354738,-8.788837,-1.904687,-64.959999,7.56,4.48,1729421445134.0,0.0
-3.419343,-9.466006,-1.832902,-65.519997,7.63,1.19,1729421445159.0,0.0
-2.924029,-9.111869,-2.155933,-52.080002,1.75,-5.11,1729421445173.0,0.0
-2.620141,-8.212167,-2.055435,-37.939999,-2.03,-6.86,1729421445194.0,0.0
-2.557927,-8.224132,-2.258825,-29.4,-3.01,-4.27,1729421445213.0,0.0
-2.400001,-8.788837,-2.876173,-16.1,-3.43,-2.52,1729421445233.0,0.0
-2.433501,-8.707481,-3.249453,-10.15,0.42,-2.59,1729421445254.0,0.0
-2.385644,-8.932407,-3.294917,-14.0,1.54,-3.57,1729421445273.0,0.0
-2.179861,-8.973085,-3.096312,-17.219999,-0.28,-3.22,1729421445293.0,0.0
-2.366502,-8.602197,-2.667997,-24.780001,0.7,-4.34,1729421445313.0,0.0
-2.476572,-8.616554,-2.909672,-37.450001,-3.57,-6.23,1729421445334.0,0.0
-1.818545,-9.044869,-3.644269,-46.689999,-7.35,-6.16,1729421445355.0,0.0
-1.631905,-9.296116,-3.658626,-35.490002,-6.02,-2.87,1729421445374.0,0.0
-1.971686,-9.489935,-3.605984,-20.51,-4.06,-2.52,1729421445393.0,0.0
-1.969293,-10.286745,-4.249653,-22.469999,-4.62,-8.12,1729421445413.0,0.0
-1.600798,-8.764909,-4.395615,-9.17,-6.02,-11.13,1729421445434.0,0.0
-1.651048,-8.228917,-4.232903,0.91,-2.73,-10.08,1729421445455.0,0.0
-1.643869,-9.449257,-4.505685,-23.940001,2.73,-7.56,1729421445474.0,0.0
-1.677369,-8.973085,-4.21376,-20.440001,4.97,-7.63,1729421445493.0,0.0
-1.301696,-8.985049,-4.098906,-20.440001,4.13,-9.87,1729421445513.0,0.0
-1.337588,-8.700303,-4.106083,-21.98,4.9,-8.33,1729421445533.0,0.0
-1.361516,-9.205189,-4.331009,-18.969999,4.62,-4.55,1729421445554.0,0.0
-1.07677,-7.432107,-3.445665,-15.96,8.4,-3.64,1729421445574.0,0.0
-1.414158,-8.181061,-3.086741,8.75,0.49,6.23,1729421445593.0,0.0
-1.421337,-8.640482,-3.538985,-11.2,-7.14,1.54,1729421445613.0,0.0
-1.452443,-9.894321,-4.359723,-26.25,-9.66,-1.19,1729421445634.0,0.0
-1.512264,-10.033106,-4.625326,-28.280001,-6.3,-6.44,1729421445654.0,0.0
-1.414158,-9.698111,-4.649254,-24.15,-4.27,-9.8,1729421445673.0,0.0
-1.543371,-9.662218,-4.342973,-16.799999,-1.54,-7.98,1729421445693.0,0.0
-1.433301,-9.595219,-4.476971,-24.290001,-2.03,-9.45,1729421445714.0,0.0
-1.749153,-10.040283,-4.644469,-38.709999,-1.96,-11.06,1729421445733.0,0.0
-0.897308,-10.169496,-6.171089,-41.580002,-0.49,-20.299999,1729421445755.0,0.0
-1.172483,-7.195218,-4.965107,-10.22,6.51,-15.33,1729421445773.0,0.0
-1.753939,-7.515855,-5.032106,-11.48,5.74,-15.82,1729421445793.0,0.0
-1.277767,-7.116255,-4.890929,-2.73,5.46,-9.45,1729421445814.0,0.0
-1.442872,-7.185646,-4.646862,-7.0,5.46,-3.85,1729421445833.0,0.0
-1.256232,-7.826923,-4.969893,-8.82,0.42,-1.54,1729421445854.0,0.0
-1.172483,-8.41795,-4.989035,-14.56,-1.82,-2.8,1729421445873.0,0.0
-0.839881,-8.499306,-5.424529,-15.47,-6.3,-3.5,1729421445893.0,0.0
-0.717847,-8.975478,-5.352744,-12.11,-7.14,-2.8,1729421445913.0,0.0
-0.854238,-8.611769,-4.766503,1.12,-8.89,-0.21,1729421445934.0,0.0
-0.555135,-8.429914,-5.142176,-6.16,-13.93,-1.19,1729421445954.0,0.0
-0.949951,-9.028119,-5.321638,-7.63,-10.85,4.62,1729421445973.0,0.0
-1.619941,-9.200402,-5.190032,-5.11,-4.48,4.62,1729421445994.0,0.0
-1.835295,-9.332008,-5.051248,-5.11,-1.12,2.24,1729421446013.0,0.0
-1.897508,-8.836694,-4.658825,5.53,1.19,-0.28,1729421446033.0,0.0
-1.818545,-8.16431,-4.673182,-0.21,0.56,-2.38,1729421446057.0,0.0
-1.629512,-7.814958,-4.814359,-4.41,-2.03,-0.56,1729421446073.0,0.0
-1.605584,-8.118847,-5.218746,-7.56,-3.29,2.31,1729421446093.0,0.0
-2.048256,-8.317451,-4.761717,-6.09,1.33,2.17,1729421446113.0,0.0
-2.330609,-8.063812,-4.541577,-4.9,2.03,-4.13,1729421446133.0,0.0
-2.486143,-7.645068,-4.225725,-4.9,-0.7,-3.43,1729421446154.0,0.0
-2.423929,-8.157133,-4.249653,-7.0,-4.27,-3.22,1729421446173.0,0.0
-2.455036,-7.865208,-3.909872,-11.55,-6.44,-3.36,1729421446193.0,0.0
-2.208575,-8.116454,-4.012764,-17.15,-11.13,-2.31,1729421446212.0,0.0
-2.213361,-8.070991,-4.185047,-18.549999,-13.09,-1.05,1729421446233.0,0.0
-2.462214,-7.932207,-4.26401,-22.4,-14.7,-1.12,1729421446254.0,0.0
-2.629712,-7.9346,-4.596612,-30.66,-18.969999,0.21,1729421446273.0,0.0
-2.694318,-7.960921,-4.931608,-34.720001,-21.91,0.63,1729421446293.0,0.0
-2.490928,-8.161918,-5.4341,-37.939999,-24.85,0.63,1729421446313.0,0.0
-2.368894,-8.389235,-5.769095,-33.25,-25.129999,0.91,1729421446334.0,0.0
-2.273181,-8.190632,-5.79781,-23.59,-22.4,-0.28,1729421446356.0,0.0
-2.175076,-7.377072,-5.692525,-9.03,-20.860001,-0.49,1729421446374.0,0.0
-2.24686,-6.91765,-5.716454,2.73,-23.870001,3.22,1729421446393.0,0.0
-2.26361,-7.307681,-5.876772,-4.13,-23.940001,6.23,1729421446413.0,0.0
-2.175076,-7.91785,-5.965307,-12.39,-21.91,9.24,1729421446433.0,0.0
-1.806581,-7.82453,-6.15434,-5.95,-19.809999,9.03,1729421446455.0,0.0
-2.065006,-7.23111,-6.135197,10.36,-21.210001,12.04,1729421446480.0,0.0
-2.639283,-7.695317,-6.015556,2.94,-17.01,15.75,1729421446495.0,0.0
-2.943172,-8.532805,-5.678168,-10.22,-11.9,14.77,1729421446513.0,0.0
-2.215754,-8.525627,-6.233303,-14.07,-17.92,7.91,1729421446534.0,0.0
-1.885544,-7.348359,-6.233303,-17.780001,-19.950001,5.11,1729421446555.0,0.0
-2.002793,-7.566105,-6.999006,-34.650002,-18.41,8.05,1729421446573.0,0.0
-2.167897,-8.764909,-6.711867,-53.27,-11.06,4.83,1729421446594.0,0.0
-2.447858,-9.640682,-5.304887,-57.889999,-10.15,-4.62,1729421446613.0,0.0
-1.902294,-7.453642,-4.45065,-42.349998,-20.719999,-14.91,1729421446634.0,0.0
-2.342573,-7.250252,-4.785645,-46.970001,-27.440001,-12.32,1729421446656.0,0.0
-2.277967,-7.855636,-5.687739,-61.599998,-30.24,-12.67,1729421446684.0,0.0
-2.22054,-6.288338,-5.826523,-46.830002,-31.290001,-10.15,1729421446695.0,0.0
-2.452643,-6.817152,-6.486942,-43.68,-31.01,-3.36,1729421446714.0,0.0
-2.182254,-8.118847,-7.80778,-38.080002,-31.57,-7.28,1729421446734.0,0.0
-2.249253,-5.85763,-6.422336,-21.91,-26.040001,-10.08,1729421446756.0,0.0
-2.103291,-6.98465,-5.771489,-43.259998,-22.049999,-8.96,1729421446775.0,0.0
-1.988436,-6.965507,-6.802795,-30.940001,-23.1,-10.36,1729421446794.0,0.0
-2.371287,-7.393822,-6.520442,-22.540001,-21.35,-12.39,1729421446814.0,0.0
-2.292324,-7.073184,-6.939186,-23.59,-22.190001,-14.77,1729421446834.0,0.0
-2.266003,-8.271988,-7.855636,-36.540001,-21.700001,-16.450001,1729421446856.0,0.0
-1.581656,-8.346166,-8.812766,-23.73,-18.620001,-20.860001,1729421446874.0,0.0
-1.411765,-5.625526,-8.102098,-0.84,-7.49,-17.219999,1729421446894.0,0.0
-1.490728,-5.860023,-7.668997,4.06,-3.29,-5.95,1729421446915.0,0.0
-2.493321,-5.690133,-6.695118,-0.49,-1.33,-0.77,1729421446936.0,0.0
-2.648855,-6.939186,-7.152147,-8.96,-5.04,2.94,1729421446959.0,0.0
-2.033899,-7.865208,-8.183454,-8.12,-7.91,-1.4,1729421446977.0,0.0
-1.493121,-7.379465,-7.673782,7.07,-5.88,-7.77,1729421446996.0,0.0
-1.78026,-6.008378,-6.288338,16.450001,-4.27,-6.72,1729421447016.0,0.0
-0.552742,-3.809374,-5.98445,7.84,-7.21,1.96,1729421447036.0,0.0
-2.766103,-4.405186,-6.580262,8.47,-13.3,32.41,1729421447057.0,0.0
-3.268596,-8.738588,-7.003791,-7.84,-18.059999,30.59,1729421447075.0,0.0
-2.924029,-6.479764,-7.197611,-13.79,-23.66,20.23,1729421447095.0,0.0
-2.679961,-5.970093,-7.025328,-18.969999,-24.08,17.360001,1729421447117.0,0.0
-2.218147,-5.283352,-6.726225,-17.360001,-27.09,16.799999,1729421447137.0,0.0
-2.22054,-5.197211,-6.644868,-17.710001,-34.02,25.41,1729421447158.0,0.0
-4.249653,-4.979464,-7.250252,-8.96,-38.43,30.73,1729421447175.0,0.0
-5.134997,-5.35753,-9.075976,-19.879999,-34.16,34.439999,1729421447199.0,0.0
-5.819345,-6.530013,-10.269995,-12.95,-22.120001,40.950001,1729421447214.0,0.0
-4.922036,-6.975078,-9.470792,2.94,-5.46,41.650002,1729421447235.0,0.0
-5.395815,-7.156933,-7.903493,10.64,5.81,41.860001,1729421447259.0,0.0
-6.666404,-7.219146,-7.910671,13.58,17.57,33.670002,1729421447275.0,0.0
-6.733403,-6.072984,-8.822337,20.790001,27.719999,27.09,1729421447295.0,0.0
-7.068398,-6.881758,-8.355737,32.060001,44.170002,24.290001,1729421447316.0,0.0
-6.769295,-6.635297,-7.630712,48.09,54.880001,18.620001,1729421447336.0,0.0
-5.649454,-6.352944,-6.398407,46.830002,63.139999,12.39,1729421447357.0,0.0
-4.352544,-8.082954,-4.785645,27.440001,65.449997,8.26,1729421447375.0,0.0
-1.921437,-7.688138,-3.605984,49.349998,44.66,-5.6,1729421447396.0,0.0
-1.909473,-8.315059,-3.448057,35.91,24.08,-12.18,1729421447415.0,0.0
-1.586441,-8.310273,-4.570292,10.57,5.04,-22.960001,1729421447438.0,0.0
-0.660419,-6.568298,-5.769095,-4.2,-13.51,-30.66,1729421447457.0,0.0
-0.949951,-4.359723,-7.202396,-0.84,-24.780001,-27.65,1729421447474.0,0.0
-1.696511,-3.974478,-8.767302,4.76,-27.370001,-16.870001,1729421447495.0,0.0
-2.036292,-4.130012,-9.135797,-10.15,-29.26,-15.89,1729421447515.0,0.0
-3.661019,-1.658226,-7.913064,-44.59,-26.18,-14.63,1729421447536.0,0.0
-5.12782,-2.368894,-4.555934,-50.68,-32.689999,-3.29,1729421447558.0,0.0
-5.218746,-2.684747,-6.180661,-27.93,-48.860001,15.05,1729421447575.0,0.0
-7.88435,-4.878965,-7.355537,-54.389999,-37.380001,39.970001,1729421447595.0,0.0
-9.671788,-8.685946,-10.274779,-77.07,-12.6,43.330002,1729421447616.0,0.0
-7.336394,-10.076177,-9.233903,-41.93,11.55,31.15,1729421447635.0,0.0
-5.558527,-9.145369,-8.446664,16.17,22.82,12.39,1729421447656.0,0.0
-4.84068,-8.181061,-7.640282,34.439999,32.619999,4.34,1729421447677.0,0.0
-4.924429,-8.427521,-7.130611,28.280001,40.25,-2.8,1729421447695.0,0.0
-3.692125,-9.032906,-4.917251,18.41,46.41,-14.14,1729421447715.0,0.0
-2.129612,-7.032506,-3.797409,38.639999,27.860001,-35.84,1729421447738.0,0.0
-1.902294,-5.048856,-3.208775,34.16,9.8,-36.75,1729421447756.0,0.0
-1.85683,-4.500899,-3.582055,5.39,-8.96,-30.73,1729421447775.0,0.0
-1.007378,-4.445865,-5.570491,-5.6,-32.549999,-27.790001,1729421447796.0,0.0
-0.526421,-2.723032,-8.149954,-17.57,-48.860001,-22.960001,1729421447815.0,0.0
-0.909273,-3.256632,-9.676575,-40.040001,-46.759998,-12.81,1729421447836.0,0.0
-2.864209,-2.964707,-9.217153,-56.279999,-35.07,-7.21,1729421447855.0,0.0
-5.099105,-3.474378,-6.324231,-39.27,-31.5,10.15,1729421447875.0,0.0
-6.195018,-3.988836,-6.099305,-35.560001,-34.509998,23.379999,1729421447895.0,0.0
-7.424929,-4.254438,-8.618947,-45.43,-28.84,36.470001,1729421447915.0,0.0
-7.152147,-10.267602,-9.667004,-43.68,-8.61,38.920002,1729421447935.0,0.0
-6.305088,-8.642875,-9.537791,-4.76,8.19,35.139999,1729421447956.0,0.0
-5.520242,-7.936993,-8.508877,31.85,22.26,25.200001,1729421447977.0,0.0
-5.510671,-7.37468,-7.377072,45.779999,32.27,18.690001,1729421447995.0,0.0
-5.69731,-7.676175,-6.419943,50.82,34.299999,9.52,1729421448015.0,0.0
-5.340781,-8.324631,-5.771489,50.259998,32.689999,-4.69,1729421448036.0,0.0
-3.548556,-7.877172,-4.462614,43.959999,30.030001,-21.07,1729421448058.0,0.0
-2.833102,-6.54437,-4.476971,33.529999,13.3,-38.360001,1729421448074.0,0.0
-3.455236,-5.264209,-4.182654,20.51,0.91,-42.0,1729421448098.0,0.0
-2.40718,-5.735595,-5.520242,-0.63,-17.43,-43.540001,1729421448115.0,0.0
-0.997807,-4.716253,-6.675975,-24.15,-31.43,-46.130001,1729421448135.0,0.0
0.098106,-1.06002,-8.745767,-28.630001,-40.389999,-37.099998,1729421448157.0,0.0
-0.42353,-1.227518,-9.315259,-39.41,-35.420002,-13.93,1729421448174.0,0.0
-3.421736,-2.758924,-7.819745,-36.82,-24.85,13.440001,1729421448195.0,0.0
-6.448657,-4.613362,-6.910471,-32.200001,-17.08,30.870001,1729421448214.0,0.0
-7.611568,-4.546363,-6.388836,-17.710001,-17.780001,35.139999,1729421448235.0,0.0
-7.149754,-6.62094,-9.54497,-26.880001,-7.63,37.59,1729421448258.0,0.0
-6.692725,-8.910872,-9.250652,-43.540001,12.32,34.369999,1729421448277.0,0.0
-5.69731,-8.767302,-9.377472,7.77,22.26,30.380001,1729421448295.0,0.0
-5.331209,-7.755138,-7.721639,43.68,35.420002,23.450001,1729421448314.0,0.0
-5.053641,-7.439285,-6.664011,47.950001,39.900002,21.84,1729421448337.0,0.0
-5.577669,-8.676375,-5.659025,39.060001,40.740002,8.54,1729421448358.0,0.0
-5.723632,-8.645268,-5.979663,36.189999,31.710001,-8.89,1729421448375.0,0.0
-4.931608,-8.202596,-4.457829,43.189999,25.969999,-30.17,1729421448395.0,0.0
-2.660819,-7.046863,-3.895515,25.549999,12.32,-38.43,1729421448414.0,0.0
-1.89033,-5.134997,-4.299902,32.759998,-2.8,-36.470001,1729421448435.0,0.0
-2.232504,-3.806981,-4.625326,27.93,-13.02,-27.299999,1729421448456.0,0.0
-1.830509,-5.132604,-5.982057,23.52,-26.460001,-16.66,1729421448474.0,0.0
-1.37348,-3.684947,-6.754939,6.37,-36.330002,-17.01,1729421448495.0,0.0
-1.399801,-1.495514,-8.245667,-16.379999,-43.610001,-9.1,1729421448515.0,0.0
-2.333002,-2.323431,-8.403593,-60.27,-37.939999,3.43,1729421448535.0,0.0
-4.072584,-4.771288,-7.793423,-71.190002,-32.130001,13.79,1729421448556.0,0.0
-5.752346,-5.194818,-6.017949,-44.240002,-29.960001,20.860001,1729421448576.0,0.0
-7.664211,-5.481956,-7.99442,-19.040001,-25.059999,21.77,1729421448594.0,0.0
-7.075576,-8.508877,-8.492127,-45.639999,-8.61,24.5,1729421448680.0,0.0
-5.776274,-7.508677,-9.729217,-26.880001,2.31,21.42,1729421448681.0,0.0
-5.680561,-7.204789,-8.666803,20.860001,18.34,17.639999,1729421448681.0,0.0
-5.656632,-7.013363,-7.403394,28.559999,32.200001,23.870001,1729421448681.0,0.0
-5.843273,-8.666803,-6.463014,32.549999,38.709999,24.01,1729421448698.0,0.0
-5.816952,-8.997013,-5.936593,49.84,36.330002,8.26,1729421448714.0,0.0
-4.376472,-8.640482,-4.438686,50.119999,28.98,-19.530001,1729421448735.0,0.0
-2.495714,-8.13799,-3.555735,29.82,17.92,-34.299999,1729421448755.0,0.0
-1.777867,-6.793223,-3.534199,31.01,3.36,-38.009998,1729421448775.0,0.0
-2.328217,-4.694718,-4.261617,24.780001,-7.42,-32.41,1729421448794.0,0.0
-2.043471,-5.733203,-5.649454,15.54,-18.200001,-24.780001,1729421448815.0,0.0
-1.416551,-4.74736,-6.391229,2.52,-30.1,-26.389999,1729421448834.0,0.0
-0.859023,-2.069792,-7.618747,-16.73,-43.049999,-23.17,1729421448856.0,0.0
-1.660619,-1.911865,-9.245867,-60.34,-46.060001,-11.34,1729421448874.0,0.0
-4.565506,-2.804388,-9.399008,-88.760002,-32.48,6.16,1729421448895.0,0.0
-6.388836,-5.261817,-7.245467,-61.389999,-20.02,20.790001,1729421448916.0,0.0
-7.410572,-4.441079,-7.350751,-6.72,-22.190001,27.09,1729421448946.0,0.0
-7.757531,-5.883951,-7.135397,-22.190001,-9.59,34.09,1729421448956.0,0.0
-7.597212,-8.980263,-8.458629,-41.09,4.83,42.77,1729421448974.0,0.0
-6.788438,-8.4012,-8.965906,30.73,16.940001,39.27,1729421448994.0,0.0
-6.582655,-6.518049,-7.695317,53.060001,33.950001,38.5,1729421449015.0,0.0
-6.290731,-8.616554,-6.522834,39.549999,43.470001,32.48,1729421449035.0,0.0
-4.869394,-9.937392,-5.149354,34.299999,38.57,9.52,1729421449055.0,0.0
-3.457629,-9.458827,-4.85743,39.619999,19.74,-25.690001,1729421449076.0,0.0
-2.56032,-8.068598,-4.039084,35.490002,10.57,-39.200001,1729421449094.0,0.0
-2.397608,-6.740582,-3.885944,18.48,1.47,-42.490002,1729421449114.0,0.0
-2.510071,-6.317052,-5.012963,10.36,-9.52,-38.639999,1729421449134.0,0.0
-2.359323,-6.281159,-5.335995,14.07,-19.809999,-37.52,1729421449155.0,0.0
-2.237289,-3.893122,-6.003592,12.6,-31.99,-36.330002,1729421449176.0,0.0
-2.09372,-1.909473,-7.085148,-2.03,-41.369999,-24.710001,1729421449194.0,0.0
-3.306881,-0.978664,-7.580462,-35.420002,-40.459999,-6.58,1729421449213.0,0.0
-5.525027,-3.565305,-7.692925,-56.420002,-31.57,15.05,1729421449235.0,0.0
-6.82433,-5.960521,-6.520442,-41.509998,-22.049999,24.290001,1729421449254.0,0.0
-7.087541,-4.398008,-8.018349,-4.55,-19.389999,24.5,1729421449274.0,0.0
-6.872187,-6.642475,-7.951349,-23.66,-6.16,29.610001,1729421449294.0,0.0
-6.233303,-8.338986,-8.039884,-33.389999,5.81,30.940001,1729421449314.0,0.0
-5.230711,-8.449057,-7.9346,12.18,11.97,29.469999,1729421449414.0,0.0
-5.362316,-8.269595,-6.623333,36.259998,23.1,24.290001,1729421449416.0,0.0
-5.431707,-8.609376,-6.398407,40.950001,29.610001,19.950001,1729421449418.0,0.0
-5.974878,-9.116654,-5.558527,49.420002,33.670002,11.97,1729421449419.0,0.0
-4.87418,-9.489935,-4.165904,51.73,34.369999,-7.7,1729421449422.0,0.0
-3.012564,-7.867601,-4.582255,44.939999,20.440001,-24.85,1729421449434.0,0.0
-2.256432,-6.343372,-4.957928,40.25,8.26,-32.48,1729421449456.0,0.0
-2.830709,-4.046263,-4.445865,35.560001,-0.28,-30.799999,1729421449474.0,0.0
-2.139183,-4.386044,-4.778467,18.41,-14.84,-28.0,1729421449493.0,0.0
-2.0004,-3.089134,-6.135197,-5.04,-31.219999,-28.35,1729421449514.0,0.0
-2.531606,-1.825724,-7.860423,-28.77,-41.16,-19.32,1729421449534.0,0.0
-4.005585,-3.555735,-7.865208,-51.73,-35.209999,-1.05,1729421449554.0,0.0
-5.982057,-5.965307,-6.489335,-33.389999,-25.34,13.09,1729421449573.0,0.0
-7.02772,-5.264209,-6.312266,-3.64,-21.0,15.190001,1729421449593.0,0.0
-6.656832,-4.773681,-8.319844,-22.540001,-7.56,17.290001,1729421449613.0,0.0
-5.989235,-8.372486,-8.449057,-44.170002,11.2,22.889999,1729421449634.0,0.0
-5.778666,-8.724231,-7.941778,-8.12,19.74,20.440001,1729421449654.0,0.0
-5.503492,-7.812566,-7.082755,26.32,29.469999,21.07,1729421449673.0,0.0
-5.304887,-8.377272,-6.594619,39.060001,40.110001,23.450001,1729421449693.0,0.0
-5.034499,-8.52802,-5.302495,45.709999,45.779999,17.219999,1729421449713.0,0.0
-4.481757,-8.109276,-3.65384,45.360001,42.139999,1.54,1729421449733.0,0.0
-3.85723,-8.003991,-3.85723,28.280001,23.52,-16.450001,1729421449755.0,0.0
-3.998406,-7.401,-3.515057,18.76,13.16,-21.91,1729421449775.0,0.0
-3.802195,-6.599405,-4.31426,10.01,0.63,-23.309999,1729421449792.0,0.0
-3.711268,-5.659025,-5.513064,12.53,-9.45,-22.75,1729421449812.0,0.0
-3.213561,-6.065805,-6.051448,15.54,-17.290001,-21.07,1729421449833.0,0.0
-2.22054,-5.635098,-6.156733,-5.81,-25.83,-26.74,1729421449852.0,0.0
-2.325824,-4.027121,-6.474977,-40.459999,-33.040001,-27.790001,1729421449872.0,0.0
-3.029313,-3.105884,-6.226124,-60.760002,-37.310001,-19.67,1729421449892.0,0.0
-4.165904,-4.426722,-6.513263,-54.32,-37.170002,-2.17,1729421449912.0,0.0
-6.049056,-5.070391,-5.666204,-30.940001,-31.99,11.69,1729421449933.0,0.0
-6.759724,-4.06062,-7.79103,-23.24,-24.43,21.91,1729421449954.0,0.0
-7.32443,-7.676175,-8.499306,-39.900002,-5.11,36.889999,1729421449973.0,0.0
-6.699903,-8.070991,-8.68116,-22.68,9.73,39.41,1729421449993.0,0.0
-6.056234,-7.925028,-8.980263,10.64,24.290001,36.049999,1729421450013.0,0.0
-5.986843,-8.551948,-7.692925,29.610001,39.900002,29.4,1729421450034.0,0.0
-5.79063,-9.664611,-5.958128,30.450001,48.720001,18.549999,1729421450054.0,0.0
-4.223332,-9.927821,-3.902694,33.18,44.799999,-12.88,1729421450074.0,0.0
-3.376273,-8.958728,-3.007778,35.279999,26.6,-29.540001,1729421450093.0,0.0
-2.608176,-7.743174,-3.270989,21.210001,12.53,-37.52,1729421450113.0,0.0
-3.337988,-6.685547,-3.95055,10.43,1.75,-38.080002,1729421450135.0,0.0
-2.921637,-5.888737,-4.788038,5.32,-11.55,-38.43,1729421450155.0,0.0
-2.517249,-4.646862,-5.596812,9.94,-25.27,-36.889999,1729421450173.0,0.0
-1.531406,-4.063013,-6.795617,-9.73,-34.02,-32.130001,1729421450193.0,0.0
-2.067399,-3.395415,-6.872187,-29.960001,-38.5,-26.18,1729421450212.0,0.0
-3.177669,-2.179861,-7.539784,-44.66,-41.650002,-13.65,1729421450232.0,0.0
-4.845466,-4.04387,-7.391429,-45.57,-36.889999,4.48,1729421450253.0,0.0
-6.905686,-5.876772,-5.915058,-20.93,-28.91,20.719999,1729421450272.0,0.0
-7.838887,-5.376673,-7.953743,-6.58,-20.440001,30.309999,1729421450292.0,0.0
-7.396214,-7.743174,-9.530612,-28.700001,2.03,38.009998,1729421450312.0,0.0
-6.812366,-9.45165,-8.99462,-14.28,20.51,36.049999,1729421450333.0,0.0
-6.092126,-8.662018,-8.439486,32.34,32.34,25.83,1729421450354.0,0.0
-5.580062,-7.982457,-7.13779,47.880001,44.380001,17.219999,1729421450372.0,0.0
-5.218746,-9.188439,-6.26441,41.650002,51.240002,13.16,1729421450392.0,0.0
-5.015356,-10.061819,-3.242275,49.07,53.060001,-10.22,1729421450413.0,0.0
-3.304488,-8.377272,-2.809174,47.389999,36.540001,-32.200001,1729421450433.0,0.0
-2.727818,-6.424729,-3.141776,37.869999,15.82,-43.470001,1729421450452.0,0.0
-2.883351,-4.98425,-3.460021,15.61,-4.27,-45.990002,1729421450472.0,0.0
-2.959922,-5.522634,-5.082355,-4.34,-19.74,-40.040001,1729421450492.0,0.0
-2.201397,-5.367101,-5.958128,-20.860001,-30.030001,-38.290001,1729421450512.0,0.0
-1.366302,-3.029313,-6.675975,-22.469999,-40.670002,-36.959999,1729421450534.0,0.0
-1.37348,-1.773082,-7.520642,-24.92,-44.73,-18.549999,1729421450554.0,0.0
-3.510271,-3.596412,-6.520442,-37.73,-37.310001,3.15,1729421450573.0,0.0
-5.9342,-4.275974,-5.304887,-24.5,-33.529999,22.190001,1729421450592.0,0.0
-5.625526,-5.178068,-6.613762,-28.77,-31.780001,39.060001,1729421450612.0,0.0
-7.066005,-5.010571,-7.133004,-20.16,-21.98,51.66,1729421450633.0,0.0
-8.145168,-7.23111,-10.040283,-45.080002,0.77,60.27,1729421450654.0,0.0
-7.719246,-10.724631,-9.032906,-47.880001,24.01,54.880001,1729421450677.0,0.0
-6.740582,-9.126225,-7.793423,27.65,31.219999,36.889999,1729421450694.0,0.0
-5.383851,-7.910671,-7.216753,46.759998,35.420002,18.9,1729421450714.0,0.0
-5.108676,-9.128618,-4.900501,27.65,35.349998,7.14,1729421450734.0,0.0
-4.505685,-9.623933,-4.845466,6.58,20.51,-21.07,1729421450755.0,0.0
-3.919443,-8.329416,-2.897708,26.74,13.09,-33.529999,1729421450773.0,0.0
-3.345166,-7.867601,-2.299503,16.940001,7.84,-37.939999,1729421450793.0,0.0
-2.9671,-6.489335,-2.644069,7.56,-1.89,-33.599998,1729421450813.0,0.0
-2.689533,-7.456036,-3.771089,15.75,-16.17,-27.65,1729421450834.0,0.0
-2.057827,-5.663811,-4.694718,7.7,-28.0,-30.799999,1729421450857.0,0.0
-1.761117,-3.804588,-7.523034,6.93,-37.240002,-15.75,1729421450874.0,0.0
-1.646262,-5.099105,-7.692925,-7.21,-34.509998,-9.66,1729421450893.0,0.0
-3.778267,-2.804388,-6.403193,-19.110001,-29.469999,0.98,1729421450913.0,0.0
-5.201996,-4.304688,-6.819544,-36.959999,-32.689999,14.07,1729421450933.0,0.0
-6.726225,-4.046263,-5.785845,-21.35,-29.68,23.17,1729421450962.0,0.0
-7.635497,-3.924229,-8.410772,-7.7,-18.83,37.869999,1729421450973.0,0.0
-7.838887,-8.953942,-10.076177,-23.52,7.0,48.23,1729421450993.0,0.0
-7.403394,-7.221539,-9.707682,2.66,25.059999,44.66,1729421451013.0,0.0
-5.766702,-7.180861,-9.018548,29.889999,32.27,32.619999,1729421451035.0,0.0
-5.730811,-7.156933,-7.558927,20.93,43.189999,20.02,1729421451056.0,0.0
-5.371887,-8.949157,-5.54417,13.79,47.110001,9.38,1729421451078.0,0.0
-5.259424,-9.676575,-3.680161,33.740002,47.32,-8.05,1729421451093.0,0.0
-3.632305,-8.980263,-2.014757,40.880001,36.540001,-23.24,1729421451113.0,0.0
-3.201597,-7.69771,-1.85683,23.940001,22.190001,-30.66,1729421451133.0,0.0
-3.476771,-8.946764,-2.790031,13.09,2.8,-34.650002,1729421451159.0,0.0
-3.017349,-6.884151,-3.931407,26.880001,-15.190001,-39.689999,1729421451173.0,0.0
-2.333002,-7.018148,-4.663611,9.17,-26.950001,-39.970001,1729421451195.0,0.0
-1.916651,-5.010571,-6.687939,-15.82,-35.349998,-40.880001,1729421451214.0,0.0
-2.239682,-4.414758,-7.948956,-16.799999,-33.25,-26.389999,1729421451233.0,0.0
-3.046063,-3.895515,-7.9346,-20.23,-24.710001,-18.27,1729421451254.0,0.0
-4.488935,-2.366502,-6.71426,-14.14,-20.58,-1.75,1729421451274.0,0.0
-5.781059,-4.261617,-7.082755,-20.440001,-20.440001,10.15,1729421451292.0,0.0
-6.288338,-4.13719,-7.219146,-11.27,-17.15,14.21,1729421451312.0,0.0
-6.922436,-4.692325,-7.379465,2.03,-12.74,25.549999,1729421451333.0,0.0
-6.774081,-5.47717,-8.997013,-19.389999,3.57,32.970001,1729421451356.0,0.0
-6.597012,-8.480164,-8.30788,-20.51,23.030001,41.509998,1729421451375.0,0.0
-6.161518,-8.204988,-7.71446,20.09,30.66,37.66,1729421451393.0,0.0
-5.592027,-8.803195,-6.656832,40.740002,40.18,28.91,1729421451413.0,0.0
-5.163712,-9.726824,-4.800002,31.780001,45.990002,9.66,1729421451433.0,0.0
-4.601398,-10.425529,-4.003192,39.689999,42.0,-7.63,1729421451454.0,0.0
-3.282953,-9.166903,-3.316452,35.0,35.84,-22.82,1729421451472.0,0.0
-2.79721,-8.963513,-3.115455,28.77,23.1,-31.01,1729421451494.0,0.0
-2.462214,-7.319644,-3.440879,27.299999,8.33,-37.73,1729421451513.0,0.0
-2.562713,-5.99402,-4.225725,26.6,-3.57,-34.93,1729421451533.0,0.0
-2.672783,-5.924629,-4.563113,25.9,-14.84,-30.73,1729421451553.0,0.0
-2.548356,-5.702096,-4.910072,17.57,-27.790001,-29.4,1729421451573.0,0.0
-2.801995,-4.177868,-5.343173,-14.91,-37.029999,-26.530001,1729421451592.0,0.0
-3.917051,-3.215954,-5.546563,-51.380001,-42.560001,-16.309999,1729421451613.0,0.0
-5.556134,-3.749553,-5.860023,-55.439999,-43.259998,1.89,1729421451633.0,0.0
-5.955735,-5.84088,-7.381857,-29.540001,-38.920002,15.47,1729421451654.0,0.0
-7.542177,-5.187639,-6.73101,3.64,-26.6,27.16,1729421451672.0,0.0
-7.609176,-3.974478,-7.836494,-9.94,-13.02,30.52,1729421451694.0,0.0
-6.273981,-7.817351,-9.059227,-40.25,1.89,39.200001,1729421451713.0,0.0
-5.295317,-8.140383,-8.611769,-17.99,11.97,34.369999,1729421451732.0,0.0
-4.697111,-8.575876,-7.403394,18.48,26.880001,25.549999,1729421451755.0,0.0
-4.711468,-9.360723,-6.553941,20.370001,36.119999,16.52,1729421451772.0,0.0
-4.883751,-9.645468,-5.288138,29.960001,39.759998,5.04,1729421451792.0,0.0
-3.787838,-10.325029,-4.405186,49.209999,36.400002,-12.25,1729421451814.0,0.0
-3.220739,-9.375079,-2.89053,52.639999,32.759998,-24.290001,1729421451833.0,0.0
-2.720639,-8.671589,-2.744568,43.540001,19.25,-34.93,1729421451854.0,0.0
-2.656033,-7.721639,-2.902494,34.790001,3.92,-39.689999,1729421451872.0,0.0
-3.06042,-6.975078,-3.062813,19.950001,-6.44,-39.619999,1729421451892.0,0.0
-3.67059,-7.235896,-2.048256,-0.84,-21.700001,-41.299999,1729421451913.0,0.0
-2.292324,-4.634897,-3.115455,-20.370001,-51.939999,-45.43,1729421451933.0,0.0
-1.464408,-2.57707,-6.049056,-51.450001,-72.660004,-31.85,1729421451953.0,0.0
-3.457629,-3.048456,-8.035098,-102.620003,-62.93,-10.5,1729421451973.0,0.0
-5.929415,-4.972286,-7.908278,-85.050003,-48.720001,12.11,1729421451993.0,0.0
-6.932007,-5.053641,-7.391429,-9.52,-38.150002,26.32,1729421452012.0,0.0
-7.716853,-4.029513,-5.87438,48.650002,-28.98,38.639999,1729421452033.0,0.0
-8.195417,-1.875973,-7.499106,13.16,-13.86,43.470001,1729421452059.0,0.0
-8.018349,-6.223732,-8.501699,-51.380001,10.71,57.470001,1729421452072.0,0.0
-7.056434,-8.324631,-8.477771,-3.78,28.0,42.349998,1729421452092.0,0.0
-5.716454,-6.410372,-8.650054,51.66,35.700001,34.860001,1729421452112.0,0.0
-5.575277,-8.193025,-5.773881,34.23,53.48,37.310001,1729421452132.0,0.0
-5.283352,-10.600205,-4.472186,6.02,55.09,24.99,1729421452153.0,0.0
-4.048656,-11.480762,-3.845266,26.74,42.0,-1.89,1729421452173.0,0.0
-3.120241,-10.030712,-3.168097,55.02,26.389999,-22.049999,1729421452192.0,0.0
-2.639283,-8.147561,-1.969293,62.93,14.84,-30.450001,1729421452212.0,0.0
-2.39043,-7.534998,-2.993421,31.43,0.21,-32.200001,1729421452233.0,0.0
-3.029313,-8.693125,-3.656233,16.450001,-9.66,-32.060001,1729421452253.0,0.0
-2.639283,-7.377072,-4.555934,25.9,-22.120001,-36.889999,1729421452272.0,0.0
-3.20399,-5.635098,-5.300103,26.6,-26.809999,-30.24,1729421452293.0,0.0
-3.548556,-4.74736,-6.65444,5.95,-28.210001,-25.620001,1729421452313.0,0.0
-4.500899,-7.101898,-6.563512,19.950001,-25.83,-18.48,1729421452332.0,0.0
-5.905487,-5.343173,-5.761917,44.380001,-21.559999,-16.17,1729421452355.0,0.0
-6.022735,-6.089733,-6.142376,60.830002,-27.860001,-11.76,1729421452371.0,0.0
-6.656832,-6.678369,-6.838687,37.869999,-16.73,-11.2,1729421452392.0,0.0
-6.9344,-8.35813,-5.536992,34.790001,-3.85,-12.67,1729421452412.0,0.0
-5.627919,-8.374879,-5.352744,74.129997,6.93,-16.66,1729421452432.0,0.0
-4.565506,-8.609376,-5.441278,78.68,17.01,-13.93,1729421452453.0,0.0
-5.307281,-9.84168,-5.938986,93.309998,28.98,-14.07,1729421452472.0,0.0
-5.661418,-9.602397,-6.142376,118.650002,41.720001,-21.0,1729421452492.0,0.0
-4.76411,-8.666803,-5.197211,141.960007,49.630001,-26.950001,1729421452512.0,0.0
-3.850052,-7.149754,-3.165704,135.449997,59.57,-25.83,1729421452533.0,0.0
-3.294917,-8.097312,-0.311067,114.660004,63.0,-23.17,1729421452554.0,0.0
-2.48375,-10.176675,0.021535,117.389999,51.099998,-23.52,1729421452572.0,0.0
-2.122434,-10.602598,1.141376,147.070007,38.220001,-31.92,1729421452592.0,0.0
-2.37368,-9.382257,2.251646,152.110001,21.280001,-38.5,1729421452612.0,0.0
-1.998007,-6.541977,2.376073,106.610001,0.63,-38.150002,1729421452632.0,0.0
-2.684747,-7.802995,2.206182,45.990002,-14.98,-24.99,1729421452653.0,0.0
-2.500499,-9.583255,0.370888,8.54,-30.24,-27.23,1729421452671.0,0.0
-2.447858,-7.65464,0.756132,18.620001,-39.060001,-20.790001,1729421452692.0,0.0
-2.35693,-6.276374,0.526421,8.96,-48.02,-8.89,1729421452712.0,0.0
-2.383251,-4.962714,-0.368495,-24.92,-56.209999,3.92,1729421452732.0,0.0
-1.947758,-7.286145,-1.581656,-41.650002,-63.700001,20.23,1729421452754.0,0.0
-4.022335,-10.485349,-3.07717,-38.639999,-69.160004,34.720001,1729421452772.0,0.0
-7.953743,-12.143576,-3.515057,-36.889999,-42.349998,23.66,1729421452792.0,0.0
-7.389036,-11.430513,-8.030313,15.33,-38.57,13.65,1729421452812.0,0.0
-4.843073,-11.755937,-7.575676,57.260002,-14.42,3.85,1729421452833.0,0.0
-6.094519,-10.41835,-4.003192,71.260002,37.240002,-1.47,1729421452854.0,0.0
-7.712067,-10.353743,-5.017749,68.879997,56.349998,-14.21,1729421452872.0,0.0
-5.020142,-9.712467,-3.617948,45.57,62.720001,-32.549999,1729421452892.0,0.0
-2.282753,-7.659425,3.519842,85.190002,66.849998,-23.66,1729421452912.0,0.0
-3.302095,-4.852644,7.384251,103.389999,42.77,-19.74,1729421452932.0,0.0
-3.59402,-3.900301,8.039884,5.11,7.14,-13.93,1729421452953.0,0.0
-0.672383,-6.558727,4.881358,-97.019997,-28.139999,1.19,1729421452971.0,0.0
0.849452,-11.023734,2.304288,-113.75,-45.080002,16.24,1729421452992.0,0.0
-0.478565,-11.502297,0.31346,-67.410004,-36.959999,17.639999,1729421453012.0,0.0
-0.196211,-10.789237,0.052642,-2.17,-33.880001,24.85,1729421453034.0,0.0
0.617348,-9.537791,-0.552742,33.810001,-38.360001,29.75,1729421453052.0,0.0
-3.974478,-3.921836,-4.113262,18.41,-30.1,37.029999,1729421453072.0,0.0
-10.595419,-8.520842,-4.249653,-12.53,-3.5,56.349998,1729421453092.0,0.0
-6.565905,-13.837693,-7.642675,-34.720001,-38.849998,30.030001,1729421453112.0,0.0
-5.903094,-12.181859,-6.360123,10.71,0.77,7.7,1729421453132.0,0.0
-6.920043,-10.442278,-3.113062,28.210001,26.74,-10.5,1729421453154.0,0.0
-6.687939,-11.200804,-2.143969,-13.23,36.119999,-30.59,1729421453171.0,0.0
-6.778866,-12.387643,-3.292524,-31.219999,48.720001,-50.540001,1729421453192.0,0.0
-3.744767,-10.179067,-1.48355,0.35,54.950001,-66.010002,1729421453211.0,0.0
-1.064806,-5.161318,4.962714,73.5,49.560001,-43.119999,1729421453233.0,0.0
-0.973879,-4.259224,7.709675,54.529999,26.32,-35.209999,1729421453253.0,0.0
-1.201197,-6.546762,6.843473,-43.400002,5.46,-14.42,1729421453271.0,0.0
0.311067,-8.662018,4.17069,-80.5,-18.9,-14.42,1729421453291.0,0.0
-1.194018,-9.45165,1.902294,-61.740002,-32.970001,13.65,1729421453312.0,0.0
-1.232304,-8.427521,0.949951,-33.040001,-47.459999,23.309999,1729421453332.0,0.0
-0.394816,-8.475377,-0.918844,-13.93,-60.830002,37.66,1729421453355.0,0.0
-2.605784,-8.573483,-2.189433,-9.17,-57.82,44.73,1729421453372.0,0.0
-7.520642,-7.977671,-1.847259,11.48,-52.849998,58.170002,1729421453392.0,0.0
-13.177275,-8.097312,-2.562713,-11.27,-37.73,53.970001,1729421453412.0,0.0
-8.456236,-14.105689,-8.059027,-48.650002,-23.52,18.27,1729421453432.0,0.0
-5.965307,-14.187045,-5.010571,-4.34,30.24,-8.33,1729421453454.0,0.0
-6.06102,-10.983055,-3.742374,80.010002,43.400002,-35.91,1729421453471.0,0.0
-5.754738,-9.284152,-5.345565,70.0,61.18,-53.200001,1729421453492.0,0.0
-2.65364,-9.975677,-2.751746,20.719999,87.360001,-59.290001,1729421453512.0,0.0
0.404387,-6.635297,5.71406,68.739998,74.760002,-37.380001,1729421453533.0,0.0
0.643669,-4.046263,8.805587,63.77,33.529999,-33.040001,1729421453554.0,0.0
-1.301696,-5.608776,8.772088,-25.690001,10.43,-18.83,1729421453571.0,0.0
0.301496,-8.568698,4.326223,-52.990002,-26.950001,-0.91,1729421453591.0,0.0
-1.433301,-8.669197,1.129412,-28.98,-35.630001,17.43,1729421453683.0,0.0
-2.641676,-8.571091,-0.038285,-10.08,-40.880001,32.200001,1729421453684.0,0.0
-0.985843,-8.927622,-1.854438,-2.38,-55.650002,43.75,1729421453684.0,0.0
-3.431308,-8.788837,-3.591627,0.63,-53.619999,49.630001,1729421453685.0,0.0
-9.461221,-9.068797,-2.900101,7.49,-50.119999,50.049999,1729421453691.0,0.0
-13.58884,-7.992027,-5.008178,-17.219999,-35.98,30.799999,1729421453711.0,0.0
-10.114462,-12.686745,-9.729217,-48.369999,-30.66,7.56,1729421453732.0,0.0
-6.26441,-14.754145,-2.773281,-32.689999,28.91,-22.610001,1729421453753.0,0.0
-6.642475,-9.29133,-2.37368,75.25,43.189999,-49.420002,1729421453772.0,0.0
-5.716454,-8.12124,-4.297509,15.68,51.450001,-59.990002,1729421453794.0,0.0
-1.768296,-7.881958,0.835095,-46.41,73.010002,-67.550003,1729421453812.0,0.0
-1.320838,-6.84108,6.553941,62.439999,65.309998,-22.26,1729421453831.0,0.0
0.571885,-2.737389,9.123833,62.02,13.58,-35.700001,1729421453853.0,0.0
-0.538385,-5.706882,6.831509,-60.200001,-2.87,-5.53,1729421453871.0,0.0
1.004985,-10.102496,2.079363,-110.739998,-26.880001,11.48,1729421453891.0,0.0
-1.713261,-11.34198,0.167498,-61.670002,-30.380001,21.49,1729421453911.0,0.0
-3.383451,-10.380065,-0.66999,-4.27,-35.77,23.450001,1729421453931.0,0.0
-1.634298,-9.662218,-1.289732,23.940001,-51.099998,27.719999,1729421453953.0,0.0
-3.548556,-8.465806,-3.376273,42.0,-48.16,31.639999,1729421453971.0,0.0
-9.623933,-6.309873,-1.165305,34.299999,-41.23,34.650002,1729421453991.0,0.0
-11.779866,-4.639683,-5.185246,-26.040001,-41.860001,22.75,1729421454012.0,0.0
-8.492127,-11.073983,-9.250652,-61.950001,-22.26,25.76,1729421454032.0,0.0
-6.34098,-14.13919,-6.374479,1.05,37.799999,3.01,1729421454052.0,0.0
-7.283752,-10.284351,-1.794617,98.559998,61.110001,-16.17,1729421454071.0,0.0
-6.501299,-8.831908,-4.505685,90.230003,52.150002,-38.009998,1729421454091.0,0.0
-1.040878,-7.501499,3.85723,-32.34,64.540001,-49.07,1729421454111.0,0.0
-0.461815,-8.003991,5.644669,43.259998,50.400002,-12.95,1729421454131.0,0.0
1.378266,-5.991628,8.193025,24.08,14.0,-24.57,1729421454153.0,0.0
-0.287139,-6.84108,6.879365,-32.34,0.98,1.54,1729421454172.0,0.0
0.579063,-8.190632,2.761317,-47.529999,-32.34,27.09,1729421454191.0,0.0
-1.727618,-7.652246,0.789631,-37.73,-33.670002,41.09,1729421454211.0,0.0
-2.474179,-7.087541,-0.189033,-28.42,-40.32,56.84,1729421454231.0,0.0
-2.677568,-9.657433,-0.552742,-16.17,-51.240002,71.330002,1729421454253.0,0.0
-6.01077,-10.114462,-1.009771,23.379999,-57.610001,77.0,1729421454271.0,0.0
-12.47857,-7.097112,-0.880559,35.490002,-57.189999,72.099998,1729421454291.0,0.0
-13.143774,-8.669197,-7.73121,-50.330002,-63.349998,52.080002,1729421454311.0,0.0
-9.181261,-14.72543,-10.370493,-116.410004,-8.89,18.27,1729421454332.0,0.0
-7.171289,-16.615761,-6.766902,-2.38,45.009998,-17.43,1729421454354.0,0.0
-8.224132,-9.717253,-2.569891,125.93,65.590004,-56.420002,1729421454371.0,0.0
-7.640282,-7.783852,-3.888337,111.580002,56.91,-76.019997,1729421454392.0,0.0
-3.584448,-8.571091,-3.105884,-7.14,64.610001,-82.32,1729421454411.0,0.0
-0.129212,-4.68754,8.169096,-3.99,76.790001,-49.07,1729421454431.0,0.0
2.24686,-1.497907,10.480563,68.32,3.71,-19.530001,1729421454454.0,0.0
-1.526621,-5.216353,8.262416,-32.41,-11.83,33.529999,1729421454471.0,0.0
-2.39043,-9.736395,2.402394,-116.550003,-43.259998,46.060001,1729421454491.0,0.0
-3.498307,-11.023734,-1.004985,-115.010002,-52.639999,47.32,1729421454511.0,0.0
-3.457629,-11.593226,-2.782853,-53.34,-62.720001,45.43,1729421454531.0,0.0
-3.828516,-10.772489,-3.852444,19.32,-66.5,43.959999,1729421454553.0,0.0
-7.128219,-6.786045,-1.452443,71.260002,-63.84,46.060001,1729421454571.0,0.0
-11.56451,-5.35753,-1.777867,25.129999,-59.150002,42.560001,1729421454591.0,0.0
-11.650653,-7.336394,-6.226124,-82.18,-38.220001,24.15,1729421454611.0,0.0
-7.69771,-12.732209,-8.159525,-125.160004,-4.76,3.64,1729421454632.0,0.0
-6.9679,-13.060026,-4.785645,-20.93,37.799999,-20.719999,1729421454652.0,0.0
-8.30788,-8.671589,-2.610569,70.209999,50.82,-46.619999,1729421454672.0,0.0
-8.159525,-8.403593,-4.283153,57.68,56.98,-61.740002,1729421454692.0,0.0
-5.108676,-9.123833,-2.993421,-7.35,72.590004,-67.059998,1729421454712.0,0.0
-0.945165,-7.192825,6.013163,0.49,86.449997,-60.48,1729421454731.0,0.0
-1.136591,-6.250053,7.702496,106.959999,60.27,-27.719999,1729421454752.0,0.0
-0.739382,-3.278167,8.23131,69.650002,6.3,-4.48,1729421454771.0,0.0
-2.0004,-7.707282,2.498107,-91.629997,-32.759998,21.210001,1729421454791.0,0.0
-3.194418,-11.014162,-1.459622,-110.25,-34.720001,31.710001,1729421454811.0,0.0
-3.627519,-12.263215,-2.758924,-56.279999,-38.150002,28.98,1729421454831.0,0.0
-3.649055,-11.040483,-3.345166,27.299999,-45.990002,24.639999,1729421454855.0,0.0
-6.250053,-6.496514,-1.37348,88.340004,-45.150002,29.469999,1729421454873.0,0.0
-9.473185,-4.204189,-1.043271,57.75,-50.049999,36.049999,1729421454891.0,0.0
-10.506885,-7.460821,-5.091926,-40.389999,-42.91,25.83,1729421454911.0,0.0
-9.492328,-10.542776,-8.128418,-123.059998,-7.35,9.24,1729421454931.0,0.0
-7.776673,-14.177474,-6.52762,-93.660004,32.060001,-10.92,1729421454952.0,0.0
-7.161718,-13.091133,-3.146562,20.09,59.43,-41.650002,1729421454971.0,0.0
-7.491928,-9.595219,-3.706482,111.510002,59.010002,-68.25,1729421454991.0,0.0
-4.185047,-7.532606,-2.907279,83.790001,62.369999,-77.419998,1729421455011.0,0.0
-0.047856,-2.105684,7.01097,56.349998,74.480003,-44.099998,1729421455032.0,0.0
0.641276,-5.254639,9.868,68.389999,40.389999,-8.26,1729421455053.0,0.0
-1.019342,-6.06102,9.870394,-22.049999,16.24,-3.57,1729421455070.0,0.0
-2.005185,-6.888937,5.496314,-58.73,-31.01,20.719999,1729421455091.0,0.0
-2.770889,-9.379865,-0.954736,-109.199997,-48.790001,37.450001,1729421455111.0,0.0
-3.634698,-12.851851,-3.546163,-79.099998,-48.439999,39.900002,1729421455132.0,0.0
-3.290131,-13.96212,-4.232903,12.25,-55.93,34.720001,1729421455153.0,0.0
-4.914857,-7.71446,-1.493121,96.879997,-54.950001,28.07,1729421455171.0,0.0
-9.245867,-4.524827,0.308674,91.349998,-59.639999,37.66,1729421455191.0,0.0
-11.3683,-4.804788,-5.699703,-33.18,-52.5,25.9,1729421455210.0,0.0
-9.238688,-8.79123,-8.803195,-163.660004,-16.030001,5.11,1729421455231.0,0.0
-7.032506,-14.239687,-8.02792,-108.779999,19.67,-13.3,1729421455253.0,0.0
-7.24786,-11.880364,-3.584448,19.18,45.290001,-39.759998,1729421455270.0,0.0
-8.087741,-7.767102,-5.118248,80.57,54.529999,-59.990002,1729421455298.0,0.0
-5.237889,-8.458629,-4.871787,35.209999,63.91,-69.019997,1729421455310.0,0.0
-2.141576,-7.549356,3.101098,-5.39,89.040001,-63.0,1729421455331.0,0.0
-2.258825,-7.503892,6.805188,90.440002,72.099998,-23.73,1729421455355.0,0.0
-0.131605,-3.404987,10.784451,48.299999,29.26,-38.920002,1729421455370.0,0.0
-1.208375,-5.479564,7.381857,-46.34,-1.89,1.33,1729421455392.0,0.0
-1.22034,-9.408579,1.782653,-109.480003,-25.41,15.61,1729421455411.0,0.0
-3.354738,-12.519248,-2.352145,-43.259998,-19.809999,26.530001,1729421455431.0,0.0
-3.256632,-11.990433,-2.806781,45.360001,-31.15,28.559999,1729421455453.0,0.0
-2.699104,-9.815358,-2.323431,102.129997,-39.689999,23.17,1729421455471.0,0.0
-4.608576,-6.623333,0.234497,97.650002,-41.580002,22.120001,1729421455491.0,0.0
-8.587841,-3.964907,0.935594,14.7,-53.130001,27.93,1729421455511.0,0.0
-11.260624,-6.936793,-6.355337,-104.300003,-53.130001,17.57,1729421455536.0,0.0
-8.9683,-10.202995,-9.030513,-158.199997,-23.73,-0.49,1729421455556.0,0.0
-5.687739,-13.710874,-8.068598,-54.670002,5.53,-5.53,1729421455572.0,0.0
-6.013163,-10.753345,-4.479364,93.590004,31.290001,-26.389999,1729421455592.0,0.0
-8.075776,-8.271988,-3.266203,126.629997,48.860001,-39.130001,1729421455611.0,0.0
-7.142576,-9.420543,-4.910072,68.879997,60.830002,-55.93,1729421455632.0,0.0
-4.761717,-8.776874,-2.108077,9.87,75.459999,-66.080002,1729421455664.0,0.0
-1.488336,-6.735795,6.108876,12.81,63.349998,-49.91,1729421455671.0,0.0
0.880559,-6.649654,7.202396,57.189999,18.969999,-42.349998,1729421455691.0,0.0
-1.129412,-6.099305,6.396015,4.41,7.98,-14.49,1729421455713.0,0.0
-2.801995,-8.638089,3.833302,-2.38,-7.56,8.4,1729421455733.0,0.0
-3.089134,-9.906286,1.265803,12.46,-23.1,14.91,1729421455755.0,0.0
-1.885544,-9.970891,-0.729811,21.07,-44.450001,17.290001,1729421455773.0,0.0
-1.540978,-8.745767,-0.715454,21.35,-55.369999,21.700001,1729421455793.0,0.0
-3.979264,-6.532406,1.079163,1.47,-62.720001,31.780001,1729421455813.0,0.0
-5.520242,-6.350551,-0.90688,-41.369999,-84.0,40.950001,1729421455833.0,0.0
-9.499505,-8.800802,-5.498707,-98.419998,-60.830002,37.799999,1729421455854.0,0.0
-10.523634,-10.604989,-7.987241,-106.470001,-21.77,19.950001,1729421455873.0,0.0
-7.202396,-14.057834,-6.745367,-32.619999,8.75,14.98,1729421455893.0,0.0
-5.359922,-12.256038,-3.785445,102.199997,23.52,-12.18,1729421455913.0,0.0
-7.334002,-7.82453,-2.612962,144.899994,37.029999,-33.32,1729421455933.0,0.0
-6.836295,-7.554141,-4.31426,61.950001,42.209999,-49.209999,1729421455954.0,0.0
-4.048656,-7.980063,-2.359323,-37.66,57.119999,-47.880001,1729421455973.0,0.0
-1.141376,-8.054241,4.969893,-35.07,58.939999,-36.610001,1729421455993.0,0.0
-0.246461,-9.126225,5.4341,63.349998,28.0,-15.96,1729421456017.0,0.0
-1.402194,-5.225924,9.217153,31.92,20.440001,-9.1,1729421456033.0,0.0
-2.938386,-7.850852,6.400801,-26.880001,-9.66,12.32,1729421456059.0,0.0
-3.084348,-8.585447,3.57727,-56.490002,-23.66,19.950001,1729421456074.0,0.0
-2.275574,-8.662018,0.562313,-56.630001,-41.580002,26.389999,1729421456092.0,0.0
-1.959722,-10.499706,-1.878366,-48.439999,-54.25,37.170002,1729421456112.0,0.0
-3.314059,-10.41835,-3.031706,-8.12,-54.040001,39.970001,1729421456133.0,0.0
-6.795617,-9.379865,-1.818545,57.959999,-46.41,44.869999,1729421456154.0,0.0
-9.927821,-8.355737,-6.022735,86.800003,-39.619999,33.25,1729421456173.0,0.0
-9.671788,-8.846266,-6.278766,24.290001,-15.12,9.73,1729421456193.0,0.0
-8.032705,-12.3685,-5.996413,-44.310001,17.92,-3.01,1729421456212.0,0.0
-6.570691,-13.244273,-4.39083,-3.08,28.700001,-28.77,1729421456233.0,0.0
-6.101698,-8.729016,-1.402194,52.990002,34.580002,-52.009998,1729421456254.0,0.0
-5.233103,-7.779066,-3.096312,29.33,35.91,-63.490002,1729421456272.0,0.0
-3.448057,-8.269595,-3.627519,-27.51,58.450001,-59.57,1729421456292.0,0.0
-0.33021,-6.518049,9.509077,-7.42,75.809998,-39.34,1729421456313.0,0.0
-1.107877,-8.123632,6.994221,115.43,26.25,-18.969999,1729421456333.0,0.0
-1.002593,-2.818745,9.827322,70.279999,6.37,-18.41,1729421456354.0,0.0
-2.648855,-7.341179,2.900101,-87.779999,-17.99,19.879999,1729421456373.0,0.0
-2.87378,-11.487941,0.236889,-125.370003,-13.86,27.440001,1729421456392.0,0.0
-3.402594,-13.584054,-1.481157,-69.510002,-12.04,23.52,1729421456412.0,0.0
-3.031706,-11.973685,-1.923829,24.01,-23.450001,17.43,1729421456433.0,0.0
-2.545963,-8.750552,-1.095913,71.330002,-33.389999,13.79,1729421456453.0,0.0
-4.285545,-6.171089,0.631705,62.510002,-34.02,19.879999,1729421456472.0,0.0
-6.881758,-5.556134,0.533599,14.77,-42.139999,24.85,1729421456492.0,0.0
-7.726424,-8.702696,-2.842674,-54.110001,-45.779999,17.57,1729421456513.0,0.0
-7.953743,-11.4018,-5.113462,-80.080002,-20.65,8.54,1729421456532.0,0.0
-6.987042,-11.655439,-4.776074,-40.32,3.57,-2.73,1729421456554.0,0.0
-6.211767,-11.064411,-3.148954,30.030001,18.83,-14.7,1729421456572.0,0.0
-6.379266,-9.865608,-0.806381,67.830002,35.0,-31.219999,1729421456594.0,0.0
-6.958328,-9.817751,-1.998007,66.989998,39.48,-47.25,1729421456613.0,0.0
-5.331209,-8.355737,-2.667997,40.32,47.599998,-58.59,1729421456632.0,0.0
-2.928815,-7.042077,-0.614955,3.01,62.860001,-57.400002,1729421456653.0,0.0
-1.957329,-6.257231,7.771888,14.7,64.050003,-24.15,1729421456672.0,0.0
0.131605,-5.661418,7.616355,28.139999,12.32,-22.68,1729421456694.0,0.0
-1.184447,-5.618347,5.302495,-49.77,-12.81,5.32,1729421456713.0,0.0
-2.266003,-9.212367,2.038685,-93.940002,-13.93,19.32,1729421456733.0,0.0
-2.581856,-11.081161,0.825524,-74.199997,-10.15,26.25,1729421456754.0,0.0
-2.603391,-10.638489,0.189033,-24.08,-18.129999,26.32,1729421456773.0,0.0
-2.734996,-9.970891,-0.672383,7.56,-29.540001,27.860001,1729421456792.0,0.0
-2.840281,-9.38465,-0.933201,5.11,-33.25,28.84,1729421456812.0,0.0
-3.431308,-8.161918,-1.024128,7.56,-34.369999,29.889999,1729421456833.0,0.0
-5.515456,-6.431907,-0.751346,16.73,-36.540001,37.869999,1729421456856.0,0.0
-7.496714,-6.826723,-0.847059,-10.71,-35.279999,39.619999,1729421456873.0,0.0
-8.872586,-9.789038,-4.017549,-39.970001,-13.440001,35.77,1729421456892.0,0.0
-7.448857,-12.191431,-4.338188,-21.91,5.53,21.07,1729421456913.0,0.0
-6.439085,-11.657832,-3.242275,43.470001,17.99,6.72,1729421456932.0,0.0
-7.049256,-8.896514,-1.478764,94.150002,23.59,-10.36,1729421456953.0,0.0
-7.286145,-7.664211,-0.51685,59.639999,30.52,-22.960001,1729421456973.0,0.0
-6.479764,-10.394422,-2.648855,0.63,33.389999,-37.869999,1729421456992.0,0.0
-5.271388,-10.80838,-3.084348,-19.25,47.740002,-49.349998,1729421457012.0,0.0
-1.978864,-8.458629,3.089134,-11.83,60.27,-56.560001,1729421457033.0,0.0
-1.617548,-7.008578,6.513263,42.77,43.330002,-25.200001,1729421457052.0,0.0
-1.552942,-4.438686,7.779066,12.88,-1.19,-27.02,1729421457073.0,0.0
-2.837888,-5.845665,5.103891,-88.830002,-16.940001,-7.7,1729421457092.0,0.0
-2.096112,-9.997212,2.529213,-133.490005,-22.469999,0.84,1729421457112.0,0.0
-2.206182,-11.540584,1.5003,-79.870003,-22.4,7.14,1729421457132.0,0.0
-2.347359,-9.762716,0.794417,-13.440001,-29.26,8.4,1729421457154.0,0.0
-3.101098,-9.020942,-0.679562,-3.5,-33.32,12.67,1729421457172.0,0.0
-3.804588,-9.760324,-1.847259,-22.82,-33.880001,15.68,1729421457192.0,0.0
-3.4672,-10.143176,-2.316252,-22.120001,-34.16,13.09,1729421457212.0,0.0
-3.888337,-9.217153,-1.761117,-2.38,-30.73,9.45,1729421457232.0,0.0
-3.960121,-8.446664,-1.718047,8.05,-30.380001,10.43,1729421457253.0,0.0
-5.223531,-7.506285,-0.531207,14.98,-30.799999,14.56,1729421457272.0,0.0
-7.479963,-7.898707,-0.567099,3.01,-26.880001,13.23,1729421457292.0,0.0
-8.513663,-8.470592,-3.038885,-19.950001,-24.639999,4.76,1729421457312.0,0.0
-6.675975,-9.205189,-4.371687,-24.219999,-20.09,-4.06,1729421457339.0,0.0
-5.546563,-9.934999,-3.658626,-15.89,2.66,-4.2,1729421457356.0,0.0
-6.67119,-8.865408,-1.287339,5.74,27.790001,-10.57,1729421457373.0,0.0
-5.228317,-7.898707,-0.227318,29.889999,26.389999,-17.710001,1729421457392.0,0.0
-3.912265,-7.401,0.277567,27.370001,19.879999,-17.15,1729421457413.0,0.0
-4.287938,-8.200203,0.031107,-5.25,21.210001,-14.28,1729421457433.0,0.0
-4.465007,-8.812766,-0.62692,-51.939999,21.98,-15.26,1729421457455.0,0.0
-4.034299,-9.24108,-0.990629,-79.870003,21.84,-14.28,1729421457472.0,0.0
-3.816552,-9.432507,-0.935594,-84.139999,20.58,-13.86,1729421457492.0,0.0
-3.907479,-9.602397,-0.198604,-75.389999,17.780001,-14.28,1729421457514.0,0.0
-3.419343,-9.913465,-0.349352,-61.040001,3.15,-17.639999,1729421457534.0,0.0
-3.113062,-9.276974,-0.612563,-55.790001,-4.83,-22.82,1729421457554.0,0.0
-2.361716,-8.312666,-1.055235,-69.93,-12.39,-25.620001,1729421457573.0,0.0
-1.919044,-8.212167,-0.870987,-106.470001,-18.48,-22.33,1729421457592.0,0.0
-1.89033,-8.982656,-1.737189,-140.699997,-24.57,-17.01,1729421457614.0,0.0
-1.916651,-9.047262,-1.959722,-158.479996,-28.84,-10.57,1729421457635.0,0.0
-2.009971,-9.501899,-2.411965,-163.520004,-29.82,-8.19,1729421457654.0,0.0
-2.522035,-9.533006,-2.292324,-109.830002,-35.209999,-5.74,1729421457674.0,0.0
-3.426522,-9.60479,-2.22054,-57.470001,-36.470001,-5.32,1729421457693.0,0.0
-4.472186,-10.320245,-3.134598,-18.129999,-35.420002,-4.2,1729421457713.0,0.0
-4.431508,-7.446464,-4.063013,1.33,-29.469999,-0.07,1729421457735.0,0.0
-4.046263,-5.922236,-5.745167,24.99,-23.17,23.940001,1729421457756.0,0.0
-3.644269,-6.21416,-6.867401,17.99,-2.31,40.950001,1729421457773.0,0.0
-4.259224,-7.290931,-6.271588,-3.29,23.799999,47.459999,1729421457794.0,0.0
-4.979464,-9.068797,-6.072984,-17.85,34.299999,50.75,1729421457814.0,0.0
-4.510471,-8.480164,-6.458229,-24.710001,25.690001,42.490002,1729421457835.0,0.0
-4.220939,-7.585248,-7.164111,-13.58,26.880001,30.030001,1729421457858.0,0.0
-5.015356,-8.097312,-7.568498,0.49,35.139999,17.85,1729421457876.0,0.0
-5.680561,-7.826923,-6.161518,23.450001,42.209999,7.77,1729421457894.0,0.0
-5.965307,-7.216753,-2.87378,43.189999,38.5,-0.7,1729421457915.0,0.0
-4.98425,-9.401401,-6.723832,31.57,17.639999,-27.299999,1729421457938.0,0.0
-4.13719,-10.200603,-6.104091,53.200001,10.71,-54.110001,1729421457957.0,0.0
-3.706482,-9.300901,-3.385844,57.119999,29.4,-63.279999,1729421457975.0,0.0
-3.022135,-7.805387,-2.696711,48.860001,26.67,-61.599998,1729421457995.0,0.0
-2.634498,-7.4345,-0.937986,46.689999,21.559999,-45.150002,1729421458017.0,0.0
-3.460021,-5.819345,0.540778,12.39,24.360001,-33.529999,1729421458035.0,0.0
-4.601398,-6.051448,1.416551,-30.799999,14.49,-12.46,1729421458097.0,0.0
-5.091926,-8.427521,0.358923,-52.849998,0.77,2.8,1729421458099.0,0.0
-5.65424,-10.277173,-0.727418,-35.139999,-4.62,12.25,1729421458100.0,0.0
-5.54417,-8.88455,-2.086541,-16.379999,-7.14,13.37,1729421458115.0,0.0
-3.785445,-10.284351,-2.931208,-16.030001,-7.63,14.63,1729421458165.0,0.0
-2.723032,-9.090333,-4.82393,-56.209999,-22.469999,17.360001,1729421458207.0,0.0
-2.378466,-7.549356,-5.615955,-64.75,-15.33,16.940001,1729421458208.0,0.0
-1.11027,-7.018148,-6.556334,-40.740002,-21.0,28.77,1729421458219.0,0.0
-2.160719,-5.831308,-8.537591,22.68,-3.43,47.110001,1729421458234.0,0.0
-3.596412,-4.800002,-6.9679,58.869999,17.5,52.5,1729421458253.0,0.0
-4.773681,-5.245068,-4.768896,38.43,30.66,50.400002,1729421458276.0,0.0
-4.692325,-6.778866,-5.536992,-20.860001,9.24,42.279999,1729421458296.0,0.0
-6.551548,-7.755138,-5.931807,-10.01,15.4,21.559999,1729421458314.0,0.0
-6.570691,-7.233503,-5.407779,-5.6,0.21,6.44,1729421458335.0,0.0
-5.682954,-7.439285,-5.864808,-29.82,-10.43,-13.86,1729421458355.0,0.0
-4.618148,-8.173882,-6.008378,-45.43,-16.870001,-30.940001,1729421458373.0,0.0
-3.9338,-8.999406,-6.606583,-42.279999,-15.54,-42.77,1729421458394.0,0.0
-3.031706,-8.587841,-10.930414,-37.52,-16.379999,-51.170002,1729421458414.0,0.0
-2.385644,-8.556733,-9.631111,-2.38,14.63,-51.380001,1729421458434.0,0.0
-2.57707,-10.463813,-1.68694,9.59,58.52,-39.689999,1729421458454.0,0.0
-2.112862,-7.54457,1.598405,21.0,45.43,-34.790001,1729421458475.0,0.0
-2.333002,-5.76431,-0.325424,37.73,9.03,-26.74,1729421458494.0,0.0
-5.201996,-8.049455,0.205783,-33.32,21.35,-6.51,1729421458514.0,0.0
-6.618547,-10.377672,-0.378066,2.38,5.67,10.15,1729421458535.0,0.0
-6.02752,-10.478169,-1.229911,68.599998,-11.55,17.5,1729421458555.0,0.0
-5.257031,-8.764909,-1.237089,76.93,-17.290001,18.200001,1729421458575.0,0.0
-5.32403,-8.695518,-0.988236,43.470001,-16.1,21.559999,1729421458595.0,0.0
-3.629912,-10.58824,-4.59422,-20.860001,-34.02,23.940001,1729421458683.0,0.0
-2.177469,-9.96132,-7.812566,-69.440002,-21.35,12.11,1729421458717.0,0.0
-0.713061,-10.794022,-9.518648,16.799999,-14.84,19.389999,1729421458718.0,0.0
0.002393,-1.730011,-10.205389,96.669998,24.780001,41.439999,1729421458719.0,0.0
-3.622734,2.086541,-5.848059,89.879997,66.849998,77.349998,1729421458719.0,0.0
-8.432307,-6.226124,-3.471986,7.98,71.75,82.389999,1729421458719.0,0.0
-7.089933,-8.243275,-4.658825,-46.759998,18.200001,50.540001,1729421458734.0,0.0
-6.360123,-7.812566,-4.56072,-41.23,1.33,19.809999,1729421458756.0,0.0
-6.343372,-7.539784,-5.111069,-62.720001,-8.12,-4.55,1729421458775.0,0.0
-5.826523,-9.88475,-6.465407,-82.32,-20.65,-20.719999,1729421458794.0,0.0
-5.32403,-9.645468,-6.664011,-68.529999,-21.07,-37.59,1729421458814.0,0.0
-4.658825,-8.714661,-6.843473,-42.07,-17.01,-50.119999,1729421458834.0,0.0
-3.424129,-8.233703,-8.123632,-34.299999,-7.56,-58.869999,1729421458855.0,0.0
-2.672783,-6.814759,-8.597411,-10.01,6.44,-46.41,1729421458874.0,0.0
-3.139383,-8.566305,-7.523034,37.939999,26.18,-23.59,1729421458895.0,0.0
-3.835695,-8.762517,-2.833102,60.760002,55.650002,-24.710001,1729421458914.0,0.0
-4.532006,-5.9677,-1.87358,39.970001,59.010002,-18.690001,1729421458934.0,0.0
-4.84068,-8.532805,-0.701097,2.1,48.299999,-3.15,1729421458955.0,0.0
-4.596612,-8.322237,-1.380659,-9.66,21.210001,5.04,1729421458974.0,0.0
-5.101498,-8.910872,-2.742175,35.700001,13.440001,16.870001,1729421458994.0,0.0
-3.658626,-8.181061,-1.971686,61.810001,9.45,29.82,1729421459014.0,0.0
-3.522235,-9.152546,-0.014357,52.57,4.97,44.380001,1729421459036.0,0.0
-4.646862,-10.068997,-0.567099,10.64,-1.54,41.790001,1729421459076.0,0.0
-3.87398,-8.039884,-4.642076,-10.08,-22.049999,30.799999,1729421459079.0,0.0
-0.985843,-5.812167,-8.408379,9.38,-42.560001,41.16,1729421459093.0,0.0
-1.318445,-7.74796,-8.79123,4.83,-13.51,56.630001,1729421459114.0,0.0
-4.307081,-7.422535,-8.173882,27.09,25.200001,60.549999,1729421459135.0,0.0
-5.041678,-4.622933,-5.123034,72.519997,24.360001,62.16,1729421459155.0,0.0
-6.685547,-4.491328,-3.888337,47.32,14.91,58.310001,1729421459173.0,0.0
-7.767102,-7.202396,-5.587241,-6.16,-2.31,39.689999,1729421459194.0,0.0
-8.063812,-8.099705,-5.793024,-14.63,-11.97,11.62,1729421459213.0,0.0
-7.941778,-6.484549,-3.438486,-23.59,-15.68,-17.99,1729421459234.0,0.0
-6.357729,-6.017949,-4.634897,-55.580002,-31.85,-39.970001,1729421459256.0,0.0
-4.922036,-7.647461,-6.652047,-89.809998,-37.240002,-48.02,1729421459273.0,0.0
-3.254239,-9.753145,-9.60479,-94.010002,-27.16,-50.189999,1729421459293.0,0.0
-2.57707,-9.932607,-8.956335,-36.68,11.13,-50.889999,1729421459314.0,0.0
-2.847459,-9.793823,-3.986443,-26.6,40.599998,-52.849998,1729421459334.0,0.0
-4.051049,-7.202396,0.179462,12.18,39.900002,-48.439999,1729421459415.0,0.0
-3.663411,-6.759724,0.200997,24.01,14.84,-30.1,1729421459415.0,0.0
-4.323831,-7.329216,-1.141376,8.68,10.57,-16.799999,1729421459416.0,0.0
-5.101498,-8.568698,-2.026721,3.29,3.43,-1.75,1729421459417.0,0.0
-5.788238,-9.662218,-2.354537,22.82,-2.52,2.17,1729421459435.0,0.0
-5.395815,-9.253045,-2.041078,69.93,-12.18,6.37,1729421459455.0,0.0
-5.285746,-7.652246,-2.376073,80.709999,-15.96,9.94,1729421459474.0,0.0
-4.993821,-7.456036,-3.876373,48.09,-22.68,12.67,1729421459497.0,0.0
-4.292724,-8.126025,-3.601198,-3.43,-21.700001,16.73,1729421459515.0,0.0
-3.608376,-10.884951,-6.54437,-20.790001,-22.33,23.17,1729421459535.0,0.0
-1.837688,-6.661618,-10.80838,-14.21,-13.16,13.37,1729421459554.0,0.0
-1.249053,-5.271388,-10.557133,64.470001,7.77,29.75,1729421459574.0,0.0
-5.821737,-4.613362,-5.9342,78.889999,52.920002,48.09,1729421459593.0,0.0
-7.54457,-5.900701,-3.914658,55.790001,43.119999,41.02,1729421459614.0,0.0
-7.850852,-5.47717,-2.208575,29.610001,17.85,15.75,1729421459634.0,0.0
-7.575676,-4.474578,-2.136791,-11.48,-6.93,-0.7,1729421459654.0,0.0
-7.420143,-6.381658,-4.280759,-64.68,-24.780001,-11.97,1729421459674.0,0.0
-6.178268,-8.571091,-5.419744,-96.040001,-30.380001,-21.98,1729421459693.0,0.0
-4.752146,-8.932407,-5.058427,-88.129997,-24.710001,-25.969999,1729421459713.0,0.0
-4.019942,-8.843873,-7.664211,-66.43,-19.25,-28.84,1729421459734.0,0.0
-3.330809,-7.166504,-9.059227,-54.389999,2.73,-28.0,1729421459755.0,0.0
-3.089134,-8.197811,-9.805787,-61.529999,33.529999,-19.040001,1729421459773.0,0.0
-2.557927,-10.059426,-3.366701,-66.639999,55.93,-21.280001,1729421459794.0,0.0
-2.778067,-9.74836,-1.95015,-55.580002,41.09,-23.940001,1729421459813.0,0.0
-2.868994,-7.396214,-2.431108,-40.459999,29.610001,-28.84,1729421459834.0,0.0
-3.799802,-8.013563,-1.100698,-31.219999,20.51,-11.55,1729421459856.0,0.0
-6.118448,-8.688338,-0.70349,-22.469999,11.27,-2.45,1729421459875.0,0.0
-5.76431,-9.497113,-2.940779,39.759998,-14.7,6.65,1729421459894.0,0.0
-4.567898,-8.437093,-3.699304,63.700001,-16.450001,8.19,1729421459915.0,0.0
-4.350152,-7.712067,-3.57727,70.07,-14.84,19.389999,1729421459935.0,0.0
-4.98425,-6.233303,-3.407379,61.32,-16.940001,23.17,1729421459955.0,0.0
-5.694918,-6.836295,-3.37388,65.029999,-23.59,32.830002,1729421459975.0,0.0
-4.371687,-8.082954,-5.831308,58.240002,-35.139999,37.170002,1729421459994.0,0.0
-2.273181,-7.580462,-9.035298,57.470001,-37.240002,34.790001,1729421460014.0,0.0
-4.034299,-7.365108,-7.752745,63.279999,-1.75,46.27,1729421460035.0,0.0
-4.498507,-6.721439,-6.034698,74.830002,9.94,40.880001,1729421460058.0,0.0
-4.524827,-4.876573,-4.886144,76.580002,4.34,37.59,1729421460075.0,0.0
-6.52762,-5.668597,-3.321238,20.299999,10.92,34.580002,1729421460099.0,0.0
-6.687939,-6.929615,-4.249653,-25.690001,-2.17,23.1,1729421460115.0,0.0
-6.135197,-7.60439,-4.680361,-29.469999,-12.32,15.54,1729421460135.0,0.0
-6.783652,-7.295716,-4.457829,-17.219999,-9.73,5.88,1729421460156.0,0.0
-7.209574,-6.989435,-4.268795,-20.58,-9.59,-1.61,1729421460174.0,0.0
-7.575676,-7.630712,-4.275974,-32.549999,-12.32,-8.68,1729421460194.0,0.0
-7.599605,-7.829315,-5.383851,-46.27,-16.309999,-22.610001,1729421460214.0,0.0
-6.202196,-7.482357,-5.587241,-60.130001,-25.41,-47.110001,1729421460235.0,0.0
-5.529813,-7.898707,-7.334002,-70.980003,-10.71,-45.5,1729421460255.0,0.0
-3.431308,-8.662018,-8.267202,-75.32,-1.54,-55.580002,1729421460275.0,0.0
-3.541377,-7.963314,-9.066404,-56.98,28.98,-59.080002,1729421460295.0,0.0
-3.771089,-8.408379,-4.972286,-30.24,55.16,-56.98,1729421460314.0,0.0
-4.17069,-8.169096,0.59342,-11.2,64.889999,-41.93,1729421460336.0,0.0
-2.603391,-6.001199,-1.864009,16.450001,26.25,-33.110001,1729421460359.0,0.0
-4.692325,-7.121039,-2.48375,-28.07,33.529999,-16.379999,1729421460376.0,0.0
-5.936593,-8.051848,-0.289532,-57.540001,25.059999,-8.54,1729421460395.0,0.0
-6.240481,-8.9683,0.887737,-12.39,25.059999,1.68,1729421460416.0,0.0
-5.690133,-8.571091,-0.851845,42.07,-22.540001,0.42,1729421460436.0,0.0
-4.704289,-6.62094,-3.773481,57.119999,-37.310001,11.62,1729421460459.0,0.0
-4.491328,-6.551548,-3.519842,44.799999,-36.259998,28.559999,1729421460475.0,0.0
-4.828716,-8.65484,-6.453443,11.83,-29.120001,34.09,1729421460495.0,0.0
-3.802195,-8.070991,-9.315259,24.08,-24.710001,34.509998,1729421460517.0,0.0
-3.172883,-7.022934,-7.412964,44.939999,0.84,42.0,1729421460536.0,0.0
-3.168097,-6.302694,-7.496714,78.120003,22.120001,44.310001,1729421460559.0,0.0
-3.914658,-6.441479,-6.424729,50.049999,33.18,36.68,1729421460575.0,0.0
-5.484349,-6.62094,-5.225924,26.18,44.799999,26.389999,1729421460596.0,0.0
-5.584848,-5.211568,-3.448057,38.779999,36.330002,30.309999,1729421460617.0,0.0
-6.685547,-4.216154,-2.991028,53.27,23.379999,35.77,1729421460636.0,0.0
-7.329216,-5.041678,-3.522235,26.110001,7.42,32.619999,1729421460659.0,0.0
-7.958528,-8.099705,-3.876373,-27.93,1.96,22.120001,1729421460678.0,0.0
-6.98465,-9.037691,-5.149354,-52.639999,-14.98,-1.19,1729421460696.0,0.0
-6.149554,-8.315059,-4.929214,-56.139999,-22.540001,-23.1,1729421460715.0,0.0
-6.163911,-8.200203,-5.606383,-73.43,-23.59,-39.900002,1729421460735.0,0.0
-5.666204,-7.805387,-5.998806,-96.040001,-22.82,-52.080002,1729421460757.0,0.0
-4.768896,-7.372287,-7.80778,-84.349998,-11.34,-56.77,1729421460776.0,0.0
-4.302295,-9.064013,-5.194818,-118.300003,14.63,-43.82,1729421460795.0,0.0
-2.660819,-9.54497,-7.460821,-107.940002,12.32,-59.990002,1729421460816.0,0.0
-1.574477,-7.965706,-3.28056,-29.889999,24.85,-61.670002,1729421460837.0,0.0
-4.292724,-5.996413,-1.29691,12.04,49.630001,-17.639999,1729421460861.0,0.0
-4.285545,-5.881558,-2.225325,1.68,21.139999,-4.13,1729421460875.0,0.0
-6.71426,-8.549555,-1.741975,-1.96,13.3,0.98,1729421460895.0,0.0
-6.240481,-8.733803,-2.201397,39.619999,-8.96,0.21,1729421460915.0,0.0
-5.245068,-8.224132,-3.550949,68.809998,-22.889999,2.24,1729421460936.0,0.0
-5.386244,-7.898707,-2.95035,57.540001,-15.89,7.7,1729421460957.0,0.0
-6.128019,-9.908678,-3.105884,44.73,-9.1,15.96,1729421460976.0,0.0
-3.227918,-8.355737,-7.310073,51.099998,-31.15,17.15,1729421460998.0,0.0
-1.359123,-6.032306,-9.79143,123.059998,-28.139999,32.549999,1729421461015.0,0.0
-2.388037,-7.13779,-8.396415,136.779999,12.32,54.810001,1729421461035.0,0.0
-4.163511,-6.116055,-7.274181,102.480003,48.09,49.560001,1729421461059.0,0.0
-5.034499,-5.532206,-4.007978,78.260002,51.799999,52.080002,1729421461078.0,0.0
-5.546563,-5.180461,-2.833102,37.59,39.759998,48.650002,1729421461096.0,0.0
-6.84108,-6.245267,-2.732604,8.75,24.780001,41.23,1729421461115.0,0.0
-7.623533,-6.860222,-3.457629,2.1,5.81,27.790001,1729421461135.0,0.0
-7.458428,-6.991827,-3.952943,-9.94,-10.57,15.68,1729421461156.0,0.0
-7.496714,-8.023134,-4.31426,-43.119999,-19.389999,-2.1,1729421461177.0,0.0
-7.307681,-9.207582,-5.95095,-68.739998,-28.77,-26.880001,1729421461196.0,0.0
-5.245068,-7.79103,-7.956135,-74.199997,-31.290001,-60.619999,1729421461214.0,0.0
-4.87418,-6.853044,-7.769495,-29.68,-3.43,-80.709999,1729421461235.0,0.0
-4.146761,-8.846266,-6.063413,-35.560001,18.620001,-78.190002,1729421461256.0,0.0
-3.302095,-9.023334,-4.541577,-48.93,34.509998,-68.459999,1729421461275.0,0.0
-1.658226,-8.630912,-1.825724,-29.82,36.119999,-55.860001,1729421461295.0,0.0
-2.306681,-8.365308,0.131605,-36.959999,28.35,-41.93,1729421461315.0,0.0
-5.072784,-7.365108,-0.653241,-30.380001,22.469999,-37.939999,1729421461336.0,0.0
-6.046663,-7.546963,-1.335195,7.0,4.55,-20.299999,1729421461358.0,0.0
-5.07757,-7.192825,-2.196611,43.82,-8.96,-6.44,1729421461375.0,0.0
-4.575077,-7.188039,-1.648655,55.369999,-13.09,9.45,1729421461395.0,0.0
-4.993821,-7.472785,-2.26361,30.24,-15.4,22.26,1729421461422.0,0.0
-4.814359,-7.99442,-3.615555,2.52,-20.09,25.620001,1729421461435.0,0.0
-4.957928,-8.171489,-5.536992,-1.89,-19.6,29.469999,1729421461461.0,0.0
-3.615555,-10.411172,-6.668797,1.47,-17.92,31.639999,1729421461476.0,0.0
-2.175076,-8.228917,-8.772088,12.25,-13.09,32.200001,1729421461497.0,0.0
-2.340181,-8.01117,-8.331808,74.690002,10.78,30.450001,1729421461517.0,0.0
-5.426922,-4.4339,-4.460221,100.870003,33.529999,38.150002,1729421461536.0,0.0
-6.618547,-5.070391,-3.282953,51.939999,33.18,35.84,1729421461556.0,0.0
-6.680761,-5.938986,-3.85723,24.780001,9.94,29.75,1729421461575.0,0.0
-7.049256,-6.321837,-3.395415,1.75,0.56,15.89,1729421461596.0,0.0
-6.89133,-6.546762,-3.991228,-10.78,-15.47,3.08,1729421461616.0,0.0
-6.795617,-8.453842,-4.926822,-41.93,-22.469999,-8.68,1729421461636.0,0.0
-6.209375,-9.269794,-4.893322,-64.330002,-28.630001,-28.77,1729421461658.0,0.0
-5.599205,-8.281559,-5.230711,-53.34,-25.969999,-46.34,1729421461676.0,0.0
-4.462614,-7.886744,-7.350751,-47.18,-22.82,-52.639999,1729421461696.0,0.0
-3.897908,-9.054441,-5.63749,-77.769997,7.63,-54.040001,1729421461717.0,0.0
-2.679961,-9.695717,-4.577469,-85.959999,14.98,-58.450001,1729421461736.0,0.0
-2.344966,-9.059227,-2.610569,-57.540001,21.629999,-50.82,1729421461756.0,0.0
-2.734996,-7.664211,-3.069991,-36.470001,24.43,-38.009998,1729421461776.0,0.0
-3.850052,-7.977671,-0.385244,-45.57,20.299999,-15.4,1729421461795.0,0.0
-5.443672,-8.082954,-0.428315,-29.540001,11.13,-8.89,1729421461815.0,0.0
-6.67119,-9.272188,-1.471586,25.76,-2.1,8.96,1729421461836.0,0.0
-5.134997,-8.224132,-2.909672,54.25,-15.61,13.440001,1729421461856.0,0.0
-4.972286,-7.420143,-2.517249,39.200001,-23.59,17.01,1729421461877.0,0.0
-4.974678,-10.559525,-5.261817,17.219999,-31.219999,20.02,1729421461897.0,0.0
-2.323431,-10.265208,-8.944371,2.87,-33.459999,1.75,1729421461916.0,0.0
-0.98345,-6.312266,-12.210573,34.650002,-11.34,19.809999,1729421461937.0,0.0
-0.564706,-2.651247,-7.99442,94.290001,30.73,43.189999,1729421461957.0,0.0
-5.852845,-3.48395,-4.118048,93.029999,80.220001,68.389999,1729421461977.0,0.0
-6.728617,-4.756931,-3.713661,21.91,66.5,57.610001,1729421461996.0,0.0
-7.008578,-6.113662,-1.471586,11.34,36.540001,55.369999,1729421462017.0,0.0
-7.257431,-5.371887,-1.564906,10.36,7.14,34.02,1729421462037.0,0.0
-7.058826,-7.226324,-4.886144,-11.41,-17.5,20.51,1729421462057.0,0.0
-6.958328,-10.135997,-5.826523,-45.150002,-18.690001,2.66,1729421462076.0,0.0
-6.063413,-10.487741,-6.056234,-43.470001,-27.23,-25.200001,1729421462096.0,0.0
-5.228317,-8.185846,-4.091727,-39.970001,-29.889999,-53.060001,1729421462116.0,0.0
-4.201797,-7.159326,-7.075576,-27.93,-30.450001,-62.93,1729421462140.0,0.0
-4.335794,-8.300702,-4.601398,-56.0,3.01,-46.619999,1729421462159.0,0.0
-4.15394,-10.774881,-1.641476,-98.349998,14.28,-45.43,1729421462177.0,0.0
-2.993421,-11.136196,-2.423929,-75.110001,-4.27,-48.790001,1729421462197.0,0.0
-1.844866,-9.992428,-4.022335,11.27,-4.2,-38.57,1729421462219.0,0.0
-1.493121,-9.205189,-4.663611,111.160004,9.94,-14.35,1729421462239.0,0.0
-4.022335,-6.71426,-1.399801,145.740005,40.880001,5.39,1729421462261.0,0.0
-6.704689,-7.049256,-1.086342,83.019997,33.670002,20.09,1729421462277.0,0.0
-5.668597,-8.853443,-0.827917,17.57,6.58,14.49,1729421462297.0,0.0
-5.161318,-10.753345,-2.134398,30.030001,-14.56,14.63,1729421462320.0,0.0
-4.089334,-8.46102,-5.867201,17.43,-20.790001,-3.22,1729421462340.0,0.0
-3.29731,-8.62134,-9.956534,62.09,-9.31,9.31,1729421462360.0,0.0
-2.158326,-5.422136,-8.090133,69.93,14.35,34.860001,1729421462377.0,0.0
-3.838088,-5.728417,-5.907879,83.720001,44.73,43.75,1729421462397.0,0.0
-5.161318,-5.235496,-6.23091,67.690002,47.740002,40.810001,1729421462417.0,0.0
-6.317052,-5.446064,-2.395216,76.860001,44.73,35.98,1729421462439.0,0.0
-8.102098,-4.182654,1.237089,45.290001,32.830002,23.870001,1729421462458.0,0.0
-8.437093,-5.309673,-0.87338,4.69,-9.31,6.86,1729421462477.0,0.0
-6.833901,-8.410772,-3.04367,-86.309998,-56.91,-26.74,1729421462500.0,0.0
-5.163712,-9.040084,-3.098706,-104.160004,-63.84,-43.189999,1729421462517.0,0.0
-4.287938,-7.661818,-5.989235,-78.190002,-66.290001,-48.93,1729421462537.0,0.0
-4.113262,-8.295916,-9.994821,-73.849998,-50.259998,-42.77,1729421462559.0,0.0
-3.395415,-9.631111,-7.903493,-92.82,-1.12,-32.900002,1729421462577.0,0.0
-2.651247,-9.355937,-5.953342,-91.07,23.379999,-30.24,1729421462600.0,0.0
-3.259024,-9.229117,-2.981457,-82.18,33.810001,-19.32,1729421462617.0,0.0
-2.103291,-9.042477,-4.68754,-80.709999,35.560001,-20.02,1729421462638.0,0.0
-3.433701,-9.035298,-1.861616,-45.709999,33.529999,-13.51,1729421462658.0,0.0
-6.642475,-8.69791,1.167697,-28.77,30.309999,-9.66,1729421462677.0,0.0
-7.312466,-8.652447,0.947558,-12.18,2.52,-5.25,1729421462699.0,0.0
-5.821737,-9.329616,-1.732404,18.9,-21.49,-1.54,1729421462718.0,0.0
-5.343173,-8.102098,-2.22054,39.689999,-25.200001,3.01,1729421462739.0,0.0
-6.278766,-7.21436,-3.625126,46.27,-23.17,18.83,1729421462758.0,0.0
-4.962714,-9.633504,-6.326623,32.759998,-29.68,20.719999,1729421462779.0,0.0
-2.445465,-9.576077,-8.578269,47.670002,-24.639999,14.21,1729421462798.0,0.0
-2.656033,-8.499306,-7.838887,97.300003,-0.07,16.73,1729421462817.0,0.0
-2.306681,-5.47717,-7.76471,82.32,18.48,17.710001,1729421462838.0,0.0
-2.804388,-4.479364,-7.262216,77.629997,31.08,32.830002,1729421462858.0,0.0
-4.527221,-5.17089,-3.440879,57.119999,50.330002,30.870001,1729421462878.0,0.0
-6.963113,-4.795217,0.595813,35.98,47.599998,27.299999,1729421462897.0,0.0
-8.269595,-4.197011,0.062213,-5.04,8.68,21.0,1729421462919.0,0.0
-7.9346,-5.982057,-3.37388,-81.900002,-26.110001,4.2,1729421462937.0,0.0
-6.410372,-8.932407,-4.436293,-129.710007,-35.560001,-11.83,1729421462958.0,0.0
-5.307281,-9.461221,-5.503492,-116.690002,-36.119999,-20.719999,1729421462977.0,0.0
-4.713861,-9.135797,-7.405786,-107.449997,-31.01,-32.759998,1729421462997.0,0.0
-3.658626,-9.616754,-9.276974,-76.160004,-16.450001,-40.110001,1729421463018.0,0.0
-3.175276,-9.159724,-8.65484,-43.959999,5.46,-44.170002,1729421463038.0,0.0
-3.443272,-8.638089,-6.762117,-39.34,33.810001,-43.400002,1729421463057.0,0.0
-3.031706,-9.994821,-2.249253,-51.029999,49.91,-36.75,1729421463076.0,0.0
-2.404787,-8.46102,-1.655833,-41.509998,34.369999,-34.09,1729421463097.0,0.0
-3.775874,-7.776673,-1.361516,-26.32,31.710001,-24.290001,1729421463118.0,0.0
-7.051648,-9.150154,1.914258,-31.85,18.690001,-15.4,1729421463137.0,0.0
-7.104291,-9.131011,0.641276,14.49,-11.34,-12.32,1729421463159.0,0.0
-5.745167,-7.82453,-1.526621,37.73,-53.900002,-5.11,1729421463178.0,0.0
-6.185446,-9.123833,-5.036892,34.02,-51.869999,8.05,1729421463199.0,0.0
-4.311867,-11.964113,-9.820145,16.17,-44.66,7.28,1729421463218.0,0.0
-0.765703,-9.578469,-11.021341,34.09,-30.59,3.43,1729421463237.0,0.0
-0.287139,-5.312066,-10.061819,123.480003,-10.78,32.200001,1729421463260.0,0.0
-2.409572,-4.421937,-5.864808,156.940002,20.51,47.25,1729421463278.0,0.0
-4.469792,-5.809773,-6.233303,146.229996,44.170002,24.290001,1729421463297.0,0.0
-5.28096,-4.878965,-4.115655,83.300003,37.59,15.4,1729421463317.0,0.0
-7.008578,-5.015356,-0.591027,14.63,33.389999,12.88,1729421463337.0,0.0
-8.073383,-5.316852,0.270389,-25.76,2.38,3.15,1729421463360.0,0.0
-7.616355,-6.805188,-1.935793,-78.82,-34.299999,-16.799999,1729421463377.0,0.0
-5.656632,-8.752945,-5.259424,-113.400002,-54.599998,-39.34,1729421463399.0,0.0
-4.106083,-8.559127,-8.453842,-115.290001,-49.560001,-52.080002,1729421463417.0,0.0
-2.682354,-8.221739,-9.032906,-87.849998,-24.15,-57.68,1729421463437.0,0.0
-2.129612,-8.152347,-7.812566,-63.98,0.35,-48.02,1729421463458.0,0.0
-2.206182,-9.131011,-2.191825,-58.73,16.870001,-42.07,1729421463477.0,0.0
-3.67059,-9.205189,-2.897708,-59.360001,18.41,-42.490002,1729421463498.0,0.0
-3.976871,-6.446264,-3.15374,-61.459999,14.42,-36.049999,1729421463516.0,0.0
-4.776074,-8.772088,-1.124627,-60.619999,11.2,-12.81,1729421463538.0,0.0
-5.740381,-9.946963,-0.588634,-5.95,0.77,-2.1,1729421463558.0,0.0
-5.268995,-7.479963,-2.402394,37.869999,-15.190001,0.07,1729421463578.0,0.0
-4.73061,-7.9011,-2.091327,52.57,-18.129999,16.73,1729421463596.0,0.0
-5.67099,-10.265208,-2.079363,43.959999,-17.99,27.09,1729421463682.0,0.0
-4.520042,-11.279767,-7.587641,35.700001,-33.880001,9.87,1729421463685.0,0.0
-2.498107,-9.178867,-9.647861,35.139999,-18.48,1.26,1729421463685.0,0.0
-1.995614,-5.563312,-9.025726,71.330002,3.5,22.4,1729421463686.0,0.0
-2.175076,-4.998606,-7.532606,119.139999,16.379999,44.73,1729421463696.0,0.0
-3.9673,-6.369694,-3.826123,141.190002,35.91,49.700001,1729421463717.0,0.0
-5.962914,-4.878965,-3.050849,109.690002,38.779999,34.790001,1729421463737.0,0.0
-5.309673,-5.632704,-3.517449,39.34,16.52,12.67,1729421463768.0,0.0
-5.761917,-5.539384,-2.227718,-0.84,3.64,13.02,1729421463776.0,0.0
-6.754939,-5.699703,-2.443072,-42.700001,-4.13,-1.75,1729421463796.0,0.0
-5.675776,-8.4347,-4.362115,-71.82,-23.030001,-11.76,1729421463817.0,0.0
-5.005785,-8.530413,-5.501099,-79.730003,-34.09,-24.710001,1729421463837.0,0.0
-4.436293,-8.702696,-8.032705,-88.480003,-28.07,-40.599998,1729421463857.0,0.0
-2.981457,-9.439686,-6.735795,-86.590004,-15.26,-38.360001,1729421463877.0,0.0
-1.674976,-9.734003,-7.099504,-77.629997,-4.48,-35.490002,1729421463896.0,0.0
-2.129612,-9.98525,-5.623133,-66.080002,25.690001,-32.41,1729421463916.0,0.0
-2.773281,-9.028119,-4.905287,-47.599998,38.080002,-30.73,1729421463937.0,0.0
-4.010371,-9.530612,-1.935793,-35.98,46.200001,-22.4,1729421463957.0,0.0
-4.505685,-10.317852,2.033899,-11.62,25.620001,-15.82,1729421463976.0,0.0
-5.087141,-9.243474,2.495714,17.57,-7.77,-17.99,1729421463997.0,0.0
-6.15434,-7.795816,-1.045663,49.349998,-39.830002,-15.12,1729421464016.0,0.0
-6.539584,-8.700303,-4.608576,45.290001,-45.990002,-12.74,1729421464037.0,0.0
-6.276374,-9.399008,-4.941179,20.860001,-29.26,-7.42,1729421464060.0,0.0
-4.228118,-7.683353,-4.867002,10.43,-31.710001,-11.55,1729421464075.0,0.0
-2.900101,-8.066205,-8.204988,16.24,-36.610001,-7.84,1729421464096.0,0.0
-2.694318,-7.255038,-9.54497,30.030001,-13.79,-2.94,1729421464116.0,0.0
-2.464607,-6.800402,-8.283953,115.080002,7.21,10.5,1729421464136.0,0.0
-3.617948,-2.309074,-4.182654,122.989998,28.700001,26.950001,1729421464157.0,0.0
-6.51087,-4.819145,-2.282753,7.84,41.299999,41.580002,1729421464176.0,0.0
-6.484549,-8.30788,-3.493521,-42.209999,7.49,20.51,1729421464198.0,0.0
-4.816752,-8.908479,-3.871587,-30.59,-11.41,-2.73,1729421464216.0,0.0
-4.986642,-7.180861,-3.89073,-15.26,-5.46,-8.05,1729421464239.0,0.0
-5.225924,-8.02792,-4.005585,-54.040001,-5.11,-10.43,1729421464268.0,0.0
-4.45065,-9.176475,-4.785645,-87.43,-14.28,-17.290001,1729421464279.0,0.0
-4.402793,-9.485149,-4.532006,-80.5,-14.21,-26.389999,1729421464299.0,0.0
-3.87398,-8.961121,-4.409972,-65.730003,-20.370001,-36.889999,1729421464317.0,0.0
-3.041277,-8.451449,-5.486742,-59.709999,-27.65,-42.560001,1729421464337.0,0.0
-2.476572,-8.508877,-7.092326,-68.25,-20.370001,-49.139999,1729421464357.0,0.0
-2.385644,-8.362915,-7.113862,-62.510002,-6.72,-47.040001,1729421464377.0,0.0
-2.979064,-8.853443,-4.405186,-40.389999,14.56,-39.060001,1729421464397.0,0.0
-2.242075,-8.355737,-2.723032,-14.77,11.62,-26.67,1729421464418.0,0.0
-2.402394,-7.355537,-3.835695,-0.77,2.94,-14.0,1729421464438.0,0.0
-4.06062,-8.173882,-3.333202,-1.96,8.19,-4.41,1729421464457.0,0.0
-5.067998,-8.836694,-2.727818,-1.61,2.17,0.14,1729421464478.0,0.0
-6.314659,-8.62134,-2.021935,11.34,-6.72,-1.54,1729421464497.0,0.0
-6.56112,-8.738588,-3.785445,24.710001,-14.14,-1.82,1729421464518.0,0.0
-4.716253,-8.726624,-6.343372,29.610001,-23.379999,-3.01,1729421464537.0,0.0
-3.24706,-8.657232,-7.377072,53.900002,-17.360001,0.91,1729421464557.0,0.0
-2.955136,-8.130811,-9.769895,91.0,-3.71,11.34,1729421464578.0,0.0
-1.921437,-8.413164,-9.135797,169.399994,4.13,19.530001,1729421464598.0,0.0
-1.820938,-5.67099,-5.974878,210.0,35.209999,26.32,1729421464616.0,0.0
-3.337988,-3.835695,-2.28036,216.440002,55.439999,30.870001,1729421464636.0,0.0
-5.187639,-5.596812,-0.607777,175.419998,48.720001,31.01,1729421464657.0,0.0
-5.553742,-6.884151,-0.461815,94.080002,24.57,18.969999,1729421464677.0,0.0
-5.12782,-7.829315,-1.378266,53.130001,-6.09,13.86,1729421464695.0,0.0
-4.400401,-7.99442,-2.809174,45.220001,-23.030001,7.42,1729421464718.0,0.0
-4.285545,-8.73141,-2.840281,61.389999,-15.82,8.54,1729421464736.0,0.0
-4.381258,-9.164511,-2.285146,79.590004,-1.4,9.31,1729421464760.0,0.0
-4.352544,-9.221939,-2.344966,123.480003,1.26,10.08,1729421464777.0,0.0
-4.48415,-9.303294,-2.268396,170.869995,4.55,13.86,1729421464796.0,0.0
-4.508078,-8.477771,-2.349752,193.759995,18.76,13.86,1729421464816.0,0.0
-4.931608,-9.119047,0.028714,209.649994,38.57,16.870001,1729421464836.0,0.0
-5.173282,-8.657232,1.787439,211.330002,43.959999,16.52,1729421464857.0,0.0
-5.594419,-7.865208,2.579463,214.479996,38.220001,15.12,1729421464877.0,0.0
-5.556134,-9.741181,2.775674,234.430008,35.349998,8.33,1729421464896.0,0.0
-5.469993,-10.143176,3.706482,256.690002,35.91,4.41,1729421464916.0,0.0
-5.405386,-9.099905,3.869194,290.920013,34.23,-6.37,1729421464938.0,0.0
-4.831109,-8.492127,2.009971,308.48999,33.18,-17.15,1729421464957.0,0.0
-4.541577,-8.561519,4.23051,338.029999,56.139999,-25.969999,1729421464976.0,0.0
-4.962714,-5.056034,6.013163,332.779999,66.57,-49.209999,1729421464997.0,0.0
-5.067998,-2.136791,8.149954,236.180008,55.93,-53.48,1729421465016.0,0.0
-5.338387,-3.59402,7.908278,110.739998,38.150002,-46.830002,1729421465037.0,0.0
-5.123034,-6.506085,7.491928,31.290001,23.799999,-45.220001,1729421465063.0,0.0
-5.343173,-6.417551,7.293324,23.17,11.97,-50.330002,1729421465076.0,0.0
-4.61097,-4.522435,7.690532,47.040001,6.37,-49.91,1729421465096.0,0.0
-4.24726,-3.050849,8.197811,31.710001,3.78,-43.330002,1729421465117.0,0.0
-4.299902,-2.883351,7.685746,7.63,-5.25,-29.68,1729421465136.0,0.0
-4.199404,-2.143969,7.56132,5.11,-11.06,-19.879999,1729421465158.0,0.0
-3.220739,-3.192025,7.37468,-11.76,-14.0,-4.27,1729421465176.0,0.0
-2.440679,-3.208775,7.372287,-6.09,-9.24,5.53,1729421465196.0,0.0
-2.526821,-4.398008,7.489535,-4.55,-4.06,14.21,1729421465216.0,0.0
-3.024528,-5.041678,6.805188,3.08,-2.52,16.52,1729421465237.0,0.0
-3.180061,-4.421937,6.486942,17.85,2.17,17.92,1729421465259.0,0.0
-3.433701,-3.211168,6.417551,28.700001,9.87,24.01,1729421465277.0,0.0
-3.407379,-3.455236,6.759724,21.91,15.26,36.68,1729421465295.0,0.0
-7.467999,-7.60439,5.139783,-4.48,20.370001,49.77,1729421465316.0,0.0
-8.025528,-10.303494,6.608976,14.0,22.4,32.130001,1729421465336.0,0.0
-7.649854,-8.913264,7.963314,52.290001,15.05,1.19,1729421465357.0,0.0
-6.982256,-6.362515,7.436893,53.619999,-1.68,-14.0,1729421465376.0,0.0
-6.525227,-6.295516,6.257231,22.68,-12.32,-26.110001,1729421465395.0,0.0
-7.01097,-6.778866,5.79781,27.51,-12.53,-39.130001,1729421465416.0,0.0
-6.168696,-4.493721,5.804988,48.23,-11.55,-51.099998,1729421465438.0,0.0
-6.960721,-3.493521,5.596812,29.75,-10.36,-52.639999,1729421465456.0,0.0
-6.644868,-3.314059,6.252446,-0.98,-10.92,-50.259998,1729421465476.0,0.0
-4.271189,-2.617748,6.616155,-6.79,-13.58,-49.420002,1729421465495.0,0.0
-2.969493,-1.971686,6.73101,-17.08,-9.31,-36.400002,1729421465515.0,0.0
-2.411965,-1.933401,6.659225,-25.059999,-3.71,-17.290001,1729421465537.0,0.0
-2.76371,-2.227718,6.932007,-22.889999,1.12,1.96,1729421465558.0,0.0
-2.845066,-2.632105,7.006185,-15.68,3.5,14.98,1729421465575.0,0.0
-2.59382,-1.761117,7.331609,-10.36,6.3,26.809999,1729421465596.0,0.0
-2.194218,-1.639083,6.850651,-16.73,8.89,43.82,1729421465617.0,0.0
-3.625126,-2.78046,5.242674,-36.400002,17.290001,62.510002,1729421465637.0,0.0
-5.230711,-4.488935,4.496114,-33.880001,27.58,76.860001,1729421465657.0,0.0
-10.566705,-11.889936,4.788038,-34.369999,34.790001,70.07,1729421465676.0,0.0
-10.193424,-12.27518,6.338587,8.54,30.52,26.25,1729421465695.0,0.0
-6.312266,-9.343972,9.657433,62.860001,16.73,-14.42,1729421465718.0,0.0
-8.059027,-8.504091,10.159925,41.299999,-2.73,-26.67,1729421465736.0,0.0
-7.161718,-6.293124,7.838887,-4.34,-30.52,-50.470001,1729421465768.0,0.0
-5.233103,-5.175675,5.726025,-17.5,-38.080002,-58.73,1729421465777.0,0.0
-6.783652,-7.15454,4.780859,-26.18,-30.309999,-67.059998,1729421465796.0,0.0
-5.491528,-5.85763,6.195018,0.98,-20.02,-81.129997,1729421465815.0,0.0
-1.866402,0.198604,7.779066,35.490002,-10.22,-84.349998,1729421465836.0,0.0
-0.653241,1.574477,7.396214,-7.84,-3.64,-44.450001,1729421465857.0,0.0
-0.411566,0.442672,6.692725,-38.57,-1.12,-7.77,1729421465877.0,0.0
-1.395016,-2.488536,6.223732,-42.490002,5.74,22.120001,1729421465897.0,0.0
-3.163311,-5.766702,5.659025,-26.67,14.28,38.150002,1729421465915.0,0.0
-3.158526,-4.185047,6.252446,17.57,22.82,41.16,1729421465937.0,0.0
-3.024528,-2.67039,6.410372,37.73,28.49,50.119999,1729421465957.0,0.0
-4.898108,-2.691926,6.666404,22.960001,35.139999,65.099998,1729421465978.0,0.0
-5.711668,-3.409772,5.642276,4.69,37.869999,75.879997,1729421465997.0,0.0
-6.982256,-6.929615,7.221539,6.72,43.540001,86.730003,1729421466018.0,0.0
-14.833108,-16.400406,8.956335,-2.73,39.200001,63.209999,1729421466036.0,0.0
-10.425529,-11.870793,7.664211,28.77,3.57,-19.530001,1729421466056.0,0.0
-5.355137,-5.831308,7.133004,70.0,-15.61,-58.380001,1729421466074.0,0.0
-6.580262,-3.677768,6.06102,44.450001,-16.309999,-58.799999,1729421466096.0,0.0
-6.116055,-4.893322,5.453243,11.13,-21.84,-58.869999,1729421466117.0,0.0
-5.615955,-6.599405,5.769095,1.61,-18.059999,-74.690002,1729421466135.0,0.0
-4.304688,-4.388437,7.82453,30.17,-11.62,-89.669998,1729421466156.0,0.0
-1.356731,0.375673,8.463413,33.950001,-11.9,-81.410004,1729421466177.0,0.0
-0.468993,0.435494,7.379465,-31.5,-14.91,-35.209999,1729421466195.0,0.0
-0.464208,-0.205783,6.037091,-45.639999,-10.29,-0.07,1729421466216.0,0.0
-1.837688,-1.789831,5.185246,-36.889999,1.68,27.440001,1729421466235.0,0.0
-3.371487,-1.397408,5.201996,-7.49,16.379999,46.900002,1729421466255.0,0.0
-3.907479,-1.600798,6.259624,13.37,26.6,65.870003,1729421466277.0,0.0
-5.924629,-3.232704,6.417551,-3.5,33.740002,80.080002,1729421466296.0,0.0
-7.111469,-4.187439,6.58744,-16.24,35.91,96.459999,1729421466315.0,0.0
-11.38505,-14.912071,8.403593,-35.98,31.639999,79.940002,1729421466336.0,0.0
-12.358929,-16.493725,7.372287,-28.49,11.69,-0.49,1729421466357.0,0.0
-6.912865,-9.343972,8.449057,88.550003,-13.58,-56.77,1729421466375.0,0.0
-6.833901,-4.895715,8.293523,88.900002,-17.639999,-77.07,1729421466396.0,0.0
-5.460421,-3.728018,7.628319,42.07,-31.15,-71.260002,1729421466415.0,0.0
-5.702096,-7.640282,5.970093,-15.05,-36.330002,-75.949997,1729421466436.0,0.0
-4.589434,-7.039684,5.828916,2.38,-32.689999,-93.449997,1729421466457.0,0.0
-2.89053,-2.57707,6.85783,48.09,-25.34,-96.459999,1729421466475.0,0.0
-0.658026,2.443072,5.831308,40.599998,-17.219999,-77.209999,1729421466497.0,0.0
-0.023928,2.088934,6.001199,-14.7,0.56,-19.110001,1729421466515.0,0.0
-1.689333,-0.48335,5.661418,-26.67,10.92,21.77,1729421466534.0,0.0
-3.20399,-1.117448,5.367101,-12.04,20.02,50.959999,1729421466556.0,0.0
-3.531806,-1.785046,5.924629,1.33,27.93,74.340004,1729421466577.0,0.0
-5.828916,-4.599005,6.415157,-18.620001,37.939999,87.360001,1729421466595.0,0.0
-7.673782,-5.864808,5.982057,-28.42,40.880001,87.010002,1729421466615.0,0.0
-10.595419,-14.955141,8.84148,-24.92,39.130001,74.760002,1729421466638.0,0.0
-13.69891,-17.309679,7.984849,-21.629999,19.25,-1.05,1729421466656.0,0.0
-6.999006,-8.784052,8.757731,87.220001,-13.09,-61.32,1729421466676.0,0.0
-5.422136,-3.869194,8.329416,78.050003,-10.71,-84.559998,1729421466695.0,0.0
-4.728218,-3.665804,7.783852,23.799999,-7.35,-83.230003,1729421466715.0,0.0
-5.62074,-7.331609,6.668797,-19.950001,-1.82,-90.720001,1729421466738.0,0.0
-4.139583,-5.237889,7.63789,31.290001,-3.64,-106.540001,1729421466759.0,0.0
-2.696711,-0.253639,8.898908,101.57,-10.99,-92.330002,1729421466776.0,0.0
-0.803988,4.041477,7.99442,80.290001,-16.17,-66.779999,1729421466795.0,0.0
1.107877,5.733203,5.252246,1.89,-18.620001,-17.780001,1729421466816.0,0.0
-3.048456,-1.445265,3.4672,-62.650002,5.11,37.029999,1729421466836.0,0.0
-4.048656,-1.871187,3.519842,-17.290001,29.33,74.059998,1729421466857.0,0.0
-4.905287,-2.749353,4.922036,19.460001,41.860001,88.550003,1729421466878.0,0.0
-7.219146,-3.328416,4.862216,4.48,55.23,96.040001,1729421466895.0,0.0
-9.262616,-11.380265,7.345965,-3.64,54.110001,94.919998,1729421466915.0,0.0
-11.724831,-14.727824,8.690732,-23.030001,40.32,34.509998,1729421466935.0,0.0
-7.444071,-9.186047,10.530812,51.310001,5.18,-11.9,1729421466956.0,0.0
-7.310073,-7.006185,11.913863,63.490002,-7.0,-43.189999,1729421466985.0,0.0
-7.262216,-4.520042,9.257831,14.28,-32.060001,-60.200001,1729421466995.0,0.0
-4.41715,-3.768696,6.51087,-8.05,-42.279999,-62.02,1729421467014.0,0.0
-4.486543,-5.788238,6.005985,-33.599998,-26.32,-71.190002,1729421467037.0,0.0
-4.398008,-4.548756,6.876972,-8.12,-15.33,-85.400002,1729421467056.0,0.0
-2.230111,-0.832702,7.822137,42.420002,-17.5,-77.840004,1729421467075.0,0.0
-0.61017,1.040878,8.817552,40.459999,-13.86,-51.869999,1729421467095.0,0.0
0.098106,3.749553,6.520442,1.47,-17.08,-11.62,1729421467122.0,0.0
-0.339781,1.919044,4.180261,-53.900002,-8.33,43.68,1729421467137.0,0.0
-2.261217,-1.208375,3.084348,-77.349998,17.43,68.110001,1729421467156.0,0.0
-5.036892,-2.718246,4.962714,8.26,49.98,99.190002,1729421467175.0,0.0
-7.166504,-7.389036,7.56132,16.73,64.120003,112.139999,1729421467196.0,0.0
-13.060026,-15.854843,8.353344,-49.0,62.860001,69.090004,1729421467214.0,0.0
-9.415757,-11.327622,8.84148,6.65,21.700001,4.41,1729421467238.0,0.0
-6.168696,-6.719046,12.251251,60.34,2.59,-27.719999,1729421467256.0,0.0
-9.982857,-9.377472,13.009777,1.75,-16.52,-45.360001,1729421467276.0,0.0
-7.070791,-5.687739,8.472985,-29.4,-49.279999,-83.090004,1729421467296.0,0.0
-4.098906,-3.232704,5.067998,-11.83,-47.529999,-85.400002,1729421467315.0,0.0
-3.237489,-3.586841,4.151547,-21.210001,-31.780001,-86.099998,1729421467336.0,0.0
-2.758924,-3.309274,6.719046,21.49,-18.620001,-77.629997,1729421467356.0,0.0
-2.667997,-1.471586,8.413164,72.660004,-15.68,-58.59,1729421467376.0,0.0
-1.665405,3.022135,6.23091,63.279999,-21.280001,-42.77,1729421467397.0,0.0
-0.246461,4.366901,3.917051,4.41,-14.28,4.2,1729421467416.0,0.0
-1.45005,0.514457,3.864408,-61.25,11.48,45.639999,1729421467437.0,0.0
-3.74716,-2.629712,4.158726,-21.77,37.029999,94.709999,1729421467458.0,0.0
-5.888737,-3.979264,5.316852,21.91,51.939999,105.699997,1729421467477.0,0.0
-8.91805,-9.600004,9.796216,25.059999,61.32,109.900002,1729421467497.0,0.0
-16.163517,-15.357137,10.375278,-21.98,46.900002,62.790001,1729421467516.0,0.0
-8.822337,-7.209574,10.650455,56.77,-9.17,-15.96,1729421467538.0,0.0
-5.209175,-2.368894,10.083356,61.670002,-22.33,-50.189999,1729421467558.0,0.0
-6.690332,-5.149354,8.226524,-14.63,-26.6,-44.310001,1729421467576.0,0.0
-7.735995,-6.850651,6.116055,-15.89,-29.190001,-57.540001,1729421467599.0,0.0
-6.221339,-7.255038,5.730811,20.790001,-31.780001,-72.449997,1729421467616.0,0.0
-6.015556,-7.054041,6.396015,36.189999,-27.51,-92.260002,1729421467637.0,0.0
-4.204189,-2.215754,8.185846,62.369999,-25.620001,-95.199997,1729421467658.0,0.0
-0.399601,2.266003,9.578469,47.18,-28.07,-72.519997,1729421467676.0,0.0
1.306481,3.440879,9.296116,-34.369999,-33.599998,-40.880001,1729421467697.0,0.0
0.088534,2.919244,5.486742,-115.639999,-31.780001,10.15,1729421467719.0,0.0
-0.282353,1.550549,3.349952,-132.580002,-20.23,55.580002,1729421467737.0,0.0
-1.048056,-0.011964,3.103491,-92.330002,2.59,89.809998,1729421467770.0,0.0
-6.065805,-2.754139,4.110869,-21.629999,33.040001,135.800003,1729421467777.0,0.0
-9.568897,-11.102697,8.066205,-17.290001,62.23,138.039993,1729421467798.0,0.0
-14.567505,-13.646267,8.350951,-50.82,50.889999,77.489998,1729421467817.0,0.0
-8.920443,-11.251052,8.23131,9.8,3.92,25.34,1729421467841.0,0.0
-5.606383,-8.685946,9.901501,46.48,-7.42,-23.73,1729421467859.0,0.0
-6.446264,-7.869993,9.518648,23.1,-13.51,-36.049999,1729421467877.0,0.0
-5.922236,-6.592227,7.886744,17.360001,-23.940001,-51.59,1729421467899.0,0.0
-4.45065,-6.228518,7.070791,28.559999,-28.210001,-61.950001,1729421467917.0,0.0
-4.565506,-5.56092,6.367301,28.98,-25.549999,-75.040001,1729421467938.0,0.0
-1.98365,-1.643869,6.754939,44.029999,-28.49,-68.25,1729421467957.0,0.0
-0.265603,1.062413,6.924829,15.61,-17.5,-47.529999,1729421467979.0,0.0
-0.789631,1.526621,6.898508,-46.689999,-6.51,-14.7,1729421467997.0,0.0
-0.775275,-0.31346,4.015156,-95.900002,0.21,20.09,1729421468017.0,0.0
-2.069792,-2.632105,3.682554,-73.919998,21.0,52.779999,1729421468038.0,0.0
-3.180061,-2.06022,4.4674,-11.34,39.900002,72.800003,1729421468059.0,0.0
-4.256832,-1.605584,5.711668,32.689999,54.459999,95.690002,1729421468076.0,0.0
-7.176075,-3.826123,7.133004,27.02,62.369999,109.059998,1729421468096.0,0.0
-13.48834,-12.593425,7.211967,-45.5,47.599998,82.040001,1729421468116.0,0.0
-10.79163,-10.116854,8.714661,1.68,16.799999,17.219999,1729421468139.0,0.0
-5.802595,-4.979464,10.394422,52.57,-6.58,-25.27,1729421468157.0,0.0
-8.293523,-6.860222,9.829715,-1.33,-13.16,-38.220001,1729421468178.0,0.0
-8.733803,-7.515855,7.293324,-5.67,-28.630001,-62.369999,1729421468197.0,0.0
-5.525027,-4.146761,5.570491,40.529999,-32.689999,-77.910004,1729421468218.0,0.0
-6.202196,-5.352744,5.426922,17.290001,-23.450001,-80.709999,1729421468238.0,0.0
-5.79063,-4.194618,6.690332,20.65,-19.18,-85.610001,1729421468259.0,0.0
-2.019542,1.052842,6.013163,35.139999,-24.08,-76.230003,1729421468276.0,0.0
1.438086,3.096312,7.623533,0.28,-12.67,-40.25,1729421468296.0,0.0
0.380459,2.203789,5.56092,-63.0,-2.31,5.67,1729421468319.0,0.0
-3.37388,-1.801795,4.65404,-99.889999,15.26,53.619999,1729421468339.0,0.0
-4.249653,-2.663212,4.900501,-68.599998,18.27,73.010002,1729421468360.0,0.0
-4.022335,-1.095913,5.426922,-25.059999,19.530001,95.690002,1729421468378.0,0.0
-5.960521,-1.363909,5.565705,-39.830002,28.700001,117.25,1729421468396.0,0.0
-8.712267,-7.415358,6.9344,-85.75,32.619999,128.869995,1729421468418.0,0.0
-12.851851,-15.41217,5.271388,-136.919998,25.059999,90.580002,1729421468438.0,0.0
-6.795617,-10.502099,7.657032,-2.03,-18.34,-8.68,1729421468460.0,0.0
-8.784052,-9.23151,7.963314,44.450001,-13.86,-37.380001,1729421468476.0,0.0
-9.068797,-7.219146,6.4678,57.189999,-24.85,-59.080002,1729421468498.0,0.0
-7.386643,-6.262017,5.864808,64.610001,-29.540001,-72.940002,1729421468518.0,0.0
-6.999006,-5.972485,6.991827,54.110001,-27.23,-93.660004,1729421468539.0,0.0
-4.656433,-2.548356,7.850852,53.760002,-32.200001,-95.830002,1729421468560.0,0.0
-0.832702,1.947758,7.647461,20.02,-29.960001,-75.529999,1729421468577.0,0.0
2.29711,4.287938,5.565705,-38.990002,-27.440001,-37.170002,1729421468597.0,0.0
0.0335,1.519442,4.790431,-80.5,-4.13,27.09,1729421468673.0,0.0
-3.270989,-1.261017,4.744967,-82.18,12.32,68.459999,1729421468692.0,0.0
-3.830909,-1.804188,4.864608,-33.740002,15.190001,92.68,1729421468706.0,0.0
-5.388636,-2.591427,4.867002,-12.25,28.49,110.459999,1729421468712.0,0.0
-9.341579,-9.623933,7.06122,-35.490002,43.82,126.699997,1729421468712.0,0.0
-15.328422,-13.785051,4.996214,-86.870003,37.310001,77.629997,1729421468716.0,0.0
-8.039884,-12.13161,6.020342,-8.19,-7.14,14.63,1729421468738.0,0.0
-6.216553,-8.920443,7.135397,30.66,-9.1,-19.32,1729421468757.0,0.0
-8.118847,-6.580262,6.51087,16.379999,-15.26,-36.889999,1729421468776.0,0.0
-7.429714,-6.953543,6.343372,1.82,-33.110001,-59.080002,1729421468796.0,0.0
-7.518249,-9.142976,6.664011,-18.83,-42.209999,-82.25,1729421468817.0,0.0
-5.295317,-7.046863,6.460621,8.68,-49.209999,-98.349998,1729421468837.0,0.0
-2.232504,-1.421337,5.455636,26.74,-41.02,-92.540001,1729421468857.0,0.0
1.734797,4.424329,4.421937,13.440001,-23.66,-67.550003,1729421468877.0,0.0
1.971686,4.455436,5.627919,-18.969999,5.88,-5.88,1729421468896.0,0.0
-2.28036,-0.454636,5.35753,-53.970001,22.33,51.869999,1729421468917.0,0.0
-3.921836,-1.617548,5.431707,-13.09,25.41,86.660004,1729421468937.0,0.0
-3.850052,-1.90708,5.845665,20.790001,30.73,110.110001,1729421468957.0,0.0
-6.470192,-4.108476,5.886343,3.78,47.110001,130.550003,1729421468977.0,0.0
-13.158132,-17.307287,4.816752,-32.549999,52.709999,127.190002,1729421468996.0,0.0
-16.433905,-17.546568,6.326623,-10.71,43.049999,32.130001,1729421469016.0,0.0
-5.489135,-7.310073,8.073383,94.989998,-10.64,-23.940001,1729421469037.0,0.0
-6.494121,-3.464807,8.408379,65.449997,-2.73,-37.52,1729421469059.0,0.0
-7.958528,-5.558527,6.836295,8.47,-15.54,-43.82,1729421469077.0,0.0
-7.338787,-7.99442,4.237689,12.39,-23.379999,-65.239998,1729421469096.0,0.0
-6.948757,-7.042077,6.364908,74.410004,-18.059999,-86.519997,1729421469116.0,0.0
-6.063413,-2.864209,9.133404,134.680008,-12.6,-102.550003,1729421469136.0,0.0
-3.385844,0.62692,9.183653,83.230003,-29.120001,-93.029999,1729421469165.0,0.0
-1.428515,3.287738,7.692925,-6.44,-40.110001,-62.860001,1729421469176.0,0.0
-0.442672,3.644269,4.575077,-89.459999,-40.110001,-13.51,1729421469195.0,0.0
-1.189233,1.258625,2.734996,-117.739998,-22.610001,38.360001,1729421469217.0,0.0
-2.600998,-1.311267,3.48395,-74.340004,2.8,77.489998,1729421469236.0,0.0
-3.675375,-1.904687,4.646862,-11.48,19.950001,103.739998,1729421469257.0,0.0
-5.548956,-2.323431,4.388437,2.52,35.420002,121.870003,1729421469276.0,0.0
-9.827322,-12.940384,5.644669,-25.129999,48.299999,129.430008,1729421469296.0,0.0
-16.689938,-17.477177,6.635297,-56.209999,50.75,59.010002,1729421469342.0,0.0
-6.843473,-9.293723,8.79123,62.369999,-3.71,-7.84,1729421469358.0,0.0
-5.350351,-5.869594,9.686146,70.910004,-4.41,-24.57,1729421469365.0,0.0
-8.26481,-8.216952,8.427521,31.15,-16.799999,-42.139999,1729421469379.0,0.0
-7.601997,-6.405586,6.271588,42.279999,-29.540001,-72.730003,1729421469477.0,0.0
-6.216553,-6.711867,6.161518,57.68,-32.130001,-88.340004,1729421469478.0,0.0
-6.388836,-5.352744,7.4345,60.760002,-20.790001,-106.540001,1729421469479.0,0.0
-3.407379,-0.820738,7.506285,65.379997,-26.389999,-107.590004,1729421469480.0,0.0
-0.727418,4.012764,6.929615,21.98,-28.139999,-84.0,1729421469481.0,0.0
0.349352,5.661418,4.871787,-42.420002,-22.33,-28.630001,1729421469495.0,0.0
-1.837688,2.222932,3.524628,-97.300003,-1.4,30.66,1729421469516.0,0.0
-3.345166,-0.165105,3.876373,-79.660004,16.59,65.309998,1729421469536.0,0.0
-3.507878,-0.133998,5.548956,6.65,29.049999,99.120003,1729421469557.0,0.0
-6.262017,1.820938,6.063413,17.57,43.75,121.309998,1729421469577.0,0.0
-8.085347,-5.300103,7.207181,-15.96,48.720001,153.020004,1729421469596.0,0.0
-14.380865,-12.894921,4.48415,-117.669998,55.650002,115.010002,1729421469617.0,0.0
-9.387043,-10.090532,6.168696,-62.16,17.92,52.57,1729421469637.0,0.0
-5.462814,-5.85763,7.980063,32.549999,10.57,51.59,1729421469658.0,0.0
-7.274181,-2.842674,9.473185,14.14,14.77,41.720001,1729421469677.0,0.0
-7.415358,-3.165704,9.609575,-53.060001,-3.71,36.889999,1729421469697.0,0.0
-6.362515,-4.098906,8.173882,-122.849998,-24.15,31.290001,1729421469717.0,0.0
-6.508478,-3.062813,7.716853,-172.759995,-45.639999,23.17,1729421469737.0,0.0
-6.963113,-2.40718,6.427122,-204.889999,-55.720001,28.139999,1729421469758.0,0.0
-6.932007,-2.28036,6.678369,-248.919998,-62.439999,27.23,1729421469776.0,0.0
-6.728617,-1.083949,5.843273,-309.75,-75.110001,40.389999,1729421469796.0,0.0
-6.89133,-1.835295,4.211368,-391.089996,-90.580002,60.200001,1729421469817.0,0.0
-7.685746,-6.039484,-0.227318,-454.369995,-108.919998,60.900002,1729421469837.0,0.0
-7.357929,-14.074582,-3.960121,-419.51001,-120.400002,43.610001,1729421469858.0,0.0
-5.807381,-18.63291,-4.063013,-285.950012,-100.239998,13.37,1729421469880.0,0.0
-5.084748,-15.120246,-2.009971,-83.580002,-69.230003,-28.49,1729421469896.0,0.0
-4.718646,-10.152746,0.569492,39.619999,-36.610001,-54.040001,1729421469916.0,0.0
-4.615755,-8.348558,2.199004,57.889999,-7.07,-63.420002,1729421469937.0,0.0
-4.127619,-8.283953,1.816152,4.69,-5.74,-63.420002,1729421469958.0,0.0
-3.005385,-7.506285,-0.370888,-64.400002,-8.47,-63.0,1729421469976.0,0.0
-2.328217,-7.144968,-1.861616,-89.529999,7.28,-60.060001,1729421469997.0,0.0
-2.498107,-9.044869,-1.217947,-56.700001,27.65,-43.540001,1729421470017.0,0.0
-2.411965,-8.685946,0.81356,20.65,45.5,-23.379999,1729421470037.0,0.0
-2.624927,-5.355137,2.28036,145.809998,38.849998,-23.379999,1729421470060.0,0.0
-4.007978,-3.471986,4.031906,193.059998,39.060001,17.85,1729421470076.0,0.0
-5.974878,-3.091527,5.113462,113.120003,33.810001,30.52,1729421470096.0,0.0
-7.441679,-5.149354,5.087141,17.780001,13.16,37.59,1729421470117.0,0.0
-7.216753,-7.439285,4.177868,-60.619999,-7.63,31.01,1729421470136.0,0.0
-6.726225,-9.269794,2.641676,-95.269997,-19.18,18.200001,1729421470157.0,0.0
-7.070791,-10.372886,1.328017,-83.160004,-10.43,4.69,1729421470177.0,0.0
-6.958328,-10.346564,0.023928,-38.709999,0.28,-9.8,1729421470196.0,0.0
-7.441679,-10.829915,-0.311067,11.2,18.34,-24.15,1729421470216.0,0.0
-8.788837,-12.160326,0.320638,37.310001,36.68,-49.560001,1729421470237.0,0.0
-9.439686,-11.653046,0.349352,33.950001,43.889999,-83.720001,1729421470258.0,0.0
-8.188239,-9.01137,0.043071,15.4,41.790001,-108.220001,1729421470276.0,0.0
-6.183054,-8.243275,0.320638,-14.14,44.799999,-117.669998,1729421470296.0,0.0
-2.651247,-6.759724,2.292324,12.74,46.619999,-119.139999,1729421470316.0,0.0
-0.672383,-6.664011,4.783253,104.580002,47.18,-94.639999,1729421470336.0,0.0
-1.418944,-0.394816,9.329616,150.710007,45.220001,-67.830002,1729421470358.0,0.0
-0.677169,1.785046,9.35833,75.459999,19.18,-25.059999,1729421470377.0,0.0
1.423729,-3.704089,6.07777,-122.290001,-22.610001,25.200001,1729421470398.0,0.0
-0.021535,-8.812766,3.625126,-163.029999,-26.74,54.670002,1729421470417.0,0.0
-2.026721,-11.552547,2.289931,-138.809998,-28.559999,73.010002,1729421470437.0,0.0
-2.397608,-10.992627,0.765703,-70.279999,-32.48,75.25,1729421470457.0,0.0
-2.562713,-9.501899,-0.442672,14.07,-38.150002,78.82,1729421470477.0,0.0
-5.20439,-9.312866,0.538385,68.389999,-29.540001,87.150002,1729421470496.0,0.0
-8.843873,-9.549755,1.37348,60.970001,-14.0,79.169998,1729421470517.0,0.0
-11.114661,-11.157731,0.191426,3.57,-5.53,49.91,1729421470538.0,0.0
-10.992627,-14.153545,-1.911865,-41.299999,2.66,9.24,1729421470558.0,0.0
-10.07139,-14.947963,-2.055435,-16.17,21.559999,-38.5,1729421470577.0,0.0
-9.23151,-12.358929,0.16989,43.610001,36.68,-80.849998,1729421470599.0,0.0
-8.472985,-8.319844,0.586242,36.119999,44.099998,-109.900002,1729421470617.0,0.0
-6.175875,-6.833901,-1.141376,-15.68,39.549999,-111.790001,1729421470639.0,0.0
-2.524428,-6.362515,0.385244,-20.65,47.599998,-110.529999,1729421470659.0,0.0
-0.583849,-5.149354,7.166504,69.720001,69.720001,-88.340004,1729421470677.0,0.0
-0.708275,1.447658,11.227123,120.610001,47.950001,-58.170002,1729421470697.0,0.0
-1.107877,0.66999,9.547362,20.719999,11.9,-10.01,1729421470717.0,0.0
1.543371,-7.32443,5.084748,-142.729996,-51.66,31.43,1729421470737.0,0.0
0.921237,-11.174481,2.29711,-135.729996,-56.420002,61.810001,1729421470759.0,0.0
-0.021535,-10.789237,0.835095,-83.160004,-51.029999,73.919998,1729421470777.0,0.0
-2.007578,-9.288938,0.27996,-26.460001,-53.549999,84.139999,1729421470796.0,0.0
-5.869594,-8.465806,0.545564,2.66,-55.299999,97.510002,1729421470817.0,0.0
-9.188439,-8.853443,-0.256032,-21.210001,-52.57,94.919998,1729421470838.0,0.0
-11.109876,-11.219944,-2.656033,-91.07,-38.220001,65.449997,1729421470858.0,0.0
-10.875379,-14.883357,-6.281159,-112.0,-23.52,15.89,1729421470876.0,0.0
-9.958927,-15.20878,-6.659225,-42.91,15.47,-36.400002,1729421470897.0,0.0
-8.764909,-12.143576,-2.713461,50.75,56.0,-74.550003,1729421470917.0,0.0
-7.872386,-7.712067,0.588634,44.939999,85.330002,-99.120003,1729421470937.0,0.0
-5.816952,-6.317052,1.823331,-28.559999,82.18,-100.169998,1729421470962.0,0.0
-3.151347,-6.443871,2.849852,-52.990002,73.080002,-88.550003,1729421470977.0,0.0
0.954736,-5.783452,8.894121,5.53,62.790001,-68.25,1729421470997.0,0.0
2.28036,-4.831109,10.135997,72.590004,21.0,-30.17,1729421471017.0,0.0
-0.696311,-2.876173,8.556733,-12.67,-4.9,10.08,1729421471037.0,0.0
3.804588,-9.265009,-0.734596,-121.520004,-64.889999,31.360001,1729421471059.0,0.0
1.531406,-12.323036,-3.302095,-111.020004,-61.110001,56.77,1729421471077.0,0.0
-2.132005,-10.765309,-3.553342,-25.200001,-37.66,69.440002,1729421471096.0,0.0
-4.089334,-8.688338,-2.289931,75.389999,-30.870001,79.870003,1729421471117.0,0.0
-6.84108,-7.757531,0.107677,125.090004,-29.469999,92.260002,1729421471138.0,0.0
-10.691131,-9.075976,-0.014357,66.919998,-19.389999,84.0,1729421471162.0,0.0
-11.461621,-11.801401,-2.964707,-32.549999,-14.07,40.670002,1729421471179.0,0.0
-9.84168,-14.155938,-4.790431,-48.860001,5.04,-8.26,1729421471204.0,0.0
-9.963714,-14.644074,-3.158526,13.51,44.66,-43.959999,1729421471217.0,0.0
-10.892128,-11.794223,-0.679562,60.619999,75.529999,-80.57,1729421471238.0,0.0
-8.097312,-6.726225,-0.61017,31.710001,81.480003,-104.090004,1729421471260.0,0.0
-4.407579,-5.869594,0.736989,-24.57,79.660004,-112.770004,1729421471277.0,0.0
1.514657,-7.276574,7.944171,2.94,70.419998,-93.660004,1729421471296.0,0.0
3.59402,-1.691726,11.655439,135.940002,26.809999,-58.240002,1729421471319.0,0.0
-0.445065,1.426122,10.07139,52.43,-3.01,12.46,1729421471339.0,0.0
1.088734,-5.47717,1.775474,-131.600006,-60.200001,36.470001,1729421471359.0,0.0
-1.038485,-12.935599,-2.878566,-136.5,-56.420002,55.16,1729421471378.0,0.0
-3.766303,-10.741381,-2.9671,-28.280001,-46.060001,65.379997,1729421471397.0,0.0
-4.110869,-8.025528,-2.89053,61.459999,-51.66,75.25,1729421471417.0,0.0
-5.852845,-8.444271,-0.854238,109.830002,-49.07,87.290001,1729421471438.0,0.0
-9.798609,-8.298308,-0.236889,82.110001,-23.59,86.309998,1729421471472.0,0.0
-12.366108,-11.131411,-3.562913,-21.98,-6.72,57.330002,1729421471478.0,0.0
-11.743973,-17.271393,-6.01077,-79.309998,15.96,-9.03,1729421471498.0,0.0
-11.16491,-18.216558,-3.900301,-19.25,56.630001,-68.18,1729421471517.0,0.0
-10.200603,-11.679367,-1.832902,22.469999,88.199997,-120.190002,1729421471538.0,0.0
-6.960721,-7.71446,-1.117448,-30.309999,97.160004,-142.800003,1729421471559.0,0.0
0.062213,-4.797609,7.793423,25.549999,89.529999,-115.57,1729421471578.0,0.0
4.177868,2.177469,11.614761,191.309998,53.689999,-82.669998,1729421471597.0,0.0
-0.638884,5.35753,13.363914,132.860001,37.099998,6.23,1729421471618.0,0.0
0.277567,-1.852045,6.733403,-90.650002,-28.42,43.049999,1729421471638.0,0.0
1.734797,-9.851252,-0.677169,-202.089996,-72.730003,59.360001,1729421471658.0,0.0
-0.753739,-15.333207,-4.242475,-157.919998,-72.239998,73.290001,1729421471678.0,0.0
-4.613362,-11.078769,-5.036892,23.1,-62.860001,74.129997,1729421471700.0,0.0
-4.393222,-8.420342,-3.584448,140.770004,-63.84,80.989998,1729421471719.0,0.0
-8.362915,-7.099504,0.267996,155.610001,-19.110001,89.25,1729421471740.0,0.0
-13.3352,-10.064213,-1.801795,24.639999,6.02,62.650002,1729421471761.0,0.0
-13.856836,-15.448064,-5.996413,-101.290001,18.620001,3.43,1729421471779.0,0.0
-10.571491,-17.469997,-5.510671,-70.279999,46.060001,-65.519997,1729421471800.0,0.0
-9.631111,-11.861222,-2.443072,17.57,87.360001,-110.18,1729421471821.0,0.0
-7.221539,-7.640282,1.237089,32.830002,89.879997,-117.040001,1729421471839.0,0.0
-3.20399,-1.536192,4.733003,10.29,74.550003,-112.349998,1729421471860.0,0.0
2.85703,-3.105884,8.827123,88.900002,39.27,-71.75,1729421471879.0,0.0
3.105884,1.521835,10.772489,149.029999,5.04,-22.33,1729421471900.0,0.0
0.131605,-0.122034,7.860423,23.309999,-20.23,36.540001,1729421471923.0,0.0
0.200997,-6.795617,0.988236,-128.520004,-50.470001,62.650002,1729421471939.0,0.0
-1.258625,-13.976478,-1.627119,-151.899994,-56.0,79.169998,1729421471961.0,0.0
-3.421736,-11.676974,-2.28036,-44.310001,-55.299999,82.599998,1729421471979.0,0.0
-5.501099,-9.346365,-0.478565,104.090004,-56.490002,80.43,1729421472000.0,0.0
-10.169496,-8.898908,-1.112662,57.400002,-25.27,74.410004,1729421472019.0,0.0
-11.593226,-11.755937,-5.034499,-41.93,-12.39,42.490002,1729421472039.0,0.0
-10.13839,-16.185053,-6.020342,-51.310001,8.89,-8.05,1729421472066.0,0.0
-10.69831,-16.058231,-3.692125,24.219999,52.150002,-61.599998,1729421472078.0,0.0
-10.894521,-9.568897,-0.914058,67.410004,77.349998,-106.889999,1729421472100.0,0.0
-8.379664,-4.4674,1.12702,17.08,74.480003,-123.480003,1729421472120.0,0.0
-3.321238,-0.399601,4.65404,-33.810001,57.330002,-109.199997,1729421472139.0,0.0
3.058028,-4.570292,8.982656,62.580002,35.420002,-66.290001,1729421472160.0,0.0
0.672383,-0.248854,12.110075,101.43,20.790001,-20.93,1729421472180.0,0.0
-1.304088,-2.713461,6.415157,-42.91,-18.690001,26.6,1729421472198.0,0.0
1.119841,-8.939585,-0.052642,-157.779999,-61.25,40.18,1729421472219.0,0.0
0.275175,-13.77548,-2.455036,-125.650002,-62.790001,55.650002,1729421472239.0,0.0
-2.203789,-11.093125,-2.323431,-10.64,-51.73,62.790001,1729421472260.0,0.0
-2.778067,-7.503892,-1.770689,92.959999,-57.82,73.220001,1729421472281.0,0.0
-5.036892,-6.448657,0.653241,131.110001,-49.209999,91.0,1729421472300.0,0.0
-12.612568,-9.375079,-1.947758,67.199997,-27.719999,98.209999,1729421472320.0,0.0
-14.208582,-15.586846,-5.371887,-90.93,0.77,35.139999,1729421472339.0,0.0
-12.361321,-18.654444,-5.991628,-41.23,31.639999,-35.0,1729421472361.0,0.0
-11.679367,-14.653646,-2.342573,64.610001,66.849998,-99.260002,1729421472380.0,0.0
-9.769895,-7.554141,-0.691526,52.990002,81.269997,-141.820007,1729421472400.0,0.0
-4.615755,-5.723632,1.548156,5.04,70.419998,-136.430008,1729421472418.0,0.0
1.679761,-0.614955,8.68116,33.110001,75.739998,-110.879997,1729421472439.0,0.0
4.23051,-1.799403,9.875179,175.910004,38.5,-51.59,1729421472460.0,0.0
-0.20339,2.184647,12.287145,136.220001,20.51,7.0,1729421472479.0,0.0
-0.964308,-1.61037,6.838687,-77.07,-28.559999,48.16,1729421472498.0,0.0
0.660419,-8.094919,1.22034,-249.899994,-72.029999,63.139999,1729421472519.0,0.0
-1.677369,-13.641481,-2.400001,-241.220001,-81.059998,73.010002,1729421472540.0,0.0
-4.26401,-12.445071,-3.39063,-91.209999,-74.129997,69.230003,1729421472561.0,0.0
-4.548756,-9.844072,-2.555535,89.25,-77.419998,77.559998,1729421472579.0,0.0
-6.276374,-7.393822,0.174676,173.529999,-62.439999,91.699997,1729421472599.0,0.0
-11.507084,-7.575676,-0.258425,105.139999,-22.75,96.879997,1729421472618.0,0.0
-16.510475,-13.021741,-5.182854,-54.040001,2.03,48.580002,1729421472639.0,0.0
-11.633904,-17.187645,-3.87398,-95.760002,15.47,-41.650002,1729421472659.0,0.0
-9.341579,-13.002598,-1.868794,34.860001,51.59,-123.760002,1729421472678.0,0.0
-7.109076,-4.902894,-0.899701,36.189999,66.150002,-139.860001,1729421472698.0,0.0
-2.565106,-4.429115,2.141576,-1.68,53.760002,-120.260002,1729421472718.0,0.0
2.56032,-3.326023,8.985049,23.24,51.380001,-93.800003,1729421472740.0,0.0
4.347759,-3.192025,10.052249,139.300003,12.67,-43.119999,1729421472760.0,0.0
1.189233,3.125026,10.583455,72.590004,-1.33,2.52,1729421472778.0,0.0
0.878166,-2.275574,4.12044,-107.730003,-56.84,64.610001,1729421472798.0,0.0
0.57667,-11.016556,-1.567299,-212.169998,-73.080002,85.330002,1729421472819.0,0.0
-2.943172,-14.869,-3.54377,-141.330002,-51.450001,89.879997,1729421472838.0,0.0
-6.063413,-12.102897,-2.57707,20.299999,-45.360001,87.010002,1729421472861.0,0.0
-6.491727,-9.611969,-0.457029,143.779999,-59.990002,87.849998,1729421472880.0,0.0
-9.671788,-7.322037,0.952343,142.100006,-28.42,84.980003,1729421472898.0,0.0
-13.316057,-9.212367,-2.376073,32.759998,-5.46,57.119999,1729421472919.0,0.0
-12.768101,-14.175081,-4.62054,-63.630001,8.96,-3.57,1729421472939.0,0.0
-10.124033,-16.352549,-3.814159,-34.650002,40.32,-66.779999,1729421472959.0,0.0
-10.583455,-14.050655,-1.26341,42.77,72.099998,-109.340004,1729421472979.0,0.0
-7.398607,-6.58744,1.117448,25.76,81.480003,-136.710007,1729421472999.0,0.0
0.148355,-0.007178,10.260423,22.33,60.200001,-123.830002,1729421473018.0,0.0
5.778666,-1.65344,11.540584,151.479996,20.16,-70.209999,1729421473040.0,0.0
0.789631,3.550949,12.373285,82.32,6.93,-15.47,1729421473060.0,0.0
-1.87358,-3.225525,4.345366,-112.840004,-39.48,44.66,1729421473078.0,0.0
1.146162,-9.729217,-1.289732,-203.350006,-72.660004,55.23,1729421473098.0,0.0
0.236889,-13.194024,-3.192025,-140.559998,-52.709999,70.07,1729421473120.0,0.0
-3.412165,-11.062018,-3.007778,-19.809999,-39.130001,75.459999,1729421473138.0,0.0
-5.991628,-8.405986,-3.089134,66.010002,-37.799999,80.779999,1729421473160.0,0.0
-6.951149,-8.68116,-2.610569,100.029999,-40.18,84.209999,1729421473178.0,0.0
-8.331808,-8.49452,-0.868595,83.370003,-15.96,70.0,1729421473200.0,0.0
-10.231709,-8.429914,-0.583849,36.470001,4.55,49.490002,1729421473220.0,0.0
-11.176874,-12.201002,-1.859223,-20.370001,17.01,20.02,1729421473246.0,0.0
-12.435498,-16.02952,-1.28016,-35.700001,47.599998,-36.889999,1729421473261.0,0.0
-12.136396,-13.213166,0.705883,5.11,67.900002,-95.269997,1729421473278.0,0.0
-7.625926,-6.838687,1.921437,7.07,61.110001,-131.389999,1729421473300.0,0.0
-0.339781,1.052842,9.150154,-24.360001,49.139999,-113.400002,1729421473320.0,0.0
5.087141,-2.689533,11.602797,102.760002,-0.63,-54.459999,1729421473340.0,0.0
-0.643669,0.552742,10.004392,17.360001,-11.97,-11.9,1729421473360.0,0.0
-1.823331,-5.675776,1.794617,-131.880005,-48.299999,37.73,1729421473380.0,0.0
2.270789,-11.657832,-2.268396,-181.229996,-58.52,43.68,1729421473401.0,0.0
0.758525,-13.892728,-2.775674,-100.029999,-29.120001,57.889999,1729421473420.0,0.0
-3.053242,-11.464014,-1.301696,20.719999,-23.940001,66.57,1729421473440.0,0.0
-3.979264,-7.872386,-0.55992,89.879997,-38.360001,65.590004,1729421473461.0,0.0
-4.73061,-6.12084,-0.409173,118.650002,-49.84,75.669998,1729421473480.0,0.0
-7.563712,-6.644868,0.81356,102.690002,-41.02,84.769997,1729421473500.0,0.0
-11.243874,-8.578269,0.165105,29.889999,-21.210001,70.980003,1729421473520.0,0.0
-13.000205,-11.858829,-1.241875,-19.040001,-7.7,37.029999,1729421473540.0,0.0
-11.810973,-14.153545,-3.244668,-15.05,14.14,-14.42,1729421473564.0,0.0
-10.181459,-13.208381,-2.029114,13.51,45.849998,-67.129997,1729421473579.0,0.0
-10.841879,-12.327823,-0.981057,26.809999,70.489998,-105.699997,1729421473601.0,0.0
-8.319844,-10.894521,0.153141,23.940001,68.669998,-142.309998,1729421473685.0,0.0
-2.947958,-3.926622,9.020942,63.279999,59.990002,-144.550003,1729421473685.0,0.0
3.273381,0.940379,10.186246,151.199997,0.49,-111.020004,1729421473686.0,0.0
3.115455,4.847858,10.396815,89.669998,-16.52,-54.040001,1729421473686.0,0.0
0.397209,-0.586242,7.111469,-69.790001,-27.09,14.49,1729421473700.0,0.0
0.650848,-7.944171,1.134198,-177.660004,-46.200001,40.950001,1729421473720.0,0.0
-1.158126,-12.057433,-1.545763,-175.210007,-36.400002,57.889999,1729421473741.0,0.0
-3.117848,-12.315859,-2.163112,-88.269997,-34.23,64.330002,1729421473762.0,0.0
-3.9673,-10.021141,-1.641476,-2.24,-35.84,62.860001,1729421473781.0,0.0
-4.13719,-8.001599,-0.521635,64.190002,-36.049999,68.459999,1729421473801.0,0.0
-4.890929,-7.281359,0.090927,106.260002,-38.290001,78.190002,1729421473821.0,0.0
-7.606783,-7.477571,0.878166,86.309998,-22.4,80.43,1729421473841.0,0.0
-10.396815,-10.777272,-0.325424,8.05,1.12,56.490002,1729421473862.0,0.0
-11.653046,-15.086747,-1.253839,-32.27,26.32,13.93,1729421473880.0,0.0
-11.102697,-13.761123,-0.820738,-5.67,44.66,-36.189999,1729421473901.0,0.0
-9.257831,-11.789437,-0.940379,51.799999,54.810001,-111.720001,1729421473921.0,0.0
-6.888937,-9.21476,0.753739,57.330002,61.389999,-125.650002,1729421473941.0,0.0
-0.957129,-0.638884,8.056634,66.919998,58.869999,-115.290001,1729421473966.0,0.0
2.821138,1.344766,10.188639,112.419998,31.85,-73.779999,1729421473980.0,0.0
-0.842274,1.392623,9.820145,36.82,5.81,-16.52,1729421474000.0,0.0
-2.146362,-3.199204,4.931608,-94.849998,-25.41,23.940001,1729421474021.0,0.0
1.160519,-7.896315,0.710668,-148.259995,-45.779999,48.02,1729421474041.0,0.0
0.37328,-11.466407,-1.174876,-119.349998,-31.639999,71.610001,1729421474063.0,0.0
-3.586841,-11.760723,-1.526621,-52.57,-19.040001,74.269997,1729421474081.0,0.0
-5.206782,-10.19821,-0.98345,9.87,-27.440001,69.93,1729421474100.0,0.0
-5.008178,-8.559127,-0.200997,58.170002,-45.360001,69.510002,1729421474120.0,0.0
-6.269196,-7.140182,0.775275,59.010002,-42.07,70.07,1729421474141.0,0.0
-9.133404,-8.317451,0.454636,0.7,-21.07,62.09,1729421474161.0,0.0
-11.272588,-11.992826,-1.198804,-64.889999,6.44,37.099998,1729421474181.0,0.0
-11.24866,-14.23251,-1.344766,-47.529999,29.4,-2.1,1729421474201.0,0.0
-9.549755,-13.373486,-0.141177,30.450001,33.670002,-47.25,1729421474220.0,0.0
-9.525827,-8.963513,2.459821,71.050003,46.34,-89.529999,1729421474242.0,0.0
-5.812167,-6.352944,1.024128,-4.2,31.639999,-110.669998,1729421474262.0,0.0
1.423729,-1.844866,6.163911,-33.25,25.690001,-85.120003,1729421474280.0,0.0
3.617948,-3.629912,8.719445,33.040001,17.08,-42.279999,1729421474300.0,0.0
-2.014757,-1.490728,8.922836,31.57,13.440001,-4.69,1729421474321.0,0.0
-3.065206,-4.551149,4.24726,-61.32,-25.76,26.110001,1729421474341.0,0.0
-1.284946,-9.267403,-0.088534,-146.089996,-45.849998,35.349998,1729421474372.0,0.0
-2.306681,-12.291929,-1.679761,-130.619995,-34.509998,44.029999,1729421474381.0,0.0
-4.436293,-11.880364,-1.811367,-56.98,-31.92,44.799999,1729421474400.0,0.0
-4.682754,-9.609575,-1.59362,28.280001,-43.610001,44.939999,1729421474421.0,0.0
-4.45065,-7.587641,-1.256232,92.330002,-53.41,51.52,1729421474441.0,0.0
-6.34098,-7.441679,-0.189033,100.590004,-38.639999,55.580002,1729421474464.0,0.0
-9.341579,-8.659625,0.492921,42.349998,-14.91,44.029999,1729421474480.0,0.0
-11.018949,-11.176874,0.832702,-29.610001,-0.35,12.74,1729421474501.0,0.0
-10.904092,-11.995219,-0.160319,-55.790001,15.26,-27.23,1729421474520.0,0.0
-7.56132,-9.212367,0.026321,-23.1,16.870001,-52.220001,1729421474541.0,0.0
-5.752346,-7.362715,0.684347,4.9,22.82,-58.799999,1729421474562.0,0.0
-4.68754,-6.541977,2.136791,-4.83,31.15,-44.450001,1729421474580.0,0.0
-3.409772,-7.099504,2.600998,-16.940001,26.32,-38.779999,1729421474600.0,0.0
-2.335395,-7.322037,3.199204,-10.78,20.09,-29.190001,1729421474621.0,0.0
-2.117648,-6.85783,3.675375,19.530001,7.56,-18.059999,1729421474640.0,0.0
-3.378666,-5.726025,3.998406,32.759998,-1.75,-4.48,1729421474663.0,0.0
-4.524827,-6.206983,3.744767,7.07,-15.33,7.14,1729421474682.0,0.0
-4.768896,-7.896315,1.962115,-38.360001,-30.1,14.84,1729421474700.0,0.0
-4.414758,-9.614362,-0.007178,-34.439999,-38.43,12.95,1729421474720.0,0.0
-4.173083,-10.38485,-0.411566,14.07,-33.040001,14.84,1729421474741.0,0.0
-3.95055,-9.286544,-0.248854,64.75,-22.4,17.92,1729421474761.0,0.0
-3.926622,-8.848659,0.488136,113.610001,-14.49,26.809999,1729421474780.0,0.0
-3.682554,-8.657232,1.548156,155.050003,-7.91,31.85,1729421474801.0,0.0
-3.742374,-10.49492,2.443072,206.220001,-2.66,35.77,1729421474820.0,0.0
-4.608576,-10.578669,2.897708,248.5,13.58,29.610001,1729421474840.0,0.0
-4.965107,-9.200402,4.338188,293.649994,27.65,15.4,1729421474871.0,0.0
-4.902894,-8.812766,5.350351,287.48999,36.610001,-7.63,1729421474881.0,0.0
-4.570292,-9.135797,5.632704,262.640015,40.599998,-28.77,1729421474900.0,0.0
-4.522435,-7.073184,6.474977,238.559998,38.709999,-45.849998,1729421474920.0,0.0
-4.666004,-5.453243,7.006185,202.789993,31.639999,-55.23,1729421474940.0,0.0
-5.04407,-4.505685,8.176274,176.960007,20.299999,-55.650002,1729421474963.0,0.0
-5.9677,-4.21376,7.992027,133.419998,10.08,-57.260002,1729421474981.0,0.0
-6.180661,-4.876573,6.123233,134.680008,-0.21,-47.740002,1729421475001.0,0.0
-5.407779,-2.651247,6.065805,158.619995,8.89,-52.990002,1729421475020.0,0.0
-5.228317,-0.854238,7.130611,148.470001,18.27,-51.450001,1729421475040.0,0.0
-5.860023,-0.837488,7.755138,109.480003,17.710001,-43.68,1729421475062.0,0.0
-6.474977,-2.230111,7.523034,76.160004,11.83,-32.48,1729421475079.0,0.0
-5.431707,-2.57707,6.589834,58.59,5.81,-24.01,1729421475100.0,0.0
-4.883751,-0.674776,6.568298,48.790001,6.02,-10.08,1729421475120.0,0.0
-4.905287,-1.043271,7.396214,10.22,3.29,9.45,1729421475141.0,0.0
-4.73061,-2.495714,7.965706,-46.060001,-4.27,24.15,1729421475163.0,0.0
-4.421937,-2.478964,7.489535,-114.309998,-13.37,31.15,1729421475180.0,0.0
-4.084548,-2.522035,5.682954,-184.169998,-15.47,35.420002,1729421475200.0,0.0
-4.675575,-3.038885,5.515456,-236.040009,-6.65,42.700001,1729421475220.0,0.0
-5.343173,-4.498507,6.742974,-302.470001,-3.01,41.16,1729421475240.0,0.0
-5.431707,-4.977071,6.235696,-447.230011,-14.98,34.439999,1729421475260.0,0.0
-5.709275,-3.95055,3.096312,-535.919983,-27.65,33.25,1729421475280.0,0.0
-5.589634,-5.965307,-0.756132,-558.599976,-33.810001,35.420002,1729421475300.0,0.0
-4.986642,-9.633504,-4.280759,-517.299988,-24.780001,29.75,1729421475320.0,0.0
-5.625526,-12.035898,-3.723232,-378.140015,2.66,20.51,1729421475341.0,0.0
-6.556334,-13.655839,-3.409772,-172.059998,11.48,3.92,1729421475362.0,0.0
-6.424729,-10.51167,-3.17049,14.35,7.84,-13.72,1729421475381.0,0.0
-6.084948,-10.224532,-1.751546,155.330002,2.87,-20.51,1729421475401.0,0.0
-5.101498,-10.159925,-0.969093,266.140015,-1.47,-28.07,1729421475420.0,0.0
-4.871787,-8.437093,2.48375,354.339996,9.45,-39.27,1729421475440.0,0.0
-5.084748,-6.862615,4.141976,449.470001,10.22,-43.259998,1729421475461.0,0.0
-4.520042,-6.218946,5.079963,536.690002,9.17,-26.950001,1729421475480.0,0.0
-4.941179,-7.499106,7.609176,539.97998,16.59,-29.610001,1729421475500.0,0.0
-4.735396,-7.826923,7.429714,431.899994,23.17,-47.18,1729421475520.0,0.0
-4.565506,-4.201797,7.532606,304.709991,28.07,-54.459999,1729421475540.0,0.0
-5.051248,2.938386,6.039484,201.110001,16.1,-33.810001,1729421475561.0,0.0
-3.718446,0.397209,5.108676,74.340004,7.63,-8.12,1729421475579.0,0.0
-4.448257,-2.017149,6.719046,-96.529999,10.99,18.48,1729421475600.0,0.0
-5.319244,-3.366701,6.494121,-184.940002,6.86,27.299999,1729421475619.0,0.0
-5.458029,-3.833302,5.907879,-257.950012,3.15,31.290001,1729421475640.0,0.0
-5.627919,-4.893322,6.556334,-304.429993,1.26,30.030001,1729421475660.0,0.0
-5.517848,-4.900501,6.034698,-352.730011,-12.67,29.049999,1729421475681.0,0.0
-4.981857,-1.78026,6.305088,-432.459991,-25.129999,31.219999,1729421475699.0,0.0
-5.702096,-2.969493,-0.399601,-502.110016,-40.18,42.84,1729421475721.0,0.0
-6.178268,-9.521042,-4.996214,-518.700012,-30.59,43.470001,1729421475740.0,0.0
-6.15434,-14.596218,-6.281159,-432.670013,-5.53,27.16,1729421475762.0,0.0
-5.513064,-15.349957,-3.584448,-234.919998,15.96,10.29,1729421475779.0,0.0
-4.622933,-11.095518,-1.684547,-31.08,18.620001,-9.1,1729421475800.0,0.0
-5.187639,-10.743774,0.612563,76.650002,9.59,-13.440001,1729421475820.0,0.0
