acc_x,acc_y,acc_z,gyr_x,gyr_y,gyr_z,timestamp,label
-1.103091,-9.025726,-3.345166,17.99,17.780001,-15.190001,1729477228716.0,0.0
-1.395016,-9.23151,-3.158526,13.23,19.040001,-13.02,1729477228721.0,0.0
-1.086342,-9.006584,-3.292524,16.870001,17.01,-12.11,1729477228731.0,0.0
-0.31346,-8.834301,-3.416951,17.01,8.61,-9.03,1729477228733.0,0.0
-0.404387,-9.059227,-3.431308,11.55,13.02,-5.74,1729477228748.0,0.0
-0.81356,-9.442079,-3.273381,10.92,20.65,-3.71,1729477228768.0,0.0
-0.435494,-9.320045,-3.35713,10.85,12.11,-3.43,1729477228788.0,0.0
-0.267996,-9.334401,-3.354738,6.37,9.1,-1.89,1729477228809.0,0.0
-0.806381,-9.662218,-3.402594,-1.33,12.95,-2.17,1729477228829.0,0.0
-0.89013,-9.734003,-3.07717,-8.47,11.69,-4.27,1729477228848.0,0.0
-0.270389,-9.729217,-3.433701,-15.89,2.1,-5.46,1729477228868.0,0.0
-0.014357,-9.609575,-3.579663,-25.549999,1.68,-6.51,1729477228888.0,0.0
-0.346959,-9.62154,-3.512664,-23.73,7.7,-7.14,1729477228912.0,0.0
-0.023928,-9.097511,-3.570091,-9.31,3.36,-5.88,1729477228929.0,0.0
-0.16989,-8.925228,-3.725625,2.45,3.78,-3.22,1729477228948.0,0.0
-0.691526,-9.073583,-3.105884,-1.19,8.26,-3.01,1729477228967.0,0.0
-0.976272,-9.255438,-2.974278,-11.41,7.07,-4.55,1729477228988.0,0.0
-0.540778,-9.169296,-3.333202,-16.52,-2.66,-6.51,1729477229009.0,0.0
-0.287139,-9.085547,-3.524628,-12.81,-7.56,-5.88,1729477229028.0,0.0
-0.562313,-8.810372,-3.519842,-15.33,-6.37,-5.95,1729477229048.0,0.0
-0.490529,-8.79123,-3.565305,-23.24,-8.12,-4.69,1729477229068.0,0.0
-0.208176,-8.985049,-3.771089,-25.129999,-10.5,-1.89,1729477229088.0,0.0
-0.095713,-9.035298,-4.122833,-20.51,-9.73,0.49,1729477229109.0,0.0
-0.117248,-9.346365,-4.242475,-8.96,-7.77,2.94,1729477229128.0,0.0
-0.562313,-9.183653,-4.110869,-0.14,-1.61,1.05,1729477229147.0,0.0
-1.107877,-9.037691,-3.773481,5.74,6.86,-0.42,1729477229168.0,0.0
-0.995414,-9.308081,-3.940979,8.82,5.67,-1.26,1729477229188.0,0.0
-0.583849,-9.753145,-3.943372,14.63,2.03,-1.96,1729477229209.0,0.0
-0.868595,-9.698111,-3.294917,28.07,3.64,-4.2,1729477229230.0,0.0
-1.426122,-9.54497,-3.089134,78.610001,8.68,-5.81,1729477229248.0,0.0
-1.627119,-9.186047,-3.57727,101.919998,3.71,-6.09,1729477229269.0,0.0
-1.428515,-9.054441,-3.318845,97.93,-0.7,-8.68,1729477229289.0,0.0
-1.591227,-9.346365,-2.500499,92.050003,-0.42,-9.45,1729477229310.0,0.0
-1.782653,-9.537791,-1.959722,104.510002,-5.04,-8.4,1729477229329.0,0.0
-1.899901,-9.274581,-1.785046,119.840004,-11.27,-6.51,1729477229348.0,0.0
-2.194218,-8.982656,-1.160519,108.290001,-12.95,-6.3,1729477229368.0,0.0
-2.608176,-8.779266,-0.825524,73.220001,-19.67,-4.27,1729477229389.0,0.0
-2.541178,-9.126225,-0.878166,30.380001,-32.549999,-1.61,1729477229409.0,0.0
-1.799403,-9.320045,-1.083949,-11.76,-47.670002,-0.77,1729477229430.0,0.0
-1.698904,-9.336794,-1.531406,-41.509998,-50.259998,-1.12,1729477229447.0,0.0
-2.344966,-9.391829,-1.964507,-69.090004,-46.200001,-5.46,1729477229469.0,0.0
-1.947758,-9.667004,-2.809174,-101.43,-53.689999,-11.48,1729477229489.0,0.0
-0.844666,-9.987641,-3.306881,-126.349998,-63.91,-14.7,1729477229509.0,0.0
-0.655633,-10.011569,-3.751946,-127.400002,-56.91,-19.25,1729477229529.0,0.0
-1.081556,-9.812965,-4.158726,-110.599998,-44.939999,-23.870001,1729477229548.0,0.0
0.088534,-9.162118,-5.448457,-91.559998,-50.68,-23.030001,1729477229567.0,0.0
0.107677,-9.312866,-5.194818,-84.910004,-43.470001,-20.51,1729477229590.0,0.0
-0.62692,-9.396614,-5.168497,-73.779999,-30.309999,-21.700001,1729477229608.0,0.0
-0.674776,-9.12144,-5.316852,-57.959999,-24.99,-20.719999,1729477229629.0,0.0
0.677169,-8.240881,-5.417351,-71.75,-38.150002,-20.299999,1729477229648.0,0.0
1.179662,-8.327023,-5.379066,-95.269997,-35.91,-18.27,1729477229667.0,0.0
0.492921,-8.886944,-5.491528,-104.230003,-25.41,-18.969999,1729477229690.0,0.0
-0.117248,-9.322437,-6.01077,-92.050003,-24.780001,-23.309999,1729477229708.0,0.0
-0.18664,-10.085747,-5.386244,-66.290001,-34.720001,-28.98,1729477229728.0,0.0
0.55992,-7.733603,-3.218346,-22.75,-40.740002,-27.299999,1729477229748.0,0.0
0.758525,-6.075377,-1.249053,-12.39,-56.07,-24.92,1729477229774.0,0.0
0.638884,-5.759524,-2.624927,-45.990002,-62.860001,-22.049999,1729477229787.0,0.0
1.261017,-6.84108,-4.644469,-84.209999,-85.470001,-12.39,1729477229808.0,0.0
1.584049,-6.862615,-5.711668,-127.120003,-93.730003,-10.01,1729477229829.0,0.0
0.878166,-6.766902,-6.518049,-152.110001,-92.68,-12.67,1729477229849.0,0.0
-0.215354,-7.06122,-6.089733,-168.910004,-92.540001,-17.57,1729477229869.0,0.0
-0.677169,-6.556334,-7.556533,-175.419998,-96.25,-27.09,1729477229889.0,0.0
-1.655833,-5.833702,-8.260024,-159.460007,-104.650002,-31.290001,1729477229911.0,0.0
-1.540978,-4.407579,-8.949157,-152.529999,-101.010002,-39.619999,1729477229928.0,0.0
-0.859023,-3.15374,-10.076177,-170.309998,-102.970001,-39.619999,1729477229947.0,0.0
-0.861416,-3.184847,-11.219944,-161.839996,-93.029999,-29.82,1729477229968.0,0.0
-2.048256,-4.058227,-11.861222,-122.5,-70.629997,-14.63,1729477229988.0,0.0
-2.801995,-5.690133,-11.909079,-66.080002,-50.75,-0.21,1729477230009.0,0.0
-1.959722,-6.716653,-10.79163,-17.57,-34.23,3.29,1729477230030.0,0.0
-1.287339,-6.252446,-9.602397,18.83,-30.030001,-6.44,1729477230048.0,0.0
-2.306681,-5.032106,-8.303094,52.009998,-17.290001,-13.58,1729477230069.0,0.0
-2.340181,-4.838287,-7.953743,71.75,-24.5,-16.1,1729477230087.0,0.0
-1.713261,-4.290331,-9.12144,67.900002,-43.75,-16.030001,1729477230109.0,0.0
-1.232304,-3.407379,-8.9683,19.74,-43.470001,-18.9,1729477230130.0,0.0
-0.382852,-3.799802,-9.437292,-31.290001,-43.610001,-18.27,1729477230149.0,0.0
1.246661,-3.919443,-11.576476,-33.18,-57.119999,-14.49,1729477230167.0,0.0
1.363909,-3.017349,-12.016755,-16.030001,-39.549999,-5.46,1729477230187.0,0.0
-0.071785,-3.615555,-11.57169,-10.36,-1.89,4.62,1729477230208.0,0.0
-0.337388,-4.424329,-10.595419,-6.58,14.56,9.45,1729477230229.0,0.0
-0.689133,-4.613362,-9.516255,-14.07,30.73,3.99,1729477230248.0,0.0
-3.54377,-5.642276,4.948357,-23.309999,43.049999,3.99,1729477230269.0,0.0
-7.444071,-7.166504,-10.114462,-98.139999,39.619999,-18.549999,1729477230287.0,0.0
-3.512664,-6.826723,-11.875579,-63.209999,-15.68,-13.37,1729477230308.0,0.0
-1.634298,-4.692325,-9.516255,-18.549999,1.19,-3.01,1729477230330.0,0.0
-3.866802,-4.98425,-10.844273,5.74,38.920002,8.05,1729477230349.0,0.0
-3.582055,-4.015156,-9.267403,63.209999,48.720001,26.530001,1729477230367.0,0.0
-1.773082,-4.414758,-10.176675,86.870003,42.349998,47.529999,1729477230389.0,0.0
-0.624527,-6.915257,-7.310073,112.770004,47.810001,50.189999,1729477230408.0,0.0
-0.899701,-5.414958,-5.735595,154.839996,43.889999,33.389999,1729477230431.0,0.0
-2.299503,-4.776074,-4.407579,113.959999,37.939999,9.52,1729477230447.0,0.0
-1.887937,-5.096712,-5.04407,14.42,9.1,-17.5,1729477230467.0,0.0
-2.447858,-3.457629,-6.350551,-27.16,-14.56,-25.48,1729477230491.0,0.0
-2.806781,-1.596013,-5.395815,-41.580002,-21.559999,-24.08,1729477230508.0,0.0
-1.57687,-2.385644,-7.290931,-72.800003,-60.200001,-11.69,1729477230528.0,0.0
-2.378466,-1.509871,-8.202596,-119.07,-54.040001,5.53,1729477230549.0,0.0
-6.12084,-4.773681,-11.150554,-104.300003,-35.560001,34.16,1729477230567.0,0.0
-7.936993,-5.733203,-10.978271,-14.07,-3.78,73.290001,1729477230588.0,0.0
-5.003392,-7.532606,-9.370294,-14.49,9.1,82.669998,1729477230608.0,0.0
-0.789631,-8.276773,-10.195816,14.14,-1.33,70.629997,1729477230631.0,0.0
-0.497707,-7.058826,-11.018949,100.169998,12.74,51.170002,1729477230647.0,0.0
-1.189233,-6.281159,-9.10469,126.0,34.23,30.380001,1729477230668.0,0.0
-0.947558,-5.417351,-5.187639,92.120003,29.889999,6.09,1729477230688.0,0.0
-0.028714,-5.029713,-5.460421,23.799999,2.03,-15.68,1729477230708.0,0.0
-0.87338,-4.735396,-6.15434,-21.49,-15.4,-33.25,1729477230731.0,0.0
-3.495914,-1.756332,-6.238089,-47.529999,-17.99,-44.310001,1729477230746.0,0.0
-4.204189,-2.632105,-6.750153,-95.620003,-37.59,-45.150002,1729477230768.0,0.0
-2.117648,-1.304088,-8.484949,-144.759995,-63.279999,-40.25,1729477230789.0,0.0
-4.007978,-1.684547,-10.092925,-113.889999,-48.93,-4.9,1729477230809.0,0.0
-8.973085,-1.311267,-11.868401,-33.599998,-22.889999,39.619999,1729477230829.0,0.0
-9.722038,-3.244668,-13.339987,-14.7,8.89,72.519997,1729477230847.0,0.0
-5.233103,-5.601598,-12.126825,-0.21,18.200001,96.25,1729477230869.0,0.0
-2.459821,-4.907679,-11.52862,63.490002,27.09,90.790001,1729477230887.0,0.0
-3.366701,-6.455836,-10.636096,95.900002,59.290001,84.209999,1729477230912.0,0.0
-1.232304,-8.595018,-5.295317,115.779999,51.310001,46.27,1729477230928.0,0.0
-1.215554,-6.972685,-4.019942,62.860001,45.150002,-4.83,1729477230948.0,0.0
-0.605384,-6.9679,-3.055635,9.38,11.2,-54.25,1729477230969.0,0.0
-0.823131,-0.380459,-3.337988,-23.17,-25.969999,-85.330002,1729477230988.0,0.0
-3.07717,0.445065,-6.412765,-86.239998,-42.209999,-87.010002,1729477231009.0,0.0
-2.993421,-1.454836,-9.339187,-136.220001,-61.670002,-79.099998,1729477231031.0,0.0
-2.285146,-2.321038,-11.569297,-158.479996,-66.010002,-68.32,1729477231047.0,0.0
-5.869594,-0.624527,-13.720445,-88.129997,-24.710001,-22.889999,1729477231068.0,0.0
-10.738988,-0.138784,-12.411572,0.98,15.12,44.029999,1729477231087.0,0.0
-8.999406,-4.352544,-10.805987,9.24,28.77,85.959999,1729477231108.0,0.0
-3.574877,-6.084948,-12.019149,37.799999,22.889999,100.449997,1729477231128.0,0.0
-2.541178,-6.348158,-9.365508,119.139999,32.830002,96.389999,1729477231149.0,0.0
-2.620141,-6.664011,-8.501699,144.899994,49.490002,78.610001,1729477231169.0,0.0
-1.507478,-8.772088,-8.805587,108.57,46.689999,40.599998,1729477231188.0,0.0
-0.775275,-6.12084,-2.459821,69.790001,35.91,-6.86,1729477231208.0,0.0
-0.827917,-7.702496,-5.800202,46.34,3.85,-50.330002,1729477231240.0,0.0
-2.112862,-2.210968,-1.785046,16.17,-15.190001,-91.0,1729477231247.0,0.0
-3.613162,-0.368495,-7.113862,-106.120003,-59.709999,-100.239998,1729477231269.0,0.0
-2.921637,3.091527,-7.678568,-133.350006,-75.32,-77.0,1729477231287.0,0.0
-4.089334,-2.328217,-11.13859,-94.57,-78.82,-21.07,1729477231307.0,0.0
-5.869594,-1.830509,-16.139589,-50.540001,-50.68,18.48,1729477231329.0,0.0
-8.736196,-0.722632,-10.102496,10.5,-7.28,67.480003,1729477231347.0,0.0
-9.425328,-5.072784,-11.349157,31.57,21.91,93.379997,1729477231367.0,0.0
-4.273581,-5.577669,-11.887544,52.360001,20.09,102.410004,1729477231389.0,0.0
-2.723032,-7.640282,-9.205189,111.230003,41.93,89.389999,1729477231407.0,0.0
-2.074577,-9.401401,-8.003991,144.339996,50.330002,61.110001,1729477231427.0,0.0
-1.18684,-9.674182,-6.197411,109.340004,46.619999,4.06,1729477231447.0,0.0
-0.930808,-5.702096,-3.866802,42.139999,26.6,-49.07,1729477231469.0,0.0
-0.509671,-6.774081,-4.503292,13.16,-10.29,-90.860001,1729477231487.0,0.0
-1.718047,-0.050249,-2.191825,-27.370001,-27.51,-114.169998,1729477231509.0,0.0
-4.852644,1.761117,-6.386444,-120.889999,-41.580002,-112.0,1729477231527.0,0.0
-3.273381,0.715454,-8.836694,-159.180008,-59.920002,-92.82,1729477231547.0,0.0
-3.756732,0.29671,-9.205189,-130.270004,-58.240002,-53.48,1729477231568.0,0.0
-5.192425,-1.191626,-15.182461,-58.240002,-29.540001,19.040001,1729477231586.0,0.0
-8.891729,-1.251446,-11.404193,9.38,11.69,72.379997,1729477231608.0,0.0
-8.094919,-5.836094,-10.712667,20.860001,36.610001,91.980003,1729477231628.0,0.0
-3.57727,-7.858029,-9.229117,60.760002,29.889999,99.050003,1729477231647.0,0.0
-2.538785,-8.425128,-8.659625,113.68,40.389999,81.059998,1729477231668.0,0.0
-2.096112,-7.925028,-9.107083,134.259995,42.139999,60.27,1729477231687.0,0.0
-1.9669,-8.944371,-6.589834,95.129997,49.420002,25.620001,1729477231708.0,0.0
-1.631905,-7.609176,-4.108476,44.939999,33.32,-18.549999,1729477231727.0,0.0
-0.519243,-6.960721,-4.297509,36.330002,-2.03,-61.670002,1729477231747.0,0.0
-1.624727,-1.189233,-3.26381,-11.48,-22.469999,-88.620003,1729477231767.0,0.0
-3.95055,-1.234696,-7.623533,-124.879997,-40.529999,-97.370003,1729477231787.0,0.0
-2.880959,-1.115055,-9.243474,-180.180008,-50.189999,-98.07,1729477231814.0,0.0
-1.579263,-0.29671,-7.740781,-151.339996,-52.290001,-81.900002,1729477231838.0,0.0
-3.37388,2.634498,-11.059627,-80.5,-49.07,-46.41,1729477231849.0,0.0
-5.891129,1.835295,-13.686946,-52.57,-34.02,16.379999,1729477231869.0,0.0
-9.205189,-2.239682,-12.634104,-31.290001,-0.07,69.090004,1729477231886.0,0.0
-5.615955,-4.716253,-10.602598,26.460001,25.83,86.309998,1729477231911.0,0.0
-3.912265,-7.757531,-6.754939,101.5,32.549999,88.620003,1729477231930.0,0.0
-2.732604,-7.932207,-8.362915,99.120003,25.76,66.150002,1729477231947.0,0.0
-2.069792,-8.147561,-8.719445,85.050003,26.67,30.24,1729477231966.0,0.0
-1.95015,-8.097312,-4.015156,62.860001,21.0,-9.17,1729477231988.0,0.0
-1.897508,-5.982057,-5.558527,27.09,-3.36,-49.490002,1729477232006.0,0.0
-1.672583,-3.684947,-5.929415,-8.96,-23.799999,-83.580002,1729477232028.0,0.0
-3.495914,-0.995414,-6.884151,-60.549999,-32.900002,-95.760002,1729477232046.0,0.0
-4.079762,1.569692,-8.484949,-120.540001,-39.689999,-96.599998,1729477232066.0,0.0
-2.155933,0.894916,-8.030313,-150.009995,-48.650002,-70.769997,1729477232087.0,0.0
-3.069991,-1.079163,-11.167303,-118.160004,-44.380001,-32.27,1729477232109.0,0.0
-5.79781,0.150748,-12.524034,-43.330002,-23.1,17.639999,1729477232127.0,0.0
-9.044869,-2.74696,-11.806188,-10.01,4.62,64.82,1729477232147.0,0.0
-6.884151,-5.611169,-13.160524,-3.99,26.25,76.860001,1729477232169.0,0.0
-3.921836,-6.860222,-10.241282,59.290001,37.59,83.300003,1729477232186.0,0.0
-3.550949,-5.972485,-9.207582,72.940002,61.040001,72.660004,1729477232207.0,0.0
-1.76351,-6.113662,-8.700303,105.279999,48.509998,58.450001,1729477232230.0,0.0
-2.294717,-7.085148,-7.678568,100.239998,56.490002,37.099998,1729477232247.0,0.0
-1.17009,-6.606583,-2.56032,33.040001,28.35,-22.33,1729477232268.0,0.0
-1.086342,-4.453043,-3.945765,-11.55,-1.89,-73.639999,1729477232288.0,0.0
-2.306681,-3.661019,-4.661219,-48.09,-26.389999,-100.730003,1729477232307.0,0.0
-3.180061,1.706082,-5.982057,-90.019997,-46.619999,-114.520004,1729477232328.0,0.0
-2.952743,2.553142,-9.348758,-129.009995,-53.200001,-94.57,1729477232347.0,0.0
-1.689333,1.0002,-10.753345,-128.380005,-56.91,-53.619999,1729477232365.0,0.0
-4.254438,-0.679562,-13.497912,-65.519997,-42.07,-3.99,1729477232387.0,0.0
-7.365108,-0.083749,-14.510076,-2.94,-16.52,39.900002,1729477232407.0,0.0
-7.54457,-2.287539,-13.81855,2.59,15.12,68.110001,1729477232427.0,0.0
-5.139783,-5.525027,-9.422935,54.599998,27.440001,88.340004,1729477232446.0,0.0
-3.407379,-6.874579,-8.319844,87.779999,38.080002,80.360001,1729477232469.0,0.0
-1.942972,-6.412765,-9.848858,119.910004,28.77,64.190002,1729477232487.0,0.0
-2.07697,-5.69731,-9.743573,105.209999,41.439999,39.41,1729477232508.0,0.0
-1.031307,-7.590034,-7.235896,69.440002,36.049999,0.56,1729477232531.0,0.0
-0.964308,-3.833302,-3.902694,28.139999,15.33,-35.630001,1729477232547.0,0.0
-1.840081,-6.223732,-6.089733,-2.24,-5.32,-72.449997,1729477232567.0,0.0
-2.182254,-1.033699,-6.149554,-35.490002,-28.07,-104.440002,1729477232588.0,0.0
-2.861816,3.407379,-8.717053,-136.919998,-47.950001,-103.739998,1729477232607.0,0.0
-2.163112,2.323431,-9.351151,-130.830002,-45.150002,-55.23,1729477232627.0,0.0
-2.129612,0.210568,-11.3683,-62.790001,-41.790001,9.73,1729477232646.0,0.0
-4.656433,-1.591227,-14.196616,-3.43,-19.25,56.349998,1729477232667.0,0.0
-7.944171,-2.971886,-10.968699,19.460001,11.34,82.459999,1729477232686.0,0.0
-7.293324,-5.508278,-11.578869,22.33,31.219999,83.300003,1729477232708.0,0.0
-4.261617,-6.178268,-9.396614,76.650002,21.49,84.07,1729477232728.0,0.0
-2.835495,-7.073184,-9.95175,105.489998,31.92,70.07,1729477232746.0,0.0
-2.505285,-5.864808,-10.181459,115.57,39.689999,52.639999,1729477232766.0,0.0
-1.98365,-9.162118,-9.559326,93.309998,44.380001,19.530001,1729477232786.0,0.0
-1.167697,-5.15414,-3.345166,68.809998,31.780001,-24.360001,1729477232807.0,0.0
-1.76351,-7.133004,-4.948357,50.400002,7.7,-58.380001,1729477232829.0,0.0
-1.529014,-5.977271,-4.675575,13.23,-14.0,-94.849998,1729477232846.0,0.0
-2.775674,1.069592,-4.347759,-48.93,-35.07,-107.099998,1729477232867.0,0.0
-3.9338,2.974278,-8.606983,-108.849998,-48.650002,-89.529999,1729477232888.0,0.0
-1.519442,0.574277,-9.753145,-94.5,-52.990002,-50.049999,1729477232909.0,0.0
-2.883351,-0.803988,-12.641282,-45.009998,-33.810001,15.47,1729477232926.0,0.0
-5.017749,-1.318445,-14.108082,-9.73,-9.31,48.439999,1729477232948.0,0.0
-7.659425,-1.342373,-9.52822,21.77,19.389999,77.629997,1729477232968.0,0.0
-7.996813,-5.300103,-10.320245,47.18,32.970001,83.860001,1729477232986.0,0.0
-4.350152,-7.456036,-8.839087,60.549999,24.43,82.949997,1729477233008.0,0.0
-2.337788,-7.087541,-7.920243,95.760002,18.83,69.090004,1729477233028.0,0.0
-2.301895,-6.893722,-8.817552,103.599998,27.440001,51.66,1729477233048.0,0.0
-2.191825,-8.535198,-8.798409,78.330002,31.43,26.530001,1729477233068.0,0.0
-2.014757,-6.733403,-5.149354,52.5,23.73,-8.19,1729477233086.0,0.0
-1.567299,-8.523234,-4.61097,62.790001,-3.22,-46.619999,1729477233107.0,0.0
-1.591227,-3.349952,-4.536791,21.49,-23.030001,-77.349998,1729477233129.0,0.0
-2.89053,-1.237089,-6.250053,-80.360001,-37.170002,-81.760002,1729477233148.0,0.0
-2.799603,-1.938186,-9.635897,-145.740005,-37.450001,-77.349998,1729477233167.0,0.0
-2.617748,-1.294517,-8.717053,-97.510002,-35.349998,-45.849998,1729477233186.0,0.0
-2.646462,-0.119641,-7.838887,-45.080002,-37.59,-18.200001,1729477233206.0,0.0
-4.993821,0.289532,-10.983055,-14.35,-32.41,19.32,1729477233229.0,0.0
-6.76451,-3.177669,-12.41875,-51.170002,-11.55,46.970001,1729477233246.0,0.0
-7.436893,-4.555934,-11.373087,20.58,18.83,81.830002,1729477233266.0,0.0
-4.953143,-5.32403,-8.616554,64.260002,28.630001,90.510002,1729477233285.0,0.0
-2.928815,-8.77448,-8.432307,97.580002,31.57,81.620003,1729477233308.0,0.0
-1.995614,-7.537392,-9.166903,124.18,35.420002,61.529999,1729477233328.0,0.0
-1.710868,-8.370094,-8.949157,106.470001,44.029999,31.219999,1729477233346.0,0.0
-1.507478,-6.518049,-3.09392,73.989998,34.16,-7.56,1729477233365.0,0.0
-1.332802,-7.779066,-4.082155,39.27,5.25,-49.349998,1729477233387.0,0.0
-1.07677,-5.24746,-4.845466,7.98,-21.07,-87.849998,1729477233407.0,0.0
-2.67039,-0.837488,-5.091926,-59.57,-34.439999,-102.269997,1729477233429.0,0.0
-3.125026,1.72044,-7.927422,-156.800003,-46.130001,-105.279999,1729477233446.0,0.0
-2.400001,0.449851,-9.186047,-157.009995,-50.540001,-68.040001,1729477233465.0,0.0
-2.574677,-0.815953,-12.141183,-102.410004,-43.610001,-27.719999,1729477233488.0,0.0
-5.032106,-0.495314,-14.457435,-52.920002,-16.1,14.28,1729477233506.0,0.0
-5.783452,-2.306681,-11.246266,-1.4,10.78,53.830002,1729477233526.0,0.0
-7.700103,-3.113062,-7.647461,61.32,28.0,84.139999,1729477233546.0,0.0
-6.199803,-5.800202,-7.563712,54.389999,31.01,92.610001,1729477233566.0,0.0
-3.069991,-7.271788,-8.68116,66.779999,21.77,87.57,1729477233587.0,0.0
-2.78046,-8.949157,-8.724231,92.959999,34.299999,54.950001,1729477233609.0,0.0
-1.978864,-8.958728,-7.396214,79.519997,29.469999,12.81,1729477233626.0,0.0
-1.986043,-5.850451,-4.292724,62.720001,14.98,-27.02,1729477233645.0,0.0
-1.976472,-5.592027,-5.769095,17.99,-11.27,-63.98,1729477233746.0,0.0
-1.682154,-3.091527,-6.156733,-57.470001,-28.210001,-87.43,1729477233749.0,0.0
-2.045863,-2.337788,-8.38445,-109.830002,-38.009998,-98.910004,1729477233750.0,0.0
-2.713461,2.26361,-8.415558,-125.790001,-37.170002,-85.82,1729477233752.0,0.0
-3.39063,0.842274,-6.888937,-106.050003,-33.740002,-40.389999,1729477233770.0,0.0
-3.787838,-0.973879,-10.58824,-52.779999,-40.32,4.41,1729477233771.0,0.0
-5.730811,-0.600598,-13.390236,-21.35,-22.68,42.560001,1729477233786.0,0.0
-6.893722,-2.127219,-11.420943,7.0,9.24,73.57,1729477233806.0,0.0
-7.111469,-5.201996,-11.042876,30.870001,28.559999,84.419998,1729477233827.0,0.0
-4.369294,-6.728617,-8.391629,68.389999,25.059999,94.779999,1729477233846.0,0.0
-3.555735,-7.738388,-7.386643,75.040001,27.719999,80.709999,1729477233865.0,0.0
-2.885744,-9.726824,-9.523434,99.190002,26.67,55.439999,1729477233885.0,0.0
-2.012364,-8.396415,-5.000999,76.720001,29.540001,6.37,1729477233915.0,0.0
-2.096112,-6.704689,-4.345366,55.16,16.799999,-37.029999,1729477233926.0,0.0
-2.019542,-5.134997,-5.355137,-12.53,-19.879999,-92.120003,1729477233945.0,0.0
-2.63689,-0.820738,-5.565705,-77.559998,-37.799999,-109.900002,1729477233965.0,0.0
-3.598805,2.268396,-9.126225,-133.490005,-43.959999,-105.209999,1729477233986.0,0.0
-3.404987,0.856631,-8.609376,-150.710007,-39.689999,-69.300003,1729477234007.0,0.0
-4.022335,-2.29711,-10.480563,-101.849998,-33.670002,-29.469999,1729477234026.0,0.0
-5.515456,1.294517,-13.392628,-30.380001,-16.309999,6.65,1729477234049.0,0.0
-6.412765,-1.792224,-11.574083,-20.299999,14.21,52.639999,1729477234065.0,0.0
-6.910471,-4.890929,-11.4018,13.79,30.17,76.93,1729477234085.0,0.0
-3.893122,-5.012963,-10.887343,37.099998,35.700001,84.910004,1729477234114.0,0.0
-3.196811,-6.640083,-7.721639,81.340004,45.290001,83.510002,1729477234125.0,0.0
-2.912065,-8.956335,-7.925028,91.419998,46.060001,60.900002,1729477234147.0,0.0
-2.548356,-7.623533,-5.285746,74.970001,38.849998,12.81,1729477234165.0,0.0
-1.629512,-6.269196,-4.606184,18.83,11.55,-34.650002,1729477234185.0,0.0
-0.461815,-5.649454,-5.862415,-5.6,-19.879999,-77.559998,1729477234206.0,0.0
-0.777667,0.366102,-6.412765,-25.969999,-36.889999,-102.970001,1729477234226.0,0.0
-3.125026,2.033899,-9.300901,-103.25,-36.119999,-98.279999,1729477234245.0,0.0
-2.383251,-0.366102,-9.044869,-108.639999,-38.220001,-62.16,1729477234265.0,0.0
-4.328616,1.433301,-9.540184,-33.459999,-28.77,-19.040001,1729477234285.0,0.0
-5.359922,0.957129,-12.32543,2.1,-25.27,29.75,1729477234306.0,0.0
-5.62074,-2.679961,-12.375679,-10.71,-3.08,64.050003,1729477234326.0,0.0
-7.592427,-4.591826,-11.373087,40.18,15.05,82.25,1729477234345.0,0.0
-5.54417,-5.493921,-7.089933,73.5,24.57,85.889999,1729477234364.0,0.0
-3.495914,-8.243275,-6.649654,72.519997,17.780001,77.209999,1729477234386.0,0.0
-1.998007,-10.375278,-9.65504,81.340004,10.85,40.110001,1729477234406.0,0.0
-1.919044,-8.898908,-8.377272,74.690002,16.52,-8.61,1729477234491.0,0.0
-1.751546,-5.953342,-6.498906,47.880001,8.4,-56.279999,1729477234492.0,0.0
-0.820738,-5.47717,-6.448657,19.389999,-19.18,-91.910004,1729477234492.0,0.0
-1.402194,-1.064806,-5.946165,-8.26,-23.73,-108.010002,1729477234492.0,0.0
-2.323431,2.921637,-8.563912,-66.989998,-35.77,-100.169998,1729477234506.0,0.0
-2.605784,2.56032,-9.489935,-121.379997,-32.27,-60.760002,1729477234525.0,0.0
-2.813959,-0.981057,-9.561719,-111.790001,-27.16,-13.79,1729477234551.0,0.0
-4.376472,0.031107,-10.442278,-61.040001,-19.389999,28.84,1729477234564.0,0.0
-7.104291,-2.488536,-9.707682,-42.0,-0.14,61.880001,1729477234584.0,0.0
-6.518049,-5.029713,-11.889936,0.35,12.74,76.090004,1729477234605.0,0.0
-4.752146,-6.343372,-10.537991,38.639999,8.82,82.389999,1729477234627.0,0.0
-3.974478,-7.726424,-7.88435,55.16,21.84,59.990002,1729477234645.0,0.0
-3.232704,-8.415558,-10.633704,79.940002,20.23,30.59,1729477234664.0,0.0
-3.323631,-7.566105,-8.877372,94.290001,32.689999,-8.54,1729477234685.0,0.0
-3.251846,-6.190232,-5.395815,92.68,29.33,-44.310001,1729477234710.0,0.0
-2.07697,-5.682954,-5.927022,50.400002,2.73,-78.610001,1729477234726.0,0.0
-1.768296,-3.275774,-5.881558,-5.95,-9.45,-104.580002,1729477234746.0,0.0
-1.871187,1.581656,-4.876573,-40.32,-25.34,-109.059998,1729477234766.0,0.0
-2.203789,3.814159,-8.01117,-76.790001,-36.68,-88.129997,1729477234784.0,0.0
-2.258825,1.866402,-8.16431,-116.620003,-34.580002,-45.639999,1729477234807.0,0.0
-3.06042,-0.634098,-10.013963,-87.5,-32.27,2.38,1729477234827.0,0.0
-3.972085,-0.325424,-12.093326,-30.73,-28.42,39.549999,1729477234846.0,0.0
-7.013363,-0.837488,-11.179268,-7.7,-5.53,75.879997,1729477234865.0,0.0
-6.683154,-5.367101,-13.146168,1.54,16.1,85.260002,1729477234885.0,0.0
-4.388437,-8.039884,-7.73121,67.690002,10.64,90.230003,1729477234909.0,0.0
-3.835695,-7.513463,-9.934999,93.239998,22.82,65.940002,1729477234926.0,0.0
-3.486342,-10.487741,-9.195618,80.5,37.099998,35.279999,1729477234944.0,0.0
-3.029313,-11.665009,-4.706682,60.130001,35.91,-10.5,1729477234964.0,0.0
-2.57707,-9.865608,-4.852644,64.82,18.41,-67.620003,1729477234984.0,0.0
-1.552942,-6.597012,-6.687939,38.080002,-15.75,-117.18,1729477235007.0,0.0
-0.476172,-0.535992,-7.334002,-37.66,-41.860001,-145.880005,1729477235026.0,0.0
0.021535,6.58744,-9.463614,-101.360001,-42.349998,-123.410004,1729477235045.0,0.0
-1.311267,4.723432,-11.23191,-95.480003,-22.960001,-46.27,1729477235064.0,0.0
-2.971886,-1.440479,-9.224331,-73.010002,-6.23,11.06,1729477235084.0,0.0
-4.986642,-1.112662,-10.547562,5.18,3.78,47.110001,1729477235108.0,0.0
-7.312466,1.062413,-7.475177,26.110001,13.09,71.68,1729477235126.0,0.0
-6.79083,-3.218346,-9.45165,-3.08,17.15,84.349998,1729477235144.0,0.0
-4.323831,-8.319844,-8.042276,30.799999,3.36,88.760002,1729477235166.0,0.0
-3.493521,-7.436893,-10.430314,47.389999,10.78,68.040001,1729477235184.0,0.0
-2.634498,-8.085347,-10.466206,71.68,18.549999,47.950001,1729477235205.0,0.0
-1.56012,-8.855836,-8.480164,62.23,22.33,12.32,1729477235226.0,0.0
-1.158126,-7.503892,-5.529813,59.990002,17.01,-32.48,1729477235245.0,0.0
-1.272982,-3.87398,-5.436492,42.349998,-1.75,-73.150002,1729477235264.0,0.0
-2.117648,-3.675375,-6.9679,-40.459999,-23.799999,-97.720001,1729477235286.0,0.0
-1.859223,0.385244,-8.248059,-78.82,-36.470001,-104.090004,1729477235305.0,0.0
-1.416551,2.045863,-7.484749,-80.220001,-40.670002,-71.260002,1729477235325.0,0.0
-1.529014,-0.961915,-10.794022,-86.519997,-44.240002,-30.799999,1729477235344.0,0.0
-4.551149,-0.701097,-11.55494,-30.52,-18.41,18.549999,1729477235363.0,0.0
-7.913064,-2.818745,-11.837293,7.28,11.34,62.510002,1729477235384.0,0.0
-6.623333,-4.905287,-9.729217,31.01,17.57,83.650002,1729477235407.0,0.0
-5.711668,-6.314659,-9.028119,66.989998,22.26,93.379997,1729477235426.0,0.0
-3.979264,-7.9011,-9.750752,77.910004,26.040001,83.230003,1729477235445.0,0.0
-2.727818,-9.432507,-9.810574,105.559998,32.759998,63.91,1729477235465.0,0.0
-1.974079,-10.253245,-6.936793,110.599998,41.16,20.09,1729477235484.0,0.0
-1.529014,-6.723832,-3.254239,73.989998,27.93,-29.190001,1729477235505.0,0.0
-0.923629,-6.008378,-3.895515,42.630001,-10.85,-71.400002,1729477235526.0,0.0
-2.112862,-3.412165,-4.677969,-28.35,-23.52,-93.800003,1729477235544.0,0.0
-2.237289,3.053242,-7.848458,-113.68,-39.130001,-95.830002,1729477235564.0,0.0
-2.457429,0.820738,-8.458629,-130.270004,-43.82,-44.869999,1729477235585.0,0.0
-2.76371,-4.350152,-11.660224,-102.129997,-28.49,2.73,1729477235605.0,0.0
-5.331209,-1.679761,-9.509077,-10.92,-1.12,30.799999,1729477235626.0,0.0
-8.372486,-1.402194,-9.975677,21.07,11.69,63.209999,1729477235645.0,0.0
-5.759524,-4.09412,-9.537791,5.53,5.74,76.720001,1729477235664.0,0.0
-4.945964,-6.111269,-9.08794,25.48,5.74,83.650002,1729477235684.0,0.0
-4.194618,-8.429914,-10.810772,49.77,15.54,68.529999,1729477235708.0,0.0
-2.533999,-8.178668,-10.260423,83.790001,19.110001,40.740002,1729477235726.0,0.0
-2.199004,-8.468199,-7.783852,81.269997,30.66,4.34,1729477235744.0,0.0
-2.033899,-8.049455,-4.319045,60.200001,23.379999,-40.32,1729477235764.0,0.0
-1.490728,-5.072784,-3.981657,22.75,-9.8,-81.269997,1729477235784.0,0.0
-1.562513,-2.708675,-5.639884,-45.920002,-30.799999,-107.029999,1729477235804.0,0.0
-1.938186,-0.01675,-7.592427,-90.860001,-41.650002,-107.099998,1729477235827.0,0.0
-2.507678,0.617348,-9.573684,-110.529999,-42.490002,-87.43,1729477235844.0,0.0
-2.163112,-0.349352,-8.88455,-144.130005,-37.240002,-66.5,1729477235864.0,0.0
-2.567499,0.9667,-12.205789,-120.260002,-24.15,-37.869999,1729477235884.0,0.0
-3.969693,0.021535,-12.748959,-50.610001,-10.57,11.2,1729477235909.0,0.0
-6.805188,-4.754539,-11.64826,-0.14,23.870001,60.970001,1729477235925.0,0.0
-5.362316,-5.766702,-8.374879,53.689999,24.219999,93.940002,1729477235944.0,0.0
-3.156133,-8.405986,-8.599805,67.760002,14.77,82.18,1729477235963.0,0.0
-1.844866,-7.534998,-10.535598,111.510002,15.89,62.369999,1729477235984.0,0.0
-1.847259,-7.45125,-9.458827,118.160004,37.380001,41.23,1729477236006.0,0.0
-1.87358,-8.62134,-7.156933,91.769997,37.939999,2.59,1729477236035.0,0.0
-1.777867,-8.901299,-5.924629,87.779999,23.940001,-45.150002,1729477236043.0,0.0
-1.380659,-5.532206,-5.958128,83.93,-1.19,-83.860001,1729477236064.0,0.0
-1.557728,-3.103491,-5.180461,45.080002,-14.77,-105.840004,1729477236083.0,0.0
-2.148755,2.045863,-5.816952,-28.210001,-28.210001,-101.290001,1729477236104.0,0.0
-2.648855,2.072184,-8.642875,-79.660004,-36.119999,-71.400002,1729477236125.0,0.0
-1.691726,-0.660419,-8.130811,-135.800003,-42.630001,-41.439999,1729477236143.0,0.0
-3.215954,-2.15354,-10.758131,-153.720001,-34.299999,-8.33,1729477236164.0,0.0
-6.221339,-3.871587,-10.399208,-111.720001,-9.17,24.290001,1729477236184.0,0.0
-7.867601,-5.618347,-13.557733,-18.83,4.69,59.080002,1729477236205.0,0.0
-5.99402,-5.898308,-10.372886,64.959999,14.7,81.550003,1729477236224.0,0.0
-4.036692,-7.24786,-8.413164,117.739998,26.809999,86.870003,1729477236244.0,0.0
-2.809174,-8.944371,-10.114462,157.990005,35.77,69.440002,1729477236264.0,0.0
-2.699104,-8.635696,-8.01117,231.699997,52.57,38.009998,1729477236284.0,0.0
-2.871387,-6.776474,-7.625926,259.070007,63.07,20.299999,1729477236306.0,0.0
-2.57707,-9.903893,-7.293324,342.579987,47.389999,0.98,1729477236324.0,0.0
-1.79701,-9.652647,-5.020142,391.860016,40.18,-21.35,1729477236343.0,0.0
-1.741975,-8.712267,-6.78126,414.959991,25.41,-24.15,1729477236363.0,0.0
-0.658026,-7.267002,-7.489535,428.610016,11.06,-29.82,1729477236384.0,0.0
0.117248,-6.738188,-4.924429,447.299988,22.4,-17.5,1729477236404.0,0.0
-0.143569,-7.357929,-2.409572,468.089996,44.869999,-6.09,1729477236425.0,0.0
-1.246661,-8.209774,0.20339,458.920013,43.68,-5.88,1729477236443.0,0.0
-1.064806,-9.205189,1.799403,423.5,33.810001,-19.530001,1729477236463.0,0.0
-0.26321,-10.504492,1.904687,407.890015,44.73,-26.18,1729477236484.0,0.0
-1.083949,-10.325029,2.26361,406.559998,70.0,-32.27,1729477236504.0,0.0
-2.531606,-7.982457,4.187439,388.079987,79.239998,-52.080002,1729477236524.0,0.0
-3.366701,-3.76391,5.812167,302.329987,78.889999,-63.209999,1729477236544.0,0.0
-3.218346,-4.364508,6.821937,202.369995,68.25,-56.209999,1729477236563.0,0.0
-2.761317,-3.84048,5.371887,120.050003,61.529999,-58.939999,1729477236583.0,0.0
-3.510271,-1.909473,7.590034,103.459999,70.699997,-36.189999,1729477236605.0,0.0
-2.069792,-0.055035,8.178668,76.230003,64.190002,-12.88,1729477236624.0,0.0
-2.423929,-1.85683,9.097511,49.0,51.799999,26.460001,1729477236643.0,0.0
-3.52702,-5.520242,8.190632,-11.97,22.26,35.209999,1729477236664.0,0.0
-2.440679,-6.692725,7.853244,-23.309999,7.07,46.48,1729477236684.0,0.0
-3.256632,-7.501499,7.903493,13.86,3.36,47.040001,1729477236710.0,0.0
-4.249653,-7.393822,6.585048,17.360001,-2.8,33.670002,1729477236729.0,0.0
-6.13759,-10.774881,5.163712,26.460001,0.56,19.460001,1729477236743.0,0.0
-6.805188,-11.586047,5.130211,44.52,14.84,-22.190001,1729477236763.0,0.0
-5.237889,-6.372087,6.568298,78.190002,43.400002,-50.259998,1729477236783.0,0.0
-4.354938,-6.195018,7.628319,69.510002,52.709999,-62.510002,1729477236805.0,0.0
-3.87398,-6.183054,8.508877,45.57,49.700001,-73.639999,1729477236824.0,0.0
-3.292524,-2.89053,9.65504,56.700001,48.580002,-72.379997,1729477236843.0,0.0
-2.591427,1.37348,9.265009,38.779999,39.759998,-53.200001,1729477236863.0,0.0
-3.347559,0.485743,8.963513,-17.57,12.32,-15.82,1729477236883.0,0.0
-2.54357,-0.346959,7.925028,-52.5,-12.88,10.78,1729477236908.0,0.0
-3.213561,-2.493321,7.982457,-43.82,-23.24,37.380001,1729477236924.0,0.0
-4.015156,-3.945765,5.754738,-63.630001,-41.02,57.75,1729477236943.0,0.0
-2.689533,-4.811966,5.335995,-61.950001,-37.799999,68.25,1729477236963.0,0.0
-2.677568,-9.159724,5.513064,-55.580002,-29.120001,67.480003,1729477236983.0,0.0
-2.734996,-12.875778,3.883551,-49.279999,-24.290001,39.27,1729477237004.0,0.0
-5.391029,-15.625132,7.130611,14.84,5.95,1.33,1729477237034.0,0.0
-7.518249,-7.15454,8.796017,52.990002,27.93,-46.830002,1729477237043.0,0.0
-5.340781,-4.338188,8.207381,20.299999,41.16,-58.380001,1729477237063.0,0.0
-2.806781,-8.915657,6.372087,-47.040001,34.16,-69.090004,1729477237087.0,0.0
-2.495714,-4.957928,7.188039,9.1,45.849998,-76.230003,1729477237104.0,0.0
-3.239882,0.277567,8.843873,94.010002,60.200001,-60.619999,1729477237125.0,0.0
-3.361916,0.562313,10.576276,49.84,28.49,-40.040001,1729477237144.0,0.0
-0.923629,0.007178,9.425328,-25.620001,-5.95,-4.76,1729477237164.0,0.0
-0.428315,-0.48335,6.190232,-62.93,-24.57,30.66,1729477237184.0,0.0
-3.893122,-6.063413,5.4676,-43.75,-30.24,47.529999,1729477237205.0,0.0
-4.409972,-4.960321,6.281159,-14.84,-24.57,43.400002,1729477237225.0,0.0
-3.125026,-5.285746,9.506684,-13.09,-16.17,58.73,1729477237244.0,0.0
-5.479564,-11.093125,5.132604,-88.199997,-64.470001,49.139999,1729477237264.0,0.0
-3.486342,-13.60559,3.278167,-20.16,-38.220001,33.880001,1729477237284.0,0.0
-6.999006,-12.914064,5.716454,73.919998,0.14,-23.52,1729477237306.0,0.0
-5.221139,-4.981857,8.79123,87.989998,30.870001,-44.170002,1729477237326.0,0.0
-2.876173,-4.864608,8.018349,35.98,29.190001,-56.560001,1729477237344.0,0.0
-3.244668,-5.431707,7.520642,16.799999,28.07,-59.150002,1729477237363.0,0.0
-3.452843,-1.744368,8.709875,49.84,33.040001,-48.16,1729477237390.0,0.0
-3.742374,-0.567099,9.363115,45.57,22.4,-31.99,1729477237406.0,0.0
-2.859423,-1.253839,8.805587,-14.14,-11.83,0.35,1729477237427.0,0.0
-1.318445,-1.758725,7.288538,-57.119999,-35.700001,27.719999,1729477237446.0,0.0
-3.337988,-4.82393,6.666404,-61.950001,-50.119999,47.389999,1729477237465.0,0.0
-3.491128,-5.335995,6.721439,-59.57,-52.639999,51.59,1729477237486.0,0.0
-1.87358,-2.691926,8.063812,-71.82,-50.82,59.290001,1729477237518.0,0.0
-2.124826,-6.518049,7.539784,-124.879997,-55.93,68.32,1729477237526.0,0.0
-4.335794,-9.96132,4.508078,-230.720001,-65.519997,44.450001,1729477237545.0,0.0
-5.156533,-14.553147,0.961915,-173.529999,-60.34,5.88,1729477237566.0,0.0
-2.376073,-13.768302,3.555735,-18.200001,4.83,-26.389999,1729477237586.0,0.0
-3.218346,-8.941978,5.903094,127.540001,61.740002,-41.439999,1729477237606.0,0.0
-4.890929,-5.508278,6.982256,179.690002,79.169998,-61.32,1729477237627.0,0.0
-4.960321,-4.536791,7.389036,136.080002,67.410004,-68.879997,1729477237645.0,0.0
-3.65384,-4.800002,8.571091,103.949997,57.540001,-58.799999,1729477237665.0,0.0
-3.335595,-2.325824,6.704689,73.220001,45.290001,-51.66,1729477237686.0,0.0
-1.998007,-2.005185,7.23111,58.939999,30.870001,-25.200001,1729477237707.0,0.0
-1.617548,-2.945565,8.106883,31.290001,14.7,-5.81,1729477237727.0,0.0
-3.756732,-3.646662,8.039884,1.05,-13.3,12.25,1729477237749.0,0.0
-2.565106,-2.500499,7.001399,-27.790001,-31.710001,33.389999,1729477237765.0,0.0
-1.258625,-3.481557,7.855636,-61.040001,-47.740002,57.400002,1729477237785.0,0.0
-3.826123,-9.025726,5.635098,-102.059998,-67.340004,62.93,1729477237808.0,0.0
-3.649055,-13.497912,3.931407,-95.970001,-65.239998,37.240002,1729477237827.0,0.0
-5.592027,-16.637295,4.814359,-28.07,-34.23,-9.87,1729477237845.0,0.0
-3.926622,-6.898508,7.51107,55.16,12.46,-45.639999,1729477237867.0,0.0
-2.416751,-4.194618,8.429914,41.720001,31.780001,-71.82,1729477237886.0,0.0
-1.921437,-2.294717,7.556533,0.63,19.460001,-61.810001,1729477237910.0,0.0
-2.701497,-2.9671,8.078169,19.530001,18.27,-38.990002,1729477237927.0,0.0
-1.531406,-1.507478,6.659225,3.08,8.33,-22.120001,1729477237945.0,0.0
-0.679562,-1.115055,6.71426,-12.39,1.68,6.58,1729477237966.0,0.0
-1.421337,-4.249653,7.173682,-27.02,-5.46,29.889999,1729477237986.0,0.0
-2.952743,-5.771489,6.910471,-39.830002,-13.3,28.07,1729477238006.0,0.0
-2.782853,-5.472386,7.984849,-13.86,-12.39,39.48,1729477238027.0,0.0
-1.785046,-4.587041,9.147761,3.71,-21.210001,50.82,1729477238045.0,0.0
-3.134598,-7.695317,6.262017,-38.080002,-40.880001,58.52,1729477238067.0,0.0
-3.964907,-14.998212,4.998606,-31.92,-42.279999,44.170002,1729477238086.0,0.0
-5.240282,-14.904892,3.04367,33.810001,-14.84,-17.780001,1729477238106.0,0.0
-3.20399,-6.283553,5.704489,128.100006,56.139999,-28.98,1729477238127.0,0.0
-3.436093,-4.175476,7.578069,105.910004,62.580002,-55.93,1729477238147.0,0.0
-3.85723,-5.74756,7.728817,35.349998,49.139999,-58.170002,1729477238167.0,0.0
-3.182454,-3.35713,8.927622,45.709999,52.779999,-49.349998,1729477238187.0,0.0
-3.318845,-1.383051,7.948956,16.73,30.73,-35.84,1729477238207.0,0.0
-1.861616,-1.371087,7.56132,-26.389999,8.05,-7.84,1729477238228.0,0.0
-1.256232,-2.134398,7.929814,-34.580002,-2.94,21.629999,1729477238245.0,0.0
-3.907479,-5.570491,7.501499,-40.810001,-25.34,33.880001,1729477238265.0,0.0
-3.175276,-4.905287,6.850651,-36.119999,-35.07,44.799999,1729477238287.0,0.0
-0.70349,-3.182454,6.546762,-49.209999,-34.439999,58.52,1729477238308.0,0.0
-1.730011,-9.734003,6.266802,-76.160004,-36.189999,66.5,1729477238326.0,0.0
-4.163511,-16.701902,6.910471,-28.84,-35.349998,21.98,1729477238347.0,0.0
-5.730811,-12.911672,5.919843,60.48,9.73,-26.74,1729477238364.0,0.0
-6.125626,-4.350152,6.319445,99.75,43.400002,-55.439999,1729477238385.0,0.0
-3.900301,-2.744568,8.126025,56.139999,47.32,-55.650002,1729477238407.0,0.0
-2.804388,-4.283153,7.779066,-2.45,31.57,-59.080002,1729477238426.0,0.0
-2.945565,-3.194418,8.154739,23.309999,32.27,-40.950001,1729477238445.0,0.0
-3.081956,-2.289931,8.683553,21.49,23.379999,-31.57,1729477238465.0,0.0
-2.057827,-2.955136,7.769495,-17.57,-1.68,-6.58,1729477238486.0,0.0
-0.433101,-1.756332,7.018148,-35.560001,-12.25,14.42,1729477238506.0,0.0
-2.440679,-6.216553,5.819345,-40.18,-24.01,39.200001,1729477238528.0,0.0
-2.524428,-7.180861,5.395815,-43.75,-27.16,40.740002,1729477238544.0,0.0
-1.0002,-5.895915,7.936993,-7.63,-2.1,31.219999,1729477238565.0,0.0
-2.581856,-8.350951,7.479963,2.24,5.6,13.51,1729477238586.0,0.0
-4.941179,-10.423136,7.843673,41.509998,10.01,-2.38,1729477238606.0,0.0
-9.176475,-12.684352,6.273981,124.25,20.58,-31.43,1729477238625.0,0.0
-5.927022,-3.940979,7.546963,142.800003,51.59,-68.32,1729477238646.0,0.0
-2.421536,-2.199004,8.312666,96.32,54.040001,-69.230003,1729477238731.0,0.0
-1.799403,-2.667997,8.767302,38.220001,43.119999,-57.75,1729477238731.0,0.0
-2.359323,-1.440479,8.958728,15.4,40.32,-33.18,1729477238735.0,0.0
-2.581856,-2.785245,8.382057,-37.029999,15.05,-15.96,1729477238748.0,0.0
-1.205983,-3.605984,7.262216,-64.050003,-7.49,2.03,1729477238750.0,0.0
-0.497707,-1.361516,6.530013,-45.080002,-8.54,22.33,1729477238765.0,0.0
-3.802195,-4.469792,6.908078,-46.48,-26.110001,38.290001,1729477238785.0,0.0
-3.929015,-4.541577,6.386444,-59.080002,-40.810001,46.830002,1729477238806.0,0.0
-1.61037,-4.371687,6.484549,-58.099998,-37.380001,59.709999,1729477238826.0,0.0
-2.768496,-10.616954,7.312466,-65.309998,-48.509998,56.84,1729477238844.0,0.0
-3.448057,-14.299508,5.20439,-14.35,-49.630001,17.290001,1729477238865.0,0.0
-6.678369,-7.88435,5.508278,112.770004,18.83,-38.779999,1729477238885.0,0.0
-6.238089,-2.067399,9.042477,103.739998,41.16,-56.700001,1729477238909.0,0.0
-3.192025,-2.682354,9.028119,25.76,31.01,-60.48,1729477238927.0,0.0
-2.581856,-4.034299,7.925028,-5.81,14.84,-49.77,1729477238946.0,0.0
-3.036492,-1.79701,8.11167,23.1,22.049999,-31.01,1729477238964.0,0.0
-2.696711,-0.830309,8.166703,-17.99,4.41,-12.6,1729477238984.0,0.0
-1.289732,-2.591427,6.209375,-73.639999,-18.41,9.45,1729477239006.0,0.0
-0.662812,-3.828516,5.754738,-64.959999,-16.66,29.190001,1729477239026.0,0.0
-3.67059,-6.912865,6.652047,-32.619999,-18.27,31.92,1729477239045.0,0.0
-3.400201,-5.20439,6.762117,-12.81,-14.35,29.4,1729477239071.0,0.0
-0.921237,-3.115455,7.185646,-3.85,-3.29,34.790001,1729477239084.0,0.0
-2.402394,-7.920243,8.752945,-1.61,-3.78,35.0,1729477239107.0,0.0
-5.335995,-12.454641,7.240681,28.07,-14.77,7.63,1729477239126.0,0.0
-6.269196,-10.001998,7.094719,100.169998,15.75,-18.969999,1729477239145.0,0.0
-6.606583,-3.897908,6.958328,110.459999,34.299999,-50.889999,1729477239165.0,0.0
-3.086741,-2.871387,8.879765,69.650002,43.959999,-50.259998,1729477239185.0,0.0
-2.794817,-3.237489,8.843873,-3.5,26.040001,-38.290001,1729477239209.0,0.0
-2.861816,-2.641676,8.906086,-6.86,19.74,-17.15,1729477239229.0,0.0
-2.419144,-2.445465,8.587841,-23.24,4.13,-2.17,1729477239246.0,0.0
-1.464408,-1.691726,6.690332,-38.5,-11.41,13.37,1729477239267.0,0.0
-2.443072,-3.9338,7.384251,-23.450001,-15.4,37.799999,1729477239285.0,0.0
-4.429115,-4.728218,7.326823,-28.77,-31.780001,40.740002,1729477239308.0,0.0
-2.742175,-3.402594,6.001199,-24.360001,-33.670002,52.639999,1729477239328.0,0.0
-1.148555,-6.084948,6.60419,-10.43,-24.85,60.549999,1729477239346.0,0.0
-3.426522,-11.298907,7.712067,-4.34,-18.34,38.150002,1729477239366.0,0.0
-4.955536,-13.548162,10.841879,38.779999,0.35,3.57,1729477239387.0,0.0
-7.197611,-8.293523,8.267202,66.150002,11.97,-41.650002,1729477239407.0,0.0
-5.546563,-3.175276,6.338587,53.549999,28.07,-54.740002,1729477239430.0,0.0
-3.175276,-1.804188,7.88435,8.4,33.32,-57.189999,1729477239447.0,0.0
-3.881158,-2.943172,8.712267,1.75,18.129999,-34.299999,1729477239468.0,0.0
-3.0006,-0.736989,9.276974,8.33,8.61,-16.52,1729477239489.0,0.0
-2.402394,0.16989,7.956135,-29.889999,-16.799999,11.48,1729477239508.0,0.0
-1.399801,-1.433301,6.611369,-68.040001,-31.639999,43.889999,1729477239529.0,0.0
-3.270989,-5.326423,5.998806,-75.949997,-45.43,54.740002,1729477239548.0,0.0
-3.007778,-4.37408,6.403193,-46.900002,-38.849998,62.02,1729477239568.0,0.0
-1.397408,-3.895515,6.422336,-36.540001,-29.610001,69.93,1729477239588.0,0.0
-2.277967,-9.52822,7.401,-39.900002,-26.809999,68.669998,1729477239609.0,0.0
-3.888337,-13.440485,8.245667,-12.18,-20.23,30.030001,1729477239630.0,0.0
-5.333601,-11.837293,8.147561,55.439999,9.66,-12.53,1729477239647.0,0.0
-6.376873,-4.85743,5.443672,77.980003,31.01,-51.029999,1729477239667.0,0.0
-4.625326,-2.928815,7.752745,55.23,44.66,-51.170002,1729477239689.0,0.0
-3.818945,-3.89073,9.075976,16.24,38.5,-57.330002,1729477239707.0,0.0
-3.821337,-2.981457,8.726624,12.74,27.719999,-49.279999,1729477239727.0,0.0
-3.218346,-0.236889,8.559127,23.030001,22.4,-23.309999,1729477239750.0,0.0
-2.404787,-0.760918,8.080563,-12.67,-4.55,2.31,1729477239767.0,0.0
-1.222732,-2.770889,6.376873,-54.740002,-20.790001,26.32,1729477239791.0,0.0
-3.259024,-6.317052,6.099305,-64.540001,-37.099998,46.900002,1729477239808.0,0.0
-2.828316,-5.809773,5.4676,-37.799999,-30.450001,48.860001,1729477239829.0,0.0
-0.784846,-5.613562,6.092126,-20.23,-10.64,48.439999,1729477239849.0,0.0
-2.866602,-10.667203,8.592626,-9.87,-1.47,33.25,1729477239869.0,0.0
-4.938786,-13.227524,9.298509,44.52,4.97,-12.74,1729477239887.0,0.0
-6.312266,-5.532206,8.650054,99.540001,35.84,-43.470001,1729477239911.0,0.0
-6.101698,-2.541178,6.929615,84.139999,42.630001,-53.900002,1729477239930.0,0.0
-3.278167,-3.113062,6.374479,39.48,45.779999,-60.549999,1729477239949.0,0.0
-3.842873,-2.811567,8.173882,52.150002,49.349998,-55.790001,1729477239969.0,0.0
-4.192225,-1.45005,9.789038,57.400002,39.34,-36.049999,1729477239989.0,0.0
-3.4672,-1.462015,9.992428,27.719999,18.969999,-10.99,1729477240007.0,0.0
-3.132205,-1.897508,8.324631,-30.73,-17.99,3.64,1729477240028.0,0.0
-1.895115,-2.368894,7.082755,-51.59,-29.33,31.639999,1729477240048.0,0.0
-3.361916,-5.314459,6.396015,-70.489998,-47.32,38.849998,1729477240067.0,0.0
-3.127419,-5.783452,6.242875,-62.16,-50.330002,42.77,1729477240087.0,0.0
-1.481157,-4.673182,5.728417,-41.299999,-38.080002,43.68,1729477240110.0,0.0
-2.182254,-10.336994,6.896115,-24.290001,-27.16,38.57,1729477240129.0,0.0
-3.67059,-11.94497,8.489735,44.170002,2.94,-13.93,1729477240149.0,0.0
-6.348158,-8.250452,10.210175,106.540001,25.48,-53.619999,1729477240168.0,0.0
-5.587241,-2.667997,8.513663,99.260002,28.84,-75.110001,1729477240187.0,0.0
-3.615555,-0.605384,6.98465,59.150002,34.720001,-64.050003,1729477240209.0,0.0
-3.397808,-1.931008,6.728617,22.960001,32.970001,-57.540001,1729477240230.0,0.0
-4.677969,-1.56012,6.876972,19.809999,31.290001,-48.02,1729477240247.0,0.0
-4.548756,-0.265603,8.475377,34.299999,37.59,-22.75,1729477240268.0,0.0
-3.689733,-1.277767,8.379664,1.61,10.85,-2.31,1729477240287.0,0.0
-2.385644,-2.87378,7.858029,-17.710001,-3.29,19.950001,1729477240309.0,0.0
-2.971886,-4.666004,7.582855,-37.310001,-16.66,24.92,1729477240330.0,0.0
-2.679961,-3.570091,7.738388,-32.130001,-18.620001,33.810001,1729477240347.0,0.0
-1.574477,-2.825923,6.45105,-42.349998,-20.16,42.139999,1729477240366.0,0.0
-1.514657,-5.630312,7.152147,-47.389999,-15.05,45.150002,1729477240388.0,0.0
-2.553142,-8.243275,8.712267,-28.210001,-9.66,34.369999,1729477240409.0,0.0
-6.886543,-11.810973,9.638289,8.19,-12.95,10.08,1729477240429.0,0.0
-5.67099,-6.936793,7.24786,21.77,-9.31,-23.940001,1729477240448.0,0.0
-4.252046,-4.034299,6.568298,20.440001,11.97,-22.889999,1729477240467.0,0.0
-4.429115,-5.551349,7.685746,-17.5,11.76,-43.049999,1729477240487.0,0.0
-4.572684,-4.261617,8.329416,-2.66,15.89,-50.189999,1729477240509.0,0.0
-3.381058,-0.87338,9.028119,14.21,14.0,-36.82,1729477240527.0,0.0
-3.058028,-0.184247,9.300901,-3.01,-2.66,-9.03,1729477240548.0,0.0
-2.572284,-0.887737,8.324631,-50.119999,-27.860001,11.97,1729477240567.0,0.0
-2.787638,-3.026921,7.62114,-73.150002,-36.470001,30.799999,1729477240588.0,0.0
-3.917051,-4.290331,6.171089,-81.340004,-41.860001,34.790001,1729477240609.0,0.0
-3.718446,-4.517649,6.912865,-52.849998,-29.82,42.07,1729477240630.0,0.0
-4.055835,-4.309474,8.535198,-35.77,-17.710001,41.509998,1729477240646.0,0.0
-3.431308,-4.582255,9.109475,-42.98,-18.27,35.0,1729477240666.0,0.0
-2.914458,-6.192625,8.506484,-69.790001,-11.97,31.5,1729477240688.0,0.0
-4.465007,-6.659225,7.913064,-121.520004,-17.639999,19.25,1729477240707.0,0.0
-4.508078,-7.57089,7.207181,-150.220001,-21.559999,21.139999,1729477240726.0,0.0
-3.56052,-7.200003,5.965307,-156.869995,-31.219999,11.62,1729477240747.0,0.0
-2.562713,-4.359723,7.276574,-99.540001,-31.5,32.900002,1729477240768.0,0.0
-3.07717,-4.735396,7.542177,-58.52,-28.49,48.720001,1729477240786.0,0.0
-3.158526,-6.908078,5.82413,-131.880005,-51.099998,34.720001,1729477240810.0,0.0
-2.569891,-8.16431,3.651447,-188.509995,-57.400002,24.99,1729477240827.0,0.0
-1.756332,-9.743573,2.818745,-219.520004,-53.060001,20.09,1729477240846.0,0.0
-1.639083,-10.564312,2.9336,-242.619995,-42.700001,7.0,1729477240869.0,0.0
-1.605584,-11.239087,2.40718,-239.540009,-32.830002,-4.13,1729477240888.0,0.0
-0.87338,-11.014162,0.693919,-199.360001,-14.21,-11.27,1729477240922.0,0.0
-1.091127,-10.360922,0.349352,-160.720001,8.26,-19.040001,1729477240927.0,0.0
-1.677369,-9.98525,0.586242,-128.520004,11.76,-17.85,1729477240946.0,0.0
-1.828116,-9.008978,1.651048,-73.919998,14.35,-11.48,1729477240967.0,0.0
-2.127219,-7.886744,2.021935,-18.200001,17.85,-3.64,1729477240987.0,0.0
-3.072384,-7.886744,2.392823,-0.21,17.360001,5.81,1729477241007.0,0.0
-3.591627,-7.965706,1.414158,-9.17,14.07,12.39,1729477241029.0,0.0
-7.288538,-13.124631,5.04407,1.54,6.23,11.83,1729477241047.0,0.0
-4.173083,-10.655239,4.041477,57.540001,-17.710001,1.68,1729477241067.0,0.0
-4.584648,-6.738188,4.127619,34.93,19.67,-2.1,1729477241087.0,0.0
-5.627919,-8.676375,2.502892,-62.790001,8.96,-4.69,1729477241114.0,0.0
-4.934,-12.203396,0.004786,-158.410004,13.16,-37.380001,1729477241127.0,0.0
-2.835495,-10.4016,-0.897308,-111.230003,31.43,-37.450001,1729477241148.0,0.0
-0.354138,-10.085747,2.421536,12.95,25.27,-49.279999,1729477241168.0,0.0
0.440279,-5.352744,4.974678,71.470001,23.1,-26.950001,1729477241188.0,0.0
0.471386,-4.505685,6.396015,66.360001,-1.61,-11.69,1729477241207.0,0.0
-0.933201,-8.123632,4.431508,12.39,-24.08,-3.15,1729477241228.0,0.0
-1.543371,-8.664411,2.778067,-15.12,-29.82,2.87,1729477241248.0,0.0
-0.928415,-7.963314,2.598605,7.98,-40.950001,18.690001,1729477241266.0,0.0
-1.914258,-5.441278,0.591027,3.99,-36.68,30.030001,1729477241288.0,0.0
-3.57727,-8.85823,-1.004985,9.73,-36.400002,49.700001,1729477241308.0,0.0
-6.458229,-12.059827,0.200997,-33.599998,-54.389999,39.27,1729477241331.0,0.0
-6.647261,-13.701303,-1.423729,-88.830002,-53.48,29.610001,1729477241349.0,0.0
-5.802595,-13.46202,-4.780859,-140.910004,-12.32,6.3,1729477241367.0,0.0
-4.393222,-15.799807,-4.110869,-88.059998,18.41,-23.309999,1729477241389.0,0.0
-4.228118,-11.825329,0.29671,28.07,53.689999,-40.459999,1729477241408.0,0.0
-3.438486,-4.378866,1.713261,71.260002,73.43,-51.170002,1729477241429.0,0.0
-0.39003,-5.278566,6.867401,113.610001,38.080002,-27.09,1729477241449.0,0.0
1.914258,-5.501099,7.432107,84.840004,14.84,-27.370001,1729477241469.0,0.0
-1.227518,-5.520242,8.480164,4.48,-9.52,-7.35,1729477241490.0,0.0
-1.292124,-5.895915,3.854837,-62.790001,-42.420002,3.43,1729477241508.0,0.0
-0.284746,-8.181061,0.437887,-74.830002,-44.240002,23.799999,1729477241531.0,0.0
-2.268396,-10.133603,-1.308874,-66.779999,-35.77,17.710001,1729477241547.0,0.0
-3.180061,-7.259824,-2.720639,-37.939999,-41.23,32.41,1729477241567.0,0.0
-3.567699,-8.956335,-2.782853,14.49,-41.580002,52.849998,1729477241588.0,0.0
-5.446064,-11.47837,-2.254039,8.26,-38.220001,41.790001,1729477241609.0,0.0
-5.575277,-14.134403,-2.206182,-4.69,-27.16,30.030001,1729477241639.0,0.0
-5.058427,-13.189239,-4.237689,-40.110001,5.88,3.43,1729477241651.0,0.0
-5.034499,-15.065211,-1.51705,-0.56,32.130001,-14.84,1729477241670.0,0.0
-4.668397,-12.94517,1.344766,42.0,54.810001,-42.560001,1729477241689.0,0.0
-3.359523,-7.219146,3.026921,49.0,69.160004,-64.120003,1729477241710.0,0.0
-0.842274,-6.104091,7.087541,24.99,45.150002,-43.82,1729477241729.0,0.0
2.349752,-5.556134,6.171089,38.57,4.9,-47.459999,1729477241750.0,0.0
1.07677,-5.285746,7.798209,47.18,5.6,-11.2,1729477241770.0,0.0
-0.868595,-5.496314,5.745167,-9.24,-18.690001,-5.18,1729477241789.0,0.0
-1.368695,-7.448857,1.942972,-70.840004,-40.25,14.35,1729477241810.0,0.0
-1.395016,-7.520642,-0.832702,-85.470001,-50.68,22.82,1729477241834.0,0.0
-1.837688,-6.642475,-2.457429,-45.849998,-48.23,40.670002,1729477241848.0,0.0
-2.981457,-6.503692,-1.921437,-0.77,-45.5,54.810001,1729477241868.0,0.0
-4.993821,-11.432907,-0.495314,24.15,-45.920002,65.800003,1729477241890.0,0.0
-7.278966,-16.331015,-0.607777,-8.4,-37.099998,52.57,1729477241912.0,0.0
-7.702496,-17.92942,-5.290531,-105.349998,-8.68,-3.78,1729477241931.0,0.0
-4.957928,-14.892928,-3.120241,-94.709999,30.24,-21.84,1729477241950.0,0.0
-4.022335,-13.354343,-1.055235,20.370001,70.629997,-44.240002,1729477241969.0,0.0
-3.694518,-10.566705,0.837488,69.160004,87.43,-66.709999,1729477241990.0,0.0
-2.225325,-5.113462,3.108276,43.68,77.769997,-61.18,1729477242010.0,0.0
0.921237,-2.548356,8.946764,51.099998,51.380001,-27.65,1729477242029.0,0.0
2.553142,-4.424329,7.996813,73.779999,-4.69,7.98,1729477242049.0,0.0
-1.861616,-6.082555,5.132604,-7.14,-21.210001,11.62,1729477242069.0,0.0
-3.098706,-8.652447,0.978664,-72.660004,-48.369999,21.42,1729477242089.0,0.0
-1.392623,-7.987241,-2.057827,-79.099998,-68.809998,39.830002,1729477242110.0,0.0
-0.880559,-7.819745,-2.139183,-26.880001,-71.68,57.400002,1729477242130.0,0.0
-4.426722,-11.172089,-2.608176,-8.05,-55.650002,66.150002,1729477242149.0,0.0
-8.970692,-18.695124,-0.459422,-6.93,-44.240002,33.25,1729477242168.0,0.0
-8.408379,-17.211573,-2.957529,-62.09,-19.530001,-11.27,1729477242190.0,0.0
-5.517848,-11.724831,-2.423929,-74.550003,39.970001,-32.900002,1729477242210.0,0.0
-4.24726,-11.997612,-0.894916,-39.48,57.049999,-49.279999,1729477242230.0,0.0
-3.122634,-11.351551,-0.557528,-30.59,69.650002,-68.389999,1729477242249.0,0.0
-1.852045,-7.173682,1.864009,-20.790001,68.949997,-57.889999,1729477242270.0,0.0
0.222532,-2.902494,4.371687,9.03,58.66,-28.700001,1729477242290.0,0.0
3.172883,-3.268596,6.73101,81.830002,12.11,-5.32,1729477242309.0,0.0
0.79681,-6.116055,6.12084,35.279999,-18.620001,7.63,1729477242331.0,0.0
-2.366502,-8.68116,2.813959,-41.369999,-28.49,7.28,1729477242348.0,0.0
-0.880559,-7.881958,-2.790031,-68.809998,-57.189999,9.45,1729477242369.0,0.0
-0.880559,-7.161718,-4.177868,-17.639999,-65.870003,44.099998,1729477242388.0,0.0
-2.031506,-8.815158,-5.166104,15.96,-47.599998,58.380001,1729477242410.0,0.0
-7.176075,-16.213766,-0.744168,28.07,-20.370001,56.07,1729477242430.0,0.0
-9.690931,-18.118454,-1.765903,-38.5,-16.1,-3.22,1729477242450.0,0.0
-6.273981,-13.469198,-5.381458,-69.860001,21.0,-17.290001,1729477242470.0,0.0
-3.416951,-12.937992,-3.613162,29.120001,47.389999,-31.15,1729477242489.0,0.0
-4.180261,-11.609976,-1.284946,85.190002,87.5,-54.810001,1729477242511.0,0.0
-4.046263,-8.114061,1.914258,75.949997,96.669998,-63.07,1729477242529.0,0.0
-1.378266,-2.447858,2.952743,35.209999,87.43,-38.360001,1729477242548.0,0.0
3.393023,-3.675375,9.968499,112.07,38.360001,-12.11,1729477242569.0,0.0
2.818745,-4.644469,8.405986,64.330002,-10.85,5.53,1729477242588.0,0.0
-2.541178,-6.65444,6.331409,-46.48,-18.129999,7.84,1729477242610.0,0.0
-3.151347,-9.487542,0.868595,-120.190002,-63.139999,11.9,1729477242629.0,0.0
-1.385444,-9.236296,-3.062813,-130.130005,-75.599998,25.969999,1729477242649.0,0.0
-0.739382,-7.412964,-4.618148,-70.840004,-70.629997,43.889999,1729477242669.0,0.0
-1.847259,-8.092526,-4.386044,-2.66,-60.41,54.880001,1729477242688.0,0.0
-7.936993,-18.357735,0.815953,30.17,-31.99,68.459999,1729477242709.0,0.0
-8.798409,-17.333607,-4.192225,-53.830002,-11.48,-18.34,1729477242731.0,0.0
-5.491528,-12.287145,-4.632504,-31.01,36.470001,-17.219999,1729477242749.0,0.0
-3.266203,-12.41875,-2.548356,48.650002,55.299999,-36.75,1729477242768.0,0.0
-3.684947,-10.911271,-0.61017,82.739998,81.900002,-58.66,1729477242790.0,0.0
-3.249453,-6.82433,1.603191,70.559998,90.370003,-54.32,1729477242809.0,0.0
-0.760918,-2.167897,3.9338,42.77,77.139999,-32.619999,1729477242831.0,0.0
2.986243,-3.213561,8.063812,92.260002,33.740002,-6.51,1729477242848.0,0.0
1.100698,-6.281159,9.001799,37.939999,-4.06,4.76,1729477242869.0,0.0
-2.758924,-8.336594,4.881358,-61.599998,-26.880001,0.84,1729477242889.0,0.0
-2.426322,-10.688738,1.174876,-95.340004,-71.260002,7.42,1729477242912.0,0.0
-0.653241,-6.802795,-3.572484,-92.470001,-78.190002,22.4,1729477242931.0,0.0
-0.303888,-5.534599,-5.438886,-32.900002,-71.400002,48.720001,1729477242948.0,0.0
-2.87378,-8.468199,-5.197211,-6.58,-48.790001,59.849998,1729477242969.0,0.0
-7.054041,-16.094126,-2.402394,40.599998,-17.85,65.940002,1729477242988.0,0.0
-9.741181,-19.635502,0.404387,32.130001,-6.37,9.03,1729477243009.0,0.0
-7.274181,-13.105491,-3.0006,-54.599998,19.25,-14.7,1729477243030.0,0.0
-4.816752,-13.596018,-1.162912,25.549999,51.380001,-59.849998,1729477243050.0,0.0
-4.833502,-12.16511,-0.131605,46.900002,60.27,-73.919998,1729477243070.0,0.0
-3.393023,-7.733603,-0.349352,46.200001,60.619999,-75.739998,1729477243088.0,0.0
0.011964,-6.183054,3.675375,75.110001,48.23,-66.080002,1729477243109.0,0.0
2.251646,-4.503292,4.352544,131.880005,27.370001,-52.009998,1729477243128.0,0.0
0.5001,-3.48395,5.273781,99.540001,24.639999,-30.73,1729477243156.0,0.0
0.193819,-4.287938,5.706882,25.549999,-13.09,-7.14,1729477243168.0,0.0
0.425922,-6.376873,3.426522,-49.84,-42.91,11.48,1729477243188.0,0.0
-0.358923,-7.635497,0.981057,-69.019997,-39.830002,25.200001,1729477243210.0,0.0
-0.48335,-6.623333,-1.761117,-35.07,-38.080002,46.549999,1729477243239.0,0.0
-1.751546,-8.573483,-3.541377,-3.99,-31.85,69.019997,1729477243250.0,0.0
-6.515656,-17.036898,-0.124427,2.31,-18.48,51.310001,1729477243269.0,0.0
-9.387043,-21.889544,0.744168,-24.5,-24.639999,15.68,1729477243290.0,0.0
-5.505885,-15.603597,-2.634498,-31.710001,14.7,-22.190001,1729477243309.0,0.0
-4.103691,-10.638489,-3.629912,40.32,45.849998,-46.27,1729477243329.0,0.0
-3.804588,-8.437093,-0.040678,78.260002,59.990002,-69.510002,1729477243349.0,0.0
-0.39003,-7.054041,3.828516,105.769997,52.150002,-61.389999,1729477243367.0,0.0
0.897308,-5.644669,5.795416,122.290001,43.540001,-48.299999,1729477243390.0,0.0
0.339781,-3.493521,6.565905,88.410004,23.030001,-32.689999,1729477243410.0,0.0
0.612563,-3.926622,6.970293,25.969999,-12.6,-7.84,1729477243431.0,0.0
0.555135,-6.099305,4.780859,-50.959999,-38.990002,7.49,1729477243450.0,0.0
0.090927,-6.508478,2.538785,-74.199997,-43.82,22.960001,1729477243469.0,0.0
0.354138,-4.168297,-0.600598,-62.439999,-45.360001,51.450001,1729477243491.0,0.0
-1.411765,-7.91785,-2.191825,-58.099998,-37.52,72.169998,1729477243511.0,0.0
-4.412365,-13.127025,-2.146362,-40.389999,-26.32,62.23,1729477243532.0,0.0
-7.04447,-17.412571,0.571885,-33.740002,-30.940001,58.66,1729477243549.0,0.0
-6.106483,-15.376277,-1.536192,-83.510002,-15.82,17.780001,1729477243570.0,0.0
-4.65404,-14.00519,-1.172483,-56.420002,16.17,-3.08,1729477243589.0,0.0
-4.500899,-14.201403,-1.45005,-23.59,28.630001,-38.290001,1729477243610.0,0.0
-2.897708,-13.246667,0.397209,42.98,41.650002,-64.75,1729477243630.0,0.0
-1.72044,-9.533006,3.132205,94.57,53.130001,-60.060001,1729477243648.0,0.0
1.481157,-3.854837,4.17069,114.169998,31.780001,-36.259998,1729477243739.0,0.0
1.249053,-3.156133,4.536791,61.599998,15.190001,-22.049999,1729477243752.0,0.0
-1.184447,-6.252446,5.058427,-18.48,-0.56,-0.77,1729477243763.0,0.0
-1.596013,-8.736196,3.029313,-59.290001,-21.98,10.15,1729477243770.0,0.0
-0.863809,-7.085148,1.646262,-42.700001,-27.860001,21.0,1729477243772.0,0.0
-0.591027,-5.331209,-0.710668,-8.54,-25.200001,43.540001,1729477243772.0,0.0
-1.567299,-6.252446,-0.914058,5.18,-18.059999,51.869999,1729477243790.0,0.0
-2.589034,-10.325029,-1.26341,14.63,-17.360001,68.949997,1729477243811.0,0.0
-7.085148,-17.568104,1.588834,6.23,-24.85,52.639999,1729477243831.0,0.0
-7.783852,-15.960127,0.378066,-32.970001,-22.610001,23.030001,1729477243850.0,0.0
-5.190032,-13.466805,-2.244468,-41.23,13.3,-0.77,1729477243874.0,0.0
-4.800002,-14.366508,-1.251446,-6.51,22.33,-49.139999,1729477243890.0,0.0
-4.378866,-12.27518,2.885744,50.400002,38.779999,-58.380001,1729477243914.0,0.0
-3.227918,-6.762117,2.574677,37.310001,51.310001,-73.919998,1729477243931.0,0.0
-0.674776,-7.786245,5.630312,35.560001,28.77,-53.34,1729477243950.0,0.0
0.634098,-3.337988,4.445865,35.0,10.57,-42.490002,1729477243971.0,0.0
0.736989,-4.37408,6.022735,38.360001,-2.59,-5.74,1729477243990.0,0.0
-0.514457,-6.178268,3.84048,-42.560001,-18.969999,4.34,1729477244011.0,0.0
-1.069592,-9.367901,2.347359,-46.27,-25.34,17.639999,1729477244032.0,0.0
-0.411566,-6.443871,0.224925,-17.780001,-26.389999,34.23,1729477244060.0,0.0
-0.181855,-6.809973,-1.107877,17.01,-24.99,51.240002,1729477244106.0,0.0
-3.505485,-13.289737,0.928415,-9.87,-30.030001,55.02,1729477244111.0,0.0
-6.427122,-16.563118,0.526421,-43.259998,-50.119999,30.52,1729477244114.0,0.0
-4.728218,-14.481362,-2.206182,-56.279999,-15.12,16.799999,1729477244135.0,0.0
-3.998406,-14.086546,-3.065206,-36.119999,14.0,-15.05,1729477244187.0,0.0
-3.615555,-12.784851,-1.349552,19.530001,34.650002,-41.299999,1729477244188.0,0.0
-3.270989,-10.911271,2.39043,81.340004,57.610001,-49.420002,1729477244190.0,0.0
-2.574677,-5.919843,1.875973,41.369999,61.950001,-56.209999,1729477244223.0,0.0
-0.409173,-7.99442,5.888737,40.32,36.75,-38.290001,1729477244237.0,0.0
1.72044,-5.192425,5.166104,47.810001,15.96,-48.790001,1729477244249.0,0.0
0.404387,-3.026921,5.962914,59.5,11.34,4.2,1729477244269.0,0.0
-0.78006,-5.273781,5.472386,-9.1,-14.84,8.4,1729477244290.0,0.0
-1.397408,-8.463413,1.655833,-69.370003,-39.759998,25.129999,1729477244309.0,0.0
-0.145962,-9.24826,0.753739,-12.04,-37.52,37.380001,1729477244331.0,0.0
-1.354338,-8.781659,0.275175,7.77,-38.009998,48.09,1729477244351.0,0.0
-4.17069,-12.59821,0.935594,-19.6,-43.75,49.490002,1729477244369.0,0.0
-4.898108,-15.684953,0.291924,-74.970001,-45.5,34.09,1729477244389.0,0.0
-3.68734,-14.538791,-3.672983,-112.840004,-13.51,8.89,1729477244413.0,0.0
-3.507878,-14.282759,-1.887937,-54.459999,17.15,-17.43,1729477244532.0,0.0
-3.991228,-14.928822,0.734596,12.67,39.060001,-43.68,1729477244534.0,0.0
-3.364309,-8.736196,1.832902,24.780001,51.59,-60.27,1729477244535.0,0.0
-1.18684,-6.51087,2.273181,49.98,45.360001,-45.43,1729477244536.0,0.0
1.428515,-3.426522,5.194818,84.209999,22.049999,-55.720001,1729477244538.0,0.0
1.383051,-0.782453,5.417351,89.599998,18.48,0.42,1729477244539.0,0.0
-0.990629,-3.943372,6.675975,27.93,-0.91,16.799999,1729477244548.0,0.0
-3.218346,-8.882158,4.204189,-71.610001,-25.129999,28.07,1729477244569.0,0.0
-1.316052,-8.315059,1.069592,-80.220001,-41.580002,34.860001,1729477244590.0,0.0
-0.567099,-9.446864,1.069592,-9.03,-31.290001,52.360001,1729477244610.0,0.0
-4.254438,-10.571491,-0.074178,24.92,-32.759998,56.139999,1729477244631.0,0.0
-7.721639,-16.11566,1.806581,-27.02,-35.279999,45.080002,1729477244650.0,0.0
-6.005985,-15.854843,-4.338188,-109.270004,-16.870001,3.85,1729477244670.0,0.0
-3.818945,-14.773287,-3.900301,-55.860001,25.969999,-21.210001,1729477244689.0,0.0
-4.211368,-13.459626,-1.241875,31.219999,58.310001,-45.57,1729477244710.0,0.0
-3.302095,-11.940186,1.804188,72.660004,63.490002,-72.940002,1729477244730.0,0.0
-1.665405,-7.369894,1.648655,45.990002,57.260002,-63.209999,1729477244749.0,0.0
0.81356,-5.513064,5.087141,60.830002,40.950001,-62.02,1729477244770.0,0.0
2.222932,-1.959722,4.354938,108.010002,22.960001,-32.970001,1729477244789.0,0.0
0.368495,-2.292324,8.13799,118.230003,13.3,-4.06,1729477244810.0,0.0
-2.098505,-4.144369,6.664011,3.85,-13.09,19.74,1729477244831.0,0.0
-2.031506,-6.183054,3.787838,-94.639999,-38.990002,30.870001,1729477244849.0,0.0
-1.031307,-9.463614,-1.710868,-99.75,-46.41,48.509998,1729477244869.0,0.0
-2.739782,-13.263416,-1.265803,-50.049999,-47.880001,38.220001,1729477244890.0,0.0
-5.02732,-17.225931,-0.356531,-12.88,-39.970001,33.880001,1729477244918.0,0.0
-5.407779,-17.139788,-0.471386,-0.63,-21.139999,1.26,1729477244931.0,0.0
-4.04387,-12.107682,-2.349752,-33.950001,23.309999,-21.139999,1729477244950.0,0.0
-2.87378,-12.160326,0.952343,-26.040001,36.259998,-49.420002,1729477244969.0,0.0
-2.354537,-10.167104,2.888137,22.68,43.330002,-64.400002,1729477244989.0,0.0
-0.87338,-5.496314,1.069592,-4.34,35.07,-56.349998,1729477245010.0,0.0
1.911865,-7.563712,5.302495,68.040001,3.36,-55.02,1729477245030.0,0.0
0.818345,-2.713461,5.190032,57.889999,7.63,-27.16,1729477245050.0,0.0
0.854238,-2.555535,5.592027,37.799999,-14.84,3.36,1729477245069.0,0.0
-0.346959,-5.819345,4.328616,-55.02,-31.85,18.129999,1729477245089.0,0.0
-1.148555,-9.032906,1.828116,-101.849998,-38.43,29.469999,1729477245111.0,0.0
-0.72024,-9.327222,-1.706082,-69.93,-42.84,41.93,1729477245131.0,0.0
-1.462015,-10.750952,-2.931208,3.15,-37.310001,47.670002,1729477245149.0,0.0
-4.685147,-13.062418,-1.875973,14.42,-24.08,44.799999,1729477245170.0,0.0
-6.74776,-18.807585,0.244068,-9.59,-17.290001,18.620001,1729477245191.0,0.0
-4.491328,-14.751752,-2.921637,-48.860001,11.06,-22.75,1729477245211.0,0.0
-2.476572,-12.224932,-2.230111,0.07,40.110001,-42.139999,1729477245230.0,0.0
-2.467,-11.68176,2.091327,41.369999,50.330002,-58.869999,1729477245249.0,0.0
-1.648655,-8.279166,2.191825,14.42,52.009998,-62.09,1729477245270.0,0.0
0.674776,-7.972885,3.828516,19.32,38.5,-49.07,1729477245289.0,0.0
1.555335,-1.765903,5.850451,79.379997,14.28,-30.1,1729477245311.0,0.0
1.07677,-1.655833,7.089933,71.959999,-15.68,11.27,1729477245330.0,0.0
-1.091127,-5.388636,5.211568,-61.389999,-34.509998,23.940001,1729477245349.0,0.0
-2.191825,-9.513863,1.361516,-149.449997,-51.029999,30.52,1729477245369.0,0.0
-0.923629,-9.836893,-2.050649,-115.5,-58.240002,41.09,1729477245391.0,0.0
-1.06002,-10.293922,-2.517249,-22.540001,-52.009998,50.68,1729477245410.0,0.0
-3.65384,-12.031113,-2.476572,5.88,-43.889999,49.560001,1729477245430.0,0.0
-6.266802,-17.393427,-1.399801,-22.120001,-42.560001,30.59,1729477245451.0,0.0
-5.522634,-16.151552,-3.811767,-64.120003,-26.460001,-15.89,1729477245471.0,0.0
-3.024528,-12.301501,-3.787838,-31.290001,22.049999,-30.380001,1729477245489.0,0.0
-2.471786,-11.490334,0.0335,20.51,48.790001,-60.27,1729477245511.0,0.0
-2.112862,-8.530413,3.053242,13.440001,58.939999,-67.129997,1729477245531.0,0.0
-0.902094,-6.695118,5.855237,-5.88,47.32,-44.029999,1729477245549.0,0.0
2.995814,-7.458428,4.898108,48.299999,8.33,-55.510002,1729477245569.0,0.0
1.842474,-3.017349,5.364708,59.010002,7.91,-14.35,1729477245590.0,0.0
1.775474,-4.024727,6.017949,19.18,-24.01,3.15,1729477245610.0,0.0
0.059821,-7.178468,3.108276,-99.050003,-36.330002,22.610001,1729477245630.0,0.0
-0.55992,-8.736196,-1.550549,-114.520004,-41.93,37.029999,1729477245650.0,0.0
-0.004786,-7.334002,-4.587041,-46.48,-39.900002,57.75,1729477245669.0,0.0
-0.461815,-8.659625,-4.311867,20.860001,-27.440001,63.700001,1729477245690.0,0.0
-4.125226,-12.512069,-2.945565,21.98,-12.18,74.970001,1729477245710.0,0.0
-9.592826,-22.15275,2.318645,-17.219999,-4.69,32.48,1729477245729.0,0.0
-5.003392,-15.21596,-3.536592,-110.32,17.639999,-15.82,1729477245749.0,0.0
-1.808974,-11.985649,-4.046263,-60.48,35.560001,-32.619999,1729477245770.0,0.0
-1.825724,-12.476178,-1.509871,-17.639999,52.220001,-53.34,1729477245789.0,0.0
-2.136791,-7.501499,0.021535,-37.939999,64.470001,-52.43,1729477245810.0,0.0
0.538385,-10.834702,4.426722,51.59,39.759998,-29.4,1729477245832.0,0.0
2.261217,-5.316852,4.692325,96.459999,11.97,-49.0,1729477245849.0,0.0
0.545564,-1.5003,4.960321,77.279999,8.82,-2.8,1729477245871.0,0.0
-0.378066,-4.359723,3.725625,-18.34,-38.5,8.19,1729477245888.0,0.0
-1.246661,-8.82473,0.418744,-133.979996,-55.299999,17.5,1729477245914.0,0.0
-0.952343,-9.769895,-2.823531,-135.449997,-76.160004,17.360001,1729477245931.0,0.0
0.177069,-8.834301,-5.687739,-42.139999,-70.980003,36.119999,1729477245949.0,0.0
-2.89053,-13.39502,-6.12084,-7.84,-54.880001,45.709999,1729477245969.0,0.0
-6.575477,-18.63291,-4.680361,-40.740002,2.31,9.87,1729477245988.0,0.0
-4.575077,-14.737395,-6.139983,-8.82,32.689999,-2.45,1729477246009.0,0.0
-2.146362,-11.980864,-3.567699,58.73,51.240002,-31.780001,1729477246030.0,0.0
-3.09392,-11.073983,0.638884,86.660004,69.230003,-40.110001,1729477246048.0,0.0
-2.249253,-5.651847,0.27996,38.220001,66.57,-46.27,1729477246070.0,0.0
0.894916,-10.573883,4.555934,107.590004,29.75,-41.16,1729477246089.0,0.0
1.083949,-5.486742,5.405386,106.889999,29.68,-38.360001,1729477246111.0,0.0
1.062413,-3.5007,5.575277,101.43,3.64,-16.52,1729477246132.0,0.0
-0.631705,-5.223531,5.534599,0.7,-31.01,0.56,1729477246149.0,0.0
-0.55992,-8.666803,1.758725,-105.910004,-54.110001,7.63,1729477246169.0,0.0
0.064606,-8.506484,-1.596013,-119.910004,-62.23,17.5,1729477246188.0,0.0
0.435494,-8.54477,-4.886144,-57.260002,-60.41,36.049999,1729477246210.0,0.0
-1.062413,-8.573483,-4.852644,-12.46,-42.91,42.630001,1729477246230.0,0.0
-2.828316,-11.650653,-4.54397,-3.92,-23.73,56.0,1729477246249.0,0.0
-6.474977,-20.207388,-0.392423,-23.59,-0.21,26.74,1729477246269.0,0.0
-4.945964,-15.32603,-5.460421,-98.279999,18.059999,-14.77,1729477246290.0,0.0
-2.701497,-13.399807,-3.266203,-25.83,37.099998,-28.559999,1729477246309.0,0.0
-2.924029,-10.786844,-1.270589,19.530001,67.340004,-70.419998,1729477246330.0,0.0
-1.019342,-6.01077,-2.431108,2.45,70.279999,-59.639999,1729477246349.0,0.0
2.457429,-9.439686,6.314659,108.989998,41.09,-45.779999,1729477246368.0,0.0
3.349952,-2.100898,3.778267,139.860001,37.450001,-34.23,1729477246390.0,0.0
1.533799,-2.667997,5.82413,155.820007,22.610001,3.22,1729477246409.0,0.0
-0.823131,-4.457829,3.76391,21.139999,-12.25,14.63,1729477246429.0,0.0
-1.349552,-8.518449,0.236889,-80.779999,-45.220001,27.790001,1729477246448.0,0.0
-0.562313,-8.812766,-3.778267,-87.43,-55.580002,43.119999,1729477246469.0,0.0
-1.552942,-9.707682,-3.337988,-36.119999,-44.939999,54.040001,1729477246489.0,0.0
-3.723232,-14.560326,-1.758725,-45.080002,-36.189999,42.209999,1729477246510.0,0.0
-5.862415,-17.986849,-2.883351,-66.220001,-20.23,15.89,1729477246529.0,0.0
-4.393222,-13.4022,-5.453243,-59.709999,16.309999,-0.98,1729477246548.0,0.0
-2.682354,-11.827723,-4.074977,-17.780001,29.120001,-23.66,1729477246570.0,0.0
-2.103291,-11.394621,-1.521835,9.03,52.080002,-35.209999,1729477246588.0,0.0
-0.421137,-7.860423,0.064606,12.39,57.189999,-37.799999,1729477246610.0,0.0
2.017149,-10.49492,4.503292,88.059998,37.099998,-24.15,1729477246630.0,0.0
0.382852,-4.443472,5.056034,86.309998,31.639999,-25.48,1729477246648.0,0.0
0.658026,-6.362515,3.146562,25.76,-14.7,-5.67,1729477246670.0,0.0
-0.009571,-7.977671,2.431108,-52.150002,-36.540001,-0.98,1729477246689.0,0.0
0.689133,-8.547162,-0.052642,-46.619999,-46.970001,11.69,1729477246711.0,0.0
0.502493,-8.575876,-1.596013,-15.68,-41.299999,22.049999,1729477246728.0,0.0
-0.090927,-7.23111,-2.792424,-5.95,-38.080002,35.0,1729477246749.0,0.0
-0.89013,-8.786445,-3.290131,26.530001,-34.790001,54.110001,1729477246769.0,0.0
-4.591826,-14.256437,-1.445265,10.64,-24.01,50.540001,1729477246788.0,0.0
-6.924829,-18.704695,-1.993221,-36.119999,-16.450001,22.190001,1729477246809.0,0.0
-3.627519,-13.959727,-5.965307,-80.360001,11.48,-14.56,1729477246830.0,0.0
-1.129412,-11.3683,-3.881158,0.77,34.720001,-13.93,1729477246848.0,0.0
-2.069792,-11.344372,-0.985843,68.529999,68.32,-28.280001,1729477246870.0,0.0
-3.302095,-10.631311,0.198604,56.490002,74.830002,-42.77,1729477246890.0,0.0
-1.526621,-8.056634,0.9667,4.69,61.389999,-41.16,1729477246912.0,0.0
1.457229,-8.700303,3.797409,10.01,37.73,-35.07,1729477246929.0,0.0
2.261217,-5.331209,4.890929,60.060001,26.389999,-26.74,1729477246950.0,0.0
0.545564,-4.206582,6.029913,63.77,-1.96,1.33,1729477246968.0,0.0
-0.990629,-7.881958,2.397608,-56.279999,-48.299999,7.77,1729477246989.0,0.0
0.200997,-8.9348,-1.751546,-90.440002,-65.870003,17.639999,1729477247009.0,0.0
1.088734,-8.362915,-5.424529,-61.599998,-57.119999,31.15,1729477247030.0,0.0
-0.215354,-8.126025,-7.121039,-25.48,-31.85,46.759998,1729477247055.0,0.0
-2.976671,-12.574283,-5.9677,-8.4,10.71,56.420002,1729477247068.0,0.0
-6.388836,-18.491734,-3.134598,-29.26,57.119999,25.34,1729477247090.0,0.0
-5.84088,-16.654045,-2.019542,-17.219999,70.07,-4.83,1729477247109.0,0.0
-2.904887,-12.844672,0.325424,68.459999,72.379997,-20.58,1729477247129.0,0.0
-2.230111,-9.090333,0.629312,45.990002,66.57,-46.689999,1729477247149.0,0.0
-0.851845,-7.616355,3.842873,40.040001,30.940001,-53.760002,1729477247170.0,0.0
-0.636491,-7.630712,3.471986,10.15,6.86,-43.330002,1729477247190.0,0.0
-1.07677,-8.611769,1.806581,-54.25,-17.57,-47.459999,1729477247209.0,0.0
-0.533599,-9.276974,0.064606,-58.869999,-35.560001,-46.619999,1729477247230.0,0.0
0.445065,-8.666803,-0.100499,-19.879999,-35.560001,-37.029999,1729477247249.0,0.0
1.086342,-6.848258,-0.801596,15.68,-32.759998,-24.710001,1729477247270.0,0.0
0.985843,-5.335995,-1.031307,34.09,-31.08,-6.51,1729477247289.0,0.0
0.277567,-6.991827,-1.241875,30.24,-24.710001,23.66,1729477247310.0,0.0
-0.753739,-8.879765,-0.002393,15.47,-20.790001,37.939999,1729477247332.0,0.0
-1.462015,-10.25803,0.172283,-15.68,-21.42,43.540001,1729477247349.0,0.0
-1.036092,-10.265208,-0.803988,-58.240002,-18.969999,35.630001,1729477247370.0,0.0
-0.70349,-9.853643,-2.065006,-97.160004,-10.01,33.529999,1729477247389.0,0.0
-0.31346,-9.250652,-2.194218,-133.979996,-6.23,32.759998,1729477247410.0,0.0
-0.299103,-9.255438,-2.22054,-175.559998,-6.65,31.710001,1729477247430.0,0.0
-1.067199,-9.74836,-3.115455,-200.899994,-10.71,31.01,1729477247449.0,0.0
-1.677369,-10.475778,-4.015156,-196.070007,-13.86,23.940001,1729477247469.0,0.0
-2.275574,-10.9352,-4.429115,-163.309998,-19.32,18.690001,1729477247489.0,0.0
-2.730211,-13.811372,-4.548756,-97.160004,-15.12,9.8,1729477247510.0,0.0
-2.457429,-12.983455,-5.505885,-66.709999,-13.02,-10.85,1729477247531.0,0.0
-3.141776,-9.879964,-5.233103,-48.299999,-7.14,-16.52,1729477247550.0,0.0
-1.782653,-8.815158,-5.716454,-9.31,-1.26,-8.05,1729477247570.0,0.0
-1.674976,-9.934999,-5.259424,22.68,28.559999,3.57,1729477247591.0,0.0
-2.371287,-7.89153,-0.531207,-21.629999,46.970001,0.84,1729477247612.0,0.0
-2.667997,-7.783852,-3.050849,-92.120003,38.639999,2.45,1729477247631.0,0.0
-0.622134,-7.898707,-2.517249,-104.230003,17.360001,8.61,1729477247650.0,0.0
1.019342,-11.552547,-3.180061,-7.49,-11.41,18.549999,1729477247670.0,0.0
0.306281,-10.332209,-1.928615,59.5,3.92,5.11,1729477247690.0,0.0
-0.638884,-8.236095,-1.777867,68.599998,-2.1,1.61,1729477247711.0,0.0
-0.48335,-7.391429,-3.426522,15.89,-35.0,-1.26,1729477247731.0,0.0
-1.363909,-7.908278,-4.046263,-50.119999,-40.950001,-4.83,1729477247750.0,0.0
-1.801795,-8.939585,-5.216353,-64.889999,-45.080002,-11.83,1729477247774.0,0.0
-1.347159,-8.939585,-9.954143,-37.73,-66.43,-8.96,1729477247791.0,0.0
-6.144768,-8.693125,-7.436893,-32.48,-29.26,-10.92,1729477247810.0,0.0
-7.173682,-6.362515,-11.600404,-5.32,18.48,-11.13,1729477247831.0,0.0
-3.491128,-8.41795,-9.01137,11.69,6.16,17.92,1729477247850.0,0.0
-0.557528,-8.762517,-3.991228,32.900002,25.620001,17.5,1729477247870.0,0.0
-1.457229,-9.300901,-3.742374,90.300003,53.549999,20.23,1729477247890.0,0.0
-1.418944,-6.257231,-1.323231,46.689999,48.580002,11.13,1729477247913.0,0.0
-0.665205,-8.159525,-1.847259,-4.55,12.25,13.440001,1729477247931.0,0.0
-0.646062,-9.882358,-2.158326,-25.48,14.42,4.2,1729477247950.0,0.0
1.4668,-8.635696,-2.452643,-3.36,-17.290001,-1.12,1729477247970.0,0.0
0.224925,-9.200402,-2.026721,27.23,-29.610001,5.81,1729477247990.0,0.0
-2.806781,-8.877372,-2.445465,18.27,-14.42,-11.55,1729477248012.0,0.0
-2.658426,-7.956135,-5.000999,13.79,-45.220001,-9.38,1729477248032.0,0.0
-1.062413,-6.9679,-7.877172,-29.469999,-74.269997,-6.72,1729477248050.0,0.0
-2.328217,-11.466407,-13.497912,-94.360001,-44.869999,-6.16,1729477248071.0,0.0
-6.570691,-13.660624,-4.756931,-125.650002,14.21,-24.85,1729477248091.0,0.0
-7.077969,-10.222138,-7.372287,-11.41,50.959999,-19.6,1729477248111.0,0.0
-1.945365,-7.865208,-5.503492,77.139999,20.860001,-4.34,1729477248134.0,0.0
0.971486,-7.956135,-4.283153,87.639999,32.689999,-6.09,1729477248150.0,0.0
-0.854238,-8.348558,-4.567898,41.509998,72.870003,-2.66,1729477248170.0,0.0
-1.600798,-9.260223,-1.835295,10.71,74.900002,-5.53,1729477248190.0,0.0
-0.090927,-8.822337,-0.90688,24.43,43.82,-3.43,1729477248210.0,0.0
2.048256,-7.240681,0.222532,50.259998,18.9,-3.85,1729477248231.0,0.0
-0.732204,-9.109475,-0.531207,55.299999,-7.84,-5.88,1729477248250.0,0.0
-3.692125,-9.01137,-0.040678,28.210001,-16.52,-19.530001,1729477248271.0,0.0
-2.524428,-7.872386,-3.306881,1.47,-58.869999,-11.55,1729477248290.0,0.0
-0.375673,-5.998806,-5.661418,-42.420002,-89.739998,-4.76,1729477248312.0,0.0
-1.428515,-9.824929,-10.049855,-79.169998,-67.410004,2.45,1729477248331.0,0.0
-4.596612,-14.914464,-10.095319,-78.68,-15.05,-10.92,1729477248349.0,0.0
-6.144768,-11.437693,-7.62114,-15.61,41.580002,-15.54,1729477248370.0,0.0
-2.538785,-7.678568,-4.512863,62.299999,36.330002,-3.85,1729477248390.0,0.0
0.239282,-8.233703,-5.704489,87.5,36.049999,-2.17,1729477248412.0,0.0
-0.89013,-7.984849,-5.067998,41.299999,69.860001,-6.3,1729477248431.0,0.0
-1.756332,-7.972885,-1.421337,12.53,73.290001,-1.96,1729477248449.0,0.0
0.315853,-7.288538,-1.550549,14.42,42.77,-1.96,1729477248471.0,0.0
1.619941,-6.675975,1.691726,41.93,22.33,10.36,1729477248490.0,0.0
0.526421,-7.82453,0.26321,63.630001,3.01,15.61,1729477248510.0,0.0
-2.112862,-8.135597,0.696311,38.080002,-8.4,10.29,1729477248531.0,0.0
-2.065006,-8.049455,1.081556,-1.75,-45.150002,13.93,1729477248551.0,0.0
-1.191626,-9.064013,-4.642076,-74.480003,-89.389999,8.12,1729477248569.0,0.0
-2.440679,-14.560326,-11.353944,-115.57,-77.699997,-0.84,1729477248590.0,0.0
-5.32403,-13.820943,-8.496914,-84.559998,-31.5,-20.790001,1729477248611.0,0.0
-5.161318,-7.838887,-9.554541,-19.460001,19.809999,-20.02,1729477248630.0,0.0
-2.167897,-7.149754,-6.537192,35.490002,22.82,1.54,1729477248650.0,0.0
-0.244068,-10.109675,-5.546563,67.410004,35.420002,7.63,1729477248742.0,0.0
-1.916651,-9.075976,-5.108676,54.950001,75.040001,-1.12,1729477248744.0,0.0
-2.268396,-7.683353,-2.830709,31.780001,81.129997,0.56,1729477248751.0,0.0
-0.425922,-9.217153,-0.411566,26.389999,42.209999,2.31,1729477248752.0,0.0
1.825724,-8.348558,0.990629,36.75,20.440001,-8.96,1729477248753.0,0.0
0.476172,-9.24108,2.115255,55.299999,-5.53,-7.77,1729477248770.0,0.0
-2.809174,-8.963513,1.155733,4.27,-27.16,-33.529999,1729477248790.0,0.0
-2.651247,-7.9681,-0.98345,-47.880001,-62.09,-29.889999,1729477248810.0,0.0
0.222532,-6.886543,-3.744767,-86.449997,-101.709999,-23.940001,1729477248830.0,0.0
0.681954,-4.843073,-7.334002,-121.169998,-94.57,-13.93,1729477248850.0,0.0
-1.564906,-10.109675,-11.100305,-93.660004,-66.360001,0.42,1729477248870.0,0.0
-6.07777,-15.615561,-9.592826,-24.43,-13.16,-6.3,1729477248889.0,0.0
-4.309474,-9.616754,-6.788438,86.519997,52.5,-4.69,1729477248914.0,0.0
0.947558,-7.415358,-3.407379,86.029999,23.870001,-8.47,1729477248930.0,0.0
1.062413,-8.729016,-4.311867,45.639999,51.170002,-14.21,1729477248950.0,0.0
-0.607777,-8.477771,-2.758924,-0.98,77.489998,-14.98,1729477248970.0,0.0
0.282353,-7.465607,0.282353,1.12,59.990002,-5.32,1729477248989.0,0.0
2.086541,-5.742774,1.588834,-11.48,21.07,-0.49,1729477249010.0,0.0
1.069592,-8.145168,0.698704,-26.530001,-11.97,1.12,1729477249030.0,0.0
-2.103291,-8.910872,-1.639083,-55.790001,-27.440001,-15.190001,1729477249049.0,0.0
-2.309074,-7.188039,-3.302095,-84.209999,-49.560001,-12.39,1729477249069.0,0.0
-0.119641,-6.273981,-4.275974,-133.0,-97.510002,-14.07,1729477249096.0,0.0
-0.208176,-9.379865,-10.518847,-115.290001,-82.32,-8.75,1729477249110.0,0.0
-5.012963,-14.000405,-5.553742,-36.68,-31.710001,-9.73,1729477249130.0,0.0
-7.73121,-9.997212,-12.392428,9.38,48.720001,-6.02,1729477249151.0,0.0
-2.98385,-8.01117,-7.877172,14.21,19.530001,10.71,1729477249170.0,0.0
1.215554,-10.116854,-4.831109,41.299999,22.75,15.12,1729477249190.0,0.0
-0.129212,-8.738588,-4.54397,78.889999,62.23,9.59,1729477249212.0,0.0
-1.194018,-4.766503,-1.562513,61.040001,82.18,10.64,1729477249232.0,0.0
-0.004786,-7.066005,0.004786,18.34,37.380001,27.370001,1729477249250.0,0.0
1.777867,-7.51107,0.232104,2.52,5.53,15.61,1729477249270.0,0.0
0.430708,-9.717253,-1.217947,-4.69,-23.1,13.3,1729477249290.0,0.0
-2.340181,-9.992428,-3.589234,-20.299999,-30.380001,-9.45,1729477249313.0,0.0
-1.651048,-7.963314,-5.953342,-21.42,-53.27,-13.16,1729477249331.0,0.0
1.404587,-6.333801,-7.23111,-27.719999,-87.989998,-9.1,1729477249350.0,0.0
0.993021,-6.915257,-5.795416,-82.040001,-64.959999,-1.47,1729477249370.0,0.0
-3.969693,-12.593425,-6.446264,-139.509995,-32.549999,-9.73,1729477249392.0,0.0
-8.128418,-10.609775,-11.590833,-108.779999,23.799999,-19.389999,1729477249412.0,0.0
-2.445465,-8.255238,-9.616754,-8.96,-5.95,1.75,1729477249431.0,0.0
2.861816,-8.779266,-5.783452,57.260002,1.12,9.66,1729477249451.0,0.0
-0.248854,-9.801002,-4.407579,68.599998,65.870003,12.32,1729477249471.0,0.0
-2.986243,-8.16431,-3.85723,50.68,80.849998,8.82,1729477249490.0,0.0
-1.162912,-5.778666,-2.268396,15.96,50.259998,16.379999,1729477249512.0,0.0
1.722832,-7.795816,-0.332602,4.34,16.870001,25.129999,1729477249531.0,0.0
-0.224925,-9.473185,-1.95015,5.88,-8.89,15.47,1729477249550.0,0.0
-3.282953,-10.016356,-3.223132,-6.23,-19.67,-10.22,1729477249572.0,0.0
-2.830709,-8.391629,-5.771489,5.18,-46.900002,-12.11,1729477249592.0,0.0
0.485743,-5.472386,-7.805387,0.91,-93.239998,-6.72,1729477249613.0,0.0
-0.425922,-7.893922,-9.96132,-65.590004,-74.830002,-1.19,1729477249633.0,0.0
-7.381857,-11.937792,-7.255038,-140.979996,7.56,-18.620001,1729477249651.0,0.0
-8.248059,-10.310673,-13.677374,-60.830002,45.290001,-22.26,1729477249672.0,0.0
-1.519442,-7.491928,-8.65484,53.970001,3.57,7.84,1729477249691.0,0.0
2.333002,-7.448857,-7.094719,90.93,25.48,3.57,1729477249715.0,0.0
-1.428515,-7.769495,-5.039285,49.139999,101.290001,10.08,1729477249732.0,0.0
-2.098505,-6.245267,-1.952543,4.9,91.279999,0.98,1729477249752.0,0.0
-0.258425,-8.16431,0.787239,21.07,39.549999,20.51,1729477249771.0,0.0
1.919044,-6.197411,2.165504,19.18,0.77,0.7,1729477249792.0,0.0
-0.428315,-9.332008,-2.880959,-4.2,-23.309999,2.1,1729477249817.0,0.0
-3.395415,-9.348758,-4.821537,-52.220001,-37.099998,-23.73,1729477249833.0,0.0
-0.588634,-8.721838,-7.532606,-33.32,-87.080002,-17.99,1729477249851.0,0.0
1.667797,-6.226124,-8.047063,-27.790001,-94.989998,-17.08,1729477249872.0,0.0
-1.289732,-8.736196,-12.947563,-67.340004,-49.0,-7.28,1729477249892.0,0.0
-7.219146,-11.255837,-8.985049,-99.75,28.91,-14.49,1729477249916.0,0.0
-6.709475,-10.676775,-9.829715,-0.49,54.389999,0.42,1729477249933.0,0.0
-0.452243,-7.558927,-5.730811,77.0,7.63,13.23,1729477249951.0,0.0
0.181855,-8.233703,-5.369494,71.190002,38.150002,5.6,1729477249972.0,0.0
-2.782853,-7.173682,-4.031906,-7.98,88.340004,0.84,1729477249992.0,0.0
-1.12702,-7.068398,-1.160519,-32.41,46.689999,8.47,1729477250012.0,0.0
1.842474,-7.977671,-0.205783,-14.14,0.35,11.9,1729477250033.0,0.0
1.344766,-8.334201,-1.057628,-5.53,-13.72,0.28,1729477250051.0,0.0
-2.129612,-9.801002,-4.331009,-15.12,-27.370001,-21.49,1729477250071.0,0.0
-2.553142,-7.987241,-6.297909,-11.2,-42.700001,-33.25,1729477250091.0,0.0
1.131805,-5.486742,-7.546963,16.73,-91.349998,-28.07,1729477250112.0,0.0
1.777867,-6.391229,-9.458827,11.34,-74.550003,-12.6,1729477250135.0,0.0
-2.871387,-9.315259,-9.439686,-93.449997,-28.77,-15.26,1729477250151.0,0.0
-6.539584,-7.855636,-9.999605,-136.570007,26.25,-15.54,1729477250172.0,0.0
-1.727618,-6.111269,-9.06162,3.36,6.44,16.309999,1729477250191.0,0.0
0.370888,-6.379266,-7.936993,56.420002,24.5,23.17,1729477250212.0,0.0
-3.215954,-8.843873,-5.481956,24.290001,85.68,28.559999,1729477250233.0,0.0
-2.778067,-7.190433,-2.885744,-24.290001,64.82,14.21,1729477250251.0,0.0
0.20339,-7.826923,-1.404587,-15.61,20.09,16.870001,1729477250272.0,0.0
2.084148,-7.503892,-1.069592,2.17,-11.27,5.53,1729477250292.0,0.0
-0.461815,-9.389436,-4.510471,12.18,-25.129999,-8.96,1729477250313.0,0.0
-2.555535,-8.305488,-5.965307,4.48,-28.210001,-31.08,1729477250332.0,0.0
-0.689133,-7.460821,-7.264609,51.869999,-63.279999,-26.18,1729477250351.0,0.0
1.79701,-5.108676,-8.228917,75.809998,-81.129997,-20.02,1729477250371.0,0.0
-1.85683,-7.128219,-9.403792,1.19,-50.119999,-7.14,1729477250391.0,0.0
-7.456036,-9.473185,-9.049655,-106.470001,29.26,-9.59,1729477250412.0,0.0
-5.393422,-8.901299,-11.279767,-68.389999,4.9,1.68,1729477250432.0,0.0
-0.066999,-8.097312,-8.059027,37.240002,0.7,18.200001,1729477250452.0,0.0
-0.01675,-7.070791,-7.200003,80.5,41.09,23.52,1729477250472.0,0.0
-2.878566,-7.941778,-3.615555,61.670002,81.690002,23.870001,1729477250491.0,0.0
-0.265603,-7.211967,-0.646062,43.330002,23.030001,27.23,1729477250512.0,0.0
1.138984,-8.207381,-0.495314,55.93,-3.99,19.18,1729477250535.0,0.0
-0.349352,-10.090532,-3.273381,36.889999,-22.469999,0.84,1729477250551.0,0.0
-2.579463,-10.700702,-5.211568,10.64,-24.15,-25.83,1729477250571.0,0.0
-1.741975,-9.020942,-7.085148,35.420002,-42.700001,-28.280001,1729477250592.0,0.0
1.509871,-5.986843,-7.334002,83.510002,-80.57,-22.68,1729477250612.0,0.0
0.325424,-4.948357,-9.016156,53.060001,-63.139999,-11.97,1729477250632.0,0.0
-4.572684,-6.843473,-4.302295,-58.450001,1.68,-6.09,1729477250651.0,0.0
-6.305088,-9.018548,-10.96152,-132.440002,2.31,-4.76,1729477250671.0,0.0
-2.799603,-10.705488,-11.751152,-69.370003,8.12,9.73,1729477250691.0,0.0
-0.701097,-10.516455,-8.250452,73.220001,44.310001,24.08,1729477250715.0,0.0
-2.804388,-6.491727,-3.68734,109.129997,98.980003,16.870001,1729477250735.0,0.0
-2.675175,-5.242674,0.26321,40.599998,87.080002,16.379999,1729477250751.0,0.0
-0.777667,-8.796017,1.490728,-15.68,22.540001,15.68,1729477250772.0,0.0
1.057628,-10.195816,-0.428315,-16.870001,-12.74,-2.66,1729477250791.0,0.0
0.167498,-11.420943,-3.115455,7.77,-36.189999,-20.02,1729477250812.0,0.0
-2.203789,-8.504091,-4.780859,20.299999,-34.509998,-41.16,1729477250832.0,0.0
-0.323031,-5.838487,-6.608976,69.230003,-67.269997,-29.190001,1729477250851.0,0.0
1.007378,-3.792624,-7.800602,53.549999,-69.720001,-12.6,1729477250871.0,0.0
-2.134398,-8.671589,-7.087541,-21.98,-34.580002,7.91,1729477250891.0,0.0
-7.243074,-9.956534,-8.664411,-153.860001,29.049999,-16.030001,1729477250915.0,0.0
-5.632704,-10.521241,-12.05504,-89.809998,12.39,1.26,1729477250933.0,0.0
0.430708,-10.150353,-7.893922,31.219999,-7.98,10.29,1729477250951.0,0.0
0.27996,-8.776874,-5.592027,112.349998,46.830002,14.84,1729477250970.0,0.0
-3.409772,-6.74776,-0.98345,83.370003,101.080002,9.94,1729477250992.0,0.0
-1.942972,-8.819944,1.002593,52.43,38.639999,15.12,1729477251012.0,0.0
0.212961,-8.764909,-2.143969,32.27,-3.36,4.41,1729477251031.0,0.0
1.306481,-6.920043,-0.933201,38.639999,-4.06,3.78,1729477251050.0,0.0
0.358923,-7.898707,-1.928615,24.710001,-28.280001,5.74,1729477251071.0,0.0
-2.069792,-9.585647,-4.867002,-35.84,-22.469999,-10.78,1729477251092.0,0.0
-2.218147,-10.076177,-5.178068,-60.34,-41.720001,-20.299999,1729477251111.0,0.0
0.533599,-8.087741,-6.125626,-22.540001,-78.610001,-20.440001,1729477251139.0,0.0
0.887737,-5.85763,-7.185646,3.92,-65.379997,-8.47,1729477251151.0,0.0
-5.046463,-10.415956,-2.70389,-105.559998,-14.49,3.29,1729477251172.0,0.0
-8.939585,-11.480762,-8.432307,-152.389999,31.01,-13.02,1729477251191.0,0.0
-4.127619,-8.477771,-9.576077,-22.540001,0.35,14.84,1729477251212.0,0.0
1.663012,-8.02792,-7.558927,82.110001,-8.26,30.380001,1729477251232.0,0.0
-0.294317,-8.082954,-4.953143,88.830002,62.93,31.92,1729477251253.0,0.0
-3.570091,-7.84128,-2.825923,35.139999,100.169998,28.91,1729477251272.0,0.0
-2.055435,-6.742974,0.909273,-16.379999,44.029999,27.719999,1729477251292.0,0.0
0.191426,-8.597411,-1.947758,-17.43,-14.21,26.880001,1729477251312.0,0.0
1.138984,-8.281559,-4.35733,-27.23,-31.43,9.45,1729477251332.0,0.0
-1.347159,-10.557133,-6.139983,-45.990002,-24.639999,-8.19,1729477251351.0,0.0
-2.95035,-10.174281,-5.649454,-55.93,-21.07,-32.060001,1729477251372.0,0.0
-1.409373,-8.171489,-5.515456,-14.77,-57.540001,-33.25,1729477251393.0,0.0
-0.638884,-6.192625,-6.915257,-1.75,-63.209999,-27.93,1729477251414.0,0.0
-3.443272,-6.726225,-9.499505,-57.75,-31.08,-17.85,1729477251434.0,0.0
-8.551948,-9.142976,-12.083755,-92.330002,56.84,-19.110001,1729477251452.0,0.0
-2.18704,-7.530212,-7.518249,50.189999,17.290001,21.77,1729477251472.0,0.0
1.694118,-8.638089,-7.599605,125.160004,29.82,24.710001,1729477251493.0,0.0
-1.509871,-7.759924,-3.850052,79.239998,102.480003,18.059999,1729477251514.0,0.0
-2.084148,-7.133004,-0.555135,35.560001,86.029999,17.08,1729477251537.0,0.0
0.267996,-7.728817,-1.292124,31.780001,24.5,17.290001,1729477251553.0,0.0
2.160719,-6.589834,-0.543171,37.240002,7.7,12.53,1729477251572.0,0.0
0.459422,-8.815158,-2.117648,25.34,-12.04,10.43,1729477251592.0,0.0
-2.921637,-10.147961,-3.926622,-14.7,-10.5,-16.73,1729477251614.0,0.0
-3.17049,-9.205189,-4.792823,-14.98,-32.759998,-25.34,1729477251633.0,0.0
0.107677,-7.01097,-6.71426,14.28,-80.57,-17.710001,1729477251652.0,0.0
0.433101,-6.101698,-6.769295,12.67,-66.779999,-9.87,1729477251673.0,0.0
-3.227918,-7.724032,-9.631111,-36.470001,-26.74,1.12,1729477251692.0,0.0
-8.860621,-12.203396,-6.317052,-101.989998,18.9,-12.95,1729477251715.0,0.0
-7.350751,-10.090532,-10.939985,-44.170002,39.27,-6.65,1729477251733.0,0.0
-0.385244,-8.719445,-6.046663,69.160004,-3.43,14.07,1729477251753.0,0.0
-1.043271,-8.262416,-3.017349,109.270004,36.189999,9.1,1729477251772.0,0.0
-3.337988,-7.204789,-1.426122,28.210001,83.230003,1.47,1729477251792.0,0.0
-1.57687,-8.35813,-1.564906,10.29,22.469999,4.27,1729477251813.0,0.0
1.229911,-6.98465,-2.132005,21.559999,-5.18,1.05,1729477251833.0,0.0
1.538585,-6.838687,-1.136591,30.17,-14.49,2.73,1729477251856.0,0.0
-1.617548,-9.334401,-2.40718,7.49,-14.77,-7.21,1729477251872.0,0.0
-3.416951,-9.363115,-2.976671,-11.13,-23.17,-22.68,1729477251892.0,0.0
-1.282553,-7.829315,-5.271388,1.68,-66.849998,-14.21,1729477251917.0,0.0
0.284746,-6.515656,-7.288538,-13.23,-82.529999,-10.5,1729477251933.0,0.0
-1.430908,-7.51107,-8.927622,-68.25,-48.93,-4.83,1729477251952.0,0.0
-5.048856,-12.602997,-9.822537,-110.110001,-8.82,-4.41,1729477251973.0,0.0
-7.601997,-11.906685,-8.382057,-63.490002,40.529999,-20.299999,1729477251992.0,0.0
-3.759124,-8.530413,-7.57089,80.360001,21.139999,2.73,1729477252013.0,0.0
1.012164,-7.286145,-4.457829,92.260002,9.52,-2.1,1729477252034.0,0.0
-0.543171,-7.211967,-3.18724,22.68,50.68,-3.15,1729477252052.0,0.0
-2.155933,-8.532805,-1.710868,-29.610001,60.760002,-1.89,1729477252072.0,0.0
-1.17009,-9.119047,-2.529213,-5.04,11.06,-1.05,1729477252092.0,0.0
1.189233,-6.312266,-2.658426,33.880001,-2.45,-2.17,1729477252113.0,0.0
-0.18664,-8.662018,-2.120041,16.52,-19.110001,-0.49,1729477252133.0,0.0
-2.895315,-10.557133,-3.024528,-33.459999,-13.65,-21.42,1729477252152.0,0.0
-2.95035,-9.62154,-3.381058,-39.200001,-45.990002,-29.049999,1729477252172.0,0.0
-0.301496,-8.128418,-5.754738,-21.91,-84.209999,-29.33,1729477252192.0,0.0
0.502493,-5.79063,-7.724032,-36.75,-76.090004,-27.58,1729477252213.0,0.0
-1.136591,-5.556134,-9.363115,-91.139999,-51.59,-10.43,1729477252233.0,0.0
-4.960321,-11.018949,-6.453443,-162.820007,-8.19,-9.1,1729477252252.0,0.0
-5.4006,-11.289338,-11.361122,-93.169998,18.41,-12.32,1729477252272.0,0.0
-1.222732,-9.023334,-9.576077,88.760002,18.41,16.450001,1729477252292.0,0.0
0.502493,-8.152347,-6.644868,158.550003,34.650002,12.53,1729477252313.0,0.0
-2.132005,-6.106483,-1.995614,103.809998,80.989998,8.47,1729477252333.0,0.0
-2.782853,-6.07777,-0.892523,46.970001,62.16,14.77,1729477252352.0,0.0
-1.052842,-8.298308,-0.660419,42.560001,18.690001,18.48,1729477252371.0,0.0
0.303888,-8.420342,-0.741775,62.02,4.55,16.1,1729477252392.0,0.0
-0.811167,-8.939585,-0.997807,49.279999,-6.65,10.78,1729477252413.0,0.0
-3.316452,-10.083356,-3.617948,-19.040001,-12.53,-8.96,1729477252435.0,0.0
-1.79701,-9.312866,-6.599405,-56.98,-34.93,-16.59,1729477252452.0,0.0
0.701097,-6.498906,-7.21436,-79.309998,-66.709999,-17.57,1729477252472.0,0.0
0.105284,-5.996413,-7.786245,-105.07,-36.540001,-4.97,1729477252492.0,0.0
-4.907679,-12.796815,-7.087541,-86.800003,7.56,2.8,1729477252513.0,0.0
-8.059027,-10.916058,-11.904292,-26.18,59.010002,-13.86,1729477252533.0,0.0
-4.007978,-7.013363,-8.233703,38.220001,32.970001,4.69,1729477252551.0,0.0
0.684347,-8.470592,-6.640083,37.869999,27.93,-2.94,1729477252572.0,0.0
-1.028914,-7.982457,-4.127619,-9.38,84.629997,-3.85,1729477252592.0,0.0
-1.785046,-8.303094,-1.902294,9.52,81.199997,0.49,1729477252612.0,0.0
0.208176,-8.315059,-2.306681,72.309998,46.970001,4.41,1729477252633.0,0.0
1.887937,-5.907879,-0.533599,104.019997,32.41,9.52,1729477252653.0,0.0
1.28016,-6.386444,-0.535992,90.090004,11.9,18.129999,1729477252671.0,0.0
-1.770689,-8.726624,-1.414158,44.73,-4.2,11.34,1729477252692.0,0.0
-3.503092,-8.157133,-1.811367,-7.63,-20.02,-2.45,1729477252714.0,0.0
-1.146162,-7.334002,-5.599205,-53.619999,-73.220001,-1.19,1729477252732.0,0.0
0.378066,-6.817152,-7.334002,-104.720001,-87.290001,-4.27,1729477252752.0,0.0
-0.978664,-8.85823,-8.91805,-79.169998,-44.52,7.28,1729477252772.0,0.0
-6.422336,-11.181661,-7.393822,-23.1,14.35,6.09,1729477252792.0,0.0
-6.02752,-8.913264,-9.607183,26.880001,43.68,9.17,1729477252813.0,0.0
-1.26341,-7.633104,-5.84088,36.400002,10.85,17.01,1729477252834.0,0.0
0.026321,-8.712267,-5.675776,40.670002,35.349998,15.33,1729477252852.0,0.0
-2.35693,-8.030313,-4.254438,23.52,79.870003,15.33,1729477252872.0,0.0
-2.194218,-8.853443,-1.368695,28.35,60.130001,17.639999,1729477252892.0,0.0
-0.028714,-8.666803,-0.902094,49.420002,26.880001,14.28,1729477252915.0,0.0
1.354338,-6.685547,-1.521835,46.970001,4.34,9.52,1729477252933.0,0.0
0.619741,-8.267202,-3.084348,20.09,-13.79,6.51,1729477252951.0,0.0
-1.852045,-9.753145,-3.507878,-1.4,-13.3,-7.28,1729477252972.0,0.0
-2.57707,-8.429914,-2.713461,18.620001,-24.290001,-12.25,1729477252992.0,0.0
-0.619741,-6.649654,-4.163511,30.450001,-62.439999,-8.54,1729477253012.0,0.0
-0.167498,-7.130611,-4.254438,-0.84,-70.489998,-3.29,1729477253032.0,0.0
-2.014757,-9.209974,-5.596812,-38.709999,-51.170002,7.42,1729477253052.0,0.0
-4.579862,-12.339786,-6.202196,-45.150002,-35.84,6.23,1729477253072.0,0.0
-6.675975,-13.71566,-5.594419,-29.190001,-4.69,-3.64,1729477253091.0,0.0
-3.718446,-7.99442,-3.349952,-15.4,-3.36,-14.21,1729477253114.0,0.0
-1.651048,-6.348158,-0.40678,-32.41,-21.84,-6.09,1729477253133.0,0.0
-1.708475,-5.446064,-0.29671,-135.100006,-24.99,-9.45,1729477253151.0,0.0
-2.849852,-6.494121,-4.61097,-208.529999,-39.41,-12.18,1729477253180.0,0.0
-3.086741,-8.437093,-6.659225,-208.320007,-57.400002,-13.58,1729477253203.0,0.0
-2.316252,-8.640482,-10.750952,-121.449997,-61.880001,-13.65,1729477253213.0,0.0
-1.878366,-8.324631,-13.287343,-14.21,-34.580002,0.56,1729477253233.0,0.0
-1.299303,-8.539984,-8.116454,42.07,-9.66,0.7,1729477253252.0,0.0
-1.344766,-6.793223,-5.257031,33.459999,0.91,-1.05,1729477253272.0,0.0
-1.801795,-6.630512,-5.099105,-19.67,-4.55,-5.81,1729477253292.0,0.0
-1.701297,-7.087541,-6.513263,-65.169998,-17.85,-13.02,1729477253314.0,0.0
-1.651048,-7.317252,-7.829315,-89.879997,-21.91,-10.22,1729477253332.0,0.0
-2.038685,-8.477771,-7.568498,-84.910004,-8.61,-3.85,1729477253353.0,0.0
-2.404787,-8.338986,-8.60459,-34.580002,8.05,0.28,1729477253371.0,0.0
-2.261217,-7.657032,-9.131011,14.49,20.440001,6.65,1729477253393.0,0.0
-1.473979,-7.152147,-7.936993,9.31,31.360001,6.44,1729477253414.0,0.0
-1.533799,-7.707282,-7.269395,-9.31,46.41,7.21,1729477253434.0,0.0
-1.402194,-7.874779,-6.896115,-0.42,43.189999,3.71,1729477253452.0,0.0
-1.22034,-8.078169,-7.063612,20.65,37.099998,-0.07,1729477253473.0,0.0
-1.56012,-7.259824,-4.814359,27.370001,37.310001,-1.54,1729477253492.0,0.0
-2.699104,-5.534599,-4.39083,17.85,33.880001,2.66,1729477253515.0,0.0
-2.462214,-7.405786,-5.84088,48.299999,14.42,3.36,1729477253534.0,0.0
-1.923829,-5.759524,-7.843673,123.480003,9.73,9.87,1729477253554.0,0.0
-2.799603,-4.723432,-4.850252,121.870003,8.19,8.05,1729477253573.0,0.0
-2.242075,-4.699504,-6.89133,86.730003,4.27,-1.47,1729477253594.0,0.0
-1.639083,-4.74736,-8.475377,81.129997,-4.2,10.29,1729477253614.0,0.0
-1.22034,-5.304887,-8.300702,68.879997,0.84,9.24,1729477253634.0,0.0
-1.543371,-5.876772,-7.489535,44.799999,22.960001,14.07,1729477253737.0,0.0
-2.155933,-7.195218,-6.939186,-3.5,39.34,12.04,1729477253737.0,0.0
-2.380858,-8.724231,-5.855237,-39.830002,34.299999,9.59,1729477253738.0,0.0
-2.199004,-9.827322,-4.723432,-35.91,24.92,7.91,1729477253738.0,0.0
-2.143969,-10.001998,-5.089533,33.389999,13.72,8.96,1729477253738.0,0.0
-3.04367,-9.255438,-3.704089,52.43,30.59,15.96,1729477253756.0,0.0
-3.704089,-9.286544,-2.529213,42.560001,36.470001,12.32,1729477253774.0,0.0
-3.507878,-10.738988,-3.316452,34.580002,19.460001,12.11,1729477253794.0,0.0
-2.26361,-10.202995,-4.692325,14.07,2.03,3.99,1729477253814.0,0.0
-1.734797,-9.092726,-3.89073,-3.78,0.07,9.87,1729477253834.0,0.0
-2.06022,-8.362915,-3.558127,3.01,8.4,22.540001,1729477253854.0,0.0
-1.816152,-7.398607,-5.977271,23.379999,6.44,24.639999,1729477253873.0,0.0
-1.679761,-7.063612,-7.843673,34.860001,6.51,35.77,1729477253898.0,0.0
-1.426122,-9.126225,-8.063812,48.720001,18.41,34.509998,1729477253917.0,0.0
-0.629312,-9.288938,-6.400801,52.709999,10.71,22.75,1729477253934.0,0.0
-0.485743,-10.24846,-5.962914,64.120003,14.77,14.0,1729477253954.0,0.0
-1.629512,-8.587841,-3.39063,45.009998,16.379999,-2.73,1729477253975.0,0.0
-2.696711,-7.412964,-5.209175,35.84,19.67,-20.299999,1729477253993.0,0.0
-3.333202,-7.326823,-5.185246,14.77,17.780001,-40.810001,1729477254015.0,0.0
-2.991028,-7.896315,-3.885944,-10.85,-4.69,-49.98,1729477254034.0,0.0
-1.536192,-6.486942,-3.912265,-43.119999,-32.759998,-45.43,1729477254053.0,0.0
-0.89013,-6.202196,-5.350351,-40.810001,-42.07,-38.639999,1729477254073.0,0.0
-1.165305,-7.389036,-6.271588,-14.7,-28.42,-26.950001,1729477254093.0,0.0
-1.974079,-9.274581,-5.192425,5.95,5.04,-13.02,1729477254114.0,0.0
-3.182454,-10.834702,-1.952543,13.440001,36.889999,3.64,1729477254134.0,0.0
-3.65384,-10.25803,-0.98345,19.74,13.3,-5.11,1729477254156.0,0.0
-2.775674,-9.52822,-1.569692,20.16,-31.08,-12.04,1729477254175.0,0.0
-1.849652,-9.918249,-2.866602,3.5,-40.25,-8.33,1729477254194.0,0.0
-1.887937,-10.829915,-3.952943,-8.68,-29.26,-3.5,1729477254215.0,0.0
-2.443072,-11.607583,-3.220739,-7.28,-16.24,-7.14,1729477254236.0,0.0
-2.134398,-9.690931,-4.409972,-11.97,-9.24,-6.37,1729477254256.0,0.0
-1.45005,-8.51127,-5.737988,-18.620001,-9.45,3.15,1729477254273.0,0.0
-0.799203,-9.078369,-6.041877,4.97,-9.52,13.65,1729477254295.0,0.0
-0.839881,-8.061419,-7.927422,62.439999,8.96,28.98,1729477254314.0,0.0
-1.043271,-7.903493,-5.242674,147.910004,29.610001,33.389999,1729477254334.0,0.0
-1.569692,-6.623333,-4.132405,144.270004,28.630001,43.119999,1729477254353.0,0.0
-2.514857,-6.987042,-3.383451,91.910004,32.34,41.509998,1729477254373.0,0.0
-2.861816,-7.745567,-4.479364,27.93,26.809999,21.35,1729477254491.0,0.0
-3.127419,-7.223931,-5.010571,-4.06,17.710001,-0.21,1729477254492.0,0.0
-3.096312,-7.458428,-5.072784,-43.75,10.01,-23.450001,1729477254492.0,0.0
-2.574677,-8.484949,-3.165704,-96.459999,-8.96,-39.34,1729477254492.0,0.0
-1.586441,-7.60439,-3.117848,-156.449997,-36.75,-38.849998,1729477254493.0,0.0
-0.923629,-7.972885,-4.558327,-168.139999,-40.599998,-38.639999,1729477254501.0,0.0
-1.033699,-8.267202,-4.515256,-188.160004,-38.849998,-41.860001,1729477254514.0,0.0
-0.758525,-8.30788,-5.745167,-200.479996,-43.259998,-38.779999,1729477254536.0,0.0
-0.538385,-7.183254,-8.530413,-150.570007,-33.740002,-15.4,1729477254552.0,0.0
-0.624527,-7.288538,-5.905487,-109.900002,-6.93,14.42,1729477254572.0,0.0
-1.512264,-9.193225,-2.218147,-120.400002,25.83,33.18,1729477254593.0,0.0
-2.79721,-10.762917,-2.778067,-108.849998,16.17,30.030001,1729477254614.0,0.0
-2.957529,-12.019149,-4.596612,-46.41,-14.56,31.43,1729477254634.0,0.0
-2.404787,-8.606983,-4.991428,-18.690001,-37.029999,31.01,1729477254653.0,0.0
-2.861816,-6.441479,-7.929814,13.3,-25.620001,44.59,1729477254673.0,0.0
-3.065206,-6.216553,-9.288938,42.98,-17.57,54.880001,1729477254693.0,0.0
-2.866602,-7.238289,-9.997212,47.880001,-3.43,64.959999,1729477254715.0,0.0
-2.45025,-7.740781,-11.073983,83.720001,10.71,66.010002,1729477254734.0,0.0
-2.679961,-7.525427,-11.13859,119.349998,40.25,65.519997,1729477254753.0,0.0
-2.919244,-7.089933,-8.195417,141.75,71.330002,56.490002,1729477254773.0,0.0
-4.280759,-4.780859,-4.773681,106.959999,87.43,58.310001,1729477254793.0,0.0
-4.972286,-6.460621,-4.051049,55.860001,69.650002,44.799999,1729477254814.0,0.0
-4.498507,-8.707481,-3.65384,13.51,37.170002,28.700001,1729477254834.0,0.0
-3.723232,-9.537791,-4.292724,21.210001,18.549999,19.67,1729477254853.0,0.0
-3.498307,-8.310273,-5.000999,26.950001,17.08,6.58,1729477254873.0,0.0
-3.4672,-7.04447,-5.051248,30.799999,16.799999,-6.3,1729477254894.0,0.0
-3.165704,-6.850651,-5.338387,15.75,4.62,-15.89,1729477254917.0,0.0
-2.541178,-6.656832,-6.786045,-1.54,-3.64,-20.51,1729477254934.0,0.0
-2.055435,-6.242875,-7.9346,-6.37,-0.28,-23.799999,1729477254952.0,0.0
-1.70369,-6.290731,-7.386643,-12.95,4.76,-19.530001,1729477254973.0,0.0
-1.136591,-6.144768,-6.348158,-46.34,-0.7,-20.16,1729477254993.0,0.0
-0.863809,-6.893722,-6.221339,-78.889999,3.22,-20.790001,1729477255013.0,0.0
-1.038485,-7.482357,-6.314659,-127.68,10.08,-33.810001,1729477255036.0,0.0
-1.229911,-7.913064,-6.704689,-169.680008,8.96,-34.16,1729477255052.0,0.0
-1.416551,-7.286145,-6.659225,-93.870003,16.030001,-13.09,1729477255072.0,0.0
-2.773281,-6.242875,-7.523034,-47.810001,35.420002,2.1,1729477255093.0,0.0
-4.197011,-8.963513,-5.173282,-4.55,50.189999,9.87,1729477255115.0,0.0
-5.17089,-8.566305,-2.801995,6.16,41.720001,4.97,1729477255134.0,0.0
-4.888536,-8.520842,-3.055635,18.690001,1.61,-6.16,1729477255153.0,0.0
-3.945765,-7.977671,-5.120641,1.89,-26.880001,-15.82,1729477255173.0,0.0
-3.775874,-8.322237,-6.735795,-13.79,-29.469999,-22.82,1729477255192.0,0.0
-3.862016,-9.49472,-8.106883,-25.9,-23.870001,-30.66,1729477255215.0,0.0
-3.304488,-9.140583,-8.831908,-14.35,-20.440001,-35.91,1729477255234.0,0.0
-2.036292,-7.886744,-8.11167,10.78,-13.3,-31.92,1729477255252.0,0.0
-1.600798,-6.496514,-7.843673,27.23,-2.73,-15.54,1729477255273.0,0.0
-1.399801,-4.512863,-8.614161,24.92,7.42,-0.42,1729477255293.0,0.0
-1.122234,-3.558127,-10.523634,22.190001,25.27,28.42,1729477255313.0,0.0
-0.937986,-5.460421,-9.032906,71.75,32.970001,63.560001,1729477255335.0,0.0
-1.332802,-4.929214,-5.74756,112.139999,57.400002,87.150002,1729477255352.0,0.0
-2.562713,-4.027121,-4.819145,107.239998,66.290001,100.309998,1729477255372.0,0.0
-3.165704,-7.073184,-3.558127,25.9,40.810001,93.940002,1729477255393.0,0.0
-2.117648,-10.8682,-4.012764,-34.02,-5.39,59.779999,1729477255414.0,0.0
-1.009771,-12.514462,-6.326623,-0.7,-15.75,37.170002,1729477255433.0,0.0
-1.18684,-9.288938,-7.738388,46.200001,-4.55,13.93,1729477255454.0,0.0
-2.055435,-7.168896,-7.348359,65.239998,11.13,-8.12,1729477255472.0,0.0
-2.809174,-6.67119,-6.786045,48.650002,10.78,-29.26,1729477255492.0,0.0
-2.85703,-7.276574,-5.927022,33.32,-6.58,-54.25,1729477255514.0,0.0
-2.196611,-7.269395,-4.113262,35.630001,-34.720001,-69.440002,1729477255534.0,0.0
-1.974079,-5.501099,-6.865008,40.599998,-49.700001,-70.489998,1729477255563.0,0.0
-2.684747,-3.988836,-8.69791,-1.96,-40.950001,-73.849998,1729477255572.0,0.0
-3.785445,-4.237689,-6.690332,-58.029999,-10.22,-69.720001,1729477255593.0,0.0
-4.505685,-5.718846,-6.163911,-129.149994,-0.42,-60.900002,1729477255613.0,0.0
-3.54377,-7.467999,-6.458229,-168.699997,-22.26,-51.380001,1729477255634.0,0.0
-1.512264,-8.449057,-5.986843,-152.110001,-34.720001,-33.459999,1729477255653.0,0.0
-0.830309,-8.484949,-5.489135,-100.590004,-30.73,-19.6,1729477255672.0,0.0
-2.237289,-9.602397,-4.527221,-67.410004,2.87,-3.43,1729477255692.0,0.0
-3.349952,-10.657632,-4.223332,-53.200001,-9.45,-4.76,1729477255713.0,0.0
-3.079563,-9.322437,-6.52762,13.16,-37.099998,-3.85,1729477255734.0,0.0
-3.601198,-7.846066,-7.41775,58.66,-25.200001,4.69,1729477255752.0,0.0
-4.266403,-5.699703,-7.051648,48.509998,-0.56,11.76,1729477255772.0,0.0
-3.54377,-5.328816,-9.442079,40.529999,-2.17,21.139999,1729477255792.0,0.0
-2.266003,-5.79063,-8.965906,54.880001,-14.91,41.02,1729477255813.0,0.0
-1.45005,-7.369894,-8.429914,102.129997,-8.96,46.970001,1729477255835.0,0.0
-1.641476,-6.372087,-7.76471,113.050003,13.23,41.23,1729477255852.0,0.0
-2.584249,-5.922236,-7.566105,99.75,36.259998,43.68,1729477255872.0,0.0
-2.713461,-6.015556,-6.800402,77.489998,23.24,39.549999,1729477255892.0,0.0
-2.445465,-6.128019,-6.192625,47.25,9.17,37.170002,1729477255919.0,0.0
-2.584249,-6.757331,-5.300103,9.52,9.59,26.950001,1729477255934.0,0.0
-3.52702,-7.259824,-4.223332,-38.990002,13.65,10.64,1729477255952.0,0.0
-3.919443,-6.793223,-4.115655,-78.330002,4.2,-7.98,1729477255972.0,0.0
-3.440879,-5.469993,-6.020342,-113.470001,-14.56,-23.309999,1729477255992.0,0.0
-3.110669,-5.082355,-9.116654,-153.509995,-21.280001,-33.740002,1729477256014.0,0.0
-2.675175,-8.078169,-10.966305,-130.130005,-17.5,-35.209999,1729477256035.0,0.0
-1.65344,-5.71406,-9.829715,-80.43,-8.61,-26.389999,1729477256053.0,0.0
-2.048256,-2.871387,-10.234102,-7.91,29.960001,-15.05,1729477256072.0,0.0
-1.993221,-5.24746,-9.193225,-25.200001,38.57,-10.71,1729477256092.0,0.0
-0.540778,-8.343772,-8.630912,-51.52,36.959999,-9.59,1729477256113.0,0.0
0.507278,-8.135597,-6.838687,-27.09,37.52,-15.96,1729477256133.0,0.0
-0.947558,-6.951149,-4.007978,3.5,50.259998,-17.08,1729477256152.0,0.0
-3.617948,-7.343572,-3.381058,27.58,50.049999,-12.18,1729477256172.0,0.0
-3.565305,-6.924829,-8.252845,61.25,24.710001,-1.68,1729477256192.0,0.0
-2.897708,-8.535198,-7.377072,126.559998,-0.28,17.57,1729477256213.0,0.0
-2.89053,-9.552148,-4.998606,238.139999,5.6,29.049999,1729477256233.0,0.0
-3.402594,-10.616954,-4.515256,337.26001,27.370001,29.889999,1729477256252.0,0.0
-3.737589,-9.482756,-3.366701,297.709991,28.0,22.26,1729477256272.0,0.0
-3.835695,-8.281559,-1.538585,161.630005,27.93,11.13,1729477256293.0,0.0
-3.462414,-9.190832,-0.591027,28.280001,7.98,-2.17,1729477256313.0,0.0
-2.811567,-9.863215,-2.067399,-50.330002,-28.630001,-15.26,1729477256333.0,0.0
-2.488536,-10.425529,-2.354537,-66.360001,-33.18,-20.440001,1729477256352.0,0.0
-2.572284,-8.757731,-3.065206,-99.120003,-32.619999,-27.16,1729477256371.0,0.0
-1.552942,-5.831308,-6.826723,-132.020004,-46.830002,-32.48,1729477256392.0,0.0
-0.734596,-4.591826,-8.049455,-151.830002,-53.060001,-9.03,1729477256413.0,0.0
-0.571885,-4.685147,-9.568897,-126.559998,-33.950001,11.55,1729477256434.0,0.0
-1.198804,-6.541977,-9.97807,-52.290001,3.29,35.139999,1729477256452.0,0.0
-1.935793,-6.606583,-8.561519,30.940001,28.630001,50.68,1729477256472.0,0.0
-2.723032,-5.501099,-7.377072,79.309998,45.080002,66.010002,1729477256492.0,0.0
-2.849852,-6.118448,-6.484549,72.730003,34.369999,69.230003,1729477256513.0,0.0
-3.113062,-7.21436,-4.500899,31.639999,27.370001,68.040001,1729477256533.0,0.0
-3.218346,-9.006584,-5.355137,30.309999,23.940001,58.799999,1729477256552.0,0.0
-3.419343,-9.920642,-5.245068,36.959999,16.870001,44.52,1729477256573.0,0.0
-3.136991,-9.705289,-6.331409,49.98,6.86,24.5,1729477256592.0,0.0
-3.074777,-7.743174,-6.518049,51.869999,7.28,-4.34,1729477256613.0,0.0
-3.462414,-8.059027,-5.532206,41.16,14.0,-36.889999,1729477256633.0,0.0
-3.23031,-7.491928,-5.158926,25.690001,-3.92,-59.849998,1729477256652.0,0.0
-2.600998,-5.862415,-5.096712,9.87,-29.049999,-69.230003,1729477256673.0,0.0
-1.835295,-3.929015,-6.166305,-49.91,-49.84,-76.300003,1729477256691.0,0.0
-1.328017,-6.374479,-6.709475,-114.590004,-59.290001,-79.660004,1729477256713.0,0.0
-0.748954,-8.673983,-7.448857,-176.539993,-51.66,-78.260002,1729477256732.0,0.0
0.327817,-9.334401,-8.252845,-102.059998,-35.77,-66.5,1729477256751.0,0.0
0.239282,-7.936993,-6.814759,-20.860001,-12.11,-39.48,1729477256772.0,0.0
-1.600798,-8.73141,-4.352544,20.440001,24.08,-13.72,1729477256792.0,0.0
-3.651447,-8.822337,-4.177868,20.93,45.5,1.54,1729477256812.0,0.0
-4.869394,-10.035499,-3.823731,-16.73,30.24,10.43,1729477256833.0,0.0
-4.752146,-11.260624,-2.885744,-46.830002,10.71,13.79,1729477256852.0,0.0
-3.869194,-11.389835,-4.900501,-8.05,-9.59,11.83,1729477256872.0,0.0
-3.424129,-11.904292,-3.416951,40.32,-13.09,10.57,1729477256892.0,0.0
-3.383451,-9.650253,-3.448057,33.389999,-7.91,-1.75,1729477256915.0,0.0
-2.845066,-5.355137,-6.932007,-8.19,-19.809999,-5.04,1729477256932.0,0.0
-1.464408,-4.072584,-9.568897,-36.82,-37.73,15.05,1729477256952.0,0.0
-0.246461,-4.675575,-11.136196,-39.27,-29.960001,35.560001,1729477256972.0,0.0
-0.457029,-6.381658,-9.576077,48.439999,4.2,56.700001,1729477256991.0,0.0
-1.897508,-4.271189,-8.341379,103.32,43.889999,68.739998,1729477257013.0,0.0
-3.192025,-3.773481,-7.066005,104.650002,56.07,78.540001,1729477257032.0,0.0
-3.512664,-6.23091,-5.388636,58.170002,40.880001,73.080002,1729477257052.0,0.0
-3.76391,-10.358529,-4.35733,18.200001,22.190001,33.110001,1729477257072.0,0.0
-3.481557,-9.887143,-5.915058,27.299999,14.77,1.89,1729477257092.0,0.0
-3.964907,-8.228917,-6.302694,50.959999,17.15,-24.780001,1729477257112.0,0.0
-3.821337,-7.317252,-6.54437,46.900002,7.7,-48.860001,1729477257133.0,0.0
-3.134598,-7.496714,-5.60399,41.790001,-14.98,-59.150002,1729477257151.0,0.0
-1.773082,-5.539384,-6.745367,44.73,-35.84,-57.959999,1729477257171.0,0.0
-0.823131,-4.240082,-6.829116,41.369999,-28.98,-48.299999,1729477257192.0,0.0
-0.124427,-6.017949,-4.275974,-4.2,-19.25,-40.599998,1729477257212.0,0.0
0.208176,-9.597611,-3.462414,-84.629997,-22.960001,-47.18,1729477257232.0,0.0
-0.162712,-10.492528,-4.441079,-118.020004,-14.49,-47.670002,1729477257252.0,0.0
-1.325624,-10.995021,-4.548756,-41.02,-19.040001,-49.98,1729477257271.0,0.0
-2.132005,-9.937392,-4.677969,54.040001,-14.77,-48.02,1729477257292.0,0.0
-2.699104,-10.310673,-4.436293,126.279999,-23.309999,-40.32,1729477257313.0,0.0
-2.864209,-8.906086,-3.936193,139.020004,-22.120001,-36.259998,1729477257333.0,0.0
-2.955136,-7.812566,-4.254438,124.459999,-16.1,-28.84,1729477257351.0,0.0
-2.95035,-7.128219,-4.472186,60.060001,-16.73,-21.629999,1729477257371.0,0.0
-2.823531,-8.863015,-3.28056,-25.83,-3.99,-12.25,1729477257393.0,0.0
-1.9669,-9.674182,-3.086741,-66.5,-5.18,4.69,1729477257412.0,0.0
-1.502693,-8.920443,-3.079563,-45.779999,-10.01,17.43,1729477257433.0,0.0
-2.15354,-7.759924,-2.880959,-41.580002,-1.05,25.48,1729477257451.0,0.0
-2.610569,-8.102098,-4.256832,-28.91,-4.48,35.700001,1729477257472.0,0.0
-2.103291,-7.712067,-6.290731,-2.52,-15.4,47.950001,1729477257491.0,0.0
-2.337788,-8.013563,-5.737988,24.92,-1.47,58.029999,1729477257512.0,0.0
-3.629912,-7.881958,-4.785645,6.79,17.780001,58.099998,1729477257533.0,0.0
-4.084548,-7.609176,-9.166903,-31.08,37.52,57.68,1729477257551.0,0.0
-2.840281,-11.004591,-8.439486,12.04,34.439999,41.650002,1729477257571.0,0.0
-2.179861,-10.001998,-7.192825,60.760002,25.059999,48.439999,1729477257591.0,0.0
-2.902494,-7.709675,-4.627719,100.309998,43.330002,38.43,1729477257612.0,0.0
-3.20399,-7.240681,-3.59402,65.660004,33.599998,25.48,1729477257631.0,0.0
-2.526821,-7.295716,-3.790231,14.42,21.49,10.64,1729477257651.0,0.0
-2.435893,-7.707282,-4.321437,-23.17,19.389999,-1.54,1729477257672.0,0.0
-3.141776,-8.006385,-4.587041,-37.73,15.190001,-12.6,1729477257691.0,0.0
-3.859623,-8.236095,-3.419343,-44.73,5.53,-30.940001,1729477257712.0,0.0
-3.156133,-8.12124,-2.455036,-65.519997,-17.01,-51.59,1729477257734.0,0.0
-2.313859,-7.020542,-3.546163,-113.959999,-41.369999,-62.299999,1729477257751.0,0.0
-1.935793,-7.278966,-6.015556,-128.240005,-40.880001,-64.889999,1729477257771.0,0.0
-1.959722,-7.886744,-7.848458,-119.419998,-39.48,-66.150002,1729477257792.0,0.0
-1.715654,-6.518049,-8.130811,-112.489998,-38.920002,-55.580002,1729477257814.0,0.0
-1.545763,-5.816952,-6.343372,-106.82,-29.33,-30.030001,1729477257833.0,0.0
-1.59362,-6.678369,-5.927022,-93.449997,-21.84,-24.219999,1729477257851.0,0.0
-2.182254,-8.740981,-6.848258,-90.720001,-2.94,-19.809999,1729477257871.0,0.0
-1.837688,-8.571091,-7.781459,-68.459999,-8.33,-21.280001,1729477257892.0,0.0
-1.591227,-6.415157,-6.829116,-53.970001,-6.44,-4.69,1729477257915.0,0.0
-1.76351,-6.886543,-6.642475,-66.360001,3.99,4.41,1729477257934.0,0.0
-2.270789,-8.563912,-7.759924,-77.559998,7.28,7.0,1729477257951.0,0.0
-2.493321,-9.260223,-8.037491,-60.130001,10.64,7.07,1729477257971.0,0.0
-2.335395,-9.047262,-7.4345,-15.4,3.08,10.01,1729477257991.0,0.0
-2.122434,-7.733603,-7.326823,30.66,2.8,7.84,1729477258012.0,0.0
-1.832902,-6.82433,-7.733603,35.700001,4.76,0.98,1729477258034.0,0.0
-1.457229,-7.015756,-8.303094,14.77,1.54,-2.59,1729477258051.0,0.0
-1.277767,-7.149754,-7.963314,42.349998,7.42,1.75,1729477258071.0,0.0
-1.493121,-6.297909,-8.214561,85.82,19.25,15.33,1729477258091.0,0.0
-1.473979,-6.56112,-7.633104,109.830002,24.639999,26.74,1729477258112.0,0.0
-1.253839,-6.9009,-5.99402,106.540001,26.950001,36.119999,1729477258135.0,0.0
-2.050649,-5.663811,-5.871986,105.489998,27.16,42.77,1729477258151.0,0.0
-3.105884,-7.539784,-5.249853,94.080002,29.610001,35.209999,1729477258171.0,0.0
-2.701497,-9.45165,-5.230711,58.869999,4.41,10.43,1729477258191.0,0.0
-2.596212,-10.499706,-5.17089,73.290001,-8.4,-0.49,1729477258212.0,0.0
-3.60359,-7.410572,-4.876573,100.800003,-0.14,-9.24,1729477258232.0,0.0
-3.601198,-5.15414,-6.228518,92.400002,-5.11,-15.05,1729477258251.0,0.0
-3.239882,-4.699504,-6.494121,42.91,-12.6,-27.58,1729477258272.0,0.0
-2.514857,-6.778866,-5.568098,-3.08,-24.57,-36.119999,1729477258294.0,0.0
-2.26361,-6.06102,-4.953143,-59.43,-30.309999,-31.639999,1729477258312.0,0.0
-2.098505,-5.862415,-5.694918,-93.590004,-32.830002,-33.740002,1729477258335.0,0.0
-1.725225,-6.039484,-7.446464,-114.730003,-36.330002,-33.670002,1729477258351.0,0.0
-1.430908,-7.049256,-9.4349,-102.340004,-40.25,-16.24,1729477258370.0,0.0
-0.428315,-8.338986,-10.475778,-67.550003,-29.960001,-1.4,1729477258391.0,0.0
-0.485743,-7.860423,-7.829315,11.83,37.939999,19.18,1729477258412.0,0.0
-2.304288,-8.02792,-4.898108,21.84,74.410004,24.01,1729477258432.0,0.0
-3.031706,-9.509077,-2.809174,3.01,60.830002,21.0,1729477258451.0,0.0
-2.24686,-10.896914,-2.036292,-17.92,24.01,8.4,1729477258471.0,0.0
-2.330609,-9.415757,-1.478764,-47.599998,16.309999,-1.47,1729477258492.0,0.0
-3.180061,-9.379865,-3.299703,-52.080002,7.49,-12.39,1729477258512.0,0.0
-3.18724,-7.860423,-5.075177,-45.709999,-8.26,-16.379999,1729477258532.0,0.0
-2.376073,-7.393822,-6.664011,-23.940001,-22.610001,-7.84,1729477258550.0,0.0
-1.753939,-7.274181,-8.279166,-16.73,-24.85,3.29,1729477258572.0,0.0
-1.507478,-6.18784,-9.561719,12.6,-9.38,10.43,1729477258591.0,0.0
-1.990828,-5.553742,-9.454042,72.590004,17.85,35.77,1729477258611.0,0.0
-2.359323,-5.029713,-7.786245,113.470001,34.509998,52.5,1729477258633.0,0.0
-2.352145,-5.067998,-7.008578,90.720001,42.700001,54.459999,1729477258651.0,0.0
-2.526821,-6.745367,-6.352944,50.889999,33.25,47.810001,1729477258734.0,0.0
-2.541178,-8.346166,-4.398008,39.759998,24.360001,39.48,1729477258742.0,0.0
-2.435893,-8.80798,-4.941179,36.889999,16.940001,28.139999,1729477258744.0,0.0
-3.337988,-9.956534,-4.795217,16.66,15.89,5.67,1729477258746.0,0.0
-3.802195,-8.889337,-5.283352,4.48,2.45,-27.09,1729477258751.0,0.0
-4.012764,-8.109276,-5.740381,-2.17,-1.05,-52.220001,1729477258770.0,0.0
-3.323631,-8.116454,-4.986642,-22.610001,-18.27,-72.730003,1729477258790.0,0.0
-1.914258,-7.054041,-4.778467,-45.080002,-44.52,-75.32,1729477258812.0,0.0
-1.416551,-5.852845,-5.960521,-64.889999,-40.529999,-66.779999,1729477258831.0,0.0
-1.95015,-5.4006,-6.908078,-96.389999,-32.060001,-60.970001,1729477258851.0,0.0
-1.730011,-4.859823,-7.690532,-133.839996,-31.99,-59.779999,1729477258871.0,0.0
-0.918844,-5.192425,-9.930215,-129.919998,-29.889999,-41.720001,1729477258891.0,0.0
-0.705883,-5.718846,-9.387043,-90.300003,-13.23,-17.57,1729477258914.0,0.0
-0.705883,-5.223531,-7.286145,-72.660004,6.23,-6.09,1729477258935.0,0.0
-0.701097,-4.704289,-9.394222,-49.77,13.51,8.82,1729477258950.0,0.0
-0.416351,-6.759724,-8.69791,-10.99,16.450001,24.57,1729477258971.0,0.0
-0.277567,-6.742974,-5.340781,49.0,30.799999,38.5,1729477258991.0,0.0
-1.478764,-6.216553,-5.010571,77.980003,33.880001,44.029999,1729477259011.0,0.0
-2.701497,-7.357929,-5.182854,40.599998,35.420002,44.029999,1729477259032.0,0.0
-3.067599,-10.473385,-5.728417,24.710001,24.92,35.560001,1729477259051.0,0.0
-1.911865,-12.926028,-5.895915,61.389999,1.54,21.210001,1729477259070.0,0.0
-1.292124,-11.023734,-6.836295,125.93,-13.51,-2.59,1729477259091.0,0.0
-1.794617,-9.68136,-5.785845,148.399994,4.48,-7.35,1729477259112.0,0.0
-2.438286,-9.255438,-4.917251,138.809998,16.66,-11.27,1729477259142.0,0.0
-3.151347,-9.554541,-4.208975,111.860001,10.92,-9.66,1729477259151.0,0.0
-3.096312,-8.992228,-4.529613,72.660004,-5.25,-15.61,1729477259171.0,0.0
-2.440679,-7.575676,-4.9675,44.939999,-13.58,-14.7,1729477259191.0,0.0
-1.899901,-7.034898,-4.584648,23.309999,-15.12,-5.11,1729477259211.0,0.0
-1.074377,-6.355337,-4.35733,-5.6,-22.469999,3.15,1729477259232.0,0.0
-0.772882,-4.833502,-4.534399,-36.330002,-20.790001,17.15,1729477259251.0,0.0
-1.392623,-4.689932,-6.089733,-43.259998,-0.21,33.529999,1729477259270.0,0.0
-2.177469,-7.180861,-6.67119,-32.830002,14.84,41.23,1729477259291.0,0.0
-2.067399,-10.174281,-7.537392,7.42,15.61,38.920002,1729477259311.0,0.0
-1.957329,-10.080962,-7.106683,68.040001,17.57,38.709999,1729477259332.0,0.0
-2.502892,-9.430114,-4.063013,117.040001,14.07,30.450001,1729477259351.0,0.0
-3.026921,-8.176274,-2.533999,103.459999,1.47,2.94,1729477259370.0,0.0
-3.333202,-6.539584,-4.371687,39.060001,1.82,-16.73,1729477259391.0,0.0
-3.409772,-7.355537,-5.314459,-45.990002,-7.28,-49.77,1729477259411.0,0.0
-2.868994,-7.798209,-5.663811,-84.139999,-46.689999,-56.139999,1729477259433.0,0.0
-2.311467,-7.525427,-5.848059,-99.889999,-51.59,-55.23,1729477259450.0,0.0
-1.9669,-6.687939,-6.266802,-118.860001,-46.27,-55.790001,1729477259471.0,0.0
-1.473979,-6.65444,-6.905686,-134.050003,-46.689999,-55.299999,1729477259490.0,0.0
-1.196411,-7.152147,-6.465407,-160.369995,-56.139999,-53.130001,1729477259512.0,0.0
-0.588634,-8.374879,-6.474977,-172.550003,-58.029999,-51.52,1729477259532.0,0.0
0.260818,-8.128418,-7.530212,-133.0,-57.82,-37.59,1729477259550.0,0.0
0.124427,-9.363115,-8.867801,-31.43,-39.27,-18.48,1729477259570.0,0.0
-0.935594,-9.54497,-8.051848,94.989998,5.74,-4.2,1729477259591.0,0.0
-2.979064,-9.506684,-5.501099,214.970001,43.330002,12.74,1729477259611.0,0.0
-4.041477,-10.116854,-3.751946,288.820007,54.880001,20.58,1729477259631.0,0.0
-3.605984,-10.789237,-2.589034,344.540009,27.93,22.190001,1729477259650.0,0.0
-2.866602,-11.497513,-1.148555,374.01001,6.51,21.700001,1729477259671.0,0.0
-2.541178,-9.927821,-0.26321,349.649994,-1.68,12.04,1729477259691.0,0.0
-2.476572,-8.355737,-0.320638,296.869995,-4.41,10.29,1729477259711.0,0.0
-2.148755,-8.508877,-0.540778,213.570007,-13.23,9.31,1729477259731.0,0.0
-1.399801,-9.296116,-1.342373,79.309998,-36.259998,2.38,1729477259750.0,0.0
-0.33021,-11.595619,-2.732604,59.150002,-41.02,-6.65,1729477259771.0,0.0
0.689133,-11.480762,-2.397608,105.07,-23.24,-5.18,1729477259790.0,0.0
0.411566,-10.643275,-1.363909,157.080002,8.4,-5.74,1729477259812.0,0.0
-0.930808,-9.970891,-0.629312,173.669998,23.870001,-21.280001,1729477259832.0,0.0
-1.249053,-9.303294,0.705883,178.009995,22.960001,-23.24,1729477259851.0,0.0
-1.189233,-8.221739,2.251646,168.279999,33.740002,-22.120001,1729477259871.0,0.0
-1.694118,-6.975078,3.438486,135.380005,38.849998,-26.389999,1729477259891.0,0.0
-2.354537,-7.752745,5.15414,102.059998,28.139999,-27.23,1729477259914.0,0.0
-2.885744,-7.838887,3.218346,91.349998,3.99,-20.65,1729477259931.0,0.0
-2.904887,-8.68116,4.59422,175.070007,12.88,-10.43,1729477259950.0,0.0
-3.15374,-6.029913,7.15454,226.800003,17.15,-7.63,1729477259970.0,0.0
-3.4672,-6.599405,6.754939,225.75,9.94,-5.74,1729477259991.0,0.0
-2.471786,-6.628119,4.68754,170.169998,0.28,-7.91,1729477260011.0,0.0
-2.179861,-8.427521,5.379066,173.110001,5.39,-5.46,1729477260031.0,0.0
-1.696511,-6.9679,8.319844,202.649994,19.950001,-10.29,1729477260050.0,0.0
-1.765903,-5.642276,8.068598,212.029999,27.58,-10.36,1729477260071.0,0.0
-1.942972,-4.867002,8.580662,140.839996,24.99,-12.53,1729477260090.0,0.0
-1.785046,-3.897908,8.65484,56.139999,21.77,-7.0,1729477260111.0,0.0
-2.007578,-3.440879,8.085347,-66.010002,14.63,-6.23,1729477260131.0,0.0
-2.184647,-3.235096,9.135797,-186.759995,9.73,-2.87,1729477260150.0,0.0
-2.598605,-3.017349,9.207582,-327.179993,-2.87,-0.07,1729477260170.0,0.0
-1.993221,-3.567699,6.185446,-483.559998,-26.32,1.68,1729477260191.0,0.0
-1.308874,-3.254239,1.514657,-594.299988,-35.630001,7.77,1729477260211.0,0.0
-2.017149,-6.235696,-0.856631,-623.419983,-36.400002,19.6,1729477260234.0,0.0
-3.07717,-8.152347,-3.014957,-635.669983,-38.849998,15.89,1729477260251.0,0.0
-3.065206,-10.844273,-6.436693,-558.179993,-35.07,16.379999,1729477260271.0,0.0
-2.39043,-12.229716,-6.742974,-386.820007,-23.870001,23.309999,1729477260290.0,0.0
-1.923829,-12.859028,-8.870193,-157.779999,-0.77,26.74,1729477260311.0,0.0
-2.210968,-16.218552,-9.090333,121.379997,31.290001,19.879999,1729477260332.0,0.0
-2.706282,-13.737194,-4.907679,331.170013,57.68,9.87,1729477260351.0,0.0
-2.639283,-9.717253,-0.404387,496.230011,51.939999,-2.8,1729477260371.0,0.0
-2.737389,-8.176274,4.254438,617.820007,28.280001,-7.98,1729477260390.0,0.0
-2.615355,-7.01097,5.733203,663.950012,7.98,-17.57,1729477260411.0,0.0
-1.940579,-7.695317,2.940779,648.200012,-13.440001,-20.370001,1729477260431.0,0.0
-1.268196,-4.271189,6.262017,606.409973,11.69,-27.299999,1729477260450.0,0.0
-2.347359,-3.192025,10.392029,395.01001,13.37,-25.76,1729477260470.0,0.0
-2.129612,-7.326823,8.161918,112.349998,-27.58,-31.99,1729477260490.0,0.0
-1.689333,-3.735196,7.109076,40.32,-14.35,-42.07,1729477260511.0,0.0
-1.864009,0.485743,7.60439,37.52,1.26,-26.389999,1729477260699.0,0.0
-1.368695,0.595813,8.535198,-31.57,-8.4,-4.55,1729477260699.0,0.0
-1.502693,-0.861416,9.212367,-137.479996,-18.549999,15.82,1729477260700.0,0.0
-1.136591,-2.232504,8.707481,-254.800003,-26.6,28.559999,1729477260845.0,0.0
-1.864009,-2.830709,8.181061,-385.48999,-30.380001,36.330002,1729477260846.0,0.0
-2.469393,-4.13719,5.340781,-516.599976,-45.849998,30.940001,1729477260850.0,0.0
-2.505285,-5.419744,2.098505,-612.919983,-51.869999,30.030001,1729477260852.0,0.0
-2.644069,-7.676175,-1.20359,-658.349976,-48.09,21.98,1729477260853.0,0.0
-2.986243,-8.030313,-2.545963,-672.419983,-47.110001,9.59,1729477260853.0,0.0
-2.87378,-9.119047,-6.046663,-597.380005,-42.84,8.96,1729477260853.0,0.0
-2.79721,-11.023734,-9.62154,-447.230011,-24.290001,11.13,1729477260854.0,0.0
-1.878366,-16.646868,-12.827922,-86.029999,-0.35,6.23,1729477260854.0,0.0
-1.569692,-18.257236,-9.576077,215.320007,43.610001,0.07,1729477260854.0,0.0
-1.138984,-13.170096,-5.82413,491.540009,75.669998,-11.62,1729477260854.0,0.0
