acc_x,acc_y,acc_z,gyr_x,gyr_y,gyr_z,timestamp,label
-6.276374,-5.448457,-8.087741,96.809998,48.509998,19.110001,1729415029439.0,0.0
-8.025528,-5.754738,-7.240681,96.669998,58.59,38.150002,1729415029439.0,0.0
-9.915856,-8.793623,9.781858,77.840004,50.610001,37.59,1729415029440.0,0.0
-8.611769,-6.113662,-3.287738,-63.07,-18.48,27.790001,1729415029440.0,0.0
-3.766303,-6.125626,-11.832507,-76.300003,-56.98,-22.610001,1729415029441.0,0.0
-5.079963,-14.404793,-10.616954,7.49,66.150002,-8.4,1729415029459.0,0.0
-5.979663,-9.652647,-8.020741,111.790001,99.889999,3.01,1729415029482.0,0.0
-0.787239,-3.881158,-3.778267,153.229996,16.24,12.25,1729415029500.0,0.0
3.735196,-9.769895,-2.419144,90.160004,-13.3,9.03,1729415029521.0,0.0
3.54377,-14.380865,-0.875773,103.110001,24.92,16.1,1729415029540.0,0.0
0.538385,-12.160326,1.270589,170.940002,26.74,1.05,1729415029560.0,0.0
-2.562713,-7.23111,1.37348,168.559998,-2.87,10.43,1729415029582.0,0.0
-4.369294,-3.936193,-1.184447,116.620003,-15.68,12.53,1729415029600.0,0.0
-2.053042,-8.724231,-0.827917,116.830002,-56.209999,-0.42,1729415029619.0,0.0
0.696311,-9.784252,0.823131,112.770004,-87.849998,3.08,1729415029640.0,0.0
-2.17029,-8.41795,4.036692,118.230003,-60.760002,9.8,1729415029660.0,0.0
-6.477371,-8.65484,4.036692,42.139999,-16.799999,-3.08,1729415029682.0,0.0
-7.281359,-11.60519,-5.831308,-67.830002,-42.91,-12.6,1729415029700.0,0.0
-7.89153,-9.296116,-8.4347,-133.279999,-38.220001,-4.69,1729415029720.0,0.0
-7.307681,-4.721039,-10.681561,-192.919998,-40.459999,-16.940001,1729415029740.0,0.0
-6.439085,-10.152746,-8.944371,-152.460007,-46.34,-9.45,1729415029764.0,0.0
-5.082355,-13.397413,-6.71426,-66.360001,-25.690001,-12.53,1729415029782.0,0.0
-6.039484,-0.595813,-3.407379,-9.38,-0.14,-15.68,1729415029800.0,0.0
-7.491928,-0.100499,-3.278167,-156.520004,40.110001,31.01,1729415029820.0,0.0
-3.60359,-14.311473,-7.334002,-221.899994,1.68,-59.990002,1729415029840.0,0.0
-3.783052,-16.077375,-5.300103,-129.779999,41.790001,-11.2,1729415029860.0,0.0
-1.813759,-8.190632,0.291924,80.919998,44.52,-36.259998,1729415029882.0,0.0
0.011964,-4.436293,0.981057,136.570007,8.26,-12.39,1729415029900.0,0.0
1.184447,-3.419343,-1.442872,35.91,2.66,-7.7,1729415029919.0,0.0
1.744368,-6.070591,-4.84068,-24.290001,1.61,19.950001,1729415029940.0,0.0
1.818545,-10.485349,-3.67059,51.240002,1.12,41.860001,1729415029960.0,0.0
-0.725025,-10.628918,1.976472,173.809998,28.210001,66.709999,1729415029981.0,0.0
-3.847659,-8.956335,3.136991,263.690002,5.74,56.0,1729415030000.0,0.0
-7.769495,-7.355537,1.72044,106.120003,-10.22,37.099998,1729415030019.0,0.0
-7.858029,-8.927622,-4.053442,-101.639999,-4.69,-6.16,1729415030040.0,0.0
-8.360522,-9.413363,-7.501499,-180.949997,-39.689999,-1.47,1729415030061.0,0.0
-9.071191,-5.56092,-15.653846,-156.729996,-9.24,-3.36,1729415030085.0,0.0
-7.692925,-11.294124,-18.802801,-17.219999,22.889999,-7.56,1729415030100.0,0.0
-6.848258,-17.292929,-12.387643,133.910004,4.06,4.97,1729415030121.0,0.0
-11.035697,-8.128418,-9.219545,153.789993,76.93,0.35,1729415030139.0,0.0
-9.915856,-2.22054,-6.080163,103.18,111.300003,-53.830002,1729415030161.0,0.0
-5.785845,-2.139183,1.89033,28.559999,74.410004,-30.52,1729415030182.0,0.0
0.409173,-4.986642,5.06082,-5.46,50.75,-38.779999,1729415030199.0,0.0
6.321837,-8.238488,13.091133,26.530001,60.549999,-11.97,1729415030219.0,0.0
8.580662,-11.150554,9.382257,47.670002,-6.09,6.23,1729415030241.0,0.0
1.191626,-13.58166,0.342174,122.080002,-32.759998,26.25,1729415030260.0,0.0
-5.510671,-12.320643,-1.189233,169.330002,29.610001,31.360001,1729415030283.0,0.0
-6.570691,-9.626326,1.117448,203.419998,-33.880001,39.759998,1729415030300.0,0.0
-4.735396,-8.738588,2.775674,52.639999,-103.18,27.58,1729415030321.0,0.0
-2.969493,-7.125826,3.268596,-149.520004,-103.25,-5.6,1729415030341.0,0.0
-4.369294,-12.55514,-4.797609,-161.279999,-51.170002,-19.950001,1729415030360.0,0.0
-6.360123,-11.217552,-0.756132,-76.090004,-28.630001,0.42,1729415030382.0,0.0
-5.252246,-5.766702,-1.660619,32.41,-36.75,10.22,1729415030399.0,0.0
-3.9338,-4.847858,-5.367101,15.82,-33.25,44.170002,1729415030419.0,0.0
-4.022335,-13.215559,-7.293324,58.59,-29.960001,42.84,1729415030439.0,0.0
-8.508877,-15.096318,-6.470192,50.119999,1.96,24.92,1729415030460.0,0.0
-7.956135,-10.403993,-9.784252,241.639999,2.03,58.73,1729415030481.0,0.0
-8.992228,-4.84068,-3.704089,207.970001,26.67,10.08,1729415030500.0,0.0
-8.764909,-4.474578,-2.031506,174.649994,22.889999,38.57,1729415030520.0,0.0
-5.651847,-3.754339,1.086342,103.669998,29.26,-15.68,1729415030540.0,0.0
-5.508278,-9.372685,1.155733,-8.33,41.93,-18.620001,1729415030560.0,0.0
-4.943572,-13.639089,2.916851,-52.849998,58.240002,-56.77,1729415030581.0,0.0
-2.148755,-9.690931,4.955536,1.89,39.759998,-57.049999,1729415030600.0,0.0
1.031307,-2.849852,8.042276,47.810001,1.82,-39.41,1729415030619.0,0.0
2.445465,-2.072184,9.226725,61.459999,-17.57,-27.09,1729415030639.0,0.0
1.01695,-4.773681,7.109076,13.16,0.56,-16.799999,1729415030660.0,0.0
1.502693,-7.350751,6.147161,-27.09,-6.51,0.7,1729415030681.0,0.0
0.851845,-8.338986,3.912265,-27.93,-15.4,12.6,1729415030699.0,0.0
-1.962115,-10.222138,-2.072184,7.14,-13.02,43.470001,1729415030720.0,0.0
-5.606383,-5.955735,-0.303888,82.809998,-10.15,117.949997,1729415030739.0,0.0
-12.291929,-7.032506,1.794617,80.639999,18.969999,131.110001,1729415030759.0,0.0
-15.821342,-13.8688,-8.152347,-47.18,47.389999,112.770004,1729415030781.0,0.0
-13.584054,-14.569898,-8.245667,-41.580002,56.490002,15.75,1729415030800.0,0.0
-13.672589,-11.365908,-3.227918,76.790001,24.219999,-48.23,1729415030819.0,0.0
-10.540384,-3.996014,2.179861,83.860001,-14.91,-61.740002,1729415030840.0,0.0
-6.197411,-3.589234,1.65344,-13.65,-5.25,-90.510002,1729415030859.0,0.0
-1.787439,-3.658626,1.476372,-113.75,11.76,-105.0,1729415030881.0,0.0
2.285146,-8.640482,4.527221,-81.129997,6.65,-133.979996,1729415030900.0,0.0
2.378466,-5.201996,9.865608,-28.630001,37.450001,-76.93,1729415030919.0,0.0
3.651447,0.818345,10.200603,-9.45,-1.96,-45.43,1729415030939.0,0.0
2.806781,-3.103491,5.568098,-86.169998,-29.26,-31.85,1729415030960.0,0.0
-0.253639,-10.322637,2.555535,-184.800003,-35.0,-12.53,1729415030981.0,0.0
-3.273381,-13.067204,-3.129812,-155.680008,-27.02,3.85,1729415030999.0,0.0
-5.986843,-10.688738,2.163112,-91.279999,-30.940001,23.379999,1729415031019.0,0.0
-8.482556,-7.846066,0.607777,-78.190002,-27.02,39.41,1729415031039.0,0.0
-7.549356,-4.292724,-2.835495,-197.190002,-46.130001,11.97,1729415031059.0,0.0
-7.491928,-7.121039,-4.225725,-305.619995,-72.169998,-9.94,1729415031091.0,0.0
-7.295716,-10.167104,-10.537991,-361.970001,-80.220001,-47.740002,1729415031099.0,0.0
-7.453642,-11.935399,-13.450057,-313.809998,-65.590004,-42.490002,1729415031120.0,0.0
-7.642675,-8.482556,-12.832708,-202.649994,-23.379999,-38.639999,1729415031139.0,0.0
-7.178468,-13.344771,-4.039084,-93.590004,11.69,-59.290001,1729415031159.0,0.0
-7.003791,-10.942378,-3.067599,-74.340004,0.49,-54.740002,1729415031182.0,0.0
-4.249653,-4.63729,-4.319045,-128.520004,8.4,-73.849998,1729415031199.0,0.0
-1.182054,-4.316652,-1.210768,-247.029999,28.0,-69.790001,1729415031219.0,0.0
1.622334,-5.905487,-1.811367,-288.190002,13.79,-45.57,1729415031239.0,0.0
5.347959,-7.532606,-0.4666,-202.930008,-36.259998,-36.610001,1729415031260.0,0.0
3.15374,-9.279366,-3.012564,-139.020004,-48.790001,17.43,1729415031282.0,0.0
1.014557,-9.889536,-5.986843,-130.970001,-50.540001,-1.26,1729415031299.0,0.0
-2.605784,-5.429315,-11.01177,-112.699997,-41.16,-10.85,1729415031319.0,0.0
-3.888337,-2.199004,-11.392227,-100.239998,-25.27,-9.1,1729415031339.0,0.0
-4.139583,-6.678369,-12.246466,-79.730003,-52.990002,10.64,1729415031359.0,0.0
-5.000999,-8.075776,-10.260423,34.509998,-47.389999,22.190001,1729415031381.0,0.0
-4.862216,-5.869594,-10.212566,95.900002,-44.310001,5.74,1729415031399.0,0.0
-5.405386,-1.832902,-7.532606,98.419998,-4.83,18.620001,1729415031418.0,0.0
-5.395815,-2.732604,-5.682954,85.260002,4.62,37.939999,1729415031439.0,0.0
-3.964907,-5.819345,-7.262216,141.889999,-12.6,42.490002,1729415031460.0,0.0
-4.063013,-9.683753,-9.229117,232.259995,0.98,32.41,1729415031482.0,0.0
-5.249853,-8.903693,-11.069198,329.48999,32.130001,35.91,1729415031499.0,0.0
-6.333801,-4.546363,-8.85823,328.230011,35.139999,45.43,1729415031519.0,0.0
-6.618547,-3.201597,-6.73101,262.360016,22.540001,62.09,1729415031539.0,0.0
-5.343173,-5.757132,-6.333801,152.740005,16.940001,64.190002,1729415031560.0,0.0
-4.883751,-10.928021,-6.092126,122.5,56.420002,63.279999,1729415031582.0,0.0
-4.867002,-12.095718,-6.013163,158.899994,91.489998,49.209999,1729415031599.0,0.0
-5.575277,-11.126624,-6.369694,250.110001,107.029999,22.889999,1729415031619.0,0.0
-7.427321,-11.578869,-3.730411,282.170013,123.550003,21.49,1729415031640.0,0.0
-6.616155,-8.243275,-1.782653,254.100006,101.849998,-10.78,1729415031660.0,0.0
-4.816752,-7.133004,-1.497907,216.790009,77.209999,-35.07,1729415031681.0,0.0
-4.618148,-11.095518,-0.732204,205.800003,69.230003,-63.91,1729415031699.0,0.0
-5.039285,-9.690931,0.591027,207.690002,61.950001,-82.949997,1729415031719.0,0.0
-4.699504,-5.228317,2.531606,190.820007,46.549999,-97.300003,1729415031739.0,0.0
-3.122634,-3.412165,3.864408,88.550003,17.290001,-118.440002,1729415031760.0,0.0
-1.146162,-4.204189,3.78066,-62.860001,4.9,-132.789993,1729415031780.0,0.0
-0.038285,-6.111269,2.981457,-206.570007,22.540001,-122.849998,1729415031804.0,0.0
0.361316,-8.255238,-0.62692,-317.519989,52.150002,-108.779999,1729415031819.0,0.0
0.229711,-8.489735,-3.041277,-382.829987,68.669998,-79.519997,1729415031839.0,0.0
0.031107,-7.745567,-4.656433,-375.549988,61.32,-53.200001,1729415031859.0,0.0
-0.014357,-7.65464,-6.144768,-350.839996,46.830002,-35.209999,1729415031880.0,0.0
-0.107677,-8.468199,-7.130611,-324.940002,38.920002,-26.880001,1729415031898.0,0.0
-0.514457,-9.365508,-8.520842,-284.200012,47.110001,-24.780001,1729415031919.0,0.0
-1.191626,-9.166903,-9.521042,-206.289993,50.119999,-22.26,1729415031939.0,0.0
-1.512264,-8.79123,-9.454042,-117.599998,36.75,-9.03,1729415031959.0,0.0
-1.194018,-8.051848,-8.26481,-48.650002,11.2,3.22,1729415031982.0,0.0
-0.808774,-7.69771,-6.417551,6.86,-0.14,13.72,1729415031999.0,0.0
-1.198804,-5.76431,-5.568098,22.75,6.79,18.27,1729415032020.0,0.0
-1.811367,-3.481557,-5.903094,9.52,14.0,21.07,1729415032039.0,0.0
-2.354537,-4.773681,-6.652047,-15.190001,9.24,24.43,1729415032059.0,0.0
-2.254039,-7.274181,-7.089933,-29.540001,0.42,22.4,1729415032085.0,0.0
-2.321038,-7.360322,-7.362715,-5.95,1.33,17.85,1729415032099.0,0.0
-2.684747,-6.460621,-7.398607,20.719999,4.69,9.94,1729415032119.0,0.0
-3.04367,-6.642475,-7.15454,24.639999,4.76,4.41,1729415032138.0,0.0
-2.452643,-7.142576,-6.558727,26.950001,-14.7,1.96,1729415032160.0,0.0
-2.335395,-7.996813,-6.156733,28.07,-13.16,6.51,1729415032180.0,0.0
-2.478964,-6.989435,-6.132804,32.060001,-4.41,-0.7,1729415032198.0,0.0
-2.486143,-5.625526,-5.860023,36.75,-2.52,-3.71,1729415032219.0,0.0
-2.175076,-5.314459,-7.183254,16.030001,-7.77,-8.47,1729415032238.0,0.0
-1.916651,-6.800402,-7.444071,-17.219999,-8.12,-7.0,1729415032259.0,0.0
-1.497907,-6.740582,-7.51107,-11.2,-7.91,-9.59,1729415032281.0,0.0
-1.258625,-5.592027,-7.365108,17.219999,-10.64,-7.0,1729415032299.0,0.0
-1.105484,-5.288138,-7.357929,25.129999,-13.79,-5.25,1729415032318.0,0.0
-1.217947,-6.833901,-6.415157,17.780001,-12.88,-2.73,1729415032339.0,0.0
-1.596013,-6.680761,-6.348158,2.87,-11.48,-7.84,1729415032358.0,0.0
-2.222932,-6.515656,-6.608976,-13.37,-13.02,-12.32,1729415032380.0,0.0
-2.261217,-7.367501,-7.01097,-16.66,-18.27,-17.5,1729415032400.0,0.0
-1.976472,-7.422535,-7.412964,0.14,-20.09,-17.360001,1729415032418.0,0.0
-1.433301,-7.661818,-7.393822,15.05,-19.530001,-24.85,1729415032438.0,0.0
-1.112662,-7.913064,-6.716653,22.610001,-25.549999,-18.690001,1729415032459.0,0.0
-1.019342,-6.24766,-6.582655,15.61,-23.799999,-11.83,1729415032481.0,0.0
-1.213161,-7.523034,-7.396214,-15.61,-17.780001,-11.34,1729415032498.0,0.0
-1.275374,-8.133204,-6.30748,-8.26,-22.610001,-7.63,1729415032520.0,0.0
-1.976472,-6.678369,-6.417551,-13.440001,-12.6,-12.67,1729415032538.0,0.0
-1.801795,-6.412765,-7.245467,-31.219999,-15.05,-16.59,1729415032559.0,0.0
-1.37348,-6.865008,-7.566105,-19.040001,-19.040001,-13.37,1729415032580.0,0.0
-1.442872,-6.479764,-7.812566,-2.73,-13.72,-12.04,1729415032598.0,0.0
-1.698904,-6.357729,-7.259824,7.49,-6.09,-5.67,1729415032618.0,0.0
-1.677369,-6.819544,-7.085148,4.76,-7.21,-5.18,1729415032639.0,0.0
-1.375873,-6.953543,-6.98465,1.82,-13.02,-9.17,1729415032658.0,0.0
-1.509871,-6.314659,-7.446464,-13.79,-12.04,-8.89,1729415032680.0,0.0
-1.426122,-6.843473,-8.252845,-18.83,-11.76,-7.28,1729415032699.0,0.0
-1.26341,-7.54457,-7.82453,-2.45,-12.46,-8.47,1729415032718.0,0.0
-1.533799,-7.219146,-7.779066,12.46,-6.58,-7.98,1729415032738.0,0.0
-1.698904,-5.946165,-5.833702,23.940001,-11.48,3.64,1729415032759.0,0.0
-1.931008,-5.091926,-5.534599,27.51,-15.82,7.84,1729415032781.0,0.0
-2.033899,-6.551548,-5.970093,1.4,-15.4,1.75,1729415032798.0,0.0
-1.998007,-7.233503,-6.836295,-10.71,-17.92,3.92,1729415032818.0,0.0
-1.897508,-7.037291,-7.515855,-14.42,-18.48,0.07,1729415032839.0,0.0
-1.808974,-6.78126,-8.070991,-11.13,-14.21,-1.96,1729415032858.0,0.0
-2.132005,-6.711867,-8.10449,-13.23,-6.93,-0.98,1729415032880.0,0.0
-2.35693,-6.58744,-7.465607,-19.950001,-5.53,-1.68,1729415032900.0,0.0
-2.053042,-6.585048,-7.250252,-20.23,-10.57,-2.94,1729415032918.0,0.0
-1.998007,-6.477371,-7.003791,-16.379999,-9.59,-4.06,1729415032938.0,0.0
-2.053042,-6.661618,-6.963113,-14.21,-5.39,-5.04,1729415032959.0,0.0
-2.086541,-6.932007,-7.058826,-14.56,-2.59,-5.95,1729415032981.0,0.0
-2.227718,-7.001399,-7.190433,-13.37,-1.26,-7.56,1729415032999.0,0.0
-2.230111,-6.733403,-7.066005,-10.5,-1.96,-7.7,1729415033019.0,0.0
-1.911865,-6.343372,-7.042077,-5.32,-5.74,-5.32,1729415033038.0,0.0
-1.902294,-6.283553,-7.288538,-7.77,-5.39,-3.22,1729415033060.0,0.0
-2.122434,-6.496514,-7.396214,-9.59,-3.08,-2.24,1729415033083.0,0.0
-2.127219,-6.630512,-7.092326,-6.16,-4.62,-2.24,1729415033098.0,0.0
-1.938186,-6.427122,-7.415358,-5.74,-7.77,-2.66,1729415033126.0,0.0
-2.277967,-6.690332,-7.99442,-9.94,-8.47,-2.1,1729415033139.0,0.0
-2.526821,-7.377072,-8.640482,-20.02,-0.07,-4.69,1729415033158.0,0.0
-2.043471,-6.652047,-7.549356,-3.15,-2.17,-3.36,1729415033180.0,0.0
-1.564906,-6.331409,-8.212167,-4.62,7.0,-13.65,1729415033198.0,0.0
-2.065006,-6.290731,-6.491727,-5.46,1.89,-10.78,1729415033218.0,0.0
-1.557728,-6.285945,-7.513463,-8.05,3.92,-17.01,1729415033239.0,0.0
-1.978864,-6.465407,-7.958528,-17.360001,12.04,-12.67,1729415033258.0,0.0
-1.569692,-6.106483,-7.858029,1.19,9.31,-9.17,1729415033280.0,0.0
-1.598405,-5.345565,-7.087541,20.16,5.32,-3.92,1729415033298.0,0.0
-2.005185,-5.123034,-6.575477,23.030001,5.18,0.07,1729415033318.0,0.0
-2.266003,-5.91745,-6.429514,7.21,2.31,1.05,1729415033338.0,0.0
-2.096112,-6.508478,-6.838687,-5.74,-2.1,-0.77,1729415033359.0,0.0
-1.914258,-6.506085,-7.326823,-5.46,-2.87,-0.35,1729415033380.0,0.0
-1.861616,-6.498906,-7.197611,3.36,-4.2,0.28,1729415033398.0,0.0
-1.667797,-6.506085,-7.580462,2.38,-4.83,-0.7,1729415033418.0,0.0
-1.76351,-6.422336,-6.862615,-0.63,-6.51,1.89,1729415033438.0,0.0
-1.770689,-6.494121,-7.080362,-0.07,-10.15,1.61,1729415033458.0,0.0
-1.926222,-6.431907,-7.503892,-0.56,-10.71,3.01,1729415033481.0,0.0
-2.122434,-6.800402,-7.920243,0.84,-10.64,2.31,1729415033498.0,0.0
-2.136791,-6.831509,-7.73121,1.54,-9.1,1.68,1729415033518.0,0.0
-2.277967,-7.156933,-7.585248,1.47,-7.0,1.82,1729415033538.0,0.0
-2.469393,-7.051648,-7.800602,-1.33,-5.39,0.28,1729415033558.0,0.0
-2.87378,-7.037291,-8.250452,-6.65,-0.7,-2.52,1729415033580.0,0.0
-2.935993,-6.312266,-7.709675,-3.01,0.07,-2.59,1729415033598.0,0.0
-2.713461,-6.199803,-7.649854,-2.45,7.0,-5.95,1729415033617.0,0.0
-2.589034,-6.008378,-6.321837,-4.48,10.43,-7.21,1729415033638.0,0.0
-2.354537,-5.606383,-6.800402,-1.47,7.84,-9.52,1729415033658.0,0.0
-2.828316,-6.374479,-7.575676,-20.23,14.14,-14.42,1729415033681.0,0.0
-2.866602,-6.594619,-7.877172,-19.809999,14.98,-17.01,1729415033699.0,0.0
-2.533999,-6.166305,-7.829315,-17.57,13.86,-15.4,1729415033718.0,0.0
-2.524428,-6.419943,-7.601997,-20.02,12.88,-13.16,1729415033738.0,0.0
-2.639283,-6.774081,-6.202196,-23.450001,10.78,-14.77,1729415033758.0,0.0
-2.108077,-6.982256,-7.391429,-25.41,5.11,-17.710001,1729415033780.0,0.0
-2.175076,-6.9009,-7.855636,-17.99,5.46,-16.799999,1729415033798.0,0.0
-2.105684,-6.599405,-7.71446,-14.98,6.44,-16.24,1729415033818.0,0.0
-1.639083,-6.630512,-7.867601,-6.44,5.95,-17.43,1729415033844.0,0.0
-1.840081,-6.410372,-7.970492,-5.67,11.27,-18.969999,1729415033858.0,0.0
-2.108077,-6.486942,-7.941778,-10.08,16.17,-20.860001,1729415033880.0,0.0
-2.06022,-6.364908,-8.047063,-9.31,15.05,-23.66,1729415033899.0,0.0
-1.789831,-5.776274,-7.846066,-6.37,12.67,-24.15,1729415033918.0,0.0
-1.663012,-6.008378,-8.616554,-10.01,15.33,-30.59,1729415033938.0,0.0
-1.385444,-5.635098,-8.645268,-11.76,15.05,-33.040001,1729415033958.0,0.0
-1.356731,-4.366901,-8.965906,-3.29,17.08,-34.23,1729415033979.0,0.0
-1.447658,-4.208975,-9.513863,12.39,36.68,-43.049999,1729415033997.0,0.0
-0.887737,-4.512863,-10.119246,47.389999,50.259998,-46.48,1729415034018.0,0.0
-0.155533,-5.268995,-9.12144,72.730003,53.549999,-37.170002,1729415034037.0,0.0
0.284746,-5.52742,-8.616554,49.77,57.959999,-31.01,1729415034058.0,0.0
0.306281,-5.194818,-9.288938,25.129999,62.09,-29.469999,1729415034082.0,0.0
0.059821,-6.417551,-8.394022,63.560001,74.970001,-23.66,1729415034098.0,0.0
-0.011964,-7.889136,-7.57089,133.350006,78.68,-12.6,1729415034118.0,0.0
0.155533,-8.836694,-6.625726,202.860001,67.830002,1.19,1729415034138.0,0.0
-0.586242,-8.587841,-6.309873,251.720001,71.400002,16.450001,1729415034158.0,0.0
-1.418944,-9.181261,-4.699504,315.209991,88.410004,31.639999,1729415034179.0,0.0
-0.088534,-13.253844,-3.682554,380.380005,58.52,-9.59,1729415034197.0,0.0
1.148555,-11.286944,-2.325824,402.290009,44.099998,-29.469999,1729415034217.0,0.0
0.691526,-10.059426,0.119641,357.700012,92.959999,3.85,1729415034237.0,0.0
0.210568,-6.45105,-0.026321,285.950012,103.040001,3.43,1729415034258.0,0.0
0.323031,-4.661219,0.392423,237.509995,106.610001,9.52,1729415034278.0,0.0
2.445465,-6.151947,6.623333,200.339996,70.629997,10.92,1729415034297.0,0.0
4.216154,-9.590433,11.030912,204.050003,34.16,9.45,1729415034318.0,0.0
3.105884,-8.020741,9.899107,193.970001,0.77,5.67,1729415034337.0,0.0
2.124826,-5.029713,7.793423,98.559998,-21.700001,2.1,1729415034357.0,0.0
3.15374,-4.82393,3.366701,6.72,-40.040001,13.3,1729415034420.0,0.0
4.041477,-8.755339,4.754539,13.02,-35.84,24.01,1729415034421.0,0.0
1.124627,-11.748759,5.79781,85.190002,-10.99,25.549999,1729415034421.0,0.0
-0.935594,-9.150154,5.883951,122.989998,-5.32,18.9,1729415034444.0,0.0
-0.689133,-6.26441,5.422136,107.029999,-30.52,35.279999,1729415034458.0,0.0
0.028714,-6.60419,3.409772,57.330002,-47.110001,33.389999,1729415034479.0,0.0
-2.318645,-11.602797,0.198604,42.420002,-36.189999,40.459999,1729415034497.0,0.0
-5.139783,-13.579268,-2.340181,59.849998,20.65,30.59,1729415034517.0,0.0
-4.627719,-10.801201,0.485743,3.99,39.48,-0.21,1729415034537.0,0.0
-1.596013,-11.801401,3.790231,42.84,-31.01,-9.38,1729415034558.0,0.0
0.701097,-8.901299,3.431308,85.120003,-52.920002,-23.030001,1729415034579.0,0.0
-0.160319,-7.49432,3.359523,58.450001,-13.93,-21.280001,1729415034598.0,0.0
-1.277767,-9.016156,2.218147,-3.5,19.809999,-33.880001,1729415034618.0,0.0
0.177069,-8.906086,2.615355,-23.379999,23.940001,-44.939999,1729415034640.0,0.0
3.385844,-6.920043,6.15434,47.950001,12.74,-46.549999,1729415034657.0,0.0
5.87438,-4.352544,11.179268,117.949997,20.370001,-38.57,1729415034681.0,0.0
5.898308,-2.316252,14.52204,126.629997,27.58,-15.190001,1729415034698.0,0.0
3.998406,-3.108276,13.098311,94.639999,3.71,11.41,1729415034717.0,0.0
3.34038,-3.809374,10.126426,19.879999,-6.58,14.07,1729415034739.0,0.0
3.505485,-5.924629,8.372486,9.24,-18.9,19.110001,1729415034758.0,0.0
2.730211,-8.221739,8.51127,40.110001,-17.85,24.710001,1729415034780.0,0.0
0.547956,-6.290731,8.238488,78.050003,-13.51,36.400002,1729415034797.0,0.0
-1.488336,-4.701896,6.666404,77.139999,-14.7,55.299999,1729415034817.0,0.0
-2.998207,-5.517848,1.835295,42.700001,-36.610001,71.120003,1729415034837.0,0.0
-4.189832,-8.729016,0.942772,1.96,-31.710001,62.650002,1729415034858.0,0.0
-5.529813,-11.449656,0.844666,-47.32,-6.09,38.57,1729415034879.0,0.0
-5.613562,-13.289737,1.320838,-43.470001,-12.39,24.360001,1729415034898.0,0.0
-2.758924,-10.535598,1.40698,-48.790001,-29.26,-13.3,1729415034918.0,0.0
-0.435494,-9.573684,2.18704,-52.920002,-18.969999,-32.060001,1729415034937.0,0.0
0.701097,-8.676375,3.120241,-71.120003,11.48,-41.16,1729415034957.0,0.0
3.625126,-8.803195,5.615955,-56.0,9.66,-50.82,1729415034979.0,0.0
7.542177,-6.9679,10.226924,22.26,7.84,-46.549999,1729415034997.0,0.0
7.91785,-2.828316,16.589439,114.449997,34.93,-37.59,1729415035017.0,0.0
3.830909,0.634098,18.699909,111.090004,38.57,-12.46,1729415035038.0,0.0
2.191825,-0.930808,15.060425,17.92,-11.27,9.1,1729415035057.0,0.0
4.04387,-4.311867,10.590633,-82.389999,-52.43,7.84,1729415035096.0,0.0
3.364309,-6.343372,8.525627,-78.959999,-47.459999,25.48,1729415035097.0,0.0
0.385244,-5.639884,6.958328,-5.53,-19.18,47.389999,1729415035154.0,0.0
-1.947758,-4.421937,4.529613,35.0,-8.96,68.669998,1729415035156.0,0.0
-4.749753,-8.171489,2.239682,32.34,-11.06,76.090004,1729415035265.0,0.0
-5.706882,-11.394621,-0.380459,9.1,4.2,61.459999,1729415035268.0,0.0
-5.402994,-14.029119,-1.074377,-45.709999,-2.8,28.42,1729415035269.0,0.0
-3.54377,-15.24228,0.672383,1.4,-31.360001,7.35,1729415035270.0,0.0
-1.124627,-11.576476,1.646262,21.280001,-30.380001,-24.710001,1729415035271.0,0.0
0.145962,-8.568698,2.955136,-3.85,-5.18,-41.299999,1729415035272.0,0.0
1.048056,-7.140182,4.749753,-53.970001,23.450001,-57.959999,1729415035278.0,0.0
2.85703,-6.640083,6.348158,-65.800003,36.189999,-65.029999,1729415035296.0,0.0
5.895915,-6.218946,8.886944,11.27,28.77,-56.139999,1729415035316.0,0.0
6.869793,-3.223132,14.52204,117.669998,52.150002,-45.290001,1729415035336.0,0.0
3.986443,1.074377,18.21895,143.779999,67.690002,-28.49,1729415035356.0,0.0
1.674976,1.90708,16.01277,76.650002,23.52,9.17,1729415035378.0,0.0
2.435893,-2.943172,12.983455,-38.360001,-27.58,13.440001,1729415035396.0,0.0
1.782653,-5.371887,8.403593,-99.75,-37.52,23.030001,1729415035417.0,0.0
-0.449851,-6.628119,6.020342,-66.57,-21.91,48.369999,1729415035437.0,0.0
-2.481357,-6.692725,4.768896,-19.18,-7.56,55.93,1729415035457.0,0.0
-4.388437,-8.135597,2.318645,14.49,-15.96,58.450001,1729415035478.0,0.0
-5.35753,-10.621738,-0.851845,-4.55,-14.91,39.830002,1729415035497.0,0.0
-4.869394,-13.761123,-0.215354,-27.440001,-19.879999,29.26,1729415035517.0,0.0
-2.842674,-12.222539,1.088734,-48.720001,-28.35,-2.59,1729415035536.0,0.0
-1.323231,-12.059827,1.87358,-62.299999,-12.04,-26.67,1729415035556.0,0.0
-0.562313,-9.741181,2.711068,-76.090004,9.24,-43.610001,1729415035578.0,0.0
1.12702,-6.063413,4.158726,-87.220001,27.860001,-64.330002,1729415035598.0,0.0
3.656233,-5.321638,7.094719,-28.84,29.540001,-51.869999,1729415035615.0,0.0
6.293124,-2.969493,10.461421,71.470001,32.27,-37.59,1729415035637.0,0.0
6.484549,-0.055035,16.907684,157.149994,54.740002,-29.049999,1729415035657.0,0.0
2.385644,2.294717,17.860029,128.800003,37.029999,9.87,1729415035681.0,0.0
0.674776,-2.158326,13.966907,-1.05,-25.34,27.299999,1729415035697.0,0.0
1.37348,-5.455636,10.064213,-124.879997,-63.139999,15.190001,1729415035717.0,0.0
2.120041,-5.163712,6.903293,-152.320007,-79.730003,29.4,1729415035736.0,0.0
1.655833,-5.35753,6.793223,-106.190002,-84.0,68.25,1729415035757.0,0.0
-1.122234,-8.492127,6.551548,-82.040001,-61.18,71.400002,1729415035782.0,0.0
-2.462214,-5.312066,4.886144,-204.259995,-30.52,55.09,1729415035798.0,0.0
-2.313859,-1.354338,1.667797,-353.570007,-64.470001,47.040001,1729415035818.0,0.0
-1.902294,-1.476372,-2.132005,-480.899994,-92.120003,49.700001,1729415035837.0,0.0
-3.369094,4.046263,-11.176874,-767.900024,-63.490002,1.4,1729415035856.0,0.0
-4.699504,5.955735,-20.796022,-893.130005,-25.34,-31.99,1729415035882.0,0.0
-6.111269,-2.586641,-28.369305,-844.200012,-17.780001,-39.759998,1729415035896.0,0.0
-2.98385,-19.530218,-22.794027,-531.580017,-68.459999,-7.42,1729415035916.0,0.0
1.416551,-13.560125,-11.875579,-222.389999,-44.59,47.529999,1729415035937.0,0.0
-0.993021,-2.230111,-11.456835,-43.470001,43.889999,39.130001,1729415035957.0,0.0
-3.330809,0.569492,-7.611568,-33.18,48.93,27.51,1729415035982.0,0.0
-1.543371,-1.875973,-10.786844,-118.510002,-14.0,73.779999,1729415035996.0,0.0
0.232104,-14.813965,-5.52742,-183.539993,-36.68,55.439999,1729415036018.0,0.0
1.40698,-17.015362,-6.312266,-124.110001,-34.09,52.150002,1729415036039.0,0.0
3.029313,-16.058231,-7.568498,20.860001,-42.77,13.65,1729415036057.0,0.0
5.402994,-11.114661,-7.01097,55.93,-56.209999,6.37,1729415036085.0,0.0
5.182854,-9.446864,-7.365108,47.529999,-55.93,-6.93,1729415036096.0,0.0
2.366502,-9.109475,-8.200203,30.870001,-34.439999,-5.32,1729415036116.0,0.0
1.521835,-9.891929,-10.521241,52.57,-30.799999,-11.76,1729415036137.0,0.0
3.038885,-5.412565,-11.24866,66.150002,-54.040001,-17.5,1729415036156.0,0.0
0.48335,-3.314059,-11.114661,32.41,-32.759998,-49.07,1729415036181.0,0.0
-2.63689,-1.177269,-8.571091,-22.33,-15.12,-53.130001,1729415036197.0,0.0
-6.410372,0.289532,-12.236896,0.07,24.5,-33.670002,1729415036216.0,0.0
-7.281359,2.790031,-15.019747,41.439999,41.650002,-9.94,1729415036236.0,0.0
-6.628119,2.323431,-12.306287,25.34,29.82,27.58,1729415036257.0,0.0
-3.713661,0.375673,-11.789437,-33.740002,-16.52,17.85,1729415036279.0,0.0
-2.785245,0.368495,-8.032705,-7.35,12.18,28.84,1729415036297.0,0.0
-4.292724,-2.225325,-8.796017,-39.619999,49.349998,50.889999,1729415036316.0,0.0
-2.017149,-8.209774,-5.314459,-62.720001,8.68,50.82,1729415036336.0,0.0
1.995614,-12.143576,-7.377072,-54.599998,-24.92,37.170002,1729415036364.0,0.0
4.682754,-15.184854,-4.232903,-28.07,-24.92,11.27,1729415036381.0,0.0
5.300103,-14.335401,-4.63729,-1.19,-36.189999,-10.36,1729415036397.0,0.0
3.096312,-11.523834,-4.795217,47.18,-26.460001,-18.34,1729415036418.0,0.0
-0.019143,-8.843873,-8.396415,91.629997,-22.33,-14.07,1729415036437.0,0.0
-0.636491,-7.408179,-10.250853,124.459999,-35.91,-19.18,1729415036457.0,0.0
-0.710668,-5.056034,-11.033305,96.739998,-35.209999,-19.25,1729415036479.0,0.0
-1.502693,-4.462614,-6.932007,52.290001,-48.16,-36.189999,1729415036496.0,0.0
-4.532006,-1.043271,-10.999805,62.580002,-17.780001,-29.82,1729415036515.0,0.0
-5.699703,-0.98345,-14.67518,160.860001,11.06,4.41,1729415036537.0,0.0
-6.053841,-0.923629,-15.144175,189.139999,25.76,8.12,1729415036556.0,0.0
-6.147161,-1.404587,-9.190832,119.629997,17.710001,17.360001,1729415036578.0,0.0
-4.034299,-4.740182,-12.751352,97.090004,-4.27,-14.91,1729415036597.0,0.0
-4.146761,-7.860423,-9.152546,107.029999,25.34,5.11,1729415036615.0,0.0
-2.368894,-8.13799,-4.974678,70.279999,60.48,9.03,1729415036642.0,0.0
-0.799203,-6.56112,1.581656,36.889999,14.63,19.18,1729415036657.0,0.0
1.828116,-10.121639,-2.234896,6.51,9.66,21.91,1729415036678.0,0.0
4.462614,-16.185053,-0.717847,33.110001,13.02,27.58,1729415036696.0,0.0
4.237689,-20.059032,-0.899701,97.580002,42.630001,22.75,1729415036716.0,0.0
2.337788,-14.069797,0.380459,174.860001,22.120001,-24.57,1729415036736.0,0.0
1.057628,-8.389235,-1.919044,180.110001,-0.07,-23.52,1729415036758.0,0.0
1.040878,-9.47797,-1.213161,153.300003,-20.440001,-16.450001,1729415036781.0,0.0
0.715454,-8.250452,-4.443472,101.360001,-12.88,-14.28,1729415036796.0,0.0
0.464208,-9.501899,-5.912664,97.160004,-14.07,-25.27,1729415036816.0,0.0
-2.639283,-4.366901,-7.575676,110.879997,10.36,-0.49,1729415036836.0,0.0
-6.580262,-5.24746,-5.548956,226.729996,24.710001,20.370001,1729415036856.0,0.0
-7.987241,-8.650054,-7.314859,176.610001,43.119999,22.120001,1729415036878.0,0.0
-5.398208,-6.85783,-6.396015,79.379997,18.76,-9.38,1729415036897.0,0.0
-4.677969,-9.403792,-6.367301,51.170002,23.52,12.18,1729415036916.0,0.0
-3.213561,-11.334801,-3.349952,62.510002,27.23,4.48,1729415036937.0,0.0
-1.730011,-11.32523,-3.457629,120.330002,31.99,-4.13,1729415036958.0,0.0
1.019342,-8.496914,1.392623,140.0,14.28,-25.200001,1729415036978.0,0.0
3.026921,-8.408379,5.615955,88.129997,31.219999,-5.25,1729415036996.0,0.0
3.347559,-10.351351,7.200003,40.599998,30.870001,-3.5,1729415037017.0,0.0
2.067399,-11.578869,7.302894,27.16,35.560001,-0.98,1729415037037.0,0.0
1.177269,-10.444671,6.056234,40.670002,13.02,-5.18,1729415037057.0,0.0
1.344766,-7.267002,6.369694,36.82,-7.21,-0.63,1729415037085.0,0.0
1.612763,-6.020342,4.259224,-12.11,-35.630001,11.2,1729415037097.0,0.0
0.705883,-8.030313,0.502493,-66.080002,-45.849998,17.57,1729415037117.0,0.0
-1.048056,-8.166703,0.425922,-91.699997,-29.960001,21.98,1729415037137.0,0.0
-3.87398,-7.616355,-0.514457,-108.220001,-16.24,15.190001,1729415037156.0,0.0
-5.723632,-8.786445,-4.122833,-148.820007,-25.34,6.23,1729415037178.0,0.0
-6.271588,-10.939985,-7.80778,-192.919998,-37.310001,-16.24,1729415037196.0,0.0
-5.62074,-9.47797,-5.682954,-203.910004,-41.509998,-40.18,1729415037217.0,0.0
-3.972085,-9.662218,-5.867201,-166.529999,-44.52,-73.989998,1729415037236.0,0.0
-3.09392,-9.485149,-6.374479,-171.850006,-49.77,-83.370003,1729415037257.0,0.0
-2.720639,-8.403593,-7.286145,-220.360001,-24.780001,-85.82,1729415037279.0,0.0
-1.923829,-9.399008,-7.381857,-228.339996,-2.31,-76.160004,1729415037296.0,0.0
0.153141,-8.001599,-5.745167,-222.040009,-0.35,-62.510002,1729415037316.0,0.0
2.806781,-8.530413,-3.811767,-214.550003,4.13,-60.27,1729415037336.0,0.0
3.739982,-9.265009,-4.752146,-230.160004,17.780001,-44.869999,1729415037356.0,0.0
3.728018,-8.224132,-4.199404,-215.669998,19.67,-34.02,1729415037379.0,0.0
3.321238,-7.432107,-3.876373,-213.570007,9.59,-35.420002,1729415037397.0,0.0
2.952743,-8.970692,-5.278566,-177.800003,-13.93,-25.549999,1729415037417.0,0.0
3.347559,-6.084948,-6.197411,-138.180008,-25.620001,-34.439999,1729415037436.0,0.0
1.103091,-5.936593,-10.13839,-141.119995,-26.74,-33.459999,1729415037457.0,0.0
1.706082,-6.302694,-9.635897,-136.919998,-35.0,-34.509998,1729415037478.0,0.0
0.818345,-4.130012,-9.090333,-99.400002,-29.049999,-29.33,1729415037496.0,0.0
-0.959522,-2.148755,-9.135797,-86.730003,-7.98,-19.18,1729415037516.0,0.0
-3.23031,-1.923829,-9.461221,-87.919998,5.74,-3.22,1729415037536.0,0.0
-3.421736,-4.0008,-9.559326,-77.279999,2.31,3.15,1729415037556.0,0.0
-2.806781,-3.151347,-9.178867,-43.82,2.31,-2.31,1729415037577.0,0.0
-2.533999,-1.629512,-9.260223,-4.06,8.89,-15.54,1729415037596.0,0.0
-3.321238,-1.11027,-10.102496,-12.46,20.719999,-13.09,1729415037616.0,0.0
-2.134398,-2.098505,-9.934999,-41.16,8.26,18.059999,1729415037635.0,0.0
0.0335,-3.574877,-9.856036,-40.529999,-12.46,32.34,1729415037655.0,0.0
1.079163,-3.962514,-9.028119,-18.200001,-5.25,32.34,1729415037679.0,0.0
1.112662,-4.15394,-8.973085,-8.54,0.42,29.33,1729415037696.0,0.0
3.065206,-5.869594,-10.116854,-5.6,-14.42,17.92,1729415037716.0,0.0
3.718446,-6.058627,-10.167104,-8.47,-13.440001,11.62,1729415037736.0,0.0
4.811966,-7.178468,-9.729217,-1.54,-13.86,1.05,1729415037758.0,0.0
4.546363,-7.405786,-8.585447,15.54,-9.59,-5.95,1729415037778.0,0.0
3.199204,-5.546563,-8.047063,17.15,-0.21,-12.6,1729415037796.0,0.0
2.100898,-4.395615,-9.387043,-2.94,-5.6,-22.120001,1729415037815.0,0.0
2.0004,-2.569891,-9.836893,-2.59,-17.360001,-24.92,1729415037836.0,0.0
-0.921237,-4.850252,-9.042477,7.91,-11.69,-27.23,1729415037856.0,0.0
-3.065206,-2.440679,-8.970692,44.099998,-10.22,-21.0,1729415037878.0,0.0
-9.068797,-0.734596,-9.288938,42.84,-17.99,-11.41,1729415037895.0,0.0
-0.265603,2.40718,-10.159925,-14.49,-95.830002,5.32,1729415037916.0,0.0
-2.100898,-1.002593,-10.49492,-28.559999,15.61,5.6,1729415037936.0,0.0
-4.244867,-2.072184,-10.738988,-11.34,70.07,-2.03,1729415037957.0,0.0
-2.634498,-3.460021,-10.695917,13.86,33.18,-26.809999,1729415037980.0,0.0
-2.646462,-2.988636,-10.377672,34.02,28.0,8.82,1729415037996.0,0.0
0.12682,-1.969293,-10.564312,40.529999,1.89,26.110001,1729415038015.0,0.0
-0.452243,-3.182454,-9.133404,41.580002,11.55,37.380001,1729415038036.0,0.0
-0.658026,-3.376273,-8.542377,48.720001,13.58,49.490002,1729415038056.0,0.0
0.366102,-5.726025,-7.956135,53.760002,7.35,52.080002,1729415038081.0,0.0
1.698904,-8.252845,-8.353344,85.120003,-0.49,40.18,1729415038095.0,0.0
3.60359,-8.477771,-9.020942,150.430008,-11.06,26.6,1729415038116.0,0.0
4.488935,-8.269595,-8.099705,174.860001,0.07,18.34,1729415038137.0,0.0
3.567699,-9.346365,-8.183454,168.070007,3.08,17.710001,1729415038157.0,0.0
1.402194,-10.523634,-6.71426,172.339996,12.18,24.01,1729415038178.0,0.0
1.040878,-6.635297,-5.608776,191.800003,14.28,20.93,1729415038195.0,0.0
1.789831,-5.142176,-5.266603,233.029999,-21.07,29.960001,1729415038216.0,0.0
1.641476,-5.630312,-6.125626,216.860001,-26.18,32.830002,1729415038237.0,0.0
-0.071785,-7.843673,-6.202196,198.589996,1.54,41.790001,1729415038257.0,0.0
-1.804188,-10.79163,-6.479764,222.809998,25.549999,42.139999,1729415038279.0,0.0
-2.431108,-9.253045,-5.728417,238.910004,22.960001,37.310001,1729415038295.0,0.0
-2.134398,-7.01097,-2.962314,247.869995,6.79,42.630001,1729415038315.0,0.0
-2.888137,-7.264609,-1.402194,155.680008,5.81,33.040001,1729415038335.0,0.0
-2.821138,-8.29113,-3.962514,52.709999,1.61,13.51,1729415038355.0,0.0
-2.579463,-8.992228,-3.072384,78.470001,-6.93,40.32,1729415038378.0,0.0
-2.737389,-8.109276,-2.907279,137.410004,-1.33,44.029999,1729415038404.0,0.0
-4.237689,-6.386444,-2.615355,98.769997,19.25,44.170002,1729415038416.0,0.0
-4.165904,-9.987641,-4.914857,10.71,22.33,11.13,1729415038436.0,0.0
-3.981657,-14.009976,-4.572684,-1.75,16.450001,20.51,1729415038456.0,0.0
-3.397808,-12.856635,-4.493721,85.470001,14.56,14.28,1729415038477.0,0.0
-3.072384,-8.585447,-2.979064,145.389999,29.469999,1.54,1729415038497.0,0.0
-2.591427,-8.286345,-2.206182,132.440002,42.349998,-2.03,1729415038517.0,0.0
-1.775474,-10.487741,-0.433101,91.349998,47.740002,-6.72,1729415038536.0,0.0
-2.017149,-12.272788,0.368495,75.529999,58.170002,-13.37,1729415038555.0,0.0
-2.328217,-11.574083,0.504886,79.029999,51.869999,-20.65,1729415038577.0,0.0
-1.543371,-10.284351,2.11047,80.849998,35.0,-24.780001,1729415038596.0,0.0
-0.418744,-10.279566,2.421536,71.470001,25.27,-28.35,1729415038614.0,0.0
0.256032,-11.483156,2.581856,84.489998,21.84,-23.030001,1729415038636.0,0.0
0.540778,-10.619347,2.445465,121.169998,22.049999,-24.15,1729415038656.0,0.0
0.775275,-6.60419,3.783052,153.720001,21.91,-22.540001,1729415038680.0,0.0
0.72024,-4.510471,6.752545,163.169998,18.620001,-11.62,1729415038695.0,0.0
0.20339,-4.271189,7.953743,133.770004,12.11,-7.42,1729415038716.0,0.0
-0.519243,-5.479564,7.618747,84.349998,3.57,-5.6,1729415038735.0,0.0
-1.019342,-6.453443,7.104291,34.09,-9.17,-1.61,1729415038756.0,0.0
-0.921237,-6.343372,5.95095,-28.559999,-19.950001,5.11,1729415038779.0,0.0
-0.667598,-6.419943,5.4676,-81.199997,-40.110001,17.85,1729415038795.0,0.0
-1.663012,-7.532606,2.505285,-124.599998,-42.560001,28.210001,1729415038817.0,0.0
-2.68714,-8.769694,-0.107677,-102.830002,-35.0,34.580002,1729415038836.0,0.0
-3.266203,-9.616754,-2.136791,-52.080002,-36.610001,31.290001,1729415038855.0,0.0
-3.924229,-10.272388,-4.776074,-11.41,-24.99,34.790001,1729415038877.0,0.0
-4.589434,-12.734602,-4.165904,-19.879999,3.57,20.23,1729415038895.0,0.0
-5.56092,-15.25903,-2.526821,-42.209999,44.52,-8.82,1729415038916.0,0.0
-5.649454,-13.828122,-1.402194,-47.32,35.630001,-21.35,1729415038936.0,0.0
-3.404987,-12.370893,1.237089,1.47,0.35,-21.280001,1729415038956.0,0.0
-1.536192,-10.322637,1.459622,51.029999,-10.36,-27.58,1729415038977.0,0.0
-1.158126,-9.734003,-0.244068,42.700001,15.05,-44.310001,1729415038997.0,0.0
-1.330409,-9.973285,0.488136,12.53,44.939999,-49.77,1729415039015.0,0.0
-0.705883,-8.721838,4.252046,4.83,52.57,-38.709999,1729415039035.0,0.0
0.361316,-6.819544,7.472785,31.08,16.24,-15.12,1729415039057.0,0.0
1.091127,-4.220939,9.387043,42.139999,-4.76,-10.71,1729415039090.0,0.0
0.380459,-3.567699,8.49452,-21.91,5.95,2.59,1729415039094.0,0.0
0.818345,-6.374479,5.958128,-102.760002,-9.1,3.36,1729415039120.0,0.0
1.612763,-9.547362,4.280759,-148.050003,-16.59,14.35,1729415039135.0,0.0
1.131805,-12.607781,1.940579,-100.590004,-16.59,26.040001,1729415039155.0,0.0
0.086142,-11.20798,2.536392,-29.82,-9.87,29.4,1729415039179.0,0.0
-1.198804,-8.492127,2.524428,-13.58,-7.91,32.900002,1729415039197.0,0.0
-3.17049,-6.623333,1.124627,-79.870003,-34.790001,35.630001,1729415039215.0,0.0
-3.538985,-9.200402,-1.926222,-88.690002,-67.690002,27.16,1729415039235.0,0.0
-4.237689,-12.416357,-6.508478,-27.440001,-47.32,29.540001,1729415039255.0,0.0
-4.924429,-11.064411,-6.506085,51.73,-18.059999,20.790001,1729415039279.0,0.0
-5.458029,-9.834501,-3.929015,36.610001,9.52,3.78,1729415039296.0,0.0
-5.233103,-11.234302,-2.344966,-31.710001,15.4,-2.31,1729415039314.0,0.0
-3.900301,-13.641481,-1.318445,-10.5,-7.0,-8.96,1729415039335.0,0.0
-2.880959,-11.624333,-0.734596,42.209999,-5.95,-25.969999,1729415039355.0,0.0
-3.081956,-9.686146,-1.332802,38.150002,22.889999,-49.560001,1729415039429.0,0.0
-2.866602,-10.413565,-0.665205,-26.32,51.73,-53.549999,1729415039437.0,0.0
-1.205983,-12.449856,-0.447458,-42.630001,45.220001,-44.380001,1729415039438.0,0.0
0.337388,-11.13859,0.614955,20.719999,48.93,-34.720001,1729415039441.0,0.0
1.26341,-8.283953,7.362715,93.730003,54.040001,-34.02,1729415039455.0,0.0
1.564906,-4.974678,11.349157,97.160004,42.349998,-22.889999,1729415039478.0,0.0
1.823331,-4.584648,9.128618,61.950001,-8.4,-10.15,1729415039495.0,0.0
1.103091,-6.73101,5.924629,-20.58,-17.57,-5.18,1729415039514.0,0.0
1.064806,-8.575876,2.98385,-83.720001,-21.139999,2.73,1729415039535.0,0.0
1.115055,-9.97807,1.768296,-97.019997,-66.080002,18.129999,1729415039555.0,0.0
-1.385444,-7.51107,1.880759,-107.800003,-41.509998,21.559999,1729415039576.0,0.0
-4.151547,-7.391429,-1.995614,-84.840004,-47.110001,33.529999,1729415039595.0,0.0
-6.56112,-10.009177,-6.745367,-89.529999,-41.369999,33.32,1729415039621.0,0.0
-7.592427,-11.361122,-9.827322,-56.279999,-2.66,23.799999,1729415039637.0,0.0
-7.046863,-11.485549,-8.709875,0.63,7.14,11.83,1729415039655.0,0.0
-4.474578,-9.571291,-5.20439,21.35,-11.48,-4.69,1729415039676.0,0.0
-2.701497,-10.834702,-4.493721,25.969999,-8.54,-5.81,1729415039694.0,0.0
-2.813959,-11.667403,-5.883951,-13.93,40.810001,-22.610001,1729415039715.0,0.0
-3.067599,-11.322837,-4.867002,-52.220001,87.290001,-36.259998,1729415039734.0,0.0
-1.26341,-11.760723,-0.81356,-5.11,65.870003,-33.810001,1729415039755.0,0.0
1.572084,-7.757531,5.448457,46.549999,27.440001,-21.559999,1729415039776.0,0.0
2.431108,-8.518449,6.089733,91.139999,20.23,-4.55,1729415039795.0,0.0
1.696511,-8.429914,5.426922,64.120003,28.84,0.49,1729415039814.0,0.0
0.952343,-9.686146,5.142176,81.059998,23.940001,16.450001,1729415039835.0,0.0
1.328017,-8.228917,6.142376,128.869995,2.24,21.0,1729415039855.0,0.0
1.079163,-8.688338,9.623933,191.380005,-10.78,23.870001,1729415039876.0,0.0
-0.612563,-8.693125,10.334601,176.610001,-32.619999,45.920002,1729415039895.0,0.0
0.586242,-4.443472,4.601398,100.309998,-55.369999,66.919998,1729415039916.0,0.0
2.024328,-4.563113,5.156533,78.540001,-50.68,99.540001,1729415039935.0,0.0
-0.619741,-4.864608,0.258425,-28.35,9.45,108.080002,1729415039957.0,0.0
-3.302095,-5.615955,0.744168,-172.619995,67.129997,108.919998,1729415039976.0,0.0
-7.152147,-13.3352,-5.216353,-138.809998,61.389999,139.930008,1729415039995.0,0.0
-7.508677,-16.103697,-8.561519,2.66,27.93,108.709999,1729415040015.0,0.0
-7.427321,-13.966907,-7.712067,127.540001,40.110001,115.639999,1729415040036.0,0.0
-10.518847,-12.124433,-4.175476,122.010002,79.870003,87.989998,1729415040054.0,0.0
-14.213367,-13.469198,-3.232704,43.68,93.309998,37.869999,1729415040081.0,0.0
-9.473185,-12.425928,-1.65344,87.080002,-19.460001,-33.950001,1729415040095.0,0.0
-4.941179,-7.690532,2.608176,95.199997,-35.07,-77.419998,1729415040115.0,0.0
-5.548956,-5.008178,3.428915,23.1,16.17,-69.230003,1729415040135.0,0.0
-4.431508,-3.620341,3.261417,-22.049999,16.309999,-74.129997,1729415040154.0,0.0
-0.777667,-6.999006,4.354938,-29.610001,5.25,-88.480003,1729415040176.0,0.0
-0.157926,-5.493921,6.965507,-9.66,15.89,-56.490002,1729415040195.0,0.0
2.237289,-3.929015,8.867801,-3.99,14.0,-40.670002,1729415040214.0,0.0
1.533799,-4.144369,9.88475,-18.129999,4.76,5.18,1729415040234.0,0.0
-0.538385,-6.912865,8.965906,-57.889999,7.63,24.780001,1729415040255.0,0.0
-0.681954,-8.786445,5.809773,-77.699997,-13.58,38.290001,1729415040277.0,0.0
-1.148555,-9.585647,3.61077,-68.18,-24.01,43.119999,1729415040296.0,0.0
-2.701497,-9.643075,2.189433,-41.299999,-25.129999,58.73,1729415040314.0,0.0
-3.754339,-7.326823,0.148355,-6.79,-32.27,69.160004,1729415040334.0,0.0
-5.529813,-7.092326,1.306481,3.29,-31.57,81.340004,1729415040355.0,0.0
-7.889136,-7.355537,4.491328,-9.87,-20.02,93.169998,1729415040377.0,0.0
-11.052447,-11.260624,0.591027,-112.07,0.84,54.110001,1729415040394.0,0.0
-10.664811,-15.584454,-8.836694,-114.940002,25.969999,32.619999,1729415040416.0,0.0
-9.777073,-12.856635,-9.535398,-43.540001,29.68,8.96,1729415040442.0,0.0
-9.030513,-11.559726,-4.350152,46.759998,21.84,-27.09,1729415040455.0,0.0
-10.336994,-10.396815,0.334995,86.800003,37.170002,-55.23,1729415040477.0,0.0
-9.578469,-8.398808,0.631705,63.91,13.37,-63.560001,1729415040496.0,0.0
-3.866802,-4.733003,-0.047856,-11.34,-27.299999,-86.309998,1729415040514.0,0.0
1.177269,-4.283153,5.45085,-20.16,-27.65,-73.150002,1729415040535.0,0.0
-0.502493,-5.79781,8.327023,-17.57,13.09,-50.68,1729415040558.0,0.0
1.045663,-4.134798,9.879964,-22.610001,1.54,-25.83,1729415040577.0,0.0
4.007978,-4.106083,7.319644,-46.34,-23.66,-3.15,1729415040596.0,0.0
1.505085,-8.293523,2.840281,-86.870003,3.01,27.93,1729415040616.0,0.0
-1.550549,-10.10489,0.55992,-49.630001,10.99,50.259998,1729415040635.0,0.0
-2.062613,-7.700103,1.476372,15.75,-16.17,60.689999,1729415040655.0,0.0
-1.749153,-5.24746,4.220939,65.169998,-54.25,75.809998,1729415040678.0,0.0
-4.890929,-6.508478,4.108476,20.790001,-39.830002,99.190002,1729415040696.0,0.0
-10.602598,-11.353944,-3.407379,-106.959999,34.790001,102.620003,1729415040715.0,0.0
-12.342178,-14.031512,-7.508677,-124.949997,35.07,76.93,1729415040736.0,0.0
-12.01197,-15.244674,-8.676375,-60.549999,23.379999,27.93,1729415040757.0,0.0
-11.059627,-12.96192,-5.474778,36.330002,19.040001,-19.67,1729415040777.0,0.0
-10.042676,-10.078569,-2.476572,84.139999,-2.52,-49.490002,1729415040797.0,0.0
-8.623734,-9.193225,-2.033899,63.209999,-8.82,-72.660004,1729415040817.0,0.0
-5.525027,-9.391829,-1.938186,7.0,9.52,-95.059998,1729415040836.0,0.0
-2.352145,-3.29731,3.058028,2.31,14.77,-92.610001,1729415040857.0,0.0
1.201197,-3.20399,5.931807,37.240002,-6.93,-88.900002,1729415040878.0,0.0
-0.078963,-6.422336,7.379465,16.24,8.68,-49.98,1729415040896.0,0.0
-0.595813,-5.87438,7.025328,8.75,14.21,-33.110001,1729415040916.0,0.0
1.940579,-6.592227,5.807381,-7.98,-19.74,-18.129999,1729415040936.0,0.0
1.469193,-7.221539,4.615755,-35.139999,-11.13,-0.28,1729415040958.0,0.0
-0.847059,-7.499106,3.589234,-47.32,-2.66,21.210001,1729415040979.0,0.0
-2.199004,-7.537392,1.462015,-52.080002,-9.94,35.630001,1729415040997.0,0.0
-2.89053,-8.061419,1.033699,-29.960001,-24.92,40.32,1729415041017.0,0.0
-3.864408,-8.003991,2.069792,27.860001,-42.420002,49.560001,1729415041037.0,0.0
-7.018148,-8.039884,7.049256,4.62,-44.939999,72.029999,1729415041058.0,0.0
-10.305886,-7.63789,-0.160319,-117.529999,-24.08,56.0,1729415041081.0,0.0
-9.966106,-9.736395,-7.21436,-207.619995,-0.7,24.780001,1729415041097.0,0.0
-8.535198,-14.878571,-10.674382,-218.540009,-14.07,-20.16,1729415041117.0,0.0
-8.662018,-12.198609,-8.001599,-94.360001,22.190001,-36.540001,1729415041138.0,0.0
-8.38445,-8.346166,-4.024727,-39.689999,43.75,-60.689999,1729415041162.0,0.0
-5.132604,-6.278766,-5.666204,-41.509998,18.76,-116.550003,1729415041179.0,0.0
-3.129812,-6.920043,-1.753939,-91.910004,11.27,-129.990005,1729415041197.0,0.0
-2.57707,-8.975478,0.399601,-141.119995,7.21,-91.910004,1729415041217.0,0.0
-1.033699,-6.553941,-1.674976,-152.320007,-13.3,-85.120003,1729415041237.0,0.0
0.600598,-5.74756,-1.198804,-173.529999,-8.54,-76.230003,1729415041257.0,0.0
0.918844,-6.472585,-3.326023,-245.699997,-8.33,-73.080002,1729415041279.0,0.0
0.528814,-13.39502,-4.517649,-270.480011,-6.72,-70.279999,1729415041297.0,0.0
1.028914,-12.392428,-3.888337,-300.019989,-19.879999,-72.590004,1729415041318.0,0.0
1.462015,-10.068997,-4.644469,-231.419998,-15.4,-45.849998,1729415041338.0,0.0
3.455236,-7.056434,-6.482157,-183.330002,-34.720001,-47.389999,1729415041358.0,0.0
1.48355,-12.535997,-2.210968,-161.910004,-10.85,-31.85,1729415041378.0,0.0
-0.040678,-10.535598,-3.136991,-126.0,-31.290001,-56.84,1729415041397.0,0.0
0.571885,-5.601598,-5.982057,-145.809998,-44.52,-69.300003,1729415041417.0,0.0
-2.148755,-5.630312,-7.470392,-247.800003,-29.960001,-48.16,1729415041438.0,0.0
-5.180461,-4.744967,-12.306287,-224.210007,-40.389999,-43.959999,1729415041457.0,0.0
-7.444071,-4.189832,-13.371094,-85.120003,5.32,-27.440001,1729415041478.0,0.0
-6.661618,-0.959522,-12.777672,-23.59,21.0,-15.4,1729415041497.0,0.0
-4.54397,-1.538585,-9.946963,-38.639999,27.65,-28.07,1729415041517.0,0.0
-5.187639,-2.502892,-9.492328,-60.760002,29.75,-41.509998,1729415041537.0,0.0
-5.941379,-1.524228,-10.023535,-83.440002,37.380001,-18.969999,1729415041557.0,0.0
-3.663411,0.349352,-10.581062,-112.349998,38.57,6.23,1729415041589.0,0.0
-1.732404,-4.326223,-9.281759,-113.68,48.23,16.17,1729415041597.0,0.0
1.071985,-4.682754,-6.558727,-46.900002,17.639999,13.440001,1729415041616.0,0.0
3.254239,-7.13779,-4.926822,-38.150002,2.52,3.36,1729415041638.0,0.0
5.099105,-8.068598,-7.06122,-39.970001,-2.94,0.35,1729415041656.0,0.0
4.749753,-7.910671,-9.415757,-20.440001,-7.84,-8.47,1729415041680.0,0.0
2.043471,-5.864808,-8.525627,-7.21,1.26,-17.780001,1729415041698.0,0.0
2.416751,-5.230711,-8.123632,-16.1,-8.12,-23.17,1729415041717.0,0.0
2.277967,-3.440879,-9.853643,11.34,-16.1,-29.889999,1729415041737.0,0.0
-1.227518,-2.143969,-10.095319,38.360001,-3.71,-33.389999,1729415041757.0,0.0
-3.572484,-1.493121,-11.057234,30.450001,-3.64,-27.58,1729415041779.0,0.0
-5.828916,-0.210568,-9.449257,-4.62,-1.75,-13.65,1729415041797.0,0.0
-6.721439,0.339781,-9.425328,-12.04,9.45,-1.54,1729415041818.0,0.0
-4.649254,-0.756132,-8.752945,-12.32,11.9,9.45,1729415041837.0,0.0
-3.172883,-2.682354,-10.679168,-7.56,18.059999,11.48,1729415041857.0,0.0
-2.914458,-1.78026,-11.62194,-12.67,11.69,14.91,1729415041878.0,0.0
-1.196411,-3.24706,-10.614561,-25.41,-3.43,10.64,1729415041898.0,0.0
0.282353,-3.364309,-9.064013,-13.58,-7.63,0.21,1729415041916.0,0.0
2.088934,-3.615555,-7.865208,-5.67,-5.11,-3.99,1729415041937.0,0.0
2.955136,-6.326623,-7.089933,-2.59,-7.49,-5.95,1729415041957.0,0.0
3.565305,-7.144968,-8.769694,2.24,-13.58,-6.37,1729415041988.0,0.0
2.019542,-5.501099,-9.131011,7.28,-4.13,-5.11,1729415041997.0,0.0
0.401994,-4.09412,-9.521042,4.97,-6.3,-13.58,1729415042017.0,0.0
0.454636,-3.275774,-8.348558,4.41,-7.84,-17.92,1729415042038.0,0.0
0.495314,-2.266003,-7.913064,46.900002,-18.48,-21.559999,1729415042058.0,0.0
-1.557728,-2.569891,-8.49452,52.220001,-14.49,-16.030001,1729415042082.0,0.0
-2.045863,-1.143769,-10.128819,51.939999,-23.1,-5.32,1729415042096.0,0.0
-5.029713,-0.612563,-12.366108,37.66,-8.96,7.0,1729415042117.0,0.0
-6.766902,-0.153141,-10.734202,-4.83,-3.64,13.72,1729415042136.0,0.0
-3.818945,-3.232704,-11.337193,-22.26,-5.6,10.99,1729415042156.0,0.0
-2.900101,-4.847858,-10.877771,5.25,18.9,-7.28,1729415042180.0,0.0
-2.478964,-1.081556,-11.169697,23.66,27.23,0.63,1729415042197.0,0.0
-2.404787,-1.962115,-9.915856,-25.34,30.799999,8.82,1729415042215.0,0.0
-0.380459,-4.074977,-8.724231,-29.540001,14.14,12.04,1729415042236.0,0.0
-0.062213,-4.807181,-8.133204,16.59,23.17,17.710001,1729415042257.0,0.0
0.72024,-7.812566,-6.017949,80.57,29.82,38.360001,1729415042278.0,0.0
2.347359,-8.015956,-6.812366,168.770004,12.39,49.07,1729415042298.0,0.0
2.182254,-6.185446,-8.874979,260.119995,5.39,52.849998,1729415042316.0,0.0
1.799403,-6.740582,-9.542577,306.73999,4.69,44.099998,1729415042336.0,0.0
1.074377,-6.374479,-7.398607,346.98999,6.86,46.970001,1729415042357.0,0.0
1.244268,-8.482556,-7.238289,441.350006,6.23,37.799999,1729415042377.0,0.0
1.636691,-9.286544,-8.025528,522.690002,16.24,25.27,1729415042396.0,0.0
-0.172283,-6.742974,-3.105884,519.330017,63.07,15.61,1729415042418.0,0.0
-2.957529,-8.405986,-1.988436,501.130005,73.43,48.23,1729415042437.0,0.0
-2.45025,-6.599405,4.953143,437.850006,41.860001,11.41,1729415042458.0,0.0
-3.460021,-5.905487,4.709075,152.880005,11.55,51.59,1729415042485.0,0.0
-2.888137,-9.741181,1.246661,-10.92,7.77,41.439999,1729415042496.0,0.0
-3.893122,-8.836694,-4.601398,-28.98,6.93,69.160004,1729415042517.0,0.0
-4.680361,-13.619946,-6.580262,112.770004,21.210001,70.629997,1729415042537.0,0.0
-6.046663,-12.732209,2.56032,266.070007,55.580002,20.370001,1729415042558.0,0.0
-4.41715,-13.349558,1.854438,149.449997,35.630001,42.84,1729415042578.0,0.0
-3.146562,-13.586447,3.792624,93.029999,27.51,14.98,1729415042597.0,0.0
-4.955536,-8.305488,2.904887,98.139999,21.280001,22.190001,1729415042617.0,0.0
-4.022335,-6.774081,1.567299,116.340004,-3.29,32.759998,1729415042636.0,0.0
-1.20359,-6.881758,1.29691,131.110001,-1.47,30.17,1729415042657.0,0.0
0.174676,-8.551948,-1.342373,167.789993,28.559999,43.330002,1729415042679.0,0.0
-0.681954,-11.030912,1.459622,248.919998,78.400002,48.720001,1729415042698.0,0.0
-3.926622,-7.920243,10.530812,263.690002,91.840004,-0.42,1729415042718.0,0.0
-3.213561,-9.030513,9.736395,195.580002,47.670002,-42.0,1729415042738.0,0.0
-0.947558,-0.361316,10.348958,133.279999,-20.16,-35.84,1729415042758.0,0.0
-1.627119,-2.656033,5.687739,89.110001,-19.530001,19.950001,1729415042780.0,0.0
-0.51685,-7.238289,5.596812,117.599998,9.1,17.92,1729415042797.0,0.0
-1.526621,-9.293723,4.41715,166.389999,27.299999,22.68,1729415042818.0,0.0
-3.160919,-6.908078,5.379066,237.580002,70.139999,36.330002,1729415042837.0,0.0
-4.110869,-2.146362,4.378866,238.139999,81.340004,26.389999,1729415042858.0,0.0
-45.913479,4.405186,3.125026,154.210007,83.790001,17.5,1729415042880.0,0.0
5.28096,-9.674182,3.215954,65.660004,-257.529999,-53.34,1729415042897.0,0.0
-0.729811,-3.402594,8.812766,105.07,-67.970001,-7.07,1729415042917.0,0.0
-4.61097,-6.015556,9.997212,94.639999,39.48,13.37,1729415042937.0,0.0
-3.457629,-7.101898,8.683553,68.25,70.699997,-32.27,1729415042958.0,0.0
-3.074777,-8.585447,5.56092,73.080002,113.190002,-52.57,1729415042980.0,0.0
-11.514263,-2.242075,5.161318,132.020004,264.73999,-46.48,1729415042999.0,0.0
-14.909678,3.613162,7.735995,98.139999,138.669998,-42.209999,1729415043018.0,0.0
1.473979,3.199204,7.185646,-3.08,-100.800003,-104.510002,1729415043038.0,0.0
5.321638,0.165105,10.351351,-98.139999,-71.610001,-61.950001,1729415043060.0,0.0
1.543371,-1.014557,9.265009,-87.290001,23.73,-9.73,1729415043086.0,0.0
-2.792424,-2.136791,9.238688,-20.860001,43.959999,44.869999,1729415043098.0,0.0
-4.139583,-1.052842,7.709675,4.41,36.470001,52.290001,1729415043118.0,0.0
-4.591826,0.782453,7.568498,6.86,21.42,57.049999,1729415043139.0,0.0
-5.905487,1.356731,5.556134,-11.76,28.84,67.620003,1729415043159.0,0.0
-5.709275,-1.318445,5.611169,-29.889999,21.42,64.330002,1729415043180.0,0.0
-5.788238,-5.98445,7.439285,-39.060001,19.67,65.660004,1729415043204.0,0.0
-9.753145,-10.782058,7.195218,-23.52,60.48,60.970001,1729415043218.0,0.0
-12.641282,-10.492528,7.929814,26.389999,57.470001,16.24,1729415043238.0,0.0
-9.540184,-6.463014,7.178468,50.119999,-32.41,-12.81,1729415043259.0,0.0
-5.290531,-6.738188,8.444271,59.639999,-67.269997,-23.940001,1729415043280.0,0.0
-5.95095,-4.742575,9.138189,67.129997,-21.35,-33.529999,1729415043298.0,0.0
-7.195218,-1.227518,9.064013,41.439999,1.33,-40.950001,1729415043318.0,0.0
-4.402793,-0.20339,7.690532,4.2,-34.580002,-42.84,1729415043338.0,0.0
-2.043471,-0.641276,7.659425,-17.99,-40.110001,-38.779999,1729415043358.0,0.0
-5.742774,-1.799403,9.449257,-24.57,-7.77,-37.59,1729415043381.0,0.0
-6.238089,-4.177868,9.365508,-27.440001,-24.85,-30.030001,1729415043398.0,0.0
-2.660819,-3.381058,8.839087,-9.73,-70.279999,-45.080002,1729415043418.0,0.0
-1.651048,0.023928,9.035298,-22.610001,-72.309998,-38.220001,1729415043439.0,0.0
-1.830509,1.208375,8.295916,-49.77,-73.709999,-37.380001,1729415043458.0,0.0
-1.648655,2.388037,7.479963,-99.470001,-82.949997,-15.05,1729415043481.0,0.0
-1.828116,1.940579,5.807381,-156.029999,-59.360001,4.76,1729415043498.0,0.0
-2.706282,-0.165105,4.709075,-210.490005,-45.709999,36.68,1729415043518.0,0.0
-2.758924,-4.338188,5.9342,-288.470001,-58.310001,42.349998,1729415043538.0,0.0
-2.505285,-6.288338,5.029713,-413.700012,-100.730003,38.080002,1729415043559.0,0.0
-3.692125,-11.157731,-1.150948,-383.73999,-99.330002,54.25,1729415043580.0,0.0
-4.338188,-11.179268,0.969093,-263.410004,-78.050003,56.630001,1729415043598.0,0.0
-1.885544,-6.585048,2.945565,-242.130005,-85.75,38.360001,1729415043618.0,0.0
-0.885344,-5.458029,0.945165,-292.040009,-35.630001,11.2,1729415043638.0,0.0
-4.871787,-11.873186,5.539384,-279.649994,17.710001,5.88,1729415043658.0,0.0
-6.922436,-12.614961,6.955935,-298.970001,7.21,10.15,1729415043681.0,0.0
-2.935993,-7.362715,-1.225125,-235.339996,-51.52,12.25,1729415043699.0,0.0
-1.981257,-7.716853,-1.433301,-220.290009,-30.59,-0.21,1729415043718.0,0.0
-5.04407,-8.030313,0.37328,-272.790009,13.51,33.529999,1729415043738.0,0.0
-6.522834,-8.73141,-2.055435,-292.880005,13.51,-2.94,1729415043758.0,0.0
-6.142376,-9.332008,-8.568698,-293.51001,-7.21,9.66,1729415043779.0,0.0
-4.924429,-13.27538,-9.877571,-191.940002,-15.190001,-6.09,1729415043798.0,0.0
-4.924429,-15.002998,-4.539185,-56.07,26.25,-0.07,1729415043818.0,0.0
-4.309474,-11.77508,-5.201996,48.09,41.580002,-16.940001,1729415043839.0,0.0
-3.658626,-8.709875,-5.623133,24.15,59.990002,-18.83,1729415043859.0,0.0
-2.880959,-10.140782,-5.4006,-19.74,68.25,-16.73,1729415043879.0,0.0
-2.158326,-13.799409,-4.541577,29.68,62.510002,-15.12,1729415043898.0,0.0
-1.442872,-10.145569,-1.414158,135.100006,72.660004,-28.84,1729415043918.0,0.0
-1.019342,-6.283553,-0.09332,187.25,73.5,-23.030001,1729415043938.0,0.0
-0.452243,-5.783452,2.629712,155.330002,69.160004,-25.969999,1729415043958.0,0.0
-0.528814,-9.571291,3.127419,150.149994,49.84,-6.86,1729415043982.0,0.0
-0.327817,-10.9352,2.713461,193.899994,29.75,-4.41,1729415043997.0,0.0
-1.069592,-6.979864,3.251846,217.979996,21.0,-1.4,1729415044017.0,0.0
-1.734797,-4.689932,2.830709,180.320007,17.08,9.17,1729415044038.0,0.0
-2.129612,-10.652846,1.732404,112.0,12.11,10.43,1729415044058.0,0.0
-1.507478,-14.804394,1.56012,113.260002,-4.34,0.84,1729415044083.0,0.0
-1.282553,-13.66541,4.945964,165.899994,-11.34,-29.68,1729415044098.0,0.0
-3.672983,-3.220739,5.084748,135.940002,17.08,7.14,1729415044118.0,0.0
-2.009971,-1.978864,2.904887,77.419998,-25.059999,13.37,1729415044138.0,0.0
-0.045464,-8.848659,2.392823,-4.34,-36.400002,-2.31,1729415044158.0,0.0
-0.461815,-13.172488,0.823131,-8.54,-23.1,1.54,1729415044180.0,0.0
-3.275774,-7.262216,1.574477,-49.700001,19.6,18.969999,1729415044198.0,0.0
-6.173482,-6.539584,3.955336,-154.139999,-10.29,26.110001,1729415044218.0,0.0
-4.261617,-11.63869,-2.163112,-273.630005,-89.809998,0.77,1729415044238.0,0.0
-1.01695,-14.545969,-2.947958,-209.720001,-103.25,-3.85,1729415044258.0,0.0
-2.388037,-8.894121,-1.718047,-86.519997,-28.49,-0.84,1729415044280.0,0.0
-4.821537,-6.496514,-4.694718,-64.889999,8.54,1.75,1729415044297.0,0.0
-5.166104,-10.41835,-2.232504,-90.510002,-1.54,11.97,1729415044317.0,0.0
-3.835695,-13.493127,-2.574677,-44.59,-3.71,-10.29,1729415044339.0,0.0
-3.716053,-9.413363,-2.404787,45.009998,10.85,-14.84,1729415044358.0,0.0
-5.730811,-4.785645,-0.672383,23.799999,35.490002,11.9,1729415044423.0,0.0
-2.971886,-10.707881,-3.041277,-130.059998,15.61,-15.54,1729415044452.0,0.0
0.267996,-18.685551,-4.491328,-31.43,-7.28,-27.93,1729415044453.0,0.0
-1.72044,-14.368899,-1.667797,119.209999,56.139999,-18.059999,1729415044453.0,0.0
-3.287738,-7.948956,0.634098,164.289993,96.669998,-19.389999,1729415044466.0,0.0
-2.15354,-5.498707,3.613162,131.25,49.630001,-15.89,1729415044479.0,0.0
0.366102,-6.862615,5.125426,88.340004,1.4,-21.210001,1729415044497.0,0.0
0.792024,-8.063812,5.972485,52.849998,11.41,-13.51,1729415044518.0,0.0
-0.0335,-7.84128,5.63749,30.1,15.96,-2.03,1729415044537.0,0.0
0.583849,-7.645068,4.051049,0.77,-7.14,5.25,1729415044558.0,0.0
1.304088,-8.386844,3.993621,-19.530001,-12.88,14.0,1729415044586.0,0.0
-0.184247,-8.618947,3.290131,-23.450001,3.99,17.57,1729415044598.0,0.0
-2.813959,-8.561519,2.029114,-9.1,14.77,25.48,1729415044618.0,0.0
-3.677768,-7.568498,0.662812,-21.07,-3.64,31.780001,1729415044643.0,0.0
-2.962314,-5.47717,0.684347,-67.690002,-36.330002,31.780001,1729415044658.0,0.0
-2.986243,-5.816952,-2.392823,-89.879997,-53.34,45.920002,1729415044682.0,0.0
-6.144768,-13.423735,-5.228317,-57.119999,-23.940001,38.290001,1729415044699.0,0.0
-7.630712,-16.290337,-6.625726,-45.220001,19.18,-5.95,1729415044720.0,0.0
-7.262216,-15.14896,-4.828716,-33.950001,28.0,-20.93,1729415044739.0,0.0
-4.804788,-13.186846,-3.117848,17.57,-12.32,-16.030001,1729415044760.0,0.0
-2.411965,-11.85165,-1.859223,88.830002,-29.4,-26.6,1729415044781.0,0.0
-2.249253,-10.090532,-1.581656,131.460007,2.03,-39.48,1729415044806.0,0.0
-4.005585,-9.24108,-0.270389,114.239998,53.549999,-49.0,1729415044819.0,0.0
-4.752146,-7.207181,-0.425922,57.049999,75.389999,-51.380001,1729415044841.0,0.0
-3.306881,-8.082954,1.462015,33.810001,42.420002,-45.639999,1729415044859.0,0.0
-0.5001,-8.29113,3.254239,37.310001,15.33,-47.740002,1729415044881.0,0.0
1.65344,-6.123233,8.212167,53.34,24.360001,-31.710001,1729415044900.0,0.0
2.033899,-5.455636,9.348758,70.349998,9.03,-15.47,1729415044919.0,0.0
0.945165,-6.04427,8.348558,7.07,-7.98,0.14,1729415044939.0,0.0
0.323031,-5.816952,6.068198,-75.599998,-15.47,0.49,1729415044960.0,0.0
0.40678,-7.240681,1.916651,-110.739998,-54.459999,11.97,1729415044982.0,0.0
-0.641276,-12.966705,-1.095913,-123.129997,-65.940002,26.74,1729415045000.0,0.0
-2.849852,-11.794223,-0.62692,-82.110001,9.66,24.99,1729415045020.0,0.0
-4.508078,-9.552148,-1.318445,-20.790001,-3.36,21.42,1729415045041.0,0.0
-4.699504,-10.219746,-1.5003,3.08,-40.810001,25.27,1729415045064.0,0.0
-4.639683,-8.683553,-6.343372,1.19,-66.779999,12.74,1729415045327.0,0.0
-5.429315,-11.80858,-6.092126,-42.209999,-31.5,1.54,1729415045336.0,0.0
-5.582455,-15.972091,-2.24686,-81.970001,13.51,-7.7,1729415045336.0,0.0
-4.68754,-12.758532,-0.253639,-23.66,29.82,-13.93,1729415045341.0,0.0
-3.364309,-8.458629,-2.316252,79.239998,18.200001,-25.83,1729415045342.0,0.0
-2.337788,-6.319445,-3.945765,106.68,6.16,-40.529999,1729415045342.0,0.0
-0.988236,-6.556334,-2.206182,21.07,20.299999,-53.130001,1729415045343.0,0.0
1.131805,-8.197811,3.220739,-74.410004,60.549999,-47.880001,1729415045344.0,0.0
2.598605,-8.91805,9.343972,-71.120003,64.75,-36.400002,1729415045345.0,0.0
2.919244,-6.429514,10.607382,40.670002,52.990002,0.98,1729415045345.0,0.0
-0.614955,-6.793223,6.245267,108.989998,-1.12,3.99,1729415045360.0,0.0
0.064606,-9.308081,1.040878,-63.630001,-8.47,11.97,1729415045362.0,0.0
1.261017,-10.147961,-3.0006,-170.169998,-83.93,30.030001,1729415045391.0,0.0
-0.327817,-12.093326,-4.086941,-94.080002,-47.599998,40.880001,1729415045392.0,0.0
-3.926622,-9.403792,-3.847659,-4.9,-0.49,52.43,1729415045393.0,0.0
-6.860222,-8.221739,-5.285746,47.040001,-15.96,53.549999,1729415045400.0,0.0
-8.599805,-8.11167,-9.073583,-1.47,-4.27,47.25,1729415045420.0,0.0
-6.838687,-9.994821,-9.346365,-54.18,16.870001,14.84,1729415045441.0,0.0
-4.287938,-13.380664,-4.929214,-23.1,-10.22,6.86,1729415045460.0,0.0
-3.507878,-12.964314,-4.15394,55.650002,20.02,-6.16,1729415045484.0,0.0
-4.591826,-10.112068,-3.830909,67.129997,69.650002,-30.799999,1729415045500.0,0.0
-3.682554,-8.738588,-2.921637,12.53,74.620003,-32.900002,1729415045519.0,0.0
-0.856631,-9.32483,1.069592,20.58,35.420002,-18.200001,1729415045540.0,0.0
1.868794,-8.65484,7.345965,68.110001,30.799999,-10.43,1729415045560.0,0.0
1.361516,-7.719246,9.513863,102.760002,51.66,4.48,1729415045584.0,0.0
0.586242,-7.300502,7.566105,105.699997,17.57,7.0,1729415045601.0,0.0
0.689133,-8.157133,3.383451,44.799999,-14.0,17.08,1729415045620.0,0.0
-0.617348,-9.24108,0.567099,13.58,-18.059999,16.1,1729415045640.0,0.0
-2.849852,-10.518847,-0.282353,35.139999,6.09,24.780001,1729415045660.0,0.0
-4.321437,-11.073983,0.028714,44.380001,23.17,12.32,1729415045683.0,0.0
-4.788038,-10.669596,-1.115055,24.639999,20.02,5.88,1729415045699.0,0.0
-4.017549,-9.786645,-2.100898,3.64,-10.43,-1.05,1729415045720.0,0.0
-3.273381,-8.901299,-2.337788,-25.41,-26.18,-4.83,1729415045740.0,0.0
-3.17049,-8.568698,0.062213,-69.93,-14.98,-12.74,1729415045760.0,0.0
-3.321238,-8.149954,1.217947,-134.680008,-24.219999,-20.51,1729415045783.0,0.0
-2.861816,-6.869793,-2.108077,-190.680008,-68.809998,-27.65,1729415045800.0,0.0
-2.287539,-10.966305,-6.295516,-175.419998,-83.790001,-38.920002,1729415045820.0,0.0
-2.103291,-13.368701,-3.952943,-162.610001,-37.380001,-20.09,1729415045842.0,0.0
-2.222932,-11.334801,-1.481157,-105.279999,-1.61,-15.54,1729415045861.0,0.0
-2.318645,-8.262416,-2.127219,-94.57,-6.3,-13.3,1729415045883.0,0.0
-2.254039,-6.333801,-1.215554,-150.220001,-12.04,-8.26,1729415045901.0,0.0
-2.39043,-6.558727,-1.399801,-197.75,-21.280001,-11.97,1729415045920.0,0.0
-2.672783,-8.396415,-4.663611,-219.380005,-35.630001,-14.07,1729415045940.0,0.0
-2.467,-9.54497,-5.414958,-245.070007,-46.200001,-19.460001,1729415045961.0,0.0
-2.414358,-10.057034,-6.283553,-221.270004,-40.670002,-22.540001,1729415045981.0,0.0
-2.294717,-9.195618,-6.197411,-181.720001,-26.6,-21.98,1729415046001.0,0.0
-2.409572,-7.23111,-7.460821,-157.710007,-20.370001,-23.52,1729415046020.0,0.0
-2.761317,-6.539584,-6.62094,-180.320007,-8.05,-14.98,1729415046040.0,0.0
-2.634498,-5.778666,-9.777073,-187.039993,-20.09,-17.43,1729415046061.0,0.0
-2.163112,-6.063413,-9.375079,-183.539993,-21.0,-19.040001,1729415046084.0,0.0
-1.952543,-7.355537,-9.064013,-163.729996,-24.57,-23.870001,1729415046103.0,0.0
-1.974079,-6.278766,-9.341579,-150.360001,-14.56,-37.73,1729415046120.0,0.0
-2.823531,-4.486543,-8.980263,-153.020004,-0.07,-42.209999,1729415046143.0,0.0
-2.474179,-4.39083,-9.01137,-157.710007,-5.32,-35.84,1729415046162.0,0.0
-1.196411,-4.898108,-10.035499,-128.589996,-10.22,-33.459999,1729415046184.0,0.0
-1.385444,-3.402594,-10.246067,-88.690002,4.06,-28.84,1729415046200.0,0.0
-2.021935,-1.911865,-7.929814,-86.029999,27.860001,-19.809999,1729415046219.0,0.0
-0.16989,-3.443272,-9.609575,-107.870003,16.52,-21.139999,1729415046241.0,0.0
0.909273,-4.890929,-9.856036,-103.599998,11.76,-17.710001,1729415046260.0,0.0
1.213161,-3.98405,-9.580862,-65.169998,25.83,-24.43,1729415046281.0,0.0
-0.069392,-3.766303,-9.662218,-44.66,38.009998,-18.76,1729415046301.0,0.0
-0.832702,-3.17049,-9.425328,-24.57,27.16,-16.870001,1729415046322.0,0.0
-2.62732,-1.902294,-10.631311,-24.5,22.889999,-18.620001,1729415046341.0,0.0
-4.666004,-0.949951,-10.08814,-4.9,19.530001,-17.219999,1729415046360.0,0.0
-5.197211,-0.433101,-8.513663,20.23,24.219999,-2.31,1729415046384.0,0.0
-2.79721,-0.993021,-7.76471,37.240002,17.99,0.07,1729415046400.0,0.0
-2.610569,-2.230111,-8.403593,12.53,30.66,-4.55,1729415046420.0,0.0
-2.629712,-3.091527,-10.181459,-10.78,32.619999,-2.52,1729415046441.0,0.0
-1.639083,-4.386044,-10.425529,7.07,18.690001,15.33,1729415046460.0,0.0
-0.430708,-3.278167,-10.023535,68.669998,18.76,35.700001,1729415046484.0,0.0
-1.804188,-0.253639,-9.765109,80.639999,38.57,35.91,1729415046502.0,0.0
-2.132005,-1.942972,-9.973285,41.439999,25.27,24.85,1729415046520.0,0.0
-1.452443,-2.916851,-10.023535,21.559999,13.440001,14.28,1729415046540.0,0.0
-1.584049,-2.734996,-8.822337,24.360001,13.58,12.95,1729415046561.0,0.0
-1.402194,-3.656233,-7.334002,14.42,2.24,15.54,1729415046583.0,0.0
0.586242,-4.364508,-9.023334,5.67,-10.29,16.1,1729415046600.0,0.0
1.684547,-5.666204,-11.770294,8.68,-4.9,20.719999,1729415046627.0,0.0
3.768696,-7.001399,-9.958927,41.299999,-2.66,2.03,1729415046644.0,0.0
2.825923,-4.240082,-9.131011,40.810001,18.48,-14.28,1729415046663.0,0.0
1.086342,-5.261817,-8.386844,-9.52,21.0,-19.110001,1729415046685.0,0.0
0.519243,-5.553742,-7.601997,-9.03,-10.99,-24.99,1729415046701.0,0.0
-0.358923,-5.261817,-8.4012,3.29,-8.68,-27.58,1729415046720.0,0.0
-0.672383,-4.063013,-10.435099,28.42,-16.52,-26.389999,1729415046740.0,0.0
-1.694118,0.098106,-11.461621,27.719999,-3.43,-21.07,1729415046760.0,0.0
-2.148755,-0.177069,-10.841879,1.19,8.61,-9.59,1729415046781.0,0.0
-1.383051,-2.749353,-9.836893,-18.129999,-0.84,2.45,1729415046800.0,0.0
-1.289732,-4.845466,-7.963314,-9.87,12.6,4.48,1729415046820.0,0.0
0.454636,-3.376273,-8.391629,23.870001,-6.09,-5.95,1729415046840.0,0.0
0.081356,-2.634498,-8.772088,23.66,0.35,-11.83,1729415046861.0,0.0
-1.069592,-3.381058,-9.159724,-4.27,3.15,-16.17,1729415046884.0,0.0
-0.449851,-3.900301,-8.539984,-21.49,-10.15,-16.379999,1729415046902.0,0.0
-1.639083,-2.868994,-8.539984,-3.64,-10.01,-11.41,1729415046923.0,0.0
-3.471986,-3.223132,-8.46102,9.24,10.36,-11.41,1729415046943.0,0.0
-1.935793,-3.792624,-8.489735,20.51,-5.18,10.71,1729415046962.0,0.0
-0.674776,-4.646862,-8.240881,21.210001,-8.12,11.62,1729415046984.0,0.0
-1.85683,-4.599005,-8.319844,1.54,2.1,4.41,1729415047002.0,0.0
-2.569891,-3.366701,-8.712267,-15.05,-6.23,-2.31,1729415047021.0,0.0
-2.945565,-1.366302,-9.394222,-20.09,-14.07,-1.75,1729415047043.0,0.0
-3.74716,-0.18664,-9.686146,-9.38,-3.92,10.15,1729415047064.0,0.0
-2.756532,-2.206182,-9.150154,2.31,2.52,22.049999,1729415047087.0,0.0
-1.177269,-5.651847,-11.196017,9.24,-1.26,15.12,1729415047103.0,0.0
-2.510071,-3.081956,-10.023535,32.34,14.14,35.209999,1729415047122.0,0.0
-0.882952,-2.952743,-10.600205,36.610001,-14.35,29.120001,1729415047143.0,0.0
-3.096312,-3.651447,-8.630912,7.63,6.65,31.01,1729415047165.0,0.0
-3.723232,-3.952943,-8.236095,-11.69,-1.82,30.24,1729415047184.0,0.0
-0.160319,-5.91745,-10.193424,-5.74,-45.5,24.5,1729415047202.0,0.0
3.421736,-7.872386,-12.033505,-0.63,-49.490002,9.59,1729415047224.0,0.0
4.331009,-9.01137,-10.664811,4.41,5.88,-9.8,1729415047244.0,0.0
3.725625,-8.602197,-7.939385,-4.06,14.07,-20.719999,1729415047264.0,0.0
2.191825,-6.388836,-6.63769,9.73,21.700001,-33.389999,1729415047284.0,0.0
1.105484,-4.395615,-6.695118,19.530001,17.360001,-30.450001,1729415047303.0,0.0
1.182054,-4.869394,-8.10449,14.42,-5.46,-31.43,1729415047324.0,0.0
1.0002,-4.460221,-10.19821,-3.36,-7.28,-37.029999,1729415047346.0,0.0
-1.696511,-4.922036,-12.174682,-23.450001,14.98,-36.68,1729415047363.0,0.0
-3.148954,-5.558527,-9.367901,16.66,0.35,-43.259998,1729415047383.0,0.0
-2.720639,-2.945565,-6.575477,70.07,-25.76,-44.310001,1729415047404.0,0.0
-4.163511,0.01675,-4.709075,95.059998,-19.18,-28.91,1729415047421.0,0.0
-5.347959,0.430708,-7.281359,67.830002,-24.85,-10.64,1729415047442.0,0.0
-5.513064,-0.057428,-10.061819,23.870001,-17.15,10.99,1729415047462.0,0.0
-3.926622,-1.732404,-14.072189,12.74,3.57,27.370001,1729415047486.0,0.0
-3.823731,-6.439085,-13.517055,73.639999,26.950001,14.0,1729415047503.0,0.0
-4.63729,-8.094919,-10.542776,205.029999,66.5,44.310001,1729415047523.0,0.0
-3.244668,-8.365308,-8.408379,289.589996,42.420002,30.870001,1729415047541.0,0.0
-3.381058,-6.161518,-6.084948,341.25,51.52,22.540001,1729415047561.0,0.0
-1.531406,-5.146961,-6.52762,359.029999,12.88,35.84,1729415047583.0,0.0
2.285146,-5.876772,-3.756732,327.950012,-44.59,35.98,1729415047602.0,0.0
5.596812,-8.9348,-2.194218,248.149994,-41.299999,12.18,1729415047621.0,0.0
4.790431,-13.107882,-3.132205,205.309998,32.34,18.9,1729415047642.0,0.0
2.919244,-15.287744,-1.574477,253.119995,73.57,13.72,1729415047661.0,0.0
1.165305,-10.655239,0.133998,300.369995,77.209999,-3.64,1729415047685.0,0.0
0.449851,-6.015556,2.330609,293.649994,54.25,-2.24,1729415047703.0,0.0
-0.088534,-5.723632,6.104091,240.940002,28.07,4.06,1729415047722.0,0.0
-1.682154,-9.84168,7.688138,172.619995,6.02,4.06,1729415047742.0,0.0
-5.120641,-11.696117,5.927022,160.860001,-3.71,-13.72,1729415047762.0,0.0
-3.098706,-8.063812,6.173482,123.129997,-35.0,-5.74,1729415047784.0,0.0
0.811167,-7.164111,1.234696,85.889999,-57.400002,25.059999,1729415047801.0,0.0
1.732404,-7.850852,2.998207,71.82,-45.779999,27.719999,1729415047823.0,0.0
-1.09352,-7.200003,2.665605,117.459999,1.68,46.48,1729415047841.0,0.0
-1.478764,-6.675975,2.512464,135.449997,-5.11,52.57,1729415047862.0,0.0
-1.878366,-6.915257,3.266203,92.68,-13.93,61.389999,1729415047883.0,0.0
-3.931407,-8.585447,3.538985,37.52,-0.42,65.029999,1729415047903.0,0.0
-4.364508,-8.618947,1.531406,-40.599998,-31.290001,60.34,1729415047922.0,0.0
-4.156333,-6.668797,-0.133998,-105.699997,-27.58,56.98,1729415047941.0,0.0
-4.359723,-7.274181,0.325424,-206.220001,-22.540001,45.080002,1729415047962.0,0.0
-4.675575,-6.221339,-0.650848,-373.029999,6.51,15.89,1729415047985.0,0.0
-5.752346,-5.242674,-3.562913,-545.720032,37.310001,-8.89,1729415048002.0,0.0
-6.699903,-6.046663,-8.961121,-664.369995,34.790001,-48.23,1729415048022.0,0.0
-6.139983,-6.096912,-14.663218,-683.690002,-20.65,-81.690002,1729415048041.0,0.0
-3.663411,-5.615955,-17.38625,-593.599976,-65.730003,-70.840004,1729415048063.0,0.0
-0.9667,-8.707481,-15.756737,-443.730011,-30.450001,-14.28,1729415048087.0,0.0
-0.555135,-11.700903,-9.724431,-263.480011,56.07,23.799999,1729415048102.0,0.0
-2.486143,-4.12044,-8.573483,-160.300003,133.559998,13.72,1729415048121.0,0.0
-5.213961,-1.39023,-8.867801,-138.25,104.440002,30.870001,1729415048142.0,0.0
-2.349752,-5.271388,-8.329416,-158.899994,29.75,39.900002,1729415048161.0,0.0
-0.928415,-9.963714,-5.929415,-165.270004,18.549999,51.450001,1729415048185.0,0.0
-0.272782,-10.109675,-7.049256,-118.510002,28.07,34.02,1729415048202.0,0.0
0.306281,-11.095518,-6.070591,-69.510002,18.76,19.25,1729415048221.0,0.0
2.672783,-10.911271,-5.974878,-31.710001,-16.73,4.34,1729415048242.0,0.0
1.213161,-9.887143,-5.692525,-4.83,-20.09,-18.9,1729415048262.0,0.0
-0.019143,-7.74796,-6.338587,28.49,-24.08,-30.450001,1729415048283.0,0.0
-0.196211,-6.142376,-8.432307,52.009998,-32.900002,-36.959999,1729415048301.0,0.0
0.102891,-5.745167,-9.925428,46.34,-41.02,-41.790001,1729415048322.0,0.0
-0.514457,-4.603791,-9.602397,17.85,-33.459999,-44.170002,1729415048341.0,0.0
-1.234696,-4.204189,-8.712267,3.36,-34.439999,-48.860001,1729415048362.0,0.0
-1.51705,-4.331009,-8.413164,-0.63,-37.799999,-56.630001,1729415048383.0,0.0
-1.299303,-1.916651,-10.336994,16.450001,-44.59,-50.330002,1729415048400.0,0.0
-3.108276,0.40678,-12.03829,22.960001,-7.35,-32.830002,1729415048421.0,0.0
-5.833702,1.426122,-12.526425,19.6,39.41,-16.379999,1729415048441.0,0.0
-6.939186,4.381258,-12.06222,25.34,37.52,16.030001,1729415048461.0,0.0
-5.795416,3.292524,-9.430114,-2.52,-9.66,34.299999,1729415048483.0,0.0
-3.443272,-1.069592,-8.755339,-77.559998,-46.41,27.370001,1729415048501.0,0.0
-3.129812,-5.213961,-10.167104,-115.5,-26.6,23.66,1729415048520.0,0.0
-3.017349,-6.262017,-9.97807,-87.080002,-9.73,5.95,1729415048542.0,0.0
-3.010171,-2.447858,-8.91805,-27.93,11.34,12.18,1729415048560.0,0.0
-3.086741,-2.433501,-8.023134,-14.14,20.23,27.51,1729415048582.0,0.0
-2.091327,-4.630112,-7.795816,-10.22,-5.95,57.610001,1729415048601.0,0.0
-1.995614,-4.61097,-9.891929,7.14,0.63,57.049999,1729415048621.0,0.0
-2.907279,-5.424529,-7.951349,40.32,21.210001,66.360001,1729415048640.0,0.0
-0.98345,-8.245667,-7.171289,13.3,-20.860001,57.119999,1729415048668.0,0.0
1.538585,-10.624132,-6.424729,17.710001,-47.880001,40.110001,1729415048684.0,0.0
1.806581,-11.466407,-7.089933,36.82,-48.720001,17.219999,1729415048701.0,0.0
1.167697,-7.896315,-9.513863,82.879997,-48.16,-0.14,1729415048722.0,0.0
-0.636491,-6.577869,-10.767702,137.059998,-35.490002,-2.03,1729415048742.0,0.0
-1.981257,-6.197411,-10.853845,123.340004,-10.01,-9.59,1729415048761.0,0.0
-2.545963,-5.996413,-11.126624,101.360001,-11.69,-10.22,1729415048784.0,0.0
-2.09372,-4.553542,-10.908878,104.370003,-27.93,-7.91,1729415048801.0,0.0
-2.306681,-3.270989,-8.714661,124.459999,-26.950001,0.63,1729415048821.0,0.0
-2.761317,-3.108276,-8.042276,146.369995,-8.26,-8.89,1729415048842.0,0.0
-3.830909,-1.476372,-7.865208,131.460007,1.96,-6.86,1729415048864.0,0.0
-6.642475,1.801795,-9.202796,27.65,33.740002,-5.04,1729415048885.0,0.0
-8.355737,1.74676,-9.207582,-49.0,37.52,-1.96,1729415048904.0,0.0
-7.15454,-0.16989,-10.971091,-92.050003,-7.7,-8.54,1729415048924.0,0.0
-5.608776,-2.792424,-9.054441,-122.989998,-21.0,-2.24,1729415048943.0,0.0
-4.9675,-5.759524,-11.45205,-145.460007,10.85,5.74,1729415048962.0,0.0
-4.328616,-7.350751,-10.217353,-155.330002,39.130001,7.56,1729415048986.0,0.0
-2.490928,-6.84108,-9.906286,-101.5,43.68,21.98,1729415049004.0,0.0
-0.528814,-9.367901,-5.809773,-43.75,40.670002,33.389999,1729415049024.0,0.0
0.428315,-13.265808,-4.007978,-56.98,38.920002,30.030001,1729415049044.0,0.0
1.823331,-14.237295,-4.457829,-38.290001,3.5,-3.36,1729415049062.0,0.0
1.464408,-12.339786,-3.59402,20.719999,-7.42,-26.460001,1729415049087.0,0.0
-0.265603,-9.138189,-4.754539,77.980003,-12.74,-39.200001,1729415049104.0,0.0
-1.773082,-5.601598,-7.886744,99.400002,-22.889999,-37.310001,1729415049123.0,0.0
-3.419343,-5.87438,-9.997212,108.080002,-20.02,-24.219999,1729415049144.0,0.0
-3.718446,-5.175675,-8.714661,79.519997,-23.870001,-33.670002,1729415049163.0,0.0
-3.292524,-2.959922,-7.76471,77.0,-51.310001,-29.82,1729415049185.0,0.0
-3.680161,-0.648455,-8.80798,48.93,-39.130001,-28.49,1729415049204.0,0.0
-4.634897,-0.653241,-11.483156,16.66,-17.780001,-28.630001,1729415049224.0,0.0
-6.056234,0.667598,-12.287145,1.26,4.41,-16.52,1729415049244.0,0.0
-7.314859,2.419144,-12.538391,-10.43,22.33,-0.14,1729415049264.0,0.0
-6.400801,1.971686,-10.176675,-64.050003,-2.59,-4.27,1729415049288.0,0.0
-4.182654,-3.058028,-11.212767,-124.18,-23.030001,3.85,1729415049305.0,0.0
-2.584249,-4.622933,-11.803794,-121.029999,-2.94,24.710001,1729415049325.0,0.0
-3.627519,-5.63749,-9.037691,-76.580002,52.080002,39.41,1729415049343.0,0.0
-3.883551,-2.651247,-10.490135,-29.190001,70.559998,49.349998,1729415049431.0,0.0
-3.505485,-7.9011,-4.900501,-45.990002,59.709999,52.57,1729415049436.0,0.0
-0.648455,-13.406984,-4.61097,-93.870003,18.620001,48.790001,1729415049436.0,0.0
1.878366,-16.398014,-3.646662,-63.07,-7.7,20.09,1729415049437.0,0.0
1.72044,-12.220145,-3.790231,22.469999,-12.46,-10.57,1729415049443.0,0.0
-1.162912,-8.939585,-4.907679,94.849998,-1.26,-16.59,1729415049463.0,0.0
-3.053242,-7.369894,-7.877172,105.840004,-7.28,-24.15,1729415049485.0,0.0
-2.723032,-5.431707,-9.427721,105.559998,-21.42,-23.66,1729415049503.0,0.0
-2.775674,-3.316452,-7.953743,63.700001,-34.860001,-28.0,1729415049523.0,0.0
-3.290131,-4.785645,-8.487342,11.76,-37.869999,-48.02,1729415049543.0,0.0
-2.993421,-2.945565,-9.317651,10.85,-44.66,-49.98,1729415049563.0,0.0
-3.584448,0.492921,-12.918849,28.98,-20.299999,-38.150002,1729415049584.0,0.0
-5.178068,3.349952,-12.27518,-3.29,13.37,-19.67,1729415049603.0,0.0
-6.204589,3.213561,-11.277373,-52.080002,16.309999,-7.42,1729415049622.0,0.0
-5.118248,0.401994,-10.30828,-98.419998,-1.4,3.01,1729415049643.0,0.0
-4.237689,-4.010371,-11.382657,-115.639999,5.67,12.81,1729415049663.0,0.0
-4.548756,-4.376472,-10.363315,-86.870003,36.400002,29.540001,1729415049685.0,0.0
-4.187439,-5.254639,-9.626326,-48.16,50.189999,41.369999,1729415049703.0,0.0
-2.452643,-5.197211,-7.070791,-30.73,46.34,42.209999,1729415049722.0,0.0
-1.820938,-11.602797,-5.489135,-77.209999,38.220001,47.950001,1729415049743.0,0.0
0.59342,-14.340185,-4.953143,-55.299999,-3.22,19.879999,1729415049763.0,0.0
0.662812,-12.294323,-5.505885,7.42,-10.71,-6.65,1729415049784.0,0.0
-1.368695,-10.530812,-7.197611,65.870003,-1.75,-15.05,1729415049803.0,0.0
-2.567499,-7.905886,-9.516255,104.93,-10.78,-20.58,1729415049823.0,0.0
-2.620141,-5.970093,-10.090532,182.630005,-26.6,-3.43,1729415049843.0,0.0
-1.447658,-5.142176,-9.444471,164.710007,-53.970001,-9.8,1729415049863.0,0.0
-1.258625,-3.704089,-7.04447,141.820007,-51.799999,-19.74,1729415049884.0,0.0
-2.538785,-4.079762,-5.752346,122.360001,-39.41,-33.459999,1729415049903.0,0.0
-3.151347,-5.046463,-7.520642,108.639999,-42.560001,-36.400002,1729415049925.0,0.0
-3.558127,-4.725825,-10.202995,139.930008,-47.810001,-33.32,1729415049944.0,0.0
-4.778467,-4.426722,-10.794022,170.589996,-16.66,-20.860001,1729415049963.0,0.0
-6.597012,-3.878766,-11.002198,169.399994,17.08,-8.4,1729415049985.0,0.0
-7.558927,-3.416951,-8.355737,122.709999,29.4,5.11,1729415050003.0,0.0
-5.175675,-5.314459,-6.647261,75.599998,5.74,-8.4,1729415050023.0,0.0
-3.663411,-7.781459,-8.267202,77.139999,18.76,-12.32,1729415050043.0,0.0
-4.252046,-8.800802,-4.955536,89.18,69.93,0.77,1729415050065.0,0.0
-3.065206,-8.733803,-3.921836,68.18,81.970001,-5.32,1729415050088.0,0.0
-0.727418,-9.205189,-3.601198,40.32,52.360001,-3.43,1729415050105.0,0.0
0.363709,-10.999805,-1.028914,24.15,53.900002,0.63,1729415050124.0,0.0
-0.131605,-11.990433,0.404387,46.41,60.900002,-3.99,1729415050143.0,0.0
-0.990629,-10.851451,0.818345,72.519997,33.25,-18.059999,1729415050163.0,0.0
-0.409173,-11.026128,-0.392423,120.82,-18.83,-26.530001,1729415050186.0,0.0
0.157926,-12.129218,-2.081756,142.940002,-30.380001,-28.700001,1729415050203.0,0.0
0.605384,-13.272987,-3.656233,171.009995,-41.09,-30.17,1729415050224.0,0.0
-0.244068,-11.102697,-1.586441,195.580002,-16.379999,-19.110001,1729415050245.0,0.0
-2.641676,-9.509077,0.289532,226.029999,15.26,8.89,1729415050264.0,0.0
-2.18704,-9.202796,-2.921637,242.690002,12.46,17.780001,1729415050285.0,0.0
-0.880559,-8.149954,-3.029313,244.300003,0.63,32.900002,1729415050303.0,0.0
-0.375673,-6.479764,-3.278167,231.770004,19.950001,46.759998,1729415050322.0,0.0
-1.040878,-6.015556,-0.370888,188.509995,44.310001,56.420002,1729415050345.0,0.0
-4.048656,-7.563712,0.129212,140.630005,69.720001,65.730003,1729415050364.0,0.0
-6.520442,-10.286745,-2.179861,116.480003,70.279999,52.220001,1729415050383.0,0.0
-7.688138,-11.535798,-3.862016,114.099998,62.299999,68.949997,1729415050404.0,0.0
-7.338787,-9.035298,-3.493521,136.779999,47.110001,45.360001,1729415050424.0,0.0
-8.616554,-6.678369,-0.744168,116.480003,58.170002,27.09,1729415050442.0,0.0
-9.351151,-9.140583,0.119641,75.879997,44.450001,-15.47,1729415050463.0,0.0
-7.52782,-11.870793,1.718047,60.27,20.370001,-55.16,1729415050485.0,0.0
-4.297509,-5.338387,2.897708,70.279999,7.0,-63.279999,1729415050504.0,0.0
-1.569692,-2.85703,4.809574,-6.58,15.26,-97.440002,1729415050524.0,0.0
1.165305,-4.122833,7.980063,-39.759998,16.66,-91.349998,1729415050544.0,0.0
2.615355,-6.056234,10.389636,-47.110001,24.780001,-72.519997,1729415050562.0,0.0
2.830709,-7.405786,10.370493,-28.35,14.07,-32.900002,1729415050586.0,0.0
1.79701,-6.783652,9.623933,20.860001,-13.02,20.440001,1729415050603.0,0.0
0.839881,-5.761917,8.549555,41.790001,-25.129999,35.0,1729415050626.0,0.0
-0.476172,-5.781059,7.267002,20.719999,-14.56,47.25,1729415050644.0,0.0
-2.136791,-6.912865,4.59422,17.15,4.06,66.010002,1729415050662.0,0.0
-3.85723,-7.905886,4.125226,33.670002,19.530001,78.610001,1729415050685.0,0.0
-6.78126,-8.355737,3.275774,6.37,51.380001,90.370003,1729415050709.0,0.0
-9.585647,-10.351351,-1.777867,-31.15,67.690002,76.720001,1729415050722.0,0.0
-11.394621,-15.397814,-3.869194,-46.689999,62.93,44.869999,1729415050744.0,0.0
-10.506885,-17.051254,-5.166104,-31.15,28.49,0.63,1729415050765.0,0.0
-7.719246,-13.009777,-4.666004,40.810001,-2.73,-33.110001,1729415050786.0,0.0
-5.826523,-10.578669,-2.868994,93.029999,-10.64,-58.869999,1729415050803.0,0.0
-5.781059,-12.14836,0.105284,106.190002,7.21,-74.340004,1729415050823.0,0.0
-4.723432,-8.736196,2.175076,96.879997,9.87,-102.690002,1729415050842.0,0.0
-2.270789,-4.479364,4.914857,85.75,-20.65,-106.68,1729415050864.0,0.0
0.808774,-1.887937,6.032306,96.529999,-49.279999,-97.860001,1729415050887.0,0.0
4.402793,-1.488336,7.506285,89.040001,-58.73,-81.480003,1729415050903.0,0.0
4.692325,-2.39043,8.288737,59.920002,-16.309999,-59.990002,1729415050923.0,0.0
1.272982,-2.533999,9.908678,65.169998,43.959999,-32.689999,1729415050943.0,0.0
-3.024528,-3.04367,12.167502,89.809998,34.439999,1.33,1729415050963.0,0.0
-4.582255,-4.630112,10.260423,70.910004,-43.68,23.66,1729415050984.0,0.0
-3.022135,-5.960521,6.79083,20.440001,-86.379997,24.780001,1729415051003.0,0.0
-2.56032,-6.606583,5.276174,-25.200001,-87.989998,37.310001,1729415051025.0,0.0
-3.919443,-7.393822,5.958128,-59.57,-59.990002,48.720001,1729415051044.0,0.0
-4.457829,-7.585248,3.036492,-111.580002,-68.809998,46.41,1729415051067.0,0.0
-2.184647,-8.614161,0.839881,-196.139999,-77.769997,50.959999,1729415051090.0,0.0
-1.804188,-9.77468,-0.674776,-251.860001,-63.07,40.810001,1729415051105.0,0.0
-4.347759,-10.712667,-0.334995,-303.519989,-58.73,-3.08,1729415051124.0,0.0
-3.414558,-16.165909,-0.62692,-339.779999,-101.709999,-22.82,1729415051144.0,0.0
-1.887937,-16.795221,-1.217947,-248.850006,-93.940002,-27.440001,1729415051165.0,0.0
-2.392823,-11.423335,-1.371087,-125.790001,-44.310001,-33.110001,1729415051188.0,0.0
-1.89033,-9.298509,-1.564906,-128.729996,-31.780001,-32.549999,1729415051204.0,0.0
-2.440679,-9.226725,-0.370888,-193.059998,-8.19,-30.940001,1729415051224.0,0.0
-3.627519,-11.566904,5.036892,-251.089996,8.54,-15.54,1729415051244.0,0.0
-1.071985,-8.961121,0.870987,-223.860001,12.04,-24.85,1729415051266.0,0.0
-1.363909,-8.410772,-0.148355,-206.919998,2.94,-46.970001,1729415051286.0,0.0
-0.696311,-8.9683,-1.289732,-231.350006,-7.84,-42.420002,1729415051306.0,0.0
-0.571885,-9.736395,-0.894916,-261.450012,-9.24,-33.110001,1729415051324.0,0.0
0.753739,-10.427922,-2.663212,-265.369995,-21.210001,-35.139999,1729415051346.0,0.0
1.112662,-10.595419,-4.979464,-244.160004,-12.04,-33.529999,1729415051365.0,0.0
1.318445,-8.463413,-6.324231,-227.360001,-5.25,-34.580002,1729415051387.0,0.0
1.57687,-6.02752,-7.274181,-220.639999,0.77,-36.75,1729415051403.0,0.0
1.940579,-5.02732,-8.128418,-231.630005,7.21,-28.07,1729415051428.0,0.0
2.500499,-6.498906,-7.951349,-214.130005,9.31,-14.91,1729415051444.0,0.0
2.792424,-7.381857,-6.4678,-167.860001,3.29,-15.54,1729415051466.0,0.0
-0.198604,-7.965706,-6.625726,-155.960007,12.88,-17.43,1729415051486.0,0.0
-0.449851,-5.907879,-7.334002,-136.570007,-2.52,-29.82,1729415051503.0,0.0
-0.050249,-4.596612,-8.499306,-116.830002,-17.639999,-29.82,1729415051524.0,0.0
-0.418744,-3.826123,-9.607183,-85.610001,-21.35,-24.360001,1729415051546.0,0.0
-14.187045,-7.795816,-9.095119,-75.739998,-62.09,-9.8,1729415051564.0,0.0
6.498906,1.995614,-9.932607,-111.440002,-262.920013,-6.86,1729415051587.0,0.0
-1.284946,-1.457229,-8.709875,-100.800003,-86.660004,-6.3,1729415051604.0,0.0
-0.79681,-1.304088,-10.9017,-69.580002,-31.99,4.83,1729415051627.0,0.0
-2.524428,-1.342373,-11.267801,-12.39,34.23,12.95,1729415051643.0,0.0
-2.416751,-3.168097,-11.243874,35.279999,99.400002,-1.19,1729415051665.0,0.0
-7.13779,-4.058227,-9.805787,72.239998,145.809998,-24.639999,1729415051685.0,0.0
-7.240681,-0.291924,-8.571091,58.240002,68.529999,23.450001,1729415051704.0,0.0
-1.641476,-1.904687,-9.647861,32.48,-13.3,37.66,1729415051726.0,0.0
-1.081556,-3.488736,-10.69831,26.32,13.93,45.639999,1729415051744.0,0.0
-1.4668,-2.699104,-9.626326,40.110001,33.810001,35.700001,1729415051766.0,0.0
0.552742,-3.469593,-8.458629,26.25,15.68,27.51,1729415051786.0,0.0
0.926022,-6.072984,-7.613962,-17.43,0.63,17.290001,1729415051804.0,0.0
2.273181,-8.441878,-7.67139,-4.27,-11.41,10.99,1729415051825.0,0.0
3.960121,-8.985049,-7.082755,31.290001,-12.11,7.98,1729415051846.0,0.0
3.412165,-8.023134,-7.176075,52.290001,0.77,8.19,1729415051864.0,0.0
1.320838,-6.558727,-7.566105,33.459999,4.62,12.6,1729415051885.0,0.0
0.232104,-6.001199,-8.29113,-1.54,-12.04,12.04,1729415051904.0,0.0
0.445065,-5.517848,-9.789038,1.26,-33.950001,7.0,1729415051924.0,0.0
-0.050249,-5.388636,-10.533205,32.689999,-38.849998,2.66,1729415051945.0,0.0
-0.952343,-4.31426,-9.126225,77.0,-29.120001,-5.95,1729415051964.0,0.0
-2.210968,-3.979264,-8.571091,133.350006,-26.18,-5.95,1729415051987.0,0.0
-3.010171,-3.239882,-10.064213,197.75,-19.879999,0.28,1729415052005.0,0.0
-4.034299,-4.795217,-10.636096,239.330002,5.25,7.98,1729415052026.0,0.0
-4.871787,-5.69731,-10.96152,260.26001,27.09,4.06,1729415052043.0,0.0
-4.926822,-6.01077,-9.583255,295.540009,25.200001,11.9,1729415052064.0,0.0
-4.031906,-5.929415,-8.468199,324.869995,8.75,18.34,1729415052091.0,0.0
-3.220739,-6.608976,-7.286145,342.929993,10.22,25.27,1729415052103.0,0.0
-2.364109,-6.886543,-6.254838,358.329987,25.41,31.99,1729415052123.0,0.0
-2.230111,-8.082954,-3.766303,268.730011,69.019997,27.790001,1729415052143.0,0.0
-1.715654,-11.4018,-2.550749,210.979996,82.809998,31.92,1729415052164.0,0.0
-1.100698,-12.045469,2.124826,198.169998,75.459999,26.6,1729415052187.0,0.0
-0.981057,-10.298709,5.460421,177.100006,76.300003,17.08,1729415052205.0,0.0
0.421137,-8.700303,7.357929,106.330002,30.030001,0.28,1729415052224.0,0.0
0.323031,-11.023734,4.622933,79.309998,1.12,16.450001,1729415052243.0,0.0
0.827917,-9.568897,2.876173,79.590004,-12.25,-0.56,1729415052264.0,0.0
0.818345,-6.855437,3.270989,90.440002,-9.38,4.41,1729415052286.0,0.0
0.366102,-6.494121,3.9673,69.300003,-12.6,10.85,1729415052304.0,0.0
-1.079163,-9.243474,3.323631,1.4,-8.54,8.96,1729415052324.0,0.0
-2.325824,-10.770095,1.607977,-58.029999,-8.68,20.02,1729415052343.0,0.0
-1.244268,-6.518049,0.622134,-72.870003,-49.279999,27.65,1729415052366.0,0.0
-0.937986,-5.513064,-2.141576,-62.02,-64.050003,49.490002,1729415052385.0,0.0
-3.15374,-10.779665,-2.708675,-24.360001,-27.02,53.830002,1729415052404.0,0.0
-6.558727,-13.263416,-4.335794,24.99,28.559999,42.209999,1729415052424.0,0.0
-7.506285,-11.31805,-4.448257,33.110001,27.58,22.190001,1729415052443.0,0.0
-5.07757,-10.205389,-3.720839,12.32,9.31,-1.47,1729415052463.0,0.0
-3.711268,-9.999605,-0.897308,35.84,0.49,-12.6,1729415052485.0,0.0
-3.821337,-8.788837,-0.193819,38.150002,28.280001,-21.0,1729415052506.0,0.0
-3.613162,-10.894521,-0.79681,10.99,35.420002,-30.73,1729415052525.0,0.0
-2.823531,-14.246865,-0.636491,17.85,34.790001,-31.43,1729415052543.0,0.0
-1.988436,-12.870994,-0.550349,69.650002,32.689999,-42.349998,1729415052563.0,0.0
-1.014557,-10.435099,1.146162,105.139999,34.509998,-53.830002,1729415052586.0,0.0
-0.552742,-8.781659,2.565106,102.059998,42.700001,-55.720001,1729415052603.0,0.0
-0.89013,-7.810174,4.953143,93.169998,47.389999,-53.060001,1729415052623.0,0.0
-1.088734,-8.154739,7.039684,90.790001,30.450001,-44.73,1729415052644.0,0.0
-0.095713,-8.405986,6.01077,101.989998,-0.63,-36.889999,1729415052663.0,0.0
0.741775,-6.726225,5.469993,111.020004,-16.1,-26.530001,1729415052687.0,0.0
-0.019143,-5.525027,5.836094,91.769997,-4.69,-25.34,1729415052704.0,0.0
-0.823131,-7.063612,4.733003,56.139999,-3.15,-20.51,1729415052724.0,0.0
-0.485743,-10.052249,4.35733,63.91,-12.25,-18.690001,1729415052745.0,0.0
-1.09352,-11.23191,4.98425,89.32,-7.28,-19.74,1729415052764.0,0.0
-2.445465,-6.814759,5.120641,113.610001,0.77,-16.73,1729415052785.0,0.0
-0.882952,-5.680561,3.644269,51.170002,-16.030001,-27.790001,1729415052805.0,0.0
-2.258825,-8.355737,3.59402,83.440002,-4.62,-12.32,1729415052822.0,0.0
-2.98385,-8.243275,4.022335,102.830002,1.12,-29.889999,1729415052845.0,0.0
-3.192025,-8.516055,4.445865,101.220001,-4.9,-23.17,1729415052865.0,0.0
-2.388037,-10.372886,4.012764,87.57,-9.1,-30.1,1729415052886.0,0.0
-1.138984,-10.528419,3.883551,81.340004,-6.58,-35.91,1729415052903.0,0.0
-0.646062,-8.405986,5.580062,116.970001,-2.24,-41.509998,1729415052930.0,0.0
-0.421137,-6.659225,6.422336,119.279999,-3.99,-46.34,1729415052943.0,0.0
-0.48335,-7.051648,7.326823,112.559998,-5.95,-43.610001,1729415052964.0,0.0
-0.937986,-7.745567,7.133004,98.349998,-0.28,-33.880001,1729415052985.0,0.0
-0.019143,-7.657032,7.185646,94.010002,-6.51,-28.84,1729415053006.0,0.0
0.827917,-6.577869,6.999006,94.5,-11.27,-26.530001,1729415053023.0,0.0
0.844666,-5.266603,7.171289,73.57,-9.38,-25.129999,1729415053046.0,0.0
0.428315,-5.158926,7.123433,39.970001,-6.3,-19.18,1729415053064.0,0.0
-0.327817,-5.718846,6.929615,32.900002,-3.15,-9.87,1729415053088.0,0.0
-0.181855,-5.424529,6.738188,31.15,-3.57,-6.51,1729415053104.0,0.0
-0.507278,-6.104091,7.118648,14.42,3.92,0.56,1729415053126.0,0.0
-0.650848,-6.345766,6.958328,3.43,9.03,1.54,1729415053144.0,0.0
-0.394816,-7.396214,6.702296,5.11,9.17,3.29,1729415053164.0,0.0
0.028714,-7.487142,7.623533,8.19,11.41,-1.26,1729415053197.0,0.0
0.332602,-7.398607,8.499306,5.46,11.83,-4.9,1729415053204.0,0.0
0.411566,-6.546762,8.836694,1.75,11.83,-11.2,1729415053226.0,0.0
0.614955,-4.675575,9.839286,1.89,6.86,-19.18,1729415053244.0,0.0
1.395016,-3.579663,10.332209,-13.65,-3.92,-19.67,1729415053264.0,0.0
1.799403,-3.845266,10.674382,-22.190001,-13.23,-14.42,1729415053288.0,0.0
1.337588,-3.945765,10.322637,-22.68,-13.3,-10.78,1729415053304.0,0.0
0.808774,-3.656233,9.272188,-19.18,-14.49,-6.02,1729415053327.0,0.0
0.555135,-3.041277,8.427521,-13.440001,-13.51,-5.25,1729415053346.0,0.0
0.5001,-2.62732,8.10449,-30.24,-11.48,-2.87,1729415053366.0,0.0
0.468993,-2.986243,7.726424,-67.760002,-17.710001,-3.22,1729415053386.0,0.0
0.038285,-4.177868,6.79083,-102.480003,-14.91,10.78,1729415053406.0,0.0
0.01675,-5.295317,5.910272,-84.489998,-22.960001,14.35,1729415053426.0,0.0
0.184247,-6.037091,5.438886,-48.93,-31.15,17.43,1729415053446.0,0.0
-0.327817,-6.355337,4.931608,-26.389999,-23.1,26.74,1729415053467.0,0.0
-1.083949,-6.448657,4.666004,-27.440001,-6.93,43.189999,1729415053487.0,0.0
-1.600798,-7.219146,3.546163,-42.349998,-6.16,49.91,1729415053505.0,0.0
-1.708475,-9.413363,3.081956,-55.93,-12.95,52.009998,1729415053525.0,0.0
-1.584049,-10.456635,3.378666,-71.68,-10.57,47.25,1729415053547.0,0.0
-1.792224,-10.801201,3.455236,-76.160004,-14.49,46.130001,1729415053566.0,0.0
-1.605584,-10.214959,3.756732,-93.379997,-13.09,42.77,1729415053587.0,0.0
-1.045663,-10.571491,5.704489,-90.090004,-15.82,41.299999,1729415053605.0,0.0
-1.052842,-9.473185,5.17089,-103.669998,-7.63,24.290001,1729415053624.0,0.0
-0.918844,-9.489935,3.76391,-146.160004,-2.73,22.190001,1729415053649.0,0.0
0.069392,-12.58864,3.68734,-180.600006,-7.77,14.77,1729415053665.0,0.0
-0.837488,-12.832708,4.725825,-120.959999,16.870001,6.51,1729415053687.0,0.0
-1.22034,-9.77468,5.02732,-53.760002,22.540001,-16.66,1729415053705.0,0.0
-0.404387,-8.279166,3.579663,-71.120003,20.370001,-23.309999,1729415053727.0,0.0
0.047856,-9.954143,2.431108,-86.099998,31.360001,-29.610001,1729415053746.0,0.0
0.210568,-11.009377,3.036492,-56.420002,41.299999,-33.670002,1729415053766.0,0.0
0.605384,-10.351351,3.924229,-16.379999,39.619999,-40.459999,1729415053788.0,0.0
1.471586,-10.068997,4.850252,8.68,28.35,-40.110001,1729415053805.0,0.0
2.622534,-8.764909,7.312466,22.540001,18.76,-49.0,1729415053827.0,0.0
2.684747,-7.843673,8.482556,28.91,10.01,-44.66,1729415053845.0,0.0
1.584049,-6.752545,8.992228,35.91,2.73,-25.200001,1729415053866.0,0.0
0.98345,-5.694918,7.245467,20.16,-12.25,-20.51,1729415053887.0,0.0
1.057628,-6.070591,5.268995,-13.93,-28.42,-11.06,1729415053906.0,0.0
1.392623,-7.056434,2.825923,-36.610001,-37.450001,-4.83,1729415053925.0,0.0
1.232304,-7.678568,2.443072,-24.290001,-31.01,5.32,1729415053944.0,0.0
-0.055035,-7.054041,3.117848,15.05,-9.73,13.51,1729415053965.0,0.0
-1.251446,-6.429514,1.85683,26.040001,-4.76,11.2,1729415053988.0,0.0
-1.639083,-7.558927,1.990828,11.9,-18.129999,16.450001,1729415054005.0,0.0
-1.689333,-8.181061,1.311267,-0.56,-20.299999,21.280001,1729415054026.0,0.0
-1.356731,-9.327222,0.141177,14.56,-25.129999,15.82,1729415054045.0,0.0
-1.555335,-11.842079,0.306281,28.139999,-11.55,15.89,1729415054066.0,0.0
-2.959922,-12.445071,1.899901,20.93,25.41,44.170002,1729415054099.0,0.0
-2.266003,-11.399406,1.770689,7.07,5.81,32.200001,1729415054104.0,0.0
-0.299103,-10.29153,1.65344,-41.860001,-18.27,25.549999,1729415054125.0,0.0
0.445065,-12.093326,1.689333,-64.889999,2.66,15.68,1729415054144.0,0.0
-0.981057,-13.526627,2.852244,-39.970001,46.900002,4.27,1729415054166.0,0.0
-2.074577,-11.643474,2.98385,-7.14,55.93,-10.15,1729415054188.0,0.0
-0.708275,-9.851252,3.290131,6.37,26.74,-18.34,1729415054205.0,0.0
1.505085,-8.796017,3.402594,-5.11,15.54,-23.66,1729415054224.0,0.0
2.493321,-8.843873,4.228118,-11.41,24.99,-29.610001,1729415054247.0,0.0
1.734797,-8.846266,6.295516,-7.98,42.279999,-32.200001,1729415054265.0,0.0
0.416351,-7.963314,7.532606,5.32,34.23,-31.92,1729415054287.0,0.0
-0.040678,-6.173482,7.336394,7.14,4.34,-24.780001,1729415054305.0,0.0
0.588634,-4.35733,6.046663,2.38,-26.67,-12.6,1729415054324.0,0.0
1.284946,-3.89073,5.759524,-18.27,-41.23,-3.36,1729415054346.0,0.0
0.229711,-5.893522,4.534399,-67.340004,-33.529999,3.99,1729415054420.0,0.0
-1.069592,-11.076375,1.562513,-104.019997,-31.710001,7.49,1729415054420.0,0.0
-1.067199,-12.361321,1.328017,-102.760002,-54.25,13.16,1729415054421.0,0.0
-0.37328,-8.910872,0.880559,-123.690002,-66.360001,25.129999,1729415054427.0,0.0
0.301496,-7.197611,0.050249,-183.610001,-80.360001,38.5,1729415054447.0,0.0
0.045464,-9.042477,-1.160519,-233.449997,-79.519997,34.860001,1729415054465.0,0.0
-0.9667,-10.719845,-2.529213,-272.369995,-58.099998,21.280001,1729415054488.0,0.0
-1.349552,-9.41815,-5.115855,-277.130005,-59.920002,-7.21,1729415054504.0,0.0
-1.739582,-7.307681,-4.759324,-284.339996,-44.939999,-20.51,1729415054525.0,0.0
-1.938186,-5.630312,-3.84048,-324.940002,-46.830002,-20.440001,1729415054546.0,0.0
-1.562513,-5.95095,-7.56132,-368.130005,-29.540001,-32.200001,1729415054567.0,0.0
-0.978664,-5.436492,-11.337193,-415.869995,-11.69,-21.77,1729415054587.0,0.0
0.215354,-5.486742,-13.890336,-423.429993,1.82,-7.56,1729415054605.0,0.0
-0.050249,-9.942179,-12.701102,-306.25,33.25,29.33,1729415054633.0,0.0
-0.638884,-8.228917,-9.162118,-179.199997,63.98,36.540001,1729415054644.0,0.0
-0.79681,-6.388836,-5.699703,-89.389999,53.060001,33.459999,1729415054666.0,0.0
1.328017,-5.572884,-7.099504,-66.080002,14.21,17.219999,1729415054687.0,0.0
1.201197,-6.441479,-7.216753,-118.090004,6.02,30.59,1729415054704.0,0.0
1.215554,-8.882158,-5.804988,-109.129997,-2.52,23.52,1729415054725.0,0.0
0.882952,-10.274779,-5.276174,-62.299999,-5.6,20.58,1729415054744.0,0.0
1.079163,-10.593026,-6.470192,-39.41,-22.4,9.87,1729415054765.0,0.0
1.007378,-8.68116,-7.628319,-12.32,-30.940001,-5.32,1729415054787.0,0.0
0.79681,-6.884151,-9.078369,-3.99,-28.91,-9.66,1729415054807.0,0.0
1.631905,-5.862415,-9.595219,3.22,-39.900002,-14.21,1729415054824.0,0.0
1.631905,-5.355137,-9.449257,11.06,-35.490002,-25.48,1729415054844.0,0.0
0.519243,-3.701697,-9.592826,-0.77,-24.780001,-37.099998,1729415054864.0,0.0
-0.547956,-1.828116,-10.911271,-15.12,-23.940001,-47.18,1729415054886.0,0.0
-2.06022,-0.378066,-12.830315,-22.190001,-6.51,-54.25,1729415054905.0,0.0
-3.517449,1.4668,-12.265609,-23.940001,15.82,-38.009998,1729415054924.0,0.0
-3.656233,2.242075,-11.609976,-26.6,22.120001,-7.63,1729415054945.0,0.0
-2.67039,1.184447,-11.397014,-37.52,14.0,21.700001,1729415054972.0,0.0
-1.787439,-0.993021,-9.966106,-55.510002,11.13,38.43,1729415054985.0,0.0
-1.864009,-2.900101,-9.475577,-52.779999,16.799999,46.060001,1729415055004.0,0.0
-1.825724,-3.65384,-8.343772,-20.93,20.65,47.459999,1729415055026.0,0.0
-0.253639,-4.721039,-8.190632,-12.67,9.66,48.369999,1729415055046.0,0.0
0.021535,-6.470192,-7.133004,-4.48,1.12,42.700001,1729415055066.0,0.0
0.658026,-9.260223,-7.616355,-20.440001,-11.2,31.290001,1729415055143.0,0.0
1.617548,-10.085747,-8.525627,-11.97,-29.82,8.82,1729415055146.0,0.0
2.112862,-8.415558,-8.831908,25.200001,-33.740002,-10.01,1729415055147.0,0.0
0.997807,-7.503892,-8.640482,65.239998,-22.889999,-13.440001,1729415055260.0,0.0
-0.045464,-7.04447,-9.554541,85.400002,-20.23,-14.07,1729415055261.0,0.0
-0.119641,-6.711867,-11.150554,90.019997,-24.08,-14.77,1729415055261.0,0.0
0.167498,-5.522634,-11.58844,89.18,-23.799999,-16.450001,1729415055263.0,0.0
0.40678,-4.663611,-10.638489,99.610001,-22.469999,-21.280001,1729415055265.0,0.0
-0.066999,-5.213961,-9.84168,112.209999,-14.91,-22.540001,1729415055266.0,0.0
-0.942772,-3.524628,-10.899307,137.970001,-0.14,-23.940001,1729415055268.0,0.0
-1.847259,-1.524228,-11.021341,170.869995,18.549999,-15.47,1729415055287.0,0.0
-2.541178,-0.265603,-8.379664,133.490005,21.98,-10.78,1729415055305.0,0.0
-2.957529,-2.057827,-8.269595,76.93,16.799999,-7.07,1729415055325.0,0.0
-2.840281,-4.723432,-7.518249,26.6,1.12,-4.48,1729415055347.0,0.0
-2.567499,-6.254838,-5.563312,20.23,-2.03,-9.94,1729415055365.0,0.0
-2.340181,-6.506085,-7.932207,44.939999,7.98,-10.08,1729415055387.0,0.0
-2.74696,-6.522834,-7.99442,55.23,23.309999,4.13,1729415055405.0,0.0
-2.352145,-5.929415,-6.888937,25.76,39.130001,8.75,1729415055425.0,0.0
-0.933201,-7.393822,-7.532606,-6.37,24.639999,21.49,1729415055447.0,0.0
0.600598,-8.9348,-8.12124,-33.459999,17.57,26.25,1729415055467.0,0.0
1.217947,-8.645268,-6.032306,-22.049999,23.309999,21.35,1729415055491.0,0.0
0.727418,-8.743374,-5.687739,13.93,38.009998,10.01,1729415055507.0,0.0
1.217947,-9.793823,-5.259424,46.970001,30.66,0.28,1729415055526.0,0.0
2.222932,-11.052447,-4.26401,77.209999,13.79,2.66,1729415055546.0,0.0
2.419144,-9.410972,-5.096712,76.440002,9.38,-6.09,1729415055568.0,0.0
1.411765,-9.396614,-5.12782,90.230003,15.82,-5.53,1729415055589.0,0.0
0.555135,-7.9681,-5.407779,104.790001,13.86,-10.5,1729415055607.0,0.0
0.464208,-7.877172,-4.948357,120.610001,1.89,-14.84,1729415055631.0,0.0
0.174676,-7.822137,-4.704289,97.510002,-4.48,-16.59,1729415055650.0,0.0
-0.210568,-6.386444,-4.780859,67.199997,-4.34,-10.08,1729415055668.0,0.0
-0.98345,-7.676175,-5.087141,99.610001,-5.39,7.84,1729415055693.0,0.0
-0.574277,-6.853044,-5.915058,94.010002,-13.86,-5.88,1729415055708.0,0.0
-1.155733,-8.01117,-6.218946,85.050003,-3.43,4.41,1729415055727.0,0.0
-1.028914,-9.24826,-5.065606,59.43,-1.47,-12.25,1729415055747.0,0.0
-1.976472,-9.016156,-4.754539,74.830002,3.29,-4.9,1729415055766.0,0.0
-1.959722,-8.140383,-5.647062,103.599998,0.14,-11.34,1729415055788.0,0.0
-1.636691,-8.181061,-6.300302,107.239998,3.01,-4.9,1729415055806.0,0.0
-1.689333,-9.209974,-5.960521,125.580002,15.89,2.03,1729415055828.0,0.0
-1.887937,-11.569297,-5.517848,148.680008,29.120001,-2.8,1729415055846.0,0.0
-1.462015,-11.399406,-3.074777,136.779999,38.639999,-12.18,1729415055868.0,0.0
-0.607777,-9.968499,-3.613162,133.770004,41.93,-2.38,1729415055891.0,0.0
0.605384,-8.568698,-1.294517,114.590004,36.610001,-7.63,1729415055906.0,0.0
1.198804,-10.224532,0.217747,76.93,40.25,-20.58,1729415055927.0,0.0
1.804188,-10.851451,4.553542,49.209999,37.450001,-23.799999,1729415055948.0,0.0
1.76351,-8.379664,5.376673,27.51,21.07,-24.01,1729415055967.0,0.0
2.021935,-7.381857,3.125026,-55.93,-10.92,-28.77,1729415055991.0,0.0
2.254039,-8.877372,0.631705,-121.099998,-33.529999,-35.349998,1729415056006.0,0.0
2.474179,-11.562119,-0.863809,-167.649994,-38.360001,-36.68,1729415056026.0,0.0
2.517249,-10.765309,-3.558127,-205.869995,-39.900002,-47.32,1729415056046.0,0.0
2.081756,-8.173882,-5.553742,-234.009995,-30.66,-54.740002,1729415056066.0,0.0
0.394816,-7.62114,-5.522634,-256.899994,0.98,-48.509998,1729415056092.0,0.0
-1.691726,-9.025726,-4.070191,-229.320007,12.95,-42.560001,1729415056107.0,0.0
-2.421536,-7.317252,-5.493921,-161.630005,-5.74,-45.220001,1729415056126.0,0.0
-2.079363,-4.795217,-7.496714,-143.009995,-26.32,-41.860001,1729415056146.0,0.0
0.189033,-3.134598,-6.62094,-209.860001,-40.110001,-44.029999,1729415056167.0,0.0
-0.002393,-4.706682,-9.23151,-268.660004,-22.68,-23.030001,1729415056189.0,0.0
0.133998,-5.429315,-9.616754,-279.51001,-11.76,-14.07,1729415056207.0,0.0
0.002393,-4.376472,-9.95175,-231.770004,-9.94,-7.77,1729415056227.0,0.0
-0.069392,-3.790231,-10.29153,-191.940002,-12.81,-4.27,1729415056248.0,0.0
-0.002393,-3.498307,-9.906286,-180.039993,-15.61,1.89,1729415056266.0,0.0
0.22014,-4.010371,-9.075976,-175.490005,-14.49,5.74,1729415056288.0,0.0
0.512064,-5.520242,-8.635696,-166.740005,-11.41,9.87,1729415056307.0,0.0
3.625126,-7.903493,-9.561719,-98.07,-22.26,0.63,1729415056326.0,0.0
4.625326,-7.329216,-10.037891,-45.009998,-15.61,-9.31,1729415056347.0,0.0
4.299902,-5.304887,-9.686146,-15.61,-6.3,-13.72,1729415056366.0,0.0
3.316452,-3.993621,-8.606983,-29.75,1.12,-12.32,1729415056389.0,0.0
2.715853,-5.345565,-9.099905,-32.900002,-5.04,-10.5,1729415056407.0,0.0
2.129612,-4.316652,-9.540184,-2.59,-4.13,-16.030001,1729415056426.0,0.0
1.134198,-3.103491,-10.047462,17.710001,1.05,-19.67,1729415056449.0,0.0
0.320638,-2.09372,-10.277173,10.43,2.66,-25.129999,1729415056467.0,0.0
-1.201197,-1.629512,-10.277173,-0.21,6.3,-23.73,1729415056489.0,0.0
-1.445265,-0.787239,-10.415956,7.14,4.48,-16.1,1729415056506.0,0.0
-1.131805,-0.952343,-10.059426,13.440001,11.06,-3.15,1729415056526.0,0.0
0.177069,-2.646462,-9.633504,22.4,14.21,2.03,1729415056546.0,0.0
0.224925,-2.493321,-9.41815,33.25,22.469999,3.57,1729415056566.0,0.0
-0.22014,-2.426322,-9.489935,39.759998,27.860001,8.61,1729415056590.0,0.0
0.468993,-3.613162,-9.987641,60.27,15.96,20.16,1729415056607.0,0.0
0.878166,-5.185246,-9.535398,112.349998,11.69,34.02,1729415056630.0,0.0
1.383051,-3.510271,-7.860423,169.190002,12.32,31.43,1729415056647.0,0.0
1.567299,-4.285545,-6.647261,165.899994,9.8,28.42,1729415056666.0,0.0
1.811367,-7.255038,-7.097112,157.360001,-21.139999,24.99,1729415056698.0,0.0
2.639283,-7.180861,-7.204789,183.889999,-35.91,19.110001,1729415056706.0,0.0
2.40718,-6.530013,-6.84108,200.970001,-20.299999,21.42,1729415056726.0,0.0
1.552942,-7.393822,-6.812366,220.080002,-6.44,29.889999,1729415056746.0,0.0
1.414158,-9.949356,-6.498906,276.570007,-10.92,42.77,1729415056768.0,0.0
2.007578,-9.272188,-8.042276,332.220001,-29.049999,47.18,1729415056787.0,0.0
2.256432,-6.838687,-6.15434,343.910004,-23.379999,46.549999,1729415056805.0,0.0
1.284946,-5.493921,-4.019942,269.220001,16.17,40.670002,1729415056826.0,0.0
-0.031107,-8.317451,-2.261217,203.979996,42.279999,40.810001,1729415056845.0,0.0
-0.038285,-11.454442,-1.651048,209.440002,29.190001,30.1,1729415056865.0,0.0
0.287139,-12.543176,-0.634098,275.869995,12.6,11.41,1729415056890.0,0.0
-1.339981,-9.382257,2.177469,302.329987,31.92,3.78,1729415056907.0,0.0
-1.785046,-6.419943,2.74696,226.240005,47.32,-0.49,1729415056926.0,0.0
-0.751346,-7.972885,1.926222,137.759995,18.059999,28.84,1729415056947.0,0.0
-0.019143,-9.059227,1.509871,90.510002,16.66,33.880001,1729415056966.0,0.0
-1.028914,-9.23151,0.002393,83.790001,23.66,33.880001,1729415056989.0,0.0
-1.909473,-10.695917,-0.411566,131.740005,24.5,34.16,1729415057014.0,0.0
-2.639283,-10.521241,0.581456,151.970001,24.43,29.82,1729415057027.0,0.0
-3.218346,-10.009177,2.974278,123.480003,23.379999,31.710001,1729415057047.0,0.0
-3.591627,-10.13839,2.880959,46.689999,21.42,52.009998,1729415057068.0,0.0
-2.435893,-12.078968,1.892723,-8.26,-0.21,59.779999,1729415057092.0,0.0
-2.986243,-13.002598,0.878166,-7.84,16.52,53.760002,1729415057107.0,0.0
-3.266203,-12.189038,0.318245,8.54,27.65,12.18,1729415057126.0,0.0
-2.806781,-10.181459,2.136791,-9.87,36.049999,-16.870001,1729415057147.0,0.0
-2.175076,-9.071191,2.713461,-17.43,35.209999,-22.68,1729415057167.0,0.0
-0.818345,-9.020942,5.103891,-18.129999,26.530001,-34.650002,1729415057189.0,0.0
-0.375673,-10.193424,5.211568,-21.42,17.219999,-35.0,1729415057206.0,0.0
0.337388,-10.444671,4.721039,-20.16,9.87,-38.920002,1729415057226.0,0.0
1.411765,-9.946963,5.371887,-7.7,-0.84,-39.48,1729415057247.0,0.0
0.957129,-8.279166,6.958328,15.05,0.35,-32.689999,1729415057268.0,0.0
0.29671,-7.216753,7.45125,5.81,-9.31,-31.08,1729415057290.0,0.0
0.16989,-7.597212,6.788438,-12.39,-25.83,-29.68,1729415057308.0,0.0
0.189033,-8.638089,5.108676,-17.08,-36.259998,-29.26,1729415057328.0,0.0
0.095713,-8.647661,4.366901,-4.27,-35.209999,-23.73,1729415057348.0,0.0
0.198604,-7.171289,2.864209,6.16,-38.57,-15.89,1729415057368.0,0.0
0.045464,-5.986843,1.887937,-0.63,-40.32,5.46,1729415057390.0,0.0
-0.42353,-6.740582,1.471586,-5.53,-33.389999,5.04,1729415057408.0,0.0
-1.519442,-8.937192,-0.031107,15.89,-18.059999,5.6,1729415057428.0,0.0
-2.440679,-10.269995,-0.674776,52.220001,-2.38,3.85,1729415057449.0,0.0
-2.785245,-9.229117,-0.634098,72.309998,3.92,2.45,1729415057469.0,0.0
-2.533999,-8.882158,-0.07657,68.739998,-10.71,1.82,1729415057491.0,0.0
-2.024328,-9.810574,0.399601,41.509998,-23.66,-0.7,1729415057508.0,0.0
-2.244468,-11.088341,1.17009,35.139999,-7.98,7.28,1729415057528.0,0.0
-2.699104,-11.140982,2.234896,31.01,5.53,12.11,1729415057548.0,0.0
-2.833102,-10.748559,3.282953,-2.03,11.27,17.85,1729415057568.0,0.0
-1.488336,-11.866007,2.215754,-34.790001,16.940001,16.309999,1729415057590.0,0.0
-0.378066,-12.464212,2.778067,3.64,16.52,-1.47,1729415057608.0,0.0
-0.744168,-9.934999,4.352544,27.719999,38.080002,-21.210001,1729415057627.0,0.0
-1.371087,-8.365308,4.876573,14.63,46.549999,-31.43,1729415057647.0,0.0
-0.275175,-8.420342,4.512863,-23.799999,35.490002,-35.490002,1729415057668.0,0.0
1.265803,-9.738789,4.041477,-34.369999,23.379999,-35.349998,1729415057691.0,0.0
1.505085,-9.217153,4.476971,-4.27,31.780001,-36.400002,1729415057707.0,0.0
0.794417,-8.202596,6.463014,25.620001,42.98,-31.780001,1729415057732.0,0.0
0.418744,-6.778866,7.173682,35.77,30.52,-14.21,1729415057747.0,0.0
0.567099,-5.893522,6.618547,18.200001,9.17,-4.83,1729415057768.0,0.0
0.464208,-6.728617,4.955536,-27.58,-5.18,5.81,1729415057792.0,0.0
0.468993,-8.059027,4.0008,-96.18,-6.44,10.15,1729415057807.0,0.0
-0.014357,-7.348359,3.582055,-164.080002,-2.66,25.969999,1729415057829.0,0.0
0.174676,-7.869993,5.876772,-192.009995,-16.24,31.85,1729415057848.0,0.0
-0.612563,-11.519048,1.706082,-160.160004,-24.01,36.610001,1729415057867.0,0.0
-0.495314,-10.15514,-0.107677,-93.379997,-32.41,33.810001,1729415057889.0,0.0
-0.921237,-7.345965,0.995414,-60.130001,-21.77,35.0,1729415057907.0,0.0
-3.943372,-7.302894,-1.347159,-139.860001,10.57,50.82,1729415057928.0,0.0
-3.845266,-12.99542,-3.864408,-194.880005,22.4,34.790001,1729415057948.0,0.0
-2.895315,-20.401205,-5.802595,-54.459999,9.73,17.92,1729415057968.0,0.0
-3.739982,-13.217952,-3.436093,63.279999,41.09,3.01,1729415057989.0,0.0
-4.254438,-8.037491,-2.139183,54.18,48.860001,-5.74,1729415058007.0,0.0
-2.431108,-8.508877,-2.557927,1.26,42.139999,-27.51,1729415058028.0,0.0
-0.222532,-9.894321,-1.189233,5.39,33.32,-30.799999,1729415058047.0,0.0
0.583849,-9.707682,2.29711,39.200001,42.630001,-23.59,1729415058068.0,0.0
0.758525,-8.044669,3.821337,61.950001,33.599998,-12.53,1729415058093.0,0.0
0.239282,-6.319445,5.489135,40.670002,26.950001,-1.54,1729415058108.0,0.0
0.535992,-5.474778,5.711668,4.83,18.27,3.57,1729415058128.0,0.0
2.273181,-5.015356,5.828916,-0.77,-8.47,15.54,1729415058148.0,0.0
2.239682,-5.532206,5.702096,-24.01,-9.1,31.360001,1729415058168.0,0.0
-0.095713,-7.611568,3.505485,-84.840004,6.23,49.139999,1729415058189.0,0.0
-1.287339,-8.946764,0.89013,-109.900002,-1.47,59.779999,1729415058208.0,0.0
-1.098306,-8.197811,-1.323231,-64.959999,-27.09,67.830002,1729415058227.0,0.0
-2.268396,-7.173682,0.370888,-5.74,-38.220001,85.400002,1729415058247.0,0.0
-4.15394,-5.32403,-3.306881,-1.89,-35.91,79.239998,1729415058268.0,0.0
-5.838487,-9.276974,-7.305287,-139.300003,-4.69,76.510002,1729415058289.0,0.0
-7.611568,-14.52204,-10.15514,-203.979996,12.46,71.82,1729415058307.0,0.0
-7.221539,-15.546168,-10.762917,-126.980003,-12.04,62.23,1729415058328.0,0.0
-5.781059,-14.622539,-7.456036,46.900002,-34.860001,43.540001,1729415058348.0,0.0
-6.716653,-11.619547,0.368495,106.050003,-6.09,24.57,1729415058367.0,0.0
-7.403394,-9.042477,0.569492,69.370003,6.65,-4.34,1729415058389.0,0.0
-6.056234,-8.319844,-1.320838,7.28,-5.88,-29.82,1729415058408.0,0.0
-3.347559,-7.630712,-1.205983,-51.170002,9.38,-44.380001,1729415058428.0,0.0
-0.715454,-6.546762,2.428715,-23.1,16.940001,-37.240002,1729415058447.0,0.0
1.024128,-7.613962,7.008578,27.719999,8.47,-11.62,1729415058467.0,0.0
1.584049,-8.520842,7.183254,38.290001,-13.93,7.84,1729415058490.0,0.0
-0.375673,-8.987441,4.386044,-31.360001,-25.620001,14.63,1729415058508.0,0.0
-1.954936,-8.154739,0.684347,-117.669998,-11.48,17.57,1729415058527.0,0.0
-1.945365,-9.45165,-2.617748,-118.440002,-43.889999,33.810001,1729415058547.0,0.0
-2.294717,-10.377672,-4.48415,-76.860001,-58.240002,47.459999,1729415058568.0,0.0
-5.4006,-10.052249,-4.362115,-21.42,-4.76,63.139999,1729415058591.0,0.0
-9.236296,-9.322437,-6.881758,17.08,16.379999,35.91,1729415058607.0,0.0
-8.939585,-10.018748,-11.05484,-0.7,-4.69,18.83,1729415058626.0,0.0
-6.178268,-10.688738,-9.664611,-3.92,-28.139999,-8.68,1729415058647.0,0.0
-5.051248,-10.576276,-3.895515,-1.89,-12.74,-16.309999,1729415058667.0,0.0
-5.546563,-9.236296,-1.816152,15.4,29.26,-28.77,1729415058689.0,0.0
-5.441278,-8.913264,-1.395016,14.35,31.5,-49.139999,1729415058707.0,0.0
-3.381058,-8.707481,-0.595813,-12.04,23.870001,-53.27,1729415058727.0,0.0
-1.239482,-8.492127,1.493121,-15.4,13.09,-39.060001,1729415058747.0,0.0
-0.143569,-7.752745,4.756931,0.63,1.89,-17.710001,1729415058767.0,0.0
-0.210568,-6.570691,4.59422,16.309999,-12.32,-5.18,1729415058789.0,0.0
-0.985843,-5.635098,1.392623,-4.76,-22.26,2.94,1729415058807.0,0.0
-1.471586,-8.049455,-1.189233,-40.880001,-26.880001,15.12,1729415058826.0,0.0
-1.954936,-10.439885,-3.306881,-63.0,-34.23,24.92,1729415058846.0,0.0
-4.005585,-10.025927,-3.67059,-31.780001,-25.969999,36.259998,1729415058867.0,0.0
-6.69751,-8.360522,-2.854637,29.33,-7.35,44.029999,1729415058888.0,0.0
-8.712267,-7.702496,-5.460421,30.870001,-15.05,33.389999,1729415058907.0,0.0
-8.532805,-9.147761,-11.58844,-6.44,-15.75,16.450001,1729415058929.0,0.0
-6.245267,-12.923635,-8.80798,-15.47,-2.52,-11.62,1729415058947.0,0.0
-5.402994,-9.786645,-3.335595,25.48,3.22,-23.66,1729415058967.0,0.0
-5.393422,-7.412964,-2.476572,40.880001,26.25,-45.43,1729415058990.0,0.0
-4.053442,-6.659225,-3.675375,-18.9,26.32,-56.700001,1729415059007.0,0.0
-2.160719,-9.420543,-1.342373,-45.150002,32.900002,-38.639999,1729415059027.0,0.0
-0.524028,-10.092925,2.548356,0.63,41.23,-18.34,1729415059054.0,0.0
-0.332602,-8.532805,6.233303,68.529999,37.380001,-3.57,1729415059069.0,0.0
-0.933201,-6.329016,4.855037,92.610001,14.21,2.8,1729415059092.0,0.0
-1.598405,-5.821737,1.694118,58.240002,-9.17,12.04,1729415059108.0,0.0
-2.065006,-7.097112,0.229711,-5.74,-7.21,16.799999,1729415059128.0,0.0
-2.569891,-9.339187,-1.22034,-45.779999,-16.73,24.219999,1729415059148.0,0.0
-3.586841,-10.456635,-2.545963,-49.98,-34.720001,19.67,1729415059168.0,0.0
-5.393422,-9.578469,-2.409572,-51.310001,-36.049999,12.18,1729415059190.0,0.0
-7.245467,-8.11167,-4.941179,-78.68,-46.619999,13.72,1729415059207.0,0.0
-8.219346,-7.403394,-10.193424,-92.610001,-45.709999,6.58,1729415059228.0,0.0
-6.762117,-11.052447,-10.301102,-68.879997,-18.969999,-8.68,1729415059247.0,0.0
-5.4006,-12.636496,-5.632704,-22.049999,4.2,-16.799999,1729415059268.0,0.0
-5.551349,-9.750752,-5.101498,-18.83,23.450001,-32.970001,1729415059290.0,0.0
-5.12782,-8.032705,-5.340781,-38.920002,41.439999,-46.41,1729415059308.0,0.0
-3.342773,-9.375079,-2.376073,-46.34,39.759998,-37.450001,1729415059328.0,0.0
-1.258625,-10.246067,1.062413,-11.9,42.77,-22.049999,1729415059348.0,0.0
0.088534,-9.702895,4.761717,36.049999,38.639999,-10.57,1729415059430.0,0.0
0.42353,-8.260024,5.000999,69.370003,20.16,-4.27,1729415059437.0,0.0
-0.619741,-6.936793,1.978864,60.760002,-12.32,-4.27,1729415059440.0,0.0
-2.411965,-5.611169,0.346959,10.99,-0.63,6.37,1729415059442.0,0.0
-2.794817,-6.211767,-0.926022,-23.799999,-13.37,19.25,1729415059449.0,0.0
-2.57707,-8.769694,-3.424129,-33.810001,-58.73,27.790001,1729415059469.0,0.0
-4.144369,-8.989835,-3.718446,-34.650002,-46.830002,22.68,1729415059492.0,0.0
-7.008578,-8.039884,-4.886144,-16.66,-26.6,16.24,1729415059509.0,0.0
-8.226524,-5.556134,-8.551948,-39.200001,-28.77,12.95,1729415059530.0,0.0
-6.001199,-8.047063,-9.77468,-81.059998,-50.330002,4.69,1729415059549.0,0.0
-3.510271,-11.679367,-8.446664,-74.340004,-38.709999,3.64,1729415059569.0,0.0
-3.189633,-12.796815,-5.501099,-15.89,-6.37,-1.96,1729415059592.0,0.0
-5.163712,-11.789437,-4.864608,36.400002,39.41,-19.879999,1729415059608.0,0.0
-6.053841,-9.925428,-4.82393,33.18,60.130001,-29.540001,1729415059628.0,0.0
-4.194618,-9.377472,-4.323831,8.12,44.240002,-28.77,1729415059650.0,0.0
-1.775474,-10.210175,-2.711068,-1.4,28.49,-26.040001,1729415059669.0,0.0
-0.775275,-10.858629,-0.698704,4.34,39.060001,-32.060001,1729415059690.0,0.0
-1.198804,-8.77448,0.332602,15.12,44.380001,-34.23,1729415059709.0,0.0
-2.115255,-7.649854,0.129212,42.07,31.08,-26.32,1729415059729.0,0.0
-2.163112,-5.584848,0.234497,54.810001,13.37,-19.530001,1729415059748.0,0.0
-2.443072,-4.486543,0.246461,47.18,2.03,-5.32,1729415059773.0,0.0
-2.694318,-6.197411,-1.328017,23.24,-10.22,1.19,1729415059790.0,0.0
-2.569891,-8.446664,-2.366502,7.7,-21.42,5.81,1729415059808.0,0.0
-2.964707,-8.331808,-2.971886,22.68,-23.52,15.33,1729415059829.0,0.0
-3.716053,-6.987042,-2.354537,56.0,-22.75,11.41,1729415059849.0,0.0
-4.462614,-6.635297,-2.165504,65.730003,-30.1,16.379999,1729415059869.0,0.0
-4.74736,-8.142776,-3.493521,0.98,-39.060001,16.73,1729415059891.0,0.0
-5.443672,-10.856236,-5.886343,-76.370003,-27.65,32.549999,1729415059909.0,0.0
-5.735595,-13.842479,-7.142576,-76.790001,-11.2,25.969999,1729415059928.0,0.0
-5.927022,-14.735002,-6.269196,0.28,4.06,6.58,1729415059949.0,0.0
-5.412565,-11.542977,-5.087141,51.240002,14.7,-15.89,1729415059969.0,0.0
-4.347759,-10.272388,-3.979264,39.27,3.08,-18.27,1729415059990.0,0.0
-3.9338,-9.98525,-3.943372,-7.35,13.3,-28.77,1729415060009.0,0.0
-3.337988,-9.915856,-4.677969,-13.79,26.950001,-44.799999,1729415060028.0,0.0
-2.572284,-9.801002,-3.787838,3.92,35.0,-58.240002,1729415060048.0,0.0
-1.902294,-9.037691,-1.06002,-10.36,37.450001,-66.010002,1729415060069.0,0.0
-1.229911,-7.946564,1.555335,-37.59,21.0,-63.490002,1729415060104.0,0.0
-0.863809,-6.843473,2.244468,-50.330002,3.99,-53.060001,1729415060108.0,0.0
-1.359123,-7.080362,1.837688,-84.629997,-12.67,-54.110001,1729415060129.0,0.0
-2.026721,-7.776673,0.497707,-162.960007,-21.210001,-55.860001,1729415060148.0,0.0
-1.852045,-7.618747,-2.481357,-242.130005,-40.459999,-63.420002,1729415060169.0,0.0
-1.28016,-7.795816,-6.515656,-280.140015,-57.68,-68.529999,1729415060190.0,0.0
-1.663012,-5.785845,-6.711867,-277.480011,-41.720001,-59.990002,1729415060209.0,0.0
-3.101098,-4.826324,-6.52762,-256.549988,-29.33,-52.5,1729415060229.0,0.0
-4.388437,-3.821337,-9.032906,-245.210007,-29.68,-47.25,1729415060250.0,0.0
-4.723432,-3.156133,-11.382657,-253.330002,-24.360001,-39.900002,1729415060269.0,0.0
-3.682554,-4.618148,-11.964113,-228.619995,-24.01,-28.84,1729415060290.0,0.0
-2.904887,-3.672983,-11.64826,-187.039993,-14.49,-24.780001,1729415060310.0,0.0
-3.464807,-2.232504,-9.712467,-167.300003,-1.33,-12.46,1729415060329.0,0.0
-3.069991,-2.921637,-9.176475,-174.649994,-8.82,-10.08,1729415060348.0,0.0
-2.234896,-3.445665,-8.664411,-157.710007,-12.04,-7.42,1729415060369.0,0.0
-1.837688,-3.617948,-8.898908,-117.949997,-2.87,-4.41,1729415060390.0,0.0
-1.74676,-4.173083,-9.762716,-79.309998,4.48,2.03,1729415060408.0,0.0
-0.646062,-5.510671,-9.583255,-44.450001,1.4,5.6,1729415060429.0,0.0
0.294317,-4.969893,-8.099705,-17.99,1.4,5.11,1729415060448.0,0.0
0.27996,-5.355137,-7.776673,-3.43,-0.14,4.13,1729415060469.0,0.0
0.672383,-3.924229,-8.214561,16.24,-9.8,3.92,1729415060503.0,0.0
-0.457029,-2.790031,-9.430114,16.66,-5.18,7.0,1729415060518.0,0.0
-1.07677,-3.960121,-11.150554,22.33,-11.69,8.05,1729415060534.0,0.0
-0.911665,-5.010571,-10.133603,79.590004,-13.3,10.22,1729415060549.0,0.0
-1.911865,-4.680361,-8.618947,123.270004,0.56,13.72,1729415060568.0,0.0
-2.888137,-5.534599,-8.319844,178.779999,4.55,21.700001,1729415060590.0,0.0
-2.533999,-7.618747,-9.68136,272.369995,-4.34,26.74,1729415060609.0,0.0
-2.165504,-6.989435,-10.523634,403.339996,-9.31,28.559999,1729415060627.0,0.0
-2.175076,-5.041678,-11.148161,483.630005,-2.03,38.220001,1729415060648.0,0.0
-2.232504,-1.598405,-9.243474,401.170013,23.799999,25.27,1729415060669.0,0.0
-3.778267,-4.510471,-7.135397,270.200012,33.740002,27.02,1729415060691.0,0.0
-3.507878,-6.625726,-5.326423,156.100006,2.52,20.58,1729415060708.0,0.0
-2.634498,-8.135597,-4.072584,125.790001,-22.120001,14.21,1729415060728.0,0.0
-2.175076,-9.080762,-2.955136,119.279999,-13.440001,6.44,1729415060748.0,0.0
-2.371287,-10.509278,-3.866802,133.770004,11.06,-4.41,1729415060768.0,0.0
-2.825923,-10.829915,-3.529413,182.559998,34.299999,-10.71,1729415060790.0,0.0
-3.534199,-8.848659,-2.079363,220.710007,48.580002,0.77,1729415060808.0,0.0
-2.916851,-7.161718,-0.16989,227.149994,35.98,1.33,1729415060828.0,0.0
-2.974278,-6.876972,0.787239,187.740005,37.170002,15.12,1729415060849.0,0.0
-2.785245,-9.238688,0.148355,159.880005,31.85,20.65,1729415060868.0,0.0
-3.017349,-9.10469,-0.911665,173.880005,21.35,35.349998,1729415060890.0,0.0
-3.18724,-7.700103,-0.504886,174.649994,15.4,37.450001,1729415060909.0,0.0
-3.658626,-8.85105,0.770489,138.180008,9.45,37.73,1729415060928.0,0.0
-4.474578,-11.22473,0.145962,119.699997,16.66,36.189999,1729415060948.0,0.0
-4.965107,-10.372886,1.036092,137.830002,9.45,40.810001,1729415060969.0,0.0
-4.273581,-8.360522,1.208375,115.220001,1.89,39.060001,1729415060990.0,0.0
-4.709075,-8.9683,1.057628,47.18,15.68,35.98,1729415061008.0,0.0
-5.364708,-10.485349,1.337588,-6.93,16.309999,40.670002,1729415061028.0,0.0
-5.010571,-10.442278,1.162912,-54.110001,16.030001,33.459999,1729415061048.0,0.0
-4.704289,-10.174281,1.055235,-46.34,19.389999,18.129999,1729415061068.0,0.0
-3.972085,-10.365707,1.385444,-50.959999,17.57,-11.9,1729415061093.0,0.0
-4.591826,-11.198411,1.799403,-66.5,26.67,-17.99,1729415061108.0,0.0
-4.56072,-12.186646,1.375873,-43.259998,21.42,-34.299999,1729415061128.0,0.0
-4.261617,-11.425728,0.727418,-16.799999,19.25,-42.700001,1729415061148.0,0.0
-2.928815,-9.607183,0.823131,-5.25,18.200001,-51.099998,1729415061168.0,0.0
-1.828116,-9.408579,1.251446,-6.02,20.58,-58.799999,1729415061190.0,0.0
-0.758525,-9.432507,3.59402,16.73,23.73,-60.48,1729415061215.0,0.0
-0.588634,-8.542377,5.742774,74.620003,13.02,-49.91,1729415061228.0,0.0
-0.691526,-7.642675,6.912865,75.25,6.37,-43.75,1729415061248.0,0.0
-0.875773,-6.896115,5.730811,65.379997,-3.57,-31.92,1729415061270.0,0.0
-0.732204,-5.958128,4.309474,84.349998,-11.97,-17.290001,1729415061290.0,0.0
-0.806381,-5.213961,5.458029,93.169998,-9.94,-6.65,1729415061309.0,0.0
-1.811367,-5.536992,4.024727,57.75,-4.48,-0.49,1729415061328.0,0.0
-2.806781,-6.412765,2.974278,47.18,1.47,12.53,1729415061348.0,0.0
-3.005385,-7.101898,2.318645,53.34,-5.25,19.74,1729415061369.0,0.0
-3.366701,-7.235896,1.844866,46.060001,1.4,37.029999,1729415061390.0,0.0
-4.206582,-8.23131,1.663012,40.25,-2.73,53.200001,1729415061409.0,0.0
-5.328816,-8.659625,0.736989,33.529999,-8.61,65.379997,1729415061429.0,0.0
-5.599205,-8.721838,1.959722,-7.49,-21.210001,57.82,1729415061450.0,0.0
-5.376673,-9.891929,2.65364,-99.190002,-31.92,54.25,1729415061470.0,0.0
-5.484349,-10.439885,0.294317,-192.990005,-21.98,42.84,1729415061491.0,0.0
-5.173282,-8.300702,-1.064806,-289.940002,-24.360001,10.29,1729415061509.0,0.0
-3.84048,-8.453842,-2.888137,-371.700012,-50.119999,-32.41,1729415061530.0,0.0
-3.553342,-10.8682,-3.541377,-363.860016,-42.630001,-49.420002,1729415061550.0,0.0
-3.455236,-10.710274,-4.101298,-345.799988,-25.549999,-58.939999,1729415061572.0,0.0
-3.61077,-10.24846,-3.503092,-302.470001,-22.82,-48.02,1729415061593.0,0.0
-3.074777,-9.212367,-3.189633,-249.619995,-34.720001,-45.43,1729415061610.0,0.0
-2.768496,-7.178468,-4.780859,-235.270004,-36.75,-39.200001,1729415061630.0,0.0
-3.436093,-5.47717,-6.553941,-247.169998,-25.48,-23.59,1729415061651.0,0.0
-3.562913,-5.309673,-5.800202,-261.519989,-18.27,-11.06,1729415061670.0,0.0
-3.517449,-3.852444,-6.766902,-294.420013,-1.96,7.21,1729415061695.0,0.0
-3.811767,-2.196611,-10.983055,-261.23999,39.48,31.360001,1729415061710.0,0.0
-4.572684,-5.828916,-9.06162,-236.949997,44.450001,47.18,1729415061730.0,0.0
-4.017549,-5.276174,-9.973285,-187.25,37.380001,38.920002,1729415061750.0,0.0
-3.909872,-4.656433,-9.415757,-155.190002,44.029999,41.16,1729415061770.0,0.0
-2.924029,-3.835695,-11.332408,-137.410004,41.16,37.59,1729415061792.0,0.0
-2.524428,-8.157133,-8.207381,-147.910004,46.41,48.720001,1729415061810.0,0.0
