acc_x,acc_y,acc_z,gyr_x,gyr_y,gyr_z,timestamp,label
-1.105484,-4.12044,-9.195618,1.33,-2.31,-3.36,1729425824019.0,0.0
-1.098306,-4.271189,-9.150154,-2.31,-3.15,-2.45,1729425824023.0,0.0
-1.124627,-4.668397,-8.985049,-3.92,-1.82,-1.61,1729425824024.0,0.0
-1.481157,-4.902894,-8.695518,2.8,1.96,-1.12,1729425824024.0,0.0
-1.902294,-4.890929,-9.109475,13.16,4.13,0.07,1729425824037.0,0.0
-2.050649,-4.395615,-9.212367,21.84,3.85,0.49,1729425824058.0,0.0
-2.462214,-4.175476,-9.016156,21.84,11.62,5.04,1729425824078.0,0.0
-3.014957,-4.24726,-8.532805,24.57,16.1,9.45,1729425824097.0,0.0
-3.35713,-4.565506,-8.042276,19.460001,17.99,8.19,1729425824118.0,0.0
-3.534199,-4.761717,-7.594819,13.65,17.15,3.43,1729425824137.0,0.0
-3.622734,-4.4674,-6.927221,10.01,13.86,-2.31,1729425824157.0,0.0
-3.689733,-4.67079,-6.762117,2.1,8.4,-10.15,1729425824178.0,0.0
-3.512664,-4.680361,-6.69751,-9.94,-4.2,-18.83,1729425824197.0,0.0
-3.503092,-4.386044,-6.685547,-18.83,-15.05,-21.35,1729425824217.0,0.0
-3.515057,-4.096512,-6.838687,-28.139999,-24.01,-23.940001,1729425824237.0,0.0
-3.318845,-4.072584,-7.077969,-40.18,-39.27,-27.299999,1729425824257.0,0.0
-2.739782,-4.476971,-7.678568,-49.420002,-59.849998,-31.01,1729425824281.0,0.0
-2.041078,-4.460221,-8.432307,-55.650002,-78.400002,-36.889999,1729425824298.0,0.0
-1.586441,-4.555934,-8.626125,-57.75,-87.849998,-42.490002,1729425824317.0,0.0
-1.241875,-4.508078,-8.645268,-66.639999,-97.230003,-51.66,1729425824337.0,0.0
-0.937986,-4.342973,-9.312866,-74.620003,-108.57,-59.709999,1729425824357.0,0.0
-0.705883,-3.675375,-9.97807,-89.879997,-113.889999,-70.07,1729425824380.0,0.0
-0.827917,-3.270989,-10.442278,-101.290001,-115.080002,-74.480003,1729425824397.0,0.0
-0.863809,-2.931208,-10.853845,-105.699997,-113.82,-77.980003,1729425824417.0,0.0
-0.954736,-2.854637,-11.301301,-97.580002,-106.190002,-78.75,1729425824437.0,0.0
-1.270589,-2.541178,-11.143374,-68.110001,-89.18,-73.43,1729425824457.0,0.0
-1.464408,-1.777867,-10.853845,-17.08,-67.129997,-61.25,1729425824480.0,0.0
-1.301696,-1.299303,-11.102697,26.460001,-51.450001,-47.810001,1729425824498.0,0.0
-1.304088,-1.524228,-11.073983,48.650002,-37.029999,-36.189999,1729425824516.0,0.0
-1.65344,-1.931008,-11.035697,53.41,-23.799999,-26.25,1729425824538.0,0.0
-2.09372,-2.069792,-10.810772,43.330002,-17.15,-20.51,1729425824557.0,0.0
-2.476572,-2.175076,-11.030912,32.130001,-14.28,-13.65,1729425824579.0,0.0
-3.055635,-2.014757,-10.621738,18.41,-8.75,-10.57,1729425824597.0,0.0
-3.536592,-2.311467,-10.514063,13.3,-3.29,-5.95,1729425824616.0,0.0
-3.656233,-2.512464,-10.423136,21.77,-2.94,-5.95,1729425824637.0,0.0
-3.639483,-2.48375,-10.207782,38.779999,0.35,6.51,1729425824658.0,0.0
-3.739982,-2.63689,-9.731609,50.330002,6.93,10.85,1729425824678.0,0.0
-3.65384,-2.507678,-8.863015,51.52,12.88,12.81,1729425824699.0,0.0
-3.596412,-2.682354,-8.683553,55.650002,17.01,20.790001,1729425824719.0,0.0
-3.737589,-3.871587,-8.867801,45.990002,19.530001,17.92,1729425824737.0,0.0
-3.912265,-4.338188,-8.817552,19.879999,25.690001,6.58,1729425824757.0,0.0
-4.290331,-3.84048,-9.142976,4.34,30.66,2.31,1729425824779.0,0.0
-4.56072,-3.175276,-8.946764,-2.45,28.84,1.05,1729425824798.0,0.0
-4.4339,-3.361916,-8.602197,-12.25,27.23,-2.52,1729425824818.0,0.0
-4.067799,-3.962514,-8.626125,-20.440001,28.42,-7.98,1729425824838.0,0.0
-4.074977,-3.996014,-8.95155,-10.92,34.369999,-7.14,1729425824857.0,0.0
-4.287938,-3.684947,-9.054441,5.46,42.98,-3.15,1729425824879.0,0.0
-4.15394,-3.354738,-8.559127,16.52,45.639999,0.84,1729425824896.0,0.0
-3.694518,-3.52702,-8.413164,21.84,39.130001,2.8,1729425824916.0,0.0
-3.196811,-3.335595,-7.963314,17.99,34.09,-0.07,1729425824936.0,0.0
-3.120241,-3.428915,-7.850852,7.35,32.34,-3.36,1729425824957.0,0.0
-2.806781,-3.651447,-8.092526,-12.39,26.040001,-7.49,1729425824979.0,0.0
-2.285146,-3.67059,-8.317451,-27.370001,12.32,-6.65,1729425824997.0,0.0
-1.931008,-3.24706,-8.693125,-40.529999,5.74,-5.74,1729425825017.0,0.0
-2.167897,-3.306881,-9.394222,-57.889999,7.63,-6.3,1729425825036.0,0.0
-2.519642,-4.051049,-9.999605,-54.810001,14.49,3.5,1729425825056.0,0.0
-2.931208,-3.979264,-9.824929,-21.42,13.37,15.61,1729425825080.0,0.0
-3.275774,-3.809374,-9.41815,3.29,13.16,17.01,1729425825097.0,0.0
-3.309274,-4.352544,-9.315259,10.43,9.66,17.01,1729425825117.0,0.0
-3.081956,-4.517649,-9.332008,29.610001,3.5,18.76,1729425825137.0,0.0
-2.871387,-3.646662,-9.028119,40.880001,0.98,17.85,1729425825156.0,0.0
-2.919244,-2.837888,-8.764909,26.74,-0.84,14.0,1729425825179.0,0.0
-2.876173,-2.962314,-8.985049,-4.2,-2.45,8.19,1729425825198.0,0.0
-2.897708,-3.414558,-8.997013,-23.450001,-1.61,5.95,1729425825218.0,0.0
-2.921637,-3.57727,-9.310472,-19.040001,-1.75,5.74,1729425825236.0,0.0
-3.029313,-3.342773,-9.449257,-7.49,1.12,5.18,1729425825257.0,0.0
-3.192025,-3.242275,-9.533006,2.38,4.27,5.88,1729425825283.0,0.0
-3.342773,-3.275774,-9.439686,9.17,5.46,7.84,1729425825298.0,0.0
-3.333202,-3.24706,-9.461221,14.56,5.81,8.61,1729425825317.0,0.0
-3.366701,-2.995814,-9.016156,17.290001,6.37,9.17,1729425825336.0,0.0
-3.665804,-2.694318,-8.568698,12.6,9.24,9.03,1729425825356.0,0.0
-3.883551,-3.311667,-9.068797,3.5,8.89,7.77,1729425825380.0,0.0
-4.027121,-3.601198,-9.49472,-1.96,12.25,8.19,1729425825397.0,0.0
-4.173083,-3.498307,-10.205389,5.95,16.24,12.04,1729425825416.0,0.0
-4.565506,-3.199204,-9.643075,18.83,22.120001,14.77,1729425825437.0,0.0
-4.768896,-3.201597,-9.29133,19.6,28.49,14.49,1729425825456.0,0.0
-4.572684,-3.510271,-9.150154,4.55,31.85,11.48,1729425825480.0,0.0
-4.287938,-3.735196,-9.166903,1.82,40.25,15.190001,1729425825497.0,0.0
-3.60359,-3.572484,-9.712467,8.19,45.220001,15.05,1729425825516.0,0.0
-2.773281,-3.723232,-10.298709,6.65,40.599998,12.11,1729425825536.0,0.0
-2.18704,-3.806981,-9.638289,-3.01,37.380001,11.97,1729425825558.0,0.0
-1.782653,-3.711268,-8.520842,10.29,41.02,13.16,1729425825578.0,0.0
-1.366302,-3.74716,-8.630912,37.029999,40.32,14.7,1729425825597.0,0.0
-0.72024,-3.125026,-9.178867,42.77,30.380001,13.23,1729425825617.0,0.0
-0.07657,-2.258825,-9.578469,29.120001,25.41,13.3,1729425825636.0,0.0
0.452243,-1.837688,-9.480364,-0.84,24.57,15.47,1729425825656.0,0.0
0.849452,-1.916651,-9.303294,-40.740002,19.389999,13.86,1729425825679.0,0.0
1.493121,-3.20399,-9.171689,-54.599998,10.64,18.48,1729425825696.0,0.0
1.385444,-3.850052,-9.690931,-33.110001,15.33,29.26,1729425825716.0,0.0
0.882952,-4.259224,-9.353544,-21.49,36.049999,28.77,1729425825737.0,0.0
-0.0335,-3.601198,-7.554141,3.78,47.950001,31.15,1729425825756.0,0.0
-0.404387,-3.438486,-6.518049,45.150002,37.869999,34.02,1729425825778.0,0.0
-0.145962,-2.959922,-7.030113,27.23,4.06,29.82,1729425825797.0,0.0
-0.244068,-3.986443,-8.520842,-0.35,-4.62,28.630001,1729425825815.0,0.0
-0.861416,-4.845466,-9.406186,-18.27,3.71,22.190001,1729425825836.0,0.0
-1.509871,-5.149354,-9.705289,-10.57,13.16,19.74,1729425825857.0,0.0
-1.725225,-4.826324,-9.702895,7.28,8.4,17.85,1729425825878.0,0.0
-1.708475,-4.125226,-9.753145,16.450001,1.89,13.3,1729425825896.0,0.0
-1.887937,-4.197011,-10.049855,14.35,8.47,8.05,1729425825916.0,0.0
-2.182254,-4.13719,-9.872787,8.82,16.870001,3.71,1729425825935.0,0.0
-2.28036,-3.732803,-9.24826,14.84,17.5,5.11,1729425825955.0,0.0
-2.098505,-3.125026,-9.202796,24.290001,10.99,7.49,1729425825979.0,0.0
-1.698904,-3.113062,-8.985049,24.639999,4.9,7.84,1729425825997.0,0.0
-1.471586,-3.45045,-8.817552,10.43,3.64,7.07,1729425826016.0,0.0
-1.261017,-3.996014,-9.097511,-0.98,0.49,4.48,1729425826037.0,0.0
-1.246661,-4.122833,-9.147761,-12.32,0.28,0.98,1729425826056.0,0.0
-1.225125,-3.945765,-9.420543,-9.31,-0.49,-0.77,1729425826078.0,0.0
-1.251446,-4.304688,-9.487542,0.28,-1.26,-2.1,1729425826097.0,0.0
-1.244268,-4.680361,-9.466006,9.52,1.33,-4.83,1729425826115.0,0.0
-1.184447,-4.307081,-9.245867,11.69,3.85,-5.53,1729425826135.0,0.0
-1.134198,-3.943372,-9.147761,11.27,3.64,-5.18,1729425826156.0,0.0
-1.052842,-3.605984,-9.095119,12.25,3.43,-3.71,1729425826179.0,0.0
-1.100698,-3.833302,-9.284152,17.639999,4.06,-1.89,1729425826196.0,0.0
-1.131805,-3.988836,-9.51147,20.93,4.9,-1.12,1729425826217.0,0.0
-1.129412,-4.010371,-9.095119,24.219999,7.28,-1.12,1729425826236.0,0.0
-1.021735,-4.481757,-9.142976,35.420002,5.39,1.89,1729425826256.0,0.0
-0.583849,-4.886144,-9.473185,57.959999,0.28,2.38,1729425826281.0,0.0
-0.447458,-4.852644,-9.659825,74.129997,3.64,3.71,1729425826297.0,0.0
-0.564706,-4.943572,-9.131011,85.540001,14.35,3.64,1729425826315.0,0.0
-0.684347,-4.914857,-9.226725,97.510002,21.84,4.48,1729425826336.0,0.0
-0.141177,-5.355137,-9.109475,128.240005,10.5,13.79,1729425826356.0,0.0
1.258625,-6.774081,-8.250452,168.139999,-10.71,24.780001,1729425826378.0,0.0
2.019542,-7.556533,-6.51087,229.880005,-12.67,36.330002,1729425826397.0,0.0
2.699104,-7.9681,-3.742374,265.440002,-6.16,39.970001,1729425826415.0,0.0
2.397608,-7.814958,-2.533999,308.769989,-9.38,38.849998,1729425826435.0,0.0
0.526421,-6.872187,-1.529014,337.119995,3.92,43.75,1729425826456.0,0.0
-2.364109,-4.436293,-0.904487,310.100006,27.93,52.5,1729425826477.0,0.0
-5.757132,-4.845466,-1.749153,189.770004,37.099998,60.760002,1729425826498.0,0.0
-8.85105,-6.211767,-3.132205,-45.290001,11.55,43.75,1729425826516.0,0.0
-10.286745,-9.635897,-8.913264,-216.089996,-4.13,15.190001,1729425826535.0,0.0
-11.083554,-14.462219,-10.722239,-197.330002,-18.76,-14.49,1729425826555.0,0.0
-9.140583,-13.804193,-9.530612,-62.93,-21.07,-26.040001,1729425826581.0,0.0
-5.759524,-9.315259,-9.233903,100.730003,-19.32,2.73,1729425826596.0,0.0
-2.440679,-6.465407,-6.879365,154.279999,-12.11,2.1,1729425826615.0,0.0
0.12682,-6.723832,-1.165305,157.080002,-2.17,26.460001,1729425826636.0,0.0
1.895115,-7.429714,5.529813,109.129997,-4.06,45.990002,1729425826655.0,0.0
3.239882,-7.62114,5.649454,36.470001,-29.75,35.209999,1729425826677.0,0.0
3.771089,-8.568698,1.68694,-1.89,-77.559998,26.25,1729425826698.0,0.0
1.418944,-8.327023,-3.799802,-67.550003,-94.220001,7.56,1729425826715.0,0.0
-0.961915,-7.424929,-12.397215,-139.440002,-65.519997,-21.49,1729425826735.0,0.0
-3.184847,-5.678168,-13.217952,-81.620003,-46.689999,8.89,1729425826755.0,0.0
-5.876772,-6.886543,-20.463419,-9.94,43.049999,36.610001,1729425826777.0,0.0
-7.200003,-8.106883,-14.624931,-21.77,139.300003,33.32,1729425826795.0,0.0
-10.214959,-12.162716,-1.361516,61.040001,133.070007,25.200001,1729425826816.0,0.0
-8.080563,-11.021341,-2.364109,138.529999,75.809998,13.86,1729425826835.0,0.0
-4.027121,-9.523434,-2.117648,63.77,27.51,-13.37,1729425826855.0,0.0
-1.423729,-10.047462,-2.467,-27.02,22.68,-48.439999,1729425826878.0,0.0
0.181855,-9.025726,2.127219,-65.940002,35.700001,-32.41,1729425826895.0,0.0
1.347159,-8.84148,8.796017,-24.92,4.83,-0.21,1729425826915.0,0.0
1.337588,-5.465207,7.712067,32.27,-60.200001,17.43,1729425826935.0,0.0
-0.672383,-4.027121,3.771089,51.170002,-72.379997,14.28,1729425826955.0,0.0
-2.89053,-1.753939,-4.089334,-77.629997,-65.169998,-14.0,1729425826977.0,0.0
-4.996214,-4.472186,-11.626726,-163.100006,-88.970001,-15.75,1729425826996.0,0.0
-5.52742,-7.793423,-16.407585,-187.669998,-74.690002,-14.63,1729425827015.0,0.0
-7.51107,-10.492528,-17.984455,-96.32,31.5,43.400002,1729425827035.0,0.0
-8.018349,-13.636696,-14.120047,42.0,96.25,41.720001,1729425827057.0,0.0
-5.666204,-9.150154,-3.735196,147.910004,75.459999,29.540001,1729425827077.0,0.0
-3.902694,-9.58804,-1.270589,150.430008,85.68,31.290001,1729425827095.0,0.0
-1.68694,-11.198411,-3.708875,72.660004,75.529999,-11.83,1729425827115.0,0.0
0.131605,-7.245467,6.364908,2.66,75.669998,-24.08,1729425827135.0,0.0
0.519243,-6.01077,12.287145,84.629997,17.710001,24.08,1729425827156.0,0.0
1.363909,-2.952743,9.396614,99.540001,-80.5,31.01,1729425827179.0,0.0
-2.26361,-4.4339,5.730811,-6.23,-80.639999,20.58,1729425827195.0,0.0
-4.82393,-3.9338,-3.622734,-172.059998,-62.299999,-27.719999,1729425827216.0,0.0
-6.396015,-6.613762,-13.859229,-223.369995,-87.709999,-31.57,1729425827235.0,0.0
-5.000999,-6.836295,-20.994625,-241.990005,-121.730003,-29.26,1729425827257.0,0.0
-4.271189,-9.970891,-18.671194,-141.960007,-44.799999,22.190001,1729425827280.0,0.0
-5.776274,-15.730415,-16.11566,22.049999,50.400002,30.52,1729425827296.0,0.0
-5.47717,-15.541383,-7.939385,123.480003,104.790001,3.36,1729425827315.0,0.0
-4.996214,-10.990234,-3.146562,176.610001,106.260002,9.38,1729425827335.0,0.0
-3.180061,-10.403993,-8.79123,174.649994,86.309998,-4.69,1729425827359.0,0.0
-0.308674,-5.642276,1.227518,46.759998,59.150002,-51.029999,1729425827380.0,0.0
-2.648855,-1.65344,11.576476,70.209999,56.420002,-10.36,1729425827396.0,0.0
-4.058227,0.040678,9.834501,112.419998,-45.5,14.84,1729425827416.0,0.0
-5.795416,1.241875,6.139983,-21.280001,-76.300003,10.92,1729425827435.0,0.0
-6.01077,-2.689533,-6.211767,-149.869995,-103.25,-12.11,1729425827455.0,0.0
-3.682554,-8.800802,-21.446869,-206.149994,-168.210007,-49.07,1729425827478.0,0.0
-2.361716,-13.701303,-20.84388,-176.75,-185.919998,-21.559999,1729425827495.0,0.0
-2.299503,-13.854443,-15.562919,-104.580002,33.810001,31.219999,1729425827515.0,0.0
-3.9673,-16.661224,-11.542977,40.040001,80.290001,36.610001,1729425827535.0,0.0
-2.548356,-12.196217,-5.704489,116.550003,73.080002,4.13,1729425827555.0,0.0
-3.302095,-7.475177,-3.017349,183.889999,111.370003,24.639999,1729425827577.0,0.0
-3.936193,-5.668597,-6.302694,175.839996,129.289993,13.37,1729425827596.0,0.0
-3.95055,-4.089334,-3.184847,84.980003,133.350006,-7.42,1729425827616.0,0.0
-2.778067,-4.359723,5.536992,36.119999,89.459999,4.97,1729425827635.0,0.0
-3.869194,-3.546163,10.135997,43.610001,3.57,28.07,1729425827655.0,0.0
-5.146961,-3.471986,8.475377,39.200001,-34.720001,26.809999,1729425827677.0,0.0
-6.125626,-4.718646,2.909672,-61.529999,-55.299999,4.27,1729425827695.0,0.0
-4.165904,-7.525427,-11.724831,-173.809998,-127.470001,-22.540001,1729425827715.0,0.0
-1.397408,-8.444271,-24.433113,-194.949997,-240.729996,-34.860001,1729425827736.0,0.0
0.68674,-7.980063,-16.120445,-147.210007,-146.300003,18.969999,1729425827754.0,0.0
-1.062413,-15.113067,-13.543377,-40.459999,30.450001,52.080002,1729425827778.0,0.0
-2.230111,-16.826328,-9.772287,-0.14,120.959999,7.56,1729425827795.0,0.0
-5.99402,-13.205987,-4.350152,92.330002,164.710007,-9.03,1729425827815.0,0.0
-7.393822,-9.025726,-8.49452,164.360001,172.479996,4.48,1729425827835.0,0.0
-5.096712,-5.388636,-5.15414,93.590004,117.809998,-10.57,1729425827855.0,0.0
-2.758924,-5.000999,7.034898,76.93,63.349998,-6.16,1729425827876.0,0.0
-3.333202,-2.361716,11.748759,75.040001,11.41,18.129999,1729425827895.0,0.0
-4.821537,-2.610569,8.834301,95.410004,-38.220001,25.620001,1729425827915.0,0.0
-6.116055,-1.883151,5.271388,-67.480003,-63.420002,-3.29,1729425827934.0,0.0
-4.795217,-5.589634,-5.118248,-178.710007,-137.270004,-25.9,1729425827955.0,0.0
-2.476572,-8.891729,-15.656239,-224.630005,-242.270004,-52.360001,1729425827976.0,0.0
-0.057428,-10.028319,-24.983461,-214.059998,-219.800003,-25.690001,1729425827995.0,0.0
-0.052642,-10.695917,-15.311671,-113.050003,-36.82,35.490002,1729425828016.0,0.0
-2.648855,-15.503098,-14.656039,38.150002,116.410004,27.860001,1729425828035.0,0.0
-6.594619,-11.045268,-5.266603,97.230003,154.699997,-0.42,1729425828058.0,0.0
-7.290931,-8.707481,-7.54457,170.240005,150.430008,9.87,1729425828077.0,0.0
-4.072584,-6.76451,-4.850252,97.650002,95.690002,-15.89,1729425828095.0,0.0
-2.766103,-6.037091,10.727024,54.389999,59.150002,-23.17,1729425828115.0,0.0
-4.039084,-3.751946,11.708081,73.639999,29.75,6.16,1729425828135.0,0.0
-5.12782,-2.758924,8.700303,89.739998,-36.189999,12.6,1729425828154.0,0.0
-5.458029,-1.830509,1.923829,-33.670002,-77.07,-11.69,1729425828178.0,0.0
-4.960321,-5.386244,-7.965706,-119.629997,-122.779999,-18.34,1729425828195.0,0.0
-2.610569,-8.030313,-19.453648,-189.979996,-184.240005,-30.799999,1729425828214.0,0.0
-0.729811,-8.85105,-19.484755,-178.710007,-153.020004,16.52,1729425828235.0,0.0
-1.244268,-12.827922,-16.776079,-31.57,-7.56,45.5,1729425828255.0,0.0
-2.313859,-13.500306,-15.105889,105.769997,91.910004,32.130001,1729425828279.0,0.0
-3.754339,-8.848659,-5.371887,127.400002,129.5,-0.77,1729425828295.0,0.0
-5.276174,-6.506085,-5.151747,149.240005,145.669998,2.17,1729425828315.0,0.0
-5.182854,-6.932007,-6.417551,81.970001,86.870003,-23.940001,1729425828334.0,0.0
-3.39063,-5.568098,-3.814159,-23.309999,75.809998,-45.150002,1729425828355.0,0.0
-2.519642,-5.431707,4.256832,-20.719999,65.169998,-10.5,1729425828377.0,0.0
-3.689733,-3.251846,8.149954,9.24,12.53,-1.61,1729425828396.0,0.0
-5.678168,-2.871387,6.675975,10.57,-44.869999,9.66,1729425828414.0,0.0
-6.4343,-5.821737,1.789831,-91.489998,-77.07,-10.85,1729425828435.0,0.0
-4.297509,-8.786445,-10.837094,-147.699997,-156.869995,-34.16,1729425828454.0,0.0
-3.081956,-11.375479,-18.393627,-122.360001,-218.960007,-34.93,1729425828482.0,0.0
-0.361316,-8.518449,-17.826529,-146.160004,-105.769997,-5.39,1729425828498.0,0.0
-1.289732,-10.207782,-16.716259,-89.739998,-16.030001,30.030001,1729425828515.0,0.0
-1.438086,-13.832907,-11.124231,-3.15,60.41,14.63,1729425828535.0,0.0
-3.756732,-13.127025,-6.278766,70.629997,130.970001,7.42,1729425828555.0,0.0
-5.927022,-9.693325,-9.726824,145.110001,173.809998,-1.26,1729425828576.0,0.0
-5.273781,-4.366901,-6.415157,83.160004,152.669998,-5.39,1729425828596.0,0.0
-3.847659,-5.99402,6.199803,87.5,100.169998,11.9,1729425828615.0,0.0
-3.414558,-3.689733,10.832308,75.25,23.24,18.620001,1729425828634.0,0.0
-3.52702,-3.814159,8.394022,115.779999,-38.150002,33.110001,1729425828654.0,0.0
-5.245068,-1.651048,6.893722,0.21,-47.670002,4.69,1729425828677.0,0.0
-5.273781,-5.87438,-1.213161,-89.25,-89.949997,-1.75,1729425828695.0,0.0
-4.326223,-8.693125,-10.059426,-170.800003,-184.940002,-28.98,1729425828714.0,0.0
-1.507478,-9.903893,-23.196022,-172.339996,-189.279999,-16.73,1729425828735.0,0.0
-2.244468,-9.351151,-18.03949,-134.050003,-18.83,16.1,1729425828754.0,0.0
-2.981457,-12.557532,-16.022341,-21.35,90.93,15.33,1729425828778.0,0.0
-4.084548,-12.744174,-4.627719,97.160004,114.870003,21.629999,1729425828795.0,0.0
-4.907679,-10.303494,-4.405186,184.729996,126.209999,24.780001,1729425828814.0,0.0
-4.426722,-7.9681,-5.745167,140.279999,101.150002,-1.61,1729425828834.0,0.0
-2.864209,-5.730811,-1.024128,53.900002,101.57,-21.84,1729425828855.0,0.0
-3.713661,-6.017949,10.059426,54.670002,65.239998,-5.53,1729425828877.0,0.0
-5.091926,-4.393222,9.097511,83.370003,1.89,3.29,1729425828895.0,0.0
-6.276374,-2.227718,4.644469,41.790001,-43.330002,8.4,1729425828922.0,0.0
-6.893722,-3.251846,-2.368894,-65.519997,-81.900002,-16.1,1729425828934.0,0.0
-4.486543,-4.503292,-13.033704,-190.259995,-150.009995,-49.630001,1729425829008.0,0.0
-1.730011,-5.577669,-22.269999,-225.610001,-205.589996,-23.17,1729425829011.0,0.0
0.717847,-6.759724,-22.602602,-149.800003,-135.169998,22.469999,1729425829012.0,0.0
0.138784,-12.145968,-14.696717,24.85,-2.66,60.619999,1729425829038.0,0.0
-1.29691,-14.196616,-10.303494,147.979996,117.389999,38.709999,1729425829039.0,0.0
-4.986642,-7.216753,-4.883751,153.649994,167.300003,1.19,1729425829055.0,0.0
-6.477371,-5.970093,-6.257231,96.459999,147.350006,1.96,1729425829076.0,0.0
-4.295116,-6.939186,-0.959522,36.330002,96.32,-10.5,1729425829096.0,0.0
-3.608376,-6.740582,10.724631,17.57,26.530001,1.05,1729425829115.0,0.0
-5.338387,-3.811767,7.958528,52.709999,-10.36,11.48,1729425829135.0,0.0
-7.37468,-2.17029,5.508278,11.69,-39.41,-10.43,1729425829155.0,0.0
-7.625926,-3.323631,0.20339,-129.080002,-91.699997,-42.209999,1729425829177.0,0.0
-4.945964,-4.890929,-10.987842,-192.639999,-179.130005,-57.260002,1729425829196.0,0.0
-2.718246,-9.710074,-20.10689,-160.300003,-256.339996,-54.040001,1729425829216.0,0.0
-0.071785,-6.130411,-19.853249,-217.350006,-152.949997,-27.23,1729425829235.0,0.0
-1.29691,-10.167104,-16.067802,-141.960007,-16.52,26.110001,1729425829256.0,0.0
-1.914258,-14.646468,-13.119846,-3.57,82.18,27.93,1729425829281.0,0.0
-3.378666,-13.368701,-8.341379,132.789993,125.860001,32.060001,1729425829296.0,0.0
-3.754339,-8.472985,-7.879565,229.880005,144.410004,36.75,1729425829315.0,0.0
-3.17049,-7.401,-7.171289,203.490005,140.279999,20.860001,1729425829336.0,0.0
-3.333202,-4.926822,8.68116,105.279999,100.730003,-8.89,1729425829355.0,0.0
-4.59422,-3.601198,10.710274,55.790001,22.610001,-7.35,1729425829389.0,0.0
-5.869594,-3.23031,7.099504,-1.89,-51.52,-15.33,1729425829397.0,0.0
-6.407979,-2.323431,3.117848,-100.099998,-99.540001,-36.400002,1729425829416.0,0.0
-5.271388,-4.144369,-7.932207,-159.529999,-162.050003,-37.939999,1729425829437.0,0.0
-4.694718,-5.883951,-16.441084,-227.290009,-222.600006,-57.049999,1729425829457.0,0.0
-4.23051,-7.087541,-23.758337,-250.880005,-99.540001,-38.920002,1729425829478.0,0.0
-4.161119,-12.665211,-20.494528,-96.32,-8.4,15.190001,1729425829497.0,0.0
-3.026921,-14.469398,-16.158731,102.480003,29.469999,40.950001,1729425829517.0,0.0
-1.72044,-9.707682,-7.037291,213.5,68.599998,52.080002,1729425829536.0,0.0
-2.074577,-5.998806,-4.342973,229.949997,118.860001,40.110001,1729425829556.0,0.0
-3.18724,-5.426922,-2.9336,155.680008,138.039993,2.38,1729425829579.0,0.0
-4.039084,-4.752146,-0.808774,58.310001,120.190002,-15.96,1729425829597.0,0.0
-5.063213,-3.943372,4.589434,23.24,80.709999,5.6,1729425829616.0,0.0
-5.505885,-4.089334,6.357729,-5.53,33.110001,7.49,1729425829641.0,0.0
-2.495714,-6.343372,2.943172,-47.040001,-47.32,19.879999,1729425829656.0,0.0
-1.167697,-6.381658,-2.916851,-71.75,-124.32,-2.31,1729425829683.0,0.0
-1.694118,-7.188039,-10.741381,-103.32,-124.739998,-0.21,1729425829727.0,0.0
-3.60359,-6.017949,-20.262423,-162.680008,-83.650002,-27.09,1729425829731.0,0.0
-3.287738,-7.274181,-17.350357,-209.580002,-41.720001,-33.18,1729425829846.0,0.0
-2.416751,-9.824929,-19.211973,-166.809998,-41.369999,-6.93,1729425829847.0,0.0
-1.191626,-13.840086,-11.306087,9.59,9.66,17.99,1729425829848.0,0.0
-2.486143,-12.823137,-7.719246,130.130005,103.32,22.82,1729425829850.0,0.0
-5.266603,-7.460821,-11.184053,199.710007,196.910004,12.25,1729425829851.0,0.0
-6.326623,-4.225725,-3.017349,166.320007,205.029999,12.25,1729425829852.0,0.0
-8.879765,-5.56092,10.052249,119.489998,117.18,15.12,1729425829856.0,0.0
-8.415558,-7.51107,6.606583,85.82,8.68,-6.44,1729425829877.0,0.0
-7.91785,-6.345766,5.419744,-26.950001,-27.23,-54.670002,1729425829896.0,0.0
-6.84108,-4.058227,1.359123,-89.18,-69.790001,-66.290001,1729425829915.0,0.0
-4.319045,-2.455036,-6.82433,-113.050003,-156.449997,-74.129997,1729425829935.0,0.0
-1.304088,-2.167897,-14.285151,-163.869995,-225.960007,-84.910004,1729425829955.0,0.0
0.868595,-2.675175,-19.54936,-188.860001,-232.399994,-67.269997,1729425829976.0,0.0
1.272982,-6.766902,-15.95295,-90.93,-41.720001,12.67,1729425829996.0,0.0
-0.605384,-13.258631,-15.022141,74.900002,77.980003,55.93,1729425830015.0,0.0
-2.581856,-13.502698,-7.099504,178.990005,138.669998,44.52,1729425830036.0,0.0
-4.218546,-8.712267,-6.532406,199.220001,171.779999,30.66,1729425830055.0,0.0
-4.785645,-5.728417,-6.415157,174.369995,140.559998,33.880001,1729425830076.0,0.0
-2.959922,-5.125426,0.916451,93.029999,108.639999,15.190001,1729425830095.0,0.0
-3.404987,-7.066005,9.260223,68.389999,47.810001,19.110001,1729425830117.0,0.0
-4.517649,-6.98465,6.04427,73.849998,2.66,13.79,1729425830135.0,0.0
-5.98445,-4.962714,3.773481,0.14,-20.09,-7.84,1729425830156.0,0.0
-6.391229,-4.13719,0.114855,-99.190002,-60.970001,-25.059999,1729425830179.0,0.0
-4.101298,-4.364508,-8.676375,-169.470001,-144.410004,-36.68,1729425830196.0,0.0
-1.718047,-8.683553,-18.106489,-179.199997,-215.669998,-28.700001,1729425830217.0,0.0
0.162712,-9.047262,-22.401608,-168.490005,-137.550003,-5.74,1729425830237.0,0.0
-0.148355,-11.641083,-15.63231,-35.77,15.190001,41.650002,1729425830256.0,0.0
-1.117448,-13.167704,-10.159925,95.620003,82.809998,41.720001,1729425830284.0,0.0
-2.136791,-10.554741,-5.388636,187.669998,116.480003,28.139999,1729425830296.0,0.0
-4.426722,-5.802595,-8.54477,223.020004,148.399994,28.84,1729425830316.0,0.0
-3.864408,-2.572284,1.488336,131.600006,137.970001,19.389999,1729425830339.0,0.0
-4.864608,-3.29731,10.296316,107.730003,99.889999,41.93,1729425830357.0,0.0
-5.185246,-4.220939,7.927422,90.230003,-16.17,57.260002,1729425830383.0,0.0
-6.06102,-6.221339,3.388237,-15.54,-46.900002,21.98,1729425830397.0,0.0
-6.640083,-6.754939,0.157926,-147.559998,-52.290001,-20.440001,1729425830416.0,0.0
-6.123233,-7.76471,-6.412765,-157.990005,-112.419998,-12.46,1729425830436.0,0.0
-3.761517,-5.556134,-16.022341,-173.529999,-181.649994,-24.43,1729425830456.0,0.0
-2.964707,-5.493921,-17.754744,-170.100006,-147.839996,-14.91,1729425830477.0,0.0
-3.402594,-8.140383,-16.546368,-147.839996,-33.599998,0.07,1729425830496.0,0.0
-3.457629,-11.645866,-18.723837,-46.900002,44.029999,13.440001,1729425830517.0,0.0
-3.816552,-13.751552,-5.898308,115.5,83.440002,34.369999,1729425830536.0,0.0
-4.414758,-9.863215,-9.221939,192.779999,129.149994,30.73,1729425830556.0,0.0
-4.134798,-6.233303,-9.595219,172.130005,130.830002,5.74,1729425830578.0,0.0
-3.570091,-3.993621,-3.976871,112.699997,150.850006,-1.96,1729425830597.0,0.0
-4.012764,-5.355137,8.408379,94.5,109.550003,1.47,1729425830618.0,0.0
-3.84048,-2.536392,11.447264,40.459999,32.48,-3.78,1729425830636.0,0.0
-4.974678,-2.036292,4.431508,55.790001,-44.66,21.629999,1729425830656.0,0.0
-5.572884,-2.859423,0.40678,-125.370003,-80.010002,-19.18,1729425830680.0,0.0
-5.225924,-7.539784,-8.618947,-183.889999,-147.699997,-29.610001,1729425830696.0,0.0
-3.479164,-8.68116,-15.718451,-241.149994,-221.970001,-73.360001,1729425830717.0,0.0
-3.022135,-10.707881,-18.793228,-243.600006,-150.289993,-41.369999,1729425830736.0,0.0
-4.015156,-10.25803,-23.341984,-173.880005,-11.34,-19.460001,1729425830756.0,0.0
-3.991228,-10.834702,-16.677973,20.09,77.629997,16.24,1729425830777.0,0.0
-4.366901,-10.774881,-6.580262,172.830002,133.419998,46.619999,1729425830796.0,0.0
-3.833302,-8.776874,-8.305488,251.229996,138.460007,58.52,1729425830815.0,0.0
-2.715853,-6.702296,-6.733403,194.25,118.93,13.16,1729425830837.0,0.0
-1.787439,-5.706882,1.507478,111.090004,138.949997,-10.57,1729425830855.0,0.0
-2.63689,-3.897908,10.853845,74.129997,93.730003,-2.45,1729425830879.0,0.0
-3.0006,-2.203789,9.463614,93.870003,-1.96,15.75,1729425830896.0,0.0
-3.809374,-3.634698,6.046663,45.009998,-80.220001,16.24,1729425830915.0,0.0
-4.275974,-2.732604,0.622134,-105.209999,-110.32,-17.43,1729425830935.0,0.0
-4.663611,-7.240681,-6.60419,-211.470001,-162.75,-54.18,1729425830963.0,0.0
-3.359523,-10.274779,-26.943182,-317.869995,-189.910004,-83.230003,1729425830978.0,0.0
-3.036492,-15.524633,-21.894329,-116.970001,29.469999,-4.13,1729425830998.0,0.0
-4.122833,-14.763715,-12.246466,110.040001,88.129997,20.440001,1729425831016.0,0.0
-3.912265,-10.092925,-5.45085,233.660004,124.459999,22.889999,1729425831036.0,0.0
-3.902694,-6.695118,-6.139983,235.830002,126.349998,25.34,1729425831057.0,0.0
-2.514857,-4.558327,-7.903493,120.400002,108.849998,-26.25,1729425831080.0,0.0
-1.89033,-1.947758,5.446064,43.82,108.360001,-9.59,1729425831100.0,0.0
-3.019742,-1.660619,9.023334,96.529999,74.340004,30.66,1729425831116.0,0.0
-3.127419,-3.055635,7.695317,98.0,-38.43,30.66,1729425831138.0,0.0
-4.354938,-1.414158,5.893522,-32.689999,-62.720001,9.24,1729425831157.0,0.0
-5.802595,-5.132604,1.347159,-122.220001,-85.610001,2.38,1729425831179.0,0.0
-5.149354,-7.539784,-12.067005,-214.690002,-154.419998,-31.780001,1729425831199.0,0.0
-4.012764,-8.092526,-26.009983,-238.559998,-185.919998,-63.07,1729425831217.0,0.0
-2.266003,-6.699903,-24.028725,-210.490005,-37.52,3.15,1729425831237.0,0.0
-2.431108,-13.45245,-18.271593,5.18,25.76,38.57,1729425831258.0,0.0
-1.234696,-15.337994,-7.597212,147.0,48.650002,25.059999,1729425831283.0,0.0
-2.452643,-6.343372,-3.864408,205.520004,138.740005,28.700001,1729425831296.0,0.0
-5.015356,-3.005385,2.421536,138.110001,146.440002,-9.66,1729425831319.0,0.0
-7.200003,-1.931008,3.708875,42.630001,116.059998,1.05,1729425831337.0,0.0
-5.915058,-4.151547,5.486742,43.400002,-12.32,25.48,1729425831357.0,0.0
-3.926622,-4.177868,2.021935,38.990002,-63.84,35.560001,1729425831384.0,0.0
-4.134798,-3.136991,-0.210568,-5.74,-70.629997,41.93,1729425831401.0,0.0
-4.809574,-4.488935,-2.991028,-106.400002,-73.779999,22.610001,1729425831418.0,0.0
-4.259224,-7.757531,-9.032906,-171.639999,-109.550003,5.32,1729425831439.0,0.0
-2.333002,-11.073983,-16.189838,-165.130005,-160.089996,-13.65,1729425831459.0,0.0
-1.813759,-10.006784,-15.943377,-117.25,-118.160004,8.26,1729425831480.0,0.0
-3.113062,-10.942378,-15.21596,-23.52,-5.46,29.4,1729425831501.0,0.0
-3.050849,-13.13181,-15.960127,-3.5,47.950001,4.97,1729425831519.0,0.0
-3.460021,-14.713466,-8.449057,42.209999,102.760002,-9.8,1729425831538.0,0.0
-4.723432,-10.973484,-9.49472,114.870003,148.960007,-10.43,1729425831561.0,0.0
-3.639483,-4.141976,-1.036092,114.800003,145.389999,-17.08,1729425831583.0,0.0
-2.660819,-1.375873,8.602197,66.5,71.470001,-8.26,1729425831600.0,0.0
-3.515057,-3.091527,8.757731,100.660004,0.49,24.290001,1729425831618.0,0.0
-4.608576,-2.038685,4.225725,27.370001,-40.18,4.41,1729425831638.0,0.0
-5.95095,-5.491528,-0.055035,-93.940002,-56.0,-17.780001,1729425831658.0,0.0
-5.192425,-9.908678,-6.104091,-175.979996,-124.32,-61.880001,1729425831685.0,0.0
-4.086941,-10.585848,-17.060825,-252.770004,-154.770004,-72.379997,1729425831699.0,0.0
-3.328416,-10.547562,-21.726828,-193.339996,-65.239998,-31.43,1729425831718.0,0.0
-2.392823,-11.397014,-17.97967,-20.370001,38.57,3.15,1729425831740.0,0.0
-2.019542,-10.217353,-9.635897,87.779999,87.57,17.639999,1729425831757.0,0.0
-1.782653,-8.666803,-7.042077,105.209999,113.330002,17.360001,1729425831781.0,0.0
-1.368695,-7.444071,-3.617948,90.650002,119.139999,-9.1,1729425831798.0,0.0
-2.682354,-5.761917,4.807181,112.349998,110.529999,-5.95,1729425831817.0,0.0
-3.457629,-1.804188,5.606383,115.290001,58.099998,4.13,1729425831838.0,0.0
-4.555934,-1.89033,5.481956,78.120003,-31.15,5.53,1729425831861.0,0.0
-5.20439,-2.981457,1.792224,-12.88,-70.279999,-20.860001,1729425831880.0,0.0
-5.462814,-3.61077,-3.407379,-108.779999,-93.660004,-21.280001,1729425831899.0,0.0
-4.09412,-6.757331,-15.24228,-129.149994,-143.080002,-25.48,1729425831918.0,0.0
-3.146562,-7.140182,-21.030519,-143.850006,-170.800003,-34.509998,1729425831937.0,0.0
-2.904887,-7.034898,-15.404992,-106.400002,-31.15,4.76,1729425831959.0,0.0
-3.031706,-8.874979,-15.393027,-53.970001,29.960001,21.77,1729425831980.0,0.0
-2.163112,-10.765309,-8.061419,20.02,36.400002,32.48,1729425831999.0,0.0
-2.361716,-9.918249,-5.300103,90.440002,75.110001,38.43,1729425832017.0,0.0
-3.601198,-7.822137,-8.798409,117.739998,100.519997,17.92,1729425832038.0,0.0
-3.15374,-4.082155,-7.379465,68.459999,120.260002,3.08,1729425832058.0,0.0
-3.041277,-4.122833,4.878965,54.670002,82.529999,32.34,1729425832081.0,0.0
-2.876173,-5.106283,5.730811,63.420002,16.1,41.509998,1729425832098.0,0.0
-3.962514,-4.35733,2.790031,63.279999,-41.23,42.139999,1729425832119.0,0.0
-6.089733,-2.916851,3.199204,-20.440001,-26.389999,17.08,1729425832138.0,0.0
-7.025328,-6.709475,-1.196411,-94.220001,-69.090004,10.22,1729425832159.0,0.0
-4.773681,-9.265009,-13.107882,-139.440002,-173.669998,-20.370001,1729425832180.0,0.0
-3.091527,-10.9017,-20.145176,-145.880005,-191.729996,-24.57,1729425832198.0,0.0
-2.002793,-9.018548,-19.55654,-138.809998,-32.200001,5.25,1729425832220.0,0.0
-2.888137,-11.186446,-14.079369,-43.540001,33.32,30.799999,1729425832237.0,0.0
-2.342573,-11.289338,-6.833901,83.300003,56.77,23.1,1729425832257.0,0.0
-3.615555,-8.685946,-8.429914,142.029999,117.110001,16.73,1729425832284.0,0.0
-4.472186,-5.871986,-8.449057,130.830002,153.020004,3.36,1729425832299.0,0.0
-4.725825,-4.4674,-0.191426,90.93,133.350006,5.95,1729425832318.0,0.0
-5.240282,-4.512863,5.168497,73.360001,69.300003,11.2,1729425832338.0,0.0
-5.651847,-3.833302,5.99402,45.290001,11.13,11.27,1729425832357.0,0.0
-6.463014,-1.741975,3.677768,-1.12,-14.28,7.0,1729425832381.0,0.0
-6.360123,-2.624927,0.588634,-56.630001,-64.470001,9.8,1729425832398.0,0.0
-4.4339,-5.367101,-7.209574,-105.559998,-145.389999,-2.17,1729425832420.0,0.0
-2.340181,-10.145569,-15.637095,-108.080002,-190.050003,-24.43,1729425832438.0,0.0
-0.894916,-11.23191,-19.307686,-110.529999,-150.990005,-17.639999,1729425832459.0,0.0
-2.098505,-9.609575,-11.672189,-65.099998,-35.07,18.48,1729425832480.0,0.0
-3.541377,-8.9683,-16.421942,-17.780001,38.849998,-1.96,1729425832499.0,0.0
-3.431308,-9.147761,-11.3683,0.77,70.139999,-6.51,1729425832521.0,0.0
-3.615555,-9.894321,-9.473185,69.720001,105.840004,10.43,1729425832538.0,0.0
-3.756732,-7.738388,-6.994221,129.570007,114.870003,10.08,1729425832557.0,0.0
-3.893122,-6.144768,-3.445665,129.779999,110.040001,-0.49,1729425832579.0,0.0
-5.431707,-3.29731,3.122634,73.290001,88.620003,-5.74,1729425832599.0,0.0
-7.013363,-1.993221,6.233303,38.5,29.26,-5.32,1729425832619.0,0.0
-7.788638,-1.502693,6.104091,-5.81,-40.32,8.33,1729425832639.0,0.0
-6.072984,-3.548556,-0.512064,-74.340004,-110.529999,-5.04,1729425832659.0,0.0
-3.713661,-6.12084,-10.928021,-133.699997,-161.210007,-25.549999,1729425832679.0,0.0
-2.194218,-9.221939,-21.506691,-136.5,-154.839996,-18.34,1729425832700.0,0.0
-0.760918,-10.021141,-21.092731,-101.919998,-54.670002,19.040001,1729425832719.0,0.0
-1.40698,-11.516656,-18.190239,-29.960001,24.780001,43.049999,1729425832738.0,0.0
-1.777867,-10.80838,-9.238688,-6.51,77.559998,30.24,1729425832758.0,0.0
-2.981457,-8.578269,-6.178268,25.549999,126.349998,20.16,1729425832782.0,0.0
-4.68754,-6.628119,-6.419943,86.519997,158.550003,8.89,1729425832798.0,0.0
-6.317052,-3.601198,1.612763,67.830002,146.930008,14.63,1729425832819.0,0.0
-7.094719,-5.465207,2.086541,65.169998,78.68,27.790001,1729425832836.0,0.0
-5.45085,-6.398407,3.558127,18.549999,-9.1,-6.65,1729425832860.0,0.0
-5.991628,-7.84128,2.088934,-3.71,-14.0,-16.73,1729425832881.0,0.0
-7.298109,-3.773481,2.258825,-33.740002,-19.6,-35.209999,1729425832899.0,0.0
-5.496314,-3.038885,-2.586641,-37.029999,-77.629997,-11.06,1729425832918.0,0.0
-2.916851,-5.156533,-9.370294,-44.170002,-204.399994,-12.32,1729425832937.0,0.0
-0.454636,-8.449057,-17.627924,-26.809999,-213.149994,-16.309999,1729425832959.0,0.0
-0.72024,-9.150154,-11.657832,13.58,-132.440002,14.84,1729425832979.0,0.0
-2.596212,-9.760324,-13.971692,101.639999,24.01,34.580002,1729425833005.0,0.0
-4.017549,-11.92822,-12.019149,164.639999,44.099998,26.67,1729425833020.0,0.0
-3.948158,-11.547763,-7.781459,196.350006,36.049999,25.48,1729425833037.0,0.0
-4.295116,-11.162518,-5.69731,317.100006,45.990002,53.830002,1729425833060.0,0.0
-4.792823,-8.762517,-5.206782,411.670013,67.900002,64.190002,1729425833079.0,0.0
-5.515456,-9.142976,-3.632305,493.5,75.529999,79.940002,1729425833098.0,0.0
-5.742774,-8.176274,-4.003192,516.390015,69.370003,84.559998,1729425833120.0,0.0
-5.556134,-8.542377,-1.820938,533.539978,45.080002,84.419998,1729425833138.0,0.0
-4.979464,-7.408179,-0.114855,527.030029,22.120001,75.25,1729425833159.0,0.0
-5.307281,-5.922236,3.285345,510.369995,10.5,58.52,1729425833181.0,0.0
-6.582655,-5.515456,6.273981,457.519989,14.56,39.200001,1729425833199.0,0.0
-7.159326,-3.069991,7.446464,355.390015,17.92,13.86,1729425833218.0,0.0
-6.21416,-1.928615,5.960521,194.320007,-14.35,-2.31,1729425833241.0,0.0
-5.142176,-2.096112,5.62074,107.169998,-35.209999,-4.76,1729425833259.0,0.0
-5.058427,-3.294917,6.51087,43.330002,-28.91,-27.51,1729425833284.0,0.0
-5.438886,-5.417351,5.907879,32.689999,-6.51,-37.59,1729425833301.0,0.0
-5.692525,-5.647062,6.238089,66.220001,2.87,-34.439999,1729425833318.0,0.0
-5.266603,-2.9336,6.070591,88.269997,5.25,-22.610001,1729425833341.0,0.0
-5.489135,-0.964308,6.776474,58.170002,16.24,-15.75,1729425833360.0,0.0
-5.833702,0.217747,6.628119,27.09,21.0,-7.14,1729425833384.0,0.0
-6.309873,0.899701,6.541977,6.37,16.66,13.3,1729425833400.0,0.0
-5.618347,0.674776,5.534599,-21.77,0.14,29.540001,1729425833420.0,0.0
-5.046463,-1.756332,2.021935,-63.0,-2.87,40.389999,1729425833441.0,0.0
-5.436492,-5.723632,1.378266,-68.110001,11.2,41.650002,1729425833459.0,0.0
-7.989635,-9.882358,4.242475,-2.59,39.130001,44.170002,1729425833482.0,0.0
-8.633304,-8.324631,11.4018,84.699997,36.610001,15.4,1729425833500.0,0.0
-7.704889,-7.508677,9.183653,51.66,21.98,-36.400002,1729425833521.0,0.0
-8.082954,-9.159724,6.987042,18.620001,7.63,-39.619999,1729425833540.0,0.0
-7.939385,-6.74776,6.508478,50.889999,1.19,-68.18,1729425833559.0,0.0
-6.750153,-0.665205,7.503892,103.529999,-6.44,-68.110001,1729425833584.0,0.0
-4.910072,4.405186,7.886744,90.790001,-16.73,-51.170002,1729425833600.0,0.0
-3.053242,5.115855,6.675975,10.43,-28.0,-46.34,1729425833619.0,0.0
-2.799603,3.438486,6.063413,-91.209999,-30.030001,-5.04,1729425833639.0,0.0
-5.563312,0.882952,3.646662,-148.539993,23.17,35.490002,1729425833661.0,0.0
-7.341179,-0.799203,3.376273,-108.150002,37.66,55.09,1729425833682.0,0.0
-6.896115,-3.290131,2.435893,-91.139999,1.96,50.889999,1729425833700.0,0.0
-5.063213,-6.735795,2.672783,-99.330002,-22.26,37.59,1729425833724.0,0.0
-6.776474,-16.046268,4.673182,-57.540001,-12.39,24.85,1729425833740.0,0.0
-7.405786,-14.172688,7.594819,29.120001,10.5,17.780001,1729425833760.0,0.0
-7.046863,-8.202596,10.604989,105.840004,5.39,-11.06,1729425833781.0,0.0
-5.972485,-4.338188,7.915457,64.260002,8.12,-35.420002,1729425833799.0,0.0
-6.809973,-5.819345,6.52762,33.459999,2.38,-34.23,1729425833820.0,0.0
-8.051848,-5.565705,7.032506,30.59,10.22,-55.93,1729425833840.0,0.0
-6.585048,1.777867,8.166703,47.110001,-7.77,-53.130001,1729425833861.0,0.0
-4.615755,3.421736,7.829315,-14.49,-31.08,-55.860001,1729425833880.0,0.0
-4.110869,2.639283,5.06082,-90.860001,-38.009998,-3.01,1729425833900.0,0.0
-6.013163,2.050649,3.024528,-132.580002,7.14,31.780001,1729425833921.0,0.0
-7.62114,-0.066999,3.376273,-94.919998,16.52,48.650002,1729425833939.0,0.0
-7.357929,-4.405186,3.538985,-82.18,-3.29,42.420002,1729425834021.0,0.0
-5.508278,-7.630712,4.278367,-61.32,-40.25,40.389999,1729425834023.0,0.0
-5.134997,-15.306887,6.943972,-17.43,-41.23,19.460001,1729425834027.0,0.0
-5.836094,-14.653646,10.442278,49.0,-8.54,14.84,1729425834029.0,0.0
-5.414958,-10.490135,11.152946,103.25,-5.95,-19.32,1729425834039.0,0.0
-4.977071,-7.960921,8.626125,107.940002,-1.05,-35.139999,1729425834059.0,0.0
-5.608776,-5.292924,5.74756,105.139999,9.45,-32.689999,1729425834081.0,0.0
-5.493921,1.507478,4.407579,95.760002,24.5,-34.369999,1729425834100.0,0.0
-5.187639,3.979264,6.082555,55.16,15.61,-37.170002,1729425834119.0,0.0
-3.498307,3.067599,7.176075,-23.030001,-19.110001,-33.32,1729425834140.0,0.0
-4.460221,0.090927,5.082355,-77.139999,-6.37,26.880001,1729425834159.0,0.0
-8.362915,-1.931008,3.046063,-87.5,58.170002,58.66,1729425834180.0,0.0
-7.281359,-0.133998,0.009571,-43.959999,38.849998,55.439999,1729425834199.0,0.0
-6.465407,-8.386844,4.582255,-24.5,5.18,51.170002,1729425834219.0,0.0
-7.345965,-12.528819,6.73101,-23.1,31.01,28.77,1729425834239.0,0.0
-8.901299,-14.414362,10.226924,14.07,26.32,16.52,1729425834259.0,0.0
-7.721639,-12.172288,9.54497,41.09,-12.04,-24.57,1729425834284.0,0.0
-5.051248,-7.384251,8.233703,56.77,-42.139999,-37.380001,1729425834299.0,0.0
-6.376873,-7.329216,8.618947,58.380001,-19.530001,-51.029999,1729425834320.0,0.0
-6.687939,-2.038685,6.599405,71.68,-1.33,-63.91,1729425834338.0,0.0
-6.161518,3.615555,6.80758,52.220001,-27.719999,-46.130001,1729425834360.0,0.0
-3.254239,7.317252,5.95095,-32.41,-64.330002,-36.470001,1729425834381.0,0.0
-2.684747,4.527221,5.235496,-116.480003,-61.32,17.5,1729425834400.0,0.0
-6.094519,0.698704,1.859223,-161.699997,24.08,43.610001,1729425834419.0,0.0
-8.922836,-2.289931,2.952743,-90.090004,48.09,64.610001,1729425834439.0,0.0
-8.930015,-5.333601,5.185246,-60.130001,13.09,53.34,1729425834458.0,0.0
-8.274381,-12.808779,4.816752,-57.260002,-14.77,30.24,1729425834480.0,0.0
-7.37468,-17.455641,8.331808,-1.33,-30.17,6.58,1729425834499.0,0.0
-5.481956,-9.509077,8.908479,55.510002,-25.129999,-20.23,1729425834520.0,0.0
-2.876173,-2.952743,8.293523,82.18,-63.77,-35.209999,1729425834539.0,0.0
-2.464607,-1.569692,8.465806,80.989998,-56.630001,-22.4,1729425834561.0,0.0
-3.828516,-2.227718,6.063413,42.07,-2.87,-38.5,1729425834582.0,0.0
-4.402793,0.380459,6.049056,28.35,0.14,-27.719999,1729425834599.0,0.0
-2.859423,3.507878,6.24766,-26.389999,-32.830002,-24.780001,1729425834620.0,0.0
-2.782853,1.349552,7.896315,-89.25,-37.869999,6.93,1729425834638.0,0.0
-6.479764,-4.711468,4.658825,-103.18,17.08,34.720001,1729425834660.0,0.0
-8.212167,-2.615355,2.818745,-38.009998,72.239998,50.68,1729425834680.0,0.0
-9.10469,0.047856,4.785645,25.9,21.629999,85.120003,1729425834701.0,0.0
-8.317451,-7.068398,6.089733,-27.02,0.35,46.48,1729425834719.0,0.0
-7.67139,-14.689538,5.036892,-49.98,-19.18,25.83,1729425834741.0,0.0
-6.881758,-16.158731,8.140383,39.549999,-33.110001,13.86,1729425834760.0,0.0
-5.726025,-10.894521,7.334002,68.529999,-12.11,-27.51,1729425834783.0,0.0
-3.771089,-5.541777,6.381658,86.309998,-38.920002,-35.84,1729425834799.0,0.0
-2.715853,-1.655833,6.843473,93.870003,-41.580002,-31.57,1729425834818.0,0.0
-4.553542,-2.28036,7.879565,81.550003,3.92,-37.029999,1729425834838.0,0.0
-6.195018,0.557528,7.903493,42.07,19.530001,-37.52,1729425834861.0,0.0
-4.87418,3.582055,5.910272,-59.920002,-37.66,-22.68,1729425834880.0,0.0
-4.443472,0.981057,5.989235,-131.809998,-59.010002,6.02,1729425834900.0,0.0
-6.486942,-2.598605,2.754139,-152.110001,-13.58,20.299999,1729425834919.0,0.0
-7.357929,-1.636691,4.067799,-82.389999,12.6,39.41,1729425834939.0,0.0
-6.228518,-2.495714,4.953143,-52.639999,-20.23,42.98,1729425834960.0,0.0
-5.702096,-9.332008,5.166104,-58.450001,-23.379999,27.860001,1729425834982.0,0.0
-4.522435,-11.282159,5.003392,-11.62,-14.07,27.370001,1729425834999.0,0.0
-4.740182,-13.057633,7.786245,35.420002,3.36,12.04,1729425835020.0,0.0
-4.929214,-11.485549,7.60439,35.139999,13.37,-21.98,1729425835048.0,0.0
-3.254239,-6.886543,7.755138,63.349998,-16.940001,-34.93,1729425835058.0,0.0
-3.091527,-4.084548,8.609376,63.630001,-12.11,-34.580002,1729425835081.0,0.0
-4.778467,-4.06062,8.673983,26.32,18.48,-49.139999,1729425835100.0,0.0
-5.723632,-2.67039,8.216952,5.53,2.8,-49.84,1729425835118.0,0.0
-4.163511,1.741975,6.250053,-8.54,-26.880001,-32.619999,1729425835141.0,0.0
-3.725625,4.103691,5.67099,-39.060001,-26.6,7.63,1729425835161.0,0.0
-7.89153,-1.909473,3.677768,-91.139999,13.09,21.559999,1729425835180.0,0.0
-9.269794,-4.455436,4.151547,-62.720001,47.459999,23.870001,1729425835199.0,0.0
-6.69751,-4.35733,4.161119,-21.35,-16.030001,15.82,1729425835221.0,0.0
-3.641876,-6.295516,5.345565,-0.77,-31.360001,12.18,1729425835239.0,0.0
-2.617748,-10.490135,7.546963,35.84,-8.82,13.09,1729425835261.0,0.0
-3.720839,-13.830515,9.97807,99.75,44.310001,-8.05,1729425835285.0,0.0
-4.65404,-11.363515,10.459028,158.059998,62.790001,-21.700001,1729425835300.0,0.0
-3.725625,-6.4343,9.980463,158.759995,36.82,-32.619999,1729425835321.0,0.0
-3.005385,-3.909872,8.518449,110.25,14.56,-44.240002,1729425835340.0,0.0
-4.366901,-3.105884,8.267202,73.150002,27.860001,-48.720001,1729425835361.0,0.0
-4.981857,1.194018,7.369894,42.0,31.01,-40.670002,1729425835382.0,0.0
-5.412565,3.885944,6.216553,11.48,15.47,-1.68,1729425835399.0,0.0
-5.800202,3.125026,6.888937,-54.529999,-1.4,12.88,1729425835421.0,0.0
-7.719246,-0.789631,3.921836,-103.389999,8.68,32.27,1729425835440.0,0.0
-8.803195,-1.911865,3.936193,-79.590004,7.91,61.389999,1729425835462.0,0.0
-6.051448,-2.883351,2.98385,-81.129997,-41.509998,51.66,1729425835482.0,0.0
-3.845266,-6.929615,2.313859,-78.120003,-34.16,56.630001,1729425835501.0,0.0
-5.35753,-15.524633,5.807381,-24.57,-2.87,28.0,1729425835521.0,0.0
-7.338787,-14.120047,8.602197,55.650002,47.32,24.219999,1729425835540.0,0.0
-7.91785,-9.422935,8.889337,83.93,31.43,-16.799999,1729425835561.0,0.0
-5.867201,-5.881558,8.84148,70.769997,-16.52,-35.630001,1729425835582.0,0.0
-6.336195,-6.314659,9.334401,42.0,-16.73,-54.25,1729425835601.0,0.0
-6.98465,-3.605984,8.898908,47.32,-1.75,-64.68,1729425835621.0,0.0
-5.276174,3.323631,6.123233,37.380001,-33.810001,-53.619999,1729425835641.0,0.0
-3.019742,6.183054,5.730811,-2.31,-67.059998,-22.889999,1729425835660.0,0.0
-2.323431,3.742374,6.831509,-102.410004,-52.57,3.92,1729425835682.0,0.0
-5.826523,-0.260818,2.251646,-170.940002,31.360001,28.630001,1729425835702.0,0.0
-9.456435,-2.617748,4.362115,-99.470001,54.459999,64.959999,1729425835721.0,0.0
-7.444071,-1.107877,5.13739,-41.650002,-21.35,52.57,1729425835742.0,0.0
-3.723232,-2.112862,3.225525,-55.439999,-42.279999,49.139999,1729425835765.0,0.0
-4.498507,-13.13181,6.228518,-44.869999,-26.67,38.639999,1729425835785.0,0.0
-7.259824,-17.118254,8.839087,46.970001,30.24,8.82,1729425835801.0,0.0
-5.749953,-11.602797,9.355937,106.330002,-14.63,-23.17,1729425835820.0,0.0
-2.598605,-5.577669,8.819944,102.620003,-39.200001,-43.400002,1729425835842.0,0.0
-3.438486,-5.402994,8.549555,65.730003,-18.969999,-46.689999,1729425835860.0,0.0
-5.855237,-6.070591,8.23131,61.459999,24.08,-59.360001,1729425835884.0,0.0
-6.034698,-1.167697,6.520442,59.080002,18.48,-73.5,1729425835901.0,0.0
-5.067998,4.465007,6.070591,46.200001,-22.540001,-33.18,1729425835920.0,0.0
-3.488736,6.556334,5.757132,-42.98,-24.92,-3.78,1729425835940.0,0.0
-5.915058,1.241875,5.046463,-131.460007,4.97,22.26,1729425835960.0,0.0
-8.391629,-0.641276,2.35693,-146.649994,54.670002,34.02,1729425835982.0,0.0
-8.085347,-2.012364,3.531806,-64.959999,0.7,48.720001,1729425836002.0,0.0
-4.972286,-3.677768,3.771089,-54.18,-37.099998,40.040001,1729425836022.0,0.0
-3.287738,-9.686146,5.051248,-66.220001,-40.110001,36.189999,1729425836040.0,0.0
-4.031906,-17.513069,7.235896,-22.610001,-16.52,27.65,1729425836062.0,0.0
-5.534599,-16.59901,9.530612,65.239998,32.689999,13.09,1729425836084.0,0.0
-6.087341,-11.772687,9.817751,108.360001,32.48,-26.25,1729425836100.0,0.0
-2.486143,-2.639283,7.070791,112.559998,-18.27,-44.52,1729425836120.0,0.0
-3.184847,-2.675175,8.157133,78.190002,-12.67,-34.860001,1729425836140.0,0.0
-5.429315,-4.421937,7.932207,46.48,26.809999,-51.73,1729425836160.0,0.0
-5.936593,-0.787239,6.166305,21.35,25.690001,-57.889999,1729425836185.0,0.0
-4.900501,4.924429,5.381458,5.39,-12.04,-18.690001,1729425836201.0,0.0
-4.338188,5.525027,6.673582,-43.889999,-15.61,14.21,1729425836220.0,0.0
-6.979864,1.172483,4.639683,-117.949997,34.369999,29.049999,1729425836242.0,0.0
-8.913264,-1.464408,5.503492,-78.190002,43.959999,55.16,1729425836260.0,0.0
-6.001199,0.4666,5.010571,-43.610001,-17.360001,55.439999,1729425836287.0,0.0
-3.615555,-6.625726,6.496514,-60.200001,-40.110001,52.639999,1729425836302.0,0.0
-5.304887,-16.560726,7.635497,-54.950001,-8.54,44.099998,1729425836320.0,0.0
-6.453443,-18.778872,9.777073,16.379999,20.09,10.92,1729425836341.0,0.0
-5.563312,-13.119846,8.492127,73.57,-1.05,-18.41,1729425836362.0,0.0
-3.213561,-7.508677,7.051648,96.25,-25.969999,-45.57,1729425836382.0,0.0
-2.924029,-3.352344,6.149554,102.760002,-19.25,-39.27,1729425836400.0,0.0
-5.828916,-4.735396,6.405586,76.300003,24.360001,-42.420002,1729425836420.0,0.0
-6.9344,-3.668197,5.922236,47.950001,29.4,-69.090004,1729425836441.0,0.0
-5.706882,3.555735,7.142576,45.290001,-10.29,-44.73,1729425836467.0,0.0
-4.09412,5.079963,4.350152,-49.349998,-25.620001,-24.92,1729425836486.0,0.0
-5.525027,1.292124,4.110869,-96.809998,-5.81,14.14,1729425836500.0,0.0
-7.197611,1.677369,3.464807,-94.290001,32.759998,28.559999,1729425836521.0,0.0
-6.02752,1.770689,5.254639,-45.080002,-1.68,41.93,1729425836542.0,0.0
-4.130012,-0.636491,5.005785,-67.970001,-20.370001,52.57,1729425836561.0,0.0
-4.402793,-6.843473,5.711668,-86.379997,-6.09,65.449997,1729425836584.0,0.0
-6.029913,-15.85245,6.9679,-49.91,10.99,55.09,1729425836601.0,0.0
-7.905886,-20.135603,9.164511,19.530001,38.920002,34.580002,1729425836620.0,0.0
-8.338986,-15.57249,9.334401,75.529999,28.77,-13.23,1729425836640.0,0.0
-5.690133,-7.295716,8.592626,124.599998,-22.889999,-42.630001,1729425836660.0,0.0
-2.720639,-1.375873,6.819544,101.150002,-39.900002,-49.209999,1729425836683.0,0.0
-4.515256,-5.716454,7.252645,50.400002,-12.6,-55.16,1729425836700.0,0.0
-5.644669,-7.257431,5.771489,20.370001,15.96,-101.080002,1729425836722.0,0.0
-5.089533,1.672583,5.936593,45.709999,-1.47,-71.400002,1729425836740.0,0.0
-3.639483,8.597411,6.314659,42.98,-16.73,-18.48,1729425836762.0,0.0
-4.165904,6.106483,7.202396,-45.080002,0.42,6.72,1729425836782.0,0.0
-8.745767,1.368695,4.381258,-112.770004,57.470001,54.529999,1729425836800.0,0.0
-7.865208,0.205783,4.572684,-82.809998,12.88,47.599998,1729425836822.0,0.0
-5.54417,-2.581856,3.613162,-90.510002,-22.33,41.09,1729425836840.0,0.0
-4.268795,-8.769694,4.474578,-61.740002,-26.040001,44.73,1729425836862.0,0.0
-5.13739,-15.567703,8.288737,-1.26,1.33,51.240002,1729425836881.0,0.0
-6.491727,-19.953749,10.016356,26.040001,35.630001,4.62,1729425836902.0,0.0
-7.412964,-18.687944,9.894321,84.0,27.790001,-19.809999,1729425836921.0,0.0
-5.312066,-10.049855,8.616554,141.610001,-13.72,-44.380001,1729425836939.0,0.0
-2.225325,-1.488336,5.814559,133.770004,-42.700001,-56.349998,1729425836962.0,0.0
-2.371287,1.445265,6.415157,109.830002,-14.49,-40.599998,1729425836981.0,0.0
-5.338387,-2.086541,6.82433,43.540001,31.15,-59.990002,1729425837001.0,0.0
-6.398407,-0.043071,5.608776,-8.33,27.09,-82.599998,1729425837022.0,0.0
-6.01077,6.501299,5.730811,5.04,-14.0,-0.49,1729425837040.0,0.0
-3.993621,8.937192,6.116055,-46.970001,-31.99,24.99,1729425837060.0,0.0
-5.668597,2.76371,5.781059,-133.139999,2.17,36.959999,1729425837083.0,0.0
-8.429914,-2.07697,4.582255,-165.270004,57.049999,44.799999,1729425837100.0,0.0
-7.946564,-2.447858,4.156333,-147.559998,22.75,45.5,1729425837121.0,0.0
-4.103691,-7.372287,3.608376,-154.210007,-40.950001,49.139999,1729425837140.0,0.0
-4.759324,-16.280766,6.910471,-131.880005,-28.630001,44.170002,1729425837161.0,0.0
-5.331209,-23.210381,4.235296,-149.309998,3.78,-3.01,1729425837181.0,0.0
-5.871986,-19.580467,5.910272,24.92,0.14,11.34,1729425837200.0,0.0
-5.242674,-10.904092,7.657032,139.160004,-5.11,-27.65,1729425837221.0,0.0
-4.651647,-6.23091,6.317052,131.600006,-7.49,-46.970001,1729425837239.0,0.0
-5.067998,-1.954936,6.642475,106.540001,1.47,-42.700001,1729425837260.0,0.0
-6.975078,-0.792024,8.300702,45.849998,15.54,-51.73,1729425837284.0,0.0
-6.809973,0.653241,6.518049,-35.07,-5.04,-76.090004,1729425837300.0,0.0
-5.146961,5.362316,4.113262,-79.449997,-60.830002,-32.200001,1729425837321.0,0.0
-2.65364,7.211967,5.24746,-71.610001,-91.559998,17.99,1729425837339.0,0.0
-2.823531,2.258825,5.87438,-107.379997,-38.43,46.759998,1729425837359.0,0.0
-6.101698,-2.622534,5.546563,-144.619995,52.150002,54.670002,1729425837381.0,0.0
-9.176475,-3.421736,5.453243,-109.059998,58.170002,73.080002,1729425837399.0,0.0
-9.406186,-2.213361,6.068198,-98.559998,3.64,84.980003,1729425837420.0,0.0
-7.412964,-8.207381,5.173282,-186.059998,-34.650002,35.07,1729425837439.0,0.0
-5.773881,-10.655239,1.813759,-312.549988,-52.43,9.1,1729425837460.0,0.0
-5.735595,-12.940384,1.088734,-246.540009,-60.760002,37.029999,1729425837481.0,0.0
-5.572884,-11.85165,2.644069,-204.680008,-53.200001,13.72,1729425837501.0,0.0
-7.104291,-12.713067,3.321238,-130.059998,-32.689999,37.029999,1729425837520.0,0.0
-5.886343,-15.536596,-1.229911,-121.940002,-27.16,-34.509998,1729425837539.0,0.0
-3.268596,-15.230316,-2.242075,-96.110001,-42.490002,-61.599998,1729425837560.0,0.0
-2.15354,-11.241481,-0.765703,-31.57,-16.940001,-27.23,1729425837583.0,0.0
-2.021935,-8.776874,1.150948,-15.89,31.08,-48.02,1729425837600.0,0.0
-2.809174,-8.95155,0.758525,-46.200001,63.630001,-71.260002,1729425837622.0,0.0
-3.632305,-10.356135,-0.031107,-46.900002,63.91,-70.840004,1729425837639.0,0.0
-3.596412,-10.932807,0.710668,14.77,47.740002,-60.760002,1729425837661.0,0.0
-3.022135,-9.01137,1.493121,69.440002,45.360001,-57.330002,1729425837682.0,0.0
-3.168097,-8.030313,2.78046,100.099998,45.639999,-51.52,1729425837703.0,0.0
-3.649055,-6.357729,3.907479,84.629997,34.299999,-53.41,1729425837719.0,0.0
-4.625326,-6.896115,5.493921,82.599998,12.81,-39.549999,1729425837740.0,0.0
-3.964907,-7.460821,4.979464,45.990002,-15.61,-40.740002,1729425837759.0,0.0
-4.067799,-3.804588,7.034898,31.5,-37.52,-23.870001,1729425837783.0,0.0
-5.422136,-1.320838,0.37328,121.379997,-12.25,39.130001,1729425837801.0,0.0
-5.407779,0.942772,1.902294,54.040001,1.33,58.869999,1729425837819.0,0.0
-5.024928,-0.76331,2.510071,-80.290001,-16.799999,58.310001,1729425837838.0,0.0
-5.340781,-3.948158,5.359922,-302.959991,-10.22,45.920002,1729425837861.0,0.0
-7.144968,-9.619147,5.63749,-548.030029,-21.91,28.559999,1729425837883.0,0.0
-5.833702,-9.19801,-7.075576,-775.179993,-68.879997,-25.690001,1729425837901.0,0.0
-3.275774,-8.140383,-12.851851,-780.289978,-105.07,-48.860001,1729425837919.0,0.0
-2.455036,-5.290531,-22.09293,-589.960022,-32.830002,1.89,1729425837939.0,0.0
-3.881158,-8.815158,-9.279366,-266.559998,27.93,47.040001,1729425837959.0,0.0
-5.115855,-10.109675,-3.034099,-184.100006,8.89,22.540001,1729425837982.0,0.0
-5.936593,-12.344571,-0.112463,-72.800003,-17.5,34.439999,1729425837999.0,0.0
-6.908078,-12.117253,-1.617548,49.420002,-6.16,17.219999,1729425838019.0,0.0
-7.099504,-9.367901,-5.970093,194.809998,4.83,10.92,1729425838039.0,0.0
-6.147161,-6.963113,-10.140782,365.470001,7.98,54.950001,1729425838059.0,0.0
-6.9009,-9.647861,-12.335001,474.459991,62.93,74.550003,1729425838083.0,0.0
-7.331609,-12.839886,-4.699504,419.160004,106.260002,13.440001,1729425838099.0,0.0
-5.331209,-12.272788,-1.304088,245.210007,65.239998,-45.639999,1729425838120.0,0.0
-0.198604,-10.10489,0.993021,93.309998,-19.25,-80.080002,1729425838140.0,0.0
2.088934,-8.204988,-2.215754,124.459999,-68.32,-52.150002,1729425838160.0,0.0
1.816152,-5.429315,-2.981457,310.799988,-12.6,-18.969999,1729425838182.0,0.0
-1.258625,0.232104,-0.043071,386.540009,59.080002,9.24,1729425838199.0,0.0
-6.001199,4.139583,3.732803,356.720001,101.080002,79.239998,1729425838219.0,0.0
-9.360723,5.905487,8.549555,130.619995,55.299999,107.660004,1729425838240.0,0.0
-10.573883,1.993221,13.722836,-268.450012,-37.170002,79.309998,1729425838260.0,0.0
-8.154739,-2.880959,-4.56072,-754.73999,-94.150002,-24.43,1729425838285.0,0.0
-6.245267,-15.400207,-23.909084,-818.929993,-58.099998,-111.650002,1729425838299.0,0.0
-5.082355,-20.49692,-23.114666,-519.470032,-24.99,-62.93,1729425838319.0,0.0
-1.689333,-15.309279,-5.216353,30.59,-8.19,2.31,1729425838339.0,0.0
-2.830709,-8.391629,2.723032,184.800003,-0.14,32.130001,1729425838362.0,0.0
-4.256832,-4.752146,0.519243,276.779999,10.64,41.09,1729425838382.0,0.0
-7.41775,-3.826123,-3.754339,346.220001,26.6,75.32,1729425838400.0,0.0
-8.676375,-6.455836,-10.164711,332.98999,84.559998,82.879997,1729425838420.0,0.0
-8.295916,-11.952149,-4.115655,183.680008,76.93,14.07,1729425838440.0,0.0
-4.740182,-12.710674,-1.024128,-60.619999,25.059999,-89.879997,1729425838459.0,0.0
-1.119841,-12.837494,1.672583,-137.619995,-35.98,-72.590004,1729425838480.0,0.0
0.782453,-9.006584,1.543371,-38.080002,-43.119999,-74.690002,1729425838499.0,0.0
-0.59342,-1.674976,3.04367,58.73,-1.26,-45.639999,1729425838520.0,0.0
-3.345166,5.295317,3.823731,73.43,13.93,29.049999,1729425838540.0,0.0
-6.470192,6.202196,10.07139,-119.419998,-38.849998,95.690002,1729425838559.0,0.0
-8.860621,1.986043,2.100898,-591.5,-92.190002,54.459999,1729425838581.0,0.0
-7.84128,-10.07139,-21.145374,-862.539978,-57.610001,-80.360001,1729425838600.0,0.0
-7.767102,-19.910677,-31.006195,-657.299988,-11.62,-107.590004,1729425838619.0,0.0
-4.130012,-14.407186,-17.058434,-126.840004,20.23,-34.93,1729425838639.0,0.0
-2.122434,-5.587241,-5.65424,232.119995,-30.24,54.950001,1729425838660.0,0.0
0.112463,-3.168097,1.184447,283.5,-27.65,58.380001,1729425838682.0,0.0
-2.400001,-0.942772,-0.768096,208.949997,22.960001,23.870001,1729425838701.0,0.0
-6.678369,-4.283153,-3.395415,153.089996,44.029999,33.670002,1729425838718.0,0.0
-7.558927,-6.453443,-6.530013,100.309998,18.83,31.43,1729425838738.0,0.0
-7.020542,-10.470992,-11.997612,203.350006,34.02,42.700001,1729425838759.0,0.0
-7.420143,-13.07199,-6.939186,331.589996,92.889999,27.58,1729425838792.0,0.0
-6.041877,-10.954341,0.165105,298.549988,72.870003,-6.51,1729425838799.0,0.0
-2.754139,-9.628718,-2.086541,36.610001,-20.65,-69.650002,1729425838821.0,0.0
-0.055035,-8.958728,-1.526621,-27.719999,-48.720001,-71.82,1729425838838.0,0.0
0.665205,-7.9011,-1.217947,42.84,-20.370001,-26.74,1729425838859.0,0.0
-0.705883,-6.98465,-0.710668,162.399994,29.889999,-4.34,1729425838881.0,0.0
-3.452843,-2.108077,2.179861,121.449997,64.050003,2.03,1729425838899.0,0.0
-7.678568,2.304288,6.486942,6.37,36.959999,52.779999,1729425838920.0,0.0
-10.820344,2.06022,10.171888,-239.050003,-65.940002,64.75,1729425838939.0,0.0
-8.377272,-5.4006,-4.929214,-582.190002,-113.889999,-32.34,1729425839011.0,0.0
-5.974878,-12.459428,-19.305294,-686.280029,-75.389999,-132.580002,1729425839012.0,0.0
-5.132604,-15.751952,-25.902304,-387.869995,26.880001,-77.209999,1729425839013.0,0.0
-2.935993,-9.102298,-14.404793,50.889999,16.379999,8.47,1729425839026.0,0.0
-1.634298,-4.06062,-5.211568,179.270004,-7.21,32.759998,1729425839044.0,0.0
-1.229911,-5.460421,0.969093,192.5,16.73,11.13,1729425839059.0,0.0
-3.431308,-5.62074,0.327817,161.979996,41.16,-6.02,1729425839081.0,0.0
-5.785845,-6.628119,-0.744168,167.089996,32.200001,11.83,1729425839100.0,0.0
-5.606383,-6.63769,-1.519442,195.580002,-7.42,23.24,1729425839120.0,0.0
-5.391029,-8.645268,-9.097511,276.290009,-11.97,55.650002,1729425839138.0,0.0
-6.738188,-11.425728,-6.166305,351.540009,98.489998,46.689999,1729425839160.0,0.0
-6.405586,-11.547763,-1.380659,140.350006,80.290001,-25.549999,1729425839181.0,0.0
-3.692125,-10.013963,-2.158326,-77.209999,5.95,-54.459999,1729425839200.0,0.0
-0.677169,-9.351151,-1.828116,-140.279999,-34.860001,-49.0,1729425839220.0,0.0
0.18664,-7.74796,0.454636,-93.730003,-28.139999,-33.529999,1729425839238.0,0.0
-1.691726,-3.072384,3.907479,-56.84,10.43,-20.16,1729425839261.0,0.0
-6.094519,3.335595,6.922436,-113.610001,5.25,20.370001,1729425839285.0,0.0
-8.341379,-1.268196,5.003392,-244.580002,-65.870003,49.0,1729425839301.0,0.0
-7.757531,-8.305488,-7.121039,-550.340027,-106.470001,-61.18,1729425839318.0,0.0
-7.317252,-14.646468,-18.360128,-628.530029,-60.689999,-110.599998,1729425839339.0,0.0
-5.793024,-13.634303,-23.121843,-338.23999,15.26,-77.840004,1729425839359.0,0.0
-2.277967,-6.79083,-15.510277,69.160004,-1.47,0.14,1729425839393.0,0.0
-0.066999,-1.31366,-6.206983,236.949997,-22.4,48.860001,1729425839398.0,0.0
-0.693919,-2.955136,3.163311,237.160004,9.45,32.759998,1729425839418.0,0.0
-4.376472,-4.898108,2.275574,161.839996,44.029999,7.28,1729425839438.0,0.0
-7.085148,-4.814359,-3.833302,168.699997,32.549999,37.73,1729425839458.0,0.0
-9.126225,-8.386844,-13.148561,257.459991,53.689999,91.07,1729425839480.0,0.0
-8.566305,-10.624132,-4.783253,183.610001,77.279999,6.93,1729425839498.0,0.0
-3.507878,-9.461221,-2.663212,-36.189999,-17.639999,-71.400002,1729425839518.0,0.0
2.084148,-9.726824,-7.022934,-126.489998,-70.139999,-61.950001,1729425839539.0,0.0
3.661019,-9.793823,-5.529813,-64.470001,-54.740002,-18.9,1729425839558.0,0.0
1.083949,-8.281559,-1.404587,69.720001,51.799999,-10.36,1729425839580.0,0.0
-3.091527,-4.252046,2.29711,149.869995,98.279999,-8.19,1729425839599.0,0.0
-6.424729,1.052842,3.383451,165.199997,38.43,54.389999,1729425839618.0,0.0
-7.688138,0.849452,5.546563,107.520004,-49.84,112.0,1729425839639.0,0.0
-10.078569,-2.328217,7.501499,-209.300003,-82.32,59.360001,1729425839659.0,0.0
-10.183852,-10.473385,-8.537591,-524.929993,-76.860001,-50.330002,1729425839692.0,0.0
-8.255238,-15.845272,-20.193029,-546.0,-59.920002,-115.849998,1729425839731.0,0.0
-4.890929,-11.9689,-23.904299,-232.050003,-3.22,-58.029999,1729425839750.0,0.0
-2.569891,-8.623734,-11.353944,142.869995,-14.0,21.49,1729425839861.0,0.0
-0.820738,-4.106083,-3.445665,215.809998,-14.77,31.290001,1729425839864.0,0.0
-0.708275,-3.993621,0.277567,231.139999,9.45,24.360001,1729425839866.0,0.0
-4.881358,-3.897908,-2.445465,225.540009,32.759998,25.41,1729425839868.0,0.0
-7.551748,-4.419543,-4.182654,197.960007,43.400002,53.549999,1729425839870.0,0.0
-8.496914,-7.190433,-10.784451,247.800003,55.650002,77.0,1729425839872.0,0.0
-8.913264,-13.612768,-7.408179,262.360016,104.090004,37.029999,1729425839873.0,0.0
-6.369694,-12.473784,-1.550549,40.459999,40.599998,-71.470001,1729425839879.0,0.0
-1.969293,-11.420943,-4.476971,-124.25,-26.950001,-84.139999,1729425839898.0,0.0
1.995614,-10.822738,-6.195018,-134.820007,-70.980003,-68.809998,1729425839917.0,0.0
3.117848,-9.789038,-2.242075,-26.6,-25.129999,-48.93,1729425839936.0,0.0
0.004786,-8.01117,-0.162712,120.050003,76.93,-30.66,1729425839957.0,0.0
-4.027121,-0.87338,1.074377,157.149994,115.360001,-17.360001,1729425839980.0,0.0
-8.346166,3.103491,5.328816,165.479996,55.93,75.739998,1729425839998.0,0.0
-8.764909,3.316452,9.504292,-37.869999,-57.260002,90.93,1729425840060.0,0.0
-7.456036,-2.048256,4.481757,-460.390015,-114.590004,10.99,1729425840062.0,0.0
-6.881758,-12.332609,-11.62194,-704.970032,-104.090004,-86.519997,1729425840064.0,0.0
-6.716653,-15.598811,-28.354948,-608.789978,-58.939999,-121.449997,1729425840078.0,0.0
-4.768896,-16.122839,-22.303499,-74.269997,40.670002,-49.349998,1729425840098.0,0.0
-3.608376,-9.253045,-7.465607,312.970001,7.07,40.950001,1729425840141.0,0.0
-0.933201,-2.562713,-2.536392,327.25,4.06,46.060001,1729425840142.0,0.0
-3.768696,2.572284,1.68694,234.570007,33.459999,31.219999,1729425840161.0,0.0
-8.262416,-0.066999,-0.071785,137.339996,39.830002,44.869999,1729425840181.0,0.0
-7.84128,-2.816352,-7.858029,82.669998,9.87,42.490002,1729425840201.0,0.0
-7.238289,-11.16491,-13.71566,174.860001,60.549999,56.349998,1729425840217.0,0.0
-7.006185,-16.05584,-7.042077,107.940002,86.379997,-8.47,1729425840237.0,0.0
-4.084548,-15.51267,-5.754738,-48.580002,35.91,-60.200001,1729425840257.0,0.0
-0.526421,-12.081362,-5.63749,-93.590004,-11.83,-48.580002,1729425840281.0,0.0
1.615155,-9.695717,-0.492921,-19.25,-7.49,-44.380001,1729425840297.0,0.0
1.012164,-7.448857,0.854238,111.720001,31.15,-37.310001,1729425840319.0,0.0
-1.40698,-3.833302,0.55992,202.369995,57.540001,-25.549999,1729425840338.0,0.0
-4.488935,1.734797,1.320838,217.910004,60.200001,28.91,1729425840357.0,0.0
-7.23111,1.636691,5.206782,182.490005,7.35,91.07,1729425840382.0,0.0
-7.688138,-7.089933,1.251446,-93.940002,-51.029999,66.080002,1729425840420.0,0.0
-8.762517,-14.462219,-9.336794,-596.960022,-95.199997,-63.279999,1729425840444.0,0.0
-7.410572,-18.403198,-20.645273,-538.650024,-65.449997,-104.230003,1729425840457.0,0.0
-3.101098,-12.083755,-13.942977,-145.740005,6.93,-71.190002,1729425840483.0,0.0
-1.744368,-6.898508,-3.885944,383.25,21.0,50.68,1729425840499.0,0.0
-0.748954,-2.074577,-1.509871,367.220001,27.790001,40.32,1729425840517.0,0.0
-2.98385,1.526621,0.660419,305.829987,39.759998,45.920002,1729425840541.0,0.0
-7.666604,1.086342,1.478764,203.910004,46.34,55.439999,1729425840558.0,0.0
-8.310273,-3.069991,-8.523234,131.039993,46.34,68.529999,1729425840579.0,0.0
-6.994221,-12.701102,-9.040084,158.970001,82.25,40.670002,1729425840598.0,0.0
-5.694918,-16.649261,-3.63709,34.299999,50.470001,-22.4,1729425840618.0,0.0
-2.871387,-17.759529,-3.503092,-34.02,5.39,-43.119999,1729425840639.0,0.0
-0.59342,-14.22533,-2.158326,-32.689999,-15.4,-40.529999,1729425840683.0,0.0
-0.019143,-9.899107,1.323231,57.610001,-1.54,-49.98,1729425840686.0,0.0
-1.146162,-6.51087,1.864009,185.289993,19.950001,-36.75,1729425840706.0,0.0
-2.581856,-4.287938,1.495514,236.529999,25.41,-19.18,1729425840740.0,0.0
-3.74716,0.358923,0.856631,190.610001,19.6,12.53,1729425840742.0,0.0
-5.407779,2.679961,1.459622,168.490005,6.79,79.519997,1729425840758.0,0.0
-8.49452,-0.854238,7.482357,44.52,-8.89,100.519997,1729425840779.0,0.0
-8.999406,-8.063812,5.094319,-315.209991,-78.470001,29.610001,1729425840800.0,0.0
-8.059027,-15.46242,-6.163911,-502.040009,-111.440002,-41.650002,1729425840818.0,0.0
-8.295916,-21.798615,-16.654045,-474.25,-68.949997,-61.459999,1729425840840.0,0.0
-4.512863,-18.149559,-15.060425,-118.860001,-17.290001,-47.950001,1729425840860.0,0.0
-2.565106,-9.868,-6.300302,242.899994,7.07,19.32,1729425840882.0,0.0
-1.557728,-3.069991,-1.148555,322.070007,34.16,40.18,1729425840899.0,0.0
-2.385644,1.043271,2.555535,318.220001,43.82,52.290001,1729425840920.0,0.0
-4.783253,4.146761,2.622534,198.380005,36.400002,72.379997,1729425840939.0,0.0
-7.152147,-0.68674,-1.272982,60.41,41.720001,78.190002,1729425840959.0,0.0
-7.628319,-7.156933,-6.116055,-34.650002,70.279999,45.849998,1729425840985.0,0.0
-8.142776,-12.358929,-4.699504,-58.099998,76.580002,29.26,1729425841000.0,0.0
-6.843473,-14.658432,-1.840081,-10.01,38.150002,20.790001,1729425841019.0,0.0
-4.515256,-14.086546,-2.622534,47.670002,16.799999,20.58,1729425841040.0,0.0
-3.254239,-13.421343,-2.400001,65.940002,18.41,-1.75,1729425841059.0,0.0
-3.787838,-10.131211,1.423729,83.790001,32.34,-34.439999,1729425841081.0,0.0
-4.682754,-7.685746,2.998207,129.919998,11.76,-18.059999,1729425841100.0,0.0
-5.175675,-6.45105,3.299703,175.279999,-12.53,10.22,1729425841120.0,0.0
-4.895715,-4.366901,2.306681,150.220001,-18.690001,23.450001,1729425841141.0,0.0
-5.036892,-2.739782,2.103291,86.029999,-19.74,33.599998,1729425841163.0,0.0
-5.850451,-0.27996,1.191626,36.400002,-3.43,48.93,1729425841181.0,0.0
-8.652447,-2.696711,2.57707,61.599998,15.190001,91.840004,1729425841200.0,0.0
-11.083554,-5.022535,6.417551,-4.76,4.2,75.459999,1729425841222.0,0.0
-10.999805,-5.687739,3.110669,-190.820007,-49.490002,41.16,1729425841241.0,0.0
-11.265409,-11.916256,-3.818945,-341.459991,-67.199997,10.29,1729425841260.0,0.0
-8.913264,-14.548362,-6.592227,-465.290009,-63.84,-84.349998,1729425841284.0,0.0
-4.582255,-16.433905,-6.905686,-272.089996,-82.669998,-68.949997,1729425841299.0,0.0
-2.574677,-13.387842,-4.106083,63.490002,-29.4,-6.23,1729425841320.0,0.0
-3.232704,-6.826723,-1.478764,179.479996,39.619999,-19.460001,1729425841340.0,0.0
-5.936593,-1.708475,1.89033,174.440002,74.480003,-0.91,1729425841360.0,0.0
-7.972885,0.57667,1.328017,115.360001,31.43,27.93,1729425841383.0,0.0
-6.396015,-4.165904,-2.105684,42.630001,-12.95,20.860001,1729425841402.0,0.0
-5.737988,-10.289137,-5.656632,-23.030001,20.860001,1.33,1729425841419.0,0.0
-5.850451,-14.780465,-5.769095,-39.900002,32.619999,-18.76,1729425841440.0,0.0
-5.587241,-15.390635,-4.579862,-42.490002,45.990002,-42.560001,1729425841460.0,0.0
-5.374279,-14.572289,-0.870987,-31.360001,53.760002,-67.970001,1729425841484.0,0.0
-4.733003,-10.79163,2.069792,-41.509998,36.889999,-94.290001,1729425841501.0,0.0
-3.299703,-8.135597,3.751946,20.719999,-0.77,-70.349998,1729425841520.0,0.0
-1.538585,-6.336195,2.301895,80.709999,-31.710001,-37.450001,1729425841541.0,0.0
-0.868595,-5.010571,-0.571885,81.480003,-30.59,-16.379999,1729425841560.0,0.0
-2.287539,-2.304288,-0.990629,36.470001,4.34,4.97,1729425841582.0,0.0
-5.276174,2.739782,0.244068,39.900002,57.260002,41.509998,1729425841600.0,0.0
-10.506885,0.39003,4.802395,52.150002,49.209999,99.050003,1729425841622.0,0.0
-12.30868,-1.725225,5.331209,-144.899994,-15.61,65.029999,1729425841641.0,0.0
-10.920842,-5.601598,-0.758525,-454.019989,-101.5,-1.82,1729425841661.0,0.0
-7.13779,-8.973085,-14.545969,-683.76001,-114.800003,-87.779999,1729425841682.0,0.0
-6.611369,-16.048662,-16.031912,-515.27002,-68.18,-73.080002,1729425841700.0,0.0
-4.744967,-18.513268,-5.82413,-67.129997,1.19,-31.639999,1729425841721.0,0.0
-3.651447,-7.118648,-3.148954,247.309998,10.78,39.759998,1729425841742.0,0.0
-4.888536,-2.242075,-0.289532,268.940002,31.43,45.709999,1729425841760.0,0.0
-7.099504,0.291924,-0.782453,150.149994,21.139999,42.279999,1729425841783.0,0.0
-7.941778,-2.194218,-2.115255,29.960001,2.24,32.41,1729425841800.0,0.0
-7.178468,-6.305088,-5.35753,-21.35,8.96,11.2,1729425841820.0,0.0
-6.616155,-10.152746,-7.788638,48.299999,32.060001,11.34,1729425841839.0,0.0
-6.326623,-11.219944,-6.520442,76.860001,54.529999,14.0,1729425841860.0,0.0
-5.233103,-11.172089,-4.338188,32.549999,53.619999,-24.290001,1729425841883.0,0.0
-4.029513,-11.873186,-3.699304,-19.879999,40.389999,-46.060001,1729425841899.0,0.0
-3.26381,-13.69173,-1.969293,-16.799999,13.51,-53.130001,1729425841919.0,0.0
-2.804388,-12.222539,0.20339,29.75,2.8,-62.860001,1729425841941.0,0.0
-2.648855,-7.666604,1.785046,129.850006,-1.05,-37.450001,1729425841959.0,0.0
-3.002992,-4.388437,0.349352,209.720001,-1.4,6.51,1729425841981.0,0.0
-3.474378,-3.416951,-1.289732,194.460007,1.19,20.58,1729425842001.0,0.0
-4.555934,-3.369094,-1.383051,132.020004,16.59,38.080002,1729425842020.0,0.0
-8.135597,-3.799802,4.290331,104.580002,38.990002,75.809998,1729425842039.0,0.0
-11.358729,-6.51087,8.609376,-0.07,2.24,67.059998,1729425842061.0,0.0
-10.025927,-8.106883,-2.392823,-303.660004,-61.25,-19.110001,1729425842081.0,0.0
-6.958328,-10.150353,-11.504691,-470.75,-57.68,-75.459999,1729425842101.0,0.0
-4.479364,-13.287343,-8.520842,-256.059998,-59.849998,-56.560001,1729425842120.0,0.0
-3.086741,-10.296316,-5.809773,36.330002,-17.08,5.88,1729425842139.0,0.0
-5.180461,-6.924829,-1.899901,260.119995,50.82,33.040001,1729425842160.0,0.0
-7.829315,-3.388237,-0.579063,288.610016,71.400002,23.17,1729425842183.0,0.0
-8.439486,-1.306481,-0.777667,222.600006,23.66,42.139999,1729425842201.0,0.0
-6.551548,-1.847259,-1.459622,134.190002,-14.21,46.619999,1729425842219.0,0.0
-5.012963,-3.929015,-2.282753,47.389999,-7.21,32.900002,1729425842240.0,0.0
-5.015356,-5.843273,-3.962514,6.16,18.129999,34.369999,1729425842260.0,0.0
-5.833702,-8.413164,-5.139783,-8.54,53.060001,31.01,1729425842284.0,0.0
-5.869594,-11.499906,-5.570491,-58.310001,77.910004,-14.14,1729425842301.0,0.0
-5.419744,-12.818351,-5.271388,-129.009995,74.900002,-56.07,1729425842320.0,0.0
-4.587041,-13.316057,-3.309274,-117.459999,43.610001,-52.290001,1729425842338.0,0.0
-3.35713,-11.088341,-2.234896,-57.049999,14.49,-37.170002,1729425842361.0,0.0
-2.660819,-9.279366,-1.052842,3.71,0.7,-30.24,1729425842381.0,0.0
-3.182454,-6.927221,0.399601,19.74,-8.54,-21.35,1729425842400.0,0.0
-4.582255,-5.393422,0.705883,41.509998,5.95,8.05,1729425842419.0,0.0
-6.4678,-4.441079,0.581456,49.77,14.35,20.719999,1729425842440.0,0.0
-8.580662,-3.378666,0.591027,44.240002,11.97,31.15,1729425842460.0,0.0
-10.509278,-4.809574,2.770889,29.4,-12.53,47.529999,1729425842488.0,0.0
-11.236694,-5.84088,5.553742,-113.400002,-64.120003,15.05,1729425842499.0,0.0
-9.65504,-6.18784,-1.115055,-361.059998,-96.459999,-56.07,1729425842519.0,0.0
-7.209574,-9.882358,-11.282159,-474.600006,-72.099998,-101.989998,1729425842541.0,0.0
-4.957928,-13.134203,-12.667603,-341.179993,-51.52,-75.879997,1729425842560.0,0.0
-3.036492,-12.445071,-10.327423,-99.75,-23.1,-23.799999,1729425842583.0,0.0
-2.67039,-9.138189,-7.453642,127.82,25.690001,2.73,1729425842602.0,0.0
-3.622734,-6.211767,-4.165904,248.290009,55.09,3.5,1729425842619.0,0.0
-5.075177,-4.036692,-2.17029,245.630005,51.170002,10.71,1729425842641.0,0.0
-5.773881,-2.742175,-2.340181,173.740005,23.450001,12.39,1729425842661.0,0.0
-5.594419,-3.328416,-2.694318,83.790001,6.16,6.72,1729425842684.0,0.0
-5.345565,-5.015356,-1.055235,27.93,0.07,4.55,1729425842701.0,0.0
-5.642276,-4.953143,-0.847059,45.150002,-6.51,28.98,1729425842722.0,0.0
-6.297909,-7.420143,-4.524827,121.590004,15.26,56.209999,1729425842741.0,0.0
-6.766902,-11.124231,-5.970093,155.889999,52.290001,42.700001,1729425842761.0,0.0
-6.565905,-12.725031,-5.130211,117.739998,75.949997,-0.42,1729425842785.0,0.0
-5.608776,-14.170296,-4.625326,51.450001,57.959999,-32.27,1729425842801.0,0.0
-4.304688,-12.409179,-0.574277,-7.7,4.9,-45.150002,1729425842822.0,0.0
-3.409772,-9.403792,1.79701,19.18,-13.65,-37.099998,1729425842841.0,0.0
-3.550949,-5.706882,3.072384,71.540001,-21.0,-22.26,1729425842862.0,0.0
-4.369294,-3.285345,2.787638,110.040001,-18.83,-7.35,1729425842882.0,0.0
-5.795416,-1.725225,1.514657,113.82,-15.54,16.450001,1729425842901.0,0.0
-8.015956,-3.998406,3.445665,93.870003,-17.85,42.139999,1729425842923.0,0.0
-10.332209,-5.266603,6.029913,-63.420002,-33.389999,25.34,1729425842941.0,0.0
-11.035697,-8.032705,0.42353,-310.450012,-66.43,-35.700001,1729425842962.0,0.0
-6.570691,-12.279965,-13.294522,-503.089996,-66.080002,-111.370003,1729425842983.0,0.0
-3.445665,-14.383257,-12.057433,-227.149994,-48.720001,-51.73,1729425843002.0,0.0
-1.251446,-10.947165,-8.669197,89.389999,-7.98,15.68,1729425843022.0,0.0
-1.770689,-7.24786,-3.316452,315.140015,54.32,26.530001,1729425843042.0,0.0
-4.455436,-3.395415,1.445265,357.0,90.230003,22.540001,1729425843062.0,0.0
-7.350751,-0.902094,3.52702,313.390015,51.59,39.41,1729425843083.0,0.0
-7.709675,0.569492,1.29691,216.790009,-11.27,65.099998,1729425843102.0,0.0
-6.508478,-2.289931,-2.734996,104.440002,-6.23,69.230003,1729425843122.0,0.0
-6.089733,-6.575477,-3.998406,2.73,29.4,28.559999,1729425843142.0,0.0
-6.429514,-8.939585,-4.713861,-88.340004,50.189999,-3.43,1729425843162.0,0.0
-6.178268,-12.442677,-4.831109,-115.080002,45.009998,-18.620001,1729425843183.0,0.0
-4.969893,-16.304693,-4.409972,-139.369995,9.59,-55.720001,1729425843207.0,0.0
-3.158526,-17.240288,-2.945565,-128.729996,-28.139999,-66.989998,1729425843221.0,0.0
-1.258625,-13.28495,-2.182254,7.84,-27.790001,-36.259998,1729425843242.0,0.0
-1.923829,-8.169096,0.148355,184.029999,7.42,-7.0,1729425843264.0,0.0
-3.694518,-3.605984,2.005185,232.190002,40.110001,-0.42,1729425843287.0,0.0
-5.737988,1.012164,4.517649,176.330002,30.940001,16.870001,1729425843301.0,0.0
-7.085148,0.830309,6.848258,120.260002,-14.56,59.709999,1729425843322.0,0.0
-7.855636,-2.924029,6.02752,-140.0,-47.32,34.509998,1729425843343.0,0.0
-8.090133,-8.846266,-2.634498,-338.799988,-38.43,-29.610001,1729425843361.0,0.0
-9.88475,-17.685352,-5.383851,-350.140015,-25.76,-61.670002,1729425843387.0,0.0
-8.427521,-18.381664,-6.295516,-125.580002,-36.75,-32.060001,1729425843401.0,0.0
-4.84068,-15.043676,-4.768896,193.339996,-20.09,29.4,1729425843423.0,0.0
-2.54357,-10.325029,-1.524228,314.860016,0.21,14.7,1729425843442.0,0.0
-3.067599,-4.991428,0.818345,344.890015,40.529999,16.379999,1729425843461.0,0.0
-6.058627,-0.227318,2.553142,365.959991,72.660004,58.799999,1729425843483.0,0.0
-8.965906,1.868794,1.502693,328.579987,70.489998,96.040001,1729425843502.0,0.0
-9.671788,-0.945165,-0.739382,185.779999,65.519997,82.18,1729425843523.0,0.0
-8.865408,-4.469792,-2.359323,-6.02,68.389999,16.379999,1729425843541.0,0.0
-8.315059,-10.810772,-1.540978,-115.5,26.809999,-16.73,1729425843562.0,0.0
-5.587241,-13.021741,-2.885744,-221.619995,-25.27,-64.470001,1729425843583.0,0.0
-3.842873,-18.154345,-3.869194,-239.470001,-51.52,-73.709999,1729425843602.0,0.0
-1.823331,-19.750359,-2.108077,-167.509995,-66.220001,-86.379997,1729425843623.0,0.0
-0.9667,-14.084153,0.038285,37.099998,-49.07,-70.349998,1729425843642.0,0.0
-2.976671,-4.307081,3.424129,235.270004,-0.56,-50.889999,1729425843661.0,0.0
-5.52742,-1.064806,3.720839,231.350006,32.27,-23.24,1729425843683.0,0.0
-6.266802,-0.299103,2.462214,155.75,-10.5,-3.71,1729425843702.0,0.0
-4.725825,-0.914058,1.823331,48.16,-41.299999,1.89,1729425843721.0,0.0
-4.041477,-1.253839,2.785245,-47.459999,-20.860001,18.620001,1729425843742.0,0.0
-6.683154,-3.845266,6.209375,-149.240005,-0.63,35.630001,1729425843762.0,0.0
-8.965906,-6.661618,5.615955,-375.619995,-24.360001,-19.879999,1729425843784.0,0.0
-9.219545,-11.045268,-2.218147,-619.01001,-77.419998,-87.849998,1729425843802.0,0.0
-8.508877,-15.864414,-7.594819,-621.73999,-91.559998,-122.360001,1729425843821.0,0.0
-6.161518,-18.616161,-8.286345,-266.910004,-58.73,-66.150002,1729425843841.0,0.0
-3.63709,-12.105289,-5.556134,84.489998,-19.25,2.17,1729425843862.0,0.0
-2.689533,-7.668997,-1.478764,242.899994,33.110001,4.97,1729425843884.0,0.0
-4.058227,-4.127619,1.160519,239.75,68.809998,4.13,1729425843902.0,0.0
-6.606583,-2.17029,2.455036,170.029999,60.48,12.88,1729425843923.0,0.0
-7.032506,-2.376073,1.421337,60.34,14.77,12.95,1729425843941.0,0.0
-5.582455,-4.914857,-0.452243,-6.16,-13.3,12.39,1729425844013.0,0.0
-4.333402,-9.377472,-2.055435,31.780001,-13.65,18.620001,1729425844017.0,0.0
-3.649055,-14.199009,-4.929214,117.879997,33.529999,15.75,1729425844021.0,0.0
-3.811767,-15.582061,-5.62074,109.129997,68.459999,-17.99,1729425844027.0,0.0
-4.785645,-17.029718,-0.90688,66.360001,76.230003,-63.98,1729425844041.0,0.0
-4.814359,-14.014762,2.701497,21.07,46.41,-100.379997,1729425844061.0,0.0
-3.663411,-8.250452,4.285545,171.779999,-6.23,-57.959999,1729425844083.0,0.0
-2.115255,-2.89053,3.651447,314.51001,-40.670002,-0.07,1729425844102.0,0.0
-0.87338,1.512264,3.558127,277.829987,-39.619999,10.64,1729425844121.0,0.0
-1.710868,2.505285,1.859223,170.520004,-4.55,23.17,1729425844142.0,0.0
-4.287938,2.581856,0.555135,59.010002,51.099998,46.549999,1729425844162.0,0.0
-7.475177,0.29671,1.505085,-7.0,86.449997,69.230003,1729425844183.0,0.0
-10.655239,-3.65384,6.269196,-119.209999,53.200001,62.860001,1729425844202.0,0.0
-11.162518,-8.240881,8.386844,-277.899994,-40.599998,26.25,1729425844221.0,0.0
-8.738588,-12.669996,2.734996,-453.110016,-119.209999,-10.85,1729425844241.0,0.0
-7.252645,-20.054247,-5.761917,-520.030029,-127.190002,-59.290001,1729425844261.0,0.0
-3.677768,-23.636299,-8.729016,-298.970001,-106.959999,-88.129997,1729425844287.0,0.0
-2.419144,-15.603597,-2.706282,138.320007,-49.0,-8.61,1729425844303.0,0.0
-3.826123,-5.4006,4.615755,307.019989,17.639999,-9.45,1729425844321.0,0.0
-6.551548,-1.883151,1.26341,348.459991,75.389999,22.82,1729425844341.0,0.0
-6.4343,-5.089533,-4.206582,317.730011,59.5,43.959999,1729425844361.0,0.0
-3.270989,-5.010571,-4.249653,108.43,22.82,-13.72,1729425844384.0,0.0
-2.411965,-6.652047,-0.636491,-62.720001,34.09,-27.65,1729425844401.0,0.0
-2.847459,-10.186246,0.495314,-146.720001,62.860001,-27.02,1729425844421.0,0.0
-2.916851,-13.069597,1.418944,-128.589996,26.880001,-28.42,1729425844441.0,0.0
-2.376073,-11.148161,1.572084,-35.279999,-14.07,-5.67,1729425844462.0,0.0
-2.0004,-8.207381,1.526621,80.360001,-21.91,12.32,1729425844482.0,0.0
-2.105684,-6.9009,1.442872,105.840004,-12.18,15.26,1729425844501.0,0.0
-2.349752,-5.268995,1.820938,41.23,-3.64,9.31,1729425844529.0,0.0
-3.251846,-2.902494,3.960121,-19.25,-7.56,16.59,1729425844541.0,0.0
-6.585048,-3.914658,8.563912,-110.949997,-20.58,38.290001,1729425844563.0,0.0
-10.389636,-5.06082,6.245267,-380.170013,-31.01,-24.219999,1729425844583.0,0.0
-10.408779,-10.782058,-2.938386,-546.349976,-54.040001,-102.410004,1729425844602.0,0.0
-7.874779,-16.833508,-6.178268,-416.5,-81.269997,-87.360001,1729425844621.0,0.0
-2.723032,-10.530812,-4.304688,-143.080002,-97.650002,-21.42,1729425844642.0,0.0
-2.957529,-7.015756,-1.90708,49.560001,13.3,8.12,1729425844662.0,0.0
-5.491528,-4.766503,-1.196411,39.060001,76.019997,9.66,1729425844683.0,0.0
-7.812566,-5.383851,-1.081556,-9.31,73.919998,6.09,1729425844702.0,0.0
-7.020542,-8.26481,-2.400001,-44.099998,16.030001,-1.54,1729425844723.0,0.0
-4.220939,-8.01117,-2.342573,-39.619999,-26.950001,2.94,1729425844741.0,0.0
-2.706282,-9.576077,-2.11047,49.84,-36.119999,33.880001,1729425844762.0,0.0
-2.337788,-9.875179,-1.579263,132.930008,-8.12,33.18,1729425844783.0,0.0
-3.471986,-11.662617,-5.201996,236.669998,51.029999,42.98,1729425844804.0,0.0
-4.548756,-15.046068,-7.551748,322.910004,81.830002,43.959999,1729425844822.0,0.0
-4.37408,-14.794822,-4.419543,315.700012,78.330002,-6.23,1729425844843.0,0.0
-3.955336,-12.818351,7.386643,236.740005,59.080002,-55.650002,1729425844862.0,0.0
-3.60359,-2.132005,8.638089,-4.13,15.47,-81.620003,1729425844885.0,0.0
-4.039084,-6.91765,7.085148,16.870001,-47.670002,-35.279999,1729425844903.0,0.0
-3.85723,-4.900501,2.76371,136.639999,-68.669998,3.71,1729425844923.0,0.0
-4.335794,-1.974079,0.76331,250.320007,-3.36,41.720001,1729425844942.0,0.0
-4.627719,0.198604,2.167897,162.119995,31.01,47.32,1729425844963.0,0.0
-5.290531,-3.07717,-0.387637,60.760002,54.599998,53.760002,1729425844985.0,0.0
-5.386244,-2.165504,4.816752,-122.5,43.540001,21.210001,1729425845005.0,0.0
-7.858029,-3.311667,8.784052,-279.51001,9.8,8.26,1729425845023.0,0.0
-8.4012,-10.392029,2.971886,-395.640015,-38.150002,-18.200001,1729425845043.0,0.0
-7.89153,-15.811772,-6.74776,-433.720001,-63.209999,-31.43,1729425845063.0,0.0
-5.860023,-17.766708,-6.733403,-234.779999,-86.660004,-34.860001,1729425845085.0,0.0
-3.347559,-12.887742,-5.252246,-75.32,-58.52,-22.889999,1729425845103.0,0.0
-2.665605,-9.640682,-2.17029,3.01,-4.62,-7.84,1729425845123.0,0.0
-3.498307,-6.955935,0.287139,-0.56,30.380001,-14.07,1729425845142.0,0.0
-4.910072,-5.843273,0.741775,-59.220001,36.540001,-26.110001,1729425845163.0,0.0
-5.814559,-5.87438,-1.160519,-122.5,17.57,-32.549999,1729425845185.0,0.0
-6.204589,-7.539784,-0.600598,-101.849998,-2.8,-21.98,1729425845203.0,0.0
-6.192625,-9.06162,-0.985843,-50.540001,-12.67,-9.87,1729425845223.0,0.0
-4.65404,-11.672189,-5.438886,60.130001,-11.76,6.44,1729425845248.0,0.0
-2.409572,-11.617154,-7.066005,189.070007,5.04,28.07,1729425845262.0,0.0
-3.062813,-10.803595,-1.706082,206.220001,80.639999,6.23,1729425845287.0,0.0
-3.675375,-7.508677,1.435694,45.150002,98.349998,-57.610001,1729425845304.0,0.0
-4.149154,-10.15514,1.892723,-63.279999,38.43,-73.57,1729425845323.0,0.0
-2.476572,-11.454442,-0.028714,-20.93,-31.85,-46.27,1729425845342.0,0.0
-0.878166,-8.458629,-0.447458,80.639999,-32.130001,-10.43,1729425845363.0,0.0
-0.947558,-5.4006,-0.193819,155.539993,8.89,12.95,1729425845385.0,0.0
-2.222932,-3.046063,1.942972,125.860001,43.889999,17.57,1729425845402.0,0.0
-5.379066,-1.265803,5.321638,79.169998,49.0,32.200001,1729425845423.0,0.0
-9.183653,-5.065606,8.147561,-38.920002,-20.09,38.290001,1729425845443.0,0.0
-9.779467,-5.386244,4.146761,-320.25,-86.660004,-25.549999,1729425845463.0,0.0
-6.687939,-10.346564,-4.517649,-445.269989,-95.760002,-69.580002,1729425845487.0,0.0
-4.709075,-15.464812,-12.145968,-393.190002,-75.879997,-59.779999,1729425845503.0,0.0
-2.172683,-20.212173,-7.628319,-87.849998,-60.130001,-30.66,1729425845522.0,0.0
-1.911865,-12.394822,-4.68754,164.430008,13.16,10.36,1729425845543.0,0.0
-3.862016,-6.283553,-1.849652,264.809998,67.199997,31.219999,1729425845562.0,0.0
-6.008378,-3.795017,0.976272,241.290009,62.510002,26.389999,1729425845586.0,0.0
-6.058627,-4.570292,-0.040678,67.059998,-14.14,5.6,1729425845603.0,0.0
-5.020142,-7.700103,-0.29671,7.07,-28.84,1.61,1729425845622.0,0.0
-4.522435,-8.755339,0.148355,8.33,-27.51,-6.58,1729425845643.0,0.0
-4.414758,-8.305488,0.387637,24.57,-16.030001,-8.12,1729425845663.0,0.0
-4.584648,-7.039684,0.308674,-5.95,-8.82,-9.66,1729425845685.0,0.0
-4.773681,-7.281359,-0.665205,-46.060001,-8.82,-14.49,1729425845703.0,0.0
-4.974678,-9.128618,-1.06002,-48.439999,-7.35,-16.59,1729425845723.0,0.0
-4.311867,-10.236496,-1.57687,-22.469999,4.06,-21.77,1729425845743.0,0.0
-3.897908,-10.34178,-1.794617,13.09,13.93,-19.25,1729425845763.0,0.0
-4.022335,-10.820344,-1.674976,41.580002,22.049999,-20.860001,1729425845785.0,0.0
-3.852444,-12.16511,-0.038285,75.110001,27.719999,-20.23,1729425845802.0,0.0
-2.888137,-11.212767,1.586441,105.07,30.799999,-9.45,1729425845823.0,0.0
-1.887937,-9.741181,1.655833,120.260002,33.040001,3.01,1729425845843.0,0.0
-1.284946,-9.600004,1.758725,123.760002,25.059999,4.69,1729425845863.0,0.0
-1.268196,-11.373087,1.844866,128.729996,22.540001,-3.71,1729425845885.0,0.0
-1.794617,-12.239288,1.708475,156.309998,29.33,-4.97,1729425845904.0,0.0
-2.065006,-10.24846,2.206182,214.270004,47.670002,-0.49,1729425845923.0,0.0
-3.141776,-7.070791,3.823731,226.589996,75.459999,1.33,1729425845941.0,0.0
-4.199404,-5.264209,4.130012,178.220001,79.940002,-2.38,1729425845963.0,0.0
-4.699504,-4.615755,4.639683,105.699997,58.380001,3.01,1729425845985.0,0.0
-4.929214,-4.656433,4.460221,43.889999,21.77,16.52,1729425846004.0,0.0
-4.740182,-4.651647,3.713661,17.57,-5.95,31.639999,1729425846022.0,0.0
-4.675575,-5.883951,4.034299,-11.41,-19.32,34.580002,1729425846043.0,0.0
-4.646862,-7.879565,4.307081,-84.980003,-28.42,5.88,1729425846063.0,0.0
-5.058427,-9.772287,5.347959,-154.910004,-42.91,-15.190001,1729425846085.0,0.0
-4.577469,-11.55494,3.493521,-165.759995,-44.310001,-20.23,1729425846105.0,0.0
-3.54377,-11.676974,2.59382,-115.989998,-45.920002,-7.07,1729425846122.0,0.0
-2.751746,-9.683753,1.698904,-22.75,-35.560001,17.360001,1729425846142.0,0.0
-2.998207,-8.145168,0.753739,54.810001,-6.86,39.060001,1729425846162.0,0.0
-3.969693,-7.496714,1.272982,81.900002,20.09,32.200001,1729425846184.0,0.0
-5.297709,-7.886744,1.899901,82.599998,40.950001,19.25,1729425846203.0,0.0
-6.106483,-7.066005,2.440679,106.82,50.400002,25.27,1729425846224.0,0.0
-6.242875,-5.931807,3.04367,134.190002,51.310001,39.619999,1729425846242.0,0.0
-6.305088,-3.582055,4.584648,72.099998,52.5,23.66,1729425846263.0,0.0
-7.092326,-4.587041,5.142176,-78.959999,32.549999,1.54,1729425846287.0,0.0
-6.484549,-6.326623,4.237689,-120.68,18.200001,-3.15,1729425846303.0,0.0
-5.120641,-5.553742,1.883151,-131.389999,9.66,4.34,1729425846323.0,0.0
-3.964907,-4.651647,0.454636,-137.830002,10.43,9.59,1729425846343.0,0.0
-3.854837,-5.185246,-0.696311,-151.619995,18.969999,10.36,1729425846362.0,0.0
-4.354938,-8.377272,-1.849652,-138.669998,27.02,4.83,1729425846383.0,0.0
-5.24746,-12.06222,-1.90708,-85.260002,19.32,-3.64,1729425846402.0,0.0
-6.252446,-15.263817,-1.722832,14.0,17.85,-0.14,1729425846422.0,0.0
-6.458229,-12.447463,-1.014557,126.07,2.59,18.76,1729425846442.0,0.0
-5.962914,-8.772088,0.940379,202.160004,-18.690001,20.65,1729425846463.0,0.0
-4.989035,-6.786045,1.172483,203.210007,-28.35,3.64,1729425846484.0,0.0
-4.232903,-7.956135,2.397608,207.410004,-39.759998,17.710001,1729425846503.0,0.0
-4.232903,-9.619147,6.216553,206.360001,-102.269997,32.060001,1729425846522.0,0.0
-3.141776,-7.037291,6.575477,242.970001,-130.059998,-0.98,1729425846542.0,0.0
-3.328416,-5.168497,7.183254,267.119995,-34.299999,8.26,1729425846571.0,0.0
-8.303094,-0.859023,8.159525,209.509995,60.619999,24.710001,1729425846588.0,0.0
-10.729417,1.718047,8.836694,43.959999,56.07,22.960001,1729425846603.0,0.0
-8.446664,-1.232304,8.870193,-103.739998,20.719999,-1.12,1729425846624.0,0.0
-5.54417,-5.649454,7.094719,-226.800003,19.6,-40.740002,1729425846642.0,0.0
-4.036692,-7.034898,4.867002,-251.649994,28.559999,-32.200001,1729425846663.0,0.0
-2.806781,-6.283553,3.426522,-226.029999,30.380001,-23.450001,1729425846685.0,0.0
-1.447658,-4.833502,2.129612,-231.210007,39.549999,-39.27,1729425846703.0,0.0
-2.388037,-5.910272,2.033899,-263.899994,37.450001,-24.710001,1729425846722.0,0.0
-5.405386,-7.726424,1.095913,-274.959991,46.48,3.85,1729425846743.0,0.0
-8.556733,-8.678767,0.564706,-210.559998,83.370003,31.5,1729425846762.0,0.0
-9.497113,-6.539584,-0.495314,-139.509995,52.43,27.23,1729425846785.0,0.0
-8.709875,-7.092326,-3.39063,-109.199997,0.7,12.88,1729425846803.0,0.0
-7.178468,-12.296716,-6.058627,-75.949997,-13.72,-33.459999,1729425846823.0,0.0
-5.589634,-15.878771,-6.314659,31.219999,-42.700001,-54.740002,1729425846843.0,0.0
-3.476771,-13.146168,-4.663611,147.630005,-70.0,-52.290001,1729425846864.0,0.0
-3.081956,-9.365508,-1.249053,250.669998,-59.290001,-26.880001,1729425846885.0,0.0
-3.907479,-7.168896,4.862216,327.179993,-24.85,30.73,1729425846904.0,0.0
-5.443672,-6.372087,9.253045,301.279999,-58.59,41.720001,1729425846924.0,0.0
-4.31426,-3.555735,8.475377,241.360001,-110.32,-1.05,1729425846944.0,0.0
-2.87378,-3.23031,7.381857,198.869995,-94.57,6.37,1729425846964.0,0.0
-3.242275,-2.861816,6.290731,118.720001,-9.87,7.21,1729425846987.0,0.0
-5.98445,-1.148555,6.357729,6.3,60.830002,2.03,1729425847004.0,0.0
-8.4347,-1.495514,6.60419,-90.720001,72.660004,7.56,1729425847024.0,0.0
-8.01117,-4.711468,7.762317,-180.949997,63.84,-25.620001,1729425847046.0,0.0
-6.34098,-4.555934,5.441278,-265.230011,71.050003,-45.57,1729425847064.0,0.0
-5.000999,-3.270989,3.364309,-300.720001,67.620003,-38.709999,1729425847086.0,0.0
-2.931208,-6.415157,-0.949951,-289.029999,34.720001,-50.82,1729425847105.0,0.0
-1.828116,-8.997013,-1.74676,-305.690002,-14.21,-49.0,1729425847124.0,0.0
-2.464607,-12.445071,-3.574877,-258.369995,-3.78,-6.09,1729425847144.0,0.0
-4.23051,-13.373486,-1.153341,-121.309998,73.150002,10.64,1729425847165.0,0.0
-7.755138,-8.149954,-1.574477,-16.870001,77.980003,38.849998,1729425847186.0,0.0
-7.776673,-7.453642,-3.680161,81.690002,32.060001,31.710001,1729425847204.0,0.0
-6.606583,-7.826923,-4.398008,111.230003,-1.82,-2.66,1729425847226.0,0.0
-5.266603,-9.016156,-3.591627,117.599998,-32.34,-14.77,1729425847244.0,0.0
-4.4674,-9.805787,-1.306481,136.850006,-37.66,-17.360001,1729425847264.0,0.0
-4.627719,-11.203196,3.014957,193.270004,-31.92,12.53,1729425847294.0,0.0
-4.924429,-9.485149,6.096912,217.979996,-29.540001,35.0,1729425847304.0,0.0
-5.221139,-8.817552,9.652647,149.100006,-66.360001,26.530001,1729425847324.0,0.0
-3.177669,-8.13799,6.477371,107.800003,-147.0,-17.710001,1729425847344.0,0.0
-1.598405,-8.202596,3.570091,174.160004,-147.559998,7.0,1729425847364.0,0.0
-2.086541,-6.345766,3.515057,227.080002,-42.560001,14.0,1729425847388.0,0.0
-4.522435,-2.883351,4.622933,178.149994,41.860001,-10.57,1729425847405.0,0.0
-8.248059,-0.282353,5.173282,107.239998,57.82,13.3,1729425847425.0,0.0
-9.939785,-1.706082,7.999206,31.360001,36.330002,20.440001,1729425847443.0,0.0
-8.142776,-4.419543,10.403993,-121.309998,25.620001,-8.33,1729425847464.0,0.0
-6.233303,-6.659225,7.54457,-253.399994,52.920002,-34.09,1729425847486.0,0.0
-4.572684,-5.737988,1.545763,-313.110016,76.93,-35.349998,1729425847504.0,0.0
-2.24686,-5.4676,-0.011964,-304.290009,47.810001,-42.700001,1729425847524.0,0.0
-1.926222,-8.212167,-1.253839,-251.860001,-10.29,-35.139999,1729425847544.0,0.0
-3.876373,-12.126825,-0.988236,-190.190002,19.74,-6.44,1729425847563.0,0.0
-6.606583,-11.765509,-0.01675,-72.239998,68.669998,15.61,1729425847586.0,0.0
-7.862815,-8.463413,-0.61017,39.41,58.240002,47.529999,1729425847604.0,0.0
-7.649854,-7.063612,-1.663012,64.540001,18.549999,33.810001,1729425847624.0,0.0
-7.173682,-9.064013,-1.904687,71.330002,-8.05,-5.46,1729425847645.0,0.0
-6.168696,-11.140982,-2.545963,113.260002,-30.309999,-18.059999,1729425847664.0,0.0
-5.103891,-9.765109,-1.397408,163.729996,-47.950001,-22.82,1729425847685.0,0.0
-4.481757,-7.951349,1.926222,223.790009,-47.529999,-7.0,1729425847704.0,0.0
-4.431508,-7.396214,4.180261,255.779999,-38.990002,17.5,1729425847723.0,0.0
-4.431508,-8.209774,6.635297,217.839996,-59.5,22.960001,1729425847743.0,0.0
-3.625126,-6.762117,5.819345,181.020004,-101.709999,6.65,1729425847765.0,0.0
-2.557927,-5.702096,4.924429,216.440002,-89.599998,0.7,1729425847786.0,0.0
-3.414558,-2.837888,4.366901,206.570007,6.02,8.96,1729425847804.0,0.0
-6.199803,-0.0335,5.335995,144.830002,69.440002,21.91,1729425847824.0,0.0
-8.415558,0.299103,7.539784,49.0,62.23,10.22,1729425847843.0,0.0
-6.79083,-4.421937,9.236296,-133.630005,31.5,-6.86,1729425847864.0,0.0
-4.948357,-6.845865,7.532606,-213.710007,28.77,-13.93,1729425847886.0,0.0
-3.055635,-7.537392,4.570292,-271.73999,32.130001,-31.290001,1729425847904.0,0.0
-1.744368,-6.001199,2.555535,-293.440002,18.48,-47.040001,1729425847924.0,0.0
-2.926422,-8.281559,2.385644,-245.350006,18.48,-34.439999,1729425847943.0,0.0
-5.15414,-11.868401,-0.026321,-203.419998,74.550003,-15.33,1729425847963.0,0.0
-8.173882,-11.688939,0.236889,-70.349998,97.860001,6.02,1729425847987.0,0.0
-9.32483,-6.592227,-1.337588,61.599998,54.880001,53.34,1729425848004.0,0.0
-7.21436,-5.206782,-0.145962,131.949997,3.78,39.900002,1729425848023.0,0.0
-5.958128,-5.075177,-0.090927,93.660004,-18.620001,6.72,1729425848044.0,0.0
-6.084948,-8.023134,-0.153141,45.57,-22.120001,-22.120001,1729425848064.0,0.0
-5.907879,-9.200402,1.210768,54.32,-37.240002,-24.99,1729425848086.0,0.0
-5.517848,-9.796216,3.079563,126.699997,-51.799999,9.17,1729425848104.0,0.0
-4.98425,-7.664211,5.441278,145.669998,-63.490002,22.049999,1729425848125.0,0.0
-4.675575,-8.963513,7.314859,100.099998,-80.220001,15.26,1729425848143.0,0.0
-3.376273,-9.875179,6.769295,44.240002,-107.870003,-11.55,1729425848163.0,0.0
-2.251646,-9.126225,5.465207,73.080002,-111.790001,-14.77,1729425848186.0,0.0
-2.76371,-5.503492,5.625526,137.830002,-8.61,-10.71,1729425848204.0,0.0
-4.919643,-0.976272,4.807181,98.840004,43.330002,-9.45,1729425848223.0,0.0
-8.001599,1.399801,5.716454,65.660004,58.240002,17.360001,1729425848244.0,0.0
-9.200402,-1.435694,8.750552,0.35,34.509998,15.61,1729425848263.0,0.0
-7.068398,-5.570491,9.731609,-125.650002,11.62,-26.32,1729425848288.0,0.0
-5.388636,-8.666803,8.626125,-188.229996,29.540001,-26.25,1729425848304.0,0.0
-3.728018,-8.573483,4.977071,-229.389999,53.130001,-18.969999,1729425848324.0,0.0
-2.127219,-6.352944,2.675175,-253.330002,31.99,-46.900002,1729425848343.0,0.0
-2.055435,-7.432107,2.242075,-187.320007,0.77,-49.91,1729425848364.0,0.0
-3.548556,-12.141183,-0.387637,-99.260002,29.540001,-7.21,1729425848387.0,0.0
-5.350351,-10.939985,0.4666,17.85,79.590004,20.02,1729425848403.0,0.0
-7.439285,-6.817152,1.677369,129.850006,80.709999,58.310001,1729425848424.0,0.0
-8.047063,-4.888536,2.079363,124.18,42.139999,55.720001,1729425848445.0,0.0
-7.556533,-4.199404,1.718047,59.360001,8.19,26.460001,1729425848463.0,0.0
-7.365108,-4.811966,1.416551,18.129999,-16.66,6.3,1729425848486.0,0.0
-6.149554,-6.874579,-0.526421,10.99,-34.16,-20.51,1729425848503.0,0.0
-4.546363,-9.162118,0.42353,22.75,-54.389999,-31.99,1729425848523.0,0.0
-4.45065,-11.581261,2.026721,99.75,-57.189999,-22.68,1729425848543.0,0.0
-4.063013,-8.786445,3.694518,154.770004,-54.110001,-0.7,1729425848564.0,0.0
-4.125226,-7.594819,5.766702,178.220001,-66.639999,29.610001,1729425848585.0,0.0
-3.029313,-7.202396,6.463014,138.740005,-80.080002,-3.29,1729425848604.0,0.0
-2.057827,-5.142176,4.488935,136.850006,-62.369999,-28.700001,1729425848623.0,0.0
-4.048656,-2.275574,5.962914,181.789993,14.84,15.190001,1729425848643.0,0.0
-6.345766,1.701297,8.516055,130.410004,67.059998,0.56,1729425848663.0,0.0
-7.793423,0.038285,10.971091,22.75,51.73,5.74,1729425848685.0,0.0
-5.539384,-5.362316,10.296316,-125.020004,42.209999,-7.42,1729425848703.0,0.0
-5.034499,-7.982457,8.327023,-178.149994,85.959999,-18.48,1729425848725.0,0.0
-5.745167,-7.759924,6.683154,-180.320007,117.669998,-1.61,1729425848743.0,0.0
-4.73061,-7.295716,5.268995,-165.410004,93.730003,-17.639999,1729425848763.0,0.0
-3.771089,-5.515456,4.292724,-168.979996,56.700001,-25.690001,1729425848785.0,0.0
-4.63729,-6.168696,4.666004,-153.649994,41.650002,-19.25,1729425848803.0,0.0
-6.058627,-9.01137,1.591227,-144.690002,42.420002,-17.85,1729425848823.0,0.0
-7.965706,-9.796216,-0.184247,-106.120003,44.73,-4.62,1729425848844.0,0.0
-8.79123,-6.742974,-1.85683,-31.360001,40.740002,24.57,1729425848864.0,0.0
-7.386643,-9.075976,-3.562913,64.470001,-2.45,34.509998,1729425848885.0,0.0
-5.484349,-9.032906,-3.646662,137.339996,-38.220001,13.58,1729425848903.0,0.0
-5.235496,-6.716653,-0.61017,224.419998,-42.139999,-8.26,1729425848923.0,0.0
-5.489135,-3.426522,2.957529,286.720001,-27.16,5.74,1729425848942.0,0.0
-6.82433,-2.031506,5.582455,290.360016,-7.91,58.939999,1729425849009.0,0.0
-7.908278,-3.806981,11.91147,173.809998,-51.450001,56.139999,1729425849012.0,0.0
-4.778467,-3.909872,12.078968,38.709999,-149.660004,-21.139999,1729425849013.0,0.0
-0.689133,-7.343572,7.482357,12.81,-178.149994,-22.889999,1729425849038.0,0.0
0.028714,-10.047462,4.926822,27.440001,-75.739998,11.2,1729425849043.0,0.0
-2.672783,-4.26401,4.663611,54.18,34.720001,2.94,1729425849064.0,0.0
-7.032506,-0.311067,5.69731,59.150002,73.57,3.43,1729425849088.0,0.0
-10.547562,-0.133998,6.829116,11.83,40.880001,5.74,1729425849103.0,0.0
-8.547162,-2.787638,9.592826,-36.400002,-20.16,5.39,1729425849124.0,0.0
-5.632704,-5.816952,10.121639,-122.919998,-4.13,-12.46,1729425849145.0,0.0
-4.828716,-5.699703,6.78126,-198.169998,52.990002,-24.08,1729425849163.0,0.0
-4.756931,-5.051248,5.271388,-216.649994,83.93,-17.780001,1729425849185.0,0.0
-4.622933,-5.761917,2.648855,-226.380005,72.379997,-31.360001,1729425849204.0,0.0
-4.24726,-9.351151,0.844666,-172.410004,35.77,-30.940001,1729425849223.0,0.0
-4.072584,-9.279366,1.098306,-129.850006,24.15,-21.700001,1729425849243.0,0.0
-5.288138,-7.826923,1.981257,-101.010002,38.990002,7.28,1729425849264.0,0.0
-7.635497,-7.458428,2.713461,-88.129997,50.259998,31.639999,1729425849287.0,0.0
-9.21476,-6.805188,2.464607,-71.82,30.030001,31.639999,1729425849304.0,0.0
-8.705089,-5.766702,0.823131,-41.650002,-4.9,35.630001,1729425849324.0,0.0
-6.929615,-5.659025,-0.349352,-12.04,-29.610001,12.95,1729425849343.0,0.0
-5.541777,-6.474977,-1.071985,-1.89,-37.170002,-26.25,1729425849363.0,0.0
-5.484349,-8.482556,-0.878166,22.610001,-32.900002,-48.860001,1729425849390.0,0.0
-5.300103,-10.600205,1.562513,89.32,-36.75,-45.990002,1729425849404.0,0.0
-5.046463,-9.717253,3.845266,140.490005,-38.920002,-18.27,1729425849423.0,0.0
-4.402793,-8.30788,5.915058,143.220001,-53.619999,15.33,1729425849443.0,0.0
-3.48395,-10.214959,7.001399,138.949997,-89.25,17.639999,1729425849463.0,0.0
-2.222932,-8.848659,3.893122,141.330002,-111.510002,1.26,1729425849486.0,0.0
-2.517249,-6.257231,3.225525,192.639999,-53.060001,20.51,1729425849504.0,0.0
-4.326223,-2.931208,3.876373,174.229996,30.870001,20.440001,1729425849524.0,0.0
-8.843873,0.12682,6.616155,70.349998,45.990002,10.99,1729425849544.0,0.0
-9.310472,-1.507478,7.657032,-0.7,18.34,15.190001,1729425849563.0,0.0
-6.76451,-4.460221,7.456036,-101.150002,4.41,-1.47,1729425849585.0,0.0
-4.993821,-6.21416,5.187639,-165.899994,25.620001,-17.639999,1729425849603.0,0.0
-4.505685,-5.991628,3.330809,-179.339996,63.279999,-10.5,1729425849623.0,0.0
-4.855037,-6.142376,3.424129,-159.110001,79.029999,-4.13,1729425849649.0,0.0
-4.883751,-7.396214,3.172883,-154.910004,80.989998,-13.23,1729425849665.0,0.0
-4.728218,-7.408179,4.063013,-169.889999,75.739998,-17.639999,1729425849690.0,0.0
-5.448457,-7.319644,3.562913,-165.899994,60.34,-15.75,1729425849747.0,0.0
-6.716653,-8.135597,2.70389,-148.610001,42.560001,-12.11,1729425849749.0,0.0
-7.965706,-9.793823,1.277767,-105.07,28.49,3.92,1729425849751.0,0.0
-7.9681,-9.717253,0.354138,-42.139999,14.56,16.870001,1729425849762.0,0.0
-7.030113,-8.685946,0.418744,10.01,1.26,16.799999,1729425849786.0,0.0
-6.632904,-8.090133,1.100698,29.26,1.26,13.86,1729425849804.0,0.0
-7.362715,-7.523034,2.354537,30.030001,7.84,10.08,1729425849828.0,0.0
-8.116454,-6.329016,2.605784,32.41,0.77,8.89,1729425849842.0,0.0
-7.465607,-6.070591,0.837488,42.560001,-17.780001,-8.82,1729425849862.0,0.0
-5.721239,-8.623734,0.459422,43.470001,-48.720001,-43.049999,1729425849883.0,0.0
-4.476971,-11.038091,2.026721,53.549999,-72.239998,-43.82,1729425849902.0,0.0
-3.421736,-13.045669,3.163311,98.699997,-95.340004,-25.200001,1729425849922.0,0.0
-2.87378,-12.734602,3.582055,186.550003,-93.449997,7.98,1729425849941.0,0.0
-3.668197,-8.618947,3.342773,298.619995,-42.349998,31.85,1729425849963.0,0.0
-5.623133,-3.412165,3.519842,331.940002,23.309999,30.799999,1729425849983.0,0.0
-8.204988,-0.107677,5.139783,257.950012,52.43,26.809999,1729425850002.0,0.0
-9.229117,1.454836,5.723632,134.889999,26.809999,1.68,1729425850021.0,0.0
-7.250252,-0.894916,6.573084,5.53,-33.040001,-8.12,1729425850042.0,0.0
-5.036892,-3.347559,5.871986,-102.690002,-52.43,-8.82,1729425850062.0,0.0
-4.400401,-5.694918,5.335995,-134.610001,-23.1,-10.99,1729425850083.0,0.0
-4.299902,-6.632904,3.237489,-137.270004,21.35,-11.48,1729425850102.0,0.0
-4.354938,-7.972885,3.192025,-127.050003,38.639999,-16.24,1729425850121.0,0.0
-4.668397,-7.76471,5.04407,-127.470001,32.060001,-32.41,1729425850141.0,0.0
-5.570491,-7.877172,6.228518,-126.980003,30.030001,-42.700001,1729425850162.0,0.0
-7.202396,-8.803195,6.080163,-107.590004,33.740002,-32.830002,1729425850184.0,0.0
-7.130611,-6.943972,2.928815,-82.809998,27.860001,-24.5,1729425850202.0,0.0
-6.18784,-5.285746,2.605784,-50.119999,-1.54,-4.97,1729425850222.0,0.0
-5.556134,-4.582255,2.835495,-49.700001,-13.02,4.97,1729425850243.0,0.0
-5.915058,-5.146961,2.28036,-59.43,-7.98,10.85,1729425850263.0,0.0
-6.513263,-7.264609,1.442872,-46.41,-5.88,-3.92,1729425850288.0,0.0
-6.242875,-8.513663,2.667997,-18.549999,-29.75,-27.51,1729425850303.0,0.0
-5.335995,-10.016356,3.735196,18.620001,-57.75,-24.710001,1729425850322.0,0.0
-4.412365,-11.289338,4.639683,46.689999,-74.900002,-8.61,1729425850344.0,0.0
-3.615555,-13.03849,4.536791,92.75,-74.900002,3.01,1729425850363.0,0.0
-3.431308,-6.774081,3.160919,170.520004,-65.169998,13.23,1729425850413.0,0.0
-5.020142,-3.019742,2.9336,250.040009,-17.57,30.17,1729425850422.0,0.0
-7.006185,-0.926022,5.012963,260.540009,41.09,38.639999,1729425850443.0,0.0
-8.343772,-0.0335,5.728417,199.639999,63.77,31.710001,1729425850463.0,0.0
-7.692925,-1.715654,5.424529,7.63,13.440001,0.84,1729425850485.0,0.0
-6.049056,-3.426522,4.240082,-70.769997,1.82,-5.81,1729425850503.0,0.0
-4.895715,-4.82393,3.326023,-100.379997,6.72,-10.15,1729425850522.0,0.0
-3.854837,-6.831509,1.753939,-105.910004,24.219999,-11.27,1729425850542.0,0.0
-3.586841,-6.501299,2.658426,-131.740005,46.060001,-16.73,1729425850563.0,0.0
-4.26401,-6.570691,4.067799,-170.029999,48.860001,-30.1,1729425850584.0,0.0
-5.515456,-7.953743,4.512863,-189.559998,51.869999,-32.619999,1729425850603.0,0.0
-6.888937,-9.332008,4.302295,-160.440002,44.59,-12.95,1729425850623.0,0.0
-7.788638,-8.896514,3.275774,-102.129997,26.530001,5.53,1729425850642.0,0.0
-7.575676,-6.908078,1.79701,-29.960001,5.11,19.6,1729425850662.0,0.0
-7.094719,-5.292924,1.787439,12.04,-8.33,20.719999,1729425850685.0,0.0
-7.379465,-5.570491,3.326023,8.33,-7.63,8.75,1729425850702.0,0.0
-7.757531,-7.176075,3.957729,-42.98,-3.36,-5.6,1729425850722.0,0.0
-7.886744,-9.77468,3.783052,-87.290001,-17.01,-20.02,1729425850742.0,0.0
-6.76451,-13.24188,4.886144,-110.459999,-55.510002,-39.689999,1729425850762.0,0.0
-4.409972,-15.897913,4.945964,-62.580002,-111.580002,-38.5,1729425850785.0,0.0
-2.134398,-12.849458,2.935993,69.300003,-125.020004,-14.98,1729425850802.0,0.0
-1.90708,-7.202396,1.67019,215.460007,-49.630001,11.62,1729425850822.0,0.0
-4.089334,-2.947958,1.931008,269.779999,38.639999,23.52,1729425850842.0,0.0
-7.556533,-0.830309,3.570091,233.520004,87.849998,16.52,1729425850862.0,0.0
-9.77468,-1.469193,3.833302,62.02,74.340004,2.03,1729425850887.0,0.0
-6.831509,-3.524628,3.960121,-64.959999,-14.56,-13.16,1729425850902.0,0.0
-4.216154,-5.47717,2.892922,-136.639999,-26.25,-22.33,1729425850921.0,0.0
-3.022135,-7.008578,1.375873,-161.279999,-4.9,-12.53,1729425850941.0,0.0
-3.180061,-9.284152,1.342373,-141.820007,21.0,-6.16,1729425850961.0,0.0
-4.082155,-10.571491,2.072184,-119.770004,42.139999,-14.77,1729425850984.0,0.0
-5.386244,-11.253445,3.115455,-86.519997,47.950001,-17.710001,1729425851003.0,0.0
-6.826723,-9.229117,4.220939,-24.219999,35.420002,-2.66,1729425851023.0,0.0
-7.496714,-6.312266,4.421937,34.650002,12.88,12.88,1729425851041.0,0.0
-7.668997,-4.68754,4.144369,26.6,-9.73,11.55,1729425851068.0,0.0
-7.200003,-5.453243,3.773481,-22.68,-27.23,-1.26,1729425851083.0,0.0
-6.644868,-7.307681,3.232704,-72.449997,-32.970001,-15.82,1729425851105.0,0.0
-6.757331,-8.482556,2.998207,-79.590004,-30.24,-17.01,1729425851122.0,0.0
-7.300502,-9.719646,3.852444,-55.299999,-31.08,-17.15,1729425851143.0,0.0
-7.001399,-11.526227,6.058627,-51.450001,-52.080002,-33.389999,1729425851162.0,0.0
-5.139783,-12.311072,6.022735,-43.959999,-82.879997,-47.880001,1729425851184.0,0.0
-1.885544,-10.533205,1.751546,28.210001,-92.470001,-17.360001,1729425851203.0,0.0
-1.792224,-7.432107,0.646062,175.770004,-35.630001,4.83,1729425851222.0,0.0
-3.507878,-4.232903,0.835095,212.940002,22.4,8.68,1729425851243.0,0.0
-6.290731,-2.979064,2.222932,206.5,59.639999,10.29,1729425851263.0,0.0
-8.334201,-2.522035,2.938386,154.0,56.630001,12.39,1729425851286.0,0.0
-7.965706,-2.9336,3.364309,70.419998,28.49,5.46,1729425851303.0,0.0
-6.008378,-4.158726,3.058028,-24.01,10.71,-7.14,1729425851323.0,0.0
-4.864608,-5.766702,2.055435,-90.790001,16.59,-7.7,1729425851342.0,0.0
-4.302295,-7.269395,0.973879,-124.18,32.619999,-8.54,1729425851363.0,0.0
-3.897908,-9.190832,1.002593,-122.709999,35.349998,-10.5,1729425851386.0,0.0
-3.74716,-9.934999,3.323631,-121.309998,27.860001,-15.96,1729425851403.0,0.0
-4.773681,-10.691131,4.955536,-121.379997,17.08,-19.6,1729425851423.0,0.0
-5.922236,-10.317852,4.448257,-114.800003,12.04,-23.870001,1729425851443.0,0.0
-6.85783,-9.339187,3.993621,-62.299999,2.1,-14.7,1729425851463.0,0.0
-6.642475,-5.364708,3.847659,3.64,-13.51,-2.1,1729425851486.0,0.0
-6.106483,-4.455436,3.921836,-9.1,-20.02,5.95,1729425851504.0,0.0
-5.331209,-5.864808,3.737589,-68.529999,-19.809999,-3.64,1729425851524.0,0.0
-5.481956,-8.827123,3.625126,-113.75,-17.92,-13.440001,1729425851546.0,0.0
-6.355337,-12.433105,4.596612,-97.93,-23.66,-19.530001,1729425851564.0,0.0
-5.948557,-13.323236,5.816952,-42.209999,-47.670002,-22.190001,1729425851587.0,0.0
-4.342973,-12.112469,6.168696,49.700001,-74.620003,-11.62,1729425851604.0,0.0
-3.062813,-10.073784,4.441079,129.850006,-72.309998,-3.5,1729425851624.0,0.0
-2.921637,-7.972885,3.385844,170.800003,-47.459999,-3.92,1729425851644.0,0.0
-3.632305,-6.398407,2.644069,175.630005,-20.370001,-7.14,1729425851664.0,0.0
-4.795217,-5.350351,1.395016,179.410004,5.67,1.61,1729425851685.0,0.0
-6.288338,-4.39083,0.727418,187.25,28.35,15.26,1729425851704.0,0.0
-7.405786,-3.455236,1.842474,154.0,40.529999,11.76,1729425851724.0,0.0
-7.444071,-3.586841,3.708875,64.889999,33.670002,1.96,1729425851744.0,0.0
-6.101698,-5.199604,4.240082,-27.02,16.940001,-8.54,1729425851763.0,0.0
-4.73061,-7.077969,2.845066,-76.370003,13.3,-3.08,1729425851790.0,0.0
-3.129812,-8.480164,0.399601,-87.150002,19.460001,13.09,1729425851803.0,0.0
-2.065006,-7.771888,0.660419,-84.769997,17.01,7.56,1729425851825.0,0.0
-2.194218,-6.836295,2.995814,-95.620003,34.09,2.73,1729425851843.0,0.0
-4.500899,-6.15434,5.855237,-148.330002,61.18,-0.35,1729425851864.0,0.0
-7.477571,-6.372087,5.297709,-227.919998,65.660004,-22.26,1729425851885.0,0.0
-9.217153,-8.949157,3.876373,-253.889999,26.67,-31.57,1729425851904.0,0.0
-8.190632,-12.47857,1.789831,-188.720001,-24.710001,-25.129999,1729425851924.0,0.0
-5.785845,-12.177074,1.167697,-75.459999,-44.170002,-16.52,1729425851943.0,0.0
-4.362115,-9.437292,0.782453,12.04,-24.85,-0.56,1729425851964.0,0.0
-4.551149,-7.456036,1.107877,70.489998,5.32,11.62,1729425851985.0,0.0
-5.883951,-6.226124,1.536192,99.260002,31.780001,17.99,1729425852004.0,0.0
-7.623533,-6.958328,3.955336,97.510002,28.77,11.55,1729425852024.0,0.0
-7.963314,-8.446664,5.089533,50.889999,-4.13,-7.49,1729425852043.0,0.0
-6.175875,-10.894521,4.850252,6.3,-45.360001,-26.880001,1729425852064.0,0.0
-3.847659,-13.232309,4.354938,6.86,-88.970001,-30.17,1729425852088.0,0.0
-1.694118,-12.088539,2.801995,63.0,-115.989998,-22.120001,1729425852105.0,0.0
-1.158126,-8.35813,1.581656,151.970001,-76.580002,-7.7,1729425852124.0,0.0
-4.955536,-3.759124,1.227518,211.75,5.74,2.73,1729425852144.0,0.0
-8.353344,-2.847459,3.333202,225.610001,66.989998,19.530001,1729425852164.0,0.0
-8.724231,-1.631905,4.280759,122.220001,25.34,8.26,1729425852185.0,0.0
-5.924629,-3.192025,4.862216,-2.8,-24.290001,-6.16,1729425852204.0,0.0
-3.790231,-6.159126,3.756732,-92.120003,-25.059999,1.4,1729425852223.0,0.0
-3.361916,-7.77428,1.588834,-121.870003,13.79,6.23,1729425852244.0,0.0
-3.675375,-8.798409,1.100698,-101.080002,50.400002,11.34,1729425852263.0,0.0
-3.838088,-8.324631,1.67019,-77.840004,58.59,12.6,1729425852289.0,0.0
-4.003192,-7.865208,3.089134,-80.290001,52.920002,2.24,1729425852303.0,0.0
-4.945964,-8.829515,3.328416,-100.379997,49.490002,-7.98,1729425852324.0,0.0
-6.195018,-9.736395,2.768496,-107.800003,48.93,-14.91,1729425852343.0,0.0
-7.465607,-9.379865,3.182454,-58.52,36.75,1.33,1729425852363.0,0.0
-7.812566,-6.711867,4.601398,12.46,11.9,16.870001,1729425852388.0,0.0
-7.62114,-4.804788,4.993821,18.9,11.9,17.219999,1729425852403.0,0.0
-7.587641,-4.907679,4.283153,-30.73,-3.08,7.28,1729425852423.0,0.0
-7.197611,-7.951349,2.976671,-77.419998,-13.37,-15.05,1729425852446.0,0.0
-6.482157,-12.201002,3.268596,-71.540001,-43.959999,-31.360001,1729425852463.0,0.0
-4.180261,-13.816156,4.740182,-13.3,-74.550003,-38.009998,1729425852485.0,0.0
-2.167897,-11.751152,4.881358,129.639999,-89.18,-30.940001,1729425852505.0,0.0
-1.586441,-8.79123,3.26381,193.759995,-60.830002,-6.23,1729425852523.0,0.0
-2.675175,-5.721239,1.753939,224.630005,8.26,7.42,1729425852543.0,0.0
-5.101498,-3.022135,1.079163,238.630005,74.760002,15.33,1729425852564.0,0.0
-8.059027,-1.512264,2.409572,200.899994,89.669998,20.09,1729425852585.0,0.0
-9.08794,-0.854238,3.495914,83.300003,51.310001,3.36,1729425852604.0,0.0
-7.276574,-3.404987,4.536791,-18.620001,-1.47,-8.61,1729425852624.0,0.0
-5.201996,-5.563312,3.416951,-86.800003,-13.58,-11.55,1729425852643.0,0.0
-4.022335,-6.675975,1.986043,-113.889999,10.92,-9.87,1729425852663.0,0.0
-3.591627,-7.4345,1.217947,-117.949997,34.23,-7.63,1729425852686.0,0.0
-3.689733,-7.448857,2.301895,-133.490005,40.599998,-12.74,1729425852703.0,0.0
-4.488935,-8.207381,3.536592,-175.350006,43.68,-18.41,1729425852724.0,0.0
-5.991628,-9.224331,3.885944,-240.729996,37.240002,-32.830002,1729425852743.0,0.0
-7.180861,-10.415956,2.892922,-244.860001,18.129999,-34.369999,1729425852763.0,0.0
-7.001399,-10.102496,1.921437,-178.080002,-3.43,-22.049999,1729425852786.0,0.0
-6.051448,-7.185646,0.868595,-90.510002,-22.190001,-3.57,1729425852803.0,0.0
-5.343173,-6.680761,0.241675,-24.5,-25.690001,7.77,1729425852824.0,0.0
-5.168497,-6.551548,-0.12682,-9.38,1.47,-4.2,1729425852843.0,0.0
-5.673382,-8.453842,0.251246,-17.639999,4.83,-16.66,1729425852864.0,0.0
-6.094519,-10.561919,1.229911,-7.07,-0.7,-14.49,1729425852885.0,0.0
-6.302694,-11.753544,2.141576,36.400002,-6.37,-7.14,1729425852903.0,0.0
-5.998806,-11.222338,3.421736,76.300003,-24.01,-2.73,1729425852924.0,0.0
-4.996214,-10.695917,5.572884,112.629997,-55.93,-11.97,1729425852943.0,0.0
-3.790231,-10.939985,7.140182,143.080002,-84.489998,-18.969999,1729425852963.0,0.0
-2.589034,-9.592826,4.9675,163.869995,-75.599998,-12.53,1729425852987.0,0.0
-2.366502,-6.518049,2.991028,188.509995,-24.15,8.26,1729425853003.0,0.0
-3.651447,-3.4672,2.926422,194.740005,28.630001,17.710001,1729425853023.0,0.0
-5.79063,-1.998007,3.519842,169.470001,61.389999,19.809999,1729425853043.0,0.0
-7.204789,-2.924029,4.366901,102.760002,69.720001,17.710001,1729425853063.0,0.0
-7.142576,-5.331209,2.974278,21.210001,60.830002,1.47,1729425853084.0,0.0
-6.051448,-7.865208,1.332802,-25.969999,50.68,-12.04,1729425853110.0,0.0
-4.811966,-7.846066,1.258625,-61.880001,41.16,-16.1,1729425853124.0,0.0
-4.146761,-7.24786,3.273381,-84.910004,38.080002,-10.22,1729425853143.0,0.0
-5.4341,-8.678767,3.601198,-105.0,37.73,-3.08,1729425853164.0,0.0
-6.594619,-9.937392,3.24706,-96.25,26.880001,-4.55,1729425853186.0,0.0
-7.444071,-9.698111,2.541178,-65.029999,-0.84,-1.33,1729425853203.0,0.0
-7.532606,-7.915457,2.457429,-10.64,-31.15,1.4,1729425853224.0,0.0
-7.293324,-6.250053,2.316252,25.129999,-55.299999,6.86,1729425853243.0,0.0
-6.740582,-6.372087,2.411965,36.470001,-79.169998,4.13,1729425853264.0,0.0
-6.309873,-6.644868,2.45025,40.810001,-99.889999,11.69,1729425853290.0,0.0
-5.711668,-6.721439,3.888337,30.52,-110.32,18.059999,1729425853305.0,0.0
-5.300103,-7.77428,4.601398,-1.33,-107.870003,14.56,1729425853324.0,0.0
-4.76411,-8.427521,4.905287,-27.860001,-104.650002,5.39,1729425853344.0,0.0
-4.235296,-8.047063,4.398008,-22.4,-88.830002,11.48,1729425853364.0,0.0
-3.852444,-7.630712,4.709075,-27.790001,-60.130001,3.43,1729425853386.0,0.0
-3.929015,-8.427521,5.510671,-70.07,-37.099998,-31.43,1729425853405.0,0.0
-3.797409,-10.506885,4.132405,-77.489998,-16.450001,-44.59,1729425853424.0,0.0
-3.919443,-10.581062,3.074777,-48.16,0.42,-41.93,1729425853443.0,0.0
-4.058227,-7.776673,3.579663,-16.1,9.31,-50.119999,1729425853464.0,0.0
-4.319045,-6.573084,3.684947,-45.5,8.05,-53.130001,1729425853487.0,0.0
-4.546363,-8.62134,4.809574,-81.199997,-9.87,-59.990002,1729425853505.0,0.0
-4.584648,-9.932607,4.694718,-127.050003,-16.870001,-71.330002,1729425853525.0,0.0
-3.261417,-10.437491,4.414758,-188.509995,-4.69,-89.809998,1729425853545.0,0.0
-2.902494,-8.295916,3.4672,-299.880005,-1.61,-98.349998,1729425853565.0,0.0
-2.723032,-7.939385,1.916651,-303.170013,17.92,-86.730003,1729425853588.0,0.0
-2.179861,-8.243275,-0.114855,-242.130005,50.75,-72.590004,1729425853605.0,0.0
-1.689333,-9.923036,-3.158526,-132.720001,66.989998,-53.549999,1729425853625.0,0.0
-1.387837,-10.246067,-2.947958,-38.709999,59.360001,-34.93,1729425853645.0,0.0
-1.45005,-9.475577,-1.134198,57.260002,50.400002,-15.96,1729425853665.0,0.0
-1.572084,-6.453443,1.131805,112.629997,50.889999,5.11,1729425853687.0,0.0
-2.258825,-4.788038,2.981457,134.050003,42.0,39.130001,1729425853706.0,0.0
-1.887937,-3.708875,1.689333,122.989998,16.940001,54.740002,1729425853725.0,0.0
-1.435694,-3.773481,2.007578,92.330002,-10.85,62.23,1729425853745.0,0.0
-2.330609,-6.98465,2.742175,54.810001,-11.83,82.040001,1729425853765.0,0.0
-4.378866,-8.652447,3.079563,-8.61,6.51,68.389999,1729425853786.0,0.0
-6.190232,-11.844472,1.51705,-71.75,12.53,64.959999,1729425853805.0,0.0
-6.025128,-14.699109,-1.540978,-62.510002,-9.1,62.02,1729425853831.0,0.0
-5.094319,-15.098711,-3.412165,-11.83,2.45,45.150002,1729425853844.0,0.0
-5.85763,-13.603197,-3.589234,9.1,46.060001,18.41,1729425853865.0,0.0
-7.113862,-12.794422,-3.574877,23.59,73.080002,-0.91,1729425853888.0,0.0
-6.972685,-13.002598,-1.923829,35.0,61.740002,-33.18,1729425853905.0,0.0
-5.862415,-11.854043,-1.131805,16.870001,57.610001,-51.939999,1729425853926.0,0.0
-4.522435,-11.095518,0.380459,47.040001,48.509998,-67.970001,1729425854030.0,0.0
-3.359523,-9.066404,1.722832,84.349998,42.490002,-65.870003,1729425854034.0,0.0
-2.928815,-6.415157,3.218346,108.360001,37.380001,-50.610001,1729425854036.0,0.0
-2.596212,-4.699504,4.469792,133.910004,18.969999,-38.43,1729425854036.0,0.0
-1.988436,-3.254239,5.570491,121.379997,3.85,-28.559999,1729425854037.0,0.0
-1.115055,-1.569692,5.412565,70.840004,-13.09,-12.53,1729425854045.0,0.0
-0.799203,-2.778067,5.194818,2.17,-28.77,5.74,1729425854070.0,0.0
-3.007778,-6.616155,2.787638,-104.160004,-26.040001,7.84,1729425854087.0,0.0
-3.546163,-6.379266,1.495514,-151.550003,-39.200001,31.57,1729425854106.0,0.0
-2.435893,-4.771288,0.301496,-105.629997,-71.400002,60.689999,1729425854125.0,0.0
-2.914458,-8.070991,-1.371087,-65.309998,-64.82,73.43,1729425854144.0,0.0
-4.859823,-11.140982,-2.11047,-45.920002,-32.200001,65.519997,1729425854164.0,0.0
-6.831509,-13.091133,-3.854837,-29.82,1.12,82.25,1729425854187.0,0.0
-7.767102,-16.764114,-4.201797,-41.720001,19.25,36.470001,1729425854205.0,0.0
-6.733403,-16.795221,-4.929214,-33.459999,24.5,8.33,1729425854224.0,0.0
-5.737988,-15.476776,-1.641476,67.199997,26.040001,-5.67,1729425854245.0,0.0
-6.195018,-14.084153,1.773082,157.360001,44.869999,-25.200001,1729425854266.0,0.0
-7.704889,-10.990234,3.017349,131.320007,63.77,-39.200001,1729425854289.0,0.0
-6.855437,-7.190433,2.557927,68.879997,44.73,-59.990002,1729425854305.0,0.0
-4.400401,-5.608776,2.402394,24.08,9.45,-72.730003,1729425854324.0,0.0
-2.423929,-6.752545,2.641676,19.74,-14.21,-79.169998,1729425854344.0,0.0
-1.584049,-5.718846,4.034299,44.240002,-14.0,-61.810001,1729425854366.0,0.0
-1.237089,-1.371087,4.881358,53.900002,-13.58,-26.950001,1729425854386.0,0.0
-0.442672,1.174876,5.084748,15.89,-35.630001,4.2,1729425854405.0,0.0
-1.998007,-4.900501,2.952743,-61.810001,-44.099998,26.32,1729425854426.0,0.0
-4.17069,-7.67139,0.658026,-152.669998,-12.95,32.759998,1729425854444.0,0.0
-3.775874,-7.271788,-0.782453,-98.07,-41.580002,56.490002,1729425854464.0,0.0
-2.610569,-8.389235,-1.617548,-49.84,-71.050003,69.090004,1729425854487.0,0.0
-4.644469,-13.074384,-0.567099,-14.7,-43.330002,82.110001,1729425854505.0,0.0
-7.369894,-13.256237,-2.316252,0.84,7.77,86.379997,1729425854524.0,0.0
-8.91805,-12.744174,-2.478964,-22.33,30.030001,63.0,1729425854545.0,0.0
-7.317252,-15.146567,-5.682954,-82.529999,17.85,0.35,1729425854564.0,0.0
-5.230711,-16.393229,-5.443672,-43.610001,21.280001,-33.529999,1729425854587.0,0.0
-4.515256,-15.218351,-1.148555,106.470001,31.360001,-33.740002,1729425854606.0,0.0
-5.781059,-11.516656,3.304488,225.330002,55.93,-18.76,1729425854624.0,0.0
-6.585048,-7.802995,4.027121,179.479996,67.410004,-30.450001,1729425854645.0,0.0
-5.814559,-5.417351,3.17049,42.139999,49.349998,-58.380001,1729425854664.0,0.0
-3.287738,-7.678568,2.512464,-20.790001,6.93,-81.269997,1729425854688.0,0.0
-0.801596,-8.650054,3.15374,15.82,-20.02,-79.239998,1729425854705.0,0.0
-0.413958,-5.465207,4.419543,79.029999,-13.37,-44.099998,1729425854724.0,0.0
-1.440479,-1.17009,5.474778,85.260002,-0.42,-12.39,1729425854744.0,0.0
-1.986043,-2.847459,5.197211,-21.629999,-18.48,7.35,1729425854765.0,0.0
-3.491128,-7.733603,2.988636,-71.470001,-27.65,17.360001,1729425854786.0,0.0
-3.570091,-6.431907,1.237089,-50.959999,-26.950001,32.130001,1729425854804.0,0.0
-2.342573,-4.086941,0.358923,-11.48,-55.09,60.200001,1729425854825.0,0.0
-2.667997,-5.541777,0.227318,-15.96,-46.48,73.57,1729425854844.0,0.0
-6.317052,-12.196217,3.010171,-5.11,-19.25,77.629997,1729425854864.0,0.0
-7.798209,-10.353743,1.586441,-15.89,9.66,81.900002,1729425854886.0,0.0
-8.549555,-12.787244,-0.880559,-109.340004,0.49,48.02,1729425854905.0,0.0
-7.159326,-18.22613,-4.625326,-144.619995,3.85,-19.67,1729425854925.0,0.0
-5.587241,-18.025133,-4.089334,-58.66,1.54,-34.720001,1729425854943.0,0.0
-5.111069,-14.567505,1.490728,123.059998,9.31,-31.360001,1729425854964.0,0.0
-5.948557,-9.803394,3.548556,171.710007,35.07,-31.57,1729425854986.0,0.0
-6.448657,-7.020542,3.022135,82.739998,49.07,-53.900002,1729425855004.0,0.0
-5.082355,-7.298109,1.320838,-11.83,28.630001,-80.849998,1729425855024.0,0.0
-2.57707,-8.956335,1.823331,-18.129999,-11.55,-95.830002,1729425855044.0,0.0
-0.72024,-7.341179,3.503092,69.790001,-21.07,-68.879997,1729425855064.0,0.0
-1.153341,-3.737589,5.020142,108.849998,1.89,-41.509998,1729425855087.0,0.0
-2.435893,-0.665205,6.063413,37.240002,-0.28,-11.55,1729425855104.0,0.0
-2.091327,-3.586841,5.020142,-42.349998,-28.84,-0.56,1729425855124.0,0.0
-2.711068,-7.379465,2.672783,-101.779999,-29.26,8.82,1729425855152.0,0.0
-2.758924,-7.094719,1.198804,-78.75,-27.16,28.07,1729425855164.0,0.0
-1.844866,-4.833502,0.375673,-18.9,-45.290001,62.650002,1729425855198.0,0.0
-1.885544,-5.213961,0.035892,-0.77,-25.549999,86.309998,1729425855205.0,0.0
-5.254639,-10.49492,1.229911,-18.969999,-6.79,69.230003,1729425855224.0,0.0
-7.334002,-10.171888,2.120041,-2.1,17.710001,91.209999,1729425855244.0,0.0
-7.465607,-14.627325,-0.430708,-45.080002,6.37,63.07,1729425855265.0,0.0
-6.719046,-16.25205,-2.294717,-111.510002,19.110001,3.22,1729425855291.0,0.0
-5.931807,-16.273586,-1.775474,-52.080002,16.73,-9.17,1729425855305.0,0.0
-5.276174,-14.85225,2.541178,84.980003,8.4,-24.01,1729425855325.0,0.0
-5.769095,-10.475778,2.871387,91.139999,29.82,-31.360001,1729425855345.0,0.0
-6.096912,-8.532805,1.438086,30.870001,42.98,-48.790001,1729425855365.0,0.0
-3.589234,-9.537791,1.251446,-13.72,21.0,-72.870003,1729425855390.0,0.0
-2.021935,-9.29133,2.833102,26.18,-18.48,-75.879997,1729425855405.0,0.0
-1.514657,-5.568098,4.924429,100.449997,-9.31,-46.549999,1729425855426.0,0.0
-2.062613,-1.37348,6.015556,80.919998,1.12,-21.77,1729425855445.0,0.0
-2.096112,-0.504886,5.855237,6.3,-12.32,-8.12,1729425855465.0,0.0
-2.335395,-4.302295,4.536791,-73.360001,-27.860001,3.78,1729425855487.0,0.0
-3.649055,-8.413164,2.251646,-120.120003,-18.83,11.76,1729425855508.0,0.0
-3.842873,-7.889136,0.409173,-94.150002,-15.4,27.02,1729425855528.0,0.0
-2.478964,-5.402994,-0.538385,-35.0,-40.040001,46.060001,1729425855546.0,0.0
-2.127219,-5.508278,-0.653241,-3.29,-34.860001,60.34,1729425855567.0,0.0
-5.125426,-11.373087,2.955136,10.15,-7.77,55.02,1729425855590.0,0.0
-6.786045,-10.164711,1.883151,34.299999,26.389999,79.590004,1729425855607.0,0.0
-7.666604,-10.832308,0.291924,-0.49,19.389999,66.360001,1729425855629.0,0.0
-6.62094,-14.017156,-3.007778,-70.349998,27.16,17.99,1729425855646.0,0.0
-5.529813,-15.783059,-3.156133,-64.75,28.700001,-17.219999,1729425855666.0,0.0
-6.020342,-13.914263,2.471786,35.279999,30.59,-25.969999,1729425855691.0,0.0
-6.163911,-10.786844,3.105884,102.690002,42.420002,-30.799999,1729425855707.0,0.0
-5.02732,-8.114061,1.734797,57.68,35.490002,-51.240002,1729425855727.0,0.0
-3.749553,-7.458428,1.261017,11.69,22.4,-68.879997,1729425855747.0,0.0
-2.124826,-7.91785,2.493321,40.529999,-7.63,-68.879997,1729425855766.0,0.0
