acc_x,acc_y,acc_z,gyr_x,gyr_y,gyr_z,timestamp,label
-3.701697,-10.265208,-0.696311,-14.42,-119.629997,42.98,1729428984923.0,0.0
-5.218746,-10.217353,-0.531207,77.559998,-87.639999,65.449997,1729428984930.0,0.0
-9.872787,-7.79103,-0.988236,91.910004,-54.32,67.129997,1729428984932.0,0.0
-11.724831,-7.310073,-5.4676,-19.809999,-39.130001,56.77,1729428984934.0,0.0
-8.532805,-7.929814,-11.212767,-114.590004,-28.49,55.860001,1729428984944.0,0.0
-8.039884,-14.4024,-16.165909,-71.260002,-4.9,27.09,1729428984965.0,0.0
-12.861421,-15.744773,-13.45245,-28.280001,48.439999,-21.77,1729428984984.0,0.0
-14.033905,-5.261817,-5.295317,-122.57,125.300003,-22.610001,1729428985005.0,0.0
-12.684352,-12.500106,-11.442478,-364.140015,145.110001,-130.970001,1729428985026.0,0.0
-4.754539,-9.891929,-8.843873,-198.589996,150.149994,-107.730003,1729428985045.0,0.0
-2.56032,4.173083,12.067005,-59.150002,190.470001,-69.370003,1729428985064.0,0.0
4.969893,-2.469393,15.933806,-112.139999,72.730003,-20.65,1729428985085.0,0.0
8.863015,-11.700903,6.494121,-125.720001,-20.23,17.5,1729428985106.0,0.0
-1.404587,-12.442677,2.787638,-3.08,-68.949997,35.349998,1729428985128.0,0.0
1.107877,-8.039884,-6.783652,103.879997,-114.520004,37.099998,1729428985145.0,0.0
2.139183,-6.266802,-8.95155,206.080002,-130.410004,90.650002,1729428985164.0,0.0
-10.042676,-8.922836,2.907279,159.25,-91.0,128.520004,1729428985184.0,0.0
-17.989241,-11.839686,-2.720639,-177.100006,-100.660004,86.590004,1729428985205.0,0.0
-13.971692,-15.550954,-21.123838,-330.610016,-68.739998,-22.33,1729428985225.0,0.0
-18.659231,-11.557333,-17.137396,-45.5,65.940002,-32.619999,1729428985245.0,0.0
-7.712067,7.9346,-7.063612,119.629997,121.520004,-34.02,1729428985264.0,0.0
-8.941978,-1.586441,-8.516055,-22.4,150.360001,-33.880001,1729428985285.0,0.0
-8.295916,-10.559525,-9.332008,-196.979996,134.190002,-89.809998,1729428985304.0,0.0
-4.85743,-3.9338,0.801596,-75.110001,177.589996,-44.66,1729428985326.0,0.0
0.212961,-2.945565,7.190433,-92.120003,113.540001,-35.139999,1729428985345.0,0.0
6.611369,-7.389036,10.119246,49.420002,4.83,-0.14,1729428985364.0,0.0
2.35693,-14.050655,0.260818,207.619995,-71.400002,29.33,1729428985384.0,0.0
-4.835894,-10.925629,-5.572884,350.209991,-106.540001,12.6,1729428985405.0,0.0
-10.145569,-14.924035,0.918844,472.920013,-95.550003,67.480003,1729428985425.0,0.0
-12.227324,-12.746566,3.60359,322.980011,-77.559998,36.470001,1729428985445.0,0.0
-7.312466,-14.407186,-2.445465,71.260002,-67.900002,-27.299999,1729428985465.0,0.0
-3.871587,-14.201403,-7.898707,68.949997,-45.639999,-27.23,1729428985484.0,0.0
0.861416,-10.459028,-7.580462,232.540009,18.83,-25.690001,1729428985505.0,0.0
1.70369,-8.80798,-5.182854,347.339996,91.559998,-28.84,1729428985525.0,0.0
-2.203789,-8.997013,-2.105684,307.230011,116.690002,-51.170002,1729428985543.0,0.0
-3.361916,-10.076177,-0.344566,219.729996,66.290001,-65.239998,1729428985564.0,0.0
-2.952743,-8.827123,-2.309074,276.290009,41.790001,-60.900002,1729428985585.0,0.0
-3.507878,-6.216553,0.497707,462.980011,72.800003,-64.610001,1729428985604.0,0.0
-6.719046,-0.20339,6.491727,520.72998,83.230003,-79.379997,1729428985628.0,0.0
-11.009377,5.529813,6.333801,503.019989,60.200001,-48.09,1729428985644.0,0.0
-4.429115,-3.948158,8.413164,379.959991,29.469999,-38.360001,1729428985664.0,0.0
-2.739782,-11.825329,6.589834,165.270004,-2.8,-41.09,1729428985684.0,0.0
-0.880559,-7.092326,9.633504,135.940002,-15.54,-51.170002,1729428985704.0,0.0
-4.022335,-0.504886,10.289137,115.43,-20.370001,-10.36,1729428985725.0,0.0
-3.692125,2.005185,1.744368,-9.24,-69.860001,15.12,1729428985745.0,0.0
-5.783452,0.801596,2.914458,-46.48,2.8,34.720001,1729428985764.0,0.0
-4.883751,-0.588634,4.400401,-188.229996,44.66,41.790001,1729428985784.0,0.0
-1.5003,1.813759,1.189233,-430.149994,69.090004,25.83,1729428985810.0,0.0
-4.771288,-5.010571,6.343372,-594.369995,41.23,92.540001,1729428985824.0,0.0
-10.147961,-12.519248,-4.407579,-825.789978,-8.68,63.84,1729428985844.0,0.0
-3.452843,-17.429321,-8.102098,-981.960022,-50.75,25.059999,1729428985864.0,0.0
-3.74716,-7.073184,-3.074777,-779.659973,-9.66,-37.869999,1729428985883.0,0.0
-2.658426,2.675175,-10.660025,-671.789978,-36.470001,-29.26,1729428985906.0,0.0
-4.941179,-18.637695,-7.482357,-513.52002,-52.290001,-6.58,1729428985925.0,0.0
-5.757132,-12.77528,-10.758131,-316.679993,-24.780001,-51.59,1729428985944.0,0.0
-4.570292,-15.991233,-12.741781,106.260002,-18.48,-18.34,1729428985964.0,0.0
-5.391029,-8.630912,-6.735795,416.570007,66.709999,-23.309999,1729428985984.0,0.0
-7.99442,-4.443472,1.244268,682.289978,60.130001,41.720001,1729428986005.0,0.0
-5.836094,-1.722832,3.036492,808.5,11.2,48.439999,1729428986025.0,0.0
-6.032306,-5.192425,1.708475,843.640015,-15.190001,31.780001,1729428986044.0,0.0
-2.285146,-11.480762,2.402394,846.090027,2.87,-17.290001,1729428986064.0,0.0
-4.587041,-10.537991,7.657032,684.530029,88.480003,-79.029999,1729428986085.0,0.0
-1.895115,-8.54477,2.926422,338.100006,-0.77,-92.190002,1729428986106.0,0.0
-2.079363,-6.417551,10.817951,346.429993,21.07,-50.189999,1729428986124.0,0.0
-6.565905,-3.704089,10.743774,210.139999,-25.9,-30.24,1729428986144.0,0.0
-8.293523,4.398008,4.074977,63.209999,-20.51,-9.87,1729428986165.0,0.0
-7.73121,3.792624,2.423929,-114.590004,13.86,58.939999,1729428986184.0,0.0
-4.469792,0.586242,10.200603,-351.75,65.099998,33.599998,1729428986204.0,0.0
-2.490928,1.842474,9.430114,-676.830017,50.959999,40.459999,1729428986226.0,0.0
-6.195018,3.608376,4.613362,-1012.76001,-15.05,78.75,1729428986244.0,0.0
-8.65484,-9.765109,-11.334801,-1305.640015,-113.190002,-15.61,1729428986264.0,0.0
-4.443472,-19.542183,-31.65465,-988.190002,-123.340004,-90.720001,1729428986284.0,0.0
-5.041678,-5.745167,-7.331609,-406.48999,83.090004,33.670002,1729428986304.0,0.0
-8.812766,-12.969098,-1.935793,-27.51,59.080002,-9.8,1729428986326.0,0.0
-5.879165,-14.069797,-3.333202,174.160004,8.19,-26.6,1729428986344.0,0.0
-4.012764,-13.64866,-4.551149,447.440002,-33.950001,-22.469999,1729428986364.0,0.0
-4.675575,-4.776074,-4.216154,734.440002,-7.21,-4.2,1729428986384.0,0.0
-2.598605,-1.354338,-0.217747,861.840027,11.34,20.440001,1729428986405.0,0.0
-3.605984,-8.140383,6.104091,685.789978,66.150002,1.26,1729428986426.0,0.0
-3.15374,-15.117853,3.84048,397.600006,3.08,-77.699997,1729428986444.0,0.0
0.145962,-10.061819,5.206782,409.290009,43.540001,-83.300003,1729428986465.0,0.0
-4.689932,-2.828316,10.602598,448.140015,39.130001,-77.419998,1729428986484.0,0.0
-2.548356,1.806581,8.872586,314.929993,-13.09,-54.810001,1729428986504.0,0.0
-2.191825,0.849452,1.737189,195.440002,-36.189999,-37.029999,1729428986679.0,0.0
-6.06102,5.991628,4.125226,100.730003,-20.09,-5.25,1729428986682.0,0.0
-8.202596,4.790431,1.098306,-47.950001,4.55,31.57,1729428986686.0,0.0
-4.06062,1.217947,1.574477,-270.059998,43.400002,33.110001,1729428986688.0,0.0
-2.452643,4.565506,6.305088,-561.609985,102.760002,41.790001,1729428986691.0,0.0
-5.304887,-1.229911,13.124631,-905.72998,28.630001,123.059998,1729428986692.0,0.0
-11.499906,-13.904692,-0.803988,-1254.190063,-106.120003,81.760002,1729428986696.0,0.0
-5.814559,-13.804193,-17.05604,-1395.23999,-147.839996,-99.540001,1729428986699.0,0.0
-1.038485,3.129812,-22.880169,-1010.169983,-96.32,-56.139999,1729428986700.0,0.0
-3.136991,-6.508478,-16.393229,-510.019989,-11.62,10.64,1729428986707.0,0.0
-5.982057,-12.547962,-11.667403,-156.380005,61.529999,23.309999,1729428986725.0,0.0
-3.0006,-12.468999,-7.207181,234.639999,60.549999,-32.549999,1729428986744.0,0.0
-3.850052,-9.150154,-4.642076,404.390015,28.280001,-44.029999,1729428986763.0,0.0
-3.103491,-3.146562,-4.515256,807.940002,-35.209999,5.39,1729428986790.0,0.0
-7.45125,1.68694,8.999406,1037.540039,41.439999,80.360001,1729428986807.0,0.0
-7.003791,-5.706882,-0.449851,968.590027,-30.799999,-24.290001,1729428986825.0,0.0
-4.316652,-8.51127,8.090133,901.320007,38.220001,-25.83,1729428986844.0,0.0
-4.991428,-13.141381,12.069397,596.26001,64.050003,-66.919998,1729428986864.0,0.0
-1.462015,-11.078769,9.305687,310.519989,-0.84,-70.139999,1729428986885.0,0.0
-2.742175,-3.431308,6.74776,218.050003,-14.14,-71.470001,1729428986905.0,0.0
-5.123034,-4.378866,8.831908,143.570007,-27.09,-68.040001,1729428986927.0,0.0
-7.295716,5.343173,5.276174,61.32,-16.52,-21.280001,1729428986945.0,0.0
-3.35713,4.180261,3.938586,-175.070007,-25.48,17.360001,1729428986964.0,0.0
-4.907679,-0.318245,1.172483,-449.820007,-16.24,26.110001,1729428986984.0,0.0
-2.816352,-3.991228,9.233903,-686.210022,31.43,4.06,1729428987005.0,0.0
-2.033899,6.778866,6.549156,-1157.660034,-24.710001,97.090004,1729428987027.0,0.0
-8.439486,3.378666,-11.8349,-1395.589966,-125.440002,-21.84,1729428987046.0,0.0
-4.673182,-5.278566,-37.158142,-1232.77002,-153.789993,-94.639999,1729428987066.0,0.0
-1.792224,-20.951555,-20.04707,-558.320007,-24.01,25.9,1729428987086.0,0.0
-3.237489,-17.766708,-12.55514,-37.799999,50.959999,-1.75,1729428987107.0,0.0
-2.63689,-10.829915,-7.211967,223.440002,59.360001,-34.860001,1729428987128.0,0.0
-3.182454,-8.176274,-6.774081,406.420013,44.240002,-23.379999,1729428987146.0,0.0
-3.534199,-4.541577,-4.814359,694.539978,17.360001,2.52,1729428987165.0,0.0
-5.704489,0.555135,4.21376,927.150024,24.08,69.019997,1729428987186.0,0.0
-5.972485,-4.424329,2.495714,862.190002,-13.16,31.43,1729428987206.0,0.0
-5.62074,-9.573684,-0.748954,829.01001,-33.529999,-14.77,1729428987227.0,0.0
-4.101298,-9.58804,11.227123,859.039978,78.400002,-45.5,1729428987246.0,0.0
-3.347559,-10.669596,11.868401,601.02002,65.730003,-53.760002,1729428987265.0,0.0
-3.079563,-9.647861,5.252246,352.380005,12.81,-68.25,1729428987286.0,0.0
-6.453443,-0.294317,7.523034,281.679993,12.88,-47.670002,1729428987306.0,0.0
-4.809574,7.080362,8.082954,169.119995,20.16,-20.51,1729428987327.0,0.0
-4.158726,2.988636,11.13859,-155.470001,7.0,-16.66,1729428987346.0,0.0
-2.158326,5.149354,5.190032,-590.099976,-14.63,15.82,1729428987371.0,0.0
-2.54357,0.086142,-4.505685,-830.690002,-7.7,53.760002,1729428987385.0,0.0
-5.197211,-6.556334,2.806781,-984.830017,-48.650002,67.480003,1729428987406.0,0.0
-7.259824,-10.779665,-9.662218,-1084.650024,-37.73,-21.280001,1729428987427.0,0.0
-5.577669,-8.992228,-19.298115,-963.830017,-80.010002,-75.18,1729428987446.0,0.0
-1.555335,-5.288138,-15.330814,-600.109985,-21.139999,-12.11,1729428987465.0,0.0
-2.031506,-12.299109,-10.839487,-350.769989,7.77,16.17,1729428987486.0,0.0
-2.684747,-12.483356,-7.657032,-77.419998,37.029999,6.79,1729428987506.0,0.0
-3.900301,-9.633504,-7.034898,135.800003,31.85,-15.89,1729428987526.0,0.0
-2.928815,-11.454442,-6.072984,348.459991,4.55,-7.35,1729428987545.0,0.0
-2.806781,-2.912065,-2.371287,623.210022,-7.84,14.63,1729428987565.0,0.0
-8.181061,-2.794817,3.869194,787.01001,-7.84,93.239998,1729428987585.0,0.0
-9.870394,-3.921836,-2.634498,757.890015,-42.349998,53.130001,1729428987606.0,0.0
-4.63729,-12.516854,1.607977,827.539978,-22.33,3.92,1729428987627.0,0.0
-3.244668,-11.286944,5.139783,755.580017,66.57,-50.68,1729428987645.0,0.0
-2.9336,-12.234503,8.662018,548.23999,52.43,-67.620003,1729428987666.0,0.0
-5.158926,-7.362715,9.889536,367.149994,35.490002,-58.099998,1729428987687.0,0.0
-6.089733,-5.254639,7.06122,183.75,-7.21,-59.5,1729428987706.0,0.0
-1.98365,-2.282753,2.62732,98.769997,-16.450001,-50.959999,1729428987753.0,0.0
-7.776673,0.940379,1.777867,16.799999,-19.25,-10.64,1729428987767.0,0.0
-5.438886,2.428715,5.134997,-75.18,8.26,20.790001,1729428987786.0,0.0
-4.256832,-2.395216,9.23151,-386.399994,82.459999,44.799999,1729428987808.0,0.0
-3.23031,0.952343,7.752745,-701.400024,24.57,66.919998,1729428987827.0,0.0
-9.489935,-9.123833,7.219146,-938.559998,-70.349998,88.340004,1729428987846.0,0.0
-1.481157,-19.09951,-4.240082,-1155.560059,-119.279999,-46.48,1729428987866.0,0.0
-3.471986,-14.074582,-6.166305,-896.0,-46.689999,-78.610001,1729428987885.0,0.0
-1.880759,-1.337588,-6.147161,-560.140015,1.75,-51.799999,1729428987906.0,0.0
-6.204589,-6.285945,-9.980463,-304.220001,7.0,-9.8,1729428987926.0,0.0
-5.807381,-9.851252,-12.323036,20.09,41.02,7.98,1729428987945.0,0.0
-5.32403,-10.15514,-6.508478,251.020004,53.200001,-11.27,1729428987966.0,0.0
-3.349952,-7.9681,-0.70349,476.559998,-3.01,-9.73,1729428987985.0,0.0
-6.058627,-2.533999,4.438686,680.960022,-14.0,46.41,1729428988006.0,0.0
-7.484749,-9.578469,-4.579862,804.650024,-86.099998,5.04,1729428988027.0,0.0
-5.56092,-10.906486,11.174481,896.630005,84.209999,-10.57,1729428988046.0,0.0
-4.98425,-16.127625,9.712467,537.390015,37.59,-80.57,1729428988067.0,0.0
0.246461,-11.655439,4.756931,379.470001,-5.53,-76.300003,1729428988085.0,0.0
-2.218147,-0.818345,6.951149,394.380005,16.59,-64.050003,1729428988106.0,0.0
-4.26401,-0.473779,5.821737,235.830002,-27.299999,-46.549999,1729428988126.0,0.0
-5.151747,4.84068,1.265803,142.940002,-11.2,-38.57,1729428988145.0,0.0
-5.484349,4.39083,5.04407,-24.219999,36.049999,-5.95,1729428988165.0,0.0
-5.218746,1.062413,9.631111,-338.589996,42.700001,16.1,1729428988185.0,0.0
-2.244468,1.629512,10.731809,-638.679993,28.139999,33.740002,1729428988206.0,0.0
-6.206983,-1.878366,4.4339,-902.580017,-58.59,103.040001,1729428988226.0,0.0
-5.795416,-9.131011,-7.496714,-1123.569946,-109.199997,-3.99,1729428988245.0,0.0
-2.938386,-13.505091,-14.794822,-940.380005,-77.489998,-40.529999,1729428988266.0,0.0
-0.397209,-4.675575,-13.564911,-614.809998,24.99,-50.610001,1729428988288.0,0.0
-5.958128,-5.663811,-8.102098,-470.959991,1.68,-37.939999,1729428988306.0,0.0
-5.883951,-10.662418,-8.973085,-255.290009,-6.93,-8.47,1729428988326.0,0.0
-4.280759,-10.188639,-9.147761,22.120001,14.77,-3.5,1729428988347.0,0.0
-4.017549,-7.326823,-6.563512,316.890015,30.66,-8.61,1729428988366.0,0.0
-3.175276,-6.54437,-0.832702,508.549988,15.89,26.460001,1729428988385.0,0.0
-3.486342,-2.194218,2.878566,650.369995,-4.76,52.639999,1729428988406.0,0.0
-8.784052,-7.879565,2.471786,711.619995,-28.84,53.34,1729428988426.0,0.0
-4.893322,-8.178668,-0.421137,809.340027,-21.35,-1.19,1729428988445.0,0.0
-2.993421,-12.03829,10.841879,749.0,89.949997,-37.799999,1729428988465.0,0.0
-4.797609,-19.920248,9.552148,511.0,27.790001,-51.099998,1729428988485.0,0.0
-1.85683,-6.752545,7.207181,417.200012,41.790001,-80.849998,1729428988506.0,0.0
-3.428915,-4.969893,9.899107,275.380005,5.74,-64.470001,1729428988527.0,0.0
-3.424129,0.22014,6.211767,153.160004,-24.15,-59.709999,1729428988544.0,0.0
-6.171089,8.219346,0.619741,114.239998,-23.59,-19.110001,1729428988565.0,0.0
-6.206983,4.201797,3.878766,-26.32,26.530001,22.33,1729428988585.0,0.0
-5.496314,1.579263,9.580862,-282.170013,39.41,23.1,1729428988605.0,0.0
-3.086741,0.928415,10.956735,-511.700012,35.630001,39.759998,1729428988627.0,0.0
-4.622933,-3.328416,8.977871,-762.299988,-58.939999,88.059998,1729428988645.0,0.0
-6.74776,-8.25763,2.495714,-1050.069946,-96.529999,30.52,1729428988664.0,0.0
-5.075177,-4.855037,-9.116654,-1167.109985,-137.059998,-70.489998,1729428988685.0,0.0
-2.201397,-2.959922,-10.090532,-655.059998,-46.689999,-15.33,1729428988706.0,0.0
-4.216154,-9.068797,-13.493127,-302.399994,-31.43,9.03,1729428988726.0,0.0
-4.804788,-12.100503,-17.498713,40.670002,15.89,5.32,1729428988746.0,0.0
-3.4672,-9.674182,-12.253645,258.790009,65.730003,-22.540001,1729428988765.0,0.0
-2.993421,-3.024528,-1.311267,412.860016,56.07,2.8,1729428988785.0,0.0
-4.139583,-5.242674,4.790431,457.23999,10.99,42.07,1729428988809.0,0.0
-6.089733,-8.628519,3.84048,533.400024,-40.740002,25.969999,1729428988826.0,0.0
-4.402793,-9.260223,-2.067399,741.650024,-75.599998,-10.43,1729428988845.0,0.0
-5.520242,-5.948557,3.28056,930.929993,70.840004,-23.52,1729428988866.0,0.0
-5.240282,-8.46102,12.313466,728.840027,86.870003,-66.779999,1729428988885.0,0.0
-2.907279,-13.222737,7.420143,395.920013,14.14,-62.23,1729428988905.0,0.0
-0.074178,-8.628519,8.001599,319.339996,15.33,-66.360001,1729428988927.0,0.0
-3.18724,-2.098505,6.812366,291.200012,12.39,-72.239998,1729428988945.0,0.0
-4.342973,-0.681954,9.518648,215.740005,-5.32,-73.43,1729428988964.0,0.0
-3.976871,3.211168,3.658626,122.709999,-17.219999,-44.799999,1729428988985.0,0.0
-7.980063,1.840081,3.799802,45.5,-3.08,-17.639999,1729428989006.0,0.0
-4.718646,1.004985,9.470792,-123.830002,29.68,-0.7,1729428989025.0,0.0
-3.579663,0.428315,10.442278,-231.350006,20.719999,30.52,1729428989045.0,0.0
-2.840281,-3.761517,11.753544,-378.839996,19.25,36.400002,1729428989064.0,0.0
-2.615355,-1.715654,9.824929,-584.150024,-33.529999,44.66,1729428989084.0,0.0
-7.91785,-5.335995,4.792823,-738.570007,-44.029999,78.75,1729428989106.0,0.0
-6.833901,-6.211767,-1.689333,-919.940002,-82.529999,5.88,1729428989125.0,0.0
-3.63709,-8.432307,-7.539784,-875.070007,-98.699997,-43.470001,1729428989145.0,0.0
-4.113262,-11.38505,-11.174481,-579.809998,-58.59,-12.74,1729428989165.0,0.0
-3.244668,-11.124231,-10.140782,-175.630005,-17.92,6.79,1729428989184.0,0.0
-4.070191,-11.598011,-8.556733,97.790001,30.66,-0.49,1729428989206.0,0.0
-4.532006,-9.339187,-4.62054,242.830002,46.27,-19.809999,1729428989281.0,0.0
-3.790231,-6.60419,1.052842,312.339996,39.060001,-13.86,1729428989282.0,0.0
-3.759124,-8.219346,1.395016,325.290009,1.12,2.52,1729428989282.0,0.0
-3.878766,-10.310673,1.698904,427.910004,-31.639999,1.82,1729428989292.0,0.0
-2.562713,-6.017949,1.607977,619.150024,-7.21,-7.42,1729428989369.0,0.0
-5.503492,-6.659225,5.79781,713.650024,40.950001,-19.32,1729428989370.0,0.0
-2.438286,-9.420543,9.729217,603.890015,41.580002,-68.389999,1729428989373.0,0.0
-1.457229,-9.288938,12.222539,362.809998,6.79,-65.519997,1729428989375.0,0.0
0.227318,-2.232504,8.769694,267.890015,-20.299999,-57.68,1729428989383.0,0.0
-10.578669,6.73101,-1.545763,229.529999,-29.26,-42.630001,1729428989431.0,0.0
-6.166305,0.696311,8.611769,309.26001,45.990002,77.559998,1729428989444.0,0.0
-2.98385,0.504886,12.691531,-472.360016,44.73,-3.57,1729428989466.0,0.0
-8.810372,-14.057834,9.116654,-600.109985,-76.720001,93.660004,1729428989485.0,0.0
-4.532006,-13.689339,5.331209,-657.369995,-70.489998,36.68,1729428989504.0,0.0
-2.78046,-11.727223,-0.526421,-648.130005,-100.379997,35.279999,1729428989526.0,0.0
-1.605584,-8.444271,0.270389,-380.100006,-87.57,-36.68,1729428989543.0,0.0
-6.171089,-3.125026,4.252046,-149.449997,-8.89,2.52,1729428989564.0,0.0
-10.028319,-8.456236,-4.668397,-62.16,-48.09,-11.34,1729428989584.0,0.0
-6.051448,-14.237295,-3.168097,105.209999,-39.689999,-49.349998,1729428989604.0,0.0
-2.043471,-10.415956,-4.426722,398.579987,14.91,-62.23,1729428989626.0,0.0
-1.057628,-0.567099,3.098706,700.0,112.980003,-27.719999,1729428989645.0,0.0
-4.510471,-0.571885,12.23211,702.23999,146.020004,-19.32,1729428989664.0,0.0
-1.981257,-11.136196,10.394422,324.380005,64.330002,-53.760002,1729428989684.0,0.0
1.636691,-11.442478,6.364908,52.5,33.389999,-66.5,1729428989705.0,0.0
-0.066999,-6.178268,5.020142,130.830002,75.040001,-70.209999,1729428989726.0,0.0
-1.272982,-1.294517,5.771489,122.290001,78.68,-75.32,1729428989744.0,0.0
-2.055435,2.048256,7.788638,103.040001,67.760002,-51.52,1729428989919.0,0.0
-2.787638,-4.393222,7.259824,20.93,37.099998,-29.190001,1729428989942.0,0.0
-3.237489,-3.806981,7.929814,-20.02,24.290001,-20.09,1729428989942.0,0.0
-4.742575,-1.442872,9.020942,10.29,33.880001,-11.62,1729428989943.0,0.0
-7.080362,-0.088534,11.789437,-6.93,42.630001,4.2,1729428989944.0,0.0
-7.06122,-3.287738,10.037891,-105.419998,21.98,14.35,1729428989944.0,0.0
-5.379066,-4.223332,10.509278,-221.550003,-11.97,27.790001,1729428989944.0,0.0
-5.163712,-4.673182,7.197611,-269.220001,-15.61,24.710001,1729428990033.0,0.0
-9.470792,-5.60399,2.770889,-353.570007,-1.33,13.93,1729428990033.0,0.0
-10.748559,-8.585447,2.840281,-410.76001,5.6,-2.45,1729428990033.0,0.0
1.588834,-15.926627,8.563912,-248.220001,10.22,-26.18,1729428990034.0,0.0
0.382852,-1.359123,8.068598,-62.93,74.059998,-22.4,1729428990044.0,0.0
-1.497907,-4.096512,1.820938,-238.559998,8.4,-22.68,1729428990045.0,0.0
-4.249653,-10.162319,-4.847858,-276.079987,-12.04,-27.93,1729428990045.0,0.0
-3.09392,-14.230117,-4.034299,-122.849998,5.46,-17.219999,1729428990076.0,0.0
-4.977071,-12.346965,-5.199604,96.040001,-3.85,-17.5,1729428990084.0,0.0
-5.252246,-9.348758,-1.399801,288.049988,6.51,-28.07,1729428990105.0,0.0
-5.869594,-7.762317,-1.883151,340.970001,0.49,-39.830002,1729428990126.0,0.0
-3.359523,-4.503292,-0.837488,377.790009,3.43,-50.75,1729428990145.0,0.0
-0.035892,1.052842,10.035499,430.98999,55.439999,-19.18,1729428990165.0,0.0
-5.836094,-2.021935,18.283558,309.26001,38.360001,8.82,1729428990186.0,0.0
-6.058627,-7.393822,7.582855,73.43,-57.400002,-12.95,1729428990207.0,0.0
3.402594,-8.640482,5.197211,25.9,-29.120001,-10.29,1729428990227.0,0.0
-0.911665,-5.199604,7.65464,129.360001,47.599998,13.02,1729428990247.0,0.0
-5.474778,-1.732404,8.99462,97.300003,58.310001,13.02,1729428990273.0,0.0
-8.015956,-1.138984,10.681561,-54.529999,13.3,55.02,1729428990288.0,0.0
-7.996813,-10.995021,2.907279,-123.690002,-30.940001,43.68,1729428990310.0,0.0
-7.144968,-10.796415,7.712067,-131.25,8.75,0.49,1729428990328.0,0.0
-3.101098,-10.956735,8.066205,-100.940002,23.450001,10.99,1729428990349.0,0.0
1.741975,-2.799603,11.763116,-117.949997,59.150002,-14.42,1729428990367.0,0.0
-1.229911,0.205783,9.712467,-277.059998,18.549999,10.43,1729428990386.0,0.0
-3.771089,-3.672983,3.924229,-402.570007,-43.82,10.92,1729428990407.0,0.0
-6.783652,-11.542977,-3.314059,-406.559998,-42.07,-11.06,1729428990428.0,0.0
-8.109276,-15.503098,-2.87378,-262.079987,-40.040001,-32.689999,1729428990450.0,0.0
-6.975078,-11.667403,-6.001199,-39.34,-11.27,-47.740002,1729428990467.0,0.0
-7.283752,-9.032906,-5.410172,136.009995,5.11,-63.07,1729428990487.0,0.0
-5.352744,-5.977271,-3.553342,210.630005,0.35,-51.73,1729428990508.0,0.0
-3.737589,-4.35733,-4.785645,222.389999,9.87,-49.139999,1729428990648.0,0.0
0.136391,-2.488536,0.521635,325.779999,49.0,-15.26,1729428990649.0,0.0
1.452443,3.589234,19.611574,408.660004,103.669998,6.93,1729428990649.0,0.0
-5.821737,-4.268795,19.116261,259.839996,-6.44,-2.24,1729428990649.0,0.0
3.194418,-7.743174,5.63749,47.110001,-18.059999,-10.78,1729428990649.0,0.0
-4.934,-6.585048,7.707282,120.610001,24.710001,28.700001,1729428990650.0,0.0
-4.632504,-0.892523,11.576476,125.020004,19.67,30.799999,1729428990650.0,0.0
-10.380065,-0.177069,15.225531,18.83,-13.58,57.540001,1729428990666.0,0.0
-7.130611,-9.561719,7.326823,-90.720001,-80.220001,53.830002,1729428990932.0,0.0
-8.197811,-12.796815,6.317052,-123.830002,-85.260002,17.01,1729428990934.0,0.0
-5.627919,-9.84168,6.52762,-17.57,2.8,-36.189999,1729428990934.0,0.0
-3.766303,-3.278167,6.465407,-75.879997,41.860001,-14.98,1729428990934.0,0.0
-0.342174,-3.61077,9.65504,-160.160004,28.559999,-6.37,1729428990934.0,0.0
1.342373,0.870987,6.910471,-300.579987,22.68,-12.32,1729428990935.0,0.0
-3.797409,-5.369494,-0.617348,-397.880005,-20.440001,-11.83,1729428990939.0,0.0
-6.092126,-13.313664,-4.350152,-364.420013,-63.209999,-34.720001,1729428990940.0,0.0
-3.730411,-16.170694,-4.73061,-152.949997,-39.060001,-44.380001,1729428990941.0,0.0
-3.682554,-11.77508,-5.012963,83.370003,26.18,-58.73,1729428990942.0,0.0
-5.76431,-5.795416,-3.914658,177.660004,65.590004,-66.57,1729428990943.0,0.0
-3.68734,-4.15394,0.976272,224.630005,40.459999,-47.670002,1729428990944.0,0.0
-1.086342,-2.567499,7.04447,252.699997,69.720001,-25.27,1729428990945.0,0.0
-4.45065,0.184247,12.602997,249.759995,87.150002,20.16,1729428990971.0,0.0
-2.459821,-8.260024,10.171888,62.16,-34.580002,3.64,1729428990971.0,0.0
-1.497907,-11.624333,5.953342,98.279999,-54.110001,10.71,1729428990985.0,0.0
3.756732,-2.85703,12.21536,207.199997,-2.24,23.66,1729428991006.0,0.0
-2.770889,-3.773481,7.365108,67.269997,-15.33,43.82,1729428991026.0,0.0
-5.721239,-8.128418,7.350751,3.92,-45.849998,46.27,1729428991045.0,0.0
-7.67139,-0.047856,14.261222,110.599998,-3.08,76.650002,1729428991065.0,0.0
-6.735795,-11.650653,13.560125,31.08,-71.959999,45.290001,1729428991085.0,0.0
-8.322237,-20.032711,12.263215,-78.050003,-96.949997,14.7,1729428991107.0,0.0
-1.299303,-7.056434,4.488935,-94.360001,-40.110001,-41.02,1729428991125.0,0.0
-5.56092,-2.227718,5.417351,-118.300003,1.4,5.95,1729428991146.0,0.0
-1.069592,-5.678168,6.501299,-109.129997,17.85,-12.25,1729428991164.0,0.0
0.346959,-3.986443,10.222138,-177.940002,57.470001,-0.7,1729428991185.0,0.0
0.923629,0.229711,4.48415,-344.820007,23.030001,-14.35,1729428991206.0,0.0
-5.048856,-7.267002,0.425922,-431.899994,-25.34,13.86,1729428991226.0,0.0
-5.996413,-14.790037,-6.970293,-360.079987,-76.580002,-28.700001,1729428991246.0,0.0
-2.943172,-17.202002,-7.269395,-95.480003,-33.880001,-42.84,1729428991266.0,0.0
-2.790031,-7.200003,-3.244668,190.889999,45.080002,-53.130001,1729428991286.0,0.0
-2.254039,-4.338188,-2.610569,351.820007,99.050003,-40.25,1729428991307.0,0.0
-1.816152,-1.51705,1.586441,317.660004,119.349998,-16.450001,1729428991329.0,0.0
-2.756532,1.115055,9.224331,258.790009,114.660004,16.59,1729428991347.0,0.0
-2.074577,1.725225,16.453049,139.160004,57.540001,21.77,1729428991366.0,0.0
-5.034499,-8.171489,7.99442,65.239998,-48.790001,36.119999,1729428991387.0,0.0
1.830509,-10.262815,9.250652,133.279999,-5.46,34.93,1729428991407.0,0.0
0.51685,-1.270589,3.404987,155.889999,54.529999,41.02,1729428991430.0,0.0
-7.69771,-5.587241,9.815358,18.129999,24.290001,59.639999,1729428991447.0,0.0
-8.618947,-5.056034,10.107283,0.28,-0.91,63.490002,1729428991466.0,0.0
-9.942179,-2.574677,19.219151,53.200001,-5.32,60.830002,1729428991486.0,0.0
-5.493921,-9.755538,17.034504,-43.330002,-61.670002,46.060001,1729428991507.0,0.0
-8.003991,-6.757331,5.529813,-259.769989,-99.959999,16.450001,1729428991530.0,0.0
-6.099305,-6.144768,2.045863,-286.720001,-81.480003,-14.98,1729428991547.0,0.0
-2.371287,-5.922236,6.783652,-128.940002,23.52,12.53,1729428991568.0,0.0
-0.526421,-4.888536,12.13161,-8.75,59.080002,-19.18,1729428991586.0,0.0
-1.182054,-5.855237,5.422136,-99.75,25.34,-6.23,1729428991609.0,0.0
-4.601398,-8.853443,-1.399801,-228.270004,-18.83,-13.93,1729428991628.0,0.0
-6.197411,-11.339586,-2.952743,-178.360001,-41.09,-18.690001,1729428991646.0,0.0
-3.912265,-12.758532,-4.625326,-5.88,-21.98,-54.459999,1729428991666.0,0.0
-2.344966,-9.779467,-2.888137,152.389999,28.98,-52.360001,1729428991686.0,0.0
-2.610569,-8.207381,-0.009571,242.059998,58.939999,-49.490002,1729428991708.0,0.0
-1.165305,-5.424529,0.899701,316.329987,58.869999,-53.060001,1729428991728.0,0.0
-0.794417,-1.622334,4.551149,352.380005,85.260002,-39.830002,1729428991747.0,0.0
-1.079163,5.151747,10.322637,262.01001,100.239998,-15.96,1729428991767.0,0.0
-6.362515,2.376073,15.397814,13.65,39.619999,39.970001,1729428991785.0,0.0
-4.256832,-8.630912,8.260024,-87.919998,-70.980003,13.93,1729428991809.0,0.0
1.799403,-5.757132,6.948757,75.040001,12.46,37.170002,1729428991827.0,0.0
-7.288538,0.119641,11.85165,98.209999,47.110001,36.119999,1729428991847.0,0.0
-12.313466,-3.708875,11.844472,-17.43,-15.54,57.049999,1729428991867.0,0.0
-5.716454,-5.316852,16.338192,-5.88,-21.559999,74.059998,1729428991886.0,0.0
-3.421736,-7.913064,11.069198,-54.670002,-61.389999,35.07,1729428991906.0,0.0
-4.208975,-7.326823,6.721439,-212.940002,-57.68,19.74,1729428991926.0,0.0
-3.847659,-9.882358,2.189433,-325.01001,-80.360001,17.43,1729428991946.0,0.0
-0.892523,-3.986443,14.364115,-57.75,77.349998,-5.18,1729428991965.0,0.0
-2.737389,-3.337988,9.068797,-110.879997,50.330002,-1.82,1729428991986.0,0.0
-2.502892,-3.768696,2.79721,-292.600006,-0.35,-7.77,1729428992006.0,0.0
-6.943972,-9.298509,-2.129612,-347.690002,-45.849998,-2.8,1729428992027.0,0.0
-5.029713,-14.861821,-3.208775,-212.100006,-88.760002,-27.23,1729428992048.0,0.0
-2.892922,-12.835101,-0.911665,11.69,-24.15,-50.75,1729428992076.0,0.0
-3.651447,-7.965706,0.887737,131.529999,26.74,-49.98,1729428992085.0,0.0
-4.331009,-6.659225,0.57667,123.620003,17.360001,-51.66,1729428992107.0,0.0
-1.840081,-6.070591,-0.957129,112.629997,6.72,-42.349998,1729428992131.0,0.0
-2.507678,-3.921836,1.562513,167.300003,38.849998,-18.059999,1729428992148.0,0.0
-3.883551,-4.17069,3.98405,211.680008,54.32,9.03,1729428992166.0,0.0
0.916451,-3.15374,13.016955,155.399994,22.960001,-8.26,1729428992185.0,0.0
-6.26441,-7.223931,8.762517,169.75,-35.630001,19.040001,1729428992207.0,0.0
1.272982,-7.305287,12.892529,271.179993,-4.41,8.89,1729428992230.0,0.0
0.665205,-4.900501,5.17089,288.540009,43.470001,0.77,1729428992246.0,0.0
-3.096312,5.733203,9.982857,114.379997,70.0,20.860001,1729428992265.0,0.0
-4.084548,-8.597411,12.212967,-59.779999,-6.3,79.730003,1729428992287.0,0.0
-5.398208,-3.74716,13.617554,-28.77,13.23,59.920002,1729428992306.0,0.0
-8.353344,-9.454042,17.541782,-129.850006,-3.78,30.59,1729428992326.0,0.0
-10.29153,-10.990234,9.516255,-475.230011,-120.400002,1.47,1729428992347.0,0.0
-3.306881,3.333202,5.807381,-638.330017,-56.98,13.3,1729428992365.0,0.0
0.133998,-4.45065,-2.021935,-489.929993,-59.150002,3.57,1729428992388.0,0.0
-2.112862,-13.806586,-7.113862,-175.350006,-12.32,-8.68,1729428992413.0,0.0
-1.842474,-14.651253,-2.78046,87.639999,26.460001,15.82,1729428992428.0,0.0
-6.017949,-7.89153,1.160519,181.160004,62.09,-14.56,1729428992446.0,0.0
-7.147361,-6.733403,1.832902,118.020004,30.380001,-16.59,1729428992466.0,0.0
-4.716253,-11.126624,-1.816152,52.43,-37.939999,-50.470001,1729428992486.0,0.0
-0.4666,-13.440485,-3.675375,190.889999,-6.65,-51.380001,1729428992508.0,0.0
0.514457,-7.63789,-0.385244,400.610016,70.349998,-64.959999,1729428992530.0,0.0
-2.050649,-0.55992,2.971886,510.929993,115.360001,-57.610001,1729428992547.0,0.0
-3.596412,4.673182,12.074183,422.660004,111.300003,-46.41,1729428992566.0,0.0
-2.270789,-4.472186,13.744373,98.489998,33.810001,-5.18,1729428992586.0,0.0
1.773082,-4.431508,8.690732,-22.26,9.94,2.24,1729428992607.0,0.0
-1.909473,-2.699104,6.886543,1.75,44.170002,32.34,1729428992629.0,0.0
-3.567699,-3.180061,10.119246,-42.0,16.309999,35.209999,1729428992647.0,0.0
-9.805787,3.005385,16.780865,8.05,18.549999,67.970001,1729428992666.0,0.0
-6.427122,-4.223332,14.103296,-33.810001,-61.18,57.75,1729428992686.0,0.0
-8.116454,-8.657232,9.963714,-149.800003,-59.990002,41.23,1729428992707.0,0.0
-8.372486,-15.651453,3.268596,-204.610001,-101.709999,10.08,1729428992728.0,0.0
-1.713261,-6.599405,5.386244,-145.529999,10.22,-23.030001,1729428992747.0,0.0
-5.735595,-0.662812,8.516055,-155.75,27.51,3.78,1729428992766.0,0.0
-2.605784,-0.385244,6.448657,-262.220001,-5.04,-4.13,1729428992786.0,0.0
-2.926422,-6.443871,-0.847059,-333.339996,-27.09,-16.309999,1729428992811.0,0.0
-5.020142,-11.066804,0.16989,-263.059998,-86.169998,-26.809999,1729428992829.0,0.0
-4.419543,-10.368099,4.21376,-128.520004,-32.830002,-18.83,1729428992849.0,0.0
-5.32403,-10.703095,1.261017,-135.169998,-15.96,-40.389999,1729428992869.0,0.0
-3.017349,-12.993028,-2.87378,-165.970001,-59.220001,-55.93,1729428992888.0,0.0
-0.658026,-13.337594,-1.564906,-47.810001,-33.110001,-60.619999,1729428992908.0,0.0
-1.756332,-10.585848,-1.385444,86.800003,6.65,-70.629997,1729428992929.0,0.0
-1.976472,-8.580662,-2.17029,175.279999,22.049999,-85.959999,1729428992948.0,0.0
-0.193819,-6.173482,-1.09352,270.549988,32.060001,-67.620003,1729428992968.0,0.0
1.045663,-3.268596,-0.9667,379.399994,75.669998,-50.82,1729428992990.0,0.0
-0.59342,-2.371287,2.811567,472.429993,105.209999,-42.209999,1729428993009.0,0.0
-0.736989,2.15354,7.276574,508.410004,127.470001,-28.630001,1729428993035.0,0.0
-2.079363,3.701697,11.272588,436.170013,119.559998,-15.54,1729428993129.0,0.0
-4.118048,-0.832702,11.600404,266.140015,94.43,9.03,1729428993130.0,0.0
-3.168097,2.368894,13.318451,132.789993,73.639999,4.41,1729428993169.0,0.0
-7.314859,1.366302,12.193825,55.580002,78.470001,12.18,1729428993169.0,0.0
-6.089733,-3.668197,11.313265,-92.75,28.139999,51.52,1729428993169.0,0.0
-4.242475,-1.418944,13.60559,-148.259995,-32.41,69.580002,1729428993170.0,0.0
-3.474378,-6.616155,15.543776,-89.389999,-9.59,23.24,1729428993194.0,0.0
-6.673582,-4.811966,6.568298,-284.480011,-55.16,1.4,1729428993211.0,0.0
-3.991228,-4.058227,9.626326,-306.040009,-51.099998,16.030001,1729428993237.0,0.0
-2.699104,-3.627519,7.659425,-254.940002,-66.290001,1.96,1729428993248.0,0.0
-3.328416,-5.740381,4.685147,-194.880005,-61.599998,14.56,1729428993269.0,0.0
-4.534399,-5.931807,4.488935,-234.779999,-50.68,-1.4,1729428993287.0,0.0
-4.579862,-7.642675,1.868794,-259.140015,-55.439999,-0.42,1729428993317.0,0.0
-2.883351,-9.95175,2.079363,-241.850006,-76.650002,-22.4,1729428993328.0,0.0
-0.9667,-8.446664,0.083749,-181.789993,-54.810001,-23.030001,1729428993350.0,0.0
-1.392623,-7.652246,2.361716,-108.5,-18.76,-7.14,1729428993372.0,0.0
-1.292124,-8.714661,0.641276,-128.660004,-5.6,-9.73,1729428993410.0,0.0
-0.605384,-9.834501,0.141177,-174.930008,-5.6,-17.5,1729428993414.0,0.0
1.165305,-7.580462,1.442872,-126.349998,22.4,1.54,1729428993489.0,0.0
-0.294317,-6.537192,3.515057,-72.590004,38.779999,18.83,1729428993492.0,0.0
-1.462015,-5.804988,3.400201,-80.5,30.1,42.139999,1729428993493.0,0.0
-2.888137,-6.632904,1.859223,-107.730003,17.5,52.639999,1729428993494.0,0.0
-3.105884,-7.757531,1.51705,-110.32,-10.78,70.139999,1729428993509.0,0.0
-3.668197,-9.028119,0.837488,-93.590004,-16.799999,80.709999,1729428993528.0,0.0
-5.065606,-11.181661,-0.16989,-99.610001,-16.309999,78.82,1729428993550.0,0.0
-5.613562,-11.12184,-1.071985,-86.519997,-21.07,61.32,1729428993620.0,0.0
-5.927022,-12.15554,-1.012164,-67.620003,-21.42,43.889999,1729428993623.0,0.0
-6.312266,-12.622139,-2.26361,-50.82,-21.210001,17.92,1729428993624.0,0.0
-7.211967,-13.536198,-6.118448,-27.790001,-13.79,-15.190001,1729428993633.0,0.0
-6.041877,-14.136796,-7.702496,18.059999,1.61,-59.849998,1729428993650.0,0.0
-4.931608,-12.94517,-6.185446,58.450001,16.870001,-98.07,1729428993670.0,0.0
-4.529613,-12.602997,-4.436293,101.779999,40.740002,-118.370003,1729428993689.0,0.0
-3.464807,-10.049855,-4.091727,210.979996,50.119999,-127.470001,1729428993710.0,0.0
-3.041277,-7.15454,-4.493721,339.640015,56.0,-118.93,1729428993731.0,0.0
-0.622134,-2.938386,-3.474378,458.149994,67.129997,-102.830002,1729428993750.0,0.0
-0.72024,-0.681954,4.173083,560.840027,102.830002,-63.07,1729428993769.0,0.0
-2.112862,1.969293,4.35733,507.850006,115.709999,-63.77,1729428993949.0,0.0
-0.363709,0.916451,7.171289,336.839996,119.0,-47.880001,1729428993950.0,0.0
-0.136391,3.034099,13.399807,245.210007,111.650002,-10.15,1729428993950.0,0.0
-4.768896,1.409373,13.596018,184.029999,90.440002,34.299999,1729428993950.0,0.0
-4.074977,9.71486,18.527626,69.720001,58.029999,61.25,1729428993950.0,0.0
-10.884951,-7.724032,9.619147,-143.220001,-12.53,100.379997,1729428993950.0,0.0
-3.096312,-18.084953,9.379865,-306.880005,-93.239998,34.439999,1729428993951.0,0.0
-1.277767,-9.147761,9.492328,-138.949997,-7.49,42.279999,1729428993951.0,0.0
-4.85743,-1.56012,15.620347,-96.669998,37.029999,9.24,1729428993951.0,0.0
-4.993821,2.400001,7.353144,-368.899994,-17.85,18.129999,1729428993969.0,0.0
-0.179462,-2.419144,6.939186,-530.460022,-64.120003,38.779999,1729428993989.0,0.0
-1.351945,-6.723832,-0.124427,-500.920013,-69.230003,13.93,1729428994009.0,0.0
-3.641876,-7.558927,-3.833302,-372.820007,-45.220001,30.66,1729428994030.0,0.0
-5.479564,-14.313866,-6.458229,-217.490005,-19.950001,33.599998,1729428994051.0,0.0
-4.398008,-15.586846,-6.84108,-22.610001,-36.82,28.280001,1729428994096.0,0.0
-5.438886,-13.373486,-2.9336,160.229996,-41.09,22.120001,1729428994100.0,0.0
-2.249253,-12.30868,-5.120641,337.399994,-81.129997,-7.14,1729428994111.0,0.0
-1.100698,-7.276574,-0.509671,528.849976,-6.02,-20.93,1729428994134.0,0.0
-4.082155,-4.76411,4.173083,714.280029,71.330002,-49.700001,1729428994150.0,0.0
-3.701697,-0.617348,8.788837,676.970032,87.779999,-62.23,1729428994170.0,0.0
-4.443472,2.708675,12.966705,454.860016,89.459999,-61.950001,1729428994190.0,0.0
-5.864808,-0.107677,12.502499,119.910004,26.6,-55.02,1729428994210.0,0.0
-3.024528,-5.85763,8.171489,-65.519997,-8.82,-58.099998,1729428994232.0,0.0
-1.986043,-7.71446,7.362715,-40.599998,-2.45,-74.269997,1729428994250.0,0.0
-2.218147,-3.402594,10.167104,50.68,17.43,-79.730003,1729428994271.0,0.0
-1.785046,0.145962,10.061819,67.760002,7.84,-72.239998,1729428994290.0,0.0
-3.019742,1.801795,8.611769,25.620001,-3.01,-52.920002,1729428994310.0,0.0
-3.431308,0.232104,6.443871,13.02,-11.34,-28.0,1729428994331.0,0.0
-4.141976,-0.294317,6.063413,43.959999,-9.38,-13.09,1729428994350.0,0.0
-4.900501,-0.878166,7.977671,79.940002,3.57,-3.78,1729428994369.0,0.0
-3.845266,-0.696311,10.042676,63.84,6.51,9.24,1729428994390.0,0.0
-2.677568,1.447658,9.365508,18.690001,5.39,12.67,1729428994410.0,0.0
-3.67059,0.681954,8.185846,-26.530001,0.14,33.529999,1729428994431.0,0.0
-5.218746,0.232104,8.152347,-25.48,4.83,46.970001,1729428994457.0,0.0
-5.793024,-1.540978,7.276574,-23.73,-1.54,52.920002,1729428994469.0,0.0
-5.374279,-2.711068,7.850852,-14.14,1.75,53.689999,1729428994492.0,0.0
-4.462614,-3.48395,9.60479,-6.37,3.85,47.110001,1729428994510.0,0.0
-3.95055,-3.708875,9.77468,7.63,0.63,29.889999,1729428994531.0,0.0
-4.39083,-4.694718,9.504292,-11.76,-4.13,18.200001,1729428994551.0,0.0
-3.156133,-3.720839,8.719445,-13.02,-0.56,1.54,1729428994571.0,0.0
-3.285345,-2.404787,7.597212,-2.03,3.36,-4.62,1729428994590.0,0.0
-3.254239,-0.993021,7.262216,-4.06,8.54,-5.46,1729428994610.0,0.0
-3.562913,-2.550749,7.599605,-5.46,4.48,-0.49,1729428994632.0,0.0
-3.771089,-2.979064,8.635696,22.960001,6.65,-3.08,1729428994651.0,0.0
-3.964907,-2.553142,9.75793,39.060001,8.89,-5.18,1729428994673.0,0.0
-4.575077,-2.804388,9.49472,13.23,0.98,-9.31,1729428994693.0,0.0
-4.290331,-4.027121,8.403593,-5.04,-3.29,-15.96,1729428994712.0,0.0
-4.986642,-7.116255,10.650455,21.35,-2.87,-28.77,1729428994737.0,0.0
-5.302495,-3.783052,10.820344,37.869999,-5.74,-66.220001,1729428994752.0,0.0
-2.921637,-5.041678,7.953743,-43.049999,-29.4,-79.239998,1729428994772.0,0.0
6.084948,2.433501,6.017949,-33.670002,-8.61,-74.900002,1729428994792.0,0.0
1.028914,15.287744,4.197011,-27.719999,26.809999,-17.43,1729428994815.0,0.0
-11.306087,-4.168297,4.962714,-82.739998,7.21,78.470001,1729428994835.0,0.0
-5.769095,0.050249,8.245667,-48.860001,38.290001,58.170002,1729428994852.0,0.0
-6.108876,-2.014757,11.399406,-29.610001,41.860001,61.599998,1729428994923.0,0.0
-4.460221,-5.589634,12.078968,-62.23,28.42,61.040001,1729428994923.0,0.0
-3.962514,-1.497907,12.019149,-36.610001,22.960001,55.860001,1729428994924.0,0.0
-5.182854,-1.162912,9.406186,-67.129997,-2.59,61.18,1729428994933.0,0.0
-5.752346,-4.297509,5.821737,-77.139999,-14.7,62.510002,1729428994953.0,0.0
-5.651847,-6.76451,6.817152,-15.33,-3.85,45.150002,1729428994972.0,0.0
-6.364908,-6.666404,9.966106,53.060001,6.65,16.309999,1729428994992.0,0.0
-6.788438,-9.817751,10.234102,55.299999,-4.48,-13.09,1729428995011.0,0.0
-2.344966,-7.271788,9.229117,59.709999,-9.73,-54.810001,1729428995032.0,0.0
-3.95055,-4.955536,10.578669,79.169998,-4.06,-74.410004,1729428995052.0,0.0
-1.411765,-1.397408,7.88435,21.77,-25.41,-96.949997,1729428995070.0,0.0
-0.653241,12.660425,0.287139,-21.91,-11.97,-46.549999,1729428995092.0,0.0
11.844472,16.414762,1.550549,-73.709999,14.91,-12.88,1729428995114.0,0.0
-8.580662,-2.842674,3.220739,-62.369999,22.960001,27.440001,1729428995132.0,0.0
-7.197611,-3.792624,6.82433,-24.5,32.970001,51.170002,1729428995151.0,0.0
-5.95095,-2.998207,11.018949,30.52,36.75,36.119999,1729428995174.0,0.0
-6.034698,-3.862016,12.722638,19.389999,22.68,18.9,1729428995191.0,0.0
-3.56052,-2.70389,11.985649,6.72,12.88,13.09,1729428995211.0,0.0
-4.240082,-3.292524,8.10449,-33.25,4.27,15.54,1729428995232.0,0.0
-5.041678,-2.79721,6.460621,-40.740002,3.71,10.01,1729428995252.0,0.0
-4.821537,-2.969493,7.336394,16.59,13.86,12.46,1729428995271.0,0.0
-4.9675,-6.259624,8.724231,31.219999,14.98,4.69,1729428995291.0,0.0
-6.075377,-10.616954,11.440084,42.700001,9.73,-18.549999,1729428995311.0,0.0
-4.697111,-5.158926,11.320443,61.529999,0.35,-52.639999,1729428995332.0,0.0
-5.063213,-6.233303,9.099905,10.43,-27.440001,-66.220001,1729428995352.0,0.0
-1.665405,-6.463014,8.303094,-5.11,-47.32,-95.480003,1729428995371.0,0.0
1.804188,6.826723,7.594819,39.200001,-34.09,-85.75,1729428995391.0,0.0
0.452243,10.380065,1.342373,-67.199997,-45.990002,29.190001,1729428995413.0,0.0
-10.535598,-6.02752,4.127619,-91.980003,-7.07,37.029999,1729428995432.0,0.0
-5.479564,-1.383051,8.216952,-14.84,28.84,30.030001,1729428995451.0,0.0
-4.957928,-3.361916,11.117055,3.08,26.32,43.959999,1729428995472.0,0.0
-2.979064,-0.655633,12.808779,-3.85,25.129999,36.68,1729428995491.0,0.0
-4.216154,-1.031307,9.281759,-35.84,7.91,48.369999,1729428995512.0,0.0
-5.333601,-2.608176,5.843273,-55.09,0.98,56.700001,1729428995533.0,0.0
-6.118448,-4.342973,5.759524,-31.710001,5.81,45.220001,1729428995550.0,0.0
-5.938986,-4.512863,7.953743,7.0,16.450001,37.029999,1729428995572.0,0.0
-5.201996,-7.147361,8.106883,3.85,12.32,18.200001,1729428995591.0,0.0
-5.15414,-7.546963,8.563912,22.4,15.96,-0.56,1729428995611.0,0.0
-5.65424,-7.661818,9.403792,30.52,10.5,-20.440001,1729428995634.0,0.0
-3.76391,-4.130012,9.693325,32.27,-0.21,-37.799999,1729428995651.0,0.0
-2.411965,-1.433301,9.686146,12.11,-10.78,-32.689999,1729428995671.0,0.0
-7.829315,-6.381658,9.391829,-40.950001,-26.18,-8.61,1729428995691.0,0.0
-7.051648,-9.128618,7.377072,-45.290001,-23.66,-17.57,1729428995712.0,0.0
-4.493721,-6.235696,6.738188,1.4,-18.549999,-54.670002,1729428995734.0,0.0
-1.808974,-1.289732,8.185846,30.799999,-9.1,-59.150002,1729428995751.0,0.0
-4.311867,3.0006,6.539584,-48.650002,-6.65,41.93,1729428995771.0,0.0
-6.099305,-2.658426,4.692325,-108.709999,2.8,75.25,1729428995791.0,0.0
-7.814958,-3.522235,4.034299,-41.09,20.93,42.0,1729428995814.0,0.0
-7.920243,-1.399801,9.573684,67.900002,63.07,38.290001,1729428995833.0,0.0
-5.063213,-5.321638,10.667203,-5.74,42.209999,12.11,1729428995850.0,0.0
-3.835695,-5.28096,10.884951,-8.54,32.689999,28.35,1729428995870.0,0.0
-4.694718,-0.782453,9.657433,-1.68,23.450001,26.389999,1729428995891.0,0.0
-4.546363,-2.28036,8.769694,-18.41,9.8,32.619999,1729428995911.0,0.0
-4.563113,-3.61077,6.817152,-17.08,1.75,41.09,1729428995933.0,0.0
-5.374279,-5.565705,6.211767,1.61,4.34,21.210001,1729428995951.0,0.0
-5.723632,-4.429115,7.77428,38.57,21.280001,11.13,1729428995973.0,0.0
-5.572884,-6.721439,7.752745,29.33,15.12,3.99,1729428995991.0,0.0
-6.04427,-7.980063,8.812766,45.009998,12.25,-16.1,1729428996012.0,0.0
-6.314659,-7.156933,10.339387,69.93,4.41,-44.099998,1729428996031.0,0.0
-5.601598,-4.744967,9.844072,49.98,-11.27,-59.709999,1729428996050.0,0.0
-5.369494,-5.120641,7.171289,-2.45,-35.91,-62.93,1729428996071.0,0.0
-5.333601,-5.084748,10.279566,58.450001,-33.459999,-90.019997,1729428996090.0,0.0
-5.565705,-3.285345,8.226524,22.190001,-52.57,-98.07,1729428996111.0,0.0
-2.579463,9.037691,-2.569891,-42.98,-23.450001,-43.189999,1729428996131.0,0.0
4.914857,11.327622,-2.914458,-126.770004,18.200001,-26.67,1729428996151.0,0.0
-12.282358,-4.244867,3.290131,-66.989998,30.1,65.029999,1729428996172.0,0.0
-8.496914,-0.282353,10.289137,6.51,54.599998,54.950001,1729428996192.0,0.0
-6.994221,-4.479364,13.473984,2.17,31.780001,61.950001,1729428996210.0,0.0
-5.474778,-4.563113,13.624733,-19.389999,14.28,42.349998,1729428996233.0,0.0
-4.127619,-2.074577,10.971091,-33.459999,1.75,42.84,1729428996251.0,0.0
-4.275974,-2.019542,6.994221,-79.870003,-14.14,48.02,1729428996270.0,0.0
-6.482157,-5.56092,4.790431,-74.059998,-14.98,44.66,1729428996290.0,0.0
-6.130411,-5.130211,6.659225,-11.27,-0.63,36.330002,1729428996311.0,0.0
-7.049256,-7.188039,7.283752,15.47,-3.36,19.18,1729428996332.0,0.0
-7.216753,-9.712467,7.716853,14.7,-11.13,-7.91,1729428996351.0,0.0
-7.810174,-10.746166,7.712067,33.740002,-16.66,-37.310001,1729428996373.0,0.0
-5.307281,-6.355337,7.030113,42.490002,-14.77,-58.240002,1729428996390.0,0.0
-2.096112,0.777667,5.931807,-5.67,-16.73,-63.349998,1729428996411.0,0.0
-3.938586,-8.26481,2.928815,-87.709999,-26.18,-61.040001,1729428996432.0,0.0
-4.938786,-6.757331,7.350751,7.42,23.379999,-12.32,1729428996450.0,0.0
-2.541178,-0.208176,8.408379,27.16,9.31,-87.919998,1729428996471.0,0.0
4.843073,11.75833,1.081556,-32.27,16.1,-37.099998,1729428996497.0,0.0
-7.549356,-8.877372,5.71406,-83.090004,42.279999,59.220001,1729428996511.0,0.0
-6.79083,-1.682154,8.712267,-59.150002,37.869999,21.77,1729428996532.0,0.0
-8.446664,0.12682,11.066804,34.93,54.529999,53.549999,1729428996553.0,0.0
-6.008378,-4.680361,11.679367,-23.17,31.780001,53.549999,1729428996572.0,0.0
-4.615755,-8.224132,11.050055,-35.490002,5.67,37.869999,1729428996591.0,0.0
-4.457829,-6.470192,9.348758,9.52,-0.14,23.17,1729428996613.0,0.0
-3.072384,-2.201397,6.874579,-10.85,-7.42,18.83,1729428996632.0,0.0
-6.075377,-4.907679,4.912465,-43.049999,-14.07,19.18,1729428996652.0,0.0
-5.613562,-6.022735,5.24746,-23.59,-9.45,20.65,1729428996671.0,0.0
-6.67119,-6.106483,6.580262,23.66,-4.41,13.58,1729428996692.0,0.0
-7.405786,-8.662018,7.369894,16.030001,-13.02,-7.84,1729428996711.0,0.0
-3.768696,-6.680761,9.35833,14.14,-19.32,-46.200001,1729428996732.0,0.0
-2.273181,-4.12044,7.726424,-57.82,-30.73,-39.549999,1729428996756.0,0.0
-6.920043,-26.34737,4.82393,32.27,13.440001,47.459999,1729428996773.0,0.0
3.285345,-2.143969,6.123233,-78.190002,-50.400002,-86.099998,1729428996791.0,0.0
-8.726624,0.349352,9.45165,88.059998,-17.15,-43.540001,1729428996815.0,0.0
-5.704489,3.625126,8.037491,-46.060001,-10.29,-27.58,1729428996832.0,0.0
0.454636,4.295116,3.249453,-137.410004,-4.76,10.29,1729428996853.0,0.0
-9.62154,-8.987441,2.711068,-108.43,-3.15,59.220001,1729428996873.0,0.0
-6.118448,-4.816752,6.498906,-5.53,34.16,38.009998,1729428996893.0,0.0
-7.097112,-2.495714,10.786844,52.009998,45.150002,26.25,1729428996914.0,0.0
-4.986642,-5.041678,12.677175,-4.55,3.99,29.469999,1729428996934.0,0.0
-4.409972,-5.881558,9.602397,-23.52,-21.84,11.55,1729428996953.0,0.0
-4.127619,-3.739982,6.932007,-9.45,-22.540001,18.76,1729428996973.0,0.0
-4.189832,-3.59402,4.292724,-19.25,-16.309999,23.870001,1729428996993.0,0.0
-5.802595,-7.147361,4.87418,-3.99,-4.06,32.200001,1729428997014.0,0.0
-7.032506,-8.836694,7.592427,93.590004,11.34,12.18,1729428997034.0,0.0
-8.910872,-14.342579,10.011569,98.279999,-7.07,-25.549999,1729428997053.0,0.0
-4.488935,-9.518648,9.908678,89.459999,-18.41,-73.150002,1729428997072.0,0.0
-8.685946,-9.401401,7.472785,37.799999,-22.4,-83.160004,1729428997094.0,0.0
-3.196811,-11.413764,4.649254,-38.290001,-45.990002,-119.770004,1729428997113.0,0.0
13.110275,7.008578,6.71426,51.240002,-14.84,-116.900002,1729428997133.0,0.0
3.546163,20.729021,2.988636,56.0,23.030001,-80.919998,1729428997153.0,0.0
-11.428121,-6.699903,3.15374,-100.660004,-13.65,49.0,1729428997173.0,0.0
-4.512863,-3.486342,5.412565,-29.33,26.74,30.870001,1729428997193.0,0.0
-5.345565,-3.452843,9.889536,49.420002,41.509998,35.630001,1729428997218.0,0.0
-3.342773,-7.149754,13.280167,2.17,21.210001,50.959999,1729428997233.0,0.0
-3.665804,-7.506285,12.346965,18.620001,1.12,43.189999,1729428997252.0,0.0
-3.790231,-2.773281,10.092925,31.5,-14.0,38.849998,1729428997273.0,0.0
-4.572684,-1.636691,6.45105,-16.450001,-21.07,41.299999,1729428997293.0,0.0
-6.053841,-6.853044,4.130012,-44.939999,-20.93,33.529999,1729428997314.0,0.0
-5.431707,-7.111469,5.793024,23.940001,1.33,22.33,1729428997334.0,0.0
-6.336195,-6.867401,6.951149,42.349998,1.61,0.7,1729428997353.0,0.0
-6.920043,-12.023933,8.315059,41.439999,-11.76,-23.24,1729428997373.0,0.0
-5.690133,-8.295916,10.530812,93.870003,-8.54,-59.43,1729428997393.0,0.0
-7.042077,-6.400801,9.166903,44.380001,-21.559999,-76.650002,1729428997412.0,0.0
-3.59402,-7.992027,5.472386,-42.420002,-45.009998,-96.18,1729428997433.0,0.0
1.529014,-1.435694,4.290331,7.14,-20.860001,-101.57,1729428997453.0,0.0
0.990629,9.159724,1.098306,8.75,5.04,-60.760002,1729428997472.0,0.0
-7.530212,-3.067599,8.003991,-16.24,49.420002,21.210001,1729428997492.0,0.0
-7.111469,-0.258425,9.458827,-13.02,16.450001,13.37,1729428997514.0,0.0
-6.594619,-2.40718,10.147961,13.23,18.549999,35.490002,1729428997533.0,0.0
-4.855037,-7.130611,10.882557,-41.16,-9.52,35.700001,1729428997552.0,0.0
-2.012364,-5.125426,11.289338,-4.34,-10.22,20.23,1729428997573.0,0.0
-3.294917,-0.961915,9.391829,20.860001,-8.4,27.790001,1729428997592.0,0.0
-4.369294,-3.04367,5.737988,-39.41,-14.35,40.810001,1729428997613.0,0.0
-4.924429,-6.896115,4.642076,-31.85,-4.69,30.309999,1729428997634.0,0.0
-6.26441,-7.204789,7.223931,36.470001,13.86,12.11,1729428997652.0,0.0
-6.235696,-8.188239,10.140782,61.459999,6.16,-7.42,1729428997672.0,0.0
-4.955536,-12.622139,11.078769,73.709999,-25.34,-57.049999,1729428997693.0,0.0
-7.939385,-12.614961,14.821144,94.43,-30.450001,-101.709999,1729428997712.0,0.0
-6.525227,-16.091732,11.377872,26.880001,-68.32,-182.490005,1729428997734.0,0.0
-17.814566,16.74258,-13.550553,-9.87,-69.300003,-174.720001,1729428997752.0,0.0
-6.632904,-3.342773,5.821737,1.61,12.32,-125.720001,1729428997771.0,0.0
-2.072184,4.878965,8.578269,-9.38,-9.1,-106.330002,1729428997792.0,0.0
-5.800202,3.775874,11.655439,16.940001,-19.809999,-75.599998,1729428997815.0,0.0
-0.562313,0.957129,9.212367,-100.800003,-56.279999,-29.68,1729428997835.0,0.0
0.370888,3.632305,8.008778,-102.620003,-63.77,6.58,1729428997852.0,0.0
-2.868994,5.142176,4.462614,-120.889999,-63.91,56.07,1729428997872.0,0.0
-4.383651,-3.428915,3.012564,-191.169998,-70.699997,73.43,1729428997893.0,0.0
-3.749553,-3.84048,5.565705,-167.369995,-42.07,72.239998,1729428997912.0,0.0
-6.386444,-3.814159,9.205189,-127.610001,-28.210001,81.059998,1729428997933.0,0.0
-5.484349,-2.419144,9.525827,-129.360001,-52.990002,103.739998,1729428997952.0,0.0
-4.177868,-4.493721,7.846066,-145.809998,-70.629997,118.790001,1729428997971.0,0.0
-3.725625,-9.446864,5.4341,-185.779999,-107.099998,131.740005,1729428997992.0,0.0
-1.684547,-13.883157,2.935993,-173.180008,-129.919998,119.349998,1729428998013.0,0.0
0.066999,-13.562519,2.086541,-147.770004,-113.400002,63.420002,1729428998033.0,0.0
0.866202,-13.811372,2.230111,-178.990005,-82.949997,21.210001,1729428998052.0,0.0
1.043271,-14.993427,1.572084,-160.860001,-51.52,-5.95,1729428998071.0,0.0
-0.945165,-9.190832,2.531606,-81.129997,5.6,-31.360001,1729428998224.0,0.0
-0.739382,-8.334201,2.622534,-69.790001,33.599998,-37.240002,1729428998224.0,0.0
-0.583849,-7.300502,2.139183,-98.980003,59.779999,-33.670002,1729428998225.0,0.0
-1.347159,-7.386643,1.830509,-130.970001,67.760002,-22.75,1729428998226.0,0.0
-3.448057,-9.870394,1.548156,-115.779999,71.889999,-1.47,1729428998227.0,0.0
-2.062613,-9.595219,6.608976,-52.990002,45.080002,8.89,1729428998227.0,0.0
-2.54357,-7.405786,6.754939,50.259998,42.490002,-0.77,1729428998233.0,0.0
-2.462214,-7.726424,2.861816,35.490002,34.509998,3.22,1729428998251.0,0.0
-2.330609,-5.395815,4.204189,74.480003,3.36,20.58,1729428998315.0,0.0
-1.734797,-4.4339,4.338188,63.490002,1.05,22.82,1729428998316.0,0.0
-1.361516,-3.682554,3.720839,41.02,8.61,43.189999,1729428998320.0,0.0
-3.37388,-6.21416,3.68734,0.07,-0.21,64.889999,1729428998333.0,0.0
-7.094719,-12.988241,4.460221,-38.290001,-12.04,65.239998,1729428998351.0,0.0
-9.547362,-11.679367,3.550949,-115.919998,7.42,23.309999,1729428998370.0,0.0
-8.221739,-14.230117,-1.153341,-257.459991,22.4,-27.58,1729428998392.0,0.0
-3.859623,-15.964913,-3.912265,-235.339996,50.119999,-72.239998,1729428998411.0,0.0
-3.974478,-15.342779,-6.862615,-125.160004,77.0,-94.220001,1729428998432.0,0.0
4.938786,4.491328,1.564906,126.0,84.349998,-65.660004,1729428998451.0,0.0
6.21416,12.196217,7.999206,170.240005,53.34,-13.09,1729428998471.0,0.0
-5.67099,-10.695917,17.180466,24.710001,-0.56,64.190002,1729428998492.0,0.0
-4.177868,-13.445271,3.771089,-109.830002,-82.040001,23.940001,1729428998513.0,0.0
-2.871387,-10.109675,-0.267996,-59.990002,-52.920002,19.6,1729428998540.0,0.0
-2.876173,-10.839487,-0.358923,-5.04,-45.990002,37.450001,1729428998551.0,0.0
-2.041078,-8.484949,2.084148,71.330002,-33.459999,38.920002,1729428998574.0,0.0
-4.113262,-9.363115,2.270789,82.389999,-33.880001,42.98,1729428998592.0,0.0
-5.089533,-10.748559,3.158526,48.09,-29.82,37.66,1729428998612.0,0.0
-6.611369,-10.581062,1.617548,16.24,-34.93,13.72,1729428998634.0,0.0
-8.327023,-15.450456,1.883151,-18.129999,-9.03,-8.19,1729428998652.0,0.0
-5.548956,-12.882957,-1.160519,-163.520004,49.84,-67.199997,1729428998672.0,0.0
-3.59402,-16.134804,-2.134398,-185.710007,66.989998,-92.75,1729428998693.0,0.0
-0.435494,-8.944371,-3.172883,-96.739998,77.349998,-102.199997,1729428998714.0,0.0
3.771089,-0.990629,0.521635,59.709999,79.730003,-50.82,1729428998743.0,0.0
6.333801,6.398407,1.617548,122.150002,52.360001,-24.08,1729428998753.0,0.0
-4.012764,-7.82453,10.595419,145.389999,30.380001,43.540001,1729428998773.0,0.0
-2.656033,-8.4012,5.592027,-23.1,-21.07,29.4,1729428998793.0,0.0
-1.452443,-6.881758,0.5001,-84.07,-39.41,24.219999,1729428998816.0,0.0
-1.079163,-7.458428,0.026321,-57.049999,-45.57,53.48,1729428998835.0,0.0
-1.79701,-8.788837,-0.880559,-3.36,-43.400002,66.43,1729428998853.0,0.0
-3.156133,-10.691131,0.418744,62.09,-33.25,73.43,1729428998873.0,0.0
-6.929615,-14.969498,3.007778,92.68,-22.469999,65.800003,1729428998893.0,0.0
-7.331609,-10.743774,3.584448,80.150002,6.23,43.470001,1729428998914.0,0.0
-10.810772,-16.47937,1.148555,-53.970001,11.27,3.22,1729428998937.0,0.0
-6.783652,-17.938992,-3.235096,-145.110001,41.299999,-35.279999,1729428998953.0,0.0
-4.496114,-14.368899,-1.0002,-14.28,97.160004,-93.239998,1729428998973.0,0.0
-0.629312,1.584049,-1.847259,27.51,84.279999,-98.07,1729428998993.0,0.0
4.402793,-5.022535,0.567099,63.630001,66.290001,-54.810001,1729428999014.0,0.0
2.768496,-2.124826,13.165311,197.050003,44.799999,2.94,1729428999034.0,0.0
-4.82393,-8.745767,11.942577,56.490002,-24.85,8.96,1729428999053.0,0.0
0.476172,-6.046663,5.111069,-85.120003,-62.720001,14.84,1729428999073.0,0.0
-1.727618,-7.274181,0.595813,-131.949997,-76.510002,39.41,1729428999094.0,0.0
-1.033699,-9.097511,-1.134198,-88.269997,-69.720001,56.84,1729428999113.0,0.0
-3.287738,-10.849058,-0.375673,2.17,-55.02,72.169998,1729428999135.0,0.0
-4.4674,-13.596018,0.969093,53.970001,-40.529999,61.25,1729428999153.0,0.0
-7.307681,-12.8686,1.158126,87.360001,-30.799999,32.200001,1729428999173.0,0.0
-9.848858,-14.419148,1.794617,65.800003,8.61,19.040001,1729428999194.0,0.0
-9.279366,-12.595818,-5.484349,-72.870003,16.1,-41.299999,1729428999213.0,0.0
-4.941179,-16.438692,-5.209175,-62.09,61.32,-74.760002,1729428999234.0,0.0
-4.304688,-13.579268,-0.492921,37.099998,91.629997,-97.580002,1729428999257.0,0.0
-1.598405,-5.754738,1.081556,51.380001,86.379997,-116.690002,1729428999273.0,0.0
4.321437,2.620141,8.140383,34.860001,74.410004,-63.490002,1729428999293.0,0.0
1.684547,-3.120241,14.624931,114.940002,12.18,43.540001,1729428999314.0,0.0
-6.963113,-13.79223,7.829315,-61.389999,-71.330002,32.27,1729428999334.0,0.0
-1.083949,-9.779467,1.31366,-123.270004,-64.82,20.58,1729428999353.0,0.0
-2.017149,-8.106883,-1.916651,-97.370003,-64.82,38.5,1729428999374.0,0.0
-1.368695,-8.11167,-0.332602,-18.690001,-52.150002,57.049999,1729428999393.0,0.0
-3.175276,-9.906286,0.81356,40.810001,-50.400002,67.480003,1729428999413.0,0.0
-5.941379,-12.466606,1.615155,44.799999,-43.610001,62.299999,1729428999435.0,0.0
-6.403193,-10.504492,0.598206,35.630001,-35.490002,34.09,1729428999454.0,0.0
-7.980063,-13.916656,-0.181855,0.21,-4.97,11.69,1729428999472.0,0.0
-7.597212,-13.256237,-3.52702,-67.550003,9.52,-33.880001,1729428999493.0,0.0
-5.166104,-14.854643,-2.912065,-67.199997,50.470001,-60.130001,1729428999513.0,0.0
-3.314059,-15.63231,-0.215354,-14.49,65.029999,-86.239998,1729428999534.0,0.0
-1.87358,-10.377672,3.165704,33.389999,74.900002,-104.230003,1729428999553.0,0.0
0.701097,3.579663,2.17029,29.889999,63.349998,-79.519997,1729428999573.0,0.0
2.567499,-2.11047,4.04387,27.93,43.189999,-34.580002,1729428999592.0,0.0
3.708875,1.249053,6.015556,90.720001,17.15,19.74,1729428999614.0,0.0
-5.268995,-13.399807,6.34098,-45.5,-17.290001,23.309999,1729428999634.0,0.0
-1.299303,-7.9681,1.868794,-80.57,-59.990002,21.210001,1729428999654.0,0.0
-1.557728,-8.070991,-1.150948,-85.120003,-72.379997,41.509998,1729428999672.0,0.0
-0.76331,-8.408379,-0.909273,-9.1,-58.59,55.720001,1729428999693.0,0.0
-3.175276,-9.844072,0.619741,65.519997,-46.27,63.630001,1729428999712.0,0.0
-5.233103,-12.260822,1.954936,84.699997,-32.619999,61.459999,1729428999735.0,0.0
-6.348158,-10.195816,0.882952,69.440002,-19.389999,45.990002,1729428999753.0,0.0
-8.712267,-13.993226,0.79681,8.12,2.66,20.719999,1729428999772.0,0.0
-8.001599,-13.706088,-2.62732,-85.470001,23.17,-22.33,1729428999793.0,0.0
-6.015556,-16.991434,-3.393023,-77.0,52.779999,-59.57,1729428999816.0,0.0
-3.87398,-14.624931,-1.938186,-11.13,82.110001,-90.019997,1729428999834.0,0.0
-2.402394,-10.69831,0.184247,31.290001,85.050003,-117.18,1729428999854.0,0.0
0.667598,-1.29691,1.813759,54.599998,87.989998,-94.989998,1729428999930.0,0.0
4.536791,0.701097,9.729217,108.57,44.380001,-73.57,1729428999932.0,0.0
2.507678,0.105284,14.538791,137.479996,24.5,24.57,1729428999934.0,0.0
-4.902894,-12.660425,8.530413,-62.299999,-56.349998,27.58,1729428999936.0,0.0
-1.433301,-8.578269,-0.136391,-105.629997,-54.740002,26.809999,1729428999963.0,0.0
-0.22014,-6.206983,-2.782853,-48.580002,-49.420002,53.760002,1729428999973.0,0.0
-2.230111,-9.329616,0.586242,45.57,-34.439999,74.340004,1729428999992.0,0.0
-2.766103,-9.370294,2.354537,74.199997,-37.310001,70.910004,1729429000013.0,0.0
-7.240681,-14.974284,2.677568,52.220001,-38.57,64.330002,1729429000034.0,0.0
-7.798209,-12.447463,1.945365,42.700001,-16.870001,45.009998,1729429000052.0,0.0
-11.593226,-17.541782,0.267996,-46.130001,-2.24,-9.03,1729429000073.0,0.0
-6.802795,-14.912071,-3.26381,-117.529999,46.27,-53.130001,1729429000094.0,0.0
-3.194418,-13.325629,-1.586441,-71.330002,60.619999,-97.790001,1729429000113.0,0.0
-2.502892,-12.878171,1.641476,-7.07,69.510002,-113.190002,1729429000133.0,0.0
0.236889,-0.287139,-2.904887,1.47,70.629997,-108.290001,1729429000153.0,0.0
1.651048,-2.447858,0.746561,70.0,62.93,-82.389999,1729429000172.0,0.0
4.460221,3.022135,13.923835,255.009995,51.59,4.41,1729429000192.0,0.0
-4.149154,-4.941179,14.531611,73.360001,-7.42,23.379999,1729429000213.0,0.0
-1.026521,-7.980063,5.771489,-148.960007,-61.32,31.290001,1729429000233.0,0.0
-2.275574,-10.822738,0.124427,-164.009995,-67.410004,41.790001,1729429000252.0,0.0
-1.079163,-8.913264,-3.737589,-100.660004,-58.66,48.720001,1729429000273.0,0.0
-3.022135,-9.24108,1.902294,56.84,-26.25,80.220001,1729429000293.0,0.0
-3.821337,-11.222338,2.562713,70.980003,-34.439999,68.809998,1729429000313.0,0.0
-5.663811,-10.059426,1.383051,36.610001,-38.849998,45.849998,1729429000333.0,0.0
-10.234102,-16.811972,-0.038285,-41.369999,-0.91,29.889999,1729429000353.0,0.0
-8.563912,-15.290136,-6.618547,-150.919998,31.43,-38.080002,1729429000376.0,0.0
-5.190032,-16.208981,-4.888536,-79.029999,81.269997,-77.980003,1729429000392.0,0.0
-3.211168,-14.543575,1.605584,-14.42,92.330002,-109.199997,1729429000413.0,0.0
0.387637,-0.294317,1.727618,-27.719999,84.07,-112.0,1729429000433.0,0.0
2.878566,0.507278,5.125426,-7.98,49.0,-64.190002,1729429000453.0,0.0
6.549156,3.424129,8.319844,127.120003,26.809999,3.71,1729429000473.0,0.0
-6.235696,-8.51127,10.856236,81.830002,4.13,50.330002,1729429000498.0,0.0
-3.878766,-9.934999,4.177868,-75.879997,-51.240002,24.639999,1729429000513.0,0.0
0.464208,-4.756931,-1.584049,-104.720001,-65.379997,31.08,1729429000542.0,0.0
-2.15354,-10.284351,-0.995414,-31.85,-57.330002,76.510002,1729429000552.0,0.0
-2.201397,-10.408779,-0.083749,44.73,-50.610001,61.32,1729429000634.0,0.0
-5.929415,-13.397413,2.773281,84.980003,-29.4,67.970001,1729429000637.0,0.0
-7.202396,-12.227324,0.978664,39.130001,-30.940001,43.330002,1729429000639.0,0.0
-9.24826,-14.155938,-3.072384,-48.650002,5.18,6.79,1729429000741.0,0.0
-4.991428,-15.110674,-4.144369,-127.330002,76.860001,-46.41,1729429000742.0,0.0
-3.644269,-17.599211,3.433701,-26.32,97.370003,-62.93,1729429000742.0,0.0
-1.493121,-10.100104,3.68734,10.01,86.099998,-80.150002,1729429000742.0,0.0
0.282353,0.880559,-0.521635,-13.51,66.57,-60.830002,1729429000743.0,0.0
2.120041,-2.87378,4.505685,-15.89,45.57,-17.92,1729429000743.0,0.0
3.177669,1.524228,4.333402,66.010002,15.05,21.629999,1729429000752.0,0.0
-3.943372,-9.209974,9.54497,86.029999,-14.77,68.599998,1729429000771.0,0.0
-5.534599,-9.399008,5.108676,-49.349998,-73.010002,36.82,1729429000791.0,0.0
-1.751546,-7.283752,-0.617348,-115.639999,-106.260002,31.99,1729429000817.0,0.0
-2.864209,-9.190832,-2.608176,-84.769997,-96.809998,58.799999,1729429000835.0,0.0
-3.766303,-12.299109,-2.457429,-18.27,-70.489998,47.670002,1729429000852.0,0.0
-3.732803,-10.487741,-1.213161,73.360001,-49.84,43.610001,1729429000872.0,0.0
-5.730811,-10.119246,-0.325424,99.260002,-40.18,30.17,1729429000891.0,0.0
-6.865008,-11.040483,1.414158,78.400002,-17.780001,39.619999,1729429000911.0,0.0
-7.759924,-13.672589,0.617348,-30.59,-3.64,2.73,1729429000932.0,0.0
-5.182854,-11.535798,-5.623133,-126.840004,38.360001,-35.0,1729429000952.0,0.0
-3.148954,-18.549162,-4.108476,-162.889999,52.990002,-42.84,1729429000972.0,0.0
-4.345366,-14.553147,-2.806781,-21.0,94.080002,-76.019997,1729429000992.0,0.0
-2.974278,-3.445665,-2.062613,34.369999,102.480003,-88.410004,1729429001012.0,0.0
-0.820738,-3.835695,8.370094,21.77,75.599998,-48.16,1729429001032.0,0.0
3.768696,5.178068,8.023134,74.620003,1.75,-42.98,1729429001052.0,0.0
-0.291924,-5.144568,8.867801,42.700001,-42.209999,54.32,1729429001072.0,0.0
-7.104291,-15.304493,1.208375,-127.050003,-87.290001,11.97,1729429001091.0,0.0
-3.663411,-6.364908,0.447458,-76.440002,-93.660004,14.14,1729429001113.0,0.0
-4.577469,-8.295916,-2.474179,-105.279999,-104.790001,29.120001,1729429001133.0,0.0
-3.787838,-9.071191,-4.048656,-113.260002,-104.160004,11.55,1729429001152.0,0.0
-5.161318,-9.611969,-3.969693,-41.02,-81.830002,14.0,1729429001172.0,0.0
-5.383851,-9.025726,-2.177469,10.92,-80.150002,6.58,1729429001192.0,0.0
-6.4343,-9.10469,-1.366302,24.5,-64.330002,13.09,1729429001214.0,0.0
-7.446464,-10.375278,-1.311267,-48.16,-50.959999,-2.1,1729429001233.0,0.0
-4.596612,-13.062418,-4.886144,-128.240005,-42.98,-26.880001,1729429001253.0,0.0
-1.639083,-10.561919,-7.642675,-143.639999,-16.52,-40.810001,1729429001272.0,0.0
-1.347159,-7.812566,-7.250252,-159.180008,16.030001,-37.170002,1729429001292.0,0.0
-0.605384,-10.822738,-5.989235,-184.729996,45.43,-31.92,1729429001313.0,0.0
1.935793,-10.126426,-5.15414,-130.479996,51.799999,-34.720001,1729429001334.0,0.0
3.04367,-7.537392,-2.510071,-37.099998,36.68,-23.870001,1729429001354.0,0.0
0.33021,-7.941778,3.335595,62.860001,22.82,5.81,1729429001371.0,0.0
-1.162912,-8.001599,4.881358,60.34,7.7,6.58,1729429001392.0,0.0
-1.722832,-12.27518,1.538585,-29.960001,-32.27,11.48,1729429001412.0,0.0
-1.59362,-10.090532,-3.005385,-72.239998,-33.880001,15.96,1729429001432.0,0.0
-3.464807,-7.896315,-3.184847,-83.440002,-30.66,33.950001,1729429001456.0,0.0
-4.426722,-9.446864,-2.991028,-60.34,-23.450001,39.549999,1729429001471.0,0.0
-5.022535,-11.416157,-4.165904,-34.16,-26.32,29.049999,1729429001492.0,0.0
-4.307081,-11.980864,-5.87438,-3.36,-17.639999,15.12,1729429001511.0,0.0
-4.864608,-9.801002,-5.773881,-30.030001,-5.32,-9.52,1729429001533.0,0.0
-4.311867,-6.78126,-8.161918,-60.760002,10.78,-9.38,1729429001551.0,0.0
-5.192425,-5.407779,-13.978869,-149.940002,37.52,-2.73,1729429001572.0,0.0
-3.007778,-10.774881,-15.687346,-156.800003,76.860001,4.55,1729429001592.0,0.0
-6.843473,-13.550553,-8.693125,-37.869999,131.25,-13.37,1729429001612.0,0.0
-3.541377,-10.293922,4.192225,95.059998,136.639999,-34.580002,1729429001633.0,0.0
5.52742,-0.22014,7.54457,-37.170002,67.550003,-21.629999,1729429001652.0,0.0
7.001399,-6.259624,8.413164,45.709999,-6.65,33.459999,1729429001671.0,0.0
-4.890929,-19.176081,-0.380459,48.580002,-31.01,39.130001,1729429001691.0,0.0
-4.204189,-11.152946,-2.438286,35.98,-52.009998,7.35,1729429001713.0,0.0
-0.665205,-7.491928,-4.673182,18.41,-59.639999,5.18,1729429001732.0,0.0
-1.820938,-8.757731,-4.156333,7.07,-72.800003,12.81,1729429001752.0,0.0
-2.431108,-7.523034,-4.826324,41.09,-81.199997,23.52,1729429001772.0,0.0
-6.470192,-7.238289,-8.207381,-24.290001,-63.700001,1.19,1729429001791.0,0.0
-8.927622,-10.585848,-13.119846,-89.809998,-22.26,-6.44,1729429001814.0,0.0
-10.473385,-5.132604,-14.72543,-121.870003,46.060001,-33.950001,1729429001838.0,0.0
0.914058,-8.4012,-7.415358,-57.889999,73.010002,-13.58,1729429001852.0,0.0
-4.201797,-6.080163,-5.659025,-20.440001,98.980003,-29.82,1729429001873.0,0.0
-1.646262,-4.814359,-4.61097,-61.32,88.970001,-26.950001,1729429001898.0,0.0
3.354738,-3.364309,-2.694318,-72.239998,72.730003,-13.09,1729429001914.0,0.0
5.201996,-6.903293,5.907879,36.119999,42.98,42.700001,1729429001933.0,0.0
-3.163311,-14.323436,0.002393,133.699997,-4.69,64.68,1729429001952.0,0.0
-4.398008,-11.251052,-3.95055,31.710001,-60.830002,9.94,1729429001971.0,0.0
-1.404587,-9.724431,-5.065606,-5.39,-72.800003,-5.39,1729429001992.0,0.0
-2.182254,-8.195417,-4.005585,-1.54,-80.080002,1.89,1729429002013.0,0.0
-4.922036,-11.148161,-7.221539,26.950001,-74.690002,8.75,1729429002036.0,0.0
-6.893722,-8.762517,-6.422336,20.860001,-61.040001,-0.35,1729429002057.0,0.0
-5.986843,-9.372685,-10.135997,-71.190002,-38.920002,-14.7,1729429002072.0,0.0
-7.077969,-10.492528,-16.182659,-114.029999,2.38,-28.49,1729429002092.0,0.0
-5.362316,-3.125026,-15.842879,-148.75,68.739998,-33.18,1729429002116.0,0.0
-2.18704,-8.355737,-14.359328,-108.290001,104.720001,5.04,1729429002135.0,0.0
-2.878566,-9.702895,-5.9342,18.48,137.830002,0.77,1729429002153.0,0.0
-2.053042,-3.9673,3.596412,60.27,123.410004,-16.59,1729429002172.0,0.0
1.59362,-3.754339,3.349952,-13.86,60.900002,-25.200001,1729429002195.0,0.0
7.06122,-4.838287,6.711867,47.32,-1.33,11.13,1729429002213.0,0.0
-4.460221,-13.677374,-2.115255,80.43,-35.91,36.889999,1729429002239.0,0.0
-2.656033,-10.387242,-4.421937,51.939999,-87.290001,17.85,1729429002254.0,0.0
-2.005185,-7.659425,-6.058627,36.189999,-83.650002,11.55,1729429002274.0,0.0
-2.766103,-7.843673,-4.931608,-19.74,-86.590004,15.75,1729429002293.0,0.0
-5.115855,-11.205588,-9.08794,-14.07,-86.099998,14.07,1729429002314.0,0.0
-7.984849,-4.833502,-7.915457,-10.15,-59.990002,-16.66,1729429002336.0,0.0
-5.173282,-7.936993,-13.043276,-90.090004,-32.970001,-20.790001,1729429002356.0,0.0
-5.288138,-3.955336,-16.297516,-157.080002,14.07,-18.83,1729429002374.0,0.0
-1.899901,-6.436693,-16.273586,-88.269997,51.380001,6.72,1729429002393.0,0.0
-3.208775,-8.772088,-10.34178,48.860001,98.769997,18.76,1729429002413.0,0.0
-3.665804,-4.244867,-7.750352,93.449997,127.610001,-5.6,1729429002434.0,0.0
-0.162712,-10.013963,1.143769,-16.379999,106.330002,-3.22,1729429002453.0,0.0
5.642276,-6.448657,7.515855,122.57,52.150002,15.4,1729429002472.0,0.0
1.507478,-5.759524,8.559127,245.210007,11.2,48.09,1729429002493.0,0.0
-6.62094,-15.400207,-0.569492,24.360001,-49.700001,14.49,1729429002513.0,0.0
-0.993021,-11.413764,-5.804988,27.58,-71.120003,14.91,1729429002534.0,0.0
-1.014557,-7.257431,-2.9336,29.26,-58.029999,16.73,1729429002552.0,0.0
-3.256632,-8.437093,-3.902694,24.710001,-81.480003,33.599998,1729429002573.0,0.0
-6.690332,-9.286544,-6.960721,-1.75,-86.449997,31.5,1729429002592.0,0.0
-4.697111,-8.374879,-11.837293,-81.340004,-59.290001,3.71,1729429002618.0,0.0
-7.881958,-11.547763,-16.091732,-144.830002,-13.440001,-3.01,1729429002634.0,0.0
-7.738388,-7.759924,-17.175682,-143.080002,56.490002,-22.82,1729429002653.0,0.0
-3.436093,-6.776474,-16.278372,-76.720001,110.040001,-7.21,1729429002674.0,0.0
-3.364309,-7.379465,-12.306287,-48.93,158.339996,-13.16,1729429002693.0,0.0
-1.282553,-9.71486,1.033699,2.66,160.580002,-8.89,1729429002713.0,0.0
4.625326,-0.512064,11.145767,144.059998,107.099998,-2.59,1729429002735.0,0.0
1.813759,-3.431308,13.856836,198.240005,15.75,55.02,1729429002753.0,0.0
-8.250452,-16.163517,1.294517,-47.040001,-58.240002,-3.29,1729429002773.0,0.0
-2.921637,-10.009177,-4.491328,-44.099998,-96.669998,-5.18,1729429002793.0,0.0
0.557528,-7.676175,-7.709675,-16.940001,-100.870003,-0.77,1729429002816.0,0.0
-2.256432,-6.932007,-7.84128,-51.029999,-90.019997,7.0,1729429002834.0,0.0
-6.352944,-10.8682,-9.820145,-52.5,-81.900002,3.78,1729429002854.0,0.0
-4.555934,-7.168896,-11.825329,-38.990002,-55.09,-3.71,1729429002873.0,0.0
-6.735795,-9.856036,-16.297516,-46.41,-10.5,-10.22,1729429002893.0,0.0
-4.393222,-7.539784,-16.543976,-62.93,72.449997,-14.14,1729429002915.0,0.0
-3.706482,-9.166903,-10.200603,85.050003,138.529999,25.34,1729429002935.0,0.0
-4.206582,-4.036692,-4.438686,127.400002,171.149994,-4.97,1729429002953.0,0.0
-0.545564,-5.74756,3.852444,20.93,100.800003,-2.31,1729429002974.0,0.0
5.56092,-3.713661,14.136796,64.190002,29.049999,-5.53,1729429002993.0,0.0
-0.885344,-7.726424,3.615555,122.989998,-46.619999,34.580002,1729429003014.0,0.0
-9.329616,-16.555939,-2.474179,-34.09,-93.660004,-11.55,1729429003036.0,0.0
-1.969293,-9.439686,-8.470592,-5.53,-97.720001,-13.440001,1729429003053.0,0.0
-0.428315,-7.49432,-7.159326,0.77,-88.410004,1.33,1729429003073.0,0.0
-1.057628,-6.565905,-5.039285,19.460001,-85.540001,11.83,1729429003093.0,0.0
-3.84048,-7.140182,-5.85763,39.060001,-87.360001,17.57,1729429003113.0,0.0
-5.395815,-10.990234,-8.518449,-0.84,-79.590004,7.63,1729429003133.0,0.0
-6.884151,-8.815158,-11.846866,-83.790001,-32.060001,-17.99,1729429003153.0,0.0
-10.025927,-10.727024,-15.622739,-173.389999,17.15,-31.15,1729429003173.0,0.0
-2.818745,-7.45125,-14.129619,-70.489998,67.199997,-24.01,1729429003193.0,0.0
-2.536392,-3.256632,-12.349358,26.67,129.289993,-17.57,1729429003214.0,0.0
-2.22054,-8.063812,-1.351945,27.23,134.259995,-2.52,1729429003234.0,0.0
0.356531,-5.771489,1.545763,43.68,76.510002,-20.719999,1729429003253.0,0.0
5.185246,-1.615155,13.636696,86.660004,6.44,19.389999,1729429003273.0,0.0
-5.020142,-10.58824,1.359123,10.71,-42.700001,12.39,1729429003293.0,0.0
-5.130211,-13.007384,-5.886343,-44.73,-85.330002,-5.18,1729429003314.0,0.0
0.837488,-7.609176,-7.37468,9.45,-85.75,-10.36,1729429003334.0,0.0
-1.143769,-6.427122,-5.862415,-27.09,-76.440002,-3.78,1729429003359.0,0.0
-4.919643,-9.903893,-9.980463,-93.099998,-75.809998,-10.57,1729429003372.0,0.0
-5.185246,-7.293324,-11.454442,-133.630005,-54.110001,-27.370001,1729429003393.0,0.0
-5.891129,-8.745767,-18.467806,-136.850006,-14.14,-31.08,1729429003413.0,0.0
-5.694918,-4.886144,-17.857635,-117.739998,78.959999,-24.639999,1729429003434.0,0.0
-1.514657,-7.322037,-12.177074,5.18,115.010002,26.460001,1729429003453.0,0.0
-3.479164,-6.939186,-3.529413,137.059998,150.779999,9.24,1729429003473.0,0.0
-2.108077,-3.768696,4.871787,99.120003,109.620003,12.81,1729429003493.0,0.0
2.876173,-5.525027,1.241875,10.99,48.369999,-8.33,1729429003513.0,0.0
6.594619,-2.998207,9.741181,107.379997,-0.28,40.32,1729429003534.0,0.0
-2.931208,-11.016556,-0.997807,116.199997,-30.66,54.32,1729429003556.0,0.0
-6.111269,-10.399208,-5.417351,55.02,-60.689999,32.34,1729429003573.0,0.0
-1.426122,-7.99442,-3.826123,13.3,-84.980003,22.469999,1729429003593.0,0.0
-4.917251,-9.530612,-6.013163,-8.12,-91.910004,5.11,1729429003613.0,0.0
-6.661618,-7.76471,-7.453642,-18.41,-77.0,-4.9,1729429003634.0,0.0
-4.228118,-7.738388,-10.803595,-68.529999,-54.389999,-17.85,1729429003654.0,0.0
-6.711867,-9.927821,-12.375679,-89.040001,-10.43,-22.75,1729429003673.0,0.0
-7.142576,-6.458229,-14.13919,-71.82,47.110001,-26.25,1729429003693.0,0.0
-2.751746,-5.809773,-12.134004,-61.740002,85.610001,-12.6,1729429003714.0,0.0
-3.328416,-4.934,-12.198609,-51.310001,129.779999,-12.46,1729429003734.0,0.0
-1.17009,-6.951149,-3.158526,-37.52,141.680008,-4.34,1729429003754.0,0.0
-1.512264,-3.888337,4.125226,66.919998,109.059998,5.39,1729429003772.0,0.0
2.222932,-4.208975,6.250053,60.830002,58.869999,-3.01,1729429003792.0,0.0
4.48415,-7.219146,7.001399,82.459999,-26.18,31.08,1729429003816.0,0.0
-5.063213,-12.461821,-1.904687,-10.57,-54.529999,-3.64,1729429003834.0,0.0
-3.005385,-9.580862,-7.147361,-37.310001,-89.389999,-4.2,1729429003853.0,0.0
-0.880559,-7.422535,-7.908278,-48.439999,-86.519997,-11.55,1729429003874.0,0.0
-1.533799,-7.858029,-6.597012,-55.369999,-82.389999,-7.7,1729429003892.0,0.0
-4.613362,-7.814958,-7.745567,10.15,-77.0,-0.98,1729429003913.0,0.0
-5.443672,-8.255238,-10.614561,-31.360001,-55.439999,-15.190001,1729429003943.0,0.0
-4.969893,-8.91805,-16.311872,-50.68,-16.73,-17.5,1729429003953.0,0.0
-7.673782,-6.252446,-19.357935,-99.75,64.050003,-19.18,1729429003973.0,0.0
-1.971686,-7.389036,-17.266607,-96.389999,114.730003,5.04,1729429003994.0,0.0
-1.344766,-7.087541,-9.052048,10.5,178.710007,11.55,1729429004016.0,0.0
-3.34038,-5.070391,3.818945,118.790001,171.149994,24.639999,1729429004035.0,0.0
2.486143,-6.407979,2.567499,42.209999,121.590004,-12.32,1729429004054.0,0.0
4.721039,-5.173282,14.170296,78.050003,43.049999,22.120001,1729429004073.0,0.0
-1.143769,-11.356337,-1.72044,63.209999,-36.119999,32.549999,1729429004093.0,0.0
-4.960321,-13.251451,-6.161518,20.440001,-64.330002,1.05,1729429004114.0,0.0
-0.847059,-9.303294,-9.090333,79.800003,-68.879997,3.08,1729429004134.0,0.0
-0.758525,-8.29113,-7.592427,52.639999,-60.200001,2.1,1729429004154.0,0.0
-1.691726,-8.700303,-5.812167,34.580002,-60.130001,-6.02,1729429004174.0,0.0
-2.347359,-8.482556,-2.218147,39.689999,-74.690002,-4.34,1729429004193.0,0.0
-3.129812,-8.178668,-4.905287,53.060001,-88.410004,-22.82,1729429004214.0,0.0
-4.072584,-9.169296,-7.652246,115.010002,-80.989998,-6.09,1729429004235.0,0.0
-6.357729,-8.097312,-5.462814,210.419998,-35.700001,21.559999,1729429004254.0,0.0
-6.312266,-7.982457,-4.488935,228.270004,-25.129999,26.18,1729429004274.0,0.0
-5.472386,-9.181261,-4.161119,228.339996,-23.030001,20.65,1729429004294.0,0.0
-3.838088,-9.370294,-4.436293,241.779999,-4.27,18.690001,1729429004315.0,0.0
-2.988636,-9.482756,-2.658426,292.25,7.84,16.59,1729429004337.0,0.0
-2.754139,-9.142976,0.59342,339.920013,41.650002,12.67,1729429004355.0,0.0
-2.440679,-9.949356,2.538785,340.76001,52.709999,-2.59,1729429004373.0,0.0
-0.59342,-10.80838,2.242075,351.820007,45.43,-15.54,1729429004394.0,0.0
-0.291924,-9.320045,3.328416,383.25,63.209999,-21.210001,1729429004416.0,0.0
-0.66999,-8.193025,4.034299,350.910004,65.730003,-29.049999,1729429004435.0,0.0
0.191426,-7.549356,4.34058,259.559998,67.830002,-28.35,1729429004455.0,0.0
-1.131805,-6.290731,8.147561,114.870003,61.740002,-17.15,1729429004474.0,0.0
-4.613362,-9.329616,9.784252,-246.960007,31.360001,-2.66,1729429004504.0,0.0
-3.728018,-11.442478,3.046063,-720.090027,-1.68,-20.58,1729429004516.0,0.0
-0.624527,-12.758532,-0.081356,-949.830017,-32.48,-134.259995,1729429004535.0,0.0
-3.608376,-5.883951,2.467,-703.98999,-27.860001,-138.180008,1729429004554.0,0.0
-5.06082,-4.316652,-0.069392,-594.440002,-30.030001,-136.850006,1729429004574.0,0.0
-3.591627,-7.15454,-7.427321,-468.019989,-34.16,-104.160004,1729429004594.0,0.0
-2.880959,-6.192625,-9.262616,-299.529999,-21.35,-65.379997,1729429004615.0,0.0
-1.325624,-4.639683,-9.980463,-91.980003,-13.86,-31.43,1729429004637.0,0.0
-0.136391,-2.526821,-12.263215,152.110001,-4.2,6.79,1729429004659.0,0.0
-0.9667,-5.532206,-11.705689,377.160004,21.700001,56.209999,1729429004674.0,0.0
-1.926222,-5.266603,-8.678767,602.210022,37.66,79.239998,1729429004694.0,0.0
-4.632504,-2.880959,-2.507678,885.5,38.779999,120.190002,1729429004715.0,0.0
-3.06042,-2.895315,5.465207,1012.900024,-8.05,76.160004,1729429004735.0,0.0
-1.428515,-6.762117,14.596218,919.799988,20.93,3.15,1729429004754.0,0.0
-4.735396,-10.298709,12.772887,581.840027,-19.389999,-46.41,1729429004774.0,0.0
2.605784,-13.62234,5.759524,323.329987,-36.68,-38.990002,1729429004794.0,0.0
2.919244,-6.635297,5.321638,225.960007,23.24,-39.759998,1729429004819.0,0.0
-0.495314,-2.98385,7.623533,89.25,38.920002,-28.07,1729429004837.0,0.0
-1.18684,-8.709875,4.500899,-134.820007,2.38,-1.68,1729429004854.0,0.0
-3.67059,-6.412765,7.164111,-557.340027,7.42,10.5,1729429004925.0,0.0
-4.515256,-9.396614,3.235096,-870.030029,1.68,7.63,1729429004927.0,0.0
1.019342,-13.363914,1.986043,-963.410034,-12.74,-54.950001,1729429004929.0,0.0
-2.036292,-7.77428,4.237689,-863.309998,-9.66,-110.599998,1729429004944.0,0.0
-3.148954,-2.598605,-2.512464,-746.200012,-64.75,-123.340004,1729429004955.0,0.0
-7.015756,-0.868595,-8.685946,-388.220001,-66.709999,-52.360001,1729429004973.0,0.0
-4.666004,-3.440879,-13.708481,-20.02,-19.110001,5.74,1729429004994.0,0.0
-2.816352,-11.078769,-12.813565,303.100006,10.36,66.220001,1729429005015.0,0.0
-2.134398,-8.52802,-8.008778,612.849976,30.73,75.739998,1729429005035.0,0.0
-1.56012,-4.259224,0.808774,821.099976,31.360001,84.699997,1729429005054.0,0.0
0.07657,-5.74756,4.010371,857.5,-7.77,41.860001,1729429005074.0,0.0
1.22034,-4.991428,5.771489,831.669983,39.689999,18.27,1729429005094.0,0.0
-0.205783,-5.63749,8.95155,684.669983,57.959999,-1.47,1729429005114.0,0.0
-2.459821,-8.190632,13.146168,446.390015,38.43,-10.29,1729429005136.0,0.0
-3.574877,-7.9011,13.136597,249.690002,28.77,0.98,1729429005154.0,0.0
-1.265803,-7.106683,5.125426,31.290001,10.29,3.15,1729429005173.0,0.0
-0.090927,-11.124231,5.285746,-212.100006,1.89,3.64,1729429005194.0,0.0
-4.283153,-10.865808,5.996413,-615.650024,24.710001,-3.36,1729429005214.0,0.0
-5.237889,-12.449856,5.584848,-836.289978,8.82,-27.65,1729429005235.0,0.0
0.026321,-12.626925,2.620141,-799.049988,-41.860001,-82.25,1729429005254.0,0.0
-1.457229,-6.288338,4.134798,-535.5,-18.129999,-99.190002,1729429005274.0,0.0
-5.216353,0.425922,1.847259,-455.910004,-2.31,-96.32,1729429005294.0,0.0
-2.816352,-5.276174,-6.745367,-366.940002,-59.990002,-72.309998,1729429005314.0,0.0
-2.050649,-7.530212,-9.444471,-35.209999,-45.779999,-6.72,1729429005335.0,0.0
-1.328017,-6.333801,-8.470592,317.589996,5.39,43.959999,1729429005354.0,0.0
-1.74676,-5.010571,-4.268795,539.070007,21.700001,76.510002,1729429005374.0,0.0
-1.497907,-6.125626,2.57707,727.650024,14.35,87.849998,1729429005393.0,0.0
0.842274,-5.682954,6.809973,864.780029,23.379999,52.639999,1729429005414.0,0.0
-3.474378,-6.89133,9.918249,863.660034,62.439999,1.4,1729429005435.0,0.0
-1.062413,-7.398607,13.119846,716.799988,93.239998,-3.71,1729429005454.0,0.0
-3.732803,-11.4018,10.954341,428.190002,49.279999,-9.73,1729429005473.0,0.0
-1.897508,2.069792,9.671788,238.350006,76.230003,-17.639999,1729429005504.0,0.0
-1.234696,-2.732604,7.403394,-80.360001,6.44,19.530001,1729429005647.0,0.0
-2.505285,-12.124433,5.391029,-131.740005,-15.190001,11.2,1729429005649.0,0.0
-5.974878,-10.025927,7.71446,-294.0,45.57,-9.17,1729429005651.0,0.0
-6.848258,-6.853044,9.640682,-519.609985,23.030001,-13.23,1729429005662.0,0.0
-6.79083,-10.817951,10.246067,-613.690002,-27.09,-31.290001,1729429005677.0,0.0
-1.619941,-8.877372,5.498707,-639.590027,-44.380001,-64.120003,1729429005680.0,0.0
-0.557528,-4.316652,4.591826,-703.289978,-34.580002,-92.82,1729429005681.0,0.0
-3.323631,-5.953342,1.213161,-718.130005,-47.599998,-106.050003,1729429005690.0,0.0
-2.333002,-8.652447,-5.448457,-446.529999,-74.620003,-97.230003,1729429005692.0,0.0
-2.816352,-1.217947,-6.034698,-38.849998,-16.17,-10.71,1729429005693.0,0.0
-5.242674,-6.405586,-4.259224,185.430008,19.040001,41.509998,1729429005713.0,0.0
-4.945964,-12.768101,-3.701697,339.98999,-1.33,44.869999,1729429005734.0,0.0
-2.163112,-10.581062,-0.459422,548.450012,-1.89,43.959999,1729429005752.0,0.0
-2.206182,-10.327423,5.508278,667.169983,34.509998,11.97,1729429005776.0,0.0
-2.852244,-12.169895,7.740781,647.849976,29.889999,-32.689999,1729429005792.0,0.0
0.648455,-8.781659,5.56092,591.570007,31.290001,-55.299999,1729429005816.0,0.0
1.79701,-5.005785,4.881358,556.5,71.75,-49.07,1729429005834.0,0.0
-1.143769,0.059821,11.188839,418.880005,64.050003,-49.0,1729429005854.0,0.0
-2.129612,0.392423,10.829915,147.490005,29.82,-18.41,1729429005873.0,0.0
-3.479164,-7.738388,7.046863,-79.379997,-19.879999,-0.35,1729429005894.0,0.0
-1.739582,-10.8682,4.63729,-192.710007,-11.41,-9.1,1729429005914.0,0.0
-3.266203,-10.542776,6.982256,-378.839996,15.54,-8.33,1729429005936.0,0.0
-3.35713,-9.525827,5.735595,-617.539978,1.05,-16.17,1729429005954.0,0.0
-4.62054,-7.401,6.893722,-724.919983,-7.07,-22.960001,1729429005974.0,0.0
-3.266203,-5.572884,7.795816,-758.590027,-15.33,-47.599998,1729429005993.0,0.0
-0.394816,-3.931407,4.441079,-770.97998,-37.310001,-105.910004,1729429006013.0,0.0
-2.897708,-2.115255,-2.273181,-798.77002,-61.529999,-124.25,1729429006035.0,0.0
-3.541377,-5.496314,-8.575876,-672.48999,-86.239998,-115.290001,1729429006054.0,0.0
-4.426722,-5.558527,-10.782058,-309.540009,-58.099998,-43.049999,1729429006073.0,0.0
-2.885744,-6.101698,-11.057234,109.129997,-20.09,24.639999,1729429006103.0,0.0
-2.469393,-8.35813,-8.834301,337.679993,9.52,61.389999,1729429006117.0,0.0
-1.555335,-9.23151,-5.118248,467.390015,13.51,74.900002,1729429006135.0,0.0
1.074377,-6.008378,-0.794417,599.900024,6.09,75.879997,1729429006155.0,0.0
0.674776,-6.996613,1.663012,778.330017,20.93,61.740002,1729429006174.0,0.0
-3.656233,-4.082155,10.021141,842.169983,47.25,8.75,1729429006196.0,0.0
-5.161318,-0.794417,15.976876,771.470032,65.940002,22.26,1729429006215.0,0.0
-4.795217,-6.092126,11.964113,476.769989,21.84,5.95,1729429006236.0,0.0
-1.423729,-9.150154,8.815158,214.339996,7.0,17.01,1729429006255.0,0.0
-2.708675,-9.329616,5.072784,-73.57,9.52,-0.63,1729429006275.0,0.0
-1.825724,-11.533404,5.087141,-334.320007,-4.48,0.07,1729429006297.0,0.0
-3.754339,-9.360723,8.051848,-707.630005,20.09,10.36,1729429006315.0,0.0
-2.665605,-10.253245,4.285545,-1090.810059,-42.84,-16.24,1729429006343.0,0.0
3.014957,-13.722836,3.364309,-1160.180054,-88.199997,-113.260002,1729429006356.0,0.0
-6.099305,-6.221339,9.523434,-868.77002,-55.16,-115.57,1729429006375.0,0.0
-6.240481,-0.693919,-0.464208,-757.820007,-72.519997,-170.940002,1729429006395.0,0.0
-3.495914,-0.136391,-7.759924,-520.309998,-92.050003,-138.740005,1729429006415.0,0.0
-4.520042,-3.081956,-14.904892,-197.190002,-80.849998,-52.709999,1729429006436.0,0.0
-3.823731,-4.977071,-16.113268,75.669998,-39.060001,9.8,1729429006456.0,0.0
-2.440679,-4.644469,-9.966106,330.540009,6.44,52.920002,1729429006474.0,0.0
-1.586441,-6.147161,-6.041877,595.97998,22.190001,108.360001,1729429006495.0,0.0
-0.42353,-6.606583,-4.067799,729.75,25.969999,107.660004,1729429006516.0,0.0
-0.191426,-6.82433,-1.339981,763.070007,51.869999,84.209999,1729429006536.0,0.0
-1.201197,-6.728617,2.105684,733.809998,72.870003,46.130001,1729429006555.0,0.0
-0.107677,-9.253045,10.315458,674.940002,85.190002,4.2,1729429006575.0,0.0
-4.476971,-1.569692,11.219944,584.220032,85.260002,-17.219999,1729429006594.0,0.0
-5.443672,-3.347559,11.796617,445.480011,59.290001,19.879999,1729429006615.0,0.0
-5.316852,-9.408579,7.156933,163.169998,50.889999,5.6,1729429006636.0,0.0
-3.428915,-10.202995,6.293124,-340.619995,32.689999,-0.77,1729429006657.0,0.0
-3.211168,-8.437093,3.440879,-809.830017,11.69,18.690001,1729429006675.0,0.0
-2.514857,-16.821545,2.612962,-1099.48999,-1.19,-33.040001,1729429006695.0,0.0
-0.524028,-11.260624,7.724032,-1189.650024,-13.58,-166.110001,1729429006715.0,0.0
-7.257431,0.26321,3.799802,-1078.140015,-78.330002,-194.740005,1729429006735.0,0.0
-6.752545,1.787439,-5.702096,-845.390015,-94.57,-205.660004,1729429006755.0,0.0
-4.723432,2.579463,-13.519447,-371.559998,-65.379997,-130.339996,1729429006775.0,0.0
-3.854837,-1.258625,-16.857435,56.77,-27.51,-10.57,1729429006794.0,0.0
-2.100898,-6.503692,-14.00519,219.729996,14.98,10.36,1729429006818.0,0.0
-2.550749,-5.345565,-10.736595,372.329987,40.110001,14.91,1729429006836.0,0.0
-2.667997,-5.161318,-7.133004,497.279999,36.189999,50.259998,1729429006855.0,0.0
-2.421536,-6.269196,-4.658825,696.080017,21.0,77.769997,1729429006876.0,0.0
-1.871187,-5.587241,-0.545564,855.539978,43.82,64.540001,1729429006894.0,0.0
-1.143769,-4.771288,3.046063,871.98999,57.260002,19.6,1729429006915.0,0.0
-0.9667,-4.12044,5.848059,791.070007,78.889999,2.45,1729429006937.0,0.0
-0.066999,-2.285146,9.293723,621.179993,66.849998,-13.37,1729429006955.0,0.0
-8.523234,-5.13739,19.247866,439.110016,46.970001,19.530001,1729429006974.0,0.0
-7.992027,-12.646068,12.739388,40.389999,-12.46,-4.13,1729429006994.0,0.0
-0.425922,-7.927422,6.02752,-339.640015,-35.139999,-1.75,1729429007015.0,0.0
-1.734797,-11.485549,2.878566,-643.720032,-23.52,5.67,1729429007035.0,0.0
-1.509871,-11.583653,0.787239,-925.539978,6.93,-39.130001,1729429007055.0,0.0
-1.529014,-12.335001,4.185047,-1047.550049,10.08,-116.970001,1729429007074.0,0.0
-3.639483,-7.300502,5.694918,-900.549988,-37.52,-141.470001,1729429007094.0,0.0
-5.580062,-3.510271,-1.150948,-756.210022,-73.080002,-181.020004,1729429007117.0,0.0
-2.371287,0.4666,-8.037491,-552.650024,-86.309998,-179.199997,1729429007138.0,0.0
-4.15394,-1.607977,-14.488542,-16.940001,-42.560001,-57.119999,1729429007154.0,0.0
-3.086741,-3.37388,-14.986248,266.700012,4.76,-0.35,1729429007174.0,0.0
-3.208775,-4.309474,-12.610175,470.959991,35.279999,47.040001,1729429007194.0,0.0
-2.823531,-5.575277,-9.408579,628.599976,39.34,82.459999,1729429007214.0,0.0
-2.242075,-5.144568,-4.015156,738.359985,45.009998,93.660004,1729429007237.0,0.0
-2.818745,-5.383851,0.588634,733.039978,58.099998,70.139999,1729429007254.0,0.0
-2.87378,-5.733203,3.113062,665.070007,54.740002,27.65,1729429007274.0,0.0
0.043071,-6.52762,4.481757,603.679993,63.0,4.55,1729429007295.0,0.0
0.571885,-1.895115,9.561719,519.190002,54.040001,-14.84,1729429007314.0,0.0
-4.718646,-1.65344,14.902499,407.820007,45.290001,19.460001,1729429007335.0,0.0
-6.142376,-10.995021,8.752945,210.490005,-9.03,20.370001,1729429007355.0,0.0
-0.866202,-8.042276,4.74736,98.419998,3.29,24.57,1729429007374.0,0.0
-0.947558,-5.087141,4.991428,-22.049999,27.719999,23.799999,1729429007395.0,0.0
-3.550949,-9.140583,4.512863,-156.729996,15.190001,36.82,1729429007415.0,0.0
-2.85703,-9.846465,5.931807,-217.979996,39.34,34.790001,1729429007446.0,0.0
-4.376472,-10.794022,6.809973,-411.179993,45.779999,11.41,1729429007454.0,0.0
-4.199404,-9.918249,5.213961,-760.200012,26.25,-32.060001,1729429007474.0,0.0
-1.117448,-7.039684,0.87338,-1241.23999,-19.110001,-142.169998,1729429007494.0,0.0
-4.168297,-8.039884,-0.722632,-1154.02002,-69.860001,-171.360001,1729429007515.0,0.0
-4.003192,0.806381,-5.410172,-867.859985,-57.610001,-161.979996,1729429007537.0,0.0
-4.673182,5.144568,-15.955342,-455.630005,-31.57,-86.590004,1729429007554.0,0.0
-0.89013,1.734797,-22.68396,-120.82,14.84,31.710001,1729429007574.0,0.0
1.916651,-3.622734,-16.764114,80.360001,81.410004,74.970001,1729429007595.0,0.0
-1.655833,-2.096112,0.454636,67.830002,86.379997,38.43,1729429007615.0,0.0
-1.004985,-7.506285,-1.878366,-154.350006,24.639999,-10.99,1729429007636.0,0.0
-1.045663,-6.472585,-6.080163,-162.960007,-3.5,-32.900002,1729429007655.0,0.0
-1.11027,-5.211568,-10.186246,-120.260002,-12.88,-37.799999,1729429007675.0,0.0
-1.844866,-5.580062,-10.671989,-92.959999,-10.08,-29.26,1729429007694.0,0.0
-2.005185,-3.407379,-10.423136,-44.099998,-14.42,-32.48,1729429007715.0,0.0
-2.019542,-1.622334,-10.143176,-10.15,-18.83,-33.459999,1729429007737.0,0.0
-2.646462,-0.935594,-10.009177,0.35,-18.059999,-23.309999,1729429007754.0,0.0
-2.136791,-2.031506,-10.789237,23.309999,-12.32,-7.35,1729429007775.0,0.0
-1.160519,-3.531806,-11.899508,54.950001,-8.05,-3.64,1729429007794.0,0.0
-1.153341,-3.113062,-10.863414,120.400002,-2.24,1.19,1729429007818.0,0.0
-2.282753,-3.567699,-9.576077,282.730011,5.95,27.790001,1729429007837.0,0.0
-3.376273,-4.285545,-9.01137,418.179993,11.06,46.900002,1729429007854.0,0.0
-3.754339,-5.046463,-8.152347,579.950012,12.95,66.150002,1729429007874.0,0.0
-4.242475,-4.455436,-4.85743,723.380005,16.52,97.230003,1729429007894.0,0.0
-3.416951,-4.979464,-1.586441,756.349976,11.48,94.010002,1729429007914.0,0.0
-3.029313,-7.171289,0.792024,682.289978,3.64,67.900002,1729429007935.0,0.0
-1.974079,-8.738588,0.861416,593.880005,-1.61,36.75,1729429007954.0,0.0
-0.059821,-9.461221,1.667797,572.530029,26.880001,26.809999,1729429007974.0,0.0
-0.437887,-7.664211,3.26381,542.289978,67.760002,14.77,1729429007994.0,0.0
2.608176,-3.601198,7.283752,489.230011,89.389999,6.44,1729429008022.0,0.0
-11.686546,-0.770489,18.754944,313.600006,81.410004,18.48,1729429008037.0,0.0
-7.018148,-11.100305,9.200402,48.23,-43.540001,38.220001,1729429008054.0,0.0
-0.653241,-6.498906,2.65364,-9.03,-14.07,11.06,1729429008074.0,0.0
-2.608176,-9.243474,2.39043,-94.5,18.34,18.059999,1729429008094.0,0.0
-5.252246,-11.9689,5.405386,-316.679993,26.6,7.35,1729429008114.0,0.0
-5.673382,-12.765708,5.462814,-577.849976,33.880001,5.46,1729429008135.0,0.0
-3.146562,-3.414558,7.080362,-1092.209961,3.71,-168.699997,1729429008243.0,0.0
-5.405386,1.756332,-2.294717,-1124.900024,-68.809998,-217.139999,1729429008244.0,0.0
-5.302495,-4.275974,-10.861022,-847.419983,-63.560001,-171.570007,1729429008244.0,0.0
-3.20399,-1.543371,-16.084553,-239.75,-20.02,-84.07,1729429008244.0,0.0
-3.345166,-2.392823,-15.713666,139.300003,31.360001,0.56,1729429008269.0,0.0
-0.784846,-4.084548,-11.973685,238.630005,48.16,6.16,1729429008275.0,0.0
-0.835095,-4.151547,-6.754939,327.459991,45.849998,9.24,1729429008293.0,0.0
-1.445265,-3.359523,-5.513064,383.179993,41.720001,13.37,1729429008314.0,0.0
-1.679761,-5.355137,-6.034698,471.519989,32.130001,48.369999,1729429008406.0,0.0
-1.777867,-5.891129,-4.299902,579.320007,32.900002,62.580002,1729429008409.0,0.0
-2.62732,-6.257231,-1.634298,653.450012,22.190001,68.739998,1729429008411.0,0.0
-1.988436,-6.302694,0.842274,695.309998,18.41,51.52,1729429008414.0,0.0
-0.258425,-5.666204,2.840281,702.099976,48.720001,27.440001,1729429008416.0,0.0
0.332602,-4.828716,3.809374,627.340027,72.590004,23.17,1729429008438.0,0.0
-2.995814,-2.002793,12.076575,505.119995,49.560001,-8.61,1729429008454.0,0.0
-12.366108,-3.924229,22.236502,317.660004,47.950001,32.48,1729429008474.0,0.0
-0.18664,-6.702296,1.502693,-84.279999,-34.09,0.7,1729429008493.0,0.0
1.713261,-9.296116,3.213561,-342.579987,17.85,13.72,1729429008513.0,0.0
-5.304887,-12.445071,0.605384,-818.369995,28.630001,14.35,1729429008534.0,0.0
-3.151347,-17.97249,6.635297,-1056.02002,22.889999,-59.360001,1729429008553.0,0.0
-5.041678,-5.35753,9.181261,-1006.109985,2.8,-151.479996,1729429008573.0,0.0
-4.876573,5.32403,-2.548356,-1002.679993,-90.650002,-217.559998,1729429008594.0,0.0
-4.68754,5.814559,-8.367701,-730.169983,-75.25,-157.430008,1729429008615.0,0.0
-4.486543,-3.055635,-13.165311,-263.690002,-37.52,-34.369999,1729429008635.0,0.0
-1.584049,-8.470592,-11.459228,12.04,-11.9,15.4,1729429008654.0,0.0
-2.505285,-8.178668,-10.037891,52.43,-1.33,-10.36,1729429008674.0,0.0
-2.273181,-4.723432,-8.329416,39.200001,-7.0,-30.59,1729429008694.0,0.0
-2.500499,-5.972485,-7.410572,11.97,-8.75,-27.02,1729429008715.0,0.0
-2.651247,-7.601997,-7.999206,-11.55,-2.66,-20.23,1729429008739.0,0.0
-1.957329,-7.513463,-7.123433,21.77,-0.98,-10.85,1729429008754.0,0.0
-1.40698,-6.429514,-7.271788,34.580002,-3.78,-19.67,1729429008773.0,0.0
-0.624527,-5.771489,-7.436893,24.43,-10.99,-22.26,1729429008794.0,0.0
-0.078963,-5.953342,-8.080563,-1.54,-16.870001,-21.91,1729429008819.0,0.0
-0.311067,-5.946165,-8.79123,6.44,-14.98,-23.59,1729429008834.0,0.0
-0.949951,-5.410172,-8.930015,24.780001,-8.61,-21.35,1729429008854.0,0.0
-1.344766,-4.697111,-9.12144,35.84,-5.32,-16.17,1729429008873.0,0.0
-1.507478,-4.82393,-8.678767,38.57,-2.1,-9.45,1729429008893.0,0.0
-0.969093,-5.101498,-10.13839,59.43,0.56,-2.38,1729429008914.0,0.0
-2.151148,-3.907479,-14.421541,68.599998,21.49,7.07,1729429008937.0,0.0
-4.04387,-3.048456,-18.757338,-0.84,74.129997,22.889999,1729429008954.0,0.0
-2.404787,-3.524628,-19.338793,-76.230003,131.809998,47.110001,1729429008974.0,0.0
-3.515057,-8.606983,5.412565,-26.110001,159.740005,60.34,1729429008993.0,0.0
-5.953342,-9.521042,10.427922,-43.889999,82.599998,11.55,1729429009014.0,0.0
1.095913,-6.147161,-5.898308,-190.399994,11.27,-32.970001,1729429009035.0,0.0
3.364309,-8.099705,-6.271588,-120.190002,4.13,-11.13,1729429009053.0,0.0
3.182454,-12.605389,-0.035892,11.2,-8.05,18.620001,1729429009073.0,0.0
-1.72044,-6.532406,-5.419744,-24.219999,-40.670002,-25.200001,1729429009094.0,0.0
-4.515256,-4.62054,-10.303494,-86.940002,-62.860001,-29.82,1729429009114.0,0.0
0.07657,-8.463413,-12.540783,-111.720001,-65.590004,-36.75,1729429009135.0,0.0
-2.17029,-2.132005,-9.600004,-72.660004,-48.299999,-53.970001,1729429009154.0,0.0
-0.0335,-4.914857,-8.542377,-72.239998,-45.639999,-63.700001,1729429009173.0,0.0
-2.005185,-1.916651,-8.977871,-51.52,-41.650002,-73.150002,1729429009194.0,0.0
-2.447858,-0.476172,-10.224532,-44.099998,-34.369999,-62.510002,1729429009214.0,0.0
-4.165904,1.189233,-13.811372,-14.42,-21.49,-25.9,1729429009235.0,0.0
-6.85783,2.309074,-17.149361,69.019997,18.129999,30.66,1729429009253.0,0.0
-2.854637,-5.393422,-5.771489,147.419998,60.689999,84.279999,1729429009274.0,0.0
1.629512,-5.429315,-10.231709,46.27,44.170002,41.93,1729429009294.0,0.0
0.653241,1.177269,-8.82473,103.110001,40.599998,31.99,1729429009314.0,0.0
-0.167498,-2.67039,-0.105284,143.009995,29.960001,59.57,1729429009335.0,0.0
0.26321,-6.056234,-5.230711,-5.53,-14.63,41.09,1729429009353.0,0.0
-1.505085,-6.711867,-11.23191,-51.73,-25.27,45.009998,1729429009374.0,0.0
-1.741975,-10.942378,-7.439285,7.14,-9.17,51.310001,1729429009394.0,0.0
0.222532,-15.292529,-3.570091,57.260002,-21.280001,26.950001,1729429009413.0,0.0
-3.378666,-9.090333,-7.465607,-2.45,-39.970001,-36.540001,1729429009440.0,0.0
-1.270589,-7.389036,-9.805787,-78.260002,-44.52,-57.68,1729429009455.0,0.0
-0.086142,-7.508677,-6.735795,-95.900002,-36.049999,-58.310001,1729429009474.0,0.0
-2.849852,-4.508078,-8.678767,-62.510002,-39.970001,-59.220001,1729429009493.0,0.0
-2.667997,-3.160919,-11.779866,-31.5,-37.73,-51.380001,1729429009514.0,0.0
-6.393622,-0.392423,-13.265808,16.17,-10.71,-22.120001,1729429009534.0,0.0
-8.159525,0.545564,-17.331215,65.940002,30.870001,23.24,1729429009553.0,0.0
-3.15374,-0.299103,-9.700503,46.27,72.940002,47.18,1729429009573.0,0.0
-1.294517,-3.261417,-10.767702,-5.6,71.400002,40.599998,1729429009593.0,0.0
-2.256432,-0.105284,-10.147961,-12.88,80.43,27.58,1729429009613.0,0.0
0.995414,-3.591627,-0.681954,-26.460001,63.84,37.099998,1729429009635.0,0.0
-0.205783,-5.979663,-4.929214,-58.380001,37.029999,36.959999,1729429009653.0,0.0
3.613162,-9.355937,-1.392623,8.19,5.11,39.41,1729429009674.0,0.0
1.335195,-12.488142,-2.78046,58.170002,-31.290001,24.57,1729429009694.0,0.0
-2.945565,-11.727223,-9.937392,11.2,-58.66,-28.0,1729429009714.0,0.0
-3.347559,-7.338787,-8.831908,35.139999,-54.25,-37.59,1729429009734.0,0.0
-0.61017,-6.412765,-8.630912,7.07,-59.080002,-39.41,1729429009753.0,0.0
-0.641276,-4.898108,-8.429914,1.61,-63.77,-45.360001,1729429009774.0,0.0
-1.330409,-2.998207,-11.720046,11.2,-63.279999,-40.459999,1729429009793.0,0.0
-3.550949,-2.847459,-12.756138,-34.860001,-41.93,-40.529999,1729429009817.0,0.0
-7.759924,-0.971486,-17.812172,-27.51,-9.17,-9.66,1729429009834.0,0.0
-2.07697,-1.428515,-9.181261,19.879999,62.650002,39.689999,1729429009853.0,0.0
-1.883151,1.591227,-7.970492,-29.889999,68.739998,38.150002,1729429009923.0,0.0
-3.809374,-6.171089,-3.254239,-32.48,61.110001,55.650002,1729429009923.0,0.0
-1.06002,-1.378266,-12.748959,-9.52,47.459999,31.5,1729429009924.0,0.0
0.557528,-10.301102,-6.611369,40.599998,62.650002,62.439999,1729429009949.0,0.0
3.074777,-8.939585,0.842274,152.320007,42.139999,43.119999,1729429009961.0,0.0
0.22014,-7.958528,-1.40698,149.589996,1.68,22.190001,1729429009974.0,0.0
-1.272982,-10.569098,-10.001998,16.52,-36.119999,-17.08,1729429009993.0,0.0
-0.916451,-7.465607,-10.626525,41.580002,-31.360001,-24.219999,1729429010013.0,0.0
-1.347159,-4.859823,-6.348158,23.450001,-26.809999,-31.780001,1729429010034.0,0.0
-1.383051,-5.623133,-7.448857,-49.209999,-42.349998,-37.310001,1729429010053.0,0.0
-1.411765,-4.788038,-10.061819,-45.639999,-47.25,-41.650002,1729429010074.0,0.0
-3.199204,-1.385444,-10.30828,-45.150002,-37.029999,-36.610001,1729429010093.0,0.0
-5.07757,-3.113062,-12.409179,-84.629997,-16.799999,-18.48,1729429010114.0,0.0
-6.929615,-2.215754,-20.176279,-33.810001,17.219999,9.94,1729429010135.0,0.0
-0.107677,-6.788438,-5.639884,78.82,67.129997,49.07,1729429010153.0,0.0
-6.482157,-4.644469,-1.665405,70.0,60.200001,42.98,1729429010173.0,0.0
0.756132,-7.257431,-2.854637,45.779999,29.960001,42.209999,1729429010193.0,0.0
-1.026521,-7.726424,-10.162319,41.369999,20.02,38.290001,1729429010213.0,0.0
-0.026321,-7.379465,-7.235896,98.139999,25.9,48.09,1729429010234.0,0.0
0.971486,-7.793423,0.157926,122.779999,18.549999,47.880001,1729429010256.0,0.0
-1.050449,-11.236694,-0.667598,29.120001,-25.41,22.540001,1729429010273.0,0.0
-4.625326,-11.31805,-5.065606,-103.32,-59.849998,-34.790001,1729429010294.0,0.0
0.717847,-7.460821,-7.788638,-126.699997,-75.18,-56.91,1729429010313.0,0.0
-1.399801,-4.749753,-7.066005,-97.300003,-77.559998,-52.150002,1729429010333.0,0.0
-2.711068,-3.59402,-8.216952,-66.010002,-82.739998,-35.0,1729429010353.0,0.0
-5.4676,-5.053641,-12.260822,-74.340004,-75.389999,-28.77,1729429010380.0,0.0
-7.322037,-2.986243,-17.228323,-76.790001,-37.73,-14.28,1729429010393.0,0.0
-8.281559,-0.397209,-17.024933,-94.639999,32.970001,2.66,1729429010413.0,0.0
-2.665605,-3.519842,-12.969098,-53.27,74.199997,42.91,1729429010438.0,0.0
-3.677768,-0.270389,-9.865608,-49.560001,95.620003,53.830002,1729429010454.0,0.0
-1.308874,-9.157332,-0.600598,15.190001,78.75,72.029999,1729429010473.0,0.0
-0.464208,-3.830909,-4.393222,24.57,59.57,34.02,1729429010492.0,0.0
1.722832,-7.929814,1.071985,63.490002,20.23,17.710001,1729429010513.0,0.0
0.157926,-5.843273,-3.658626,51.029999,-33.25,-13.16,1729429010535.0,0.0
-1.741975,-7.537392,-8.197811,-5.88,-62.790001,-35.490002,1729429010552.0,0.0
-2.24686,-5.130211,-8.204988,-17.780001,-65.449997,-45.779999,1729429010573.0,0.0
-3.383451,-5.85763,-7.678568,-46.27,-66.5,-53.41,1729429010634.0,0.0
-3.471986,-3.668197,-9.336794,-26.32,-68.809998,-47.459999,1729429010634.0,0.0
-3.565305,-2.756532,-12.593425,-20.16,-58.799999,-37.170002,1729429010754.0,0.0
-3.574877,-1.48355,-15.914663,-24.43,-28.77,-20.51,1729429010757.0,0.0
-3.558127,-0.612563,-18.762121,-27.93,21.280001,-0.49,1729429010758.0,0.0
-4.07737,-0.696311,-15.689737,30.73,86.169998,31.360001,1729429010759.0,0.0
-3.227918,-3.220739,-1.85683,48.16,110.040001,49.560001,1729429010760.0,0.0
-3.249453,-11.710474,0.258425,-29.120001,63.630001,29.4,1729429010761.0,0.0
-1.48355,-8.360522,-4.254438,-33.18,18.969999,-10.64,1729429010763.0,0.0
-1.026521,-4.546363,-8.573483,8.47,4.34,-15.82,1729429010772.0,0.0
-1.928615,-5.69731,-9.987641,14.35,-1.26,-9.31,1729429010792.0,0.0
-1.68694,-4.182654,-7.977671,55.790001,-3.99,-0.98,1729429010817.0,0.0
-0.155533,-5.761917,-6.135197,40.459999,-13.09,-2.59,1729429010834.0,0.0
0.507278,-6.577869,-7.094719,29.610001,-36.610001,-10.92,1729429010852.0,0.0
-0.784846,-7.140182,-6.65444,9.73,-46.619999,-31.360001,1729429010871.0,0.0
-0.131605,-5.292924,-6.652047,-29.68,-62.580002,-43.610001,1729429010891.0,0.0
-5.015356,-8.944371,-3.07717,-47.880001,-61.599998,-48.16,1729429010912.0,0.0
-5.005785,-3.696911,-11.715261,-38.290001,-60.060001,-37.099998,1729429010932.0,0.0
-5.953342,-3.852444,-17.529818,-41.650002,-34.790001,-21.280001,1729429010953.0,0.0
-11.777473,0.107677,-19.01576,15.12,39.060001,6.44,1729429010971.0,0.0
-0.179462,-4.409972,-7.049256,49.490002,83.650002,39.48,1729429010991.0,0.0
-3.59402,2.146362,-13.454842,34.23,97.019997,22.4,1729429011013.0,0.0
-2.074577,-7.24786,2.924029,70.840004,95.199997,72.099998,1729429011032.0,0.0
1.572084,-4.376472,-7.063612,-17.43,62.299999,29.26,1729429011054.0,0.0
0.193819,-7.465607,-5.017749,-8.19,49.279999,44.59,1729429011072.0,0.0
2.885744,-8.757731,5.431707,56.490002,16.030001,38.220001,1729429011091.0,0.0
-1.615155,-9.631111,-4.835894,36.189999,-45.150002,3.01,1729429011112.0,0.0
-5.60399,-6.666404,-9.281759,-12.32,-56.279999,-37.450001,1729429011133.0,0.0
-2.067399,-3.680161,-7.377072,-62.02,-62.299999,-36.540001,1729429011152.0,0.0
-1.536192,-5.462814,-9.226725,-78.540001,-70.910004,-30.940001,1729429011172.0,0.0
-3.163311,-4.098906,-12.102897,-7.35,-73.919998,-36.400002,1729429011193.0,0.0
-4.173083,-2.45025,-13.550553,-5.46,-56.91,-26.74,1729429011214.0,0.0
-7.439285,-2.694318,-16.776079,-22.33,-16.870001,-3.08,1729429011235.0,0.0
-10.741381,-3.452843,-15.821342,-9.17,44.799999,31.99,1729429011252.0,0.0
-0.538385,-6.814759,-14.048263,78.889999,73.220001,51.029999,1729429011271.0,0.0
-6.625726,1.495514,-8.123632,73.010002,120.190002,45.990002,1729429011292.0,0.0
-1.359123,-5.438886,-0.997807,11.41,90.440002,75.949997,1729429011312.0,0.0
1.244268,-5.333601,-9.083155,-15.4,67.340004,53.200001,1729429011333.0,0.0
0.997807,-10.114462,-1.67019,50.330002,58.310001,52.080002,1729429011352.0,0.0
4.768896,-6.91765,6.819544,130.199997,15.05,50.189999,1729429011372.0,0.0
-2.206182,-9.035298,-5.221139,15.89,-45.43,-1.82,1729429011392.0,0.0
-4.285545,-10.597812,-7.039684,-12.18,-63.630001,-23.870001,1729429011412.0,0.0
0.866202,-5.132604,-6.829116,-45.220001,-80.150002,-45.080002,1729429011433.0,0.0
-0.87338,-4.051049,-8.973085,-100.029999,-93.730003,-60.27,1729429011453.0,0.0
-4.333402,-5.328816,-10.497313,-62.16,-100.099998,-55.720001,1729429011472.0,0.0
-4.960321,-4.474578,-12.090932,-12.25,-81.620003,-52.220001,1729429011492.0,0.0
-7.850852,-4.845466,-13.100704,41.439999,-55.369999,-10.78,1729429011514.0,0.0
-7.953743,-2.48375,-16.685152,36.470001,2.66,0.63,1729429011536.0,0.0
-2.622534,-0.677169,-16.642082,10.43,47.18,21.84,1729429011552.0,0.0
-7.704889,-2.859423,-15.816557,-48.509998,100.169998,36.82,1729429011572.0,0.0
-4.826324,-1.28016,-7.922636,-4.27,145.809998,48.580002,1729429011594.0,0.0
-3.038885,-7.89153,2.24686,25.059999,108.150002,58.310001,1729429011612.0,0.0
2.321038,-3.012564,-8.882158,-31.639999,82.25,24.92,1729429011635.0,0.0
2.067399,-10.827522,0.397209,74.480003,76.090004,41.860001,1729429011653.0,0.0
5.690133,-9.188439,8.9683,178.289993,9.87,34.860001,1729429011672.0,0.0
-2.179861,-8.051848,-4.074977,33.18,-47.740002,-23.870001,1729429011691.0,0.0
-3.168097,-10.995021,-5.426922,-13.09,-74.760002,-36.049999,1729429011712.0,0.0
0.811167,-6.740582,-5.465207,-6.09,-95.410004,-44.170002,1729429011734.0,0.0
-0.937986,-5.039285,-7.125826,-38.220001,-117.599998,-60.200001,1729429011752.0,0.0
-5.391029,-6.257231,-8.647661,-52.990002,-124.599998,-59.5,1729429011773.0,0.0
-10.286745,-8.779266,-15.306887,9.8,-98.489998,-48.16,1729429011796.0,0.0
-9.4349,-7.274181,-21.183661,191.940002,-35.84,-14.98,1729429011818.0,0.0
-7.288538,-6.888937,-13.210773,300.860016,41.299999,0.21,1729429011834.0,0.0
-4.663611,-5.546563,-10.463813,370.579987,67.760002,15.54,1729429011853.0,0.0
-4.551149,-5.699703,-8.032705,409.079987,87.639999,23.17,1729429011874.0,0.0
-3.883551,-5.922236,-3.385844,447.929993,96.459999,18.969999,1729429011892.0,0.0
-5.010571,-5.194818,-0.581456,445.269989,85.82,9.38,1729429011913.0,0.0
0.162712,-3.182454,0.768096,497.839996,40.389999,-14.14,1729429011932.0,0.0
0.696311,-2.177469,5.513064,562.099976,68.529999,5.88,1729429011955.0,0.0
-0.863809,-4.051049,7.355537,545.369995,43.68,8.4,1729429011973.0,0.0
0.119641,-4.723432,6.695118,546.140015,36.82,14.35,1729429011992.0,0.0
-1.194018,-4.515256,11.81815,527.23999,62.16,28.0,1729429012013.0,0.0
-7.9011,-7.597212,14.593824,263.829987,44.170002,12.46,1729429012033.0,0.0
-3.976871,-11.767902,9.693325,-81.269997,-39.130001,-1.82,1729429012052.0,0.0
-1.995614,-10.597812,7.286145,-119.209999,-31.01,-7.84,1729429012071.0,0.0
-2.294717,-5.831308,6.281159,-7.63,-23.1,-8.33,1729429012092.0,0.0
-3.931407,-5.761917,6.479764,14.14,-22.610001,-4.76,1729429012112.0,0.0
-1.935793,-9.600004,5.742774,-45.5,-34.299999,-8.54,1729429012137.0,0.0
-3.943372,-7.56132,3.680161,-68.18,-16.17,-10.01,1729429012154.0,0.0
-2.225325,-8.738588,3.285345,-68.110001,-10.01,-15.68,1729429012171.0,0.0
-1.531406,-4.831109,6.168696,53.34,9.52,-14.84,1729429012191.0,0.0
-2.720639,-5.632704,6.305088,8.75,0.28,-10.43,1729429012213.0,0.0
-3.570091,-8.937192,5.438886,-48.93,-10.36,-8.12,1729429012234.0,0.0
-4.09412,-8.930015,4.816752,-41.09,-3.29,-10.57,1729429012252.0,0.0
-3.991228,-6.216553,3.601198,-22.049999,10.64,-17.92,1729429012273.0,0.0
-4.421937,-7.01097,4.962714,-27.02,17.639999,-22.4,1729429012292.0,0.0
-3.393023,-7.439285,6.094519,-30.030001,20.790001,-21.280001,1729429012312.0,0.0
-4.400401,-8.370094,5.893522,-52.639999,24.85,-18.76,1729429012336.0,0.0
-4.321437,-9.463614,4.587041,-78.68,8.54,-30.309999,1729429012352.0,0.0
-3.201597,-6.958328,6.295516,-44.029999,23.940001,-30.030001,1729429012372.0,0.0
-2.751746,-5.800202,6.582655,10.64,1.54,-27.370001,1729429012392.0,0.0
0.820738,-4.118048,6.924829,122.639999,0.7,-23.1,1729429012412.0,0.0
-0.854238,-5.340781,8.10449,198.240005,14.07,-26.32,1729429012434.0,0.0
-0.634098,-6.853044,7.948956,265.649994,6.58,-17.92,1729429012451.0,0.0
-0.325424,-2.821138,8.468199,381.429993,52.009998,-19.809999,1729429012472.0,0.0
-1.105484,-3.378666,8.030313,353.850006,62.02,-21.49,1729429012491.0,0.0
-1.4668,-2.419144,10.475778,281.26001,73.779999,-23.379999,1729429012513.0,0.0
-4.297509,-4.441079,12.229716,99.400002,48.650002,-11.34,1729429012538.0,0.0
-2.050649,-4.792823,10.557133,64.260002,24.219999,-10.43,1729429012551.0,0.0
-1.012164,-6.89133,6.601797,12.74,18.48,-5.25,1729429012571.0,0.0
-3.455236,-13.983655,4.295116,-101.220001,11.9,-22.75,1729429012591.0,0.0
-4.331009,-12.404392,4.12044,-197.470001,56.77,-57.400002,1729429012613.0,0.0
-4.642076,-14.041083,11.330014,-383.179993,73.150002,-83.440002,1729429012639.0,0.0
0.31346,-9.195618,20.245674,-686.419983,55.16,-93.169998,1729429012652.0,0.0
-3.579663,0.198604,8.039884,-1057.0,0.63,-83.440002,1729429012673.0,0.0
-4.742575,-5.379066,4.905287,-1188.599976,-104.090004,-173.529999,1729429012694.0,0.0
-7.613962,1.945365,6.991827,-801.919983,-46.619999,-171.5,1729429012713.0,0.0
-4.039084,-4.541577,-1.103091,-538.580017,-89.389999,-132.369995,1729429012732.0,0.0
-4.177868,-9.308081,-13.517055,-470.470001,-85.540001,-117.25,1729429012752.0,0.0
-1.497907,-5.625526,-21.834507,-279.860016,-70.910004,-77.0,1729429012773.0,0.0
1.136591,-11.093125,-20.563917,295.75,-10.22,27.02,1729429012791.0,0.0
0.16989,0.37328,-7.156933,753.409973,109.760002,66.639999,1729429012816.0,0.0
-5.087141,1.540978,3.304488,846.22998,119.279999,155.539993,1729429012832.0,0.0
-0.512064,-7.221539,6.242875,801.570007,41.02,88.690002,1729429012852.0,0.0
2.344966,9.308081,6.482157,951.440002,99.540001,40.950001,1729429012963.0,0.0
-9.578469,7.025328,17.225931,755.929993,156.240005,90.790001,1729429012965.0,0.0
-5.869594,-13.718053,19.042084,292.600006,-6.86,80.43,1729429012966.0,0.0
-1.574477,-13.624733,10.191031,230.580002,-8.05,47.810001,1729429012968.0,0.0
-0.887737,-10.762917,9.870394,173.949997,-1.68,19.040001,1729429012970.0,0.0
0.512064,-11.806188,5.773881,49.700001,-15.82,-18.549999,1729429012973.0,0.0
-1.986043,-6.128019,5.572884,-5.88,12.88,-36.75,1729429012993.0,0.0
-7.085148,-4.929214,5.003392,-99.330002,3.92,-33.32,1729429013042.0,0.0
-6.642475,-9.597611,8.702696,-211.399994,-1.61,-35.07,1729429013044.0,0.0
-3.09392,-10.052249,8.85105,-454.580017,-9.66,-57.75,1729429013071.0,0.0
-1.37348,-4.35733,2.596212,-676.200012,-13.23,-60.549999,1729429013071.0,0.0
2.124826,-1.07677,4.146761,-622.650024,-22.960001,-53.619999,1729429013092.0,0.0
-4.756931,-6.82433,9.908678,-449.399994,9.1,-35.0,1729429013117.0,0.0
-6.343372,-4.9675,12.997812,-540.609985,-33.25,-38.709999,1729429013131.0,0.0
-5.190032,-7.623533,5.015356,-765.590027,-97.510002,-109.620003,1729429013157.0,0.0
-3.424129,-4.316652,-8.410772,-763.349976,-149.800003,-153.369995,1729429013171.0,0.0
0.4666,-9.422935,-20.233707,34.439999,-85.050003,-1.89,1729429013191.0,0.0
0.342174,-8.142776,-8.930015,635.809998,41.369999,65.169998,1729429013211.0,0.0
-5.175675,-1.765903,1.395016,812.97998,103.949997,134.680008,1729429013235.0,0.0
-1.328017,-8.240881,4.39083,757.400024,34.509998,62.299999,1729429013253.0,0.0
3.416951,4.364508,7.477571,817.73999,76.510002,29.33,1729429013271.0,0.0
-8.657232,13.835299,19.389042,659.26001,164.080002,110.459999,1729429013291.0,0.0
-5.79781,-13.706088,13.813765,265.019989,-50.189999,113.610001,1729429013312.0,0.0
-5.833702,-19.393827,9.382257,303.309998,2.38,54.880001,1729429013333.0,0.0
-1.404587,-10.655239,10.183852,235.899994,34.439999,6.65,1729429013356.0,0.0
2.531606,-8.630912,4.216154,49.349998,-5.46,-6.3,1729429013371.0,0.0
-2.438286,-5.209175,5.333601,-11.2,16.66,-1.19,1729429013391.0,0.0
-6.34098,-7.357929,6.089733,-66.43,3.15,2.1,1729429013413.0,0.0
-6.171089,-9.308081,7.204789,-147.839996,-0.63,-6.72,1729429013432.0,0.0
-6.740582,-9.913465,1.758725,-334.25,-8.75,-31.85,1729429013451.0,0.0
-6.479764,-14.065011,7.499106,-469.700012,23.940001,-59.57,1729429013472.0,0.0
1.579263,-7.4345,8.46102,-603.190002,36.610001,-71.959999,1729429013499.0,0.0
-1.694118,-8.599805,10.047462,-708.190002,26.18,-95.129997,1729429013511.0,0.0
-5.493921,-3.452843,10.69831,-752.710022,-10.22,-141.820007,1729429013533.0,0.0
-4.462614,-3.091527,3.725625,-629.51001,-60.200001,-147.070007,1729429013551.0,0.0
-2.323431,-4.053442,-5.245068,-340.899994,-90.580002,-114.449997,1729429013571.0,0.0
-0.902094,-5.067998,-11.358729,52.5,-71.75,-10.64,1729429013591.0,0.0
-1.418944,-7.099504,-5.453243,351.610016,-17.360001,76.370003,1729429013612.0,0.0
-4.386044,-5.383851,-1.363909,485.309998,-4.06,125.090004,1729429013632.0,0.0
-4.737789,-7.965706,1.06002,577.080017,-18.059999,127.610001,1729429013652.0,0.0
-5.9677,-14.766108,3.67059,702.030029,-11.62,78.470001,1729429013672.0,0.0
-4.685147,-12.966705,2.579463,805.419983,60.130001,-1.96,1729429013691.0,0.0
-1.651048,-9.262616,13.957335,769.51001,136.289993,-36.75,1729429013712.0,0.0
-11.892329,5.24746,18.750158,337.890015,80.5,1.75,1729429013732.0,0.0
1.325624,-12.270394,7.444071,79.379997,-99.889999,4.55,1729429013751.0,0.0
-2.306681,-1.947758,6.608976,227.149994,-3.64,-3.43,1729429013773.0,0.0
-2.596212,-7.063612,6.874579,128.940002,-5.88,6.58,1729429013791.0,0.0
-3.366701,-11.47837,4.699504,-36.540001,-10.92,-5.6,1729429013815.0,0.0
-4.457829,-10.619347,3.809374,-100.379997,4.76,-21.629999,1729429013834.0,0.0
-2.285146,-7.264609,6.118448,-211.610001,15.33,-42.209999,1729429013851.0,0.0
-2.615355,-10.274779,5.058427,-528.640015,9.31,-46.48,1729429013872.0,0.0
-0.114855,-1.667797,4.12044,-813.119995,3.01,-55.650002,1729429013891.0,0.0
-4.632504,-9.896714,11.399406,-929.599976,11.34,-99.470001,1729429013913.0,0.0
-4.551149,-6.664011,7.939385,-794.640015,-46.34,-155.820007,1729429013932.0,0.0
-6.611369,-7.290931,1.452443,-522.970032,-78.400002,-154.070007,1729429013952.0,0.0
-2.493321,-1.330409,-7.4345,-282.450012,-91.699997,-122.150002,1729429013972.0,0.0
-1.160519,-3.754339,-13.122239,-3.22,-59.150002,-24.639999,1729429013990.0,0.0
-1.4668,-11.298907,-8.171489,322.209991,-11.27,52.080002,1729429014013.0,0.0
-2.809174,-6.427122,-2.306681,553.630005,39.41,96.32,1729429014032.0,0.0
-1.430908,-3.802195,0.801596,619.710022,51.450001,116.340004,1729429014052.0,0.0
-3.268596,-10.348958,3.168097,650.090027,45.150002,82.599998,1729429014075.0,0.0
-2.713461,-5.594419,6.460621,772.799988,85.470001,35.279999,1729429014092.0,0.0
-7.178468,7.049256,20.745771,662.27002,181.720001,47.389999,1729429014111.0,0.0
-7.001399,-11.813366,13.842479,217.490005,-29.75,65.029999,1729429014133.0,0.0
2.9336,-12.016755,9.140583,155.330002,-50.75,27.23,1729429014152.0,0.0
-3.108276,-10.509278,6.628119,168.630005,-18.690001,17.43,1729429014170.0,0.0
-6.336195,-6.242875,6.094519,71.050003,-2.59,3.01,1729429014190.0,0.0
-7.348359,-8.102098,4.457829,-153.720001,-6.65,4.06,1729429014213.0,0.0
-3.113062,-11.645866,6.228518,-264.950012,8.96,-14.77,1729429014232.0,0.0
-0.028714,-8.38445,2.531606,-479.220001,16.309999,-31.99,1729429014252.0,0.0
-2.160719,-6.242875,8.781659,-696.429993,13.16,-32.41,1729429014271.0,0.0
-4.613362,-4.017549,9.095119,-929.880005,1.75,-70.139999,1729429014292.0,0.0
-4.632504,-4.115655,4.778467,-1026.619995,-38.220001,-151.270004,1729429014312.0,0.0
-5.268995,-4.498507,0.502493,-850.289978,-85.330002,-171.919998,1729429014332.0,0.0
-4.843073,-5.316852,-10.975878,-505.959991,-99.260002,-134.680008,1729429014352.0,0.0
-2.895315,-4.972286,-16.007982,-126.910004,-74.900002,-69.93,1729429014372.0,0.0
-2.799603,-4.096512,-14.952748,185.639999,-10.99,-4.62,1729429014391.0,0.0
-3.036492,-5.367101,-8.525627,345.170013,42.98,44.799999,1729429014411.0,0.0
-2.517249,-6.597012,-3.562913,417.059998,46.900002,84.769997,1729429014444.0,0.0
-1.868794,-7.448857,-1.79701,535.359985,36.959999,98.699997,1729429014451.0,0.0
-1.672583,-5.881558,3.065206,739.059998,47.670002,100.099998,1729429014471.0,0.0
-4.259224,-6.625726,10.578669,848.609985,52.5,66.150002,1729429014491.0,0.0
-0.854238,-3.584448,11.009377,843.080017,22.33,-3.57,1729429014511.0,0.0
-12.55514,-4.622933,12.942777,248.570007,87.360001,99.120003,1729429014542.0,0.0
2.012364,-19.704895,5.742774,118.720001,-141.330002,73.150002,1729429014551.0,0.0
-4.677969,-11.533404,9.769895,337.049988,14.35,22.33,1729429014570.0,0.0
-5.053641,-8.889337,9.355937,241.080002,29.75,2.66,1729429014590.0,0.0
-1.158126,-6.865008,6.802795,97.090004,0.98,-13.58,1729429014611.0,0.0
-2.608176,-5.776274,8.02792,92.120003,22.33,-24.219999,1729429014632.0,0.0
-4.216154,-7.580462,8.260024,19.809999,12.04,-26.040001,1729429014653.0,0.0
-6.250053,-7.190433,3.299703,-91.840004,-2.17,-33.950001,1729429014677.0,0.0
-3.031706,-4.328616,-0.193819,-215.949997,34.439999,-40.880001,1729429014691.0,0.0
1.868794,-7.755138,11.487941,-482.790009,62.580002,-53.619999,1729429014713.0,0.0
-7.077969,-7.020542,7.408179,-748.929993,21.84,-18.620001,1729429014732.0,0.0
-4.254438,-8.422735,13.842479,-998.690002,20.370001,-91.699997,1729429014751.0,0.0
-4.41715,-3.838088,9.10469,-1049.859985,-66.57,-182.770004,1729429014770.0,0.0
-5.716454,-2.012364,-0.976272,-784.280029,-86.099998,-180.320007,1729429014791.0,0.0
-2.392823,-2.931208,-10.470992,-490.839996,-85.610001,-163.869995,1729429014814.0,0.0
-3.842873,-10.181459,-13.232309,-183.680008,-51.939999,-69.860001,1729429014832.0,0.0
-1.866402,-6.453443,-8.30788,137.410004,-14.98,-20.02,1729429014853.0,0.0
-1.521835,-4.754539,-5.553742,461.230011,28.0,56.349998,1729429014926.0,0.0
-1.105484,-6.874579,-1.883151,612.01001,38.150002,98.910004,1729429014927.0,0.0
-2.907279,-5.986843,2.842674,773.289978,62.580002,105.980003,1729429014927.0,0.0
-2.76371,-6.618547,3.151347,869.049988,63.91,46.900002,1729429014936.0,0.0
1.761117,-3.292524,14.608182,904.679993,121.660004,-12.25,1729429014951.0,0.0
-15.287744,4.364508,22.530817,560.210022,146.300003,50.610001,1729429014971.0,0.0
-0.167498,-10.904092,10.478169,93.169998,-98.209999,42.490002,1729429014990.0,0.0
0.375673,-15.266209,4.986642,170.940002,-48.509998,22.610001,1729429015011.0,0.0
-2.330609,-7.286145,5.860023,167.089996,36.75,-6.93,1729429015032.0,0.0
-5.211568,-8.114061,3.007778,-162.330002,-6.02,-2.52,1729429015051.0,0.0
-4.890929,-9.226725,3.61077,-324.100006,-9.31,-9.66,1729429015070.0,0.0
-3.682554,-9.882358,7.616355,-475.230011,30.24,-33.040001,1729429015091.0,0.0
-0.404387,-3.735196,7.580462,-764.75,25.059999,-28.49,1729429015110.0,0.0
-0.600598,1.911865,6.424729,-1063.300049,-4.13,-69.090004,1729429015131.0,0.0
-3.337988,0.969093,-0.964308,-1078.209961,-64.889999,-124.739998,1729429015151.0,0.0
-4.096512,-7.79103,-4.744967,-720.299988,-87.43,-122.989998,1729429015170.0,0.0
-3.598805,-6.991827,-8.709875,-257.73999,-61.950001,-50.470001,1729429015190.0,0.0
-3.89073,-7.659425,-13.069597,51.310001,-33.110001,2.52,1729429015211.0,0.0
-3.199204,-8.068598,-9.006584,199.710007,-2.24,33.110001,1729429015231.0,0.0
-3.416951,-8.082954,-4.98425,379.190002,12.39,73.290001,1729429015251.0,0.0
-3.029313,-6.951149,-2.134398,564.76001,24.290001,102.760002,1729429015271.0,0.0
-3.433701,-6.199803,2.971886,716.169983,43.610001,109.059998,1729429015290.0,0.0
-5.577669,-10.700702,4.106083,772.72998,39.060001,55.790001,1729429015311.0,0.0
-3.48395,-10.25803,1.933401,803.669983,63.490002,-9.52,1729429015332.0,0.0
-1.237089,5.268995,16.819151,699.090027,155.330002,-21.139999,1729429015361.0,0.0
-9.109475,-1.564906,12.832708,233.240005,34.439999,44.59,1729429015370.0,0.0
-0.464208,-11.440084,5.828916,5.25,-61.670002,25.620001,1729429015394.0,0.0
-4.847858,-11.626726,5.45085,42.490002,16.24,11.55,1729429015413.0,0.0
-6.702296,-11.954542,6.831509,-234.080002,25.129999,-11.9,1729429015431.0,0.0
-4.161119,-11.815758,8.843873,-618.23999,3.99,-32.759998,1729429015451.0,0.0
-0.964308,-6.601797,9.497113,-877.52002,-2.17,-32.34,1729429015471.0,0.0
-2.347359,-2.096112,8.128418,-984.690002,-25.549999,-94.360001,1729429015490.0,0.0
-3.235096,-0.038285,3.952943,-931.419983,-65.029999,-146.860001,1729429015513.0,0.0
-5.56092,-5.391029,-5.814559,-702.099976,-92.330002,-139.229996,1729429015531.0,0.0
-8.056634,-6.594619,-15.582061,-316.959991,-77.769997,-73.919998,1729429015550.0,0.0
-5.376673,-10.19821,-17.520248,-48.860001,-47.110001,-45.150002,1729429015571.0,0.0
-1.871187,-6.530013,-11.461621,259.0,-1.12,-8.61,1729429015592.0,0.0
-3.524628,-2.608176,-8.26481,426.649994,46.549999,24.99,1729429015612.0,0.0
-3.862016,-7.659425,-2.947958,561.539978,25.9,87.150002,1729429015632.0,0.0
-2.598605,-7.484749,1.213161,816.130005,33.599998,67.129997,1729429015651.0,0.0
-4.811966,-8.29113,2.749353,917.559998,52.290001,28.42,1729429015671.0,0.0
-1.56012,-7.558927,1.141376,932.609985,67.269997,-44.799999,1729429015691.0,0.0
-15.670596,6.441479,17.178074,877.099976,178.990005,-39.830002,1729429015734.0,0.0
1.691726,-9.353544,9.097511,389.970001,109.199997,57.82,1729429015751.0,0.0
-3.388237,-7.838887,8.953942,101.5,-49.77,20.299999,1729429015770.0,0.0
-3.345166,-6.948757,8.171489,110.599998,42.279999,8.75,1729429015792.0,0.0
-4.658825,-9.305687,5.264209,-60.130001,24.92,4.55,1729429015814.0,0.0
-5.469993,-8.556733,7.211967,-149.029999,44.310001,-7.14,1729429015832.0,0.0
-5.733203,-6.565905,8.84148,-386.26001,44.380001,-24.92,1729429015851.0,0.0
-3.677768,-6.360123,9.848858,-719.109985,8.33,-31.639999,1729429015871.0,0.0
-2.62732,6.89133,4.589434,-1130.709961,15.96,-66.5,1729429015890.0,0.0
-4.869394,2.347359,3.515057,-1260.420044,-41.23,-150.289993,1729429015910.0,0.0
-6.4343,-4.931608,-6.54437,-889.140015,-124.529999,-177.309998,1729429015931.0,0.0
-8.303094,-9.32483,-9.35833,-274.75,-60.34,-76.019997,1729429015950.0,0.0
-7.49432,-2.768496,-11.004591,-121.029999,-34.580002,-58.240002,1729429015970.0,0.0
-3.493521,-6.321837,-14.557933,-133.139999,-38.5,-35.279999,1729429015989.0,0.0
-3.493521,-8.836694,-16.503298,6.44,-19.67,-17.92,1729429016010.0,0.0
-0.892523,-8.595018,-13.24906,270.899994,32.900002,15.33,1729429016031.0,0.0
-1.65344,-6.4678,-6.549156,516.880005,58.66,43.75,1729429016051.0,0.0
-4.278367,-3.481557,0.674776,747.109985,63.91,84.07,1729429016071.0,0.0
-5.008178,-3.940979,2.787638,839.22998,41.509998,74.690002,1729429016091.0,0.0
-3.677768,-7.893922,2.720639,872.47998,4.41,12.67,1729429016114.0,0.0
-4.307081,-5.259424,4.993821,938.419983,55.510002,-22.960001,1729429016130.0,0.0
-4.565506,-1.473979,9.60479,866.950012,144.479996,-36.889999,1729429016151.0,0.0
-1.70369,-3.096312,5.69731,532.909973,94.150002,-46.549999,1729429016171.0,0.0
-1.74676,3.026921,11.94497,243.460007,99.540001,-46.549999,1729429016192.0,0.0
-4.058227,-3.579663,9.717253,-112.559998,2.73,12.32,1729429016210.0,0.0
-3.826123,-6.618547,9.183653,-6.72,-5.74,6.51,1729429016231.0,0.0
-5.321638,-4.800002,11.018949,31.710001,9.66,-0.77,1729429016251.0,0.0
-3.54377,-10.600205,9.047262,-156.449997,-28.84,-4.83,1729429016271.0,0.0
-3.629912,-8.764909,7.298109,-333.970001,-28.84,-19.25,1729429016291.0,0.0
-2.919244,-5.704489,5.656632,-500.5,-28.91,-21.84,1729429016310.0,0.0
-2.895315,-6.613762,6.943972,-678.22998,-29.889999,-32.200001,1729429016332.0,0.0
-3.969693,-6.508478,10.147961,-901.669983,-40.599998,-50.610001,1729429016352.0,0.0
-5.388636,-8.193025,6.336195,-1011.429993,-58.869999,-130.759995,1729429016372.0,0.0
-8.65484,-2.486143,5.87438,-853.22998,-71.68,-163.660004,1729429016390.0,0.0
-6.661618,-5.647062,-1.488336,-651.070007,-84.699997,-171.639999,1729429016411.0,0.0
-6.216553,-4.969893,-8.776874,-531.159973,-89.040001,-157.009995,1729429016432.0,0.0
-4.371687,-5.328816,-14.545969,-359.940002,-74.340004,-113.470001,1729429016451.0,0.0
-2.45025,-0.375673,-12.854243,-173.460007,-22.889999,-82.459999,1729429016470.0,0.0
-1.682154,-4.06062,-9.379865,-18.34,-14.14,-25.969999,1729429016489.0,0.0
